File: Bakgrunnsmateriale/MATLAB/FTIR/ftir_data/subBb/Mapping_36/C-4040-8_t27.asc
PE IR       SPECTRUM    SPECTRUM    ASCII       PEDS        1.60
  -1
C-BD26~1.ASC
17/05/02
13:11:19.00
17/05/02
13:11:45.00
tln
$C-4040-8_t0027$<tbV0>[2.5,7.0,8.0,0.0,22,1,0]
27.028
64

2002,4.07
MIRTGS : RIGHTBACK : INTERNAL 2
MIR : ON : INTERNAL 2
OPTKBR

0.200000
8
8.000000
FILLER
RATIO
SPECTRUM
UNLOCKED 256

DOUBLE
64
COMBINED
1
0
0

0.002000
RATIO

1
0
TRUE
51149
0
LEFT NOT FITTED RIGHT NOT FITTED 0
NONE
NONE
15600
12
4.427000
51148
TRUE
1 0 8 72 0 0 0 0

15798

#HDR
-1
-1
#GR
µM
%T
2.38419e-05
0.0
1.282000
0.002000
12874
8
87.236
36.3949
#DATA
1.282000	 87.236
1.300000	 69.0385
1.318000	 68.4398
1.336000	 67.6086
1.354000	 66.4405
1.372000	 67.5047
1.390000	 64.384
1.408000	 62.498
1.426000	 67.0263
1.444000	 64.7735
1.462000	 63.7745
1.480000	 62.6236
1.498000	 63.244
1.516000	 65.3523
1.534000	 64.2646
1.552000	 65.2518
1.570000	 65.3046
1.588000	 65.4308
1.606000	 64.7588
1.624000	 65.7425
1.642000	 63.807
1.660000	 63.8917
1.678000	 64.7285
1.696000	 65.288
1.714000	 65.3994
1.732000	 64.9358
1.750000	 64.6083
1.768000	 65.0077
1.786000	 65.925
1.804000	 64.242
1.822000	 64.8685
1.840000	 64.683
1.858000	 65.9996
1.876000	 65.9902
1.894000	 63.8592
1.912000	 64.3254
1.930000	 65.086
1.948000	 65.0784
1.966000	 65.1008
1.984000	 65.2507
2.002000	 65.5268
2.020000	 64.8049
2.038000	 64.6987
2.056000	 64.6689
2.074000	 65.2043
2.092000	 65.2033
2.110000	 64.6485
2.128000	 64.8197
2.146000	 65.6105
2.164000	 65.048
2.182000	 65.5647
2.200000	 65.1565
2.218000	 65.6344
2.236000	 65.249
2.254000	 64.7894
2.272000	 65.2192
2.290000	 66.4229
2.308000	 65.7846
2.326000	 65.5571
2.344000	 65.497
2.362000	 65.2006
2.380000	 64.9781
2.398000	 65.3074
2.416000	 64.8678
2.434000	 65.2235
2.452000	 64.985
2.470000	 65.4035
2.488000	 64.969
2.506000	 65.3603
2.524000	 65.5713
2.542000	 65.4691
2.560000	 65.1165
2.578000	 65.3444
2.596000	 65.3047
2.614000	 65.4024
2.632000	 65.027
2.650000	 65.2627
2.668000	 65.4091
2.686000	 65.2709
2.704000	 65.3272
2.722000	 65.2432
2.740000	 65.1766
2.758000	 65.0906
2.776000	 65.2004
2.794000	 65.3922
2.812000	 65.2872
2.830000	 65.4475
2.848000	 65.2922
2.866000	 65.301
2.884000	 65.1433
2.902000	 65.4076
2.920000	 65.4131
2.938000	 65.1618
2.956000	 65.3227
2.974000	 65.2391
2.992000	 65.1311
3.010000	 65.4155
3.028000	 65.293
3.046000	 65.2193
3.064000	 65.1616
3.082000	 65.3379
3.100000	 65.3016
3.118000	 65.0787
3.136000	 65.3609
3.154000	 65.3703
3.172000	 65.3391
3.190000	 65.0659
3.208000	 65.3576
3.226000	 65.2375
3.244000	 65.2756
3.262000	 65.3287
3.280000	 65.3882
3.298000	 65.2014
3.316000	 65.2867
3.334000	 65.489
3.352000	 65.1829
3.370000	 65.2087
3.388000	 65.1749
3.406000	 65.1565
3.424000	 64.8881
3.442000	 65.0794
3.460000	 65.3263
3.478000	 65.0523
3.496000	 65.1054
3.514000	 65.1253
3.532000	 65.2906
3.550000	 65.2987
3.568000	 65.3415
3.586000	 65.3962
3.604000	 65.2462
3.622000	 65.2844
3.640000	 65.2189
3.658000	 65.3521
3.676000	 65.408
3.694000	 65.3698
3.712000	 65.4548
3.730000	 65.3244
3.748000	 65.4192
3.766000	 65.3538
3.784000	 65.2103
3.802000	 65.4327
3.820000	 65.3648
3.838000	 65.3232
3.856000	 65.4606
3.874000	 65.3621
3.892000	 65.3902
3.910000	 65.5521
3.928000	 65.5338
3.946000	 65.4134
3.964000	 65.5335
3.982000	 65.354
4.000000	 65.565
4.018000	 65.4351
4.036000	 65.3182
4.054000	 65.4157
4.072000	 65.362
4.090000	 65.3848
4.108000	 65.5026
4.125999	 65.2658
4.144000	 65.3952
4.162000	 65.2943
4.180000	 65.2653
4.198000	 65.2749
4.216000	 65.4191
4.234000	 65.3627
4.252000	 65.4084
4.270000	 65.3035
4.288000	 65.3041
4.306000	 65.3997
4.324000	 65.4624
4.342000	 65.4257
4.359999	 65.4508
4.378000	 65.4224
4.396000	 65.3473
4.414000	 65.4315
4.432000	 65.3345
4.450000	 65.4647
4.468000	 65.3897
4.486000	 65.2854
4.504000	 65.4061
4.522000	 65.4653
4.540000	 65.3736
4.558000	 65.4502
4.576000	 65.4872
4.594000	 65.3998
4.612000	 65.4066
4.630000	 65.3944
4.648000	 65.3912
4.666000	 65.3705
4.684000	 65.4604
4.702000	 65.4452
4.720000	 65.4246
4.738000	 65.4634
4.756000	 65.4477
4.774000	 65.436
4.792000	 65.4372
4.810000	 65.4458
4.828000	 65.3959
4.846000	 65.3573
4.864000	 65.4208
4.882000	 65.4037
4.900000	 65.4891
4.918000	 65.4488
4.936000	 65.4183
4.954000	 65.3583
4.972000	 65.3426
4.990000	 65.4912
5.008000	 65.437
5.026000	 65.3996
5.044000	 65.455
5.062000	 65.5663
5.080000	 65.5064
5.098000	 65.5201
5.116000	 65.5398
5.134000	 65.4099
5.152000	 65.4702
5.170000	 65.5421
5.188000	 65.5245
5.206000	 65.4488
5.224000	 65.3869
5.242000	 65.3803
5.260000	 65.3182
5.278000	 65.3574
5.296000	 65.3684
5.314000	 65.4483
5.332000	 65.449
5.350000	 65.4156
5.368000	 65.3335
5.386000	 65.3675
5.404000	 65.3851
5.422000	 65.3856
5.440000	 65.4712
5.458000	 65.4611
5.476000	 65.3756
5.494000	 65.3765
5.512000	 65.3956
5.530000	 65.3726
5.548000	 65.4393
5.566000	 65.4309
5.584000	 65.3489
5.602000	 65.3826
5.620000	 65.3661
5.638000	 65.3338
5.656000	 65.333
5.674000	 65.3419
5.692000	 65.3816
5.710000	 65.3015
5.728000	 65.1321
5.746000	 65.1114
5.764000	 65.1527
5.782000	 65.0747
5.800000	 65.1463
5.818000	 65.2802
5.836000	 65.2976
5.854000	 65.2686
5.872000	 65.3176
5.890000	 65.3551
5.908000	 65.3292
5.926000	 65.3774
5.944000	 65.4111
5.962000	 65.3232
5.980000	 65.2663
5.998000	 65.3369
6.016000	 65.3814
6.034000	 65.274
6.052000	 65.2573
6.070000	 65.281
6.088000	 65.2494
6.106000	 65.1818
6.124000	 65.1863
6.142000	 65.2814
6.160000	 65.3154
6.178000	 65.29
6.196000	 65.2457
6.214000	 65.2295
6.232000	 65.2634
6.250000	 65.275
6.268000	 65.2093
6.286000	 65.1783
6.304000	 65.1732
6.322000	 65.133
6.340000	 65.0937
6.358000	 65.1757
6.376000	 65.2935
6.394000	 65.2801
6.412000	 65.2182
6.430000	 65.186
6.448000	 65.1303
6.466000	 65.0623
6.484000	 65.0681
6.502000	 65.171
6.520000	 65.268
6.538000	 65.2658
6.556000	 65.203
6.574000	 65.1877
6.592000	 65.2034
6.610000	 65.2379
6.628000	 65.2152
6.646000	 65.177
6.664000	 65.2272
6.682000	 65.2979
6.700000	 65.2963
6.718000	 65.2375
6.736000	 65.21
6.754000	 65.2076
6.772000	 65.2041
6.790000	 65.1733
6.808000	 65.1433
6.826000	 65.1793
6.844000	 65.2345
6.862000	 65.2417
6.880000	 65.1548
6.898000	 65.0352
6.916000	 65.0324
6.934000	 65.1159
6.952000	 65.1936
6.970000	 65.2478
6.988000	 65.268
7.006000	 65.245
7.024000	 65.1995
7.042000	 65.1852
7.060000	 65.175
7.078000	 65.1058
7.096000	 65.0596
7.114000	 65.1065
7.132000	 65.1517
7.150000	 65.1367
7.168000	 65.1136
7.186000	 65.1132
7.204000	 65.0936
7.222000	 65.036
7.240000	 65.0292
7.258000	 65.1069
7.276000	 65.1656
7.294000	 65.1752
7.312000	 65.197
7.330000	 65.2149
7.348000	 65.1941
7.366000	 65.1795
7.384000	 65.1917
7.402000	 65.1912
7.420000	 65.1799
7.438000	 65.1826
7.456000	 65.184
7.474000	 65.175
7.492000	 65.1631
7.510000	 65.1361
7.528000	 65.1034
7.546000	 65.1013
7.564000	 65.1144
7.582000	 65.0994
7.600000	 65.0655
7.618000	 65.0565
7.636000	 65.0937
7.654000	 65.1484
7.672000	 65.166
7.690000	 65.132
7.708000	 65.0916
7.726000	 65.0835
7.744000	 65.0958
7.762000	 65.1151
7.780000	 65.1542
7.798000	 65.2027
7.816000	 65.2192
7.834000	 65.1974
7.852000	 65.1724
7.870000	 65.1597
7.888000	 65.1502
7.906000	 65.1498
7.924000	 65.1674
7.942000	 65.1837
7.960000	 65.1741
7.978000	 65.1363
7.996000	 65.0893
8.013999	 65.0649
8.032000	 65.088
8.050000	 65.1459
8.068000	 65.1926
8.086000	 65.198
8.103999	 65.1726
8.122000	 65.1451
8.140000	 65.1324
8.158000	 65.134
8.176000	 65.1393
8.193999	 65.1329
8.212000	 65.1056
8.230000	 65.0687
8.248000	 65.0462
8.266000	 65.0495
8.283999	 65.0698
8.302000	 65.0965
8.320000	 65.1225
8.338000	 65.1336
8.356000	 65.1116
8.374000	 65.059
8.391999	 65.0038
8.410000	 64.9736
8.428000	 64.9748
8.446000	 64.9973
8.464000	 65.0239
8.481999	 65.0364
8.500000	 65.0285
8.518000	 65.0147
8.536000	 65.0129
8.554000	 65.0179
8.571999	 65.0041
8.590000	 64.9576
8.608000	 64.8918
8.626000	 64.8363
8.644000	 64.8146
8.661999	 64.8255
8.680000	 64.8519
8.698000	 64.8815
8.716000	 64.9099
8.734000	 64.9265
8.751999	 64.9171
8.770000	 64.8861
8.788000	 64.8642
8.806000	 64.8794
8.824000	 64.9305
8.842000	 64.9968
8.859999	 65.0586
8.878000	 65.0996
8.896000	 65.1037
8.914000	 65.0644
8.932000	 64.992
8.949999	 64.9097
8.968000	 64.8409
8.986000	 64.8034
9.004000	 64.8052
9.022000	 64.8422
9.039999	 64.8936
9.058000	 64.9321
9.076000	 64.9452
9.094000	 64.9481
9.112000	 64.9715
9.129999	 65.0306
9.148000	 65.1025
9.166000	 65.1388
9.184000	 65.1039
9.202000	 65.0061
9.219999	 64.8947
9.238000	 64.8268
9.256000	 64.8288
9.274000	 64.8805
9.292000	 64.9318
9.310000	 64.9419
9.327999	 64.9056
9.346000	 64.8515
9.364000	 64.8151
9.382000	 64.8137
9.400000	 64.8384
9.418000	 64.8638
9.436000	 64.8683
9.454000	 64.8491
9.472000	 64.821
9.490000	 64.8032
9.508000	 64.7983
9.526000	 64.7909
9.544000	 64.7663
9.561999	 64.7327
9.580000	 64.7194
9.598000	 64.7501
9.616000	 64.8193
9.634000	 64.8925
9.652000	 64.929
9.670000	 64.9084
9.688000	 64.8401
9.706000	 64.7515
9.724000	 64.6713
9.742000	 64.6192
9.760000	 64.6075
9.778000	 64.6441
9.795999	 64.7262
9.814000	 64.8337
9.832000	 64.9302
9.850000	 64.9789
9.868000	 64.9662
9.886000	 64.9118
9.904000	 64.8574
9.922000	 64.8402
9.940000	 64.8705
9.958000	 64.9262
9.976000	 64.97
9.994000	 64.974
10.012	64.9358
10.03	64.8785
10.048	64.8367
10.066	64.835
10.084	64.8775
10.102	64.9506
10.12	65.0329
10.138	65.1074
10.156	65.1642
10.174	65.1978
10.192	65.2038
10.21	65.1802
10.228	65.1315
10.246	65.0682
10.264	65.0022
10.282	64.9422
10.3	64.8949
10.318	64.868
10.336	64.8696
10.354	64.9024
10.372	64.9568
10.39	65.009
10.408	65.0331
10.426	65.0128
10.444	64.9509
10.462	64.8641
10.48	64.7723
10.498	64.6904
10.516	64.6265
10.534	64.5867
10.552	64.5761
10.57	64.5957
10.588	64.6382
10.606	64.6881
10.624	64.7287
10.642	64.7493
10.66	64.7506
10.678	64.7432
10.696	64.7385
10.714	64.7442
10.732	64.7643
10.75	64.8003
10.768	64.857
10.786	64.9381
10.804	65.041
10.822	65.1531
10.84	65.2527
10.858	65.3185
10.876	65.3393
10.894	65.3191
10.912	65.2722
10.93	65.2156
10.948	65.1575
10.966	65.0948
10.984	65.0168
11.002	64.9086
11.02	64.7603
11.038	64.5665
11.056	64.3282
11.074	64.0545
11.092	63.7642
11.11	63.4857
11.128	63.253
11.146	63.0953
11.164	63.0276
11.182	63.0426
11.2	63.1137
11.218	63.2088
11.236	63.3003
11.254	63.3772
11.272	63.4465
11.29	63.5259
11.308	63.631
11.326	63.7685
11.344	63.9316
11.362	64.1037
11.38	64.2621
11.398	64.3859
11.416	64.4584
11.434	64.4701
11.452	64.4226
11.47	64.3311
11.488	64.2207
11.506	64.1274
11.524	64.0849
11.542	64.1128
11.56	64.2117
11.578	64.3604
11.596	64.5241
11.614	64.6641
11.632	64.7537
11.65	64.7845
11.668	64.765
11.686	64.7148
11.704	64.6544
11.722	64.5994
11.74	64.5566
11.758	64.5264
11.776	64.5074
11.794	64.5001
11.812	64.5068
11.83	64.5296
11.848	64.5673
11.866	64.6137
11.884	64.6583
11.902	64.6891
11.92	64.6977
11.938	64.6816
11.956	64.6443
11.974	64.5944
11.992	64.5432
12.01	64.5023
12.028	64.4815
12.046	64.4854
12.064	64.513
12.082	64.5567
12.1	64.6036
12.118	64.6396
12.136	64.654
12.154	64.6432
12.172	64.6119
12.19	64.5717
12.208	64.5372
12.226	64.5206
12.244	64.5274
12.262	64.5549
12.28	64.593
12.298	64.6283
12.316	64.6488
12.334	64.6473
12.352	64.6231
12.37	64.5804
12.388	64.5265
12.406	64.4686
12.424	64.4114
12.442	64.3575
12.46	64.3072
12.478	64.2608
12.496	64.2193
12.514	64.1855
12.532	64.1631
12.55	64.1553
12.568	64.1631
12.586	64.1852
12.604	64.2175
12.622	64.2539
12.64	64.2875
12.658	64.3126
12.676	64.3252
12.694	64.3243
12.712	64.3113
12.73	64.2894
12.748	64.263
12.766	64.2365
12.784	64.2136
12.802	64.1962
12.82	64.185
12.838	64.18
12.856	64.18
12.874	64.1839
12.892	64.1904
12.91	64.1982
12.928	64.206
12.946	64.2126
12.964	64.2171
12.982	64.2192
13	64.2194
13.018	64.2194
13.036	64.2213
13.054	64.2274
13.072	64.2394
13.09	64.2576
13.108	64.2797
13.126	64.3019
13.144	64.3192
13.162	64.3264
13.18	64.3199
13.198	64.2986
13.216	64.2636
13.234	64.2185
13.252	64.1684
13.27	64.1183
13.288	64.0724
13.306	64.0327
13.324	63.9992
13.342	63.97
13.36	63.942
13.378	63.9115
13.396	63.8759
13.414	63.8344
13.432	63.7881
13.45	63.7403
13.468	63.6955
13.486	63.6588
13.504	63.6349
13.522	63.6269
13.54	63.6358
13.558	63.6599
13.576	63.6961
13.594	63.7397
13.612	63.7851
13.63	63.8275
13.648	63.8636
13.666	63.8915
13.684	63.9106
13.702	63.9215
13.72	63.9253
13.738	63.9233
13.756	63.9164
13.774	63.9058
13.792	63.8926
13.81	63.8784
13.828	63.866
13.846	63.8583
13.864	63.858
13.882	63.8672
13.9	63.8866
13.918	63.9156
13.936	63.9516
13.954	63.9908
13.972	64.0285
13.99	64.0603
14.008	64.0827
14.026	64.0933
14.044	64.0913
14.062	64.0771
14.08	64.0518
14.098	64.0169
14.116	63.9733
14.134	63.9215
14.152	63.8616
14.17	63.7937
14.188	63.7183
14.206	63.6367
14.224	63.5517
14.242	63.4676
14.26	63.3897
14.278	63.3237
14.296	63.2747
14.314	63.2468
14.332	63.2421
14.35	63.2607
14.368	63.3002
14.386	63.3565
14.404	63.4237
14.422	63.4954
14.44	63.5655
14.458	63.6286
14.476	63.6801
14.494	63.7171
14.512	63.7376
14.53	63.7412
14.548	63.7285
14.566	63.7009
14.584	63.6605
14.602	63.6101
14.62	63.5525
14.638	63.4913
14.656	63.4301
14.674	63.3724
14.692	63.3211
14.71	63.2786
14.728	63.2463
14.746	63.225
14.764	63.2141
14.782	63.2125
14.8	63.2189
14.818	63.2319
14.836	63.2504
14.854	63.2735
14.872	63.3009
14.89	63.3324
14.908	63.3674
14.926	63.4055
14.944	63.4456
14.962	63.4857
14.98	63.5237
14.998	63.5573
15.016	63.5843
15.034	63.6025
15.052	63.6104
15.07	63.6082
15.088	63.5964
15.106	63.5763
15.124	63.55
15.142	63.52
15.16	63.4888
15.178	63.4582
15.196	63.43
15.214	63.4052
15.232	63.384
15.25	63.3661
15.268	63.3508
15.286	63.3377
15.304	63.3259
15.322	63.3149
15.34	63.3041
15.358	63.2931
15.376	63.2818
15.394	63.2703
15.412	63.259
15.43	63.2481
15.448	63.2385
15.466	63.2307
15.484	63.2253
15.502	63.2229
15.52	63.2237
15.538	63.2278
15.556	63.2346
15.574	63.2435
15.592	63.2531
15.61	63.2617
15.628	63.268
15.646	63.2704
15.664	63.2672
15.682	63.2575
15.7	63.2409
15.718	63.2176
15.736	63.1887
15.754	63.1557
15.772	63.1201
15.79	63.0848
15.808	63.0523
15.826	63.0248
15.844	63.0045
15.862	62.9932
15.88	62.9917
15.898	63.0004
15.916	63.019
15.934	63.0464
15.952	63.081
15.97	63.1211
15.988	63.1638
16.006	63.207
16.024	63.2484
16.042	63.2852
16.06	63.3154
16.078	63.3376
16.096	63.35
16.114	63.352
16.132	63.3433
16.15	63.324
16.168	63.2953
16.186	63.2589
16.204	63.2163
16.222	63.1706
16.24	63.1244
16.258	63.0799
16.276	63.0402
16.294	63.0069
16.312	62.9812
16.33	62.9638
16.348	62.9542
16.366	62.9517
16.384	62.9548
16.402	62.961
16.42	62.969
16.438	62.9761
16.456	62.9807
16.474	62.9818
16.492	62.9784
16.51	62.9708
16.528	62.9593
16.546	62.945
16.564	62.9294
16.582	62.9132
16.6	62.898
16.618	62.8846
16.636	62.8734
16.654	62.8645
16.672	62.8577
16.69	62.8525
16.708	62.8481
16.726	62.844
16.744	62.8397
16.762	62.8346
16.78	62.8289
16.798	62.8225
16.816	62.8156
16.834	62.8084
16.852	62.8012
16.87	62.7939
16.888	62.7864
16.906	62.7785
16.924	62.7698
16.942	62.7599
16.96	62.7485
16.978	62.7356
16.996	62.7211
17.014	62.7055
17.032	62.6892
17.05	62.6732
17.068	62.6582
17.086	62.645
17.104	62.635
17.122	62.6285
17.14	62.626
17.158	62.6271
17.176	62.6317
17.194	62.6383
17.212	62.6458
17.23	62.6526
17.248	62.6566
17.266	62.6568
17.284	62.6509
17.302	62.6385
17.32	62.6184
17.338	62.5912
17.356	62.5569
17.374	62.5173
17.392	62.4738
17.41	62.4284
17.428	62.384
17.446	62.3418
17.464	62.3054
17.482	62.2755
17.5	62.2542
17.518	62.2421
17.536	62.2399
17.554	62.2469
17.572	62.2628
17.59	62.2861
17.608	62.3151
17.626	62.3484
17.644	62.3834
17.662	62.4192
17.68	62.453
17.698	62.4842
17.716	62.5113
17.734	62.534
17.752	62.5518
17.77	62.5653
17.788	62.5745
17.806	62.5807
17.824	62.5844
17.842	62.5866
17.86	62.5881
17.878	62.5894
17.896	62.591
17.914	62.593
17.932	62.5953
17.95	62.5977
17.968	62.5997
17.986	62.6013
18.004	62.6019
18.022	62.6014
18.04	62.5996
18.058	62.5969
18.076	62.5931
18.094	62.589
18.112	62.5848
18.13	62.5814
18.148	62.5791
18.166	62.5785
18.184	62.5798
18.202	62.5831
18.22	62.5881
18.238	62.5949
18.256	62.6025
18.274	62.6106
18.292	62.6178
18.31	62.6238
18.328	62.6271
18.346	62.6273
18.364	62.6234
18.382	62.6151
18.4	62.6019
18.418	62.5838
18.436	62.561
18.454	62.5339
18.472	62.5028
18.49	62.4687
18.508	62.4317
18.526	62.3932
18.544	62.3534
18.562	62.3137
18.58	62.274
18.598	62.2356
18.616	62.1985
18.634	62.1637
18.652	62.1313
18.67	62.1016
18.688	62.0749
18.706	62.0513
18.724	62.0309
18.742	62.0135
18.76	61.9989
18.778	61.9869
18.796	61.977
18.814	61.9685
18.832	61.9609
18.85	61.9534
18.868	61.9452
18.886	61.9355
18.904	61.9234
18.922	61.9081
18.94	61.8891
18.958	61.8658
18.976	61.8382
18.994	61.8057
19.012	61.7689
19.03	61.728
19.048	61.6838
19.066	61.6369
19.084	61.5883
19.102	61.5391
19.12	61.4901
19.138	61.4425
19.156	61.3968
19.174	61.354
19.192	61.314
19.21	61.2777
19.228	61.2445
19.246	61.2142
19.264	61.1866
19.282	61.1609
19.3	61.137
19.318	61.1141
19.336	61.0921
19.354	61.0708
19.372	61.0501
19.39	61.0307
19.408	61.0123
19.426	60.9961
19.444	60.9821
19.462	60.9716
19.48	60.9644
19.498	60.9617
19.516	60.9638
19.534	60.9703
19.552	60.9814
19.57	60.9964
19.588	61.0153
19.606	61.0371
19.624	61.0607
19.642	61.0859
19.66	61.111
19.678	61.136
19.696	61.1593
19.714	61.1811
19.732	61.2002
19.75	61.2168
19.768	61.2306
19.786	61.2414
19.804	61.2499
19.822	61.256
19.84	61.2606
19.858	61.264
19.876	61.2667
19.894	61.2698
19.912	61.2731
19.93	61.2777
19.948	61.2834
19.966	61.2907
19.984	61.2998
20.002	61.3105
20.02	61.3229
20.038	61.3365
20.056	61.3508
20.074	61.3654
20.092	61.3789
20.11	61.3916
20.128	61.4016
20.146	61.409
20.164	61.4126
20.182	61.4119
20.2	61.4066
20.218	61.396
20.236	61.3802
20.254	61.3587
20.272	61.3319
20.29	61.3002
20.308	61.2635
20.326	61.223
20.344	61.1789
20.362	61.132
20.38	61.0834
20.398	61.033
20.416	60.9825
20.434	60.9316
20.452	60.8816
20.47	60.8329
20.488	60.7855
20.506	60.7401
20.524	60.6966
20.542	60.655
20.56	60.6154
20.578	60.5773
20.596	60.5407
20.614	60.5052
20.632	60.4702
20.65	60.4358
20.668	60.4013
20.686	60.3666
20.704	60.3314
20.722	60.2954
20.74	60.2588
20.758	60.2216
20.776	60.1837
20.794	60.1456
20.812	60.107
20.83	60.0687
20.848	60.0313
20.866	59.9949
20.884	59.961
20.902	59.9292
20.92	59.9012
20.938	59.8775
20.956	59.8583
20.974	59.845
20.992	59.837
21.01	59.8356
21.028	59.841
21.046	59.8531
21.064	59.8725
21.082	59.8989
21.1	59.9321
21.118	59.9722
21.136	60.0185
21.154	60.0703
21.172	60.1278
21.19	60.189
21.208	60.2542
21.226	60.322
21.244	60.3908
21.262	60.4611
21.28	60.53
21.298	60.598
21.316	60.6636
21.334	60.7251
21.352	60.783
21.37	60.8352
21.388	60.8817
21.406	60.922
21.424	60.9551
21.442	60.9812
21.46	60.9998
21.478	61.0106
21.496	61.0141
21.514	61.0103
21.532	60.9991
21.55	60.9817
21.568	60.9585
21.586	60.9297
21.604	60.8973
21.622	60.8606
21.64	60.8216
21.658	60.782
21.676	60.7412
21.694	60.7016
21.712	60.6634
21.73	60.6271
21.748	60.5948
21.766	60.566
21.784	60.5412
21.802	60.5211
21.82	60.5054
21.838	60.4943
21.856	60.4884
21.874	60.4864
21.892	60.4875
21.91	60.4923
21.928	60.4983
21.946	60.5049
21.964	60.5122
21.982	60.5163
22	60.5183
22.018	60.5162
22.036	60.5076
22.054	60.4934
22.072	60.4716
22.09	60.4407
22.108	60.4015
22.126	60.3527
22.144	60.2938
22.162	60.2255
22.18	60.1484
22.198	60.0619
22.216	59.968
22.234	59.8681
22.252	59.7612
22.27	59.6518
22.288	59.5408
22.306	59.4281
22.324	59.3195
22.342	59.2141
22.36	59.1137
22.378	59.0237
22.396	58.9421
22.414	58.8717
22.432	58.8158
22.45	58.7728
22.468	58.7442
22.486	58.7314
22.504	58.7337
22.522	58.7497
22.54	58.7802
22.558	58.8241
22.576	58.8772
22.594	58.941
22.612	59.0128
22.63	59.087
22.648	59.166
22.666	59.2458
22.684	59.3203
22.702	59.3925
22.72	59.458
22.738	59.5122
22.756	59.5577
22.774	59.591
22.792	59.6095
22.81	59.6148
22.828	59.6062
22.846	59.5829
22.864	59.5455
22.882	59.4958
22.9	59.4336
22.918	59.3594
22.936	59.2778
22.954	59.1888
22.972	59.0928
22.99	58.9957
23.008	58.8967
23.026	58.7969
23.044	58.7025
23.062	58.6125
23.08	58.5281
23.098	58.4545
23.116	58.3908
23.134	58.3377
23.152	58.2987
23.17	58.2732
23.188	58.2615
23.206	58.2652
23.224	58.2848
23.242	58.3192
23.26	58.3676
23.278	58.431
23.296	58.5077
23.314	58.5947
23.332	58.6935
23.35	58.802
23.368	58.9154
23.386	59.0354
23.404	59.16
23.422	59.284
23.44	59.4087
23.458	59.5328
23.476	59.6511
23.494	59.7641
23.512	59.8716
23.53	59.9695
23.548	60.058
23.566	60.1372
23.584	60.2045
23.602	60.2595
23.62	60.3027
23.638	60.3326
23.656	60.3483
23.674	60.3505
23.692	60.3399
23.71	60.316
23.728	60.2789
23.746	60.2308
23.764	60.1734
23.782	60.105
23.8	60.0285
23.818	59.9462
23.836	59.8562
23.854	59.7609
23.872	59.6629
23.89	59.5605
23.908	59.4556
23.926	59.3514
23.944	59.2468
23.962	59.1426
23.98	59.0423
23.998	58.9461
24.016	58.8532
24.034	58.7673
24.052	58.6897
24.07	58.6187
24.088	58.5574
24.106	58.5078
24.124	58.4683
24.142	58.4405
24.16	58.4269
24.178	58.4265
24.196	58.4395
24.214	58.4673
24.232	58.51
24.25	58.5672
24.268	58.6383
24.286	58.7235
24.304	58.8231
24.322	58.9347
24.34	59.0569
24.358	59.1917
24.376	59.3357
24.394	59.4848
24.412	59.6413
24.43	59.8033
24.448	59.9658
24.466	60.1284
24.484	60.2927
24.502	60.4525
24.52	60.6034
24.538	60.7492
24.556	60.8864
24.574	61.0108
24.592	61.1234
24.61	61.2245
24.628	61.3124
24.646	61.3857
24.664	61.4455
24.682	61.4937
24.7	61.5313
24.718	61.5561
24.736	61.5719
24.754	61.5835
24.772	61.5888
24.79	61.5886
24.808	61.5893
24.826	61.5935
24.844	61.597
24.862	61.6064
24.88	61.6284
24.898	61.6608
24.916	61.7036
24.934	61.7601
24.952	61.832
24.97	61.9177
24.988	62.0172
25.006	62.131
25.024	62.2626
25.042	62.4065
25.06	62.5549
25.078	62.7083
25.096	62.8702
25.114	63.0271
25.132	63.1679
25.15	63.3041
25.168	63.4258
25.186	63.5151
25.204	63.569
25.222	63.5962
25.24	63.5806
25.258	63.5067
25.276	63.3839
25.294	63.2086
25.312	62.9694
25.33	62.6604
25.348	62.2879
25.366	61.8502
25.384	61.3455
25.402	60.7691
25.42	60.1271
25.438	59.4291
25.456	58.6788
25.474	57.8658
25.492	57.0074
25.51	56.124
25.528	55.2096
25.546	54.261
25.564	53.304
25.582	52.3604
25.6	51.4099
25.618	50.4662
25.636	49.5553
25.654	48.6879
25.672	47.8462
25.69	47.0494
25.708	46.3188
25.726	45.6506
25.744	45.04
25.762	44.4994
25.78	44.0396
25.798	43.6554
25.816	43.3455
25.834	43.1114
25.852	42.956
25.87	42.8804
25.888	42.8759
25.906	42.9332
25.924	43.056
25.942	43.246
25.96	43.4883
25.978	43.7688
25.996	44.0999
26.014	44.4753
26.032	44.8757
26.05	45.2872
26.068	45.7271
26.086	46.1821
26.104	46.6318
26.122	47.0674
26.14	47.5047
26.158	47.9281
26.176	48.3198
26.194	48.679
26.212	49.0153
26.23	49.3133
26.248	49.558
26.266	49.7524
26.284	49.9007
26.302	49.995
26.32	50.0279
26.338	50.0012
26.356	49.9173
26.374	49.7761
26.392	49.5765
26.41	49.3149
26.428	48.997
26.446	48.631
26.464	48.2217
26.482	47.7591
26.5	47.2533
26.518	46.7178
26.536	46.1591
26.554	45.5635
26.572	44.9449
26.59	44.3203
26.608	43.6968
26.626	43.0595
26.644	42.4226
26.662	41.802
26.68	41.2026
26.698	40.6119
26.716	40.0422
26.734	39.5072
26.752	39.0107
26.77	38.5428
26.788	38.1122
26.806	37.7282
26.824	37.3939
26.842	37.1026
26.86	36.8584
26.878	36.6653
26.896	36.5256
26.914	36.4366
26.932	36.3972
26.95	36.4064
26.968	36.4835
26.986	36.6423
27.004	36.8231
27.022	36.9644
27.028	36.9885