File: Bakgrunnsmateriale/MATLAB/FTIR/ftir_data/subBb/Mapping_36/C-4040-8_t15_cm-1.asc
PE IR       SPECTRUM    SPECTRUM    ASCII       PEDS        1.60
  -1
C-1AEE~1.ASC
17/05/02
12:07:57.00
17/05/02
12:07:57.00
tln
$C-4040-8_t0015$<tbV0>[2.5,-3.0,8.0,0.0,22,1,0]
370
64

2002,4.07
MIRTGS : RIGHTBACK : INTERNAL 2
MIR : ON : INTERNAL 2
OPTKBR

0.200000
8
8.000000
FILLER
RATIO
SPECTRUM
UNLOCKED 256

DOUBLE
64
COMBINED
1
0
0

1.000000
RATIO

1
0
TRUE
51149
0
LEFT NOT FITTED RIGHT NOT FITTED 0
NONE
NONE
15600
12
4.427000
51148
TRUE
1 0 8 72 0 0 0 0

15798

#HDR
-1
-1
#GR
CM-1
%T
2.38419e-05
0.0
7800
-1.000000
7431
8
94.4559
30.7626
#DATA
7800	64.2974
7795	70.6156
7790	73.2064
7785	70.4938
7780	70.7533
7775	70.0486
7770	66.3612
7765	68.7124
7760	71.0197
7755	70.9212
7750	66.9924
7745	65.4044
7740	74.5345
7735	74.1947
7730	73.8501
7725	70.2523
7720	64.2025
7715	68.137
7710	72.9549
7705	75.0786
7700	70.2298
7695	64.9246
7690	65.1151
7685	66.8226
7680	68.5562
7675	70.1869
7670	71.025
7665	69.3414
7660	67.1562
7655	68.6155
7650	67.6905
7645	65.3834
7640	65.8618
7635	65.7902
7630	65.1056
7625	69.2288
7620	67.1034
7615	62.2869
7610	61.2057
7605	66.6073
7600	71.8776
7595	68.3323
7590	64.2867
7585	65.8443
7580	69.6167
7575	65.9495
7570	64.0294
7565	66.7178
7560	63.6449
7555	59.9459
7550	63.0519
7545	69.8001
7540	69.8473
7535	66.4471
7530	64.3169
7525	63.7562
7520	63.7542
7515	63.8853
7510	64.201
7505	62.5125
7500	60.9018
7495	63.0885
7490	66.2883
7485	65.3396
7480	63.5481
7475	63.6607
7470	64.5831
7465	64.6393
7460	63.105
7455	64.679
7450	66.6189
7445	66.2103
7440	66.1671
7435	66.2941
7430	66.778
7425	65.5287
7420	65.0849
7415	66.1632
7410	67.117
7405	67.477
7400	65.39
7395	63.5875
7390	65.3242
7385	64.8079
7380	61.2251
7375	60.8526
7370	63.6781
7365	65.7525
7360	67.6324
7355	67.1944
7350	66.3408
7345	63.6613
7340	61.2824
7335	63.1401
7330	65.5726
7325	68.2278
7320	69.2981
7315	64.0566
7310	61.4111
7305	64.2546
7300	66.5427
7295	66.6079
7290	64.9508
7285	64.0378
7280	64.6067
7275	66.4368
7270	66.2941
7265	62.9344
7260	62.4076
7255	63.9857
7250	64.4966
7245	64.7148
7240	63.8818
7235	65.9381
7230	66.5113
7225	65.2512
7220	64.9068
7215	63.4969
7210	63.3675
7205	64.8143
7200	64.849
7195	64.0441
7190	64.3236
7185	64.1573
7180	64.0167
7175	64.8704
7170	65.0451
7165	63.5676
7160	63.3576
7155	65.4022
7150	66.1571
7145	65.4182
7140	66.488
7135	64.9462
7130	64.1051
7125	66.6567
7120	67.3601
7115	65.6613
7110	65.1672
7105	63.9259
7100	63.6865
7095	64.2582
7090	63.8529
7085	63.3785
7080	64.4914
7075	64.2326
7070	63.2531
7065	65.0267
7060	66.3905
7055	65.6749
7050	64.8229
7045	65.0602
7040	64.5265
7035	61.8275
7030	60.8395
7025	63.2116
7020	65.1462
7015	63.3798
7010	62.8619
7005	63.9049
7000	64.1101
6995	64.5588
6990	63.1195
6985	61.8467
6980	63.0271
6975	63.9225
6970	64.2681
6965	63.1379
6960	62.8284
6955	63.8695
6950	64.3954
6945	65.0907
6940	64.4452
6935	62.6645
6930	62.3404
6925	62.9838
6920	62.3382
6915	63.4528
6910	64.0167
6905	63.7629
6900	64.1008
6895	64.4564
6890	62.7921
6885	62.6805
6880	64.8478
6875	64.7777
6870	64.8178
6865	64.2351
6860	63.3519
6855	63.1794
6850	63.6722
6845	64.2625
6840	62.9492
6835	61.7087
6830	64.0195
6825	66.1296
6820	64.2222
6815	62.7426
6810	63.5861
6805	64.8049
6800	66.2472
6795	66.0512
6790	65.0681
6785	64.0191
6780	63.0138
6775	62.6717
6770	64.17
6765	64.6416
6760	63.7116
6755	64.6658
6750	64.7157
6745	64.5108
6740	64.5467
6735	63.7199
6730	64.5344
6725	65.2983
6720	64.3129
6715	62.6736
6710	60.8493
6705	61.3875
6700	63.1724
6695	63.8977
6690	63.8195
6685	63.6942
6680	62.6671
6675	63.0223
6670	64.0088
6665	63.3754
6660	62.7023
6655	63.3493
6650	63.6577
6645	63.9547
6640	63.4406
6635	63.6215
6630	64.5092
6625	65.2321
6620	64.8214
6615	63.8263
6610	63.8571
6605	64.1119
6600	63.9868
6595	66.013
6590	66.4677
6585	64.333
6580	63.7074
6575	63.0686
6570	62.7227
6565	63.7914
6560	64.7203
6555	64.4696
6550	63.3852
6545	63.88
6540	65.2368
6535	65.0557
6530	63.2782
6525	62.4323
6520	63.7598
6515	64.3695
6510	63.8984
6505	63.9391
6500	64.873
6495	65.4546
6490	65.096
6485	63.9089
6480	63.7353
6475	64.732
6470	64.7675
6465	64.5411
6460	63.8576
6455	63.2588
6450	63.8148
6445	65.0862
6440	65.0614
6435	64.7436
6430	63.8208
6425	63.269
6420	64.0505
6415	63.9856
6410	64.0137
6405	64.6233
6400	64.7974
6395	64.7626
6390	63.2489
6385	62.5372
6380	62.8093
6375	63.3522
6370	63.7192
6365	64.1634
6360	64.8166
6355	64.2313
6350	63.7812
6345	63.4136
6340	63.2655
6335	63.9793
6330	64.1117
6325	63.5175
6320	63.7883
6315	64.6147
6310	64.5162
6305	64.5878
6300	64.3582
6295	64.5206
6290	64.1921
6285	63.4429
6280	62.8368
6275	63.2186
6270	64.3486
6265	64.5727
6260	64.0469
6255	64.4603
6250	64.6104
6245	64.1003
6240	63.7079
6235	63.9275
6230	64.2957
6225	64.6666
6220	64.1607
6215	63.49
6210	64.1574
6205	64.568
6200	64.5238
6195	64.9786
6190	64.3284
6185	64.7009
6180	65.8914
6175	65.5378
6170	64.983
6165	64.7887
6160	64.241
6155	63.7128
6150	64.6173
6145	65.2457
6140	64.8159
6135	64.2482
6130	63.8413
6125	64.0091
6120	64.3237
6115	64.0552
6110	63.8091
6105	63.7541
6100	63.5483
6095	63.6286
6090	64.3045
6085	64.5768
6080	64.1495
6075	64.7718
6070	64.9619
6065	64.736
6060	64.5649
6055	64.2853
6050	63.8111
6045	63.6993
6040	64.2313
6035	64.826
6030	64.4395
6025	63.639
6020	63.8865
6015	64.5678
6010	64.5382
6005	64.4257
6000	65.0256
5995	65.0622
5990	64.2457
5985	64.1226
5980	64.6353
5975	65.1523
5970	65.6839
5965	65.3531
5960	64.3966
5955	64.2413
5950	64.4729
5945	64.5435
5940	64.1575
5935	64.132
5930	64.2982
5925	64.2632
5920	64.5343
5915	64.3757
5910	63.8436
5905	64.2862
5900	64.9074
5895	65.0698
5890	65.0815
5885	64.7845
5880	64.2825
5875	64.4599
5870	64.2102
5865	63.7887
5860	64.5046
5855	64.8592
5850	64.764
5845	64.3247
5840	64.2061
5835	64.2448
5830	63.9694
5825	64.5904
5820	65.5658
5815	65.193
5810	63.9568
5805	63.5835
5800	63.7294
5795	63.7405
5790	63.8063
5785	64.1329
5780	64.6009
5775	64.0306
5770	63.7193
5765	64.0749
5760	64.5816
5755	64.5112
5750	64.5081
5745	64.4659
5740	64.5522
5735	64.4164
5730	64.0947
5725	64.1362
5720	64.4818
5715	63.6133
5710	63.2738
5705	63.9649
5700	64.733
5695	64.68
5690	64.2155
5685	64.1987
5680	63.969
5675	63.7346
5670	64.2544
5665	63.8462
5660	63.3842
5655	63.4524
5650	63.6623
5645	63.8124
5640	64.2022
5635	64.4921
5630	64.6882
5625	64.8256
5620	64.2634
5615	64.0717
5610	64.502
5605	64.5061
5600	63.8305
5595	63.4583
5590	63.7043
5585	63.6378
5580	63.7035
5575	64.106
5570	64.3557
5565	64.4295
5560	64.5832
5555	64.5308
5550	64.2163
5545	63.8539
5540	63.8841
5535	64.1068
5530	64.203
5525	64.3404
5520	63.984
5515	63.6794
5510	63.8041
5505	63.9238
5500	64.0525
5495	64.0958
5490	63.841
5485	64.092
5480	64.279
5475	64.1747
5470	64.1299
5465	63.9369
5460	63.9785
5455	64.3571
5450	64.2481
5445	64.0284
5440	64.3682
5435	65.0254
5430	64.8369
5425	64.2175
5420	63.7285
5415	63.7995
5410	64.6501
5405	65.0872
5400	64.9572
5395	64.7576
5390	64.324
5385	64.2563
5380	64.3327
5375	64.0182
5370	63.2549
5365	63.2029
5360	63.6697
5355	63.5844
5350	64.3151
5345	65.0546
5340	65.1141
5335	64.1382
5330	61.8067
5325	60.011
5320	60.9342
5315	61.9781
5310	60.9206
5305	60.017
5300	61.997
5295	62.7366
5290	64.1467
5285	64.3305
5280	62.2495
5275	62.4065
5270	63.2359
5265	63.0317
5260	64.4331
5255	66.1735
5250	66.5987
5245	66.0069
5240	63.6515
5235	62.9472
5230	63.292
5225	63.6161
5220	64.3625
5215	63.7628
5210	63.0615
5205	63.6262
5200	63.7147
5195	63.8963
5190	64.0862
5185	63.6423
5180	63.4932
5175	63.7085
5170	63.819
5165	63.4568
5160	63.6835
5155	64.1292
5150	63.8602
5145	63.7352
5140	63.8462
5135	63.7153
5130	63.781
5125	64.1618
5120	64.207
5115	64.1245
5110	63.8992
5105	63.7456
5100	63.9772
5095	64.174
5090	64.3313
5085	64.0575
5080	63.6882
5075	63.7732
5070	63.9029
5065	63.8247
5060	63.9669
5055	63.9463
5050	63.6942
5045	63.7268
5040	63.6246
5035	63.4904
5030	63.8347
5025	64.0171
5020	64.1278
5015	64.188
5010	64.031
5005	63.9633
5000	64.0284
4995	63.818
4990	63.5398
4985	63.8855
4980	64.4557
4975	64.3696
4970	63.762
4965	63.8633
4960	63.7756
4955	63.6023
4950	63.8043
4945	63.9425
4940	64.129
4935	64.2131
4930	63.8805
4925	63.5644
4920	63.9332
4915	64.1953
4910	64.1989
4905	64.1016
4900	63.8717
4895	64.0318
4890	63.8247
4885	63.2637
4880	63.6064
4875	64.0841
4870	63.711
4865	63.5267
4860	63.5255
4855	63.7011
4850	63.8135
4845	63.7475
4840	63.7853
4835	63.8131
4830	63.6434
4825	63.6527
4820	63.5335
4815	63.2899
4810	63.3766
4805	63.5452
4800	63.8026
4795	63.881
4790	63.7305
4785	63.748
4780	63.9369
4775	63.9736
4770	63.6463
4765	63.4516
4760	63.4444
4755	63.5002
4750	63.6489
4745	63.6618
4740	63.5971
4735	63.6264
4730	63.6108
4725	63.689
4720	63.97
4715	63.9116
4710	63.5915
4705	63.67
4700	63.6557
4695	63.3098
4690	63.3023
4685	63.5067
4680	63.4779
4675	63.465
4670	63.572
4665	63.4341
4660	63.3939
4655	63.506
4650	63.7499
4645	63.8673
4640	63.7626
4635	63.7622
4630	63.9104
4625	63.9397
4620	63.7801
4615	63.7562
4610	63.7967
4605	63.7349
4600	63.677
4595	63.6912
4590	63.7965
4585	63.6861
4580	63.703
4575	63.5433
4570	63.3067
4565	63.4835
4560	63.6081
4555	63.5179
4550	63.5312
4545	63.6732
4540	63.7592
4535	63.7917
4530	63.762
4525	63.7239
4520	63.507
4515	63.4264
4510	63.5288
4505	63.7125
4500	63.7574
4495	63.6264
4490	63.598
4485	63.6977
4480	63.8438
4475	63.8955
4470	63.8758
4465	63.7041
4460	63.8644
4455	63.9545
4450	63.5565
4445	63.4429
4440	64.1085
4435	64.7577
4430	64.2826
4425	63.7554
4420	64.0223
4415	63.6066
4410	64.2523
4405	65.444
4400	63.7945
4395	70.4884
4390	94.4559
4385	49.7845
4380	33.4778
4375	56.2991
4370	63.6621
4365	64.8099
4360	64.2118
4355	64.1355
4350	64.6684
4345	64.5098
4340	64.2797
4335	64.1255
4330	63.9401
4325	63.6708
4320	63.404
4315	63.7246
4310	64.0125
4305	63.9066
4300	63.5746
4295	63.6351
4290	63.6901
4285	63.5965
4280	63.5983
4275	63.6407
4270	63.6749
4265	63.6435
4260	63.6647
4255	63.7131
4250	63.5439
4245	63.6182
4240	63.6399
4235	63.6227
4230	63.6451
4225	63.6393
4220	63.5885
4215	63.2398
4210	63.0507
4205	62.9993
4200	62.9868
4195	63.37
4190	63.5183
4185	63.2058
4180	62.9964
4175	63.132
4170	63.1336
4165	62.9663
4160	62.9863
4155	63.1297
4150	62.9588
4145	62.7582
4140	62.7759
4135	62.9111
4130	63.0537
4125	62.988
4120	62.8268
4115	62.8129
4110	63.0578
4105	63.0164
4100	62.9676
4095	63.0666
4090	63.0294
4085	62.9153
4080	62.9428
4075	62.8093
4070	62.7171
4065	62.9345
4060	62.8895
4055	62.8855
4050	63.0148
4045	62.9496
4040	62.8989
4035	62.8689
4030	62.8194
4025	62.772
4020	62.8546
4015	62.9816
4010	62.928
4005	62.901
4000	62.8598
3995	62.6589
3990	62.5461
3985	62.6539
3980	62.8206
3975	62.9094
3970	62.9012
3965	62.81
3960	62.8247
3955	62.687
3950	62.7332
3945	62.8563
3940	62.8992
3935	62.8023
3930	62.8059
3925	62.9353
3920	62.8864
3915	62.9647
3910	62.9984
3905	62.7484
3900	62.6482
3895	62.8233
3890	63.0384
3885	63.1719
3880	62.7614
3875	62.3812
3870	62.4246
3865	62.5666
3860	62.6593
3855	62.7438
3850	62.8977
3845	62.827
3840	62.6168
3835	62.5716
3830	62.6409
3825	62.6237
3820	62.4757
3815	62.4848
3810	62.6062
3805	62.5926
3800	62.5554
3795	62.5348
3790	62.4765
3785	62.5182
3780	62.5953
3775	62.562
3770	62.4552
3765	62.3614
3760	62.4198
3755	62.5107
3750	62.6251
3745	62.5152
3740	62.425
3735	62.431
3730	62.3425
3725	62.2381
3720	62.2268
3715	62.2694
3710	62.3205
3705	62.4446
3700	62.4295
3695	62.3945
3690	62.4155
3685	62.3205
3680	62.1976
3675	62.1762
3670	62.1196
3665	62.0776
3660	62.0863
3655	62.0471
3650	62.0941
3645	62.1458
3640	62.1683
3635	62.1669
3630	62.0781
3625	61.9255
3620	61.959
3615	62.07
3610	62.0774
3605	62.0829
3600	62.0035
3595	62.0184
3590	61.9566
3585	61.8639
3580	61.9608
3575	61.8972
3570	61.6681
3565	61.6434
3560	61.9074
3555	62.0188
3550	61.9652
3545	61.8614
3540	61.7356
3535	61.7317
3530	61.6875
3525	61.6153
3520	61.685
3515	61.7598
3510	61.7387
3505	61.6327
3500	61.5571
3495	61.6752
3490	61.9329
3485	61.8205
3480	61.5883
3475	61.6305
3470	61.6979
3465	61.789
3460	61.7395
3455	61.5988
3450	61.8831
3445	61.9282
3440	61.7333
3435	61.7496
3430	61.614
3425	61.3997
3420	61.3236
3415	61.2211
3410	61.2732
3405	61.3588
3400	61.3845
3395	61.2624
3390	61.1489
3385	61.1897
3380	61.1883
3375	61.2292
3370	61.2874
3365	61.2637
3360	61.2969
3355	61.3494
3350	61.3398
3345	61.1881
3340	61.1101
3335	61.1519
3330	61.1032
3325	61.1081
3320	61.1927
3315	61.1732
3310	61.0748
3305	61.0204
3300	60.98
3295	60.8736
3290	60.7673
3285	60.8011
3280	60.8795
3275	60.8963
3270	60.8649
3265	60.8152
3260	60.7441
3255	60.7289
3250	60.7694
3245	60.8505
3240	60.8082
3235	60.7274
3230	60.6548
3225	60.5443
3220	60.5481
3215	60.643
3210	60.6939
3205	60.675
3200	60.5412
3195	60.4712
3190	60.4594
3185	60.432
3180	60.4569
3175	60.5158
3170	60.546
3165	60.4876
3160	60.381
3155	60.3386
3150	60.2894
3145	60.2607
3140	60.2318
3135	60.1291
3130	60.1903
3125	60.2599
3120	60.1971
3115	60.162
3110	60.1763
3105	60.2074
3100	60.3347
3095	60.3561
3090	60.2241
3085	60.214
3080	60.2099
3075	60.1329
3070	60.0553
3065	60.0565
3060	60.1018
3055	60.0877
3050	59.9894
3045	59.9003
3040	59.8815
3035	59.7792
3030	59.7564
3025	59.8639
3020	59.8227
3015	59.6623
3010	59.6705
3005	59.7347
3000	59.6458
2995	59.5416
2990	59.5484
2985	59.6058
2980	59.6064
2975	59.5507
2970	59.4411
2965	59.4059
2960	59.3809
2955	59.2504
2950	59.1292
2945	59.0624
2940	59.0037
2935	59.0775
2930	59.0994
2925	59.0004
2920	58.9873
2915	59.0951
2910	59.128
2905	59.0271
2900	59.0413
2895	59.1228
2890	59.0485
2885	58.8696
2880	58.9019
2875	59.0272
2870	58.9671
2865	58.8257
2860	58.8275
2855	58.8523
2850	58.7765
2845	58.6826
2840	58.7355
2835	58.7744
2830	58.7618
2825	58.7205
2820	58.6239
2815	58.7029
2810	58.7515
2805	58.626
2800	58.614
2795	58.6116
2790	58.5183
2785	58.4438
2780	58.4597
2775	58.4635
2770	58.4301
2765	58.4254
2760	58.3774
2755	58.338
2750	58.3792
2745	58.3266
2740	58.3102
2735	58.3203
2730	58.3291
2725	58.2889
2720	58.2235
2715	58.1562
2710	58.0729
2705	58.0806
2700	58.0506
2695	58.0048
2690	57.9647
2685	57.9482
2680	57.9211
2675	57.8417
2670	57.7116
2665	57.6837
2660	57.7796
2655	57.7421
2650	57.7168
2645	57.7515
2640	57.7712
2635	57.7242
2630	57.701
2625	57.6279
2620	57.517
2615	57.5156
2610	57.4843
2605	57.5202
2600	57.4842
2595	57.461
2590	57.4325
2585	57.355
2580	57.2664
2575	57.1806
2570	57.1919
2565	57.1818
2560	57.1809
2555	57.1913
2550	57.1248
2545	57.0857
2540	57.0895
2535	57.1018
2530	57.1367
2525	57.1178
2520	57.0259
2515	56.9024
2510	56.816
2505	56.8161
2500	56.8414
2495	56.7782
2490	56.8419
2485	56.9459
2480	56.8385
2475	56.6999
2470	56.697
2465	56.7395
2460	56.7137
2455	56.5894
2450	56.5229
2445	56.5181
2440	56.558
2435	56.5985
2430	56.5133
2425	56.4152
2420	56.3422
2415	56.3874
2410	56.3931
2405	56.2853
2400	56.1553
2395	56.1029
2390	56.0941
2385	56.024
2380	55.974
2375	55.9508
2370	55.9347
2365	55.871
2360	55.7801
2355	55.7433
2350	55.7105
2345	55.6803
2340	55.6966
2335	55.6399
2330	55.524
2325	55.5284
2320	55.6253
2315	55.5676
2310	55.4343
2305	55.349
2300	55.3954
2295	55.3782
2290	55.2659
2285	55.2819
2280	55.3485
2275	55.3537
2270	55.2771
2265	55.1544
2260	55.1698
2255	55.2107
2250	55.1556
2245	55.1117
2240	55.0922
2235	55.073
2230	55.0496
2225	54.9714
2220	54.9177
2215	54.8981
2210	54.8466
2205	54.7917
2200	54.7715
2195	54.7854
2190	54.7197
2185	54.5938
2180	54.4695
2175	54.4368
2170	54.5133
2165	54.571
2160	54.528
2155	54.4233
2150	54.2941
2145	54.186
2140	54.189
2135	54.1992
2130	54.1116
2125	54.0461
2120	54.0736
2115	54.1433
2110	54.1842
2105	54.1037
2100	54.0208
2095	53.9229
2090	53.8785
2085	53.8904
2080	53.8635
2075	53.7925
2070	53.7224
2065	53.6653
2060	53.6706
2055	53.7958
2050	53.7428
2045	53.58
2040	53.5007
2035	53.4652
2030	53.4502
2025	53.4896
2020	53.5093
2015	53.4258
2010	53.3334
2005	53.3141
2000	53.2662
1995	53.217
1990	53.1926
1985	53.1952
1980	53.1894
1975	53.1369
1970	53.0615
1965	53.0239
1960	53.0179
1955	53.0188
1950	53.0069
1945	52.9845
1940	52.9488
1935	52.8917
1930	52.8314
1925	52.7666
1920	52.685
1915	52.6171
1910	52.5036
1905	52.5007
1900	52.4815
1895	52.4176
1890	52.3951
1885	52.3815
1880	52.358
1875	52.3276
1870	52.3098
1865	52.306
1860	52.1679
1855	52.0616
1850	52.0991
1845	52.1093
1840	52.0073
1835	51.8829
1830	51.8676
1825	51.8489
1820	51.8736
1815	51.8957
1810	51.8578
1805	51.7432
1800	51.6486
1795	51.6317
1790	51.5965
1785	51.6187
1780	51.5884
1775	51.5062
1770	51.4409
1765	51.4392
1760	51.3959
1755	51.253
1750	51.1935
1745	51.2453
1740	51.2662
1735	51.1691
1730	51.0545
1725	51.041
1720	51.038
1715	50.9892
1710	51.02
1705	50.9922
1700	50.9174
1695	50.911
1690	50.8686
1685	50.7892
1680	50.7718
1675	50.7423
1670	50.7529
1665	50.6984
1660	50.5487
1655	50.5168
1650	50.5201
1645	50.4558
1640	50.4178
1635	50.4814
1630	50.4864
1625	50.3785
1620	50.3678
1615	50.3741
1610	50.271
1605	50.1349
1600	50.0609
1595	50.0655
1590	50.0189
1585	50.0143
1580	50.0453
1575	49.9624
1570	49.8492
1565	49.7684
1560	49.7356
1555	49.7209
1550	49.7217
1545	49.6752
1540	49.5853
1535	49.5706
1530	49.6399
1525	49.6701
1520	49.5946
1515	49.5855
1510	49.567
1505	49.5509
1500	49.5803
1495	49.3886
1490	49.2911
1485	49.3858
1480	49.4205
1475	49.304
1470	49.2203
1465	49.1691
1460	49.1292
1455	49.0912
1450	49.0252
1445	49.007
1440	49.0113
1435	48.966
1430	48.925
1425	48.9359
1420	48.8785
1415	48.829
1410	48.7522
1405	48.719
1400	48.7248
1395	48.7485
1390	48.699
1385	48.6405
1380	48.5342
1375	48.4005
1370	48.3687
1365	48.3999
1360	48.4146
1355	48.3285
1350	48.2346
1345	48.1936
1340	48.1617
1335	48.1577
1330	48.0935
1325	47.9986
1320	47.9969
1315	47.9926
1310	47.9586
1305	47.9619
1300	47.9223
1295	47.8125
1290	47.8001
1285	47.7906
1280	47.7843
1275	47.7942
1270	47.7609
1265	47.7416
1260	47.6162
1255	47.4287
1250	47.3915
1245	47.4245
1240	47.4089
1235	47.4449
1230	47.4616
1225	47.388
1220	47.2643
1215	47.1999
1210	47.2647
1205	47.2682
1200	47.1917
1195	47.1534
1190	47.089
1185	46.9458
1180	46.9346
1175	47.023
1170	47.0498
1165	46.9618
1160	46.8296
1155	46.7762
1150	46.7507
1145	46.6449
1140	46.5121
1135	46.3922
1130	46.3711
1125	46.3935
1120	46.2737
1115	46.1847
1110	46.1666
1105	46.133
1100	46.1108
1095	46.1065
1090	46.1522
1085	46.1879
1080	46.1576
1075	45.9986
1070	45.9206
1065	45.9603
1060	45.897
1055	45.8204
1050	45.7438
1045	45.8048
1040	45.8487
1035	45.7679
1030	45.7201
1025	45.6544
1020	45.5799
1015	45.5538
1010	45.4801
1005	45.4787
1000	45.356
995	 45.3048
990	 45.363
985	 45.5018
980	 45.5963
975	 45.5206
970	 45.2516
965	 45.1615
960	 45.2131
955	 44.9123
950	 44.6691
945	 44.4503
940	 44.142
935	 43.9947
930	 44.5251
925	 44.6946
920	 44.425
915	 44.5528
910	 44.7685
905	 44.4566
900	 44.2201
895	 44.2382
890	 44.1137
885	 44.0976
880	 44.1015
875	 43.8853
870	 43.9994
865	 44.0717
860	 43.9054
855	 43.8672
850	 43.9121
845	 43.6237
840	 43.3913
835	 43.5061
830	 43.4213
825	 43.2692
820	 43.439
815	 43.6216
810	 43.3793
805	 43.1191
800	 43.0928
795	 43.0853
790	 43.1641
785	 43.2802
780	 43.2197
775	 43.1051
770	 42.9106
765	 42.8761
760	 42.938
755	 42.8186
750	 42.6815
745	 42.6453
740	 42.742
735	 42.5983
730	 42.3175
725	 42.2456
720	 42.1576
715	 41.9898
710	 41.931
705	 41.8941
700	 41.9468
695	 41.9345
690	 41.6689
685	 41.4107
680	 41.181
675	 41.1051
670	 41.1708
665	 41.0445
660	 40.9988
655	 41.0493
650	 40.9149
645	 40.5409
640	 40.4114
635	 40.3402
630	 40.1914
625	 40.3319
620	 40.1381
615	 39.9551
610	 39.9424
605	 39.8956
600	 39.8964
595	 39.7522
590	 39.5456
585	 39.0923
580	 39.0495
575	 38.9646
570	 38.5273
565	 38.5337
560	 38.8382
555	 38.9063
550	 38.7706
545	 38.4335
540	 38.2228
535	 37.8814
530	 37.5422
525	 37.4642
520	 37.5257
515	 37.5612
510	 37.3677
505	 37.7177
500	 37.643
495	 36.7283
490	 36.2656
485	 36.3773
480	 36.2922
475	 35.9107
470	 35.8232
465	 35.677
460	 35.0928
455	 34.791
450	 34.6735
445	 34.3503
440	 33.6777
435	 32.7487
430	 32.4918
425	 32.9692
420	 32.7653
415	 31.4832
410	 30.7626
405	 32.8141
400	 36.5107
395	 35.7306
390	 36.9628
385	 35.3724
380	 37.5691
375	 38.1903
370	 32.1816