File: Bakgrunnsmateriale/MATLAB/FTIR/ftir_data/subBb/Mapping_36/C-4040-8_t21_cm-1.asc
PE IR       SPECTRUM    SPECTRUM    ASCII       PEDS        1.60
  -1
C-9AE4~1.ASC
17/05/02
12:36:41.00
17/05/02
12:36:41.00
tln
$C-4040-8_t0021$<tbV0>[2.5,2.0,8.0,0.0,22,1,0]
370
64

2002,4.07
MIRTGS : RIGHTBACK : INTERNAL 2
MIR : ON : INTERNAL 2
OPTKBR

0.200000
8
8.000000
FILLER
RATIO
SPECTRUM
UNLOCKED 256

DOUBLE
64
COMBINED
1
0
0

1.000000
RATIO

1
0
TRUE
51149
0
LEFT NOT FITTED RIGHT NOT FITTED 0
NONE
NONE
15600
12
4.427000
51148
TRUE
1 0 8 72 0 0 0 0

15798

#HDR
-1
-1
#GR
CM-1
%T
2.38419e-05
0.0
7800
-1.000000
7431
8
139.33
46.1224
#DATA
7800	63.7466
7795	66.0713
7790	62.307
7785	58.3289
7780	68.6554
7775	71.4052
7770	69.2833
7765	77.9002
7760	79.7727
7755	80.528
7750	67.9951
7745	60.1438
7740	67.2507
7735	71.7284
7730	76.1087
7725	73.1707
7720	69.034
7715	70.2516
7710	72.7722
7705	77.8483
7700	71.0865
7695	67.2129
7690	73.2773
7685	73.4075
7680	70.2104
7675	70.3033
7670	70.4879
7665	67.9044
7660	65.8069
7655	63.8485
7650	62.9445
7645	63.8156
7640	67.5218
7635	70.2942
7630	66.5953
7625	67.3203
7620	66.8672
7615	62.3535
7610	62.0014
7605	67.0209
7600	66.9434
7595	60.6198
7590	59.9041
7585	65.4396
7580	67.3157
7575	63.8768
7570	63.6183
7565	66.9533
7560	69.6468
7555	66.4806
7550	62.7222
7545	63.7532
7540	64.1863
7535	62.844
7530	65.4261
7525	68.2657
7520	68.7084
7515	67.5561
7510	68.2697
7505	67.8295
7500	67.5692
7495	67.8032
7490	66.8301
7485	66.2229
7480	63.2988
7475	63.3868
7470	65.1549
7465	65.6422
7460	65.3372
7455	64.1363
7450	63.876
7445	64.5397
7440	64.4258
7435	64.8134
7430	68.163
7425	68.897
7420	68.7066
7415	69.0334
7410	67.5831
7405	66.4022
7400	66.0097
7395	64.7244
7390	63.9248
7385	65.4341
7380	66.007
7375	67.8899
7370	68.1723
7365	64.4639
7360	64.6991
7355	66.661
7350	68.1823
7345	66.7642
7340	64.2171
7335	65.0941
7330	68.766
7325	68.8659
7320	66.0691
7315	64.835
7310	64.3975
7305	64.6772
7300	65.1006
7295	65.8697
7290	66.0725
7285	63.6348
7280	62.6117
7275	62.8952
7270	65.226
7265	66.2379
7260	64.2278
7255	65.1756
7250	68.1794
7245	67.7838
7240	64.648
7235	65.3363
7230	66.4535
7225	64.9444
7220	64.4295
7215	64.7047
7210	64.4666
7205	64.4583
7200	65.24
7195	62.535
7190	61.1587
7185	64.3516
7180	67.1081
7175	65.9444
7170	62.7433
7165	62.105
7160	62.7545
7155	65.0071
7150	65.4556
7145	62.695
7140	63.1575
7135	63.6654
7130	63.2258
7125	62.3041
7120	62.8175
7115	65.543
7110	65.9988
7105	63.4816
7100	62.8135
7095	63.329
7090	64.0129
7085	64.3247
7080	63.7786
7075	62.948
7070	63.7137
7065	66.2281
7060	67.4325
7055	66.5594
7050	62.6382
7045	60.6471
7040	62.9001
7035	63.2427
7030	62.0499
7025	63.6055
7020	67.0193
7015	65.5319
7010	63.3036
7005	62.1658
7000	63.553
6995	64.8357
6990	63.0872
6985	63.6613
6980	64.4232
6975	63.8057
6970	64.3019
6965	64.1853
6960	64.5689
6955	65.6163
6950	64.2786
6945	64.4239
6940	65.1016
6935	64.0848
6930	62.9588
6925	63.6652
6920	64.0826
6915	63.3393
6910	62.7265
6905	63.8406
6900	65.8067
6895	65.1089
6890	63.9721
6885	64.0817
6880	64.5502
6875	64.2653
6870	64.4778
6865	63.7648
6860	62.0117
6855	62.0322
6850	63.5896
6845	64.8111
6840	64.1312
6835	64.0742
6830	66.1061
6825	66.5643
6820	65.4434
6815	64.7187
6810	64.0754
6805	62.9865
6800	63.753
6795	65.4897
6790	64.3981
6785	63.604
6780	63.1283
6775	62.5215
6770	63.4456
6765	63.7752
6760	63.7908
6755	64.2539
6750	64.4117
6745	64.1983
6740	63.8178
6735	63.1794
6730	62.5159
6725	62.5145
6720	62.9558
6715	62.5314
6710	62.2048
6705	63.4069
6700	63.5898
6695	62.6519
6690	62.6457
6685	64.2881
6680	64.6639
6675	64.0627
6670	63.3412
6665	62.7632
6660	63.8006
6655	64.1102
6650	64.2263
6645	65.1509
6640	64.4397
6635	64.6629
6630	66.0371
6625	66.7267
6620	66.6304
6615	66.0513
6610	66.4096
6605	65.8675
6600	65.2086
6595	66.4102
6590	66.0537
6585	64.7059
6580	64.544
6575	63.5705
6570	63.9
6565	66.4912
6560	67.6607
6555	67.6154
6550	66.8496
6545	64.8518
6540	63.8022
6535	64.4391
6530	64.8125
6525	63.9938
6520	64.3793
6515	65.7375
6510	66.5686
6505	66.3072
6500	66.7219
6495	67.2431
6490	66.3148
6485	65.6139
6480	65.4836
6475	64.7149
6470	64.9368
6465	65.1526
6460	65.1096
6455	64.934
6450	64.4244
6445	64.6888
6440	65.8573
6435	66.4335
6430	65.3352
6425	64.6613
6420	65.5293
6415	65.5155
6410	65.0782
6405	65.67
6400	66.0831
6395	65.1256
6390	63.3071
6385	63.4804
6380	64.8334
6375	65.2975
6370	64.913
6365	64.0284
6360	63.9894
6355	64.2818
6350	64.7274
6345	65.1049
6340	64.3456
6335	63.5079
6330	64.1727
6325	65.2241
6320	65.7364
6315	65.752
6310	64.3546
6305	64.1865
6300	65.4355
6295	65.8603
6290	64.8166
6285	64.3785
6280	64.0355
6275	63.938
6270	64.7269
6265	64.8288
6260	64.5826
6255	63.842
6250	63.8272
6245	64.5839
6240	64.8247
6235	64.6293
6230	65.0952
6225	65.9318
6220	64.8745
6215	63.9325
6210	64.6703
6205	64.5839
6200	64.0889
6195	64.439
6190	64.2267
6185	64.419
6180	64.4939
6175	63.9086
6170	64.9344
6165	65.9024
6160	65.0645
6155	64.2319
6150	65.1944
6145	65.5151
6140	64.4362
6135	64.6724
6130	64.7984
6125	65.2448
6120	65.1229
6115	64.7715
6110	64.3844
6105	64.3449
6100	64.4129
6095	64.8516
6090	65.1608
6085	65.1247
6080	65.9888
6075	66.2178
6070	65.696
6065	65.5388
6060	65.6395
6055	65.8134
6050	65.7202
6045	65.5436
6040	64.9821
6035	64.9869
6030	65.0515
6025	64.7769
6020	65.5706
6015	65.8068
6010	65.6022
6005	66.0447
6000	65.5936
5995	65.4108
5990	65.4348
5985	65.124
5980	65.2059
5975	65.1647
5970	65.3314
5965	65.9548
5960	66.0197
5955	65.0893
5950	65.0223
5945	65.2459
5940	64.9047
5935	64.8936
5930	64.4931
5925	64.0337
5920	64.6277
5915	65.0756
5910	64.8925
5905	64.816
5900	65.1825
5895	65.3067
5890	64.7309
5885	64.27
5880	64.1566
5875	64.4935
5870	64.4264
5865	63.8668
5860	64.2059
5855	64.6336
5850	64.863
5845	64.7871
5840	64.2708
5835	64.0929
5830	64.6445
5825	65.4199
5820	65.4704
5815	64.7029
5810	64.0315
5805	64.3116
5800	64.7173
5795	64.3869
5790	64.6726
5785	65.0554
5780	65.0112
5775	64.9494
5770	64.8224
5765	64.7893
5760	64.6225
5755	65.096
5750	65.3342
5745	65.0252
5740	65.1237
5735	65.3249
5730	65.7244
5725	65.5748
5720	65.0841
5715	64.7657
5710	64.8258
5705	64.544
5700	64.5643
5695	64.6584
5690	64.9736
5685	64.8719
5680	64.3898
5675	64.9337
5670	65.4572
5665	64.6666
5660	63.852
5655	64.4042
5650	65.2291
5645	65.4315
5640	65.5713
5635	65.6746
5630	65.4807
5625	65.404
5620	65.3431
5615	65.1604
5610	65.1726
5605	65.569
5600	65.8339
5595	65.52
5590	65.2839
5585	64.6642
5580	64.2185
5575	64.8601
5570	65.4062
5565	65.4158
5560	65.0248
5555	64.8184
5550	64.4236
5545	64.6056
5540	65.0919
5535	65.3252
5530	65.44
5525	65.4358
5520	65.1842
5515	65.0405
5510	64.9921
5505	65.098
5500	65.2284
5495	65.5235
5490	65.08
5485	64.8255
5480	65.3865
5475	65.3323
5470	65.4886
5465	65.5522
5460	65.1626
5455	65.0078
5450	65.3003
5445	65.3046
5440	65.2364
5435	65.2441
5430	65.0081
5425	64.8863
5420	64.7438
5415	64.5823
5410	64.679
5405	64.7185
5400	64.9315
5395	64.8061
5390	64.3655
5385	64.6455
5380	65.113
5375	65.2488
5370	64.9668
5365	64.4529
5360	64.4618
5355	64.1865
5350	64.2782
5345	65.4324
5340	65.3939
5335	64.9791
5330	65.8563
5325	65.77
5320	63.753
5315	63.0117
5310	63.5588
5305	64.7065
5300	64.8241
5295	64.6844
5290	65.5274
5285	65.3985
5280	64.403
5275	64.1271
5270	62.7444
5265	63.1921
5260	67.1998
5255	69.9474
5250	69.4179
5245	67.4488
5240	64.5907
5235	64.0002
5230	65.4129
5225	65.608
5220	65.6929
5215	65.5437
5210	64.6081
5205	64.2818
5200	64.4093
5195	64.9227
5190	65.1631
5185	65.3401
5180	65.7249
5175	65.4705
5170	65.2312
5165	65.2137
5160	65.1422
5155	65.0255
5150	65.1304
5145	65.7167
5140	66.0167
5135	65.1763
5130	64.8221
5125	65.3902
5120	65.4392
5115	65.1165
5110	65.0532
5105	65.2619
5100	65.4352
5095	65.6856
5090	65.7037
5085	65.3525
5080	65.1967
5075	65.1903
5070	65.1785
5065	65.0659
5060	65.1874
5055	64.7755
5050	64.5465
5045	65.0209
5040	64.8516
5035	64.5779
5030	64.783
5025	64.5102
5020	64.4228
5015	64.8755
5010	65.0577
5005	64.8882
5000	64.9187
4995	64.9511
4990	65.0017
4985	64.9563
4980	64.7631
4975	64.8081
4970	64.8434
4965	64.6601
4960	64.3296
4955	64.3704
4950	64.7708
4945	65.0788
4940	64.9601
4935	64.8165
4930	64.7196
4925	64.833
4920	65.15
4915	65.1578
4910	65.2209
4905	65.2028
4900	64.9251
4895	64.8405
4890	64.6809
4885	64.5004
4880	64.8381
4875	64.9237
4870	64.8535
4865	65.1354
4860	65.011
4855	64.9138
4850	64.9416
4845	64.9737
4840	65.3158
4835	65.2676
4830	65.2342
4825	65.3077
4820	65.0378
4815	64.9808
4810	64.9066
4805	64.8126
4800	64.8646
4795	65.2022
4790	65.5755
4785	65.6029
4780	65.4377
4775	65.3923
4770	65.3787
4765	65.4347
4760	65.7503
4755	66.0772
4750	65.5324
4745	65.0327
4740	65.0352
4735	65.1471
4730	65.2813
4725	65.282
4720	65.3919
4715	65.5278
4710	65.686
4705	65.7883
4700	65.4949
4695	65.2613
4690	65.3255
4685	65.286
4680	65.0776
4675	65.1347
4670	65.4713
4665	65.4804
4660	65.3245
4655	65.4159
4650	65.5106
4645	65.4518
4640	65.4567
4635	65.3829
4630	65.2527
4625	65.2211
4620	65.2484
4615	65.3653
4610	65.5069
4605	65.379
4600	64.9295
4595	64.9609
4590	65.0467
4585	64.9067
4580	64.9105
4575	64.6037
4570	64.6447
4565	64.8151
4560	64.4922
4555	64.2681
4550	64.2343
4545	64.2027
4540	64.4321
4535	64.5216
4530	64.1075
4525	63.8148
4520	63.6904
4515	63.7284
4510	63.975
4505	64.1327
4500	64.0004
4495	63.8961
4490	63.8159
4485	63.7593
4480	63.8355
4475	64.0909
4470	64.3152
4465	64.2115
4460	63.9081
4455	63.9138
4450	64.0595
4445	63.9522
4440	63.7505
4435	63.9827
4430	64.182
4425	64.1098
4420	63.8574
4415	63.5547
4410	64.1681
4405	65.1428
4400	64.0845
4395	77.1381
4390	134.685
4385	109.486
4380	70.1016
4375	64.3934
4370	64.3395
4365	63.7403
4360	63.7184
4355	64.3745
4350	64.5226
4345	63.8309
4340	63.6364
4335	63.7007
4330	63.7427
4325	63.498
4320	63.6254
4315	63.9556
4310	64.0144
4305	64.1783
4300	64.2884
4295	64.2951
4290	64.2458
4285	64.1213
4280	64.2147
4275	64.305
4270	64.2552
4265	64.3037
4260	64.4727
4255	64.4482
4250	64.2523
4245	64.4017
4240	64.6799
4235	64.5722
4230	64.5407
4225	64.7668
4220	64.6905
4215	64.4928
4210	64.6333
4205	64.8292
4200	64.8819
4195	64.9435
4190	64.7234
4185	64.7377
4180	64.8467
4175	64.6858
4170	64.7713
4165	65.1361
4160	65.1397
4155	65.012
4150	65.0886
4145	65.1962
4140	65.2444
4135	65.4352
4130	65.2962
4125	65.237
4120	65.5858
4115	65.8503
4110	65.8332
4105	65.5895
4100	65.6558
4095	65.7496
4090	65.5022
4085	65.411
4080	65.4131
4075	65.1438
4070	65.0855
4065	65.3016
4060	65.3196
4055	65.3398
4050	65.637
4045	65.6618
4040	65.2807
4035	65.1949
4030	65.3527
4025	65.2898
4020	65.2711
4015	65.3368
4010	65.3816
4005	65.3845
4000	65.3979
3995	65.3775
3990	65.3978
3985	65.2709
3980	65.078
3975	65.1636
3970	65.1594
3965	65.1375
3960	65.1858
3955	65.1687
3950	65.1701
3945	65.141
3940	65.2462
3935	65.3019
3930	65.2325
3925	65.1774
3920	65.1194
3915	65.1354
3910	65.2926
3905	65.0869
3900	64.9096
3895	65.0512
3890	65.0128
3885	64.998
3880	65.0719
3875	65.0924
3870	65.0458
3865	65.0296
3860	65.118
3855	64.99
3850	64.9473
3845	65.0677
3840	65.1721
3835	65.2304
3830	65.2072
3825	65.0502
3820	64.8674
3815	64.8024
3810	64.9179
3805	64.9468
3800	64.9564
3795	65.0495
3790	65.1939
3785	65.1435
3780	65.1311
3775	65.1406
3770	65.2193
3765	65.2743
3760	65.2577
3755	65.3165
3750	65.3229
3745	65.0607
3740	64.9623
3735	65.2021
3730	65.1728
3725	65.0573
3720	65.1778
3715	65.3547
3710	65.4618
3705	65.3443
3700	65.0933
3695	65.135
3690	65.2695
3685	65.2202
3680	65.2976
3675	65.5066
3670	65.4412
3665	65.2598
3660	65.1355
3655	65.1144
3650	65.3046
3645	65.5075
3640	65.5525
3635	65.3748
3630	65.2962
3625	65.444
3620	65.5069
3615	65.4267
3610	65.3103
3605	65.2244
3600	65.2646
3595	65.1473
3590	65.0269
3585	65.0815
3580	65.2701
3575	65.4802
3570	65.3632
3565	65.1729
3560	65.1986
3555	65.3007
3550	65.3279
3545	65.2209
3540	65.0442
3535	65.1844
3530	65.3567
3525	65.2595
3520	65.2551
3515	65.3474
3510	65.3098
3505	65.2558
3500	65.2034
3495	65.1508
3490	65.194
3485	65.123
3480	65.0941
3475	65.1411
3470	65.0019
3465	65.0061
3460	65.0187
3455	65.0749
3450	65.3009
3445	65.3301
3440	65.1745
3435	65.1144
3430	65.0954
3425	65.0573
3420	65.0579
3415	65.1137
3410	65.0549
3405	64.9453
3400	64.9954
3395	65.0498
3390	65.0333
3385	65.0814
3380	65.0563
3375	65.0054
3370	65.0154
3365	65.0589
3360	65.1046
3355	65.0926
3350	65.121
3345	65.1487
3340	65.2782
3335	65.3579
3330	65.2218
3325	65.1734
3320	65.1875
3315	65.1716
3310	65.2005
3305	65.3256
3300	65.3364
3295	65.2076
3290	65.0927
3285	65.1185
3280	65.2107
3275	65.2628
3270	65.1865
3265	65.2207
3260	65.337
3255	65.3386
3250	65.1466
3245	65.1316
3240	65.2899
3235	65.353
3230	65.1589
3225	65.0007
3220	65.0787
3215	65.1949
3210	65.2102
3205	65.1988
3200	65.2231
3195	65.206
3190	65.1887
3185	65.1902
3180	65.1806
3175	65.2411
3170	65.2428
3165	65.1206
3160	65.0916
3155	65.1162
3150	65.091
3145	65.1695
3140	65.2227
3135	65.2397
3130	65.292
3125	65.2958
3120	65.2384
3115	65.2691
3110	65.3037
3105	65.2813
3100	65.3477
3095	65.4168
3090	65.3935
3085	65.322
3080	65.2146
3075	65.1905
3070	65.1995
3065	65.2126
3060	65.3182
3055	65.4125
3050	65.3177
3045	65.156
3040	65.0889
3035	64.9497
3030	65.0038
3025	65.1439
3020	65.151
3015	65.2219
3010	65.2649
3005	65.2218
3000	65.2017
2995	65.3064
2990	65.325
2985	65.2147
2980	65.1047
2975	65.1602
2970	65.2346
2965	65.2016
2960	65.1215
2955	64.9786
2950	64.9017
2945	65
2940	65.047
2935	65.0264
2930	65.0157
2925	64.8802
2920	64.8981
2915	64.9315
2910	64.9682
2905	65.0396
2900	65.0302
2895	64.9715
2890	65.032
2885	65.088
2880	65.1343
2875	65.1922
2870	65.1679
2865	65.1227
2860	65.0806
2855	65.04
2850	65.015
2845	65.0398
2840	65.1441
2835	65.1984
2830	65.2689
2825	65.3458
2820	65.2309
2815	65.2325
2810	65.2977
2805	65.1976
2800	65.1859
2795	65.1785
2790	65.2076
2785	65.2276
2780	65.1984
2775	65.2553
2770	65.2919
2765	65.355
2760	65.2941
2755	65.1357
2750	65.1665
2745	65.2663
2740	65.3132
2735	65.3274
2730	65.314
2725	65.3177
2720	65.3725
2715	65.3996
2710	65.3225
2705	65.2962
2700	65.2441
2695	65.2342
2690	65.2616
2685	65.2688
2680	65.251
2675	65.2016
2670	65.2256
2665	65.1939
2660	65.2036
2655	65.2106
2650	65.2742
2645	65.2669
2640	65.2343
2635	65.234
2630	65.2733
2625	65.2173
2620	65.1968
2615	65.3336
2610	65.3092
2605	65.3524
2600	65.3725
2595	65.3012
2590	65.2349
2585	65.2287
2580	65.2255
2575	65.2935
2570	65.3031
2565	65.2588
2560	65.305
2555	65.3515
2550	65.3664
2545	65.3131
2540	65.2484
2535	65.2823
2530	65.341
2525	65.3188
2520	65.2252
2515	65.2021
2510	65.2888
2505	65.3094
2500	65.315
2495	65.2979
2490	65.1784
2485	65.2494
2480	65.3678
2475	65.3979
2470	65.3649
2465	65.3395
2460	65.3886
2455	65.3501
2450	65.2827
2445	65.3661
2440	65.4288
2435	65.4433
2430	65.4421
2425	65.435
2420	65.4396
2415	65.4353
2410	65.2707
2405	65.1932
2400	65.2871
2395	65.3347
2390	65.3106
2385	65.3114
2380	65.3197
2375	65.3057
2370	65.3267
2365	65.3661
2360	65.3822
2355	65.3423
2350	65.3636
2345	65.4227
2340	65.4285
2335	65.3573
2330	65.2967
2325	65.3317
2320	65.3753
2315	65.3695
2310	65.2875
2305	65.2473
2300	65.3398
2295	65.434
2290	65.3608
2285	65.2755
2280	65.3044
2275	65.3621
2270	65.3692
2265	65.3287
2260	65.3646
2255	65.4079
2250	65.3229
2245	65.3003
2240	65.3704
2235	65.3821
2230	65.3315
2225	65.2872
2220	65.2742
2215	65.257
2210	65.2354
2205	65.2294
2200	65.2396
2195	65.2719
2190	65.3321
2185	65.4164
2180	65.3845
2175	65.3112
2170	65.3007
2165	65.3554
2160	65.4025
2155	65.3476
2150	65.3031
2145	65.3373
2140	65.3719
2135	65.3397
2130	65.2332
2125	65.2254
2120	65.31
2115	65.2995
2110	65.2805
2105	65.3581
2100	65.2932
2095	65.2355
2090	65.2042
2085	65.2024
2080	65.2378
2075	65.2612
2070	65.2832
2065	65.2395
2060	65.2239
2055	65.2898
2050	65.2912
2045	65.2994
2040	65.3603
2035	65.3271
2030	65.287
2025	65.2754
2020	65.2503
2015	65.3064
2010	65.3637
2005	65.3875
2000	65.3185
1995	65.1779
1990	65.126
1985	65.237
1980	65.3497
1975	65.3461
1970	65.3087
1965	65.2641
1960	65.2618
1955	65.2955
1950	65.2787
1945	65.2746
1940	65.2376
1935	65.2333
1930	65.3087
1925	65.2917
1920	65.2487
1915	65.2895
1910	65.236
1905	65.2172
1900	65.2309
1895	65.282
1890	65.2912
1885	65.2691
1880	65.307
1875	65.2682
1870	65.2411
1865	65.2248
1860	65.1955
1855	65.2931
1850	65.3152
1845	65.2673
1840	65.2623
1835	65.2339
1830	65.2782
1825	65.3392
1820	65.274
1815	65.2051
1810	65.1952
1805	65.1539
1800	65.1882
1795	65.2569
1790	65.2869
1785	65.2964
1780	65.3214
1775	65.2718
1770	65.1706
1765	65.1764
1760	65.2738
1755	65.2849
1750	65.2091
1745	65.1383
1740	65.1286
1735	65.0731
1730	64.9815
1725	65.0762
1720	65.1831
1715	65.1389
1710	65.1463
1705	65.1497
1700	65.1331
1695	65.1506
1690	65.1888
1685	65.1867
1680	65.1483
1675	65.1503
1670	65.1837
1665	65.1747
1660	65.1126
1655	65.0744
1650	65.1256
1645	65.2148
1640	65.2177
1635	65.1964
1630	65.1662
1625	65.1469
1620	65.1723
1615	65.1662
1610	65.124
1605	65.1458
1600	65.148
1595	65.1444
1590	65.1554
1585	65.1355
1580	65.1476
1575	65.1108
1570	65.0352
1565	65.141
1560	65.2585
1555	65.1441
1550	65.109
1545	65.1633
1540	65.113
1535	65.0391
1530	65.0558
1525	65.0872
1520	65.0239
1515	65.0362
1510	65.1027
1505	65.1716
1500	65.2477
1495	65.2315
1490	65.2163
1485	65.081
1480	65.0233
1475	65.0232
1470	65.0485
1465	65.0953
1460	65.0727
1455	64.95
1450	64.8623
1445	64.8714
1440	64.9073
1435	64.9091
1430	64.995
1425	65.0234
1420	65.065
1415	65.1083
1410	65.1279
1405	65.076
1400	65.0138
1395	65.0045
1390	65.044
1385	65.0588
1380	64.9902
1375	64.9846
1370	65.04
1365	65.0053
1360	64.983
1355	65.0412
1350	65.1046
1345	65.1628
1340	65.158
1335	65.0853
1330	65.0824
1325	65.0257
1320	64.9536
1315	65.001
1310	65.1083
1305	65.0375
1300	64.8846
1295	64.865
1290	65.0207
1285	65.0857
1280	65.065
1275	64.8735
1270	64.7808
1265	64.9826
1260	65.1013
1255	64.9735
1250	64.8921
1245	64.9652
1240	64.9119
1235	64.8188
1230	64.9289
1225	65.0823
1220	64.9833
1215	64.921
1210	64.9593
1205	64.8646
1200	64.8556
1195	64.997
1190	65.0264
1185	64.9461
1180	64.9421
1175	64.9238
1170	64.9348
1165	64.9175
1160	64.9228
1155	64.8524
1150	64.795
1145	64.7404
1140	64.7169
1135	64.6657
1130	64.6551
1125	64.6792
1120	64.7331
1115	64.7923
1110	64.8609
1105	64.9259
1100	64.8432
1095	64.7396
1090	64.6372
1085	64.6515
1080	64.7337
1075	64.6558
1070	64.7851
1065	64.8968
1060	64.7614
1055	64.7425
1050	64.9132
1045	65.0779
1040	64.9583
1035	64.8138
1030	64.7426
1025	64.7549
1020	64.7393
1015	64.693
1010	64.8049
1005	64.8752
1000	64.7383
995	 64.7585
990	 64.9767
985	 65.0685
980	 64.8419
975	 64.5897
970	 64.5211
965	 64.6967
960	 64.7852
955	 64.7792
950	 64.9374
945	 64.8471
940	 64.4835
935	 64.2962
930	 64.3587
925	 64.7092
920	 64.8136
915	 64.4833
910	 64.2634
905	 64.1798
900	 64.3229
895	 64.5337
890	 64.8918
885	 65.1628
880	 64.8304
875	 64.4793
870	 65.0163
865	 65.1301
860	 64.4688
855	 63.9634
850	 63.8964
845	 63.9739
840	 64.0304
835	 64.0174
830	 64.0524
825	 64.0162
820	 63.9165
815	 64.1817
810	 64.2586
805	 64.0973
800	 63.9562
795	 63.9557
790	 64.0461
785	 63.9648
780	 63.9159
775	 63.8419
770	 63.7331
765	 63.7152
760	 63.6802
755	 63.5791
750	 63.7284
745	 63.851
740	 63.7626
735	 63.6625
730	 63.4957
725	 63.3772
720	 63.3685
715	 63.328
710	 63.1836
705	 63.132
700	 62.9846
695	 63.0247
690	 63.1758
685	 63.0169
680	 62.7454
675	 62.6889
670	 62.873
665	 62.848
660	 62.8044
655	 62.8642
650	 62.6109
645	 62.4762
640	 62.5758
635	 62.6374
630	 62.8134
625	 62.9177
620	 62.5917
615	 62.2604
610	 61.9117
605	 61.6399
600	 61.8442
595	 61.9947
590	 61.7434
585	 61.6675
580	 61.6677
575	 61.639
570	 61.7785
565	 61.8822
560	 61.9512
555	 61.8621
550	 61.4744
545	 60.9913
540	 60.9274
535	 60.9519
530	 61.0427
525	 61.0163
520	 61.0366
515	 61.1816
510	 60.8415
505	 60.4584
500	 60.9257
495	 60.7705
490	 60.3124
485	 60.3135
480	 60.0245
475	 59.5538
470	 59.5813
465	 59.5121
460	 59.0077
455	 59.1774
450	 59.1789
445	 58.29
440	 57.969
435	 56.9362
430	 56.1087
425	 56.9659
420	 56.9036
415	 56.9087
410	 56.9823
405	 57.6146
400	 58.3166
395	 58.5306
390	 56.4083
385	 48.035
380	 49.2321
375	 57.0634
370	 57.4448