File: Bakgrunnsmateriale/MATLAB/FTIR/ftir_data/subBb/Mapping_36/C-4040-8_t05_cm-1.asc
PE IR       SPECTRUM    SPECTRUM    ASCII       PEDS        1.60
  -1
C-99EE~1.ASC
17/05/02
11:13:31.00
17/05/02
11:13:31.00
tln
$C-4040-8_t0005$<tbV0>[-7.5,-13.0,8.0,0.0,22,1,0]
370
64

2002,4.07
MIRTGS : RIGHTBACK : INTERNAL 2
MIR : ON : INTERNAL 2
OPTKBR

0.200000
8
8.000000
FILLER
RATIO
SPECTRUM
UNLOCKED 256

DOUBLE
64
COMBINED
1
0
0

1.000000
RATIO

1
0
TRUE
51149
0
LEFT NOT FITTED RIGHT NOT FITTED 0
NONE
NONE
15600
12
4.427000
51148
TRUE
1 0 8 72 0 0 0 0

15798

#HDR
-1
-1
#GR
CM-1
%T
2.38419e-05
0.0
7800
-1.000000
7431
8
77.0961
35.7846
#DATA
7800	63.6576
7795	66.639
7790	66.8092
7785	63.4792
7780	59.9511
7775	60.3844
7770	62.3474
7765	68.3527
7760	72.0982
7755	73.0772
7750	68.3744
7745	65.3362
7740	67.1638
7735	68.0079
7730	65.2413
7725	63.7102
7720	63.6424
7715	64.365
7710	62.4618
7705	67.3819
7700	65.1952
7695	60.6097
7690	63.3368
7685	67.7678
7680	71.7001
7675	68.5042
7670	66.8199
7665	68.2402
7660	67.4035
7655	68.2403
7650	67.2776
7645	66.4897
7640	67.9505
7635	64.9485
7630	63.8646
7625	66.2654
7620	67.0413
7615	66.4105
7610	66.2987
7605	67.3974
7600	65.8219
7595	64.7168
7590	63.0725
7585	61.0333
7580	65.6189
7575	67.0865
7570	63.8197
7565	63.741
7560	64.7669
7555	66.9278
7550	66.2221
7545	65.7871
7540	68.9483
7535	70.1254
7530	66.8901
7525	62.5278
7520	63.6592
7515	67.8389
7510	68.2415
7505	65.162
7500	62.4836
7495	63.2879
7490	63.6919
7485	62.3695
7480	63.2173
7475	62.3621
7470	60.6117
7465	64.0227
7460	67.248
7455	67.9827
7450	66.4575
7445	65.8605
7440	64.412
7435	60.1983
7430	59.4899
7425	62.0543
7420	62.8423
7415	64.2665
7410	66.7853
7405	65.9768
7400	63.9566
7395	63.31
7390	62.5124
7385	60.6895
7380	59.8979
7375	59.8691
7370	61.1892
7365	62.076
7360	61.223
7355	61.078
7350	62.6766
7345	63.3931
7340	63.4168
7335	63.1889
7330	64.2349
7325	64.3913
7320	64.3541
7315	65.3283
7310	66.8686
7305	66.1645
7300	63.7968
7295	62.2187
7290	62.6705
7285	62.0085
7280	62.6022
7275	65.1806
7270	66.1897
7265	64.6826
7260	62.7061
7255	62.7574
7250	63.6629
7245	64.3527
7240	63.3768
7235	62.0637
7230	63.5411
7225	64.287
7220	64.3236
7215	63.4534
7210	61.9783
7205	63.7866
7200	64.6092
7195	65.0053
7190	65.3299
7185	66.9457
7180	65.8645
7175	62.9448
7170	62.4574
7165	61.4814
7160	60.3094
7155	60.2352
7150	61.1602
7145	63.2479
7140	63.008
7135	60.8385
7130	60.3117
7125	61.4351
7120	62.1576
7115	63.4383
7110	62.787
7105	62.2191
7100	63.6484
7095	63.1278
7090	61.9567
7085	62.8664
7080	63.4764
7075	64.3596
7070	63.5815
7065	63.0599
7060	64.1735
7055	63.8201
7050	63.017
7045	63.1294
7040	63.707
7035	64.5963
7030	64.4171
7025	61.1359
7020	60.0917
7015	64.6115
7010	63.6296
7005	63.2394
7000	64.152
6995	62.7117
6990	63.2531
6985	63.2729
6980	63.5571
6975	65.6686
6970	66.4767
6965	63.5377
6960	62.779
6955	63.821
6950	63.0073
6945	62.3415
6940	62.9402
6935	64.2626
6930	64.0283
6925	64.6617
6920	64.1029
6915	63.3244
6910	64.394
6905	63.6514
6900	63.6741
6895	64.0271
6890	63.3608
6885	63.8817
6880	64.644
6875	63.4479
6870	63.0432
6865	63.1601
6860	63.7541
6855	65.2184
6850	64.9199
6845	63.6941
6840	62.2217
6835	61.5191
6830	63.5602
6825	64.2725
6820	64.2736
6815	64.5693
6810	62.9752
6805	62.0562
6800	62.5888
6795	62.6711
6790	63.0496
6785	63.0102
6780	62.0003
6775	62.5599
6770	63.8826
6765	64.8721
6760	64.4588
6755	64.0642
6750	63.9025
6745	63.2164
6740	63.3119
6735	63.0348
6730	62.1713
6725	62.4257
6720	63.3347
6715	63.5828
6710	62.851
6705	63.0384
6700	64.0946
6695	63.105
6690	62.7214
6685	64.2735
6680	64.3769
6675	63.9338
6670	64.032
6665	63.9763
6660	63.3638
6655	63.7263
6650	63.9354
6645	64.0323
6640	63.5293
6635	62.9071
6630	63.4419
6625	64.2648
6620	64.8924
6615	64.7649
6610	64.7919
6605	65.5807
6600	64.4736
6595	63.5157
6590	64.2635
6585	63.8639
6580	64.093
6575	64.4333
6570	62.4786
6565	62.1364
6560	64.1634
6555	63.8831
6550	62.5185
6545	63.0358
6540	63.1863
6535	62.2549
6530	62.6997
6525	64.6971
6520	64.5588
6515	64.2518
6510	63.8911
6505	63.3121
6500	64.0368
6495	63.932
6490	62.9724
6485	63.2176
6480	64.2198
6475	63.7644
6470	63.1075
6465	64.6289
6460	65.6153
6455	64.489
6450	63.881
6445	65.0039
6440	65.988
6435	64.6553
6430	63.5406
6425	63.7776
6420	63.9476
6415	64.4844
6410	64.4937
6405	64.7929
6400	64.6021
6395	64.1973
6390	63.6148
6385	63.1486
6380	63.3069
6375	64.3469
6370	64.6935
6365	64.4825
6360	64.2559
6355	64.1255
6350	64.0258
6345	63.5595
6340	63.3527
6335	64.0539
6330	64.8684
6325	64.3268
6320	62.812
6315	62.9502
6310	64.4123
6305	65.3787
6300	64.9088
6295	64.5014
6290	64.7981
6285	64.1792
6280	63.6001
6275	64.9686
6270	65.8499
6265	64.6
6260	63.8043
6255	64.0829
6250	64.0131
6245	63.6559
6240	63.4987
6235	63.5632
6230	64.7851
6225	64.1599
6220	63.2804
6215	64.2648
6210	64.3314
6205	63.9507
6200	63.8537
6195	63.1177
6190	62.368
6185	61.656
6180	62.4572
6175	63.8194
6170	64.3844
6165	64.2986
6160	64.4832
6155	64.3423
6150	62.9719
6145	62.8084
6140	64.3482
6135	64.3924
6130	63.9914
6125	63.7223
6120	63.595
6115	63.6328
6110	63.5146
6105	64.1222
6100	64.8347
6095	64.9195
6090	64.822
6085	64.3731
6080	64.3514
6075	64.1551
6070	64.0628
6065	64.3013
6060	64.3699
6055	64.3569
6050	64.5637
6045	64.7533
6040	63.8261
6035	63.0438
6030	63.4079
6025	64.0977
6020	64.2269
6015	63.6939
6010	63.819
6005	64.5254
6000	64.5084
5995	64.5424
5990	64.5801
5985	64.7403
5980	64.6125
5975	64.4963
5970	64.4129
5965	63.9317
5960	63.4511
5955	63.6219
5950	64.137
5945	64.4128
5940	64.185
5935	63.5308
5930	63.5387
5925	63.8503
5920	64.5296
5915	64.9958
5910	64.8979
5905	64.9857
5900	65.1685
5895	65.1204
5890	64.4925
5885	64.4835
5880	64.8241
5875	64.9832
5870	64.999
5865	64.7674
5860	63.8126
5855	63.6767
5850	64.5503
5845	64.415
5840	64.3789
5835	64.6338
5830	64.2395
5825	63.8979
5820	64.076
5815	64.0576
5810	64.0973
5805	64.2637
5800	64.1561
5795	63.8546
5790	64.1188
5785	65.1063
5780	64.5859
5775	63.8882
5770	64.7126
5765	65.3619
5760	64.7748
5755	64.0471
5750	64.2858
5745	64.8982
5740	64.9543
5735	64.481
5730	64.1982
5725	64.5159
5720	65.1134
5715	64.8563
5710	64.3508
5705	64.1689
5700	63.7122
5695	63.5037
5690	63.9236
5685	64.5773
5680	64.7475
5675	64.3227
5670	63.2305
5665	62.9853
5660	63.5527
5655	64.1189
5650	64.0546
5645	63.9556
5640	64.2639
5635	64.3139
5630	64.4243
5625	63.8256
5620	63.7097
5615	63.7501
5610	63.3468
5605	63.8785
5600	64.9079
5595	64.7249
5590	64.0489
5585	64.173
5580	64.6872
5575	64.6176
5570	64.2196
5565	64.3141
5560	64.407
5555	63.9136
5550	64.1617
5545	64.6882
5540	65.0094
5535	65.2012
5530	64.9087
5525	64.0037
5520	63.7973
5515	64.5337
5510	64.6598
5505	64.6609
5500	64.7905
5495	64.8432
5490	64.6687
5485	64.3635
5480	64.036
5475	63.8453
5470	63.9985
5465	64.0434
5460	64.4611
5455	64.8469
5450	64.7509
5445	64.5019
5440	64.5446
5435	64.4779
5430	64.3772
5425	64.0334
5420	63.9519
5415	64.0723
5410	64.0292
5405	63.941
5400	64.2639
5395	64.0759
5390	63.3088
5385	63.2836
5380	63.6494
5375	63.6422
5370	63.6373
5365	63.8941
5360	64.1034
5355	64.355
5350	64.0534
5345	63.5474
5340	63.9562
5335	64.4785
5330	64.4634
5325	63.6202
5320	63.4116
5315	64.7992
5310	64.4696
5305	62.5872
5300	63.7346
5295	65.5152
5290	66.7834
5285	67.1901
5280	65.4179
5275	63.7117
5270	62.2782
5265	63.8858
5260	65.9591
5255	65.6905
5250	65.9292
5245	65.068
5240	61.806
5235	60.8457
5230	62.3053
5225	63.8786
5220	65.7558
5215	65.4433
5210	65.3486
5205	65.5454
5200	64.2249
5195	62.8911
5190	63.075
5185	63.9972
5180	65.2761
5175	65.8052
5170	64.9484
5165	64.0188
5160	63.7899
5155	63.7578
5150	64.0002
5145	64.0408
5140	63.8808
5135	63.6178
5130	63.6234
5125	64.3868
5120	64.6261
5115	64.1737
5110	64.418
5105	64.2817
5100	64.2745
5095	64.3746
5090	64.1482
5085	63.8186
5080	64.0757
5075	64.1966
5070	64.1654
5065	64.1357
5060	64.497
5055	64.7341
5050	64.3974
5045	64.5416
5040	64.4675
5035	64.253
5030	64.1599
5025	64.3625
5020	64.7189
5015	64.605
5010	64.5015
5005	64.5521
5000	64.7203
4995	64.6909
4990	64.2319
4985	64.0122
4980	64.2734
4975	64.7083
4970	64.7195
4965	64.3947
4960	63.9969
4955	64.1955
4950	64.383
4945	64.4643
4940	64.5859
4935	64.5136
4930	64.325
4925	64.4142
4920	64.3052
4915	64.3144
4910	64.5267
4905	64.5371
4900	64.3143
4895	64.3366
4890	64.9556
4885	65.1119
4880	64.8442
4875	64.3681
4870	64.1336
4865	64.3044
4860	64.4094
4855	64.2094
4850	64.1972
4845	64.4511
4840	64.5594
4835	64.4637
4830	64.2534
4825	64.502
4820	64.8286
4815	64.6199
4810	64.4007
4805	64.3316
4800	64.1224
4795	64.058
4790	64.2544
4785	64.5287
4780	64.6061
4775	64.3287
4770	64.2226
4765	64.3026
4760	64.3252
4755	64.203
4750	64.3092
4745	64.5931
4740	64.4905
4735	64.3367
4730	64.3159
4725	64.4397
4720	64.4919
4715	64.4338
4710	64.3404
4705	64.4941
4700	64.6259
4695	64.757
4690	64.9459
4685	64.6811
4680	64.3372
4675	64.4145
4670	64.5188
4665	64.5095
4660	64.4835
4655	64.2317
4650	64.2416
4645	64.1255
4640	64.0307
4635	64.3048
4630	64.308
4625	64.1692
4620	64.062
4615	64.1069
4610	64.2292
4605	64.3217
4600	64.2175
4595	64.2781
4590	64.4561
4585	64.5019
4580	64.5372
4575	64.4331
4570	64.3724
4565	64.453
4560	64.3494
4555	64.2534
4550	64.2699
4545	64.2198
4540	64.1064
4535	64.1171
4530	64.2408
4525	63.8824
4520	63.5408
4515	63.8257
4510	64.1858
4505	64.2618
4500	64.3933
4495	64.3634
4490	64.0172
4485	63.679
4480	63.4782
4475	63.5132
4470	63.9176
4465	63.7742
4460	63.7116
4455	63.9182
4450	63.7506
4445	64.0047
4440	64.2933
4435	64.1706
4430	64.1581
4425	64.5873
4420	64.6607
4415	64.332
4410	66.8601
4405	72.6868
4400	71.5482
4395	63.6486
4390	46.5584
4385	45.8801
4380	60.1297
4375	64.4947
4370	64.3714
4365	65.6013
4360	65.6179
4355	64.1725
4350	64.0804
4345	64.6966
4340	64.7368
4335	64.4926
4330	64.4959
4325	64.4621
4320	64.0616
4315	64.0855
4310	64.1874
4305	64.0375
4300	64.0365
4295	64.2146
4290	64.1758
4285	64.1409
4280	64.0823
4275	63.9438
4270	64.0562
4265	64.421
4260	64.3977
4255	64.3644
4250	64.1609
4245	64.039
4240	63.9656
4235	63.7656
4230	63.828
4225	63.8702
4220	64.0112
4215	64.3044
4210	64.337
4205	64.1176
4200	64.1909
4195	64.4272
4190	64.4174
4185	64.1219
4180	64.1469
4175	64.2198
4170	64.2228
4165	64.4364
4160	64.1988
4155	63.9142
4150	63.9841
4145	64.0637
4140	64.1757
4135	64.0955
4130	64.126
4125	64.1606
4120	64.0649
4115	64.2276
4110	64.2941
4105	64.4483
4100	64.3746
4095	64.1074
4090	63.9568
4085	63.9655
4080	64.0743
4075	64.3272
4070	64.3765
4065	64.2245
4060	64.1469
4055	64.087
4050	64.0337
4045	64.1454
4040	64.1845
4035	64.1439
4030	64.1068
4025	64.1412
4020	64.0675
4015	63.8552
4010	63.8066
4005	63.9025
4000	64.0371
3995	64.2247
3990	64.1398
3985	63.9438
3980	64.0324
3975	64.1167
3970	64.2071
3965	64.2183
3960	64.2455
3955	64.1919
3950	64.2178
3945	64.1165
3940	63.9601
3935	63.8209
3930	63.7413
3925	63.7531
3920	63.9602
3915	64.1248
3910	63.911
3905	63.9261
3900	63.9864
3895	63.7124
3890	63.7604
3885	64.0185
3880	64.0188
3875	64.0141
3870	63.8505
3865	63.6556
3860	63.7174
3855	63.8296
3850	63.9637
3845	64.1661
3840	64.0266
3835	63.8709
3830	64.0738
3825	64.099
3820	63.9401
3815	63.7228
3810	63.7122
3805	63.8325
3800	63.7269
3795	63.6208
3790	63.7792
3785	63.9206
3780	63.824
3775	63.6923
3770	63.7534
3765	63.7668
3760	63.7268
3755	63.8309
3750	63.9727
3745	63.947
3740	63.7143
3735	63.6656
3730	63.6985
3725	63.6754
3720	63.8101
3715	63.8066
3710	63.6742
3705	63.8143
3700	63.6833
3695	63.5275
3690	63.6885
3685	63.7811
3680	63.6775
3675	63.6279
3670	63.6779
3665	63.7616
3660	63.787
3655	63.6784
3650	63.7203
3645	63.7997
3640	63.7452
3635	63.6562
3630	63.585
3625	63.5209
3620	63.6824
3615	63.7596
3610	63.5669
3605	63.4792
3600	63.5998
3595	63.636
3590	63.6525
3585	63.5919
3580	63.5856
3575	63.665
3570	63.676
3565	63.6748
3560	63.5756
3555	63.5615
3550	63.5987
3545	63.4147
3540	63.1356
3535	63.0053
3530	62.995
3525	63.0224
3520	63.275
3515	63.4931
3510	63.4606
3505	63.4935
3500	63.4721
3495	63.3045
3490	63.3408
3485	63.3033
3480	63.2185
3475	63.2736
3470	63.3763
3465	63.4253
3460	63.403
3455	63.4744
3450	63.4354
3445	63.2635
3440	63.3052
3435	63.3793
3430	63.3641
3425	63.3242
3420	63.2512
3415	63.2243
3410	63.2661
3405	63.197
3400	63.1612
3395	63.2123
3390	63.2569
3385	63.206
3380	63.2216
3375	63.2233
3370	63.1474
3365	63.1265
3360	63.0419
3355	62.9058
3350	62.888
3345	63.013
3340	63.1524
3335	63.2451
3330	63.0789
3325	62.815
3320	62.8517
3315	62.9254
3310	62.9322
3305	62.9561
3300	62.9526
3295	62.8686
3290	62.834
3285	62.877
3280	62.8503
3275	62.8084
3270	62.644
3265	62.6492
3260	62.7106
3255	62.6841
3250	62.7383
3245	62.7816
3240	62.6631
3235	62.6529
3230	62.6541
3225	62.6134
3220	62.6064
3215	62.647
3210	62.7397
3205	62.6081
3200	62.5291
3195	62.6083
3190	62.6014
3185	62.528
3180	62.5143
3175	62.5843
3170	62.6694
3165	62.6349
3160	62.5756
3155	62.5255
3150	62.5972
3145	62.6304
3140	62.5451
3135	62.4613
3130	62.2915
3125	62.2738
3120	62.4423
3115	62.3631
3110	62.2588
3105	62.3952
3100	62.4603
3095	62.3361
3090	62.3752
3085	62.3788
3080	62.3197
3075	62.3164
3070	62.3473
3065	62.3792
3060	62.3475
3055	62.3055
3050	62.3776
3045	62.4726
3040	62.364
3035	62.3508
3030	62.3705
3025	62.2245
3020	62.1397
3015	62.114
3010	62.1262
3005	62.1534
3000	62.0907
2995	62.1324
2990	62.2182
2985	62.1514
2980	62.0262
2975	61.882
2970	61.8049
2965	61.8467
2960	61.8119
2955	61.6518
2950	61.6173
2945	61.6381
2940	61.6173
2935	61.595
2930	61.5148
2925	61.5241
2920	61.4802
2915	61.5067
2910	61.6726
2905	61.6548
2900	61.4938
2895	61.4864
2890	61.5537
2885	61.6118
2880	61.6189
2875	61.6324
2870	61.5681
2865	61.5551
2860	61.5623
2855	61.4833
2850	61.4622
2845	61.4918
2840	61.4539
2835	61.4626
2830	61.5176
2825	61.6151
2820	61.5669
2815	61.4876
2810	61.4659
2805	61.4495
2800	61.4153
2795	61.4356
2790	61.505
2785	61.5034
2780	61.4272
2775	61.332
2770	61.2919
2765	61.2555
2760	61.2627
2755	61.276
2750	61.2283
2745	61.3325
2740	61.3878
2735	61.2849
2730	61.2063
2725	61.1465
2720	61.0931
2715	61.0862
2710	61.0958
2705	61.0278
2700	60.9732
2695	60.9845
2690	60.9334
2685	60.9268
2680	60.9477
2675	60.9205
2670	60.9733
2665	61.0846
2660	61.0487
2655	60.8961
2650	60.7949
2645	60.8049
2640	60.8105
2635	60.7701
2630	60.7537
2625	60.7531
2620	60.7716
2615	60.8172
2610	60.845
2605	60.7715
2600	60.7057
2595	60.6557
2590	60.6158
2585	60.613
2580	60.5652
2575	60.5251
2570	60.5246
2565	60.526
2560	60.6216
2555	60.6306
2550	60.4468
2545	60.3364
2540	60.4081
2535	60.4845
2530	60.5394
2525	60.461
2520	60.3118
2515	60.2115
2510	60.265
2505	60.3495
2500	60.2812
2495	60.1486
2490	60.1548
2485	60.1938
2480	60.1673
2475	60.1375
2470	60.1125
2465	60.0754
2460	60.05
2455	60.0085
2450	59.9854
2445	60.0212
2440	60.0091
2435	59.9664
2430	59.9513
2425	59.9639
2420	60.0024
2415	59.9399
2410	59.8475
2405	59.9135
2400	59.8361
2395	59.7886
2390	59.8048
2385	59.7313
2380	59.6925
2375	59.6973
2370	59.6381
2365	59.6221
2360	59.617
2355	59.5615
2350	59.567
2345	59.5389
2340	59.5193
2335	59.5069
2330	59.4746
2325	59.4861
2320	59.4478
2315	59.3645
2310	59.3115
2305	59.2853
2300	59.304
2295	59.3308
2290	59.2798
2285	59.2271
2280	59.229
2275	59.1913
2270	59.2019
2265	59.2203
2260	59.0918
2255	58.9859
2250	59.0541
2245	59.0848
2240	59.0245
2235	59.0347
2230	59.0294
2225	58.9056
2220	58.8762
2215	58.9495
2210	58.9056
2205	58.7775
2200	58.7462
2195	58.7698
2190	58.7762
2185	58.717
2180	58.6289
2175	58.7
2170	58.7765
2165	58.706
2160	58.5879
2155	58.4876
2150	58.4234
2145	58.3724
2140	58.3842
2135	58.3986
2130	58.3449
2125	58.3305
2120	58.2877
2115	58.2388
2110	58.262
2105	58.2621
2100	58.2732
2095	58.2205
2090	58.1741
2085	58.1445
2080	58.1233
2075	58.0611
2070	58.0104
2065	57.9775
2060	57.9988
2055	58.0557
2050	58.0808
2045	57.9399
2040	57.8208
2035	57.7866
2030	57.7554
2025	57.7517
2020	57.8363
2015	57.84
2010	57.7712
2005	57.7337
2000	57.669
1995	57.6152
1990	57.5759
1985	57.5494
1980	57.5786
1975	57.5484
1970	57.5046
1965	57.5145
1960	57.4486
1955	57.4087
1950	57.4421
1945	57.4624
1940	57.3956
1935	57.3001
1930	57.2728
1925	57.298
1920	57.2625
1915	57.1831
1910	57.1459
1905	57.1635
1900	57.1542
1895	57.0876
1890	57.0996
1885	57.0967
1880	57.0539
1875	57.0272
1870	57.0426
1865	57.0255
1860	56.9574
1855	56.8868
1850	56.8649
1845	56.8135
1840	56.715
1835	56.6795
1830	56.688
1825	56.6767
1820	56.6265
1815	56.531
1810	56.5664
1805	56.6354
1800	56.597
1795	56.5625
1790	56.5227
1785	56.4525
1780	56.3419
1775	56.3614
1770	56.3934
1765	56.2868
1760	56.2289
1755	56.2743
1750	56.2098
1745	56.009
1740	55.9521
1735	55.9667
1730	55.9986
1725	55.9851
1720	56.0128
1715	56.0369
1710	55.9879
1705	55.9293
1700	55.9714
1695	56.015
1690	55.9461
1685	55.9114
1680	55.8391
1675	55.7706
1670	55.7245
1665	55.7742
1660	55.7618
1655	55.6832
1650	55.5848
1645	55.5254
1640	55.4892
1635	55.4554
1630	55.4517
1625	55.517
1620	55.5021
1615	55.3582
1610	55.2414
1605	55.2361
1600	55.18
1595	55.1527
1590	55.2
1585	55.1765
1580	55.1074
1575	54.9753
1570	54.9231
1565	54.9507
1560	54.9217
1555	54.8799
1550	54.8551
1545	54.8006
1540	54.7164
1535	54.7142
1530	54.7604
1525	54.8022
1520	54.7777
1515	54.6665
1510	54.7411
1505	54.7871
1500	54.6702
1495	54.6594
1490	54.5973
1485	54.4585
1480	54.3704
1475	54.3964
1470	54.3048
1465	54.2784
1460	54.3442
1455	54.2614
1450	54.1866
1445	54.2604
1440	54.2449
1435	54.0856
1430	53.9593
1425	53.9701
1420	54.0431
1415	54.0366
1410	53.9923
1405	53.9608
1400	53.9539
1395	53.9056
1390	53.7962
1385	53.7121
1380	53.6885
1375	53.6522
1370	53.5821
1365	53.5908
1360	53.5736
1355	53.5033
1350	53.551
1345	53.6873
1340	53.6548
1335	53.5362
1330	53.4664
1325	53.4369
1320	53.4546
1315	53.3802
1310	53.2973
1305	53.2543
1300	53.1627
1295	53.1535
1290	53.1963
1285	53.1862
1280	53.126
1275	53.0503
1270	52.9869
1265	52.9723
1260	52.9675
1255	52.9274
1250	52.8868
1245	52.924
1240	52.8528
1235	52.7943
1230	52.6764
1225	52.6177
1220	52.6171
1215	52.5867
1210	52.6221
1205	52.6761
1200	52.6099
1195	52.4961
1190	52.4431
1185	52.4356
1180	52.44
1175	52.4262
1170	52.3577
1165	52.1999
1160	52.0734
1155	52.0081
1150	52.0787
1145	52.1533
1140	52.1461
1135	52.1118
1130	51.9822
1125	51.9271
1120	51.8403
1115	51.801
1110	51.8816
1105	51.8752
1100	51.7945
1095	51.6732
1090	51.7023
1085	51.8049
1080	51.8031
1075	51.8502
1070	51.6747
1065	51.5271
1060	51.4981
1055	51.3546
1050	51.2906
1045	51.3345
1040	51.4618
1035	51.4722
1030	51.2747
1025	51.1499
1020	51.2038
1015	51.1688
1010	50.98
1005	50.8255
1000	50.8642
995	 51.0061
990	 51.0299
985	 50.872
980	 50.7574
975	 50.7315
970	 50.7122
965	 50.7671
960	 50.7842
955	 50.8183
950	 50.8527
945	 50.6791
940	 50.5985
935	 50.6965
930	 50.5687
925	 50.3376
920	 50.0671
915	 49.9102
910	 49.9613
905	 50.4007
900	 50.5432
895	 50.2449
890	 50.0724
885	 49.8753
880	 49.7697
875	 49.9517
870	 50.2275
865	 50.4079
860	 50.3216
855	 49.8562
850	 49.8592
845	 49.7606
840	 49.8684
835	 49.9697
830	 49.2508
825	 48.9064
820	 49.4353
815	 49.542
810	 49.4286
805	 49.4803
800	 49.3806
795	 48.9668
790	 48.7415
785	 48.7885
780	 48.7139
775	 48.6195
770	 48.676
765	 48.6255
760	 48.5692
755	 48.4946
750	 48.5733
745	 48.7234
740	 48.5547
735	 48.2971
730	 48.0656
725	 48.0112
720	 48.104
715	 47.9747
710	 47.6268
705	 47.4755
700	 47.6342
695	 47.772
690	 47.4772
685	 47.2966
680	 47.2105
675	 47.0529
670	 47.1025
665	 47.0598
660	 46.9662
655	 46.8312
650	 46.7901
645	 46.7287
640	 46.5708
635	 46.5359
630	 46.6895
625	 46.4945
620	 46.2102
615	 46.315
610	 46.3352
605	 46.2126
600	 45.9948
595	 45.6141
590	 45.237
585	 45.2528
580	 45.3959
575	 45.0896
570	 44.9522
565	 44.9744
560	 44.9569
555	 44.9421
550	 44.8292
545	 44.4231
540	 44.3935
535	 44.4215
530	 43.9479
525	 44.1576
520	 44.067
515	 43.6573
510	 43.6213
505	 43.1286
500	 42.6882
495	 42.7449
490	 42.8595
485	 42.6847
480	 42.706
475	 42.6987
470	 41.9817
465	 41.0235
460	 41.518
455	 41.5547
450	 41.2608
445	 41.4296
440	 40.753
435	 39.7615
430	 40.8413
425	 41.9507
420	 40.2623
415	 40.0044
410	 39.4463
405	 36.2902
400	 36.8191
395	 41.8027
390	 46.7358
385	 47.0881
380	 49.7192
375	 70.926
370	 76.3357