File: Bakgrunnsmateriale/MATLAB/FTIR/ftir_data/subBb/Mapping_36/C-4040-8_t22_cm-1.asc
PE IR       SPECTRUM    SPECTRUM    ASCII       PEDS        1.60
  -1
C-9A64~1.ASC
17/05/02
12:41:22.00
17/05/02
12:41:22.00
tln
$C-4040-8_t0022$<tbV0>[-2.5,2.0,8.0,0.0,22,1,0]
370
64

2002,4.07
MIRTGS : RIGHTBACK : INTERNAL 2
MIR : ON : INTERNAL 2
OPTKBR

0.200000
8
8.000000
FILLER
RATIO
SPECTRUM
UNLOCKED 256

DOUBLE
64
COMBINED
1
0
0

1.000000
RATIO

1
0
TRUE
51149
0
LEFT NOT FITTED RIGHT NOT FITTED 0
NONE
NONE
15600
12
4.427000
51148
TRUE
1 0 8 72 0 0 0 0

15798

#HDR
-1
-1
#GR
CM-1
%T
2.38419e-05
0.0
7800
-1.000000
7431
8
83.1801
47.4951
#DATA
7800	73.2663
7795	66.5756
7790	65.2622
7785	68.0989
7780	80.7801
7775	76.7019
7770	68.6211
7765	66.5596
7760	69.5207
7755	77.695
7750	71.2247
7745	70.3181
7740	74.7778
7735	67.8454
7730	62.1148
7725	68.4432
7720	74.3424
7715	72.1306
7710	68.1775
7705	69.2478
7700	70.6342
7695	68.9212
7690	69.3132
7685	70.0787
7680	69.556
7675	67.3241
7670	67.9531
7665	69.9853
7660	67.8197
7655	64.9133
7650	62.7134
7645	61.5838
7640	64.7619
7635	64.2666
7630	60.9422
7625	64.9908
7620	68.7175
7615	65.6331
7610	60.0191
7605	62.3672
7600	64.2376
7595	57.8834
7590	60.0355
7585	66.9177
7580	66.641
7575	65.5673
7570	66.1669
7565	64.8353
7560	66.9683
7555	69.8051
7550	65.6285
7545	63.0865
7540	65.574
7535	67.6307
7530	65.7246
7525	64.7243
7520	65.3889
7515	67.1088
7510	69.9395
7505	69.6121
7500	68.3645
7495	67.873
7490	65.307
7485	65.6915
7480	68.6967
7475	65.9077
7470	64.3531
7465	65.9515
7460	65.7916
7455	62.8139
7450	61.9054
7445	64.0456
7440	63.2654
7435	61.8174
7430	63.1316
7425	64.629
7420	67.1427
7415	68.6657
7410	67.5247
7405	67.1425
7400	64.6745
7395	62.7408
7390	64.4255
7385	66.5125
7380	68.1837
7375	67.1672
7370	65.9862
7365	64.5699
7360	66.1103
7355	67.8838
7350	66.834
7345	65.2101
7340	65.0994
7335	64.1277
7330	63.6769
7325	65.2756
7320	66.4728
7315	65.5154
7310	63.678
7305	65.4584
7300	68.7467
7295	68.6418
7290	64.9125
7285	61.3707
7280	63.2134
7275	66.7204
7270	67.7474
7265	66.2073
7260	63.773
7255	65.008
7250	68.7558
7245	70.8453
7240	67.8924
7235	65.2381
7230	66.4905
7225	66.4945
7220	65.7967
7215	64.6407
7210	64.4063
7205	65.582
7200	64.4425
7195	63.3769
7190	63.1622
7185	64.2033
7180	64.5161
7175	62.1907
7170	62.4766
7165	64.3449
7160	63.5605
7155	62.2202
7150	62.594
7145	62.9383
7140	63.9281
7135	63.796
7130	63.9504
7125	64.9784
7120	65.0939
7115	64.3531
7110	65.2035
7105	65.1013
7100	65.2824
7095	66.2086
7090	64.464
7085	64.4612
7080	66.0002
7075	65.9716
7070	66.0507
7065	67.4378
7060	68.9351
7055	65.8772
7050	62.1968
7045	61.7901
7040	63.5185
7035	62.988
7030	63.387
7025	68.171
7020	68.6859
7015	65.6121
7010	63.9446
7005	62.7391
7000	63.1436
6995	62.9012
6990	61.6209
6985	62.032
6980	64.6136
6975	65.1228
6970	64.1807
6965	64.8367
6960	63.862
6955	62.4419
6950	62.9228
6945	64.6366
6940	64.9339
6935	64.4834
6930	64.4862
6925	64.8393
6920	63.8353
6915	62.1954
6910	61.5004
6905	62.7336
6900	65.1061
6895	65.9455
6890	65.1344
6885	64.7347
6880	65.1138
6875	65.6218
6870	65.7787
6865	64.8936
6860	63.9887
6855	63.8466
6850	64.2817
6845	65.7745
6840	64.8867
6835	63.5457
6830	64.256
6825	63.7219
6820	62.4283
6815	63.5745
6810	64.981
6805	65.6226
6800	65.3764
6795	64.7381
6790	63.7841
6785	63.165
6780	62.9771
6775	62.0615
6770	63.1563
6765	64.1071
6760	64.0719
6755	64.8514
6750	63.7282
6745	63.6311
6740	64.3085
6735	64.1509
6730	63.7982
6725	61.9361
6720	62.8697
6715	64.6372
6710	64.2915
6705	63.3279
6700	63.0589
6695	63.1727
6690	63.9591
6685	64.9279
6680	63.7605
6675	63.2243
6670	64.1276
6665	64.027
6660	64.2308
6655	63.8285
6650	63.2941
6645	63.3528
6640	62.0861
6635	63.2138
6630	65.0347
6625	65.3798
6620	64.4332
6615	63.2518
6610	63.1075
6605	63.9638
6600	63.8414
6595	65.1599
6590	65.8391
6585	65.7404
6580	65.3104
6575	63.5713
6570	62.2567
6565	63.567
6560	66.102
6555	66.1725
6550	65.1861
6545	65.2609
6540	65.1553
6535	65.5805
6530	65.7282
6525	65.016
6520	65.4346
6515	65.9538
6510	65.6797
6505	65.3414
6500	65.8655
6495	65.9881
6490	65.1475
6485	64.7255
6480	64.8525
6475	64.5672
6470	65.046
6465	65.7982
6460	65.4439
6455	65.0748
6450	64.9567
6445	65.6385
6440	66.5773
6435	66.27
6430	64.2666
6425	62.9595
6420	64.3599
6415	65.7539
6410	66.0394
6405	66.8958
6400	66.6587
6395	64.8281
6390	63.7686
6385	63.4521
6380	63.5507
6375	64.7964
6370	65.6183
6365	65.8531
6360	65.9403
6355	65.8658
6350	65.8899
6345	65.6998
6340	65.4355
6335	65.2722
6330	65.5175
6325	66.0755
6320	65.4476
6315	65.2657
6310	65.6687
6305	65.9768
6300	65.3367
6295	65.1158
6290	65.8939
6285	65.3345
6280	63.2961
6275	62.8938
6270	64.6499
6265	65.1132
6260	65.2441
6255	65.2785
6250	64.7498
6245	64.7029
6240	65.0912
6235	64.9511
6230	65.2572
6225	64.9564
6220	64.5662
6215	64.8085
6210	64.7961
6205	64.6268
6200	64.8305
6195	65.1257
6190	64.5914
6185	64.0818
6180	64.9269
6175	65.6916
6170	65.646
6165	65.6102
6160	65.4687
6155	65.3772
6150	65.9863
6145	66.5222
6140	66.0872
6135	66.4565
6130	65.819
6125	65.2851
6120	65.5096
6115	65.1294
6110	64.1736
6105	63.9779
6100	64.0004
6095	64.1372
6090	64.7621
6085	64.833
6080	65.1301
6075	65.4782
6070	65.0202
6065	64.7967
6060	64.6005
6055	64.857
6050	65.4822
6045	65.5986
6040	64.9654
6035	65.0443
6030	65.3117
6025	64.7322
6020	65.0558
6015	65.4406
6010	65.5443
6005	65.8486
6000	66.2662
5995	65.9995
5990	65.4871
5985	65.6293
5980	65.6215
5975	65.3383
5970	65.461
5965	66.0212
5960	66.0968
5955	65.7728
5950	66.2459
5945	66.3796
5940	65.5592
5935	65.5024
5930	65.5547
5925	64.9629
5920	65.3171
5915	65.7223
5910	65.1027
5905	64.7545
5900	64.9764
5895	65.0921
5890	65.1646
5885	65.2699
5880	65.1558
5875	65.1572
5870	64.9215
5865	64.281
5860	64.7027
5855	65.4716
5850	65.4027
5845	65.052
5840	64.5315
5835	64.4586
5830	64.5583
5825	65.0517
5820	65.2635
5815	65.1037
5810	64.6066
5805	65.169
5800	65.0893
5795	63.9885
5790	64.473
5785	65.4865
5780	65.2712
5775	64.6622
5770	64.4305
5765	64.6889
5760	65.0369
5755	65.3636
5750	65.5148
5745	65.6018
5740	65.7184
5735	65.0486
5730	64.7443
5725	65.0997
5720	65.1726
5715	64.8372
5710	64.7725
5705	65.0441
5700	64.9212
5695	64.4661
5690	64.203
5685	64.8253
5680	65.3211
5675	65.217
5670	65.0032
5665	64.6583
5660	64.5296
5655	64.395
5650	65.0368
5645	65.454
5640	65.3589
5635	65.1063
5630	65.3021
5625	65.9875
5620	65.4633
5615	64.901
5610	65.2363
5605	65.4318
5600	65.2397
5595	65.0786
5590	65.1179
5585	65.0205
5580	64.8201
5575	64.9807
5570	65.1953
5565	64.9356
5560	64.9556
5555	64.918
5550	64.3298
5545	64.4932
5540	64.8284
5535	65.0824
5530	65.4292
5525	65.4634
5520	65.149
5515	64.6345
5510	64.3604
5505	64.5182
5500	64.7871
5495	65.0247
5490	65.2195
5485	65.1214
5480	64.8058
5475	64.8702
5470	65.1085
5465	65.047
5460	64.7286
5455	65.0994
5450	65.5951
5445	64.7749
5440	64.3643
5435	65.0412
5430	64.8743
5425	64.279
5420	64.3762
5415	64.6666
5410	65.1106
5405	65.2393
5400	65.32
5395	65.6885
5390	65.4684
5385	64.9505
5380	64.7045
5375	65.3261
5370	65.2535
5365	64.4167
5360	64.4308
5355	64.4656
5350	64.6232
5345	64.8692
5340	65.2489
5335	65.4561
5330	65.2893
5325	64.8946
5320	64.4584
5315	63.7377
5310	63.8709
5305	64.5901
5300	64.3306
5295	65.1911
5290	64.9515
5285	60.5809
5280	60.4985
5275	63.14
5270	65.7271
5265	66.7934
5260	66.8896
5255	66.8468
5250	67.9776
5245	67.4784
5240	65.1304
5235	64.4719
5230	65.4438
5225	65.7275
5220	65.4211
5215	65.1144
5210	65.2181
5205	65.0713
5200	64.6544
5195	64.741
5190	65.0675
5185	65.0046
5180	64.5852
5175	64.6183
5170	65.1133
5165	65.5688
5160	65.3977
5155	65.046
5150	65.3288
5145	65.5222
5140	65.3695
5135	65.2603
5130	65.195
5125	65.0576
5120	65.041
5115	64.9876
5110	64.905
5105	65.092
5100	65.0007
5095	64.873
5090	65.0003
5085	65.0005
5080	64.7904
5075	64.9046
5070	65.014
5065	64.9526
5060	65.0062
5055	64.8973
5050	64.9903
5045	65.1411
5040	64.7412
5035	64.6798
5030	64.8723
5025	64.6268
5020	64.7384
5015	64.9411
5010	65.0433
5005	65.3268
5000	65.3174
4995	65.1317
4990	64.872
4985	64.8815
4980	64.9319
4975	64.8252
4970	64.6274
4965	64.6612
4960	64.5804
4955	64.5827
4950	64.6715
4945	65.0196
4940	65.3247
4935	65.1704
4930	64.7363
4925	64.7595
4920	65.1655
4915	65.0751
4910	64.8078
4905	64.8357
4900	65.0911
4895	65.1499
4890	64.9248
4885	64.5865
4880	64.7627
4875	64.8744
4870	64.7666
4865	64.5725
4860	64.6901
4855	64.9536
4850	65.0196
4845	64.9103
4840	64.8164
4835	64.9958
4830	65.3559
4825	65.0827
4820	64.7095
4815	64.7879
4810	64.9914
4805	65.0748
4800	65.0096
4795	65.3142
4790	65.3651
4785	65.0154
4780	64.9566
4775	65.2133
4770	65.2864
4765	65.2733
4760	65.2514
4755	65.2378
4750	65.0958
4745	64.9477
4740	65.0207
4735	65.0886
4730	65.2644
4725	65.5116
4720	65.4101
4715	65.1111
4710	65.1263
4705	65.3813
4700	65.3285
4695	65.1788
4690	65.2734
4685	65.1989
4680	64.8747
4675	64.8356
4670	65.0752
4665	65.223
4660	65.3746
4655	65.4917
4650	65.5201
4645	65.3487
4640	65.0703
4635	64.839
4630	64.941
4625	65.1208
4620	65.309
4615	65.3151
4610	65.283
4605	65.2287
4600	65.0701
4595	65.0517
4590	65.1238
4585	65.0326
4580	65.001
4575	64.8895
4570	64.7482
4565	64.8128
4560	65.0788
4555	65.1413
4550	65.09
4545	65.0862
4540	65.0904
4535	65.0703
4530	64.8429
4525	64.4968
4520	64.6086
4515	64.8357
4510	64.8015
4505	64.7164
4500	64.73
4495	64.7871
4490	64.7661
4485	64.5243
4480	64.4289
4475	64.7687
4470	65.0021
4465	64.924
4460	64.6604
4455	65.029
4450	64.9837
4445	64.6014
4440	64.7754
4435	65.0884
4430	64.6902
4425	64.5236
4420	65.0143
4415	64.8645
4410	65.5231
4405	66.5061
4400	64.8322
4395	70.773
4390	83.1801
4385	73.1726
4380	66.9586
4375	64.6273
4370	65.2361
4365	65.1373
4360	64.4696
4355	64.6493
4350	65.3311
4345	65.2186
4340	65.1344
4335	64.9955
4330	64.8079
4325	64.8605
4320	64.9812
4315	65.0013
4310	64.8916
4305	64.9805
4300	65.0888
4295	64.8978
4290	64.8376
4285	64.9963
4280	64.9896
4275	64.9039
4270	64.7736
4265	64.7815
4260	64.9843
4255	65.0564
4250	64.8192
4245	64.6965
4240	64.7915
4235	64.9208
4230	65.0472
4225	65.0223
4220	65.0694
4215	64.9397
4210	64.8017
4205	64.8886
4200	64.949
4195	65.0911
4190	65.0708
4185	64.9821
4180	65.169
4175	65.2624
4170	65.2001
4165	65.2389
4160	65.3001
4155	65.2733
4150	65.1999
4145	65.0763
4140	64.9875
4135	64.9923
4130	64.7178
4125	64.602
4120	64.8445
4115	65.1777
4110	65.4553
4105	65.3923
4100	65.2916
4095	65.1646
4090	65.1772
4085	65.2067
4080	64.9348
4075	64.5522
4070	64.5678
4065	65.1065
4060	65.3369
4055	65.2088
4050	65.0992
4045	65.0495
4040	65.2103
4035	65.3389
4030	65.363
4025	65.3544
4020	65.2683
4015	65.1387
4010	65.0594
4005	65.1536
4000	65.1979
3995	65.0607
3990	65.0318
3985	65.0941
3980	65.1078
3975	65.1647
3970	65.3061
3965	65.3301
3960	65.1582
3955	64.987
3950	65.1263
3945	65.3168
3940	65.5117
3935	65.4373
3930	65.4243
3925	65.372
3920	65.1591
3915	65.2815
3910	65.3381
3905	65.1297
3900	65.117
3895	65.1983
3890	65.1546
3885	65.1385
3880	65.196
3875	65.1971
3870	65.1287
3865	65.1055
3860	65.1258
3855	65.2561
3850	65.2498
3845	65.0767
3840	65.0103
3835	65.1341
3830	65.3808
3825	65.4532
3820	65.2207
3815	65.0418
3810	65.1182
3805	65.0288
3800	65.0465
3795	65.1727
3790	65.2839
3785	65.2861
3780	65.218
3775	65.2112
3770	65.2611
3765	65.2618
3760	65.3257
3755	65.4525
3750	65.52
3745	65.4597
3740	65.2854
3735	65.1429
3730	65.0917
3725	65.1138
3720	65.3232
3715	65.3612
3710	65.2903
3705	65.3427
3700	65.3087
3695	65.261
3690	65.253
3685	65.2498
3680	65.1742
3675	65.1998
3670	65.1871
3665	64.9826
3660	64.947
3655	65.155
3650	65.3468
3645	65.3683
3640	65.3242
3635	65.2701
3630	65.2556
3625	65.2855
3620	65.3377
3615	65.3675
3610	65.3167
3605	65.2869
3600	65.2628
3595	65.183
3590	65.1021
3585	65.2222
3580	65.3214
3575	65.3212
3570	65.1574
3565	65.0069
3560	65.1314
3555	65.2632
3550	65.3521
3545	65.4509
3540	65.3587
3535	65.1897
3530	65.1987
3525	65.2591
3520	65.1856
3515	65.0997
3510	65.1378
3505	65.1917
3500	65.0857
3495	65.2605
3490	65.3904
3485	65.1129
3480	65.1161
3475	65.231
3470	65.1422
3465	65.2474
3460	65.1704
3455	65.1625
3450	65.372
3445	65.4024
3440	65.2996
3435	65.2405
3430	65.1838
3425	65.1168
3420	65.0088
3415	65.0293
3410	65.2105
3405	65.1999
3400	65.1316
3395	65.1557
3390	65.1807
3385	65.2698
3380	65.2328
3375	65.1437
3370	65.0163
3365	64.9985
3360	65.115
3355	65.3128
3350	65.3797
3345	65.2516
3340	65.307
3335	65.389
3330	65.2396
3325	65.1792
3320	65.3087
3315	65.3471
3310	65.2854
3305	65.208
3300	65.1573
3295	65.067
3290	65.0547
3285	65.1174
3280	65.1524
3275	65.1506
3270	65.2321
3265	65.2513
3260	65.231
3255	65.2155
3250	65.2451
3245	65.269
3240	65.3424
3235	65.3718
3230	65.2439
3225	65.1431
3220	65.1929
3215	65.1582
3210	65.1892
3205	65.26
3200	65.2133
3195	65.0836
3190	65.0819
3185	65.1361
3180	65.2241
3175	65.321
3170	65.2679
3165	65.2164
3160	65.229
3155	65.1759
3150	65.1805
3145	65.1504
3140	65.1324
3135	65.3033
3130	65.5277
3125	65.4282
3120	65.2417
3115	65.2152
3110	65.1851
3105	65.2686
3100	65.3919
3095	65.3691
3090	65.2791
3085	65.3378
3080	65.3696
3075	65.3035
3070	65.1869
3065	65.2116
3060	65.3312
3055	65.2617
3050	65.1096
3045	65.2113
3040	65.2564
3035	65.0264
3030	65.0208
3025	65.1998
3020	65.2328
3015	65.2313
3010	65.2023
3005	65.1305
3000	65.1303
2995	65.1882
2990	65.2482
2985	65.228
2980	65.1397
2975	65.1631
2970	65.1755
2965	65.1018
2960	65.0519
2955	65.0489
2950	65.0223
2945	65.1342
2940	65.1614
2935	65.135
2930	65.1425
2925	64.9762
2920	64.9062
2915	64.953
2910	64.9922
2905	64.9922
2900	65.0563
2895	65.1666
2890	65.0849
2885	65.0084
2880	65.0138
2875	65.1246
2870	65.3039
2865	65.238
2860	65.1072
2855	64.9778
2850	64.9563
2845	65.0794
2840	65.2079
2835	65.2698
2830	65.3179
2825	65.3071
2820	65.2008
2815	65.2143
2810	65.3218
2805	65.3035
2800	65.2109
2795	65.1685
2790	65.1918
2785	65.1728
2780	65.1841
2775	65.2227
2770	65.2044
2765	65.2263
2760	65.2705
2755	65.2845
2750	65.2838
2745	65.2393
2740	65.254
2735	65.3393
2730	65.3281
2725	65.2495
2720	65.3291
2715	65.4007
2710	65.3364
2705	65.3357
2700	65.3738
2695	65.3339
2690	65.2588
2685	65.2276
2680	65.2693
2675	65.2484
2670	65.182
2665	65.1697
2660	65.1722
2655	65.2359
2650	65.3261
2645	65.2591
2640	65.2375
2635	65.3617
2630	65.411
2625	65.2927
2620	65.2333
2615	65.2662
2610	65.3095
2605	65.3905
2600	65.4122
2595	65.3273
2590	65.2651
2585	65.3421
2580	65.3887
2575	65.3978
2570	65.3741
2565	65.2284
2560	65.1747
2555	65.3118
2550	65.2588
2545	65.1325
2540	65.2033
2535	65.3304
2530	65.328
2525	65.2973
2520	65.2445
2515	65.2399
2510	65.2083
2505	65.2247
2500	65.307
2495	65.2778
2490	65.3118
2485	65.3714
2480	65.3346
2475	65.3258
2470	65.3436
2465	65.3041
2460	65.3366
2455	65.3372
2450	65.3597
2445	65.4303
2440	65.4076
2435	65.2974
2430	65.3049
2425	65.2989
2420	65.3038
2415	65.398
2410	65.3339
2405	65.2614
2400	65.2795
2395	65.2829
2390	65.3296
2385	65.3305
2380	65.2984
2375	65.35
2370	65.4139
2365	65.3655
2360	65.2997
2355	65.3333
2350	65.4105
2345	65.4438
2340	65.439
2335	65.3918
2330	65.3212
2325	65.3616
2320	65.3753
2315	65.3491
2310	65.3646
2305	65.3461
2300	65.3743
2295	65.3566
2290	65.2865
2285	65.3072
2280	65.3065
2275	65.2946
2270	65.335
2265	65.3362
2260	65.3005
2255	65.3139
2250	65.3554
2245	65.4025
2240	65.4063
2235	65.3871
2230	65.3678
2225	65.3593
2220	65.3442
2215	65.2994
2210	65.2806
2205	65.3145
2200	65.2752
2195	65.2385
2190	65.3606
2185	65.4816
2180	65.4594
2175	65.3765
2170	65.292
2165	65.2597
2160	65.3463
2155	65.3742
2150	65.2945
2145	65.2234
2140	65.2384
2135	65.2646
2130	65.2616
2125	65.3013
2120	65.3255
2115	65.3536
2110	65.3895
2105	65.3014
2100	65.1861
2095	65.2619
2090	65.3114
2085	65.239
2080	65.2844
2075	65.3507
2070	65.3759
2065	65.3587
2060	65.3387
2055	65.3871
2050	65.3896
2045	65.3271
2040	65.2964
2035	65.2911
2030	65.3299
2025	65.3762
2020	65.3163
2015	65.26
2010	65.2433
2005	65.2408
2000	65.3303
1995	65.3795
1990	65.3392
1985	65.3193
1980	65.354
1975	65.3957
1970	65.3556
1965	65.2915
1960	65.2942
1955	65.3244
1950	65.3053
1945	65.2667
1940	65.3344
1935	65.3824
1930	65.3729
1925	65.2939
1920	65.2455
1915	65.277
1910	65.2805
1905	65.2693
1900	65.2477
1895	65.3167
1890	65.3181
1885	65.2838
1880	65.3216
1875	65.3282
1870	65.299
1865	65.2871
1860	65.2966
1855	65.3166
1850	65.301
1845	65.2779
1840	65.2908
1835	65.3155
1830	65.3116
1825	65.2133
1820	65.1515
1815	65.1823
1810	65.2408
1805	65.2561
1800	65.2303
1795	65.2597
1790	65.2929
1785	65.3112
1780	65.3749
1775	65.3531
1770	65.3128
1765	65.2981
1760	65.2965
1755	65.2567
1750	65.1794
1745	65.1702
1740	65.1167
1735	65.0678
1730	65.0308
1725	65.0399
1720	65.1408
1715	65.1893
1710	65.2124
1705	65.1725
1700	65.22
1695	65.2401
1690	65.1893
1685	65.2108
1680	65.1557
1675	65.1595
1670	65.274
1665	65.2573
1660	65.1943
1655	65.2552
1650	65.348
1645	65.3383
1640	65.2395
1635	65.2042
1630	65.1657
1625	65.1403
1620	65.2226
1615	65.2037
1610	65.1054
1605	65.122
1600	65.1868
1595	65.1484
1590	65.1789
1585	65.2244
1580	65.1356
1575	65.0204
1570	65.0554
1565	65.0559
1560	64.9791
1555	65.0161
1550	65.0434
1545	65.0656
1540	65.0593
1535	65.0772
1530	65.1065
1525	65.0906
1520	65.0995
1515	65.1335
1510	65.2356
1505	65.3012
1500	65.3275
1495	65.3255
1490	65.1617
1485	65.0474
1480	65.0612
1475	65.0144
1470	65.0245
1465	65.0195
1460	65.0455
1455	65.0067
1450	64.9923
1445	65.0749
1440	65.1318
1435	65.2151
1430	65.2801
1425	65.2314
1420	65.1304
1415	65.0664
1410	65.0376
1405	65.0095
1400	65.0524
1395	65.0899
1390	65.0825
1385	65.05
1380	64.9611
1375	64.9671
1370	65.0537
1365	65.1036
1360	65.1304
1355	65.0365
1350	65.0378
1345	65.1637
1340	65.1199
1335	65.0186
1330	64.9923
1325	64.9709
1320	64.983
1315	65.0741
1310	65.0805
1305	65.0601
1300	65.1597
1295	65.1799
1290	65.0973
1285	65.0184
1280	64.9838
1275	64.9424
1270	64.9344
1265	64.9482
1260	64.9715
1255	64.9723
1250	64.9654
1245	65.0114
1240	64.9967
1235	64.8824
1230	64.8425
1225	64.9528
1220	64.9957
1215	64.9188
1210	64.9693
1205	64.9731
1200	64.8683
1195	64.883
1190	64.9833
1185	64.9449
1180	64.9978
1175	65.1145
1170	65.1394
1165	65.0354
1160	64.8615
1155	64.8004
1150	64.8347
1145	64.8712
1140	64.8984
1135	64.8051
1130	64.7406
1125	64.7511
1120	64.7525
1115	64.7796
1110	64.779
1105	64.8178
1100	64.9152
1095	64.9409
1090	64.9609
1085	64.9151
1080	64.867
1075	64.7974
1070	64.8979
1065	64.9836
1060	64.8716
1055	64.6985
1050	64.7996
1045	65.0754
1040	64.9811
1035	64.8337
1030	64.8664
1025	64.8853
1020	64.7449
1015	64.666
1010	64.6508
1005	64.7501
1000	64.764
995	 64.8055
990	 64.7754
985	 64.7411
980	 64.8253
975	 64.8486
970	 64.8142
965	 64.9416
960	 65.0399
955	 64.9011
950	 64.9671
945	 65.0316
940	 64.733
935	 64.3527
930	 64.2918
925	 64.698
920	 64.9338
915	 64.9649
910	 64.9513
905	 64.7621
900	 64.981
895	 64.9133
890	 64.3288
885	 64.0277
880	 64.489
875	 64.6354
870	 64.6704
865	 64.9347
860	 64.7314
855	 64.2127
850	 64.2402
845	 64.4704
840	 64.4512
835	 64.43
830	 64.4619
825	 64.5713
820	 64.2245
815	 63.9394
810	 63.7805
805	 63.8963
800	 64.2106
795	 64.5273
790	 64.634
785	 64.4262
780	 64.1472
775	 64.0499
770	 64.0815
765	 64.1732
760	 64.2656
755	 64.1885
750	 63.9567
745	 63.8855
740	 63.8529
735	 63.7412
730	 63.8467
725	 63.9623
720	 63.7954
715	 63.5047
710	 63.4698
705	 63.6282
700	 63.5799
695	 63.4799
690	 63.4727
685	 63.2118
680	 62.9564
675	 62.9679
670	 62.9968
665	 62.9694
660	 62.9854
655	 63.1384
650	 63.254
645	 63.1983
640	 62.9675
635	 62.8391
630	 62.8593
625	 63.0435
620	 62.9255
615	 62.7064
610	 62.8357
605	 62.7567
600	 62.4539
595	 62.455
590	 62.3393
585	 62.0797
580	 62.1564
575	 62.2032
570	 62.1233
565	 62.2346
560	 62.3821
555	 62.3452
550	 62.2337
545	 62.3328
540	 62.4063
535	 61.7812
530	 61.2082
525	 61.4014
520	 61.6189
515	 61.645
510	 61.7858
505	 61.7519
500	 61.4059
495	 60.7541
490	 60.5775
485	 60.6605
480	 60.4512
475	 60.3185
470	 60.5176
465	 60.202
460	 58.9523
455	 59.0959
450	 60.1696
445	 60.4088
440	 60.1474
435	 58.6978
430	 57.9427
425	 58.4418
420	 57.7626
415	 54.887
410	 53.555
405	 58.2036
400	 58.677
395	 55.9726
390	 52.5024
385	 51.4945
380	 63.2558
375	 66.082
370	 47.4951