File: Bakgrunnsmateriale/MATLAB/FTIR/ftir_data/subBb/Mapping_36/C-4040-8_t20.asc
PE IR       SPECTRUM    SPECTRUM    ASCII       PEDS        1.60
  -1
C-AD2A~1.ASC
17/05/02
12:32:00.00
17/05/02
12:32:26.00
tln
$C-4040-8_t0020$<tbV0>[7.5,2.0,8.0,0.0,22,1,0]
27.028
64

2002,4.07
MIRTGS : RIGHTBACK : INTERNAL 2
MIR : ON : INTERNAL 2
OPTKBR

0.200000
8
8.000000
FILLER
RATIO
SPECTRUM
UNLOCKED 256

DOUBLE
64
COMBINED
1
0
0

0.002000
RATIO

1
0
TRUE
51149
0
LEFT NOT FITTED RIGHT NOT FITTED 0
NONE
NONE
15600
12
4.427000
51148
TRUE
1 0 8 72 0 0 0 0

15798

#HDR
-1
-1
#GR
µM
%T
2.38419e-05
0.0
1.282000
0.002000
12874
8
103.23
45.7311
#DATA
1.282000	 68.0326
1.300000	 58.886
1.318000	 63.6731
1.336000	 62.7033
1.354000	 68.2975
1.372000	 64.6401
1.390000	 67.6854
1.408000	 65.2411
1.426000	 63.0689
1.444000	 65.0565
1.462000	 65.2767
1.480000	 63.1672
1.498000	 62.7038
1.516000	 64.6092
1.534000	 64.5681
1.552000	 65.153
1.570000	 64.8174
1.588000	 65.0881
1.606000	 64.8175
1.624000	 64.4999
1.642000	 65.158
1.660000	 64.0234
1.678000	 64.7923
1.696000	 64.6911
1.714000	 64.4852
1.732000	 64.746
1.750000	 64.6779
1.768000	 64.4621
1.786000	 64.8547
1.804000	 64.8859
1.822000	 64.7961
1.840000	 64.9252
1.858000	 64.339
1.876000	 63.5642
1.894000	 65.5637
1.912000	 64.4877
1.930000	 64.6615
1.948000	 64.8945
1.966000	 64.8595
1.984000	 64.3456
2.002000	 64.7225
2.020000	 64.6161
2.038000	 64.765
2.056000	 64.4559
2.074000	 64.8925
2.092000	 65.2564
2.110000	 65.2425
2.128000	 64.9286
2.146000	 65.218
2.164000	 65.0167
2.182000	 64.5849
2.200000	 64.426
2.218000	 64.1846
2.236000	 63.8771
2.254000	 63.6386
2.272000	 62.5773
2.290000	 64.1393
2.308000	 63.5992
2.326000	 63.5493
2.344000	 64.0018
2.362000	 64.5157
2.380000	 64.6838
2.398000	 65.0445
2.416000	 65.083
2.434000	 65.3929
2.452000	 65.2913
2.470000	 65.4867
2.488000	 65.284
2.506000	 65.116
2.524000	 65.1789
2.542000	 65.1538
2.560000	 64.8491
2.578000	 65.03
2.596000	 64.9112
2.614000	 65.0342
2.632000	 64.9517
2.650000	 64.9369
2.668000	 65.2994
2.686000	 64.9628
2.704000	 65.2126
2.722000	 65.1679
2.740000	 65.1101
2.758000	 65.2709
2.776000	 65.1126
2.794000	 65.0879
2.812000	 65.2276
2.830000	 65.0817
2.848000	 65.0263
2.866000	 65.3811
2.884000	 65.1462
2.902000	 65.4217
2.920000	 64.9865
2.938000	 64.9705
2.956000	 65.0623
2.974000	 65.1377
2.992000	 64.9206
3.010000	 65.2266
3.028000	 65.1046
3.046000	 65.11
3.064000	 65.1513
3.082000	 65.0321
3.100000	 65.2452
3.118000	 65.1207
3.136000	 65.0886
3.154000	 65.1952
3.172000	 65.0594
3.190000	 65.2969
3.208000	 65.0463
3.226000	 65.0882
3.244000	 65.3762
3.262000	 65.2793
3.280000	 65.1284
3.298000	 64.8384
3.316000	 65.1305
3.334000	 65.1808
3.352000	 64.9383
3.370000	 64.9411
3.388000	 64.9484
3.406000	 64.7694
3.424000	 64.5866
3.442000	 64.8552
3.460000	 64.9863
3.478000	 65.1271
3.496000	 64.8707
3.514000	 64.819
3.532000	 65.1016
3.550000	 65.051
3.568000	 65.1298
3.586000	 65.0523
3.604000	 65.0535
3.622000	 65.2028
3.640000	 65.2149
3.658000	 65.1739
3.676000	 65.1942
3.694000	 65.2277
3.712000	 65.0856
3.730000	 65.0942
3.748000	 65.0299
3.766000	 65.1051
3.784000	 65.1582
3.802000	 65.3133
3.820000	 65.1095
3.838000	 65.2633
3.856000	 65.1718
3.874000	 65.1396
3.892000	 65.1562
3.910000	 65.0889
3.928000	 65.0728
3.946000	 65.1182
3.964000	 65.0862
3.982000	 65.2392
4.000000	 65.0842
4.018000	 65.1092
4.036000	 65.2087
4.054000	 65.1722
4.072000	 65.1413
4.090000	 65.2018
4.108000	 65.2454
4.125999	 65.2213
4.144000	 65.3172
4.162000	 65.0863
4.180000	 65.1023
4.198000	 65.175
4.216000	 65.1704
4.234000	 65.2362
4.252000	 65.1708
4.270000	 65.2272
4.288000	 65.2957
4.306000	 65.305
4.324000	 65.3429
4.342000	 65.2908
4.359999	 65.285
4.378000	 65.1633
4.396000	 65.2368
4.414000	 65.3003
4.432000	 65.3123
4.450000	 65.2728
4.468000	 65.2529
4.486000	 65.2727
4.504000	 65.2407
4.522000	 65.2539
4.540000	 65.1855
4.558000	 65.1873
4.576000	 65.2486
4.594000	 65.183
4.612000	 65.1383
4.630000	 65.1462
4.648000	 65.2463
4.666000	 65.3195
4.684000	 65.051
4.702000	 65.0901
4.720000	 65.1287
4.738000	 65.2138
4.756000	 65.2154
4.774000	 65.1918
4.792000	 65.1589
4.810000	 65.1456
4.828000	 65.136
4.846000	 65.2393
4.864000	 65.251
4.882000	 65.2543
4.900000	 65.1437
4.918000	 65.1864
4.936000	 65.1368
4.954000	 65.2296
4.972000	 65.1896
4.990000	 65.0901
5.008000	 65.0709
5.026000	 65.1001
5.044000	 65.2196
5.062000	 65.2211
5.080000	 65.1615
5.098000	 65.2062
5.116000	 65.1425
5.134000	 65.2124
5.152000	 65.2412
5.170000	 65.1701
5.188000	 65.2046
5.206000	 65.1555
5.224000	 65.2285
5.242000	 65.239
5.260000	 65.2701
5.278000	 65.2269
5.296000	 65.1702
5.314000	 65.2614
5.332000	 65.266
5.350000	 65.205
5.368000	 65.2325
5.386000	 65.243
5.404000	 65.2247
5.422000	 65.1823
5.440000	 65.0624
5.458000	 65.0438
5.476000	 65.1663
5.494000	 65.2074
5.512000	 65.2007
5.530000	 65.2521
5.548000	 65.184
5.566000	 65.1378
5.584000	 65.1738
5.602000	 65.1595
5.620000	 65.1814
5.638000	 65.2348
5.656000	 65.2051
5.674000	 65.1247
5.692000	 65.1238
5.710000	 65.0576
5.728000	 65.014
5.746000	 65.0169
5.764000	 64.9301
5.782000	 64.9187
5.800000	 64.9608
5.818000	 65.0649
5.836000	 65.163
5.854000	 65.1404
5.872000	 65.0592
5.890000	 65.1014
5.908000	 65.1319
5.926000	 65.1471
5.944000	 65.138
5.962000	 65.0474
5.980000	 65.0476
5.998000	 65.0858
6.016000	 65.1149
6.034000	 65.12
6.052000	 65.0491
6.070000	 65.0051
6.088000	 64.984
6.106000	 64.9806
6.124000	 65.0063
6.142000	 65.0402
6.160000	 65.1376
6.178000	 65.242
6.196000	 65.1392
6.214000	 65.0155
6.232000	 65.0368
6.250000	 65.0625
6.268000	 65.0627
6.286000	 65.1006
6.304000	 65.0828
6.322000	 65.0362
6.340000	 64.982
6.358000	 64.9581
6.376000	 64.9394
6.394000	 64.9391
6.412000	 64.9171
6.430000	 64.8267
6.448000	 64.8495
6.466000	 64.9315
6.484000	 64.9318
6.502000	 64.8597
6.520000	 64.8549
6.538000	 64.9583
6.556000	 65.0662
6.574000	 65.0222
6.592000	 64.9182
6.610000	 64.9388
6.628000	 64.9585
6.646000	 64.9781
6.664000	 65.0167
6.682000	 64.9518
6.700000	 64.8982
6.718000	 64.8959
6.736000	 64.8876
6.754000	 64.9402
6.772000	 65.0404
6.790000	 65.1072
6.808000	 65.0951
6.826000	 65.0528
6.844000	 64.9851
6.862000	 64.892
6.880000	 64.8477
6.898000	 64.8347
6.916000	 64.8142
6.934000	 64.8331
6.952000	 64.8754
6.970000	 64.8909
6.988000	 64.9179
7.006000	 64.9362
7.024000	 64.8984
7.042000	 64.8803
7.060000	 64.8971
7.078000	 64.893
7.096000	 64.872
7.114000	 64.8715
7.132000	 64.9309
7.150000	 64.9741
7.168000	 64.8944
7.186000	 64.7958
7.204000	 64.8117
7.222000	 64.8867
7.240000	 64.9392
7.258000	 64.9694
7.276000	 64.9762
7.294000	 64.9663
7.312000	 64.9735
7.330000	 65.0061
7.348000	 65.0402
7.366000	 65.0687
7.384000	 65.0806
7.402000	 65.0362
7.420000	 64.9674
7.438000	 64.9522
7.456000	 64.9508
7.474000	 64.9079
7.492000	 64.8853
7.510000	 64.9061
7.528000	 64.907
7.546000	 64.8802
7.564000	 64.872
7.582000	 64.9026
7.600000	 64.9425
7.618000	 64.9416
7.636000	 64.9067
7.654000	 64.8875
7.672000	 64.8816
7.690000	 64.8561
7.708000	 64.8319
7.726000	 64.8447
7.744000	 64.8858
7.762000	 64.9268
7.780000	 64.9499
7.798000	 64.9387
7.816000	 64.8857
7.834000	 64.8145
7.852000	 64.7651
7.870000	 64.7507
7.888000	 64.756
7.906000	 64.7758
7.924000	 64.8098
7.942000	 64.833
7.960000	 64.8261
7.978000	 64.8154
7.996000	 64.8268
8.013999	 64.8403
8.032000	 64.8311
8.050000	 64.8078
8.068000	 64.7929
8.086000	 64.7962
8.103999	 64.813
8.122000	 64.8301
8.140000	 64.8419
8.158000	 64.8528
8.176000	 64.8566
8.193999	 64.8445
8.212000	 64.8394
8.230000	 64.8706
8.248000	 64.9118
8.266000	 64.9006
8.283999	 64.8294
8.302000	 64.7637
8.320000	 64.7553
8.338000	 64.7837
8.356000	 64.7876
8.374000	 64.7366
8.391999	 64.6563
8.410000	 64.5942
8.428000	 64.5754
8.446000	 64.5912
8.464000	 64.6215
8.481999	 64.6589
8.500000	 64.708
8.518000	 64.7632
8.536000	 64.7991
8.554000	 64.7922
8.571999	 64.7498
8.590000	 64.7042
8.608000	 64.6776
8.626000	 64.6627
8.644000	 64.6437
8.661999	 64.6243
8.680000	 64.6226
8.698000	 64.6402
8.716000	 64.6553
8.734000	 64.6448
8.751999	 64.6065
8.770000	 64.558
8.788000	 64.5242
8.806000	 64.521
8.824000	 64.5451
8.842000	 64.5748
8.859999	 64.5889
8.878000	 64.5856
8.896000	 64.5813
8.914000	 64.5889
8.932000	 64.6038
8.949999	 64.6107
8.968000	 64.6014
8.986000	 64.5857
9.004000	 64.5828
9.022000	 64.5985
9.039999	 64.6152
9.058000	 64.606
9.076000	 64.5612
9.094000	 64.5009
9.112000	 64.462
9.129999	 64.4719
9.148000	 64.5274
9.166000	 64.5978
9.184000	 64.6469
9.202000	 64.656
9.219999	 64.6321
9.238000	 64.5938
9.256000	 64.5533
9.274000	 64.5144
9.292000	 64.4834
9.310000	 64.4726
9.327999	 64.4906
9.346000	 64.5313
9.364000	 64.5729
9.382000	 64.5902
9.400000	 64.5723
9.418000	 64.5295
9.436000	 64.4833
9.454000	 64.4515
9.472000	 64.4415
9.490000	 64.4565
9.508000	 64.4973
9.526000	 64.5581
9.544000	 64.62
9.561999	 64.6588
9.580000	 64.662
9.598000	 64.6381
9.616000	 64.6067
9.634000	 64.5785
9.652000	 64.5473
9.670000	 64.5025
9.688000	 64.4465
9.706000	 64.398
9.724000	 64.3758
9.742000	 64.3828
9.760000	 64.4032
9.778000	 64.4173
9.795999	 64.418
9.814000	 64.4141
9.832000	 64.4196
9.850000	 64.44
9.868000	 64.4677
9.886000	 64.4896
9.904000	 64.4965
9.922000	 64.4876
9.940000	 64.4695
9.958000	 64.4512
9.976000	 64.4398
9.994000	 64.4385
10.012	64.4466
10.03	64.4601
10.048	64.474
10.066	64.4829
10.084	64.4827
10.102	64.4721
10.12	64.4532
10.138	64.4329
10.156	64.4211
10.174	64.426
10.192	64.4487
10.21	64.4794
10.228	64.5022
10.246	64.5028
10.264	64.4775
10.282	64.4381
10.3	64.4067
10.318	64.4047
10.336	64.4412
10.354	64.5058
10.372	64.5745
10.39	64.6202
10.408	64.6267
10.426	64.5928
10.444	64.5311
10.462	64.458
10.48	64.3875
10.498	64.3291
10.516	64.2878
10.534	64.2675
10.552	64.2686
10.57	64.2853
10.588	64.303
10.606	64.3014
10.624	64.2615
10.642	64.1745
10.66	64.0473
10.678	63.9043
10.696	63.7779
10.714	63.6968
10.732	63.6781
10.75	63.7236
10.768	63.8234
10.786	63.9631
10.804	64.1259
10.822	64.2952
10.84	64.4512
10.858	64.5739
10.876	64.6481
10.894	64.6686
10.912	64.6411
10.93	64.5803
10.948	64.4963
10.966	64.3904
10.984	64.258
11.002	64.0975
11.02	63.9225
11.038	63.765
11.056	63.6632
11.074	63.6437
11.092	63.7042
11.11	63.8093
11.128	63.9029
11.146	63.935
11.164	63.8793
11.182	63.7466
11.2	63.5791
11.218	63.427
11.236	63.3356
11.254	63.3283
11.272	63.4077
11.29	63.5616
11.308	63.7713
11.326	64.0135
11.344	64.2641
11.362	64.4952
11.38	64.6778
11.398	64.7909
11.416	64.8266
11.434	64.7951
11.452	64.7222
11.47	64.6396
11.488	64.5703
11.506	64.5248
11.524	64.5005
11.542	64.4885
11.56	64.4811
11.578	64.4749
11.596	64.4702
11.614	64.4672
11.632	64.4625
11.65	64.4507
11.668	64.4274
11.686	64.3933
11.704	64.3549
11.722	64.3223
11.74	64.3046
11.758	64.3036
11.776	64.3117
11.794	64.3153
11.812	64.3008
11.83	64.2597
11.848	64.1944
11.866	64.1166
11.884	64.0428
11.902	63.989
11.92	63.9647
11.938	63.9704
11.956	63.9978
11.974	64.0338
11.992	64.065
12.01	64.0821
12.028	64.08
12.046	64.0586
12.064	64.0204
12.082	63.9691
12.1	63.9085
12.118	63.8429
12.136	63.7766
12.154	63.7147
12.172	63.6615
12.19	63.6196
12.208	63.5888
12.226	63.5655
12.244	63.5444
12.262	63.5199
12.28	63.4896
12.298	63.4554
12.316	63.4234
12.334	63.4013
12.352	63.3953
12.37	63.4074
12.388	63.435
12.406	63.4715
12.424	63.5092
12.442	63.5424
12.46	63.5686
12.478	63.5898
12.496	63.61
12.514	63.6329
12.532	63.6595
12.55	63.6881
12.568	63.715
12.586	63.7359
12.604	63.7485
12.622	63.7534
12.64	63.7535
12.658	63.7524
12.676	63.7522
12.694	63.7535
12.712	63.7556
12.73	63.757
12.748	63.7572
12.766	63.7568
12.784	63.7569
12.802	63.7586
12.82	63.7615
12.838	63.7636
12.856	63.7617
12.874	63.7519
12.892	63.7323
12.91	63.7038
12.928	63.6708
12.946	63.6402
12.964	63.6196
12.982	63.6149
13	63.6286
13.018	63.6585
13.036	63.6982
13.054	63.7391
13.072	63.7717
13.09	63.7881
13.108	63.7838
13.126	63.7574
13.144	63.7117
13.162	63.652
13.18	63.5857
13.198	63.5199
13.216	63.4606
13.234	63.4115
13.252	63.3739
13.27	63.3466
13.288	63.327
13.306	63.3115
13.324	63.2971
13.342	63.2817
13.36	63.2647
13.378	63.2471
13.396	63.2311
13.414	63.2191
13.432	63.2133
13.45	63.2145
13.468	63.222
13.486	63.2334
13.504	63.2456
13.522	63.2551
13.54	63.2587
13.558	63.2545
13.576	63.2422
13.594	63.2226
13.612	63.1979
13.63	63.1707
13.648	63.1437
13.666	63.1189
13.684	63.0974
13.702	63.0794
13.72	63.0637
13.738	63.049
13.756	63.0342
13.774	63.0191
13.792	63.0044
13.81	62.9927
13.828	62.9872
13.846	62.9913
13.864	63.0072
13.882	63.0354
13.9	63.0738
13.918	63.1185
13.936	63.1637
13.954	63.2029
13.972	63.2303
13.99	63.2414
14.008	63.2345
14.026	63.2107
14.044	63.1737
14.062	63.1293
14.08	63.0839
14.098	63.0435
14.116	63.0126
14.134	62.9935
14.152	62.9863
14.17	62.9888
14.188	62.9978
14.206	63.009
14.224	63.0186
14.242	63.0234
14.26	63.0217
14.278	63.0134
14.296	62.9997
14.314	62.9829
14.332	62.9657
14.35	62.9505
14.368	62.9395
14.386	62.9333
14.404	62.931
14.422	62.9304
14.44	62.9284
14.458	62.9215
14.476	62.9066
14.494	62.8813
14.512	62.8446
14.53	62.7972
14.548	62.7415
14.566	62.6807
14.584	62.6185
14.602	62.5584
14.62	62.5037
14.638	62.4567
14.656	62.4191
14.674	62.391
14.692	62.3723
14.71	62.3622
14.728	62.3601
14.746	62.3653
14.764	62.3774
14.782	62.3961
14.8	62.4213
14.818	62.4526
14.836	62.4892
14.854	62.5296
14.872	62.5716
14.89	62.613
14.908	62.6513
14.926	62.6843
14.944	62.7096
14.962	62.7259
14.98	62.7327
14.998	62.7305
15.016	62.7205
15.034	62.7046
15.052	62.6859
15.07	62.6669
15.088	62.6502
15.106	62.6382
15.124	62.6325
15.142	62.6338
15.16	62.6413
15.178	62.6536
15.196	62.6687
15.214	62.6838
15.232	62.6961
15.25	62.7036
15.268	62.7046
15.286	62.6981
15.304	62.6847
15.322	62.6656
15.34	62.6425
15.358	62.6172
15.376	62.5921
15.394	62.5686
15.412	62.5471
15.43	62.528
15.448	62.5101
15.466	62.4916
15.484	62.4708
15.502	62.446
15.52	62.4155
15.538	62.3793
15.556	62.3379
15.574	62.2922
15.592	62.245
15.61	62.1987
15.628	62.1558
15.646	62.1186
15.664	62.0891
15.682	62.0679
15.7	62.0553
15.718	62.0509
15.736	62.0537
15.754	62.0622
15.772	62.0755
15.79	62.092
15.808	62.1109
15.826	62.1316
15.844	62.1537
15.862	62.1768
15.88	62.2007
15.898	62.2247
15.916	62.2483
15.934	62.2701
15.952	62.2891
15.97	62.3039
15.988	62.3128
16.006	62.3146
16.024	62.3084
16.042	62.2935
16.06	62.2701
16.078	62.239
16.096	62.2011
16.114	62.1586
16.132	62.1131
16.15	62.0665
16.168	62.0215
16.186	61.9796
16.204	61.9423
16.222	61.9112
16.24	61.8868
16.258	61.8694
16.276	61.8591
16.294	61.8551
16.312	61.857
16.33	61.8634
16.348	61.8732
16.366	61.8853
16.384	61.8978
16.402	61.9092
16.42	61.9182
16.438	61.923
16.456	61.9223
16.474	61.9155
16.492	61.902
16.51	61.8823
16.528	61.8569
16.546	61.8273
16.564	61.7959
16.582	61.764
16.6	61.7344
16.618	61.7091
16.636	61.6893
16.654	61.6767
16.672	61.6714
16.69	61.6735
16.708	61.6825
16.726	61.6969
16.744	61.7156
16.762	61.7363
16.78	61.7575
16.798	61.7772
16.816	61.7927
16.834	61.8029
16.852	61.8054
16.87	61.799
16.888	61.7828
16.906	61.7563
16.924	61.7203
16.942	61.6749
16.96	61.6229
16.978	61.5658
16.996	61.5067
17.014	61.4491
17.032	61.3946
17.05	61.3471
17.068	61.3074
17.086	61.2772
17.104	61.2567
17.122	61.2453
17.14	61.2418
17.158	61.2435
17.176	61.2491
17.194	61.2544
17.212	61.258
17.23	61.2569
17.248	61.2496
17.266	61.2354
17.284	61.2139
17.302	61.1861
17.32	61.153
17.338	61.1174
17.356	61.0805
17.374	61.0462
17.392	61.016
17.41	60.9925
17.428	60.9775
17.446	60.9717
17.464	60.9757
17.482	60.9889
17.5	61.0105
17.518	61.0385
17.536	61.0718
17.554	61.1073
17.572	61.1439
17.59	61.1787
17.608	61.2107
17.626	61.2386
17.644	61.2613
17.662	61.2787
17.68	61.2906
17.698	61.2974
17.716	61.2998
17.734	61.2988
17.752	61.2948
17.77	61.2895
17.788	61.2831
17.806	61.277
17.824	61.2714
17.842	61.267
17.86	61.2639
17.878	61.2625
17.896	61.2627
17.914	61.2646
17.932	61.2679
17.95	61.2727
17.968	61.2787
17.986	61.2857
18.004	61.2934
18.022	61.3015
18.04	61.3098
18.058	61.3178
18.076	61.3253
18.094	61.3315
18.112	61.3361
18.13	61.3383
18.148	61.3378
18.166	61.3339
18.184	61.3263
18.202	61.3148
18.22	61.2994
18.238	61.2801
18.256	61.2574
18.274	61.2315
18.292	61.2037
18.31	61.1741
18.328	61.1442
18.346	61.1143
18.364	61.0856
18.382	61.0582
18.4	61.033
18.418	61.0097
18.436	60.9886
18.454	60.9693
18.472	60.9517
18.49	60.935
18.508	60.9191
18.526	60.9032
18.544	60.8871
18.562	60.8703
18.58	60.8526
18.598	60.8337
18.616	60.8137
18.634	60.7927
18.652	60.7708
18.67	60.7484
18.688	60.7254
18.706	60.7021
18.724	60.6783
18.742	60.6543
18.76	60.6301
18.778	60.6055
18.796	60.5806
18.814	60.5553
18.832	60.5297
18.85	60.5035
18.868	60.4769
18.886	60.45
18.904	60.4234
18.922	60.3971
18.94	60.372
18.958	60.3484
18.976	60.3271
18.994	60.3087
19.012	60.2938
19.03	60.2832
19.048	60.2774
19.066	60.2772
19.084	60.2826
19.102	60.2942
19.12	60.3116
19.138	60.3348
19.156	60.363
19.174	60.3959
19.192	60.4325
19.21	60.4717
19.228	60.5128
19.246	60.5538
19.264	60.5945
19.282	60.6327
19.3	60.6683
19.318	60.6996
19.336	60.7266
19.354	60.7481
19.372	60.7642
19.39	60.7747
19.408	60.7795
19.426	60.7791
19.444	60.7733
19.462	60.7629
19.48	60.748
19.498	60.7291
19.516	60.7063
19.534	60.6802
19.552	60.651
19.57	60.619
19.588	60.5844
19.606	60.5474
19.624	60.5084
19.642	60.4675
19.66	60.425
19.678	60.3811
19.696	60.3368
19.714	60.292
19.732	60.2475
19.75	60.2033
19.768	60.16
19.786	60.1177
19.804	60.0764
19.822	60.0363
19.84	59.9971
19.858	59.9589
19.876	59.9214
19.894	59.8841
19.912	59.847
19.93	59.8095
19.948	59.7716
19.966	59.7326
19.984	59.6927
20.002	59.6516
20.02	59.6093
20.038	59.5659
20.056	59.5216
20.074	59.4764
20.092	59.4309
20.11	59.3852
20.128	59.34
20.146	59.2952
20.164	59.2515
20.182	59.2091
20.2	59.1683
20.218	59.1295
20.236	59.0927
20.254	59.0582
20.272	59.0262
20.29	58.9965
20.308	58.9693
20.326	58.9444
20.344	58.9218
20.362	58.9012
20.38	58.8825
20.398	58.8654
20.416	58.8497
20.434	58.8354
20.452	58.8218
20.47	58.8088
20.488	58.7961
20.506	58.7836
20.524	58.7712
20.542	58.7586
20.56	58.7458
20.578	58.7331
20.596	58.7206
20.614	58.7084
20.632	58.6969
20.65	58.6861
20.668	58.677
20.686	58.6695
20.704	58.6644
20.722	58.6619
20.74	58.6624
20.758	58.6668
20.776	58.6749
20.794	58.6871
20.812	58.7037
20.83	58.7245
20.848	58.7497
20.866	58.7789
20.884	58.8117
20.902	58.8483
20.92	58.8874
20.938	58.9286
20.956	58.9715
20.974	59.0142
20.992	59.0573
21.01	59.0984
21.028	59.1372
21.046	59.1728
21.064	59.2032
21.082	59.229
21.1	59.248
21.118	59.2603
21.136	59.2654
21.154	59.2623
21.172	59.2514
21.19	59.2331
21.208	59.2069
21.226	59.1739
21.244	59.1353
21.262	59.0906
21.28	59.0429
21.298	58.9916
21.316	58.9386
21.334	58.8862
21.352	58.8336
21.37	58.7837
21.388	58.7368
21.406	58.6933
21.424	58.655
21.442	58.6215
21.46	58.593
21.478	58.57
21.496	58.5519
21.514	58.538
21.532	58.5286
21.55	58.5223
21.568	58.5185
21.586	58.5173
21.604	58.5169
21.622	58.5175
21.64	58.5185
21.658	58.5188
21.676	58.5188
21.694	58.5181
21.712	58.5163
21.73	58.5138
21.748	58.5109
21.766	58.5075
21.784	58.5041
21.802	58.5013
21.82	58.4988
21.838	58.4974
21.856	58.4972
21.874	58.498
21.892	58.5003
21.91	58.5038
21.928	58.5083
21.946	58.5135
21.964	58.5195
21.982	58.5247
22	58.5297
22.018	58.5334
22.036	58.5343
22.054	58.5331
22.072	58.5282
22.09	58.5188
22.108	58.5053
22.126	58.4867
22.144	58.4626
22.162	58.4335
22.18	58.3992
22.198	58.3594
22.216	58.3151
22.234	58.2666
22.252	58.2137
22.27	58.1583
22.288	58.1007
22.306	58.0409
22.324	57.9814
22.342	57.9221
22.36	57.8635
22.378	57.8077
22.396	57.754
22.414	57.7032
22.432	57.6562
22.45	57.6127
22.468	57.5729
22.486	57.537
22.504	57.5049
22.522	57.4759
22.54	57.4499
22.558	57.4267
22.576	57.4049
22.594	57.3847
22.612	57.3656
22.63	57.3455
22.648	57.3254
22.666	57.304
22.684	57.2795
22.702	57.2528
22.72	57.2226
22.738	57.1878
22.756	57.1489
22.774	57.1054
22.792	57.0568
22.81	57.0034
22.828	56.9456
22.846	56.8835
22.864	56.8171
22.882	56.7472
22.9	56.6739
22.918	56.5973
22.936	56.5188
22.954	56.4382
22.972	56.3559
22.99	56.2739
23.008	56.192
23.026	56.1106
23.044	56.0315
23.062	55.9546
23.08	55.88
23.098	55.8091
23.116	55.7418
23.134	55.6781
23.152	55.6184
23.17	55.5629
23.188	55.5113
23.206	55.4632
23.224	55.4191
23.242	55.3783
23.26	55.3398
23.278	55.3041
23.296	55.2706
23.314	55.2383
23.332	55.2075
23.35	55.1777
23.368	55.1476
23.386	55.1176
23.404	55.0874
23.422	55.0559
23.44	55.0234
23.458	54.9897
23.476	54.9538
23.494	54.916
23.512	54.8761
23.53	54.8336
23.548	54.7886
23.566	54.7411
23.584	54.6905
23.602	54.6369
23.62	54.5804
23.638	54.5205
23.656	54.4572
23.674	54.3907
23.692	54.3206
23.71	54.2467
23.728	54.1692
23.746	54.0879
23.764	54.0026
23.782	53.9136
23.8	53.8206
23.818	53.7238
23.836	53.6229
23.854	53.5183
23.872	53.4106
23.89	53.2991
23.908	53.1847
23.926	53.0688
23.944	52.9503
23.962	52.8304
23.98	52.7116
23.998	52.5939
24.016	52.4769
24.034	52.3642
24.052	52.2569
24.07	52.1534
24.088	52.0578
24.106	51.9731
24.124	51.8965
24.142	51.8318
24.16	51.7833
24.178	51.7484
24.196	51.7293
24.214	51.7306
24.232	51.7516
24.25	51.7921
24.268	51.8557
24.286	51.9442
24.304	52.0558
24.322	52.1918
24.34	52.3536
24.358	52.5411
24.376	52.7525
24.394	52.9862
24.412	53.2444
24.43	53.5245
24.448	53.8209
24.466	54.1339
24.484	54.4648
24.502	54.8055
24.52	55.1512
24.538	55.5077
24.556	55.8667
24.574	56.219
24.592	56.5695
24.61	56.915
24.628	57.2456
24.646	57.5591
24.664	57.8596
24.682	58.1387
24.7	58.3899
24.718	58.6184
24.736	58.8202
24.754	58.9893
24.772	59.1261
24.79	59.2318
24.808	59.3046
24.826	59.3426
24.844	59.3463
24.862	59.3184
24.88	59.2614
24.898	59.1721
24.916	59.0537
24.934	58.9128
24.952	58.7504
24.97	58.5631
24.988	58.3596
25.006	58.1479
25.024	57.9217
25.042	57.6857
25.06	57.4495
25.078	57.215
25.096	56.9778
25.114	56.7459
25.132	56.5264
25.15	56.3147
25.168	56.1131
25.186	55.9274
25.204	55.759
25.222	55.6052
25.24	55.4693
25.258	55.3545
25.276	55.2607
25.294	55.1861
25.312	55.1294
25.33	55.0911
25.348	55.0726
25.366	55.0686
25.384	55.0738
25.402	55.0918
25.42	55.1208
25.438	55.154
25.456	55.1873
25.474	55.2258
25.492	55.2647
25.51	55.2979
25.528	55.3263
25.546	55.3515
25.564	55.3679
25.582	55.3708
25.6	55.3632
25.618	55.3442
25.636	55.311
25.654	55.2626
25.672	55.2011
25.69	55.124
25.708	55.0291
25.726	54.9159
25.744	54.7856
25.762	54.6386
25.78	54.4746
25.798	54.2899
25.816	54.0899
25.834	53.8816
25.852	53.6672
25.87	53.44
25.888	53.2105
25.906	52.9904
25.924	52.7763
25.942	52.5647
25.96	52.3713
25.978	52.2108
25.996	52.0738
26.014	51.9626
26.032	51.8901
26.05	51.8663
26.068	51.8836
26.086	51.9436
26.104	52.0512
26.122	52.2105
26.14	52.4201
26.158	52.6748
26.176	52.9693
26.194	53.3083
26.212	53.6939
26.23	54.1092
26.248	54.5374
26.266	54.9889
26.284	55.4634
26.302	55.9386
26.32	56.3936
26.338	56.8429
26.356	57.2831
26.374	57.6958
26.392	58.0657
26.41	58.4071
26.428	58.714
26.446	58.9729
26.464	59.1731
26.482	59.3221
26.5	59.4205
26.518	59.4664
26.536	59.4578
26.554	59.3945
26.572	59.2802
26.59	59.119
26.608	58.9125
26.626	58.6577
26.644	58.3579
26.662	58.0166
26.68	57.6339
26.698	57.2059
26.716	56.7401
26.734	56.2443
26.752	55.7221
26.77	55.1688
26.788	54.5859
26.806	53.9754
26.824	53.3336
26.842	52.6571
26.86	51.9597
26.878	51.2556
26.896	50.5432
26.914	49.8096
26.932	49.0791
26.95	48.377
26.968	47.6859
26.986	46.9698
27.004	46.3189
27.022	45.8273
27.028	45.7311