File: Bakgrunnsmateriale/MATLAB/FTIR/ftir_data/subBb/Mapping_36/C-4040-8_t04_cm-1.asc
PE IR       SPECTRUM    SPECTRUM    ASCII       PEDS        1.60
  -1
C-996F~1.ASC
17/05/02
11:08:49.00
17/05/02
11:08:49.00
tln
$C-4040-8_t0004$<tbV0>[-2.5,-13.0,8.0,0.0,22,1,0]
370
64

2002,4.07
MIRTGS : RIGHTBACK : INTERNAL 2
MIR : ON : INTERNAL 2
OPTKBR

0.200000
8
8.000000
FILLER
RATIO
SPECTRUM
UNLOCKED 256

DOUBLE
64
COMBINED
1
0
0

1.000000
RATIO

1
0
TRUE
51149
0
LEFT NOT FITTED RIGHT NOT FITTED 0
NONE
NONE
15600
12
4.427000
51148
TRUE
1 0 8 72 0 0 0 0

15798

#HDR
-1
-1
#GR
CM-1
%T
2.38419e-05
0.0
7800
-1.000000
7431
8
85.3717
37.1209
#DATA
7800	69.6496
7795	65.996
7790	69.1522
7785	69.3845
7780	65.4206
7775	58.0377
7770	60.2536
7765	65.6437
7760	68.5318
7755	71.9159
7750	70.4563
7745	69.3532
7740	68.3448
7735	71.065
7730	73.8779
7725	64.5789
7720	55.8751
7715	58.5491
7710	60.3674
7705	62.9729
7700	64.2724
7695	60.8118
7690	61.7692
7685	60.509
7680	64.1674
7675	71.8871
7670	71.2417
7665	66.5441
7660	64.9521
7655	71.9029
7650	76.2876
7645	69.7106
7640	67.8069
7635	68.9294
7630	66.028
7625	64.4274
7620	68.1174
7615	66.9738
7610	64.3832
7605	65.0341
7600	65.5551
7595	64.6292
7590	64.2679
7585	68.0307
7580	70.4329
7575	69.5731
7570	67.4989
7565	67.7171
7560	68.8854
7555	69.6347
7550	67.4155
7545	63.9348
7540	64.8291
7535	62.0053
7530	62.5779
7525	61.6669
7520	62.4383
7515	67.6399
7510	66.0273
7505	62.8509
7500	64.7562
7495	66.028
7490	63.7437
7485	62.9035
7480	65.4469
7475	64.776
7470	62.2627
7465	61.0125
7460	63.3938
7455	65.2672
7450	65.0407
7445	64.6022
7440	63.0005
7435	60.7526
7430	60.5626
7425	62.4712
7420	63.2314
7415	64.3322
7410	65.0229
7405	67.1237
7400	69.6793
7395	66.1813
7390	63.5832
7385	63.754
7380	64.4979
7375	62.598
7370	61.7982
7365	65.7175
7360	66.5157
7355	64.3212
7350	60.9679
7345	60.0565
7340	62.0276
7335	64.5931
7330	66.5719
7325	67.9698
7320	69.6582
7315	66.8894
7310	63.1031
7305	61.3324
7300	60.4372
7295	60.4312
7290	61.7757
7285	63.4794
7280	65.0249
7275	64.5939
7270	63.4775
7265	62.8085
7260	60.9975
7255	60.8439
7250	62.5098
7245	61.8572
7240	60.9924
7235	63.6293
7230	66.6764
7225	65.2632
7220	63.2528
7215	64.3661
7210	63.969
7205	63.859
7200	64.2124
7195	65.1942
7190	64.0232
7185	63.3251
7180	64.6167
7175	67.0806
7170	67.1074
7165	63.752
7160	62.9349
7155	62.9976
7150	61.9798
7145	62.692
7140	62.6418
7135	62.3454
7130	63.7618
7125	63.2828
7120	64.2806
7115	66.0868
7110	63.3825
7105	61.9586
7100	63.7324
7095	65.8715
7090	67.487
7085	67.4699
7080	65.0216
7075	63.7289
7070	64.2471
7065	63.9916
7060	63.5633
7055	63.3473
7050	64.1781
7045	64.0271
7040	62.7184
7035	63.3393
7030	64.192
7025	64.0256
7020	64.4107
7015	61.5275
7010	59.1403
7005	60.6119
7000	62.7848
6995	63.4329
6990	63.7196
6985	63.5161
6980	63.2367
6975	64.1007
6970	65.4509
6965	63.8631
6960	61.9475
6955	61.6695
6950	61.4245
6945	61.9994
6940	63.6809
6935	64.4571
6930	64.208
6925	63.9192
6920	64.419
6915	64.8985
6910	64.4953
6905	63.5754
6900	63.7522
6895	63.4582
6890	63.1748
6885	64.5482
6880	65.4903
6875	64.4513
6870	62.9958
6865	62.854
6860	63.4682
6855	64.9134
6850	64.3425
6845	62.4893
6840	61.7189
6835	60.9734
6830	60.091
6825	60.0174
6820	61.7852
6815	62.6774
6810	62.9509
6805	63.6334
6800	64.0465
6795	63.8236
6790	65.0385
6785	64.6416
6780	64.0512
6775	62.43
6770	60.9414
6765	62.4504
6760	64.0258
6755	64.2848
6750	63.359
6745	62.3544
6740	60.9782
6735	61.4697
6730	63.11
6725	63.5723
6720	62.8304
6715	61.5195
6710	61.1672
6705	63.5566
6700	64.7824
6695	64.1015
6690	62.9239
6685	62.7759
6680	62.8225
6675	63.0383
6670	62.9859
6665	62.5673
6660	62.6271
6655	61.9
6650	61.7555
6645	63.7846
6640	64.2393
6635	63.1305
6630	63.7116
6625	63.1023
6620	62.1434
6615	62.2334
6610	63.6983
6605	64.4756
6600	63.7525
6595	64.292
6590	64.1282
6585	63.041
6580	62.8464
6575	64.6105
6570	65.4224
6565	64.4956
6560	65.2583
6555	65.1269
6550	64.835
6545	64.6958
6540	63.796
6535	63.2838
6530	63.3122
6525	63.8346
6520	63.9584
6515	64.0179
6510	64.1074
6505	64.5195
6500	65.3015
6495	64.6399
6490	63.8394
6485	64.4563
6480	65.3606
6475	64.6448
6470	63.7021
6465	63.9944
6460	65.27
6455	66.2573
6450	66.5585
6445	65.8056
6440	65.335
6435	65.3757
6430	65.7778
6425	65.802
6420	65.0293
6415	65.1562
6410	64.5697
6405	63.6987
6400	63.4157
6395	63.1368
6390	63.1477
6385	63.6168
6380	63.666
6375	63.1484
6370	62.816
6365	63.6586
6360	64.8211
6355	65.0624
6350	64.3885
6345	64.1272
6340	64.5632
6335	64.5262
6330	65.3243
6325	65.458
6320	63.9609
6315	63.6606
6310	64.5979
6305	64.4221
6300	63.0486
6295	63.0414
6290	64.1069
6285	63.9731
6280	64.0417
6275	64.5925
6270	64.9553
6265	64.6457
6260	64.4864
6255	65.0068
6250	63.9375
6245	62.6962
6240	63.1799
6235	63.8521
6230	64.3436
6225	64.2599
6220	63.7699
6215	64.0407
6210	63.8827
6205	63.3375
6200	63.222
6195	63.7633
6190	63.3187
6185	62.4083
6180	62.9226
6175	64.455
6170	65.0422
6165	63.8915
6160	63.1113
6155	63.3301
6150	63.3063
6145	63.0119
6140	63.1639
6135	64.3009
6130	64.4795
6125	63.9289
6120	63.6724
6115	63.787
6110	64.0187
6105	63.7814
6100	63.9538
6095	64.3666
6090	64.3189
6085	64.0726
6080	63.7348
6075	63.7512
6070	63.087
6065	62.7609
6060	63.769
6055	64.1145
6050	64.1472
6045	64.3298
6040	63.7937
6035	63.1363
6030	63.3788
6025	64.096
6020	63.7594
6015	63.8584
6010	64.5319
6005	64.8154
6000	64.8238
5995	65.4768
5990	65.4262
5985	64.8643
5980	64.7911
5975	64.5586
5970	63.8464
5965	63.1498
5960	63.5013
5955	63.9102
5950	63.4053
5945	63.4693
5940	63.8501
5935	63.6546
5930	63.0436
5925	62.8247
5920	63.0711
5915	63.7817
5910	64.6523
5905	64.8215
5900	64.4088
5895	63.6261
5890	63.7013
5885	63.9655
5880	64.4349
5875	64.4129
5870	64.0106
5865	64.1455
5860	64.3736
5855	64.4787
5850	64.274
5845	63.9793
5840	64.5545
5835	65.1013
5830	64.7108
5825	64.2695
5820	64.1515
5815	64.1313
5810	64.1451
5805	64.6075
5800	65.1384
5795	64.7892
5790	64.6172
5785	65.0356
5780	64.4905
5775	63.5945
5770	63.7292
5765	63.9833
5760	63.3696
5755	62.9066
5750	63.3423
5745	64.0271
5740	64.25
5735	64.1045
5730	64.1032
5725	63.5316
5720	63.6102
5715	64.1201
5710	64.3942
5705	64.3755
5700	64.518
5695	64.2523
5690	64.0349
5685	64.7568
5680	65.1405
5675	64.5538
5670	64.0711
5665	63.2611
5660	62.9469
5655	63.9095
5650	64.4269
5645	64.3757
5640	64.392
5635	63.8504
5630	63.4273
5625	63.4463
5620	63.8972
5615	63.8117
5610	63.7584
5605	63.805
5600	63.8661
5595	64.1926
5590	64.3075
5585	64.4861
5580	65.1495
5575	64.7823
5570	63.8161
5565	63.7864
5560	64.0809
5555	64.106
5550	63.8812
5545	64.0936
5540	64.9224
5535	64.6369
5530	63.9311
5525	63.914
5520	64.2284
5515	64.1063
5510	63.9779
5505	64.372
5500	64.5594
5495	64.6612
5490	64.9358
5485	65.3328
5480	65.0006
5475	64.3601
5470	63.8023
5465	63.9105
5460	64.3558
5455	64.0563
5450	64.0726
5445	64.6537
5440	64.8622
5435	64.5884
5430	64.1128
5425	63.7445
5420	63.6173
5415	63.8882
5410	64.4145
5405	63.9883
5400	63.638
5395	64.4955
5390	64.8999
5385	64.8449
5380	64.7956
5375	64.258
5370	64.1927
5365	64.3659
5360	64.1434
5355	64.0083
5350	64.5523
5345	65.041
5340	64.7102
5335	64.3625
5330	63.5635
5325	62.6924
5320	62.1966
5315	63.1624
5310	64.785
5305	64.7742
5300	65.1676
5295	64.1858
5290	64.2704
5285	64.5754
5280	63.1589
5275	64.8939
5270	67.9668
5265	69.1785
5260	68.1338
5255	64.9172
5250	63.6535
5245	64.6517
5240	63.8407
5235	60.9188
5230	61.3729
5225	62.5639
5220	63.9672
5215	64.2507
5210	64.4673
5205	65.2679
5200	64.985
5195	63.4726
5190	62.7821
5185	63.6594
5180	65.0964
5175	65.2189
5170	64.2397
5165	63.5547
5160	63.4471
5155	63.1128
5150	63.7033
5145	64.277
5140	63.6997
5135	63.4004
5130	63.9169
5125	64.5706
5120	64.524
5115	64.1933
5110	64.292
5105	64.2487
5100	63.7955
5095	63.9431
5090	64.3116
5085	63.8362
5080	63.8481
5075	63.8862
5070	63.7287
5065	64.1278
5060	64.3927
5055	64.337
5050	64.1806
5045	64.4802
5040	64.5718
5035	64.3133
5030	63.6852
5025	63.3679
5020	64.0442
5015	64.5425
5010	64.434
5005	64.4922
5000	64.7324
4995	64.5469
4990	64.1336
4985	64.2272
4980	64.3134
4975	64.3796
4970	64.5869
4965	64.5333
4960	64.4767
4955	64.5258
4950	64.5789
4945	64.4695
4940	64.3672
4935	64.3229
4930	64.334
4925	64.6154
4920	64.8407
4915	64.6318
4910	64.4156
4905	64.4304
4900	64.4342
4895	64.6454
4890	64.8725
4885	64.725
4880	64.1489
4875	63.9683
4870	64.21
4865	64.3416
4860	64.1526
4855	63.8654
4850	64.0415
4845	64.1901
4840	64.1787
4835	64.1423
4830	63.9635
4825	64.0332
4820	63.9627
4815	63.886
4810	63.9226
4805	63.7338
4800	63.8847
4795	64.118
4790	64.0844
4785	64.3772
4780	64.4784
4775	64.221
4770	64.103
4765	64.2952
4760	64.2788
4755	64.1427
4750	63.8835
4745	63.8411
4740	64.2121
4735	64.3739
4730	64.2354
4725	64.0669
4720	64.0632
4715	63.9726
4710	63.8736
4705	64.0369
4700	64.339
4695	64.4505
4690	64.2426
4685	63.9342
4680	63.8593
4675	64.136
4670	64.2212
4665	64.1301
4660	64.2753
4655	64.4286
4650	64.1139
4645	63.7859
4640	63.7194
4635	64.0683
4630	64.2428
4625	63.9436
4620	63.7727
4615	63.9374
4610	63.9148
4605	63.923
4600	63.945
4595	64.0097
4590	64.0473
4585	64.1714
4580	64.4212
4575	64.5739
4570	64.3831
4565	64.0686
4560	64.0085
4555	64.2768
4550	64.2872
4545	64.3071
4540	64.4607
4535	63.9096
4530	63.8281
4525	64.1309
4520	64.0681
4515	63.9466
4510	64.1049
4505	64.2657
4500	64.2811
4495	64.3799
4490	64.5405
4485	64.734
4480	64.4869
4475	64.1825
4470	64.4533
4465	64.5199
4460	64.4427
4455	64.5848
4450	64.5934
4445	64.3849
4440	64.316
4435	64.015
4430	64.0227
4425	64.872
4420	65.1971
4415	65.2254
4410	67.2035
4405	71.832
4400	65.5197
4395	54.7165
4390	45.3357
4385	54.9815
4380	63.0835
4375	62.3892
4370	63.6749
4365	64.3412
4360	64.2843
4355	64.2602
4350	64.5585
4345	64.4726
4340	64.6029
4335	64.6353
4330	64.1184
4325	63.8913
4320	64.1317
4315	64.1619
4310	64.0823
4305	64.0116
4300	63.9532
4295	64.1668
4290	64.4696
4285	64.4414
4280	64.2488
4275	64.0441
4270	64.0922
4265	64.2517
4260	64.2142
4255	64.1162
4250	64.1275
4245	64.0752
4240	64.1007
4235	64.2399
4230	64.1408
4225	64.1241
4220	64.2061
4215	64.1722
4210	64.2316
4205	64.2249
4200	64.2239
4195	64.42
4190	64.2178
4185	63.8046
4180	63.6198
4175	63.7828
4170	63.871
4165	64.0079
4160	64.1218
4155	63.9705
4150	63.8644
4145	63.8009
4140	63.8305
4135	63.9918
4130	64.0834
4125	64.0476
4120	63.9824
4115	63.8948
4110	63.6951
4105	63.6965
4100	63.7542
4095	64.0073
4090	64.0991
4085	63.8747
4080	63.9205
4075	64.1469
4070	63.9453
4065	63.6622
4060	63.752
4055	63.8657
4050	63.8977
4045	63.7542
4040	63.5315
4035	63.5206
4030	63.9026
4025	64.0178
4020	63.7746
4015	63.6645
4010	63.6529
4005	63.7299
4000	63.8097
3995	63.9235
3990	63.988
3985	63.7883
3980	63.5804
3975	63.7029
3970	63.8133
3965	63.7954
3960	63.8967
3955	63.9216
3950	63.7538
3945	63.6377
3940	63.6228
3935	63.7202
3930	63.7757
3925	63.7426
3920	63.8638
3915	64.0627
3910	63.9131
3905	63.7099
3900	63.586
3895	63.5943
3890	63.8987
3885	64.0219
3880	63.9304
3875	63.8466
3870	63.53
3865	63.3768
3860	63.6979
3855	63.8772
3850	63.8214
3845	63.8934
3840	63.9761
3835	63.8948
3830	63.8619
3825	63.7526
3820	63.5068
3815	63.4774
3810	63.6656
3805	63.7832
3800	63.6406
3795	63.55
3790	63.7134
3785	63.7728
3780	63.6794
3775	63.6162
3770	63.6688
3765	63.7739
3760	63.8677
3755	63.8947
3750	63.9127
3745	63.8479
3740	63.6307
3735	63.5372
3730	63.4941
3725	63.5077
3720	63.6241
3715	63.657
3710	63.7359
3705	63.8008
3700	63.549
3695	63.4678
3690	63.5794
3685	63.5553
3680	63.4574
3675	63.5198
3670	63.4979
3665	63.3899
3660	63.4095
3655	63.4941
3650	63.5712
3645	63.5273
3640	63.5086
3635	63.4732
3630	63.3411
3625	63.3103
3620	63.5172
3615	63.6919
3610	63.4327
3605	63.2223
3600	63.3566
3595	63.4308
3590	63.3639
3585	63.2646
3580	63.2531
3575	63.3621
3570	63.3703
3565	63.2587
3560	63.1562
3555	63.0883
3550	63.1229
3545	63.2329
3540	63.1186
3535	63.1611
3530	63.205
3525	63.1347
3520	63.0713
3515	63.0193
3510	63.0403
3505	63.1855
3500	63.4109
3495	63.4388
3490	63.2196
3485	63.1372
3480	63.1966
3475	63.2256
3470	63.1955
3465	63.1501
3460	63.1889
3455	63.2118
3450	63.0778
3445	63.1192
3440	63.2075
3435	63.1328
3430	63.1757
3425	63.2589
3420	63.082
3415	63.0153
3410	63.0277
3405	62.9576
3400	62.9414
3395	62.8545
3390	62.7739
3385	62.8513
3380	62.9672
3375	62.9722
3370	62.9885
3365	63.1335
3360	63.0949
3355	62.9303
3350	62.9596
3345	62.9898
3340	62.9275
3335	62.8104
3330	62.747
3325	62.6802
3320	62.7265
3315	62.7747
3310	62.767
3305	62.7049
3300	62.6984
3295	62.8148
3290	62.9179
3285	62.917
3280	62.7792
3275	62.6995
3270	62.6814
3265	62.7181
3260	62.7108
3255	62.6381
3250	62.7336
3245	62.7484
3240	62.5589
3235	62.5229
3230	62.5246
3225	62.5222
3220	62.4642
3215	62.4297
3210	62.5465
3205	62.6285
3200	62.6065
3195	62.4829
3190	62.408
3185	62.398
3180	62.3687
3175	62.4256
3170	62.4983
3165	62.4851
3160	62.5074
3155	62.5659
3150	62.5793
3145	62.5398
3140	62.5068
3135	62.4284
3130	62.4494
3125	62.5592
3120	62.4109
3115	62.2476
3110	62.2698
3105	62.2818
3100	62.2278
3095	62.2798
3090	62.347
3085	62.2305
3080	62.2142
3075	62.2802
3070	62.3301
3065	62.3169
3060	62.1103
3055	61.9861
3050	62.0136
3045	62.0998
3040	62.1514
3035	62.2037
3030	62.1625
3025	62.07
3020	61.9969
3015	61.9362
3010	61.9309
3005	61.9505
3000	62.0351
2995	62.0703
2990	61.9717
2985	61.9277
2980	61.9786
2975	61.9504
2970	61.933
2965	61.8425
2960	61.7605
2955	61.7143
2950	61.6883
2945	61.6011
2940	61.5066
2935	61.4806
2930	61.4924
2925	61.4719
2920	61.373
2915	61.306
2910	61.3952
2905	61.4567
2900	61.4861
2895	61.5911
2890	61.6945
2885	61.7048
2880	61.5605
2875	61.4997
2870	61.5108
2865	61.5695
2860	61.5094
2855	61.4215
2850	61.4496
2845	61.473
2840	61.4064
2835	61.3677
2830	61.4122
2825	61.5125
2820	61.4588
2815	61.2827
2810	61.2839
2805	61.3593
2800	61.3885
2795	61.3741
2790	61.3309
2785	61.326
2780	61.2865
2775	61.3196
2770	61.2525
2765	61.181
2760	61.1588
2755	61.1027
2750	61.1078
2745	61.1737
2740	61.2372
2735	61.2983
2730	61.3516
2725	61.3367
2720	61.219
2715	61.1507
2710	61.1857
2705	61.1803
2700	61.1416
2695	61.0483
2690	60.9669
2685	60.9383
2680	60.9999
2675	61.0502
2670	60.9818
2665	60.9408
2660	60.9519
2655	60.9427
2650	60.8743
2645	60.8812
2640	60.813
2635	60.7257
2630	60.6591
2625	60.6971
2620	60.774
2615	60.8049
2610	60.7743
2605	60.7543
2600	60.7327
2595	60.6917
2590	60.6507
2585	60.7281
2580	60.7533
2575	60.6806
2570	60.6655
2565	60.6466
2560	60.7031
2555	60.7095
2550	60.6351
2545	60.5397
2540	60.4714
2535	60.4608
2530	60.5278
2525	60.538
2520	60.4798
2515	60.4266
2510	60.4109
2505	60.3476
2500	60.3416
2495	60.3183
2490	60.2259
2485	60.212
2480	60.2729
2475	60.3098
2470	60.2458
2465	60.163
2460	60.1764
2455	60.1515
2450	60.0768
2445	60.0651
2440	60.1554
2435	60.232
2430	60.1677
2425	60.1211
2420	60.1156
2415	59.9951
2410	59.8515
2405	59.7795
2400	59.7608
2395	59.8306
2390	59.837
2385	59.8371
2380	59.8855
2375	59.8883
2370	59.8206
2365	59.7083
2360	59.6607
2355	59.6811
2350	59.6576
2345	59.573
2340	59.5462
2335	59.555
2330	59.5916
2325	59.6429
2320	59.6129
2315	59.6224
2310	59.6362
2305	59.6168
2300	59.5823
2295	59.5294
2290	59.4698
2285	59.3818
2280	59.3235
2275	59.2581
2270	59.2318
2265	59.3333
2260	59.3664
2255	59.2966
2250	59.2825
2245	59.2629
2240	59.1645
2235	59.0829
2230	59.055
2225	59.0984
2220	59.0569
2215	59.0449
2210	59.111
2205	59.0643
2200	59.004
2195	58.9773
2190	58.9655
2185	58.9295
2180	58.9229
2175	58.8514
2170	58.8222
2165	58.8712
2160	58.8656
2155	58.7454
2150	58.6765
2145	58.7743
2140	58.7619
2135	58.7813
2130	58.7655
2125	58.6754
2120	58.6707
2115	58.6692
2110	58.5443
2105	58.5102
2100	58.5963
2095	58.5984
2090	58.5294
2085	58.3973
2080	58.2202
2075	58.1826
2070	58.1713
2065	58.1769
2060	58.2863
2055	58.3199
2050	58.233
2045	58.2532
2040	58.3385
2035	58.2996
2030	58.1696
2025	58.0513
2020	58.0108
2015	58.0611
2010	58.1668
2005	58.1664
2000	58.1195
1995	58.0854
1990	58.0896
1985	58.0187
1980	57.8964
1975	57.8127
1970	57.8403
1965	57.8553
1960	57.8196
1955	57.7984
1950	57.7912
1945	57.7617
1940	57.7432
1935	57.747
1930	57.7387
1925	57.7876
1920	57.7484
1915	57.6208
1910	57.5809
1905	57.6524
1900	57.6863
1895	57.6442
1890	57.5917
1885	57.4806
1880	57.4348
1875	57.4999
1870	57.4881
1865	57.4067
1860	57.3749
1855	57.3058
1850	57.2318
1845	57.2694
1840	57.2205
1835	57.159
1830	57.1865
1825	57.16
1820	57.1282
1815	57.1694
1810	57.1818
1805	57.0936
1800	57.0777
1795	57.0708
1790	56.9779
1785	56.9443
1780	56.9443
1775	56.9297
1770	56.9078
1765	56.8435
1760	56.773
1755	56.6804
1750	56.5976
1745	56.5512
1740	56.4705
1735	56.4315
1730	56.5144
1725	56.5109
1720	56.454
1715	56.4806
1710	56.4581
1705	56.4796
1700	56.6116
1695	56.5825
1690	56.4631
1685	56.42
1680	56.3708
1675	56.3799
1670	56.3581
1665	56.3473
1660	56.3642
1655	56.326
1650	56.2504
1645	56.2311
1640	56.1764
1635	56.0295
1630	55.9082
1625	55.9476
1620	56.0846
1615	56.1732
1610	56.0946
1605	56.0229
1600	56.0287
1595	55.9368
1590	55.8347
1585	55.7986
1580	55.7548
1575	55.6526
1570	55.6119
1565	55.6594
1560	55.6594
1555	55.6023
1550	55.5423
1545	55.5058
1540	55.4508
1535	55.4465
1530	55.4904
1525	55.5202
1520	55.4771
1515	55.4052
1510	55.4664
1505	55.5278
1500	55.4377
1495	55.3626
1490	55.3319
1485	55.2673
1480	55.2365
1475	55.1816
1470	55.1061
1465	55.0241
1460	55.028
1455	55.1031
1450	55.1114
1445	54.9646
1440	54.9191
1435	54.9254
1430	54.8504
1425	54.893
1420	55.0212
1415	55.059
1410	54.8884
1405	54.6907
1400	54.685
1395	54.7324
1390	54.6805
1385	54.6089
1380	54.5538
1375	54.5186
1370	54.4801
1365	54.4452
1360	54.4989
1355	54.5821
1350	54.5072
1345	54.4522
1340	54.503
1335	54.4093
1330	54.3419
1325	54.328
1320	54.2495
1315	54.1908
1310	54.1116
1305	54.1109
1300	54.1431
1295	54.1703
1290	54.1436
1285	54.0525
1280	53.9475
1275	53.9117
1270	53.9455
1265	53.9759
1260	54.0091
1255	53.9924
1250	53.8997
1245	53.8127
1240	53.7611
1235	53.7943
1230	53.7375
1225	53.6619
1220	53.6951
1215	53.6712
1210	53.5938
1205	53.5637
1200	53.5242
1195	53.4932
1190	53.4473
1185	53.4414
1180	53.4325
1175	53.36
1170	53.32
1165	53.3224
1160	53.2749
1155	53.2109
1150	53.2468
1145	53.2331
1140	53.1136
1135	53.1375
1130	53.0832
1125	53.0305
1120	52.9828
1115	52.9208
1110	52.8244
1105	52.807
1100	52.9137
1095	53.0009
1090	53.0458
1085	52.9819
1080	52.8399
1075	52.7994
1070	52.7571
1065	52.7369
1060	52.6613
1055	52.5583
1050	52.5504
1045	52.7399
1040	52.6326
1035	52.4291
1030	52.4211
1025	52.3465
1020	52.1492
1015	52.1289
1010	52.0738
1005	51.9966
1000	52.0405
995	 52.0021
990	 51.9495
985	 51.9203
980	 51.8361
975	 51.9182
970	 52.052
965	 52.0386
960	 51.9485
955	 51.8327
950	 51.659
945	 51.5721
940	 51.6322
935	 51.8079
930	 51.9642
925	 51.84
920	 51.7953
915	 51.9193
910	 51.7614
905	 51.3782
900	 51.1657
895	 51.1333
890	 51.3914
885	 51.7639
880	 51.2393
875	 50.8025
870	 50.7568
865	 50.6955
860	 50.4789
855	 50.4511
850	 50.6053
845	 50.1486
840	 50.2455
835	 50.6354
830	 50.299
825	 50.2281
820	 50.6735
815	 50.9465
810	 50.6567
805	 50.4262
800	 50.4644
795	 50.5022
790	 50.3585
785	 50.0223
780	 50.0447
775	 50.1632
770	 50.259
765	 50.0937
760	 49.8409
755	 49.578
750	 49.5381
745	 49.8496
740	 49.8124
735	 49.6077
730	 49.4832
725	 49.259
720	 49.0911
715	 49.0898
710	 49.2453
705	 49.094
700	 48.9072
695	 48.9059
690	 48.8611
685	 48.7337
680	 48.6778
675	 48.6963
670	 48.8063
665	 48.8901
660	 48.6343
655	 48.2843
650	 48.1385
645	 48.1728
640	 48.0017
635	 47.8549
630	 47.6316
625	 47.4182
620	 47.5569
615	 47.5751
610	 47.2931
605	 47.5015
600	 47.6698
595	 47.2931
590	 46.9836
585	 46.851
580	 46.9895
575	 47.2612
570	 46.863
565	 46.5445
560	 46.6537
555	 46.44
550	 46.1246
545	 45.7089
540	 45.7037
535	 45.8015
530	 45.7347
525	 46.0435
520	 46.2737
515	 45.7209
510	 45.0848
505	 45.0505
500	 45.0425
495	 44.9345
490	 44.5036
485	 44.1398
480	 43.7409
475	 43.6832
470	 43.4895
465	 43.2413
460	 43.6095
455	 43.0665
450	 42.9238
445	 43.8538
440	 43.9998
435	 43.6009
430	 42.4978
425	 41.2895
420	 38.6419
415	 39.3121
410	 40.5051
405	 37.7033
400	 39.4337
395	 52.43
390	 62.7093
385	 67.4724
380	 68.3789
375	 64.7336
370	 85.3717