File: Bakgrunnsmateriale/MATLAB/FTIR/ftir_data/subBb/Mapping_36/C-4040-8_t03.asc
PE IR       SPECTRUM    SPECTRUM    ASCII       PEDS        1.60
  -1
C-A526~1.ASC
17/05/02
11:04:08.00
17/05/02
11:04:34.00
tln
$C-4040-8_t0003$<tbV0>[2.5,-13.0,8.0,0.0,22,1,0]
27.028
64

2002,4.07
MIRTGS : RIGHTBACK : INTERNAL 2
MIR : ON : INTERNAL 2
OPTKBR

0.200000
8
8.000000
FILLER
RATIO
SPECTRUM
UNLOCKED 256

DOUBLE
64
COMBINED
1
0
0

0.002000
RATIO

1
0
TRUE
51149
0
LEFT NOT FITTED RIGHT NOT FITTED 0
NONE
NONE
15600
12
4.427000
51148
TRUE
1 0 8 72 0 0 0 0

15798

#HDR
-1
-1
#GR
µM
%T
2.38419e-05
0.0
1.282000
0.002000
12874
8
70.6359
25.5916
#DATA
1.282000	 70.6359
1.300000	 68.6045
1.318000	 61.7452
1.336000	 63.1057
1.354000	 61.5553
1.372000	 62.0086
1.390000	 64.7068
1.408000	 64.8451
1.426000	 60.6551
1.444000	 62.9642
1.462000	 61.1718
1.480000	 63.3884
1.498000	 62.5697
1.516000	 62.2298
1.534000	 63.9902
1.552000	 64.521
1.570000	 63.378
1.588000	 64.1116
1.606000	 63.6049
1.624000	 63.1639
1.642000	 64.1372
1.660000	 64.1782
1.678000	 63.8884
1.696000	 63.2335
1.714000	 64.3059
1.732000	 62.9869
1.750000	 64.2412
1.768000	 63.8179
1.786000	 64.5316
1.804000	 63.6585
1.822000	 64.4031
1.840000	 63.7265
1.858000	 63.3958
1.876000	 63.1664
1.894000	 62.5757
1.912000	 63.5994
1.930000	 63.5305
1.948000	 63.5508
1.966000	 63.2498
1.984000	 63.8106
2.002000	 63.7955
2.020000	 63.679
2.038000	 64.0035
2.056000	 63.7095
2.074000	 64.0241
2.092000	 63.8639
2.110000	 63.7591
2.128000	 64.2783
2.146000	 63.788
2.164000	 64.151
2.182000	 63.9243
2.200000	 64.0893
2.218000	 63.626
2.236000	 63.7429
2.254000	 64.224
2.272000	 64.5786
2.290000	 64.4786
2.308000	 63.7554
2.326000	 63.5789
2.344000	 63.6994
2.362000	 63.8314
2.380000	 63.4183
2.398000	 63.6904
2.416000	 63.6069
2.434000	 63.433
2.452000	 63.5245
2.470000	 63.3711
2.488000	 63.4378
2.506000	 63.2551
2.524000	 63.3896
2.542000	 63.4172
2.560000	 63.3083
2.578000	 63.1474
2.596000	 63.1634
2.614000	 63.051
2.632000	 63.1286
2.650000	 62.8815
2.668000	 62.9024
2.686000	 62.9492
2.704000	 62.8708
2.722000	 62.8452
2.740000	 62.6134
2.758000	 62.7056
2.776000	 62.4884
2.794000	 62.447
2.812000	 62.4596
2.830000	 62.337
2.848000	 62.2226
2.866000	 62.1486
2.884000	 62.1802
2.902000	 62.0775
2.920000	 62.0945
2.938000	 61.9881
2.956000	 61.8064
2.974000	 61.9189
2.992000	 61.6803
3.010000	 61.4817
3.028000	 61.6174
3.046000	 61.4295
3.064000	 61.434
3.082000	 61.3433
3.100000	 61.0799
3.118000	 61.1744
3.136000	 61.2012
3.154000	 61.3523
3.172000	 61.0845
3.190000	 60.975
3.208000	 61.2266
3.226000	 60.8545
3.244000	 60.9022
3.262000	 60.8692
3.280000	 60.8314
3.298000	 60.7256
3.316000	 60.6434
3.334000	 60.3935
3.352000	 60.437
3.370000	 60.0844
3.388000	 60.19
3.406000	 59.9954
3.424000	 59.7989
3.442000	 59.9709
3.460000	 59.8764
3.478000	 59.8493
3.496000	 59.8637
3.514000	 59.7022
3.532000	 59.7075
3.550000	 59.6202
3.568000	 59.5098
3.586000	 59.6204
3.604000	 59.5606
3.622000	 59.2909
3.640000	 59.2043
3.658000	 59.2181
3.676000	 59.2137
3.694000	 59.0432
3.712000	 58.9961
3.730000	 58.9146
3.748000	 58.8828
3.766000	 58.7715
3.784000	 58.6521
3.802000	 58.4999
3.820000	 58.5536
3.838000	 58.5132
3.856000	 58.3167
3.874000	 58.3602
3.892000	 58.3019
3.910000	 58.3065
3.928000	 57.9965
3.946000	 58.0622
3.964000	 58.0871
3.982000	 58.0797
4.000000	 57.9532
4.018000	 57.7818
4.036000	 57.7205
4.054000	 57.7763
4.072000	 57.6319
4.090000	 57.5784
4.108000	 57.4803
4.125999	 57.4323
4.144000	 57.2694
4.162000	 57.3314
4.180000	 57.236
4.198000	 57.1378
4.216000	 57.1386
4.234000	 57.0817
4.252000	 56.93
4.270000	 56.9792
4.288000	 56.8221
4.306000	 56.8029
4.324000	 56.8238
4.342000	 56.7385
4.359999	 56.5338
4.378000	 56.5055
4.396000	 56.4693
4.414000	 56.4419
4.432000	 56.3655
4.450000	 56.2861
4.468000	 56.2365
4.486000	 56.0923
4.504000	 55.9427
4.522000	 55.9172
4.540000	 55.8148
4.558000	 55.9657
4.576000	 55.8232
4.594000	 55.8741
4.612000	 55.7785
4.630000	 55.6047
4.648000	 55.6602
4.666000	 55.5892
4.684000	 55.4084
4.702000	 55.3708
4.720000	 55.3384
4.738000	 55.3615
4.756000	 55.2974
4.774000	 55.3206
4.792000	 55.1592
4.810000	 55.107
4.828000	 55.2239
4.846000	 54.985
4.864000	 54.8057
4.882000	 54.827
4.900000	 54.8366
4.918000	 54.741
4.936000	 54.6742
4.954000	 54.6658
4.972000	 54.6727
4.990000	 54.6199
5.008000	 54.6449
5.026000	 54.6255
5.044000	 54.3511
5.062000	 54.341
5.080000	 54.3284
5.098000	 54.3528
5.116000	 54.2105
5.134000	 54.1204
5.152000	 54.0662
5.170000	 54.0212
5.188000	 53.9531
5.206000	 53.8962
5.224000	 53.8698
5.242000	 53.9352
5.260000	 53.9128
5.278000	 53.7235
5.296000	 53.7235
5.314000	 53.6717
5.332000	 53.6046
5.350000	 53.6043
5.368000	 53.5664
5.386000	 53.5603
5.404000	 53.4307
5.422000	 53.3347
5.440000	 53.2854
5.458000	 53.3079
5.476000	 53.2571
5.494000	 53.2403
5.512000	 53.1871
5.530000	 53.1194
5.548000	 53.0754
5.566000	 52.9888
5.584000	 53.0164
5.602000	 52.9293
5.620000	 52.8869
5.638000	 52.9258
5.656000	 52.8835
5.674000	 52.807
5.692000	 52.664
5.710000	 52.5526
5.728000	 52.5434
5.746000	 52.4455
5.764000	 52.3788
5.782000	 52.366
5.800000	 52.3424
5.818000	 52.3948
5.836000	 52.4861
5.854000	 52.3634
5.872000	 52.2539
5.890000	 52.1872
5.908000	 52.1707
5.926000	 52.1507
5.944000	 52.0788
5.962000	 52.0498
5.980000	 51.9999
5.998000	 52.013
6.016000	 51.9597
6.034000	 51.8776
6.052000	 51.8168
6.070000	 51.8477
6.088000	 51.8786
6.106000	 51.824
6.124000	 51.7795
6.142000	 51.7172
6.160000	 51.6552
6.178000	 51.5842
6.196000	 51.4988
6.214000	 51.428
6.232000	 51.3794
6.250000	 51.3584
6.268000	 51.3466
6.286000	 51.3174
6.304000	 51.2308
6.322000	 51.1864
6.340000	 51.1973
6.358000	 51.1335
6.376000	 51.089
6.394000	 51.1227
6.412000	 51.1282
6.430000	 51.0942
6.448000	 51.0259
6.466000	 50.9546
6.484000	 50.9608
6.502000	 50.9657
6.520000	 50.9653
6.538000	 50.9169
6.556000	 50.8133
6.574000	 50.7804
6.592000	 50.7579
6.610000	 50.7285
6.628000	 50.7734
6.646000	 50.8005
6.664000	 50.7172
6.682000	 50.5531
6.700000	 50.4863
6.718000	 50.5465
6.736000	 50.5124
6.754000	 50.4519
6.772000	 50.4415
6.790000	 50.3897
6.808000	 50.3356
6.826000	 50.3333
6.844000	 50.3427
6.862000	 50.3254
6.880000	 50.2421
6.898000	 50.1254
6.916000	 50.046
6.934000	 50.0121
6.952000	 50.0153
6.970000	 50.0138
6.988000	 49.9684
7.006000	 49.9334
7.024000	 49.9788
7.042000	 50.0493
7.060000	 50.0412
7.078000	 49.952
7.096000	 49.8488
7.114000	 49.7851
7.132000	 49.7554
7.150000	 49.7465
7.168000	 49.7645
7.186000	 49.7788
7.204000	 49.7524
7.222000	 49.6932
7.240000	 49.6316
7.258000	 49.5884
7.276000	 49.5641
7.294000	 49.5652
7.312000	 49.5764
7.330000	 49.5668
7.348000	 49.5464
7.366000	 49.5333
7.384000	 49.5197
7.402000	 49.5021
7.420000	 49.4914
7.438000	 49.5095
7.456000	 49.5313
7.474000	 49.4873
7.492000	 49.3831
7.510000	 49.2839
7.528000	 49.2061
7.546000	 49.1613
7.564000	 49.1756
7.582000	 49.2127
7.600000	 49.1973
7.618000	 49.1196
7.636000	 49.0501
7.654000	 49.0423
7.672000	 49.0603
7.690000	 49.0504
7.708000	 49.0239
7.726000	 49.0012
7.744000	 48.9622
7.762000	 48.8912
7.780000	 48.8056
7.798000	 48.7332
7.816000	 48.6933
7.834000	 48.6893
7.852000	 48.7084
7.870000	 48.7355
7.888000	 48.7528
7.906000	 48.7328
7.924000	 48.6659
7.942000	 48.5856
7.960000	 48.5326
7.978000	 48.5138
7.996000	 48.5103
8.013999	 48.5085
8.032000	 48.5106
8.050000	 48.5191
8.068000	 48.5222
8.086000	 48.5023
8.103999	 48.4569
8.122000	 48.4071
8.140000	 48.3721
8.158000	 48.3468
8.176000	 48.3187
8.193999	 48.2972
8.212000	 48.3024
8.230000	 48.3352
8.248000	 48.3705
8.266000	 48.377
8.283999	 48.3348
8.302000	 48.2499
8.320000	 48.1565
8.338000	 48.0915
8.356000	 48.0634
8.374000	 48.0486
8.391999	 48.0181
8.410000	 47.9665
8.428000	 47.9148
8.446000	 47.8859
8.464000	 47.8823
8.481999	 47.8901
8.500000	 47.9001
8.518000	 47.9086
8.536000	 47.9063
8.554000	 47.8859
8.571999	 47.8611
8.590000	 47.8519
8.608000	 47.8501
8.626000	 47.8225
8.644000	 47.7585
8.661999	 47.6901
8.680000	 47.653
8.698000	 47.6447
8.716000	 47.6355
8.734000	 47.6076
8.751999	 47.568
8.770000	 47.53
8.788000	 47.4974
8.806000	 47.4642
8.824000	 47.4262
8.842000	 47.3909
8.859999	 47.3725
8.878000	 47.3731
8.896000	 47.373
8.914000	 47.3501
8.932000	 47.3101
8.949999	 47.2841
8.968000	 47.2868
8.986000	 47.2933
9.004000	 47.2677
9.022000	 47.2073
9.039999	 47.1493
9.058000	 47.1271
9.076000	 47.1363
9.094000	 47.1471
9.112000	 47.1401
9.129999	 47.1193
9.148000	 47.0928
9.166000	 47.0545
9.184000	 46.9926
9.202000	 46.9128
9.219999	 46.8424
9.238000	 46.8083
9.256000	 46.8106
9.274000	 46.8241
9.292000	 46.822
9.310000	 46.7993
9.327999	 46.7721
9.346000	 46.7595
9.364000	 46.7677
9.382000	 46.7909
9.400000	 46.8201
9.418000	 46.8489
9.436000	 46.8713
9.454000	 46.8801
9.472000	 46.8711
9.490000	 46.8481
9.508000	 46.8214
9.526000	 46.7995
9.544000	 46.7829
9.561999	 46.7657
9.580000	 46.7457
9.598000	 46.7274
9.616000	 46.7161
9.634000	 46.7096
9.652000	 46.7016
9.670000	 46.6912
9.688000	 46.6869
9.706000	 46.6969
9.724000	 46.7158
9.742000	 46.7236
9.760000	 46.7004
9.778000	 46.6439
9.795999	 46.5715
9.814000	 46.5058
9.832000	 46.456
9.850000	 46.4125
9.868000	 46.3609
9.886000	 46.2973
9.904000	 46.2336
9.922000	 46.1883
9.940000	 46.1736
9.958000	 46.1881
9.976000	 46.2205
9.994000	 46.2583
10.012	46.2924
10.03	46.3175
10.048	46.3293
10.066	46.3223
10.084	46.2912
10.102	46.2321
10.12	46.1481
10.138	46.0524
10.156	45.9663
10.174	45.9084
10.192	45.8839
10.21	45.8796
10.228	45.8724
10.246	45.8453
10.264	45.7971
10.282	45.7422
10.3	45.6974
10.318	45.6711
10.336	45.6603
10.354	45.6578
10.372	45.6597
10.39	45.6663
10.408	45.6775
10.426	45.6875
10.444	45.6852
10.462	45.6604
10.48	45.611
10.498	45.5454
10.516	45.4774
10.534	45.4204
10.552	45.3841
10.57	45.3734
10.588	45.3903
10.606	45.4336
10.624	45.499
10.642	45.5776
10.66	45.658
10.678	45.725
10.696	45.7637
10.714	45.7632
10.732	45.7207
10.75	45.6427
10.768	45.5457
10.786	45.4496
10.804	45.3739
10.822	45.3299
10.84	45.3197
10.858	45.3363
10.876	45.3673
10.894	45.3987
10.912	45.4199
10.93	45.4272
10.948	45.4265
10.966	45.432
10.984	45.4565
11.002	45.5041
11.02	45.5633
11.038	45.6102
11.056	45.62
11.074	45.58
11.092	45.4987
11.11	45.402
11.128	45.3188
11.146	45.264
11.164	45.2326
11.182	45.2063
11.2	45.1658
11.218	45.106
11.236	45.039
11.254	44.9855
11.272	44.9646
11.29	44.9829
11.308	45.0318
11.326	45.0908
11.344	45.1384
11.362	45.158
11.38	45.1415
11.398	45.0886
11.416	45.0045
11.434	44.8983
11.452	44.7807
11.47	44.6621
11.488	44.5498
11.506	44.4481
11.524	44.3581
11.542	44.2794
11.56	44.2126
11.578	44.1591
11.596	44.1216
11.614	44.102
11.632	44.1013
11.65	44.1194
11.668	44.155
11.686	44.2049
11.704	44.2637
11.722	44.3218
11.74	44.3645
11.758	44.3749
11.776	44.339
11.794	44.2534
11.812	44.1292
11.83	43.9917
11.848	43.8738
11.866	43.8044
11.884	43.7992
11.902	43.8558
11.92	43.9542
11.938	44.0662
11.956	44.163
11.974	44.224
11.992	44.2424
12.01	44.2226
12.028	44.1776
12.046	44.1226
12.064	44.0717
12.082	44.0348
12.1	44.0176
12.118	44.0207
12.136	44.0399
12.154	44.0671
12.172	44.0936
12.19	44.1117
12.208	44.117
12.226	44.1086
12.244	44.0894
12.262	44.0641
12.28	44.0377
12.298	44.0132
12.316	43.9922
12.334	43.9744
12.352	43.9588
12.37	43.9443
12.388	43.9306
12.406	43.9183
12.424	43.9073
12.442	43.8962
12.46	43.8818
12.478	43.8598
12.496	43.8259
12.514	43.7766
12.532	43.7107
12.55	43.6302
12.568	43.5403
12.586	43.4491
12.604	43.3664
12.622	43.3011
12.64	43.2596
12.658	43.2445
12.676	43.2535
12.694	43.2813
12.712	43.3208
12.73	43.365
12.748	43.4084
12.766	43.4471
12.784	43.4786
12.802	43.5012
12.82	43.5134
12.838	43.5133
12.856	43.4995
12.874	43.4716
12.892	43.4313
12.91	43.383
12.928	43.3331
12.946	43.289
12.964	43.257
12.982	43.2411
13	43.2418
13.018	43.2565
13.036	43.28
13.054	43.306
13.072	43.3284
13.09	43.3415
13.108	43.341
13.126	43.3242
13.144	43.2908
13.162	43.2423
13.18	43.1826
13.198	43.1178
13.216	43.0546
13.234	43
13.252	42.959
13.27	42.9345
13.288	42.9258
13.306	42.9297
13.324	42.9406
13.342	42.9522
13.36	42.9594
13.378	42.9592
13.396	42.9509
13.414	42.9365
13.432	42.9186
13.45	42.9001
13.468	42.8825
13.486	42.8665
13.504	42.8511
13.522	42.8351
13.54	42.8174
13.558	42.7971
13.576	42.7746
13.594	42.7502
13.612	42.7247
13.63	42.6986
13.648	42.6723
13.666	42.6462
13.684	42.6207
13.702	42.5962
13.72	42.5738
13.738	42.5546
13.756	42.5402
13.774	42.5317
13.792	42.5294
13.81	42.5329
13.828	42.5404
13.846	42.5497
13.864	42.5582
13.882	42.5635
13.9	42.564
13.918	42.5586
13.936	42.5473
13.954	42.5302
13.972	42.5075
13.99	42.4794
14.008	42.4453
14.026	42.4047
14.044	42.3569
14.062	42.3016
14.08	42.2395
14.098	42.1721
14.116	42.1021
14.134	42.0329
14.152	41.9685
14.17	41.9127
14.188	41.8687
14.206	41.8384
14.224	41.8221
14.242	41.8179
14.26	41.8227
14.278	41.832
14.296	41.841
14.314	41.8454
14.332	41.8415
14.35	41.8274
14.368	41.8023
14.386	41.7671
14.404	41.7245
14.422	41.6774
14.44	41.6291
14.458	41.5826
14.476	41.5401
14.494	41.5033
14.512	41.4728
14.53	41.4483
14.548	41.4289
14.566	41.4133
14.584	41.4004
14.602	41.3892
14.62	41.379
14.638	41.3695
14.656	41.3607
14.674	41.3531
14.692	41.3471
14.71	41.3431
14.728	41.3418
14.746	41.3431
14.764	41.3473
14.782	41.3537
14.8	41.3613
14.818	41.3689
14.836	41.3745
14.854	41.3763
14.872	41.3726
14.89	41.3621
14.908	41.3443
14.926	41.3189
14.944	41.2867
14.962	41.249
14.98	41.2073
14.998	41.1628
15.016	41.1168
15.034	41.0704
15.052	41.0247
15.07	40.9798
15.088	40.9365
15.106	40.895
15.124	40.8561
15.142	40.8207
15.16	40.79
15.178	40.7648
15.196	40.7462
15.214	40.7348
15.232	40.7306
15.25	40.7328
15.268	40.7403
15.286	40.751
15.304	40.7625
15.322	40.7728
15.34	40.7804
15.358	40.7839
15.376	40.7829
15.394	40.7778
15.412	40.7693
15.43	40.7585
15.448	40.7471
15.466	40.736
15.484	40.7262
15.502	40.7185
15.52	40.7137
15.538	40.7122
15.556	40.7146
15.574	40.7212
15.592	40.7326
15.61	40.7488
15.628	40.7695
15.646	40.7943
15.664	40.8221
15.682	40.8512
15.7	40.8798
15.718	40.9053
15.736	40.925
15.754	40.9367
15.772	40.9388
15.79	40.9298
15.808	40.9097
15.826	40.8789
15.844	40.8388
15.862	40.7916
15.88	40.7398
15.898	40.6854
15.916	40.6311
15.934	40.5786
15.952	40.5289
15.97	40.4826
15.988	40.4398
16.006	40.3999
16.024	40.3622
16.042	40.3261
16.06	40.2909
16.078	40.2566
16.096	40.2231
16.114	40.191
16.132	40.161
16.15	40.1335
16.168	40.1097
16.186	40.09
16.204	40.0747
16.222	40.0646
16.24	40.0591
16.258	40.0582
16.276	40.0613
16.294	40.0683
16.312	40.0787
16.33	40.0923
16.348	40.1087
16.366	40.1275
16.384	40.1482
16.402	40.1699
16.42	40.1918
16.438	40.2123
16.456	40.2297
16.474	40.2425
16.492	40.2488
16.51	40.2469
16.528	40.2361
16.546	40.2153
16.564	40.1853
16.582	40.1466
16.6	40.101
16.618	40.0511
16.636	39.9986
16.654	39.9472
16.672	39.8991
16.69	39.8561
16.708	39.8206
16.726	39.7929
16.744	39.7734
16.762	39.7613
16.78	39.7556
16.798	39.7547
16.816	39.7559
16.834	39.7579
16.852	39.7579
16.87	39.7544
16.888	39.7463
16.906	39.7325
16.924	39.7129
16.942	39.6874
16.96	39.6567
16.978	39.6212
16.996	39.5817
17.014	39.5393
17.032	39.4944
17.05	39.4479
17.068	39.4003
17.086	39.3519
17.104	39.3036
17.122	39.2555
17.14	39.2087
17.158	39.1642
17.176	39.1226
17.194	39.0859
17.212	39.0546
17.23	39.0303
17.248	39.0138
17.266	39.0057
17.284	39.0064
17.302	39.0149
17.32	39.0307
17.338	39.0513
17.356	39.0755
17.374	39.0994
17.392	39.1215
17.41	39.1387
17.428	39.1483
17.446	39.1491
17.464	39.139
17.482	39.1184
17.5	39.087
17.518	39.0469
17.536	38.9987
17.554	38.9465
17.572	38.8916
17.59	38.8383
17.608	38.7886
17.626	38.7451
17.644	38.7102
17.662	38.6845
17.68	38.6694
17.698	38.6642
17.716	38.6683
17.734	38.6798
17.752	38.6977
17.77	38.7184
17.788	38.7412
17.806	38.7625
17.824	38.7815
17.842	38.7958
17.86	38.8048
17.878	38.8076
17.896	38.8042
17.914	38.7946
17.932	38.78
17.95	38.7608
17.968	38.7385
17.986	38.714
18.004	38.6883
18.022	38.6625
18.04	38.6372
18.058	38.6129
18.076	38.5899
18.094	38.568
18.112	38.5472
18.13	38.5267
18.148	38.5062
18.166	38.4848
18.184	38.4621
18.202	38.4373
18.22	38.4099
18.238	38.3798
18.256	38.3467
18.274	38.3106
18.292	38.2718
18.31	38.2302
18.328	38.1867
18.346	38.1413
18.364	38.0948
18.382	38.0477
18.4	38.0006
18.418	37.9538
18.436	37.9079
18.454	37.8632
18.472	37.8202
18.49	37.7793
18.508	37.7406
18.526	37.7048
18.544	37.6721
18.562	37.643
18.58	37.6174
18.598	37.5962
18.616	37.5793
18.634	37.5673
18.652	37.5602
18.67	37.5586
18.688	37.5622
18.706	37.5713
18.724	37.5855
18.742	37.6046
18.76	37.628
18.778	37.6551
18.796	37.6851
18.814	37.717
18.832	37.7499
18.85	37.7827
18.868	37.8141
18.886	37.8429
18.904	37.8683
18.922	37.889
18.94	37.9043
18.958	37.9133
18.976	37.9156
18.994	37.9105
19.012	37.8982
19.03	37.8782
19.048	37.8509
19.066	37.8164
19.084	37.7753
19.102	37.7281
19.12	37.6757
19.138	37.6188
19.156	37.5584
19.174	37.4956
19.192	37.4314
19.21	37.3672
19.228	37.3036
19.246	37.2424
19.264	37.1839
19.282	37.1296
19.3	37.0797
19.318	37.0356
19.336	36.9972
19.354	36.965
19.372	36.9389
19.39	36.9186
19.408	36.9042
19.426	36.894
19.444	36.8882
19.462	36.8844
19.48	36.8828
19.498	36.8807
19.516	36.8781
19.534	36.8725
19.552	36.8634
19.57	36.8496
19.588	36.8301
19.606	36.8048
19.624	36.773
19.642	36.7352
19.66	36.6919
19.678	36.6433
19.696	36.5914
19.714	36.5361
19.732	36.4802
19.75	36.4236
19.768	36.3693
19.786	36.3173
19.804	36.2698
19.822	36.2274
19.84	36.1908
19.858	36.1609
19.876	36.1375
19.894	36.1209
19.912	36.1109
19.93	36.1065
19.948	36.1079
19.966	36.1131
19.984	36.1223
20.002	36.1335
20.02	36.1464
20.038	36.1597
20.056	36.1721
20.074	36.1834
20.092	36.1921
20.11	36.1984
20.128	36.201
20.146	36.2001
20.164	36.1953
20.182	36.1864
20.2	36.1734
20.218	36.1562
20.236	36.1348
20.254	36.1092
20.272	36.0796
20.29	36.0461
20.308	36.0088
20.326	35.9682
20.344	35.9242
20.362	35.8773
20.38	35.8281
20.398	35.7765
20.416	35.7235
20.434	35.669
20.452	35.614
20.47	35.5588
20.488	35.504
20.506	35.4504
20.524	35.3979
20.542	35.3477
20.56	35.2995
20.578	35.2541
20.596	35.2116
20.614	35.172
20.632	35.1354
20.65	35.1017
20.668	35.0706
20.686	35.0423
20.704	35.0162
20.722	34.9921
20.74	34.9699
20.758	34.9491
20.776	34.9298
20.794	34.9116
20.812	34.8946
20.83	34.8787
20.848	34.864
20.866	34.8504
20.884	34.838
20.902	34.8268
20.92	34.8168
20.938	34.8083
20.956	34.801
20.974	34.7949
20.992	34.79
21.01	34.786
21.028	34.7828
21.046	34.7801
21.064	34.7774
21.082	34.7748
21.1	34.7715
21.118	34.7676
21.136	34.7627
21.154	34.7565
21.172	34.7491
21.19	34.7407
21.208	34.7312
21.226	34.7211
21.244	34.7112
21.262	34.7012
21.28	34.693
21.298	34.6864
21.316	34.6823
21.334	34.6822
21.352	34.6856
21.37	34.6942
21.388	34.7083
21.406	34.7278
21.424	34.7533
21.442	34.7846
21.46	34.8208
21.478	34.8622
21.496	34.9077
21.514	34.9545
21.532	35.004
21.55	35.0524
21.568	35.0983
21.586	35.1417
21.604	35.1777
21.622	35.2075
21.64	35.2282
21.658	35.2369
21.676	35.2348
21.694	35.2193
21.712	35.1898
21.73	35.1469
21.748	35.0903
21.766	35.0195
21.784	34.9374
21.802	34.8444
21.82	34.7409
21.838	34.6322
21.856	34.5169
21.874	34.3986
21.892	34.2825
21.91	34.1663
21.928	34.056
21.946	33.9539
21.964	33.8593
21.982	33.7776
22	33.7084
22.018	33.6526
22.036	33.6128
22.054	33.5884
22.072	33.5789
22.09	33.5848
22.108	33.6058
22.126	33.6388
22.144	33.6848
22.162	33.7417
22.18	33.8049
22.198	33.8765
22.216	33.9522
22.234	34.0282
22.252	34.1064
22.27	34.1815
22.288	34.2516
22.306	34.3177
22.324	34.3752
22.342	34.4243
22.36	34.4644
22.378	34.4933
22.396	34.5113
22.414	34.5183
22.432	34.5136
22.45	34.4973
22.468	34.4707
22.486	34.4341
22.504	34.3873
22.522	34.333
22.54	34.2712
22.558	34.2022
22.576	34.1295
22.594	34.0524
22.612	33.972
22.63	33.8911
22.648	33.8089
22.666	33.7266
22.684	33.6466
22.702	33.5679
22.72	33.4915
22.738	33.4184
22.756	33.3482
22.774	33.2812
22.792	33.2176
22.81	33.1574
22.828	33.0997
22.846	33.0444
22.864	32.9915
22.882	32.9398
22.9	32.889
22.918	32.8392
22.936	32.7887
22.954	32.7376
22.972	32.6858
22.99	32.6318
23.008	32.5757
23.026	32.5174
23.044	32.4565
23.062	32.3927
23.08	32.3263
23.098	32.2575
23.116	32.1857
23.134	32.1118
23.152	32.0369
23.17	31.9603
23.188	31.8831
23.206	31.807
23.224	31.7311
23.242	31.6565
23.26	31.5855
23.278	31.5171
23.296	31.4524
23.314	31.3936
23.332	31.34
23.35	31.2921
23.368	31.2513
23.386	31.2174
23.404	31.1903
23.422	31.1698
23.44	31.1565
23.458	31.1497
23.476	31.1477
23.494	31.1514
23.512	31.16
23.53	31.1707
23.548	31.1842
23.566	31.2001
23.584	31.2149
23.602	31.2285
23.62	31.2413
23.638	31.2502
23.656	31.2543
23.674	31.2546
23.692	31.2484
23.71	31.2346
23.728	31.2142
23.746	31.1856
23.764	31.1476
23.782	31.1008
23.8	31.0454
23.818	30.9815
23.836	30.9085
23.854	30.8281
23.872	30.742
23.89	30.6489
23.908	30.5506
23.926	30.4503
23.944	30.347
23.962	30.2415
23.98	30.1376
23.998	30.0353
24.016	29.9341
24.034	29.8372
24.052	29.7459
24.07	29.659
24.088	29.578
24.106	29.5044
24.124	29.4375
24.142	29.3772
24.16	29.3234
24.178	29.2768
24.196	29.2362
24.214	29.2
24.232	29.1689
24.25	29.1424
24.268	29.1179
24.286	29.0943
24.304	29.073
24.322	29.0514
24.34	29.0278
24.358	29.0037
24.376	28.9775
24.394	28.9474
24.412	28.9134
24.43	28.8761
24.448	28.8351
24.466	28.7895
24.484	28.7397
24.502	28.6882
24.52	28.6366
24.538	28.5828
24.556	28.5298
24.574	28.4813
24.592	28.4354
24.61	28.3932
24.628	28.3579
24.646	28.3307
24.664	28.3101
24.682	28.2976
24.7	28.2943
24.718	28.2997
24.736	28.3137
24.754	28.3366
24.772	28.3698
24.79	28.4117
24.808	28.4594
24.826	28.5119
24.844	28.5723
24.862	28.6336
24.88	28.6893
24.898	28.7436
24.916	28.7937
24.934	28.8318
24.952	28.8554
24.97	28.8685
24.988	28.8653
25.006	28.8404
25.024	28.796
25.042	28.7322
25.06	28.647
25.078	28.5392
25.096	28.4099
25.114	28.2604
25.132	28.0915
25.15	27.8987
25.168	27.6884
25.186	27.4698
25.204	27.2421
25.222	27.0008
25.24	26.7623
25.258	26.5412
25.276	26.3266
25.294	26.1251
25.312	25.9523
25.33	25.8146
25.348	25.7029
25.366	25.626
25.384	25.593
25.402	25.6015
25.42	25.6502
25.438	25.7425
25.456	25.8817
25.474	26.0673
25.492	26.295
25.51	26.5606
25.528	26.8673
25.546	27.2146
25.564	27.5919
25.582	27.9903
25.6	28.4198
25.618	28.8721
25.636	29.3332
25.654	29.7988
25.672	30.28
25.69	30.7594
25.708	31.2187
25.726	31.6639
25.744	32.0971
25.762	32.5012
25.78	32.8614
25.798	33.1878
25.816	33.4775
25.834	33.7215
25.852	33.9137
25.87	34.0587
25.888	34.1584
25.906	34.2147
25.924	34.2237
25.942	34.1863
25.96	34.1129
25.978	34.0126
25.996	33.875
26.014	33.7064
26.032	33.5242
26.05	33.3407
26.068	33.1401
26.086	32.9346
26.104	32.7432
26.122	32.5735
26.14	32.4106
26.158	32.2701
26.176	32.1698
26.194	32.1129
26.212	32.0897
26.23	32.109
26.248	32.1798
26.266	32.3007
26.284	32.4687
26.302	32.6873
26.32	32.9593
26.338	33.2837
26.356	33.6595
26.374	34.0874
26.392	34.568
26.41	35.1028
26.428	35.6888
26.446	36.3224
26.464	37.001
26.482	37.7282
26.5	38.5006
26.518	39.3136
26.536	40.165
26.554	41.06
26.572	41.9925
26.59	42.9551
26.608	43.9477
26.626	44.9802
26.644	46.0354
26.662	47.0947
26.68	48.1509
26.698	49.2174
26.716	50.2842
26.734	51.3402
26.752	52.3834
26.77	53.4226
26.788	54.4469
26.806	55.4448
26.824	56.4065
26.842	57.3368
26.86	58.2483
26.878	59.1534
26.896	60.0469
26.914	60.9155
26.932	61.7914
26.95	62.7081
26.968	63.7539
26.986	64.9561
27.004	66.1026
27.022	66.9756
27.028	67.1411