File: Bakgrunnsmateriale/MATLAB/FTIR/ftir_data/subBb/Mapping_36/C-4040-8_t08.asc
PE IR       SPECTRUM    SPECTRUM    ASCII       PEDS        1.60
  -1
C-C52A~1.ASC
17/05/02
11:28:10.00
17/05/02
11:28:37.00
tln
$C-4040-8_t0008$<tbV0>[7.5,-8.0,8.0,0.0,22,1,0]
27.028
64

2002,4.07
MIRTGS : RIGHTBACK : INTERNAL 2
MIR : ON : INTERNAL 2
OPTKBR

0.200000
8
8.000000
FILLER
RATIO
SPECTRUM
UNLOCKED 256

DOUBLE
64
COMBINED
1
0
0

0.002000
RATIO

1
0
TRUE
51149
0
LEFT NOT FITTED RIGHT NOT FITTED 0
NONE
NONE
15600
12
4.427000
51148
TRUE
1 0 8 72 0 0 0 0

15798

#HDR
-1
-1
#GR
µM
%T
2.38419e-05
0.0
1.282000
0.002000
12874
8
81.174
9.971926
#DATA
1.282000	 61.8007
1.300000	 58.4644
1.318000	 58.5948
1.336000	 60.2638
1.354000	 64.5609
1.372000	 64.4773
1.390000	 63.0469
1.408000	 62.1575
1.426000	 62.5074
1.444000	 63.6084
1.462000	 62.1129
1.480000	 64.5622
1.498000	 62.8372
1.516000	 62.6337
1.534000	 64.0182
1.552000	 64.7052
1.570000	 63.3205
1.588000	 63.4552
1.606000	 63.9979
1.624000	 64.3358
1.642000	 63.264
1.660000	 63.6011
1.678000	 63.3251
1.696000	 62.7073
1.714000	 63.8548
1.732000	 63.5002
1.750000	 63.6098
1.768000	 63.795
1.786000	 63.5148
1.804000	 63.9129
1.822000	 63.4214
1.840000	 62.8494
1.858000	 62.111
1.876000	 62.6635
1.894000	 65.0946
1.912000	 63.2739
1.930000	 63.3395
1.948000	 62.7329
1.966000	 62.9941
1.984000	 63.2662
2.002000	 62.693
2.020000	 62.9033
2.038000	 62.8421
2.056000	 62.6781
2.074000	 62.9188
2.092000	 62.57
2.110000	 63.0874
2.128000	 63.1751
2.146000	 62.605
2.164000	 62.4126
2.182000	 62.4631
2.200000	 61.8245
2.218000	 61.6469
2.236000	 61.2001
2.254000	 61.1805
2.272000	 70.1016
2.290000	 62.099
2.308000	 61.1641
2.326000	 61.1196
2.344000	 61.3907
2.362000	 61.2353
2.380000	 61.3056
2.398000	 61.6458
2.416000	 61.6198
2.434000	 61.601
2.452000	 61.6895
2.470000	 61.4644
2.488000	 61.1773
2.506000	 61.1204
2.524000	 60.8949
2.542000	 60.6028
2.560000	 60.6598
2.578000	 60.7578
2.596000	 60.2392
2.614000	 60.2384
2.632000	 60.2413
2.650000	 59.9219
2.668000	 60.1743
2.686000	 59.7974
2.704000	 59.683
2.722000	 59.5677
2.740000	 59.4791
2.758000	 59.1649
2.776000	 59.155
2.794000	 58.8748
2.812000	 58.7693
2.830000	 58.6979
2.848000	 58.4812
2.866000	 58.2702
2.884000	 58.0652
2.902000	 58.0144
2.920000	 57.9764
2.938000	 57.762
2.956000	 57.4977
2.974000	 57.4494
2.992000	 57.3739
3.010000	 56.8649
3.028000	 56.9204
3.046000	 56.8666
3.064000	 56.5522
3.082000	 56.5665
3.100000	 56.1266
3.118000	 56.268
3.136000	 56.1305
3.154000	 56.038
3.172000	 55.8699
3.190000	 55.4581
3.208000	 55.5556
3.226000	 55.314
3.244000	 55.2012
3.262000	 54.9445
3.280000	 54.7391
3.298000	 54.5994
3.316000	 54.3787
3.334000	 54.2722
3.352000	 54.1261
3.370000	 53.7244
3.388000	 53.6267
3.406000	 53.5698
3.424000	 53.2758
3.442000	 53.2912
3.460000	 53.0787
3.478000	 52.9459
3.496000	 52.824
3.514000	 52.5693
3.532000	 52.3991
3.550000	 52.4614
3.568000	 52.2262
3.586000	 52.1621
3.604000	 52.0289
3.622000	 51.8093
3.640000	 51.6219
3.658000	 51.4861
3.676000	 51.3565
3.694000	 51.0979
3.712000	 51.001
3.730000	 50.8819
3.748000	 50.8173
3.766000	 50.4807
3.784000	 50.2728
3.802000	 50.3008
3.820000	 50.0689
3.838000	 50.0112
3.856000	 49.6955
3.874000	 49.7487
3.892000	 49.5023
3.910000	 49.3327
3.928000	 49.0245
3.946000	 48.9237
3.964000	 48.8738
3.982000	 48.6954
4.000000	 48.5677
4.018000	 48.4506
4.036000	 48.3498
4.054000	 48.1731
4.072000	 48.0581
4.090000	 47.9224
4.108000	 47.7027
4.125999	 47.6705
4.144000	 47.5276
4.162000	 47.3994
4.180000	 47.2987
4.198000	 47.1171
4.216000	 46.9118
4.234000	 46.7657
4.252000	 46.6382
4.270000	 46.6189
4.288000	 46.4221
4.306000	 46.3259
4.324000	 46.2469
4.342000	 46.0296
4.359999	 45.9368
4.378000	 45.8027
4.396000	 45.6404
4.414000	 45.5674
4.432000	 45.4609
4.450000	 45.3229
4.468000	 45.2731
4.486000	 45.1225
4.504000	 44.8842
4.522000	 44.7693
4.540000	 44.5489
4.558000	 44.5865
4.576000	 44.4048
4.594000	 44.2798
4.612000	 44.1151
4.630000	 44.1654
4.648000	 43.8926
4.666000	 43.776
4.684000	 43.6426
4.702000	 43.5251
4.720000	 43.4902
4.738000	 43.4052
4.756000	 43.3044
4.774000	 43.1678
4.792000	 43.0057
4.810000	 42.8806
4.828000	 42.8693
4.846000	 42.7273
4.864000	 42.5708
4.882000	 42.5862
4.900000	 42.4412
4.918000	 42.2891
4.936000	 42.2107
4.954000	 42.1391
4.972000	 42.0157
4.990000	 41.9578
5.008000	 41.9341
5.026000	 41.7968
5.044000	 41.6122
5.062000	 41.5975
5.080000	 41.4515
5.098000	 41.3902
5.116000	 41.3046
5.134000	 41.2361
5.152000	 41.034
5.170000	 40.9502
5.188000	 40.9301
5.206000	 40.8984
5.224000	 40.6389
5.242000	 40.4891
5.260000	 40.482
5.278000	 40.3334
5.296000	 40.2434
5.314000	 40.1917
5.332000	 40.0747
5.350000	 40.0031
5.368000	 39.8189
5.386000	 39.7607
5.404000	 39.7448
5.422000	 39.6769
5.440000	 39.6128
5.458000	 39.5823
5.476000	 39.4574
5.494000	 39.4054
5.512000	 39.3243
5.530000	 39.1995
5.548000	 39.0993
5.566000	 39.0124
5.584000	 38.9068
5.602000	 38.8295
5.620000	 38.8681
5.638000	 38.7639
5.656000	 38.6158
5.674000	 38.4513
5.692000	 38.3369
5.710000	 38.2604
5.728000	 38.2382
5.746000	 38.1441
5.764000	 37.9463
5.782000	 37.853
5.800000	 37.8052
5.818000	 37.7749
5.836000	 37.7529
5.854000	 37.7383
5.872000	 37.7271
5.890000	 37.6389
5.908000	 37.4832
5.926000	 37.4466
5.944000	 37.4437
5.962000	 37.3657
5.980000	 37.3104
5.998000	 37.1819
6.016000	 37.0715
6.034000	 37.0419
6.052000	 36.9775
6.070000	 36.9328
6.088000	 36.9334
6.106000	 36.8228
6.124000	 36.7117
6.142000	 36.6843
6.160000	 36.5911
6.178000	 36.4831
6.196000	 36.3857
6.214000	 36.2702
6.232000	 36.2067
6.250000	 36.1836
6.268000	 36.1325
6.286000	 36.0209
6.304000	 35.9627
6.322000	 35.9318
6.340000	 35.8349
6.358000	 35.7558
6.376000	 35.6997
6.394000	 35.6241
6.412000	 35.5922
6.430000	 35.5325
6.448000	 35.4727
6.466000	 35.4745
6.484000	 35.3975
6.502000	 35.2422
6.520000	 35.1488
6.538000	 35.1174
6.556000	 35.1277
6.574000	 35.1496
6.592000	 35.1033
6.610000	 35.0093
6.628000	 34.9499
6.646000	 34.9218
6.664000	 34.893
6.682000	 34.8403
6.700000	 34.7819
6.718000	 34.7253
6.736000	 34.621
6.754000	 34.5124
6.772000	 34.4515
6.790000	 34.4049
6.808000	 34.3473
6.826000	 34.3445
6.844000	 34.3552
6.862000	 34.25
6.880000	 34.1161
6.898000	 34.1025
6.916000	 34.1417
6.934000	 34.1204
6.952000	 34.0564
6.970000	 33.9809
6.988000	 33.8881
7.006000	 33.8271
7.024000	 33.833
7.042000	 33.8399
7.060000	 33.7855
7.078000	 33.6829
7.096000	 33.5454
7.114000	 33.3932
7.132000	 33.3301
7.150000	 33.3979
7.168000	 33.4714
7.186000	 33.4524
7.204000	 33.3881
7.222000	 33.3444
7.240000	 33.2899
7.258000	 33.1787
7.276000	 33.0779
7.294000	 33.0523
7.312000	 33.042
7.330000	 32.993
7.348000	 32.9389
7.366000	 32.8946
7.384000	 32.8325
7.402000	 32.767
7.420000	 32.7457
7.438000	 32.7576
7.456000	 32.7417
7.474000	 32.6828
7.492000	 32.6307
7.510000	 32.6222
7.528000	 32.6301
7.546000	 32.6043
7.564000	 32.5275
7.582000	 32.4154
7.600000	 32.2978
7.618000	 32.2094
7.636000	 32.1792
7.654000	 32.2069
7.672000	 32.2325
7.690000	 32.1773
7.708000	 32.0469
7.726000	 31.9329
7.744000	 31.8927
7.762000	 31.8943
7.780000	 31.8858
7.798000	 31.8506
7.816000	 31.7964
7.834000	 31.7428
7.852000	 31.708
7.870000	 31.6779
7.888000	 31.6187
7.906000	 31.5397
7.924000	 31.4911
7.942000	 31.4901
7.960000	 31.4966
7.978000	 31.4677
7.996000	 31.4059
8.013999	 31.3418
8.032000	 31.2924
8.050000	 31.2555
8.068000	 31.2379
8.086000	 31.2462
8.103999	 31.2507
8.122000	 31.2142
8.140000	 31.1413
8.158000	 31.0534
8.176000	 30.965
8.193999	 30.8962
8.212000	 30.8665
8.230000	 30.8678
8.248000	 30.8815
8.266000	 30.9098
8.283999	 30.948
8.302000	 30.955
8.320000	 30.8914
8.338000	 30.7697
8.356000	 30.6455
8.374000	 30.5657
8.391999	 30.5339
8.410000	 30.5198
8.428000	 30.4934
8.446000	 30.4507
8.464000	 30.4088
8.481999	 30.3811
8.500000	 30.3657
8.518000	 30.358
8.536000	 30.361
8.554000	 30.3728
8.571999	 30.3703
8.590000	 30.3247
8.608000	 30.233
8.626000	 30.1295
8.644000	 30.0606
8.661999	 30.051
8.680000	 30.0881
8.698000	 30.1288
8.716000	 30.1259
8.734000	 30.0627
8.751999	 29.9668
8.770000	 29.8851
8.788000	 29.8433
8.806000	 29.8281
8.824000	 29.8102
8.842000	 29.7778
8.859999	 29.7398
8.878000	 29.7046
8.896000	 29.6684
8.914000	 29.6275
8.932000	 29.5886
8.949999	 29.5564
8.968000	 29.5178
8.986000	 29.4555
9.004000	 29.3753
9.022000	 29.3066
9.039999	 29.2705
9.058000	 29.2562
9.076000	 29.2377
9.094000	 29.2066
9.112000	 29.1808
9.129999	 29.1808
9.148000	 29.204
9.166000	 29.2265
9.184000	 29.2238
9.202000	 29.1905
9.219999	 29.1429
9.238000	 29.105
9.256000	 29.0907
9.274000	 29.0918
9.292000	 29.0835
9.310000	 29.0443
9.327999	 28.9735
9.346000	 28.894
9.364000	 28.8346
9.382000	 28.8121
9.400000	 28.8235
9.418000	 28.852
9.436000	 28.877
9.454000	 28.8824
9.472000	 28.861
9.490000	 28.819
9.508000	 28.7719
9.526000	 28.7344
9.544000	 28.7094
9.561999	 28.6852
9.580000	 28.6469
9.598000	 28.5896
9.616000	 28.5214
9.634000	 28.4556
9.652000	 28.4015
9.670000	 28.362
9.688000	 28.338
9.706000	 28.3303
9.724000	 28.3413
9.742000	 28.3671
9.760000	 28.3919
9.778000	 28.3896
9.795999	 28.3373
9.814000	 28.2325
9.832000	 28.1006
9.850000	 27.9835
9.868000	 27.9158
9.886000	 27.9062
9.904000	 27.9362
9.922000	 27.975
9.940000	 27.9976
9.958000	 27.9949
9.976000	 27.9725
9.994000	 27.9422
10.012	27.9131
10.03	27.8877
10.048	27.8611
10.066	27.8254
10.084	27.7762
10.102	27.7175
10.12	27.6621
10.138	27.6266
10.156	27.6215
10.174	27.6448
10.192	27.6818
10.21	27.7124
10.228	27.7197
10.246	27.6958
10.264	27.6425
10.282	27.5681
10.3	27.4848
10.318	27.4074
10.336	27.3492
10.354	27.316
10.372	27.3022
10.39	27.2919
10.408	27.2671
10.426	27.2196
10.444	27.159
10.462	27.1104
10.48	27.1012
10.498	27.1422
10.516	27.2164
10.534	27.2862
10.552	27.3128
10.57	27.2793
10.588	27.1976
10.606	27.0998
10.624	27.0166
10.642	26.9621
10.66	26.9299
10.678	26.9002
10.696	26.8554
10.714	26.7868
10.732	26.6944
10.75	26.5853
10.768	26.4743
10.786	26.3816
10.804	26.3291
10.822	26.3282
10.84	26.3732
10.858	26.4378
10.876	26.485
10.894	26.4838
10.912	26.4238
10.93	26.3201
10.948	26.2078
10.966	26.13
10.984	26.1173
11.002	26.1792
11.02	26.3023
11.038	26.4534
11.056	26.5934
11.074	26.6882
11.092	26.7204
11.11	26.6954
11.128	26.6362
11.146	26.5724
11.164	26.5307
11.182	26.5211
11.2	26.533
11.218	26.5403
11.236	26.5086
11.254	26.4105
11.272	26.2397
11.29	26.0177
11.308	25.7833
11.326	25.5833
11.344	25.4493
11.362	25.3898
11.38	25.3901
11.398	25.424
11.416	25.4659
11.434	25.5042
11.452	25.5401
11.47	25.5812
11.488	25.6316
11.506	25.6864
11.524	25.7337
11.542	25.7601
11.56	25.7566
11.578	25.7191
11.596	25.646
11.614	25.5376
11.632	25.3967
11.65	25.2318
11.668	25.0604
11.686	24.9056
11.704	24.7905
11.722	24.7314
11.74	24.7286
11.758	24.7685
11.776	24.8287
11.794	24.8875
11.812	24.934
11.83	24.9688
11.848	25.0019
11.866	25.0429
11.884	25.0944
11.902	25.1493
11.92	25.1931
11.938	25.2109
11.956	25.1938
11.974	25.1425
11.992	25.0676
12.01	24.9837
12.028	24.906
12.046	24.8452
12.064	24.8052
12.082	24.7849
12.1	24.7814
12.118	24.7917
12.136	24.8137
12.154	24.8462
12.172	24.8874
12.19	24.9333
12.208	24.9776
12.226	25.0126
12.244	25.0313
12.262	25.0279
12.28	24.9997
12.298	24.9481
12.316	24.8777
12.334	24.7952
12.352	24.7096
12.37	24.6303
12.388	24.5654
12.406	24.5211
12.424	24.5003
12.442	24.5021
12.46	24.5217
12.478	24.5516
12.496	24.5835
12.514	24.6094
12.532	24.6234
12.55	24.623
12.568	24.6087
12.586	24.5843
12.604	24.5553
12.622	24.5271
12.64	24.5037
12.658	24.4866
12.676	24.4742
12.694	24.4626
12.712	24.446
12.73	24.4186
12.748	24.3762
12.766	24.3173
12.784	24.2438
12.802	24.1606
12.82	24.0745
12.838	23.9929
12.856	23.9224
12.874	23.8675
12.892	23.83
12.91	23.8092
12.928	23.8019
12.946	23.8036
12.964	23.8092
12.982	23.814
13	23.8134
13.018	23.804
13.036	23.7836
13.054	23.7514
13.072	23.7084
13.09	23.6572
13.108	23.6023
13.126	23.5494
13.144	23.5041
13.162	23.4703
13.18	23.4497
13.198	23.4408
13.216	23.4395
13.234	23.4397
13.252	23.435
13.27	23.4204
13.288	23.3935
13.306	23.3551
13.324	23.3086
13.342	23.2595
13.36	23.2137
13.378	23.1755
13.396	23.1471
13.414	23.1277
13.432	23.1144
13.45	23.1026
13.468	23.0878
13.486	23.0663
13.504	23.0364
13.522	22.9988
13.54	22.9557
13.558	22.9109
13.576	22.8689
13.594	22.8341
13.612	22.8097
13.63	22.7971
13.648	22.7962
13.666	22.8052
13.684	22.8212
13.702	22.8413
13.72	22.8623
13.738	22.8824
13.756	22.9004
13.774	22.9156
13.792	22.9277
13.81	22.9356
13.828	22.9378
13.846	22.932
13.864	22.9157
13.882	22.8865
13.9	22.8427
13.918	22.7842
13.936	22.7128
13.954	22.6316
13.972	22.5452
13.99	22.4586
14.008	22.3763
14.026	22.3018
14.044	22.2365
14.062	22.1805
14.08	22.1328
14.098	22.092
14.116	22.0569
14.134	22.027
14.152	22.0026
14.17	21.9846
14.188	21.9743
14.206	21.9723
14.224	21.9793
14.242	21.995
14.26	22.0183
14.278	22.0474
14.296	22.08
14.314	22.1132
14.332	22.1444
14.35	22.1706
14.368	22.1893
14.386	22.198
14.404	22.1949
14.422	22.1789
14.44	22.1497
14.458	22.108
14.476	22.0555
14.494	21.9951
14.512	21.9303
14.53	21.8656
14.548	21.8049
14.566	21.7514
14.584	21.7071
14.602	21.673
14.62	21.6488
14.638	21.6332
14.656	21.6239
14.674	21.6188
14.692	21.6155
14.71	21.612
14.728	21.6065
14.746	21.5975
14.764	21.5837
14.782	21.5644
14.8	21.5395
14.818	21.5093
14.836	21.4748
14.854	21.4378
14.872	21.4002
14.89	21.3644
14.908	21.3323
14.926	21.3058
14.944	21.2857
14.962	21.2721
14.98	21.2647
14.998	21.2621
15.016	21.263
15.034	21.2655
15.052	21.2676
15.07	21.2678
15.088	21.2652
15.106	21.259
15.124	21.2492
15.142	21.2356
15.16	21.2181
15.178	21.1968
15.196	21.1713
15.214	21.1414
15.232	21.1067
15.25	21.0669
15.268	21.0218
15.286	20.9718
15.304	20.9177
15.322	20.8608
15.34	20.8023
15.358	20.7438
15.376	20.6872
15.394	20.6335
15.412	20.5839
15.43	20.5389
15.448	20.4986
15.466	20.4624
15.484	20.4295
15.502	20.3985
15.52	20.3678
15.538	20.3361
15.556	20.3021
15.574	20.2648
15.592	20.2239
15.61	20.18
15.628	20.1342
15.646	20.0881
15.664	20.0445
15.682	20.0059
15.7	19.9746
15.718	19.953
15.736	19.943
15.754	19.945
15.772	19.9591
15.79	19.984
15.808	20.0172
15.826	20.0561
15.844	20.0977
15.862	20.1376
15.88	20.1729
15.898	20.2011
15.916	20.2199
15.934	20.2283
15.952	20.2266
15.97	20.2151
15.988	20.1957
16.006	20.1701
16.024	20.1398
16.042	20.1073
16.06	20.0739
16.078	20.0403
16.096	20.0074
16.114	19.9747
16.132	19.9417
16.15	19.9081
16.168	19.8728
16.186	19.8352
16.204	19.7946
16.222	19.7505
16.24	19.7032
16.258	19.653
16.276	19.6007
16.294	19.5478
16.312	19.495
16.33	19.4441
16.348	19.3963
16.366	19.3523
16.384	19.3129
16.402	19.2782
16.42	19.248
16.438	19.2218
16.456	19.1984
16.474	19.1771
16.492	19.1566
16.51	19.1361
16.528	19.115
16.546	19.0928
16.564	19.0697
16.582	19.0461
16.6	19.0225
16.618	18.9999
16.636	18.9787
16.654	18.9599
16.672	18.9437
16.69	18.9305
16.708	18.9206
16.726	18.9141
16.744	18.9111
16.762	18.9111
16.78	18.9139
16.798	18.9192
16.816	18.9268
16.834	18.9366
16.852	18.9482
16.87	18.9616
16.888	18.9765
16.906	18.9925
16.924	19.0091
16.942	19.026
16.96	19.042
16.978	19.0565
16.996	19.0685
17.014	19.0766
17.032	19.0802
17.05	19.0777
17.068	19.0684
17.086	19.0517
17.104	19.0272
17.122	18.995
17.14	18.9556
17.158	18.9103
17.176	18.8599
17.194	18.807
17.212	18.7532
17.23	18.7009
17.248	18.6528
17.266	18.6104
17.284	18.5765
17.302	18.5516
17.32	18.5373
17.338	18.533
17.356	18.5388
17.374	18.5526
17.392	18.5727
17.41	18.5967
17.428	18.6204
17.446	18.6422
17.464	18.6569
17.482	18.6632
17.5	18.6574
17.518	18.6385
17.536	18.6053
17.554	18.5579
17.572	18.497
17.59	18.4247
17.608	18.3435
17.626	18.2556
17.644	18.166
17.662	18.076
17.68	17.991
17.698	17.9121
17.716	17.843
17.734	17.7847
17.752	17.7387
17.77	17.7049
17.788	17.6833
17.806	17.6722
17.824	17.6707
17.842	17.6764
17.86	17.6869
17.878	17.7006
17.896	17.7142
17.914	17.7269
17.932	17.7356
17.95	17.7399
17.968	17.7381
17.986	17.7302
18.004	17.7154
18.022	17.6943
18.04	17.6668
18.058	17.6339
18.076	17.5959
18.094	17.5538
18.112	17.508
18.13	17.4595
18.148	17.4084
18.166	17.3556
18.184	17.3014
18.202	17.2462
18.22	17.1905
18.238	17.1345
18.256	17.0789
18.274	17.024
18.292	16.9708
18.31	16.9194
18.328	16.8712
18.346	16.8263
18.364	16.7859
18.382	16.7504
18.4	16.7206
18.418	16.6968
18.436	16.6791
18.454	16.6674
18.472	16.6617
18.49	16.6609
18.508	16.6649
18.526	16.6722
18.544	16.6827
18.562	16.694
18.58	16.7062
18.598	16.7172
18.616	16.727
18.634	16.7339
18.652	16.7381
18.67	16.739
18.688	16.7367
18.706	16.7312
18.724	16.7229
18.742	16.7126
18.76	16.7007
18.778	16.6882
18.796	16.6756
18.814	16.6639
18.832	16.6535
18.85	16.645
18.868	16.6386
18.886	16.6347
18.904	16.633
18.922	16.6337
18.94	16.6361
18.958	16.6401
18.976	16.6451
18.994	16.6505
19.012	16.6557
19.03	16.6603
19.048	16.6636
19.066	16.6652
19.084	16.6648
19.102	16.6621
19.12	16.6569
19.138	16.6492
19.156	16.6389
19.174	16.626
19.192	16.6106
19.21	16.5927
19.228	16.5725
19.246	16.5501
19.264	16.5256
19.282	16.4993
19.3	16.4711
19.318	16.4416
19.336	16.4108
19.354	16.3788
19.372	16.3458
19.39	16.3123
19.408	16.2783
19.426	16.2442
19.444	16.2099
19.462	16.1756
19.48	16.1413
19.498	16.1069
19.516	16.0724
19.534	16.0374
19.552	16.002
19.57	15.9657
19.588	15.9283
19.606	15.8895
19.624	15.8488
19.642	15.806
19.66	15.7607
19.678	15.7128
19.696	15.6621
19.714	15.6086
19.732	15.5525
19.75	15.4938
19.768	15.4331
19.786	15.3703
19.804	15.3064
19.822	15.2414
19.84	15.1763
19.858	15.1114
19.876	15.0473
19.894	14.9849
19.912	14.9244
19.93	14.867
19.948	14.8125
19.966	14.7621
19.984	14.7159
20.002	14.6744
20.02	14.638
20.038	14.6068
20.056	14.5811
20.074	14.5609
20.092	14.5464
20.11	14.5374
20.128	14.5336
20.146	14.5351
20.164	14.541
20.182	14.5513
20.2	14.5651
20.218	14.5816
20.236	14.6004
20.254	14.6199
20.272	14.6403
20.29	14.6591
20.308	14.6766
20.326	14.6909
20.344	14.7014
20.362	14.7077
20.38	14.7083
20.398	14.7035
20.416	14.6927
20.434	14.676
20.452	14.6538
20.47	14.6258
20.488	14.5933
20.506	14.5571
20.524	14.5176
20.542	14.4775
20.56	14.4361
20.578	14.3967
20.596	14.3596
20.614	14.3261
20.632	14.2985
20.65	14.2765
20.668	14.262
20.686	14.2551
20.704	14.256
20.722	14.2656
20.74	14.283
20.758	14.3075
20.776	14.3392
20.794	14.3758
20.812	14.4176
20.83	14.4624
20.848	14.5081
20.866	14.5549
20.884	14.5988
20.902	14.6406
20.92	14.6774
20.938	14.7081
20.956	14.7326
20.974	14.7486
20.992	14.7568
21.01	14.7565
21.028	14.7473
21.046	14.7299
21.064	14.7048
21.082	14.6718
21.1	14.6335
21.118	14.5894
21.136	14.5415
21.154	14.4919
21.172	14.44
21.19	14.3894
21.208	14.3399
21.226	14.2929
21.244	14.2505
21.262	14.212
21.28	14.1795
21.298	14.1532
21.316	14.1331
21.334	14.1198
21.352	14.1131
21.37	14.1122
21.388	14.1175
21.406	14.1278
21.424	14.1414
21.442	14.1589
21.46	14.1776
21.478	14.1972
21.496	14.2169
21.514	14.2336
21.532	14.2485
21.55	14.2588
21.568	14.2636
21.586	14.263
21.604	14.2549
21.622	14.2396
21.64	14.2165
21.658	14.1846
21.676	14.1445
21.694	14.0962
21.712	14.0395
21.73	13.9753
21.748	13.9048
21.766	13.8272
21.784	13.745
21.802	13.6592
21.82	13.5695
21.838	13.4792
21.856	13.3875
21.874	13.2963
21.892	13.2082
21.91	13.1218
21.928	13.0401
21.946	12.9639
21.964	12.8929
21.982	12.8293
22	12.7729
22.018	12.7239
22.036	12.6831
22.054	12.6503
22.072	12.6252
22.09	12.6079
22.108	12.5982
22.126	12.5952
22.144	12.599
22.162	12.609
22.18	12.6236
22.198	12.6436
22.216	12.6675
22.234	12.6937
22.252	12.7232
22.27	12.7539
22.288	12.7854
22.306	12.8179
22.324	12.8497
22.342	12.8808
22.36	12.9112
22.378	12.94
22.396	12.9672
22.414	12.993
22.432	13.0169
22.45	13.0392
22.468	13.0599
22.486	13.0793
22.504	13.0973
22.522	13.1144
22.54	13.1306
22.558	13.146
22.576	13.1614
22.594	13.1768
22.612	13.1923
22.63	13.2087
22.648	13.2258
22.666	13.2436
22.684	13.2626
22.702	13.2827
22.72	13.3034
22.738	13.3247
22.756	13.3466
22.774	13.3685
22.792	13.39
22.81	13.4113
22.828	13.4313
22.846	13.4493
22.864	13.4657
22.882	13.4792
22.9	13.4894
22.918	13.4965
22.936	13.4991
22.954	13.4971
22.972	13.4907
22.99	13.4789
23.008	13.4617
23.026	13.4394
23.044	13.4115
23.062	13.3777
23.08	13.3387
23.098	13.2951
23.116	13.2467
23.134	13.1939
23.152	13.1377
23.17	13.0777
23.188	13.0145
23.206	12.9498
23.224	12.8832
23.242	12.8149
23.26	12.7461
23.278	12.6764
23.296	12.6061
23.314	12.5355
23.332	12.4649
23.35	12.3939
23.368	12.322
23.386	12.2497
23.404	12.1764
23.422	12.1009
23.44	12.0236
23.458	11.9441
23.476	11.8615
23.494	11.7758
23.512	11.687
23.53	11.5945
23.548	11.4978
23.566	11.3976
23.584	11.2949
23.602	11.1892
23.62	11.0809
23.638	10.973
23.656	10.8661
23.674	10.7592
23.692	10.6565
23.71	10.5597
23.728	10.467
23.746	10.3821
23.764	10.3072
23.782	10.2401
23.8	10.1844
23.818	10.1434
23.836	10.1147
23.854	10.1008
23.872	10.1046
23.89	10.1253
23.908	10.1629
23.926	10.2187
23.944	10.2933
23.962	10.3855
23.98	10.4939
23.998	10.619
24.016	10.7605
24.034	10.9146
24.052	11.0802
24.07	11.2591
24.088	11.446
24.106	11.637
24.124	11.8358
24.142	12.0372
24.16	12.2352
24.178	12.4332
24.196	12.6282
24.214	12.8133
24.232	12.9893
24.25	13.1566
24.268	13.3102
24.286	13.4479
24.304	13.5722
24.322	13.6804
24.34	13.7703
24.358	13.8436
24.376	13.8991
24.394	13.9346
24.412	13.9504
24.43	13.9471
24.448	13.9247
24.466	13.8821
24.484	13.8198
24.502	13.742
24.52	13.651
24.538	13.5439
24.556	13.4252
24.574	13.3003
24.592	13.1667
24.61	13.0258
24.628	12.8827
24.646	12.7386
24.664	12.5916
24.682	12.4454
24.7	12.3028
24.718	12.161
24.736	12.023
24.754	11.8929
24.772	11.7705
24.79	11.6549
24.808	11.5477
24.826	11.4502
24.844	11.3622
24.862	11.2815
24.88	11.2058
24.898	11.1369
24.916	11.0734
24.934	11.0121
24.952	10.9526
24.97	10.8965
24.988	10.8398
25.006	10.7789
25.024	10.7146
25.042	10.6478
25.06	10.5785
25.078	10.5056
25.096	10.4291
25.114	10.3527
25.132	10.2789
25.15	10.2021
25.168	10.1288
25.186	10.0691
25.204	10.0233
25.222	9.986233
25.24	9.971926
25.258	9.992958
25.276	10.0395
25.294	10.1176
25.312	10.241
25.33	10.4155
25.348	10.6329
25.366	10.9009
25.384	11.2283
25.402	11.6138
25.42	12.055
25.438	12.5526
25.456	13.1088
25.474	13.7255
25.492	14.3949
25.51	15.1081
25.528	15.8707
25.546	16.6823
25.564	17.5245
25.582	18.3822
25.6	19.2721
25.618	20.1808
25.636	21.0841
25.654	21.9739
25.672	22.8673
25.69	23.7413
25.708	24.5706
25.726	25.3617
25.744	26.1187
25.762	26.8225
25.78	27.4568
25.798	28.032
25.816	28.5459
25.834	28.9907
25.852	29.3595
25.87	29.6549
25.888	29.8846
25.906	30.0561
25.924	30.1639
25.942	30.2074
25.96	30.2051
25.978	30.174
25.996	30.0958
26.014	29.981
26.032	29.8593
26.05	29.7514
26.068	29.6292
26.086	29.5153
26.104	29.4436
26.122	29.4282
26.14	29.4421
26.158	29.5128
26.176	29.6715
26.194	29.92
26.212	30.2416
26.23	30.6609
26.248	31.2027
26.266	31.8638
26.284	32.6359
26.302	33.5277
26.32	34.5475
26.338	35.7001
26.356	36.9758
26.374	38.362
26.392	39.85
26.41	41.4599
26.428	43.1724
26.446	44.9572
26.464	46.7951
26.482	48.7186
26.5	50.6994
26.518	52.6979
26.536	54.694
26.554	56.7254
26.572	58.7579
26.59	60.749
26.608	62.6811
26.626	64.5901
26.644	66.444
26.662	68.2054
26.68	69.8603
26.698	71.4363
26.716	72.9134
26.734	74.2688
26.752	75.4928
26.77	76.6003
26.788	77.5878
26.806	78.4507
26.824	79.1825
26.842	79.7844
26.86	80.27
26.878	80.6531
26.896	80.9316
26.914	81.0931
26.932	81.1639
26.95	81.171
26.968	81.1037
26.986	80.9291
27.004	80.7215
27.022	80.5583
27.028	80.5312