File: Bakgrunnsmateriale/MATLAB/FTIR/ftir_data/subBb/Mapping_36/C-4040-8_t36.asc
PE IR       SPECTRUM    SPECTRUM    ASCII       PEDS        1.60
  -1
C-B132~1.ASC
17/05/02
13:54:07.00
17/05/02
13:54:33.00
tln
$C-4040-8_t0036$<tbV0>[-12.5,12.0,8.0,0.0,22,1,0]
27.028
64

2002,4.07
MIRTGS : RIGHTBACK : INTERNAL 2
MIR : ON : INTERNAL 2
OPTKBR

0.200000
8
8.000000
FILLER
RATIO
SPECTRUM
UNLOCKED 256

DOUBLE
64
COMBINED
1
0
0

0.002000
RATIO

1
0
TRUE
51149
0
LEFT NOT FITTED RIGHT NOT FITTED 0
NONE
NONE
15600
12
4.427000
51148
TRUE
1 0 8 72 0 0 0 0

15798

#HDR
-1
-1
#GR
µM
%T
2.38419e-05
0.0
1.282000
0.002000
12874
8
78.3943
49.2407
#DATA
1.282000	 68.406
1.300000	 68.5311
1.318000	 65.8867
1.336000	 63.0389
1.354000	 65.5937
1.372000	 65.8281
1.390000	 63.4996
1.408000	 64.1178
1.426000	 64.0159
1.444000	 64.2956
1.462000	 64.3642
1.480000	 62.9482
1.498000	 62.8155
1.516000	 66.0346
1.534000	 63.3617
1.552000	 63.9631
1.570000	 64.7895
1.588000	 64.4089
1.606000	 62.8912
1.624000	 64.0047
1.642000	 63.9977
1.660000	 64.5601
1.678000	 63.2438
1.696000	 64.1422
1.714000	 64.5648
1.732000	 64.3355
1.750000	 64.7224
1.768000	 63.7332
1.786000	 65.0491
1.804000	 64.3183
1.822000	 64.4826
1.840000	 64.3369
1.858000	 64.5744
1.876000	 64.2473
1.894000	 60.7316
1.912000	 64.4409
1.930000	 64.4475
1.948000	 64.4734
1.966000	 64.8639
1.984000	 64.7327
2.002000	 64.4753
2.020000	 64.4493
2.038000	 64.475
2.056000	 64.2536
2.074000	 64.7697
2.092000	 64.6737
2.110000	 64.9286
2.128000	 64.3465
2.146000	 65.0619
2.164000	 64.6258
2.182000	 65.0247
2.200000	 64.4269
2.218000	 64.8545
2.236000	 64.8016
2.254000	 64.5656
2.272000	 64.1431
2.290000	 66.4941
2.308000	 64.4388
2.326000	 64.9557
2.344000	 64.7319
2.362000	 64.5851
2.380000	 64.4773
2.398000	 64.6983
2.416000	 64.7025
2.434000	 64.9535
2.452000	 64.6098
2.470000	 65.1435
2.488000	 64.6645
2.506000	 64.7998
2.524000	 64.8916
2.542000	 64.8893
2.560000	 64.5166
2.578000	 64.7061
2.596000	 64.8593
2.614000	 64.8965
2.632000	 64.8204
2.650000	 64.8592
2.668000	 64.8119
2.686000	 64.8441
2.704000	 64.7407
2.722000	 64.6066
2.740000	 64.9808
2.758000	 64.793
2.776000	 64.9316
2.794000	 64.7665
2.812000	 64.8198
2.830000	 64.741
2.848000	 64.8598
2.866000	 64.9844
2.884000	 64.9955
2.902000	 64.7372
2.920000	 64.9633
2.938000	 64.8479
2.956000	 64.5962
2.974000	 64.7974
2.992000	 64.7661
3.010000	 64.8238
3.028000	 64.7165
3.046000	 64.8862
3.064000	 64.752
3.082000	 64.8863
3.100000	 64.7585
3.118000	 64.7057
3.136000	 64.795
3.154000	 64.773
3.172000	 64.8544
3.190000	 64.7295
3.208000	 64.7701
3.226000	 64.8652
3.244000	 64.8416
3.262000	 64.6197
3.280000	 64.7937
3.298000	 64.6947
3.316000	 64.7589
3.334000	 64.8889
3.352000	 64.7581
3.370000	 64.6954
3.388000	 64.7345
3.406000	 64.8623
3.424000	 64.5199
3.442000	 64.6801
3.460000	 64.5071
3.478000	 64.6955
3.496000	 64.7073
3.514000	 64.7089
3.532000	 64.8595
3.550000	 64.8727
3.568000	 64.8689
3.586000	 64.8579
3.604000	 64.9158
3.622000	 64.8024
3.640000	 64.8956
3.658000	 64.9547
3.676000	 64.9346
3.694000	 64.9485
3.712000	 64.9228
3.730000	 64.8135
3.748000	 64.8675
3.766000	 64.8259
3.784000	 64.7152
3.802000	 65.0207
3.820000	 64.869
3.838000	 64.8764
3.856000	 64.9726
3.874000	 64.9611
3.892000	 64.8948
3.910000	 64.9643
3.928000	 64.8712
3.946000	 65.0678
3.964000	 64.9977
3.982000	 64.8433
4.000000	 64.9853
4.018000	 64.9424
4.036000	 64.9306
4.054000	 64.9497
4.072000	 65.0035
4.090000	 64.882
4.108000	 64.9299
4.125999	 64.9424
4.144000	 65.0911
4.162000	 64.9177
4.180000	 64.9146
4.198000	 64.9247
4.216000	 64.9758
4.234000	 64.8321
4.252000	 64.9136
4.270000	 64.9323
4.288000	 64.9981
4.306000	 64.9357
4.324000	 64.9987
4.342000	 65.0133
4.359999	 64.9473
4.378000	 65.0643
4.396000	 64.9268
4.414000	 64.9468
4.432000	 64.9871
4.450000	 64.9616
4.468000	 64.967
4.486000	 64.8201
4.504000	 64.7857
4.522000	 64.8457
4.540000	 64.9538
4.558000	 64.9662
4.576000	 64.9942
4.594000	 64.9799
4.612000	 64.9854
4.630000	 64.8317
4.648000	 64.9127
4.666000	 64.9183
4.684000	 64.9518
4.702000	 64.9074
4.720000	 64.8998
4.738000	 64.8048
4.756000	 64.9432
4.774000	 64.9749
4.792000	 64.9304
4.810000	 64.9055
4.828000	 64.9434
4.846000	 64.96
4.864000	 64.9609
4.882000	 64.8918
4.900000	 65.0056
4.918000	 65.0004
4.936000	 65.0061
4.954000	 64.9104
4.972000	 64.983
4.990000	 64.9502
5.008000	 64.9238
5.026000	 65.0379
5.044000	 64.9516
5.062000	 65.0036
5.080000	 64.9545
5.098000	 64.9209
5.116000	 65.0186
5.134000	 65.0027
5.152000	 65.0029
5.170000	 65.1245
5.188000	 65.0761
5.206000	 64.9084
5.224000	 64.9127
5.242000	 64.9588
5.260000	 65.0009
5.278000	 65.0094
5.296000	 64.981
5.314000	 64.9439
5.332000	 64.9569
5.350000	 64.9736
5.368000	 64.952
5.386000	 64.9747
5.404000	 64.9367
5.422000	 64.9556
5.440000	 65.0203
5.458000	 64.919
5.476000	 64.8793
5.494000	 64.8964
5.512000	 64.856
5.530000	 64.9046
5.548000	 65.0177
5.566000	 64.9111
5.584000	 64.8555
5.602000	 64.9088
5.620000	 64.9237
5.638000	 64.9168
5.656000	 64.9078
5.674000	 64.8705
5.692000	 64.8395
5.710000	 64.7642
5.728000	 64.7235
5.746000	 64.7209
5.764000	 64.6708
5.782000	 64.6115
5.800000	 64.655
5.818000	 64.7311
5.836000	 64.7885
5.854000	 64.8404
5.872000	 64.8461
5.890000	 64.8903
5.908000	 64.8931
5.926000	 64.8067
5.944000	 64.7494
5.962000	 64.7906
5.980000	 64.8237
5.998000	 64.7896
6.016000	 64.785
6.034000	 64.8253
6.052000	 64.8228
6.070000	 64.8117
6.088000	 64.8007
6.106000	 64.7481
6.124000	 64.7347
6.142000	 64.7945
6.160000	 64.8132
6.178000	 64.8321
6.196000	 64.8699
6.214000	 64.8691
6.232000	 64.7861
6.250000	 64.7304
6.268000	 64.7601
6.286000	 64.8112
6.304000	 64.7774
6.322000	 64.6909
6.340000	 64.6819
6.358000	 64.6635
6.376000	 64.5911
6.394000	 64.529
6.412000	 64.5918
6.430000	 64.7514
6.448000	 64.7471
6.466000	 64.6406
6.484000	 64.6036
6.502000	 64.644
6.520000	 64.6996
6.538000	 64.7272
6.556000	 64.7634
6.574000	 64.7765
6.592000	 64.7344
6.610000	 64.7357
6.628000	 64.7692
6.646000	 64.7557
6.664000	 64.741
6.682000	 64.7152
6.700000	 64.6855
6.718000	 64.7665
6.736000	 64.8491
6.754000	 64.8094
6.772000	 64.7348
6.790000	 64.6795
6.808000	 64.636
6.826000	 64.6731
6.844000	 64.7906
6.862000	 64.8342
6.880000	 64.7127
6.898000	 64.5613
6.916000	 64.5334
6.934000	 64.5905
6.952000	 64.676
6.970000	 64.7789
6.988000	 64.8203
7.006000	 64.7742
7.024000	 64.7301
7.042000	 64.7206
7.060000	 64.6851
7.078000	 64.6202
7.096000	 64.6315
7.114000	 64.7214
7.132000	 64.7464
7.150000	 64.6925
7.168000	 64.6443
7.186000	 64.6064
7.204000	 64.5647
7.222000	 64.5371
7.240000	 64.5553
7.258000	 64.6238
7.276000	 64.6992
7.294000	 64.737
7.312000	 64.7217
7.330000	 64.6623
7.348000	 64.5906
7.366000	 64.5401
7.384000	 64.5254
7.402000	 64.5441
7.420000	 64.5743
7.438000	 64.5757
7.456000	 64.5481
7.474000	 64.549
7.492000	 64.5962
7.510000	 64.638
7.528000	 64.6481
7.546000	 64.646
7.564000	 64.6472
7.582000	 64.645
7.600000	 64.6268
7.618000	 64.6068
7.636000	 64.6187
7.654000	 64.6513
7.672000	 64.6603
7.690000	 64.6453
7.708000	 64.6338
7.726000	 64.6258
7.744000	 64.6138
7.762000	 64.5986
7.780000	 64.5733
7.798000	 64.5401
7.816000	 64.5182
7.834000	 64.5109
7.852000	 64.5116
7.870000	 64.5282
7.888000	 64.5596
7.906000	 64.5869
7.924000	 64.6047
7.942000	 64.6186
7.960000	 64.6164
7.978000	 64.5893
7.996000	 64.5572
8.013999	 64.5455
8.032000	 64.5606
8.050000	 64.5923
8.068000	 64.6227
8.086000	 64.6325
8.103999	 64.6167
8.122000	 64.5917
8.140000	 64.5737
8.158000	 64.5544
8.176000	 64.5146
8.193999	 64.4605
8.212000	 64.4226
8.230000	 64.4132
8.248000	 64.415
8.266000	 64.4188
8.283999	 64.4416
8.302000	 64.4953
8.320000	 64.5601
8.338000	 64.6008
8.356000	 64.5885
8.374000	 64.5196
8.391999	 64.4299
8.410000	 64.3765
8.428000	 64.3856
8.446000	 64.4261
8.464000	 64.4473
8.481999	 64.4313
8.500000	 64.4001
8.518000	 64.387
8.536000	 64.4037
8.554000	 64.4248
8.571999	 64.4104
8.590000	 64.3537
8.608000	 64.2987
8.626000	 64.2936
8.644000	 64.3337
8.661999	 64.3697
8.680000	 64.3682
8.698000	 64.3425
8.716000	 64.323
8.734000	 64.3189
8.751999	 64.3159
8.770000	 64.3019
8.788000	 64.2801
8.806000	 64.2626
8.824000	 64.2588
8.842000	 64.2698
8.859999	 64.2924
8.878000	 64.3251
8.896000	 64.3695
8.914000	 64.4232
8.932000	 64.4723
8.949999	 64.493
8.968000	 64.4633
8.986000	 64.3805
9.004000	 64.2704
9.022000	 64.1837
9.039999	 64.171
9.058000	 64.247
9.076000	 64.3732
9.094000	 64.4794
9.112000	 64.5126
9.129999	 64.4737
9.148000	 64.4077
9.166000	 64.3554
9.184000	 64.3181
9.202000	 64.2731
9.219999	 64.2164
9.238000	 64.1789
9.256000	 64.1933
9.274000	 64.2524
9.292000	 64.3109
9.310000	 64.3303
9.327999	 64.3133
9.346000	 64.2939
9.364000	 64.2971
9.382000	 64.3185
9.400000	 64.337
9.418000	 64.3404
9.436000	 64.3341
9.454000	 64.3311
9.472000	 64.3391
9.490000	 64.3568
9.508000	 64.3742
9.526000	 64.3772
9.544000	 64.3551
9.561999	 64.3109
9.580000	 64.2645
9.598000	 64.24
9.616000	 64.2516
9.634000	 64.2931
9.652000	 64.3429
9.670000	 64.3777
9.688000	 64.3852
9.706000	 64.3682
9.724000	 64.3402
9.742000	 64.3183
9.760000	 64.3159
9.778000	 64.3379
9.795999	 64.3788
9.814000	 64.4235
9.832000	 64.4525
9.850000	 64.4512
9.868000	 64.4172
9.886000	 64.3618
9.904000	 64.3025
9.922000	 64.2534
9.940000	 64.2203
9.958000	 64.2011
9.976000	 64.1906
9.994000	 64.185
10.012	64.1803
10.03	64.1727
10.048	64.1608
10.066	64.1513
10.084	64.1559
10.102	64.1858
10.12	64.2431
10.138	64.3195
10.156	64.4038
10.174	64.4852
10.192	64.5534
10.21	64.5954
10.228	64.5986
10.246	64.5587
10.264	64.4868
10.282	64.4087
10.3	64.3459
10.318	64.3028
10.336	64.2591
10.354	64.1867
10.372	64.0756
10.39	63.9522
10.408	63.8688
10.426	63.8731
10.444	63.9766
10.462	64.1425
10.48	64.3056
10.498	64.4018
10.516	64.4031
10.534	64.3212
10.552	64.2055
10.57	64.1135
10.588	64.0909
10.606	64.1512
10.624	64.2773
10.642	64.4261
10.66	64.5545
10.678	64.6313
10.696	64.6519
10.714	64.633
10.732	64.5995
10.75	64.5683
10.768	64.5394
10.786	64.499
10.804	64.4275
10.822	64.3131
10.84	64.1594
10.858	63.9887
10.876	63.8333
10.894	63.7247
10.912	63.6837
10.93	63.7142
10.948	63.8092
10.966	63.9538
10.984	64.1309
11.002	64.3206
11.02	64.499
11.038	64.638
11.056	64.7131
11.074	64.7121
11.092	64.6444
11.11	64.5404
11.128	64.4398
11.146	64.3715
11.164	64.3451
11.182	64.3483
11.2	64.3548
11.218	64.3423
11.236	64.2983
11.254	64.225
11.272	64.1352
11.29	64.0449
11.308	63.9668
11.326	63.9083
11.344	63.8698
11.362	63.8465
11.38	63.8303
11.398	63.8123
11.416	63.7858
11.434	63.7521
11.452	63.7197
11.47	63.7021
11.488	63.7096
11.506	63.7451
11.524	63.8004
11.542	63.8601
11.56	63.9071
11.578	63.9294
11.596	63.9246
11.614	63.8995
11.632	63.8666
11.65	63.8381
11.668	63.8232
11.686	63.8236
11.704	63.8361
11.722	63.8553
11.74	63.8754
11.758	63.8932
11.776	63.9081
11.794	63.9212
11.812	63.9344
11.83	63.9479
11.848	63.9601
11.866	63.9672
11.884	63.9651
11.902	63.9511
11.92	63.9252
11.938	63.8903
11.956	63.8521
11.974	63.8168
11.992	63.7905
12.01	63.7778
12.028	63.7812
12.046	63.8008
12.064	63.8338
12.082	63.8754
12.1	63.919
12.118	63.9572
12.136	63.9841
12.154	63.9958
12.172	63.9919
12.19	63.9754
12.208	63.9508
12.226	63.9224
12.244	63.8923
12.262	63.8602
12.28	63.824
12.298	63.7822
12.316	63.7358
12.334	63.6888
12.352	63.6478
12.37	63.6199
12.388	63.61
12.406	63.6182
12.424	63.6397
12.442	63.6661
12.46	63.6875
12.478	63.6961
12.496	63.6882
12.514	63.6654
12.532	63.6343
12.55	63.6031
12.568	63.5802
12.586	63.5713
12.604	63.5779
12.622	63.5972
12.64	63.6229
12.658	63.6467
12.676	63.6608
12.694	63.6594
12.712	63.6398
12.73	63.6035
12.748	63.5556
12.766	63.5039
12.784	63.4571
12.802	63.423
12.82	63.4063
12.838	63.4079
12.856	63.4238
12.874	63.4471
12.892	63.4689
12.91	63.4811
12.928	63.4783
12.946	63.4594
12.964	63.4274
12.982	63.3893
13	63.3532
13.018	63.327
13.036	63.3161
13.054	63.3226
13.072	63.3446
13.09	63.3775
13.108	63.4147
13.126	63.4493
13.144	63.4754
13.162	63.4891
13.18	63.4885
13.198	63.4742
13.216	63.4482
13.234	63.4137
13.252	63.3746
13.27	63.3343
13.288	63.2956
13.306	63.2601
13.324	63.2281
13.342	63.1992
13.36	63.1721
13.378	63.1456
13.396	63.1186
13.414	63.0911
13.432	63.0639
13.45	63.0387
13.468	63.0173
13.486	63.001
13.504	62.9903
13.522	62.9845
13.54	62.9815
13.558	62.9785
13.576	62.9724
13.594	62.9613
13.612	62.9441
13.63	62.922
13.648	62.8975
13.666	62.8745
13.684	62.8569
13.702	62.848
13.72	62.8493
13.738	62.8609
13.756	62.8807
13.774	62.9055
13.792	62.9313
13.81	62.9544
13.828	62.9725
13.846	62.984
13.864	62.9887
13.882	62.9871
13.9	62.9802
13.918	62.9688
13.936	62.9534
13.954	62.9341
13.972	62.9107
13.99	62.8835
14.008	62.8526
14.026	62.819
14.044	62.7841
14.062	62.7499
14.08	62.7182
14.098	62.6907
14.116	62.6684
14.134	62.6516
14.152	62.6404
14.17	62.6342
14.188	62.6328
14.206	62.6355
14.224	62.6421
14.242	62.6526
14.26	62.6668
14.278	62.6841
14.296	62.7036
14.314	62.7233
14.332	62.7411
14.35	62.7543
14.368	62.7603
14.386	62.7572
14.404	62.744
14.422	62.721
14.44	62.6898
14.458	62.6525
14.476	62.6122
14.494	62.5719
14.512	62.5345
14.53	62.502
14.548	62.476
14.566	62.4567
14.584	62.444
14.602	62.4374
14.62	62.4361
14.638	62.4391
14.656	62.4454
14.674	62.454
14.692	62.4636
14.71	62.4732
14.728	62.4815
14.746	62.4871
14.764	62.489
14.782	62.4865
14.8	62.4796
14.818	62.4686
14.836	62.4545
14.854	62.439
14.872	62.4236
14.89	62.4095
14.908	62.3973
14.926	62.3871
14.944	62.3782
14.962	62.3691
14.98	62.3579
14.998	62.3431
15.016	62.3233
15.034	62.298
15.052	62.2677
15.07	62.2343
15.088	62.2001
15.106	62.1677
15.124	62.1403
15.142	62.1202
15.16	62.1088
15.178	62.1065
15.196	62.1128
15.214	62.1257
15.232	62.1424
15.25	62.1603
15.268	62.1768
15.286	62.1895
15.304	62.1968
15.322	62.1984
15.34	62.1945
15.358	62.1862
15.376	62.175
15.394	62.1629
15.412	62.1516
15.43	62.1426
15.448	62.1377
15.466	62.1378
15.484	62.1437
15.502	62.1556
15.52	62.1739
15.538	62.1979
15.556	62.2273
15.574	62.2614
15.592	62.2986
15.61	62.3375
15.628	62.3761
15.646	62.4123
15.664	62.4432
15.682	62.4665
15.7	62.48
15.718	62.4813
15.736	62.4691
15.754	62.443
15.772	62.4031
15.79	62.3508
15.808	62.2888
15.826	62.2199
15.844	62.1474
15.862	62.076
15.88	62.0091
15.898	61.9497
15.916	61.9009
15.934	61.8644
15.952	61.8408
15.97	61.8301
15.988	61.8312
16.006	61.8426
16.024	61.8628
16.042	61.8891
16.06	61.9196
16.078	61.9529
16.096	61.9871
16.114	62.0217
16.132	62.0561
16.15	62.0896
16.168	62.1222
16.186	62.1539
16.204	62.1845
16.222	62.2139
16.24	62.2414
16.258	62.2668
16.276	62.2891
16.294	62.3075
16.312	62.3215
16.33	62.3299
16.348	62.3324
16.366	62.3289
16.384	62.3194
16.402	62.3044
16.42	62.2847
16.438	62.2612
16.456	62.2353
16.474	62.2079
16.492	62.1804
16.51	62.1541
16.528	62.1296
16.546	62.1079
16.564	62.0892
16.582	62.0736
16.6	62.0609
16.618	62.0505
16.636	62.0421
16.654	62.0347
16.672	62.0275
16.69	62.0202
16.708	62.0117
16.726	62.0016
16.744	61.9896
16.762	61.9754
16.78	61.9591
16.798	61.9408
16.816	61.9203
16.834	61.8978
16.852	61.8735
16.87	61.8474
16.888	61.8195
16.906	61.7901
16.924	61.7597
16.942	61.7285
16.96	61.6975
16.978	61.6675
16.996	61.6393
17.014	61.6141
17.032	61.5922
17.05	61.5747
17.068	61.5616
17.086	61.5529
17.104	61.5481
17.122	61.5465
17.14	61.5468
17.158	61.5478
17.176	61.5487
17.194	61.5473
17.212	61.5429
17.23	61.5343
17.248	61.5206
17.266	61.5012
17.284	61.4759
17.302	61.4449
17.32	61.4083
17.338	61.3672
17.356	61.3222
17.374	61.2753
17.392	61.2276
17.41	61.1809
17.428	61.1374
17.446	61.0983
17.464	61.0663
17.482	61.0417
17.5	61.0262
17.518	61.0199
17.536	61.0231
17.554	61.0347
17.572	61.0542
17.59	61.0798
17.608	61.1097
17.626	61.1425
17.644	61.1756
17.662	61.208
17.68	61.2371
17.698	61.2625
17.716	61.2829
17.734	61.2983
17.752	61.3084
17.77	61.3141
17.788	61.3158
17.806	61.3148
17.824	61.3117
17.842	61.3078
17.86	61.3036
17.878	61.2998
17.896	61.2966
17.914	61.294
17.932	61.2915
17.95	61.2889
17.968	61.2851
17.986	61.2796
18.004	61.2715
18.022	61.2604
18.04	61.2457
18.058	61.2275
18.076	61.2056
18.094	61.1809
18.112	61.1537
18.13	61.1253
18.148	61.0964
18.166	61.0683
18.184	61.0421
18.202	61.0185
18.22	60.9988
18.238	60.9832
18.256	60.9723
18.274	60.9663
18.292	60.9651
18.31	60.9687
18.328	60.9765
18.346	60.9881
18.364	61.0028
18.382	61.02
18.4	61.0386
18.418	61.0581
18.436	61.0777
18.454	61.0962
18.472	61.1133
18.49	61.1276
18.508	61.1389
18.526	61.1458
18.544	61.1483
18.562	61.1448
18.58	61.1355
18.598	61.1194
18.616	61.0966
18.634	61.067
18.652	61.0308
18.67	60.9887
18.688	60.941
18.706	60.8893
18.724	60.8343
18.742	60.7777
18.76	60.7206
18.778	60.6651
18.796	60.6122
18.814	60.5636
18.832	60.5199
18.85	60.4827
18.868	60.4519
18.886	60.428
18.904	60.4103
18.922	60.3988
18.94	60.392
18.958	60.3892
18.976	60.3887
18.994	60.3895
19.012	60.3903
19.03	60.3897
19.048	60.3873
19.066	60.3821
19.084	60.3745
19.102	60.3639
19.12	60.3514
19.138	60.3374
19.156	60.3231
19.174	60.3096
19.192	60.2979
19.21	60.2894
19.228	60.2846
19.246	60.2848
19.264	60.2896
19.282	60.2998
19.3	60.3146
19.318	60.3336
19.336	60.3561
19.354	60.3801
19.372	60.4055
19.39	60.4295
19.408	60.4523
19.426	60.471
19.444	60.4856
19.462	60.4941
19.48	60.4964
19.498	60.4917
19.516	60.4796
19.534	60.4606
19.552	60.4343
19.57	60.4021
19.588	60.3642
19.606	60.3219
19.624	60.2767
19.642	60.2292
19.66	60.1816
19.678	60.1342
19.696	60.0893
19.714	60.0468
19.732	60.0087
19.75	59.9749
19.768	59.9461
19.786	59.9226
19.804	59.9041
19.822	59.8907
19.84	59.8817
19.858	59.8768
19.876	59.8754
19.894	59.8764
19.912	59.88
19.93	59.8847
19.948	59.8906
19.966	59.8968
19.984	59.9031
20.002	59.9091
20.02	59.9147
20.038	59.9195
20.056	59.923
20.074	59.925
20.092	59.925
20.11	59.9229
20.128	59.9176
20.146	59.9094
20.164	59.8974
20.182	59.8814
20.2	59.8612
20.218	59.8364
20.236	59.8074
20.254	59.7744
20.272	59.7373
20.29	59.6979
20.308	59.6556
20.326	59.6127
20.344	59.5694
20.362	59.5268
20.38	59.4868
20.398	59.4492
20.416	59.4162
20.434	59.3875
20.452	59.364
20.47	59.3462
20.488	59.3336
20.506	59.3265
20.524	59.3246
20.542	59.3268
20.56	59.3333
20.578	59.3424
20.596	59.3539
20.614	59.367
20.632	59.3802
20.65	59.3938
20.668	59.4062
20.686	59.4175
20.704	59.4271
20.722	59.4346
20.74	59.4401
20.758	59.4432
20.776	59.4442
20.794	59.4431
20.812	59.4397
20.83	59.4346
20.848	59.4278
20.866	59.4195
20.884	59.4101
20.902	59.3995
20.92	59.3881
20.938	59.376
20.956	59.3633
20.974	59.3499
20.992	59.3361
21.01	59.3217
21.028	59.3067
21.046	59.2912
21.064	59.2752
21.082	59.2586
21.1	59.2418
21.118	59.2246
21.136	59.2075
21.154	59.1908
21.172	59.1745
21.19	59.1596
21.208	59.1461
21.226	59.1346
21.244	59.1261
21.262	59.1202
21.28	59.1183
21.298	59.1204
21.316	59.1266
21.334	59.1375
21.352	59.153
21.37	59.1728
21.388	59.1972
21.406	59.2254
21.424	59.2566
21.442	59.2911
21.46	59.327
21.478	59.3641
21.496	59.4018
21.514	59.4379
21.532	59.4732
21.55	59.5057
21.568	59.5347
21.586	59.5604
21.604	59.5814
21.622	59.5977
21.64	59.6095
21.658	59.6166
21.676	59.619
21.694	59.6176
21.712	59.6122
21.73	59.6035
21.748	59.5932
21.766	59.5806
21.784	59.5671
21.802	59.5535
21.82	59.5394
21.838	59.5263
21.856	59.5143
21.874	59.503
21.892	59.4928
21.91	59.4835
21.928	59.4743
21.946	59.4651
21.964	59.4555
21.982	59.4436
22	59.4297
22.018	59.4128
22.036	59.3909
22.054	59.3647
22.072	59.3328
22.09	59.294
22.108	59.249
22.126	59.1973
22.144	59.1383
22.162	59.0728
22.18	59.0018
22.198	58.9245
22.216	58.843
22.234	58.7589
22.252	58.6713
22.27	58.5837
22.288	58.497
22.306	58.4109
22.324	58.3294
22.342	58.2519
22.36	58.1794
22.378	58.1145
22.396	58.0566
22.414	58.0064
22.432	57.9652
22.45	57.9325
22.468	57.908
22.486	57.8918
22.504	57.8838
22.522	57.8821
22.54	57.8867
22.558	57.8973
22.576	57.9111
22.594	57.9285
22.612	57.9487
22.63	57.9691
22.648	57.9904
22.666	58.0115
22.684	58.0306
22.702	58.0483
22.72	58.0641
22.738	58.077
22.756	58.0875
22.774	58.0954
22.792	58.1007
22.81	58.1033
22.828	58.1041
22.846	58.1031
22.864	58.1002
22.882	58.0965
22.9	58.0923
22.918	58.0875
22.936	58.0828
22.954	58.0785
22.972	58.0745
22.99	58.0709
23.008	58.068
23.026	58.0654
23.044	58.0626
23.062	58.0599
23.08	58.0568
23.098	58.0521
23.116	58.0462
23.134	58.0387
23.152	58.0281
23.17	58.0147
23.188	57.9982
23.206	57.9777
23.224	57.9533
23.242	57.9251
23.26	57.8927
23.278	57.8559
23.296	57.8152
23.314	57.7713
23.332	57.7237
23.35	57.6731
23.368	57.6211
23.386	57.5671
23.404	57.5117
23.422	57.4571
23.44	57.4024
23.458	57.3484
23.476	57.2972
23.494	57.2485
23.512	57.2025
23.53	57.1611
23.548	57.1243
23.566	57.092
23.584	57.0654
23.602	57.0449
23.62	57.0301
23.638	57.0212
23.656	57.0183
23.674	57.0214
23.692	57.0302
23.71	57.0449
23.728	57.0653
23.746	57.0913
23.764	57.1225
23.782	57.1591
23.8	57.2007
23.818	57.2471
23.836	57.2985
23.854	57.3544
23.872	57.4143
23.89	57.4786
23.908	57.5469
23.926	57.6186
23.944	57.6941
23.962	57.7731
23.98	57.8546
23.998	57.9387
24.016	58.0256
24.034	58.1137
24.052	58.2027
24.07	58.2932
24.088	58.3833
24.106	58.4716
24.124	58.5598
24.142	58.6452
24.16	58.7252
24.178	58.8016
24.196	58.8726
24.214	58.9349
24.232	58.9888
24.25	59.0347
24.268	59.0699
24.286	59.0932
24.304	59.1058
24.322	59.1069
24.34	59.0954
24.358	59.0717
24.376	59.0362
24.394	58.9891
24.412	58.9294
24.43	58.8584
24.448	58.7784
24.466	58.6889
24.484	58.5895
24.502	58.4848
24.52	58.3776
24.538	58.2646
24.556	58.1502
24.574	58.0396
24.592	57.9301
24.61	57.8233
24.628	57.7247
24.646	57.6356
24.664	57.5538
24.682	57.4828
24.7	57.4254
24.718	57.3799
24.736	57.3469
24.754	57.3279
24.772	57.3236
24.79	57.333
24.808	57.354
24.826	57.3864
24.844	57.4317
24.862	57.486
24.88	57.5455
24.898	57.6134
24.916	57.6871
24.934	57.7606
24.952	57.8321
24.97	57.905
24.988	57.9732
25.006	58.0316
25.024	58.0837
25.042	58.1273
25.06	58.1572
25.078	58.1719
25.096	58.1738
25.114	58.1602
25.132	58.1287
25.15	58.0801
25.168	58.0148
25.186	57.9323
25.204	57.832
25.222	57.7142
25.24	57.5805
25.258	57.4325
25.276	57.2679
25.294	57.0891
25.312	56.8998
25.33	56.7011
25.348	56.4902
25.366	56.2723
25.384	56.052
25.402	55.8269
25.42	55.5978
25.438	55.3696
25.456	55.1452
25.474	54.9212
25.492	54.7005
25.51	54.4871
25.528	54.2809
25.546	54.0805
25.564	53.8884
25.582	53.7065
25.6	53.5333
25.618	53.3695
25.636	53.2163
25.654	53.0745
25.672	52.9431
25.69	52.8227
25.708	52.7142
25.726	52.6166
25.744	52.5303
25.762	52.4568
25.78	52.3972
25.798	52.3493
25.816	52.3152
25.834	52.298
25.852	52.2989
25.87	52.3147
25.888	52.3497
25.906	52.4084
25.924	52.4896
25.942	52.5919
25.96	52.7208
25.978	52.8819
25.996	53.0718
26.014	53.2911
26.032	53.5439
26.05	53.8335
26.068	54.1585
26.086	54.5176
26.104	54.9102
26.122	55.3375
26.14	55.801
26.158	56.2952
26.176	56.8145
26.194	57.3609
26.212	57.9372
26.23	58.5322
26.248	59.1344
26.266	59.7505
26.284	60.3806
26.302	61.0103
26.32	61.6263
26.338	62.2392
26.356	62.8454
26.374	63.431
26.392	63.9845
26.41	64.5169
26.428	65.0234
26.446	65.493
26.464	65.9176
26.482	66.305
26.5	66.6527
26.518	66.9554
26.536	67.2092
26.554	67.4171
26.572	67.5802
26.59	67.699
26.608	67.7724
26.626	67.7983
26.644	67.7828
26.662	67.7327
26.68	67.6491
26.698	67.5262
26.716	67.3726
26.734	67.1973
26.752	67.0018
26.77	66.7787
26.788	66.5381
26.806	66.2909
26.824	66.04
26.842	65.7777
26.86	65.5108
26.878	65.246
26.896	64.9861
26.914	64.7265
26.932	64.4691
26.95	64.2157
26.968	63.9538
26.986	63.673
27.004	63.4136
27.022	63.2171
27.028	63.1791