File: Bakgrunnsmateriale/MATLAB/FTIR/ftir_data/subBb/Mapping_36/C-4040-8_t07.asc
PE IR       SPECTRUM    SPECTRUM    ASCII       PEDS        1.60
  -1
C-B526~1.ASC
17/05/02
11:23:29.00
17/05/02
11:23:55.00
tln
$C-4040-8_t0007$<tbV0>[12.5,-8.0,8.0,0.0,22,1,0]
27.028
64

2002,4.07
MIRTGS : RIGHTBACK : INTERNAL 2
MIR : ON : INTERNAL 2
OPTKBR

0.200000
8
8.000000
FILLER
RATIO
SPECTRUM
UNLOCKED 256

DOUBLE
64
COMBINED
1
0
0

0.002000
RATIO

1
0
TRUE
51149
0
LEFT NOT FITTED RIGHT NOT FITTED 0
NONE
NONE
15600
12
4.427000
51148
TRUE
1 0 8 72 0 0 0 0

15798

#HDR
-1
-1
#GR
µM
%T
2.38419e-05
0.0
1.282000
0.002000
12874
8
94.2451
48.7065
#DATA
1.282000	 68.295
1.300000	 59.6144
1.318000	 67.3122
1.336000	 66.5843
1.354000	 65.4157
1.372000	 67.2663
1.390000	 65.7678
1.408000	 63.383
1.426000	 65.7344
1.444000	 63.5952
1.462000	 64.2154
1.480000	 64.7109
1.498000	 63.3411
1.516000	 66.4528
1.534000	 64.7995
1.552000	 66.6115
1.570000	 65.3303
1.588000	 63.9371
1.606000	 65.9706
1.624000	 63.4783
1.642000	 64.8417
1.660000	 65.2456
1.678000	 65.1803
1.696000	 64.7052
1.714000	 65.0894
1.732000	 64.3617
1.750000	 64.5303
1.768000	 65.0112
1.786000	 65.4346
1.804000	 65.1884
1.822000	 65.0963
1.840000	 64.8474
1.858000	 64.9437
1.876000	 64.0224
1.894000	 67.2213
1.912000	 63.1887
1.930000	 65.3222
1.948000	 64.4799
1.966000	 64.968
1.984000	 64.7225
2.002000	 64.8283
2.020000	 64.8056
2.038000	 65.0053
2.056000	 64.7179
2.074000	 65.0549
2.092000	 64.6124
2.110000	 65.2279
2.128000	 65.3367
2.146000	 64.7905
2.164000	 64.9532
2.182000	 64.9148
2.200000	 64.9384
2.218000	 64.1673
2.236000	 64.0641
2.254000	 64.2714
2.272000	 68.6897
2.290000	 65.328
2.308000	 64.8264
2.326000	 64.7251
2.344000	 64.4235
2.362000	 64.8337
2.380000	 64.8422
2.398000	 64.9569
2.416000	 64.8653
2.434000	 65.166
2.452000	 65.2459
2.470000	 65.1833
2.488000	 65.2562
2.506000	 65.2285
2.524000	 65.1028
2.542000	 64.903
2.560000	 65.0241
2.578000	 65.2448
2.596000	 65.0562
2.614000	 65.1029
2.632000	 65.0664
2.650000	 65.0194
2.668000	 65.193
2.686000	 65.075
2.704000	 64.9827
2.722000	 65.189
2.740000	 65.1633
2.758000	 65.1672
2.776000	 65.1334
2.794000	 65.0943
2.812000	 65.0372
2.830000	 65.1437
2.848000	 64.9259
2.866000	 65.0629
2.884000	 65.2612
2.902000	 65.1536
2.920000	 65.0177
2.938000	 64.9955
2.956000	 65.0968
2.974000	 65.1488
2.992000	 65.1803
3.010000	 64.8922
3.028000	 64.9654
3.046000	 65.1902
3.064000	 65.1233
3.082000	 65.0167
3.100000	 64.9464
3.118000	 65.1487
3.136000	 65.2416
3.154000	 65.1024
3.172000	 65.3186
3.190000	 64.9485
3.208000	 65.0821
3.226000	 65.0716
3.244000	 65.1597
3.262000	 65.0286
3.280000	 65.0275
3.298000	 65.1832
3.316000	 65.0859
3.334000	 64.9999
3.352000	 64.966
3.370000	 64.998
3.388000	 64.8768
3.406000	 64.8042
3.424000	 64.6447
3.442000	 65.0006
3.460000	 64.93
3.478000	 64.9085
3.496000	 64.974
3.514000	 65.162
3.532000	 64.9948
3.550000	 65.1117
3.568000	 65.1734
3.586000	 65.1644
3.604000	 65.2002
3.622000	 65.1165
3.640000	 65.1306
3.658000	 65.2145
3.676000	 65.1599
3.694000	 65.1773
3.712000	 65.0951
3.730000	 65.1484
3.748000	 65.2443
3.766000	 65.1231
3.784000	 65.0935
3.802000	 65.1443
3.820000	 65.285
3.838000	 65.1415
3.856000	 65.1792
3.874000	 65.1831
3.892000	 65.0391
3.910000	 65.2723
3.928000	 65.1667
3.946000	 65.1946
3.964000	 65.2456
3.982000	 65.1739
4.000000	 65.2732
4.018000	 65.2262
4.036000	 65.238
4.054000	 65.2912
4.072000	 65.1764
4.090000	 65.282
4.108000	 65.3037
4.125999	 65.2337
4.144000	 65.3865
4.162000	 65.3534
4.180000	 65.3463
4.198000	 65.2094
4.216000	 65.2385
4.234000	 65.2844
4.252000	 65.1819
4.270000	 65.1757
4.288000	 65.1541
4.306000	 65.3202
4.324000	 65.3036
4.342000	 65.2514
4.359999	 65.2956
4.378000	 65.2142
4.396000	 65.2225
4.414000	 65.2788
4.432000	 65.1639
4.450000	 65.135
4.468000	 65.2136
4.486000	 65.2189
4.504000	 65.2484
4.522000	 65.1593
4.540000	 65.1352
4.558000	 65.1836
4.576000	 65.1787
4.594000	 65.1893
4.612000	 65.2029
4.630000	 65.2458
4.648000	 65.1376
4.666000	 65.1623
4.684000	 65.1256
4.702000	 65.125
4.720000	 65.0996
4.738000	 65.0993
4.756000	 65.1841
4.774000	 65.1981
4.792000	 65.0999
4.810000	 65.1693
4.828000	 65.2836
4.846000	 65.181
4.864000	 65.096
4.882000	 65.1512
4.900000	 65.2189
4.918000	 65.1163
4.936000	 65.0732
4.954000	 65.04
4.972000	 65.2166
4.990000	 65.1868
5.008000	 65.1686
5.026000	 65.1566
5.044000	 65.1327
5.062000	 65.1879
5.080000	 65.1044
5.098000	 65.1397
5.116000	 65.1882
5.134000	 65.2177
5.152000	 65.1491
5.170000	 65.1331
5.188000	 65.1457
5.206000	 65.2287
5.224000	 65.2124
5.242000	 65.1615
5.260000	 65.1481
5.278000	 65.1311
5.296000	 65.1873
5.314000	 65.1529
5.332000	 65.1563
5.350000	 65.1415
5.368000	 65.2138
5.386000	 65.2575
5.404000	 65.1617
5.422000	 65.1026
5.440000	 65.0482
5.458000	 65.126
5.476000	 65.2184
5.494000	 65.2208
5.512000	 65.2093
5.530000	 65.2639
5.548000	 65.1857
5.566000	 65.2065
5.584000	 65.2613
5.602000	 65.2324
5.620000	 65.2617
5.638000	 65.303
5.656000	 65.2322
5.674000	 65.1359
5.692000	 65.1779
5.710000	 65.1411
5.728000	 65.0487
5.746000	 64.9631
5.764000	 64.9337
5.782000	 64.9405
5.800000	 64.9163
5.818000	 64.9613
5.836000	 65.046
5.854000	 65.1273
5.872000	 65.2125
5.890000	 65.3049
5.908000	 65.2809
5.926000	 65.2546
5.944000	 65.1943
5.962000	 65.0489
5.980000	 65.0013
5.998000	 65.098
6.016000	 65.1571
6.034000	 65.0848
6.052000	 65.0718
6.070000	 65.0675
6.088000	 65.0771
6.106000	 65.1176
6.124000	 65.123
6.142000	 65.0798
6.160000	 65.1219
6.178000	 65.1847
6.196000	 65.1687
6.214000	 65.0928
6.232000	 65.0243
6.250000	 65.0258
6.268000	 65.0738
6.286000	 65.055
6.304000	 65.0177
6.322000	 65.0824
6.340000	 65.1279
6.358000	 65.0756
6.376000	 65.0157
6.394000	 65.0463
6.412000	 65.1356
6.430000	 65.1324
6.448000	 65.1185
6.466000	 65.1055
6.484000	 65.1243
6.502000	 65.0709
6.520000	 64.975
6.538000	 64.9816
6.556000	 65.0328
6.574000	 65.0369
6.592000	 64.9627
6.610000	 64.9259
6.628000	 64.9959
6.646000	 65.0739
6.664000	 65.0842
6.682000	 65.0288
6.700000	 64.9994
6.718000	 65.0233
6.736000	 65.0135
6.754000	 65.0295
6.772000	 65.0937
6.790000	 65.075
6.808000	 64.9936
6.826000	 64.9897
6.844000	 65.0233
6.862000	 64.9974
6.880000	 64.9431
6.898000	 64.9036
6.916000	 64.877
6.934000	 64.9266
6.952000	 65.0252
6.970000	 65.0136
6.988000	 64.9384
7.006000	 64.978
7.024000	 65.1201
7.042000	 65.2197
7.060000	 65.1906
7.078000	 65.0649
7.096000	 64.9349
7.114000	 64.8943
7.132000	 64.9809
7.150000	 65.097
7.168000	 65.112
7.186000	 65.0386
7.204000	 64.9707
7.222000	 64.9333
7.240000	 64.8971
7.258000	 64.8563
7.276000	 64.8251
7.294000	 64.8344
7.312000	 64.9071
7.330000	 64.9822
7.348000	 64.9818
7.366000	 64.9306
7.384000	 64.8916
7.402000	 64.906
7.420000	 65.0092
7.438000	 65.1485
7.456000	 65.2017
7.474000	 65.155
7.492000	 65.0956
7.510000	 65.0586
7.528000	 65.022
7.546000	 64.9863
7.564000	 64.978
7.582000	 64.9948
7.600000	 64.9822
7.618000	 64.9022
7.636000	 64.8077
7.654000	 64.7772
7.672000	 64.817
7.690000	 64.8807
7.708000	 64.9241
7.726000	 64.9281
7.744000	 64.912
7.762000	 64.9011
7.780000	 64.8934
7.798000	 64.8913
7.816000	 64.9014
7.834000	 64.8969
7.852000	 64.8664
7.870000	 64.8588
7.888000	 64.8896
7.906000	 64.8914
7.924000	 64.8327
7.942000	 64.7779
7.960000	 64.7744
7.978000	 64.7975
7.996000	 64.8223
8.013999	 64.8527
8.032000	 64.8817
8.050000	 64.8908
8.068000	 64.8838
8.086000	 64.872
8.103999	 64.8419
8.122000	 64.7827
8.140000	 64.7257
8.158000	 64.7131
8.176000	 64.7464
8.193999	 64.7959
8.212000	 64.8366
8.230000	 64.8566
8.248000	 64.8626
8.266000	 64.8854
8.283999	 64.942
8.302000	 65.0016
8.320000	 65.0199
8.338000	 64.9924
8.356000	 64.9482
8.374000	 64.9014
8.391999	 64.8428
8.410000	 64.7716
8.428000	 64.7133
8.446000	 64.6994
8.464000	 64.7317
8.481999	 64.7766
8.500000	 64.7969
8.518000	 64.7805
8.536000	 64.7414
8.554000	 64.7067
8.571999	 64.6992
8.590000	 64.7233
8.608000	 64.7609
8.626000	 64.7788
8.644000	 64.7548
8.661999	 64.7078
8.680000	 64.6891
8.698000	 64.7266
8.716000	 64.7949
8.734000	 64.8424
8.751999	 64.8387
8.770000	 64.7913
8.788000	 64.7327
8.806000	 64.6951
8.824000	 64.698
8.842000	 64.7445
8.859999	 64.8203
8.878000	 64.8956
8.896000	 64.9363
8.914000	 64.924
8.932000	 64.8715
8.949999	 64.8152
8.968000	 64.7889
8.986000	 64.8066
9.004000	 64.8582
9.022000	 64.9124
9.039999	 64.9318
9.058000	 64.9004
9.076000	 64.836
9.094000	 64.7719
9.112000	 64.7312
9.129999	 64.7153
9.148000	 64.7154
9.166000	 64.7243
9.184000	 64.7384
9.202000	 64.752
9.219999	 64.7586
9.238000	 64.7573
9.256000	 64.754
9.274000	 64.7519
9.292000	 64.7446
9.310000	 64.7193
9.327999	 64.672
9.346000	 64.6164
9.364000	 64.5744
9.382000	 64.5561
9.400000	 64.5531
9.418000	 64.5497
9.436000	 64.5388
9.454000	 64.5263
9.472000	 64.5229
9.490000	 64.5364
9.508000	 64.5693
9.526000	 64.6203
9.544000	 64.6843
9.561999	 64.7528
9.580000	 64.8157
9.598000	 64.8652
9.616000	 64.8959
9.634000	 64.9044
9.652000	 64.8884
9.670000	 64.8493
9.688000	 64.7918
9.706000	 64.7235
9.724000	 64.6554
9.742000	 64.6002
9.760000	 64.5668
9.778000	 64.5546
9.795999	 64.5553
9.814000	 64.5583
9.832000	 64.5594
9.850000	 64.5624
9.868000	 64.5754
9.886000	 64.6031
9.904000	 64.6441
9.922000	 64.6918
9.940000	 64.7375
9.958000	 64.7742
9.976000	 64.8
9.994000	 64.8182
10.012	64.8328
10.03	64.842
10.048	64.8377
10.066	64.8128
10.084	64.7709
10.102	64.7272
10.12	64.6997
10.138	64.6966
10.156	64.7098
10.174	64.7216
10.192	64.7172
10.21	64.696
10.228	64.6713
10.246	64.6604
10.264	64.6734
10.282	64.7046
10.3	64.7349
10.318	64.7421
10.336	64.7148
10.354	64.6611
10.372	64.6031
10.39	64.5635
10.408	64.5502
10.426	64.5546
10.444	64.5579
10.462	64.5459
10.48	64.5155
10.498	64.476
10.516	64.44
10.534	64.4149
10.552	64.3986
10.57	64.3833
10.588	64.362
10.606	64.3359
10.624	64.3158
10.642	64.318
10.66	64.3545
10.678	64.4231
10.696	64.505
10.714	64.5744
10.732	64.6109
10.75	64.6106
10.768	64.5843
10.786	64.5477
10.804	64.5136
10.822	64.4849
10.84	64.4589
10.858	64.4321
10.876	64.4047
10.894	64.3821
10.912	64.3714
10.93	64.3786
10.948	64.407
10.966	64.4564
10.984	64.5214
11.002	64.5893
11.02	64.6444
11.038	64.6727
11.056	64.6686
11.074	64.6392
11.092	64.599
11.11	64.5623
11.128	64.5382
11.146	64.527
11.164	64.5226
11.182	64.5181
11.2	64.5093
11.218	64.4966
11.236	64.4865
11.254	64.4867
11.272	64.5054
11.29	64.5496
11.308	64.6237
11.326	64.7277
11.344	64.8575
11.362	65.0039
11.38	65.1548
11.398	65.297
11.416	65.4154
11.434	65.4946
11.452	65.52
11.47	65.4807
11.488	65.3737
11.506	65.2074
11.524	64.9989
11.542	64.7692
11.56	64.5421
11.578	64.3386
11.596	64.1751
11.614	64.0629
11.632	64.0095
11.65	64.0169
11.668	64.0791
11.686	64.1841
11.704	64.3141
11.722	64.4453
11.74	64.5551
11.758	64.6268
11.776	64.6509
11.794	64.6294
11.812	64.5738
11.83	64.5047
11.848	64.447
11.866	64.424
11.884	64.4506
11.902	64.5281
11.92	64.6406
11.938	64.7584
11.956	64.8432
11.974	64.8576
11.992	64.7781
12.01	64.6003
12.028	64.341
12.046	64.0368
12.064	63.7334
12.082	63.4743
12.1	63.2947
12.118	63.2134
12.136	63.2309
12.154	63.3328
12.172	63.4965
12.19	63.6958
12.208	63.9057
12.226	64.1044
12.244	64.2755
12.262	64.4059
12.28	64.4871
12.298	64.5163
12.316	64.4972
12.334	64.4379
12.352	64.3495
12.37	64.2438
12.388	64.1318
12.406	64.0228
12.424	63.9247
12.442	63.8443
12.46	63.787
12.478	63.7567
12.496	63.7551
12.514	63.7811
12.532	63.8306
12.55	63.8981
12.568	63.9777
12.586	64.063
12.604	64.1477
12.622	64.2262
12.64	64.2929
12.658	64.3422
12.676	64.3683
12.694	64.3666
12.712	64.3358
12.73	64.2789
12.748	64.2028
12.766	64.1186
12.784	64.0388
12.802	63.9747
12.82	63.9336
12.838	63.9175
12.856	63.9231
12.874	63.9432
12.892	63.9686
12.91	63.9906
12.928	64.0038
12.946	64.0064
12.964	64.0006
12.982	63.9909
13	63.9824
13.018	63.9798
13.036	63.9855
13.054	63.9998
13.072	64.0204
13.09	64.044
13.108	64.0667
13.126	64.0847
13.144	64.0944
13.162	64.0933
13.18	64.0797
13.198	64.053
13.216	64.014
13.234	63.9648
13.252	63.909
13.27	63.8512
13.288	63.7961
13.306	63.7478
13.324	63.7087
13.342	63.6801
13.36	63.6615
13.378	63.6515
13.396	63.648
13.414	63.6491
13.432	63.6532
13.45	63.6585
13.468	63.6637
13.486	63.6667
13.504	63.6659
13.522	63.6592
13.54	63.645
13.558	63.6232
13.576	63.5949
13.594	63.5631
13.612	63.5322
13.63	63.5067
13.648	63.4905
13.666	63.4856
13.684	63.4919
13.702	63.5068
13.72	63.5265
13.738	63.546
13.756	63.5612
13.774	63.5689
13.792	63.5677
13.81	63.5579
13.828	63.5414
13.846	63.5207
13.864	63.4985
13.882	63.4773
13.9	63.4589
13.918	63.4444
13.936	63.4345
13.954	63.4295
13.972	63.4291
13.99	63.4329
14.008	63.4396
14.026	63.4475
14.044	63.4542
14.062	63.4572
14.08	63.4546
14.098	63.4453
14.116	63.4297
14.134	63.4093
14.152	63.3868
14.17	63.365
14.188	63.3464
14.206	63.3329
14.224	63.3249
14.242	63.3213
14.26	63.3196
14.278	63.3171
14.296	63.3109
14.314	63.2988
14.332	63.2793
14.35	63.2523
14.368	63.2191
14.386	63.1815
14.404	63.1417
14.422	63.1018
14.44	63.0634
14.458	63.0277
14.476	62.9958
14.494	62.9682
14.512	62.9456
14.53	62.9289
14.548	62.9182
14.566	62.9135
14.584	62.9142
14.602	62.9189
14.62	62.926
14.638	62.9333
14.656	62.9389
14.674	62.9413
14.692	62.9396
14.71	62.9335
14.728	62.9237
14.746	62.9112
14.764	62.8974
14.782	62.8838
14.8	62.8715
14.818	62.8611
14.836	62.8534
14.854	62.8485
14.872	62.8467
14.89	62.8487
14.908	62.8552
14.926	62.8674
14.944	62.8863
14.962	62.9128
14.98	62.9469
14.998	62.9877
15.016	63.0336
15.034	63.082
15.052	63.1297
15.07	63.1735
15.088	63.2109
15.106	63.2403
15.124	63.2606
15.142	63.2722
15.16	63.2759
15.178	63.2727
15.196	63.2642
15.214	63.2512
15.232	63.2344
15.25	63.2136
15.268	63.1885
15.286	63.1587
15.304	63.1239
15.322	63.0846
15.34	63.0418
15.358	62.9967
15.376	62.9519
15.394	62.9094
15.412	62.8705
15.43	62.8365
15.448	62.8074
15.466	62.7816
15.484	62.7575
15.502	62.733
15.52	62.7054
15.538	62.6734
15.556	62.637
15.574	62.5965
15.592	62.5543
15.61	62.5139
15.628	62.4784
15.646	62.4514
15.664	62.4363
15.682	62.4341
15.7	62.4452
15.718	62.4685
15.736	62.5006
15.754	62.538
15.772	62.5771
15.79	62.6131
15.808	62.6427
15.826	62.6642
15.844	62.676
15.862	62.6787
15.88	62.674
15.898	62.6635
15.916	62.6502
15.934	62.6368
15.952	62.6249
15.97	62.6162
15.988	62.6114
16.006	62.6099
16.024	62.6113
16.042	62.6146
16.06	62.6185
16.078	62.6222
16.096	62.6247
16.114	62.6256
16.132	62.6247
16.15	62.6221
16.168	62.6183
16.186	62.6134
16.204	62.6076
16.222	62.6009
16.24	62.5931
16.258	62.5838
16.276	62.5727
16.294	62.5596
16.312	62.5448
16.33	62.5286
16.348	62.5124
16.366	62.497
16.384	62.4844
16.402	62.4766
16.42	62.4749
16.438	62.4813
16.456	62.4966
16.474	62.5212
16.492	62.5549
16.51	62.5963
16.528	62.644
16.546	62.6957
16.564	62.7482
16.582	62.7999
16.6	62.8472
16.618	62.8881
16.636	62.9212
16.654	62.9446
16.672	62.9582
16.69	62.9618
16.708	62.9569
16.726	62.945
16.744	62.9276
16.762	62.908
16.78	62.8875
16.798	62.8682
16.816	62.8518
16.834	62.8389
16.852	62.8296
16.87	62.8232
16.888	62.8191
16.906	62.8148
16.924	62.8089
16.942	62.7998
16.96	62.785
16.978	62.764
16.996	62.7353
17.014	62.6991
17.032	62.6553
17.05	62.6049
17.068	62.5492
17.086	62.4893
17.104	62.428
17.122	62.3664
17.14	62.3074
17.158	62.2531
17.176	62.205
17.194	62.1657
17.212	62.1361
17.23	62.1177
17.248	62.1108
17.266	62.1155
17.284	62.1313
17.302	62.1569
17.32	62.1908
17.338	62.2298
17.356	62.2725
17.374	62.3144
17.392	62.3538
17.41	62.3875
17.428	62.4122
17.446	62.4266
17.464	62.4281
17.482	62.4162
17.5	62.3901
17.518	62.3507
17.536	62.298
17.554	62.2346
17.572	62.1615
17.59	62.0818
17.608	61.9976
17.626	61.9112
17.644	61.8261
17.662	61.7432
17.68	61.6662
17.698	61.5956
17.716	61.5336
17.734	61.4807
17.752	61.4374
17.77	61.404
17.788	61.3805
17.806	61.3662
17.824	61.3607
17.842	61.3633
17.86	61.373
17.878	61.3893
17.896	61.4109
17.914	61.4373
17.932	61.4671
17.95	61.4999
17.968	61.5344
17.986	61.5697
18.004	61.605
18.022	61.6389
18.04	61.6709
18.058	61.6994
18.076	61.7239
18.094	61.7428
18.112	61.7559
18.13	61.7618
18.148	61.7604
18.166	61.7511
18.184	61.7339
18.202	61.7089
18.22	61.6769
18.238	61.638
18.256	61.5941
18.274	61.5454
18.292	61.4946
18.31	61.4419
18.328	61.39
18.346	61.3395
18.364	61.2928
18.382	61.2505
18.4	61.2141
18.418	61.1841
18.436	61.1611
18.454	61.1452
18.472	61.1365
18.49	61.1343
18.508	61.1387
18.526	61.1481
18.544	61.1626
18.562	61.1801
18.58	61.2006
18.598	61.2222
18.616	61.2447
18.634	61.2664
18.652	61.2873
18.67	61.3062
18.688	61.3232
18.706	61.3374
18.724	61.349
18.742	61.3577
18.76	61.3635
18.778	61.3663
18.796	61.3663
18.814	61.3635
18.832	61.3578
18.85	61.3496
18.868	61.3385
18.886	61.3247
18.904	61.308
18.922	61.2883
18.94	61.2654
18.958	61.2393
18.976	61.2098
18.994	61.1768
19.012	61.1405
19.03	61.1009
19.048	61.0586
19.066	61.0136
19.084	60.9667
19.102	60.9185
19.12	60.8699
19.138	60.8216
19.156	60.7747
19.174	60.7303
19.192	60.6892
19.21	60.6527
19.228	60.6213
19.246	60.5961
19.264	60.5772
19.282	60.5652
19.3	60.5597
19.318	60.5606
19.336	60.5673
19.354	60.5782
19.372	60.5932
19.39	60.6095
19.408	60.6272
19.426	60.6428
19.444	60.6566
19.462	60.6651
19.48	60.6682
19.498	60.6638
19.516	60.6513
19.534	60.63
19.552	60.5991
19.57	60.5595
19.588	60.5108
19.606	60.4544
19.624	60.3912
19.642	60.3223
19.66	60.2502
19.678	60.1752
19.696	60.101
19.714	60.0273
19.732	59.9578
19.75	59.8923
19.768	59.8335
19.786	59.7817
19.804	59.738
19.822	59.7031
19.84	59.6769
19.858	59.6597
19.876	59.6509
19.894	59.6498
19.912	59.6562
19.93	59.6682
19.948	59.686
19.966	59.707
19.984	59.7314
20.002	59.7571
20.02	59.7837
20.038	59.8099
20.056	59.8346
20.074	59.8577
20.092	59.8779
20.11	59.8953
20.128	59.9091
20.146	59.9193
20.164	59.9259
20.182	59.9288
20.2	59.9281
20.218	59.924
20.236	59.9167
20.254	59.9067
20.272	59.894
20.29	59.8796
20.308	59.8632
20.326	59.8459
20.344	59.8277
20.362	59.8091
20.38	59.7912
20.398	59.7737
20.416	59.7576
20.434	59.7427
20.452	59.7299
20.47	59.7193
20.488	59.711
20.506	59.7052
20.524	59.7018
20.542	59.7002
20.56	59.7008
20.578	59.7024
20.596	59.7051
20.614	59.708
20.632	59.7099
20.65	59.711
20.668	59.7097
20.686	59.7062
20.704	59.6997
20.722	59.6894
20.74	59.6758
20.758	59.6585
20.776	59.6376
20.794	59.6141
20.812	59.5878
20.83	59.56
20.848	59.5318
20.866	59.5031
20.884	59.4763
20.902	59.4508
20.92	59.4286
20.938	59.4105
20.956	59.3964
20.974	59.388
20.992	59.3848
21.01	59.3874
21.028	59.396
21.046	59.41
21.064	59.429
21.082	59.4531
21.1	59.4805
21.118	59.5114
21.136	59.5447
21.154	59.5785
21.172	59.6135
21.19	59.6471
21.208	59.6793
21.226	59.7092
21.244	59.7351
21.262	59.7575
21.28	59.7747
21.298	59.7868
21.316	59.7934
21.334	59.7938
21.352	59.7882
21.37	59.7768
21.388	59.7595
21.406	59.7368
21.424	59.7094
21.442	59.6769
21.46	59.6409
21.478	59.6014
21.496	59.559
21.514	59.5148
21.532	59.4686
21.55	59.4212
21.568	59.3732
21.586	59.3245
21.604	59.2756
21.622	59.2266
21.64	59.1775
21.658	59.1284
21.676	59.0792
21.694	59.0299
21.712	58.9806
21.73	58.9313
21.748	58.8821
21.766	58.8328
21.784	58.7841
21.802	58.7361
21.82	58.689
21.838	58.644
21.856	58.6007
21.874	58.56
21.892	58.5236
21.91	58.4906
21.928	58.4627
21.946	58.4404
21.964	58.4235
21.982	58.4135
22	58.4105
22.018	58.4144
22.036	58.4259
22.054	58.4448
22.072	58.4708
22.09	58.5041
22.108	58.5444
22.126	58.5906
22.144	58.6429
22.162	58.7005
22.18	58.7616
22.198	58.8269
22.216	58.8947
22.234	58.9635
22.252	59.0341
22.27	59.1037
22.288	59.1718
22.306	59.2385
22.324	59.3009
22.342	59.3595
22.36	59.4135
22.378	59.4605
22.396	59.5015
22.414	59.5353
22.432	59.5606
22.45	59.5781
22.468	59.587
22.486	59.5866
22.504	59.5775
22.522	59.5596
22.54	59.5327
22.558	59.4971
22.576	59.4541
22.594	59.4031
22.612	59.3452
22.63	59.2822
22.648	59.2131
22.666	59.1399
22.684	59.0651
22.702	58.9873
22.72	58.9089
22.738	58.8325
22.756	58.7565
22.774	58.6836
22.792	58.6157
22.81	58.5515
22.828	58.4933
22.846	58.4418
22.864	58.3966
22.882	58.3586
22.9	58.3283
22.918	58.3054
22.936	58.2895
22.954	58.2811
22.972	58.2797
22.99	58.2835
23.008	58.2929
23.026	58.3074
23.044	58.3247
23.062	58.3454
23.08	58.3688
23.098	58.3929
23.116	58.4179
23.134	58.4436
23.152	58.4686
23.17	58.4932
23.188	58.5172
23.206	58.54
23.224	58.5614
23.242	58.5818
23.26	58.6016
23.278	58.6203
23.296	58.6386
23.314	58.6578
23.332	58.6772
23.35	58.6975
23.368	58.72
23.386	58.7445
23.404	58.771
23.422	58.7998
23.44	58.831
23.458	58.8643
23.476	58.8997
23.494	58.9372
23.512	58.9767
23.53	59.0174
23.548	59.0594
23.566	59.1027
23.584	59.1459
23.602	59.1892
23.62	59.2326
23.638	59.2748
23.656	59.3153
23.674	59.3546
23.692	59.3919
23.71	59.4267
23.728	59.4593
23.746	59.4897
23.764	59.5176
23.782	59.5429
23.8	59.5664
23.818	59.5886
23.836	59.609
23.854	59.6287
23.872	59.649
23.89	59.6694
23.908	59.6904
23.926	59.7128
23.944	59.7369
23.962	59.7623
23.98	59.789
23.998	59.8172
24.016	59.8468
24.034	59.8768
24.052	59.9069
24.07	59.9377
24.088	59.9673
24.106	59.9944
24.124	60.0205
24.142	60.0432
24.16	60.0601
24.178	60.0728
24.196	60.0797
24.214	60.0777
24.232	60.0669
24.25	60.0477
24.268	60.0189
24.286	59.9796
24.304	59.9306
24.322	59.8719
24.34	59.8037
24.358	59.7257
24.376	59.6385
24.394	59.5422
24.412	59.4364
24.43	59.3217
24.448	59.1992
24.466	59.0683
24.484	58.9289
24.502	58.7847
24.52	58.6379
24.538	58.4863
24.556	58.3326
24.574	58.1801
24.592	58.0275
24.61	57.8754
24.628	57.7261
24.646	57.5804
24.664	57.4373
24.682	57.2973
24.7	57.1606
24.718	57.0274
24.736	56.897
24.754	56.7687
24.772	56.6437
24.79	56.5211
24.808	56.3982
24.826	56.2737
24.844	56.1495
24.862	56.0229
24.88	55.8913
24.898	55.7566
24.916	55.6175
24.934	55.4705
24.952	55.3149
24.97	55.1527
24.988	54.9799
25.006	54.7927
25.024	54.5928
25.042	54.3801
25.06	54.1534
25.078	53.9113
25.096	53.6545
25.114	53.3855
25.132	53.1063
25.15	52.8135
25.168	52.5109
25.186	52.2047
25.204	51.8954
25.222	51.5801
25.24	51.266
25.258	50.9592
25.276	50.6532
25.294	50.3533
25.312	50.0701
25.33	49.8068
25.348	49.5563
25.366	49.3298
25.384	49.1388
25.402	48.9781
25.42	48.8484
25.438	48.7584
25.456	48.7139
25.474	48.7096
25.492	48.7476
25.51	48.8308
25.528	48.9611
25.546	49.1363
25.564	49.3534
25.582	49.61
25.6	49.9109
25.618	50.2507
25.636	50.6213
25.654	51.0208
25.672	51.4555
25.69	51.914
25.708	52.3844
25.726	52.8706
25.744	53.3738
25.762	53.8822
25.78	54.3863
25.798	54.8942
25.816	55.4014
25.834	55.8985
25.852	56.3799
25.87	56.8509
25.888	57.3102
25.906	57.7556
25.924	58.1848
25.942	58.5994
25.96	59.004
25.978	59.4025
25.996	59.7878
26.014	60.1651
26.032	60.5467
26.05	60.9407
26.068	61.3337
26.086	61.738
26.104	62.1711
26.122	62.6404
26.14	63.132
26.158	63.6598
26.176	64.2399
26.194	64.8727
26.212	65.5499
26.23	66.2846
26.248	67.0902
26.266	67.9678
26.284	68.9112
26.302	69.9195
26.32	70.9925
26.338	72.1397
26.356	73.3515
26.374	74.6109
26.392	75.9051
26.41	77.258
26.428	78.6492
26.446	80.0458
26.464	81.4266
26.482	82.8266
26.5	84.2168
26.518	85.5565
26.536	86.8244
26.554	88.0589
26.572	89.2272
26.59	90.2884
26.608	91.2232
26.626	92.0643
26.644	92.7888
26.662	93.3696
26.68	93.7955
26.698	94.0861
26.716	94.2308
26.734	94.2173
26.752	94.0357
26.77	93.6922
26.788	93.1989
26.806	92.5679
26.824	91.7986
26.842	90.8812
26.86	89.8359
26.878	88.6839
26.896	87.4271
26.914	86.0494
26.932	84.5748
26.95	83.0287
26.968	81.3034
26.986	79.3025
27.004	77.3858
27.022	75.9254
27.028	75.6492