File: Bakgrunnsmateriale/MATLAB/FTIR/ftir_data/subBb/Mapping_36/C-4040-8_t01_cm-1.asc
PE IR       SPECTRUM    SPECTRUM    ASCII       PEDS        1.60
  -1
C-4040~3.ASC
17/05/02
10:54:46.00
17/05/02
10:54:46.00
tln
$C-4040-8_t0001$<tbV0>[12.5,-13.0,8.0,0.0,22,1,0]
370
64

2002,4.07
MIRTGS : RIGHTBACK : INTERNAL 2
MIR : ON : INTERNAL 2
OPTKBR

0.200000
8
8.000000
FILLER
RATIO
SPECTRUM
UNLOCKED 256

DOUBLE
64
COMBINED
1
0
0

1.000000
RATIO

1
0
TRUE
51149
0
LEFT NOT FITTED RIGHT NOT FITTED 0
NONE
NONE
15600
12
4.427000
51148
TRUE
1 0 8 72 0 0 0 0

15798

#HDR
-1
-1
#GR
CM-1
%T
2.38419e-05
0.0
7800
-1.000000
7431
8
80.4978
52.3418
#DATA
7800	74.1576
7795	62.6816
7790	54.7503
7785	64.5445
7780	69.9087
7775	66.5333
7770	69.9397
7765	67.8862
7760	63.5263
7755	70.7885
7750	69.8815
7745	63.7562
7740	66.6472
7735	69.9567
7730	68.0318
7725	64.9711
7720	63.1569
7715	62.8173
7710	65.2814
7705	64.6626
7700	61.2588
7695	62.966
7690	65.4337
7685	65.8472
7680	70.2463
7675	70.1574
7670	71.387
7665	69.986
7660	66.8068
7655	65.9828
7650	66.1051
7645	63.9161
7640	68.4889
7635	71.8184
7630	69.4132
7625	66.8941
7620	65.1742
7615	64.0718
7610	62.4661
7605	62.1589
7600	60.0641
7595	58.2328
7590	59.4482
7585	64.2044
7580	68.0245
7575	69.8527
7570	69.1545
7565	68.2585
7560	67.9368
7555	69.25
7550	66.8622
7545	65.1631
7540	67.8399
7535	67.1883
7530	67.2952
7525	64.1074
7520	64.4087
7515	65.4502
7510	63.684
7505	63.3152
7500	62.4108
7495	63.3945
7490	65.986
7485	66.5559
7480	66.2143
7475	65.0326
7470	62.9099
7465	61.5148
7460	63.4399
7455	67.5915
7450	68.5417
7445	69.7543
7440	69.2186
7435	64.7993
7430	63.9045
7425	67.9136
7420	68.9652
7415	64.9255
7410	64.229
7405	65.878
7400	67.1909
7395	67.9593
7390	65.297
7385	63.899
7380	64.7292
7375	63.8438
7370	61.4537
7365	64.1162
7360	65.7825
7355	64.3961
7350	65.4823
7345	65.8446
7340	66.0545
7335	64.9124
7330	63.7723
7325	63.3329
7320	64.9196
7315	67.5316
7310	67.5988
7305	65.1902
7300	65.4895
7295	66.1204
7290	65.2482
7285	64.7683
7280	65.4778
7275	65.7354
7270	63.824
7265	63.2033
7260	63.0131
7255	64.2848
7250	64.5494
7245	62.9909
7240	62.3851
7235	64.1152
7230	64.4513
7225	65.1664
7220	66.2903
7215	64.5392
7210	62.7244
7205	63.9217
7200	65.1947
7195	65.6895
7190	64.3068
7185	64.9844
7180	65.9191
7175	62.7994
7170	60.6783
7165	62.8653
7160	63.3001
7155	62.3614
7150	62.562
7145	63.1907
7140	62.5298
7135	62.7737
7130	63.6232
7125	64.1856
7120	64.2595
7115	64.1183
7110	64.413
7105	64.021
7100	65.2076
7095	65.1515
7090	64.3034
7085	65.0318
7080	63.1259
7075	63.3093
7070	65.9525
7065	66.6688
7060	65.5437
7055	64.9472
7050	65.8812
7045	64.117
7040	61.3955
7035	61.4104
7030	62.5599
7025	62.6766
7020	62.4422
7015	60.5458
7010	59.2451
7005	61.1659
7000	63.7207
6995	65.7009
6990	66.1475
6985	65.1582
6980	65.2756
6975	64.59
6970	63.8829
6965	64.4505
6960	64.6009
6955	63.6054
6950	62.6818
6945	63.0738
6940	63.3554
6935	64.0767
6930	64.2247
6925	63.6031
6920	64.124
6915	64.9387
6910	64.5268
6905	63.0419
6900	63.3087
6895	64.618
6890	63.9818
6885	63.2785
6880	63.4948
6875	63.9849
6870	63.8192
6865	63.3361
6860	63.5284
6855	64.9854
6850	65.3248
6845	63.9245
6840	62.677
6835	63.8329
6830	65.2639
6825	64.3713
6820	64.6
6815	64.6595
6810	63.6919
6805	63.9075
6800	64.2449
6795	64.1441
6790	64.8387
6785	65.3367
6780	64.964
6775	65.0069
6770	66.104
6765	65.8219
6760	64.6022
6755	64.0855
6750	63.9868
6745	64.741
6740	64.6934
6735	63.6154
6730	63.9603
6725	66.1296
6720	66.2085
6715	63.8238
6710	62.8512
6705	63.9255
6700	65.7567
6695	64.9328
6690	63.9553
6685	63.6168
6680	62.8698
6675	62.72
6670	63.8108
6665	62.7647
6660	61.7617
6655	61.771
6650	62.0843
6645	63.4611
6640	64.9207
6635	63.5856
6630	61.037
6625	62.1636
6620	64.4599
6615	64.1804
6610	64.5623
6605	65.9521
6600	65.7888
6595	65.6491
6590	65.4078
6585	64.6243
6580	65.4819
6575	65.6016
6570	64.5871
6565	64.8609
6560	65.1463
6555	64.0774
6550	64.5792
6545	65.3997
6540	65.4701
6535	65.1608
6530	64.6224
6525	64.9405
6520	64.7434
6515	64.5115
6510	64.2189
6505	63.7858
6500	64.4453
6495	64.9425
6490	63.9195
6485	63.1945
6480	63.4836
6475	63.9087
6470	64.3912
6465	65.026
6460	64.4884
6455	64.7864
6450	66.1063
6445	65.2842
6440	64.2768
6435	64.2927
6430	64.5187
6425	64.8922
6420	65.1029
6415	65.1512
6410	64.8633
6405	63.5495
6400	62.7368
6395	63.0341
6390	62.7707
6385	63.1602
6380	63.9053
6375	63.6805
6370	63.419
6365	64.7407
6360	65.6929
6355	65.808
6350	65.4939
6345	65.3356
6340	65.1276
6335	64.5825
6330	64.4982
6325	63.9466
6320	63.5507
6315	63.5285
6310	64.2719
6305	64.3271
6300	62.9003
6295	63.1643
6290	64.6022
6285	64.9357
6280	64.311
6275	64.9101
6270	65.2642
6265	64.7838
6260	63.8909
6255	63.4696
6250	64.0725
6245	63.9312
6240	63.9527
6235	63.9024
6230	64.1882
6225	64.3056
6220	64.255
6215	64.5605
6210	63.9287
6205	63.593
6200	64.0246
6195	64.2906
6190	64.4288
6185	64.123
6180	64.4069
6175	65.2297
6170	65.1072
6165	64.0296
6160	64.2223
6155	64.6857
6150	64.6579
6145	63.6785
6140	64.3407
6135	65.5944
6130	64.6193
6125	63.9334
6120	65.1506
6115	65.4092
6110	63.9316
6105	63.8858
6100	65.2043
6095	65.5092
6090	64.3723
6085	63.8172
6080	64.6619
6075	64.6369
6070	64.4653
6065	64.6089
6060	64.5001
6055	64.3034
6050	64.2498
6045	64.7233
6040	64.9009
6035	64.9183
6030	64.9164
6025	64.593
6020	63.9626
6015	64.0978
6010	64.324
6005	64.3095
6000	64.6615
5995	64.8486
5990	64.7866
5985	64.1689
5980	63.5642
5975	64.0621
5970	64.4255
5965	64.1496
5960	64.1132
5955	64.3718
5950	64.1911
5945	64.2506
5940	63.9535
5935	63.6633
5930	63.6695
5925	63.6345
5920	64.3583
5915	65.1863
5910	65.2385
5905	64.7917
5900	64.2127
5895	63.5013
5890	63.6819
5885	64.3265
5880	64.6799
5875	64.8974
5870	64.6878
5865	64.7607
5860	64.6865
5855	64.7794
5850	64.4674
5845	63.3833
5840	63.6099
5835	64.9895
5830	64.9699
5825	64.1477
5820	64.0532
5815	63.8596
5810	63.9225
5805	64.8841
5800	65.1239
5795	64.6399
5790	64.4058
5785	64.7645
5780	65.1229
5775	64.2356
5770	63.9969
5765	64.8095
5760	65.0939
5755	64.2
5750	64.1769
5745	64.8498
5740	64.5702
5735	63.9339
5730	64.1623
5725	64.6062
5720	64.6945
5715	64.843
5710	65.1403
5705	65.0371
5700	64.5765
5695	64.4203
5690	64.3198
5685	64.598
5680	65.1116
5675	65.303
5670	64.8203
5665	64.0963
5660	64.1588
5655	64.4662
5650	64.9049
5645	64.9768
5640	64.9319
5635	64.8096
5630	64.5913
5625	64.5133
5620	64.5933
5615	64.699
5610	64.5795
5605	64.1419
5600	64.6631
5595	65.1806
5590	64.9971
5585	65.3091
5580	65.554
5575	65.1142
5570	64.7882
5565	65.311
5560	65.0334
5555	64.276
5550	64.5144
5545	64.9466
5540	65.2052
5535	65.122
5530	64.6953
5525	64.7449
5520	64.6583
5515	64.7116
5510	65.0933
5505	65.0446
5500	64.6936
5495	64.3869
5490	64.8257
5485	65.2035
5480	64.905
5475	64.2273
5470	64.2093
5465	64.0352
5460	63.6757
5455	63.9706
5450	64.6498
5445	64.8303
5440	64.7218
5435	63.9575
5430	63.4264
5425	63.8696
5420	63.7187
5415	63.6842
5410	64.184
5405	64.131
5400	64.5598
5395	64.8826
5390	64.8935
5385	64.9179
5380	64.739
5375	64.7639
5370	64.6863
5365	64.3644
5360	64.2002
5355	64.0621
5350	63.6818
5345	64.3223
5340	64.9876
5335	64.9632
5330	64.5424
5325	64.1878
5320	64.3178
5315	64.5645
5310	64.8274
5305	65.9152
5300	66.3384
5295	65.3224
5290	64.5062
5285	64.9179
5280	65.2318
5275	65.1316
5270	66.2641
5265	65.0445
5260	62.5592
5255	61.7961
5250	62.6965
5245	61.265
5240	58.7825
5235	60.1087
5230	60.6724
5225	60.2689
5220	63.6637
5215	65.7102
5210	64.2588
5205	63.2561
5200	62.3298
5195	62.2913
5190	63.1775
5185	63.2371
5180	64.7913
5175	65.7311
5170	65.0915
5165	64.067
5160	63.781
5155	63.8864
5150	64.1363
5145	64.32
5140	64.2357
5135	64.2036
5130	64.3514
5125	64.6395
5120	64.5932
5115	64.726
5110	64.9377
5105	64.6468
5100	64.4005
5095	64.4846
5090	64.4781
5085	64.2473
5080	64.3909
5075	64.4897
5070	64.2712
5065	64.2508
5060	64.2779
5055	64.1737
5050	64.4754
5045	64.7479
5040	64.2856
5035	63.9282
5030	64.0144
5025	64.1497
5020	64.3465
5015	64.5028
5010	64.4703
5005	64.4517
5000	64.5041
4995	64.567
4990	64.3985
4985	64.1884
4980	64.2774
4975	64.1814
4970	64.1942
4965	64.3724
4960	64.3973
4955	64.7891
4950	64.8591
4945	64.6206
4940	64.627
4935	64.5952
4930	64.6261
4925	64.686
4920	64.5356
4915	64.2796
4910	64.1659
4905	64.4026
4900	64.6496
4895	64.8336
4890	65.0502
4885	64.9754
4880	64.7035
4875	64.4687
4870	64.4523
4865	64.6041
4860	64.3641
4855	63.9199
4850	63.8693
4845	64.0314
4840	64.2554
4835	64.3944
4830	64.4652
4825	64.4689
4820	64.4576
4815	64.4989
4810	64.3413
4805	64.1781
4800	64.3037
4795	64.4092
4790	64.3287
4785	64.5827
4780	64.664
4775	64.523
4770	64.4872
4765	64.7286
4760	64.7551
4755	64.5087
4750	64.5016
4745	64.7849
4740	64.8407
4735	64.5507
4730	64.4961
4725	64.6565
4720	64.6059
4715	64.6817
4710	64.7549
4705	64.8548
4700	65.0226
4695	64.9556
4690	64.7884
4685	64.6691
4680	64.4907
4675	64.4422
4670	64.6855
4665	64.7414
4660	64.6867
4655	64.5052
4650	64.4748
4645	64.5104
4640	64.3403
4635	64.4005
4630	64.707
4625	64.7048
4620	64.4608
4615	64.5766
4610	64.4812
4605	64.5845
4600	64.9343
4595	64.8805
4590	64.7107
4585	64.5227
4580	64.5925
4575	64.5489
4570	64.5757
4565	64.542
4560	64.604
4555	65.0096
4550	65.261
4545	64.8499
4540	64.3762
4535	64.3122
4530	64.0944
4525	64.0012
4520	64.181
4515	64.2287
4510	64.2839
4505	64.5159
4500	64.8976
4495	65.0826
4490	64.8765
4485	64.5727
4480	64.506
4475	64.6431
4470	64.8724
4465	64.9089
4460	64.865
4455	64.8485
4450	64.8754
4445	64.7657
4440	64.5692
4435	64.5666
4430	64.2365
4425	64.1031
4420	65.0468
4415	65.0478
4410	66.5833
4405	74.0357
4400	80.4978
4395	69.071
4390	55.5021
4385	59.3375
4380	64.2267
4375	64.6176
4370	65.274
4365	65.563
4360	64.8584
4355	64.5168
4350	65.1114
4345	65.1996
4340	64.9975
4335	64.9614
4330	64.7942
4325	64.6569
4320	64.6774
4315	64.6152
4310	64.4786
4305	64.3716
4300	64.1701
4295	64.3474
4290	64.6029
4285	64.5534
4280	64.7527
4275	65.0043
4270	64.8731
4265	64.731
4260	64.8288
4255	64.8325
4250	64.7973
4245	64.7684
4240	64.7319
4235	64.6968
4230	64.5534
4225	64.7025
4220	64.7759
4215	64.7729
4210	64.886
4205	64.6803
4200	64.5093
4195	64.5946
4190	64.6127
4185	64.665
4180	64.4436
4175	64.6966
4170	64.9241
4165	64.4922
4160	64.38
4155	64.5151
4150	64.5572
4145	64.6045
4140	64.8071
4135	65.0073
4130	64.8823
4125	64.8127
4120	64.9396
4115	64.9398
4110	64.8908
4105	64.8454
4100	64.7184
4095	64.74
4090	64.7299
4085	64.7183
4080	64.6834
4075	64.7515
4070	64.8309
4065	64.7889
4060	64.7419
4055	64.7041
4050	64.6872
4045	64.6592
4040	64.6132
4035	64.7507
4030	64.7831
4025	64.6201
4020	64.4998
4015	64.5059
4010	64.4497
4005	64.5226
4000	64.7174
3995	64.9285
3990	64.9544
3985	64.8088
3980	64.8167
3975	64.9265
3970	64.9229
3965	64.7909
3960	64.7227
3955	64.7497
3950	64.6882
3945	64.561
3940	64.549
3935	64.6952
3930	64.864
3925	64.8738
3920	64.8385
3915	64.8283
3910	64.8466
3905	65.0158
3900	64.8681
3895	64.6264
3890	64.6986
3885	64.9152
3880	65.0249
3875	64.8689
3870	64.7092
3865	64.6692
3860	64.6688
3855	64.5977
3850	64.695
3845	65.0626
3840	65.1487
3835	64.9091
3830	64.7578
3825	64.6956
3820	64.6457
3815	64.594
3810	64.7023
3805	64.9112
3800	64.8951
3795	64.8527
3790	64.9104
3785	64.8857
3780	64.7892
3775	64.6995
3770	64.7997
3765	64.9292
3760	64.9206
3755	64.8859
3750	64.7799
3745	64.7131
3740	64.7295
3735	64.8902
3730	64.9035
3725	64.8301
3720	64.8169
3715	64.733
3710	64.7524
3705	64.9104
3700	64.8698
3695	64.7453
3690	64.6716
3685	64.7052
3680	64.6882
3675	64.7829
3670	64.9415
3665	64.9094
3660	64.7457
3655	64.7428
3650	64.9628
3645	65.029
3640	64.9191
3635	64.8847
3630	64.8821
3625	64.8566
3620	64.8988
3615	64.9356
3610	64.7545
3605	64.7726
3600	64.8422
3595	64.8032
3590	64.8239
3585	64.8022
3580	64.8414
3575	64.9532
3570	64.9405
3565	64.8636
3560	64.7387
3555	64.6657
3550	64.7775
3545	64.798
3540	64.7277
3535	64.7889
3530	64.8778
3525	64.8719
3520	64.8731
3515	64.8582
3510	64.7542
3505	64.6937
3500	64.7221
3495	64.7768
3490	64.7661
3485	64.8026
3480	64.8662
3475	64.9007
3470	64.8056
3465	64.6771
3460	64.7281
3455	64.8135
3450	64.6827
3445	64.673
3440	64.8476
3435	64.8677
3430	64.7698
3425	64.7855
3420	64.7332
3415	64.6703
3410	64.7224
3405	64.756
3400	64.7836
3395	64.8583
3390	64.8587
3385	64.8777
3380	64.8324
3375	64.8416
3370	64.8675
3365	64.9262
3360	64.8419
3355	64.7223
3350	64.8132
3345	64.801
3340	64.7658
3335	64.8234
3330	64.7578
3325	64.7296
3320	64.8432
3315	64.9272
3310	65.0204
3305	64.9908
3300	64.8176
3295	64.7295
3290	64.7967
3285	64.9003
3280	64.9134
3275	64.7712
3270	64.6965
3265	64.7921
3260	64.8758
3255	64.8709
3250	64.836
3245	64.8821
3240	64.8839
3235	64.8494
3230	64.7551
3225	64.7743
3220	64.9077
3215	64.8715
3210	64.777
3205	64.7756
3200	64.8232
3195	64.9043
3190	64.9226
3185	64.9263
3180	64.8992
3175	64.8421
3170	64.8603
3165	64.8005
3160	64.9097
3155	64.9377
3150	64.8028
3145	64.8893
3140	64.9247
3135	64.7546
3130	64.6711
3125	64.7561
3120	64.8631
3115	64.8359
3110	64.8311
3105	64.777
3100	64.8546
3095	64.9187
3090	64.8285
3085	64.7718
3080	64.8452
3075	64.8823
3070	64.8346
3065	64.8571
3060	64.8032
3055	64.7315
3050	64.7751
3045	64.9161
3040	64.9924
3035	64.9959
3030	64.9291
3025	64.871
3020	64.8567
3015	64.8361
3010	64.8113
3005	64.8022
3000	64.8973
2995	64.9666
2990	64.8644
2985	64.7377
2980	64.7482
2975	64.7759
2970	64.7257
2965	64.5736
2960	64.5967
2955	64.6018
2950	64.618
2945	64.6423
2940	64.6304
2935	64.6416
2930	64.6123
2925	64.5563
2920	64.5285
2915	64.5921
2910	64.8377
2905	64.9091
2900	64.7689
2895	64.7354
2890	64.8569
2885	64.9075
2880	64.7665
2875	64.7264
2870	64.7774
2865	64.8785
2860	64.878
2855	64.8056
2850	64.7532
2845	64.7106
2840	64.7296
2835	64.84
2830	64.9466
2825	64.9836
2820	64.9444
2815	64.8504
2810	64.8097
2805	64.8388
2800	64.9205
2795	64.9429
2790	64.9556
2785	64.9694
2780	65.0061
2775	65.0101
2770	64.9839
2765	64.9922
2760	65.0202
2755	64.9589
2750	64.8852
2745	64.9589
2740	64.9827
2735	65.0093
2730	65.02
2725	64.9706
2720	64.9961
2715	64.9631
2710	64.8432
2705	64.8416
2700	64.9748
2695	64.969
2690	64.846
2685	64.8295
2680	64.8902
2675	64.9162
2670	64.9236
2665	64.9864
2660	65.0105
2655	64.9289
2650	64.8783
2645	64.9493
2640	64.9823
2635	64.9197
2630	64.8376
2625	64.8369
2620	64.8709
2615	64.9108
2610	64.9701
2605	64.8923
2600	64.8403
2595	64.9284
2590	64.8264
2585	64.7565
2580	64.8147
2575	64.8707
2570	64.9512
2565	64.9779
2560	65.011
2555	65.0045
2550	64.9362
2545	64.852
2540	64.9042
2535	65.0255
2530	64.9994
2525	64.9562
2520	64.9464
2515	64.9014
2510	64.831
2505	64.8427
2500	64.974
2495	65.034
2490	64.9328
2485	64.8522
2480	64.926
2475	64.9852
2470	65.0353
2465	65.0532
2460	65.0079
2455	64.9454
2450	64.8462
2445	64.9393
2440	65.072
2435	64.9212
2430	64.9022
2425	65.0792
2420	65.09
2415	64.9765
2410	64.9331
2405	65.0209
2400	65.0561
2395	65.0518
2390	64.9868
2385	64.869
2380	64.8452
2375	64.9149
2370	64.9459
2365	64.9499
2360	64.9466
2355	64.9962
2350	64.9919
2345	64.8909
2340	64.8695
2335	64.9887
2330	65.0671
2325	65.0311
2320	64.9813
2315	65.0327
2310	65.0785
2305	64.9922
2300	64.9892
2295	64.9977
2290	64.9635
2285	64.9478
2280	64.9356
2275	64.8859
2270	64.9371
2265	65.073
2260	65.0068
2255	64.8837
2250	64.8302
2245	64.8824
2240	64.9682
2235	64.9535
2230	64.921
2225	64.9035
2220	64.8668
2215	64.8817
2210	64.937
2205	64.9189
2200	64.8862
2195	64.8869
2190	64.8756
2185	64.8945
2180	64.922
2175	64.9624
2170	65.0229
2165	65.0261
2160	65.0425
2155	65.0439
2150	64.8881
2145	64.8521
2140	64.9188
2135	64.9146
2130	64.8524
2125	64.811
2120	64.7983
2115	64.8285
2110	64.8787
2105	64.9334
2100	64.9902
2095	65.0192
2090	64.9961
2085	64.975
2080	64.9548
2075	65.0297
2070	65.1092
2065	65.128
2060	65.05
2055	64.9628
2050	65.0067
2045	64.9783
2040	64.9722
2035	64.9827
2030	64.9578
2025	64.9057
2020	64.8795
2015	64.9647
2010	65.0363
2005	64.9881
2000	64.977
1995	65.0302
1990	64.9883
1985	64.8685
1980	64.8304
1975	64.8794
1970	64.9903
1965	65.0834
1960	65.0269
1955	64.9531
1950	64.9665
1945	65.0113
1940	64.9716
1935	64.9345
1930	64.9189
1925	64.9713
1920	64.9734
1915	64.944
1910	65.0304
1905	65.0433
1900	64.9673
1895	64.8967
1890	64.9352
1885	64.9821
1880	64.9896
1875	65.0061
1870	64.9874
1865	64.9664
1860	64.9741
1855	64.8803
1850	64.8444
1845	64.8834
1840	64.9384
1835	64.9728
1830	65.008
1825	65.0415
1820	64.9825
1815	64.9858
1810	65.0178
1805	64.9924
1800	65.0271
1795	65.0394
1790	64.9985
1785	64.933
1780	64.9011
1775	64.9377
1770	64.9123
1765	64.8907
1760	64.8083
1755	64.805
1750	64.8169
1745	64.7606
1740	64.7641
1735	64.7736
1730	64.7601
1725	64.8123
1720	64.8096
1715	64.8159
1710	64.8684
1705	64.8894
1700	64.931
1695	64.8423
1690	64.7811
1685	64.801
1680	64.7806
1675	64.8597
1670	64.9393
1665	64.8958
1660	64.806
1655	64.8246
1650	64.8445
1645	64.8526
1640	64.8657
1635	64.8046
1630	64.7422
1625	64.7677
1620	64.7849
1615	64.7764
1610	64.7792
1605	64.7728
1600	64.7803
1595	64.7745
1590	64.7747
1585	64.754
1580	64.7647
1575	64.7249
1570	64.7042
1565	64.7794
1560	64.8128
1555	64.8063
1550	64.7704
1545	64.8142
1540	64.7718
1535	64.7023
1530	64.7236
1525	64.7954
1520	64.7564
1515	64.6806
1510	64.7441
1505	64.7817
1500	64.7541
1495	64.8138
1490	64.8004
1485	64.6834
1480	64.6868
1475	64.6965
1470	64.5996
1465	64.6683
1460	64.9582
1455	64.9908
1450	64.7087
1445	64.7288
1440	64.8819
1435	64.8324
1430	64.7137
1425	64.7384
1420	64.7942
1415	64.8105
1410	64.7103
1405	64.6931
1400	64.772
1395	64.7444
1390	64.7004
1385	64.7087
1380	64.7374
1375	64.7338
1370	64.708
1365	64.6639
1360	64.6816
1355	64.6867
1350	64.7408
1345	64.9105
1340	64.9251
1335	64.8213
1330	64.7287
1325	64.6968
1320	64.7017
1315	64.7003
1310	64.628
1305	64.6136
1300	64.7093
1295	64.8241
1290	64.8109
1285	64.6817
1280	64.5667
1275	64.5578
1270	64.5363
1265	64.5835
1260	64.6155
1255	64.5129
1250	64.5332
1245	64.5615
1240	64.569
1235	64.6832
1230	64.6731
1225	64.5714
1220	64.5793
1215	64.6665
1210	64.7305
1205	64.7843
1200	64.7264
1195	64.6558
1190	64.6403
1185	64.6059
1180	64.5434
1175	64.5017
1170	64.5355
1165	64.5334
1160	64.5752
1155	64.589
1150	64.5998
1145	64.4601
1140	64.337
1135	64.4101
1130	64.4387
1125	64.4504
1120	64.4613
1115	64.5242
1110	64.4907
1105	64.4177
1100	64.5261
1095	64.4825
1090	64.3268
1085	64.3682
1080	64.466
1075	64.502
1070	64.4099
1065	64.3282
1060	64.3887
1055	64.3322
1050	64.3096
1045	64.3645
1040	64.349
1035	64.3715
1030	64.4329
1025	64.2858
1020	64.2167
1015	64.2925
1010	64.2837
1005	64.1943
1000	64.1883
995	 64.2737
990	 64.2107
985	 64.0858
980	 64.1742
975	 64.1114
970	 63.9821
965	 64.2334
960	 64.3774
955	 64.2367
950	 64.1601
945	 64.2265
940	 64.1264
935	 64.1602
930	 64.2579
925	 64.3125
920	 64.4754
915	 64.3728
910	 64.1298
905	 64.0262
900	 64.1261
895	 64.1034
890	 63.7143
885	 63.8081
880	 64.3125
875	 64.581
870	 64.4863
865	 63.8945
860	 63.5416
855	 63.8608
850	 64.4174
845	 64.2019
840	 63.9673
835	 64.1628
830	 63.8582
825	 63.607
820	 63.5377
815	 63.3886
810	 63.4128
805	 63.7357
800	 63.4672
795	 63.1482
790	 63.4387
785	 63.548
780	 63.6272
775	 63.7249
770	 63.7225
765	 63.5742
760	 63.4324
755	 63.3936
750	 63.604
745	 63.719
740	 63.3815
735	 63.224
730	 63.1786
725	 63.2164
720	 63.5258
715	 63.6468
710	 63.2658
705	 62.9537
700	 62.7892
695	 62.744
690	 62.7552
685	 62.6851
680	 62.6132
675	 62.6162
670	 62.8454
665	 62.8035
660	 62.6376
655	 62.2445
650	 62.1705
645	 62.3391
640	 61.948
635	 61.986
630	 62.3474
625	 62.2984
620	 62.318
615	 62.2768
610	 62.1109
605	 62.324
600	 62.3332
595	 62.091
590	 62.0144
585	 62.1036
580	 62.0086
575	 61.9921
570	 61.862
565	 61.6786
560	 61.6878
555	 61.6426
550	 61.4312
545	 60.987
540	 60.5889
535	 60.3394
530	 60.5152
525	 60.9231
520	 61.0744
515	 60.5753
510	 60.5678
505	 60.6999
500	 60.2685
495	 60.1388
490	 59.3772
485	 58.7965
480	 59.1089
475	 58.7693
470	 58.7554
465	 59.2844
460	 59.451
455	 58.6119
450	 57.342
445	 56.9545
440	 57.9494
435	 57.974
430	 57.2682
425	 56.3352
420	 55.6103
415	 56.2773
410	 57.3085
405	 58.762
400	 55.6379
395	 52.3418
390	 55.7966
385	 58.7839
380	 64.7517
375	 65.9257
370	 61.2886