File: Bakgrunnsmateriale/MATLAB/FTIR/ftir_data/subBb/Mapping_36/C-4040-8_t28.asc
PE IR       SPECTRUM    SPECTRUM    ASCII       PEDS        1.60
  -1
C-CD2A~1.ASC
17/05/02
13:16:01.00
17/05/02
13:16:27.00
tln
$C-4040-8_t0028$<tbV0>[-2.5,7.0,8.0,0.0,22,1,0]
27.028
64

2002,4.07
MIRTGS : RIGHTBACK : INTERNAL 2
MIR : ON : INTERNAL 2
OPTKBR

0.200000
8
8.000000
FILLER
RATIO
SPECTRUM
UNLOCKED 256

DOUBLE
64
COMBINED
1
0
0

0.002000
RATIO

1
0
TRUE
51149
0
LEFT NOT FITTED RIGHT NOT FITTED 0
NONE
NONE
15600
12
4.427000
51148
TRUE
1 0 8 72 0 0 0 0

15798

#HDR
-1
-1
#GR
µM
%T
2.38419e-05
0.0
1.282000
0.002000
12874
8
76.7479
36.9513
#DATA
1.282000	 76.7479
1.300000	 62.2269
1.318000	 68.4812
1.336000	 62.2651
1.354000	 64.0492
1.372000	 65.4371
1.390000	 66.2363
1.408000	 64.3633
1.426000	 63.5314
1.444000	 65.9089
1.462000	 62.8637
1.480000	 63.8721
1.498000	 64.9025
1.516000	 63.7865
1.534000	 66.1091
1.552000	 63.6146
1.570000	 65.6599
1.588000	 64.7139
1.606000	 65.264
1.624000	 65.9369
1.642000	 65.4766
1.660000	 64.9904
1.678000	 64.0963
1.696000	 65.0502
1.714000	 65.2535
1.732000	 63.8261
1.750000	 65.0426
1.768000	 65.3002
1.786000	 65.5027
1.804000	 65.1648
1.822000	 65.0183
1.840000	 63.9782
1.858000	 65.7669
1.876000	 64.5793
1.894000	 66.1471
1.912000	 64.373
1.930000	 64.5269
1.948000	 65.0637
1.966000	 65.2715
1.984000	 65.2842
2.002000	 65.0498
2.020000	 64.8293
2.038000	 64.5263
2.056000	 65.1165
2.074000	 65.3316
2.092000	 65.2858
2.110000	 64.8911
2.128000	 65.0046
2.146000	 65.3097
2.164000	 65.2533
2.182000	 65.08
2.200000	 64.7903
2.218000	 64.9006
2.236000	 65.0324
2.254000	 65.3838
2.272000	 64.8581
2.290000	 66.8306
2.308000	 65.1177
2.326000	 64.8246
2.344000	 65.2444
2.362000	 65.2856
2.380000	 65.1609
2.398000	 64.4469
2.416000	 65.0747
2.434000	 65.4819
2.452000	 64.7996
2.470000	 65.3081
2.488000	 65.1961
2.506000	 65.36
2.524000	 65.4416
2.542000	 65.2881
2.560000	 65.0595
2.578000	 65.1333
2.596000	 65.3132
2.614000	 65.3197
2.632000	 65.1837
2.650000	 65.025
2.668000	 65.2431
2.686000	 65.199
2.704000	 65.2481
2.722000	 65.2449
2.740000	 65.3818
2.758000	 65.1469
2.776000	 65.3169
2.794000	 65.2759
2.812000	 65.4256
2.830000	 65.182
2.848000	 65.219
2.866000	 65.2342
2.884000	 65.2988
2.902000	 65.4212
2.920000	 65.3495
2.938000	 65.2908
2.956000	 64.9513
2.974000	 65.2802
2.992000	 65.2134
3.010000	 65.2243
3.028000	 65.1605
3.046000	 65.1359
3.064000	 65.2631
3.082000	 65.1255
3.100000	 65.2309
3.118000	 65.1439
3.136000	 65.2585
3.154000	 65.1286
3.172000	 65.2686
3.190000	 65.113
3.208000	 65.3813
3.226000	 65.2769
3.244000	 65.2534
3.262000	 65.1531
3.280000	 65.2083
3.298000	 65.1472
3.316000	 65.2836
3.334000	 65.2911
3.352000	 65.1469
3.370000	 65.0858
3.388000	 65.0385
3.406000	 65.2805
3.424000	 65.011
3.442000	 65.0505
3.460000	 65.0748
3.478000	 65.1963
3.496000	 65.196
3.514000	 65.13
3.532000	 65.2672
3.550000	 65.3013
3.568000	 65.3931
3.586000	 65.3623
3.604000	 65.3809
3.622000	 65.281
3.640000	 65.1904
3.658000	 65.2686
3.676000	 65.1964
3.694000	 65.3924
3.712000	 65.318
3.730000	 65.3052
3.748000	 65.2973
3.766000	 65.2416
3.784000	 65.1589
3.802000	 65.3592
3.820000	 65.2369
3.838000	 65.2933
3.856000	 65.3821
3.874000	 65.2613
3.892000	 65.3196
3.910000	 65.301
3.928000	 65.339
3.946000	 65.246
3.964000	 65.3673
3.982000	 65.2905
4.000000	 65.3743
4.018000	 65.3173
4.036000	 65.3433
4.054000	 65.3039
4.072000	 65.3536
4.090000	 65.3396
4.108000	 65.419
4.125999	 65.3147
4.144000	 65.3364
4.162000	 65.3568
4.180000	 65.2845
4.198000	 65.2213
4.216000	 65.3514
4.234000	 65.2178
4.252000	 65.2828
4.270000	 65.2078
4.288000	 65.3589
4.306000	 65.2855
4.324000	 65.2786
4.342000	 65.2836
4.359999	 65.4768
4.378000	 65.5365
4.396000	 65.3106
4.414000	 65.4197
4.432000	 65.3287
4.450000	 65.4483
4.468000	 65.3529
4.486000	 65.3062
4.504000	 65.3837
4.522000	 65.361
4.540000	 65.3552
4.558000	 65.327
4.576000	 65.4185
4.594000	 65.3259
4.612000	 65.4316
4.630000	 65.3291
4.648000	 65.437
4.666000	 65.372
4.684000	 65.463
4.702000	 65.4221
4.720000	 65.4014
4.738000	 65.3091
4.756000	 65.4163
4.774000	 65.4046
4.792000	 65.4795
4.810000	 65.3327
4.828000	 65.1374
4.846000	 65.2689
4.864000	 65.3244
4.882000	 65.3839
4.900000	 65.4381
4.918000	 65.4446
4.936000	 65.3181
4.954000	 65.3751
4.972000	 65.4587
4.990000	 65.4343
5.008000	 65.3796
5.026000	 65.2958
5.044000	 65.4772
5.062000	 65.5337
5.080000	 65.4472
5.098000	 65.3814
5.116000	 65.3829
5.134000	 65.2715
5.152000	 65.249
5.170000	 65.3425
5.188000	 65.3775
5.206000	 65.3548
5.224000	 65.3584
5.242000	 65.3929
5.260000	 65.4201
5.278000	 65.4685
5.296000	 65.3747
5.314000	 65.3312
5.332000	 65.364
5.350000	 65.3934
5.368000	 65.3495
5.386000	 65.3833
5.404000	 65.435
5.422000	 65.4911
5.440000	 65.4526
5.458000	 65.3113
5.476000	 65.2687
5.494000	 65.3267
5.512000	 65.307
5.530000	 65.2219
5.548000	 65.3058
5.566000	 65.3413
5.584000	 65.3133
5.602000	 65.3614
5.620000	 65.3608
5.638000	 65.3542
5.656000	 65.3918
5.674000	 65.3698
5.692000	 65.2628
5.710000	 65.1996
5.728000	 65.2045
5.746000	 65.198
5.764000	 65.1175
5.782000	 65.0468
5.800000	 65.1464
5.818000	 65.159
5.836000	 65.2056
5.854000	 65.3291
5.872000	 65.3751
5.890000	 65.2848
5.908000	 65.1608
5.926000	 65.1925
5.944000	 65.2433
5.962000	 65.2941
5.980000	 65.3215
5.998000	 65.3058
6.016000	 65.3142
6.034000	 65.3133
6.052000	 65.2406
6.070000	 65.2568
6.088000	 65.2994
6.106000	 65.3032
6.124000	 65.2789
6.142000	 65.2703
6.160000	 65.2778
6.178000	 65.2507
6.196000	 65.2271
6.214000	 65.2118
6.232000	 65.1403
6.250000	 65.1267
6.268000	 65.1733
6.286000	 65.2262
6.304000	 65.2335
6.322000	 65.2218
6.340000	 65.1991
6.358000	 65.0712
6.376000	 65.0534
6.394000	 65.1697
6.412000	 65.2593
6.430000	 65.2653
6.448000	 65.1777
6.466000	 65.1291
6.484000	 65.1114
6.502000	 65.1151
6.520000	 65.1529
6.538000	 65.1627
6.556000	 65.1076
6.574000	 65.0788
6.592000	 65.1362
6.610000	 65.1428
6.628000	 65.0903
6.646000	 65.0593
6.664000	 65.0406
6.682000	 65.1063
6.700000	 65.2671
6.718000	 65.3324
6.736000	 65.2678
6.754000	 65.1517
6.772000	 65.0848
6.790000	 65.074
6.808000	 65.0472
6.826000	 65.0215
6.844000	 65.0099
6.862000	 65.0281
6.880000	 65.1167
6.898000	 65.187
6.916000	 65.1425
6.934000	 65.0915
6.952000	 65.1738
6.970000	 65.3093
6.988000	 65.3075
7.006000	 65.2129
7.024000	 65.1908
7.042000	 65.2184
7.060000	 65.2008
7.078000	 65.1393
7.096000	 65.0735
7.114000	 65.0002
7.132000	 64.939
7.150000	 64.9571
7.168000	 65.04
7.186000	 65.1001
7.204000	 65.0792
7.222000	 64.9907
7.240000	 64.9292
7.258000	 64.9606
7.276000	 65.0663
7.294000	 65.1972
7.312000	 65.2852
7.330000	 65.278
7.348000	 65.199
7.366000	 65.1252
7.384000	 65.1037
7.402000	 65.1163
7.420000	 65.1386
7.438000	 65.1644
7.456000	 65.1871
7.474000	 65.2108
7.492000	 65.2282
7.510000	 65.2144
7.528000	 65.1855
7.546000	 65.18
7.564000	 65.1898
7.582000	 65.18
7.600000	 65.1367
7.618000	 65.0761
7.636000	 65.0342
7.654000	 65.0388
7.672000	 65.0794
7.690000	 65.1245
7.708000	 65.1576
7.726000	 65.1784
7.744000	 65.1827
7.762000	 65.1642
7.780000	 65.1258
7.798000	 65.0806
7.816000	 65.0428
7.834000	 65.0228
7.852000	 65.0258
7.870000	 65.0459
7.888000	 65.0636
7.906000	 65.0664
7.924000	 65.0639
7.942000	 65.0668
7.960000	 65.0604
7.978000	 65.0281
7.996000	 64.9861
8.013999	 64.9677
8.032000	 64.9837
8.050000	 65.0213
8.068000	 65.0669
8.086000	 65.1107
8.103999	 65.1396
8.122000	 65.142
8.140000	 65.1177
8.158000	 65.0737
8.176000	 65.0222
8.193999	 64.976
8.212000	 64.9369
8.230000	 64.8995
8.248000	 64.8733
8.266000	 64.8868
8.283999	 64.9551
8.302000	 65.0492
8.320000	 65.1164
8.338000	 65.1221
8.356000	 65.0661
8.374000	 64.9727
8.391999	 64.8817
8.410000	 64.8342
8.428000	 64.8476
8.446000	 64.8995
8.464000	 64.9478
8.481999	 64.9683
8.500000	 64.97
8.518000	 64.9761
8.536000	 64.9947
8.554000	 65.007
8.571999	 64.9872
8.590000	 64.9344
8.608000	 64.8768
8.626000	 64.8475
8.644000	 64.8562
8.661999	 64.8863
8.680000	 64.9167
8.698000	 64.9404
8.716000	 64.9564
8.734000	 64.9545
8.751999	 64.9257
8.770000	 64.8843
8.788000	 64.8638
8.806000	 64.8823
8.824000	 64.9235
8.842000	 64.9575
8.859999	 64.9694
8.878000	 64.9608
8.896000	 64.9374
8.914000	 64.9035
8.932000	 64.8666
8.949999	 64.843
8.968000	 64.8494
8.986000	 64.8897
9.004000	 64.9463
9.022000	 64.9942
9.039999	 65.0188
9.058000	 65.0248
9.076000	 65.0238
9.094000	 65.0187
9.112000	 65.0033
9.129999	 64.9786
9.148000	 64.9605
9.166000	 64.9661
9.184000	 64.9896
9.202000	 64.9994
9.219999	 64.9642
9.238000	 64.8857
9.256000	 64.8019
9.274000	 64.7554
9.292000	 64.7593
9.310000	 64.7954
9.327999	 64.837
9.346000	 64.8689
9.364000	 64.888
9.382000	 64.8947
9.400000	 64.8888
9.418000	 64.8733
9.436000	 64.8567
9.454000	 64.8485
9.472000	 64.8514
9.490000	 64.8597
9.508000	 64.8644
9.526000	 64.8604
9.544000	 64.8485
9.561999	 64.8335
9.580000	 64.8189
9.598000	 64.8051
9.616000	 64.7908
9.634000	 64.7747
9.652000	 64.7572
9.670000	 64.74
9.688000	 64.7258
9.706000	 64.7181
9.724000	 64.7195
9.742000	 64.7297
9.760000	 64.7441
9.778000	 64.7555
9.795999	 64.7598
9.814000	 64.7593
9.832000	 64.7619
9.850000	 64.7738
9.868000	 64.7947
9.886000	 64.8186
9.904000	 64.8381
9.922000	 64.8494
9.940000	 64.8519
9.958000	 64.8459
9.976000	 64.8332
9.994000	 64.8198
10.012	64.8157
10.03	64.8306
10.048	64.8648
10.066	64.9055
10.084	64.9338
10.102	64.9389
10.12	64.9261
10.138	64.9145
10.156	64.9226
10.174	64.9536
10.192	64.9933
10.21	65.0191
10.228	65.0146
10.246	64.9768
10.264	64.916
10.282	64.8481
10.3	64.7884
10.318	64.7479
10.336	64.7294
10.354	64.7265
10.372	64.7262
10.39	64.7164
10.408	64.6938
10.426	64.6682
10.444	64.6591
10.462	64.6835
10.48	64.7457
10.498	64.8315
10.516	64.9142
10.534	64.9641
10.552	64.9621
10.57	64.9069
10.588	64.814
10.606	64.7088
10.624	64.617
10.642	64.5564
10.66	64.5327
10.678	64.5429
10.696	64.5785
10.714	64.6303
10.732	64.689
10.75	64.7428
10.768	64.778
10.786	64.783
10.804	64.7499
10.822	64.682
10.84	64.5966
10.858	64.522
10.876	64.4885
10.894	64.5126
10.912	64.5885
10.93	64.6872
10.948	64.7706
10.966	64.8065
10.984	64.7815
11.002	64.6993
11.02	64.5718
11.038	64.4089
11.056	64.2148
11.074	63.9967
11.092	63.7758
11.11	63.5893
11.128	63.4798
11.146	63.4745
11.164	63.5715
11.182	63.7413
11.2	63.938
11.218	64.1237
11.236	64.278
11.254	64.4012
11.272	64.506
11.29	64.6041
11.308	64.6984
11.326	64.7815
11.344	64.8411
11.362	64.8675
11.38	64.8574
11.398	64.8153
11.416	64.7518
11.434	64.6792
11.452	64.6121
11.47	64.5633
11.488	64.5386
11.506	64.5375
11.524	64.5516
11.542	64.5676
11.56	64.5717
11.578	64.556
11.596	64.5226
11.614	64.4821
11.632	64.4516
11.65	64.4463
11.668	64.4723
11.686	64.5233
11.704	64.5818
11.722	64.6247
11.74	64.6342
11.758	64.6049
11.776	64.5461
11.794	64.4803
11.812	64.4326
11.83	64.4231
11.848	64.4584
11.866	64.5306
11.884	64.6212
11.902	64.7083
11.92	64.7745
11.938	64.8129
11.956	64.8252
11.974	64.8192
11.992	64.8033
12.01	64.7824
12.028	64.7569
12.046	64.7245
12.064	64.6834
12.082	64.6348
12.1	64.5835
12.118	64.5356
12.136	64.4956
12.154	64.4641
12.172	64.4384
12.19	64.4141
12.208	64.3872
12.226	64.3559
12.244	64.3216
12.262	64.2872
12.28	64.2569
12.298	64.2343
12.316	64.2217
12.334	64.2198
12.352	64.227
12.37	64.2405
12.388	64.2563
12.406	64.2704
12.424	64.2794
12.442	64.2814
12.46	64.2757
12.478	64.2641
12.496	64.2496
12.514	64.2359
12.532	64.2263
12.55	64.2225
12.568	64.2241
12.586	64.2285
12.604	64.2315
12.622	64.2285
12.64	64.2157
12.658	64.1904
12.676	64.1527
12.694	64.1059
12.712	64.0566
12.73	64.0137
12.748	63.9867
12.766	63.9827
12.784	64.0044
12.802	64.0494
12.82	64.1096
12.838	64.1736
12.856	64.2289
12.874	64.2649
12.892	64.2752
12.91	64.2586
12.928	64.2192
12.946	64.1642
12.964	64.1029
12.982	64.0436
13	63.9927
13.018	63.9541
13.036	63.9291
13.054	63.9172
13.072	63.9166
13.09	63.9245
13.108	63.9377
13.126	63.952
13.144	63.9641
13.162	63.9714
13.18	63.9728
13.198	63.969
13.216	63.9623
13.234	63.9562
13.252	63.954
13.27	63.9577
13.288	63.9676
13.306	63.9818
13.324	63.9966
13.342	64.0072
13.36	64.0087
13.378	63.9978
13.396	63.9728
13.414	63.9352
13.432	63.8887
13.45	63.839
13.468	63.7925
13.486	63.7549
13.504	63.7302
13.522	63.72
13.54	63.7239
13.558	63.7394
13.576	63.7625
13.594	63.7889
13.612	63.8142
13.63	63.8347
13.648	63.8477
13.666	63.8509
13.684	63.8427
13.702	63.8217
13.72	63.7871
13.738	63.7387
13.756	63.6777
13.774	63.607
13.792	63.5315
13.81	63.4572
13.828	63.3917
13.846	63.3414
13.864	63.3112
13.882	63.3031
13.9	63.3158
13.918	63.345
13.936	63.3846
13.954	63.428
13.972	63.4689
13.99	63.5032
14.008	63.5288
14.026	63.5458
14.044	63.556
14.062	63.5618
14.08	63.5648
14.098	63.5653
14.116	63.5619
14.134	63.5524
14.152	63.5341
14.17	63.505
14.188	63.4645
14.206	63.414
14.224	63.357
14.242	63.2986
14.26	63.2443
14.278	63.1994
14.296	63.168
14.314	63.1525
14.332	63.1535
14.35	63.17
14.368	63.1997
14.386	63.2392
14.404	63.2844
14.422	63.3315
14.44	63.3767
14.458	63.4169
14.476	63.4496
14.494	63.4725
14.512	63.4845
14.53	63.4851
14.548	63.4749
14.566	63.4556
14.584	63.4292
14.602	63.3985
14.62	63.3667
14.638	63.3369
14.656	63.3117
14.674	63.293
14.692	63.2817
14.71	63.2779
14.728	63.2815
14.746	63.2916
14.764	63.3072
14.782	63.3274
14.8	63.3516
14.818	63.379
14.836	63.409
14.854	63.4407
14.872	63.4727
14.89	63.5032
14.908	63.53
14.926	63.5509
14.944	63.5638
14.962	63.5669
14.98	63.5592
14.998	63.5409
15.016	63.5128
15.034	63.4772
15.052	63.4369
15.07	63.3953
15.088	63.3554
15.106	63.3196
15.124	63.2901
15.142	63.2677
15.16	63.2525
15.178	63.2441
15.196	63.2416
15.214	63.2436
15.232	63.2488
15.25	63.2565
15.268	63.2658
15.286	63.2765
15.304	63.2881
15.322	63.2997
15.34	63.3105
15.358	63.3189
15.376	63.3227
15.394	63.3201
15.412	63.3096
15.43	63.2896
15.448	63.2597
15.466	63.2209
15.484	63.175
15.502	63.1243
15.52	63.073
15.538	63.0251
15.556	62.9837
15.574	62.952
15.592	62.9325
15.61	62.9256
15.628	62.9306
15.646	62.9461
15.664	62.9687
15.682	62.9951
15.7	63.0218
15.718	63.0453
15.736	63.0619
15.754	63.07
15.772	63.0683
15.79	63.0564
15.808	63.0358
15.826	63.0082
15.844	62.9758
15.862	62.9423
15.88	62.9104
15.898	62.8829
15.916	62.8626
15.934	62.8514
15.952	62.8503
15.97	62.8597
15.988	62.8788
16.006	62.9061
16.024	62.9399
16.042	62.9767
16.06	63.0136
16.078	63.0479
16.096	63.0764
16.114	63.0969
16.132	63.1083
16.15	63.1097
16.168	63.102
16.186	63.0867
16.204	63.0654
16.222	63.0417
16.24	63.0185
16.258	62.9984
16.276	62.9849
16.294	62.9797
16.312	62.9839
16.33	62.9983
16.348	63.0216
16.366	63.0527
16.384	63.0889
16.402	63.1265
16.42	63.163
16.438	63.1943
16.456	63.2171
16.474	63.2296
16.492	63.2298
16.51	63.2178
16.528	63.1941
16.546	63.1604
16.564	63.1195
16.582	63.0733
16.6	63.0255
16.618	62.9785
16.636	62.9339
16.654	62.894
16.672	62.859
16.69	62.8295
16.708	62.8051
16.726	62.7855
16.744	62.77
16.762	62.7582
16.78	62.7499
16.798	62.7451
16.816	62.7438
16.834	62.7464
16.852	62.7532
16.87	62.7642
16.888	62.7792
16.906	62.7981
16.924	62.8202
16.942	62.8452
16.96	62.8718
16.978	62.8994
16.996	62.9268
17.014	62.9529
17.032	62.977
17.05	62.9978
17.068	63.0149
17.086	63.0276
17.104	63.0352
17.122	63.0375
17.14	63.0342
17.158	63.0251
17.176	63.0104
17.194	62.99
17.212	62.9642
17.23	62.9333
17.248	62.8978
17.266	62.858
17.284	62.8149
17.302	62.7692
17.32	62.7216
17.338	62.6737
17.356	62.6258
17.374	62.5798
17.392	62.5364
17.41	62.4968
17.428	62.4621
17.446	62.4329
17.464	62.4102
17.482	62.394
17.5	62.3844
17.518	62.3809
17.536	62.3832
17.554	62.3901
17.572	62.401
17.59	62.4144
17.608	62.429
17.626	62.4437
17.644	62.4568
17.662	62.4678
17.68	62.475
17.698	62.4782
17.716	62.4765
17.734	62.4698
17.752	62.4581
17.77	62.4418
17.788	62.4211
17.806	62.3968
17.824	62.3694
17.842	62.3396
17.86	62.3081
17.878	62.2753
17.896	62.2418
17.914	62.2077
17.932	62.1734
17.95	62.1388
17.968	62.1041
17.986	62.0694
18.004	62.0346
18.022	61.9998
18.04	61.9652
18.058	61.9311
18.076	61.8976
18.094	61.8655
18.112	61.8349
18.13	61.807
18.148	61.7821
18.166	61.7611
18.184	61.7446
18.202	61.7332
18.22	61.7276
18.238	61.7279
18.256	61.7345
18.274	61.7474
18.292	61.7665
18.31	61.7915
18.328	61.8219
18.346	61.8571
18.364	61.896
18.382	61.9379
18.4	61.9816
18.418	62.0256
18.436	62.0692
18.454	62.1105
18.472	62.149
18.49	62.1826
18.508	62.2108
18.526	62.2322
18.544	62.2464
18.562	62.2525
18.58	62.2505
18.598	62.2404
18.616	62.2226
18.634	62.1982
18.652	62.1677
18.67	62.1332
18.688	62.0954
18.706	62.0569
18.724	62.0183
18.742	61.9821
18.76	61.9489
18.778	61.9205
18.796	61.897
18.814	61.8794
18.832	61.8673
18.85	61.8607
18.868	61.8587
18.886	61.8605
18.904	61.8647
18.922	61.8702
18.94	61.8758
18.958	61.8801
18.976	61.8823
18.994	61.8815
19.012	61.8776
19.03	61.8703
19.048	61.8603
19.066	61.8479
19.084	61.8345
19.102	61.8208
19.12	61.8083
19.138	61.7981
19.156	61.7911
19.174	61.7887
19.192	61.7911
19.21	61.7993
19.228	61.8129
19.246	61.8317
19.264	61.8551
19.282	61.882
19.3	61.912
19.318	61.9432
19.336	61.9756
19.354	62.0072
19.372	62.038
19.39	62.0667
19.408	62.0935
19.426	62.1176
19.444	62.1392
19.462	62.1585
19.48	62.1754
19.498	62.1904
19.516	62.2038
19.534	62.2157
19.552	62.2261
19.57	62.2352
19.588	62.2431
19.606	62.2496
19.624	62.2546
19.642	62.2582
19.66	62.26
19.678	62.2601
19.696	62.2585
19.714	62.2553
19.732	62.2507
19.75	62.2446
19.768	62.2376
19.786	62.2296
19.804	62.2212
19.822	62.2125
19.84	62.204
19.858	62.1962
19.876	62.189
19.894	62.183
19.912	62.1779
19.93	62.1737
19.948	62.1706
19.966	62.1675
19.984	62.1649
20.002	62.1612
20.02	62.1567
20.038	62.15
20.056	62.1401
20.074	62.1266
20.092	62.1076
20.11	62.0834
20.128	62.0518
20.146	62.0131
20.164	61.9662
20.182	61.9107
20.2	61.847
20.218	61.7748
20.236	61.6949
20.254	61.6087
20.272	61.516
20.29	61.4201
20.308	61.3203
20.326	61.2201
20.344	61.1202
20.362	61.0222
20.38	60.9289
20.398	60.8399
20.416	60.7582
20.434	60.6837
20.452	60.6175
20.47	60.5603
20.488	60.5118
20.506	60.4725
20.524	60.4418
20.542	60.4185
20.56	60.4028
20.578	60.3929
20.596	60.3885
20.614	60.3885
20.632	60.3909
20.65	60.3962
20.668	60.4026
20.686	60.4103
20.704	60.4186
20.722	60.427
20.74	60.436
20.758	60.4459
20.776	60.4565
20.794	60.4688
20.812	60.4827
20.83	60.4988
20.848	60.5182
20.866	60.5405
20.884	60.5668
20.902	60.597
20.92	60.631
20.938	60.6694
20.956	60.7115
20.974	60.7566
20.992	60.8051
21.01	60.8552
21.028	60.907
21.046	60.9594
21.064	61.0107
21.082	61.0614
21.1	61.1092
21.118	61.1541
21.136	61.1953
21.154	61.2314
21.172	61.2629
21.19	61.288
21.208	61.307
21.226	61.3193
21.244	61.324
21.262	61.3215
21.28	61.3111
21.298	61.2927
21.316	61.2665
21.334	61.2324
21.352	61.1906
21.37	61.1417
21.388	61.0854
21.406	61.0228
21.424	60.9551
21.442	60.8816
21.46	60.8053
21.478	60.726
21.496	60.645
21.514	60.5655
21.532	60.4862
21.55	60.411
21.568	60.3412
21.586	60.2769
21.604	60.2221
21.622	60.1759
21.64	60.1405
21.658	60.1179
21.676	60.1074
21.694	60.1102
21.712	60.1267
21.73	60.1563
21.748	60.1986
21.766	60.2542
21.784	60.3201
21.802	60.3956
21.82	60.4805
21.838	60.5697
21.856	60.6645
21.874	60.7616
21.892	60.8562
21.91	60.9504
21.928	61.0387
21.946	61.1188
21.964	61.1915
21.982	61.2517
22	61.2998
22.018	61.335
22.036	61.3546
22.054	61.3593
22.072	61.3494
22.09	61.3246
22.108	61.2852
22.126	61.2342
22.144	61.1707
22.162	61.0968
22.18	61.0174
22.198	60.9301
22.216	60.8395
22.234	60.7496
22.252	60.6582
22.27	60.571
22.288	60.4897
22.306	60.4137
22.324	60.3475
22.342	60.291
22.36	60.2447
22.378	60.2107
22.396	60.1888
22.414	60.1787
22.432	60.1805
22.45	60.1944
22.468	60.2185
22.486	60.2523
22.504	60.296
22.522	60.3463
22.54	60.403
22.558	60.4657
22.576	60.5306
22.594	60.5982
22.612	60.6674
22.63	60.7345
22.648	60.8008
22.666	60.8646
22.684	60.9235
22.702	60.9787
22.72	61.0287
22.738	61.0723
22.756	61.11
22.774	61.1411
22.792	61.165
22.81	61.1821
22.828	61.1918
22.846	61.194
22.864	61.1888
22.882	61.1758
22.9	61.1548
22.918	61.1259
22.936	61.0886
22.954	61.0429
22.972	60.9889
22.99	60.9267
23.008	60.8559
23.026	60.7771
23.044	60.6908
23.062	60.5966
23.08	60.4952
23.098	60.3883
23.116	60.2753
23.134	60.1571
23.152	60.0366
23.17	59.9123
23.188	59.786
23.206	59.6609
23.224	59.5358
23.242	59.4123
23.26	59.2936
23.278	59.1787
23.296	59.0688
23.314	58.9673
23.332	58.8734
23.35	58.7876
23.368	58.7121
23.386	58.6468
23.404	58.5914
23.422	58.5462
23.44	58.5119
23.458	58.4875
23.476	58.4719
23.494	58.466
23.512	58.4687
23.53	58.4775
23.548	58.4928
23.566	58.5142
23.584	58.5389
23.602	58.5665
23.62	58.5975
23.638	58.6294
23.656	58.6613
23.674	58.694
23.692	58.7258
23.71	58.756
23.728	58.7851
23.746	58.8124
23.764	58.8372
23.782	58.8599
23.8	58.8805
23.818	58.8991
23.836	58.9155
23.854	58.9301
23.872	58.9438
23.89	58.9565
23.908	58.9679
23.926	58.9771
23.944	58.9851
23.962	58.9909
23.98	58.9928
23.998	58.9907
24.016	58.985
24.034	58.9731
24.052	58.9542
24.07	58.9291
24.088	58.8964
24.106	58.8546
24.124	58.8044
24.142	58.7458
24.16	58.6783
24.178	58.6013
24.196	58.516
24.214	58.4246
24.232	58.3252
24.25	58.2191
24.268	58.1118
24.286	58.0044
24.304	57.8945
24.322	57.7886
24.34	57.6914
24.358	57.5985
24.376	57.5148
24.394	57.4469
24.412	57.3926
24.43	57.3525
24.448	57.3305
24.466	57.3286
24.484	57.3447
24.502	57.3786
24.52	57.4307
24.538	57.5025
24.556	57.5894
24.574	57.6869
24.592	57.7987
24.61	57.9214
24.628	58.047
24.646	58.1748
24.664	58.3076
24.682	58.4361
24.7	58.5533
24.718	58.6658
24.736	58.767
24.754	58.8471
24.772	58.9076
24.79	58.9496
24.808	58.9671
24.826	58.9559
24.844	58.9189
24.862	58.8564
24.88	58.7678
24.898	58.6508
24.916	58.5088
24.934	58.3472
24.952	58.1666
24.97	57.9642
24.988	57.748
25.006	57.5249
25.024	57.2881
25.042	57.0437
25.06	56.8035
25.078	56.5688
25.096	56.3345
25.114	56.1124
25.132	55.9126
25.15	55.7275
25.168	55.562
25.186	55.4258
25.204	55.3219
25.222	55.2455
25.24	55.2015
25.258	55.1948
25.276	55.2238
25.294	55.2877
25.312	55.3875
25.33	55.5246
25.348	55.6988
25.366	55.9066
25.384	56.1446
25.402	56.4156
25.42	56.7178
25.438	57.0455
25.456	57.3957
25.474	57.7725
25.492	58.1711
25.51	58.5855
25.528	59.017
25.546	59.4667
25.564	59.9282
25.582	60.396
25.6	60.8747
25.618	61.3615
25.636	61.8503
25.654	62.3382
25.672	62.8289
25.69	63.3196
25.708	63.8071
25.726	64.2917
25.744	64.7743
25.762	65.2535
25.78	65.7282
25.798	66.1994
25.816	66.6667
25.834	67.1287
25.852	67.5853
25.87	68.0378
25.888	68.484
25.906	68.9215
25.924	69.3509
25.942	69.773
25.96	70.185
25.978	70.5847
25.996	70.9753
26.014	71.3547
26.032	71.7178
26.05	72.0607
26.068	72.3879
26.086	72.6965
26.104	72.9818
26.122	73.2427
26.14	73.4836
26.158	73.6984
26.176	73.8802
26.194	74.0291
26.212	74.1489
26.23	74.2329
26.248	74.2747
26.266	74.2778
26.284	74.2429
26.302	74.1624
26.32	74.0295
26.338	73.8474
26.356	73.617
26.374	73.3352
26.392	72.9999
26.41	72.6132
26.428	72.1746
26.446	71.6827
26.464	71.1358
26.482	70.5331
26.5	69.8781
26.518	69.1744
26.536	68.4238
26.554	67.6229
26.572	66.7756
26.59	65.8865
26.608	64.9571
26.626	63.983
26.644	62.9701
26.662	61.925
26.68	60.8493
26.698	59.738
26.716	58.5973
26.734	57.4342
26.752	56.2505
26.77	55.0411
26.788	53.8116
26.806	52.5677
26.824	51.3092
26.842	50.0314
26.86	48.7428
26.878	47.4521
26.896	46.1595
26.914	44.8579
26.932	43.5585
26.95	42.2733
26.968	40.9375
26.986	39.4959
27.004	38.1597
27.022	37.1469
27.028	36.9513