File: Bakgrunnsmateriale/MATLAB/FTIR/ftir_data/subBb/Mapping_36/C-4040-8_t23.asc
PE IR       SPECTRUM    SPECTRUM    ASCII       PEDS        1.60
  -1
C-AD26~1.ASC
17/05/02
12:46:03.00
17/05/02
12:46:30.00
tln
$C-4040-8_t0023$<tbV0>[-7.5,2.0,8.0,0.0,22,1,0]
27.028
64

2002,4.07
MIRTGS : RIGHTBACK : INTERNAL 2
MIR : ON : INTERNAL 2
OPTKBR

0.200000
8
8.000000
FILLER
RATIO
SPECTRUM
UNLOCKED 256

DOUBLE
64
COMBINED
1
0
0

0.002000
RATIO

1
0
TRUE
51149
0
LEFT NOT FITTED RIGHT NOT FITTED 0
NONE
NONE
15600
12
4.427000
51148
TRUE
1 0 8 72 0 0 0 0

15798

#HDR
-1
-1
#GR
µM
%T
2.38419e-05
0.0
1.282000
0.002000
12874
8
93.369
44.291
#DATA
1.282000	 68.4168
1.300000	 64.6559
1.318000	 63.3283
1.336000	 64.5454
1.354000	 63.7644
1.372000	 67.6754
1.390000	 66.0516
1.408000	 66.2127
1.426000	 60.5335
1.444000	 65.8116
1.462000	 63.3164
1.480000	 63.6963
1.498000	 62.8586
1.516000	 65.1984
1.534000	 66.0926
1.552000	 63.5566
1.570000	 66.0433
1.588000	 63.883
1.606000	 65.4263
1.624000	 63.8498
1.642000	 65.7397
1.660000	 64.827
1.678000	 65.6778
1.696000	 65.4106
1.714000	 64.7292
1.732000	 64.5302
1.750000	 64.8784
1.768000	 64.2213
1.786000	 66.0918
1.804000	 65.799
1.822000	 64.6218
1.840000	 65.0135
1.858000	 64.9725
1.876000	 64.7618
1.894000	 64.2157
1.912000	 66.2037
1.930000	 65.6126
1.948000	 64.4482
1.966000	 65.3669
1.984000	 64.8345
2.002000	 65.7911
2.020000	 64.9703
2.038000	 65.2875
2.056000	 64.752
2.074000	 64.8511
2.092000	 65.4297
2.110000	 64.746
2.128000	 65.6035
2.146000	 65.3457
2.164000	 65.5436
2.182000	 64.9908
2.200000	 64.8573
2.218000	 64.4579
2.236000	 64.4511
2.254000	 64.6617
2.272000	 64.3048
2.290000	 65.2421
2.308000	 64.324
2.326000	 64.4458
2.344000	 64.4002
2.362000	 64.6474
2.380000	 64.925
2.398000	 64.9638
2.416000	 65.2108
2.434000	 65.2542
2.452000	 65.3125
2.470000	 65.4932
2.488000	 65.2575
2.506000	 65.1458
2.524000	 65.3744
2.542000	 65.4738
2.560000	 65.1678
2.578000	 65.2309
2.596000	 65.2931
2.614000	 65.3924
2.632000	 65.2157
2.650000	 65.2468
2.668000	 65.2756
2.686000	 65.2424
2.704000	 65.2783
2.722000	 65.4138
2.740000	 65.3596
2.758000	 65.3311
2.776000	 65.4717
2.794000	 65.2769
2.812000	 65.1985
2.830000	 65.1892
2.848000	 65.1446
2.866000	 65.6052
2.884000	 65.3363
2.902000	 65.5152
2.920000	 65.2592
2.938000	 65.0839
2.956000	 65.2459
2.974000	 65.1184
2.992000	 65.054
3.010000	 65.2786
3.028000	 65.2395
3.046000	 65.2509
3.064000	 65.269
3.082000	 65.3629
3.100000	 65.1148
3.118000	 65.3282
3.136000	 65.1842
3.154000	 65.3219
3.172000	 65.086
3.190000	 65.3165
3.208000	 65.4063
3.226000	 65.3699
3.244000	 65.5028
3.262000	 65.4013
3.280000	 65.4781
3.298000	 65.2748
3.316000	 65.3669
3.334000	 65.2873
3.352000	 65.1897
3.370000	 65.1748
3.388000	 64.9433
3.406000	 65.0712
3.424000	 64.8399
3.442000	 65.1769
3.460000	 64.9816
3.478000	 65.1952
3.496000	 65.169
3.514000	 64.9753
3.532000	 65.2759
3.550000	 65.2433
3.568000	 65.259
3.586000	 65.2127
3.604000	 65.2617
3.622000	 65.2124
3.640000	 65.2994
3.658000	 65.4003
3.676000	 65.4164
3.694000	 65.2351
3.712000	 65.2813
3.730000	 65.2515
3.748000	 65.2525
3.766000	 65.2607
3.784000	 65.2344
3.802000	 65.4027
3.820000	 65.2585
3.838000	 65.2384
3.856000	 65.2899
3.874000	 65.276
3.892000	 65.3414
3.910000	 65.2257
3.928000	 65.3898
3.946000	 65.3398
3.964000	 65.2786
3.982000	 65.3986
4.000000	 65.4226
4.018000	 65.2594
4.036000	 65.3171
4.054000	 65.4197
4.072000	 65.378
4.090000	 65.353
4.108000	 65.5476
4.125999	 65.3385
4.144000	 65.4175
4.162000	 65.2287
4.180000	 65.2834
4.198000	 65.2833
4.216000	 65.3245
4.234000	 65.3977
4.252000	 65.3015
4.270000	 65.4453
4.288000	 65.4206
4.306000	 65.3664
4.324000	 65.2776
4.342000	 65.2806
4.359999	 65.436
4.378000	 65.2635
4.396000	 65.4605
4.414000	 65.2805
4.432000	 65.3531
4.450000	 65.3527
4.468000	 65.4509
4.486000	 65.3576
4.504000	 65.3426
4.522000	 65.2996
4.540000	 65.2673
4.558000	 65.2482
4.576000	 65.4419
4.594000	 65.3447
4.612000	 65.4747
4.630000	 65.4946
4.648000	 65.3201
4.666000	 65.255
4.684000	 65.3747
4.702000	 65.3153
4.720000	 65.2686
4.738000	 65.3865
4.756000	 65.3061
4.774000	 65.2847
4.792000	 65.3215
4.810000	 65.3265
4.828000	 65.3908
4.846000	 65.326
4.864000	 65.4274
4.882000	 65.3566
4.900000	 65.3071
4.918000	 65.3183
4.936000	 65.3662
4.954000	 65.3462
4.972000	 65.3109
4.990000	 65.3367
5.008000	 65.2695
5.026000	 65.2832
5.044000	 65.3306
5.062000	 65.357
5.080000	 65.2782
5.098000	 65.2945
5.116000	 65.3175
5.134000	 65.3571
5.152000	 65.4558
5.170000	 65.3431
5.188000	 65.2979
5.206000	 65.3162
5.224000	 65.4147
5.242000	 65.3259
5.260000	 65.321
5.278000	 65.3326
5.296000	 65.3187
5.314000	 65.326
5.332000	 65.3131
5.350000	 65.3118
5.368000	 65.2484
5.386000	 65.2699
5.404000	 65.3485
5.422000	 65.3562
5.440000	 65.3457
5.458000	 65.2697
5.476000	 65.2755
5.494000	 65.2695
5.512000	 65.352
5.530000	 65.3543
5.548000	 65.2937
5.566000	 65.3486
5.584000	 65.358
5.602000	 65.3542
5.620000	 65.3932
5.638000	 65.3923
5.656000	 65.3622
5.674000	 65.3687
5.692000	 65.3367
5.710000	 65.241
5.728000	 65.2298
5.746000	 65.2575
5.764000	 65.1179
5.782000	 65.0669
5.800000	 65.163
5.818000	 65.323
5.836000	 65.303
5.854000	 65.2281
5.872000	 65.2036
5.890000	 65.2876
5.908000	 65.3233
5.926000	 65.3344
5.944000	 65.2798
5.962000	 65.1975
5.980000	 65.1944
5.998000	 65.2169
6.016000	 65.2528
6.034000	 65.2516
6.052000	 65.1792
6.070000	 65.2035
6.088000	 65.2808
6.106000	 65.2235
6.124000	 65.1566
6.142000	 65.1731
6.160000	 65.2517
6.178000	 65.3216
6.196000	 65.2914
6.214000	 65.2169
6.232000	 65.1753
6.250000	 65.2618
6.268000	 65.2695
6.286000	 65.1835
6.304000	 65.1814
6.322000	 65.2332
6.340000	 65.1852
6.358000	 65.1275
6.376000	 65.0922
6.394000	 65.0629
6.412000	 65.0861
6.430000	 65.0336
6.448000	 65.006
6.466000	 65.0397
6.484000	 64.9888
6.502000	 65.0009
6.520000	 65.1197
6.538000	 65.1667
6.556000	 65.1473
6.574000	 65.1556
6.592000	 65.1762
6.610000	 65.2102
6.628000	 65.2518
6.646000	 65.2859
6.664000	 65.3083
6.682000	 65.2533
6.700000	 65.126
6.718000	 65.0474
6.736000	 65.0562
6.754000	 65.0938
6.772000	 65.0827
6.790000	 65.0428
6.808000	 65.0744
6.826000	 65.1465
6.844000	 65.1541
6.862000	 65.117
6.880000	 65.0767
6.898000	 65.0372
6.916000	 65.0457
6.934000	 65.0934
6.952000	 65.1155
6.970000	 65.1491
6.988000	 65.221
7.006000	 65.22
7.024000	 65.1302
7.042000	 65.0948
7.060000	 65.1135
7.078000	 65.0643
7.096000	 65.0038
7.114000	 65.0513
7.132000	 65.143
7.150000	 65.1543
7.168000	 65.0774
7.186000	 65.013
7.204000	 65.0404
7.222000	 65.1058
7.240000	 65.1267
7.258000	 65.1194
7.276000	 65.1235
7.294000	 65.1264
7.312000	 65.1013
7.330000	 65.067
7.348000	 65.0801
7.366000	 65.1535
7.384000	 65.2163
7.402000	 65.2102
7.420000	 65.185
7.438000	 65.2006
7.456000	 65.2068
7.474000	 65.1632
7.492000	 65.1368
7.510000	 65.153
7.528000	 65.1513
7.546000	 65.129
7.564000	 65.1243
7.582000	 65.1305
7.600000	 65.1467
7.618000	 65.1842
7.636000	 65.2096
7.654000	 65.1935
7.672000	 65.1583
7.690000	 65.1321
7.708000	 65.1224
7.726000	 65.1283
7.744000	 65.1301
7.762000	 65.0896
7.780000	 65.0053
7.798000	 64.9382
7.816000	 64.9389
7.834000	 64.9802
7.852000	 65.007
7.870000	 65.0168
7.888000	 65.0403
7.906000	 65.0828
7.924000	 65.121
7.942000	 65.1306
7.960000	 65.1015
7.978000	 65.0492
7.996000	 65.0194
8.013999	 65.0477
8.032000	 65.11
8.050000	 65.1457
8.068000	 65.1314
8.086000	 65.094
8.103999	 65.0621
8.122000	 65.0472
8.140000	 65.055
8.158000	 65.0722
8.176000	 65.0614
8.193999	 65.006
8.212000	 64.9463
8.230000	 64.9368
8.248000	 64.9809
8.266000	 65.026
8.283999	 65.0226
8.302000	 64.9729
8.320000	 64.9192
8.338000	 64.8968
8.356000	 64.9071
8.374000	 64.9301
8.391999	 64.9464
8.410000	 64.9478
8.428000	 64.9384
8.446000	 64.9327
8.464000	 64.9419
8.481999	 64.9627
8.500000	 64.9829
8.518000	 64.993
8.536000	 64.9911
8.554000	 64.9823
8.571999	 64.9774
8.590000	 64.9793
8.608000	 64.9728
8.626000	 64.9478
8.644000	 64.9276
8.661999	 64.9424
8.680000	 64.9801
8.698000	 64.9945
8.716000	 64.9655
8.734000	 64.9241
8.751999	 64.9069
8.770000	 64.9114
8.788000	 64.9093
8.806000	 64.8867
8.824000	 64.8552
8.842000	 64.8348
8.859999	 64.8329
8.878000	 64.8408
8.896000	 64.8452
8.914000	 64.8427
8.932000	 64.8413
8.949999	 64.8498
8.968000	 64.8644
8.986000	 64.8703
9.004000	 64.8576
9.022000	 64.8312
9.039999	 64.8077
9.058000	 64.8011
9.076000	 64.8117
9.094000	 64.8285
9.112000	 64.8413
9.129999	 64.8515
9.148000	 64.8669
9.166000	 64.8906
9.184000	 64.916
9.202000	 64.9339
9.219999	 64.9424
9.238000	 64.9481
9.256000	 64.9571
9.274000	 64.9677
9.292000	 64.975
9.310000	 64.977
9.327999	 64.982
9.346000	 65.0009
9.364000	 65.0325
9.382000	 65.056
9.400000	 65.0434
9.418000	 64.9842
9.436000	 64.8942
9.454000	 64.8031
9.472000	 64.7364
9.490000	 64.7109
9.508000	 64.7426
9.526000	 64.843
9.544000	 64.999
9.561999	 65.1599
9.580000	 65.2596
9.598000	 65.2589
9.616000	 65.1685
9.634000	 65.0362
9.652000	 64.9143
9.670000	 64.8353
9.688000	 64.8056
9.706000	 64.8116
9.724000	 64.8269
9.742000	 64.823
9.760000	 64.7839
9.778000	 64.7166
9.795999	 64.6485
9.814000	 64.6092
9.832000	 64.6132
9.850000	 64.6526
9.868000	 64.7068
9.886000	 64.7549
9.904000	 64.7832
9.922000	 64.7883
9.940000	 64.7766
9.958000	 64.7636
9.976000	 64.7653
9.994000	 64.7867
10.012	64.8186
10.03	64.8432
10.048	64.8464
10.066	64.824
10.084	64.7802
10.102	64.7216
10.12	64.6555
10.138	64.5932
10.156	64.5503
10.174	64.5398
10.192	64.5637
10.21	64.6095
10.228	64.6603
10.246	64.7049
10.264	64.7419
10.282	64.7744
10.3	64.8042
10.318	64.8305
10.336	64.8534
10.354	64.8765
10.372	64.9042
10.39	64.9345
10.408	64.9547
10.426	64.9497
10.444	64.9137
10.462	64.8615
10.48	64.8226
10.498	64.8258
10.516	64.8773
10.534	64.9556
10.552	65.0198
10.57	65.0344
10.588	64.9867
10.606	64.8943
10.624	64.7889
10.642	64.6995
10.66	64.6359
10.678	64.5908
10.696	64.55
10.714	64.5032
10.732	64.4487
10.75	64.3898
10.768	64.3311
10.786	64.2763
10.804	64.2296
10.822	64.1959
10.84	64.181
10.858	64.1862
10.876	64.2056
10.894	64.2262
10.912	64.233
10.93	64.2156
10.948	64.1715
10.966	64.1075
10.984	64.0348
11.002	63.9647
11.02	63.9067
11.038	63.8672
11.056	63.8503
11.074	63.8605
11.092	63.9015
11.11	63.9746
11.128	64.0747
11.146	64.1887
11.164	64.2969
11.182	64.3804
11.2	64.4265
11.218	64.4342
11.236	64.4147
11.254	64.3859
11.272	64.3654
11.29	64.3655
11.308	64.3894
11.326	64.4344
11.344	64.4956
11.362	64.5687
11.38	64.6497
11.398	64.7342
11.416	64.8157
11.434	64.8865
11.452	64.9391
11.47	64.9683
11.488	64.9736
11.506	64.9585
11.524	64.9303
11.542	64.8966
11.56	64.8628
11.578	64.8299
11.596	64.7941
11.614	64.749
11.632	64.69
11.65	64.6181
11.668	64.5418
11.686	64.4754
11.704	64.4338
11.722	64.4269
11.74	64.4542
11.758	64.5045
11.776	64.5587
11.794	64.5979
11.812	64.6107
11.83	64.5938
11.848	64.5536
11.866	64.5001
11.884	64.4435
11.902	64.3923
11.92	64.3522
11.938	64.3269
11.956	64.3191
11.974	64.3305
11.992	64.3606
12.01	64.405
12.028	64.4548
12.046	64.4983
12.064	64.523
12.082	64.5202
12.1	64.4869
12.118	64.4261
12.136	64.3463
12.154	64.2588
12.172	64.1749
12.19	64.1036
12.208	64.0508
12.226	64.0184
12.244	64.0053
12.262	64.0079
12.28	64.0216
12.298	64.0421
12.316	64.0656
12.334	64.0899
12.352	64.113
12.37	64.1342
12.388	64.153
12.406	64.1685
12.424	64.1799
12.442	64.1862
12.46	64.1873
12.478	64.185
12.496	64.1821
12.514	64.1826
12.532	64.1898
12.55	64.205
12.568	64.2278
12.586	64.2557
12.604	64.2855
12.622	64.314
12.64	64.3384
12.658	64.3572
12.676	64.3695
12.694	64.3757
12.712	64.377
12.73	64.3751
12.748	64.3725
12.766	64.3714
12.784	64.3727
12.802	64.3763
12.82	64.3799
12.838	64.3804
12.856	64.3743
12.874	64.3586
12.892	64.333
12.91	64.2994
12.928	64.2626
12.946	64.228
12.964	64.201
12.982	64.1839
13	64.1761
13.018	64.173
13.036	64.1678
13.054	64.1532
13.072	64.1242
13.09	64.0794
13.108	64.022
13.126	63.9591
13.144	63.8997
13.162	63.853
13.18	63.8254
13.198	63.819
13.216	63.8317
13.234	63.8576
13.252	63.8887
13.27	63.9172
13.288	63.9373
13.306	63.9459
13.324	63.9434
13.342	63.9326
13.36	63.9179
13.378	63.9037
13.396	63.8938
13.414	63.89
13.432	63.8931
13.45	63.9024
13.468	63.917
13.486	63.9354
13.504	63.9567
13.522	63.9801
13.54	64.0051
13.558	64.0312
13.576	64.0573
13.594	64.0819
13.612	64.1034
13.63	64.12
13.648	64.1303
13.666	64.1336
13.684	64.13
13.702	64.1203
13.72	64.1059
13.738	64.0881
13.756	64.0686
13.774	64.0489
13.792	64.0298
13.81	64.0119
13.828	63.9951
13.846	63.9787
13.864	63.9615
13.882	63.9419
13.9	63.9179
13.918	63.8879
13.936	63.8509
13.954	63.8075
13.972	63.7591
13.99	63.7088
14.008	63.6603
14.026	63.6182
14.044	63.5862
14.062	63.5672
14.08	63.562
14.098	63.5698
14.116	63.5878
14.134	63.6117
14.152	63.637
14.17	63.6593
14.188	63.6753
14.206	63.6829
14.224	63.682
14.242	63.6733
14.26	63.6593
14.278	63.6422
14.296	63.6244
14.314	63.6078
14.332	63.5937
14.35	63.5829
14.368	63.5755
14.386	63.571
14.404	63.5687
14.422	63.5676
14.44	63.5664
14.458	63.564
14.476	63.5593
14.494	63.5512
14.512	63.5387
14.53	63.5214
14.548	63.4988
14.566	63.4707
14.584	63.4374
14.602	63.3996
14.62	63.3583
14.638	63.3148
14.656	63.271
14.674	63.2287
14.692	63.1895
14.71	63.1553
14.728	63.1271
14.746	63.106
14.764	63.0923
14.782	63.086
14.8	63.0862
14.818	63.0921
14.836	63.1025
14.854	63.1156
14.872	63.1301
14.89	63.1448
14.908	63.1587
14.926	63.1711
14.944	63.1816
14.962	63.1902
14.98	63.1964
14.998	63.2003
15.016	63.2017
15.034	63.2005
15.052	63.1974
15.07	63.1929
15.088	63.1882
15.106	63.1846
15.124	63.1835
15.142	63.1859
15.16	63.1919
15.178	63.2009
15.196	63.2118
15.214	63.2226
15.232	63.2309
15.25	63.2346
15.268	63.232
15.286	63.2221
15.304	63.2051
15.322	63.1825
15.34	63.156
15.358	63.128
15.376	63.1015
15.394	63.0789
15.412	63.0617
15.43	63.0512
15.448	63.048
15.466	63.0512
15.484	63.0601
15.502	63.0734
15.52	63.0895
15.538	63.1072
15.556	63.1255
15.574	63.1433
15.592	63.1597
15.61	63.1741
15.628	63.1858
15.646	63.1941
15.664	63.198
15.682	63.197
15.7	63.1912
15.718	63.1805
15.736	63.1667
15.754	63.1515
15.772	63.1369
15.79	63.1264
15.808	63.1233
15.826	63.1297
15.844	63.1478
15.862	63.1787
15.88	63.2217
15.898	63.2756
15.916	63.3372
15.934	63.4021
15.952	63.4665
15.97	63.526
15.988	63.5754
16.006	63.612
16.024	63.6334
16.042	63.6386
16.06	63.6282
16.078	63.6033
16.096	63.5661
16.114	63.5198
16.132	63.4668
16.15	63.4096
16.168	63.3512
16.186	63.2928
16.204	63.2358
16.222	63.1809
16.24	63.1285
16.258	63.0786
16.276	63.0314
16.294	62.987
16.312	62.9456
16.33	62.9076
16.348	62.8736
16.366	62.844
16.384	62.8195
16.402	62.8003
16.42	62.7865
16.438	62.778
16.456	62.774
16.474	62.7737
16.492	62.776
16.51	62.7795
16.528	62.7833
16.546	62.7859
16.564	62.7863
16.582	62.7842
16.6	62.7791
16.618	62.7717
16.636	62.7623
16.654	62.7521
16.672	62.7423
16.69	62.7339
16.708	62.7287
16.726	62.7278
16.744	62.7322
16.762	62.7431
16.78	62.7603
16.798	62.784
16.816	62.8134
16.834	62.8475
16.852	62.8848
16.87	62.9231
16.888	62.9613
16.906	62.9965
16.924	63.0274
16.942	63.0525
16.96	63.0701
16.978	63.0801
16.996	63.082
17.014	63.0767
17.032	63.0647
17.05	63.0479
17.068	63.0277
17.086	63.0057
17.104	62.9846
17.122	62.9652
17.14	62.9496
17.158	62.9384
17.176	62.9324
17.194	62.9312
17.212	62.9344
17.23	62.9412
17.248	62.9496
17.266	62.9585
17.284	62.9652
17.302	62.9684
17.32	62.9658
17.338	62.9559
17.356	62.9379
17.374	62.9103
17.392	62.8737
17.41	62.828
17.428	62.7748
17.446	62.7146
17.464	62.6509
17.482	62.5851
17.5	62.5202
17.518	62.4595
17.536	62.4047
17.554	62.3599
17.572	62.3258
17.59	62.3054
17.608	62.299
17.626	62.3077
17.644	62.3307
17.662	62.3676
17.68	62.4159
17.698	62.4739
17.716	62.5383
17.734	62.6056
17.752	62.6736
17.77	62.7372
17.788	62.7953
17.806	62.8431
17.824	62.8802
17.842	62.9039
17.86	62.9145
17.878	62.9113
17.896	62.8961
17.914	62.8695
17.932	62.8347
17.95	62.7927
17.968	62.7475
17.986	62.7004
18.004	62.6543
18.022	62.6109
18.04	62.5714
18.058	62.5371
18.076	62.5081
18.094	62.4843
18.112	62.4654
18.13	62.4502
18.148	62.4382
18.166	62.4282
18.184	62.4196
18.202	62.4119
18.22	62.405
18.238	62.3989
18.256	62.3945
18.274	62.3919
18.292	62.3928
18.31	62.3976
18.328	62.4079
18.346	62.4235
18.364	62.4455
18.382	62.4731
18.4	62.506
18.418	62.5425
18.436	62.5817
18.454	62.6206
18.472	62.6583
18.49	62.6911
18.508	62.7181
18.526	62.7361
18.544	62.7446
18.562	62.7419
18.58	62.728
18.598	62.7031
18.616	62.6676
18.634	62.6236
18.652	62.5717
18.67	62.5152
18.688	62.455
18.706	62.3947
18.724	62.3351
18.742	62.2794
18.76	62.2282
18.778	62.184
18.796	62.1467
18.814	62.1176
18.832	62.0962
18.85	62.0826
18.868	62.0758
18.886	62.0753
18.904	62.0797
18.922	62.0881
18.94	62.0993
18.958	62.1123
18.976	62.126
18.994	62.1395
19.012	62.1526
19.03	62.1646
19.048	62.1761
19.066	62.1869
19.084	62.1979
19.102	62.2095
19.12	62.2225
19.138	62.2377
19.156	62.2557
19.174	62.2773
19.192	62.3028
19.21	62.3326
19.228	62.3666
19.246	62.4047
19.264	62.4464
19.282	62.4907
19.3	62.5374
19.318	62.5848
19.336	62.6328
19.354	62.6792
19.372	62.7242
19.39	62.7659
19.408	62.8043
19.426	62.838
19.444	62.867
19.462	62.8906
19.48	62.9088
19.498	62.9217
19.516	62.929
19.534	62.9314
19.552	62.9288
19.57	62.922
19.588	62.9112
19.606	62.897
19.624	62.8804
19.642	62.8614
19.66	62.841
19.678	62.8193
19.696	62.7973
19.714	62.775
19.732	62.7529
19.75	62.731
19.768	62.7094
19.786	62.6881
19.804	62.6668
19.822	62.6454
19.84	62.6234
19.858	62.6008
19.876	62.5771
19.894	62.5518
19.912	62.5249
19.93	62.4958
19.948	62.4645
19.966	62.4309
19.984	62.3948
20.002	62.3564
20.02	62.3158
20.038	62.2732
20.056	62.2288
20.074	62.183
20.092	62.1365
20.11	62.0891
20.128	62.0416
20.146	61.994
20.164	61.9466
20.182	61.8996
20.2	61.8533
20.218	61.8079
20.236	61.7637
20.254	61.7211
20.272	61.68
20.29	61.6409
20.308	61.6037
20.326	61.5686
20.344	61.5356
20.362	61.5048
20.38	61.4766
20.398	61.4508
20.416	61.4275
20.434	61.407
20.452	61.3887
20.47	61.3728
20.488	61.359
20.506	61.3471
20.524	61.3369
20.542	61.3279
20.56	61.3201
20.578	61.3131
20.596	61.3067
20.614	61.3008
20.632	61.2948
20.65	61.2889
20.668	61.2828
20.686	61.2765
20.704	61.2703
20.722	61.2638
20.74	61.2575
20.758	61.2517
20.776	61.2463
20.794	61.242
20.812	61.2386
20.83	61.2368
20.848	61.2368
20.866	61.2386
20.884	61.2429
20.902	61.2497
20.92	61.2589
20.938	61.2707
20.956	61.285
20.974	61.3015
20.992	61.3203
21.01	61.3402
21.028	61.3612
21.046	61.3825
21.064	61.4024
21.082	61.4215
21.1	61.4372
21.118	61.4497
21.136	61.458
21.154	61.4603
21.172	61.4571
21.19	61.4467
21.208	61.4291
21.226	61.4039
21.244	61.3703
21.262	61.3286
21.28	61.2791
21.298	61.2215
21.316	61.1566
21.334	61.0853
21.352	61.0073
21.37	60.9245
21.388	60.8369
21.406	60.7454
21.424	60.6519
21.442	60.5556
21.46	60.4586
21.478	60.3611
21.496	60.2634
21.514	60.1671
21.532	60.0718
21.55	59.9786
21.568	59.8879
21.586	59.7999
21.604	59.7157
21.622	59.635
21.64	59.5587
21.658	59.4874
21.676	59.4208
21.694	59.3601
21.712	59.3052
21.73	59.2566
21.748	59.2152
21.766	59.1806
21.784	59.1534
21.802	59.1341
21.82	59.1224
21.838	59.118
21.856	59.1213
21.874	59.1315
21.892	59.148
21.91	59.1712
21.928	59.199
21.946	59.231
21.964	59.2671
21.982	59.3046
22	59.3443
22.018	59.3843
22.036	59.422
22.054	59.4585
22.072	59.4918
22.09	59.5206
22.108	59.5454
22.126	59.565
22.144	59.5788
22.162	59.5875
22.18	59.5912
22.198	59.5896
22.216	59.5841
22.234	59.5758
22.252	59.5638
22.27	59.5514
22.288	59.5391
22.306	59.527
22.324	59.5186
22.342	59.5135
22.36	59.5127
22.378	59.5189
22.396	59.5315
22.414	59.5511
22.432	59.579
22.45	59.6151
22.468	59.6583
22.486	59.7089
22.504	59.7667
22.522	59.8287
22.54	59.895
22.558	59.9649
22.576	60.0338
22.594	60.1028
22.612	60.17
22.63	60.2305
22.648	60.286
22.666	60.3341
22.684	60.3707
22.702	60.3975
22.72	60.4126
22.738	60.4136
22.756	60.4015
22.774	60.3761
22.792	60.3367
22.81	60.2836
22.828	60.2186
22.846	60.142
22.864	60.0537
22.882	59.9574
22.9	59.8535
22.918	59.742
22.936	59.6274
22.954	59.5098
22.972	59.3895
22.99	59.2711
23.008	59.1545
23.026	59.0399
23.044	58.9308
23.062	58.827
23.08	58.7285
23.098	58.6371
23.116	58.553
23.134	58.4756
23.152	58.4049
23.17	58.3413
23.188	58.284
23.206	58.2317
23.224	58.1851
23.242	58.1432
23.26	58.1038
23.278	58.0676
23.296	58.0338
23.314	58.0001
23.332	57.9672
23.35	57.9345
23.368	57.9004
23.386	57.8649
23.404	57.8282
23.422	57.7899
23.44	57.7497
23.458	57.7081
23.476	57.6652
23.494	57.6211
23.512	57.5758
23.53	57.5292
23.548	57.4811
23.566	57.4318
23.584	57.382
23.602	57.3317
23.62	57.2809
23.638	57.2306
23.656	57.1813
23.674	57.1325
23.692	57.0856
23.71	57.0411
23.728	56.9984
23.746	56.9585
23.764	56.9221
23.782	56.8885
23.8	56.8587
23.818	56.8334
23.836	56.812
23.854	56.7951
23.872	56.7833
23.89	56.7761
23.908	56.7739
23.926	56.7773
23.944	56.7861
23.962	56.8005
23.98	56.8207
23.998	56.8472
24.016	56.8796
24.034	56.917
24.052	56.9594
24.07	57.0072
24.088	57.0585
24.106	57.1123
24.124	57.1697
24.142	57.229
24.16	57.2884
24.178	57.3489
24.196	57.4097
24.214	57.4688
24.232	57.5266
24.25	57.583
24.268	57.6365
24.286	57.6864
24.304	57.7335
24.322	57.7768
24.34	57.8155
24.358	57.8498
24.376	57.8803
24.394	57.907
24.412	57.9298
24.43	57.949
24.448	57.9654
24.466	57.9789
24.484	57.9895
24.502	57.998
24.52	58.0052
24.538	58.0105
24.556	58.0144
24.574	58.0173
24.592	58.0195
24.61	58.0204
24.628	58.0192
24.646	58.0156
24.664	58.01
24.682	58.0017
24.7	57.99
24.718	57.9762
24.736	57.9585
24.754	57.9346
24.772	57.904
24.79	57.8678
24.808	57.8265
24.826	57.7799
24.844	57.727
24.862	57.6709
24.88	57.6148
24.898	57.5546
24.916	57.4941
24.934	57.4408
24.952	57.396
24.97	57.3556
24.988	57.329
25.006	57.3242
25.024	57.3342
25.042	57.3645
25.06	57.4253
25.078	57.5188
25.096	57.6399
25.114	57.7972
25.132	57.9983
25.15	58.2395
25.168	58.5212
25.186	58.8466
25.204	59.2182
25.222	59.6342
25.24	60.0909
25.258	60.5853
25.276	61.124
25.294	61.6994
25.312	62.2991
25.33	62.9208
25.348	63.573
25.366	64.2378
25.384	64.8967
25.402	65.5623
25.42	66.2287
25.438	66.8732
25.456	67.4826
25.474	68.0744
25.492	68.6315
25.51	69.1325
25.528	69.5794
25.546	69.9785
25.564	70.3134
25.582	70.5697
25.6	70.7564
25.618	70.8715
25.636	70.9072
25.654	70.8583
25.672	70.7289
25.69	70.5218
25.708	70.2397
25.726	69.8773
25.744	69.4379
25.762	68.934
25.78	68.3753
25.798	67.7483
25.816	67.0654
25.834	66.3465
25.852	65.5996
25.87	64.8084
25.888	63.9937
25.906	63.1787
25.924	62.3605
25.942	61.5312
25.96	60.7125
25.978	59.925
25.996	59.1568
26.014	58.41
26.032	57.7007
26.05	57.0412
26.068	56.42
26.086	55.8425
26.104	55.3186
26.122	54.8546
26.14	54.4443
26.158	54.0882
26.176	53.7871
26.194	53.5434
26.212	53.3562
26.23	53.2199
26.248	53.1292
26.266	53.0898
26.284	53.0998
26.302	53.1471
26.32	53.2202
26.338	53.3298
26.356	53.4711
26.374	53.6291
26.392	53.7917
26.41	53.9729
26.428	54.1643
26.446	54.3501
26.464	54.5196
26.482	54.6872
26.5	54.8432
26.518	54.9727
26.536	55.067
26.554	55.1382
26.572	55.1789
26.59	55.1792
26.608	55.1341
26.626	55.0511
26.644	54.9263
26.662	54.7552
26.68	54.5343
26.698	54.2661
26.716	53.9535
26.734	53.5992
26.752	53.202
26.77	52.7589
26.788	52.2783
26.806	51.7687
26.824	51.2301
26.842	50.6553
26.86	50.0569
26.878	49.4477
26.896	48.8297
26.914	48.1928
26.932	47.5497
26.95	46.9136
26.968	46.2563
26.986	45.546
27.004	44.887
27.022	44.3874
27.028	44.291