File: Bakgrunnsmateriale/MATLAB/FTIR/ftir_data/subBb/Mapping_36/C-4040-8_t16_cm-1.asc
PE IR       SPECTRUM    SPECTRUM    ASCII       PEDS        1.60
  -1
C-1A6E~1.ASC
17/05/02
12:12:38.00
17/05/02
12:12:38.00
tln
$C-4040-8_t0016$<tbV0>[-2.5,-3.0,8.0,0.0,22,1,0]
370
64

2002,4.07
MIRTGS : RIGHTBACK : INTERNAL 2
MIR : ON : INTERNAL 2
OPTKBR

0.200000
8
8.000000
FILLER
RATIO
SPECTRUM
UNLOCKED 256

DOUBLE
64
COMBINED
1
0
0

1.000000
RATIO

1
0
TRUE
51149
0
LEFT NOT FITTED RIGHT NOT FITTED 0
NONE
NONE
15600
12
4.427000
51148
TRUE
1 0 8 72 0 0 0 0

15798

#HDR
-1
-1
#GR
CM-1
%T
2.38419e-05
0.0
7800
-1.000000
7431
8
83.4958
38.031
#DATA
7800	75.0494
7795	71.146
7790	73.2345
7785	75.3646
7780	75.7074
7775	71.9405
7770	71.7767
7765	74.7504
7760	71.1186
7755	67.8183
7750	65.4006
7745	66.5575
7740	66.6414
7735	62.084
7730	65.6892
7725	72.9511
7720	76.4547
7715	72.3552
7710	70.1052
7705	72.8437
7700	71.991
7695	65.1672
7690	63.8942
7685	66.29
7680	67.5079
7675	64.6286
7670	61.4503
7665	63.1955
7660	65.2291
7655	67.9188
7650	69.2174
7645	65.8975
7640	62.9172
7635	65.3407
7630	67.9074
7625	68.0758
7620	70.2198
7615	71.9779
7610	68.5857
7605	69.3437
7600	69.6833
7595	65.3947
7590	62.7535
7585	64.2084
7580	66.3436
7575	65.1871
7570	63.2347
7565	61.6323
7560	64.8634
7555	69.0783
7550	67.8058
7545	65.8772
7540	65.7473
7535	66.2146
7530	64.2024
7525	64.4965
7520	67.0237
7515	68.0616
7510	68.8707
7505	66.3036
7500	64.5435
7495	67.0939
7490	66.2881
7485	64.16
7480	64.986
7475	63.6437
7470	62.5744
7465	65.0496
7460	65.6976
7455	67.0509
7450	68.5423
7445	67.8717
7440	62.9997
7435	62.4471
7430	64.9559
7425	65.4863
7420	67.8287
7415	66.8797
7410	63.4974
7405	61.1361
7400	59.8768
7395	62.4472
7390	66.0219
7385	65.2963
7380	63.6834
7375	64.7301
7370	64.1118
7365	63.0798
7360	64.0976
7355	64.0648
7350	66.4106
7345	65.952
7340	64.3734
7335	64.3419
7330	65.4341
7325	67.4175
7320	66.4618
7315	63.4999
7310	62.8954
7305	65.1383
7300	65.583
7295	66.3031
7290	66.4547
7285	65.2556
7280	64.6503
7275	64.3224
7270	65.7592
7265	65.8057
7260	65.0716
7255	64.583
7250	65.5461
7245	67.7954
7240	66.2768
7235	63.501
7230	64.6426
7225	66.5915
7220	65.944
7215	65.3218
7210	65.957
7205	65.3457
7200	64.1537
7195	62.7136
7190	62.8479
7185	65.0831
7180	66.5467
7175	66.8717
7170	64.7159
7165	62.9501
7160	63.0414
7155	65.3355
7150	64.6546
7145	63.2057
7140	64.3937
7135	63.2271
7130	62.5615
7125	64.454
7120	65.0217
7115	65.1227
7110	65.4371
7105	63.2426
7100	62.4967
7095	63.111
7090	64.0286
7085	64.7156
7080	64.1389
7075	62.5016
7070	62.3036
7065	64.3373
7060	65.7855
7055	63.0939
7050	61.3428
7045	62.3725
7040	64.1623
7035	64.7346
7030	62.9159
7025	63.3344
7020	64.9204
7015	62.6385
7010	62.1336
7005	62.8272
7000	62.0854
6995	63.0232
6990	63.5245
6985	61.8117
6980	62.387
6975	63.6618
6970	63.4025
6965	62.1603
6960	60.953
6955	61.7859
6950	63.8158
6945	65.03
6940	64.0159
6935	63.2097
6930	64.6371
6925	65.335
6920	64.3151
6915	64.2162
6910	64.2889
6905	63.7887
6900	63.0554
6895	62.624
6890	63.5744
6885	63.7411
6880	63.9752
6875	64.4637
6870	65.3544
6865	63.5117
6860	61.2559
6855	61.8417
6850	62.9525
6845	64.1994
6840	63.9386
6835	63.8851
6830	64.3229
6825	63.2818
6820	62.6588
6815	63.1541
6810	63.893
6805	63.1283
6800	63.3174
6795	63.9111
6790	64.0069
6785	63.1033
6780	62.3651
6775	62.8835
6770	63.8118
6765	63.2905
6760	64.0527
6755	65.0966
6750	64.3141
6745	63.1587
6740	62.1917
6735	62.2436
6730	62.5193
6725	61.8179
6720	62.0184
6715	62.9056
6710	62.8744
6705	63.9315
6700	65.0625
6695	63.77
6690	62.1778
6685	63.2043
6680	62.8581
6675	63.6891
6670	64.9427
6665	64.0244
6660	64.0164
6655	62.9553
6650	61.5627
6645	62.8654
6640	63.7357
6635	63.6184
6630	64.677
6625	66.6902
6620	65.8019
6615	63.7738
6610	64.2119
6605	65.0006
6600	64.8511
6595	65.332
6590	65.1476
6585	64.5149
6580	64.1256
6575	64.2153
6570	64.7159
6565	64.8973
6560	65.0699
6555	64.4663
6550	63.7765
6545	63.3915
6540	63.3137
6535	63.9733
6530	64.4273
6525	64.1136
6520	64.6265
6515	64.6538
6510	63.6139
6505	63.8215
6500	65.07
6495	65.7302
6490	65.7884
6485	64.7944
6480	63.43
6475	63.0773
6470	64.6114
6465	65.6204
6460	64.4157
6455	63.52
6450	64.1073
6445	64.0167
6440	62.7216
6435	63.2352
6430	63.4578
6425	62.9166
6420	64.2587
6415	64.5187
6410	63.6565
6405	63.756
6400	65.1495
6395	64.8332
6390	63.7517
6385	64.1086
6380	64.0916
6375	63.9272
6370	64.1779
6365	64.1592
6360	63.6127
6355	64.3454
6350	64.569
6345	63.6118
6340	63.3238
6335	63.8393
6330	64.8317
6325	65.2868
6320	64.8309
6315	64.6889
6310	64.5235
6305	64.377
6300	64.911
6295	65.5725
6290	65.0997
6285	63.5086
6280	62.8554
6275	63.7722
6270	65.0763
6265	64.4203
6260	64.0174
6255	64.2875
6250	63.5265
6245	62.7452
6240	63.3958
6235	64.0338
6230	64.2514
6225	64.5519
6220	64.0024
6215	64.0323
6210	64.7751
6205	64.8767
6200	64.1601
6195	63.5432
6190	63.9489
6185	64.3048
6180	64.1396
6175	63.8333
6170	64.2677
6165	64.1485
6160	63.5472
6155	63.9983
6150	64.9016
6145	64.958
6140	64.2821
6135	64.709
6130	65.6402
6125	65.0777
6120	63.8823
6115	63.7913
6110	64.1157
6105	64.0419
6100	64.0377
6095	63.74
6090	63.6637
6085	63.5844
6080	63.6308
6075	64.7691
6070	65.5196
6065	65.2964
6060	64.466
6055	64.0256
6050	64.3328
6045	64.3352
6040	63.6124
6035	63.9649
6030	64.9487
6025	64.9193
6020	64.9504
6015	65.2226
6010	65.3463
6005	65.0803
6000	64.5636
5995	64.5415
5990	64.8312
5985	64.5138
5980	64.3651
5975	64.4251
5970	64.4451
5965	65.163
5960	65.2175
5955	64.4355
5950	64.587
5945	65.1473
5940	64.6895
5935	64.4164
5930	64.0538
5925	63.7377
5920	64.4449
5915	64.5854
5910	64.0239
5905	64.3332
5900	64.8321
5895	64.6925
5890	64.374
5885	64.2163
5880	64.1886
5875	64.181
5870	64.0303
5865	63.9669
5860	64.25
5855	64.3308
5850	64.2246
5845	64.1564
5840	64.2352
5835	64.2636
5830	64.1075
5825	64.1037
5820	64.2172
5815	64.0362
5810	63.7195
5805	63.7225
5800	63.7649
5795	63.8711
5790	64.3386
5785	64.2871
5780	63.9164
5775	64.3057
5770	64.5679
5765	64.0987
5760	63.7797
5755	64.4311
5750	64.889
5745	64.7432
5740	64.3807
5735	64.427
5730	64.7768
5725	64.8622
5720	64.9179
5715	64.7131
5710	64.7974
5705	64.6197
5700	64.3405
5695	64.3335
5690	64.5687
5685	64.4279
5680	64.1262
5675	63.9377
5670	64.0201
5665	63.9217
5660	63.7038
5655	63.99
5650	64.1538
5645	64.1452
5640	64.1271
5635	64.3208
5630	64.4931
5625	64.8
5620	64.4882
5615	64.1267
5610	64.428
5605	64.613
5600	64.5251
5595	64.5293
5590	64.6907
5585	64.6837
5580	64.0733
5575	64.2698
5570	64.8282
5565	64.4894
5560	64.3939
5555	64.5463
5550	64.238
5545	64.6748
5540	65.4544
5535	65.2158
5530	64.5917
5525	64.4744
5520	64.433
5515	64.038
5510	64.3483
5505	64.5447
5500	63.6977
5495	63.7596
5490	64.3146
5485	64.2708
5480	64.2514
5475	64.1464
5470	64.0775
5465	64.5205
5460	64.5903
5455	64.4948
5450	64.4829
5445	63.9453
5440	63.5842
5435	63.5164
5430	64.0187
5425	64.3453
5420	64.4868
5415	64.5849
5410	64.3495
5405	64.1409
5400	64.0568
5395	64.4291
5390	64.495
5385	64.2375
5380	63.9545
5375	63.8292
5370	63.5
5365	63.4615
5360	63.6502
5355	63.156
5350	63.0809
5345	63.5955
5340	62.5445
5335	62.3552
5330	63.0148
5325	62.9121
5320	62.7221
5315	64.5634
5310	66.8234
5305	67.1958
5300	65.5622
5295	66.5768
5290	67.9872
5285	66.0261
5280	63.5574
5275	63.443
5270	63.7722
5265	63.5784
5260	65.7691
5255	67.3177
5250	66.9765
5245	65.7702
5240	64.2187
5235	63.9292
5230	64.4332
5225	64.6519
5220	64.7974
5215	64.3471
5210	64.0082
5205	64.16
5200	63.8658
5195	64.0611
5190	64.4575
5185	64.5093
5180	64.6463
5175	64.6425
5170	64.5696
5165	64.5691
5160	64.4748
5155	64.183
5150	64.3853
5145	64.581
5140	64.1608
5135	63.9323
5130	64.1935
5125	64.3214
5120	64.095
5115	64.1185
5110	64.2258
5105	64.0277
5100	63.95
5095	64.4204
5090	64.4967
5085	64.3568
5080	64.1305
5075	64.0249
5070	64.4698
5065	64.6654
5060	64.3399
5055	63.8999
5050	64.0426
5045	64.3098
5040	64.2274
5035	64.1865
5030	64.2321
5025	64.3596
5020	64.1863
5015	64.2625
5010	64.3713
5005	64.3484
5000	64.4585
4995	64.5344
4990	64.3626
4985	63.9236
4980	63.9007
4975	64.2487
4970	64.3237
4965	64.275
4960	64.1151
4955	63.9764
4950	64.1268
4945	64.4055
4940	64.2106
4935	63.726
4930	63.6463
4925	63.9467
4920	64.3789
4915	64.5655
4910	64.5289
4905	64.5135
4900	64.5279
4895	64.4097
4890	64.1837
4885	63.9474
4880	64.3122
4875	64.4807
4870	64.3818
4865	64.3478
4860	64.0601
4855	64.2527
4850	64.4104
4845	64.1379
4840	64.0176
4835	64.1962
4830	64.5112
4825	64.4351
4820	63.8253
4815	63.6165
4810	63.8766
4805	64.0649
4800	64.0374
4795	64.0088
4790	64.0403
4785	64.1591
4780	64.2371
4775	64.5036
4770	64.589
4765	64.1835
4760	64.2064
4755	64.455
4750	64.0343
4745	63.6408
4740	63.8436
4735	64.0837
4730	64.0735
4725	64.062
4720	64.0075
4715	64.0722
4710	64.3252
4705	64.5255
4700	64.1966
4695	63.9716
4690	64.2075
4685	64.41
4680	64.2272
4675	64.1297
4670	64.1702
4665	64.1698
4660	64.1678
4655	64.1801
4650	64.498
4645	64.5274
4640	64.295
4635	64.1398
4630	64.087
4625	64.3284
4620	64.5718
4615	64.4351
4610	64.3077
4605	64.3475
4600	64.3123
4595	64.2235
4590	64.0791
4585	64.2527
4580	64.3317
4575	64.0458
4570	63.8912
4565	64.0339
4560	63.9522
4555	63.784
4550	63.8584
4545	63.9415
4540	63.9062
4535	64.0092
4530	64.0944
4525	63.8231
4520	63.7174
4515	63.7237
4510	63.8105
4505	63.792
4500	63.8702
4495	63.6896
4490	63.4633
4485	63.7375
4480	63.8373
4475	63.7858
4470	63.847
4465	63.8963
4460	64.0046
4455	64.2341
4450	63.9192
4445	63.5813
4440	63.8698
4435	64.094
4430	63.6424
4425	63.6757
4420	63.9997
4415	63.6596
4410	64.5623
4405	65.0487
4400	62.7269
4395	67.6872
4390	83.4958
4385	56.4488
4380	47.2041
4375	57.7682
4370	64.3804
4365	65.6734
4360	65.0387
4355	64.4239
4350	64.5302
4345	64.4325
4340	64.437
4335	64.3548
4330	64.2189
4325	64.1971
4320	64.3117
4315	64.122
4310	63.9192
4305	64.1075
4300	64.016
4295	64.0023
4290	64.0951
4285	63.8187
4280	63.6142
4275	63.6656
4270	63.4994
4265	63.5682
4260	63.9706
4255	64.0663
4250	63.8799
4245	63.9539
4240	63.9857
4235	63.7308
4230	63.8177
4225	64.0692
4220	64.11
4215	63.9832
4210	63.9091
4205	63.7508
4200	63.6944
4195	63.8315
4190	64.006
4185	64.1267
4180	64.0909
4175	64.0837
4170	63.9551
4165	63.8155
4160	63.836
4155	63.7751
4150	63.7893
4145	63.828
4140	63.7985
4135	63.938
4130	64.0315
4125	64.0052
4120	63.9616
4115	64.0489
4110	64.1006
4105	63.9956
4100	64.0092
4095	64.0087
4090	63.8431
4085	63.7468
4080	63.8037
4075	63.6517
4070	63.4564
4065	63.5625
4060	63.7604
4055	63.8608
4050	63.9539
4045	63.901
4040	63.8487
4035	63.894
4030	63.9769
4025	63.8973
4020	63.8309
4015	63.7719
4010	63.7226
4005	63.7248
4000	63.6812
3995	63.7016
3990	63.697
3985	63.7153
3980	63.7635
3975	63.782
3970	63.7862
3965	63.7996
3960	63.7799
3955	63.6708
3950	63.6471
3945	63.7311
3940	63.9606
3935	63.8693
3930	63.8164
3925	63.8662
3920	63.7886
3915	63.6938
3910	63.6739
3905	63.5259
3900	63.4771
3895	63.6442
3890	63.8448
3885	63.9179
3880	63.8107
3875	63.5678
3870	63.3861
3865	63.5355
3860	63.8403
3855	63.8941
3850	63.6544
3845	63.5543
3840	63.5644
3835	63.5419
3830	63.6194
3825	63.5975
3820	63.5512
3815	63.3179
3810	63.1928
3805	63.3387
3800	63.6243
3795	63.6785
3790	63.6099
3785	63.526
3780	63.4
3775	63.4794
3770	63.6371
3765	63.5166
3760	63.4772
3755	63.5454
3750	63.5432
3745	63.3839
3740	63.3248
3735	63.4925
3730	63.5238
3725	63.4528
3720	63.4698
3715	63.6231
3710	63.6209
3705	63.5051
3700	63.3835
3695	63.2393
3690	63.1968
3685	63.2706
3680	63.2552
3675	63.1429
3670	63.1196
3665	63.0877
3660	63.065
3655	63.1296
3650	63.2657
3645	63.4363
3640	63.4902
3635	63.3337
3630	63.2355
3625	63.3455
3620	63.4162
3615	63.3577
3610	63.2545
3605	63.2266
3600	63.0966
3595	62.9442
3590	62.9258
3585	63.0096
3580	63.1774
3575	63.1619
3570	63.0517
3565	62.8966
3560	62.9189
3555	63.1042
3550	63.1255
3545	63.0718
3540	62.965
3535	62.9005
3530	62.9516
3525	62.8983
3520	62.8381
3515	62.9492
3510	62.9354
3505	62.8355
3500	62.8352
3495	63.0036
3490	63.0587
3485	62.9213
3480	62.9795
3475	63.0252
3470	62.9091
3465	62.8462
3460	62.7215
3455	62.8298
3450	62.9933
3445	62.9649
3440	62.9249
3435	62.9036
3430	62.8723
3425	62.9263
3420	62.8646
3415	62.7518
3410	62.706
3405	62.6722
3400	62.7742
3395	62.7944
3390	62.7705
3385	62.8792
3380	62.699
3375	62.5391
3370	62.559
3365	62.6291
3360	62.6312
3355	62.63
3350	62.6338
3345	62.6724
3340	62.7134
3335	62.6382
3330	62.53
3325	62.6072
3320	62.7353
3315	62.6205
3310	62.4639
3305	62.4255
3300	62.4302
3295	62.4434
3290	62.5361
3285	62.5336
3280	62.4206
3275	62.3716
3270	62.4864
3265	62.394
3260	62.3277
3255	62.4474
3250	62.5124
3245	62.5307
3240	62.4952
3235	62.489
3230	62.4466
3225	62.3334
3220	62.2734
3215	62.3258
3210	62.3765
3205	62.3101
3200	62.2529
3195	62.1637
3190	62.2092
3185	62.2963
3180	62.3085
3175	62.2938
3170	62.2788
3165	62.2523
3160	62.1632
3155	62.1513
3150	62.1535
3145	62.0508
3140	62.0073
3135	62.0672
3130	62.1122
3125	62.0573
3120	62.0288
3115	62.0258
3110	61.9634
3105	61.9043
3100	62.0268
3095	62.1322
3090	62.0877
3085	61.992
3080	61.9769
3075	62.036
3070	61.9987
3065	62.0113
3060	62.029
3055	61.9924
3050	61.897
3045	61.8621
3040	61.9445
3035	61.918
3030	61.9175
3025	62.0039
3020	61.9872
3015	61.9043
3010	61.7846
3005	61.7771
3000	61.7907
2995	61.7418
2990	61.7314
2985	61.6935
2980	61.5533
2975	61.5812
2970	61.6363
2965	61.5239
2960	61.5226
2955	61.5457
2950	61.4555
2945	61.3465
2940	61.3353
2935	61.3393
2930	61.2391
2925	61.0685
2920	61.0451
2915	61.1265
2910	61.2335
2905	61.2927
2900	61.2904
2895	61.2913
2890	61.2681
2885	61.2432
2880	61.2137
2875	61.1872
2870	61.1907
2865	61.1337
2860	61.117
2855	61.1227
2850	61.0291
2845	61.0286
2840	61.0921
2835	61.1164
2830	61.0473
2825	60.9707
2820	61.0002
2815	61.0593
2810	61.124
2805	61.0607
2800	61.0381
2795	60.956
2790	60.8861
2785	60.9129
2780	60.9712
2775	61
2770	60.9534
2765	60.9284
2760	60.8942
2755	60.8523
2750	60.8432
2745	60.8095
2740	60.7546
2735	60.8206
2730	60.8891
2725	60.7912
2720	60.6901
2715	60.6559
2710	60.6759
2705	60.7161
2700	60.676
2695	60.6318
2690	60.6072
2685	60.6085
2680	60.5657
2675	60.5249
2670	60.5052
2665	60.5096
2660	60.4663
2655	60.4354
2650	60.4775
2645	60.4876
2640	60.5142
2635	60.5088
2630	60.4522
2625	60.328
2620	60.2668
2615	60.2888
2610	60.3233
2605	60.3706
2600	60.3541
2595	60.2557
2590	60.2775
2585	60.2986
2580	60.2108
2575	60.2047
2570	60.312
2565	60.2789
2560	60.1457
2555	60.1301
2550	60.1665
2545	60.1564
2540	60.0795
2535	59.9834
2530	60.1047
2525	60.1002
2520	59.9015
2515	59.7911
2510	59.8181
2505	59.899
2500	59.8981
2495	59.7737
2490	59.7118
2485	59.7792
2480	59.8325
2475	59.8194
2470	59.7937
2465	59.8567
2460	59.8462
2455	59.7655
2450	59.7619
2445	59.7497
2440	59.705
2435	59.709
2430	59.7172
2425	59.6328
2420	59.5681
2415	59.6391
2410	59.6506
2405	59.5686
2400	59.4929
2395	59.4179
2390	59.3189
2385	59.3138
2380	59.3793
2375	59.3295
2370	59.2827
2365	59.3106
2360	59.2695
2355	59.263
2350	59.2792
2345	59.2203
2340	59.1651
2335	59.1341
2330	59.0778
2325	59.07
2320	59.1726
2315	59.1297
2310	59.0321
2305	58.9972
2300	58.9503
2295	58.974
2290	58.9829
2285	58.9106
2280	58.9164
2275	58.9534
2270	58.9036
2265	58.8358
2260	58.7958
2255	58.7938
2250	58.8193
2245	58.8026
2240	58.7644
2235	58.7902
2230	58.7515
2225	58.6381
2220	58.5927
2215	58.6239
2210	58.6577
2205	58.61
2200	58.5696
2195	58.5304
2190	58.5855
2185	58.5976
2180	58.4707
2175	58.3972
2170	58.4101
2165	58.4268
2160	58.4154
2155	58.3807
2150	58.2203
2145	58.1202
2140	58.0621
2135	58.0496
2130	58.0884
2125	58.0795
2120	58.0879
2115	58.1323
2110	58.1243
2105	58.0204
2100	57.9434
2095	57.9889
2090	57.9414
2085	57.849
2080	57.8801
2075	57.8904
2070	57.8364
2065	57.8151
2060	57.8273
2055	57.8048
2050	57.7459
2045	57.7398
2040	57.7163
2035	57.6647
2030	57.6487
2025	57.6383
2020	57.5828
2015	57.5758
2010	57.58
2005	57.5583
2000	57.481
1995	57.4222
1990	57.4616
1985	57.4529
1980	57.386
1975	57.385
1970	57.4042
1965	57.367
1960	57.3032
1955	57.2652
1950	57.2708
1945	57.317
1940	57.3197
1935	57.2737
1930	57.2352
1925	57.1964
1920	57.1731
1915	57.1724
1910	57.0994
1905	57.0748
1900	57.0688
1895	57.0238
1890	56.9793
1885	57.0144
1880	56.9892
1875	56.8747
1870	56.8255
1865	56.8018
1860	56.7548
1855	56.7835
1850	56.7882
1845	56.7139
1840	56.6569
1835	56.584
1830	56.6244
1825	56.6596
1820	56.6284
1815	56.6127
1810	56.5806
1805	56.5192
1800	56.4277
1795	56.3976
1790	56.4155
1785	56.4124
1780	56.3483
1775	56.2571
1770	56.2301
1765	56.2495
1760	56.2555
1755	56.1834
1750	56.0573
1745	55.9695
1740	55.9566
1735	55.9348
1730	55.852
1725	55.8516
1720	55.9211
1715	55.9322
1710	55.8846
1705	55.8253
1700	55.878
1695	55.8891
1690	55.804
1685	55.8517
1680	55.8022
1675	55.6869
1670	55.6794
1665	55.7254
1660	55.7446
1655	55.6828
1650	55.6338
1645	55.5392
1640	55.4812
1635	55.5012
1630	55.4767
1625	55.4629
1620	55.4754
1615	55.4459
1610	55.3708
1605	55.3432
1600	55.2881
1595	55.2062
1590	55.2049
1585	55.2506
1580	55.2271
1575	55.1733
1570	55.1024
1565	54.9944
1560	55.0195
1555	55.057
1550	55.0551
1545	54.9948
1540	54.9101
1535	54.9223
1530	54.9918
1525	54.9613
1520	54.8854
1515	54.8758
1510	54.9321
1505	54.9093
1500	54.8329
1495	54.8528
1490	54.8374
1485	54.7199
1480	54.6978
1475	54.6616
1470	54.6005
1465	54.6185
1460	54.6672
1455	54.6544
1450	54.584
1445	54.5251
1440	54.515
1435	54.4935
1430	54.4572
1425	54.3852
1420	54.3068
1415	54.3149
1410	54.3013
1405	54.2729
1400	54.2926
1395	54.1686
1390	54.0649
1385	54.1767
1380	54.2573
1375	54.1734
1370	54.1129
1365	54.068
1360	54.0818
1355	54.0716
1350	53.9476
1345	53.9262
1340	53.8887
1335	53.8659
1330	53.9124
1325	53.8194
1320	53.7634
1315	53.7775
1310	53.727
1305	53.7256
1300	53.6784
1295	53.5562
1290	53.5424
1285	53.5707
1280	53.5794
1275	53.5179
1270	53.4676
1265	53.533
1260	53.4953
1255	53.3574
1250	53.3038
1245	53.3412
1240	53.3277
1235	53.2043
1230	53.1635
1225	53.1808
1220	53.1742
1215	53.121
1210	53.0797
1205	53.083
1200	52.9812
1195	52.9051
1190	52.9371
1185	52.918
1180	52.9059
1175	52.9729
1170	52.9598
1165	52.8607
1160	52.6927
1155	52.639
1150	52.7038
1145	52.7358
1140	52.6747
1135	52.5325
1130	52.4702
1125	52.4566
1120	52.3885
1115	52.3272
1110	52.4415
1105	52.5384
1100	52.3584
1095	52.3565
1090	52.3668
1085	52.2163
1080	52.1204
1075	52.11
1070	52.1573
1065	52.131
1060	52.0166
1055	51.9217
1050	51.9326
1045	52.206
1040	52.1643
1035	52.0534
1030	51.9243
1025	51.7678
1020	51.8027
1015	51.8497
1010	51.7796
1005	51.7281
1000	51.6604
995	 51.6701
990	 51.7918
985	 51.7536
980	 51.6315
975	 51.679
970	 51.5963
965	 51.436
960	 51.2878
955	 51.0326
950	 51.06
945	 51.6237
940	 51.7071
935	 51.4284
930	 50.7849
925	 50.3012
920	 50.7748
915	 50.892
910	 50.7781
905	 50.7368
900	 50.4743
895	 50.3889
890	 50.6237
885	 50.7731
880	 50.5664
875	 50.4653
870	 50.79
865	 50.92
860	 50.6081
855	 50.2223
850	 50.3076
845	 50.4246
840	 50.1438
835	 49.8341
830	 49.9537
825	 50.2733
820	 50.2418
815	 50.1786
810	 50.0965
805	 50.2589
800	 50.3176
795	 50.0225
790	 49.7836
785	 49.736
780	 49.7087
775	 49.7996
770	 49.8724
765	 49.7766
760	 49.5904
755	 49.4664
750	 49.506
745	 49.5036
740	 49.2893
735	 49.0196
730	 49.1029
725	 49.2938
720	 49.0675
715	 48.806
710	 48.6775
705	 48.7122
700	 48.7104
695	 48.622
690	 48.5178
685	 48.3124
680	 48.1164
675	 48.0145
670	 48.0876
665	 48.3768
660	 48.376
655	 47.8501
650	 47.6457
645	 47.7822
640	 47.7276
635	 47.6128
630	 47.5635
625	 47.3916
620	 47.3331
615	 47.2524
610	 46.9911
605	 46.8904
600	 46.7481
595	 46.721
590	 46.6098
585	 46.5385
580	 46.6687
575	 46.4272
570	 46.3319
565	 46.5475
560	 46.3747
555	 45.8298
550	 45.527
545	 45.4406
540	 45.615
535	 45.7627
530	 45.5878
525	 45.3043
520	 45.2239
515	 45.2174
510	 45.0905
505	 45.0608
500	 44.8719
495	 44.5944
490	 44.2336
485	 43.6248
480	 43.1701
475	 42.7473
470	 43.026
465	 43.1128
460	 42.8439
455	 42.5895
450	 41.9879
445	 41.9797
440	 42.0208
435	 40.8023
430	 40.0227
425	 40.7763
420	 40.5681
415	 38.746
410	 38.4024
405	 41.1729
400	 42.0077
395	 47.5617
390	 49.0158
385	 42.1838
380	 48.7228
375	 55.6584
370	 46.0431