File: Bakgrunnsmateriale/MATLAB/FTIR/ftir_data/subBb/Mapping_36/C-4040-8_t01.asc
PE IR       SPECTRUM    SPECTRUM    ASCII       PEDS        1.60
  -1
C-4040~4.ASC
17/05/02
10:54:46.00
17/05/02
10:55:12.00
tln
$C-4040-8_t0001$<tbV0>[12.5,-13.0,8.0,0.0,22,1,0]
27.028
64

2002,4.07
MIRTGS : RIGHTBACK : INTERNAL 2
MIR : ON : INTERNAL 2
OPTKBR

0.200000
8
8.000000
FILLER
RATIO
SPECTRUM
UNLOCKED 256

DOUBLE
64
COMBINED
1
0
0

0.002000
RATIO

1
0
TRUE
51149
0
LEFT NOT FITTED RIGHT NOT FITTED 0
NONE
NONE
15600
12
4.427000
51148
TRUE
1 0 8 72 0 0 0 0

15798

#HDR
-1
-1
#GR
µM
%T
2.38419e-05
0.0
1.282000
0.002000
12874
8
80.0974
52.3091
#DATA
1.282000	 74.1576
1.300000	 64.8666
1.318000	 61.9318
1.336000	 66.5566
1.354000	 63.8983
1.372000	 65.0456
1.390000	 65.5824
1.408000	 64.4289
1.426000	 59.5232
1.444000	 63.6137
1.462000	 62.6736
1.480000	 64.2428
1.498000	 62.6396
1.516000	 65.6029
1.534000	 64.657
1.552000	 64.8151
1.570000	 63.493
1.588000	 62.7736
1.606000	 64.3442
1.624000	 64.4483
1.642000	 64.4079
1.660000	 64.4787
1.678000	 64.1427
1.696000	 63.648
1.714000	 65.1047
1.732000	 64.028
1.750000	 64.8813
1.768000	 64.3875
1.786000	 64.827
1.804000	 65.0571
1.822000	 64.9786
1.840000	 63.9156
1.858000	 64.8045
1.876000	 64.5919
1.894000	 65.2198
1.912000	 60.6976
1.930000	 64.2755
1.948000	 64.2074
1.966000	 64.3015
1.984000	 64.3235
2.002000	 64.567
2.020000	 64.8832
2.038000	 64.2844
2.056000	 64.5987
2.074000	 64.4543
2.092000	 64.6663
2.110000	 64.8152
2.128000	 65.0285
2.146000	 64.6825
2.164000	 64.4822
2.182000	 64.5284
2.200000	 64.9056
2.218000	 64.3233
2.236000	 64.7862
2.254000	 64.5488
2.272000	 80.0974
2.290000	 65.557
2.308000	 64.914
2.326000	 64.1637
2.344000	 64.7339
2.362000	 64.6557
2.380000	 64.5177
2.398000	 64.9296
2.416000	 64.8642
2.434000	 64.8925
2.452000	 64.6908
2.470000	 64.6897
2.488000	 64.4972
2.506000	 64.9641
2.524000	 64.7305
2.542000	 64.7371
2.560000	 64.9815
2.578000	 65.0095
2.596000	 64.6103
2.614000	 64.7001
2.632000	 64.8821
2.650000	 64.7059
2.668000	 64.7487
2.686000	 64.8252
2.704000	 64.8264
2.722000	 64.8259
2.740000	 64.9785
2.758000	 64.8617
2.776000	 64.8336
2.794000	 64.8631
2.812000	 64.6666
2.830000	 64.8177
2.848000	 64.7788
2.866000	 64.7689
2.884000	 64.7312
2.902000	 64.6543
2.920000	 64.7862
2.938000	 64.755
2.956000	 64.8613
2.974000	 64.9101
2.992000	 64.7612
3.010000	 64.7882
3.028000	 64.9088
3.046000	 64.9244
3.064000	 64.8218
3.082000	 64.8856
3.100000	 64.7544
3.118000	 64.7657
3.136000	 64.9194
3.154000	 64.8625
3.172000	 64.8611
3.190000	 64.7481
3.208000	 64.8508
3.226000	 64.8595
3.244000	 64.7942
3.262000	 64.8554
3.280000	 64.8057
3.298000	 64.9655
3.316000	 64.8384
3.334000	 64.9108
3.352000	 64.7333
3.370000	 64.6326
3.388000	 64.6075
3.406000	 64.6383
3.424000	 64.5305
3.442000	 64.9142
3.460000	 64.8516
3.478000	 64.7257
3.496000	 64.8836
3.514000	 64.7138
3.532000	 64.9274
3.550000	 64.884
3.568000	 64.8769
3.586000	 64.9606
3.604000	 65.0081
3.622000	 65.0172
3.640000	 64.9198
3.658000	 65.0203
3.676000	 64.9937
3.694000	 64.8177
3.712000	 64.9432
3.730000	 64.8772
3.748000	 64.9456
3.766000	 64.9365
3.784000	 64.975
3.802000	 64.8393
3.820000	 64.8849
3.838000	 64.9064
3.856000	 64.9195
3.874000	 64.8017
3.892000	 64.9563
3.910000	 65.0141
3.928000	 64.8602
3.946000	 65.032
3.964000	 64.9548
3.982000	 64.8483
4.000000	 64.974
4.018000	 64.9012
4.036000	 64.9617
4.054000	 65.0583
4.072000	 64.9602
4.090000	 64.9398
4.108000	 64.8973
4.125999	 65.1029
4.144000	 64.9411
4.162000	 65.0488
4.180000	 65.0312
4.198000	 64.8389
4.216000	 64.9412
4.234000	 64.9452
4.252000	 65.0099
4.270000	 64.8584
4.288000	 65.0508
4.306000	 64.9982
4.324000	 65.0719
4.342000	 64.9755
4.359999	 64.9873
4.378000	 64.946
4.396000	 64.8843
4.414000	 65.0666
4.432000	 64.9112
4.450000	 64.8467
4.468000	 64.9748
4.486000	 64.9192
4.504000	 64.8681
4.522000	 64.9258
4.540000	 64.8984
4.558000	 64.8853
4.576000	 64.8924
4.594000	 64.944
4.612000	 65.0328
4.630000	 65.0444
4.648000	 64.9349
4.666000	 64.8776
4.684000	 64.9139
4.702000	 64.8214
4.720000	 64.8017
4.738000	 64.8729
4.756000	 64.9624
4.774000	 65.0192
4.792000	 64.9814
4.810000	 64.9593
4.828000	 65.0979
4.846000	 65.1206
4.864000	 64.9656
4.882000	 65.0071
4.900000	 64.9686
4.918000	 64.9772
4.936000	 64.9169
4.954000	 64.8933
4.972000	 65.0307
4.990000	 64.9774
5.008000	 65.0143
5.026000	 64.9808
5.044000	 64.8339
5.062000	 64.8722
5.080000	 65.0299
5.098000	 65.0553
5.116000	 64.9509
5.134000	 64.992
5.152000	 64.9837
5.170000	 64.9317
5.188000	 64.9346
5.206000	 64.9837
5.224000	 64.9534
5.242000	 65.0506
5.260000	 64.9896
5.278000	 64.896
5.296000	 64.9575
5.314000	 64.9875
5.332000	 65.005
5.350000	 64.9807
5.368000	 64.9745
5.386000	 64.919
5.404000	 64.8417
5.422000	 64.8884
5.440000	 64.9585
5.458000	 64.984
5.476000	 65.044
5.494000	 64.9842
5.512000	 64.9937
5.530000	 65.0103
5.548000	 65.0022
5.566000	 65.0447
5.584000	 65.0064
5.602000	 64.9341
5.620000	 64.905
5.638000	 64.9368
5.656000	 64.9032
5.674000	 64.8551
5.692000	 64.7882
5.710000	 64.8268
5.728000	 64.766
5.746000	 64.7629
5.764000	 64.7734
5.782000	 64.7618
5.800000	 64.8205
5.818000	 64.801
5.836000	 64.8364
5.854000	 64.8721
5.872000	 64.9127
5.890000	 64.9071
5.908000	 64.7948
5.926000	 64.7946
5.944000	 64.7877
5.962000	 64.8091
5.980000	 64.9172
5.998000	 64.9293
6.016000	 64.8395
6.034000	 64.8033
6.052000	 64.844
6.070000	 64.8426
6.088000	 64.8665
6.106000	 64.8455
6.124000	 64.7716
6.142000	 64.7422
6.160000	 64.781
6.178000	 64.7801
6.196000	 64.7786
6.214000	 64.7772
6.232000	 64.7736
6.250000	 64.7803
6.268000	 64.7743
6.286000	 64.7769
6.304000	 64.7568
6.322000	 64.7615
6.340000	 64.7514
6.358000	 64.7022
6.376000	 64.7246
6.394000	 64.7916
6.412000	 64.8138
6.430000	 64.8078
6.448000	 64.7721
6.466000	 64.798
6.484000	 64.8096
6.502000	 64.7335
6.520000	 64.7
6.538000	 64.7298
6.556000	 64.7923
6.574000	 64.7785
6.592000	 64.697
6.610000	 64.6938
6.628000	 64.7655
6.646000	 64.7796
6.664000	 64.753
6.682000	 64.7921
6.700000	 64.8276
6.718000	 64.7679
6.736000	 64.6766
6.754000	 64.6793
6.772000	 64.7112
6.790000	 64.6523
6.808000	 64.5913
6.826000	 64.6688
6.844000	 64.8924
6.862000	 65.0409
6.880000	 64.9073
6.898000	 64.6983
6.916000	 64.7004
6.934000	 64.829
6.952000	 64.8926
6.970000	 64.8242
6.988000	 64.7263
7.006000	 64.7151
7.024000	 64.7531
7.042000	 64.7937
7.060000	 64.8177
7.078000	 64.7757
7.096000	 64.6959
7.114000	 64.6844
7.132000	 64.7453
7.150000	 64.7751
7.168000	 64.7455
7.186000	 64.7097
7.204000	 64.6967
7.222000	 64.711
7.240000	 64.7334
7.258000	 64.7384
7.276000	 64.7323
7.294000	 64.7164
7.312000	 64.6837
7.330000	 64.6621
7.348000	 64.6755
7.366000	 64.6909
7.384000	 64.6856
7.402000	 64.7158
7.420000	 64.8206
7.438000	 64.9229
7.456000	 64.9394
7.474000	 64.8871
7.492000	 64.816
7.510000	 64.7523
7.528000	 64.7112
7.546000	 64.697
7.564000	 64.6978
7.582000	 64.7042
7.600000	 64.7044
7.618000	 64.674
7.636000	 64.6217
7.654000	 64.6023
7.672000	 64.6363
7.690000	 64.6999
7.708000	 64.7759
7.726000	 64.8326
7.744000	 64.8309
7.762000	 64.774
7.780000	 64.6918
7.798000	 64.61
7.816000	 64.561
7.834000	 64.5555
7.852000	 64.5557
7.870000	 64.5392
7.888000	 64.5415
7.906000	 64.5861
7.924000	 64.6247
7.942000	 64.6012
7.960000	 64.536
7.978000	 64.501
7.996000	 64.524
8.013999	 64.5598
8.032000	 64.5616
8.050000	 64.5505
8.068000	 64.5786
8.086000	 64.6457
8.103999	 64.6974
8.122000	 64.6924
8.140000	 64.6413
8.158000	 64.5837
8.176000	 64.5564
8.193999	 64.5735
8.212000	 64.6193
8.230000	 64.6655
8.248000	 64.7003
8.266000	 64.7335
8.283999	 64.7683
8.302000	 64.7846
8.320000	 64.7624
8.338000	 64.7127
8.356000	 64.6698
8.374000	 64.6527
8.391999	 64.6469
8.410000	 64.6347
8.428000	 64.6171
8.446000	 64.5973
8.464000	 64.567
8.481999	 64.527
8.500000	 64.5013
8.518000	 64.5077
8.536000	 64.5283
8.554000	 64.5364
8.571999	 64.5326
8.590000	 64.537
8.608000	 64.558
8.626000	 64.5808
8.644000	 64.5889
8.661999	 64.5897
8.680000	 64.5983
8.698000	 64.5977
8.716000	 64.5513
8.734000	 64.458
8.751999	 64.369
8.770000	 64.3366
8.788000	 64.3609
8.806000	 64.4016
8.824000	 64.427
8.842000	 64.4365
8.859999	 64.4421
8.878000	 64.448
8.896000	 64.4512
8.914000	 64.4532
8.932000	 64.4648
8.949999	 64.4922
8.968000	 64.5235
8.986000	 64.5323
9.004000	 64.504
9.022000	 64.4531
9.039999	 64.4179
9.058000	 64.4293
9.076000	 64.4813
9.094000	 64.5326
9.112000	 64.5398
9.129999	 64.4919
9.148000	 64.4143
9.166000	 64.3461
9.184000	 64.3169
9.202000	 64.3329
9.219999	 64.3777
9.238000	 64.4256
9.256000	 64.4611
9.274000	 64.4843
9.292000	 64.4995
9.310000	 64.4987
9.327999	 64.4678
9.346000	 64.4092
9.364000	 64.3508
9.382000	 64.3257
9.400000	 64.3411
9.418000	 64.3728
9.436000	 64.389
9.454000	 64.3759
9.472000	 64.3444
9.490000	 64.3151
9.508000	 64.303
9.526000	 64.3116
9.544000	 64.3344
9.561999	 64.3579
9.580000	 64.3689
9.598000	 64.3631
9.616000	 64.3485
9.634000	 64.3415
9.652000	 64.355
9.670000	 64.3884
9.688000	 64.4234
9.706000	 64.4346
9.724000	 64.4058
9.742000	 64.3428
9.760000	 64.2713
9.778000	 64.2218
9.795999	 64.2105
9.814000	 64.2311
9.832000	 64.2638
9.850000	 64.2902
9.868000	 64.3019
9.886000	 64.2981
9.904000	 64.2797
9.922000	 64.2491
9.940000	 64.213
9.958000	 64.1828
9.976000	 64.1702
9.994000	 64.1804
10.012	64.2088
10.03	64.2439
10.048	64.2715
10.066	64.278
10.084	64.2558
10.102	64.2076
10.12	64.1481
10.138	64.1011
10.156	64.0858
10.174	64.1066
10.192	64.1484
10.21	64.183
10.228	64.1855
10.246	64.1476
10.264	64.0815
10.282	64.015
10.3	63.9798
10.318	63.9988
10.336	64.0731
10.354	64.1802
10.372	64.2849
10.39	64.3559
10.408	64.381
10.426	64.3643
10.444	64.3207
10.462	64.2652
10.48	64.2115
10.498	64.1725
10.516	64.1569
10.534	64.1675
10.552	64.1948
10.57	64.2204
10.588	64.2249
10.606	64.2013
10.624	64.1588
10.642	64.1198
10.66	64.1045
10.678	64.1216
10.696	64.1623
10.714	64.2079
10.732	64.2414
10.75	64.2567
10.768	64.2616
10.786	64.2706
10.804	64.2971
10.822	64.3436
10.84	64.4013
10.858	64.4533
10.876	64.482
10.894	64.4765
10.912	64.4355
10.93	64.3686
10.948	64.2893
10.966	64.2119
10.984	64.1457
11.002	64.0937
11.02	64.0558
11.038	64.0324
11.056	64.0263
11.074	64.0411
11.092	64.0767
11.11	64.1233
11.128	64.1628
11.146	64.1741
11.164	64.1399
11.182	64.0574
11.2	63.9408
11.218	63.8155
11.236	63.7141
11.254	63.6627
11.272	63.6748
11.29	63.7488
11.308	63.871
11.326	64.0181
11.344	64.1675
11.362	64.3015
11.38	64.4103
11.398	64.4929
11.416	64.5524
11.434	64.5901
11.452	64.603
11.47	64.5825
11.488	64.5192
11.506	64.4091
11.524	64.2578
11.542	64.0805
11.56	63.9011
11.578	63.7432
11.596	63.6252
11.614	63.5577
11.632	63.5428
11.65	63.5784
11.668	63.6593
11.686	63.7801
11.704	63.9324
11.722	64.1002
11.74	64.2604
11.758	64.3854
11.776	64.4488
11.794	64.4375
11.812	64.3576
11.83	64.2338
11.848	64.1033
11.866	64.002
11.884	63.9531
11.902	63.9618
11.92	64.0139
11.938	64.0836
11.956	64.1413
11.974	64.1632
11.992	64.1394
12.01	64.0729
12.028	63.9771
12.046	63.8708
12.064	63.7723
12.082	63.6939
12.1	63.6408
12.118	63.6106
12.136	63.5952
12.154	63.5842
12.172	63.5693
12.19	63.5459
12.208	63.5141
12.226	63.4767
12.244	63.4381
12.262	63.4024
12.28	63.3737
12.298	63.3567
12.316	63.3576
12.334	63.3824
12.352	63.4339
12.37	63.509
12.388	63.5974
12.406	63.6812
12.424	63.7393
12.442	63.7535
12.46	63.7137
12.478	63.6227
12.496	63.497
12.514	63.3624
12.532	63.2458
12.55	63.1684
12.568	63.141
12.586	63.1621
12.604	63.2193
12.622	63.2952
12.64	63.3723
12.658	63.438
12.676	63.486
12.694	63.5162
12.712	63.5332
12.73	63.5436
12.748	63.5531
12.766	63.5657
12.784	63.5825
12.802	63.6032
12.82	63.6265
12.838	63.6508
12.856	63.6744
12.874	63.6962
12.892	63.7151
12.91	63.73
12.928	63.7399
12.946	63.7434
12.964	63.7393
12.982	63.7273
13	63.7073
13.018	63.6801
13.036	63.6473
13.054	63.6111
13.072	63.574
13.09	63.5383
13.108	63.5055
13.126	63.4761
13.144	63.4502
13.162	63.4276
13.18	63.4089
13.198	63.3947
13.216	63.3868
13.234	63.3876
13.252	63.3999
13.27	63.4253
13.288	63.4643
13.306	63.5149
13.324	63.5729
13.342	63.6323
13.36	63.6852
13.378	63.7235
13.396	63.7406
13.414	63.7324
13.432	63.6987
13.45	63.6428
13.468	63.5716
13.486	63.4938
13.504	63.4181
13.522	63.352
13.54	63.3
13.558	63.2636
13.576	63.241
13.594	63.2286
13.612	63.2218
13.63	63.2164
13.648	63.2093
13.666	63.1998
13.684	63.1881
13.702	63.1767
13.72	63.168
13.738	63.1654
13.756	63.171
13.774	63.1869
13.792	63.2144
13.81	63.2537
13.828	63.3044
13.846	63.3648
13.864	63.4317
13.882	63.5003
13.9	63.565
13.918	63.6191
13.936	63.657
13.954	63.674
13.972	63.6678
13.99	63.6385
14.008	63.5885
14.026	63.5223
14.044	63.4458
14.062	63.3649
14.08	63.2851
14.098	63.2101
14.116	63.1424
14.134	63.0829
14.152	63.0311
14.17	62.9859
14.188	62.946
14.206	62.9101
14.224	62.8776
14.242	62.848
14.26	62.8215
14.278	62.7982
14.296	62.7784
14.314	62.7626
14.332	62.7511
14.35	62.7443
14.368	62.7419
14.386	62.7436
14.404	62.7481
14.422	62.7539
14.44	62.759
14.458	62.7615
14.476	62.7602
14.494	62.7546
14.512	62.7451
14.53	62.7327
14.548	62.719
14.566	62.7056
14.584	62.6936
14.602	62.6832
14.62	62.6738
14.638	62.6644
14.656	62.6537
14.674	62.6407
14.692	62.6257
14.71	62.6095
14.728	62.594
14.746	62.5818
14.764	62.5764
14.782	62.5804
14.8	62.5954
14.818	62.6216
14.836	62.6576
14.854	62.6999
14.872	62.744
14.89	62.7855
14.908	62.8206
14.926	62.8461
14.944	62.8604
14.962	62.8638
14.98	62.8579
14.998	62.8449
15.016	62.8272
15.034	62.8075
15.052	62.7874
15.07	62.7669
15.088	62.7454
15.106	62.7216
15.124	62.6936
15.142	62.659
15.16	62.6165
15.178	62.5657
15.196	62.5065
15.214	62.4411
15.232	62.3726
15.25	62.3048
15.268	62.2419
15.286	62.1884
15.304	62.1486
15.322	62.1248
15.34	62.1183
15.358	62.1289
15.376	62.1543
15.394	62.1906
15.412	62.233
15.43	62.2761
15.448	62.3132
15.466	62.3388
15.484	62.3491
15.502	62.341
15.52	62.3135
15.538	62.2685
15.556	62.2094
15.574	62.1401
15.592	62.0679
15.61	61.999
15.628	61.9391
15.646	61.8933
15.664	61.866
15.682	61.8586
15.7	61.8711
15.718	61.9025
15.736	61.9487
15.754	62.0059
15.772	62.07
15.79	62.1355
15.808	62.1976
15.826	62.2532
15.844	62.2989
15.862	62.3326
15.88	62.3543
15.898	62.3641
15.916	62.3634
15.934	62.355
15.952	62.3411
15.97	62.3243
15.988	62.3081
16.006	62.2942
16.024	62.2842
16.042	62.2797
16.06	62.2805
16.078	62.2862
16.096	62.296
16.114	62.3078
16.132	62.3199
16.15	62.3305
16.168	62.3373
16.186	62.339
16.204	62.3345
16.222	62.3229
16.24	62.3047
16.258	62.28
16.276	62.2508
16.294	62.2192
16.312	62.1871
16.33	62.1578
16.348	62.1341
16.366	62.1176
16.384	62.1106
16.402	62.1137
16.42	62.1269
16.438	62.1495
16.456	62.1792
16.474	62.2144
16.492	62.2519
16.51	62.2886
16.528	62.3224
16.546	62.3505
16.564	62.3712
16.582	62.3837
16.6	62.3872
16.618	62.3824
16.636	62.3697
16.654	62.3503
16.672	62.3254
16.69	62.296
16.708	62.2641
16.726	62.2306
16.744	62.1967
16.762	62.1639
16.78	62.1326
16.798	62.1038
16.816	62.0782
16.834	62.0561
16.852	62.038
16.87	62.0241
16.888	62.0146
16.906	62.0095
16.924	62.0087
16.942	62.0121
16.96	62.019
16.978	62.0292
16.996	62.0417
17.014	62.0555
17.032	62.0697
17.05	62.0827
17.068	62.0937
17.086	62.1015
17.104	62.105
17.122	62.1039
17.14	62.0978
17.158	62.0873
17.176	62.0727
17.194	62.0558
17.212	62.0374
17.23	62.0192
17.248	62.003
17.266	61.9896
17.284	61.9803
17.302	61.9751
17.32	61.9744
17.338	61.9767
17.356	61.9818
17.374	61.9873
17.392	61.9922
17.41	61.9949
17.428	61.9935
17.446	61.9875
17.464	61.9755
17.482	61.9579
17.5	61.9346
17.518	61.9071
17.536	61.876
17.554	61.8437
17.572	61.8108
17.59	61.7797
17.608	61.7514
17.626	61.7271
17.644	61.7077
17.662	61.6933
17.68	61.6838
17.698	61.6788
17.716	61.6775
17.734	61.6787
17.752	61.6817
17.77	61.685
17.788	61.6881
17.806	61.6901
17.824	61.6908
17.842	61.6898
17.86	61.6874
17.878	61.6836
17.896	61.679
17.914	61.6738
17.932	61.6686
17.95	61.6635
17.968	61.6585
17.986	61.6534
18.004	61.6478
18.022	61.6409
18.04	61.6325
18.058	61.6212
18.076	61.6068
18.094	61.5882
18.112	61.5653
18.13	61.5374
18.148	61.5047
18.166	61.4674
18.184	61.4261
18.202	61.3812
18.22	61.3339
18.238	61.2847
18.256	61.2349
18.274	61.1847
18.292	61.1354
18.31	61.0868
18.328	61.0396
18.346	60.9936
18.364	60.9489
18.382	60.9052
18.4	60.8623
18.418	60.82
18.436	60.778
18.454	60.7362
18.472	60.6946
18.49	60.6533
18.508	60.6123
18.526	60.5724
18.544	60.5337
18.562	60.497
18.58	60.4625
18.598	60.4315
18.616	60.4039
18.634	60.3807
18.652	60.362
18.67	60.3486
18.688	60.3404
18.706	60.3375
18.724	60.3397
18.742	60.3472
18.76	60.3595
18.778	60.3763
18.796	60.3973
18.814	60.4222
18.832	60.4505
18.85	60.4816
18.868	60.5154
18.886	60.5513
18.904	60.5891
18.922	60.6286
18.94	60.6694
18.958	60.7114
18.976	60.7541
18.994	60.7972
19.012	60.8403
19.03	60.8828
19.048	60.9239
19.066	60.9632
19.084	60.9994
19.102	61.0318
19.12	61.0595
19.138	61.0813
19.156	61.0966
19.174	61.1042
19.192	61.1039
19.21	61.0951
19.228	61.0778
19.246	61.0519
19.264	61.018
19.282	60.9768
19.3	60.9291
19.318	60.8768
19.336	60.8205
19.354	60.7635
19.372	60.7056
19.39	60.6511
19.408	60.5997
19.426	60.555
19.444	60.5168
19.462	60.4876
19.48	60.4674
19.498	60.4568
19.516	60.4559
19.534	60.4636
19.552	60.4801
19.57	60.5031
19.588	60.5319
19.606	60.5645
19.624	60.5985
19.642	60.6332
19.66	60.6649
19.678	60.694
19.696	60.7167
19.714	60.7336
19.732	60.7425
19.75	60.7435
19.768	60.7362
19.786	60.7202
19.804	60.697
19.822	60.6665
19.84	60.6303
19.858	60.5896
19.876	60.5453
19.894	60.5
19.912	60.4537
19.93	60.4095
19.948	60.367
19.966	60.3287
19.984	60.2947
20.002	60.2656
20.02	60.2421
20.038	60.2236
20.056	60.21
20.074	60.2006
20.092	60.1938
20.11	60.1896
20.128	60.1847
20.146	60.1797
20.164	60.1713
20.182	60.159
20.2	60.1413
20.218	60.1161
20.236	60.0836
20.254	60.0419
20.272	59.9916
20.29	59.9324
20.308	59.8639
20.326	59.7882
20.344	59.7051
20.362	59.6165
20.38	59.5248
20.398	59.43
20.416	59.3369
20.434	59.2445
20.452	59.1574
20.47	59.0762
20.488	59.0026
20.506	58.9392
20.524	58.8856
20.542	58.844
20.56	58.8143
20.578	58.796
20.596	58.7898
20.614	58.7941
20.632	58.8075
20.65	58.8301
20.668	58.8576
20.686	58.8911
20.704	58.9266
20.722	58.9628
20.74	58.9988
20.758	59.0308
20.776	59.0599
20.794	59.0826
20.812	59.0988
20.83	59.1081
20.848	59.1093
20.866	59.103
20.884	59.0896
20.902	59.0687
20.92	59.0424
20.938	59.011
20.956	58.9753
20.974	58.9377
20.992	58.8976
21.01	58.8579
21.028	58.8191
21.046	58.782
21.064	58.7488
21.082	58.7188
21.1	58.6941
21.118	58.6746
21.136	58.6608
21.154	58.6534
21.172	58.652
21.19	58.6566
21.208	58.6674
21.226	58.6837
21.244	58.705
21.262	58.7313
21.28	58.7614
21.298	58.7954
21.316	58.8326
21.334	58.872
21.352	58.914
21.37	58.9571
21.388	59.0014
21.406	59.0464
21.424	59.0912
21.442	59.136
21.46	59.1798
21.478	59.2225
21.496	59.2638
21.514	59.3028
21.532	59.3397
21.55	59.3737
21.568	59.4043
21.586	59.4315
21.604	59.4541
21.622	59.4722
21.64	59.4854
21.658	59.4928
21.676	59.4949
21.694	59.4905
21.712	59.4797
21.73	59.4624
21.748	59.4383
21.766	59.4077
21.784	59.3703
21.802	59.3262
21.82	59.2754
21.838	59.2188
21.856	59.1562
21.874	59.0882
21.892	59.0155
21.91	58.9377
21.928	58.856
21.946	58.771
21.964	58.6824
21.982	58.5917
22	58.4985
22.018	58.4034
22.036	58.3074
22.054	58.21
22.072	58.1123
22.09	58.0147
22.108	57.9171
22.126	57.8208
22.144	57.7256
22.162	57.6321
22.18	57.5417
22.198	57.4539
22.216	57.3699
22.234	57.2907
22.252	57.2157
22.27	57.1469
22.288	57.0848
22.306	57.0291
22.324	56.9821
22.342	56.9433
22.36	56.9134
22.378	56.8935
22.396	56.8836
22.414	56.8836
22.432	56.8943
22.45	56.9156
22.468	56.9465
22.486	56.9871
22.504	57.0374
22.522	57.095
22.54	57.1601
22.558	57.2322
22.576	57.3078
22.594	57.3876
22.612	57.4702
22.63	57.5517
22.648	57.6336
22.666	57.7137
22.684	57.7886
22.702	57.8599
22.72	57.9254
22.738	57.9827
22.756	58.033
22.774	58.0751
22.792	58.1082
22.81	58.1326
22.828	58.1486
22.846	58.1559
22.864	58.1547
22.882	58.1463
22.9	58.1309
22.918	58.1084
22.936	58.0809
22.954	58.0483
22.972	58.0108
22.99	57.9706
23.008	57.9276
23.026	57.882
23.044	57.8352
23.062	57.7872
23.08	57.7382
23.098	57.6894
23.116	57.6408
23.134	57.5922
23.152	57.544
23.17	57.4963
23.188	57.4487
23.206	57.401
23.224	57.3535
23.242	57.3057
23.26	57.2567
23.278	57.2068
23.296	57.1558
23.314	57.1031
23.332	57.0489
23.35	56.993
23.368	56.9351
23.386	56.8752
23.404	56.8133
23.422	56.7495
23.44	56.6834
23.458	56.6156
23.476	56.5465
23.494	56.476
23.512	56.4044
23.53	56.3329
23.548	56.2611
23.566	56.1893
23.584	56.1195
23.602	56.0516
23.62	55.9854
23.638	55.9232
23.656	55.8654
23.674	55.8113
23.692	55.7629
23.71	55.721
23.728	55.6849
23.746	55.6555
23.764	55.6337
23.782	55.6189
23.8	55.6113
23.818	55.6112
23.836	55.6187
23.854	55.6332
23.872	55.6543
23.89	55.6826
23.908	55.717
23.926	55.7562
23.944	55.8007
23.962	55.85
23.98	55.9019
23.998	55.9564
24.016	56.0138
24.034	56.0722
24.052	56.1308
24.07	56.1904
24.088	56.2499
24.106	56.3086
24.124	56.3668
24.142	56.4246
24.16	56.4817
24.178	56.5379
24.196	56.5938
24.214	56.65
24.232	56.7059
24.25	56.762
24.268	56.8204
24.286	56.8817
24.304	56.945
24.322	57.0119
24.34	57.0839
24.358	57.1601
24.376	57.2408
24.394	57.327
24.412	57.4191
24.43	57.5161
24.448	57.6163
24.466	57.7201
24.484	57.8278
24.502	57.9362
24.52	58.0436
24.538	58.1529
24.556	58.2594
24.574	58.3582
24.592	58.4524
24.61	58.5397
24.628	58.614
24.646	58.6744
24.664	58.7231
24.682	58.7545
24.7	58.764
24.718	58.7552
24.736	58.7255
24.754	58.6704
24.772	58.5902
24.79	58.4858
24.808	58.3565
24.826	58.2009
24.844	58.0191
24.862	57.8139
24.88	57.588
24.898	57.3379
24.916	57.0671
24.934	56.7825
24.952	56.4851
24.97	56.1714
24.988	55.8507
25.006	55.5316
25.024	55.207
25.042	54.8824
25.06	54.5684
25.078	54.2671
25.096	53.9737
25.114	53.6966
25.132	53.4432
25.15	53.2085
25.168	52.9952
25.186	52.8094
25.204	52.6532
25.222	52.5233
25.24	52.4226
25.258	52.3538
25.276	52.3169
25.294	52.3101
25.312	52.3321
25.33	52.3834
25.348	52.4651
25.366	52.5723
25.384	52.7
25.402	52.8518
25.42	53.0256
25.438	53.2145
25.456	53.4144
25.474	53.6309
25.492	53.8579
25.51	54.0883
25.528	54.3226
25.546	54.5628
25.564	54.8034
25.582	55.0396
25.6	55.2741
25.618	55.5064
25.636	55.7341
25.654	55.9566
25.672	56.1756
25.69	56.3885
25.708	56.5926
25.726	56.7883
25.744	56.9764
25.762	57.1552
25.78	57.3231
25.798	57.4791
25.816	57.6258
25.834	57.7665
25.852	57.9018
25.87	58.0285
25.888	58.1522
25.906	58.2788
25.924	58.4065
25.942	58.5335
25.96	58.6682
25.978	58.8186
25.996	58.9798
26.014	59.1529
26.032	59.3441
26.05	59.5585
26.068	59.7925
26.086	60.0465
26.104	60.3226
26.122	60.6228
26.14	60.9473
26.158	61.2917
26.176	61.6519
26.194	62.0309
26.212	62.4309
26.23	62.8393
26.248	63.244
26.266	63.6517
26.284	64.0629
26.302	64.4626
26.32	64.8369
26.338	65.1951
26.356	65.5353
26.374	65.8462
26.392	66.118
26.41	66.3587
26.428	66.5658
26.446	66.733
26.464	66.854
26.482	66.9295
26.5	66.9652
26.518	66.9667
26.536	66.9363
26.554	66.8675
26.572	66.7683
26.59	66.6477
26.608	66.5109
26.626	66.3516
26.644	66.1727
26.662	65.9782
26.68	65.7685
26.698	65.5401
26.716	65.2985
26.734	65.0499
26.752	64.7969
26.77	64.5359
26.788	64.2678
26.806	63.994
26.824	63.7116
26.842	63.4182
26.86	63.1237
26.878	62.8384
26.896	62.5603
26.914	62.2792
26.932	62.0156
26.95	61.7903
26.968	61.616
26.986	61.481
27.004	61.3793
27.022	61.3051
27.028	61.2886