File: Bakgrunnsmateriale/MATLAB/FTIR/ftir_data/subBb/Mapping_36/C-4040-8_t19_cm-1.asc
PE IR       SPECTRUM    SPECTRUM    ASCII       PEDS        1.60
  -1
C-1AE0~1.ASC
17/05/02
12:27:19.00
17/05/02
12:27:19.00
tln
$C-4040-8_t0019$<tbV0>[12.5,2.0,8.0,0.0,22,1,0]
370
64

2002,4.07
MIRTGS : RIGHTBACK : INTERNAL 2
MIR : ON : INTERNAL 2
OPTKBR

0.200000
8
8.000000
FILLER
RATIO
SPECTRUM
UNLOCKED 256

DOUBLE
64
COMBINED
1
0
0

1.000000
RATIO

1
0
TRUE
51149
0
LEFT NOT FITTED RIGHT NOT FITTED 0
NONE
NONE
15600
12
4.427000
51148
TRUE
1 0 8 72 0 0 0 0

15798

#HDR
-1
-1
#GR
CM-1
%T
2.38419e-05
0.0
7800
-1.000000
7431
8
75.1986
43.0543
#DATA
7800	69.0795
7795	66.9593
7790	70.8945
7785	72.5306
7780	69.3186
7775	61.6421
7770	64.02
7765	68.9214
7760	65.3344
7755	64.7684
7750	63.6121
7745	60.2118
7740	68.3453
7735	75.1986
7730	72.4974
7725	70.6767
7720	71.5313
7715	66.3733
7710	62.7146
7705	66.174
7700	69.0433
7695	68.4993
7690	65.0624
7685	63.7346
7680	68.822
7675	74.3039
7670	72.6259
7665	67.7871
7660	67.788
7655	68.8267
7650	67.2
7645	67.8113
7640	71.3892
7635	72.6553
7630	72.2252
7625	71.4797
7620	68.3693
7615	64.9229
7610	67.8187
7605	73.0418
7600	69.0383
7595	64.5791
7590	65.8104
7585	67.7108
7580	64.9071
7575	62.6098
7570	63.251
7565	63.2608
7560	63.9606
7555	64.8476
7550	63.4952
7545	63.9952
7540	66.3782
7535	69.7739
7530	68.9966
7525	67.2521
7520	67.6797
7515	67.9718
7510	66.7147
7505	64.2743
7500	65.4301
7495	67.7992
7490	67.5384
7485	66.7082
7480	66.3667
7475	64.3905
7470	64.7504
7465	64.7245
7460	63.3479
7455	64.7517
7450	64.4784
7445	65.747
7440	65.3653
7435	62.0465
7430	62.0171
7425	63.6433
7420	65.4814
7415	65.4571
7410	65.2698
7405	66.1604
7400	64.6198
7395	64.9322
7390	65.5819
7385	65.2381
7380	64.5746
7375	64.0323
7370	64.4956
7365	67.374
7360	69.8488
7355	67.7738
7350	66.811
7345	66.4889
7340	66.687
7335	65.6566
7330	65.6505
7325	68.1011
7320	67.6442
7315	65.3509
7310	62.2598
7305	61.8975
7300	65.1506
7295	65.2121
7290	62.9283
7285	61.3075
7280	60.6257
7275	62.7113
7270	67.3398
7265	67.541
7260	64.4183
7255	64.8964
7250	68.0135
7245	68.2235
7240	65.2277
7235	65.0511
7230	66.6154
7225	66.5247
7220	66.4539
7215	67.8648
7210	67.1196
7205	64.9457
7200	63.6916
7195	63.3331
7190	65.1577
7185	65.4113
7180	64.2728
7175	65.8501
7170	66.2246
7165	62.9782
7160	61.8663
7155	63.2843
7150	61.2214
7145	59.733
7140	62.1568
7135	63.0198
7130	62.2966
7125	63.957
7120	64.5454
7115	63.2927
7110	63.1054
7105	65.2595
7100	66.3274
7095	65.1841
7090	63.0121
7085	62.1896
7080	62.3104
7075	62.6218
7070	63.1281
7065	64.4495
7060	66.024
7055	65.071
7050	61.2703
7045	61.4444
7040	63.8091
7035	60.7176
7030	58.2749
7025	60.5296
7020	61.4228
7015	60.3719
7010	60.8807
7005	61.8742
7000	62.9069
6995	63.1777
6990	61.2643
6985	60.6703
6980	60.762
6975	61.515
6970	62.3299
6965	64.0844
6960	64.0599
6955	62.6276
6950	63.5766
6945	64.7483
6940	64.343
6935	63.5521
6930	62.612
6925	64.0401
6920	64.52
6915	64.1353
6910	63.7538
6905	63.9809
6900	64.5246
6895	63.9917
6890	64.379
6885	64.3681
6880	64.9788
6875	65.3304
6870	64.1249
6865	62.7217
6860	62.7548
6855	63.5499
6850	63.5422
6845	63.4695
6840	63.6851
6835	64.1879
6830	65.3998
6825	65.1678
6820	63.9996
6815	62.8432
6810	63.4811
6805	63.4381
6800	63.3318
6795	64.2294
6790	64.6366
6785	63.856
6780	62.3555
6775	61.9884
6770	64.2951
6765	65.9911
6760	65.6931
6755	64.5756
6750	63.4908
6745	64.4944
6740	65.5739
6735	64.7176
6730	63.165
6725	63.2142
6720	64.1106
6715	63.303
6710	63.153
6705	63.8422
6700	63.5867
6695	64.2651
6690	64.7745
6685	64.0829
6680	63.6834
6675	63.3986
6670	63.1781
6665	64.329
6660	64.6753
6655	63.4512
6650	62.1841
6645	61.5685
6640	61.0325
6635	61.7418
6630	63.0641
6625	65.3525
6620	65.7606
6615	64.1585
6610	64.4981
6605	65.3199
6600	64.2577
6595	64.7134
6590	64.7894
6585	63.7685
6580	64.1238
6575	63.3557
6570	63.3993
6565	64.3178
6560	64.3121
6555	63.3033
6550	63.343
6545	64.5335
6540	65.1284
6535	64.6864
6530	64.6911
6525	65.2857
6520	65.9026
6515	65.631
6510	64.6949
6505	64.4034
6500	64.9159
6495	64.9982
6490	65.4068
6485	64.7838
6480	64.661
6475	64.5817
6470	64.5364
6465	64.6971
6460	64.4163
6455	64.4617
6450	64.4254
6445	65.0297
6440	64.9451
6435	63.7054
6430	63.6515
6425	63.8809
6420	64.4431
6415	65.3444
6410	65.1869
6405	65.5716
6400	65.8654
6395	65.0306
6390	64.9355
6385	65.2569
6380	64.6075
6375	64.1107
6370	64.3771
6365	64.941
6360	65.1101
6355	64.7984
6350	64.9977
6345	65.1009
6340	64.9447
6335	65.0336
6330	64.9091
6325	64.8091
6320	65.0489
6315	65.409
6310	64.9112
6305	65.3913
6300	65.697
6295	65.2975
6290	65.4633
6285	65.5606
6280	65.095
6275	64.4815
6270	64.6616
6265	64.1935
6260	64.2323
6255	65.1366
6250	65.061
6245	64.3604
6240	64.6665
6235	64.8378
6230	65.0353
6225	65.7562
6220	64.8796
6215	64.0758
6210	64.7174
6205	65.047
6200	64.5463
6195	64.248
6190	63.9666
6185	64.154
6180	65.0316
6175	65.2245
6170	64.6846
6165	64.3565
6160	64.4525
6155	64.5811
6150	65.4803
6145	65.3242
6140	64.7935
6135	65.3819
6130	66.0303
6125	66.0832
6120	65.2638
6115	64.5929
6110	64.2153
6105	64.0257
6100	64.1661
6095	64.0774
6090	64.3712
6085	64.7159
6080	65.18
6075	64.9255
6070	64.1438
6065	63.8793
6060	64.6452
6055	65.5683
6050	65.9374
6045	65.4584
6040	64.8354
6035	64.8607
6030	65.4182
6025	64.9612
6020	65.0509
6015	65.3849
6010	64.9544
6005	64.9803
6000	65.3477
5995	65.2628
5990	65.1401
5985	65.1171
5980	64.4425
5975	64.2178
5970	64.6943
5965	65.4033
5960	65.3059
5955	64.2321
5950	64.2931
5945	64.7639
5940	64.4741
5935	64.7656
5930	64.9492
5925	64.818
5920	64.8149
5915	64.4933
5910	64.1747
5905	65.1825
5900	65.5527
5895	64.7602
5890	64.5744
5885	64.9904
5880	65.1529
5875	65.1531
5870	64.7034
5865	64.6081
5860	65.1356
5855	65.0562
5850	65.0184
5845	64.6799
5840	64.4113
5835	64.6783
5830	64.9635
5825	64.9555
5820	64.9833
5815	64.6246
5810	64.044
5805	64.3202
5800	64.6455
5795	65.0842
5790	64.9964
5785	65.0502
5780	65.3048
5775	65.2216
5770	64.6757
5765	64.0811
5760	64.362
5755	64.5668
5750	64.7256
5745	64.5958
5740	64.785
5735	64.9958
5730	64.9526
5725	65.0312
5720	65.6921
5715	65.2866
5710	64.1273
5705	63.8507
5700	64.2445
5695	64.1676
5690	63.9875
5685	63.8253
5680	63.9872
5675	64.3857
5670	64.0795
5665	63.8617
5660	64.1704
5655	64.4587
5650	64.4671
5645	64.7761
5640	64.8563
5635	64.2946
5630	64.1724
5625	65.0849
5620	65.4922
5615	65.4052
5610	65.0682
5605	64.817
5600	64.69
5595	64.6398
5590	64.4974
5585	64.4861
5580	64.3371
5575	64.4755
5570	64.7577
5565	64.7789
5560	64.74
5555	64.6683
5550	64.5063
5545	64.6951
5540	64.7702
5535	64.8882
5530	64.8602
5525	64.5895
5520	64.3689
5515	64.422
5510	64.9681
5505	65.0475
5500	64.5408
5495	64.7196
5490	64.8
5485	64.7455
5480	65.0177
5475	64.8309
5470	64.6676
5465	64.4595
5460	64.0903
5455	64.2851
5450	64.9984
5445	64.8651
5440	64.5112
5435	64.8302
5430	64.8654
5425	64.2026
5420	64.2118
5415	64.5286
5410	64.9224
5405	65.0827
5400	65.3564
5395	65.4784
5390	64.433
5385	63.8027
5380	64.3812
5375	64.8721
5370	63.9744
5365	63.6266
5360	64.2665
5355	63.8432
5350	63.4779
5345	64.0825
5340	64.3127
5335	63.8192
5330	63.3564
5325	63.4785
5320	62.9844
5315	62.391
5310	63.6562
5305	64.8056
5300	63.4416
5295	64.1621
5290	65.2623
5285	64.4644
5280	64.2703
5275	62.3896
5270	60.7961
5265	62.9709
5260	67.0617
5255	67.9284
5250	66.8146
5245	66.7883
5240	65.3827
5235	63.7682
5230	63.8488
5225	64.1583
5220	64.6563
5215	64.4232
5210	64.2076
5205	64.911
5200	64.6801
5195	64.0383
5190	64.2504
5185	63.892
5180	63.4971
5175	64.1504
5170	64.7319
5165	64.7602
5160	64.6437
5155	64.3523
5150	64.3723
5145	64.7294
5140	64.5753
5135	64.2296
5130	64.4342
5125	64.6886
5120	64.6492
5115	64.7218
5110	64.6961
5105	64.8577
5100	65.011
5095	65.1276
5090	65.1
5085	64.988
5080	64.8095
5075	64.6768
5070	64.6611
5065	64.7955
5060	65.1495
5055	65.1272
5050	65.0296
5045	65.3872
5040	65.1509
5035	64.5689
5030	64.5668
5025	64.7191
5020	64.9173
5015	65.165
5010	65.0172
5005	64.9697
5000	64.9327
4995	64.9089
4990	65.0053
4985	65.0049
4980	65.1563
4975	65.2249
4970	65.1872
4965	65.2085
4960	64.7628
4955	64.6635
4950	64.8339
4945	64.9275
4940	65.0117
4935	64.8815
4930	64.5848
4925	64.5651
4920	64.9983
4915	65.1942
4910	65.1196
4905	65.0506
4900	65.0887
4895	64.9289
4890	64.4148
4885	64.2935
4880	64.7452
4875	64.7944
4870	64.5649
4865	64.5247
4860	64.7251
4855	64.9037
4850	64.8752
4845	64.6101
4840	64.558
4835	64.7212
4830	64.906
4825	64.7386
4820	64.4531
4815	64.3064
4810	64.3736
4805	64.6246
4800	64.6969
4795	64.6155
4790	64.5947
4785	64.8496
4780	64.9338
4775	64.875
4770	64.7049
4765	64.4669
4760	64.6035
4755	64.8512
4750	64.8036
4745	64.3704
4740	64.0059
4735	64.2851
4730	64.5769
4725	64.6371
4720	64.6379
4715	64.7397
4710	64.7557
4705	64.7375
4700	64.5498
4695	64.5079
4690	64.6389
4685	64.5251
4680	64.3469
4675	64.4685
4670	64.6768
4665	64.6248
4660	64.7146
4655	64.961
4650	64.83
4645	64.7006
4640	64.8145
4635	65.0387
4630	65.0406
4625	64.9793
4620	64.8778
4615	64.9757
4610	65.1159
4605	65.0145
4600	64.8026
4595	64.8358
4590	65.0059
4585	64.9755
4580	64.6785
4575	64.4377
4570	64.6191
4565	64.8805
4560	64.841
4555	64.9042
4550	65.0381
4545	65.15
4540	65.0701
4535	65.1795
4530	65.4561
4525	65.2562
4520	65.0289
4515	64.9127
4510	64.9079
4505	65.118
4500	65.1527
4495	65.0681
4490	65.067
4485	65.0984
4480	65.0293
4475	64.9704
4470	65.1764
4465	65.4244
4460	65.2722
4455	65.2075
4450	65.4204
4445	65.3043
4440	65.1757
4435	65.4473
4430	65.3334
4425	65.2092
4420	65.3542
4415	64.7889
4410	64.8356
4405	65.2364
4400	63.8504
4395	66.6194
4390	65.8947
4385	43.8629
4380	53.1227
4375	63.3689
4370	65.0482
4365	66.7011
4360	66.3675
4355	65.6107
4350	66.0576
4345	66.0417
4340	65.6861
4335	65.4949
4330	65.1381
4325	64.8348
4320	65.0148
4315	65.331
4310	65.3899
4305	65.5015
4300	65.5452
4295	65.3342
4290	65.1348
4285	65.2024
4280	65.3538
4275	65.2954
4270	65.1298
4265	65.1194
4260	65.1357
4255	65.1335
4250	64.9489
4245	64.8921
4240	64.9613
4235	64.8587
4230	64.7389
4225	64.8957
4220	65.0209
4215	64.8506
4210	64.8552
4205	64.8103
4200	64.6478
4195	64.6702
4190	64.7395
4185	65.0013
4180	65.1841
4175	65.0681
4170	64.81
4165	64.708
4160	64.6325
4155	64.6671
4150	64.7007
4145	64.6876
4140	64.7623
4135	64.7541
4130	64.7115
4125	64.7432
4120	64.8127
4115	64.7332
4110	64.7698
4105	64.8503
4100	64.9631
4095	64.9125
4090	64.7724
4085	64.817
4080	65.0122
4075	64.8571
4070	64.6585
4065	64.7656
4060	64.7662
4055	64.9259
4050	65.1289
4045	65.0213
4040	64.9274
4035	64.9096
4030	64.9881
4025	64.9087
4020	64.9817
4015	65.0871
4010	64.9022
4005	64.8334
4000	64.9902
3995	64.9864
3990	64.8252
3985	64.7102
3980	64.8648
3975	64.9591
3970	64.8399
3965	64.9173
3960	65.101
3955	65.051
3950	65.0008
3945	64.9497
3940	64.9725
3935	65.0166
3930	65.0685
3925	65.12
3920	65.0323
3915	65.0054
3910	65.1345
3905	65.1686
3900	65.1463
3895	65.1249
3890	65.1745
3885	65.2068
3880	65.1155
3875	65.0994
3870	65.0228
3865	64.8951
3860	64.9967
3855	65.0808
3850	65.1278
3845	65.1406
3840	64.9548
3835	64.9401
3830	64.992
3825	65.0479
3820	65.0087
3815	64.8845
3810	64.8088
3805	64.6776
3800	64.7914
3795	65.1295
3790	65.1683
3785	65.0478
3780	65.0428
3775	64.9497
3770	64.9614
3765	64.9653
3760	65.0391
3755	65.2151
3750	65.2827
3745	65.1391
3740	64.9527
3735	64.9417
3730	64.9327
3725	64.8429
3720	64.9182
3715	65.027
3710	65.0259
3705	65.122
3700	65.1915
3695	65.0374
3690	64.9512
3685	64.9591
3680	64.9299
3675	64.9802
3670	64.903
3665	64.7631
3660	64.6757
3655	64.7182
3650	64.8942
3645	64.9649
3640	64.9229
3635	64.8522
3630	64.9014
3625	64.9564
3620	64.968
3615	64.9139
3610	64.9588
3605	65.0098
3600	64.9158
3595	64.9244
3590	64.9354
3585	64.9821
3580	65.0195
3575	64.9491
3570	64.8869
3565	64.8311
3560	64.94
3555	65.0711
3550	65.0239
3545	65.08
3540	65.1139
3535	64.9419
3530	64.8561
3525	64.8738
3520	64.8908
3515	65.0597
3510	65.0059
3505	64.7987
3500	64.7227
3495	65.1243
3490	65.4064
3485	65.1894
3480	65.052
3475	65.0911
3470	65.0301
3465	64.9427
3460	65.0542
3455	65.1094
3450	65.2257
3445	65.1978
3440	64.9098
3435	64.8711
3430	64.8793
3425	64.8338
3420	64.8744
3415	65.0105
3410	65.1597
3405	65.1784
3400	65.1246
3395	65.068
3390	65.0259
3385	65.0523
3380	65.0156
3375	64.9953
3370	64.9097
3365	64.9308
3360	65.1475
3355	65.1713
3350	65.0631
3345	64.9596
3340	64.9665
3335	65.0025
3330	65.0339
3325	65.0091
3320	65.06
3315	65.0314
3310	64.9565
3305	64.9946
3300	64.9859
3295	64.9462
3290	64.9538
3285	64.9115
3280	64.9447
3275	64.9759
3270	64.9433
3265	64.9054
3260	64.8829
3255	64.95
3250	64.9693
3245	65.0312
3240	65.0602
3235	65.0362
3230	65.0132
3225	64.9444
3220	64.9044
3215	64.987
3210	65.032
3205	65.0183
3200	64.901
3195	64.8635
3190	64.9249
3185	64.9048
3180	64.928
3175	64.955
3170	64.9906
3165	64.9878
3160	64.9249
3155	64.9357
3150	64.9926
3145	64.972
3140	64.9282
3135	64.9364
3130	65.0283
3125	65.0051
3120	65.0049
3115	65.0891
3110	65.0028
3105	64.9917
3100	65.0401
3095	65.0038
3090	65.0884
3085	65.1254
3080	65.0266
3075	64.9926
3070	65.002
3065	64.995
3060	64.9717
3055	64.9558
3050	64.924
3045	64.8569
3040	64.8316
3035	64.8355
3030	64.8897
3025	64.9295
3020	64.9774
3015	64.9657
3010	64.9832
3005	65.0163
3000	64.975
2995	64.9675
2990	64.9951
2985	64.926
2980	64.8995
2975	65.0115
2970	64.9884
2965	64.8249
2960	64.8031
2955	64.8
2950	64.7678
2945	64.8106
2940	64.8586
2935	64.9862
2930	65.0222
2925	64.8067
2920	64.6281
2915	64.6606
2910	64.7786
2905	64.779
2900	64.7763
2895	64.8789
2890	64.8906
2885	64.8232
2880	64.8226
2875	64.8941
2870	64.9395
2865	64.9072
2860	64.9032
2855	64.9022
2850	64.8235
2845	64.8212
2840	64.837
2835	64.9113
2830	65.0978
2825	65.1576
2820	65.0323
2815	65.0177
2810	65.0724
2805	65.0383
2800	64.984
2795	64.9755
2790	64.9993
2785	64.9736
2780	64.9611
2775	65.011
2770	65.0782
2765	65.1054
2760	65.0578
2755	65.0244
2750	65.0717
2745	65.0478
2740	65.0368
2735	65.0277
2730	65.0551
2725	65.1017
2720	65.1263
2715	65.1388
2710	65.1637
2705	65.1188
2700	65.024
2695	64.9026
2690	64.9132
2685	65.0034
2680	65.0335
2675	65.0082
2670	64.9852
2665	65.0045
2660	65.0089
2655	65.0086
2650	64.9954
2645	64.9377
2640	65.019
2635	65.1426
2630	65.072
2625	65.0351
2620	65.086
2615	65.1078
2610	65.0396
2605	65.0792
2600	65.0879
2595	65.0321
2590	65.0291
2585	65.1122
2580	65.1288
2575	65.0877
2570	65.1187
2565	65.1134
2560	65.1008
2555	65.0707
2550	64.9965
2545	65.0026
2540	65.004
2535	65.0401
2530	65.1152
2525	65.101
2520	65.0277
2515	65.0502
2510	65.0498
2505	64.9779
2500	64.9606
2495	64.921
2490	64.9514
2485	65.0503
2480	65.0521
2475	64.992
2470	65.0103
2465	65.1128
2460	65.1028
2455	65.0476
2450	65.1182
2445	65.1301
2440	65.0611
2435	65.0728
2430	65.0647
2425	65.0905
2420	65.1497
2415	65.1577
2410	65.0518
2405	65.0061
2400	65.0532
2395	65.0538
2390	65.057
2385	65.0129
2380	65.0025
2375	65.0663
2370	65.0633
2365	65.0753
2360	65.0979
2355	65.0888
2350	65.1058
2345	65.1057
2340	65.0559
2335	64.9812
2330	64.9363
2325	64.9515
2320	65.0862
2315	65.1961
2310	65.1198
2305	64.9634
2300	64.9805
2295	65.0486
2290	64.9969
2285	64.9972
2280	65.0408
2275	65.0543
2270	65.0966
2265	65.1108
2260	65.0599
2255	65.0737
2250	65.0378
2245	64.975
2240	65.0634
2235	65.1606
2230	65.1353
2225	65.1083
2220	65.0778
2215	65.0674
2210	65.028
2205	64.9747
2200	64.9968
2195	65.0149
2190	65.1078
2185	65.1623
2180	65.0101
2175	64.9701
2170	65.0529
2165	65.1096
2160	65.1065
2155	65.102
2150	65.0631
2145	65.0538
2140	65.0343
2135	64.9693
2130	64.9096
2125	64.9217
2120	64.9939
2115	65.0072
2110	65.0548
2105	65.0877
2100	65.0863
2095	65.1242
2090	65.1458
2085	65.1214
2080	65.037
2075	65.0264
2070	65.0731
2065	65.0726
2060	65.068
2055	65.0479
2050	65.0551
2045	65.0864
2040	65.1065
2035	65.1036
2030	65.0806
2025	65.0906
2020	65.0788
2015	65.0366
2010	65.0395
2005	65.0512
2000	65.0376
1995	65.0212
1990	65.0552
1985	65.1043
1980	65.0267
1975	64.9602
1970	64.9826
1965	65.0004
1960	65.0335
1955	65.0823
1950	65.0398
1945	65.0587
1940	65.1015
1935	65.088
1930	65.0778
1925	65.0605
1920	65.0304
1915	65.0234
1910	65.0191
1905	65.0263
1900	65.0096
1895	65.0381
1890	65.0857
1885	65.0479
1880	65.0403
1875	65.0567
1870	65.0774
1865	65.0234
1860	64.951
1855	65.0526
1850	65.1306
1845	65.0436
1840	64.9951
1835	64.9821
1830	65.0298
1825	65.0569
1820	65.0464
1815	65.0384
1810	65.0349
1805	64.9922
1800	65.0098
1795	65.0823
1790	65.0609
1785	65.0255
1780	65.041
1775	65.081
1770	65.0156
1765	64.9848
1760	65.0469
1755	64.9867
1750	64.9146
1745	64.8585
1740	64.8865
1735	64.8576
1730	64.7955
1725	64.8699
1720	64.894
1715	64.8455
1710	64.9066
1705	64.9934
1700	64.9517
1695	64.875
1690	64.8842
1685	64.9081
1680	64.8798
1675	64.8689
1670	64.9515
1665	65.0127
1660	64.9823
1655	64.944
1650	64.9856
1645	65.0029
1640	64.9778
1635	64.9661
1630	64.9034
1625	64.9011
1620	64.9869
1615	64.9682
1610	64.9178
1605	64.9093
1600	65.0051
1595	65.0122
1590	64.9522
1585	64.9428
1580	65.0131
1575	64.9389
1570	64.795
1565	64.7834
1560	64.8357
1555	64.8728
1550	64.8977
1545	64.868
1540	64.7331
1535	64.7203
1530	64.8477
1525	64.89
1520	64.8226
1515	64.844
1510	65.0069
1505	65.0802
1500	64.9631
1495	64.8411
1490	64.8812
1485	64.8489
1480	64.8665
1475	64.8575
1470	64.8062
1465	64.8033
1460	64.8745
1455	64.8939
1450	64.8183
1445	64.7764
1440	64.7783
1435	64.8179
1430	64.8789
1425	64.8479
1420	64.7295
1415	64.7714
1410	64.7907
1405	64.7689
1400	64.7654
1395	64.7258
1390	64.6906
1385	64.7216
1380	64.7339
1375	64.7274
1370	64.7923
1365	64.863
1360	64.7739
1355	64.7231
1350	64.8356
1345	64.8602
1340	64.7916
1335	64.786
1330	64.7592
1325	64.6895
1320	64.7156
1315	64.7478
1310	64.7525
1305	64.7874
1300	64.7543
1295	64.6838
1290	64.696
1285	64.7305
1280	64.7514
1275	64.7094
1270	64.642
1265	64.6899
1260	64.7806
1255	64.7161
1250	64.6794
1245	64.7175
1240	64.6981
1235	64.6282
1230	64.5705
1225	64.6582
1220	64.7711
1215	64.7058
1210	64.6827
1205	64.6086
1200	64.5209
1195	64.605
1190	64.6242
1185	64.5293
1180	64.5069
1175	64.6507
1170	64.7099
1165	64.6129
1160	64.5683
1155	64.5658
1150	64.5732
1145	64.4929
1140	64.4691
1135	64.5398
1130	64.5489
1125	64.4295
1120	64.4198
1115	64.4279
1110	64.3378
1105	64.4369
1100	64.4477
1095	64.3266
1090	64.3626
1085	64.4037
1080	64.3725
1075	64.3619
1070	64.4808
1065	64.6552
1060	64.5797
1055	64.4251
1050	64.4247
1045	64.6209
1040	64.6573
1035	64.4778
1030	64.3368
1025	64.3728
1020	64.3991
1015	64.352
1010	64.3273
1005	64.3056
1000	64.2781
995	 64.2221
990	 64.2741
985	 64.2526
980	 64.217
975	 64.3196
970	 64.3574
965	 64.3276
960	 64.1934
955	 64.2002
950	 64.3914
945	 64.2864
940	 64.0153
935	 63.9533
930	 63.8326
925	 64.0059
920	 64.2009
915	 64.159
910	 64.4168
905	 64.7114
900	 64.2811
895	 63.9156
890	 63.7741
885	 64.0562
880	 64.4084
875	 64.4301
870	 64.7083
865	 64.4665
860	 64.0254
855	 63.8187
850	 63.9519
845	 63.8781
840	 63.6133
835	 63.5585
830	 63.6472
825	 63.847
820	 63.6686
815	 63.6744
810	 63.7422
805	 63.6717
800	 63.7678
795	 63.7044
790	 63.6456
785	 63.7257
780	 63.7419
775	 63.631
770	 63.7036
765	 63.8138
760	 63.5517
755	 63.3816
750	 63.3214
745	 63.28
740	 63.3461
735	 63.4686
730	 63.5168
725	 63.2566
720	 63.0677
715	 63.1268
710	 62.9404
705	 62.8445
700	 63.0417
695	 63.2392
690	 62.9972
685	 62.5803
680	 62.4759
675	 62.5133
670	 62.4716
665	 62.5009
660	 62.3752
655	 62.2897
650	 62.2825
645	 62.2499
640	 62.0414
635	 61.7465
630	 61.9077
625	 62.2142
620	 62.2655
615	 62.0829
610	 61.761
605	 61.6003
600	 61.5704
595	 61.913
590	 61.8874
585	 61.3294
580	 61.2499
575	 61.1756
570	 61.0743
565	 61.1748
560	 61.2539
555	 61.3345
550	 61.4521
545	 61.1205
540	 61.1243
535	 61.0215
530	 60.784
525	 60.785
520	 60.9284
515	 60.8813
510	 60.6835
505	 60.3287
500	 60.0909
495	 59.7357
490	 59.2014
485	 59.4268
480	 59.6728
475	 59.5343
470	 59.423
465	 59.2776
460	 58.492
455	 58.0448
450	 57.6618
445	 56.8548
440	 56.7666
435	 56.0646
430	 55.7404
425	 56.8149
420	 56.3422
415	 54.6506
410	 55.0387
405	 60.1831
400	 66.2317
395	 71.4537
390	 62.052
385	 50.6175
380	 59.3647
375	 58.522
370	 45.4647