File: Bakgrunnsmateriale/MATLAB/FTIR/ftir_data/subBb/Mapping_36/C-4040-8_t30_cm-1.asc
PE IR       SPECTRUM    SPECTRUM    ASCII       PEDS        1.60
  -1
C-1B61~1.ASC
17/05/02
13:25:23.00
17/05/02
13:25:23.00
tln
$C-4040-8_t0030$<tbV0>[-12.5,7.0,8.0,0.0,22,1,0]
370
64

2002,4.07
MIRTGS : RIGHTBACK : INTERNAL 2
MIR : ON : INTERNAL 2
OPTKBR

0.200000
8
8.000000
FILLER
RATIO
SPECTRUM
UNLOCKED 256

DOUBLE
64
COMBINED
1
0
0

1.000000
RATIO

1
0
TRUE
51149
0
LEFT NOT FITTED RIGHT NOT FITTED 0
NONE
NONE
15600
12
4.427000
51148
TRUE
1 0 8 72 0 0 0 0

15798

#HDR
-1
-1
#GR
CM-1
%T
2.38419e-05
0.0
7800
-1.000000
7431
8
85.0961
56.4327
#DATA
7800	84.9462
7795	78.9696
7790	69.3721
7785	66.3963
7780	69.7443
7775	72.6152
7770	71.6608
7765	70.7554
7760	69.2615
7755	72.1372
7750	75.1415
7745	72.5727
7740	71.5491
7735	80.8267
7730	79.3476
7725	73.5356
7720	70.1888
7715	62.7017
7710	57.9424
7705	63.4962
7700	68.8184
7695	74.5472
7690	70.646
7685	63.5487
7680	65.2072
7675	67.8478
7670	69.5511
7665	68.3144
7660	67.4395
7655	67.36
7650	69.2128
7645	70.2356
7640	70.2914
7635	69.5962
7630	67.9554
7625	68.9327
7620	68.6439
7615	64.4558
7610	62.8544
7605	64.2795
7600	63.6242
7595	64.6671
7590	66.9419
7585	71.0764
7580	70.6188
7575	69.6535
7570	70.606
7565	69.111
7560	66.0196
7555	64.1167
7550	65.9632
7545	68.9308
7540	67.638
7535	67.1664
7530	67.3827
7525	65.9496
7520	62.9048
7515	61.8386
7510	62.8404
7505	64.1879
7500	64.8715
7495	65.5436
7490	65.8486
7485	65.3401
7480	63.2841
7475	65.0253
7470	67.5061
7465	68.1919
7460	66.8932
7455	65.5694
7450	66.5372
7445	66.7469
7440	65.5275
7435	64.6139
7430	65.1028
7425	67.9933
7420	68.643
7415	68.7967
7410	69.7136
7405	69.1458
7400	67.8014
7395	66.9305
7390	65.8884
7385	62.6539
7380	63.668
7375	66.255
7370	64.9558
7365	65.8238
7360	67.0318
7355	68.6163
7350	66.9247
7345	62.8731
7340	61.46
7335	61.538
7330	61.8257
7325	62.9963
7320	64.4623
7315	63.9251
7310	63.1
7305	62.5236
7300	60.9926
7295	61.5122
7290	65.0812
7285	66.7137
7280	66.5139
7275	65.8112
7270	64.1443
7265	63.5055
7260	64.5898
7255	65.015
7250	64.5607
7245	62.7495
7240	62.1646
7235	61.6133
7230	63.4415
7225	64.712
7220	63.8263
7215	64.9851
7210	67.1109
7205	67.4449
7200	66.6485
7195	65.4257
7190	65.1614
7185	67.3865
7180	66.298
7175	64.6629
7170	64.7205
7165	66.3777
7160	66.5066
7155	64.6385
7150	64.8455
7145	68.2262
7140	68.9073
7135	67.372
7130	67.0992
7125	63.8952
7120	60.7563
7115	63.3379
7110	65.6627
7105	63.7171
7100	63.1272
7095	64.6177
7090	64.8504
7085	62.7267
7080	60.2528
7075	60.5888
7070	65.0334
7065	65.4574
7060	62.9905
7055	61.9194
7050	63.6289
7045	64.2303
7040	63.4428
7035	63.6738
7030	64.7401
7025	64.1735
7020	62.4935
7015	63.5695
7010	64.5201
7005	64.6595
7000	64.299
6995	65.9622
6990	66.714
6985	64.8145
6980	63.6054
6975	62.3451
6970	63.1761
6965	66.4586
6960	66.3385
6955	65.2558
6950	64.5681
6945	63.4833
6940	63.6531
6935	63.4734
6930	63.4716
6925	64.4775
6920	66.3742
6915	66.8157
6910	66.4844
6905	66.5488
6900	66.6319
6895	66.0419
6890	65.9891
6885	65.6344
6880	65.1524
6875	65.1818
6870	65.4178
6865	66.2807
6860	66.4666
6855	65.8987
6850	65.7902
6845	64.4113
6840	62.9986
6835	63.7083
6830	64.7609
6825	64.5576
6820	64.4434
6815	64.7595
6810	65.4388
6805	64.92
6800	63.5812
6795	64.2695
6790	64.8819
6785	64.4814
6780	64.0281
6775	64.1531
6770	63.7463
6765	63.3925
6760	63.5292
6755	63.2274
6750	62.5453
6745	62.6818
6740	63.2869
6735	64.6254
6730	63.8137
6725	62.905
6720	64.8124
6715	65.3398
6710	65.2475
6705	64.3316
6700	63.3359
6695	62.7664
6690	64.0959
6685	65.5175
6680	65.2107
6675	64.0774
6670	63.4875
6665	64.3383
6660	65.1198
6655	65.2205
6650	65.1842
6645	65.1522
6640	65.3798
6635	65.0381
6630	63.8477
6625	63.2013
6620	64.0632
6615	65.1533
6610	65.0826
6605	64.0482
6600	63.6578
6595	62.8996
6590	62.1836
6585	62.4943
6580	64.4627
6575	65.2037
6570	64.645
6565	64.197
6560	64.4042
6555	64.7419
6550	64.5015
6545	63.9028
6540	63.458
6535	63.9927
6530	63.7329
6525	63.1933
6520	64.1799
6515	64.9959
6510	64.4573
6505	64.3991
6500	64.7489
6495	65.2631
6490	64.4682
6485	62.7256
6480	63.3659
6475	65.0227
6470	64.6816
6465	64.418
6460	64.5739
6455	65.3907
6450	65.2662
6445	64.8624
6440	65.9144
6435	65.0845
6430	63.5303
6425	63.9493
6420	64.4733
6415	63.4255
6410	63.7403
6405	65.4627
6400	66.2849
6395	66.4358
6390	65.7776
6385	65.3741
6380	66.1268
6375	65.9528
6370	65.6978
6365	65.1652
6360	65.0186
6355	64.7804
6350	64.6183
6345	64.9076
6340	64.7217
6335	64.44
6330	64.2947
6325	64.314
6320	65.0001
6315	64.6186
6310	64.2969
6305	64.401
6300	64.0656
6295	64.2725
6290	65.3284
6285	65.8283
6280	65.1586
6275	64.6967
6270	65.3571
6265	65.655
6260	64.9225
6255	64.4263
6250	65.1215
6245	64.5955
6240	64.2287
6235	63.7513
6230	64.1871
6225	65.0856
6220	64.7574
6215	64.5111
6210	64.5978
6205	64.4292
6200	64.05
6195	63.3421
6190	63.6374
6185	64.259
6180	63.8404
6175	64.3966
6170	65.2273
6165	65.6101
6160	65.2142
6155	64.5031
6150	64.5798
6145	64.5125
6140	64.432
6135	64.0766
6130	64.5678
6125	64.8357
6120	65.2801
6115	65.6849
6110	65.2531
6105	65.1577
6100	65.1594
6095	64.2847
6090	64.2798
6085	64.5665
6080	64.0842
6075	64.1202
6070	65.054
6065	65.4482
6060	65.3275
6055	65.3955
6050	65.4756
6045	64.9287
6040	64.1279
6035	63.9596
6030	64.4533
6025	64.5654
6020	64.8755
6015	65.1973
6010	65.4351
6005	65.5345
6000	64.5739
5995	63.616
5990	63.6303
5985	64.2463
5980	65.0289
5975	65.506
5970	65.8189
5965	65.4619
5960	65.1644
5955	65.0186
5950	64.9168
5945	64.757
5940	64.6518
5935	65.1361
5930	65.1569
5925	64.6262
5920	64.7975
5915	64.6349
5910	64.507
5905	65.3053
5900	65.1981
5895	64.4681
5890	64.2967
5885	64.6576
5880	65.2176
5875	64.7665
5870	64.3546
5865	64.3946
5860	64.4344
5855	64.5212
5850	64.6724
5845	64.3061
5840	64.3681
5835	64.9332
5830	65.2474
5825	65.6116
5820	65.1411
5815	64.3275
5810	64.2888
5805	64.6591
5800	65.0374
5795	65.2362
5790	64.7094
5785	64.0945
5780	64.0878
5775	64.5672
5770	64.8797
5765	64.6528
5760	64.8696
5755	65.2827
5750	65.3041
5745	65.0236
5740	64.8306
5735	64.4247
5730	64.4048
5725	64.574
5720	64.7284
5715	64.7249
5710	64.4619
5705	64.2671
5700	64.6062
5695	65.0417
5690	64.5686
5685	64.2529
5680	64.4976
5675	65.0745
5670	65.1004
5665	64.2228
5660	64.4989
5655	64.7822
5650	64.4976
5645	64.9417
5640	65.2995
5635	65.131
5630	65.2778
5625	65.1849
5620	65.0355
5615	65.5052
5610	65.5231
5605	65.6816
5600	65.5879
5595	65.7752
5590	65.8515
5585	65.459
5580	65.5753
5575	65.3393
5570	65.4167
5565	65.5408
5560	65.3555
5555	65.1579
5550	65.2146
5545	65.3188
5540	65.4081
5535	65.1151
5530	64.6385
5525	64.709
5520	64.9566
5515	64.8486
5510	64.7468
5505	64.5223
5500	64.3818
5495	64.6137
5490	64.8021
5485	65.2141
5480	65.2777
5475	64.5083
5470	64.4845
5465	64.6278
5460	64.9534
5455	65.3809
5450	65.2186
5445	64.8438
5440	64.4848
5435	64.242
5430	64.9712
5425	65.127
5420	64.5128
5415	64.9329
5410	65.7677
5405	65.637
5400	65.6176
5395	65.5319
5390	65.1134
5385	65.4014
5380	65.9935
5375	65.7415
5370	65.0949
5365	64.5217
5360	64.9468
5355	65.4751
5350	65.3915
5345	64.5673
5340	64.0671
5335	64.5671
5330	64.3798
5325	64.013
5320	64.9136
5315	66.3735
5310	65.3067
5305	64.3626
5300	63.8932
5295	61.754
5290	62.2526
5285	63.0573
5280	61.8965
5275	63.185
5270	63.3007
5265	63.112
5260	64.6648
5255	66.2001
5250	65.6843
5245	64.9776
5240	65.1025
5235	65.1088
5230	64.9614
5225	64.2361
5220	63.9297
5215	63.697
5210	63.8724
5205	64.5889
5200	64.6122
5195	64.6159
5190	64.8148
5185	64.8832
5180	65.0312
5175	65.0583
5170	64.9025
5165	65.0164
5160	65.2376
5155	65.2537
5150	65.3199
5145	65.0641
5140	64.8533
5135	64.729
5130	64.9047
5125	65.3636
5120	65.3725
5115	65.0834
5110	65.1872
5105	65.5058
5100	65.5691
5095	65.4588
5090	65.2215
5085	65.2589
5080	65.1809
5075	64.8776
5070	65.0768
5065	65.4211
5060	64.9848
5055	64.4699
5050	64.44
5045	64.5807
5040	64.836
5035	64.8392
5030	64.9209
5025	65.324
5020	65.5538
5015	65.3849
5010	64.8415
5005	64.6579
5000	64.6474
4995	64.853
4990	65.1092
4985	64.7818
4980	64.623
4975	64.928
4970	65.2099
4965	65.2708
4960	65.2844
4955	65.0002
4950	64.5883
4945	64.6028
4940	64.7621
4935	64.6312
4930	64.6458
4925	64.7947
4920	64.7249
4915	64.4771
4910	64.2057
4905	64.5713
4900	64.8186
4895	64.8289
4890	64.9436
4885	64.9724
4880	64.6731
4875	64.4989
4870	64.9374
4865	64.9119
4860	64.738
4855	64.858
4850	64.9114
4845	65.0086
4840	64.9562
4835	65.0141
4830	65.036
4825	65.0649
4820	65.0635
4815	64.9589
4810	64.7795
4805	64.7306
4800	64.8887
4795	65.1461
4790	65.1217
4785	65.0187
4780	65.2479
4775	65.3145
4770	65.1324
4765	65.0845
4760	65.2623
4755	65.2847
4750	65.1286
4745	65.0885
4740	65.1284
4735	64.9145
4730	64.9163
4725	65.2035
4720	65.2631
4715	65.2409
4710	65.3008
4705	65.2844
4700	65.3027
4695	65.251
4690	65.0697
4685	65.0216
4680	65.3844
4675	65.5447
4670	65.5941
4665	65.5709
4660	65.4386
4655	65.1333
4650	65.0249
4645	65.0615
4640	64.9049
4635	65.0967
4630	65.2814
4625	65.326
4620	65.2265
4615	65.152
4610	64.9807
4605	64.8805
4600	64.959
4595	65.0537
4590	65.1513
4585	65.1427
4580	65.1078
4575	64.6616
4570	64.3054
4565	64.4351
4560	64.579
4555	64.7785
4550	64.847
4545	64.6639
4540	64.593
4535	64.4409
4530	64.1302
4525	63.9905
4520	64.1496
4515	64.622
4510	64.4423
4505	64.0596
4500	64.3342
4495	64.4439
4490	64.0979
4485	63.9443
4480	64.2008
4475	64.3816
4470	64.3668
4465	64.212
4460	64.334
4455	63.9665
4450	63.5378
4445	63.6601
4440	63.9072
4435	64.3446
4430	64.1564
4425	63.7805
4420	63.4017
4415	63.547
4410	63.8135
4405	63.9171
4400	62.9571
4395	64.2822
4390	77.5032
4385	71.6926
4380	64.9298
4375	67.3704
4370	65.7315
4365	63.7031
4360	63.6112
4355	64.4273
4350	63.9718
4345	64.1252
4340	64.8611
4335	64.6331
4330	64.0848
4325	64.1683
4320	64.5051
4315	64.5358
4310	64.4364
4305	64.5442
4300	64.6168
4295	64.1012
4290	63.846
4285	64.495
4280	64.842
4275	64.8223
4270	64.4933
4265	64.4165
4260	64.7004
4255	64.8332
4250	64.7465
4245	64.8548
4240	64.909
4235	64.8811
4230	64.8899
4225	64.7691
4220	64.6489
4215	64.8062
4210	64.8924
4205	64.801
4200	64.8027
4195	64.9153
4190	65.0127
4185	65.1274
4180	65.2531
4175	64.8208
4170	64.3198
4165	64.7916
4160	65.4915
4155	65.6112
4150	65.3465
4145	65.2423
4140	65.2193
4135	65.1278
4130	65.1255
4125	65.418
4120	65.3879
4115	65.2745
4110	65.4048
4105	65.3567
4100	65.2315
4095	65.1777
4090	65.0853
4085	65.0113
4080	64.9811
4075	65.2022
4070	65.3668
4065	65.3474
4060	65.3422
4055	65.3776
4050	65.296
4045	65.2527
4040	65.2663
4035	65.1068
4030	65.0871
4025	65.0009
4020	64.8469
4015	64.8809
4010	64.9128
4005	65.0168
4000	65.0441
3995	65.0018
3990	65.1135
3985	65.1922
3980	64.9862
3975	64.9709
3970	65.1122
3965	65.1695
3960	65.1826
3955	65.1696
3950	65.169
3945	65.2227
3940	65.1494
3935	64.9909
3930	64.9753
3925	65.0931
3920	65.0488
3915	64.8891
3910	64.9648
3905	65.0105
3900	65.0145
3895	65.1416
3890	65.2055
3885	65.028
3880	64.9097
3875	65.0953
3870	65.1287
3865	65.081
3860	65.2084
3855	65.2341
3850	65.0297
3845	64.7398
3840	64.8092
3835	65.0134
3830	64.9941
3825	65.1336
3820	65.2549
3815	65.0928
3810	64.9894
3805	65.0828
3800	65.1172
3795	65.131
3790	65.1003
3785	65.0349
3780	64.9971
3775	64.9287
3770	65.0187
3765	65.1175
3760	65.1868
3755	65.1091
3750	65.01
3745	64.9966
3740	65.105
3735	65.165
3730	65.1053
3725	65.1764
3720	65.3017
3715	65.2887
3710	65.3104
3705	65.2949
3700	65.18
3695	65.1813
3690	65.225
3685	65.2452
3680	65.214
3675	65.2521
3670	65.2475
3665	65.1715
3660	65.2239
3655	65.233
3650	65.287
3645	65.2903
3640	65.1831
3635	65.0492
3630	65.0292
3625	65.1784
3620	65.3226
3615	65.3294
3610	65.2637
3605	65.1472
3600	65.1217
3595	65.2303
3590	65.2182
3585	65.1759
3580	65.1679
3575	65.1656
3570	65.2261
3565	65.1449
3560	65.1215
3555	65.1793
3550	65.0977
3545	65.0918
3540	65.1501
3535	65.1368
3530	64.9558
3525	64.9231
3520	64.9967
3515	64.9938
3510	64.9677
3505	64.975
3500	64.8638
3495	64.8565
3490	65.2644
3485	65.3072
3480	65.0172
3475	65.2306
3470	65.5332
3465	65.3308
3460	65.09
3455	65.0155
3450	65.0341
3445	65.0707
3440	65.1459
3435	65.0608
3430	64.9733
3425	65.0996
3420	65.1963
3415	65.0641
3410	64.906
3405	64.9755
3400	65.0619
3395	64.8042
3390	64.6778
3385	65.0065
3380	65.1402
3375	65.1355
3370	65.1315
3365	65.0504
3360	64.9556
3355	64.9728
3350	64.9947
3345	64.9339
3340	64.957
3335	65.1321
3330	65.1771
3325	65.0708
3320	65.2074
3315	65.3535
3310	65.2693
3305	65.0526
3300	65.0232
3295	65.0649
3290	65.0192
3285	65.0595
3280	65.0883
3275	65.0527
3270	65.0528
3265	65.1052
3260	65.1716
3255	65.219
3250	65.1285
3245	65.1114
3240	65.1535
3235	65.1486
3230	65.1412
3225	65.1903
3220	65.2328
3215	65.207
3210	65.0439
3205	64.9326
3200	64.9564
3195	65.0819
3190	65.1793
3185	65.1784
3180	65.2127
3175	65.352
3170	65.2844
3165	65.1965
3160	65.1882
3155	65.1875
3150	65.2115
3145	65.2572
3140	65.2354
3135	65.0563
3130	65.0391
3125	65.1023
3120	65.0532
3115	65.0473
3110	65.0862
3105	65.1597
3100	65.3377
3095	65.3658
3090	65.2745
3085	65.2629
3080	65.1957
3075	65.134
3070	65.1027
3065	65.1991
3060	65.1863
3055	65.0358
3050	65.0838
3045	65.106
3040	65.128
3035	65.095
3030	65.0562
3025	65.1484
3020	65.2591
3015	65.1782
3010	65.142
3005	65.2772
3000	65.2956
2995	65.1214
2990	65.0316
2985	65.0649
2980	65.0976
2975	65.0203
2970	65.018
2965	65.0393
2960	65.044
2955	64.9607
2950	64.9108
2945	64.9266
2940	65.0548
2935	65.0434
2930	64.8132
2925	64.6501
2920	64.6224
2915	64.637
2910	64.7389
2905	64.9553
2900	65.0112
2895	64.9128
2890	64.8962
2885	64.8585
2880	64.9143
2875	65.0007
2870	65.0553
2865	65.0372
2860	64.9801
2855	64.9493
2850	64.8964
2845	64.9425
2840	65.0089
2835	65.0313
2830	65.0807
2825	65.136
2820	65.1276
2815	65.1637
2810	65.2913
2805	65.2894
2800	65.215
2795	65.1937
2790	65.2
2785	65.2662
2780	65.2975
2775	65.2301
2770	65.1302
2765	65.1345
2760	65.1737
2755	65.105
2750	65.0939
2745	65.144
2740	65.2266
2735	65.2638
2730	65.2936
2725	65.3728
2720	65.3237
2715	65.2479
2710	65.2542
2705	65.2408
2700	65.2981
2695	65.2979
2690	65.2363
2685	65.206
2680	65.1617
2675	65.2006
2670	65.2481
2665	65.2544
2660	65.1728
2655	65.0647
2650	65.0658
2645	65.1196
2640	65.1504
2635	65.229
2630	65.3087
2625	65.357
2620	65.3295
2615	65.1861
2610	65.1377
2605	65.1235
2600	65.1956
2595	65.3017
2590	65.2302
2585	65.1154
2580	65.1861
2575	65.1961
2570	65.214
2565	65.2932
2560	65.2955
2555	65.2746
2550	65.2356
2545	65.1921
2540	65.2545
2535	65.2966
2530	65.3239
2525	65.3542
2520	65.2632
2515	65.1342
2510	65.1601
2505	65.2505
2500	65.3384
2495	65.3388
2490	65.2463
2485	65.1818
2480	65.2473
2475	65.2946
2470	65.3005
2465	65.2976
2460	65.2765
2455	65.251
2450	65.2447
2445	65.3041
2440	65.3211
2435	65.2769
2430	65.1769
2425	65.2192
2420	65.2368
2415	65.1736
2410	65.2402
2405	65.2475
2400	65.165
2395	65.171
2390	65.2574
2385	65.2708
2380	65.1833
2375	65.1166
2370	65.1156
2365	65.1279
2360	65.16
2355	65.1527
2350	65.1554
2345	65.2359
2340	65.2362
2335	65.2596
2330	65.2837
2325	65.2637
2320	65.287
2315	65.3109
2310	65.2484
2305	65.2721
2300	65.3243
2295	65.2462
2290	65.2048
2285	65.2196
2280	65.2318
2275	65.2249
2270	65.2201
2265	65.2358
2260	65.2407
2255	65.3197
2250	65.4015
2245	65.3602
2240	65.2772
2235	65.1871
2230	65.1196
2225	65.119
2220	65.1908
2215	65.2052
2210	65.1505
2205	65.2043
2200	65.2243
2195	65.1808
2190	65.2365
2185	65.2911
2180	65.2605
2175	65.2839
2170	65.2655
2165	65.2183
2160	65.2277
2155	65.2581
2150	65.2743
2145	65.2952
2140	65.3103
2135	65.3116
2130	65.2625
2125	65.2643
2120	65.2807
2115	65.2225
2110	65.2218
2105	65.2906
2100	65.2595
2095	65.2107
2090	65.1675
2085	65.2425
2080	65.3494
2075	65.2492
2070	65.1845
2065	65.179
2060	65.1789
2055	65.1736
2050	65.1506
2045	65.1927
2040	65.3099
2035	65.3071
2030	65.2208
2025	65.174
2020	65.1506
2015	65.2695
2010	65.3576
2005	65.3483
2000	65.3022
1995	65.2213
1990	65.2024
1985	65.2755
1980	65.3313
1975	65.3305
1970	65.325
1965	65.2932
1960	65.2704
1955	65.2683
1950	65.281
1945	65.268
1940	65.2832
1935	65.2932
1930	65.3557
1925	65.3349
1920	65.2956
1915	65.3006
1910	65.2903
1905	65.2962
1900	65.3135
1895	65.3003
1890	65.2436
1885	65.2301
1880	65.2426
1875	65.2409
1870	65.2383
1865	65.2332
1860	65.2904
1855	65.3205
1850	65.2632
1845	65.245
1840	65.2115
1835	65.2305
1830	65.3043
1825	65.2993
1820	65.2915
1815	65.3213
1810	65.2765
1805	65.2621
1800	65.2873
1795	65.3013
1790	65.3107
1785	65.2602
1780	65.2078
1775	65.2869
1770	65.3726
1765	65.3323
1760	65.2282
1755	65.1267
1750	65.0193
1745	64.9929
1740	65.0137
1735	65.0148
1730	64.9745
1725	64.9929
1720	65.093
1715	65.1705
1710	65.1793
1705	65.2349
1700	65.2839
1695	65.2291
1690	65.1101
1685	65.1166
1680	65.1804
1675	65.1928
1670	65.1601
1665	65.1345
1660	65.1886
1655	65.2517
1650	65.2179
1645	65.1667
1640	65.1395
1635	65.1352
1630	65.1858
1625	65.2336
1620	65.1951
1615	65.1527
1610	65.0649
1605	65.0135
1600	65.004
1595	65.007
1590	64.9986
1585	65.006
1580	65.0424
1575	64.9962
1570	64.9
1565	64.8573
1560	64.9544
1555	65.0662
1550	65.0609
1545	65.0268
1540	65.0347
1535	65.0873
1530	65.1042
1525	65.113
1520	65.0792
1515	65.1069
1510	65.0765
1505	65.0546
1500	65.1285
1495	65.1886
1490	65.2209
1485	65.2068
1480	65.1081
1475	65.0687
1470	65.0535
1465	65.0632
1460	64.9895
1455	64.8822
1450	64.9322
1445	64.9909
1440	65.0291
1435	65.0661
1430	65.0938
1425	65.0696
1420	65.0858
1415	65.0654
1410	65.034
1405	65.0426
1400	65.0203
1395	64.9593
1390	64.9547
1385	64.9595
1380	64.8927
1375	64.9724
1370	65.0167
1365	65.0374
1360	65.0692
1355	65.1217
1350	65.1184
1345	65.0684
1340	64.9979
1335	64.9862
1330	64.9588
1325	64.9526
1320	64.9842
1315	64.9853
1310	64.9636
1305	64.9548
1300	64.9758
1295	65.0042
1290	64.9974
1285	64.9704
1280	64.933
1275	64.9387
1270	64.9565
1265	64.9895
1260	65.0047
1255	64.9585
1250	64.9032
1245	64.8634
1240	64.8823
1235	64.8654
1230	64.8106
1225	64.9266
1220	65.0268
1215	64.9856
1210	64.9153
1205	64.828
1200	64.8162
1195	64.8339
1190	64.8135
1185	64.8739
1180	64.8521
1175	64.8111
1170	64.8576
1165	64.8392
1160	64.8106
1155	64.9073
1150	64.8653
1145	64.7926
1140	64.6627
1135	64.6059
1130	64.669
1125	64.8115
1120	64.8862
1115	64.7981
1110	64.7814
1105	64.9088
1100	64.9014
1095	64.8635
1090	64.939
1085	64.9711
1080	64.8914
1075	64.8294
1070	64.7129
1065	64.6757
1060	64.7342
1055	64.7946
1050	64.808
1045	64.8149
1040	64.6917
1035	64.6374
1030	64.6583
1025	64.6844
1020	64.7207
1015	64.8337
1010	64.8201
1005	64.7163
1000	64.6271
995	 64.6555
990	 64.773
985	 64.8031
980	 64.8885
975	 64.9693
970	 64.9091
965	 64.7969
960	 64.7349
955	 64.6537
950	 64.5578
945	 64.6062
940	 64.7372
935	 64.8521
930	 64.9739
925	 64.6458
920	 64.5451
915	 64.8868
910	 65.2017
905	 64.8727
900	 63.8537
895	 63.8191
890	 64.5362
885	 64.862
880	 64.8776
875	 64.7072
870	 64.2627
865	 64.1103
860	 64.167
855	 64.229
850	 64.3231
845	 64.453
840	 64.6043
835	 64.4736
830	 64.5027
825	 64.5513
820	 64.4065
815	 64.3682
810	 64.2541
805	 64.204
800	 64.2128
795	 64.2437
790	 64.2081
785	 64.0602
780	 64.1987
775	 64.1964
770	 63.8191
765	 63.7043
760	 63.8691
755	 63.8519
750	 63.7864
745	 63.7483
740	 63.7117
735	 63.7257
730	 63.8178
725	 63.7492
720	 63.509
715	 63.5471
710	 63.5792
705	 63.5123
700	 63.276
695	 63.1766
690	 63.4235
685	 63.4367
680	 63.3373
675	 63.398
670	 63.3849
665	 63.4409
660	 63.3862
655	 63.1855
650	 62.9676
645	 62.848
640	 62.8549
635	 62.9657
630	 62.959
625	 63.0967
620	 63.1233
615	 63.1304
610	 62.9183
605	 62.7082
600	 62.8515
595	 62.9738
590	 62.8647
585	 62.6838
580	 62.3409
575	 62.301
570	 62.3794
565	 62.5114
560	 62.4551
555	 62.2159
550	 62.2092
545	 62.1179
540	 61.9701
535	 61.7679
530	 61.5433
525	 61.3565
520	 61.1981
515	 61.4687
510	 61.731
505	 61.6613
500	 61.4543
495	 61.1082
490	 61.103
485	 61.7909
480	 61.451
475	 59.8681
470	 59.8047
465	 60.6783
460	 60.7522
455	 60.2567
450	 59.6817
445	 59.2572
440	 58.8962
435	 57.6986
430	 57.1673
425	 57.6628
420	 58.6987
415	 59.6107
410	 60.1039
405	 58.8661
400	 57.4438
395	 57.4815
390	 59.0619
385	 57.6933
380	 65.27
375	 72.658
370	 56.4327