File: Bakgrunnsmateriale/MATLAB/FTIR/ftir_data/subBb/Mapping_36/C-4040-8_t21.asc
PE IR       SPECTRUM    SPECTRUM    ASCII       PEDS        1.60
  -1
C-AD2E~1.ASC
17/05/02
12:36:41.00
17/05/02
12:37:07.00
tln
$C-4040-8_t0021$<tbV0>[2.5,2.0,8.0,0.0,22,1,0]
27.028
64

2002,4.07
MIRTGS : RIGHTBACK : INTERNAL 2
MIR : ON : INTERNAL 2
OPTKBR

0.200000
8
8.000000
FILLER
RATIO
SPECTRUM
UNLOCKED 256

DOUBLE
64
COMBINED
1
0
0

0.002000
RATIO

1
0
TRUE
51149
0
LEFT NOT FITTED RIGHT NOT FITTED 0
NONE
NONE
15600
12
4.427000
51148
TRUE
1 0 8 72 0 0 0 0

15798

#HDR
-1
-1
#GR
µM
%T
2.38419e-05
0.0
1.282000
0.002000
12874
8
135.936
46.1038
#DATA
1.282000	 63.7466
1.300000	 70.5919
1.318000	 62.7945
1.336000	 66.235
1.354000	 65.2955
1.372000	 65.4759
1.390000	 62.0532
1.408000	 62.7927
1.426000	 64.3056
1.444000	 63.616
1.462000	 64.1196
1.480000	 64.0985
1.498000	 64.1299
1.516000	 66.1022
1.534000	 64.6451
1.552000	 65.0195
1.570000	 64.8222
1.588000	 65.8905
1.606000	 65.785
1.624000	 64.4952
1.642000	 65.1644
1.660000	 64.8367
1.678000	 65.9497
1.696000	 65.3642
1.714000	 64.1309
1.732000	 64.9025
1.750000	 64.7651
1.768000	 64.1926
1.786000	 65.8033
1.804000	 64.7728
1.822000	 64.8685
1.840000	 65.2379
1.858000	 64.9598
1.876000	 65.7615
1.894000	 64.3873
1.912000	 65.3862
1.930000	 65.6631
1.948000	 64.9205
1.966000	 65.4537
1.984000	 64.8832
2.002000	 64.9511
2.020000	 64.7252
2.038000	 65.2445
2.056000	 65.157
2.074000	 65.1219
2.092000	 65.44
2.110000	 65.0436
2.128000	 65.4375
2.146000	 65.3236
2.164000	 65.2319
2.182000	 64.9213
2.200000	 64.1976
2.218000	 64.0502
2.236000	 64.234
2.254000	 63.8683
2.272000	 63.6538
2.290000	 64.0124
2.308000	 63.7365
2.326000	 64.2884
2.344000	 64.2756
2.362000	 64.524
2.380000	 64.8506
2.398000	 64.7616
2.416000	 65.2771
2.434000	 65.7579
2.452000	 65.3384
2.470000	 65.6966
2.488000	 65.2765
2.506000	 65.3977
2.524000	 65.1795
2.542000	 65.2913
2.560000	 65.1739
2.578000	 65.0788
2.596000	 64.937
2.614000	 65.0702
2.632000	 64.9606
2.650000	 65.155
2.668000	 65.2476
2.686000	 65.0825
2.704000	 65.0676
2.722000	 65.5221
2.740000	 65.3215
2.758000	 65.4169
2.776000	 65.2469
2.794000	 65.3182
2.812000	 65.2808
2.830000	 65.2587
2.848000	 65.3291
2.866000	 65.1917
2.884000	 64.9761
2.902000	 65.3477
2.920000	 65.0553
2.938000	 64.9452
2.956000	 65.0909
2.974000	 65.094
2.992000	 65.2051
3.010000	 65.1858
3.028000	 65.3574
3.046000	 65.1539
3.064000	 65.2518
3.082000	 65.1408
3.100000	 65.0069
3.118000	 65.1942
3.136000	 65.1893
3.154000	 65.2509
3.172000	 65.0958
3.190000	 65.2408
3.208000	 65.2465
3.226000	 65.3518
3.244000	 65.2676
3.262000	 65.2065
3.280000	 65.2702
3.298000	 64.9456
3.316000	 65.2097
3.334000	 65.2101
3.352000	 65.1664
3.370000	 65.2238
3.388000	 64.9088
3.406000	 65.0217
3.424000	 64.8914
3.442000	 65.036
3.460000	 65.0293
3.478000	 65.1908
3.496000	 65.0847
3.514000	 65.0295
3.532000	 65.2417
3.550000	 65.2003
3.568000	 65.1795
3.586000	 65.2232
3.604000	 65.2584
3.622000	 65.3205
3.640000	 65.2299
3.658000	 65.3234
3.676000	 65.3672
3.694000	 65.3022
3.712000	 65.2422
3.730000	 65.2612
3.748000	 65.2189
3.766000	 65.2091
3.784000	 65.2448
3.802000	 65.2721
3.820000	 65.2643
3.838000	 65.3442
3.856000	 65.2736
3.874000	 65.2222
3.892000	 65.2954
3.910000	 65.3301
3.928000	 65.3256
3.946000	 65.2947
3.964000	 65.281
3.982000	 65.2672
4.000000	 65.315
4.018000	 65.1734
4.036000	 65.3906
4.054000	 65.3398
4.072000	 65.3666
4.090000	 65.3663
4.108000	 65.4427
4.125999	 65.4306
4.144000	 65.3868
4.162000	 65.2285
4.180000	 65.3241
4.198000	 65.321
4.216000	 65.315
4.234000	 65.3843
4.252000	 65.3444
4.270000	 65.4339
4.288000	 65.309
4.306000	 65.3571
4.324000	 65.3359
4.342000	 65.2677
4.359999	 65.4286
4.378000	 65.2727
4.396000	 65.3636
4.414000	 65.3318
4.432000	 65.4101
4.450000	 65.2921
4.468000	 65.3861
4.486000	 65.3223
4.504000	 65.2745
4.522000	 65.2394
4.540000	 65.2302
4.558000	 65.2804
4.576000	 65.4134
4.594000	 65.3305
4.612000	 65.3124
4.630000	 65.4021
4.648000	 65.3072
4.666000	 65.3538
4.684000	 65.3384
4.702000	 65.2106
4.720000	 65.3225
4.738000	 65.2736
4.756000	 65.3421
4.774000	 65.2337
4.792000	 65.1956
4.810000	 65.2431
4.828000	 65.2812
4.846000	 65.2231
4.864000	 65.2799
4.882000	 65.2856
4.900000	 65.3536
4.918000	 65.3052
4.936000	 65.2814
4.954000	 65.2593
4.972000	 65.352
4.990000	 65.383
5.008000	 65.2284
5.026000	 65.1292
5.044000	 65.3048
5.062000	 65.3498
5.080000	 65.297
5.098000	 65.2526
5.116000	 65.2954
5.134000	 65.2769
5.152000	 65.2468
5.170000	 65.2421
5.188000	 65.3199
5.206000	 65.2461
5.224000	 65.2875
5.242000	 65.217
5.260000	 65.2263
5.278000	 65.2858
5.296000	 65.2761
5.314000	 65.2962
5.332000	 65.274
5.350000	 65.2417
5.368000	 65.2027
5.386000	 65.2538
5.404000	 65.3201
5.422000	 65.2661
5.440000	 65.2523
5.458000	 65.2464
5.476000	 65.3344
5.494000	 65.2776
5.512000	 65.2035
5.530000	 65.181
5.548000	 65.1593
5.566000	 65.2375
5.584000	 65.2847
5.602000	 65.2961
5.620000	 65.3214
5.638000	 65.2434
5.656000	 65.1546
5.674000	 65.2271
5.692000	 65.2957
5.710000	 65.2321
5.728000	 65.1456
5.746000	 65.1289
5.764000	 65.0711
5.782000	 64.9807
5.800000	 65.1054
5.818000	 65.1786
5.836000	 65.1335
5.854000	 65.1527
5.872000	 65.142
5.890000	 65.1348
5.908000	 65.1705
5.926000	 65.1953
5.944000	 65.1657
5.962000	 65.1426
5.980000	 65.1685
5.998000	 65.1892
6.016000	 65.1404
6.034000	 65.0861
6.052000	 65.0864
6.070000	 65.1798
6.088000	 65.224
6.106000	 65.2086
6.124000	 65.1852
6.142000	 65.1548
6.160000	 65.1517
6.178000	 65.178
6.196000	 65.1562
6.214000	 65.123
6.232000	 65.1481
6.250000	 65.148
6.268000	 65.143
6.286000	 65.1567
6.304000	 65.1392
6.322000	 65.1414
6.340000	 65.1412
6.358000	 65.0693
6.376000	 65.0447
6.394000	 65.1798
6.412000	 65.256
6.430000	 65.1497
6.448000	 65.1011
6.466000	 65.1543
6.484000	 65.1475
6.502000	 65.0781
6.520000	 65.0324
6.538000	 65.0619
6.556000	 65.0888
6.574000	 65.0383
6.592000	 65.0162
6.610000	 65.0673
6.628000	 65.1157
6.646000	 65.1784
6.664000	 65.2451
6.682000	 65.2354
6.700000	 65.2345
6.718000	 65.1847
6.736000	 65.0705
6.754000	 65.0247
6.772000	 65.0211
6.790000	 65.031
6.808000	 65.058
6.826000	 65.0954
6.844000	 65.0907
6.862000	 65.0086
6.880000	 64.9165
6.898000	 64.8596
6.916000	 64.862
6.934000	 64.9009
6.952000	 64.9031
6.970000	 64.9121
6.988000	 64.9773
7.006000	 65.0195
7.024000	 65.0277
7.042000	 65.0644
7.060000	 65.1002
7.078000	 65.1189
7.096000	 65.1267
7.114000	 65.0877
7.132000	 65.0319
7.150000	 65.008
7.168000	 65.0043
7.186000	 65.026
7.204000	 65.0618
7.222000	 65.0556
7.240000	 65.0067
7.258000	 64.9734
7.276000	 64.9915
7.294000	 65.0335
7.312000	 65.0344
7.330000	 64.9969
7.348000	 64.9801
7.366000	 65.0042
7.384000	 65.0522
7.402000	 65.0949
7.420000	 65.1275
7.438000	 65.1695
7.456000	 65.1746
7.474000	 65.1197
7.492000	 65.0845
7.510000	 65.0866
7.528000	 65.0691
7.546000	 65.0286
7.564000	 64.9809
7.582000	 64.947
7.600000	 64.981
7.618000	 65.0658
7.636000	 65.1093
7.654000	 65.0745
7.672000	 64.9914
7.690000	 64.8953
7.708000	 64.842
7.726000	 64.8817
7.744000	 64.9809
7.762000	 65.0565
7.780000	 65.0843
7.798000	 65.0883
7.816000	 65.0528
7.834000	 64.9443
7.852000	 64.8136
7.870000	 64.7718
7.888000	 64.8543
7.906000	 64.9887
7.924000	 65.0848
7.942000	 65.0939
7.960000	 65.0193
7.978000	 64.9245
7.996000	 64.889
8.013999	 64.9234
8.032000	 64.965
8.050000	 64.9564
8.068000	 64.8986
8.086000	 64.8362
8.103999	 64.8216
8.122000	 64.8824
8.140000	 64.9908
8.158000	 65.0734
8.176000	 65.0702
8.193999	 64.9961
8.212000	 64.9275
8.230000	 64.9205
8.248000	 64.9522
8.266000	 64.9577
8.283999	 64.913
8.302000	 64.8559
8.320000	 64.8351
8.338000	 64.8695
8.356000	 64.944
8.374000	 65.0173
8.391999	 65.0422
8.410000	 65.0097
8.428000	 64.9624
8.446000	 64.942
8.464000	 64.9433
8.481999	 64.9385
8.500000	 64.9265
8.518000	 64.9253
8.536000	 64.9336
8.554000	 64.9324
8.571999	 64.9211
8.590000	 64.9184
8.608000	 64.9253
8.626000	 64.9178
8.644000	 64.8846
8.661999	 64.8441
8.680000	 64.815
8.698000	 64.7918
8.716000	 64.7643
8.734000	 64.7401
8.751999	 64.7279
8.770000	 64.7184
8.788000	 64.6985
8.806000	 64.6717
8.824000	 64.654
8.842000	 64.6524
8.859999	 64.6603
8.878000	 64.671
8.896000	 64.686
8.914000	 64.7093
8.932000	 64.7389
8.949999	 64.7678
8.968000	 64.7915
8.986000	 64.8152
9.004000	 64.8494
9.022000	 64.8917
9.039999	 64.9222
9.058000	 64.9203
9.076000	 64.8849
9.094000	 64.8344
9.112000	 64.787
9.129999	 64.7452
9.148000	 64.7014
9.166000	 64.6552
9.184000	 64.6227
9.202000	 64.6233
9.219999	 64.6605
9.238000	 64.7099
9.256000	 64.7341
9.274000	 64.7141
9.292000	 64.6716
9.310000	 64.6548
9.327999	 64.6973
9.346000	 64.7862
9.364000	 64.8709
9.382000	 64.903
9.400000	 64.8732
9.418000	 64.8113
9.436000	 64.7564
9.454000	 64.7297
9.472000	 64.7335
9.490000	 64.7674
9.508000	 64.8335
9.526000	 64.9249
9.544000	 65.0157
9.561999	 65.0711
9.580000	 65.0708
9.598000	 65.0235
9.616000	 64.956
9.634000	 64.8914
9.652000	 64.8384
9.670000	 64.7955
9.688000	 64.7629
9.706000	 64.7441
9.724000	 64.7407
9.742000	 64.7479
9.760000	 64.7563
9.778000	 64.7576
9.795999	 64.7474
9.814000	 64.7268
9.832000	 64.704
9.850000	 64.6928
9.868000	 64.7079
9.886000	 64.7532
9.904000	 64.8154
9.922000	 64.8676
9.940000	 64.8848
9.958000	 64.8597
9.976000	 64.8069
9.994000	 64.7526
10.012	64.7194
10.03	64.7189
10.048	64.7522
10.066	64.8143
10.084	64.8958
10.102	64.9811
10.12	65.049
10.138	65.0789
10.156	65.0608
10.174	64.9992
10.192	64.909
10.21	64.8089
10.228	64.713
10.246	64.6297
10.264	64.5649
10.282	64.5238
10.3	64.5131
10.318	64.5369
10.336	64.5911
10.354	64.6622
10.372	64.7299
10.39	64.7747
10.408	64.7883
10.426	64.7778
10.444	64.7637
10.462	64.7668
10.48	64.7982
10.498	64.8526
10.516	64.911
10.534	64.9504
10.552	64.9508
10.57	64.9035
10.588	64.8129
10.606	64.6952
10.624	64.5718
10.642	64.4631
10.66	64.3801
10.678	64.3254
10.696	64.2953
10.714	64.2868
10.732	64.3026
10.75	64.3488
10.768	64.4301
10.786	64.5417
10.804	64.665
10.822	64.7727
10.84	64.8373
10.858	64.8423
10.876	64.7883
10.894	64.6932
10.912	64.5817
10.93	64.4778
10.948	64.3938
10.966	64.3288
10.984	64.2765
11.002	64.232
11.02	64.197
11.038	64.179
11.056	64.1847
11.074	64.215
11.092	64.263
11.11	64.3193
11.128	64.3766
11.146	64.4343
11.164	64.4972
11.182	64.5729
11.2	64.6662
11.218	64.7752
11.236	64.8921
11.254	65.0045
11.272	65.0968
11.29	65.1526
11.308	65.1587
11.326	65.1061
11.344	64.9964
11.362	64.8451
11.38	64.6828
11.398	64.5473
11.416	64.4768
11.434	64.4945
11.452	64.6001
11.47	64.7677
11.488	64.9555
11.506	65.1146
11.524	65.2062
11.542	65.2122
11.56	65.1345
11.578	64.992
11.596	64.8102
11.614	64.6154
11.632	64.4274
11.65	64.2588
11.668	64.1176
11.686	64.0087
11.704	63.9342
11.722	63.8931
11.74	63.8808
11.758	63.8897
11.776	63.9098
11.794	63.9324
11.812	63.9526
11.83	63.97
11.848	63.9859
11.866	64.0015
11.884	64.0166
11.902	64.0289
11.92	64.0353
11.938	64.034
11.956	64.0268
11.974	64.0182
11.992	64.0139
12.01	64.018
12.028	64.0313
12.046	64.0502
12.064	64.0662
12.082	64.0702
12.1	64.0561
12.118	64.0234
12.136	63.9794
12.154	63.9369
12.172	63.9103
12.19	63.9107
12.208	63.9422
12.226	64.0003
12.244	64.0745
12.262	64.1509
12.28	64.216
12.298	64.26
12.316	64.2787
12.334	64.273
12.352	64.2482
12.37	64.2119
12.388	64.1712
12.406	64.1313
12.424	64.094
12.442	64.0589
12.46	64.025
12.478	63.992
12.496	63.9621
12.514	63.9386
12.532	63.926
12.55	63.9271
12.568	63.9418
12.586	63.9669
12.604	63.9964
12.622	64.0231
12.64	64.0409
12.658	64.0461
12.676	64.0386
12.694	64.0211
12.712	63.9982
12.73	63.9751
12.748	63.9553
12.766	63.9406
12.784	63.9304
12.802	63.9231
12.82	63.9162
12.838	63.9072
12.856	63.8945
12.874	63.8776
12.892	63.8566
12.91	63.8326
12.928	63.8069
12.946	63.7814
12.964	63.7578
12.982	63.7378
13	63.7229
13.018	63.7138
13.036	63.7105
13.054	63.7117
13.072	63.7152
13.09	63.7182
13.108	63.7175
13.126	63.7107
13.144	63.6963
13.162	63.6748
13.18	63.6486
13.198	63.6213
13.216	63.5976
13.234	63.5824
13.252	63.5798
13.27	63.592
13.288	63.6189
13.306	63.6577
13.324	63.7037
13.342	63.7509
13.36	63.7935
13.378	63.8263
13.396	63.8461
13.414	63.8524
13.432	63.8467
13.45	63.832
13.468	63.8125
13.486	63.7917
13.504	63.7722
13.522	63.7545
13.54	63.7381
13.558	63.7214
13.576	63.7023
13.594	63.6793
13.612	63.6521
13.63	63.6211
13.648	63.5877
13.666	63.5538
13.684	63.5209
13.702	63.4901
13.72	63.4619
13.738	63.4366
13.756	63.414
13.774	63.3943
13.792	63.3781
13.81	63.366
13.828	63.3588
13.846	63.357
13.864	63.3599
13.882	63.3659
13.9	63.3723
13.918	63.376
13.936	63.3741
13.954	63.3646
13.972	63.347
13.99	63.322
14.008	63.2921
14.026	63.2606
14.044	63.231
14.062	63.2061
14.08	63.1873
14.098	63.1747
14.116	63.1667
14.134	63.1608
14.152	63.1542
14.17	63.144
14.188	63.1284
14.206	63.1068
14.224	63.0802
14.242	63.0505
14.26	63.0208
14.278	62.9942
14.296	62.9741
14.314	62.9629
14.332	62.962
14.35	62.972
14.368	62.9921
14.386	63.0204
14.404	63.0539
14.422	63.0889
14.44	63.1219
14.458	63.1493
14.476	63.168
14.494	63.176
14.512	63.1721
14.53	63.1566
14.548	63.1306
14.566	63.0958
14.584	63.0541
14.602	63.0078
14.62	62.959
14.638	62.9096
14.656	62.8613
14.674	62.8157
14.692	62.774
14.71	62.7376
14.728	62.7077
14.746	62.6857
14.764	62.6728
14.782	62.6695
14.8	62.6762
14.818	62.6924
14.836	62.717
14.854	62.7477
14.872	62.7819
14.89	62.8163
14.908	62.8478
14.926	62.8737
14.944	62.8915
14.962	62.9
14.98	62.899
14.998	62.8895
15.016	62.8731
15.034	62.8523
15.052	62.8306
15.07	62.8111
15.088	62.7964
15.106	62.7885
15.124	62.789
15.142	62.7974
15.16	62.812
15.178	62.8305
15.196	62.8496
15.214	62.8653
15.232	62.8743
15.25	62.8743
15.268	62.8635
15.286	62.8415
15.304	62.8097
15.322	62.7701
15.34	62.7252
15.358	62.678
15.376	62.6319
15.394	62.5892
15.412	62.5519
15.43	62.5215
15.448	62.4988
15.466	62.4839
15.484	62.4765
15.502	62.4759
15.52	62.4815
15.538	62.4921
15.556	62.5068
15.574	62.5241
15.592	62.5426
15.61	62.5611
15.628	62.5785
15.646	62.5941
15.664	62.6065
15.682	62.6159
15.7	62.6227
15.718	62.6277
15.736	62.633
15.754	62.6401
15.772	62.6508
15.79	62.6669
15.808	62.6892
15.826	62.7177
15.844	62.7519
15.862	62.7896
15.88	62.8284
15.898	62.8659
15.916	62.8982
15.934	62.9225
15.952	62.9369
15.97	62.9397
15.988	62.9304
16.006	62.9095
16.024	62.8779
16.042	62.8379
16.06	62.7915
16.078	62.7408
16.096	62.6881
16.114	62.6353
16.132	62.5833
16.15	62.5332
16.168	62.4853
16.186	62.4393
16.204	62.3951
16.222	62.3518
16.24	62.3087
16.258	62.2657
16.276	62.2219
16.294	62.1773
16.312	62.1315
16.33	62.0846
16.348	62.0365
16.366	61.9874
16.384	61.9377
16.402	61.8882
16.42	61.8396
16.438	61.7929
16.456	61.7498
16.474	61.7113
16.492	61.6792
16.51	61.6553
16.528	61.6404
16.546	61.6361
16.564	61.6426
16.582	61.6599
16.6	61.6874
16.618	61.723
16.636	61.7655
16.654	61.8113
16.672	61.8578
16.69	61.9025
16.708	61.9416
16.726	61.9735
16.744	61.9962
16.762	62.0084
16.78	62.0104
16.798	62.002
16.816	61.9848
16.834	61.9598
16.852	61.929
16.87	61.8947
16.888	61.8581
16.906	61.8218
16.924	61.7871
16.942	61.755
16.96	61.7271
16.978	61.7035
16.996	61.6854
17.014	61.6725
17.032	61.6647
17.05	61.6616
17.068	61.6621
17.086	61.6655
17.104	61.6703
17.122	61.6757
17.14	61.6803
17.158	61.6835
17.176	61.6845
17.194	61.6829
17.212	61.6789
17.23	61.6725
17.248	61.6647
17.266	61.6558
17.284	61.6473
17.302	61.6396
17.32	61.6337
17.338	61.6304
17.356	61.63
17.374	61.633
17.392	61.6393
17.41	61.649
17.428	61.6617
17.446	61.677
17.464	61.6942
17.482	61.7129
17.5	61.7322
17.518	61.7515
17.536	61.7705
17.554	61.7884
17.572	61.805
17.59	61.8198
17.608	61.8331
17.626	61.8448
17.644	61.8552
17.662	61.8645
17.68	61.8733
17.698	61.8816
17.716	61.89
17.734	61.8984
17.752	61.907
17.77	61.9157
17.788	61.9244
17.806	61.9327
17.824	61.9404
17.842	61.947
17.86	61.9518
17.878	61.9546
17.896	61.9547
17.914	61.9516
17.932	61.9452
17.95	61.9352
17.968	61.9212
17.986	61.9035
18.004	61.8817
18.022	61.8561
18.04	61.8266
18.058	61.7935
18.076	61.7567
18.094	61.7164
18.112	61.6727
18.13	61.6257
18.148	61.5757
18.166	61.5228
18.184	61.4676
18.202	61.4103
18.22	61.3521
18.238	61.2933
18.256	61.2357
18.274	61.1793
18.292	61.1265
18.31	61.0774
18.328	61.0339
18.346	60.9962
18.364	60.9654
18.382	60.9413
18.4	60.9244
18.418	60.9137
18.436	60.9088
18.454	60.9082
18.472	60.9114
18.49	60.9167
18.508	60.9234
18.526	60.9301
18.544	60.9367
18.562	60.9418
18.58	60.9457
18.598	60.948
18.616	60.949
18.634	60.9494
18.652	60.9494
18.67	60.95
18.688	60.9514
18.706	60.9546
18.724	60.9593
18.742	60.9662
18.76	60.975
18.778	60.9854
18.796	60.997
18.814	61.0092
18.832	61.0213
18.85	61.0327
18.868	61.0427
18.886	61.0507
18.904	61.0564
18.922	61.0592
18.94	61.0593
18.958	61.0564
18.976	61.0513
18.994	61.044
19.012	61.0353
19.03	61.0257
19.048	61.0161
19.066	61.0072
19.084	60.9995
19.102	60.994
19.12	60.9909
19.138	60.9907
19.156	60.9934
19.174	60.9994
19.192	61.0084
19.21	61.0201
19.228	61.0343
19.246	61.0504
19.264	61.0682
19.282	61.0867
19.3	61.1056
19.318	61.1237
19.336	61.141
19.354	61.1558
19.372	61.1681
19.39	61.1766
19.408	61.1813
19.426	61.1807
19.444	61.1751
19.462	61.1633
19.48	61.1453
19.498	61.1207
19.516	61.0895
19.534	61.052
19.552	61.008
19.57	60.9588
19.588	60.9047
19.606	60.8474
19.624	60.7883
19.642	60.7285
19.66	60.671
19.678	60.6159
19.696	60.5672
19.714	60.5245
19.732	60.491
19.75	60.4667
19.768	60.4534
19.786	60.4513
19.804	60.4599
19.822	60.4799
19.84	60.5093
19.858	60.5473
19.876	60.5926
19.894	60.642
19.912	60.6954
19.93	60.7481
19.948	60.8009
19.966	60.849
19.984	60.8927
20.002	60.9294
20.02	60.958
20.038	60.978
20.056	60.9883
20.074	60.9893
20.092	60.9809
20.11	60.9635
20.128	60.9384
20.146	60.9055
20.164	60.867
20.182	60.8232
20.2	60.7759
20.218	60.7265
20.236	60.6754
20.254	60.6251
20.272	60.5752
20.29	60.528
20.308	60.4834
20.326	60.4425
20.344	60.4057
20.362	60.3732
20.38	60.3457
20.398	60.3231
20.416	60.3052
20.434	60.292
20.452	60.2832
20.47	60.2787
20.488	60.2777
20.506	60.2796
20.524	60.2842
20.542	60.2898
20.56	60.2968
20.578	60.3032
20.596	60.309
20.614	60.3131
20.632	60.314
20.65	60.312
20.668	60.3055
20.686	60.2947
20.704	60.279
20.722	60.2578
20.74	60.2315
20.758	60.2003
20.776	60.164
20.794	60.1241
20.812	60.08
20.83	60.0333
20.848	59.9849
20.866	59.935
20.884	59.8857
20.902	59.8366
20.92	59.7896
20.938	59.7452
20.956	59.7037
20.974	59.6664
20.992	59.6329
21.01	59.604
21.028	59.5797
21.046	59.5599
21.064	59.5446
21.082	59.5338
21.1	59.5267
21.118	59.5235
21.136	59.5235
21.154	59.526
21.172	59.5311
21.19	59.5377
21.208	59.5458
21.226	59.5549
21.244	59.5642
21.262	59.5739
21.28	59.5829
21.298	59.5914
21.316	59.5986
21.334	59.604
21.352	59.6076
21.37	59.6087
21.388	59.607
21.406	59.6025
21.424	59.5945
21.442	59.5833
21.46	59.5682
21.478	59.549
21.496	59.5258
21.514	59.4985
21.532	59.467
21.55	59.432
21.568	59.3937
21.586	59.3522
21.604	59.3093
21.622	59.2643
21.64	59.2191
21.658	59.175
21.676	59.1316
21.694	59.0915
21.712	59.0547
21.73	59.022
21.748	58.9954
21.766	58.9743
21.784	58.9598
21.802	58.9524
21.82	58.9517
21.838	58.9578
21.856	58.9711
21.874	58.9904
21.892	59.0146
21.91	59.0444
21.928	59.0771
21.946	59.1121
21.964	59.1493
21.982	59.1851
22	59.2203
22.018	59.2533
22.036	59.2813
22.054	59.3054
22.072	59.3236
22.09	59.3346
22.108	59.3389
22.126	59.3352
22.144	59.3231
22.162	59.303
22.18	59.275
22.198	59.2387
22.216	59.1953
22.234	59.1454
22.252	59.0885
22.27	59.0271
22.288	58.9617
22.306	58.8921
22.324	58.8215
22.342	58.7493
22.36	58.6766
22.378	58.6062
22.396	58.5372
22.414	58.4711
22.432	58.4099
22.45	58.3526
22.468	58.3005
22.486	58.2543
22.504	58.2136
22.522	58.178
22.54	58.1481
22.558	58.1233
22.576	58.102
22.594	58.0848
22.612	58.0706
22.63	58.0568
22.648	58.0447
22.666	58.0323
22.684	58.0169
22.702	57.9999
22.72	57.9791
22.738	57.9526
22.756	57.9214
22.774	57.8839
22.792	57.8388
22.81	57.7868
22.828	57.7277
22.846	57.661
22.864	57.5871
22.882	57.5071
22.9	57.4205
22.918	57.3279
22.936	57.232
22.954	57.1325
22.972	57.0299
22.99	56.9279
23.008	56.8257
23.026	56.7244
23.044	56.628
23.062	56.5357
23.08	56.4485
23.098	56.3698
23.116	56.2991
23.134	56.237
23.152	56.1858
23.17	56.1454
23.188	56.1157
23.206	56.0977
23.224	56.0919
23.242	56.0974
23.26	56.1134
23.278	56.1408
23.296	56.1782
23.314	56.2228
23.332	56.2762
23.35	56.3364
23.368	56.3998
23.386	56.4678
23.404	56.5388
23.422	56.6084
23.44	56.6776
23.458	56.7456
23.476	56.8086
23.494	56.8671
23.512	56.9208
23.53	56.9673
23.548	57.0063
23.566	57.0382
23.584	57.0626
23.602	57.0789
23.62	57.0875
23.638	57.0897
23.656	57.0852
23.674	57.074
23.692	57.0585
23.71	57.0396
23.728	57.0162
23.746	56.9912
23.764	56.9666
23.782	56.9407
23.8	56.9156
23.818	56.8934
23.836	56.8731
23.854	56.8552
23.872	56.8409
23.89	56.8299
23.908	56.8222
23.926	56.8179
23.944	56.8174
23.962	56.8201
23.98	56.8257
23.998	56.8342
24.016	56.8456
24.034	56.8584
24.052	56.872
24.07	56.8871
24.088	56.9022
24.106	56.9159
24.124	56.9292
24.142	56.9414
24.16	56.9514
24.178	56.9595
24.196	56.9659
24.214	56.9706
24.232	56.9731
24.25	56.9738
24.268	56.9739
24.286	56.9733
24.304	56.9717
24.322	56.9708
24.34	56.9717
24.358	56.9735
24.376	56.9771
24.394	56.984
24.412	56.9935
24.43	57.006
24.448	57.0223
24.466	57.0427
24.484	57.0668
24.502	57.095
24.52	57.1277
24.538	57.1648
24.556	57.2059
24.574	57.2506
24.592	57.2996
24.61	57.352
24.628	57.4067
24.646	57.4636
24.664	57.5231
24.682	57.5834
24.7	57.6434
24.718	57.7042
24.736	57.7645
24.754	57.8228
24.772	57.8793
24.79	57.9341
24.808	57.9859
24.826	58.0341
24.844	58.0793
24.862	58.121
24.88	58.1587
24.898	58.1923
24.916	58.2222
24.934	58.2486
24.952	58.2712
24.97	58.2899
24.988	58.3062
25.006	58.3216
25.024	58.335
25.042	58.3471
25.06	58.3592
25.078	58.3718
25.096	58.3844
25.114	58.3972
25.132	58.4103
25.15	58.4241
25.168	58.438
25.186	58.4515
25.204	58.4644
25.222	58.477
25.24	58.489
25.258	58.5002
25.276	58.5123
25.294	58.5232
25.312	58.53
25.33	58.5322
25.348	58.5324
25.366	58.5248
25.384	58.5041
25.402	58.4728
25.42	58.4305
25.438	58.3723
25.456	58.2953
25.474	58.2022
25.492	58.0918
25.51	57.9622
25.528	57.8142
25.546	57.6481
25.564	57.4613
25.582	57.2513
25.6	57.0199
25.618	56.7666
25.636	56.4899
25.654	56.1891
25.672	55.8651
25.69	55.5176
25.708	55.1462
25.726	54.7496
25.744	54.329
25.762	53.8872
25.78	53.4258
25.798	52.9388
25.816	52.4334
25.834	51.9205
25.852	51.4032
25.87	50.872
25.888	50.3413
25.906	49.8273
25.924	49.3275
25.942	48.8363
25.96	48.3703
25.978	47.9447
25.996	47.5499
26.014	47.1881
26.032	46.8727
26.05	46.6139
26.068	46.4021
26.086	46.2416
26.104	46.1406
26.122	46.1041
26.14	46.1274
26.158	46.2099
26.176	46.3519
26.194	46.5576
26.212	46.8265
26.23	47.1468
26.248	47.5067
26.266	47.9145
26.284	48.3691
26.302	48.8528
26.32	49.3493
26.338	49.8713
26.356	50.4146
26.374	50.9616
26.392	51.4979
26.41	52.0375
26.428	52.5737
26.446	53.0921
26.464	53.5823
26.482	54.0555
26.5	54.5062
26.518	54.9253
26.536	55.3065
26.554	55.6557
26.572	55.9721
26.59	56.2539
26.608	56.4995
26.626	56.7095
26.644	56.886
26.662	57.0308
26.68	57.1426
26.698	57.2183
26.716	57.2663
26.734	57.2952
26.752	57.3067
26.77	57.2944
26.788	57.2662
26.806	57.2303
26.824	57.186
26.842	57.1259
26.86	57.064
26.878	57.0151
26.896	56.9811
26.914	56.9503
26.932	56.9375
26.95	56.9581
26.968	57.0347
26.986	57.1674
27.004	57.3124
27.022	57.4252
27.028	57.4448