File: Bakgrunnsmateriale/MATLAB/FTIR/ftir_data/subBb/Mapping_36/C-4040-8_t04.asc
PE IR       SPECTRUM    SPECTRUM    ASCII       PEDS        1.60
  -1
C-B52A~1.ASC
17/05/02
11:08:49.00
17/05/02
11:09:15.00
tln
$C-4040-8_t0004$<tbV0>[-2.5,-13.0,8.0,0.0,22,1,0]
27.028
64

2002,4.07
MIRTGS : RIGHTBACK : INTERNAL 2
MIR : ON : INTERNAL 2
OPTKBR

0.200000
8
8.000000
FILLER
RATIO
SPECTRUM
UNLOCKED 256

DOUBLE
64
COMBINED
1
0
0

0.002000
RATIO

1
0
TRUE
51149
0
LEFT NOT FITTED RIGHT NOT FITTED 0
NONE
NONE
15600
12
4.427000
51148
TRUE
1 0 8 72 0 0 0 0

15798

#HDR
-1
-1
#GR
µM
%T
2.38419e-05
0.0
1.282000
0.002000
12874
8
85.3717
37.1178
#DATA
1.282000	 69.6496
1.300000	 61.1278
1.318000	 66.0911
1.336000	 62.8931
1.354000	 63.6829
1.372000	 62.1991
1.390000	 65.2217
1.408000	 62.7029
1.426000	 59.8316
1.444000	 63.9111
1.462000	 61.7105
1.480000	 64.3893
1.498000	 62.9977
1.516000	 64.0534
1.534000	 63.9537
1.552000	 65.5387
1.570000	 62.8471
1.588000	 62.7467
1.606000	 64.4145
1.624000	 63.1728
1.642000	 64.3231
1.660000	 64.1056
1.678000	 63.5765
1.696000	 63.7661
1.714000	 65.0945
1.732000	 63.5184
1.750000	 64.1812
1.768000	 63.6659
1.786000	 63.902
1.804000	 64.4073
1.822000	 65.0746
1.840000	 64.5718
1.858000	 64.8861
1.876000	 63.6672
1.894000	 63.1483
1.912000	 61.3399
1.930000	 64.785
1.948000	 63.4796
1.966000	 63.996
1.984000	 64.5776
2.002000	 64.5474
2.020000	 64.5836
2.038000	 64.4112
2.056000	 64.3349
2.074000	 64.0081
2.092000	 64.4812
2.110000	 64.2592
2.128000	 64.375
2.146000	 64.2845
2.164000	 63.7638
2.182000	 64.2671
2.200000	 64.2826
2.218000	 64.1696
2.236000	 64.2942
2.254000	 64.1236
2.272000	 68.3362
2.290000	 64.1373
2.308000	 64.4404
2.326000	 63.962
2.344000	 64.2195
2.362000	 64.235
2.380000	 64.1836
2.398000	 63.8691
2.416000	 63.8577
2.434000	 63.6718
2.452000	 64.0147
2.470000	 63.8782
2.488000	 63.7483
2.506000	 63.992
2.524000	 63.8444
2.542000	 63.7424
2.560000	 63.7416
2.578000	 63.9147
2.596000	 63.8484
2.614000	 63.7753
2.632000	 63.6157
2.650000	 63.6214
2.668000	 63.911
2.686000	 63.5526
2.704000	 63.4766
2.722000	 63.5339
2.740000	 63.5724
2.758000	 63.3008
2.776000	 63.2766
2.794000	 63.2683
2.812000	 63.1047
2.830000	 63.1903
2.848000	 63.0241
2.866000	 63.1902
2.884000	 63.1693
2.902000	 63.0954
2.920000	 63.2541
2.938000	 62.9504
2.956000	 62.9055
2.974000	 63.1519
2.992000	 62.9665
3.010000	 62.692
3.028000	 62.684
3.046000	 62.8701
3.064000	 62.7297
3.082000	 62.738
3.100000	 62.5219
3.118000	 62.6055
3.136000	 62.4073
3.154000	 62.4941
3.172000	 62.578
3.190000	 62.4251
3.208000	 62.2954
3.226000	 62.2268
3.244000	 62.1977
3.262000	 62.3303
3.280000	 62.0336
3.298000	 62.1954
3.316000	 61.9415
3.334000	 62.0459
3.352000	 61.948
3.370000	 61.8931
3.388000	 61.701
3.406000	 61.4802
3.424000	 61.3864
3.442000	 61.4561
3.460000	 61.6913
3.478000	 61.5004
3.496000	 61.5193
3.514000	 61.476
3.532000	 61.3923
3.550000	 61.3409
3.568000	 61.3747
3.586000	 61.3316
3.604000	 61.3199
3.622000	 61.1664
3.640000	 61.1412
3.658000	 61.3146
3.676000	 61.2283
3.694000	 61.1882
3.712000	 61.0272
3.730000	 60.9812
3.748000	 60.9592
3.766000	 60.9469
3.784000	 60.8618
3.802000	 60.6601
3.820000	 60.7975
3.838000	 60.7562
3.856000	 60.6722
3.874000	 60.7655
3.892000	 60.6618
3.910000	 60.7188
3.928000	 60.5544
3.946000	 60.4681
3.964000	 60.5152
3.982000	 60.4173
4.000000	 60.3416
4.018000	 60.2134
4.036000	 60.3004
4.054000	 60.1817
4.072000	 60.1619
4.090000	 60.0652
4.108000	 60.2306
4.125999	 60.1233
4.144000	 59.9328
4.162000	 59.7585
4.180000	 59.8454
4.198000	 59.8659
4.216000	 59.8547
4.234000	 59.6656
4.252000	 59.6763
4.270000	 59.5462
4.288000	 59.5677
4.306000	 59.6307
4.324000	 59.6349
4.342000	 59.6067
4.359999	 59.5148
4.378000	 59.3687
4.396000	 59.255
4.414000	 59.3218
4.432000	 59.3143
4.450000	 59.283
4.468000	 59.1295
4.486000	 59.0597
4.504000	 59.0608
4.522000	 59.1017
4.540000	 59.0331
4.558000	 58.9769
4.576000	 58.9306
4.594000	 58.8836
4.612000	 58.84
4.630000	 58.8638
4.648000	 58.6697
4.666000	 58.7808
4.684000	 58.7818
4.702000	 58.7046
4.720000	 58.6807
4.738000	 58.5596
4.756000	 58.5502
4.774000	 58.5949
4.792000	 58.4583
4.810000	 58.2
4.828000	 58.1797
4.846000	 58.2036
4.864000	 58.3255
4.882000	 58.2172
4.900000	 58.3327
4.918000	 58.2653
4.936000	 58.0659
4.954000	 58.0114
4.972000	 58.1481
4.990000	 58.1586
5.008000	 58.0911
5.026000	 58.0881
5.044000	 57.9596
5.062000	 57.816
5.080000	 57.8529
5.098000	 57.8314
5.116000	 57.798
5.134000	 57.7798
5.152000	 57.7443
5.170000	 57.746
5.188000	 57.757
5.206000	 57.768
5.224000	 57.6078
5.242000	 57.6035
5.260000	 57.6908
5.278000	 57.642
5.296000	 57.5546
5.314000	 57.4356
5.332000	 57.4938
5.350000	 57.4741
5.368000	 57.389
5.386000	 57.3382
5.404000	 57.2332
5.422000	 57.2716
5.440000	 57.1863
5.458000	 57.1742
5.476000	 57.1716
5.494000	 57.128
5.512000	 57.1775
5.530000	 57.1574
5.548000	 57.0705
5.566000	 57.0854
5.584000	 56.9924
5.602000	 56.9443
5.620000	 56.9427
5.638000	 56.9263
5.656000	 56.8866
5.674000	 56.8074
5.692000	 56.7179
5.710000	 56.6143
5.728000	 56.5595
5.746000	 56.4768
5.764000	 56.4322
5.782000	 56.5213
5.800000	 56.4972
5.818000	 56.4564
5.836000	 56.4816
5.854000	 56.4489
5.872000	 56.532
5.890000	 56.6286
5.908000	 56.5169
5.926000	 56.4389
5.944000	 56.3914
5.962000	 56.3706
5.980000	 56.3757
5.998000	 56.343
6.016000	 56.361
6.034000	 56.3514
6.052000	 56.2841
6.070000	 56.2334
6.088000	 56.2188
6.106000	 56.1162
6.124000	 55.966
6.142000	 55.9026
6.160000	 55.988
6.178000	 56.1209
6.196000	 56.1694
6.214000	 56.0774
6.232000	 56.0226
6.250000	 56.0287
6.268000	 55.9476
6.286000	 55.8453
6.304000	 55.8067
6.322000	 55.7747
6.340000	 55.7053
6.358000	 55.6157
6.376000	 55.6272
6.394000	 55.664
6.412000	 55.6569
6.430000	 55.6055
6.448000	 55.5489
6.466000	 55.5202
6.484000	 55.4736
6.502000	 55.4409
6.520000	 55.4549
6.538000	 55.495
6.556000	 55.5201
6.574000	 55.4941
6.592000	 55.4262
6.610000	 55.4119
6.628000	 55.4946
6.646000	 55.5255
6.664000	 55.4512
6.682000	 55.3769
6.700000	 55.3497
6.718000	 55.3148
6.736000	 55.2627
6.754000	 55.2394
6.772000	 55.2053
6.790000	 55.1481
6.808000	 55.0868
6.826000	 55.0239
6.844000	 55.0167
6.862000	 55.0674
6.880000	 55.1208
6.898000	 55.1059
6.916000	 54.9935
6.934000	 54.9143
6.952000	 54.9316
6.970000	 54.9219
6.988000	 54.8611
7.006000	 54.8542
7.024000	 54.9242
7.042000	 55.02
7.060000	 55.0691
7.078000	 55.0065
7.096000	 54.8527
7.114000	 54.7084
7.132000	 54.6642
7.150000	 54.7056
7.168000	 54.7325
7.186000	 54.7031
7.204000	 54.653
7.222000	 54.6043
7.240000	 54.5644
7.258000	 54.538
7.276000	 54.5141
7.294000	 54.4881
7.312000	 54.4604
7.330000	 54.4449
7.348000	 54.4798
7.366000	 54.5523
7.384000	 54.5811
7.402000	 54.5302
7.420000	 54.4624
7.438000	 54.4566
7.456000	 54.4968
7.474000	 54.4851
7.492000	 54.4027
7.510000	 54.3457
7.528000	 54.3449
7.546000	 54.3305
7.564000	 54.2805
7.582000	 54.2366
7.600000	 54.2019
7.618000	 54.1519
7.636000	 54.1077
7.654000	 54.1025
7.672000	 54.1214
7.690000	 54.1406
7.708000	 54.1603
7.726000	 54.1709
7.744000	 54.1576
7.762000	 54.1195
7.780000	 54.0603
7.798000	 53.9927
7.816000	 53.9391
7.834000	 53.9134
7.852000	 53.9165
7.870000	 53.9396
7.888000	 53.9625
7.906000	 53.9766
7.924000	 53.9944
7.942000	 54.0137
7.960000	 54.0075
7.978000	 53.9663
7.996000	 53.9115
8.013999	 53.8605
8.032000	 53.813
8.050000	 53.7737
8.068000	 53.7617
8.086000	 53.7814
8.103999	 53.7957
8.122000	 53.7644
8.140000	 53.7029
8.158000	 53.6642
8.176000	 53.6701
8.193999	 53.6926
8.212000	 53.6973
8.230000	 53.6721
8.248000	 53.6285
8.266000	 53.5914
8.283999	 53.573
8.302000	 53.5612
8.320000	 53.5414
8.338000	 53.5188
8.356000	 53.5029
8.374000	 53.4873
8.391999	 53.463
8.410000	 53.4405
8.428000	 53.4361
8.446000	 53.4453
8.464000	 53.4443
8.481999	 53.4195
8.500000	 53.3813
8.518000	 53.3473
8.536000	 53.3259
8.554000	 53.319
8.571999	 53.3221
8.590000	 53.32
8.608000	 53.2996
8.626000	 53.2634
8.644000	 53.2271
8.661999	 53.2093
8.680000	 53.2206
8.698000	 53.2507
8.716000	 53.2648
8.734000	 53.2319
8.751999	 53.1655
8.770000	 53.1161
8.788000	 53.1138
8.806000	 53.1344
8.824000	 53.1336
8.842000	 53.1007
8.859999	 53.0617
8.878000	 53.0387
8.896000	 53.0251
8.914000	 53.0051
8.932000	 52.9773
8.949999	 52.9497
8.968000	 52.9219
8.986000	 52.8844
9.004000	 52.837
9.022000	 52.7993
9.039999	 52.7941
9.058000	 52.8244
9.076000	 52.8729
9.094000	 52.9216
9.112000	 52.9629
9.129999	 52.9969
9.148000	 53.0241
9.166000	 53.0422
9.184000	 53.0445
9.202000	 53.0216
9.219999	 52.9704
9.238000	 52.904
9.256000	 52.8476
9.274000	 52.8168
9.292000	 52.8051
9.310000	 52.7936
9.327999	 52.7748
9.346000	 52.757
9.364000	 52.7479
9.382000	 52.742
9.400000	 52.7259
9.418000	 52.6953
9.436000	 52.6568
9.454000	 52.616
9.472000	 52.5737
9.490000	 52.5358
9.508000	 52.5229
9.526000	 52.5574
9.544000	 52.6356
9.561999	 52.7176
9.580000	 52.7523
9.598000	 52.7167
9.616000	 52.6293
9.634000	 52.5304
9.652000	 52.4547
9.670000	 52.4166
9.688000	 52.4109
9.706000	 52.42
9.724000	 52.4205
9.742000	 52.3927
9.760000	 52.3305
9.778000	 52.2482
9.795999	 52.1733
9.814000	 52.1292
9.832000	 52.12
9.850000	 52.128
9.868000	 52.1284
9.886000	 52.1066
9.904000	 52.0665
9.922000	 52.0251
9.940000	 52.0001
9.958000	 51.999
9.976000	 52.0159
9.994000	 52.0359
10.012	52.0439
10.03	52.0325
10.048	52.0058
10.066	51.9765
10.084	51.9566
10.102	51.9494
10.12	51.9474
10.138	51.9381
10.156	51.9142
10.174	51.8796
10.192	51.8479
10.21	51.8345
10.228	51.8484
10.246	51.8878
10.264	51.9419
10.282	51.9958
10.3	52.0377
10.318	52.0605
10.336	52.0632
10.354	52.0495
10.372	52.0249
10.39	51.9949
10.408	51.9636
10.426	51.9319
10.444	51.8974
10.462	51.8568
10.48	51.8073
10.498	51.7502
10.516	51.6908
10.534	51.6375
10.552	51.5981
10.57	51.5766
10.588	51.5726
10.606	51.5834
10.624	51.6061
10.642	51.6401
10.66	51.6858
10.678	51.7438
10.696	51.811
10.714	51.8791
10.732	51.9344
10.75	51.9629
10.768	51.9564
10.786	51.9177
10.804	51.8616
10.822	51.8087
10.84	51.7781
10.858	51.7789
10.876	51.8087
10.894	51.8544
10.912	51.8971
10.93	51.9198
10.948	51.9113
10.966	51.8667
10.984	51.7881
11.002	51.6844
11.02	51.5666
11.038	51.4487
11.056	51.3437
11.074	51.2605
11.092	51.203
11.11	51.1673
11.128	51.146
11.146	51.1334
11.164	51.1297
11.182	51.1427
11.2	51.1858
11.218	51.2689
11.236	51.3917
11.254	51.5374
11.272	51.6721
11.29	51.7536
11.308	51.7498
11.326	51.6497
11.344	51.4714
11.362	51.2584
11.38	51.0607
11.398	50.9137
11.416	50.8296
11.434	50.7962
11.452	50.7878
11.47	50.7805
11.488	50.7642
11.506	50.7424
11.524	50.7236
11.542	50.7107
11.56	50.6963
11.578	50.6673
11.596	50.6146
11.614	50.5405
11.632	50.4621
11.65	50.4037
11.668	50.3864
11.686	50.417
11.704	50.4848
11.722	50.5623
11.74	50.6161
11.758	50.6196
11.776	50.5611
11.794	50.4488
11.812	50.3078
11.83	50.175
11.848	50.0856
11.866	50.0635
11.884	50.1144
11.902	50.2252
11.92	50.366
11.938	50.5014
11.956	50.5984
11.974	50.6353
11.992	50.6083
12.01	50.5288
12.028	50.4204
12.046	50.311
12.064	50.2249
12.082	50.1775
12.1	50.1754
12.118	50.2167
12.136	50.2939
12.154	50.3971
12.172	50.5159
12.19	50.6393
12.208	50.7551
12.226	50.8514
12.244	50.9177
12.262	50.9465
12.28	50.9352
12.298	50.8866
12.316	50.8101
12.334	50.718
12.352	50.6249
12.37	50.5431
12.388	50.4812
12.406	50.4425
12.424	50.4254
12.442	50.425
12.46	50.4345
12.478	50.4481
12.496	50.4616
12.514	50.4735
12.532	50.4839
12.55	50.493
12.568	50.5001
12.586	50.5021
12.604	50.4939
12.622	50.4693
12.64	50.4244
12.658	50.3594
12.676	50.279
12.694	50.1923
12.712	50.1109
12.73	50.046
12.748	50.0044
12.766	49.9881
12.784	49.9939
12.802	50.0151
12.82	50.0439
12.838	50.0735
12.856	50.1004
12.874	50.1247
12.892	50.1481
12.91	50.1727
12.928	50.1989
12.946	50.225
12.964	50.2465
12.982	50.2582
13	50.2553
13.018	50.2354
13.036	50.1991
13.054	50.15
13.072	50.0934
13.09	50.0348
13.108	49.9785
13.126	49.9263
13.144	49.8776
13.162	49.83
13.18	49.7805
13.198	49.7269
13.216	49.6696
13.234	49.6116
13.252	49.5584
13.27	49.5168
13.288	49.4934
13.306	49.4928
13.324	49.5168
13.342	49.5628
13.36	49.6253
13.378	49.6961
13.396	49.766
13.414	49.826
13.432	49.8691
13.45	49.8911
13.468	49.891
13.486	49.871
13.504	49.8355
13.522	49.7905
13.54	49.7424
13.558	49.6966
13.576	49.6568
13.594	49.6245
13.612	49.5991
13.63	49.5781
13.648	49.5584
13.666	49.5363
13.684	49.5095
13.702	49.4765
13.72	49.4377
13.738	49.3944
13.756	49.3491
13.774	49.3042
13.792	49.2615
13.81	49.2223
13.828	49.1866
13.846	49.1544
13.864	49.1254
13.882	49.0998
13.9	49.0786
13.918	49.0634
13.936	49.0562
13.954	49.059
13.972	49.0724
13.99	49.0958
14.008	49.1269
14.026	49.1622
14.044	49.1966
14.062	49.225
14.08	49.2429
14.098	49.247
14.116	49.2364
14.134	49.2118
14.152	49.1757
14.17	49.1319
14.188	49.0846
14.206	49.038
14.224	48.9957
14.242	48.9601
14.26	48.9325
14.278	48.9132
14.296	48.9014
14.314	48.8961
14.332	48.8956
14.35	48.8981
14.368	48.9019
14.386	48.9055
14.404	48.9073
14.422	48.9062
14.44	48.9011
14.458	48.8916
14.476	48.8777
14.494	48.8598
14.512	48.8387
14.53	48.8156
14.548	48.7921
14.566	48.7694
14.584	48.7486
14.602	48.7304
14.62	48.715
14.638	48.7026
14.656	48.6929
14.674	48.6856
14.692	48.6805
14.71	48.6772
14.728	48.6757
14.746	48.676
14.764	48.6782
14.782	48.6825
14.8	48.6891
14.818	48.6981
14.836	48.7098
14.854	48.7242
14.872	48.7415
14.89	48.7614
14.908	48.7836
14.926	48.8071
14.944	48.8311
14.962	48.8537
14.98	48.8731
14.998	48.8873
15.016	48.8942
15.034	48.8919
15.052	48.8789
15.07	48.855
15.088	48.8204
15.106	48.7761
15.124	48.7238
15.142	48.6661
15.16	48.6055
15.178	48.5442
15.196	48.4841
15.214	48.4271
15.232	48.3741
15.25	48.3258
15.268	48.2824
15.286	48.2443
15.304	48.2115
15.322	48.1844
15.34	48.1633
15.358	48.1485
15.376	48.1402
15.394	48.1382
15.412	48.1415
15.43	48.149
15.448	48.1584
15.466	48.1672
15.484	48.1728
15.502	48.1732
15.52	48.1662
15.538	48.1513
15.556	48.1289
15.574	48.0998
15.592	48.0662
15.61	48.0309
15.628	47.9961
15.646	47.9639
15.664	47.9363
15.682	47.9133
15.7	47.8947
15.718	47.8793
15.736	47.8649
15.754	47.8494
15.772	47.8312
15.79	47.808
15.808	47.7791
15.826	47.7442
15.844	47.7038
15.862	47.6597
15.88	47.6138
15.898	47.568
15.916	47.5254
15.934	47.488
15.952	47.4574
15.97	47.4351
15.988	47.422
16.006	47.4178
16.024	47.4225
16.042	47.4351
16.06	47.454
16.078	47.4781
16.096	47.5054
16.114	47.5337
16.132	47.5612
16.15	47.586
16.168	47.6055
16.186	47.6183
16.204	47.6228
16.222	47.6179
16.24	47.6032
16.258	47.5786
16.276	47.5454
16.294	47.5055
16.312	47.4608
16.33	47.415
16.348	47.3716
16.366	47.3333
16.384	47.304
16.402	47.2863
16.42	47.2813
16.438	47.2905
16.456	47.3131
16.474	47.3481
16.492	47.3931
16.51	47.4442
16.528	47.4988
16.546	47.5521
16.564	47.6004
16.582	47.6412
16.6	47.671
16.618	47.6885
16.636	47.6927
16.654	47.6836
16.672	47.6622
16.69	47.6294
16.708	47.5878
16.726	47.5393
16.744	47.4857
16.762	47.4302
16.78	47.374
16.798	47.3189
16.816	47.2665
16.834	47.2171
16.852	47.1713
16.87	47.1292
16.888	47.0908
16.906	47.0557
16.924	47.0237
16.942	46.9945
16.96	46.9679
16.978	46.9438
16.996	46.9219
17.014	46.9025
17.032	46.8856
17.05	46.8714
17.068	46.8604
17.086	46.853
17.104	46.8496
17.122	46.8503
17.14	46.856
17.158	46.8668
17.176	46.8832
17.194	46.9053
17.212	46.9331
17.23	46.9663
17.248	47.0037
17.266	47.045
17.284	47.0878
17.302	47.1306
17.32	47.1713
17.338	47.2066
17.356	47.2353
17.374	47.2538
17.392	47.2613
17.41	47.2558
17.428	47.2369
17.446	47.2044
17.464	47.1594
17.482	47.1034
17.5	47.0385
17.518	46.9684
17.536	46.8947
17.554	46.8227
17.572	46.7538
17.59	46.6924
17.608	46.6397
17.626	46.5979
17.644	46.5677
17.662	46.5492
17.68	46.5417
17.698	46.5441
17.716	46.5544
17.734	46.57
17.752	46.5893
17.77	46.6087
17.788	46.6272
17.806	46.6416
17.824	46.6515
17.842	46.6553
17.86	46.6529
17.878	46.6439
17.896	46.6292
17.914	46.6089
17.932	46.5847
17.95	46.557
17.968	46.5274
17.986	46.4964
18.004	46.4648
18.022	46.433
18.04	46.4014
18.058	46.3697
18.076	46.3381
18.094	46.3059
18.112	46.2727
18.13	46.2378
18.148	46.2009
18.166	46.1614
18.184	46.1193
18.202	46.0745
18.22	46.0277
18.238	45.9789
18.256	45.9299
18.274	45.8808
18.292	45.8338
18.31	45.7891
18.328	45.7489
18.346	45.7135
18.364	45.6844
18.382	45.662
18.4	45.6473
18.418	45.6396
18.436	45.6393
18.454	45.6451
18.472	45.6568
18.49	45.6725
18.508	45.6918
18.526	45.7123
18.544	45.7338
18.562	45.7538
18.58	45.7722
18.598	45.7872
18.616	45.7989
18.634	45.8061
18.652	45.8091
18.67	45.8079
18.688	45.8029
18.706	45.7947
18.724	45.7839
18.742	45.772
18.76	45.7595
18.778	45.7479
18.796	45.738
18.814	45.7311
18.832	45.7277
18.85	45.7288
18.868	45.7348
18.886	45.7461
18.904	45.7628
18.922	45.7849
18.94	45.8118
18.958	45.8436
18.976	45.8791
18.994	45.9179
19.012	45.959
19.03	46.0016
19.048	46.0444
19.066	46.0867
19.084	46.1272
19.102	46.165
19.12	46.1991
19.138	46.2285
19.156	46.2523
19.174	46.2695
19.192	46.2797
19.21	46.2817
19.228	46.2755
19.246	46.2603
19.264	46.2362
19.282	46.2029
19.3	46.1609
19.318	46.1106
19.336	46.0524
19.354	45.9876
19.372	45.9165
19.39	45.8416
19.408	45.7627
19.426	45.6831
19.444	45.6023
19.462	45.5239
19.48	45.4478
19.498	45.3765
19.516	45.3103
19.534	45.2507
19.552	45.1984
19.57	45.1536
19.588	45.1168
19.606	45.0875
19.624	45.0654
19.642	45.05
19.66	45.0402
19.678	45.0357
19.696	45.0342
19.714	45.0359
19.732	45.0386
19.75	45.0424
19.768	45.0458
19.786	45.0487
19.804	45.0507
19.822	45.0515
19.84	45.0513
19.858	45.0502
19.876	45.0484
19.894	45.0464
19.912	45.0443
19.93	45.0428
19.948	45.0418
19.966	45.0415
19.984	45.042
20.002	45.0426
20.02	45.0434
20.038	45.0437
20.056	45.0429
20.074	45.0408
20.092	45.036
20.11	45.0288
20.128	45.0181
20.146	45.0039
20.164	44.9858
20.182	44.9636
20.2	44.9376
20.218	44.9079
20.236	44.8748
20.254	44.8391
20.272	44.8008
20.29	44.7613
20.308	44.7205
20.326	44.6797
20.344	44.6392
20.362	44.5993
20.38	44.5609
20.398	44.5238
20.416	44.4884
20.434	44.4547
20.452	44.4223
20.47	44.3915
20.488	44.3615
20.506	44.3321
20.524	44.303
20.542	44.2735
20.56	44.2437
20.578	44.213
20.596	44.1812
20.614	44.1484
20.632	44.1142
20.65	44.0788
20.668	44.0428
20.686	44.006
20.704	43.9691
20.722	43.9324
20.74	43.8962
20.758	43.8616
20.776	43.8284
20.794	43.7978
20.812	43.7699
20.83	43.7451
20.848	43.7241
20.866	43.7065
20.884	43.6926
20.902	43.6824
20.92	43.6753
20.938	43.6713
20.956	43.67
20.974	43.6705
20.992	43.673
21.01	43.676
21.028	43.6794
21.046	43.6825
21.064	43.6841
21.082	43.6845
21.1	43.6822
21.118	43.6772
21.136	43.6692
21.154	43.6575
21.172	43.6423
21.19	43.6236
21.208	43.6011
21.226	43.5755
21.244	43.5471
21.262	43.5158
21.28	43.4833
21.298	43.4493
21.316	43.4148
21.334	43.3815
21.352	43.3487
21.37	43.3189
21.388	43.2921
21.406	43.2689
21.424	43.2511
21.442	43.2381
21.46	43.231
21.478	43.2305
21.496	43.236
21.514	43.2477
21.532	43.2657
21.55	43.2888
21.568	43.3168
21.586	43.3494
21.604	43.3839
21.622	43.4212
21.64	43.4587
21.658	43.4944
21.676	43.529
21.694	43.5587
21.712	43.5837
21.73	43.6029
21.748	43.6137
21.766	43.6167
21.784	43.611
21.802	43.5955
21.82	43.571
21.838	43.5378
21.856	43.495
21.874	43.4444
21.892	43.388
21.91	43.3245
21.928	43.258
21.946	43.1896
21.964	43.1192
21.982	43.0521
22	42.9873
22.018	42.9269
22.036	42.8747
22.054	42.8292
22.072	42.793
22.09	42.7679
22.108	42.753
22.126	42.7498
22.144	42.7588
22.162	42.7791
22.18	42.8102
22.198	42.8527
22.216	42.9044
22.234	42.9634
22.252	43.0309
22.27	43.1027
22.288	43.178
22.306	43.257
22.324	43.3351
22.342	43.4129
22.36	43.4893
22.378	43.5611
22.396	43.6291
22.414	43.6923
22.432	43.7491
22.45	43.8
22.468	43.8449
22.486	43.8833
22.504	43.9155
22.522	43.9422
22.54	43.9635
22.558	43.9796
22.576	43.9921
22.594	44.0007
22.612	44.006
22.63	44.0094
22.648	44.0106
22.666	44.0099
22.684	44.0084
22.702	44.0057
22.72	44.0018
22.738	43.9966
22.756	43.9905
22.774	43.9824
22.792	43.972
22.81	43.9597
22.828	43.944
22.846	43.9243
22.864	43.9009
22.882	43.8729
22.9	43.8397
22.918	43.8018
22.936	43.7585
22.954	43.7094
22.972	43.655
22.99	43.5958
23.008	43.5316
23.026	43.4629
23.044	43.391
23.062	43.3152
23.08	43.2366
23.098	43.1573
23.116	43.077
23.134	42.9962
23.152	42.9167
23.17	42.8379
23.188	42.7606
23.206	42.6866
23.224	42.6159
23.242	42.548
23.26	42.4829
23.278	42.4216
23.296	42.3625
23.314	42.3034
23.332	42.2457
23.35	42.1875
23.368	42.1253
23.386	42.0603
23.404	41.9914
23.422	41.9151
23.44	41.8323
23.458	41.7424
23.476	41.6427
23.494	41.5335
23.512	41.4149
23.53	41.2851
23.548	41.1433
23.566	40.9906
23.584	40.8287
23.602	40.6568
23.62	40.4754
23.638	40.2896
23.656	40.1002
23.674	39.9058
23.692	39.7135
23.71	39.5263
23.728	39.341
23.746	39.1644
23.764	39.0009
23.782	38.8467
23.8	38.7073
23.818	38.5881
23.836	38.4858
23.854	38.4032
23.872	38.3443
23.89	38.3085
23.908	38.295
23.926	38.3044
23.944	38.3382
23.962	38.3941
23.98	38.4685
23.998	38.5622
24.016	38.6749
24.034	38.8002
24.052	38.936
24.07	39.0852
24.088	39.2402
24.106	39.3955
24.124	39.5561
24.142	39.7154
24.16	39.8657
24.178	40.0111
24.196	40.1484
24.214	40.2705
24.232	40.3776
24.25	40.4707
24.268	40.545
24.286	40.598
24.304	40.6321
24.322	40.6458
24.34	40.6378
24.358	40.6084
24.376	40.5585
24.394	40.4889
24.412	40.398
24.43	40.2878
24.448	40.1622
24.466	40.0216
24.484	39.8649
24.502	39.6966
24.52	39.5194
24.538	39.3297
24.556	39.1332
24.574	38.9365
24.592	38.7362
24.61	38.5344
24.628	38.3382
24.646	38.148
24.664	37.9613
24.682	37.7866
24.7	37.6302
24.718	37.486
24.736	37.3601
24.754	37.2611
24.772	37.1859
24.79	37.1352
24.808	37.1178
24.826	37.1387
24.844	37.1923
24.862	37.2838
24.88	37.4188
24.898	37.5945
24.916	37.8117
24.934	38.0745
24.952	38.3845
24.97	38.7396
24.988	39.1405
25.006	39.5883
25.024	40.0841
25.042	40.6251
25.06	41.2079
25.078	41.8336
25.096	42.5035
25.114	43.2085
25.132	43.941
25.15	44.7085
25.168	45.5041
25.186	46.3158
25.204	47.142
25.222	47.9885
25.24	48.8418
25.258	49.6899
25.276	50.5416
25.294	51.3916
25.312	52.2269
25.33	53.043
25.348	53.8475
25.366	54.6308
25.384	55.3831
25.402	56.1075
25.42	56.8046
25.438	57.4691
25.456	58.0974
25.474	58.6919
25.492	59.2532
25.51	59.7811
25.528	60.2735
25.546	60.7318
25.564	61.161
25.582	61.5652
25.6	61.9392
25.618	62.2878
25.636	62.6189
25.654	62.9356
25.672	63.2328
25.69	63.5167
25.708	63.7943
25.726	64.0647
25.744	64.3264
25.762	64.5832
25.78	64.8382
25.798	65.0892
25.816	65.3371
25.834	65.5842
25.852	65.8325
25.87	66.0811
25.888	66.3284
25.906	66.573
25.924	66.8158
25.942	67.0569
25.96	67.2934
25.978	67.5223
25.996	67.7472
26.014	67.9659
26.032	68.173
26.05	68.3647
26.068	68.5471
26.086	68.7148
26.104	68.8599
26.122	68.9787
26.14	69.0773
26.158	69.1506
26.176	69.1923
26.194	69.2021
26.212	69.1834
26.23	69.1316
26.248	69.0423
26.266	68.9134
26.284	68.7481
26.302	68.5502
26.32	68.3229
26.338	68.0592
26.356	67.7645
26.374	67.4502
26.392	67.125
26.41	66.7741
26.428	66.4093
26.446	66.0505
26.464	65.7099
26.482	65.3653
26.5	65.036
26.518	64.7492
26.536	64.5194
26.554	64.3225
26.572	64.1774
26.59	64.1084
26.608	64.1278
26.626	64.2176
26.644	64.3874
26.662	64.6492
26.68	65.0096
26.698	65.461
26.716	66.0027
26.734	66.6345
26.752	67.3616
26.77	68.1865
26.788	69.093
26.806	70.0643
26.824	71.0994
26.842	72.2114
26.86	73.3794
26.878	74.5815
26.896	75.8138
26.914	77.0927
26.932	78.3988
26.95	79.7115
26.968	81.1012
26.986	82.6348
27.004	84.0716
27.022	85.1625
27.028	85.3717