File: Bakgrunnsmateriale/MATLAB/FTIR/ftir_data/subBb/Mapping_36/C-4040-8_e38_cm-1.asc
PE IR       SPECTRUM    SPECTRUM    ASCII       PEDS        1.60
  -1
C-1BA1~1.ASC
17/05/02
11:52:50.00
17/05/02
11:52:50.00
tln
$C-4040-8_e0038$<ebV0>[-23.3,12.1,10.0,0.0,22,1,0]
370
64

2002,4.07
MIRTGS : RIGHTBACK : INTERNAL 2
MIR : ON : INTERNAL 2
OPTKBR

0.200000
8
8.000000
FILLER
SINGLE
SPECTRUM
UNLOCKED 256

DOUBLE

COMBINED
1
0
0

1.000000
BACKG

1
0
TRUE
51149
0
LEFT NOT FITTED RIGHT NOT FITTED 0
NONE
NONE
15600
12
4.427000
51148
TRUE
1 0 8 72 0 0 0 0

15798

#HDR
-1
-1
#GR
CM-1
EGY
2.38419e-05
0.0
7800
-1.000000
7431
8
2.449655
0.008630
#DATA
7800	0.033617
7795	0.035738
7790	0.036501
7785	0.037622
7780	0.038671
7775	0.039982
7770	0.039625
7765	0.039243
7760	0.040888
7755	0.041961
7750	0.045895
7745	0.047516
7740	0.045490
7735	0.047254
7730	0.048255
7725	0.048899
7720	0.048804
7715	0.048947
7710	0.051116
7705	0.051498
7700	0.052285
7695	0.055575
7690	0.057768
7685	0.057888
7680	0.057435
7675	0.057840
7670	0.058007
7665	0.059556
7660	0.062322
7655	0.062251
7650	0.062417
7645	0.064945
7640	0.065851
7635	0.064635
7630	0.064563
7625	0.065732
7620	0.067710
7615	0.069856
7610	0.070524
7605	0.067639
7600	0.068950
7595	0.072813
7590	0.073575
7585	0.071907
7580	0.071430
7575	0.073266
7570	0.074553
7565	0.075554
7560	0.075054
7555	0.075888
7550	0.077867
7545	0.077676
7540	0.077414
7535	0.077915
7530	0.078821
7525	0.078582
7520	0.078487
7515	0.079870
7510	0.080394
7505	0.080990
7500	0.081896
7495	0.083661
7490	0.085449
7485	0.086092
7480	0.086379
7475	0.087118
7470	0.087618
7465	0.087285
7460	0.087571
7455	0.087881
7450	0.087809
7445	0.087761
7440	0.090789
7435	0.093126
7430	0.091028
7425	0.090718
7420	0.090670
7415	0.091123
7410	0.092554
7405	0.093054
7400	0.094652
7395	0.094985
7390	0.094914
7385	0.095701
7380	0.096702
7375	0.097417
7370	0.098466
7365	0.099325
7360	0.098824
7355	0.099873
7350	0.099706
7345	0.101757
7340	0.104331
7335	0.105381
7330	0.102853
7325	0.100660
7320	0.102043
7315	0.106000
7310	0.108909
7305	0.107860
7300	0.106263
7295	0.106549
7290	0.108790
7285	0.112700
7280	0.114130
7275	0.112104
7270	0.110840
7265	0.113129
7260	0.115466
7255	0.115466
7250	0.114393
7245	0.113081
7240	0.115132
7235	0.117635
7230	0.118780
7225	0.119185
7220	0.119161
7215	0.119400
7210	0.120115
7205	0.122141
7200	0.123810
7195	0.124526
7190	0.124669
7185	0.124907
7180	0.124621
7175	0.123929
7170	0.127124
7165	0.131583
7160	0.131344
7155	0.128245
7150	0.129032
7145	0.131416
7140	0.130701
7135	0.131678
7130	0.132298
7125	0.131440
7120	0.132298
7115	0.132894
7110	0.132918
7105	0.135183
7100	0.136542
7095	0.137257
7090	0.138044
7085	0.138878
7080	0.139689
7075	0.141096
7070	0.140810
7065	0.138020
7060	0.137543
7055	0.141882
7050	0.146555
7045	0.147390
7040	0.145411
7035	0.148177
7030	0.152659
7025	0.148224
7020	0.145149
7015	0.152015
7010	0.153946
7005	0.153064
7000	0.152492
6995	0.152182
6990	0.155925
6985	0.158691
6980	0.156545
6975	0.155377
6970	0.154876
6965	0.155258
6960	0.157284
6955	0.159025
6950	0.158882
6945	0.156831
6940	0.157880
6935	0.161409
6930	0.161981
6925	0.160241
6920	0.161814
6915	0.163483
6910	0.165486
6905	0.165820
6900	0.164914
6895	0.165390
6890	0.165939
6885	0.166964
6880	0.166249
6875	0.167036
6870	0.168728
6865	0.170850
6860	0.172924
6855	0.174140
6850	0.174665
6845	0.172948
6840	0.173664
6835	0.174999
6830	0.173091
6825	0.174546
6820	0.178432
6815	0.178909
6810	0.177168
6805	0.177335
6800	0.177550
6795	0.178718
6790	0.181865
6785	0.184655
6780	0.186705
6775	0.187015
6770	0.183987
6765	0.184178
6760	0.185632
6755	0.184702
6750	0.187087
6745	0.188589
6740	0.187778
6735	0.189137
6730	0.189876
6725	0.190448
6720	0.190472
6715	0.192236
6710	0.194358
6705	0.193667
6700	0.191998
6695	0.192952
6690	0.195789
6685	0.195431
6680	0.195670
6675	0.195884
6670	0.194907
6665	0.194859
6660	0.195574
6655	0.198125
6650	0.199532
6645	0.198888
6640	0.199842
6635	0.198364
6630	0.196433
6625	0.196552
6620	0.199747
6615	0.203299
6610	0.201225
6605	0.200080
6600	0.202536
6595	0.200462
6590	0.200867
6585	0.204491
6580	0.204992
6575	0.206160
6570	0.207018
6565	0.206041
6560	0.205421
6555	0.206470
6550	0.207662
6545	0.209712
6540	0.211429
6535	0.210785
6530	0.212526
6525	0.214576
6520	0.213456
6515	0.213313
6510	0.215458
6505	0.216317
6500	0.216150
6495	0.217676
6490	0.218796
6485	0.220966
6480	0.222420
6475	0.223040
6470	0.222682
6465	0.222802
6460	0.224781
6455	0.228571
6450	0.229501
6445	0.227475
6440	0.227761
6435	0.231432
6430	0.236344
6425	0.237369
6420	0.233554
6415	0.232744
6410	0.234961
6405	0.235152
6400	0.236368
6395	0.240111
6390	0.243234
6385	0.244092
6380	0.245571
6375	0.246644
6370	0.247406
6365	0.248193
6360	0.248527
6355	0.250029
6350	0.251364
6345	0.253820
6340	0.256156
6335	0.257396
6330	0.258445
6325	0.259542
6320	0.260353
6315	0.261688
6310	0.265336
6305	0.265812
6300	0.265574
6295	0.266957
6290	0.268793
6285	0.271010
6280	0.274729
6275	0.277733
6270	0.275993
6265	0.275945
6260	0.277423
6255	0.279641
6250	0.282716
6245	0.284123
6240	0.284457
6235	0.286698
6230	0.287914
6225	0.287890
6220	0.291419
6215	0.294280
6210	0.293159
6205	0.292634
6200	0.293874
6195	0.294923
6190	0.297713
6185	0.298309
6180	0.298237
6175	0.300908
6170	0.303649
6165	0.305962
6160	0.307106
6155	0.308179
6150	0.306606
6145	0.307703
6140	0.311279
6135	0.311326
6130	0.311851
6125	0.313448
6120	0.316858
6115	0.320076
6110	0.322675
6105	0.324535
6100	0.325250
6095	0.326395
6090	0.326752
6085	0.328397
6080	0.330114
6075	0.331592
6070	0.333380
6065	0.334072
6060	0.336360
6055	0.338292
6050	0.338387
6045	0.340986
6040	0.344228
6035	0.344181
6030	0.344443
6025	0.348162
6020	0.349640
6015	0.349426
6010	0.350594
6005	0.352048
6000	0.353074
5995	0.354313
5990	0.357127
5985	0.359869
5980	0.361561
5975	0.362062
5970	0.361752
5965	0.361418
5960	0.364375
5955	0.368666
5950	0.368762
5945	0.367808
5940	0.370526
5935	0.372052
5930	0.372862
5925	0.374650
5920	0.374174
5915	0.375604
5910	0.379776
5905	0.380110
5900	0.379085
5895	0.381088
5890	0.382065
5885	0.382137
5880	0.384140
5875	0.385570
5870	0.388050
5865	0.390791
5860	0.388550
5855	0.388669
5850	0.391030
5845	0.391817
5840	0.393724
5835	0.397086
5830	0.398993
5825	0.398087
5820	0.398445
5815	0.402164
5810	0.406289
5805	0.406384
5800	0.406384
5795	0.408625
5790	0.409579
5785	0.409245
5780	0.411391
5775	0.414347
5770	0.415849
5765	0.416612
5760	0.417089
5755	0.416660
5750	0.417757
5745	0.419974
5740	0.420713
5735	0.422763
5730	0.423479
5725	0.422000
5720	0.422167
5715	0.425529
5710	0.427913
5705	0.428342
5700	0.427746
5695	0.429177
5690	0.430965
5685	0.431418
5680	0.432801
5675	0.433945
5670	0.433850
5665	0.436067
5660	0.437927
5655	0.437712
5650	0.436472
5645	0.436520
5640	0.437617
5635	0.438451
5630	0.438284
5625	0.436949
5620	0.439476
5615	0.442624
5610	0.443530
5605	0.444364
5600	0.446844
5595	0.449538
5590	0.451683
5585	0.454878
5580	0.457882
5575	0.457119
5570	0.457215
5565	0.460648
5560	0.462937
5555	0.464296
5550	0.468134
5545	0.469017
5540	0.468921
5535	0.470614
5530	0.473427
5525	0.475597
5520	0.478148
5515	0.481176
5510	0.483894
5505	0.485539
5500	0.486946
5495	0.488328
5490	0.491809
5485	0.494694
5480	0.494384
5475	0.496053
5470	0.498604
5465	0.501084
5460	0.503063
5455	0.504875
5450	0.506806
5445	0.509357
5440	0.510573
5435	0.511455
5430	0.514197
5425	0.517249
5420	0.519847
5415	0.521683
5410	0.523328
5405	0.524950
5400	0.526475
5395	0.528049
5390	0.530910
5385	0.533747
5380	0.535631
5375	0.536298
5370	0.541591
5365	0.547122
5360	0.548720
5355	0.550818
5350	0.553584
5345	0.554704
5340	0.557994
5335	0.562834
5330	0.566053
5325	0.570297
5320	0.576591
5315	0.580406
5310	0.581431
5305	0.582909
5300	0.586843
5295	0.589919
5290	0.586414
5285	0.595569
5280	0.612831
5275	0.613641
5270	0.612115
5265	0.615668
5260	0.606822
5255	0.594067
5250	0.593304
5245	0.605177
5240	0.625419
5235	0.633525
5230	0.629043
5225	0.629878
5220	0.632786
5215	0.639891
5210	0.645565
5205	0.643682
5200	0.646996
5195	0.650429
5190	0.651192
5185	0.654530
5180	0.658297
5175	0.659465
5170	0.659632
5165	0.662231
5160	0.666022
5155	0.670838
5150	0.673866
5145	0.674724
5140	0.677251
5135	0.682115
5130	0.684762
5125	0.686788
5120	0.690031
5115	0.694441
5110	0.698280
5105	0.700044
5100	0.703096
5095	0.704669
5090	0.706362
5085	0.711035
5080	0.716400
5075	0.720143
5070	0.723242
5065	0.727772
5060	0.730538
5055	0.734806
5050	0.738644
5045	0.740313
5040	0.746130
5035	0.751614
5030	0.753140
5025	0.755810
5020	0.758028
5015	0.759530
5010	0.762939
5005	0.766515
5000	0.767374
4995	0.769567
4990	0.775074
4985	0.778174
4980	0.779223
4975	0.781679
4970	0.784444
4965	0.786018
4960	0.789713
4955	0.792837
4950	0.792884
4945	0.792956
4940	0.794792
4935	0.798344
4930	0.802588
4925	0.804066
4920	0.802159
4915	0.802373
4910	0.804877
4905	0.808620
4900	0.811100
4895	0.812458
4890	0.816154
4885	0.820684
4880	0.821852
4875	0.824141
4870	0.827932
4865	0.831246
4860	0.834321
4855	0.835442
4850	0.837326
4845	0.840497
4840	0.843238
4835	0.846314
4830	0.848245
4825	0.850844
4820	0.856637
4815	0.861477
4810	0.862383
4805	0.864052
4800	0.868082
4795	0.871133
4790	0.871992
4785	0.872445
4780	0.874733
4775	0.877308
4770	0.881028
4765	0.884580
4760	0.885701
4755	0.886416
4750	0.890183
4745	0.894236
4740	0.896167
4735	0.896549
4730	0.896310
4725	0.896930
4720	0.897693
4715	0.899982
4710	0.901198
4705	0.899672
4700	0.901007
4695	0.903439
4690	0.903558
4685	0.904965
4680	0.907611
4675	0.907611
4670	0.907349
4665	0.909805
4660	0.911402
4655	0.911474
4650	0.911045
4645	0.912356
4640	0.915050
4635	0.918221
4630	0.920248
4625	0.922179
4620	0.924229
4615	0.925731
4610	0.927567
4605	0.931692
4600	0.936722
4595	0.939631
4590	0.941371
4585	0.945925
4580	0.950574
4575	0.955748
4570	0.959897
4565	0.962972
4560	0.966954
4555	0.970530
4550	0.973749
4545	0.978136
4540	0.982069
4535	0.983953
4530	0.987768
4525	0.993847
4520	0.997185
4515	0.998640
4510	1.000761
4505	1.002693
4500	1.004123
4495	1.006984
4490	1.010918
4485	1.013970
4480	1.014828
4475	1.013016
4470	1.012730
4465	1.014828
4460	1.016473
4455	1.014995
4450	1.016473
4445	1.018500
4440	1.016902
4435	1.014828
4430	1.019310
4425	1.021790
4420	1.018285
4415	1.019740
4410	1.009178
4405	1.002264
4400	1.031780
4395	0.923061
4390	0.671339
4385	0.803303
4380	1.037526
4375	1.080393
4370	1.067399
4365	1.062583
4360	1.068234
4355	1.070618
4350	1.068925
4345	1.073312
4340	1.078200
4335	1.085138
4330	1.092100
4325	1.098585
4320	1.103782
4315	1.107263
4310	1.112532
4305	1.117324
4300	1.123809
4295	1.130533
4290	1.136541
4285	1.141119
4280	1.143097
4275	1.146793
4270	1.154828
4265	1.159453
4260	1.160645
4255	1.164197
4250	1.169466
4245	1.173210
4240	1.177573
4235	1.182198
4230	1.184296
4225	1.185250
4220	1.187634
4215	1.192951
4210	1.195788
4205	1.196837
4200	1.199293
4195	1.199960
4190	1.201438
4185	1.204729
4180	1.206946
4175	1.208019
4170	1.211166
4165	1.215243
4160	1.218366
4155	1.219677
4150	1.222229
4145	1.226687
4140	1.230669
4135	1.233744
4130	1.238298
4125	1.243162
4120	1.246166
4115	1.248383
4110	1.250910
4105	1.256942
4100	1.262021
4095	1.267552
4090	1.275658
4085	1.282858
4080	1.289105
4075	1.298284
4070	1.305747
4065	1.309251
4060	1.315093
4055	1.321792
4050	1.327753
4045	1.335048
4040	1.341247
4035	1.347374
4030	1.353478
4025	1.359367
4020	1.364278
4015	1.369571
4010	1.375627
4005	1.381063
4000	1.386594
3995	1.392579
3990	1.397228
3985	1.401472
3980	1.403617
3975	1.404500
3970	1.407194
3965	1.410388
3960	1.413249
3955	1.417541
3950	1.419663
3945	1.420450
3940	1.420307
3935	1.422595
3930	1.425385
3925	1.426696
3920	1.429462
3915	1.432943
3910	1.434230
3905	1.434397
3900	1.436686
3895	1.437759
3890	1.438236
3885	1.440215
3880	1.445126
3875	1.449918
3870	1.452684
3865	1.458024
3860	1.459288
3855	1.453852
3850	1.462221
3845	1.472997
3840	1.473569
3835	1.478934
3830	1.488041
3825	1.491975
3820	1.494550
3815	1.504898
3810	1.513314
3805	1.514863
3800	1.518273
3795	1.525950
3790	1.533460
3785	1.538729
3780	1.542329
3775	1.547241
3770	1.548886
3765	1.552772
3760	1.555705
3755	1.549148
3750	1.541376
3745	1.546645
3740	1.557302
3735	1.559758
3730	1.565575
3725	1.572012
3720	1.573038
3715	1.570343
3710	1.570773
3705	1.575183
3700	1.577854
3695	1.575732
3690	1.570439
3685	1.573228
3680	1.572895
3675	1.566910
3670	1.570749
3665	1.580691
3660	1.582574
3655	1.578140
3650	1.572775
3645	1.576042
3640	1.581835
3635	1.581692
3630	1.578378
3625	1.580905
3620	1.582288
3615	1.583409
3610	1.586556
3605	1.590824
3600	1.595354
3595	1.597118
3590	1.598668
3585	1.602029
3580	1.604771
3575	1.605558
3570	1.607966
3565	1.613903
3560	1.617717
3555	1.616978
3550	1.617527
3545	1.619172
3540	1.621174
3535	1.622080
3530	1.622033
3525	1.624727
3520	1.627826
3515	1.626324
3510	1.624965
3505	1.625204
3500	1.624441
3495	1.618647
3490	1.613354
3485	1.613187
3480	1.612806
3475	1.609468
3470	1.606726
3465	1.604580
3460	1.603698
3455	1.601648
3450	1.594066
3445	1.587390
3440	1.584887
3435	1.582121
3430	1.582765
3425	1.585173
3420	1.587605
3415	1.590681
3410	1.592969
3405	1.595354
3400	1.597642
3395	1.600766
3390	1.605153
3385	1.607823
3380	1.610565
3375	1.615166
3370	1.622033
3365	1.628708
3360	1.634120
3355	1.639819
3350	1.646733
3345	1.655030
3340	1.661849
3335	1.668143
3330	1.676177
3325	1.683402
3320	1.688313
3315	1.695132
3310	1.703524
3305	1.710867
3300	1.718449
3295	1.725602
3290	1.730489
3285	1.735591
3280	1.741862
3275	1.747298
3270	1.750946
3265	1.755404
3260	1.760649
3255	1.765227
3250	1.769495
3245	1.771783
3240	1.773428
3235	1.775550
3230	1.779127
3225	1.782822
3220	1.784491
3215	1.784777
3210	1.784205
3205	1.785373
3200	1.787686
3195	1.790308
3190	1.791715
3185	1.792144
3180	1.792693
3175	1.793670
3170	1.795339
3165	1.798415
3160	1.802325
3155	1.805782
3150	1.809763
3145	1.814055
3140	1.817631
3135	1.821017
3130	1.824903
3125	1.831984
3120	1.840281
3115	1.847195
3110	1.854801
3105	1.862812
3100	1.869988
3095	1.878523
3090	1.888394
3085	1.897883
3080	1.907777
3075	1.916670
3070	1.922464
3065	1.926684
3060	1.933979
3055	1.944184
3050	1.954078
3045	1.961684
3040	1.967835
3035	1.973223
3030	1.971387
3025	1.961112
3020	1.952934
3015	1.962018
3010	1.986765
3005	2.008724
3000	2.020597
2995	2.025270
2990	2.025961
2985	2.022743
2980	2.014684
2975	1.996994
2970	1.968908
2965	1.940512
2960	1.925134
2955	1.922059
2950	1.916503
2945	1.892662
2940	1.850342
2935	1.806211
2930	1.772642
2925	1.766228
2920	1.803421
2915	1.864266
2910	1.913690
2905	1.943564
2900	1.962494
2895	1.977586
2890	1.992392
2885	2.004957
2880	2.007961
2875	1.997280
2870	1.967477
2865	1.923608
2860	1.904392
2855	1.934957
2850	1.986956
2845	2.033925
2840	2.068042
2835	2.090525
2830	2.106714
2825	2.121376
2820	2.136182
2815	2.147197
2810	2.155923
2805	2.166461
2800	2.176403
2795	2.184939
2790	2.193450
2785	2.203702
2780	2.213931
2775	2.221775
2770	2.228760
2765	2.234911
2760	2.240347
2755	2.245497
2750	2.248334
2745	2.250242
2740	2.251863
2735	2.252316
2730	2.252769
2725	2.253699
2720	2.253079
2715	2.252054
2710	2.250313
2705	2.247238
2700	2.245831
2695	2.245116
2690	2.243781
2685	2.241492
2680	2.238965
2675	2.236485
2670	2.233409
2665	2.230358
2660	2.227663
2655	2.224946
2650	2.221965
2645	2.221655
2640	2.221035
2635	2.220034
2630	2.219843
2625	2.221870
2620	2.223801
2615	2.224373
2610	2.226686
2605	2.226066
2600	2.226352
2595	2.228999
2590	2.231955
2585	2.237606
2580	2.246284
2575	2.253270
2570	2.259945
2565	2.268314
2560	2.274155
2555	2.277588
2550	2.283477
2545	2.290964
2540	2.297878
2535	2.302408
2530	2.304911
2525	2.310371
2520	2.317357
2515	2.320146
2510	2.320623
2505	2.321815
2500	2.322530
2495	2.325010
2490	2.325248
2485	2.322220
2480	2.320814
2475	2.319264
2470	2.315330
2465	2.310085
2460	2.305293
2455	2.303147
2450	2.299666
2445	2.293539
2440	2.287697
2435	2.283072
2430	2.278399
2425	2.274489
2420	2.271056
2415	2.265024
2410	2.261805
2405	2.260565
2400	2.258086
2395	2.255153
2390	2.252817
2385	2.250742
2380	2.247595
2375	2.242398
2370	2.236914
2365	2.234363
2360	2.237844
2355	2.248167
2350	2.258181
2345	2.262306
2340	2.263927
2335	2.269291
2330	2.279734
2325	2.290105
2320	2.297687
2315	2.307057
2310	2.318096
2305	2.327632
2300	2.333950
2295	2.339792
2290	2.347636
2285	2.353835
2280	2.357935
2275	2.361440
2270	2.364659
2265	2.368116
2260	2.371692
2255	2.373170
2250	2.373790
2245	2.374792
2240	2.374291
2235	2.373766
2230	2.374196
2225	2.372598
2220	2.368307
2215	2.364349
2210	2.362036
2205	2.359557
2200	2.355337
2195	2.349948
2190	2.344107
2185	2.339816
2180	2.338981
2175	2.337670
2170	2.334618
2165	2.331686
2160	2.329039
2155	2.328872
2150	2.331256
2145	2.331948
2140	2.332115
2135	2.332782
2130	2.332878
2125	2.332425
2120	2.332162
2115	2.332043
2110	2.332496
2105	2.334213
2100	2.335143
2095	2.333760
2090	2.333450
2085	2.336025
2080	2.340364
2075	2.346587
2070	2.354621
2065	2.365088
2060	2.375602
2055	2.384829
2050	2.396154
2045	2.407050
2040	2.415060
2035	2.421832
2030	2.428102
2025	2.433252
2020	2.437639
2015	2.441549
2010	2.444911
2005	2.447080
2000	2.448964
1995	2.449631
1990	2.448511
1985	2.445530
1980	2.441072
1975	2.436494
1970	2.433013
1965	2.428913
1960	2.423715
1955	2.419519
1950	2.415490
1945	2.409768
1940	2.406263
1935	2.404165
1930	2.398586
1925	2.392339
1920	2.387070
1915	2.381157
1910	2.376747
1905	2.371644
1900	2.366828
1895	2.363443
1890	2.361869
1885	2.363038
1880	2.365493
1875	2.367186
1870	2.367711
1865	2.373361
1860	2.380323
1855	2.382540
1850	2.383542
1845	2.385401
1840	2.391910
1835	2.397680
1830	2.398610
1825	2.403497
1820	2.410221
1815	2.413630
1810	2.416348
1805	2.420139
1800	2.421164
1795	2.417588
1790	2.416515
1785	2.418255
1780	2.415227
1775	2.406907
1770	2.402710
1765	2.402901
1760	2.396583
1755	2.386140
1750	2.371907
1745	2.356171
1740	2.334833
1735	2.316141
1730	2.316117
1725	2.315974
1720	2.300500
1715	2.292799
1710	2.290606
1705	2.273964
1700	2.252602
1695	2.249813
1690	2.250218
1685	2.235436
1680	2.232956
1675	2.227234
1670	2.215862
1665	2.208733
1660	2.196288
1655	2.168774
1650	2.154731
1645	2.155733
1640	2.147746
1635	2.132797
1630	2.122449
1625	2.102208
1620	2.066326
1615	2.018451
1610	1.973867
1605	1.963472
1600	1.984000
1595	2.001976
1590	2.006125
1585	1.999115
1580	1.984238
1575	1.974129
1570	1.971244
1565	1.953387
1560	1.924371
1555	1.929664
1550	1.948070
1545	1.948356
1540	1.973676
1535	2.038526
1530	2.086973
1525	2.101826
1520	2.101707
1515	2.093577
1510	2.070808
1505	2.009272
1500	1.841783
1495	1.674151
1490	1.722121
1485	1.872205
1480	1.952910
1475	1.968669
1470	1.963067
1465	1.937747
1460	1.873517
1455	1.784348
1450	1.760315
1445	1.816129
1440	1.852488
1435	1.860189
1430	1.862859
1425	1.860547
1420	1.852011
1415	1.833963
1410	1.787948
1405	1.729536
1400	1.725602
1395	1.765847
1390	1.785445
1385	1.778388
1380	1.789164
1375	1.804375
1370	1.809310
1365	1.809453
1360	1.808547
1355	1.808142
1350	1.806592
1345	1.804947
1340	1.808977
1335	1.822066
1330	1.834964
1325	1.842427
1320	1.845502
1315	1.845860
1310	1.845431
1305	1.845407
1300	1.846599
1295	1.847720
1290	1.846456
1285	1.844453
1280	1.837658
1275	1.819467
1270	1.778030
1265	1.722025
1260	1.711463
1255	1.760792
1250	1.805949
1245	1.823115
1240	1.826143
1235	1.824736
1230	1.819801
1225	1.808595
1220	1.791477
1215	1.767992
1210	1.746153
1205	1.739287
1200	1.740646
1195	1.738691
1190	1.731014
1185	1.720261
1180	1.705932
1175	1.689195
1170	1.668810
1165	1.645684
1160	1.624679
1155	1.611399
1150	1.603507
1145	1.595187
1140	1.583242
1135	1.567649
1130	1.545882
1125	1.520800
1120	1.495146
1115	1.468682
1110	1.444315
1105	1.428270
1100	1.421904
1095	1.419949
1090	1.420783
1085	1.423287
1080	1.422691
1075	1.424765
1070	1.429700
1065	1.429462
1060	1.412463
1055	1.347970
1050	1.294231
1045	1.328611
1040	1.371312
1035	1.376891
1030	1.367259
1025	1.356458
1020	1.354098
1015	1.362872
1010	1.376390
1005	1.387739
1000	1.392793
995	 1.390886
990	 1.384210
985	 1.377153
980	 1.369667
975	 1.357507
970	 1.342344
965	 1.324677
960	 1.306748
955	 1.290392
950	 1.273512
945	 1.260423
940	 1.253557
935	 1.245927
930	 1.234722
925	 1.223349
920	 1.209187
915	 1.190996
910	 1.170611
905	 1.157116
900	 1.149868
895	 1.144289
890	 1.129794
885	 1.091623
880	 1.043701
875	 1.022362
870	 1.038980
865	 1.067471
860	 1.085710
855	 1.090502
850	 1.082205
845	 1.072049
840	 1.057577
835	 1.012253
830	 0.920772
825	 0.847196
820	 0.869894
815	 0.924229
810	 0.945639
805	 0.945162
800	 0.941610
795	 0.947332
790	 0.959610
785	 0.969934
780	 0.973343
775	 0.971245
770	 0.966787
765	 0.962066
760	 0.959801
755	 0.955247
750	 0.947809
745	 0.939130
740	 0.928092
735	 0.916147
730	 0.902485
725	 0.888657
720	 0.874924
715	 0.860834
710	 0.846886
705	 0.830030
700	 0.809860
695	 0.779581
690	 0.741648
685	 0.727915
680	 0.732779
675	 0.728487
670	 0.717234
665	 0.705814
660	 0.694918
655	 0.682449
650	 0.668239
645	 0.654363
640	 0.641536
635	 0.628089
630	 0.614666
625	 0.600576
620	 0.587296
615	 0.570607
610	 0.544857
605	 0.524926
600	 0.522541
595	 0.519633
590	 0.513100
585	 0.508427
580	 0.503039
575	 0.498032
570	 0.493168
565	 0.485515
560	 0.476145
555	 0.467371
550	 0.458979
545	 0.451016
540	 0.441980
535	 0.432109
530	 0.421237
525	 0.408959
520	 0.396251
515	 0.383734
510	 0.371932
505	 0.359177
500	 0.344514
495	 0.328254
490	 0.311112
485	 0.292873
480	 0.275301
475	 0.259113
470	 0.244164
465	 0.229001
460	 0.210809
455	 0.191044
450	 0.175118
445	 0.163650
440	 0.150918
435	 0.137329
430	 0.121355
425	 0.103044
420	 0.088381
415	 0.076413
410	 0.063228
405	 0.048804
400	 0.038504
395	 0.029993
390	 0.023674
385	 0.019335
380	 0.013971
375	 0.010323
370	 0.008630