File: Bakgrunnsmateriale/MATLAB/FTIR/ftir_data/subBb/Mapping_36/C-4040-8_t32_cm-1.asc
PE IR       SPECTRUM    SPECTRUM    ASCII       PEDS        1.60
  -1
C-1B64~1.ASC
17/05/02
13:35:22.00
17/05/02
13:35:22.00
tln
$C-4040-8_t0032$<tbV0>[7.5,12.0,8.0,0.0,22,1,0]
370
64

2002,4.07
MIRTGS : RIGHTBACK : INTERNAL 2
MIR : ON : INTERNAL 2
OPTKBR

0.200000
8
8.000000
FILLER
RATIO
SPECTRUM
UNLOCKED 256

DOUBLE
64
COMBINED
1
0
0

1.000000
RATIO

1
0
TRUE
51149
0
LEFT NOT FITTED RIGHT NOT FITTED 0
NONE
NONE
15600
12
4.427000
51148
TRUE
1 0 8 72 0 0 0 0

15798

#HDR
-1
-1
#GR
CM-1
%T
2.38419e-05
0.0
7800
-1.000000
7431
8
92.847
50.8463
#DATA
7800	79.0763
7795	77.4701
7790	65.1563
7785	58.0196
7780	59.1859
7775	59.8751
7770	66.4169
7765	73.3292
7760	74.2174
7755	74.9849
7750	71.0968
7745	68.7456
7740	74.4812
7735	73.8122
7730	68.1452
7725	70.5893
7720	72.1167
7715	66.4688
7710	66.3616
7705	74.2543
7700	71.2863
7695	64.2552
7690	63.8201
7685	65.5561
7680	71.2129
7675	70.0742
7670	66.2475
7665	65.2164
7660	68.2184
7655	67.7441
7650	67.4645
7645	69.3009
7640	64.8643
7635	62.7643
7630	61.0175
7625	60.2048
7620	64.5306
7615	65.1973
7610	65.5577
7605	68.0126
7600	65.2724
7595	67.2364
7590	71.0112
7585	65.6685
7580	64.4782
7575	68.8821
7570	72.4762
7565	66.7512
7560	63.0165
7555	65.3749
7550	67.9622
7545	68.484
7540	66.4095
7535	65.445
7530	67.6206
7525	67.9766
7520	65.7215
7515	63.7537
7510	63.4819
7505	65.2364
7500	64.496
7495	63.794
7490	64.1788
7485	65.6243
7480	66.1719
7475	66.2743
7470	63.2396
7465	63.8484
7460	67.9317
7455	67.4952
7450	63.7933
7445	63.2735
7440	64.5884
7435	64.6673
7430	65.133
7425	67.9403
7420	67.7082
7415	67.2162
7410	68.2073
7405	67.5805
7400	66.5524
7395	64.3413
7390	64.3888
7385	64.5367
7380	63.4213
7375	61.8614
7370	62.3096
7365	65.4468
7360	66.865
7355	66.7876
7350	66.416
7345	63.5877
7340	60.5016
7335	62.7338
7330	64.9508
7325	67.4709
7320	69.0372
7315	67.4686
7310	65.8647
7305	63.9297
7300	62.9761
7295	64.6256
7290	66.3321
7285	67.4055
7280	68.1512
7275	66.9095
7270	62.5907
7265	61.5961
7260	62.948
7255	62.2972
7250	63.4438
7245	65.6518
7240	65.7508
7235	64.834
7230	64.2048
7225	65.261
7220	65.1755
7215	63.8927
7210	65.91
7205	67.3767
7200	66.7135
7195	65.9628
7190	64.8655
7185	65.8004
7180	65.4463
7175	64.3934
7170	64.4144
7165	64.9009
7160	64.9411
7155	63.4287
7150	65.4536
7145	68.5989
7140	65.6792
7135	62.8124
7130	62.7215
7125	62.4901
7120	61.8385
7115	60.9886
7110	61.228
7105	62.0391
7100	64.2777
7095	64.3921
7090	64.4222
7085	65.7123
7080	66.9042
7075	65.5456
7070	63.892
7065	63.1736
7060	62.518
7055	64.0149
7050	65.5261
7045	64.7587
7040	64.5438
7035	64.5421
7030	63.7883
7025	63.8484
7020	62.4547
7015	62.5472
7010	63.2469
7005	63.0632
7000	64.3665
6995	65.839
6990	64.7015
6985	64.5889
6980	64.7633
6975	62.6317
6970	62.532
6965	64.7637
6960	65.2734
6955	63.887
6950	64.3934
6945	65.2656
6940	64.1561
6935	63.3968
6930	63.4224
6925	64.8335
6920	65.5364
6915	63.7562
6910	63.6692
6905	65.0242
6900	65.04
6895	63.2702
6890	62.4683
6885	63.4521
6880	64.5512
6875	64.1102
6870	64.4037
6865	64.6146
6860	63.6369
6855	63.8158
6850	64.2232
6845	64.1626
6840	64.1485
6835	64.9688
6830	65.4848
6825	64.0771
6820	64.2351
6815	65.4673
6810	66.6417
6805	66.1099
6800	65.014
6795	65.1484
6790	64.2396
6785	63.2586
6780	62.7291
6775	63.5501
6770	64.0426
6765	62.468
6760	62.1209
6755	63.7572
6750	64.3387
6745	64.1229
6740	62.6388
6735	62.3824
6730	62.5905
6725	61.2734
6720	61.7475
6715	63.7684
6710	64.7851
6705	65.0582
6700	65.4209
6695	65.5659
6690	66.0091
6685	65.6249
6680	64.5297
6675	64.7934
6670	64.631
6665	64.1914
6660	63.737
6655	64.1666
6650	64.9878
6645	63.9353
6640	63.4683
6635	64.3216
6630	64.3564
6625	65.2327
6620	66.2219
6615	65.1767
6610	64.65
6605	64.7721
6600	65.5903
6595	65.7086
6590	65.0792
6585	64.114
6580	64.0145
6575	65.1203
6570	65.2459
6565	64.5629
6560	64.543
6555	65.0034
6550	64.9919
6545	64.7276
6540	64.3179
6535	63.5918
6530	63.2275
6525	63.5987
6520	64.7911
6515	65.6296
6510	65.5265
6505	65.7125
6500	65.3296
6495	64.5531
6490	64.7902
6485	65.4872
6480	65.011
6475	63.9477
6470	63.7016
6465	64.7139
6460	64.6129
6455	64.7759
6450	65.788
6445	66.506
6440	66.6652
6435	65.4291
6430	65.0045
6425	65.3194
6420	64.45
6415	64.1032
6410	64.4702
6405	65.1663
6400	65.4056
6395	65.5716
6390	66.0341
6385	65.3432
6380	64.5617
6375	64.276
6370	64.6231
6365	65.0789
6360	64.8939
6355	64.9907
6350	66.0394
6345	65.0149
6340	63.8028
6335	64.573
6330	65.1518
6325	65.6011
6320	65.8026
6315	65.2616
6310	65.1042
6305	65.0064
6300	65.316
6295	65.8999
6290	65.5509
6285	65.0406
6280	64.3487
6275	64.249
6270	63.8561
6265	64.2589
6260	65.1306
6255	65.3022
6250	64.6729
6245	64.407
6240	64.5404
6235	64.2856
6230	64.303
6225	65.0261
6220	65.0878
6215	64.7627
6210	64.3147
6205	64.2632
6200	64.5791
6195	64.6549
6190	64.6495
6185	64.5818
6180	64.1669
6175	64.4921
6170	64.7675
6165	64.8605
6160	64.9719
6155	64.7941
6150	65.2099
6145	65.4357
6140	65.3501
6135	65.6232
6130	65.4224
6125	64.8906
6120	64.8441
6115	65.2914
6110	65.4185
6105	65.2105
6100	65.4144
6095	65.1037
6090	64.4215
6085	64.3876
6080	64.2936
6075	64.1224
6070	64.1219
6065	64.5641
6060	65.1435
6055	65.4213
6050	65.6725
6045	65.2861
6040	65.1792
6035	65.2026
6030	64.711
6025	64.4819
6020	65.4603
6015	65.9996
6010	65.712
6005	65.7687
6000	65.2927
5995	64.8252
5990	64.7031
5985	65.1332
5980	65.6596
5975	65.4139
5970	65.7026
5965	65.8946
5960	64.9056
5955	64.0065
5950	63.7913
5945	64.1725
5940	64.7814
5935	64.8304
5930	64.9118
5925	65.4687
5920	65.7491
5915	64.7878
5910	64.2783
5905	64.7103
5900	65.2486
5895	65.4534
5890	65.2617
5885	64.7942
5880	64.6384
5875	64.5139
5870	64.9731
5865	65.3678
5860	65.0879
5855	64.7677
5850	64.6516
5845	65.0385
5840	65.28
5835	65.2381
5830	65.2962
5825	65.4194
5820	64.9672
5815	64.6767
5810	64.9798
5805	64.917
5800	64.2203
5795	64.2268
5790	64.308
5785	63.9953
5780	63.9895
5775	64.2403
5770	64.6166
5765	64.6904
5760	65.0823
5755	65.0593
5750	64.7901
5745	64.7693
5740	64.207
5735	63.97
5730	64.3489
5725	64.749
5720	65.1648
5715	64.9875
5710	64.5857
5705	64.4751
5700	64.9708
5695	65.4659
5690	65.2899
5685	65.1053
5680	65.0047
5675	64.9803
5670	64.823
5665	64.5199
5660	64.5093
5655	64.7381
5650	64.9489
5645	64.6522
5640	64.7684
5635	65.1712
5630	65.0936
5625	64.7462
5620	64.7263
5615	65.0389
5610	64.8525
5605	64.8894
5600	64.8537
5595	64.4717
5590	64.8409
5585	65.2128
5580	65.1922
5575	65.4919
5570	65.1924
5565	64.7253
5560	64.479
5555	64.6578
5550	65.0249
5545	65.2093
5540	65.349
5535	64.9494
5530	64.3801
5525	64.7735
5520	65.3808
5515	65.2307
5510	64.8529
5505	64.8305
5500	64.9358
5495	64.8321
5490	64.5947
5485	65.1943
5480	65.6518
5475	65.3625
5470	64.8005
5465	64.0383
5460	64.0951
5455	64.9565
5450	65.1739
5445	64.4508
5440	64.0624
5435	64.2901
5430	64.8062
5425	64.9452
5420	64.6324
5415	64.7036
5410	64.9098
5405	65.0331
5400	65.0104
5395	65.1778
5390	64.7138
5385	63.8896
5380	64.2619
5375	65.1344
5370	64.6274
5365	63.4481
5360	63.6322
5355	65.2611
5350	65.53
5345	64.4158
5340	64.9617
5335	64.5812
5330	63.185
5325	63.5193
5320	64.4776
5315	65.5039
5310	64.2633
5305	62.6455
5300	63.2591
5295	62.6303
5290	65.6039
5285	68.6072
5280	67.3422
5275	65.4048
5270	64.1493
5265	64.8532
5260	65.3349
5255	65.6332
5250	65.0481
5245	64.8691
5240	65.1858
5235	64.73
5230	64.3413
5225	64.6776
5220	64.9111
5215	64.9949
5210	65.2559
5205	65.0765
5200	64.5137
5195	64.1942
5190	64.4217
5185	64.5266
5180	64.4349
5175	64.5212
5170	64.5445
5165	64.7287
5160	64.9748
5155	65.1207
5150	64.6652
5145	64.4923
5140	64.6607
5135	64.8375
5130	64.8995
5125	64.9959
5120	65.1401
5115	65.0347
5110	65.0456
5105	64.89
5100	64.914
5095	65.2832
5090	65.1268
5085	64.8485
5080	64.9303
5075	65.2451
5070	65.0753
5065	64.9233
5060	65.0497
5055	64.9808
5050	64.9758
5045	64.9159
5040	64.7164
5035	64.3111
5030	64.2206
5025	64.471
5020	64.7335
5015	64.9583
5010	64.7805
5005	64.5279
5000	64.7871
4995	64.7629
4990	64.9437
4985	65.2987
4980	65.0674
4975	64.795
4970	64.7606
4965	64.8564
4960	64.9842
4955	64.9276
4950	64.682
4945	64.5152
4940	64.8087
4935	64.9238
4930	64.9958
4925	65.106
4920	65.0381
4915	64.739
4910	64.4799
4905	64.6913
4900	64.7508
4895	64.4936
4890	64.6438
4885	64.7459
4880	64.522
4875	64.624
4870	64.8599
4865	64.6505
4860	64.6282
4855	64.9011
4850	64.9505
4845	64.8327
4840	64.8703
4835	64.9734
4830	64.9575
4825	65.0023
4820	64.9336
4815	64.7034
4810	64.7655
4805	64.8963
4800	65.1448
4795	65.3973
4790	65.4905
4785	65.3062
4780	65.2434
4775	65.2625
4770	65.2025
4765	65.0399
4760	65.0171
4755	65.1989
4750	65.3272
4745	65.3997
4740	65.298
4735	64.9606
4730	64.7887
4725	64.8143
4720	65.1078
4715	65.2171
4710	65.0079
4705	64.8427
4700	64.9096
4695	65.0213
4690	65.0997
4685	65.0965
4680	65.1377
4675	65.1486
4670	65.3325
4665	65.5465
4660	65.2825
4655	64.8996
4650	64.9556
4645	65.3139
4640	65.2122
4635	65.225
4630	64.9571
4625	64.7516
4620	65.0641
4615	65.369
4610	65.1092
4605	64.7863
4600	64.8935
4595	65.0372
4590	64.975
4585	64.9683
4580	64.9641
4575	64.6675
4570	64.53
4565	64.6287
4560	64.7149
4555	64.3388
4550	63.9801
4545	64.3106
4540	64.9259
4535	64.8458
4530	64.4628
4525	64.4928
4520	64.5527
4515	64.6348
4510	64.4433
4505	64.1414
4500	64.2322
4495	64.3205
4490	64.388
4485	64.4928
4480	64.4716
4475	64.2528
4470	64.0481
4465	64.077
4460	64.0065
4455	63.8423
4450	64.0857
4445	64.3541
4440	64.1656
4435	63.9024
4430	63.616
4425	63.641
4420	63.3122
4415	62.7805
4410	63.2807
4405	64.378
4400	64.1158
4395	62.5916
4390	80.0528
4385	92.1143
4380	73.7218
4375	63.2055
4370	64.1411
4365	63.8881
4360	64.0063
4355	65.0443
4350	64.3777
4345	64.0844
4340	64.512
4335	64.6168
4330	64.1884
4325	64.0509
4320	64.21
4315	64.0984
4310	64.0832
4305	64.4563
4300	64.4847
4295	63.8862
4290	63.8115
4285	64.3199
4280	64.4666
4275	64.3777
4270	64.4148
4265	64.4241
4260	64.4953
4255	64.5582
4250	64.4709
4245	64.308
4240	64.4524
4235	64.7531
4230	64.7881
4225	64.5909
4220	64.3807
4215	64.5339
4210	64.9188
4205	65.0309
4200	64.9354
4195	64.9033
4190	65.0257
4185	64.7966
4180	64.7055
4175	64.8725
4170	64.905
4165	64.9414
4160	65.1176
4155	65.1782
4150	65.1513
4145	65.0679
4140	65.1575
4135	64.9216
4130	64.9609
4125	65.142
4120	65.1834
4115	65.322
4110	65.3888
4105	65.2986
4100	65.3259
4095	65.4137
4090	65.2688
4085	65.0361
4080	64.9092
4075	64.9624
4070	65.0851
4065	65.1173
4060	65.2383
4055	65.4673
4050	65.5043
4045	65.312
4040	65.1441
4035	64.9237
4030	64.8933
4025	65.0307
4020	65.0956
4015	65.274
4010	65.2523
4005	65.1765
4000	65.1824
3995	65.2862
3990	65.4959
3985	65.3396
3980	65.0139
3975	65.0389
3970	65.2183
3965	65.2178
3960	65.1454
3955	65.1164
3950	65.2014
3945	65.3278
3940	65.2632
3935	65.0505
3930	64.9416
3925	65.0019
3920	64.9618
3915	64.9095
3910	64.8673
3905	64.9378
3900	64.9897
3895	65.0229
3890	65.181
3885	65.1296
3880	64.9935
3875	65.0087
3870	65.0873
3865	65.1474
3860	65.1372
3855	65.0263
3850	64.9277
3845	64.8759
3840	64.9498
3835	64.9885
3830	64.9221
3825	64.989
3820	65.0704
3815	65.0902
3810	65.1695
3805	65.2112
3800	65.1629
3795	65.2196
3790	65.1844
3785	65.0871
3780	65.0301
3775	65.0136
3770	65.0253
3765	65.0893
3760	65.2592
3755	65.3432
3750	65.1705
3745	65.1854
3740	65.2985
3735	65.3521
3730	65.327
3725	65.1904
3720	65.1488
3715	65.0972
3710	65.1236
3705	65.1707
3700	65.2506
3695	65.3324
3690	65.2029
3685	65.2596
3680	65.3532
3675	65.3575
3670	65.2254
3665	65.1549
3660	65.2794
3655	65.364
3650	65.3666
3645	65.2405
3640	65.219
3635	65.2937
3630	65.208
3625	65.1546
3620	65.2307
3615	65.2287
3610	65.1138
3605	65.0611
3600	65.0225
3595	65.0043
3590	64.9524
3585	65.0719
3580	65.2372
3575	65.2168
3570	65.1744
3565	65.0374
3560	65.0364
3555	65.2233
3550	65.1686
3545	65.07
3540	65.0221
3535	65.0414
3530	65.1329
3525	65.1917
3520	65.2596
3515	65.4297
3510	65.2898
3505	64.9625
3500	64.9727
3495	65.0592
3490	65.2134
3485	65.2487
3480	64.8412
3475	64.8721
3470	65.0872
3465	65.2075
3460	65.3814
3455	65.164
3450	64.9859
3445	65.1817
3440	65.3849
3435	65.3207
3430	65.1422
3425	65.0864
3420	65.0664
3415	65.0317
3410	64.9748
3405	65.0098
3400	65.1668
3395	65.1669
3390	65.0081
3385	64.9467
3380	65.0355
3375	65.1583
3370	65.1229
3365	65.0217
3360	64.9971
3355	65.0564
3350	65.1269
3345	65.1562
3340	65.1755
3335	65.249
3330	65.1761
3325	65.0373
3320	65.0222
3315	65.0799
3310	65.1512
3305	65.0828
3300	65.1321
3295	65.288
3290	65.2277
3285	65.175
3280	65.2274
3275	65.1732
3270	65.0124
3265	64.965
3260	64.9429
3255	65.015
3250	65.1499
3245	65.1649
3240	65.1234
3235	65.1008
3230	65.1301
3225	65.0924
3220	65.1081
3215	65.1674
3210	65.1564
3205	65.1159
3200	65.1457
3195	65.1476
3190	65.0899
3185	65.1013
3180	65.0885
3175	65.1646
3170	65.1955
3165	65.1484
3160	65.0954
3155	65.1583
3150	65.2863
3145	65.2789
3140	65.191
3135	65.0342
3130	64.9896
3125	65.016
3120	65.1788
3115	65.2673
3110	65.2227
3105	65.189
3100	65.1521
3095	65.2079
3090	65.2057
3085	65.1318
3080	65.0764
3075	65.0785
3070	65.026
3065	65.1513
3060	65.2511
3055	65.1041
3050	65.0439
3045	65.1114
3040	65.1703
3035	65.176
3030	65.1688
3025	65.2128
3020	65.291
3015	65.2443
3010	65.1187
3005	65.0617
3000	65.1256
2995	65.1234
2990	65.0339
2985	65.0092
2980	65.0614
2975	65.1151
2970	65.1093
2965	65.0445
2960	65.0154
2955	64.9907
2950	64.9642
2945	64.9479
2940	65.0381
2935	65.0169
2930	64.8368
2925	64.7021
2920	64.6528
2915	64.761
2910	64.885
2905	64.9771
2900	65.0044
2895	64.9263
2890	64.9033
2885	64.9482
2880	65.0053
2875	64.9861
2870	65.0322
2865	65.0709
2860	65.021
2855	64.9906
2850	64.9162
2845	65.0784
2840	65.2473
2835	65.2179
2830	65.1709
2825	65.2122
2820	65.24
2815	65.2117
2810	65.2625
2805	65.2975
2800	65.2356
2795	65.2065
2790	65.1602
2785	65.1955
2780	65.2646
2775	65.2841
2770	65.2234
2765	65.2086
2760	65.2697
2755	65.1832
2750	65.1041
2745	65.1492
2740	65.1767
2735	65.2128
2730	65.2413
2725	65.2568
2720	65.2327
2715	65.2036
2710	65.1955
2705	65.152
2700	65.1882
2695	65.1969
2690	65.1652
2685	65.1558
2680	65.1344
2675	65.1869
2670	65.2677
2665	65.2854
2660	65.2652
2655	65.1782
2650	65.0449
2645	64.9756
2640	65.0941
2635	65.3024
2630	65.4084
2625	65.3362
2620	65.2089
2615	65.1345
2610	65.1896
2605	65.2383
2600	65.2124
2595	65.1799
2590	65.205
2585	65.2572
2580	65.2719
2575	65.1797
2570	65.165
2565	65.2639
2560	65.3894
2555	65.4192
2550	65.3374
2545	65.2669
2540	65.294
2535	65.3023
2530	65.2646
2525	65.2658
2520	65.3394
2515	65.3069
2510	65.2225
2505	65.2168
2500	65.2029
2495	65.1849
2490	65.2227
2485	65.2117
2480	65.1774
2475	65.2633
2470	65.3608
2465	65.3579
2460	65.3277
2455	65.2907
2450	65.2325
2445	65.2199
2440	65.1879
2435	65.1612
2430	65.1719
2425	65.2323
2420	65.2461
2415	65.252
2410	65.276
2405	65.2642
2400	65.2135
2395	65.1445
2390	65.1272
2385	65.2246
2380	65.3851
2375	65.3981
2370	65.2838
2365	65.191
2360	65.194
2355	65.185
2350	65.1658
2345	65.2683
2340	65.3019
2335	65.2346
2330	65.1729
2325	65.1035
2320	65.1695
2315	65.2688
2310	65.3452
2305	65.4131
2300	65.4218
2295	65.3782
2290	65.3888
2285	65.3878
2280	65.3081
2275	65.2675
2270	65.3077
2265	65.3689
2260	65.3135
2255	65.2375
2250	65.3103
2245	65.3069
2240	65.2695
2235	65.2438
2230	65.2386
2225	65.2142
2220	65.2196
2215	65.2722
2210	65.3062
2205	65.3134
2200	65.2994
2195	65.3227
2190	65.3066
2185	65.2912
2180	65.3419
2175	65.3329
2170	65.2345
2165	65.1895
2160	65.2296
2155	65.2176
2150	65.213
2145	65.2008
2140	65.2128
2135	65.2277
2130	65.2542
2125	65.2765
2120	65.2415
2115	65.2758
2110	65.2846
2105	65.2718
2100	65.3027
2095	65.2948
2090	65.3006
2085	65.3037
2080	65.2277
2075	65.1586
2070	65.2022
2065	65.2512
2060	65.2162
2055	65.1894
2050	65.2079
2045	65.1718
2040	65.1802
2035	65.2159
2030	65.2358
2025	65.2448
2020	65.1895
2015	65.187
2010	65.268
2005	65.2815
2000	65.2843
1995	65.2935
1990	65.2424
1985	65.3227
1980	65.3886
1975	65.2862
1970	65.2139
1965	65.2345
1960	65.3125
1955	65.4101
1950	65.4082
1945	65.3265
1940	65.2762
1935	65.2464
1930	65.2802
1925	65.2442
1920	65.2267
1915	65.2748
1910	65.3182
1905	65.3048
1900	65.2804
1895	65.3342
1890	65.2937
1885	65.2153
1880	65.2177
1875	65.2982
1870	65.3472
1865	65.2999
1860	65.2761
1855	65.3169
1850	65.314
1845	65.2858
1840	65.2924
1835	65.3213
1830	65.3111
1825	65.3204
1820	65.2906
1815	65.2613
1810	65.2574
1805	65.2688
1800	65.3353
1795	65.3917
1790	65.3588
1785	65.3302
1780	65.2855
1775	65.2872
1770	65.3028
1765	65.2688
1760	65.2603
1755	65.2448
1750	65.1756
1745	65.0724
1740	65.0469
1735	65.0318
1730	65.0159
1725	65.0583
1720	65.065
1715	65.1344
1710	65.2115
1705	65.1631
1700	65.1886
1695	65.1467
1690	65.0653
1685	65.0175
1680	65.1114
1675	65.2614
1670	65.258
1665	65.219
1660	65.252
1655	65.2258
1650	65.2115
1645	65.2061
1640	65.1641
1635	65.1804
1630	65.2447
1625	65.2986
1620	65.1963
1615	65.0946
1610	65.1166
1605	65.1191
1600	65.0703
1595	65.0999
1590	65.1641
1585	65.0617
1580	65.0462
1575	65.129
1570	65.081
1565	64.9929
1560	64.9789
1555	65.1575
1550	65.1529
1545	65.0423
1540	64.9693
1535	65.0151
1530	65.0949
1525	65.1606
1520	65.1455
1515	65.1392
1510	65.2081
1505	65.2095
1500	65.1244
1495	65.1086
1490	65.1189
1485	65.1374
1480	65.0992
1475	65.0316
1470	65.0192
1465	65.0223
1460	65.1164
1455	65.2125
1450	65.1682
1445	65.1024
1440	65.1175
1435	65.1464
1430	65.145
1425	65.1461
1420	65.1077
1415	65.0983
1410	65.0822
1405	65.1101
1400	65.0986
1395	65.05
1390	65.0604
1385	65.0535
1380	65.0582
1375	65.0448
1370	65.0289
1365	65.0741
1360	65.0567
1355	64.9988
1350	64.9795
1345	65.049
1340	65.0843
1335	65.1108
1330	65.0662
1325	64.9989
1320	65.0319
1315	65.1096
1310	65.0549
1305	65.0249
1300	65.1042
1295	65.1014
1290	65.0247
1285	64.9331
1280	64.9174
1275	64.9301
1270	64.8993
1265	64.9128
1260	64.9675
1255	64.9637
1250	64.8971
1245	64.8656
1240	64.9531
1235	64.9938
1230	64.9566
1225	65.019
1220	64.9549
1215	64.7895
1210	64.7458
1205	64.8482
1200	64.9268
1195	64.9142
1190	64.8493
1185	64.9327
1180	65.0259
1175	64.9256
1170	64.8069
1165	64.82
1160	64.8687
1155	64.9501
1150	64.9801
1145	64.896
1140	64.817
1135	64.8899
1130	64.9031
1125	64.9133
1120	64.9807
1115	64.9116
1110	64.8123
1105	64.8653
1100	65.0201
1095	65.0864
1090	65.02
1085	64.8351
1080	64.7736
1075	64.8191
1070	64.7844
1065	64.8648
1060	64.8387
1055	64.9157
1050	65.0899
1045	64.959
1040	64.8865
1035	64.9241
1030	64.7976
1025	64.7664
1020	64.8208
1015	64.8486
1010	64.8563
1005	64.8556
1000	64.819
995	 64.6728
990	 64.5764
985	 64.588
980	 64.7381
975	 64.9925
970	 64.8319
965	 64.7014
960	 64.8399
955	 64.8684
950	 64.9036
945	 64.7737
940	 64.7588
935	 65.0254
930	 65.0053
925	 64.8666
920	 65.0941
915	 64.9967
910	 64.7254
905	 64.2014
900	 63.8297
895	 64.123
890	 64.5828
885	 64.7467
880	 64.7509
875	 64.7492
870	 64.7144
865	 64.6823
860	 64.5228
855	 64.6281
850	 64.8103
845	 64.6657
840	 64.6435
835	 64.7055
830	 64.849
825	 64.7837
820	 64.5005
815	 64.3752
810	 64.3941
805	 64.5627
800	 64.4242
795	 64.3373
790	 64.4065
785	 64.3502
780	 64.3055
775	 64.2865
770	 64.1562
765	 64.216
760	 64.1761
755	 63.8789
750	 63.7441
745	 63.653
740	 63.6927
735	 63.872
730	 63.8311
725	 63.6701
720	 63.6558
715	 63.7577
710	 63.9404
705	 63.9014
700	 63.4855
695	 63.4426
690	 63.7247
685	 63.7614
680	 63.7126
675	 63.7024
670	 63.5895
665	 63.7206
660	 63.8129
655	 63.6027
650	 63.2257
645	 63.0983
640	 63.2305
635	 63.4314
630	 63.295
625	 63.3093
620	 63.3595
615	 63.1699
610	 63.3139
605	 63.3253
600	 63.1344
595	 63.0441
590	 63.0878
585	 63.0193
580	 62.9492
575	 62.965
570	 62.6038
565	 62.5295
560	 62.46
555	 62.3009
550	 62.5101
545	 62.7856
540	 62.7545
535	 62.2735
530	 61.8764
525	 61.9247
520	 62.1824
515	 62.0856
510	 61.6695
505	 61.4928
500	 61.6004
495	 61.8272
490	 61.486
485	 61.4458
480	 61.3292
475	 60.8267
470	 61.0964
465	 61.559
460	 62.0989
455	 61.188
450	 59.9554
445	 59.6439
440	 59.6947
435	 59.2673
430	 58.703
425	 59.6004
420	 60.786
415	 60.1772
410	 59.4163
405	 58.111
400	 52.7081
395	 51.5157
390	 53.5093
385	 53.5558
380	 68.0387
375	 84.4292
370	 91.3933