File: Bakgrunnsmateriale/MATLAB/FTIR/ftir_data/subBb/Mapping_36/C-4040-8_t13.asc
PE IR       SPECTRUM    SPECTRUM    ASCII       PEDS        1.60
  -1
C-A926~1.ASC
17/05/02
11:58:35.00
17/05/02
11:59:01.00
tln
$C-4040-8_t0013$<tbV0>[12.5,-3.0,8.0,0.0,22,1,0]
27.028
64

2002,4.07
MIRTGS : RIGHTBACK : INTERNAL 2
MIR : ON : INTERNAL 2
OPTKBR

0.200000
8
8.000000
FILLER
RATIO
SPECTRUM
UNLOCKED 256

DOUBLE
64
COMBINED
1
0
0

0.002000
RATIO

1
0
TRUE
51149
0
LEFT NOT FITTED RIGHT NOT FITTED 0
NONE
NONE
15600
12
4.427000
51148
TRUE
1 0 8 72 0 0 0 0

15798

#HDR
-1
-1
#GR
µM
%T
2.38419e-05
0.0
1.282000
0.002000
12874
8
91.2148
37.6785
#DATA
1.282000	 76.2345
1.300000	 69.7334
1.318000	 62.734
1.336000	 65.2155
1.354000	 64.9901
1.372000	 65.8415
1.390000	 63.998
1.408000	 63.4653
1.426000	 63.172
1.444000	 63.7902
1.462000	 64.1171
1.480000	 64.4974
1.498000	 65.7984
1.516000	 65.0407
1.534000	 64.6186
1.552000	 65.7627
1.570000	 65.7068
1.588000	 65.0284
1.606000	 65.9073
1.624000	 63.3972
1.642000	 65.4764
1.660000	 65.3742
1.678000	 64.7365
1.696000	 65.2176
1.714000	 64.5892
1.732000	 64.0661
1.750000	 64.5243
1.768000	 64.7952
1.786000	 65.8463
1.804000	 64.6428
1.822000	 64.6379
1.840000	 64.6925
1.858000	 64.3458
1.876000	 62.8127
1.894000	 64.9966
1.912000	 65.2244
1.930000	 64.8168
1.948000	 64.7669
1.966000	 64.9441
1.984000	 64.85
2.002000	 64.9193
2.020000	 64.6174
2.038000	 64.8597
2.056000	 64.4185
2.074000	 64.715
2.092000	 65.0079
2.110000	 64.7579
2.128000	 65.1255
2.146000	 65.3052
2.164000	 65.2033
2.182000	 64.9608
2.200000	 64.6223
2.218000	 64.2619
2.236000	 63.9723
2.254000	 63.8977
2.272000	 62.5991
2.290000	 64.2432
2.308000	 64.587
2.326000	 64.7942
2.344000	 64.4842
2.362000	 64.6123
2.380000	 64.4837
2.398000	 65.0201
2.416000	 64.7922
2.434000	 65.3808
2.452000	 65.1872
2.470000	 65.4623
2.488000	 65.305
2.506000	 64.9329
2.524000	 65.2692
2.542000	 65.1212
2.560000	 64.9545
2.578000	 65.1386
2.596000	 65.0521
2.614000	 65.1685
2.632000	 65.1533
2.650000	 65.0786
2.668000	 65.1841
2.686000	 65.146
2.704000	 65.1532
2.722000	 65.299
2.740000	 65.1914
2.758000	 65.3334
2.776000	 65.2588
2.794000	 65.3927
2.812000	 65.2743
2.830000	 65.0656
2.848000	 65.2434
2.866000	 65.0475
2.884000	 65.1444
2.902000	 65.4179
2.920000	 65.1006
2.938000	 64.9141
2.956000	 65.1059
2.974000	 65.0448
2.992000	 65.114
3.010000	 65.0083
3.028000	 65.1935
3.046000	 65.0414
3.064000	 65.2714
3.082000	 65.1786
3.100000	 65.0284
3.118000	 65.1559
3.136000	 65.0769
3.154000	 65.0992
3.172000	 65.0831
3.190000	 65.1886
3.208000	 65.1942
3.226000	 65.3281
3.244000	 65.3902
3.262000	 65.342
3.280000	 65.1814
3.298000	 65.129
3.316000	 65.2314
3.334000	 65.1907
3.352000	 65.1371
3.370000	 65.102
3.388000	 64.8867
3.406000	 64.9946
3.424000	 64.881
3.442000	 64.9673
3.460000	 65.0887
3.478000	 65.1122
3.496000	 65.153
3.514000	 64.8799
3.532000	 65.2185
3.550000	 65.2159
3.568000	 65.2532
3.586000	 65.1999
3.604000	 65.2288
3.622000	 65.194
3.640000	 65.2698
3.658000	 65.3335
3.676000	 65.2733
3.694000	 65.4161
3.712000	 65.2698
3.730000	 65.1726
3.748000	 65.2633
3.766000	 65.1874
3.784000	 65.216
3.802000	 65.2694
3.820000	 65.2971
3.838000	 65.249
3.856000	 65.2402
3.874000	 65.2629
3.892000	 65.2958
3.910000	 65.2671
3.928000	 65.3458
3.946000	 65.2939
3.964000	 65.2159
3.982000	 65.2606
4.000000	 65.22
4.018000	 65.2275
4.036000	 65.2905
4.054000	 65.3147
4.072000	 65.3487
4.090000	 65.2367
4.108000	 65.3172
4.125999	 65.29
4.144000	 65.3517
4.162000	 65.2445
4.180000	 65.2047
4.198000	 65.3049
4.216000	 65.2282
4.234000	 65.2098
4.252000	 65.312
4.270000	 65.2802
4.288000	 65.3981
4.306000	 65.4447
4.324000	 65.3965
4.342000	 65.277
4.359999	 65.3223
4.378000	 65.2265
4.396000	 65.3074
4.414000	 65.2886
4.432000	 65.2486
4.450000	 65.4115
4.468000	 65.3847
4.486000	 65.3017
4.504000	 65.3883
4.522000	 65.3815
4.540000	 65.3569
4.558000	 65.4126
4.576000	 65.368
4.594000	 65.3001
4.612000	 65.2974
4.630000	 65.3319
4.648000	 65.3312
4.666000	 65.301
4.684000	 65.2521
4.702000	 65.3076
4.720000	 65.3351
4.738000	 65.2977
4.756000	 65.2219
4.774000	 65.2456
4.792000	 65.3104
4.810000	 65.2989
4.828000	 65.461
4.846000	 65.3934
4.864000	 65.2862
4.882000	 65.3093
4.900000	 65.3186
4.918000	 65.2905
4.936000	 65.276
4.954000	 65.3172
4.972000	 65.3305
4.990000	 65.2432
5.008000	 65.1914
5.026000	 65.153
5.044000	 65.2889
5.062000	 65.3498
5.080000	 65.307
5.098000	 65.2865
5.116000	 65.318
5.134000	 65.3732
5.152000	 65.3936
5.170000	 65.3428
5.188000	 65.2363
5.206000	 65.1944
5.224000	 65.2817
5.242000	 65.3268
5.260000	 65.2477
5.278000	 65.2601
5.296000	 65.3072
5.314000	 65.3512
5.332000	 65.3356
5.350000	 65.2848
5.368000	 65.23
5.386000	 65.3149
5.404000	 65.3374
5.422000	 65.3352
5.440000	 65.3109
5.458000	 65.2521
5.476000	 65.2179
5.494000	 65.2427
5.512000	 65.3185
5.530000	 65.3325
5.548000	 65.237
5.566000	 65.2314
5.584000	 65.2882
5.602000	 65.2678
5.620000	 65.2988
5.638000	 65.2958
5.656000	 65.2839
5.674000	 65.2532
5.692000	 65.1916
5.710000	 65.0642
5.728000	 65.0737
5.746000	 65.0536
5.764000	 64.984
5.782000	 65.075
5.800000	 65.1687
5.818000	 65.1675
5.836000	 65.2059
5.854000	 65.259
5.872000	 65.2071
5.890000	 65.2426
5.908000	 65.2169
5.926000	 65.2009
5.944000	 65.1963
5.962000	 65.1106
5.980000	 65.157
5.998000	 65.2186
6.016000	 65.1268
6.034000	 65.1215
6.052000	 65.1664
6.070000	 65.1928
6.088000	 65.1891
6.106000	 65.1217
6.124000	 65.1573
6.142000	 65.1929
6.160000	 65.2649
6.178000	 65.3653
6.196000	 65.2741
6.214000	 65.1795
6.232000	 65.2308
6.250000	 65.2134
6.268000	 65.0999
6.286000	 65.0946
6.304000	 65.1547
6.322000	 65.1768
6.340000	 65.1107
6.358000	 65.0122
6.376000	 65.0238
6.394000	 65.1013
6.412000	 65.0942
6.430000	 65.0041
6.448000	 64.9873
6.466000	 65.0287
6.484000	 65.0056
6.502000	 64.9864
6.520000	 65.0226
6.538000	 65.0401
6.556000	 65.0793
6.574000	 65.1139
6.592000	 65.1078
6.610000	 65.1899
6.628000	 65.2577
6.646000	 65.2049
6.664000	 65.153
6.682000	 65.1622
6.700000	 65.2235
6.718000	 65.1742
6.736000	 65.0313
6.754000	 64.9801
6.772000	 65.0089
6.790000	 65.0744
6.808000	 65.1276
6.826000	 65.1223
6.844000	 65.0717
6.862000	 64.9694
6.880000	 64.9153
6.898000	 65
6.916000	 65.091
6.934000	 65.0803
6.952000	 65.0448
6.970000	 65.0701
6.988000	 65.1091
7.006000	 65.0682
7.024000	 64.9598
7.042000	 64.9107
7.060000	 64.9742
7.078000	 65.0395
7.096000	 65.0392
7.114000	 65.0351
7.132000	 65.0769
7.150000	 65.116
7.168000	 65.0839
7.186000	 65.0085
7.204000	 64.9734
7.222000	 64.9832
7.240000	 64.9593
7.258000	 64.8778
7.276000	 64.822
7.294000	 64.8536
7.312000	 64.9384
7.330000	 65.0067
7.348000	 65.0092
7.366000	 64.9745
7.384000	 64.9814
7.402000	 65.02
7.420000	 65.0276
7.438000	 65.0113
7.456000	 65.0019
7.474000	 65.0137
7.492000	 65.049
7.510000	 65.063
7.528000	 65.0266
7.546000	 64.9806
7.564000	 64.9637
7.582000	 65.0004
7.600000	 65.0937
7.618000	 65.1557
7.636000	 65.1083
7.654000	 65.0124
7.672000	 64.949
7.690000	 64.8992
7.708000	 64.8468
7.726000	 64.8454
7.744000	 64.9155
7.762000	 64.9869
7.780000	 64.9922
7.798000	 64.9434
7.816000	 64.8853
7.834000	 64.8353
7.852000	 64.7958
7.870000	 64.7823
7.888000	 64.8093
7.906000	 64.8694
7.924000	 64.936
7.942000	 64.9795
7.960000	 64.9803
7.978000	 64.9415
7.996000	 64.8927
8.013999	 64.8737
8.032000	 64.9034
8.050000	 64.9607
8.068000	 65.0047
8.086000	 65.0093
8.103999	 64.9729
8.122000	 64.92
8.140000	 64.8935
8.158000	 64.9194
8.176000	 64.9725
8.193999	 65.0006
8.212000	 64.9897
8.230000	 64.977
8.248000	 64.9964
8.266000	 65.0325
8.283999	 65.0391
8.302000	 64.9938
8.320000	 64.9259
8.338000	 64.8862
8.356000	 64.8949
8.374000	 64.9245
8.391999	 64.9366
8.410000	 64.9269
8.428000	 64.9182
8.446000	 64.9234
8.464000	 64.9348
8.481999	 64.9502
8.500000	 64.9809
8.518000	 65.019
8.536000	 65.0278
8.554000	 64.9817
8.571999	 64.8985
8.590000	 64.813
8.608000	 64.7411
8.626000	 64.6865
8.644000	 64.664
8.661999	 64.6851
8.680000	 64.7305
8.698000	 64.7634
8.716000	 64.7702
8.734000	 64.7672
8.751999	 64.7678
8.770000	 64.7635
8.788000	 64.7433
8.806000	 64.7133
8.824000	 64.6881
8.842000	 64.6701
8.859999	 64.6524
8.878000	 64.6338
8.896000	 64.625
8.914000	 64.6345
8.932000	 64.6573
8.949999	 64.6806
8.968000	 64.6974
8.986000	 64.7097
9.004000	 64.7223
9.022000	 64.7416
9.039999	 64.7719
9.058000	 64.8065
9.076000	 64.8233
9.094000	 64.801
9.112000	 64.7423
9.129999	 64.6789
9.148000	 64.6462
9.166000	 64.655
9.184000	 64.6874
9.202000	 64.7139
9.219999	 64.7117
9.238000	 64.6738
9.256000	 64.6121
9.274000	 64.5531
9.292000	 64.5257
9.310000	 64.5418
9.327999	 64.5905
9.346000	 64.6523
9.364000	 64.7109
9.382000	 64.7521
9.400000	 64.7634
9.418000	 64.7432
9.436000	 64.7071
9.454000	 64.6769
9.472000	 64.6652
9.490000	 64.6708
9.508000	 64.6893
9.526000	 64.7212
9.544000	 64.7638
9.561999	 64.8025
9.580000	 64.8187
9.598000	 64.8069
9.616000	 64.778
9.634000	 64.7444
9.652000	 64.7095
9.670000	 64.6701
9.688000	 64.6256
9.706000	 64.5837
9.724000	 64.5535
9.742000	 64.5401
9.760000	 64.5455
9.778000	 64.5713
9.795999	 64.6155
9.814000	 64.6669
9.832000	 64.7066
9.850000	 64.7183
9.868000	 64.6993
9.886000	 64.6611
9.904000	 64.6227
9.922000	 64.6016
9.940000	 64.6084
9.958000	 64.645
9.976000	 64.7026
9.994000	 64.7633
10.012	64.8062
10.03	64.8197
10.048	64.8077
10.066	64.7848
10.084	64.7639
10.102	64.7479
10.12	64.7302
10.138	64.7035
10.156	64.668
10.174	64.6311
10.192	64.6019
10.21	64.5844
10.228	64.5771
10.246	64.5756
10.264	64.5748
10.282	64.5712
10.3	64.5683
10.318	64.5736
10.336	64.5935
10.354	64.6253
10.372	64.6583
10.39	64.6809
10.408	64.6903
10.426	64.6953
10.444	64.7097
10.462	64.7387
10.48	64.7748
10.498	64.8019
10.516	64.8075
10.534	64.7905
10.552	64.7564
10.57	64.7087
10.588	64.6486
10.606	64.5788
10.624	64.5072
10.642	64.4464
10.66	64.4052
10.678	64.3831
10.696	64.37
10.714	64.3537
10.732	64.33
10.75	64.3081
10.768	64.3087
10.786	64.3508
10.804	64.4417
10.822	64.5704
10.84	64.7083
10.858	64.8205
10.876	64.8767
10.894	64.8632
10.912	64.7862
10.93	64.6702
10.948	64.5433
10.966	64.4296
10.984	64.343
11.002	64.2901
11.02	64.2736
11.038	64.2923
11.056	64.3394
11.074	64.4004
11.092	64.4543
11.11	64.4809
11.128	64.4662
11.146	64.4095
11.164	64.3231
11.182	64.2266
11.2	64.1414
11.218	64.0821
11.236	64.0573
11.254	64.0671
11.272	64.1055
11.29	64.163
11.308	64.2282
11.326	64.2905
11.344	64.3445
11.362	64.3894
11.38	64.4274
11.398	64.4616
11.416	64.4949
11.434	64.529
11.452	64.565
11.47	64.6034
11.488	64.6418
11.506	64.6751
11.524	64.6945
11.542	64.69
11.56	64.652
11.578	64.5753
11.596	64.4601
11.614	64.3149
11.632	64.1548
11.65	63.998
11.668	63.8647
11.686	63.7713
11.704	63.7275
11.722	63.7336
11.74	63.7813
11.758	63.8556
11.776	63.9369
11.794	64.008
11.812	64.0577
11.83	64.0824
11.848	64.0861
11.866	64.0773
11.884	64.0657
11.902	64.0593
11.92	64.0622
11.938	64.0734
11.956	64.0894
11.974	64.1044
11.992	64.1128
12.01	64.1107
12.028	64.096
12.046	64.069
12.064	64.0307
12.082	63.9836
12.1	63.9324
12.118	63.8839
12.136	63.8462
12.154	63.8281
12.172	63.8356
12.19	63.8697
12.208	63.9243
12.226	63.9877
12.244	64.0454
12.262	64.0835
12.28	64.092
12.298	64.068
12.316	64.0159
12.334	63.9448
12.352	63.8664
12.37	63.7916
12.388	63.7288
12.406	63.6823
12.424	63.6536
12.442	63.642
12.46	63.6463
12.478	63.6658
12.496	63.6993
12.514	63.745
12.532	63.799
12.55	63.8559
12.568	63.9084
12.586	63.9489
12.604	63.9717
12.622	63.974
12.64	63.9573
12.658	63.9263
12.676	63.8881
12.694	63.8499
12.712	63.8182
12.73	63.7966
12.748	63.7856
12.766	63.783
12.784	63.7849
12.802	63.7869
12.82	63.7855
12.838	63.7791
12.856	63.7679
12.874	63.7538
12.892	63.7394
12.91	63.727
12.928	63.718
12.946	63.7127
12.964	63.7108
12.982	63.7113
13	63.7135
13.018	63.7164
13.036	63.7189
13.054	63.7197
13.072	63.7172
13.09	63.7096
13.108	63.6957
13.126	63.6754
13.144	63.6497
13.162	63.6207
13.18	63.5916
13.198	63.5656
13.216	63.545
13.234	63.5309
13.252	63.5222
13.27	63.5167
13.288	63.5108
13.306	63.5011
13.324	63.4852
13.342	63.4621
13.36	63.433
13.378	63.4005
13.396	63.3682
13.414	63.3401
13.432	63.3194
13.45	63.3085
13.468	63.3078
13.486	63.3163
13.504	63.3321
13.522	63.352
13.54	63.3732
13.558	63.3929
13.576	63.4097
13.594	63.4231
13.612	63.4332
13.63	63.4411
13.648	63.4479
13.666	63.4545
13.684	63.4616
13.702	63.4691
13.72	63.4762
13.738	63.482
13.756	63.486
13.774	63.488
13.792	63.4889
13.81	63.4899
13.828	63.4925
13.846	63.498
13.864	63.5067
13.882	63.5175
13.9	63.5279
13.918	63.5346
13.936	63.5341
13.954	63.524
13.972	63.5028
13.99	63.4705
14.008	63.4292
14.026	63.3819
14.044	63.3322
14.062	63.2836
14.08	63.2382
14.098	63.1973
14.116	63.1606
14.134	63.1275
14.152	63.097
14.17	63.0689
14.188	63.0439
14.206	63.0238
14.224	63.0112
14.242	63.0088
14.26	63.0189
14.278	63.0422
14.296	63.0778
14.314	63.1231
14.332	63.1737
14.35	63.2241
14.368	63.2683
14.386	63.3001
14.404	63.3142
14.422	63.3068
14.44	63.2756
14.458	63.2204
14.476	63.1428
14.494	63.0465
14.512	62.9366
14.53	62.82
14.548	62.7037
14.566	62.5945
14.584	62.4987
14.602	62.4212
14.62	62.3654
14.638	62.3325
14.656	62.3217
14.674	62.33
14.692	62.3538
14.71	62.3885
14.728	62.4294
14.746	62.4722
14.764	62.5133
14.782	62.551
14.8	62.5847
14.818	62.6148
14.836	62.6424
14.854	62.6692
14.872	62.6964
14.89	62.7249
14.908	62.7545
14.926	62.7845
14.944	62.8133
14.962	62.8381
14.98	62.8565
14.998	62.866
15.016	62.8644
15.034	62.8502
15.052	62.8231
15.07	62.7837
15.088	62.7337
15.106	62.6753
15.124	62.6119
15.142	62.5475
15.16	62.4857
15.178	62.4301
15.196	62.3838
15.214	62.3501
15.232	62.3303
15.25	62.3248
15.268	62.3331
15.286	62.3539
15.304	62.3845
15.322	62.4218
15.34	62.4628
15.358	62.5038
15.376	62.5411
15.394	62.5715
15.412	62.593
15.43	62.6039
15.448	62.6032
15.466	62.5908
15.484	62.5674
15.502	62.5339
15.52	62.4923
15.538	62.4448
15.556	62.3938
15.574	62.3415
15.592	62.2912
15.61	62.2453
15.628	62.2059
15.646	62.1749
15.664	62.154
15.682	62.1435
15.7	62.1432
15.718	62.1526
15.736	62.1695
15.754	62.192
15.772	62.2179
15.79	62.2448
15.808	62.2709
15.826	62.2953
15.844	62.3175
15.862	62.3377
15.88	62.357
15.898	62.376
15.916	62.3958
15.934	62.4169
15.952	62.4393
15.97	62.4626
15.988	62.4848
16.006	62.5038
16.024	62.5175
16.042	62.5229
16.06	62.5178
16.078	62.5011
16.096	62.4718
16.114	62.4309
16.132	62.38
16.15	62.3215
16.168	62.2597
16.186	62.198
16.204	62.1399
16.222	62.0896
16.24	62.0492
16.258	62.0204
16.276	62.0039
16.294	61.9987
16.312	62.0038
16.33	62.0164
16.348	62.0338
16.366	62.0537
16.384	62.0727
16.402	62.0881
16.42	62.0985
16.438	62.1017
16.456	62.0973
16.474	62.0853
16.492	62.0663
16.51	62.0421
16.528	62.014
16.546	61.9845
16.564	61.956
16.582	61.9299
16.6	61.9087
16.618	61.8933
16.636	61.8844
16.654	61.8823
16.672	61.886
16.69	61.895
16.708	61.9078
16.726	61.9233
16.744	61.9402
16.762	61.9572
16.78	61.9734
16.798	61.988
16.816	62.0003
16.834	62.0103
16.852	62.0179
16.87	62.0229
16.888	62.0253
16.906	62.0255
16.924	62.0238
16.942	62.0204
16.96	62.0159
16.978	62.0109
16.996	62.006
17.014	62.002
17.032	61.9993
17.05	61.9985
17.068	61.9996
17.086	62.003
17.104	62.0085
17.122	62.016
17.14	62.0249
17.158	62.0344
17.176	62.0442
17.194	62.0529
17.212	62.0601
17.23	62.0649
17.248	62.0663
17.266	62.0639
17.284	62.0566
17.302	62.0442
17.32	62.0261
17.338	62.0022
17.356	61.9725
17.374	61.9371
17.392	61.8964
17.41	61.8509
17.428	61.8016
17.446	61.7491
17.464	61.6947
17.482	61.639
17.5	61.5833
17.518	61.5284
17.536	61.4749
17.554	61.4235
17.572	61.3746
17.59	61.3288
17.608	61.2863
17.626	61.2473
17.644	61.2122
17.662	61.1812
17.68	61.1543
17.698	61.1317
17.716	61.1137
17.734	61.1002
17.752	61.0914
17.77	61.0873
17.788	61.0879
17.806	61.0927
17.824	61.1015
17.842	61.1137
17.86	61.1287
17.878	61.1461
17.896	61.1649
17.914	61.1849
17.932	61.2049
17.95	61.2247
17.968	61.2438
17.986	61.2621
18.004	61.2793
18.022	61.2958
18.04	61.3115
18.058	61.3271
18.076	61.3427
18.094	61.3589
18.112	61.3758
18.13	61.3936
18.148	61.4122
18.166	61.4316
18.184	61.4515
18.202	61.4716
18.22	61.4913
18.238	61.5105
18.256	61.5281
18.274	61.5441
18.292	61.5578
18.31	61.5694
18.328	61.5782
18.346	61.5843
18.364	61.5872
18.382	61.5868
18.4	61.5826
18.418	61.5745
18.436	61.5622
18.454	61.5454
18.472	61.524
18.49	61.4977
18.508	61.4665
18.526	61.4305
18.544	61.3896
18.562	61.3449
18.58	61.2963
18.598	61.2451
18.616	61.1915
18.634	61.137
18.652	61.0816
18.67	61.0269
18.688	60.9729
18.706	60.9206
18.724	60.8703
18.742	60.8226
18.76	60.7775
18.778	60.7355
18.796	60.6966
18.814	60.6609
18.832	60.6284
18.85	60.599
18.868	60.5728
18.886	60.5497
18.904	60.5301
18.922	60.514
18.94	60.5017
18.958	60.4933
18.976	60.4889
18.994	60.4885
19.012	60.4921
19.03	60.4998
19.048	60.5115
19.066	60.5274
19.084	60.5471
19.102	60.5702
19.12	60.5965
19.138	60.6255
19.156	60.6569
19.174	60.6902
19.192	60.7252
19.21	60.7614
19.228	60.7988
19.246	60.8369
19.264	60.8756
19.282	60.9148
19.3	60.9545
19.318	60.9944
19.336	61.0347
19.354	61.0752
19.372	61.116
19.39	61.1566
19.408	61.1973
19.426	61.2372
19.444	61.2764
19.462	61.3142
19.48	61.3507
19.498	61.3847
19.516	61.4162
19.534	61.4444
19.552	61.4692
19.57	61.49
19.588	61.5062
19.606	61.5181
19.624	61.5253
19.642	61.5279
19.66	61.5259
19.678	61.5195
19.696	61.5092
19.714	61.495
19.732	61.4774
19.75	61.4563
19.768	61.432
19.786	61.4046
19.804	61.3737
19.822	61.3396
19.84	61.3018
19.858	61.2604
19.876	61.2152
19.894	61.1658
19.912	61.1124
19.93	61.0547
19.948	60.9927
19.966	60.9269
19.984	60.8572
20.002	60.7848
20.02	60.7098
20.038	60.6332
20.056	60.5561
20.074	60.4788
20.092	60.4032
20.11	60.3291
20.128	60.2586
20.146	60.1912
20.164	60.1284
20.182	60.0704
20.2	60.0175
20.218	59.9702
20.236	59.9285
20.254	59.8924
20.272	59.8619
20.29	59.8364
20.308	59.816
20.326	59.7997
20.344	59.7874
20.362	59.7786
20.38	59.7722
20.398	59.7685
20.416	59.7661
20.434	59.7652
20.452	59.7643
20.47	59.7634
20.488	59.7616
20.506	59.7581
20.524	59.7529
20.542	59.7447
20.56	59.7337
20.578	59.7191
20.596	59.7009
20.614	59.6787
20.632	59.6519
20.65	59.6208
20.668	59.5857
20.686	59.5462
20.704	59.5034
20.722	59.4571
20.74	59.4081
20.758	59.358
20.776	59.3064
20.794	59.2556
20.812	59.2054
20.83	59.1576
20.848	59.1136
20.866	59.0734
20.884	59.0397
20.902	59.012
20.92	58.9918
20.938	58.9801
20.956	58.9766
20.974	58.982
20.992	58.9962
21.01	59.0185
21.028	59.049
21.046	59.0866
21.064	59.1297
21.082	59.1788
21.1	59.2305
21.118	59.2851
21.136	59.3406
21.154	59.3944
21.172	59.4472
21.19	59.4957
21.208	59.5399
21.226	59.5787
21.244	59.6103
21.262	59.6354
21.28	59.653
21.298	59.6628
21.316	59.6653
21.334	59.6608
21.352	59.6492
21.37	59.6319
21.388	59.6088
21.406	59.5808
21.424	59.5492
21.442	59.5136
21.46	59.4758
21.478	59.4359
21.496	59.3942
21.514	59.3519
21.532	59.3086
21.55	59.2648
21.568	59.2208
21.586	59.1766
21.604	59.132
21.622	59.0872
21.64	59.0422
21.658	58.9971
21.676	58.9518
21.694	58.9065
21.712	58.861
21.73	58.8158
21.748	58.7716
21.766	58.7279
21.784	58.6857
21.802	58.6454
21.82	58.6068
21.838	58.5714
21.856	58.5391
21.874	58.5103
21.892	58.4856
21.91	58.465
21.928	58.4483
21.946	58.4359
21.964	58.4274
21.982	58.4218
22	58.4197
22.018	58.4198
22.036	58.4208
22.054	58.4234
22.072	58.4255
22.09	58.4262
22.108	58.4258
22.126	58.422
22.144	58.4147
22.162	58.4037
22.18	58.3875
22.198	58.3662
22.216	58.3399
22.234	58.3081
22.252	58.2708
22.27	58.229
22.288	58.1826
22.306	58.1318
22.324	58.0787
22.342	58.0228
22.36	57.9649
22.378	57.9074
22.396	57.8493
22.414	57.792
22.432	57.7372
22.45	57.6841
22.468	57.634
22.486	57.5878
22.504	57.5451
22.522	57.5065
22.54	57.4725
22.558	57.4427
22.576	57.4168
22.594	57.395
22.612	57.3767
22.63	57.3608
22.648	57.3477
22.666	57.3366
22.684	57.3263
22.702	57.3174
22.72	57.3089
22.738	57.2999
22.756	57.291
22.774	57.2814
22.792	57.2703
22.81	57.2582
22.828	57.2447
22.846	57.2297
22.864	57.2133
22.882	57.1954
22.9	57.1757
22.918	57.1545
22.936	57.1322
22.954	57.1089
22.972	57.0845
22.99	57.0597
23.008	57.0341
23.026	57.0082
23.044	56.983
23.062	56.9583
23.08	56.9345
23.098	56.9127
23.116	56.8925
23.134	56.8745
23.152	56.8601
23.17	56.8488
23.188	56.8414
23.206	56.8398
23.224	56.8434
23.242	56.8528
23.26	56.8694
23.278	56.8932
23.296	56.9238
23.314	56.9614
23.332	57.0065
23.35	57.0582
23.368	57.1156
23.386	57.1793
23.404	57.2486
23.422	57.3218
23.44	57.3999
23.458	57.4818
23.476	57.5646
23.494	57.6493
23.512	57.7351
23.53	57.8183
23.548	57.8993
23.566	57.9779
23.584	58.0507
23.602	58.1172
23.62	58.1781
23.638	58.2308
23.656	58.2746
23.674	58.3102
23.692	58.3363
23.71	58.3519
23.728	58.3576
23.746	58.3533
23.764	58.3391
23.782	58.3149
23.8	58.2809
23.818	58.2372
23.836	58.1838
23.854	58.121
23.872	58.0489
23.89	57.9675
23.908	57.877
23.926	57.7781
23.944	57.6706
23.962	57.5547
23.98	57.4317
23.998	57.3014
24.016	57.1639
24.034	57.0205
24.052	56.8717
24.07	56.7169
24.088	56.558
24.106	56.3966
24.124	56.2311
24.142	56.0636
24.16	55.8967
24.178	55.7286
24.196	55.5609
24.214	55.3969
24.232	55.2356
24.25	55.0774
24.268	54.9264
24.286	54.7837
24.304	54.6476
24.322	54.5218
24.34	54.4095
24.358	54.3086
24.376	54.2204
24.394	54.1468
24.412	54.0875
24.43	54.0422
24.448	54.0119
24.466	53.9972
24.484	53.9975
24.502	54.0117
24.52	54.0388
24.538	54.0798
24.556	54.1334
24.574	54.198
24.592	54.2748
24.61	54.3626
24.628	54.459
24.646	54.563
24.664	54.6755
24.682	54.7959
24.7	54.9235
24.718	55.0592
24.736	55.2017
24.754	55.3494
24.772	55.5012
24.79	55.6584
24.808	55.8224
24.826	55.9932
24.844	56.169
24.862	56.3547
24.88	56.5548
24.898	56.7663
24.916	56.991
24.934	57.2345
24.952	57.4985
24.97	57.7801
24.988	58.0833
25.006	58.4121
25.024	58.7658
25.042	59.1428
25.06	59.5421
25.078	59.9653
25.096	60.4124
25.114	60.8771
25.132	61.3542
25.15	61.8517
25.168	62.3609
25.186	62.8678
25.204	63.3716
25.222	63.8792
25.24	64.3722
25.258	64.8339
25.276	65.2775
25.294	65.6947
25.312	66.0665
25.33	66.3857
25.348	66.6638
25.366	66.888
25.384	67.0445
25.402	67.1374
25.42	67.1683
25.438	67.1313
25.456	67.0213
25.474	66.8401
25.492	66.5924
25.51	66.2828
25.528	65.9073
25.546	65.467
25.564	64.9746
25.582	64.4403
25.6	63.8514
25.618	63.2193
25.636	62.5632
25.654	61.89
25.672	61.186
25.69	60.4698
25.708	59.7616
25.726	59.0543
25.744	58.3461
25.762	57.6566
25.78	57.002
25.798	56.3666
25.816	55.7602
25.834	55.2016
25.852	54.6997
25.87	54.2407
25.888	53.8372
25.906	53.5039
25.924	53.2391
25.942	53.0372
25.96	52.9112
25.978	52.8733
25.996	52.9188
26.014	53.0461
26.032	53.2592
26.05	53.5625
26.068	53.9567
26.086	54.4357
26.104	54.9926
26.122	55.6276
26.14	56.3491
26.158	57.1389
26.176	57.9773
26.194	58.868
26.212	59.8208
26.23	60.8063
26.248	61.7951
26.266	62.8037
26.284	63.8328
26.302	64.8468
26.32	65.8129
26.338	66.7571
26.356	67.6711
26.374	68.5203
26.392	69.2761
26.41	69.9661
26.428	70.5783
26.446	71.0851
26.464	71.4662
26.482	71.7405
26.5	71.9027
26.518	71.9418
26.536	71.8494
26.554	71.6318
26.572	71.2917
26.59	70.8313
26.608	70.2485
26.626	69.5392
26.644	68.7157
26.662	67.7912
26.68	66.767
26.698	65.631
26.716	64.4037
26.734	63.1072
26.752	61.7454
26.77	60.3015
26.788	58.7975
26.806	57.2566
26.824	55.681
26.842	54.0528
26.86	52.3978
26.878	50.7427
26.896	49.091
26.914	47.4215
26.932	45.7617
26.95	44.1404
26.968	42.4912
26.986	40.7414
27.004	39.1326
27.022	37.9149
27.028	37.6785