File: Bakgrunnsmateriale/MATLAB/FTIR/ftir_data/subBb/Mapping_36/C-4040-8_t06.asc
PE IR       SPECTRUM    SPECTRUM    ASCII       PEDS        1.60
  -1
C-B522~1.ASC
17/05/02
11:18:12.00
17/05/02
11:18:38.00
tln
$C-4040-8_t0006$<tbV0>[-12.5,-13.0,8.0,0.0,22,1,0]
27.028
64

2002,4.07
MIRTGS : RIGHTBACK : INTERNAL 2
MIR : ON : INTERNAL 2
OPTKBR

0.200000
8
8.000000
FILLER
RATIO
SPECTRUM
UNLOCKED 256

DOUBLE
64
COMBINED
1
0
0

0.002000
RATIO

1
0
TRUE
51149
0
LEFT NOT FITTED RIGHT NOT FITTED 0
NONE
NONE
15600
12
4.427000
51148
TRUE
1 0 8 72 0 0 0 0

15798

#HDR
-1
-1
#GR
µM
%T
2.38419e-05
0.0
1.282000
0.002000
12874
8
73.7856
24.2776
#DATA
1.282000	 70.3139
1.300000	 60.507
1.318000	 62.8241
1.336000	 68.9179
1.354000	 62.7673
1.372000	 66.6164
1.390000	 63.6584
1.408000	 65.4296
1.426000	 63.3234
1.444000	 65.569
1.462000	 64.097
1.480000	 63.8888
1.498000	 63.3299
1.516000	 64.936
1.534000	 64.6775
1.552000	 64.9918
1.570000	 65.0667
1.588000	 63.4077
1.606000	 64.5013
1.624000	 64.7815
1.642000	 64.8465
1.660000	 65.2514
1.678000	 65.0098
1.696000	 64.2538
1.714000	 65.6173
1.732000	 64.5503
1.750000	 65.023
1.768000	 64.1955
1.786000	 65.184
1.804000	 65.0792
1.822000	 64.7068
1.840000	 64.9101
1.858000	 64.9519
1.876000	 64.5923
1.894000	 64.7592
1.912000	 62.589
1.930000	 64.362
1.948000	 64.0379
1.966000	 63.9201
1.984000	 64.3871
2.002000	 64.8873
2.020000	 64.9357
2.038000	 65.0343
2.056000	 64.4749
2.074000	 64.4498
2.092000	 64.7271
2.110000	 64.5292
2.128000	 64.7338
2.146000	 64.5393
2.164000	 64.1097
2.182000	 65.0562
2.200000	 64.9405
2.218000	 64.6403
2.236000	 64.9284
2.254000	 65.384
2.272000	 71.7308
2.290000	 65.8289
2.308000	 65.1379
2.326000	 64.6073
2.344000	 64.4123
2.362000	 64.169
2.380000	 64.0533
2.398000	 64.5938
2.416000	 64.1447
2.434000	 64.2478
2.452000	 63.8784
2.470000	 64.3327
2.488000	 63.9649
2.506000	 64.188
2.524000	 64.1974
2.542000	 64.2978
2.560000	 64.0385
2.578000	 64.0513
2.596000	 64.0302
2.614000	 64.2909
2.632000	 64.0482
2.650000	 64.03
2.668000	 63.9796
2.686000	 63.8802
2.704000	 63.8998
2.722000	 63.8741
2.740000	 64.0878
2.758000	 63.7352
2.776000	 63.7797
2.794000	 63.6231
2.812000	 63.7284
2.830000	 63.6232
2.848000	 63.4111
2.866000	 63.7363
2.884000	 63.6116
2.902000	 63.1621
2.920000	 63.555
2.938000	 63.5807
2.956000	 63.3313
2.974000	 63.3669
2.992000	 63.2826
3.010000	 62.9407
3.028000	 63.2614
3.046000	 63.2531
3.064000	 62.8202
3.082000	 63.014
3.100000	 62.8389
3.118000	 62.9447
3.136000	 62.8917
3.154000	 62.9384
3.172000	 62.79
3.190000	 62.7103
3.208000	 62.7207
3.226000	 62.5911
3.244000	 62.7337
3.262000	 62.7785
3.280000	 62.5836
3.298000	 62.609
3.316000	 62.4974
3.334000	 62.5766
3.352000	 62.3854
3.370000	 62.2776
3.388000	 62.1188
3.406000	 62.1215
3.424000	 61.971
3.442000	 62.0173
3.460000	 62.0386
3.478000	 61.9689
3.496000	 61.8531
3.514000	 61.9858
3.532000	 61.8865
3.550000	 61.8542
3.568000	 61.8495
3.586000	 61.8915
3.604000	 61.858
3.622000	 61.7373
3.640000	 61.6703
3.658000	 61.7833
3.676000	 61.6069
3.694000	 61.6469
3.712000	 61.6013
3.730000	 61.454
3.748000	 61.5003
3.766000	 61.3298
3.784000	 61.3093
3.802000	 61.2542
3.820000	 61.3504
3.838000	 61.2573
3.856000	 61.1607
3.874000	 61.1516
3.892000	 61.0523
3.910000	 61.1627
3.928000	 61.0343
3.946000	 60.9039
3.964000	 61.0062
3.982000	 60.9743
4.000000	 60.8458
4.018000	 60.8186
4.036000	 60.782
4.054000	 60.709
4.072000	 60.7422
4.090000	 60.6618
4.108000	 60.7009
4.125999	 60.5414
4.144000	 60.5984
4.162000	 60.4618
4.180000	 60.4828
4.198000	 60.3025
4.216000	 60.3782
4.234000	 60.3063
4.252000	 60.3367
4.270000	 60.3327
4.288000	 60.1774
4.306000	 60.2572
4.324000	 60.1231
4.342000	 59.9687
4.359999	 60.0715
4.378000	 60.0275
4.396000	 59.9391
4.414000	 60.0436
4.432000	 59.9208
4.450000	 59.8436
4.468000	 59.8041
4.486000	 59.7712
4.504000	 59.6452
4.522000	 59.6251
4.540000	 59.5265
4.558000	 59.5387
4.576000	 59.5965
4.594000	 59.5009
4.612000	 59.5516
4.630000	 59.6069
4.648000	 59.4166
4.666000	 59.3094
4.684000	 59.3276
4.702000	 59.3253
4.720000	 59.1558
4.738000	 59.2929
4.756000	 59.2592
4.774000	 59.1149
4.792000	 59.104
4.810000	 59.0663
4.828000	 58.9852
4.846000	 59.027
4.864000	 59.0062
4.882000	 59.0116
4.900000	 58.8793
4.918000	 58.825
4.936000	 58.7851
4.954000	 58.6944
4.972000	 58.7313
4.990000	 58.7022
5.008000	 58.6907
5.026000	 58.6734
5.044000	 58.6501
5.062000	 58.6036
5.080000	 58.5792
5.098000	 58.5341
5.116000	 58.6071
5.134000	 58.503
5.152000	 58.4616
5.170000	 58.3768
5.188000	 58.4363
5.206000	 58.4499
5.224000	 58.4045
5.242000	 58.3865
5.260000	 58.2606
5.278000	 58.2335
5.296000	 58.3267
5.314000	 58.2182
5.332000	 58.1676
5.350000	 58.1755
5.368000	 58.1883
5.386000	 58.0981
5.404000	 57.9471
5.422000	 58.0078
5.440000	 57.9384
5.458000	 57.9165
5.476000	 57.8919
5.494000	 57.9333
5.512000	 57.9189
5.530000	 57.8507
5.548000	 57.8271
5.566000	 57.7764
5.584000	 57.6673
5.602000	 57.6505
5.620000	 57.6606
5.638000	 57.6511
5.656000	 57.6045
5.674000	 57.521
5.692000	 57.4361
5.710000	 57.4148
5.728000	 57.4131
5.746000	 57.3527
5.764000	 57.2353
5.782000	 57.1772
5.800000	 57.097
5.818000	 57.1404
5.836000	 57.286
5.854000	 57.2986
5.872000	 57.3494
5.890000	 57.3235
5.908000	 57.2577
5.926000	 57.2031
5.944000	 57.1308
5.962000	 57.119
5.980000	 57.0933
5.998000	 57.131
6.016000	 57.1918
6.034000	 57.0923
6.052000	 56.9467
6.070000	 56.9092
6.088000	 56.9565
6.106000	 56.9715
6.124000	 56.9155
6.142000	 56.8638
6.160000	 56.8872
6.178000	 56.8912
6.196000	 56.8548
6.214000	 56.7473
6.232000	 56.6233
6.250000	 56.6088
6.268000	 56.6421
6.286000	 56.6131
6.304000	 56.5619
6.322000	 56.6048
6.340000	 56.6161
6.358000	 56.5397
6.376000	 56.5021
6.394000	 56.4677
6.412000	 56.4328
6.430000	 56.3797
6.448000	 56.3352
6.466000	 56.3248
6.484000	 56.3428
6.502000	 56.3149
6.520000	 56.2182
6.538000	 56.1577
6.556000	 56.149
6.574000	 56.1234
6.592000	 56.0755
6.610000	 56.1192
6.628000	 56.1905
6.646000	 56.1233
6.664000	 56.0392
6.682000	 56.0897
6.700000	 56.1556
6.718000	 56.1024
6.736000	 55.9581
6.754000	 55.8572
6.772000	 55.8406
6.790000	 55.8791
6.808000	 55.9673
6.826000	 55.9944
6.844000	 55.9771
6.862000	 56.0123
6.880000	 56.0205
6.898000	 55.9738
6.916000	 55.8925
6.934000	 55.8142
6.952000	 55.8253
6.970000	 55.822
6.988000	 55.7148
7.006000	 55.633
7.024000	 55.6653
7.042000	 55.7365
7.060000	 55.7428
7.078000	 55.6721
7.096000	 55.5496
7.114000	 55.4454
7.132000	 55.4707
7.150000	 55.5669
7.168000	 55.5767
7.186000	 55.5011
7.204000	 55.429
7.222000	 55.3982
7.240000	 55.4128
7.258000	 55.4678
7.276000	 55.5164
7.294000	 55.5135
7.312000	 55.4973
7.330000	 55.4962
7.348000	 55.4676
7.366000	 55.4146
7.384000	 55.3917
7.402000	 55.4055
7.420000	 55.4294
7.438000	 55.4399
7.456000	 55.4045
7.474000	 55.3024
7.492000	 55.1949
7.510000	 55.1759
7.528000	 55.2203
7.546000	 55.2383
7.564000	 55.2204
7.582000	 55.1898
7.600000	 55.1321
7.618000	 55.0516
7.636000	 54.987
7.654000	 54.9638
7.672000	 54.9731
7.690000	 54.9822
7.708000	 54.9646
7.726000	 54.9312
7.744000	 54.9069
7.762000	 54.8681
7.780000	 54.7841
7.798000	 54.7083
7.816000	 54.7173
7.834000	 54.7809
7.852000	 54.8058
7.870000	 54.768
7.888000	 54.7141
7.906000	 54.6813
7.924000	 54.68
7.942000	 54.7027
7.960000	 54.7129
7.978000	 54.6767
7.996000	 54.6189
8.013999	 54.5902
8.032000	 54.5839
8.050000	 54.5571
8.068000	 54.514
8.086000	 54.4978
8.103999	 54.5174
8.122000	 54.5415
8.140000	 54.5494
8.158000	 54.5472
8.176000	 54.5476
8.193999	 54.5494
8.212000	 54.538
8.230000	 54.5083
8.248000	 54.4804
8.266000	 54.4745
8.283999	 54.4808
8.302000	 54.4748
8.320000	 54.4528
8.338000	 54.4257
8.356000	 54.3931
8.374000	 54.3443
8.391999	 54.2844
8.410000	 54.2435
8.428000	 54.2454
8.446000	 54.275
8.464000	 54.2922
8.481999	 54.2805
8.500000	 54.2632
8.518000	 54.266
8.536000	 54.279
8.554000	 54.2744
8.571999	 54.2433
8.590000	 54.2005
8.608000	 54.1638
8.626000	 54.1385
8.644000	 54.1252
8.661999	 54.1351
8.680000	 54.176
8.698000	 54.2204
8.716000	 54.2131
8.734000	 54.1286
8.751999	 54.0109
8.770000	 53.9338
8.788000	 53.9253
8.806000	 53.9508
8.824000	 53.9646
8.842000	 53.954
8.859999	 53.9342
8.878000	 53.9187
8.896000	 53.9065
8.914000	 53.8908
8.932000	 53.8682
8.949999	 53.8421
8.968000	 53.8182
8.986000	 53.7943
9.004000	 53.7604
9.022000	 53.7202
9.039999	 53.7031
9.058000	 53.7403
9.076000	 53.8322
9.094000	 53.9432
9.112000	 54.0287
9.129999	 54.0662
9.148000	 54.06
9.166000	 54.0229
9.184000	 53.9613
9.202000	 53.8749
9.219999	 53.7674
9.238000	 53.6585
9.256000	 53.5805
9.274000	 53.5568
9.292000	 53.5807
9.310000	 53.6198
9.327999	 53.6395
9.346000	 53.6225
9.364000	 53.5723
9.382000	 53.5034
9.400000	 53.4321
9.418000	 53.3734
9.436000	 53.3396
9.454000	 53.3348
9.472000	 53.348
9.490000	 53.3562
9.508000	 53.3398
9.526000	 53.2999
9.544000	 53.2608
9.561999	 53.2533
9.580000	 53.2913
9.598000	 53.3611
9.616000	 53.4321
9.634000	 53.4762
9.652000	 53.4804
9.670000	 53.4482
9.688000	 53.3936
9.706000	 53.336
9.724000	 53.2934
9.742000	 53.2763
9.760000	 53.2837
9.778000	 53.3027
9.795999	 53.3174
9.814000	 53.3159
9.832000	 53.2951
9.850000	 53.2593
9.868000	 53.2163
9.886000	 53.1737
9.904000	 53.1354
9.922000	 53.1016
9.940000	 53.0735
9.958000	 53.0579
9.976000	 53.0655
9.994000	 53.1005
10.012	53.1499
10.03	53.1831
10.048	53.166
10.066	53.0854
10.084	52.9598
10.102	52.8307
10.12	52.7393
10.138	52.7053
10.156	52.7218
10.174	52.7654
10.192	52.8108
10.21	52.8404
10.228	52.8478
10.246	52.8344
10.264	52.8066
10.282	52.7743
10.3	52.7463
10.318	52.7275
10.336	52.7161
10.354	52.7053
10.372	52.6882
10.39	52.6619
10.408	52.6296
10.426	52.5982
10.444	52.574
10.462	52.558
10.48	52.5466
10.498	52.5366
10.516	52.5306
10.534	52.536
10.552	52.5582
10.57	52.5935
10.588	52.6266
10.606	52.6387
10.624	52.6189
10.642	52.5733
10.66	52.5203
10.678	52.4792
10.696	52.4555
10.714	52.4411
10.732	52.4216
10.75	52.3893
10.768	52.3501
10.786	52.3187
10.804	52.3112
10.822	52.3342
10.84	52.3853
10.858	52.4556
10.876	52.5342
10.894	52.6105
10.912	52.6742
10.93	52.7144
10.948	52.7255
10.966	52.7119
10.984	52.6858
11.002	52.6636
11.02	52.6551
11.038	52.659
11.056	52.6645
11.074	52.6593
11.092	52.6399
11.11	52.6154
11.128	52.6025
11.146	52.614
11.164	52.6492
11.182	52.6909
11.2	52.7099
11.218	52.6806
11.236	52.59
11.254	52.444
11.272	52.2666
11.29	52.0921
11.308	51.9501
11.326	51.8574
11.344	51.8115
11.362	51.7956
11.38	51.7874
11.398	51.7695
11.416	51.7339
11.434	51.6852
11.452	51.6341
11.47	51.5932
11.488	51.5721
11.506	51.5758
11.524	51.6034
11.542	51.6486
11.56	51.7001
11.578	51.7415
11.596	51.7572
11.614	51.7373
11.632	51.6873
11.65	51.6296
11.668	51.5985
11.686	51.6228
11.704	51.7125
11.722	51.8498
11.74	51.9892
11.758	52.0763
11.776	52.0657
11.794	51.9425
11.812	51.7275
11.83	51.4713
11.848	51.237
11.866	51.0748
11.884	51.0095
11.902	51.0367
11.92	51.1273
11.938	51.2421
11.956	51.3427
11.974	51.4012
11.992	51.4068
12.01	51.3642
12.028	51.292
12.046	51.2155
12.064	51.162
12.082	51.1527
12.1	51.1997
12.118	51.3007
12.136	51.4395
12.154	51.5906
12.172	51.7265
12.19	51.8233
12.208	51.8678
12.226	51.8584
12.244	51.8031
12.262	51.7156
12.28	51.6119
12.298	51.5071
12.316	51.4152
12.334	51.3475
12.352	51.3115
12.37	51.3096
12.388	51.3382
12.406	51.388
12.424	51.4453
12.442	51.4947
12.46	51.5223
12.478	51.5202
12.496	51.4878
12.514	51.4322
12.532	51.3651
12.55	51.2991
12.568	51.244
12.586	51.2041
12.604	51.1772
12.622	51.156
12.64	51.1319
12.658	51.0983
12.676	51.0527
12.694	50.9972
12.712	50.9371
12.73	50.8795
12.748	50.8302
12.766	50.793
12.784	50.7686
12.802	50.7562
12.82	50.7539
12.838	50.7594
12.856	50.7713
12.874	50.7883
12.892	50.8101
12.91	50.8365
12.928	50.8669
12.946	50.8991
12.964	50.93
12.982	50.9554
13	50.9707
13.018	50.9721
13.036	50.9578
13.054	50.9287
13.072	50.8894
13.09	50.8471
13.108	50.8104
13.126	50.7879
13.144	50.786
13.162	50.8072
13.18	50.8492
13.198	50.9058
13.216	50.9678
13.234	51.0253
13.252	51.0694
13.27	51.0941
13.288	51.0964
13.306	51.0757
13.324	51.0336
13.342	50.9733
13.36	50.8986
13.378	50.8139
13.396	50.7237
13.414	50.6335
13.432	50.5493
13.45	50.4772
13.468	50.4228
13.486	50.3896
13.504	50.3792
13.522	50.3899
13.54	50.417
13.558	50.4536
13.576	50.4925
13.594	50.5271
13.612	50.5523
13.63	50.5654
13.648	50.5665
13.666	50.5576
13.684	50.5418
13.702	50.5229
13.72	50.5043
13.738	50.4887
13.756	50.4782
13.774	50.4735
13.792	50.4743
13.81	50.4791
13.828	50.4858
13.846	50.4911
13.864	50.4915
13.882	50.4833
13.9	50.4635
13.918	50.4303
13.936	50.3833
13.954	50.3237
13.972	50.255
13.99	50.1814
14.008	50.1072
14.026	50.036
14.044	49.9704
14.062	49.911
14.08	49.8571
14.098	49.8069
14.116	49.7583
14.134	49.71
14.152	49.6616
14.17	49.6141
14.188	49.5694
14.206	49.5298
14.224	49.4984
14.242	49.4768
14.26	49.4662
14.278	49.4662
14.296	49.4751
14.314	49.4907
14.332	49.5103
14.35	49.5314
14.368	49.5519
14.386	49.5705
14.404	49.5864
14.422	49.5995
14.44	49.6098
14.458	49.6176
14.476	49.6231
14.494	49.6271
14.512	49.63
14.53	49.6327
14.548	49.6358
14.566	49.6403
14.584	49.6464
14.602	49.6546
14.62	49.6645
14.638	49.6756
14.656	49.6869
14.674	49.6972
14.692	49.7052
14.71	49.7102
14.728	49.7113
14.746	49.7085
14.764	49.7023
14.782	49.6938
14.8	49.6844
14.818	49.6755
14.836	49.6685
14.854	49.6643
14.872	49.6635
14.89	49.6657
14.908	49.6703
14.926	49.6759
14.944	49.6811
14.962	49.6839
14.98	49.6825
14.998	49.6756
15.016	49.6619
15.034	49.6407
15.052	49.6121
15.07	49.5767
15.088	49.5354
15.106	49.4897
15.124	49.4409
15.142	49.3907
15.16	49.3398
15.178	49.2887
15.196	49.2378
15.214	49.1869
15.232	49.1357
15.25	49.0843
15.268	49.0327
15.286	48.9814
15.304	48.9315
15.322	48.8845
15.34	48.842
15.358	48.8057
15.376	48.7767
15.394	48.7555
15.412	48.7416
15.43	48.734
15.448	48.7305
15.466	48.7281
15.484	48.7243
15.502	48.717
15.52	48.704
15.538	48.6854
15.556	48.6619
15.574	48.6351
15.592	48.6084
15.61	48.5853
15.628	48.5686
15.646	48.5616
15.664	48.5663
15.682	48.5834
15.7	48.6125
15.718	48.6525
15.736	48.7006
15.754	48.7543
15.772	48.8108
15.79	48.867
15.808	48.9204
15.826	48.9695
15.844	49.0129
15.862	49.0501
15.88	49.0809
15.898	49.1051
15.916	49.1227
15.934	49.1338
15.952	49.1382
15.97	49.1357
15.988	49.1258
16.006	49.1084
16.024	49.0831
16.042	49.0507
16.06	49.012
16.078	48.9682
16.096	48.9209
16.114	48.8726
16.132	48.825
16.15	48.7802
16.168	48.7407
16.186	48.7073
16.204	48.6814
16.222	48.6632
16.24	48.6522
16.258	48.6477
16.276	48.6479
16.294	48.6512
16.312	48.6562
16.33	48.6611
16.348	48.6641
16.366	48.6646
16.384	48.6615
16.402	48.6549
16.42	48.645
16.438	48.6323
16.456	48.6177
16.474	48.6018
16.492	48.5856
16.51	48.57
16.528	48.5553
16.546	48.5419
16.564	48.5298
16.582	48.5187
16.6	48.5079
16.618	48.4972
16.636	48.486
16.654	48.4737
16.672	48.4606
16.69	48.4464
16.708	48.432
16.726	48.4185
16.744	48.4065
16.762	48.3982
16.78	48.3943
16.798	48.3959
16.816	48.4034
16.834	48.4165
16.852	48.4344
16.87	48.4548
16.888	48.4765
16.906	48.4956
16.924	48.5096
16.942	48.5162
16.96	48.5116
16.978	48.495
16.996	48.4645
17.014	48.4204
17.032	48.3628
17.05	48.2937
17.068	48.2152
17.086	48.1292
17.104	48.0397
17.122	47.9484
17.14	47.8588
17.158	47.773
17.176	47.6925
17.194	47.6194
17.212	47.5537
17.23	47.4962
17.248	47.4465
17.266	47.4046
17.284	47.3698
17.302	47.3419
17.32	47.3205
17.338	47.3054
17.356	47.2967
17.374	47.2945
17.392	47.2993
17.41	47.3115
17.428	47.3313
17.446	47.3587
17.464	47.3936
17.482	47.4352
17.5	47.4826
17.518	47.5339
17.536	47.5885
17.554	47.643
17.572	47.6967
17.59	47.7465
17.608	47.7916
17.626	47.8304
17.644	47.862
17.662	47.8859
17.68	47.9025
17.698	47.9121
17.716	47.9153
17.734	47.9133
17.752	47.9068
17.77	47.8967
17.788	47.8832
17.806	47.8669
17.824	47.8478
17.842	47.8254
17.86	47.7993
17.878	47.7691
17.896	47.734
17.914	47.6936
17.932	47.6478
17.95	47.5967
17.968	47.5408
17.986	47.4811
18.004	47.4188
18.022	47.356
18.04	47.2935
18.058	47.2342
18.076	47.1788
18.094	47.1298
18.112	47.0873
18.13	47.0528
18.148	47.0257
18.166	47.0064
18.184	46.9935
18.202	46.9866
18.22	46.9835
18.238	46.9838
18.256	46.9848
18.274	46.9862
18.292	46.9859
18.31	46.9837
18.328	46.9785
18.346	46.9707
18.364	46.9601
18.382	46.9475
18.4	46.9337
18.418	46.9195
18.436	46.9056
18.454	46.893
18.472	46.8824
18.49	46.8745
18.508	46.8696
18.526	46.868
18.544	46.8698
18.562	46.8744
18.58	46.8817
18.598	46.8907
18.616	46.9012
18.634	46.9121
18.652	46.9233
18.67	46.9336
18.688	46.9428
18.706	46.9501
18.724	46.9553
18.742	46.9574
18.76	46.9565
18.778	46.9518
18.796	46.9433
18.814	46.9305
18.832	46.9132
18.85	46.891
18.868	46.864
18.886	46.832
18.904	46.7953
18.922	46.7539
18.94	46.7084
18.958	46.6593
18.976	46.6076
18.994	46.5539
19.012	46.4997
19.03	46.4459
19.048	46.3939
19.066	46.3449
19.084	46.2998
19.102	46.2601
19.12	46.226
19.138	46.1984
19.156	46.1772
19.174	46.1625
19.192	46.1536
19.21	46.1498
19.228	46.1502
19.246	46.1533
19.264	46.1583
19.282	46.1628
19.3	46.1664
19.318	46.1666
19.336	46.1634
19.354	46.1543
19.372	46.1397
19.39	46.1183
19.408	46.0902
19.426	46.0554
19.444	46.014
19.462	45.967
19.48	45.9144
19.498	45.858
19.516	45.7978
19.534	45.7359
19.552	45.6724
19.57	45.6089
19.588	45.5463
19.606	45.4853
19.624	45.4271
19.642	45.3718
19.66	45.3207
19.678	45.2735
19.696	45.2311
19.714	45.1934
19.732	45.1608
19.75	45.1332
19.768	45.1106
19.786	45.0929
19.804	45.0798
19.822	45.0711
19.84	45.0663
19.858	45.0649
19.876	45.0666
19.894	45.0702
19.912	45.0756
19.93	45.0813
19.948	45.0874
19.966	45.092
19.984	45.0952
20.002	45.0954
20.02	45.0923
20.038	45.0853
20.056	45.0734
20.074	45.0569
20.092	45.0353
20.11	45.0086
20.128	44.9776
20.146	44.942
20.164	44.9033
20.182	44.8616
20.2	44.8184
20.218	44.7751
20.236	44.732
20.254	44.6918
20.272	44.6541
20.29	44.6217
20.308	44.5942
20.326	44.5733
20.344	44.5594
20.362	44.5527
20.38	44.554
20.398	44.5629
20.416	44.5788
20.434	44.602
20.452	44.6309
20.47	44.6654
20.488	44.7041
20.506	44.7454
20.524	44.7893
20.542	44.8328
20.56	44.8765
20.578	44.9179
20.596	44.9565
20.614	44.9916
20.632	45.0216
20.65	45.0468
20.668	45.0663
20.686	45.08
20.704	45.0882
20.722	45.0906
20.74	45.0879
20.758	45.0808
20.776	45.0692
20.794	45.0549
20.812	45.0376
20.83	45.0187
20.848	44.999
20.866	44.9785
20.884	44.9588
20.902	44.9395
20.92	44.9214
20.938	44.9049
20.956	44.8899
20.974	44.8765
20.992	44.8649
21.01	44.8547
21.028	44.8459
21.046	44.8382
21.064	44.8312
21.082	44.825
21.1	44.8188
21.118	44.8127
21.136	44.8063
21.154	44.7993
21.172	44.7918
21.19	44.7831
21.208	44.7732
21.226	44.762
21.244	44.7488
21.262	44.7339
21.28	44.7165
21.298	44.6965
21.316	44.6736
21.334	44.6472
21.352	44.6175
21.37	44.5837
21.388	44.5458
21.406	44.5037
21.424	44.457
21.442	44.4058
21.46	44.3505
21.478	44.2907
21.496	44.227
21.514	44.1604
21.532	44.0902
21.55	44.0183
21.568	43.9449
21.586	43.8704
21.604	43.797
21.622	43.724
21.64	43.6532
21.658	43.5859
21.676	43.5216
21.694	43.4622
21.712	43.408
21.73	43.3592
21.748	43.3172
21.766	43.2815
21.784	43.2525
21.802	43.2305
21.82	43.2153
21.838	43.2059
21.856	43.2029
21.874	43.2051
21.892	43.2113
21.91	43.222
21.928	43.235
21.946	43.2496
21.964	43.2657
21.982	43.2806
22	43.2949
22.018	43.3074
22.036	43.316
22.054	43.3217
22.072	43.323
22.09	43.3192
22.108	43.3107
22.126	43.297
22.144	43.2779
22.162	43.2538
22.18	43.2253
22.198	43.192
22.216	43.155
22.234	43.1153
22.252	43.0724
22.27	43.0281
22.288	42.9829
22.306	42.9366
22.324	42.891
22.342	42.8459
22.36	42.8017
22.378	42.7597
22.396	42.7193
22.414	42.6811
22.432	42.6456
22.45	42.6125
22.468	42.5818
22.486	42.5535
22.504	42.5276
22.522	42.5035
22.54	42.4811
22.558	42.4603
22.576	42.4408
22.594	42.4225
22.612	42.4054
22.63	42.3892
22.648	42.3739
22.666	42.3596
22.684	42.3462
22.702	42.3337
22.72	42.3223
22.738	42.3119
22.756	42.3025
22.774	42.2941
22.792	42.287
22.81	42.281
22.828	42.2758
22.846	42.2715
22.864	42.2681
22.882	42.2646
22.9	42.2609
22.918	42.257
22.936	42.2516
22.954	42.2447
22.972	42.236
22.99	42.2236
23.008	42.2073
23.026	42.1872
23.044	42.1616
23.062	42.1304
23.08	42.094
23.098	42.0518
23.116	42.0036
23.134	41.95
23.152	41.8924
23.17	41.8299
23.188	41.7638
23.206	41.6961
23.224	41.6258
23.242	41.5544
23.26	41.4852
23.278	41.4169
23.296	41.3511
23.314	41.292
23.332	41.2384
23.35	41.1913
23.368	41.1542
23.386	41.1267
23.404	41.1087
23.422	41.1015
23.44	41.1055
23.458	41.1201
23.476	41.1447
23.494	41.1801
23.512	41.2253
23.53	41.2785
23.548	41.3404
23.566	41.4102
23.584	41.4846
23.602	41.5637
23.62	41.6476
23.638	41.732
23.656	41.8157
23.674	41.9001
23.692	41.9817
23.71	42.0589
23.728	42.1329
23.746	42.2023
23.764	42.2657
23.782	42.3238
23.8	42.3766
23.818	42.4239
23.836	42.4654
23.854	42.502
23.872	42.535
23.89	42.5632
23.908	42.5881
23.926	42.6123
23.944	42.6348
23.962	42.6565
23.98	42.6802
23.998	42.706
24.016	42.7334
24.034	42.7654
24.052	42.8035
24.07	42.8462
24.088	42.8951
24.106	42.9519
24.124	43.016
24.142	43.0867
24.16	43.1638
24.178	43.2485
24.196	43.3389
24.214	43.4317
24.232	43.5276
24.25	43.6266
24.268	43.7253
24.286	43.8229
24.304	43.921
24.322	44.0155
24.34	44.1033
24.358	44.1875
24.376	44.2643
24.394	44.3288
24.412	44.3836
24.43	44.4269
24.448	44.4534
24.466	44.4615
24.484	44.4535
24.502	44.4268
24.52	44.3798
24.538	44.314
24.556	44.2284
24.574	44.1215
24.592	43.9936
24.61	43.8452
24.628	43.6761
24.646	43.4861
24.664	43.2754
24.682	43.0448
24.7	42.7945
24.718	42.5238
24.736	42.2343
24.754	41.9283
24.772	41.6048
24.79	41.2643
24.808	40.9096
24.826	40.5419
24.844	40.1595
24.862	39.7654
24.88	39.3628
24.898	38.9496
24.916	38.5273
24.934	38.0998
24.952	37.6674
24.97	37.2281
24.988	36.788
25.006	36.3533
25.024	35.9203
25.042	35.4908
25.06	35.0693
25.078	34.6574
25.096	34.2531
25.114	33.8571
25.132	33.4703
25.15	33.093
25.168	32.724
25.186	32.3625
25.204	32.0084
25.222	31.6623
25.24	31.3221
25.258	30.986
25.276	30.6553
25.294	30.3291
25.312	30.0056
25.33	29.6836
25.348	29.3644
25.366	29.047
25.384	28.7308
25.402	28.4149
25.42	28.1004
25.438	27.7889
25.456	27.4811
25.474	27.1745
25.492	26.8732
25.51	26.5813
25.528	26.2975
25.546	26.021
25.564	25.7577
25.582	25.5122
25.6	25.2792
25.618	25.0627
25.636	24.8703
25.654	24.7052
25.672	24.5627
25.69	24.4467
25.708	24.3616
25.726	24.3061
25.744	24.2795
25.762	24.2854
25.78	24.3267
25.798	24.3987
25.816	24.5053
25.834	24.653
25.852	24.8441
25.87	25.0729
25.888	25.3464
25.906	25.6724
25.924	26.049
25.942	26.4734
25.96	26.955
25.978	27.5024
25.996	28.1113
26.014	28.7814
26.032	29.5178
26.05	30.3253
26.068	31.2027
26.086	32.1465
26.104	33.1531
26.122	34.2234
26.14	35.3626
26.158	36.5579
26.176	37.7958
26.194	39.0816
26.212	40.4217
26.23	41.7891
26.248	43.1567
26.266	44.5385
26.284	45.936
26.302	47.3184
26.32	48.6574
26.338	49.9753
26.356	51.2652
26.374	52.4976
26.392	53.6478
26.41	54.7358
26.428	55.7558
26.446	56.691
26.464	57.5273
26.482	58.2725
26.5	58.9306
26.518	59.5039
26.536	59.9904
26.554	60.3821
26.572	60.6956
26.59	60.9495
26.608	61.1492
26.626	61.2761
26.644	61.3542
26.662	61.4104
26.68	61.4503
26.698	61.4507
26.716	61.4416
26.734	61.4557
26.752	61.5012
26.77	61.5542
26.788	61.6383
26.806	61.7789
26.824	61.981
26.842	62.2257
26.86	62.5329
26.878	62.9234
26.896	63.4021
26.914	63.9532
26.932	64.5909
26.95	65.3303
26.968	66.2635
26.986	67.4382
27.004	68.6011
27.022	69.4919
27.028	69.6568