File: Bakgrunnsmateriale/MATLAB/FTIR/ftir_data/subBb/Mapping_36/C-4040-8_t28_cm-1.asc
PE IR       SPECTRUM    SPECTRUM    ASCII       PEDS        1.60
  -1
C-9A65~1.ASC
17/05/02
13:16:01.00
17/05/02
13:16:01.00
tln
$C-4040-8_t0028$<tbV0>[-2.5,7.0,8.0,0.0,22,1,0]
370
64

2002,4.07
MIRTGS : RIGHTBACK : INTERNAL 2
MIR : ON : INTERNAL 2
OPTKBR

0.200000
8
8.000000
FILLER
RATIO
SPECTRUM
UNLOCKED 256

DOUBLE
64
COMBINED
1
0
0

1.000000
RATIO

1
0
TRUE
51149
0
LEFT NOT FITTED RIGHT NOT FITTED 0
NONE
NONE
15600
12
4.427000
51148
TRUE
1 0 8 72 0 0 0 0

15798

#HDR
-1
-1
#GR
CM-1
%T
2.38419e-05
0.0
7800
-1.000000
7431
8
77.1982
36.9513
#DATA
7800	76.7479
7795	75.9171
7790	73.2226
7785	73.2537
7780	68.7708
7775	64.9221
7770	69.1046
7765	70.3976
7760	66.4102
7755	66.059
7750	71.7585
7745	71.899
7740	68.4173
7735	72.4508
7730	73.1025
7725	70.0495
7720	68.1616
7715	67.2091
7710	64.1304
7705	65.1079
7700	64.2158
7695	61.5767
7690	63.2713
7685	66.0807
7680	71.5081
7675	71.7897
7670	66.5656
7665	63.612
7660	65.231
7655	68.4369
7650	71.7968
7645	73.5649
7640	68.7912
7635	68.3022
7630	69.4227
7625	67.7972
7620	64.5988
7615	66.1029
7610	71.6178
7605	69.4173
7600	65.6746
7595	68.2657
7590	68.8632
7585	68.5608
7580	68.1626
7575	67.2799
7570	67.4899
7565	64.7367
7560	63.3897
7555	65.7562
7550	67.3456
7545	67.7812
7540	63.6562
7535	59.514
7530	65.9707
7525	68.3547
7520	63.539
7515	61.9566
7510	63.6146
7505	66.152
7500	65.9995
7495	63.5821
7490	63.2316
7485	62.2565
7480	61.5931
7475	62.761
7470	63.0378
7465	65.0722
7460	66.4994
7455	65.3901
7450	68.3305
7445	72.4149
7440	70.5205
7435	68.109
7430	63.3259
7425	61.2813
7420	63.7678
7415	69.1507
7410	70.5585
7405	65.6958
7400	62.6416
7395	61.9922
7390	61.996
7385	64.4038
7380	67.2139
7375	65.7383
7370	61.5636
7365	59.9344
7360	63.3457
7355	67.2625
7350	66.8658
7345	61.6005
7340	58.0166
7335	61.6959
7330	64.1379
7325	64.4909
7320	64.5963
7315	63.5243
7310	63.4528
7305	63.0182
7300	63.4206
7295	63.0802
7290	64.2631
7285	69.2141
7280	69.5969
7275	66.1375
7270	66.6232
7265	66.0194
7260	65.611
7255	64.1364
7250	62.5815
7245	61.5716
7240	60.8352
7235	62.6642
7230	66.6026
7225	67.6682
7220	66.3643
7215	66.9739
7210	66.5703
7205	66.9536
7200	67.0705
7195	66.2697
7190	66.445
7185	66.297
7180	65.4707
7175	63.5733
7170	62.0028
7165	63.5901
7160	65.6116
7155	66.0642
7150	65.0501
7145	65.9902
7140	65.939
7135	65.1071
7130	66.2282
7125	64.9505
7120	62.7917
7115	64.0972
7110	64.5475
7105	63.8095
7100	64.8901
7095	65.2142
7090	65.8331
7085	64.891
7080	63.3074
7075	63.9097
7070	64.9274
7065	63.6244
7060	61.4187
7055	61.4629
7050	63.5966
7045	65.1324
7040	64.095
7035	64.2652
7030	67.931
7025	67.3308
7020	63.0767
7015	63.1611
7010	63.6655
7005	64.5576
7000	65.8887
6995	66.6762
6990	65.696
6985	64.1198
6980	63.019
6975	62.4804
6970	64.5021
6965	66.1901
6960	65.5109
6955	64.5427
6950	64.1659
6945	62.949
6940	61.869
6935	62.9908
6930	64.9098
6925	65.959
6920	66.4027
6915	64.324
6910	62.9883
6905	63.054
6900	63.8448
6895	63.3929
6890	63.1648
6885	64.6921
6880	65.8421
6875	65.5123
6870	64.9975
6865	64.3666
6860	63.0655
6855	63.4018
6850	64.7276
6845	63.7535
6840	62.8694
6835	62.9241
6830	64.7211
6825	65.6502
6820	65.1641
6815	65.5825
6810	66.4845
6805	66.9161
6800	66.1943
6795	65.2407
6790	64.4957
6785	64.482
6780	64.5378
6775	64.7267
6770	64.4352
6765	63.9787
6760	64.0589
6755	63.7026
6750	63.5881
6745	64.6391
6740	65.5697
6735	65.5538
6730	63.9898
6725	62.9856
6720	63.3657
6715	64.309
6710	64.8557
6705	64.5359
6700	64.5755
6695	65.2889
6690	66.0907
6685	64.6383
6680	64.2407
6675	64.877
6670	64.0721
6665	63.918
6660	64.6013
6655	66.2241
6650	66.0819
6645	64.1098
6640	64.4265
6635	66.7426
6630	67.1484
6625	66.7327
6620	67.1489
6615	65.6758
6610	64.7027
6605	64.0795
6600	64.1099
6595	63.4954
6590	63.0508
6585	64.359
6580	64.9657
6575	64.019
6570	63.602
6565	64.5148
6560	64.8112
6555	65.0769
6550	64.7202
6545	64.545
6540	64.8139
6535	64.1643
6530	63.9749
6525	64.8815
6520	65.8821
6515	66.3756
6510	65.3817
6505	64.7125
6500	64.3831
6495	64.9653
6490	66.0871
6485	65.634
6480	64.4836
6475	63.8986
6470	63.8445
6465	65.354
6460	65.9352
6455	65.3081
6450	64.0926
6445	63.5988
6440	63.6111
6435	64.0831
6430	65.279
6425	64.9939
6420	64.4432
6415	63.9918
6410	64.5725
6405	65.4676
6400	65.2223
6395	65.3204
6390	65.3872
6385	65.1819
6380	65.0797
6375	65.3328
6370	65.719
6365	64.6888
6360	64.5788
6355	65.2416
6350	65.5127
6345	64.4705
6340	64.0285
6335	63.9163
6330	63.5542
6325	64.4408
6320	64.7203
6315	64.6473
6310	64.689
6305	64.5605
6300	64.6868
6295	64.881
6290	65.7835
6285	65.7692
6280	65.252
6275	65.2522
6270	64.9621
6265	64.4846
6260	64.4511
6255	64.5346
6250	64.9789
6245	65.1323
6240	64.5364
6235	64.1538
6230	64.6859
6225	65.3896
6220	64.5774
6215	64.3095
6210	65.3928
6205	64.8355
6200	63.9963
6195	64.542
6190	64.1465
6185	63.6109
6180	63.8951
6175	64.7938
6170	65.5067
6165	65.9256
6160	65.9876
6155	65.873
6150	65.3605
6145	64.878
6140	65.0679
6135	65.729
6130	65.6236
6125	64.7041
6120	64.5614
6115	64.8756
6110	65.1441
6105	65.3816
6100	65.5859
6095	65.4201
6090	65.4776
6085	64.879
6080	63.9268
6075	64.2097
6070	64.8663
6065	65.2786
6060	64.972
6055	64.9565
6050	64.801
6045	64.4604
6040	65.0602
6035	64.7767
6030	64.291
6025	64.859
6020	65.3837
6015	65.1723
6010	65.0123
6005	65.4559
6000	65.3165
5995	65.0993
5990	64.9961
5985	65.0049
5980	65.4341
5975	65.0529
5970	65.0222
5965	64.7003
5960	64.1146
5955	64.1322
5950	64.5178
5945	64.8076
5940	64.8669
5935	65.4083
5930	65.724
5925	65.0789
5920	64.6983
5915	64.9641
5910	65.2184
5905	65.1869
5900	65.0814
5895	65.0081
5890	64.8542
5885	65.0686
5880	65.0088
5875	64.6922
5870	64.7079
5865	64.6783
5860	64.7297
5855	64.9037
5850	65.0899
5845	65.2257
5840	65.1852
5835	65.2277
5830	65.2265
5825	65.0486
5820	65.1048
5815	65.1176
5810	65.4361
5805	65.1762
5800	64.6607
5795	64.7412
5790	64.201
5785	63.7123
5780	63.7224
5775	63.7122
5770	64.2668
5765	64.7225
5760	64.9019
5755	65.1465
5750	65.7896
5745	65.9295
5740	65.6678
5735	65.3681
5730	64.9222
5725	65.0578
5720	65.5296
5715	65.1659
5710	64.3559
5705	64.3673
5700	65.1828
5695	65.9396
5690	65.8939
5685	65.2955
5680	65.2681
5675	65.155
5670	64.6622
5665	64.0959
5660	64.4925
5655	65.4588
5650	65.4765
5645	65.3402
5640	65.163
5635	65.1664
5630	65.385
5625	64.723
5620	64.1836
5615	64.903
5610	65.6381
5605	65.5564
5600	65.5106
5595	65.547
5590	65.7249
5585	65.1707
5580	65.1333
5575	64.9971
5570	64.9947
5565	64.8699
5560	64.8494
5555	65.1789
5550	65.1002
5545	65.0376
5540	65.3362
5535	65.1625
5530	64.9726
5525	64.987
5520	64.914
5515	64.6983
5510	64.3475
5505	64.2822
5500	64.9009
5495	65.0991
5490	65.0214
5485	65.0908
5480	65.0078
5475	64.7342
5470	64.6953
5465	64.4425
5460	64.8977
5455	65.605
5450	65.6729
5445	64.9685
5440	64.2683
5435	63.9738
5430	64.5284
5425	65.0461
5420	64.9
5415	65.151
5410	65.612
5405	65.7941
5400	65.511
5395	65.5139
5390	65.6958
5385	65.5644
5380	65.9832
5375	65.9282
5370	64.99
5365	64.5417
5360	65.0676
5355	65.3405
5350	65.5297
5345	64.865
5340	64.0137
5335	64.3224
5330	64.5617
5325	64.3868
5320	64.0656
5315	63.3392
5310	64.3469
5305	65.7745
5300	64.7832
5295	62.5972
5290	62.7918
5285	64.5286
5280	66.0955
5275	67.039
5270	66.7177
5265	66.4477
5260	66.1098
5255	65.8616
5250	65.074
5245	65.0667
5240	64.9591
5235	64.5378
5230	64.3694
5225	64.3496
5220	64.7821
5215	64.7575
5210	64.4509
5205	64.5425
5200	64.3106
5195	64.778
5190	65.0558
5185	64.7168
5180	64.5251
5175	64.7237
5170	64.6301
5165	64.7159
5160	65.1142
5155	64.8476
5150	64.5564
5145	64.7703
5140	65.0893
5135	65.1288
5130	64.9034
5125	64.8733
5120	64.6941
5115	64.7172
5110	65.1664
5105	65.0837
5100	65.1508
5095	65.5825
5090	65.5326
5085	65.191
5080	65.2059
5075	65.1976
5070	64.8115
5065	64.8338
5060	64.9556
5055	64.8307
5050	65.0532
5045	65.4846
5040	65.2508
5035	64.8991
5030	64.8699
5025	64.9809
5020	65.2604
5015	65.2338
5010	65.0464
5005	65.0439
5000	65.0649
4995	65.0497
4990	64.8591
4985	64.8064
4980	64.9376
4975	64.9744
4970	65.1752
4965	65.191
4960	65.1278
4955	64.9444
4950	64.8369
4945	65.0864
4940	65.2787
4935	65.1947
4930	64.8807
4925	64.3539
4920	64.4995
4915	64.9002
4910	64.6068
4905	64.62
4900	65.0495
4895	65.2824
4890	65.3001
4885	64.8657
4880	64.7125
4875	64.9602
4870	65.1623
4865	65.1511
4860	64.9555
4855	64.8356
4850	64.7922
4845	64.7452
4840	65.0732
4835	65.43
4830	65.5482
4825	65.4045
4820	65.306
4815	65.1655
4810	64.9617
4805	64.8156
4800	64.8542
4795	65.0679
4790	65.2101
4785	65.1736
4780	65.2901
4775	65.4219
4770	65.2998
4765	65.0969
4760	65.0238
4755	65.0488
4750	65.2602
4745	65.2932
4740	64.9413
4735	64.7185
4730	64.976
4725	65.1183
4720	64.8784
4715	64.8592
4710	64.7022
4705	64.6654
4700	64.9539
4695	65.2272
4690	65.121
4685	64.8871
4680	65.0405
4675	65.1741
4670	65.1407
4665	65.1402
4660	65.3079
4655	65.1437
4650	64.9665
4645	65.0505
4640	65.0304
4635	65.0881
4630	65.3794
4625	65.3529
4620	65.2372
4615	65.2493
4610	65.2174
4605	65.0501
4600	65.1742
4595	65.1444
4590	65.0344
4585	65.0664
4580	65.1033
4575	65.1267
4570	65.0812
4565	64.8973
4560	64.8727
4555	64.7362
4550	64.6564
4545	64.8024
4540	65.0368
4535	65.1979
4530	64.8409
4525	64.6745
4520	64.7886
4515	65.0696
4510	64.9671
4505	64.8564
4500	65.0895
4495	65.1843
4490	65.0169
4485	65.038
4480	65.2256
4475	65.1453
4470	64.943
4465	64.9597
4460	65.2217
4455	65.0212
4450	64.7132
4445	64.8095
4440	65.2134
4435	65.3287
4430	64.7905
4425	64.5302
4420	64.6018
4415	64.6694
4410	64.6374
4405	64.9456
4400	64.5046
4395	63.1578
4390	62.0514
4385	58.59
4380	61.6378
4375	65.5149
4370	67.0468
4365	66.3667
4360	65.5431
4355	65.3247
4350	65.2461
4345	65.4533
4340	65.339
4335	65.1857
4330	65.0254
4325	64.9248
4320	65.0465
4315	65.2805
4310	65.2923
4305	64.9972
4300	64.8212
4295	64.8351
4290	64.7496
4285	65.1091
4280	65.472
4275	65.408
4270	65.3103
4265	65.237
4260	65.2725
4255	65.299
4250	65.1814
4245	64.981
4240	65.0997
4235	65.2775
4230	65.2067
4225	64.9515
4220	64.7013
4215	64.6951
4210	64.9123
4205	65.0782
4200	65.1782
4195	65.3066
4190	65.7092
4185	65.5432
4180	65.3214
4175	64.9359
4170	64.4452
4165	64.8448
4160	65.3454
4155	65.4395
4150	65.212
4145	65.0185
4140	65.0565
4135	65.1493
4130	65.204
4125	65.151
4120	65.1032
4115	65.2181
4110	65.4376
4105	65.4171
4100	65.1866
4095	65.3068
4090	65.3075
4085	65.0184
4080	64.797
4075	64.9053
4070	65.0872
4065	65.2152
4060	65.4147
4055	65.3352
4050	65.2788
4045	65.3345
4040	65.2603
4035	65.1357
4030	64.9476
4025	64.9884
4020	65.1647
4015	65.2902
4010	65.0515
4005	64.9056
4000	65.0316
3995	65.2504
3990	65.3651
3985	65.3919
3980	65.2076
3975	64.9764
3970	65.1174
3965	65.3651
3960	65.4436
3955	65.267
3950	65.1479
3945	65.3582
3940	65.4612
3935	65.328
3930	65.182
3925	65.1957
3920	65.1905
3915	65.1422
3910	65.0915
3905	65.0532
3900	65.0777
3895	65.1626
3890	65.2562
3885	65.2972
3880	65.163
3875	65.1149
3870	65.2414
3865	65.2663
3860	65.2789
3855	65.3193
3850	65.2666
3845	64.9979
3840	64.8764
3835	64.9847
3830	65.1019
3825	65.3429
3820	65.4176
3815	65.3529
3810	65.2802
3805	65.2965
3800	65.2
3795	65.1446
3790	65.2127
3785	65.2337
3780	65.1688
3775	65.024
3770	65.0862
3765	65.1248
3760	65.2824
3755	65.385
3750	65.2795
3745	65.205
3740	65.1667
3735	65.2113
3730	65.2757
3725	65.2154
3720	65.1931
3715	65.1672
3710	65.241
3705	65.3363
3700	65.273
3695	65.2254
3690	65.1911
3685	65.1742
3680	65.1644
3675	65.2194
3670	65.2711
3665	65.245
3660	65.3316
3655	65.3822
3650	65.3859
3645	65.2868
3640	65.25
3635	65.3078
3630	65.1992
3625	65.1572
3620	65.2701
3615	65.2201
3610	65.1397
3605	65.261
3600	65.3329
3595	65.3067
3590	65.1915
3585	65.1232
3580	65.2501
3575	65.3563
3570	65.3331
3565	65.2726
3560	65.3789
3555	65.4112
3550	65.2418
3545	65.1949
3540	65.2359
3535	65.1921
3530	65.1414
3525	65.0409
3520	65.1049
3515	65.2571
3510	65.1753
3505	64.9788
3500	65.0139
3495	65.1654
3490	65.2275
3485	65.2205
3480	65.1607
3475	65.2499
3470	65.2907
3465	65.3192
3460	65.3168
3455	65.3306
3450	65.4574
3445	65.3899
3440	65.1721
3435	65.1407
3430	65.3109
3425	65.3538
3420	65.2746
3415	65.248
3410	65.2341
3405	65.2753
3400	65.315
3395	65.1539
3390	64.8638
3385	64.8888
3380	65.0257
3375	65.0876
3370	65.1816
3365	65.2913
3360	65.2544
3355	65.2711
3350	65.2735
3345	65.2282
3340	65.1979
3335	65.1351
3330	65.1098
3325	65.1807
3320	65.2429
3315	65.272
3310	65.2942
3305	65.1937
3300	65.1753
3295	65.2313
3290	65.2096
3285	65.1693
3280	65.0871
3275	65.1299
3270	65.2529
3265	65.2824
3260	65.1266
3255	64.9184
3250	64.9416
3245	65.1137
3240	65.198
3235	65.1739
3230	65.2084
3225	65.2261
3220	65.1321
3215	65.108
3210	65.1266
3205	65.1789
3200	65.2417
3195	65.2085
3190	65.2444
3185	65.2699
3180	65.2205
3175	65.1549
3170	65.13
3165	65.2043
3160	65.2705
3155	65.2499
3150	65.3056
3145	65.3059
3140	65.1845
3135	65.112
3130	65.1732
3125	65.2198
3120	65.3517
3115	65.3538
3110	65.2641
3105	65.2681
3100	65.2771
3095	65.2627
3090	65.232
3085	65.2383
3080	65.2538
3075	65.2064
3070	65.1551
3065	65.1595
3060	65.1809
3055	65.0927
3050	65.1819
3045	65.2116
3040	65.1217
3035	65.0843
3030	65.2157
3025	65.2689
3020	65.2608
3015	65.2814
3010	65.2397
3005	65.256
3000	65.292
2995	65.2249
2990	65.1384
2985	65.1523
2980	65.1065
2975	65.0812
2970	65.0995
2965	65.0768
2960	65.0711
2955	65.0279
2950	65.0533
2945	65.1161
2940	65.2886
2935	65.2376
2930	64.9955
2925	64.9479
2920	65.0199
2915	65.0214
2910	64.9858
2905	65.0539
2900	65.0392
2895	65.0069
2890	65.0763
2885	65.0699
2880	65.1314
2875	65.1965
2870	65.1574
2865	65.1597
2860	65.1984
2855	65.1988
2850	65.1287
2845	65.1391
2840	65.1861
2835	65.2187
2830	65.2827
2825	65.3409
2820	65.3512
2815	65.2721
2810	65.2901
2805	65.3727
2800	65.4014
2795	65.406
2790	65.3783
2785	65.3239
2780	65.3283
2775	65.3811
2770	65.2894
2765	65.2102
2760	65.3009
2755	65.3302
2750	65.2174
2745	65.2194
2740	65.3107
2735	65.2718
2730	65.3082
2725	65.2945
2720	65.1948
2715	65.2985
2710	65.3891
2705	65.4063
2700	65.4474
2695	65.3477
2690	65.2502
2685	65.2807
2680	65.3081
2675	65.3182
2670	65.3008
2665	65.3018
2660	65.2705
2655	65.2422
2650	65.2421
2645	65.1764
2640	65.1675
2635	65.2522
2630	65.3623
2625	65.366
2620	65.2654
2615	65.2281
2610	65.2472
2605	65.2998
2600	65.3453
2595	65.3794
2590	65.346
2585	65.2709
2580	65.2611
2575	65.2815
2570	65.3203
2565	65.2802
2560	65.2694
2555	65.3395
2550	65.3643
2545	65.3332
2540	65.2991
2535	65.2535
2530	65.2297
2525	65.3047
2520	65.4332
2515	65.4054
2510	65.2643
2505	65.2987
2500	65.3743
2495	65.3329
2490	65.3097
2485	65.3546
2480	65.3641
2475	65.3112
2470	65.2811
2465	65.3189
2460	65.3323
2455	65.3592
2450	65.3642
2445	65.3397
2440	65.3503
2435	65.4151
2430	65.3767
2425	65.3088
2420	65.3674
2415	65.3633
2410	65.3218
2405	65.361
2400	65.3375
2395	65.3065
2390	65.2628
2385	65.2276
2380	65.2311
2375	65.3075
2370	65.3553
2365	65.2757
2360	65.2021
2355	65.2293
2350	65.3111
2345	65.2753
2340	65.2032
2335	65.3261
2330	65.3411
2325	65.2859
2320	65.2884
2315	65.2796
2310	65.2777
2305	65.2725
2300	65.324
2295	65.4365
2290	65.5604
2285	65.5524
2280	65.4245
2275	65.3123
2270	65.3486
2265	65.4211
2260	65.3492
2255	65.3486
2250	65.445
2245	65.4299
2240	65.3727
2235	65.3279
2230	65.3077
2225	65.3193
2220	65.3872
2215	65.4015
2210	65.3529
2205	65.3659
2200	65.3286
2195	65.3222
2190	65.3499
2185	65.4224
2180	65.3854
2175	65.326
2170	65.4159
2165	65.4032
2160	65.3296
2155	65.3835
2150	65.4431
2145	65.3914
2140	65.382
2135	65.4623
2130	65.4509
2125	65.4205
2120	65.4207
2115	65.3214
2110	65.3186
2105	65.4088
2100	65.4007
2095	65.4011
2090	65.4704
2085	65.4641
2080	65.3624
2075	65.2029
2070	65.1402
2065	65.2369
2060	65.3184
2055	65.3234
2050	65.3576
2045	65.4248
2040	65.4415
2035	65.4633
2030	65.3617
2025	65.327
2020	65.3761
2015	65.3928
2010	65.4731
2005	65.4445
2000	65.4128
1995	65.3447
1990	65.2928
1985	65.4057
1980	65.5304
1975	65.5284
1970	65.4656
1965	65.405
1960	65.38
1955	65.3842
1950	65.3207
1945	65.2298
1940	65.2621
1935	65.3313
1930	65.3865
1925	65.3547
1920	65.3599
1915	65.3609
1910	65.3738
1905	65.4026
1900	65.4329
1895	65.4703
1890	65.4008
1885	65.3459
1880	65.3296
1875	65.3695
1870	65.3976
1865	65.3585
1860	65.3573
1855	65.3974
1850	65.4396
1845	65.4874
1840	65.4778
1835	65.3821
1830	65.272
1825	65.2804
1820	65.3276
1815	65.3166
1810	65.2361
1805	65.2531
1800	65.3408
1795	65.3304
1790	65.3155
1785	65.3621
1780	65.3657
1775	65.3465
1770	65.3835
1765	65.3898
1760	65.3301
1755	65.2302
1750	65.1973
1745	65.2067
1740	65.195
1735	65.1193
1730	65.047
1725	65.1258
1720	65.1709
1715	65.1686
1710	65.3007
1705	65.3616
1700	65.3496
1695	65.1956
1690	65.1687
1685	65.2164
1680	65.2685
1675	65.3111
1670	65.3183
1665	65.3018
1660	65.3254
1655	65.2789
1650	65.2349
1645	65.2828
1640	65.306
1635	65.2905
1630	65.2697
1625	65.2769
1620	65.2624
1615	65.2282
1610	65.2187
1605	65.1456
1600	65.1267
1595	65.1782
1590	65.2326
1585	65.2273
1580	65.2231
1575	65.1388
1570	65.0348
1565	65.1418
1560	65.2531
1555	65.2625
1550	65.1621
1545	65.1226
1540	65.1076
1535	65.1414
1530	65.1649
1525	65.1026
1520	65.0899
1515	65.1524
1510	65.1056
1505	65.0613
1500	65.0419
1495	65.167
1490	65.3266
1485	65.2792
1480	65.1361
1475	65.0785
1470	65.0571
1465	65.0215
1460	65.0095
1455	65.0751
1450	65.1855
1445	65.1233
1440	65.1219
1435	65.3023
1430	65.282
1425	65.1875
1420	65.2186
1415	65.1789
1410	65.0874
1405	64.9856
1400	64.9385
1395	65.0422
1390	65.1021
1385	65
1380	64.9293
1375	65.0436
1370	65.2308
1365	65.288
1360	65.175
1355	65.1042
1350	65.1223
1345	65.1601
1340	65.1955
1335	65.2278
1330	65.1993
1325	65.1805
1320	65.1872
1315	65.1218
1310	65.0374
1305	65.0563
1300	65.1295
1295	65.1749
1290	65.1775
1285	65.1206
1280	65.049
1275	65.0215
1270	65.0508
1265	65.0666
1260	65.0657
1255	65.0489
1250	64.979
1245	64.9839
1240	65.0579
1235	65.1313
1230	65.1341
1225	65.0588
1220	64.9697
1215	64.8986
1210	64.8835
1205	65.0327
1200	65.1271
1195	65.0047
1190	64.8447
1185	64.877
1180	64.9632
1175	64.9719
1170	65.0048
1165	64.9554
1160	64.852
1155	64.8791
1150	64.9377
1145	64.9548
1140	64.8806
1135	64.8919
1130	64.9653
1125	64.9482
1120	64.8732
1115	64.8503
1110	64.9616
1105	65.0236
1100	65.0201
1095	64.9754
1090	64.9762
1085	64.9749
1080	64.7898
1075	64.7778
1070	64.8686
1065	64.8937
1060	64.8583
1055	64.8543
1050	64.8613
1045	64.8274
1040	64.7913
1035	64.7476
1030	64.7177
1025	64.741
1020	64.7598
1015	64.776
1010	64.8354
1005	64.8495
1000	64.8167
995	 64.8698
990	 64.9392
985	 64.9189
980	 65.0135
975	 64.9435
970	 64.7647
965	 64.7269
960	 64.6808
955	 64.711
950	 64.9484
945	 64.8477
940	 64.5658
935	 64.5765
930	 64.7495
925	 64.7277
920	 64.4942
915	 64.6817
910	 64.764
905	 64.2858
900	 63.58
895	 63.6517
890	 64.2776
885	 64.6543
880	 64.868
875	 64.7011
870	 64.5357
865	 64.5714
860	 64.4566
855	 64.5561
850	 64.5856
845	 64.4275
840	 64.72
835	 64.8178
830	 64.72
825	 64.5278
820	 64.4068
815	 64.2731
810	 64.2236
805	 64.2789
800	 64.2464
795	 64.2266
790	 64.19
785	 63.9979
780	 64.1114
775	 64.2679
770	 64.0284
765	 63.9166
760	 63.9703
755	 63.9541
750	 64.003
745	 63.9132
740	 63.7229
735	 63.8054
730	 63.8267
725	 63.5269
720	 63.3056
715	 63.4964
710	 63.5652
705	 63.4735
700	 63.184
695	 63.2451
690	 63.4713
685	 63.4045
680	 63.2781
675	 63.3739
670	 63.5503
665	 63.4695
660	 63.2588
655	 63.2653
650	 63.3224
645	 63.1191
640	 62.929
635	 63.0685
630	 62.9223
625	 62.8963
620	 63.1071
615	 62.9965
610	 63.1086
605	 63.1927
600	 62.8688
595	 62.744
590	 62.8556
585	 63.0316
580	 62.9113
575	 62.538
570	 62.3857
565	 62.4783
560	 62.3132
555	 62.0075
550	 61.7463
545	 61.8625
540	 62.2242
535	 62.0878
530	 61.8587
525	 61.8605
520	 61.8154
515	 62.1065
510	 62.2501
505	 62.2221
500	 62.1617
495	 61.8393
490	 60.7928
485	 60.3888
480	 60.5022
475	 60.9783
470	 61.3137
465	 60.6035
460	 60.1761
455	 61.2396
450	 60.8086
445	 60.2249
440	 61.0471
435	 60.9321
430	 59.3207
425	 58.4772
420	 58.8906
415	 58.878
410	 57.4596
405	 58.498
400	 57.6002
395	 55.4179
390	 61.9863
385	 70.4975
380	 74.0654
375	 61.6496
370	 36.9513