File: Bakgrunnsmateriale/MATLAB/FTIR/ftir_data/subBb/Mapping_36/C-4040-8_t11_cm-1.asc
PE IR       SPECTRUM    SPECTRUM    ASCII       PEDS        1.60
  -1
C-1AE4~1.ASC
17/05/02
11:42:14.00
17/05/02
11:42:14.00
tln
$C-4040-8_t0011$<tbV0>[-7.5,-8.0,8.0,0.0,22,1,0]
370
64

2002,4.07
MIRTGS : RIGHTBACK : INTERNAL 2
MIR : ON : INTERNAL 2
OPTKBR

0.200000
8
8.000000
FILLER
RATIO
SPECTRUM
UNLOCKED 256

DOUBLE
64
COMBINED
1
0
0

1.000000
RATIO

1
0
TRUE
51149
0
LEFT NOT FITTED RIGHT NOT FITTED 0
NONE
NONE
15600
12
4.427000
51148
TRUE
1 0 8 72 0 0 0 0

15798

#HDR
-1
-1
#GR
CM-1
%T
2.38419e-05
0.0
7800
-1.000000
7431
8
76.4695
19.314
#DATA
7800	64.5421
7795	63.4911
7790	66.0611
7785	68.7743
7780	67.8659
7775	66.1581
7770	68.5721
7765	71.2918
7760	69.0594
7755	66.4135
7750	65.9117
7745	67.9822
7740	71.0347
7735	71.8497
7730	64.287
7725	58.9696
7720	59.6675
7715	65.7023
7710	69.6713
7705	67.2689
7700	69.7824
7695	66.971
7690	58.3017
7685	59.3997
7680	66.4872
7675	71.0702
7670	68.9116
7665	66.5688
7660	67.4473
7655	67.0908
7650	65.5064
7645	62.376
7640	64.5507
7635	65.9094
7630	62.7313
7625	62.5483
7620	61.7004
7615	59.5961
7610	60.8578
7605	62.6017
7600	61.5861
7595	59.5628
7590	61.5782
7585	65.0331
7580	65.6712
7575	64.8542
7570	65.6897
7565	69.352
7560	67.5504
7555	62.3039
7550	60.978
7545	63.1298
7540	66.171
7535	64.6104
7530	62.9803
7525	61.6277
7520	60.3577
7515	61.0073
7510	62.4466
7505	63.4724
7500	63.4035
7495	64.0715
7490	64.6055
7485	63.169
7480	61.0071
7475	58.623
7470	60.2958
7465	62.1011
7460	61.6822
7455	61.0768
7450	61.2782
7445	61.9705
7440	60.8226
7435	62.502
7430	64.4736
7425	64.7295
7420	64.3378
7415	62.948
7410	63.5172
7405	64.5598
7400	65.8262
7395	65.5445
7390	63.884
7385	63.9987
7380	63.8808
7375	60.7894
7370	60.8524
7365	65.3122
7360	66.4634
7355	63.6892
7350	61.3558
7345	60.2455
7340	61.4991
7335	62.1455
7330	63.1996
7325	64.3003
7320	65.234
7315	65.303
7310	66.8523
7305	66.7177
7300	64.988
7295	65.831
7290	67.9672
7285	67.3915
7280	67.8358
7275	68.0357
7270	67.0726
7265	65.7037
7260	64.2844
7255	67.2204
7250	69.4601
7245	66.4461
7240	63.3503
7235	64.2957
7230	65.1291
7225	65.8693
7220	66.0146
7215	64.6919
7210	63.2528
7205	63.8329
7200	66.7924
7195	67.522
7190	64.6074
7185	64.7281
7180	67.1001
7175	66.7523
7170	65.0519
7165	64.5391
7160	63.96
7155	62.3272
7150	62.062
7145	63.5055
7140	64.9896
7135	64.7722
7130	64.1769
7125	64.1298
7120	64.1063
7115	64.4906
7110	64.8459
7105	64.5295
7100	63.7181
7095	64.0645
7090	64.0117
7085	64.0076
7080	64.8809
7075	65.6603
7070	63.4556
7065	62.4034
7060	62.7245
7055	61.9647
7050	64.3331
7045	66.7604
7040	65.5002
7035	64.6078
7030	64.1215
7025	62.8293
7020	62.0963
7015	63.1267
7010	63.0606
7005	63.116
7000	65.7567
6995	66.7887
6990	65.917
6985	63.5405
6980	62.2958
6975	64.4655
6970	63.8872
6965	62.1826
6960	61.9354
6955	63.6374
6950	65.0345
6945	65.5231
6940	65.8141
6935	64.2067
6930	63.0645
6925	63.8672
6920	63.7403
6915	63.6014
6910	64.7132
6905	64.4345
6900	64.1631
6895	64.7812
6890	65.3132
6885	64.9406
6880	64.0191
6875	63.9106
6870	64.0797
6865	64.5578
6860	64.6636
6855	65.0423
6850	64.1939
6845	63.9094
6840	64.4418
6835	63.774
6830	64.717
6825	64.6975
6820	64.8584
6815	64.798
6810	62.7691
6805	62.2043
6800	62.8342
6795	64.129
6790	64.8503
6785	64.9134
6780	65.6576
6775	65.7933
6770	65.2709
6765	65.1213
6760	64.5029
6755	64.6773
6750	64.2528
6745	62.2835
6740	62.3464
6735	63.689
6730	64.0527
6725	65.0177
6720	65.1529
6715	63.2828
6710	62.6601
6705	63.4864
6700	63.7242
6695	64.5225
6690	65.0613
6685	65.4238
6680	65.3533
6675	64.2544
6670	63.8742
6665	63.6377
6660	62.9677
6655	62.3411
6650	61.371
6645	63.4099
6640	65.3637
6635	64.5093
6630	62.5899
6625	61.8663
6620	63.3836
6615	65.3776
6610	65.2778
6605	64.8885
6600	64.5013
6595	64.2186
6590	63.8531
6585	63.1377
6580	63.236
6575	64.8742
6570	65.2742
6565	63.4242
6560	63.5308
6555	63.5767
6550	63.7602
6545	64.3388
6540	63.8428
6535	64.2595
6530	64.3987
6525	64.4067
6520	64.4739
6515	64.1069
6510	64.0795
6505	64.0928
6500	64.3974
6495	64.3665
6490	64.1613
6485	65.0605
6480	66.0682
6475	65.4063
6470	64.6425
6465	64.0408
6460	63.867
6455	64.1247
6450	63.8968
6445	64.4629
6440	64.853
6435	64.0432
6430	63.6713
6425	63.3481
6420	63.2462
6415	63.5752
6410	64.5156
6405	64.7129
6400	64.2422
6395	64.3597
6390	63.7485
6385	63.4088
6380	64.5898
6375	65.0121
6370	63.9592
6365	63.5558
6360	63.8995
6355	64.2082
6350	64.5311
6345	64.9686
6340	64.8071
6335	64.2702
6330	63.9674
6325	63.4055
6320	63.6367
6315	63.6636
6310	64.3858
6305	64.6461
6300	64.2693
6295	64.8703
6290	65.4266
6285	64.8818
6280	64.1049
6275	64.3777
6270	63.9647
6265	63.6939
6260	63.9014
6255	63.8906
6250	63.5008
6245	63.4972
6240	63.9151
6235	64.2463
6230	64.2248
6225	63.7734
6220	64.1367
6215	64.1964
6210	63.2846
6205	63.2505
6200	64.7112
6195	65.6581
6190	64.8714
6185	63.9863
6180	64.1153
6175	64.7705
6170	63.8199
6165	62.7312
6160	63.6597
6155	65.0121
6150	64.9259
6145	64.494
6140	64.4289
6135	64.0859
6130	63.931
6125	64.2611
6120	64.2606
6115	64.043
6110	63.6978
6105	63.8819
6100	64.9707
6095	65.028
6090	63.6984
6085	63.5993
6080	63.9493
6075	63.4437
6070	63.1888
6065	63.2791
6060	63.4393
6055	63.872
6050	64.2487
6045	63.6785
6040	63.3791
6035	64.2562
6030	64.806
6025	64.5706
6020	63.7695
6015	63.541
6010	64.1551
6005	64.7267
6000	64.3238
5995	63.9779
5990	64.0857
5985	63.8294
5980	64.3051
5975	64.9711
5970	64.7332
5965	64.4989
5960	64.5565
5955	64.433
5950	63.6636
5945	63.4118
5940	63.9198
5935	63.986
5930	64.2204
5925	64.1622
5920	64.5178
5915	65.0937
5910	65.3169
5905	65.0149
5900	64.2269
5895	63.7719
5890	64.2012
5885	64.6028
5880	64.2873
5875	64.276
5870	63.7166
5865	63.6123
5860	64.2548
5855	64.6684
5850	64.3746
5845	64.0783
5840	64.7441
5835	65.2398
5830	64.7604
5825	64.1783
5820	64.056
5815	64.1209
5810	64.4184
5805	64.7847
5800	64.5139
5795	64.1232
5790	64.0327
5785	64.4915
5780	64.4809
5775	63.9693
5770	63.8756
5765	64.0765
5760	63.6105
5755	63.3135
5750	64.0673
5745	64.7379
5740	64.6622
5735	64.1054
5730	63.5509
5725	63.693
5720	64.3983
5715	64.3263
5710	64.0932
5705	64.0053
5700	64.4296
5695	64.3851
5690	64.2031
5685	64.4348
5680	64.2467
5675	64.3736
5670	64.5915
5665	64.4046
5660	64.3578
5655	64.3399
5650	64.2883
5645	64.0533
5640	64.0446
5635	64.7949
5630	64.8627
5625	64.1514
5620	63.4579
5615	62.9637
5610	63.3623
5605	63.9037
5600	64.03
5595	63.911
5590	64.0059
5585	64.5326
5580	65.0591
5575	64.5411
5570	64.2784
5565	64.5181
5560	64.2202
5555	63.8589
5550	64.3714
5545	64.8872
5540	65.1876
5535	65.2675
5530	64.4707
5525	64.1343
5520	64.343
5515	64.1226
5510	63.8326
5505	64.3885
5500	64.6677
5495	64.2421
5490	64.2304
5485	64.4049
5480	64.5194
5475	64.5627
5470	64.4422
5465	64.1027
5460	64.1123
5455	64.0772
5450	64.1718
5445	64.4857
5440	64.5493
5435	64.1296
5430	63.9525
5425	64.4498
5420	64.9002
5415	64.8627
5410	64.3895
5405	63.4317
5400	63.5557
5395	64.4144
5390	64.8722
5385	64.8933
5380	64.5852
5375	64.5156
5370	64.4765
5365	64.5996
5360	64.5475
5355	63.8736
5350	63.4784
5345	63.815
5340	64.433
5335	64.864
5330	65.1526
5325	64.999
5320	64.5426
5315	64.1446
5310	63.609
5305	63.406
5300	63.9678
5295	64.6329
5290	65.6891
5285	66.5194
5280	66.0712
5275	66.3074
5270	67.069
5265	67.0205
5260	65.7598
5255	64.9488
5250	64.5135
5245	63.1562
5240	62.4623
5235	63.2759
5230	63.2664
5225	62.7508
5220	63.5734
5215	64.2585
5210	64.7926
5205	64.4139
5200	64.0702
5195	63.3509
5190	62.7961
5185	63.399
5180	64.9866
5175	65.7042
5170	64.5213
5165	63.3574
5160	63.4067
5155	63.0898
5150	63.1874
5145	63.6777
5140	63.6855
5135	63.7511
5130	63.9587
5125	64.3011
5120	64.2025
5115	63.8005
5110	63.993
5105	64.029
5100	64.0198
5095	64.191
5090	64.2973
5085	64.1778
5080	64.2902
5075	64.2344
5070	64.0465
5065	64.2755
5060	64.7596
5055	64.9267
5050	64.5595
5045	64.4775
5040	64.2076
5035	63.9989
5030	63.8478
5025	63.6924
5020	64.0185
5015	64.2685
5010	64.3126
5005	64.1825
5000	63.9402
4995	63.9339
4990	63.9905
4985	64.0419
4980	64.1976
4975	64.2367
4970	64.2089
4965	64.6115
4960	64.616
4955	64.0795
4950	64.0115
4945	64.1544
4940	64.1287
4935	64.0775
4930	63.855
4925	63.9491
4920	64.3108
4915	64.3313
4910	64.1519
4905	64.4034
4900	64.2963
4895	63.9296
4890	64.2158
4885	64.2174
4880	64.2072
4875	64.232
4870	64.1006
4865	64.0331
4860	64.1694
4855	64.0612
4850	63.7519
4845	63.814
4840	63.9642
4835	64.057
4830	63.9516
4825	64.1922
4820	64.403
4815	64.379
4810	64.1164
4805	63.8279
4800	64.0312
4795	64.269
4790	64.1711
4785	63.9955
4780	63.932
4775	63.966
4770	63.9236
4765	63.9509
4760	63.8954
4755	63.9742
4750	64.2395
4745	64.243
4740	63.9762
4735	63.9637
4730	63.8215
4725	63.6514
4720	63.6878
4715	63.8264
4710	63.9471
4705	64.1731
4700	64.4701
4695	64.562
4690	64.3648
4685	64.2548
4680	64.3302
4675	64.3565
4670	63.9305
4665	63.7452
4660	64.0067
4655	64.0979
4650	64.1074
4645	63.8963
4640	63.6605
4635	63.7211
4630	64.0989
4625	64.2131
4620	63.8957
4615	63.8461
4610	63.8786
4605	63.8105
4600	63.8903
4595	64.0421
4590	64.0177
4585	64.1066
4580	64.1959
4575	64.1739
4570	64.1773
4565	64.2128
4560	64.1647
4555	64.273
4550	64.1641
4545	63.8153
4540	63.8445
4535	63.8681
4530	63.7871
4525	63.9604
4520	63.9129
4515	63.8139
4510	64.0384
4505	64.1984
4500	64.1714
4495	63.8708
4490	63.6589
4485	63.8856
4480	64.1887
4475	64.128
4470	64.0356
4465	64.0745
4460	64.4634
4455	64.9294
4450	64.4705
4445	64.201
4440	64.663
4435	64.695
4430	63.7851
4425	63.5005
4420	64.3562
4415	64.5875
4410	67.4605
4405	75.1913
4400	72.7394
4395	52.5958
4390	38.3813
4385	51.4947
4380	62.7105
4375	64.502
4370	65.2345
4365	64.3815
4360	63.8977
4355	64.194
4350	64.5019
4345	64.6041
4340	64.5463
4335	64.5379
4330	64.3204
4325	63.8588
4320	63.8407
4315	64.1037
4310	63.9236
4305	63.4322
4300	63.5955
4295	63.9522
4290	63.8505
4285	63.729
4280	63.9458
4275	63.8362
4270	63.6056
4265	63.8459
4260	64.0334
4255	64.0405
4250	63.8132
4245	63.8911
4240	63.9423
4235	63.7964
4230	63.9445
4225	63.8201
4220	63.7242
4215	63.9566
4210	63.9501
4205	63.5335
4200	63.2923
4195	63.5118
4190	63.7737
4185	63.5209
4180	63.2201
4175	63.4827
4170	63.8105
4165	63.4026
4160	63.2068
4155	63.3022
4150	63.48
4145	63.5179
4140	63.2835
4135	63.3766
4130	63.5423
4125	63.4071
4120	63.2856
4115	63.257
4110	63.1423
4105	63.2059
4100	63.2539
4095	63.2965
4090	63.2963
4085	63.1103
4080	63.0654
4075	63.2758
4070	63.2383
4065	63.0576
4060	63.1345
4055	63.3419
4050	63.2572
4045	63.0989
4040	63.0397
4035	63.1497
4030	63.1024
4025	63.0507
4020	63.2465
4015	63.2569
4010	63.0857
4005	63.0316
4000	63.0136
3995	63.1815
3990	63.2525
3985	63.099
3980	62.9899
3975	63.0764
3970	63.1502
3965	63.0248
3960	63.0566
3955	63.236
3950	63.3912
3945	63.237
3940	62.981
3935	62.9696
3930	63.0725
3925	62.9637
3920	62.9615
3915	63.16
3910	63.155
3905	63.1545
3900	63.1524
3895	62.9629
3890	62.881
3885	63.1374
3880	63.2798
3875	63.2966
3870	62.977
3865	62.7582
3860	62.85
3855	62.8871
3850	62.8533
3845	62.9663
3840	62.9968
3835	63.0196
3830	63.0436
3825	62.9691
3820	62.8767
3815	62.6489
3810	62.6559
3805	62.9072
3800	62.9066
3795	62.7901
3790	62.8051
3785	62.795
3780	62.7186
3775	62.5905
3770	62.6782
3765	62.9079
3760	62.8947
3755	62.7719
3750	62.7015
3745	62.6381
3740	62.5869
3735	62.6485
3730	62.6771
3725	62.6792
3720	62.6793
3715	62.5633
3710	62.5691
3705	62.6602
3700	62.5161
3695	62.3408
3690	62.3131
3685	62.4089
3680	62.474
3675	62.5231
3670	62.3664
3665	62.223
3660	62.2382
3655	62.3257
3650	62.3638
3645	62.3269
3640	62.3601
3635	62.4089
3630	62.3974
3625	62.2214
3620	62.2105
3615	62.2519
3610	62.175
3605	62.2125
3600	62.2959
3595	62.3077
3590	62.2272
3585	62.1396
3580	62.0014
3575	62.0767
3570	62.1382
3565	62.1012
3560	61.9135
3555	61.6952
3550	61.7444
3545	61.9118
3540	61.9016
3535	61.7057
3530	61.6851
3525	61.8004
3520	61.767
3515	61.6954
3510	61.6066
3505	61.506
3500	61.6739
3495	61.7273
3490	61.5396
3485	61.4398
3480	61.4601
3475	61.4626
3470	61.5731
3465	61.6789
3460	61.7054
3455	61.7057
3450	61.6488
3445	61.4788
3440	61.487
3435	61.5322
3430	61.4886
3425	61.4993
3420	61.4408
3415	61.4511
3410	61.4676
3405	61.354
3400	61.2533
3395	61.097
3390	61.1039
3385	61.2062
3380	61.244
3375	61.2622
3370	61.1392
3365	61.1659
3360	61.2577
3355	61.1048
3350	61.0775
3345	61.1898
3340	61.1565
3335	61.1491
3330	61.0378
3325	60.9536
3320	60.9261
3315	60.8414
3310	60.8584
3305	60.8133
3300	60.6549
3295	60.713
3290	60.8598
3285	60.8976
3280	60.778
3275	60.5607
3270	60.3893
3265	60.4445
3260	60.5629
3255	60.6325
3250	60.6657
3245	60.4864
3240	60.3471
3235	60.4228
3230	60.3983
3225	60.2593
3220	60.1888
3215	60.2243
3210	60.2095
3205	60.1382
3200	60.2271
3195	60.3104
3190	60.4012
3185	60.456
3180	60.2891
3175	60.1743
3170	60.1575
3165	60.145
3160	60.1365
3155	60.1689
3150	60.0859
3145	59.9995
3140	59.9673
3135	59.8536
3130	59.8039
3125	59.9647
3120	59.9872
3115	59.7925
3110	59.6783
3105	59.7124
3100	59.7423
3095	59.7266
3090	59.7092
3085	59.646
3080	59.6385
3075	59.6647
3070	59.6944
3065	59.7429
3060	59.662
3055	59.5978
3050	59.5204
3045	59.4849
3040	59.4975
3035	59.6297
3030	59.5349
3025	59.3976
3020	59.3851
3015	59.3088
3010	59.2323
3005	59.1289
3000	59.0615
2995	59.1116
2990	59.1501
2985	59.1109
2980	59.0631
2975	59.0621
2970	59.039
2965	58.9614
2960	58.9024
2955	58.792
2950	58.7576
2945	58.6739
2940	58.6139
2935	58.6078
2930	58.5268
2925	58.3976
2920	58.3517
2915	58.4211
2910	58.5483
2905	58.5091
2900	58.4294
2895	58.3618
2890	58.3687
2885	58.4118
2880	58.3015
2875	58.2566
2870	58.2667
2865	58.1763
2860	58.068
2855	58.116
2850	58.1879
2845	58.0988
2840	57.9772
2835	58.0262
2830	58.0502
2825	58.0345
2820	58.0225
2815	58.0552
2810	58.0545
2805	57.9686
2800	57.9421
2795	57.9369
2790	57.871
2785	57.8892
2780	57.913
2775	57.8282
2770	57.6802
2765	57.5435
2760	57.4945
2755	57.5124
2750	57.5819
2745	57.6009
2740	57.4574
2735	57.4192
2730	57.4342
2725	57.3479
2720	57.3657
2715	57.4591
2710	57.4269
2705	57.2981
2700	57.2398
2695	57.1898
2690	57.0438
2685	57.0291
2680	57.0112
2675	56.929
2670	56.9071
2665	57.0082
2660	57.0605
2655	56.968
2650	56.8286
2645	56.7779
2640	56.7145
2635	56.6543
2630	56.5659
2625	56.5579
2620	56.6085
2615	56.6338
2610	56.5626
2605	56.4379
2600	56.3984
2595	56.3426
2590	56.2603
2585	56.3168
2580	56.3199
2575	56.2713
2570	56.2739
2565	56.2308
2560	56.1723
2555	56.0809
2550	56.0441
2545	56.0766
2540	56.0918
2535	55.9883
2530	55.8475
2525	55.7797
2520	55.7941
2515	55.8243
2510	55.8388
2505	55.7896
2500	55.7164
2495	55.5885
2490	55.5159
2485	55.5112
2480	55.482
2475	55.5019
2470	55.4856
2465	55.3766
2460	55.2678
2455	55.2073
2450	55.1543
2445	55.1585
2440	55.1145
2435	55.0815
2430	55.1283
2425	55.0946
2420	54.9411
2415	54.8528
2410	54.8753
2405	54.8499
2400	54.8269
2395	54.7703
2390	54.7435
2385	54.6973
2380	54.5478
2375	54.4561
2370	54.5072
2365	54.5176
2360	54.4676
2355	54.4085
2350	54.3626
2345	54.312
2340	54.1894
2335	54.1545
2330	54.1602
2325	54.1162
2320	54.0255
2315	54.0328
2310	54.0484
2305	53.9538
2300	53.9092
2295	53.8433
2290	53.7812
2285	53.7443
2280	53.7115
2275	53.6781
2270	53.6783
2265	53.6895
2260	53.5971
2255	53.431
2250	53.3488
2245	53.3056
2240	53.2062
2235	53.1916
2230	53.2266
2225	53.1934
2220	53.137
2215	53.1325
2210	53.0807
2205	53.0092
2200	52.9038
2195	52.7732
2190	52.7942
2185	52.7804
2180	52.6533
2175	52.6207
2170	52.5525
2165	52.5641
2160	52.6198
2155	52.5954
2150	52.502
2145	52.4626
2140	52.4515
2135	52.4125
2130	52.3099
2125	52.2239
2120	52.2015
2115	52.1931
2110	52.1291
2105	51.9896
2100	51.91
2095	51.8407
2090	51.7695
2085	51.8066
2080	51.8963
2075	51.883
2070	51.7487
2065	51.5723
2060	51.5586
2055	51.5599
2050	51.4936
2045	51.4859
2040	51.4611
2035	51.3362
2030	51.1825
2025	51.118
2020	51.1531
2015	51.1477
2010	51.1101
2005	51.0285
2000	50.9582
1995	50.9843
1990	50.944
1985	50.8003
1980	50.7083
1975	50.6392
1970	50.5795
1965	50.6076
1960	50.595
1955	50.4643
1950	50.4066
1945	50.3378
1940	50.2755
1935	50.3032
1930	50.2887
1925	50.2721
1920	50.2003
1915	50.0647
1910	49.9556
1905	49.9367
1900	49.928
1895	49.827
1890	49.8182
1885	49.7901
1880	49.702
1875	49.6628
1870	49.6303
1865	49.6126
1860	49.5959
1855	49.4452
1850	49.3351
1845	49.3167
1840	49.3074
1835	49.2846
1830	49.2471
1825	49.2308
1820	49.151
1815	49.1195
1810	49.142
1805	49.0832
1800	48.9703
1795	48.8986
1790	48.8603
1785	48.7551
1780	48.6211
1775	48.6258
1770	48.6616
1765	48.6205
1760	48.5585
1755	48.4905
1750	48.3223
1745	48.1869
1740	48.1948
1735	48.1711
1730	48.0593
1725	47.9487
1720	47.8898
1715	47.9224
1710	47.9342
1705	47.895
1700	47.9192
1695	47.8084
1690	47.7154
1685	47.6734
1680	47.6307
1675	47.5831
1670	47.5523
1665	47.5133
1660	47.4742
1655	47.4397
1650	47.317
1645	47.275
1640	47.294
1635	47.2275
1630	47.0552
1625	46.9894
1620	47.0016
1615	46.9746
1610	46.9135
1605	46.8631
1600	46.8437
1595	46.7397
1590	46.6217
1585	46.5672
1580	46.619
1575	46.5752
1570	46.4373
1565	46.4088
1560	46.4592
1555	46.4215
1550	46.224
1545	46.1111
1540	46.1144
1535	46.0265
1530	45.9219
1525	45.9101
1520	45.8683
1515	45.7884
1510	45.8497
1505	45.8421
1500	45.7257
1495	45.6658
1490	45.6149
1485	45.5144
1480	45.4467
1475	45.385
1470	45.3002
1465	45.2417
1460	45.2343
1455	45.1406
1450	44.9119
1445	44.8714
1440	45.0062
1435	45.0488
1430	44.8415
1425	44.7209
1420	44.8459
1415	44.8522
1410	44.6975
1405	44.5776
1400	44.6306
1395	44.5753
1390	44.4789
1385	44.4093
1380	44.4054
1375	44.3093
1370	44.2034
1365	44.2441
1360	44.2458
1355	44.0987
1350	43.9988
1345	44.0208
1340	44.0217
1335	43.9895
1330	43.9443
1325	43.856
1320	43.6642
1315	43.5625
1310	43.6015
1305	43.5615
1300	43.4313
1295	43.3403
1290	43.3438
1285	43.33
1280	43.2685
1275	43.2385
1270	43.204
1265	43.1779
1260	43.1272
1255	43.0685
1250	42.9337
1245	42.8627
1240	42.9086
1235	42.8794
1230	42.6695
1225	42.5007
1220	42.5129
1215	42.5261
1210	42.4381
1205	42.4039
1200	42.4078
1195	42.363
1190	42.2745
1185	42.1199
1180	42.0137
1175	42.0442
1170	42.0395
1165	41.9625
1160	41.8711
1155	41.7948
1150	41.8264
1145	41.7456
1140	41.6335
1135	41.6883
1130	41.6446
1125	41.5446
1120	41.4826
1115	41.4112
1110	41.2207
1105	41.0691
1100	41.1251
1095	41.1243
1090	41.022
1085	40.8676
1080	40.7712
1075	40.7594
1070	40.7691
1065	40.6822
1060	40.5569
1055	40.4859
1050	40.5211
1045	40.4564
1040	40.4365
1035	40.4752
1030	40.3256
1025	40.2707
1020	40.3095
1015	40.243
1010	40.1695
1005	40.1227
1000	40.0048
995	 39.9748
990	 39.9781
985	 39.7675
980	 39.46
975	 39.4757
970	 39.5373
965	 39.4724
960	 39.4171
955	 39.2093
950	 39.0714
945	 39.1641
940	 39.024
935	 38.8243
930	 38.9441
925	 39.1031
920	 39.0293
915	 39.0328
910	 38.9215
905	 38.7684
900	 38.6252
895	 38.2165
890	 38.0251
885	 37.9372
880	 37.7106
875	 37.9848
870	 38.5223
865	 37.8572
860	 36.8296
855	 36.9621
850	 37.1197
845	 37.3087
840	 37.7832
835	 38.0249
830	 37.6599
825	 37.377
820	 37.3054
815	 37.1417
810	 36.9097
805	 37.0785
800	 37.3237
795	 37.0598
790	 36.7641
785	 36.712
780	 36.5812
775	 36.5908
770	 36.612
765	 36.4812
760	 36.3279
755	 36.1112
750	 35.9461
745	 35.9073
740	 35.7998
735	 35.6529
730	 35.4764
725	 35.2943
720	 35.2491
715	 35.1163
710	 35.0912
705	 34.8626
700	 34.6911
695	 34.7704
690	 34.7349
685	 34.6264
680	 34.3634
675	 34.1744
670	 34.0066
665	 34.0242
660	 34.0467
655	 33.8341
650	 33.6145
645	 33.3794
640	 33.0247
635	 32.6976
630	 32.603
625	 32.7327
620	 32.9784
615	 33.3157
610	 32.953
605	 32.3912
600	 32.1083
595	 32.0884
590	 31.8497
585	 31.603
580	 31.3733
575	 30.8038
570	 30.9823
565	 31.2401
560	 30.9835
555	 30.6257
550	 30.4808
545	 30.2084
540	 30.0344
535	 29.9608
530	 29.4552
525	 29.146
520	 29.2773
515	 29.242
510	 28.5945
505	 28.2842
500	 28.6616
495	 28.5912
490	 27.4205
485	 27.089
480	 27.7922
475	 27.541
470	 26.9348
465	 27.4428
460	 26.778
455	 25.7575
450	 25.685
445	 25.4373
440	 25.0835
435	 25.1328
430	 25.5969
425	 25.0253
420	 24.7041
415	 27.4606
410	 25.9741
405	 19.9959
400	 21.9085
395	 32.5885
390	 38.5127
385	 35.9035
380	 32.7601
375	 39.1163
370	 41.4027