File: Bakgrunnsmateriale/MATLAB/FTIR/ftir_data/subBb/Mapping_36/C-4040-8_t20_cm-1.asc
PE IR       SPECTRUM    SPECTRUM    ASCII       PEDS        1.60
  -1
C-9A61~1.ASC
17/05/02
12:32:00.00
17/05/02
12:32:00.00
tln
$C-4040-8_t0020$<tbV0>[7.5,2.0,8.0,0.0,22,1,0]
370
64

2002,4.07
MIRTGS : RIGHTBACK : INTERNAL 2
MIR : ON : INTERNAL 2
OPTKBR

0.200000
8
8.000000
FILLER
RATIO
SPECTRUM
UNLOCKED 256

DOUBLE
64
COMBINED
1
0
0

1.000000
RATIO

1
0
TRUE
51149
0
LEFT NOT FITTED RIGHT NOT FITTED 0
NONE
NONE
15600
12
4.427000
51148
TRUE
1 0 8 72 0 0 0 0

15798

#HDR
-1
-1
#GR
CM-1
%T
2.38419e-05
0.0
7800
-1.000000
7431
8
106.724
45.7311
#DATA
7800	68.0326
7795	69.2576
7790	71.5527
7785	70.941
7780	67.7308
7775	70.6619
7770	77.2594
7765	78.0872
7760	71.2655
7755	70.4576
7750	64.7899
7745	61.4304
7740	63.5309
7735	64.7801
7730	67.5962
7725	66.5064
7720	68.5382
7715	69.5406
7710	64.0818
7705	69.2621
7700	71.4958
7695	63.3646
7690	56.3437
7685	56.4218
7680	61.4899
7675	65.0049
7670	66.3811
7665	62.4438
7660	58.9592
7655	60.8157
7650	60.6254
7645	60.0315
7640	63.1978
7635	63.1926
7630	62.2224
7625	64.5443
7620	65.5146
7615	64.9087
7610	64.8599
7605	66.1107
7600	64.0921
7595	62.2246
7590	62.4565
7585	65.7307
7580	69.5866
7575	66.2912
7570	62.6203
7565	64.5564
7560	66.9175
7555	65.7864
7550	64.4962
7545	65.1397
7540	65.2302
7535	66.4695
7530	65.2816
7525	63.5287
7520	66.2247
7515	68.0096
7510	66.4168
7505	65.1692
7500	66.8719
7495	65.0746
7490	62.4305
7485	62.7094
7480	63.5725
7475	62.0143
7470	60.4889
7465	61.6345
7460	65.1221
7455	68.233
7450	69.1089
7445	69.6285
7440	65.1625
7435	61.2027
7430	64.0051
7425	65.6235
7420	66.3681
7415	67.5383
7410	67.1588
7405	67.4026
7400	65.74
7395	66.907
7390	68.858
7385	68.2477
7380	68.0532
7375	66.2232
7370	64.7459
7365	65.3027
7360	66.9528
7355	66.1369
7350	66.1984
7345	67.5611
7340	68.2527
7335	66.5642
7330	67.1607
7325	68.7072
7320	66.6439
7315	63.2003
7310	62.7727
7305	63.3636
7300	64.0982
7295	66.5146
7290	65.4127
7285	64.0146
7280	66.9113
7275	68.8852
7270	66.9045
7265	63.4451
7260	62.5386
7255	63.3604
7250	64.0983
7245	65.9237
7240	67.494
7235	67.0756
7230	65.9603
7225	65.7628
7220	65.87
7215	65.5379
7210	64.5972
7205	63.8492
7200	64.8649
7195	67.3874
7190	67.8658
7185	66.4326
7180	66.0184
7175	65.6382
7170	63.1202
7165	61.9158
7160	64.4525
7155	65.3449
7150	64.62
7145	63.0454
7140	64.0126
7135	64.4575
7130	62.9868
7125	64.3431
7120	65.0564
7115	63.772
7110	63.4482
7105	64.589
7100	65.4994
7095	64.8062
7090	63.175
7085	63.1947
7080	63.5663
7075	63.73
7070	64.6841
7065	65.6816
7060	66.6198
7055	63.5842
7050	62.3199
7045	64.1647
7040	64.6988
7035	64.3922
7030	67.1281
7025	69.6173
7020	69.6426
7015	64.9136
7010	62.4785
7005	63.9792
7000	64.5307
6995	62.5414
6990	60.5746
6985	62.3608
6980	64.0896
6975	62.4282
6970	63.6186
6965	65.4606
6960	64.4091
6955	63.9745
6950	63.6179
6945	65.1753
6940	66.309
6935	64.366
6930	63.561
6925	65.1327
6920	66.3391
6915	65.5948
6910	64.0937
6905	64.1213
6900	64.3839
6895	64.0802
6890	64.8901
6885	66.2304
6880	66.7845
6875	65.6677
6870	64.8623
6865	64.2711
6860	63.0544
6855	63.4682
6850	64.2349
6845	65.0767
6840	65.2824
6835	64.6585
6830	64.9194
6825	65.1509
6820	63.4432
6815	62.8462
6810	65.699
6805	65.7003
6800	62.6428
6795	62.2902
6790	62.8233
6785	63.6092
6780	63.758
6775	63.1265
6770	63.0703
6765	62.3203
6760	62.3931
6755	63.4731
6750	63.7434
6745	64.1191
6740	62.8084
6735	61.8176
6730	63.8598
6725	64.3595
6720	63.1385
6715	62.8371
6710	63.1826
6705	63.7171
6700	64.5067
6695	63.8182
6690	62.969
6685	62.1902
6680	61.5095
6675	62.8968
6670	63.7465
6665	64.1241
6660	64.4868
6655	63.7309
6650	64.0086
6645	64.1538
6640	61.6354
6635	62.1315
6630	64.7418
6625	65.4061
6620	65.1957
6615	64.6045
6610	65.5723
6605	66.2304
6600	64.8879
6595	64.725
6590	64.8193
6585	64.0726
6580	64.4978
6575	64.7225
6570	63.7789
6565	63.8327
6560	65.207
6555	65.8555
6550	65.8555
6545	65.3601
6540	64.0283
6535	63.3146
6530	62.6312
6525	63.0242
6520	64.3615
6515	65.1593
6510	65.3786
6505	65.2474
6500	65.151
6495	64.853
6490	65.5076
6485	64.9414
6480	64.3807
6475	64.647
6470	64.961
6465	64.9101
6460	64.9629
6455	64.1601
6450	63.5277
6445	64.7325
6440	65.5029
6435	65.2635
6430	64.0901
6425	64.1668
6420	65.6114
6415	65.5226
6410	64.2967
6405	64.1194
6400	64.6065
6395	64.1914
6390	63.9207
6385	63.7395
6380	63.62
6375	64.2594
6370	64.7374
6365	65.4206
6360	65.1963
6355	64.5465
6350	64.1061
6345	63.9541
6340	64.2569
6335	64.134
6330	63.6764
6325	63.6901
6320	64.4376
6315	64.7076
6310	64.1462
6305	64.1567
6300	64.8666
6295	64.9653
6290	64.1243
6285	63.7655
6280	63.316
6275	63.0146
6270	63.7301
6265	64.0636
6260	64.3346
6255	63.9729
6250	63.4617
6245	63.9604
6240	64.803
6235	64.6587
6230	64.4528
6225	64.9732
6220	64.576
6215	64.1748
6210	64.8634
6205	65.4013
6200	65.2048
6195	64.8643
6190	64.8387
6185	64.5499
6180	64.8558
6175	64.9784
6170	65.0862
6165	65.6716
6160	65.1558
6155	64.0112
6150	64.3207
6145	64.6657
6140	64.6961
6135	64.4543
6130	64.1688
6125	64.4141
6120	64.2318
6115	64.1882
6110	64.1373
6105	63.9939
6100	64.2347
6095	64.6715
6090	65.1663
6085	65.249
6080	65.1113
6075	64.6957
6070	64.5522
6065	64.8094
6060	65.0687
6055	65.2695
6050	64.7914
6045	64.6418
6040	65.3354
6035	65.3882
6030	64.6432
6025	64.0341
6020	64.3637
6015	64.7217
6010	64.7952
6005	65.0939
6000	65.7784
5995	65.9709
5990	65.0136
5985	64.605
5980	65.006
5975	65.2528
5970	65.3833
5965	65.4823
5960	64.8837
5955	64.3816
5950	64.8821
5945	64.9721
5940	64.3611
5935	64.4908
5930	64.8311
5925	64.6654
5920	64.8741
5915	65.1219
5910	64.6997
5905	64.5344
5900	64.7948
5895	64.6459
5890	64.8332
5885	65.2309
5880	65.4879
5875	65.9985
5870	65.8279
5865	64.9704
5860	65.2152
5855	65.657
5850	65.358
5845	64.8398
5840	64.6024
5835	64.5026
5830	64.3734
5825	64.299
5820	64.3401
5815	64.2091
5810	64.2712
5805	64.9531
5800	65.1022
5795	64.9547
5790	65.1188
5785	65.2015
5780	65.0699
5775	64.8784
5770	64.3961
5765	64.4854
5760	65.0308
5755	65.2924
5750	64.8724
5745	65.0125
5740	65.3447
5735	64.6969
5730	64.4377
5725	65.2153
5720	65.5014
5715	64.7606
5710	64.488
5705	64.4907
5700	64.7827
5695	64.5473
5690	64.1276
5685	64.2461
5680	64.4188
5675	64.6485
5670	64.6005
5665	64.2488
5660	64.0841
5655	64.5603
5650	64.6379
5645	64.6706
5640	64.4507
5635	64.463
5630	65.6425
5625	66.5618
5620	65.7993
5615	65.4034
5610	65.5113
5605	65.3883
5600	64.932
5595	64.7872
5590	64.9947
5585	64.8111
5580	64.6472
5575	65.2612
5570	65.4562
5565	64.7094
5560	64.5195
5555	64.7145
5550	64.2606
5545	64.5532
5540	65.4172
5535	65.6539
5530	65.6868
5525	65.334
5520	64.4206
5515	63.8007
5510	64.5161
5505	65.166
5500	65.0237
5495	64.9898
5490	64.9425
5485	64.3148
5480	64.312
5475	65.3866
5470	65.9402
5465	65.6086
5460	65.1922
5455	64.9223
5450	64.8028
5445	64.9692
5440	65.0261
5435	64.9292
5430	64.7801
5425	64.3237
5420	64.0257
5415	64.1175
5410	64.2432
5405	64.7871
5400	64.8441
5395	64.805
5390	65.1231
5385	64.8904
5380	64.0629
5375	64.2879
5370	64.2497
5365	63.84
5360	63.8642
5355	63.8306
5350	64.1221
5345	64.1887
5340	63.6643
5335	63.5742
5330	63.5433
5325	62.8589
5320	61.7304
5315	61.9032
5310	63.559
5305	65.5447
5300	65.579
5295	63.2843
5290	64.6215
5285	66.4819
5280	65.608
5275	64.0889
5270	63.4182
5265	64.5434
5260	65.3506
5255	66.3921
5250	66.5541
5245	65.9886
5240	64.8148
5235	64.1365
5230	64.497
5225	64.6959
5220	65.2481
5215	65.1547
5210	64.7227
5205	65.1477
5200	64.9216
5195	64.8781
5190	65.2983
5185	64.7776
5180	64.7738
5175	65.1945
5170	65.2306
5165	65.2259
5160	65.4368
5155	65.2889
5150	64.9288
5145	65.1655
5140	65.2443
5135	64.9336
5130	64.9973
5125	65.3484
5120	65.4828
5115	65.0532
5110	64.5796
5105	64.8581
5100	65.1095
5095	65.096
5090	65.0386
5085	64.7727
5080	64.6841
5075	64.6287
5070	64.5368
5065	64.67
5060	64.7315
5055	64.6558
5050	64.5977
5045	64.5653
5040	64.3273
5035	64.1683
5030	64.5431
5025	64.7715
5020	64.5819
5015	64.7379
5010	64.6556
5005	64.4054
5000	64.6556
4995	64.7223
4990	64.4738
4985	64.306
4980	64.3395
4975	64.5957
4970	64.6837
4965	64.7506
4960	64.6217
4955	64.4761
4950	64.6317
4945	64.7014
4940	64.8519
4935	64.9042
4930	64.6231
4925	64.5844
4920	64.7594
4915	64.7067
4910	64.784
4905	64.7308
4900	64.7268
4895	64.8069
4890	64.7008
4885	64.6437
4880	64.6481
4875	64.4115
4870	64.3144
4865	64.4243
4860	64.5869
4855	64.7604
4850	64.6805
4845	64.5071
4840	64.5118
4835	64.6575
4830	64.8815
4825	65.0327
4820	64.7783
4815	64.5257
4810	64.7737
4805	64.9652
4800	64.7196
4795	64.7149
4790	64.8593
4785	65.034
4780	65.2626
4775	65.5283
4770	65.509
4765	65.1343
4760	64.9082
4755	65.058
4750	65.1342
4745	65.1591
4740	65.2435
4735	65.1816
4730	65.0217
4725	64.7452
4720	64.9158
4715	65.1964
4710	65.2986
4705	65.3061
4700	64.9687
4695	65.008
4690	65.3293
4685	65.1312
4680	65.0147
4675	65.3707
4670	65.5116
4665	65.1983
4660	65.212
4655	65.3299
4650	65.2432
4645	64.9823
4640	64.7382
4635	64.5589
4630	64.5174
4625	64.776
4620	65.0701
4615	65.1644
4610	65.1097
4605	64.957
4600	64.9321
4595	65.0018
4590	64.896
4585	64.6507
4580	64.5303
4575	64.4847
4570	64.5571
4565	64.6531
4560	64.3763
4555	64.1543
4550	64.3907
4545	64.4131
4540	64.1873
4535	64.2197
4530	64.3102
4525	64.0988
4520	64.129
4515	64.2625
4510	64.2447
4505	63.9838
4500	63.8183
4495	63.8632
4490	63.7629
4485	63.4593
4480	63.6419
4475	63.8883
4470	63.8641
4465	63.8898
4460	63.923
4455	64.0427
4450	63.6361
4445	63.2612
4440	63.408
4435	63.6774
4430	63.3292
4425	63.4063
4420	63.8725
4415	63.8574
4410	64.2062
4405	63.6302
4400	63.4722
4395	74.1105
4390	102.466
4385	96.6267
4380	70.7663
4375	63.0642
4370	64.0046
4365	64.0658
4360	64.3314
4355	64.8999
4350	64.4518
4345	63.9768
4340	63.9709
4335	63.7354
4330	63.4766
4325	63.413
4320	63.6809
4315	63.9901
4310	64.0044
4305	63.8094
4300	63.5793
4295	63.4723
4290	63.4862
4285	63.6134
4280	63.9895
4275	64.2035
4270	63.9567
4265	64.0741
4260	64.2671
4255	64.1195
4250	64.0014
4245	64.2213
4240	64.4692
4235	64.4994
4230	64.6337
4225	64.7359
4220	64.4948
4215	64.359
4210	64.6602
4205	64.7972
4200	64.637
4195	64.7434
4190	64.9553
4185	64.7199
4180	64.5266
4175	64.8531
4170	65.0448
4165	64.9565
4160	64.905
4155	65.1239
4150	65.2446
4145	65.0538
4140	65.0605
4135	65.1075
4130	64.9975
4125	64.9915
4120	65.0913
4115	65.2864
4110	65.3916
4105	65.3594
4100	65.3531
4095	65.3885
4090	65.2187
4085	65.192
4080	65.3235
4075	65.1026
4070	64.9289
4065	65.2797
4060	65.4928
4055	65.4093
4050	65.4662
4045	65.5155
4040	65.5024
4035	65.4581
4030	65.4459
4025	65.3885
4020	65.3075
4015	65.1024
4010	65.0254
4005	65.0893
4000	65.176
3995	65.1616
3990	65.108
3985	65.0247
3980	65.1854
3975	65.2995
3970	65.3067
3965	65.2371
3960	65.1327
3955	64.9539
3950	64.86
3945	64.9724
3940	65.1474
3935	65.1734
3930	65.1087
3925	65.1323
3920	65.0107
3915	65.0474
3910	65.0073
3905	64.8106
3900	64.8072
3895	64.9258
3890	65.1828
3885	65.3611
3880	65.09
3875	64.9033
3870	64.8938
3865	64.9389
3860	64.9705
3855	64.9148
3850	64.9222
3845	64.8935
3840	64.9122
3835	65.0393
3830	65.0239
3825	65.0493
3820	65.2014
3815	65.0377
3810	64.842
3805	64.8677
3800	64.9408
3795	64.9875
3790	64.8994
3785	64.9864
3780	65.1541
3775	64.9943
3770	64.8985
3765	65.0377
3760	65.0666
3755	65.0607
3750	65.2496
3745	65.2657
3740	65.0588
3735	65.0002
3730	64.9565
3725	64.9368
3720	65.0311
3715	65.1919
3710	65.2585
3705	65.2282
3700	65.1989
3695	65.2594
3690	65.2284
3685	65.1184
3680	65.0524
3675	65.1293
3670	65.226
3665	65.1266
3660	65.0269
3655	65.0017
3650	65.1033
3645	65.1606
3640	65.1646
3635	65.1792
3630	65.2909
3625	65.2586
3620	65.2606
3615	65.3352
3610	65.2827
3605	65.1628
3600	65.0896
3595	65.0648
3590	64.9841
3585	64.9412
3580	65.0558
3575	65.2174
3570	65.2076
3565	65.0567
3560	65.1158
3555	65.2515
3550	65.2963
3545	65.2622
3540	65.1853
3535	65.1139
3530	64.9961
3525	64.9594
3520	64.9923
3515	65.0434
3510	65.0078
3505	64.9415
3500	64.963
3495	65.0877
3490	65.3565
3485	65.2753
3480	64.9946
3475	64.9846
3470	65.0519
3465	65.2229
3460	65.2667
3455	65.3615
3450	65.4068
3445	65.4201
3440	65.3295
3435	65.2211
3430	65.0923
3425	64.9873
3420	65.0042
3415	65.0566
3410	65.129
3405	65.0095
3400	64.9203
3395	64.9136
3390	64.8873
3385	65.0287
3380	65.0206
3375	64.9186
3370	65.0135
3365	65.1315
3360	65.109
3355	65.0202
3350	64.9202
3345	64.8653
3340	64.9888
3335	65.0596
3330	65.1009
3325	65.2211
3320	65.1771
3315	65.0005
3310	64.9425
3305	65.0328
3300	65.157
3295	65.1528
3290	65.1708
3285	65.151
3280	65.06
3275	65.0849
3270	65.1811
3265	65.1798
3260	65.0541
3255	65.0049
3250	64.9911
3245	65.0275
3240	65.0818
3235	65.1484
3230	65.2187
3225	65.2462
3220	65.1707
3215	65.0113
3210	65.0068
3205	65.2092
3200	65.1829
3195	65.0372
3190	65.064
3185	65.1473
3180	65.1362
3175	65.1507
3170	65.2012
3165	65.2237
3160	65.136
3155	65.0573
3150	65.0611
3145	64.9985
3140	65.1045
3135	65.2939
3130	65.2905
3125	65.2064
3120	65.0596
3115	65.0693
3110	65.0527
3105	64.972
3100	65.082
3095	65.2283
3090	65.3606
3085	65.4133
3080	65.3198
3075	65.2575
3070	65.2466
3065	65.2866
3060	65.2965
3055	65.1896
3050	65.1367
3045	65.0914
3040	65.0288
3035	64.8813
3030	64.8682
3025	65.0178
3020	65.069
3015	65.141
3010	65.1402
3005	65.1124
3000	65.1797
2995	65.0822
2990	64.9424
2985	64.938
2980	64.9326
2975	64.9315
2970	64.9461
2965	64.9382
2960	64.9657
2955	64.9593
2950	64.9471
2945	64.925
2940	64.8281
2935	64.7645
2930	64.7108
2925	64.5876
2920	64.5964
2915	64.7258
2910	64.7895
2905	64.8618
2900	64.9734
2895	65.0271
2890	64.9829
2885	64.9017
2880	64.9773
2875	65.1323
2870	65.1348
2865	64.97
2860	64.8637
2855	64.7698
2850	64.727
2845	64.846
2840	65.0016
2835	65.0739
2830	65.107
2825	65.1217
2820	65.0682
2815	65.0764
2810	65.1722
2805	65.1583
2800	65.0952
2795	65.0673
2790	65.0565
2785	65.0565
2780	65.0778
2775	65.0547
2770	65.0762
2765	65.154
2760	65.2058
2755	65.1744
2750	65.1873
2745	65.2316
2740	65.237
2735	65.1869
2730	65.1508
2725	65.1634
2720	65.1937
2715	65.1498
2710	65.1845
2705	65.235
2700	65.1594
2695	65.0883
2690	65.0911
2685	65.0801
2680	65.0995
2675	65.0645
2670	65.0133
2665	65.0677
2660	65.0777
2655	65.1107
2650	65.2083
2645	65.1783
2640	65.1794
2635	65.2666
2630	65.3131
2625	65.2152
2620	65.113
2615	65.1123
2610	65.1793
2605	65.2637
2600	65.1962
2595	65.1675
2590	65.1946
2585	65.1898
2580	65.1296
2575	65.1392
2570	65.1566
2565	65.1106
2560	65.0611
2555	65.1346
2550	65.1431
2545	65.0634
2540	65.0586
2535	65.1039
2530	65.1906
2525	65.1412
2520	65.041
2515	65.1198
2510	65.2595
2505	65.2108
2500	65.0842
2495	65
2490	65.0735
2485	65.2089
2480	65.2199
2475	65.2112
2470	65.2029
2465	65.1631
2460	65.1636
2455	65.1351
2450	65.1264
2445	65.2015
2440	65.2887
2435	65.2546
2430	65.2322
2425	65.2342
2420	65.2037
2415	65.2941
2410	65.2813
2405	65.1292
2400	65.0662
2395	65.075
2390	65.1358
2385	65.1786
2380	65.1731
2375	65.1776
2370	65.1692
2365	65.2096
2360	65.2354
2355	65.1884
2350	65.1706
2345	65.1878
2340	65.2663
2335	65.3299
2330	65.2554
2325	65.2434
2320	65.3602
2315	65.3677
2310	65.3233
2305	65.2938
2300	65.3125
2295	65.3136
2290	65.1973
2285	65.1619
2280	65.1728
2275	65.2334
2270	65.2939
2265	65.2995
2260	65.2933
2255	65.3183
2250	65.2891
2245	65.2778
2240	65.271
2235	65.2367
2230	65.2682
2225	65.2602
2220	65.2416
2215	65.2673
2210	65.2418
2205	65.1944
2200	65.191
2195	65.1912
2190	65.1895
2185	65.2531
2180	65.2587
2175	65.1428
2170	65.1254
2165	65.1479
2160	65.1456
2155	65.187
2150	65.279
2145	65.3472
2140	65.2095
2135	65.0521
2130	65.0499
2125	65.1087
2120	65.1269
2115	65.1526
2110	65.221
2105	65.236
2100	65.1907
2095	65.1911
2090	65.1732
2085	65.1642
2080	65.1572
2075	65.1076
2070	65.1583
2065	65.2352
2060	65.2294
2055	65.2614
2050	65.2779
2045	65.1819
2040	65.1489
2035	65.1906
2030	65.1576
2025	65.1394
2020	65.2065
2015	65.2445
2010	65.1657
2005	65.0975
2000	65.0733
1995	65.0724
1990	65.0963
1985	65.1781
1980	65.2435
1975	65.2142
1970	65.1578
1965	65.1966
1960	65.1938
1955	65.1436
1950	65.1757
1945	65.2506
1940	65.227
1935	65.1689
1930	65.2046
1925	65.1783
1920	65.1618
1915	65.2236
1910	65.2321
1905	65.2572
1900	65.267
1895	65.2302
1890	65.1798
1885	65.1951
1880	65.29
1875	65.2584
1870	65.205
1865	65.2244
1860	65.2364
1855	65.2458
1850	65.2205
1845	65.1872
1840	65.1064
1835	65.0185
1830	65.0889
1825	65.1825
1820	65.2071
1815	65.1979
1810	65.2395
1805	65.2334
1800	65.1435
1795	65.1497
1790	65.1741
1785	65.1594
1780	65.176
1775	65.2241
1770	65.2327
1765	65.1498
1760	65.1248
1755	65.1092
1750	65.0395
1745	65.0155
1740	65.014
1735	64.9315
1730	64.9153
1725	64.9527
1720	65.0346
1715	65.147
1710	65.1604
1705	65.085
1700	65.0677
1695	65.1318
1690	65.1304
1685	65.1598
1680	65.0929
1675	65.0344
1670	65.0667
1665	65.0976
1660	65.1267
1655	65.0916
1650	65.0213
1645	64.9944
1640	64.9777
1635	64.9935
1630	65.0246
1625	65.0932
1620	65.228
1615	65.1771
1610	65.0243
1605	65.0328
1600	65.0625
1595	65.065
1590	65.1037
1585	65.069
1580	65.0153
1575	64.9646
1570	64.948
1565	64.9356
1560	64.9242
1555	64.8242
1550	64.8673
1545	64.9444
1540	64.8947
1535	64.8432
1530	64.9434
1525	65.0695
1520	64.9874
1515	64.916
1510	64.9585
1505	64.974
1500	65.0138
1495	64.9208
1490	64.8977
1485	64.8866
1480	64.9543
1475	65.0778
1470	65.1047
1465	65.0529
1460	64.9572
1455	64.8575
1450	64.8362
1445	64.8135
1440	64.86
1435	64.89
1430	64.9277
1425	64.915
1420	64.8805
1415	64.8991
1410	64.8764
1405	64.8781
1400	64.969
1395	64.8913
1390	64.7883
1385	64.8797
1380	64.9519
1375	64.977
1370	64.9653
1365	64.9978
1360	65.0483
1355	65.0817
1350	65.0138
1345	64.9511
1340	64.9381
1335	64.885
1330	64.9119
1325	64.8786
1320	64.8884
1315	64.9473
1310	64.9113
1305	64.8856
1300	64.852
1295	64.8384
1290	64.9052
1285	64.9507
1280	64.8987
1275	64.7849
1270	64.7508
1265	64.7744
1260	64.829
1255	64.8193
1250	64.8309
1245	64.8309
1240	64.7944
1235	64.8058
1230	64.8359
1225	64.8554
1220	64.8423
1215	64.8717
1210	64.9044
1205	64.7718
1200	64.7762
1195	64.7585
1190	64.6126
1185	64.5822
1180	64.6423
1175	64.7412
1170	64.8003
1165	64.7186
1160	64.6671
1155	64.6277
1150	64.6375
1145	64.6453
1140	64.5533
1135	64.5251
1130	64.5833
1125	64.582
1120	64.6011
1115	64.6009
1110	64.5856
1105	64.6147
1100	64.5107
1095	64.4771
1090	64.6249
1085	64.6383
1080	64.5461
1075	64.4739
1070	64.5308
1065	64.5868
1060	64.488
1055	64.444
1050	64.5502
1045	64.6644
1040	64.6077
1035	64.5248
1030	64.3926
1025	64.3988
1020	64.4159
1015	64.4433
1010	64.4966
1005	64.4586
1000	64.4403
995	 64.4755
990	 64.4729
985	 64.4223
980	 64.4693
975	 64.491
970	 64.4011
965	 64.5402
960	 64.6149
955	 64.4208
950	 64.2735
945	 64.2982
940	 64.1962
935	 63.7828
930	 63.7353
925	 64.1902
920	 64.6279
915	 64.5844
910	 64.216
905	 63.6901
900	 63.8158
895	 63.819
890	 63.3357
885	 63.6659
880	 64.5141
875	 64.8103
870	 64.5517
865	 64.4808
860	 64.464
855	 64.3721
850	 64.3061
845	 64.246
840	 63.9832
835	 64.0377
830	 64.0548
825	 63.831
820	 63.6098
815	 63.5073
810	 63.3952
805	 63.506
800	 63.6147
795	 63.7283
790	 63.7524
785	 63.7573
780	 63.7616
775	 63.7154
770	 63.6168
765	 63.7715
760	 63.6664
755	 63.3871
750	 63.2893
745	 63.2154
740	 63.2512
735	 63.2073
730	 63.0826
725	 63.0036
720	 63.0489
715	 63.2406
710	 63.0732
705	 62.9957
700	 63.0081
695	 62.9327
690	 62.8834
685	 62.5695
680	 62.3638
675	 62.4466
670	 62.6832
665	 62.7011
660	 62.637
655	 62.7047
650	 62.5806
645	 62.443
640	 62.1625
635	 62.0589
630	 62.1914
625	 62.3149
620	 62.1206
615	 61.8678
610	 61.904
605	 61.8555
600	 61.6722
595	 61.7853
590	 61.6551
585	 61.2668
580	 61.2532
575	 61.017
570	 61.0871
565	 61.2977
560	 61.2643
555	 61.2997
550	 61.3275
545	 61.1101
540	 60.9098
535	 60.7208
530	 60.477
525	 60.2775
520	 60.519
515	 60.78
510	 60.5435
505	 60.0809
500	 59.6562
495	 59.1639
490	 58.8564
485	 58.7054
480	 58.7288
475	 59.1846
470	 59.0521
465	 58.5441
460	 58.5124
455	 58.5237
450	 58.2989
445	 57.5648
440	 57.2091
435	 56.2806
430	 55.3486
425	 54.8351
420	 53.7699
415	 52.0172
410	 52.9356
405	 58.2726
400	 58.2195
395	 55.1179
390	 55.2989
385	 52.2432
380	 56.2892
375	 57.9218
370	 45.7311