File: Bakgrunnsmateriale/MATLAB/FTIR/ftir_data/subBb/Mapping_36/C-4040-8_t15.asc
PE IR       SPECTRUM    SPECTRUM    ASCII       PEDS        1.60
  -1
C-B92E~1.ASC
17/05/02
12:07:57.00
17/05/02
12:08:24.00
tln
$C-4040-8_t0015$<tbV0>[2.5,-3.0,8.0,0.0,22,1,0]
27.028
64

2002,4.07
MIRTGS : RIGHTBACK : INTERNAL 2
MIR : ON : INTERNAL 2
OPTKBR

0.200000
8
8.000000
FILLER
RATIO
SPECTRUM
UNLOCKED 256

DOUBLE
64
COMBINED
1
0
0

0.002000
RATIO

1
0
TRUE
51149
0
LEFT NOT FITTED RIGHT NOT FITTED 0
NONE
NONE
15600
12
4.427000
51148
TRUE
1 0 8 72 0 0 0 0

15798

#HDR
-1
-1
#GR
µM
%T
2.38419e-05
0.0
1.282000
0.002000
12874
8
94.2525
30.7509
#DATA
1.282000	 64.2974
1.300000	 64.7459
1.318000	 64.2028
1.336000	 65.3533
1.354000	 65.0992
1.372000	 64.5006
1.390000	 64.0466
1.408000	 63.6009
1.426000	 62.758
1.444000	 62.992
1.462000	 62.9266
1.480000	 64.2351
1.498000	 62.8894
1.516000	 65.3357
1.534000	 64.0462
1.552000	 65.2013
1.570000	 63.7484
1.588000	 64.4125
1.606000	 64.5856
1.624000	 63.8706
1.642000	 64.2826
1.660000	 63.5979
1.678000	 64.3377
1.696000	 65.0616
1.714000	 64.2125
1.732000	 63.8579
1.750000	 63.476
1.768000	 63.4202
1.786000	 63.699
1.804000	 63.8064
1.822000	 63.8608
1.840000	 65.0371
1.858000	 64.3225
1.876000	 62.0775
1.894000	 62.1993
1.912000	 63.2873
1.930000	 63.4822
1.948000	 63.6769
1.966000	 64.1949
1.984000	 63.6409
2.002000	 63.8184
2.020000	 63.7811
2.038000	 64.1722
2.056000	 63.5231
2.074000	 63.6146
2.092000	 63.9327
2.110000	 63.5955
2.128000	 63.6078
2.146000	 63.3957
2.164000	 63.8123
2.182000	 63.6697
2.200000	 63.6595
2.218000	 63.5709
2.236000	 63.9128
2.254000	 64.6557
2.272000	 63.8114
2.290000	 64.4843
2.308000	 64.0289
2.326000	 63.5528
2.344000	 63.6556
2.362000	 63.6369
2.380000	 62.9496
2.398000	 63.1375
2.416000	 62.7941
2.434000	 63.0825
2.452000	 62.9308
2.470000	 63.0102
2.488000	 62.8776
2.506000	 62.5465
2.524000	 62.8282
2.542000	 62.7808
2.560000	 62.8165
2.578000	 62.6468
2.596000	 62.8441
2.614000	 62.6347
2.632000	 62.5542
2.650000	 62.541
2.668000	 62.6083
2.686000	 62.2202
2.704000	 62.4044
2.722000	 62.17
2.740000	 62.0998
2.758000	 61.9445
2.776000	 62.0409
2.794000	 61.9709
2.812000	 62.0183
2.830000	 61.7311
2.848000	 61.7545
2.866000	 61.9457
2.884000	 61.7337
2.902000	 61.9578
2.920000	 61.3928
2.938000	 61.3752
2.956000	 61.1992
2.974000	 61.2723
2.992000	 61.1184
3.010000	 61.1582
3.028000	 61.0055
3.046000	 60.8368
3.064000	 60.795
3.082000	 60.8526
3.100000	 60.5589
3.118000	 60.6964
3.136000	 60.4496
3.154000	 60.5466
3.172000	 60.3194
3.190000	 60.1272
3.208000	 60.1687
3.226000	 60.3396
3.244000	 60.2212
3.262000	 60.052
3.280000	 59.9593
3.298000	 59.7433
3.316000	 59.6772
3.334000	 59.6292
3.352000	 59.6136
3.370000	 59.4086
3.388000	 59.1594
3.406000	 59.055
3.424000	 58.9823
3.442000	 59.0313
3.460000	 59.0547
3.478000	 59.0245
3.496000	 58.8236
3.514000	 58.6887
3.532000	 58.7627
3.550000	 58.6528
3.568000	 58.6014
3.586000	 58.4911
3.604000	 58.4614
3.622000	 58.3912
3.640000	 58.359
3.658000	 58.3217
3.676000	 58.227
3.694000	 58.0723
3.712000	 57.9966
3.730000	 57.9295
3.748000	 57.6781
3.766000	 57.7476
3.784000	 57.7633
3.802000	 57.701
3.820000	 57.516
3.838000	 57.5174
3.856000	 57.4601
3.874000	 57.2932
3.892000	 57.1946
3.910000	 57.1949
3.928000	 57.0873
3.946000	 57.1071
3.964000	 57.0846
3.982000	 56.8329
4.000000	 56.8414
4.018000	 56.8775
4.036000	 56.7615
4.054000	 56.7279
4.072000	 56.6098
4.090000	 56.5182
4.108000	 56.5932
4.125999	 56.3908
4.144000	 56.4077
4.162000	 56.2236
4.180000	 56.1039
4.198000	 55.9882
4.216000	 55.941
4.234000	 55.8079
4.252000	 55.7253
4.270000	 55.6906
4.288000	 55.5686
4.306000	 55.5884
4.324000	 55.5064
4.342000	 55.3561
4.359999	 55.3455
4.378000	 55.296
4.396000	 55.3526
4.414000	 55.1624
4.432000	 55.21
4.450000	 55.1251
4.468000	 55.0842
4.486000	 55.0405
4.504000	 54.9186
4.522000	 54.8624
4.540000	 54.7736
4.558000	 54.7798
4.576000	 54.6023
4.594000	 54.4329
4.612000	 54.5427
4.630000	 54.525
4.648000	 54.3343
4.666000	 54.1753
4.684000	 54.1987
4.702000	 54.0556
4.720000	 54.0874
4.738000	 54.1871
4.756000	 54.0641
4.774000	 53.9175
4.792000	 53.8867
4.810000	 53.8519
4.828000	 53.737
4.846000	 53.6516
4.864000	 53.7779
4.882000	 53.6862
4.900000	 53.5081
4.918000	 53.4545
4.936000	 53.4808
4.954000	 53.4973
4.972000	 53.3472
4.990000	 53.3079
5.008000	 53.2322
5.026000	 53.1921
5.044000	 53.1969
5.062000	 53.1443
5.080000	 53.0449
5.098000	 53.018
5.116000	 53.0183
5.134000	 52.9992
5.152000	 52.9568
5.170000	 52.881
5.188000	 52.8052
5.206000	 52.6956
5.224000	 52.5999
5.242000	 52.4884
5.260000	 52.4948
5.278000	 52.4148
5.296000	 52.3909
5.314000	 52.3676
5.332000	 52.3307
5.350000	 52.3119
5.368000	 52.2645
5.386000	 52.0765
5.404000	 52.0943
5.422000	 52.1029
5.440000	 51.9537
5.458000	 51.8678
5.476000	 51.8527
5.494000	 51.8722
5.512000	 51.8942
5.530000	 51.8273
5.548000	 51.6809
5.566000	 51.6387
5.584000	 51.5992
5.602000	 51.6184
5.620000	 51.5788
5.638000	 51.4846
5.656000	 51.4346
5.674000	 51.4318
5.692000	 51.3085
5.710000	 51.193
5.728000	 51.2359
5.746000	 51.2681
5.764000	 51.1665
5.782000	 51.0485
5.800000	 51.0448
5.818000	 51.0247
5.836000	 50.9921
5.854000	 51.0241
5.872000	 50.9578
5.890000	 50.9079
5.908000	 50.9034
5.926000	 50.8221
5.944000	 50.7768
5.962000	 50.7565
5.980000	 50.7426
5.998000	 50.7435
6.016000	 50.6109
6.034000	 50.5144
6.052000	 50.5267
6.070000	 50.4921
6.088000	 50.4259
6.106000	 50.4382
6.124000	 50.5034
6.142000	 50.4479
6.160000	 50.3596
6.178000	 50.3781
6.196000	 50.3599
6.214000	 50.2513
6.232000	 50.1258
6.250000	 50.0609
6.268000	 50.066
6.286000	 50.0293
6.304000	 50.0039
6.322000	 50.0455
6.340000	 50.0105
6.358000	 49.9127
6.376000	 49.8165
6.394000	 49.7595
6.412000	 49.7334
6.430000	 49.7209
6.448000	 49.7232
6.466000	 49.6975
6.484000	 49.6242
6.502000	 49.5656
6.520000	 49.5832
6.538000	 49.6473
6.556000	 49.6722
6.574000	 49.6117
6.592000	 49.5784
6.610000	 49.5886
6.628000	 49.5536
6.646000	 49.5543
6.664000	 49.586
6.682000	 49.4644
6.700000	 49.302
6.718000	 49.3128
6.736000	 49.3939
6.754000	 49.4251
6.772000	 49.351
6.790000	 49.2533
6.808000	 49.2108
6.826000	 49.169
6.844000	 49.134
6.862000	 49.1161
6.880000	 49.0689
6.898000	 49.0228
6.916000	 49.008
6.934000	 49.0089
6.952000	 49.0069
6.970000	 48.9616
6.988000	 48.9239
7.006000	 48.9386
7.024000	 48.9238
7.042000	 48.8791
7.060000	 48.8463
7.078000	 48.7948
7.096000	 48.744
7.114000	 48.7215
7.132000	 48.7154
7.150000	 48.7354
7.168000	 48.7488
7.186000	 48.7187
7.204000	 48.6776
7.222000	 48.6354
7.240000	 48.5662
7.258000	 48.471
7.276000	 48.3892
7.294000	 48.3655
7.312000	 48.3833
7.330000	 48.4043
7.348000	 48.4167
7.366000	 48.3876
7.384000	 48.3104
7.402000	 48.2461
7.420000	 48.2153
7.438000	 48.1888
7.456000	 48.1658
7.474000	 48.1601
7.492000	 48.1567
7.510000	 48.1237
7.528000	 48.0571
7.546000	 48.0008
7.564000	 47.9894
7.582000	 48.0006
7.600000	 47.9971
7.618000	 47.9754
7.636000	 47.9572
7.654000	 47.9582
7.672000	 47.9615
7.690000	 47.9297
7.708000	 47.8605
7.726000	 47.8038
7.744000	 47.7951
7.762000	 47.8042
7.780000	 47.793
7.798000	 47.7782
7.816000	 47.7876
7.834000	 47.7987
7.852000	 47.7841
7.870000	 47.7634
7.888000	 47.7565
7.906000	 47.74
7.924000	 47.6824
7.942000	 47.5824
7.960000	 47.47
7.978000	 47.3953
7.996000	 47.3867
8.013999	 47.413
8.032000	 47.4245
8.050000	 47.4141
8.068000	 47.4097
8.086000	 47.4276
8.103999	 47.4547
8.122000	 47.4661
8.140000	 47.4476
8.158000	 47.4041
8.176000	 47.3442
8.193999	 47.2746
8.212000	 47.2166
8.230000	 47.1997
8.248000	 47.2277
8.266000	 47.2675
8.283999	 47.2825
8.302000	 47.2624
8.320000	 47.2216
8.338000	 47.1831
8.356000	 47.1613
8.374000	 47.1492
8.391999	 47.1223
8.410000	 47.0636
8.428000	 46.9857
8.446000	 46.9275
8.464000	 46.9183
8.481999	 46.952
8.500000	 46.9992
8.518000	 47.036
8.536000	 47.0525
8.554000	 47.0421
8.571999	 47.0013
8.590000	 46.9381
8.608000	 46.8704
8.626000	 46.8157
8.644000	 46.7849
8.661999	 46.7751
8.680000	 46.7689
8.698000	 46.7465
8.716000	 46.7018
8.734000	 46.6436
8.751999	 46.5819
8.770000	 46.5189
8.788000	 46.4563
8.806000	 46.4029
8.824000	 46.3703
8.842000	 46.3657
8.859999	 46.3823
8.878000	 46.3973
8.896000	 46.3831
8.914000	 46.3306
8.932000	 46.2608
8.949999	 46.2073
8.968000	 46.185
8.986000	 46.1798
9.004000	 46.1709
9.022000	 46.1538
9.039999	 46.1384
9.058000	 46.1294
9.076000	 46.1205
9.094000	 46.1088
9.112000	 46.1009
9.129999	 46.1049
9.148000	 46.121
9.166000	 46.1425
9.184000	 46.1627
9.202000	 46.1788
9.219999	 46.1892
9.238000	 46.1881
9.256000	 46.1648
9.274000	 46.113
9.292000	 46.0409
9.310000	 45.9706
9.327999	 45.9271
9.346000	 45.9207
9.364000	 45.9396
9.382000	 45.9582
9.400000	 45.9555
9.418000	 45.9294
9.436000	 45.8929
9.454000	 45.8598
9.472000	 45.8313
9.490000	 45.7997
9.508000	 45.7647
9.526000	 45.7425
9.544000	 45.7504
9.561999	 45.7865
9.580000	 45.8287
9.598000	 45.8525
9.616000	 45.8481
9.634000	 45.8214
9.652000	 45.7861
9.670000	 45.7547
9.688000	 45.734
9.706000	 45.7218
9.724000	 45.7084
9.742000	 45.6833
9.760000	 45.6457
9.778000	 45.6078
9.795999	 45.5844
9.814000	 45.5776
9.832000	 45.5737
9.850000	 45.557
9.868000	 45.5258
9.886000	 45.4945
9.904000	 45.4789
9.922000	 45.4808
9.940000	 45.4843
9.958000	 45.4687
9.976000	 45.4275
9.994000	 45.3734
10.012	45.3272
10.03	45.304
10.048	45.3038
10.066	45.317
10.084	45.337
10.102	45.3648
10.12	45.4049
10.138	45.4572
10.156	45.5129
10.174	45.5594
10.192	45.5882
10.21	45.5971
10.228	45.5861
10.246	45.5524
10.264	45.4913
10.282	45.4034
10.3	45.3018
10.318	45.2103
10.336	45.1553
10.354	45.1491
10.372	45.1813
10.39	45.2194
10.408	45.2274
10.426	45.183
10.444	45.0895
10.462	44.9719
10.48	44.8597
10.498	44.7708
10.516	44.7034
10.534	44.6434
10.552	44.5778
10.57	44.5038
10.588	44.4225
10.606	44.3323
10.624	44.23
10.642	44.1192
10.66	44.0201
10.678	43.9689
10.696	43.998
10.714	44.1174
10.732	44.3011
10.75	44.4984
10.768	44.6514
10.786	44.7256
10.804	44.716
10.822	44.645
10.84	44.5487
10.858	44.4622
10.876	44.4128
10.894	44.4146
10.912	44.468
10.93	44.5585
10.948	44.66
10.966	44.7396
10.984	44.7707
11.002	44.7404
11.02	44.655
11.038	44.5372
11.056	44.4156
11.074	44.315
11.092	44.2497
11.11	44.2209
11.128	44.2195
11.146	44.2314
11.164	44.2395
11.182	44.2321
11.2	44.2044
11.218	44.1606
11.236	44.1136
11.254	44.0791
11.272	44.0684
11.29	44.083
11.308	44.1122
11.326	44.1364
11.344	44.1376
11.362	44.1059
11.38	44.0458
11.398	43.9736
11.416	43.912
11.434	43.8794
11.452	43.8844
11.47	43.9224
11.488	43.9789
11.506	44.035
11.524	44.0741
11.542	44.0872
11.56	44.0727
11.578	44.0367
11.596	43.9886
11.614	43.939
11.632	43.8969
11.65	43.8681
11.668	43.8557
11.686	43.8593
11.704	43.8759
11.722	43.8983
11.74	43.9162
11.758	43.9179
11.776	43.8928
11.794	43.8359
11.812	43.7506
11.83	43.6487
11.848	43.5473
11.866	43.4636
11.884	43.4098
11.902	43.3913
11.92	43.4036
11.938	43.4356
11.956	43.4736
11.974	43.5037
11.992	43.5162
12.01	43.5063
12.028	43.475
12.046	43.4277
12.064	43.3734
12.082	43.3226
12.1	43.2855
12.118	43.2695
12.136	43.2779
12.154	43.3093
12.172	43.3591
12.19	43.4205
12.208	43.4858
12.226	43.5464
12.244	43.5936
12.262	43.619
12.28	43.6162
12.298	43.5823
12.316	43.5202
12.334	43.4379
12.352	43.3476
12.37	43.2621
12.388	43.1925
12.406	43.1444
12.424	43.1173
12.442	43.1055
12.46	43.1015
12.478	43.0988
12.496	43.0942
12.514	43.0877
12.532	43.0818
12.55	43.0793
12.568	43.0815
12.586	43.089
12.604	43.1011
12.622	43.1177
12.64	43.1385
12.658	43.1637
12.676	43.1926
12.694	43.223
12.712	43.2513
12.73	43.2731
12.748	43.2844
12.766	43.283
12.784	43.2694
12.802	43.2471
12.82	43.2205
12.838	43.1939
12.856	43.1693
12.874	43.1464
12.892	43.1224
12.91	43.0934
12.928	43.0572
12.946	43.014
12.964	42.9671
12.982	42.9219
13	42.8846
13.018	42.8605
13.036	42.852
13.054	42.8585
13.072	42.8762
13.09	42.8991
13.108	42.9211
13.126	42.9364
13.144	42.9416
13.162	42.9357
13.18	42.9198
13.198	42.8962
13.216	42.8679
13.234	42.8375
13.252	42.8068
13.27	42.7767
13.288	42.7476
13.306	42.7199
13.324	42.6939
13.342	42.6707
13.36	42.6518
13.378	42.6393
13.396	42.6349
13.414	42.6397
13.432	42.6533
13.45	42.6737
13.468	42.6975
13.486	42.7202
13.504	42.737
13.522	42.7436
13.54	42.737
13.558	42.7158
13.576	42.6806
13.594	42.6332
13.612	42.5771
13.63	42.5164
13.648	42.4557
13.666	42.399
13.684	42.3501
13.702	42.311
13.72	42.2827
13.738	42.2645
13.756	42.2543
13.774	42.2492
13.792	42.2458
13.81	42.2409
13.828	42.2319
13.846	42.2171
13.864	42.196
13.882	42.1691
13.9	42.1378
13.918	42.1039
13.936	42.0697
13.954	42.0374
13.972	42.0088
13.99	41.985
14.008	41.9665
14.026	41.9532
14.044	41.944
14.062	41.9375
14.08	41.9323
14.098	41.927
14.116	41.9208
14.134	41.9135
14.152	41.9056
14.17	41.8984
14.188	41.8935
14.206	41.8926
14.224	41.8972
14.242	41.9073
14.26	41.9221
14.278	41.9394
14.296	41.9564
14.314	41.9698
14.332	41.9768
14.35	41.9746
14.368	41.9619
14.386	41.9385
14.404	41.9054
14.422	41.8643
14.44	41.8175
14.458	41.7674
14.476	41.7162
14.494	41.6654
14.512	41.6165
14.53	41.57
14.548	41.5258
14.566	41.4838
14.584	41.443
14.602	41.403
14.62	41.3632
14.638	41.3234
14.656	41.2838
14.674	41.2449
14.692	41.2077
14.71	41.1736
14.728	41.144
14.746	41.1208
14.764	41.1053
14.782	41.098
14.8	41.0989
14.818	41.1069
14.836	41.1205
14.854	41.1367
14.872	41.1523
14.89	41.1646
14.908	41.1712
14.926	41.1706
14.944	41.162
14.962	41.1462
14.98	41.1249
14.998	41.1
15.016	41.074
15.034	41.0491
15.052	41.0276
15.07	41.0106
15.088	40.999
15.106	40.9929
15.124	40.9921
15.142	40.9956
15.16	41.0023
15.178	41.0111
15.196	41.021
15.214	41.0308
15.232	41.0396
15.25	41.0461
15.268	41.0493
15.286	41.0479
15.304	41.0407
15.322	41.0266
15.34	41.0049
15.358	40.9747
15.376	40.9362
15.394	40.8898
15.412	40.8367
15.43	40.7785
15.448	40.7176
15.466	40.6569
15.484	40.5989
15.502	40.5459
15.52	40.5008
15.538	40.4647
15.556	40.4382
15.574	40.4213
15.592	40.4128
15.61	40.4103
15.628	40.4117
15.646	40.4142
15.664	40.4145
15.682	40.4103
15.7	40.4001
15.718	40.3829
15.736	40.3591
15.754	40.3302
15.772	40.2979
15.79	40.2654
15.808	40.236
15.826	40.2121
15.844	40.1963
15.862	40.1902
15.88	40.1941
15.898	40.2074
15.916	40.2283
15.934	40.2536
15.952	40.2804
15.97	40.3053
15.988	40.3239
16.006	40.334
16.024	40.3337
16.042	40.3214
16.06	40.298
16.078	40.2645
16.096	40.2232
16.114	40.1776
16.132	40.1305
16.15	40.0851
16.168	40.0449
16.186	40.0112
16.204	39.9856
16.222	39.9684
16.24	39.9586
16.258	39.9552
16.276	39.9559
16.294	39.9584
16.312	39.9611
16.33	39.962
16.348	39.9602
16.366	39.9553
16.384	39.9474
16.402	39.9374
16.42	39.9263
16.438	39.9154
16.456	39.9059
16.474	39.8987
16.492	39.8946
16.51	39.8936
16.528	39.8955
16.546	39.8996
16.564	39.9045
16.582	39.9094
16.6	39.9126
16.618	39.9131
16.636	39.9103
16.654	39.9035
16.672	39.8928
16.69	39.8783
16.708	39.8609
16.726	39.8416
16.744	39.8209
16.762	39.8004
16.78	39.7803
16.798	39.7612
16.816	39.7429
16.834	39.725
16.852	39.7065
16.87	39.6861
16.888	39.6631
16.906	39.6354
16.924	39.6024
16.942	39.563
16.96	39.5171
16.978	39.465
16.996	39.4076
17.014	39.3469
17.032	39.2842
17.05	39.2229
17.068	39.165
17.086	39.1128
17.104	39.0693
17.122	39.0354
17.14	39.0128
17.158	39.0008
17.176	38.9995
17.194	39.0066
17.212	39.0204
17.23	39.038
17.248	39.0559
17.266	39.0723
17.284	39.083
17.302	39.0869
17.32	39.0817
17.338	39.0665
17.356	39.0412
17.374	39.0062
17.392	38.9628
17.41	38.9123
17.428	38.8574
17.446	38.7992
17.464	38.7411
17.482	38.6844
17.5	38.6315
17.518	38.5839
17.536	38.5428
17.554	38.5095
17.572	38.4843
17.59	38.4677
17.608	38.4594
17.626	38.4596
17.644	38.4675
17.662	38.483
17.68	38.5046
17.698	38.5318
17.716	38.5636
17.734	38.5986
17.752	38.636
17.77	38.6742
17.788	38.7126
17.806	38.7493
17.824	38.7838
17.842	38.8149
17.86	38.8422
17.878	38.8651
17.896	38.8834
17.914	38.8971
17.932	38.9066
17.95	38.9121
17.968	38.9143
17.986	38.9135
18.004	38.9103
18.022	38.905
18.04	38.8979
18.058	38.8893
18.076	38.8791
18.094	38.867
18.112	38.8529
18.13	38.8361
18.148	38.8165
18.166	38.7935
18.184	38.7672
18.202	38.7373
18.22	38.7044
18.238	38.6685
18.256	38.6306
18.274	38.591
18.292	38.5513
18.31	38.5118
18.328	38.4741
18.346	38.4384
18.364	38.4059
18.382	38.3765
18.4	38.3506
18.418	38.3276
18.436	38.3075
18.454	38.2889
18.472	38.2715
18.49	38.2535
18.508	38.2348
18.526	38.2137
18.544	38.1899
18.562	38.1628
18.58	38.1322
18.598	38.0982
18.616	38.0609
18.634	38.0209
18.652	37.9785
18.67	37.9348
18.688	37.8902
18.706	37.8458
18.724	37.8019
18.742	37.7597
18.76	37.7194
18.778	37.6818
18.796	37.6471
18.814	37.6158
18.832	37.5878
18.85	37.5633
18.868	37.5421
18.886	37.5242
18.904	37.5092
18.922	37.4971
18.94	37.4875
18.958	37.4801
18.976	37.4745
18.994	37.4702
19.012	37.4672
19.03	37.4652
19.048	37.4642
19.066	37.4642
19.084	37.4652
19.102	37.4675
19.12	37.4712
19.138	37.4763
19.156	37.4828
19.174	37.4911
19.192	37.5007
19.21	37.5118
19.228	37.5238
19.246	37.5364
19.264	37.549
19.282	37.5608
19.3	37.5715
19.318	37.5797
19.336	37.5853
19.354	37.5872
19.372	37.5853
19.39	37.5791
19.408	37.5684
19.426	37.5538
19.444	37.5351
19.462	37.5139
19.48	37.4898
19.498	37.4654
19.516	37.4406
19.534	37.4178
19.552	37.3977
19.57	37.3819
19.588	37.3717
19.606	37.3677
19.624	37.3713
19.642	37.3822
19.66	37.4009
19.678	37.427
19.696	37.4595
19.714	37.4984
19.732	37.5408
19.75	37.5869
19.768	37.633
19.786	37.6793
19.804	37.7222
19.822	37.7606
19.84	37.7928
19.858	37.8167
19.876	37.832
19.894	37.8365
19.912	37.8306
19.93	37.8132
19.948	37.7844
19.966	37.7451
19.984	37.695
20.002	37.6361
20.02	37.5685
20.038	37.494
20.056	37.4142
20.074	37.3297
20.092	37.2434
20.11	37.1548
20.128	37.0671
20.146	36.98
20.164	36.8955
20.182	36.8141
20.2	36.7366
20.218	36.6642
20.236	36.5968
20.254	36.5354
20.272	36.48
20.29	36.431
20.308	36.3885
20.326	36.3523
20.344	36.3227
20.362	36.2992
20.38	36.2817
20.398	36.27
20.416	36.2634
20.434	36.2622
20.452	36.2649
20.47	36.2715
20.488	36.2811
20.506	36.2927
20.524	36.3064
20.542	36.3205
20.56	36.3353
20.578	36.3494
20.596	36.3627
20.614	36.3747
20.632	36.3844
20.65	36.392
20.668	36.3967
20.686	36.3986
20.704	36.3974
20.722	36.3927
20.74	36.3849
20.758	36.3736
20.776	36.3591
20.794	36.3414
20.812	36.3205
20.83	36.2969
20.848	36.2706
20.866	36.2419
20.884	36.2114
20.902	36.179
20.92	36.1457
20.938	36.1117
20.956	36.0772
20.974	36.0434
20.992	36.01
21.01	35.9783
21.028	35.9482
21.046	35.9202
21.064	35.8952
21.082	35.873
21.1	35.8541
21.118	35.8387
21.136	35.8265
21.154	35.8178
21.172	35.8123
21.19	35.8095
21.208	35.8095
21.226	35.8115
21.244	35.8147
21.262	35.8195
21.28	35.824
21.298	35.8286
21.316	35.8321
21.334	35.8335
21.352	35.8331
21.37	35.8294
21.388	35.8224
21.406	35.8118
21.424	35.7968
21.442	35.7777
21.46	35.7544
21.478	35.7267
21.496	35.6949
21.514	35.6595
21.532	35.6203
21.55	35.5783
21.568	35.5339
21.586	35.4871
21.604	35.4395
21.622	35.3907
21.64	35.3416
21.658	35.2935
21.676	35.2457
21.694	35.1997
21.712	35.1554
21.73	35.1132
21.748	35.0737
21.766	35.0367
21.784	35.0025
21.802	34.9711
21.82	34.9425
21.838	34.9166
21.856	34.8935
21.874	34.8728
21.892	34.8543
21.91	34.838
21.928	34.8235
21.946	34.8105
21.964	34.7992
21.982	34.7887
22	34.7793
22.018	34.7708
22.036	34.7626
22.054	34.7549
22.072	34.7475
22.09	34.74
22.108	34.7326
22.126	34.7248
22.144	34.7167
22.162	34.7081
22.18	34.6987
22.198	34.6886
22.216	34.6776
22.234	34.6652
22.252	34.6517
22.27	34.6367
22.288	34.6201
22.306	34.6019
22.324	34.5819
22.342	34.5602
22.36	34.5367
22.378	34.5114
22.396	34.4843
22.414	34.4554
22.432	34.4247
22.45	34.3922
22.468	34.358
22.486	34.3221
22.504	34.2845
22.522	34.2453
22.54	34.2045
22.558	34.1622
22.576	34.1181
22.594	34.0723
22.612	34.0249
22.63	33.9757
22.648	33.9247
22.666	33.8718
22.684	33.817
22.702	33.7603
22.72	33.7018
22.738	33.6415
22.756	33.5794
22.774	33.5158
22.792	33.4508
22.81	33.3845
22.828	33.3176
22.846	33.2504
22.864	33.1828
22.882	33.1159
22.9	33.0496
22.918	32.9841
22.936	32.9206
22.954	32.8591
22.972	32.7998
22.99	32.7443
23.008	32.6922
23.026	32.6439
23.044	32.6008
23.062	32.5628
23.08	32.5299
23.098	32.5025
23.116	32.4808
23.134	32.4644
23.152	32.4536
23.17	32.4483
23.188	32.4483
23.206	32.4532
23.224	32.4633
23.242	32.478
23.26	32.4965
23.278	32.5192
23.296	32.5456
23.314	32.5743
23.332	32.6058
23.35	32.6396
23.368	32.6741
23.386	32.7098
23.404	32.7463
23.422	32.7821
23.44	32.8176
23.458	32.8524
23.476	32.8851
23.494	32.9159
23.512	32.9446
23.53	32.9699
23.548	32.9919
23.566	33.0106
23.584	33.0248
23.602	33.0343
23.62	33.0395
23.638	33.0395
23.656	33.0343
23.674	33.024
23.692	33.0082
23.71	32.9867
23.728	32.9597
23.746	32.927
23.764	32.8883
23.782	32.8439
23.8	32.7939
23.818	32.7386
23.836	32.6776
23.854	32.6118
23.872	32.5418
23.89	32.4671
23.908	32.3885
23.926	32.3073
23.944	32.223
23.962	32.1361
23.98	32.0484
23.998	31.9599
24.016	31.8705
24.034	31.7817
24.052	31.6941
24.07	31.607
24.088	31.5218
24.106	31.4397
24.124	31.3599
24.142	31.2832
24.16	31.2105
24.178	31.1411
24.196	31.0758
24.214	31.0156
24.232	30.9604
24.25	30.9102
24.268	30.8662
24.286	30.8287
24.304	30.7971
24.322	30.7732
24.34	30.7584
24.358	30.7513
24.376	30.7534
24.394	30.7662
24.412	30.7888
24.43	30.8218
24.448	30.8672
24.466	30.9252
24.484	30.995
24.502	31.0784
24.52	31.1764
24.538	31.2883
24.556	31.4143
24.574	31.5549
24.592	31.7105
24.61	31.8803
24.628	32.0636
24.646	32.2609
24.664	32.4724
24.682	32.695
24.7	32.9267
24.718	33.1706
24.736	33.4222
24.754	33.6762
24.772	33.9348
24.79	34.1972
24.808	34.4562
24.826	34.7088
24.844	34.9593
24.862	35.2013
24.88	35.4277
24.898	35.642
24.916	35.8427
24.934	36.024
24.952	36.1836
24.97	36.3246
24.988	36.4442
25.006	36.5398
25.024	36.6115
25.042	36.6608
25.06	36.6889
25.078	36.6949
25.096	36.6784
25.114	36.6444
25.132	36.5967
25.15	36.5308
25.168	36.4512
25.186	36.3657
25.204	36.2753
25.222	36.1761
25.24	36.077
25.258	35.986
25.276	35.8977
25.294	35.815
25.312	35.7451
25.33	35.6912
25.348	35.6493
25.366	35.6227
25.384	35.6153
25.402	35.6275
25.42	35.6573
25.438	35.7039
25.456	35.7674
25.474	35.8499
25.492	35.9467
25.51	36.0527
25.528	36.1706
25.546	36.3006
25.564	36.4334
25.582	36.5613
25.6	36.6918
25.618	36.8196
25.636	36.9344
25.654	37.0321
25.672	37.1194
25.69	37.1893
25.708	37.2339
25.726	37.2534
25.744	37.2504
25.762	37.2224
25.78	37.1668
25.798	37.0821
25.816	36.9724
25.834	36.8425
25.852	36.6931
25.87	36.519
25.888	36.3302
25.906	36.1373
25.924	35.9365
25.942	35.725
25.96	35.5189
25.978	35.3333
25.996	35.1578
26.014	34.9957
26.032	34.8616
26.05	34.767
26.068	34.7021
26.086	34.6706
26.104	34.6802
26.122	34.7361
26.14	34.8346
26.158	34.9731
26.176	35.1494
26.194	35.3672
26.212	35.6273
26.23	35.9177
26.248	36.2264
26.266	36.5621
26.284	36.9238
26.302	37.2929
26.32	37.6523
26.338	38.0167
26.356	38.3806
26.374	38.7237
26.392	39.0293
26.41	39.3132
26.428	39.5685
26.446	39.7798
26.464	39.9354
26.482	40.0457
26.5	40.108
26.518	40.1165
26.536	40.066
26.554	39.9582
26.572	39.798
26.59	39.5901
26.608	39.3343
26.626	39.0236
26.644	38.6713
26.662	38.2915
26.68	37.8867
26.698	37.4442
26.716	36.982
26.734	36.5197
26.752	36.0614
26.77	35.5925
26.788	35.1294
26.806	34.6899
26.824	34.2779
26.842	33.8803
26.86	33.5103
26.878	33.1816
26.896	32.8985
26.914	32.6515
26.932	32.4466
26.95	32.2906
26.968	32.1971
26.986	32.1687
27.004	32.1746
27.022	32.183
27.028	32.1816