File: Bakgrunnsmateriale/MATLAB/FTIR/ftir_data/subBb/Mapping_36/C-4040-8_t24_cm-1.asc
PE IR       SPECTRUM    SPECTRUM    ASCII       PEDS        1.60
  -1
C-9A6F~1.ASC
17/05/02
12:50:44.00
17/05/02
12:50:44.00
tln
$C-4040-8_t0024$<tbV0>[-12.5,2.0,8.0,0.0,22,1,0]
370
64

2002,4.07
MIRTGS : RIGHTBACK : INTERNAL 2
MIR : ON : INTERNAL 2
OPTKBR

0.200000
8
8.000000
FILLER
RATIO
SPECTRUM
UNLOCKED 256

DOUBLE
64
COMBINED
1
0
0

1.000000
RATIO

1
0
TRUE
51149
0
LEFT NOT FITTED RIGHT NOT FITTED 0
NONE
NONE
15600
12
4.427000
51148
TRUE
1 0 8 72 0 0 0 0

15798

#HDR
-1
-1
#GR
CM-1
%T
2.38419e-05
0.0
7800
-1.000000
7431
8
85.8146
43.5031
#DATA
7800	61.5177
7795	61.3614
7790	61.7847
7785	65.6231
7780	68.6607
7775	60.3098
7770	59.2518
7765	62.633
7760	66.4147
7755	69.7192
7750	62.8462
7745	61.2271
7740	66.76
7735	67.378
7730	69.1326
7725	70.8089
7720	71.7936
7715	72.3812
7710	74.1378
7705	72.4389
7700	66.9053
7695	62.6598
7690	63.9068
7685	66.8207
7680	74.0886
7675	76.3035
7670	72.8414
7665	70.3305
7660	73.1951
7655	73.0879
7650	68.2858
7645	64.5532
7640	68.9784
7635	75.5956
7630	72.8961
7625	68.1983
7620	63.987
7615	65.4566
7610	68.6204
7605	71.2651
7600	68.6866
7595	64.3963
7590	64.037
7585	64.5155
7580	63.2654
7575	62.2546
7570	65.2582
7565	65.1016
7560	64.9725
7555	67.6065
7550	66.0656
7545	62.3956
7540	63.3526
7535	67.2083
7530	68.2495
7525	68.0789
7520	65.3277
7515	65.3147
7510	67.9991
7505	67.4385
7500	65.1316
7495	63.0809
7490	63.3515
7485	65.4278
7480	66.3734
7475	67.469
7470	66.1573
7465	63.9351
7460	64.1312
7455	65.5501
7450	64.333
7445	64.5386
7440	64.038
7435	64.2363
7430	66.0349
7425	65.559
7420	65.9105
7415	67.4376
7410	67.1075
7405	66.8941
7400	65.862
7395	64.3358
7390	65.371
7385	67.2584
7380	66.9997
7375	65.6768
7370	65.6912
7365	65.7847
7360	66.517
7355	66.0482
7350	66.3859
7345	66.45
7340	66.3483
7335	65.6455
7330	66.5696
7325	69.8387
7320	71.9454
7315	68.3618
7310	65.5489
7305	67.1451
7300	68.856
7295	69.1486
7290	67.5546
7285	64.0423
7280	62.8747
7275	63.9826
7270	66.7129
7265	66.466
7260	63.8893
7255	64.1813
7250	66.4283
7245	67.3717
7240	65.5706
7235	63.3406
7230	62.5875
7225	62.6841
7220	63.2265
7215	63.2048
7210	63.4291
7205	62.9677
7200	63.8969
7195	64.1147
7190	64.3499
7185	64.1565
7180	65.2675
7175	67.0899
7170	65.4693
7165	63.7575
7160	63.2167
7155	64.4917
7150	64.7829
7145	64.3856
7140	64.7857
7135	63.0974
7130	62.9808
7125	63.3911
7120	64.4899
7115	65.3347
7110	66.2933
7105	64.6903
7100	64.0085
7095	63.5619
7090	62.4597
7085	63.7023
7080	64.0417
7075	64.1412
7070	63.5404
7065	64.9159
7060	67.1834
7055	64.7495
7050	62.7613
7045	62.6961
7040	63.1723
7035	63.6126
7030	66.4387
7025	70.4691
7020	69.6403
7015	65.099
7010	63.0008
7005	63.3887
7000	63.7297
6995	63.6827
6990	62.5656
6985	61.6099
6980	64.3152
6975	64.5036
6970	64.4509
6965	65.9808
6960	65.6071
6955	63.8963
6950	63.6322
6945	65.2216
6940	65.6567
6935	64.195
6930	63.3784
6925	65.9008
6920	65.9766
6915	65.133
6910	63.562
6905	62.7286
6900	64.3353
6895	64.6498
6890	63.4504
6885	62.7784
6880	63.1008
6875	63.526
6870	63.4029
6865	63.9184
6860	64.2159
6855	63.0574
6850	62.2638
6845	63.8951
6840	64.8259
6835	65.6106
6830	65.8892
6825	64.7361
6820	63.1531
6815	64.0477
6810	65.4968
6805	64.4597
6800	64.131
6795	63.9926
6790	62.1943
6785	60.5076
6780	60.9088
6775	62.7599
6770	65.424
6765	64.7119
6760	62.9964
6755	63.1401
6750	61.6514
6745	61.1933
6740	62.3707
6735	63.0257
6730	62.7426
6725	62.992
6720	63.7495
6715	62.5328
6710	61.5151
6705	62.1245
6700	64.061
6695	64.5312
6690	63.3902
6685	63.3939
6680	63.7408
6675	64.3527
6670	64.9275
6665	64.434
6660	64.2414
6655	64.4022
6650	63.7097
6645	63.3454
6640	62.5665
6635	63.0667
6630	64.9615
6625	66.8208
6620	67.2115
6615	65.8589
6610	65.725
6605	66.3862
6600	65.3269
6595	65.829
6590	66.0303
6585	65.3288
6580	64.9425
6575	64.8116
6570	66.114
6565	66.013
6560	65.1458
6555	65.0574
6550	65.2588
6545	64.6423
6540	64.5978
6535	66.1553
6530	65.683
6525	64.8091
6520	65.4255
6515	65.6636
6510	66.3314
6505	67.0557
6500	67.4314
6495	66.109
6490	64.9586
6485	65.4775
6480	66.0987
6475	66.098
6470	65.4275
6465	64.8239
6460	64.6469
6455	65.2652
6450	65.8657
6445	65.878
6440	65.6487
6435	65.0763
6430	63.2887
6425	62.7642
6420	65.5418
6415	67.129
6410	66.126
6405	65.704
6400	65.2827
6395	64.0154
6390	63.3722
6385	63.7678
6380	63.6376
6375	63.9033
6370	64.4367
6365	65.2739
6360	65.5908
6355	64.9122
6350	64.9013
6345	64.9861
6340	64.4163
6335	64.855
6330	65.2886
6325	65.4238
6320	65.1057
6315	64.6986
6310	64.3281
6305	64.2744
6300	64.5605
6295	64.1545
6290	64.8001
6285	66.0628
6280	65.2276
6275	63.6998
6270	64.1412
6265	65.2664
6260	65.86
6255	64.9575
6250	63.9271
6245	64.1462
6240	64.8538
6235	64.4484
6230	64.195
6225	64.0618
6220	63.1754
6215	63.3482
6210	64.4792
6205	64.7357
6200	65.0799
6195	65.4405
6190	64.6633
6185	64.6175
6180	65.325
6175	64.6719
6170	64.1828
6165	64.8131
6160	64.8047
6155	64.7031
6150	65.5625
6145	65.7404
6140	64.9651
6135	65.2148
6130	65.8703
6125	66.1015
6120	64.3684
6115	63.3282
6110	63.513
6105	63.4052
6100	63.9296
6095	64.5905
6090	65.202
6085	65.1397
6080	64.8946
6075	64.8138
6070	64.8909
6065	65.4873
6060	65.295
6055	65.2763
6050	65.4927
6045	65.0433
6040	64.66
6035	64.9134
6030	65.0646
6025	64.9219
6020	64.7946
6015	64.6628
6010	65.3661
6005	66.4523
6000	66.4357
5995	65.5759
5990	65.1347
5985	64.9442
5980	64.7774
5975	64.6763
5970	65.1462
5965	65.3481
5960	64.9289
5955	64.3093
5950	64.6975
5945	65.2454
5940	64.9008
5935	64.7184
5930	65.0465
5925	65.1814
5920	65.1129
5915	64.6146
5910	64.5253
5905	64.759
5900	64.3899
5895	64.1871
5890	64.7318
5885	65.2887
5880	64.7491
5875	64.7342
5870	65.2279
5865	64.582
5860	64.4304
5855	64.4273
5850	64.5425
5845	64.8947
5840	64.5988
5835	64.1775
5830	64.257
5825	64.6001
5820	64.514
5815	64.5086
5810	64.63
5805	64.9203
5800	64.6397
5795	64.4335
5790	65.1185
5785	65.4532
5780	64.9604
5775	64.6065
5770	64.5253
5765	64.0537
5760	63.9435
5755	64.8716
5750	65.5344
5745	65.2427
5740	64.6386
5735	64.6206
5730	65.0868
5725	64.9963
5720	64.9461
5715	65.1589
5710	65.3954
5705	65.3335
5700	65.2435
5695	65.0544
5690	64.4993
5685	64.6055
5680	64.9461
5675	65.2598
5670	65.3136
5665	64.8479
5660	64.5898
5655	64.4007
5650	64.6482
5645	65.2635
5640	65.2845
5635	64.9906
5630	65.5194
5625	66.3023
5620	65.5008
5615	65.0243
5610	65.1839
5605	65.2619
5600	64.9418
5595	65.2933
5590	66.0212
5585	65.711
5580	64.7005
5575	64.7905
5570	65.3775
5565	65.7418
5560	65.6225
5555	65.0701
5550	65.0052
5545	65.4596
5540	65.5075
5535	65.394
5530	65.6518
5525	66.5177
5520	65.8877
5515	64.4712
5510	64.3504
5505	65.2654
5500	65.3827
5495	64.6002
5490	64.4748
5485	65.0842
5480	65.3351
5475	65.0939
5470	64.9258
5465	64.8439
5460	64.9877
5455	64.8614
5450	64.9077
5445	64.8884
5440	64.7046
5435	64.5743
5430	64.3718
5425	64.9794
5420	65.2333
5415	65.0229
5410	65.0039
5405	64.9627
5400	64.7629
5395	64.4709
5390	64.1649
5385	64.184
5380	64.1954
5375	65.1835
5370	65.4939
5365	64.2864
5360	63.9008
5355	64.2274
5350	64.2346
5345	64.1425
5340	64.4136
5335	64.5596
5330	64.0261
5325	63.545
5320	63.6755
5315	63.7259
5310	63.0977
5305	63.1751
5300	61.5569
5295	60.3723
5290	62.9436
5285	62.9043
5280	62.0304
5275	66.3052
5270	66.3536
5265	63.309
5260	65.6522
5255	68.2529
5250	67.5231
5245	65.8076
5240	64.6844
5235	64.5189
5230	65.2708
5225	65.6389
5220	65.4058
5215	64.7886
5210	64.2128
5205	64.5433
5200	64.8777
5195	65.5203
5190	65.7059
5185	65.0381
5180	64.8847
5175	64.9972
5170	64.6125
5165	64.4269
5160	64.9511
5155	65.3404
5150	65.1837
5145	64.7423
5140	64.4894
5135	64.5242
5130	64.9092
5125	65.0218
5120	64.9521
5115	64.7922
5110	64.6142
5105	64.6076
5100	64.5677
5095	65.2462
5090	65.3616
5085	64.7678
5080	64.4666
5075	64.8756
5070	65.3527
5065	64.935
5060	64.4961
5055	64.5927
5050	65.0349
5045	65.397
5040	64.8235
5035	64.4141
5030	64.8263
5025	65.0551
5020	65.1011
5015	65.273
5010	65.2888
5005	65.25
5000	65.292
4995	65.1916
4990	65.0008
4985	65.0665
4980	64.8482
4975	64.7192
4970	64.9842
4965	65.2746
4960	65.0872
4955	64.77
4950	64.7969
4945	64.5808
4940	64.4327
4935	64.7594
4930	64.9441
4925	64.8758
4920	64.9777
4915	65.1936
4910	65.2747
4905	65.0873
4900	64.9205
4895	65.0868
4890	65.3156
4885	64.785
4880	64.4917
4875	64.6053
4870	64.7777
4865	64.84
4860	64.7166
4855	64.9642
4850	65.0592
4845	64.9608
4840	65.1653
4835	65.1369
4830	65.1512
4825	65.0675
4820	64.7303
4815	64.481
4810	64.774
4805	65.0155
4800	64.9925
4795	64.9101
4790	64.9726
4785	65.2378
4780	65.389
4775	65.2583
4770	65.1134
4765	65.1356
4760	65.2901
4755	65.1608
4750	65.0513
4745	65.171
4740	65.0885
4735	64.9529
4730	65.1732
4725	65.3604
4720	65.5091
4715	65.5213
4710	65.4919
4705	65.4924
4700	65.3824
4695	65.3011
4690	65.2302
4685	65.1277
4680	65.1724
4675	65.295
4670	65.1788
4665	64.8662
4660	64.6929
4655	64.783
4650	65.1289
4645	65.4501
4640	65.3799
4635	65.0085
4630	64.9135
4625	65.0822
4620	65.2652
4615	65.3052
4610	65.2844
4605	65.2616
4600	64.9539
4595	64.6415
4590	64.8076
4585	64.7859
4580	64.6351
4575	64.4349
4570	64.4104
4565	64.6611
4560	64.6893
4555	64.5409
4550	64.5326
4545	64.5072
4540	64.5018
4535	64.8127
4530	64.6814
4525	64.3239
4520	64.3344
4515	64.4655
4510	64.3412
4505	64.3723
4500	64.5157
4495	64.4075
4490	64.0719
4485	63.9585
4480	64.275
4475	64.7125
4470	64.7044
4465	64.4758
4460	64.228
4455	64.3714
4450	64.6486
4445	64.7062
4440	64.685
4435	64.3836
4430	64.2424
4425	64.5426
4420	64.7252
4415	64.6761
4410	65.3407
4405	65.8728
4400	63.14
4395	67.8746
4390	85.3893
4385	74.3939
4380	66.9557
4375	66.1828
4370	64.9869
4365	64.3989
4360	64.4605
4355	64.7867
4350	64.7914
4345	64.5196
4340	64.7418
4335	64.7875
4330	64.5312
4325	64.4142
4320	64.4027
4315	64.5459
4310	64.8381
4305	64.8852
4300	64.6407
4295	64.6179
4290	64.6219
4285	64.5124
4280	64.6836
4275	64.8307
4270	64.6942
4265	64.6553
4260	64.721
4255	64.8387
4250	64.799
4245	64.6835
4240	64.7274
4235	64.8103
4230	64.7893
4225	64.7752
4220	64.9895
4215	64.9523
4210	64.8821
4205	64.8054
4200	64.6052
4195	64.756
4190	64.8763
4185	64.9562
4180	65.0514
4175	64.9639
4170	64.9818
4165	64.998
4160	64.9044
4155	65.0076
4150	65.0087
4145	64.77
4140	64.7484
4135	65.0858
4130	65.2317
4125	65.2749
4120	65.2463
4115	65.1026
4110	65.1569
4105	65.2852
4100	65.3467
4095	65.2725
4090	65.2959
4085	65.3489
4080	65.279
4075	65.2362
4070	65.238
4065	65.3773
4060	65.4156
4055	65.2919
4050	65.341
4045	65.2736
4040	65.0624
4035	65.0484
4030	65.2836
4025	65.3685
4020	65.4956
4015	65.4821
4010	65.2464
4005	65.0298
4000	64.9981
3995	65.1522
3990	65.1744
3985	65.1172
3980	65.2827
3975	65.383
3970	65.2054
3965	65.127
3960	65.1074
3955	65.1056
3950	65.133
3945	65.1388
3940	65.2074
3935	65.1458
3930	64.9995
3925	65.0047
3920	65.0929
3915	65.0292
3910	64.995
3905	64.9488
3900	64.9566
3895	65.1326
3890	65.2169
3885	65.3323
3880	65.3157
3875	65.0878
3870	64.9348
3865	64.9841
3860	65.1132
3855	65.1765
3850	65.301
3845	65.3587
3840	65.3164
3835	65.1828
3830	65.0693
3825	65.0527
3820	64.9974
3815	64.9524
3810	65.0776
3805	65.1057
3800	65.0807
3795	65.0907
3790	65.0435
3785	65.0085
3780	65.0676
3775	65.1147
3770	65.2883
3765	65.283
3760	65.1582
3755	65.1895
3750	65.3038
3745	65.2556
3740	65.0971
3735	65.0952
3730	65.0756
3725	65.1718
3720	65.3678
3715	65.4444
3710	65.3579
3705	65.217
3700	65.2222
3695	65.2503
3690	65.3289
3685	65.3473
3680	65.31
3675	65.3211
3670	65.2851
3665	65.2559
3660	65.2127
3655	65.0991
3650	65.1349
3645	65.2216
3640	65.2747
3635	65.322
3630	65.3755
3625	65.3815
3620	65.4451
3615	65.4701
3610	65.4462
3605	65.3949
3600	65.2712
3595	65.2762
3590	65.1777
3585	65.1582
3580	65.4059
3575	65.5488
3570	65.4459
3565	65.1803
3560	65.1574
3555	65.2701
3550	65.2446
3545	65.3519
3540	65.3703
3535	65.236
3530	65.2
3525	65.0669
3520	64.9336
3515	65.0872
3510	65.1174
3505	65.059
3500	64.8475
3495	65.0116
3490	65.3031
3485	65.1988
3480	65.0654
3475	65.169
3470	65.3011
3465	65.2917
3460	65.2433
3455	65.1961
3450	65.2414
3445	65.3179
3440	65.3172
3435	65.2861
3430	65.1588
3425	65.1027
3420	65.1153
3415	65.0555
3410	65.0362
3405	65.0795
3400	65.1908
3395	65.1388
3390	65.0115
3385	65.1445
3380	65.3301
3375	65.2115
3370	65.0567
3365	65.051
3360	65.0817
3355	65.0464
3350	64.9559
3345	64.979
3340	65.0516
3335	64.973
3330	64.9054
3325	65.0407
3320	65.2198
3315	65.2688
3310	65.2276
3305	65.2123
3300	65.22
3295	65.2109
3290	65.2267
3285	65.2308
3280	65.1953
3275	65.1623
3270	65.1683
3265	65.1801
3260	65.2208
3255	65.2391
3250	65.1513
3245	65.0306
3240	65.023
3235	65.112
3230	65.127
3225	65.0424
3220	65.0136
3215	65.0692
3210	65.1252
3205	65.0692
3200	65.0566
3195	65.065
3190	65.1989
3185	65.3193
3180	65.2714
3175	65.1938
3170	65.2218
3165	65.2213
3160	65.215
3155	65.2142
3150	65.1993
3145	65.2791
3140	65.2961
3135	65.2056
3130	65.2205
3125	65.3114
3120	65.3526
3115	65.3495
3110	65.2953
3105	65.2297
3100	65.2425
3095	65.3323
3090	65.3445
3085	65.3488
3080	65.3477
3075	65.2494
3070	65.1708
3065	65.2817
3060	65.2837
3055	65.263
3050	65.2734
3045	65.2212
3040	65.1836
3035	65.229
3030	65.2448
3025	65.2607
3020	65.2989
3015	65.2308
3010	65.1678
3005	65.1803
3000	65.1773
2995	65.2308
2990	65.2076
2985	65.1565
2980	65.0534
2975	65.0558
2970	65.0766
2965	65.1214
2960	65.1649
2955	65.0864
2950	64.9122
2945	64.9182
2940	65.0112
2935	64.9413
2930	64.8933
2925	64.8947
2920	64.8138
2915	64.7784
2910	64.8809
2905	64.9685
2900	65.0166
2895	65.1235
2890	65.2138
2885	65.1361
2880	65.1065
2875	65.1551
2870	65.1357
2865	65.0623
2860	65.1349
2855	65.0979
2850	64.9011
2845	64.9216
2840	65.0981
2835	65.1978
2830	65.2255
2825	65.2098
2820	65.1945
2815	65.2337
2810	65.2197
2805	65.1938
2800	65.2326
2795	65.2726
2790	65.3079
2785	65.3036
2780	65.2732
2775	65.2103
2770	65.1446
2765	65.2133
2760	65.28
2755	65.287
2750	65.2575
2745	65.2001
2740	65.2364
2735	65.3078
2730	65.324
2725	65.2961
2720	65.3183
2715	65.2856
2710	65.1808
2705	65.2021
2700	65.2384
2695	65.2328
2690	65.2049
2685	65.2134
2680	65.2636
2675	65.2297
2670	65.2371
2665	65.2703
2660	65.2324
2655	65.2438
2650	65.2872
2645	65.2704
2640	65.2892
2635	65.2924
2630	65.3189
2625	65.3064
2620	65.2775
2615	65.2314
2610	65.2038
2605	65.3583
2600	65.3651
2595	65.3006
2590	65.2757
2585	65.2582
2580	65.2698
2575	65.2571
2570	65.2818
2565	65.2641
2560	65.2296
2555	65.2384
2550	65.2381
2545	65.2359
2540	65.2926
2535	65.3893
2530	65.434
2525	65.2863
2520	65.1307
2515	65.138
2510	65.2182
2505	65.2591
2500	65.2615
2495	65.283
2490	65.3492
2485	65.3443
2480	65.3298
2475	65.3758
2470	65.3819
2465	65.3845
2460	65.3898
2455	65.3355
2450	65.2945
2445	65.2827
2440	65.3106
2435	65.3014
2430	65.2299
2425	65.2213
2420	65.2607
2415	65.3332
2410	65.3127
2405	65.3416
2400	65.3077
2395	65.2512
2390	65.2525
2385	65.2427
2380	65.3057
2375	65.3363
2370	65.3043
2365	65.3415
2360	65.368
2355	65.3044
2350	65.2929
2345	65.2756
2340	65.2499
2335	65.314
2330	65.323
2325	65.3668
2320	65.4715
2315	65.4272
2310	65.4006
2305	65.3876
2300	65.3869
2295	65.4145
2290	65.4059
2285	65.403
2280	65.3694
2275	65.3735
2270	65.3764
2265	65.3062
2260	65.262
2255	65.2897
2250	65.3181
2245	65.3372
2240	65.4191
2235	65.4231
2230	65.3023
2225	65.2156
2220	65.2312
2215	65.3118
2210	65.3485
2205	65.3607
2200	65.3462
2195	65.2979
2190	65.3911
2185	65.4618
2180	65.3955
2175	65.3594
2170	65.3492
2165	65.3873
2160	65.4375
2155	65.4135
2150	65.3677
2145	65.3514
2140	65.3301
2135	65.261
2130	65.2489
2125	65.3021
2120	65.3424
2115	65.3599
2110	65.3076
2105	65.2264
2100	65.2033
2095	65.2687
2090	65.2633
2085	65.1335
2080	65.2146
2075	65.3887
2070	65.3353
2065	65.2537
2060	65.3392
2055	65.3596
2050	65.2468
2045	65.219
2040	65.295
2035	65.3041
2030	65.3108
2025	65.3437
2020	65.3467
2015	65.3373
2010	65.3148
2005	65.3356
2000	65.3155
1995	65.268
1990	65.2341
1985	65.2799
1980	65.3732
1975	65.4163
1970	65.3221
1965	65.2797
1960	65.3506
1955	65.3723
1950	65.3399
1945	65.3362
1940	65.3452
1935	65.3425
1930	65.335
1925	65.2715
1920	65.2479
1915	65.3049
1910	65.3556
1905	65.3874
1900	65.3474
1895	65.3602
1890	65.3685
1885	65.3438
1880	65.3471
1875	65.356
1870	65.3412
1865	65.2575
1860	65.2458
1855	65.3461
1850	65.3486
1845	65.2339
1840	65.1744
1835	65.218
1830	65.2923
1825	65.3342
1820	65.3249
1815	65.3437
1810	65.3942
1805	65.3385
1800	65.2808
1795	65.3182
1790	65.3146
1785	65.3199
1780	65.3948
1775	65.4321
1770	65.376
1765	65.3431
1760	65.349
1755	65.2827
1750	65.2229
1745	65.1997
1740	65.1737
1735	65.0889
1730	65.0286
1725	65.0677
1720	65.1492
1715	65.188
1710	65.2281
1705	65.2499
1700	65.304
1695	65.3066
1690	65.2257
1685	65.2312
1680	65.1519
1675	65.1528
1670	65.2626
1665	65.2293
1660	65.1627
1655	65.2395
1650	65.2583
1645	65.1735
1640	65.1202
1635	65.1305
1630	65.1362
1625	65.1741
1620	65.2432
1615	65.232
1610	65.1738
1605	65.2019
1600	65.1896
1595	65.122
1590	65.1335
1585	65.146
1580	65.1661
1575	65.1026
1570	65.0576
1565	65.0363
1560	65.0297
1555	65.1208
1550	65.1666
1545	65.1129
1540	65.0328
1535	65.0543
1530	65.158
1525	65.1397
1520	65.0383
1515	65.0516
1510	65.1512
1505	65.2192
1500	65.209
1495	65.181
1490	65.1813
1485	65.1386
1480	65.1471
1475	65.1599
1470	65.1761
1465	65.1265
1460	65.1121
1455	65.0773
1450	65.0958
1445	65.1794
1440	65.1133
1435	65.0676
1430	65.1967
1425	65.1289
1420	65.0292
1415	65.0523
1410	65.0683
1405	65.1124
1400	65.2118
1395	65.2442
1390	65.1408
1385	65.1603
1380	65.179
1375	65.0661
1370	65.0575
1365	65.0518
1360	65.058
1355	65.0982
1350	65.0835
1345	65.1241
1340	65.2015
1335	65.1501
1330	65.097
1325	65.1115
1320	65.1895
1315	65.2537
1310	65.2037
1305	65.0554
1300	64.9623
1295	65.0162
1290	65.1812
1285	65.2021
1280	65.0842
1275	65.0121
1270	65.004
1265	65.0297
1260	65.054
1255	65.035
1250	65.0558
1245	65.0556
1240	65.033
1235	65.0111
1230	65.0371
1225	65.1001
1220	65.0722
1215	64.9867
1210	65.0247
1205	65.0463
1200	64.9762
1195	64.921
1190	64.9398
1185	64.9387
1180	64.9494
1175	65.0378
1170	65.1184
1165	65.0427
1160	64.9041
1155	64.8802
1150	64.8988
1145	64.8808
1140	64.7986
1135	64.741
1130	64.829
1125	64.8835
1120	64.7951
1115	64.8135
1110	64.9302
1105	64.9931
1100	64.9013
1095	64.733
1090	64.7588
1085	64.8847
1080	64.8456
1075	64.7307
1070	64.8931
1065	65.027
1060	64.8712
1055	64.6956
1050	64.7546
1045	65.0347
1040	65.0933
1035	64.9661
1030	64.9245
1025	64.9141
1020	64.6847
1015	64.6026
1010	64.7572
1005	64.8457
1000	64.8347
995	 64.9109
990	 65.0331
985	 64.8928
980	 64.681
975	 64.7662
970	 64.8309
965	 64.8397
960	 64.8734
955	 64.8709
950	 64.8015
945	 64.8289
940	 64.6408
935	 64.5062
930	 64.6523
925	 64.9002
920	 64.8415
915	 64.5462
910	 64.5894
905	 64.4296
900	 64.334
895	 64.1658
890	 64.401
885	 65.1917
880	 65.4283
875	 65.0581
870	 64.8482
865	 64.8686
860	 64.7089
855	 64.3317
850	 64.3609
845	 64.472
840	 64.3785
835	 64.3973
830	 64.4688
825	 64.6188
820	 64.399
815	 64.1521
810	 64.0638
805	 64.0322
800	 63.9716
795	 64.1071
790	 64.3713
785	 64.4548
780	 64.1812
775	 64.0975
770	 64.1841
765	 64.2201
760	 64.1392
755	 64.0739
750	 64.1455
745	 63.9649
740	 63.754
735	 63.7034
730	 63.7454
725	 63.8983
720	 63.9341
715	 63.695
710	 63.6306
705	 63.6084
700	 63.5315
695	 63.5033
690	 63.5821
685	 63.4084
680	 63.3158
675	 63.4037
670	 63.4048
665	 63.13
660	 62.9694
655	 63.2546
650	 63.3592
645	 63.1139
640	 62.9654
635	 63.0573
630	 63.221
625	 63.1395
620	 63.0068
615	 62.8524
610	 62.9916
605	 63.361
600	 63.1989
595	 63.1711
590	 63.143
585	 62.7873
580	 62.6668
575	 62.5139
570	 62.3068
565	 62.6523
560	 62.8914
555	 63.0682
550	 63.0678
545	 62.9738
540	 62.7479
535	 62.6078
530	 62.763
525	 62.7841
520	 62.6387
515	 62.4561
510	 62.3797
505	 62.2951
500	 61.7949
495	 61.0071
490	 60.7939
485	 61.5576
480	 61.7515
475	 61.699
470	 61.3942
465	 60.6443
460	 60.276
455	 59.9982
450	 60.1386
445	 59.2334
440	 59.063
435	 59.9086
430	 59.5363
425	 58.8115
420	 57.1081
415	 57.325
410	 58.5515
405	 55.1263
400	 56.7181
395	 68.881
390	 66.7992
385	 50.8249
380	 43.713
375	 53.5368
370	 61.0647