File: Bakgrunnsmateriale/MATLAB/FTIR/ftir_data/subBb/Mapping_36/C-4040-8_t16.asc
PE IR       SPECTRUM    SPECTRUM    ASCII       PEDS        1.60
  -1
C-B922~1.ASC
17/05/02
12:12:38.00
17/05/02
12:13:05.00
tln
$C-4040-8_t0016$<tbV0>[-2.5,-3.0,8.0,0.0,22,1,0]
27.028
64

2002,4.07
MIRTGS : RIGHTBACK : INTERNAL 2
MIR : ON : INTERNAL 2
OPTKBR

0.200000
8
8.000000
FILLER
RATIO
SPECTRUM
UNLOCKED 256

DOUBLE
64
COMBINED
1
0
0

0.002000
RATIO

1
0
TRUE
51149
0
LEFT NOT FITTED RIGHT NOT FITTED 0
NONE
NONE
15600
12
4.427000
51148
TRUE
1 0 8 72 0 0 0 0

15798

#HDR
-1
-1
#GR
µM
%T
2.38419e-05
0.0
1.282000
0.002000
12874
8
83.3306
38.0306
#DATA
1.282000	 75.0494
1.300000	 63.4405
1.318000	 62.9982
1.336000	 64.163
1.354000	 65.5502
1.372000	 66.0634
1.390000	 62.5287
1.408000	 62.5212
1.426000	 61.9709
1.444000	 65.3577
1.462000	 63.9312
1.480000	 64.9518
1.498000	 63.4538
1.516000	 65.1843
1.534000	 64.7463
1.552000	 63.579
1.570000	 64.2129
1.588000	 65.3366
1.606000	 64.5425
1.624000	 63.6228
1.642000	 63.6617
1.660000	 64.8892
1.678000	 65.1423
1.696000	 64.7649
1.714000	 64.2541
1.732000	 64.4395
1.750000	 64.6947
1.768000	 63.9217
1.786000	 64.5152
1.804000	 65.0162
1.822000	 64.3332
1.840000	 63.5267
1.858000	 64.0482
1.876000	 62.967
1.894000	 63.5084
1.912000	 64.4239
1.930000	 64.6016
1.948000	 63.973
1.966000	 64.3866
1.984000	 64.2344
2.002000	 64.5344
2.020000	 64.0981
2.038000	 64.501
2.056000	 64.2877
2.074000	 64.0228
2.092000	 64.2338
2.110000	 63.8897
2.128000	 64.1342
2.146000	 64.1663
2.164000	 64.5474
2.182000	 64.3382
2.200000	 63.9377
2.218000	 63.8109
2.236000	 63.8087
2.254000	 64.1004
2.272000	 63.1521
2.290000	 65.5227
2.308000	 64.2734
2.326000	 63.9899
2.344000	 63.5009
2.362000	 63.7066
2.380000	 63.683
2.398000	 63.961
2.416000	 63.8137
2.434000	 64.0687
2.452000	 63.7805
2.470000	 63.9521
2.488000	 63.8264
2.506000	 63.6979
2.524000	 63.8067
2.542000	 63.8363
2.560000	 63.5702
2.578000	 63.7679
2.596000	 63.7706
2.614000	 63.5985
2.632000	 63.6462
2.650000	 63.5425
2.668000	 63.5005
2.686000	 63.4389
2.704000	 63.3259
2.722000	 63.1324
2.740000	 63.2777
2.758000	 63.3248
2.776000	 63.1751
2.794000	 63.1916
2.812000	 63.0703
2.830000	 62.9089
2.848000	 62.9553
2.866000	 63.0387
2.884000	 62.8782
2.902000	 62.9778
2.920000	 62.9272
2.938000	 62.6841
2.956000	 62.8384
2.974000	 62.6358
2.992000	 62.7011
3.010000	 62.6958
3.028000	 62.4272
3.046000	 62.4955
3.064000	 62.3536
3.082000	 62.5301
3.100000	 62.3491
3.118000	 62.3401
3.136000	 62.2356
3.154000	 62.2797
3.172000	 62.1646
3.190000	 62.0704
3.208000	 62.0308
3.226000	 62.033
3.244000	 61.968
3.262000	 62.0051
3.280000	 61.8734
3.298000	 61.8975
3.316000	 61.9192
3.334000	 61.7854
3.352000	 61.6506
3.370000	 61.5759
3.388000	 61.4961
3.406000	 61.3429
3.424000	 61.0398
3.442000	 61.2917
3.460000	 61.2693
3.478000	 61.1871
3.496000	 61.1148
3.514000	 61.0194
3.532000	 61.0757
3.550000	 61.0286
3.568000	 61.044
3.586000	 60.8884
3.604000	 60.9983
3.622000	 60.9029
3.640000	 60.8318
3.658000	 60.8501
3.676000	 60.6946
3.694000	 60.7073
3.712000	 60.6235
3.730000	 60.5749
3.748000	 60.5085
3.766000	 60.4345
3.784000	 60.4965
3.802000	 60.4557
3.820000	 60.2742
3.838000	 60.367
3.856000	 60.2435
3.874000	 60.2327
3.892000	 60.3207
3.910000	 60.121
3.928000	 60.1602
3.946000	 59.9899
3.964000	 60.0138
3.982000	 59.8023
4.000000	 59.8981
4.018000	 59.7208
4.036000	 59.8355
4.054000	 59.832
4.072000	 59.7741
4.090000	 59.7496
4.108000	 59.7134
4.125999	 59.6042
4.144000	 59.6611
4.162000	 59.5321
4.180000	 59.3648
4.198000	 59.3599
4.216000	 59.2871
4.234000	 59.2907
4.252000	 59.2818
4.270000	 59.1819
4.288000	 59.1055
4.306000	 59.1264
4.324000	 59.0744
4.342000	 58.9783
4.359999	 58.9876
4.378000	 58.9039
4.396000	 58.9533
4.414000	 58.841
4.432000	 58.7887
4.450000	 58.8172
4.468000	 58.7686
4.486000	 58.7328
4.504000	 58.593
4.522000	 58.6564
4.540000	 58.5887
4.558000	 58.5324
4.576000	 58.6023
4.594000	 58.411
4.612000	 58.4219
4.630000	 58.4155
4.648000	 58.2694
4.666000	 58.0983
4.684000	 58.05
4.702000	 58.0876
4.720000	 58.1004
4.738000	 58.1303
4.756000	 57.9667
4.774000	 57.9909
4.792000	 57.8696
4.810000	 57.8893
4.828000	 57.8495
4.846000	 57.817
4.864000	 57.8148
4.882000	 57.7394
4.900000	 57.7233
4.918000	 57.6527
4.936000	 57.6454
4.954000	 57.5749
4.972000	 57.5806
4.990000	 57.5475
5.008000	 57.4317
5.026000	 57.4644
5.044000	 57.4175
5.062000	 57.3823
5.080000	 57.3996
5.098000	 57.3213
5.116000	 57.2637
5.134000	 57.2915
5.152000	 57.324
5.170000	 57.2657
5.188000	 57.2199
5.206000	 57.1719
5.224000	 57.1644
5.242000	 57.0784
5.260000	 57.0733
5.278000	 57.0196
5.296000	 56.9844
5.314000	 57.0164
5.332000	 56.8838
5.350000	 56.8226
5.368000	 56.7809
5.386000	 56.7645
5.404000	 56.7936
5.422000	 56.7068
5.440000	 56.6267
5.458000	 56.5936
5.476000	 56.6607
5.494000	 56.6293
5.512000	 56.6098
5.530000	 56.5636
5.548000	 56.4729
5.566000	 56.3964
5.584000	 56.4137
5.602000	 56.4128
5.620000	 56.3351
5.638000	 56.2434
5.656000	 56.2343
5.674000	 56.2596
5.692000	 56.2201
5.710000	 56.0902
5.728000	 55.9785
5.746000	 55.9561
5.764000	 55.9336
5.782000	 55.8461
5.800000	 55.8631
5.818000	 55.9306
5.836000	 55.9232
5.854000	 55.8585
5.872000	 55.8319
5.890000	 55.9059
5.908000	 55.8396
5.926000	 55.8194
5.944000	 55.8492
5.962000	 55.7302
5.980000	 55.6708
5.998000	 55.703
6.016000	 55.7464
6.034000	 55.7148
6.052000	 55.6561
6.070000	 55.5922
6.088000	 55.4966
6.106000	 55.4891
6.124000	 55.4981
6.142000	 55.4644
6.160000	 55.4684
6.178000	 55.4733
6.196000	 55.4313
6.214000	 55.3628
6.232000	 55.3418
6.250000	 55.2881
6.268000	 55.2106
6.286000	 55.1988
6.304000	 55.2417
6.322000	 55.2454
6.340000	 55.1947
6.358000	 55.1521
6.376000	 55.0622
6.394000	 54.9879
6.412000	 55.0248
6.430000	 55.0565
6.448000	 55.0579
6.466000	 55.0216
6.484000	 54.9425
6.502000	 54.8999
6.520000	 54.9413
6.538000	 54.9944
6.556000	 54.9662
6.574000	 54.8991
6.592000	 54.8688
6.610000	 54.8979
6.628000	 54.9393
6.646000	 54.9036
6.664000	 54.838
6.682000	 54.8387
6.700000	 54.8641
6.718000	 54.8045
6.736000	 54.7128
6.754000	 54.6966
6.772000	 54.6847
6.790000	 54.626
6.808000	 54.5986
6.826000	 54.6186
6.844000	 54.6575
6.862000	 54.6729
6.880000	 54.6343
6.898000	 54.5799
6.916000	 54.5335
6.934000	 54.5137
6.952000	 54.514
6.970000	 54.4912
6.988000	 54.4643
7.006000	 54.4281
7.024000	 54.3584
7.042000	 54.3071
7.060000	 54.3082
7.078000	 54.3184
7.096000	 54.2938
7.114000	 54.2717
7.132000	 54.2911
7.150000	 54.2755
7.168000	 54.1717
7.186000	 54.0747
7.204000	 54.0877
7.222000	 54.1872
7.240000	 54.2565
7.258000	 54.2298
7.276000	 54.1622
7.294000	 54.121
7.312000	 54.0916
7.330000	 54.0639
7.348000	 54.0734
7.366000	 54.096
7.384000	 54.0562
7.402000	 53.9689
7.420000	 53.9229
7.438000	 53.9271
7.456000	 53.9065
7.474000	 53.862
7.492000	 53.8686
7.510000	 53.9094
7.528000	 53.8949
7.546000	 53.8241
7.564000	 53.7704
7.582000	 53.7667
7.600000	 53.7784
7.618000	 53.7598
7.636000	 53.7231
7.654000	 53.7182
7.672000	 53.728
7.690000	 53.6878
7.708000	 53.6056
7.726000	 53.5477
7.744000	 53.5378
7.762000	 53.5513
7.780000	 53.5689
7.798000	 53.5811
7.816000	 53.5766
7.834000	 53.5437
7.852000	 53.4927
7.870000	 53.4663
7.888000	 53.4917
7.906000	 53.5344
7.924000	 53.533
7.942000	 53.4721
7.960000	 53.3895
7.978000	 53.328
7.996000	 53.3041
8.013999	 53.3141
8.032000	 53.3411
8.050000	 53.3521
8.068000	 53.3171
8.086000	 53.2464
8.103999	 53.1849
8.122000	 53.1628
8.140000	 53.1685
8.158000	 53.1788
8.176000	 53.1829
8.193999	 53.1764
8.212000	 53.1554
8.230000	 53.1219
8.248000	 53.0908
8.266000	 53.0796
8.283999	 53.0861
8.302000	 53.0791
8.320000	 53.0331
8.338000	 52.9633
8.356000	 52.9139
8.374000	 52.9072
8.391999	 52.9262
8.410000	 52.9399
8.428000	 52.9314
8.446000	 52.9087
8.464000	 52.8979
8.481999	 52.9177
8.500000	 52.9554
8.518000	 52.9794
8.536000	 52.9745
8.554000	 52.9472
8.571999	 52.9021
8.590000	 52.834
8.608000	 52.7487
8.626000	 52.6737
8.644000	 52.6371
8.661999	 52.6434
8.680000	 52.6745
8.698000	 52.7076
8.716000	 52.7297
8.734000	 52.7357
8.751999	 52.7213
8.770000	 52.6806
8.788000	 52.617
8.806000	 52.548
8.824000	 52.4966
8.842000	 52.4733
8.859999	 52.4687
8.878000	 52.4645
8.896000	 52.4485
8.914000	 52.4189
8.932000	 52.3809
8.949999	 52.3444
8.968000	 52.3271
8.986000	 52.3502
9.004000	 52.4179
9.022000	 52.5007
9.039999	 52.5451
9.058000	 52.5153
9.076000	 52.4291
9.094000	 52.3476
9.112000	 52.3225
9.129999	 52.3511
9.148000	 52.386
9.166000	 52.3838
9.184000	 52.3373
9.202000	 52.2692
9.219999	 52.2053
9.238000	 52.1572
9.256000	 52.1247
9.274000	 52.1065
9.292000	 52.1042
9.310000	 52.1171
9.327999	 52.1385
9.346000	 52.1575
9.364000	 52.1626
9.382000	 52.1453
9.400000	 52.1067
9.418000	 52.0577
9.436000	 52.0118
9.454000	 51.9729
9.472000	 51.9355
9.490000	 51.9013
9.508000	 51.8932
9.526000	 51.9421
9.544000	 52.0496
9.561999	 52.169
9.580000	 52.2366
9.598000	 52.2248
9.616000	 52.1619
9.634000	 52.0997
9.652000	 52.0648
9.670000	 52.0433
9.688000	 52.0044
9.706000	 51.9364
9.724000	 51.8565
9.742000	 51.7937
9.760000	 51.7646
9.778000	 51.7676
9.795999	 51.7901
9.814000	 51.8188
9.832000	 51.8423
9.850000	 51.8502
9.868000	 51.8371
9.886000	 51.8076
9.904000	 51.7745
9.922000	 51.75
9.940000	 51.7355
9.958000	 51.7215
9.976000	 51.6993
9.994000	 51.6699
10.012	51.6455
10.03	51.6417
10.048	51.6655
10.066	51.7097
10.084	51.7579
10.102	51.7932
10.12	51.8034
10.138	51.7853
10.156	51.7437
10.174	51.6916
10.192	51.6477
10.21	51.6285
10.228	51.6381
10.246	51.6652
10.264	51.6845
10.282	51.674
10.3	51.6289
10.318	51.5636
10.336	51.5012
10.354	51.454
10.372	51.4182
10.39	51.3787
10.408	51.3221
10.426	51.2465
10.444	51.1587
10.462	51.0717
10.48	51.002
10.498	50.9717
10.516	51.0051
10.534	51.1182
10.552	51.2989
10.57	51.5039
10.588	51.6721
10.606	51.7589
10.624	51.7556
10.642	51.6911
10.66	51.6052
10.678	51.5201
10.696	51.4233
10.714	51.2841
10.732	51.0806
10.75	50.8245
10.768	50.5679
10.786	50.3748
10.804	50.2971
10.822	50.3456
10.84	50.4895
10.858	50.6696
10.876	50.8237
10.894	50.9118
10.912	50.9263
10.93	50.8891
10.948	50.8349
10.966	50.7942
10.984	50.7787
11.002	50.7808
11.02	50.7824
11.038	50.7643
11.056	50.717
11.074	50.6446
11.092	50.5597
11.11	50.4787
11.128	50.4163
11.146	50.3811
11.164	50.3779
11.182	50.407
11.2	50.4638
11.218	50.5402
11.236	50.6239
11.254	50.7
11.272	50.7539
11.29	50.7758
11.308	50.7623
11.326	50.7169
11.344	50.6491
11.362	50.5731
11.38	50.505
11.398	50.4593
11.416	50.4485
11.434	50.479
11.452	50.549
11.47	50.6469
11.488	50.7545
11.506	50.8496
11.524	50.9139
11.542	50.9379
11.56	50.9213
11.578	50.8702
11.596	50.7921
11.614	50.6939
11.632	50.5817
11.65	50.463
11.668	50.3501
11.686	50.2585
11.704	50.2024
11.722	50.1907
11.74	50.2214
11.758	50.2817
11.776	50.3509
11.794	50.4072
11.812	50.436
11.83	50.4307
11.848	50.3934
11.866	50.3305
11.884	50.2496
11.902	50.1583
11.92	50.0637
11.938	49.9732
11.956	49.8951
11.974	49.8387
11.992	49.8125
12.01	49.8217
12.028	49.8672
12.046	49.943
12.064	50.0366
12.082	50.132
12.1	50.2127
12.118	50.2668
12.136	50.2907
12.154	50.2889
12.172	50.271
12.19	50.248
12.208	50.2278
12.226	50.2127
12.244	50.2004
12.262	50.1863
12.28	50.1668
12.298	50.1422
12.316	50.1173
12.334	50.1
12.352	50.098
12.37	50.1163
12.388	50.155
12.406	50.2077
12.424	50.2638
12.442	50.312
12.46	50.3418
12.478	50.3469
12.496	50.3256
12.514	50.2809
12.532	50.2186
12.55	50.1454
12.568	50.0678
12.586	49.9919
12.604	49.9225
12.622	49.8635
12.64	49.817
12.658	49.784
12.676	49.7629
12.694	49.7509
12.712	49.7441
12.73	49.7388
12.748	49.7325
12.766	49.7244
12.784	49.7159
12.802	49.7096
12.82	49.7086
12.838	49.7153
12.856	49.7305
12.874	49.7534
12.892	49.7812
12.91	49.8105
12.928	49.8371
12.946	49.8576
12.964	49.8699
12.982	49.8731
13	49.8674
13.018	49.8538
13.036	49.8333
13.054	49.8072
13.072	49.7764
13.09	49.7417
13.108	49.7036
13.126	49.6631
13.144	49.6218
13.162	49.5814
13.18	49.5441
13.198	49.5122
13.216	49.4876
13.234	49.4717
13.252	49.4647
13.27	49.4657
13.288	49.4733
13.306	49.4852
13.324	49.499
13.342	49.5119
13.36	49.5216
13.378	49.5259
13.396	49.5233
13.414	49.5123
13.432	49.4921
13.45	49.4625
13.468	49.4235
13.486	49.3757
13.504	49.3206
13.522	49.2605
13.54	49.1985
13.558	49.1383
13.576	49.0842
13.594	49.0404
13.612	49.0107
13.63	48.9978
13.648	49.0031
13.666	49.0259
13.684	49.0639
13.702	49.1125
13.72	49.1656
13.738	49.2166
13.756	49.2585
13.774	49.2855
13.792	49.2939
13.81	49.2824
13.828	49.2523
13.846	49.207
13.864	49.1515
13.882	49.091
13.9	49.0302
13.918	48.9727
13.936	48.9205
13.954	48.8745
13.972	48.8341
13.99	48.7984
14.008	48.7666
14.026	48.7384
14.044	48.714
14.062	48.6941
14.08	48.68
14.098	48.6725
14.116	48.6719
14.134	48.6777
14.152	48.6883
14.17	48.7015
14.188	48.7147
14.206	48.7254
14.224	48.7316
14.242	48.7322
14.26	48.7268
14.278	48.7162
14.296	48.7018
14.314	48.6852
14.332	48.6681
14.35	48.6517
14.368	48.637
14.386	48.6238
14.404	48.6113
14.422	48.5982
14.44	48.5832
14.458	48.5649
14.476	48.5426
14.494	48.5159
14.512	48.4851
14.53	48.4512
14.548	48.4153
14.566	48.3785
14.584	48.3418
14.602	48.3056
14.62	48.2702
14.638	48.2356
14.656	48.2021
14.674	48.1697
14.692	48.1388
14.71	48.11
14.728	48.0839
14.746	48.0614
14.764	48.0428
14.782	48.0286
14.8	48.019
14.818	48.014
14.836	48.0137
14.854	48.0179
14.872	48.0269
14.89	48.0413
14.908	48.0616
14.926	48.0886
14.944	48.123
14.962	48.1644
14.98	48.2119
14.998	48.2636
15.016	48.3167
15.034	48.3675
15.052	48.4113
15.07	48.4439
15.088	48.4617
15.106	48.4618
15.124	48.4424
15.142	48.4037
15.16	48.3474
15.178	48.276
15.196	48.1933
15.214	48.1043
15.232	48.014
15.25	47.9268
15.268	47.8467
15.286	47.7774
15.304	47.7216
15.322	47.6803
15.34	47.6538
15.358	47.6415
15.376	47.6418
15.394	47.6523
15.412	47.6706
15.43	47.6939
15.448	47.7192
15.466	47.7434
15.484	47.7646
15.502	47.7809
15.52	47.7907
15.538	47.7937
15.556	47.79
15.574	47.7799
15.592	47.7645
15.61	47.7454
15.628	47.724
15.646	47.7017
15.664	47.6801
15.682	47.6603
15.7	47.6432
15.718	47.6292
15.736	47.6184
15.754	47.6105
15.772	47.6047
15.79	47.6001
15.808	47.5955
15.826	47.59
15.844	47.5824
15.862	47.5717
15.88	47.5574
15.898	47.5391
15.916	47.5169
15.934	47.4916
15.952	47.4643
15.97	47.436
15.988	47.4086
16.006	47.3836
16.024	47.362
16.042	47.3454
16.06	47.3342
16.078	47.3283
16.096	47.3274
16.114	47.3297
16.132	47.3338
16.15	47.3377
16.168	47.3388
16.186	47.3354
16.204	47.3262
16.222	47.3098
16.24	47.2864
16.258	47.2564
16.276	47.221
16.294	47.1822
16.312	47.1416
16.33	47.1018
16.348	47.0647
16.366	47.0316
16.384	47.0037
16.402	46.9811
16.42	46.9635
16.438	46.9499
16.456	46.9387
16.474	46.9287
16.492	46.9181
16.51	46.9058
16.528	46.8913
16.546	46.874
16.564	46.8548
16.582	46.8339
16.6	46.8126
16.618	46.7922
16.636	46.7734
16.654	46.7575
16.672	46.7447
16.69	46.7353
16.708	46.7293
16.726	46.7258
16.744	46.7243
16.762	46.7236
16.78	46.7232
16.798	46.7221
16.816	46.7192
16.834	46.7138
16.852	46.7056
16.87	46.694
16.888	46.679
16.906	46.6611
16.924	46.6407
16.942	46.6186
16.96	46.5964
16.978	46.5749
16.996	46.5558
17.014	46.5404
17.032	46.5296
17.05	46.5247
17.068	46.5259
17.086	46.5334
17.104	46.5464
17.122	46.5642
17.14	46.5852
17.158	46.6071
17.176	46.6288
17.194	46.6471
17.212	46.6609
17.23	46.6681
17.248	46.6675
17.266	46.6585
17.284	46.641
17.302	46.6158
17.32	46.5835
17.338	46.5467
17.356	46.5063
17.374	46.4655
17.392	46.4257
17.41	46.3894
17.428	46.3584
17.446	46.3336
17.464	46.3165
17.482	46.307
17.5	46.3057
17.518	46.3116
17.536	46.3246
17.554	46.3431
17.572	46.3666
17.59	46.3934
17.608	46.4221
17.626	46.4517
17.644	46.4801
17.662	46.5065
17.68	46.5289
17.698	46.5466
17.716	46.5581
17.734	46.5625
17.752	46.5591
17.77	46.5473
17.788	46.527
17.806	46.4983
17.824	46.4614
17.842	46.4171
17.86	46.3663
17.878	46.3098
17.896	46.2494
17.914	46.1857
17.932	46.121
17.95	46.0559
17.968	45.9922
17.986	45.9306
18.004	45.8724
18.022	45.8182
18.04	45.7685
18.058	45.7235
18.076	45.6833
18.094	45.6477
18.112	45.6165
18.13	45.589
18.148	45.565
18.166	45.5437
18.184	45.5248
18.202	45.5077
18.22	45.4923
18.238	45.4784
18.256	45.4662
18.274	45.4558
18.292	45.4476
18.31	45.4419
18.328	45.4394
18.346	45.4402
18.364	45.4447
18.382	45.453
18.4	45.4654
18.418	45.4813
18.436	45.5006
18.454	45.5227
18.472	45.5472
18.49	45.5728
18.508	45.5995
18.526	45.6258
18.544	45.6515
18.562	45.6754
18.58	45.6975
18.598	45.7167
18.616	45.733
18.634	45.7459
18.652	45.7554
18.67	45.761
18.688	45.7628
18.706	45.7607
18.724	45.7547
18.742	45.7448
18.76	45.7312
18.778	45.7142
18.796	45.6939
18.814	45.6707
18.832	45.6449
18.85	45.6171
18.868	45.5877
18.886	45.5572
18.904	45.526
18.922	45.4947
18.94	45.4637
18.958	45.4333
18.976	45.404
18.994	45.3761
19.012	45.3499
19.03	45.3258
19.048	45.3038
19.066	45.2842
19.084	45.2672
19.102	45.2528
19.12	45.2412
19.138	45.2323
19.156	45.226
19.174	45.2223
19.192	45.2208
19.21	45.2214
19.228	45.2235
19.246	45.2266
19.264	45.2303
19.282	45.2337
19.3	45.2368
19.318	45.2386
19.336	45.2391
19.354	45.2378
19.372	45.2347
19.39	45.2294
19.408	45.222
19.426	45.2127
19.444	45.2016
19.462	45.1893
19.48	45.1758
19.498	45.1621
19.516	45.1481
19.534	45.1347
19.552	45.122
19.57	45.1104
19.588	45.1001
19.606	45.0913
19.624	45.0843
19.642	45.0789
19.66	45.075
19.678	45.0726
19.696	45.0711
19.714	45.0704
19.732	45.0696
19.75	45.0689
19.768	45.0672
19.786	45.0645
19.804	45.0602
19.822	45.0541
19.84	45.0459
19.858	45.0352
19.876	45.0221
19.894	45.0064
19.912	44.9883
19.93	44.9679
19.948	44.9454
19.966	44.9212
19.984	44.8955
20.002	44.8689
20.02	44.8417
20.038	44.8144
20.056	44.7874
20.074	44.7607
20.092	44.735
20.11	44.71
20.128	44.6859
20.146	44.6628
20.164	44.6404
20.182	44.6185
20.2	44.5968
20.218	44.5749
20.236	44.5526
20.254	44.5289
20.272	44.504
20.29	44.4769
20.308	44.4477
20.326	44.4159
20.344	44.3812
20.362	44.3436
20.38	44.303
20.398	44.2593
20.416	44.2131
20.434	44.1641
20.452	44.1131
20.47	44.0603
20.488	44.0062
20.506	43.9515
20.524	43.8963
20.542	43.8419
20.56	43.7881
20.578	43.7359
20.596	43.6853
20.614	43.6367
20.632	43.5905
20.65	43.5465
20.668	43.5046
20.686	43.465
20.704	43.427
20.722	43.3905
20.74	43.3551
20.758	43.32
20.776	43.2854
20.794	43.2501
20.812	43.2141
20.83	43.1771
20.848	43.1388
20.866	43.0993
20.884	43.0591
20.902	43.0177
20.92	42.9766
20.938	42.936
20.956	42.8965
20.974	42.86
20.992	42.8258
21.01	42.7963
21.028	42.7717
21.046	42.7526
21.064	42.7403
21.082	42.7346
21.1	42.7359
21.118	42.7446
21.136	42.76
21.154	42.7815
21.172	42.8092
21.19	42.8409
21.208	42.877
21.226	42.9157
21.244	42.9547
21.262	42.9949
21.28	43.0329
21.298	43.0688
21.316	43.1015
21.334	43.1288
21.352	43.1515
21.37	43.1683
21.388	43.1787
21.406	43.1833
21.424	43.1818
21.442	43.1744
21.46	43.1623
21.478	43.1454
21.496	43.1245
21.514	43.1013
21.532	43.0753
21.55	43.0484
21.568	43.0215
21.586	42.9944
21.604	42.969
21.622	42.9451
21.64	42.923
21.658	42.9037
21.676	42.8868
21.694	42.872
21.712	42.8596
21.73	42.849
21.748	42.8393
21.766	42.831
21.784	42.8225
21.802	42.8131
21.82	42.803
21.838	42.7906
21.856	42.7761
21.874	42.759
21.892	42.7382
21.91	42.7141
21.928	42.6864
21.946	42.6547
21.964	42.6193
21.982	42.5807
22	42.5386
22.018	42.4938
22.036	42.4472
22.054	42.3984
22.072	42.3488
22.09	42.2994
22.108	42.2497
22.126	42.2018
22.144	42.1553
22.162	42.111
22.18	42.0701
22.198	42.0325
22.216	41.9986
22.234	41.9692
22.252	41.9439
22.27	41.9232
22.288	41.9074
22.306	41.8962
22.324	41.8896
22.342	41.8878
22.36	41.8903
22.378	41.8966
22.396	41.907
22.414	41.9206
22.432	41.9365
22.45	41.9552
22.468	41.9753
22.486	41.996
22.504	42.0177
22.522	42.0385
22.54	42.0582
22.558	42.0767
22.576	42.0918
22.594	42.1038
22.612	42.1122
22.63	42.1148
22.648	42.1124
22.666	42.1041
22.684	42.0883
22.702	42.0656
22.72	42.0354
22.738	41.9968
22.756	41.9502
22.774	41.8957
22.792	41.8331
22.81	41.7625
22.828	41.6852
22.846	41.6014
22.864	41.511
22.882	41.4163
22.9	41.3172
22.918	41.214
22.936	41.1097
22.954	41.0042
22.972	40.8977
22.99	40.7939
23.008	40.6922
23.026	40.5931
23.044	40.5002
23.062	40.4127
23.08	40.3314
23.098	40.2586
23.116	40.1942
23.134	40.1382
23.152	40.0923
23.17	40.0563
23.188	40.0302
23.206	40.0142
23.224	40.0088
23.242	40.0132
23.26	40.0266
23.278	40.0497
23.296	40.0813
23.314	40.119
23.332	40.164
23.35	40.2147
23.368	40.2682
23.386	40.3254
23.404	40.3853
23.422	40.4451
23.44	40.5057
23.458	40.5661
23.476	40.6236
23.494	40.6787
23.512	40.731
23.53	40.7777
23.548	40.8189
23.566	40.8548
23.584	40.8834
23.602	40.9042
23.62	40.9179
23.638	40.9236
23.656	40.921
23.674	40.9104
23.692	40.8915
23.71	40.8641
23.728	40.8285
23.746	40.7848
23.764	40.7332
23.782	40.6737
23.8	40.6066
23.818	40.5322
23.836	40.4502
23.854	40.3613
23.872	40.2661
23.89	40.1639
23.908	40.0557
23.926	39.9427
23.944	39.8242
23.962	39.701
23.98	39.5754
23.998	39.4473
24.016	39.3163
24.034	39.1858
24.052	39.0568
24.07	38.9276
24.088	38.8021
24.106	38.6829
24.124	38.5674
24.142	38.4591
24.16	38.3619
24.178	38.2736
24.196	38.196
24.214	38.1331
24.232	38.0844
24.25	38.0496
24.268	38.0321
24.286	38.0334
24.304	38.0519
24.322	38.0888
24.34	38.1455
24.358	38.222
24.376	38.3164
24.394	38.4268
24.412	38.5552
24.43	38.6995
24.448	38.8549
24.466	39.0215
24.484	39.2005
24.502	39.3852
24.52	39.5714
24.538	39.7634
24.556	39.9559
24.574	40.1427
24.592	40.3269
24.61	40.5066
24.628	40.6754
24.646	40.8313
24.664	40.977
24.682	41.1099
24.7	41.2275
24.718	41.331
24.736	41.4207
24.754	41.4963
24.772	41.5557
24.79	41.6009
24.808	41.6368
24.826	41.6649
24.844	41.6814
24.862	41.694
24.88	41.7105
24.898	41.7254
24.916	41.7424
24.934	41.7718
24.952	41.8163
24.97	41.8706
24.988	41.9438
25.006	42.0443
25.024	42.1678
25.042	42.3157
25.06	42.493
25.078	42.7023
25.096	42.9409
25.114	43.2079
25.132	43.5027
25.15	43.8291
25.168	44.1816
25.186	44.5522
25.204	44.9412
25.222	45.3523
25.24	45.773
25.258	46.1922
25.276	46.6198
25.294	47.0486
25.312	47.4631
25.33	47.858
25.348	48.243
25.366	48.6049
25.384	48.9299
25.402	49.2241
25.42	49.4867
25.438	49.7075
25.456	49.8798
25.474	50.0095
25.492	50.0945
25.51	50.1315
25.528	50.1188
25.546	50.0586
25.564	49.9534
25.582	49.8048
25.6	49.6084
25.618	49.3697
25.636	49.0969
25.654	48.7923
25.672	48.4497
25.69	48.0797
25.708	47.6932
25.726	47.2855
25.744	46.8562
25.762	46.419
25.78	45.9847
25.798	45.5417
25.816	45.0983
25.834	44.6695
25.852	44.2617
25.87	43.8634
25.888	43.487
25.906	43.1467
25.924	42.8405
25.942	42.5635
25.96	42.3289
25.978	42.1489
25.996	42.0173
26.014	41.9341
26.032	41.9076
26.05	41.9443
26.068	42.0398
26.086	42.1939
26.104	42.408
26.122	42.6847
26.14	43.0248
26.158	43.4213
26.176	43.8669
26.194	44.3642
26.212	44.9166
26.23	45.5099
26.248	46.1299
26.266	46.7858
26.284	47.477
26.302	48.1836
26.32	48.887
26.338	49.6042
26.356	50.328
26.374	51.0353
26.392	51.707
26.41	52.3625
26.428	52.9922
26.446	53.5757
26.464	54.0984
26.482	54.5764
26.5	55.0019
26.518	55.3618
26.536	55.6473
26.554	55.8672
26.572	56.0199
26.59	56.1021
26.608	56.1103
26.626	56.0451
26.644	55.9123
26.662	55.7181
26.68	55.4616
26.698	55.1362
26.716	54.756
26.734	54.3359
26.752	53.8777
26.77	53.3696
26.788	52.8288
26.806	52.2738
26.824	51.7064
26.842	51.1124
26.86	50.5118
26.878	49.9253
26.896	49.3565
26.914	48.7896
26.932	48.2428
26.95	47.7359
26.968	47.2645
26.986	46.8068
27.004	46.4051
27.022	46.1035
27.028	46.0431