File: Bakgrunnsmateriale/MATLAB/FTIR/ftir_data/subBb/Mapping_36/C-4040-8_t32.asc
PE IR       SPECTRUM    SPECTRUM    ASCII       PEDS        1.60
  -1
C-A132~1.ASC
17/05/02
13:35:22.00
17/05/02
13:35:48.00
tln
$C-4040-8_t0032$<tbV0>[7.5,12.0,8.0,0.0,22,1,0]
27.028
64

2002,4.07
MIRTGS : RIGHTBACK : INTERNAL 2
MIR : ON : INTERNAL 2
OPTKBR

0.200000
8
8.000000
FILLER
RATIO
SPECTRUM
UNLOCKED 256

DOUBLE
64
COMBINED
1
0
0

0.002000
RATIO

1
0
TRUE
51149
0
LEFT NOT FITTED RIGHT NOT FITTED 0
NONE
NONE
15600
12
4.427000
51148
TRUE
1 0 8 72 0 0 0 0

15798

#HDR
-1
-1
#GR
µM
%T
2.38419e-05
0.0
1.282000
0.002000
12874
8
92.8509
50.845
#DATA
1.282000	 79.0763
1.300000	 63.756
1.318000	 68.3
1.336000	 65.6181
1.354000	 64.6149
1.372000	 66.7062
1.390000	 65.7238
1.408000	 63.3175
1.426000	 63.0291
1.444000	 64.757
1.462000	 64.151
1.480000	 63.1947
1.498000	 64.7582
1.516000	 65.7966
1.534000	 65.0759
1.552000	 66.6998
1.570000	 64.6822
1.588000	 65.7375
1.606000	 64.8021
1.624000	 64.8692
1.642000	 64.4316
1.660000	 64.5704
1.678000	 64.7906
1.696000	 65.4297
1.714000	 65.2351
1.732000	 64.3674
1.750000	 64.9282
1.768000	 64.668
1.786000	 64.7776
1.804000	 65.275
1.822000	 64.6827
1.840000	 64.3084
1.858000	 63.9209
1.876000	 63.2579
1.894000	 67.2793
1.912000	 64.34
1.930000	 64.4376
1.948000	 64.8657
1.966000	 64.9056
1.984000	 64.7368
2.002000	 64.763
2.020000	 64.7137
2.038000	 64.5758
2.056000	 64.6002
2.074000	 64.9948
2.092000	 65.2428
2.110000	 65.257
2.128000	 64.9269
2.146000	 65.2677
2.164000	 64.9773
2.182000	 65.0002
2.200000	 64.2538
2.218000	 64.3353
2.236000	 64.105
2.254000	 63.9899
2.272000	 64.438
2.290000	 64.226
2.308000	 64.4478
2.326000	 64.4156
2.344000	 64.4234
2.362000	 64.794
2.380000	 64.982
2.398000	 64.906
2.416000	 65.1387
2.434000	 65.3696
2.452000	 64.9015
2.470000	 65.456
2.488000	 65.1162
2.506000	 65.4875
2.524000	 65.1732
2.542000	 65.0071
2.560000	 64.9096
2.578000	 64.9851
2.596000	 64.9632
2.614000	 64.9766
2.632000	 65.1652
2.650000	 65.0146
2.668000	 65.1363
2.686000	 65.1695
2.704000	 65.2993
2.722000	 65.3405
2.740000	 65.3607
2.758000	 65.1519
2.776000	 65.0348
2.794000	 65.2459
2.812000	 65.1947
2.830000	 65.0634
2.848000	 65.3674
2.866000	 65.2483
2.884000	 65.1315
2.902000	 65.1325
2.920000	 65.0855
2.938000	 65.047
2.956000	 64.9664
2.974000	 64.9967
2.992000	 65.1602
3.010000	 65.0193
3.028000	 65.0741
3.046000	 65.195
3.064000	 64.963
3.082000	 65.1635
3.100000	 65.0995
3.118000	 65.1302
3.136000	 65.0911
3.154000	 65.1976
3.172000	 65.2297
3.190000	 65.0292
3.208000	 65.2594
3.226000	 65.1529
3.244000	 65.0945
3.262000	 65.1264
3.280000	 65.0545
3.298000	 65.17
3.316000	 65.2582
3.334000	 65.132
3.352000	 65.0241
3.370000	 65.0741
3.388000	 64.9732
3.406000	 65.0429
3.424000	 64.6493
3.442000	 64.9725
3.460000	 64.9028
3.478000	 64.9866
3.496000	 65.0239
3.514000	 65.04
3.532000	 65.1753
3.550000	 65.2204
3.568000	 65.269
3.586000	 65.1592
3.604000	 65.2827
3.622000	 65.2665
3.640000	 65.1223
3.658000	 65.2245
3.676000	 65.2365
3.694000	 65.1646
3.712000	 65.1891
3.730000	 65.1352
3.748000	 65.2819
3.766000	 65.1865
3.784000	 65.0059
3.802000	 65.4078
3.820000	 65.164
3.838000	 65.238
3.856000	 65.1803
3.874000	 65.2786
3.892000	 65.1733
3.910000	 65.4211
3.928000	 65.2709
3.946000	 65.2982
3.964000	 65.2996
3.982000	 65.2369
4.000000	 65.2029
4.018000	 65.2299
4.036000	 65.2046
4.054000	 65.3693
4.072000	 65.3006
4.090000	 65.2198
4.108000	 65.1597
4.125999	 65.2439
4.144000	 65.2645
4.162000	 65.2476
4.180000	 65.1269
4.198000	 65.3275
4.216000	 65.3349
4.234000	 65.1872
4.252000	 65.1621
4.270000	 65.3107
4.288000	 65.2035
4.306000	 65.1226
4.324000	 65.3045
4.342000	 65.4268
4.359999	 65.3743
4.378000	 65.3781
4.396000	 65.2679
4.414000	 65.3652
4.432000	 65.2396
4.450000	 65.3208
4.468000	 65.2576
4.486000	 65.2361
4.504000	 65.2177
4.522000	 65.2993
4.540000	 65.3051
4.558000	 65.3258
4.576000	 65.2894
4.594000	 65.3479
4.612000	 65.2026
4.630000	 65.2301
4.648000	 65.213
4.666000	 65.1995
4.684000	 65.2277
4.702000	 65.2796
4.720000	 65.2443
4.738000	 65.2873
4.756000	 65.2867
4.774000	 65.2938
4.792000	 65.3099
4.810000	 65.2075
4.828000	 65.1851
4.846000	 65.2502
4.864000	 65.187
4.882000	 65.1988
4.900000	 65.1746
4.918000	 65.2234
4.936000	 65.247
4.954000	 65.1749
4.972000	 65.2504
4.990000	 65.2786
5.008000	 65.2994
5.026000	 65.2422
5.044000	 65.3778
5.062000	 65.2986
5.080000	 65.2129
5.098000	 65.2824
5.116000	 65.4144
5.134000	 65.3726
5.152000	 65.2849
5.170000	 65.2486
5.188000	 65.2749
5.206000	 65.2216
5.224000	 65.2816
5.242000	 65.3238
5.260000	 65.2765
5.278000	 65.3358
5.296000	 65.2603
5.314000	 65.2062
5.332000	 65.2895
5.350000	 65.3441
5.368000	 65.2792
5.386000	 65.3037
5.404000	 65.3164
5.422000	 65.2833
5.440000	 65.3065
5.458000	 65.3149
5.476000	 65.3195
5.494000	 65.2921
5.512000	 65.2601
5.530000	 65.2569
5.548000	 65.297
5.566000	 65.3822
5.584000	 65.3672
5.602000	 65.3305
5.620000	 65.2798
5.638000	 65.2989
5.656000	 65.2873
5.674000	 65.2643
5.692000	 65.2522
5.710000	 65.2023
5.728000	 65.0848
5.746000	 65.047
5.764000	 65.0312
5.782000	 65.0181
5.800000	 65.0636
5.818000	 65.0688
5.836000	 65.1719
5.854000	 65.1967
5.872000	 65.1662
5.890000	 65.1854
5.908000	 65.1048
5.926000	 65.0333
5.944000	 65.044
5.962000	 65.2055
5.980000	 65.2773
5.998000	 65.2267
6.016000	 65.236
6.034000	 65.2475
6.052000	 65.2079
6.070000	 65.2185
6.088000	 65.1807
6.106000	 65.1661
6.124000	 65.1992
6.142000	 65.278
6.160000	 65.2805
6.178000	 65.1588
6.196000	 65.0906
6.214000	 65.1226
6.232000	 65.1156
6.250000	 65.0703
6.268000	 65.0934
6.286000	 65.1626
6.304000	 65.0974
6.322000	 65.0229
6.340000	 65.1047
6.358000	 65.1183
6.376000	 65.0563
6.394000	 64.9739
6.412000	 64.9902
6.430000	 65.1517
6.448000	 65.1694
6.466000	 65.0754
6.484000	 64.9914
6.502000	 64.9743
6.520000	 65.0362
6.538000	 65.1024
6.556000	 65.1582
6.574000	 65.1551
6.592000	 65.1299
6.610000	 65.1659
6.628000	 65.2205
6.646000	 65.2049
6.664000	 65.1331
6.682000	 65.105
6.700000	 65.1153
6.718000	 65.1229
6.736000	 65.1379
6.754000	 65.1085
6.772000	 65.0477
6.790000	 65.0227
6.808000	 65.0172
6.826000	 65.0224
6.844000	 65.0872
6.862000	 65.182
6.880000	 65.2134
6.898000	 65.1627
6.916000	 65.108
6.934000	 65.1044
6.952000	 65.1286
6.970000	 65.1471
6.988000	 65.146
7.006000	 65.1466
7.024000	 65.1402
7.042000	 65.1081
7.060000	 65.0977
7.078000	 65.0935
7.096000	 65.0819
7.114000	 65.1044
7.132000	 65.1165
7.150000	 65.0816
7.168000	 65.0503
7.186000	 65.0539
7.204000	 65.063
7.222000	 65.0524
7.240000	 65.0538
7.258000	 65.0612
7.276000	 65.0393
7.294000	 65.0245
7.312000	 65.0512
7.330000	 65.077
7.348000	 65.0653
7.366000	 65.0293
7.384000	 64.9913
7.402000	 64.9752
7.420000	 65.0061
7.438000	 65.0563
7.456000	 65.0801
7.474000	 65.094
7.492000	 65.1113
7.510000	 65.0918
7.528000	 65.0368
7.546000	 64.9998
7.564000	 65.006
7.582000	 65.0508
7.600000	 65.103
7.618000	 65.1019
7.636000	 65.0471
7.654000	 65.0156
7.672000	 65.0482
7.690000	 65.0996
7.708000	 65.116
7.726000	 65.0941
7.744000	 65.0495
7.762000	 64.991
7.780000	 64.9377
7.798000	 64.9144
7.816000	 64.9197
7.834000	 64.9302
7.852000	 64.9246
7.870000	 64.9037
7.888000	 64.8937
7.906000	 64.9144
7.924000	 64.9498
7.942000	 64.9719
7.960000	 64.9714
7.978000	 64.9482
7.996000	 64.9069
8.013999	 64.8698
8.032000	 64.8655
8.050000	 64.9045
8.068000	 64.9641
8.086000	 64.9981
8.103999	 64.9838
8.122000	 64.9573
8.140000	 64.9692
8.158000	 65.0101
8.176000	 65.0206
8.193999	 64.9674
8.212000	 64.8756
8.230000	 64.7912
8.248000	 64.7446
8.266000	 64.7481
8.283999	 64.7955
8.302000	 64.8592
8.320000	 64.9077
8.338000	 64.9303
8.356000	 64.9291
8.374000	 64.9032
8.391999	 64.8642
8.410000	 64.8495
8.428000	 64.889
8.446000	 64.9632
8.464000	 65.0183
8.481999	 65.019
8.500000	 64.9686
8.518000	 64.8945
8.536000	 64.8301
8.554000	 64.8
8.571999	 64.8059
8.590000	 64.8284
8.608000	 64.8511
8.626000	 64.8776
8.644000	 64.9164
8.661999	 64.9587
8.680000	 64.983
8.698000	 64.9777
8.716000	 64.9454
8.734000	 64.8949
8.751999	 64.843
8.770000	 64.8173
8.788000	 64.835
8.806000	 64.8792
8.824000	 64.9107
8.842000	 64.9097
8.859999	 64.8949
8.878000	 64.8979
8.896000	 64.9275
8.914000	 64.9648
8.932000	 64.9811
8.949999	 64.9613
8.968000	 64.9135
8.986000	 64.8591
9.004000	 64.8187
9.022000	 64.8083
9.039999	 64.8358
9.058000	 64.8955
9.076000	 64.9675
9.094000	 65.0292
9.112000	 65.0685
9.129999	 65.0857
9.148000	 65.0804
9.166000	 65.0464
9.184000	 64.9818
9.202000	 64.899
9.219999	 64.8223
9.238000	 64.776
9.256000	 64.7708
9.274000	 64.7944
9.292000	 64.8168
9.310000	 64.8149
9.327999	 64.7942
9.346000	 64.7845
9.364000	 64.807
9.382000	 64.8495
9.400000	 64.8758
9.418000	 64.8649
9.436000	 64.836
9.454000	 64.8333
9.472000	 64.8845
9.490000	 64.9751
9.508000	 65.0583
9.526000	 65.0902
9.544000	 65.0592
9.561999	 64.9895
9.580000	 64.921
9.598000	 64.8847
9.616000	 64.8871
9.634000	 64.9112
9.652000	 64.9276
9.670000	 64.9126
9.688000	 64.8645
9.706000	 64.8056
9.724000	 64.7646
9.742000	 64.7553
9.760000	 64.7711
9.778000	 64.795
9.795999	 64.8145
9.814000	 64.8275
9.832000	 64.8378
9.850000	 64.8476
9.868000	 64.8546
9.886000	 64.8571
9.904000	 64.856
9.922000	 64.8547
9.940000	 64.8552
9.958000	 64.8553
9.976000	 64.8489
9.994000	 64.8293
10.012	64.7923
10.03	64.7395
10.048	64.6801
10.066	64.627
10.084	64.5913
10.102	64.576
10.12	64.5748
10.138	64.5799
10.156	64.5914
10.174	64.6198
10.192	64.6791
10.21	64.7715
10.228	64.8781
10.246	64.9651
10.264	64.9987
10.282	64.966
10.3	64.8828
10.318	64.786
10.336	64.7157
10.354	64.694
10.372	64.7195
10.39	64.7706
10.408	64.8213
10.426	64.8542
10.444	64.8661
10.462	64.8673
10.48	64.8718
10.498	64.8858
10.516	64.9009
10.534	64.9004
10.552	64.8714
10.57	64.8159
10.588	64.7542
10.606	64.715
10.624	64.72
10.642	64.7731
10.66	64.8595
10.678	64.9529
10.696	65.0281
10.714	65.0669
10.732	65.0614
10.75	65.0147
10.768	64.9457
10.786	64.8841
10.804	64.8614
10.822	64.8923
10.84	64.967
10.858	65.0522
10.876	65.1091
10.894	65.114
10.912	65.0674
10.93	64.9921
10.948	64.9116
10.966	64.8349
10.984	64.7522
11.002	64.6437
11.02	64.4979
11.038	64.3217
11.056	64.1388
11.074	63.9801
11.092	63.8726
11.11	63.8302
11.128	63.8534
11.146	63.9326
11.164	64.0521
11.182	64.1944
11.2	64.3405
11.218	64.4741
11.236	64.583
11.254	64.662
11.272	64.7123
11.29	64.7393
11.308	64.7506
11.326	64.7528
11.344	64.7513
11.362	64.7508
11.38	64.7525
11.398	64.7544
11.416	64.7532
11.434	64.7466
11.452	64.7358
11.47	64.7244
11.488	64.7162
11.506	64.7125
11.524	64.7103
11.542	64.7032
11.56	64.6834
11.578	64.6477
11.596	64.6
11.614	64.5515
11.632	64.5171
11.65	64.5097
11.668	64.535
11.686	64.5897
11.704	64.6615
11.722	64.7324
11.74	64.7855
11.758	64.8096
11.776	64.8015
11.794	64.7676
11.812	64.7205
11.83	64.6749
11.848	64.6426
11.866	64.6282
11.884	64.6298
11.902	64.6414
11.92	64.656
11.938	64.6702
11.956	64.6846
11.974	64.7029
11.992	64.7294
12.01	64.7652
12.028	64.8067
12.046	64.8451
12.064	64.8697
12.082	64.8714
12.1	64.8458
12.118	64.7949
12.136	64.7263
12.154	64.6505
12.172	64.5778
12.19	64.5158
12.208	64.4673
12.226	64.431
12.244	64.4038
12.262	64.3828
12.28	64.367
12.298	64.3583
12.316	64.3602
12.334	64.3759
12.352	64.4065
12.37	64.449
12.388	64.4965
12.406	64.5383
12.424	64.5641
12.442	64.5656
12.46	64.5406
12.478	64.4941
12.496	64.4369
12.514	64.3827
12.532	64.3432
12.55	64.3249
12.568	64.3279
12.586	64.3459
12.604	64.3699
12.622	64.3913
12.64	64.4041
12.658	64.4065
12.676	64.3999
12.694	64.3873
12.712	64.3722
12.73	64.3572
12.748	64.3432
12.766	64.3306
12.784	64.3198
12.802	64.3113
12.82	64.3056
12.838	64.303
12.856	64.3023
12.874	64.3005
12.892	64.2942
12.91	64.2801
12.928	64.2568
12.946	64.226
12.964	64.1923
12.982	64.1627
13	64.1445
13.018	64.1425
13.036	64.1573
13.054	64.1845
13.072	64.2161
13.09	64.2423
13.108	64.2538
13.126	64.2447
13.144	64.2135
13.162	64.1634
13.18	64.1007
13.198	64.033
13.216	63.9675
13.234	63.9095
13.252	63.8617
13.27	63.8244
13.288	63.7958
13.306	63.7732
13.324	63.7537
13.342	63.7351
13.36	63.7161
13.378	63.6965
13.396	63.6773
13.414	63.6601
13.432	63.647
13.45	63.6404
13.468	63.6425
13.486	63.6547
13.504	63.6771
13.522	63.7084
13.54	63.7459
13.558	63.7859
13.576	63.8241
13.594	63.8562
13.612	63.8789
13.63	63.89
13.648	63.8889
13.666	63.8765
13.684	63.8545
13.702	63.8253
13.72	63.792
13.738	63.7574
13.756	63.7244
13.774	63.6952
13.792	63.6714
13.81	63.6539
13.828	63.6436
13.846	63.6403
13.864	63.6432
13.882	63.6515
13.9	63.6638
13.918	63.6792
13.936	63.6969
13.954	63.7165
13.972	63.7386
13.99	63.7635
14.008	63.7921
14.026	63.8245
14.044	63.86
14.062	63.897
14.08	63.9324
14.098	63.9618
14.116	63.9811
14.134	63.9857
14.152	63.9727
14.17	63.9406
14.188	63.89
14.206	63.8237
14.224	63.7463
14.242	63.6642
14.26	63.5842
14.278	63.5124
14.296	63.4543
14.314	63.4134
14.332	63.3919
14.35	63.3899
14.368	63.4059
14.386	63.4373
14.404	63.4803
14.422	63.5308
14.44	63.5846
14.458	63.6376
14.476	63.6862
14.494	63.7272
14.512	63.7583
14.53	63.7779
14.548	63.786
14.566	63.7838
14.584	63.7736
14.602	63.7583
14.62	63.7412
14.638	63.7257
14.656	63.7146
14.674	63.7092
14.692	63.7094
14.71	63.7139
14.728	63.7206
14.746	63.7267
14.764	63.7292
14.782	63.7259
14.8	63.7158
14.818	63.6991
14.836	63.6771
14.854	63.6525
14.872	63.6286
14.89	63.6086
14.908	63.5949
14.926	63.5895
14.944	63.5937
14.962	63.607
14.98	63.6279
14.998	63.6545
15.016	63.6842
15.034	63.7147
15.052	63.7435
15.07	63.769
15.088	63.7898
15.106	63.8048
15.124	63.8135
15.142	63.8151
15.16	63.8092
15.178	63.7953
15.196	63.773
15.214	63.7419
15.232	63.7023
15.25	63.6547
15.268	63.6001
15.286	63.5403
15.304	63.4778
15.322	63.415
15.34	63.3543
15.358	63.2978
15.376	63.2474
15.394	63.2042
15.412	63.1687
15.43	63.1409
15.448	63.1206
15.466	63.107
15.484	63.0997
15.502	63.0982
15.52	63.1019
15.538	63.1112
15.556	63.1259
15.574	63.1461
15.592	63.1716
15.61	63.202
15.628	63.2365
15.646	63.2737
15.664	63.3115
15.682	63.3477
15.7	63.3803
15.718	63.4067
15.736	63.4246
15.754	63.4329
15.772	63.4309
15.79	63.4189
15.808	63.3985
15.826	63.3719
15.844	63.3417
15.862	63.3119
15.88	63.2854
15.898	63.2648
15.916	63.2527
15.934	63.25
15.952	63.2566
15.97	63.2718
15.988	63.293
16.006	63.3176
16.024	63.3427
16.042	63.3644
16.06	63.3802
16.078	63.3883
16.096	63.3867
16.114	63.3755
16.132	63.3557
16.15	63.3282
16.168	63.2966
16.186	63.2634
16.204	63.2311
16.222	63.2036
16.24	63.183
16.258	63.1707
16.276	63.1682
16.294	63.175
16.312	63.1907
16.33	63.2133
16.348	63.2404
16.366	63.2702
16.384	63.2996
16.402	63.3259
16.42	63.3476
16.438	63.3626
16.456	63.37
16.474	63.3696
16.492	63.3614
16.51	63.3468
16.528	63.3264
16.546	63.3022
16.564	63.2757
16.582	63.248
16.6	63.2207
16.618	63.1947
16.636	63.1704
16.654	63.1485
16.672	63.1287
16.69	63.1111
16.708	63.0953
16.726	63.0814
16.744	63.0691
16.762	63.0589
16.78	63.051
16.798	63.0456
16.816	63.0432
16.834	63.0437
16.852	63.0473
16.87	63.0532
16.888	63.0611
16.906	63.0697
16.924	63.0781
16.942	63.0855
16.96	63.0904
16.978	63.0924
16.996	63.0906
17.014	63.0848
17.032	63.0751
17.05	63.0618
17.068	63.0458
17.086	63.0276
17.104	63.0089
17.122	62.9904
17.14	62.9737
17.158	62.9598
17.176	62.9494
17.194	62.9434
17.212	62.942
17.23	62.9453
17.248	62.9522
17.266	62.9622
17.284	62.9732
17.302	62.9838
17.32	62.992
17.338	62.9954
17.356	62.993
17.374	62.9826
17.392	62.9642
17.41	62.9369
17.428	62.9019
17.446	62.8598
17.464	62.8132
17.482	62.7633
17.5	62.7132
17.518	62.6653
17.536	62.6211
17.554	62.5834
17.572	62.5526
17.59	62.5302
17.608	62.5155
17.626	62.5088
17.644	62.5081
17.662	62.5128
17.68	62.5202
17.698	62.529
17.716	62.5369
17.734	62.5423
17.752	62.544
17.77	62.541
17.788	62.5331
17.806	62.5199
17.824	62.5021
17.842	62.4804
17.86	62.456
17.878	62.4298
17.896	62.4037
17.914	62.3783
17.932	62.3554
17.95	62.3353
17.968	62.3194
17.986	62.3081
18.004	62.302
18.022	62.3013
18.04	62.3062
18.058	62.3167
18.076	62.3329
18.094	62.354
18.112	62.3798
18.13	62.4095
18.148	62.4425
18.166	62.4779
18.184	62.5146
18.202	62.552
18.22	62.5888
18.238	62.6248
18.256	62.6585
18.274	62.69
18.292	62.7183
18.31	62.7436
18.328	62.7652
18.346	62.7833
18.364	62.7978
18.382	62.8087
18.4	62.8157
18.418	62.8188
18.436	62.818
18.454	62.8129
18.472	62.8033
18.49	62.7886
18.508	62.7687
18.526	62.7431
18.544	62.7116
18.562	62.6742
18.58	62.631
18.598	62.5825
18.616	62.5288
18.634	62.4715
18.652	62.4108
18.67	62.3488
18.688	62.2858
18.706	62.2242
18.724	62.1645
18.742	62.1088
18.76	62.0573
18.778	62.0116
18.796	61.9717
18.814	61.9386
18.832	61.9117
18.85	61.8912
18.868	61.8763
18.886	61.8669
18.904	61.862
18.922	61.861
18.94	61.8633
18.958	61.8682
18.976	61.8756
18.994	61.8849
19.012	61.8963
19.03	61.9096
19.048	61.9251
19.066	61.9428
19.084	61.9628
19.102	61.9853
19.12	62.0101
19.138	62.037
19.156	62.0655
19.174	62.0949
19.192	62.1243
19.21	62.1526
19.228	62.1788
19.246	62.2011
19.264	62.2191
19.282	62.2305
19.3	62.2354
19.318	62.2325
19.336	62.222
19.354	62.2036
19.372	62.1776
19.39	62.1454
19.408	62.1071
19.426	62.0654
19.444	62.0199
19.462	61.9738
19.48	61.927
19.498	61.8818
19.516	61.8386
19.534	61.7984
19.552	61.7617
19.57	61.7283
19.588	61.6986
19.606	61.6721
19.624	61.6485
19.642	61.6274
19.66	61.608
19.678	61.5902
19.696	61.5734
19.714	61.5575
19.732	61.5423
19.75	61.5277
19.768	61.5144
19.786	61.5021
19.804	61.4918
19.822	61.4836
19.84	61.4782
19.858	61.4763
19.876	61.4779
19.894	61.4839
19.912	61.494
19.93	61.5084
19.948	61.5271
19.966	61.5494
19.984	61.5753
20.002	61.6036
20.02	61.6342
20.038	61.6656
20.056	61.6969
20.074	61.7275
20.092	61.7552
20.11	61.7804
20.128	61.8008
20.146	61.8166
20.164	61.8266
20.182	61.8303
20.2	61.8279
20.218	61.8188
20.236	61.8034
20.254	61.7822
20.272	61.7553
20.29	61.7245
20.308	61.6895
20.326	61.6526
20.344	61.6143
20.362	61.5758
20.38	61.5391
20.398	61.5041
20.416	61.473
20.434	61.4456
20.452	61.4233
20.47	61.4065
20.488	61.395
20.506	61.3891
20.524	61.3886
20.542	61.3925
20.56	61.4012
20.578	61.4127
20.596	61.4268
20.614	61.4421
20.632	61.4567
20.65	61.4708
20.668	61.4815
20.686	61.4891
20.704	61.4917
20.722	61.4886
20.74	61.4798
20.758	61.4641
20.776	61.4419
20.794	61.4133
20.812	61.3779
20.83	61.3372
20.848	61.2918
20.866	61.2421
20.884	61.191
20.902	61.1377
20.92	61.0853
20.938	61.0347
20.956	60.9864
20.974	60.9435
20.992	60.9051
21.01	60.8734
21.028	60.8487
21.046	60.8312
21.064	60.8215
21.082	60.8194
21.1	60.8241
21.118	60.836
21.136	60.8538
21.154	60.8762
21.172	60.9035
21.19	60.9333
21.208	60.9657
21.226	60.9997
21.244	61.0339
21.262	61.0686
21.28	61.1028
21.298	61.1363
21.316	61.1692
21.334	61.2016
21.352	61.2333
21.37	61.2655
21.388	61.2981
21.406	61.3316
21.424	61.3673
21.442	61.4048
21.46	61.4449
21.478	61.4882
21.496	61.5341
21.514	61.5827
21.532	61.6341
21.55	61.687
21.568	61.7413
21.586	61.7965
21.604	61.8497
21.622	61.9019
21.64	61.9507
21.658	61.9939
21.676	62.0325
21.694	62.0627
21.712	62.0844
21.73	62.0969
21.748	62.098
21.766	62.0883
21.784	62.0669
21.802	62.0328
21.82	61.9868
21.838	61.9297
21.856	61.8609
21.874	61.782
21.892	61.6948
21.91	61.5984
21.928	61.496
21.946	61.3887
21.964	61.2763
21.982	61.163
22	61.0479
22.018	60.9328
22.036	60.8209
22.054	60.711
22.072	60.6052
22.09	60.5051
22.108	60.4098
22.126	60.3209
22.144	60.2386
22.162	60.1626
22.18	60.0931
22.198	60.0303
22.216	59.9737
22.234	59.9228
22.252	59.8779
22.27	59.8379
22.288	59.8027
22.306	59.7722
22.324	59.7454
22.342	59.7224
22.36	59.703
22.378	59.6864
22.396	59.6729
22.414	59.6621
22.432	59.6537
22.45	59.648
22.468	59.6444
22.486	59.6429
22.504	59.6435
22.522	59.6458
22.54	59.6497
22.558	59.6552
22.576	59.6612
22.594	59.6682
22.612	59.6755
22.63	59.682
22.648	59.6881
22.666	59.6932
22.684	59.6961
22.702	59.6974
22.72	59.6962
22.738	59.6917
22.756	59.6844
22.774	59.6736
22.792	59.6588
22.81	59.6404
22.828	59.618
22.846	59.5917
22.864	59.5613
22.882	59.5275
22.9	59.4901
22.918	59.4491
22.936	59.4058
22.954	59.3602
22.972	59.3123
22.99	59.2632
23.008	59.2124
23.026	59.1605
23.044	59.1089
23.062	59.0571
23.08	59.0058
23.098	58.957
23.116	58.91
23.134	58.8656
23.152	58.826
23.17	58.7908
23.188	58.7604
23.206	58.7364
23.224	58.7183
23.242	58.7067
23.26	58.7028
23.278	58.7064
23.296	58.7177
23.314	58.7378
23.332	58.7666
23.35	58.804
23.368	58.8502
23.386	58.9054
23.404	58.9691
23.422	59.0403
23.44	59.1198
23.458	59.2065
23.476	59.2984
23.494	59.3963
23.512	59.4992
23.53	59.6038
23.548	59.7107
23.566	59.8195
23.584	59.9265
23.602	60.0314
23.62	60.1347
23.638	60.2329
23.656	60.3249
23.674	60.4118
23.692	60.4911
23.71	60.5613
23.728	60.6237
23.746	60.6769
23.764	60.7199
23.782	60.7533
23.8	60.7772
23.818	60.7915
23.836	60.7958
23.854	60.7912
23.872	60.7789
23.89	60.7579
23.908	60.7294
23.926	60.6953
23.944	60.6549
23.962	60.6087
23.98	60.5589
23.998	60.5055
24.016	60.4482
24.034	60.3891
24.052	60.3292
24.07	60.2675
24.088	60.2056
24.106	60.1448
24.124	60.0842
24.142	60.0246
24.16	59.9671
24.178	59.9114
24.196	59.8574
24.214	59.8051
24.232	59.754
24.25	59.7046
24.268	59.6579
24.286	59.6143
24.304	59.5735
24.322	59.5355
24.34	59.5004
24.358	59.4688
24.376	59.4392
24.394	59.4104
24.412	59.3838
24.43	59.3578
24.448	59.3289
24.466	59.2967
24.484	59.2623
24.502	59.2219
24.52	59.1731
24.538	59.1187
24.556	59.0551
24.574	58.9782
24.592	58.8904
24.61	58.7902
24.628	58.6725
24.646	58.5358
24.664	58.3824
24.682	58.2095
24.7	58.0146
24.718	57.7987
24.736	57.5626
24.754	57.3071
24.772	57.0303
24.79	56.734
24.808	56.4229
24.826	56.0987
24.844	55.758
24.862	55.4073
24.88	55.0536
24.898	54.6914
24.916	54.3248
24.934	53.9636
24.952	53.6103
24.97	53.2596
24.988	52.9215
25.006	52.6049
25.024	52.3036
25.042	52.0214
25.06	51.7669
25.078	51.5423
25.096	51.3435
25.114	51.1756
25.132	51.0434
25.15	50.9453
25.168	50.8804
25.186	50.8484
25.204	50.851
25.222	50.888
25.24	50.9543
25.258	51.0452
25.276	51.1666
25.294	51.313
25.312	51.4745
25.33	51.6486
25.348	51.8415
25.366	52.0419
25.384	52.2379
25.402	52.4359
25.42	52.6337
25.438	52.82
25.456	52.9876
25.474	53.1443
25.492	53.2841
25.51	53.3996
25.528	53.4896
25.546	53.5572
25.564	53.601
25.582	53.6192
25.6	53.6095
25.618	53.5766
25.636	53.5259
25.654	53.4584
25.672	53.3693
25.69	53.2682
25.708	53.1654
25.726	53.0557
25.744	52.9391
25.762	52.8296
25.78	52.738
25.798	52.6525
25.816	52.5814
25.834	52.5397
25.852	52.5343
25.87	52.5537
25.888	52.6093
25.906	52.7145
25.924	52.8695
25.942	53.0687
25.96	53.3196
25.978	53.6294
25.996	53.9962
26.014	54.4181
26.032	54.8958
26.05	55.4308
26.068	56.0255
26.086	56.6744
26.104	57.3702
26.122	58.1113
26.14	58.9042
26.158	59.7383
26.176	60.6023
26.194	61.4975
26.212	62.4298
26.23	63.3838
26.248	64.3441
26.266	65.3165
26.284	66.3032
26.302	67.2905
26.32	68.2655
26.338	69.2345
26.356	70.1979
26.374	71.149
26.392	72.0819
26.41	73.0003
26.428	73.9041
26.446	74.7909
26.464	75.6586
26.482	76.5071
26.5	77.3388
26.518	78.1565
26.536	78.9618
26.554	79.7528
26.572	80.5306
26.59	81.2964
26.608	82.0517
26.626	82.7968
26.644	83.5291
26.662	84.2461
26.68	84.9488
26.698	85.6406
26.716	86.3141
26.734	86.9616
26.752	87.5835
26.77	88.1869
26.788	88.7594
26.806	89.2877
26.824	89.7696
26.842	90.2151
26.86	90.6131
26.878	90.952
26.896	91.228
26.914	91.4496
26.932	91.6117
26.95	91.7092
26.968	91.7194
26.986	91.6323
27.004	91.5081
27.022	91.4084
27.028	91.3933