File: Bakgrunnsmateriale/MATLAB/FTIR/ftir_data/subBb/Mapping_36/C-4040-8_t29.asc
PE IR       SPECTRUM    SPECTRUM    ASCII       PEDS        1.60
  -1
C-CD2E~1.ASC
17/05/02
13:20:42.00
17/05/02
13:21:08.00
tln
$C-4040-8_t0029$<tbV0>[-7.5,7.0,8.0,0.0,22,1,0]
27.028
64

2002,4.07
MIRTGS : RIGHTBACK : INTERNAL 2
MIR : ON : INTERNAL 2
OPTKBR

0.200000
8
8.000000
FILLER
RATIO
SPECTRUM
UNLOCKED 256

DOUBLE
64
COMBINED
1
0
0

0.002000
RATIO

1
0
TRUE
51149
0
LEFT NOT FITTED RIGHT NOT FITTED 0
NONE
NONE
15600
12
4.427000
51148
TRUE
1 0 8 72 0 0 0 0

15798

#HDR
-1
-1
#GR
µM
%T
2.38419e-05
0.0
1.282000
0.002000
12874
8
88.2239
51.8646
#DATA
1.282000	 74.499
1.300000	 65.6464
1.318000	 67.4471
1.336000	 65.162
1.354000	 65.0827
1.372000	 63.8593
1.390000	 63.3215
1.408000	 63.4157
1.426000	 65.5592
1.444000	 62.5714
1.462000	 62.8958
1.480000	 62.8979
1.498000	 62.8498
1.516000	 64.128
1.534000	 64.4624
1.552000	 63.9297
1.570000	 63.44
1.588000	 62.2448
1.606000	 62.7693
1.624000	 63.8677
1.642000	 63.7529
1.660000	 63.7373
1.678000	 64.5007
1.696000	 64.0671
1.714000	 64.7613
1.732000	 63.9037
1.750000	 64.401
1.768000	 64.1218
1.786000	 64.835
1.804000	 64.032
1.822000	 63.5379
1.840000	 63.7895
1.858000	 64.2623
1.876000	 64.5564
1.894000	 60.278
1.912000	 63.0614
1.930000	 63.6018
1.948000	 63.9505
1.966000	 64.0143
1.984000	 64.1292
2.002000	 63.797
2.020000	 63.8305
2.038000	 63.8344
2.056000	 64.0182
2.074000	 63.8705
2.092000	 64.0329
2.110000	 64.2342
2.128000	 63.738
2.146000	 64.1744
2.164000	 63.9125
2.182000	 64.3264
2.200000	 63.8426
2.218000	 63.4889
2.236000	 63.1785
2.254000	 63.3061
2.272000	 61.8616
2.290000	 64.8691
2.308000	 63.4437
2.326000	 63.5148
2.344000	 63.5844
2.362000	 63.8568
2.380000	 63.3869
2.398000	 64.1738
2.416000	 64.1737
2.434000	 64.4945
2.452000	 64.2281
2.470000	 64.1855
2.488000	 63.8971
2.506000	 64.012
2.524000	 64.0467
2.542000	 64.3007
2.560000	 63.951
2.578000	 64.0213
2.596000	 64.157
2.614000	 64.0306
2.632000	 64.0517
2.650000	 63.8741
2.668000	 64.0128
2.686000	 64.1279
2.704000	 64.0288
2.722000	 64.1435
2.740000	 63.9949
2.758000	 64.0341
2.776000	 64.1038
2.794000	 64.0075
2.812000	 63.9822
2.830000	 64.0274
2.848000	 64.1842
2.866000	 64.1774
2.884000	 63.916
2.902000	 63.901
2.920000	 63.9021
2.938000	 63.9387
2.956000	 63.8131
2.974000	 63.8757
2.992000	 63.8269
3.010000	 63.8727
3.028000	 63.8584
3.046000	 63.9103
3.064000	 64.0211
3.082000	 64.0169
3.100000	 64.0956
3.118000	 63.9091
3.136000	 63.8559
3.154000	 64.0283
3.172000	 64.0193
3.190000	 64.02
3.208000	 63.9241
3.226000	 63.9724
3.244000	 63.9729
3.262000	 63.9878
3.280000	 64.0078
3.298000	 63.8708
3.316000	 63.8591
3.334000	 64.0268
3.352000	 63.9152
3.370000	 63.7933
3.388000	 63.8611
3.406000	 63.7908
3.424000	 63.5368
3.442000	 63.8713
3.460000	 63.7059
3.478000	 63.8472
3.496000	 63.7495
3.514000	 63.8522
3.532000	 63.8563
3.550000	 63.8931
3.568000	 63.9676
3.586000	 64.0443
3.604000	 64.0928
3.622000	 63.9824
3.640000	 63.9928
3.658000	 63.988
3.676000	 64.0431
3.694000	 63.9145
3.712000	 64.0038
3.730000	 63.9155
3.748000	 64.0549
3.766000	 63.9596
3.784000	 63.9596
3.802000	 64.0592
3.820000	 63.9899
3.838000	 63.9835
3.856000	 63.9593
3.874000	 63.9426
3.892000	 64.0095
3.910000	 64.0843
3.928000	 63.9774
3.946000	 63.8626
3.964000	 63.9815
3.982000	 63.9309
4.000000	 64.1109
4.018000	 63.9353
4.036000	 63.9119
4.054000	 64.0728
4.072000	 64.0692
4.090000	 64.0464
4.108000	 64.043
4.125999	 64.0422
4.144000	 64.049
4.162000	 64.0432
4.180000	 63.8599
4.198000	 63.9076
4.216000	 63.9545
4.234000	 63.8242
4.252000	 63.8592
4.270000	 63.8611
4.288000	 63.8883
4.306000	 63.9119
4.324000	 63.9378
4.342000	 64.011
4.359999	 64.0317
4.378000	 64.1155
4.396000	 64.0258
4.414000	 64.0762
4.432000	 63.9932
4.450000	 64.0236
4.468000	 64.0034
4.486000	 63.9683
4.504000	 63.9974
4.522000	 64.003
4.540000	 64.0377
4.558000	 64.0673
4.576000	 63.9582
4.594000	 63.9769
4.612000	 63.9436
4.630000	 63.9674
4.648000	 64.0368
4.666000	 64.0176
4.684000	 64.0492
4.702000	 63.9872
4.720000	 63.9632
4.738000	 63.9905
4.756000	 64.0103
4.774000	 63.9366
4.792000	 63.9958
4.810000	 64.0377
4.828000	 63.9629
4.846000	 63.8675
4.864000	 64.002
4.882000	 63.9259
4.900000	 63.8957
4.918000	 63.8875
4.936000	 63.9211
4.954000	 63.9876
4.972000	 64.0548
4.990000	 63.9747
5.008000	 63.9778
5.026000	 63.9638
5.044000	 64.0341
5.062000	 64.0049
5.080000	 63.9424
5.098000	 64.0204
5.116000	 64.0131
5.134000	 63.9593
5.152000	 63.9487
5.170000	 64.0032
5.188000	 64.0297
5.206000	 63.8884
5.224000	 63.9678
5.242000	 64.0351
5.260000	 63.9986
5.278000	 63.9976
5.296000	 63.9923
5.314000	 63.9562
5.332000	 63.9365
5.350000	 63.9474
5.368000	 64.0014
5.386000	 64.0543
5.404000	 63.982
5.422000	 63.9779
5.440000	 63.9994
5.458000	 63.9973
5.476000	 64.0128
5.494000	 63.9905
5.512000	 63.9025
5.530000	 63.9734
5.548000	 64.0641
5.566000	 64.0848
5.584000	 64.0268
5.602000	 63.9845
5.620000	 64.0206
5.638000	 64.0003
5.656000	 63.9286
5.674000	 63.9448
5.692000	 64.0077
5.710000	 63.9372
5.728000	 63.8806
5.746000	 63.8307
5.764000	 63.7436
5.782000	 63.748
5.800000	 63.817
5.818000	 63.9354
5.836000	 63.9629
5.854000	 63.9107
5.872000	 63.8781
5.890000	 63.9559
5.908000	 63.9387
5.926000	 63.8851
5.944000	 63.9156
5.962000	 63.8653
5.980000	 63.8848
5.998000	 63.9798
6.016000	 63.9778
6.034000	 63.9243
6.052000	 63.964
6.070000	 63.9709
6.088000	 63.8837
6.106000	 63.8292
6.124000	 63.8518
6.142000	 63.8968
6.160000	 63.8794
6.178000	 63.8514
6.196000	 63.845
6.214000	 63.8064
6.232000	 63.7983
6.250000	 63.812
6.268000	 63.8088
6.286000	 63.8035
6.304000	 63.7833
6.322000	 63.7162
6.340000	 63.6834
6.358000	 63.7697
6.376000	 63.8336
6.394000	 63.7735
6.412000	 63.7221
6.430000	 63.7575
6.448000	 63.7784
6.466000	 63.7938
6.484000	 63.7928
6.502000	 63.8075
6.520000	 63.8497
6.538000	 63.8867
6.556000	 63.8721
6.574000	 63.8
6.592000	 63.7874
6.610000	 63.8378
6.628000	 63.8669
6.646000	 63.868
6.664000	 63.8591
6.682000	 63.8746
6.700000	 63.884
6.718000	 63.8936
6.736000	 63.9362
6.754000	 63.9458
6.772000	 63.9168
6.790000	 63.8472
6.808000	 63.7788
6.826000	 63.8127
6.844000	 63.8924
6.862000	 63.914
6.880000	 63.8596
6.898000	 63.7607
6.916000	 63.722
6.934000	 63.7681
6.952000	 63.8102
6.970000	 63.8124
6.988000	 63.7996
7.006000	 63.8045
7.024000	 63.8168
7.042000	 63.7992
7.060000	 63.771
7.078000	 63.769
7.096000	 63.8005
7.114000	 63.8489
7.132000	 63.8732
7.150000	 63.8722
7.168000	 63.8562
7.186000	 63.815
7.204000	 63.7901
7.222000	 63.7902
7.240000	 63.7501
7.258000	 63.6873
7.276000	 63.6758
7.294000	 63.715
7.312000	 63.7611
7.330000	 63.7746
7.348000	 63.727
7.366000	 63.6586
7.384000	 63.6533
7.402000	 63.7121
7.420000	 63.7518
7.438000	 63.7353
7.456000	 63.7206
7.474000	 63.75
7.492000	 63.7758
7.510000	 63.7519
7.528000	 63.7094
7.546000	 63.6897
7.564000	 63.6831
7.582000	 63.6587
7.600000	 63.6014
7.618000	 63.5448
7.636000	 63.5715
7.654000	 63.6957
7.672000	 63.7978
7.690000	 63.7859
7.708000	 63.7225
7.726000	 63.6953
7.744000	 63.6974
7.762000	 63.7042
7.780000	 63.7198
7.798000	 63.7261
7.816000	 63.7092
7.834000	 63.6955
7.852000	 63.7017
7.870000	 63.718
7.888000	 63.7511
7.906000	 63.8038
7.924000	 63.8407
7.942000	 63.8329
7.960000	 63.7922
7.978000	 63.7407
7.996000	 63.6979
8.013999	 63.6925
8.032000	 63.736
8.050000	 63.799
8.068000	 63.8421
8.086000	 63.8494
8.103999	 63.8246
8.122000	 63.7759
8.140000	 63.7176
8.158000	 63.6739
8.176000	 63.6713
8.193999	 63.7166
8.212000	 63.7828
8.230000	 63.8274
8.248000	 63.8317
8.266000	 63.819
8.283999	 63.8258
8.302000	 63.8621
8.320000	 63.9031
8.338000	 63.9147
8.356000	 63.8852
8.374000	 63.8344
8.391999	 63.7928
8.410000	 63.7769
8.428000	 63.7808
8.446000	 63.7862
8.464000	 63.7781
8.481999	 63.7528
8.500000	 63.723
8.518000	 63.7151
8.536000	 63.7459
8.554000	 63.7909
8.571999	 63.7952
8.590000	 63.7289
8.608000	 63.621
8.626000	 63.528
8.644000	 63.4771
8.661999	 63.4575
8.680000	 63.4524
8.698000	 63.4606
8.716000	 63.4856
8.734000	 63.5189
8.751999	 63.5416
8.770000	 63.5473
8.788000	 63.5565
8.806000	 63.5972
8.824000	 63.6684
8.842000	 63.7308
8.859999	 63.7432
8.878000	 63.7027
8.896000	 63.6399
8.914000	 63.5818
8.932000	 63.5313
8.949999	 63.4795
8.968000	 63.4199
8.986000	 63.3536
9.004000	 63.2869
9.022000	 63.2356
9.039999	 63.218
9.058000	 63.2357
9.076000	 63.2688
9.094000	 63.2981
9.112000	 63.3278
9.129999	 63.381
9.148000	 63.4691
9.166000	 63.5729
9.184000	 63.6537
9.202000	 63.6834
9.219999	 63.6638
9.238000	 63.6228
9.256000	 63.5928
9.274000	 63.5871
9.292000	 63.5919
9.310000	 63.5833
9.327999	 63.5502
9.346000	 63.5049
9.364000	 63.4671
9.382000	 63.4438
9.400000	 63.423
9.418000	 63.3886
9.436000	 63.3377
9.454000	 63.283
9.472000	 63.2406
9.490000	 63.2184
9.508000	 63.2113
9.526000	 63.2061
9.544000	 63.1905
9.561999	 63.1606
9.580000	 63.1225
9.598000	 63.0901
9.616000	 63.0784
9.634000	 63.0957
9.652000	 63.1343
9.670000	 63.1736
9.688000	 63.1939
9.706000	 63.1908
9.724000	 63.1757
9.742000	 63.1652
9.760000	 63.1694
9.778000	 63.1893
9.795999	 63.2207
9.814000	 63.2567
9.832000	 63.2867
9.850000	 63.297
9.868000	 63.2793
9.886000	 63.2409
9.904000	 63.2033
9.922000	 63.1891
9.940000	 63.207
9.958000	 63.245
9.976000	 63.2781
9.994000	 63.2848
10.012	63.2574
10.03	63.2069
10.048	63.1547
10.066	63.1218
10.084	63.1186
10.102	63.1437
10.12	63.1882
10.138	63.2443
10.156	63.3085
10.174	63.3791
10.192	63.4507
10.21	63.5107
10.228	63.544
10.246	63.5408
10.264	63.5007
10.282	63.4347
10.3	63.3583
10.318	63.2872
10.336	63.2331
10.354	63.2023
10.372	63.1953
10.39	63.206
10.408	63.2231
10.426	63.2338
10.444	63.2289
10.462	63.2086
10.48	63.1815
10.498	63.1605
10.516	63.1547
10.534	63.1662
10.552	63.1914
10.57	63.2248
10.588	63.2628
10.606	63.3045
10.624	63.3477
10.642	63.3878
10.66	63.4197
10.678	63.4384
10.696	63.4432
10.714	63.4376
10.732	63.428
10.75	63.4206
10.768	63.4228
10.786	63.441
10.804	63.4774
10.822	63.5257
10.84	63.5676
10.858	63.5795
10.876	63.54
10.894	63.4428
10.912	63.3033
10.93	63.1583
10.948	63.0528
10.966	63.0254
10.984	63.0887
11.002	63.2206
11.02	63.3743
11.038	63.4925
11.056	63.5334
11.074	63.4842
11.092	63.3616
11.11	63.2001
11.128	63.0322
11.146	62.8735
11.164	62.7236
11.182	62.5755
11.2	62.4284
11.218	62.2948
11.236	62.1986
11.254	62.161
11.272	62.1921
11.29	62.2848
11.308	62.4194
11.326	62.5694
11.344	62.7122
11.362	62.8311
11.38	62.914
11.398	62.9532
11.416	62.9458
11.434	62.8974
11.452	62.8249
11.47	62.7538
11.488	62.7073
11.506	62.7015
11.524	62.7359
11.542	62.7956
11.56	62.8582
11.578	62.9036
11.596	62.9216
11.614	62.9146
11.632	62.8928
11.65	62.8682
11.668	62.8502
11.686	62.8414
11.704	62.8395
11.722	62.8412
11.74	62.846
11.758	62.8561
11.776	62.8748
11.794	62.9057
11.812	62.9498
11.83	63.0041
11.848	63.0616
11.866	63.1139
11.884	63.1523
11.902	63.1702
11.92	63.1658
11.938	63.1423
11.956	63.1078
11.974	63.0747
11.992	63.0569
12.01	63.0665
12.028	63.1101
12.046	63.1845
12.064	63.2747
12.082	63.358
12.1	63.4094
12.118	63.4114
12.136	63.3616
12.154	63.2734
12.172	63.171
12.19	63.0806
12.208	63.0211
12.226	62.9977
12.244	63.003
12.262	63.0217
12.28	63.037
12.298	63.0377
12.316	63.0211
12.334	62.9924
12.352	62.9618
12.37	62.9394
12.388	62.9307
12.406	62.934
12.424	62.942
12.442	62.9451
12.46	62.9347
12.478	62.9077
12.496	62.8672
12.514	62.8213
12.532	62.7799
12.55	62.7514
12.568	62.7399
12.586	62.7457
12.604	62.7652
12.622	62.7936
12.64	62.8256
12.658	62.8565
12.676	62.8832
12.694	62.9041
12.712	62.9182
12.73	62.9257
12.748	62.9274
12.766	62.9244
12.784	62.918
12.802	62.9095
12.82	62.8997
12.838	62.889
12.856	62.8775
12.874	62.8649
12.892	62.8506
12.91	62.8342
12.928	62.8154
12.946	62.7945
12.964	62.7722
12.982	62.7497
13	62.7287
13.018	62.7112
13.036	62.699
13.054	62.6939
13.072	62.6968
13.09	62.7077
13.108	62.725
13.126	62.746
13.144	62.7671
13.162	62.7849
13.18	62.7966
13.198	62.8004
13.216	62.7958
13.234	62.7834
13.252	62.7647
13.27	62.7409
13.288	62.7133
13.306	62.6831
13.324	62.6517
13.342	62.6205
13.36	62.5917
13.378	62.5678
13.396	62.5517
13.414	62.5459
13.432	62.5521
13.45	62.5702
13.468	62.5983
13.486	62.6327
13.504	62.6688
13.522	62.7016
13.54	62.727
13.558	62.7421
13.576	62.7462
13.594	62.7401
13.612	62.726
13.63	62.7069
13.648	62.6858
13.666	62.6652
13.684	62.6465
13.702	62.6297
13.72	62.6145
13.738	62.5996
13.756	62.584
13.774	62.567
13.792	62.5489
13.81	62.5311
13.828	62.5155
13.846	62.5041
13.864	62.4984
13.882	62.4991
13.9	62.506
13.918	62.5175
13.936	62.5317
13.954	62.5463
13.972	62.5591
13.99	62.5688
14.008	62.5748
14.026	62.5773
14.044	62.577
14.062	62.5748
14.08	62.5715
14.098	62.5671
14.116	62.5611
14.134	62.5524
14.152	62.5395
14.17	62.5213
14.188	62.4971
14.206	62.4671
14.224	62.4321
14.242	62.3938
14.26	62.3545
14.278	62.3165
14.296	62.2821
14.314	62.2531
14.332	62.2308
14.35	62.2157
14.368	62.2078
14.386	62.2062
14.404	62.2097
14.422	62.2165
14.44	62.2249
14.458	62.2334
14.476	62.2406
14.494	62.246
14.512	62.2492
14.53	62.2505
14.548	62.2506
14.566	62.2501
14.584	62.2495
14.602	62.2489
14.62	62.2479
14.638	62.2456
14.656	62.2409
14.674	62.2325
14.692	62.2192
14.71	62.2004
14.728	62.1758
14.746	62.1462
14.764	62.1131
14.782	62.0793
14.8	62.0475
14.818	62.0211
14.836	62.0033
14.854	61.9968
14.872	62.0031
14.89	62.0224
14.908	62.0537
14.926	62.0948
14.944	62.1424
14.962	62.1921
14.98	62.2397
14.998	62.2811
15.016	62.3133
15.034	62.3338
15.052	62.342
15.07	62.3381
15.088	62.3236
15.106	62.3002
15.124	62.2704
15.142	62.2363
15.16	62.1996
15.178	62.161
15.196	62.1212
15.214	62.08
15.232	62.0374
15.25	61.9937
15.268	61.9496
15.286	61.9063
15.304	61.8659
15.322	61.8304
15.34	61.8015
15.358	61.7809
15.376	61.7692
15.394	61.766
15.412	61.7698
15.43	61.7786
15.448	61.7891
15.466	61.7983
15.484	61.804
15.502	61.8045
15.52	61.7991
15.538	61.7891
15.556	61.7763
15.574	61.7635
15.592	61.7546
15.61	61.7528
15.628	61.7603
15.646	61.779
15.664	61.8087
15.682	61.8478
15.7	61.894
15.718	61.944
15.736	61.9932
15.754	62.0381
15.772	62.0752
15.79	62.1012
15.808	62.1143
15.826	62.1139
15.844	62.0999
15.862	62.0736
15.88	62.0371
15.898	61.9924
15.916	61.9425
15.934	61.8907
15.952	61.8391
15.97	61.7904
15.988	61.7472
16.006	61.7108
16.024	61.6824
16.042	61.663
16.06	61.6528
16.078	61.6518
16.096	61.6595
16.114	61.6748
16.132	61.6966
16.15	61.7238
16.168	61.7547
16.186	61.7879
16.204	61.8221
16.222	61.8553
16.24	61.8865
16.258	61.9144
16.276	61.9378
16.294	61.9558
16.312	61.9679
16.33	61.9731
16.348	61.9714
16.366	61.9625
16.384	61.9465
16.402	61.9242
16.42	61.8961
16.438	61.8632
16.456	61.8271
16.474	61.7886
16.492	61.7493
16.51	61.7105
16.528	61.6729
16.546	61.6373
16.564	61.6039
16.582	61.5727
16.6	61.5435
16.618	61.5157
16.636	61.4891
16.654	61.4628
16.672	61.4369
16.69	61.4111
16.708	61.3858
16.726	61.3619
16.744	61.3402
16.762	61.3227
16.78	61.3104
16.798	61.3051
16.816	61.3081
16.834	61.3197
16.852	61.3407
16.87	61.3703
16.888	61.408
16.906	61.4518
16.924	61.5
16.942	61.551
16.96	61.6014
16.978	61.65
16.996	61.6944
17.014	61.7328
17.032	61.7643
17.05	61.7874
17.068	61.8021
17.086	61.8079
17.104	61.8052
17.122	61.7946
17.14	61.7768
17.158	61.7532
17.176	61.7245
17.194	61.6926
17.212	61.6582
17.23	61.6228
17.248	61.5871
17.266	61.5514
17.284	61.5161
17.302	61.4807
17.32	61.4449
17.338	61.4078
17.356	61.3691
17.374	61.3274
17.392	61.2827
17.41	61.2345
17.428	61.1832
17.446	61.1289
17.464	61.0733
17.482	61.0172
17.5	60.9625
17.518	60.9113
17.536	60.8646
17.554	60.8248
17.572	60.7925
17.59	60.7692
17.608	60.7547
17.626	60.7494
17.644	60.7522
17.662	60.7629
17.68	60.779
17.698	60.7996
17.716	60.8228
17.734	60.8469
17.752	60.8706
17.77	60.8926
17.788	60.9124
17.806	60.9292
17.824	60.9432
17.842	60.9546
17.86	60.9641
17.878	60.9722
17.896	60.9802
17.914	60.9883
17.932	60.9977
17.95	61.0083
17.968	61.021
17.986	61.0355
18.004	61.0519
18.022	61.0698
18.04	61.0891
18.058	61.1089
18.076	61.1289
18.094	61.1481
18.112	61.1662
18.13	61.1823
18.148	61.1959
18.166	61.2065
18.184	61.2137
18.202	61.2171
18.22	61.2167
18.238	61.2122
18.256	61.2034
18.274	61.1905
18.292	61.1738
18.31	61.1535
18.328	61.1299
18.346	61.1034
18.364	61.0746
18.382	61.0437
18.4	61.0111
18.418	60.9776
18.436	60.9434
18.454	60.9093
18.472	60.8754
18.49	60.8423
18.508	60.81
18.526	60.7789
18.544	60.749
18.562	60.7206
18.58	60.6936
18.598	60.668
18.616	60.6438
18.634	60.6209
18.652	60.5992
18.67	60.5785
18.688	60.5588
18.706	60.5398
18.724	60.5216
18.742	60.5038
18.76	60.4868
18.778	60.4703
18.796	60.4546
18.814	60.4398
18.832	60.4257
18.85	60.4125
18.868	60.4
18.886	60.3885
18.904	60.3777
18.922	60.3677
18.94	60.3584
18.958	60.3495
18.976	60.341
18.994	60.3326
19.012	60.3242
19.03	60.3156
19.048	60.3068
19.066	60.2977
19.084	60.2884
19.102	60.2789
19.12	60.2693
19.138	60.2598
19.156	60.2507
19.174	60.2421
19.192	60.2343
19.21	60.2278
19.228	60.2225
19.246	60.2189
19.264	60.2168
19.282	60.2167
19.3	60.2185
19.318	60.2227
19.336	60.2291
19.354	60.2384
19.372	60.2503
19.39	60.2654
19.408	60.2835
19.426	60.3049
19.444	60.3294
19.462	60.3568
19.48	60.3872
19.498	60.4196
19.516	60.4541
19.534	60.4893
19.552	60.5253
19.57	60.5605
19.588	60.5942
19.606	60.6255
19.624	60.6531
19.642	60.6766
19.66	60.6944
19.678	60.7066
19.696	60.7119
19.714	60.7105
19.732	60.7017
19.75	60.6857
19.768	60.6628
19.786	60.6328
19.804	60.5971
19.822	60.5557
19.84	60.5098
19.858	60.4603
19.876	60.408
19.894	60.3547
19.912	60.3005
19.93	60.2478
19.948	60.1963
19.966	60.1485
19.984	60.1042
20.002	60.0649
20.02	60.0311
20.038	60.003
20.056	59.9813
20.074	59.9655
20.092	59.9557
20.11	59.9516
20.128	59.9518
20.146	59.9567
20.164	59.964
20.182	59.9738
20.2	59.9843
20.218	59.9941
20.236	60.0029
20.254	60.0084
20.272	60.011
20.29	60.0086
20.308	60.0013
20.326	59.9885
20.344	59.9696
20.362	59.9451
20.38	59.9148
20.398	59.8789
20.416	59.8388
20.434	59.7941
20.452	59.7468
20.47	59.697
20.488	59.6459
20.506	59.5953
20.524	59.5448
20.542	59.497
20.56	59.4515
20.578	59.4096
20.596	59.3719
20.614	59.3384
20.632	59.3099
20.65	59.2862
20.668	59.2669
20.686	59.2522
20.704	59.2408
20.722	59.2327
20.74	59.2271
20.758	59.2223
20.776	59.2188
20.794	59.2141
20.812	59.2084
20.83	59.2005
20.848	59.1892
20.866	59.1749
20.884	59.1566
20.902	59.1343
20.92	59.1083
20.938	59.0784
20.956	59.0451
20.974	59.0091
20.992	58.9702
21.01	58.9302
21.028	58.8892
21.046	58.8481
21.064	58.8088
21.082	58.7706
21.1	58.7355
21.118	58.7037
21.136	58.6756
21.154	58.6521
21.172	58.6329
21.19	58.6183
21.208	58.6085
21.226	58.603
21.244	58.6014
21.262	58.6039
21.28	58.6091
21.298	58.6172
21.316	58.6274
21.334	58.6386
21.352	58.6513
21.37	58.6639
21.388	58.6765
21.406	58.6888
21.424	58.7001
21.442	58.7105
21.46	58.7198
21.478	58.7279
21.496	58.735
21.514	58.7413
21.532	58.7468
21.55	58.7519
21.568	58.7567
21.586	58.7615
21.604	58.7668
21.622	58.7726
21.64	58.7791
21.658	58.7869
21.676	58.7956
21.694	58.8055
21.712	58.8168
21.73	58.8291
21.748	58.8426
21.766	58.8573
21.784	58.8726
21.802	58.8882
21.82	58.9043
21.838	58.9202
21.856	58.9364
21.874	58.952
21.892	58.9664
21.91	58.9799
21.928	58.9913
21.946	59.0006
21.964	59.0076
21.982	59.0108
22	59.0104
22.018	59.0059
22.036	58.9964
22.054	58.9823
22.072	58.9626
22.09	58.9366
22.108	58.9047
22.126	58.8659
22.144	58.82
22.162	58.7671
22.18	58.7069
22.198	58.6391
22.216	58.5644
22.234	58.4828
22.252	58.3941
22.27	58.2998
22.288	58.2
22.306	58.0948
22.324	57.9866
22.342	57.8748
22.36	57.7606
22.378	57.6468
22.396	57.532
22.414	57.4186
22.432	57.3088
22.45	57.2014
22.468	57.099
22.486	57.0028
22.504	56.9122
22.522	56.829
22.54	56.754
22.558	56.6866
22.576	56.6276
22.594	56.5773
22.612	56.5351
22.63	56.5007
22.648	56.4743
22.666	56.4551
22.684	56.442
22.702	56.4356
22.72	56.4346
22.738	56.4379
22.756	56.4462
22.774	56.4578
22.792	56.4718
22.81	56.4888
22.828	56.5074
22.846	56.5271
22.864	56.5484
22.882	56.5697
22.9	56.5908
22.918	56.6118
22.936	56.6322
22.954	56.6519
22.972	56.6709
22.99	56.6884
23.008	56.7043
23.026	56.7187
23.044	56.7317
23.062	56.7429
23.08	56.7529
23.098	56.7623
23.116	56.7707
23.134	56.7787
23.152	56.7878
23.17	56.7973
23.188	56.808
23.206	56.821
23.224	56.836
23.242	56.8535
23.26	56.8745
23.278	56.8989
23.296	56.9268
23.314	56.9589
23.332	56.9952
23.35	57.0355
23.368	57.0797
23.386	57.128
23.404	57.18
23.422	57.2348
23.44	57.2929
23.458	57.3537
23.476	57.4155
23.494	57.4789
23.512	57.5433
23.53	57.6067
23.548	57.669
23.566	57.7303
23.584	57.7889
23.602	57.8444
23.62	57.8972
23.638	57.9469
23.656	57.9932
23.674	58.0363
23.692	58.0761
23.71	58.1125
23.728	58.1456
23.746	58.1753
23.764	58.2017
23.782	58.2249
23.8	58.2447
23.818	58.2614
23.836	58.2748
23.854	58.2849
23.872	58.2916
23.89	58.2955
23.908	58.2957
23.926	58.2912
23.944	58.2825
23.962	58.2692
23.98	58.2497
23.998	58.2239
24.016	58.1921
24.034	58.1527
24.052	58.105
24.07	58.0497
24.088	57.9862
24.106	57.914
24.124	57.8327
24.142	57.744
24.16	57.6492
24.178	57.5468
24.196	57.4388
24.214	57.3287
24.232	57.2151
24.25	57.0988
24.268	56.9852
24.286	56.8763
24.304	56.7695
24.322	56.6696
24.34	56.5804
24.358	56.499
24.376	56.4278
24.394	56.3703
24.412	56.3262
24.43	56.2946
24.448	56.2755
24.466	56.2702
24.484	56.278
24.502	56.2948
24.52	56.3182
24.538	56.3518
24.556	56.3896
24.574	56.4246
24.592	56.4613
24.61	56.4964
24.628	56.5214
24.646	56.5344
24.664	56.539
24.682	56.5284
24.7	56.4975
24.718	56.4499
24.736	56.3835
24.754	56.2946
24.772	56.1821
24.79	56.0479
24.808	55.8944
24.826	55.7214
24.844	55.5268
24.862	55.3172
24.88	55.0988
24.898	54.8654
24.916	54.6225
24.934	54.3816
24.952	54.1456
24.97	53.9083
24.988	53.6816
25.006	53.4761
25.024	53.2836
25.042	53.1098
25.06	52.9668
25.078	52.8573
25.096	52.7756
25.114	52.7299
25.132	52.7277
25.15	52.765
25.168	52.8425
25.186	52.9635
25.204	53.1304
25.222	53.3412
25.24	53.5934
25.258	53.885
25.276	54.2204
25.294	54.5946
25.312	54.999
25.33	55.4322
25.348	55.8997
25.366	56.3896
25.384	56.8898
25.402	57.4079
25.42	57.9405
25.438	58.4733
25.456	58.9979
25.474	59.5251
25.492	60.0443
25.51	60.5425
25.528	61.0211
25.546	61.4835
25.564	61.9195
25.582	62.3199
25.6	62.6912
25.618	63.0308
25.636	63.3324
25.654	63.5925
25.672	63.8147
25.69	63.9984
25.708	64.1426
25.726	64.2457
25.744	64.3094
25.762	64.3373
25.78	64.3321
25.798	64.2905
25.816	64.2156
25.834	64.1126
25.852	63.9838
25.87	63.8251
25.888	63.6415
25.906	63.4387
25.924	63.2149
25.942	62.9687
25.96	62.708
25.978	62.4402
25.996	62.1603
26.014	61.87
26.032	61.5762
26.05	61.2842
26.068	60.9896
26.086	60.6942
26.104	60.4018
26.122	60.1145
26.14	59.8301
26.158	59.5494
26.176	59.2736
26.194	59.0029
26.212	58.7367
26.23	58.4757
26.248	58.2208
26.266	57.9721
26.284	57.7292
26.302	57.4919
26.32	57.2601
26.338	57.0325
26.356	56.8103
26.374	56.5957
26.392	56.3903
26.41	56.1927
26.428	56.0033
26.446	55.8235
26.464	55.6547
26.482	55.4968
26.5	55.3484
26.518	55.208
26.536	55.0749
26.554	54.9508
26.572	54.8337
26.59	54.7212
26.608	54.6125
26.626	54.5098
26.644	54.4106
26.662	54.3124
26.68	54.2144
26.698	54.1185
26.716	54.0228
26.734	53.9252
26.752	53.8255
26.77	53.7253
26.788	53.6223
26.806	53.5141
26.824	53.3992
26.842	53.2792
26.86	53.1545
26.878	53.0254
26.896	52.8911
26.914	52.7508
26.932	52.6077
26.95	52.465
26.968	52.3162
26.986	52.1535
27.004	52.0018
27.022	51.8868
27.028	51.8646