File: Bakgrunnsmateriale/MATLAB/FTIR/ftir_data/subBb/Mapping_36/C-4040-8_t13_cm-1.asc
PE IR       SPECTRUM    SPECTRUM    ASCII       PEDS        1.60
  -1
C-1AE1~1.ASC
17/05/02
11:58:35.00
17/05/02
11:58:35.00
tln
$C-4040-8_t0013$<tbV0>[12.5,-3.0,8.0,0.0,22,1,0]
370
64

2002,4.07
MIRTGS : RIGHTBACK : INTERNAL 2
MIR : ON : INTERNAL 2
OPTKBR

0.200000
8
8.000000
FILLER
RATIO
SPECTRUM
UNLOCKED 256

DOUBLE
64
COMBINED
1
0
0

1.000000
RATIO

1
0
TRUE
51149
0
LEFT NOT FITTED RIGHT NOT FITTED 0
NONE
NONE
15600
12
4.427000
51148
TRUE
1 0 8 72 0 0 0 0

15798

#HDR
-1
-1
#GR
CM-1
%T
2.38419e-05
0.0
7800
-1.000000
7431
8
94.6613
37.6785
#DATA
7800	76.2345
7795	73.6544
7790	68.0259
7785	65.2347
7780	70.6687
7775	72.7765
7770	70.8514
7765	72.4253
7760	73.6007
7755	74.3042
7750	67.1378
7745	65.8954
7740	74.0759
7735	74.3718
7730	69.2924
7725	65.1352
7720	65.8926
7715	69.6287
7710	69.2434
7705	68.2138
7700	69.1502
7695	69.064
7690	71.2198
7685	75.7303
7680	76.701
7675	73.0934
7670	71.777
7665	68.3998
7660	64.04
7655	67.1412
7650	69.7882
7645	63.4736
7640	61.3412
7635	65.4925
7630	67.4029
7625	64.9888
7620	62.9853
7615	60.4
7610	61.5972
7605	65.6024
7600	65.1717
7595	62.9006
7590	63.5371
7585	62.5209
7580	66.6553
7575	67.9958
7570	63.0334
7565	62.563
7560	68.0113
7555	67.9944
7550	64.4714
7545	64.2874
7540	67.0713
7535	67.4172
7530	66.9001
7525	66.8535
7520	67.0016
7515	67.4738
7510	66.2185
7505	65.3763
7500	62.5465
7495	60.7279
7490	63.2048
7485	65.2212
7480	66.7633
7475	68.518
7470	67.8689
7465	67.2078
7460	67.6796
7455	66.455
7450	63.1953
7445	63.8833
7440	61.569
7435	59.9478
7430	63.9551
7425	64.7428
7420	66.0632
7415	67.0263
7410	65.8021
7405	65.5934
7400	66.2117
7395	65.7838
7390	65.2488
7385	64.9606
7380	64.7796
7375	64.1718
7370	62.6833
7365	62.9753
7360	64.456
7355	65.9047
7350	67.4918
7345	65.8792
7340	64.6376
7335	64.757
7330	65.5137
7325	66.4596
7320	67.3063
7315	65.4202
7310	63.0014
7305	64.4331
7300	66.4867
7295	66.8946
7290	66.1944
7285	65.106
7280	65.6946
7275	68.4359
7270	69.8309
7265	68.6198
7260	66.6441
7255	66.5806
7250	66.6131
7245	65.6868
7240	66.2182
7235	65.8369
7230	65.0061
7225	65.2968
7220	64.9277
7215	66.4545
7210	66.9085
7205	64.3375
7200	63.3525
7195	63.8577
7190	64.5492
7185	64.409
7180	65.1879
7175	65.6338
7170	64.5635
7165	63.4855
7160	63.8731
7155	66.4662
7150	66.2879
7145	63.968
7140	64.7197
7135	65.0833
7130	65.0125
7125	65.8574
7120	65.8114
7115	65.7206
7110	63.9592
7105	62.9018
7100	64.1654
7095	65.0705
7090	64.9935
7085	64.7624
7080	64.9508
7075	65.1924
7070	64.8053
7065	65.3574
7060	66.1137
7055	65.5989
7050	64.3705
7045	63.2548
7040	62.6141
7035	60.6962
7030	59.252
7025	62.4012
7020	65.6471
7015	63.8975
7010	63.3034
7005	63.7812
7000	62.1316
6995	62.7236
6990	63.8727
6985	62.6267
6980	63.1095
6975	63.8056
6970	63.2909
6965	62.6721
6960	63.8047
6955	63.5405
6950	62.9446
6945	64.7597
6940	64.5759
6935	63.1901
6930	62.8448
6925	63.8213
6920	63.8759
6915	64.084
6910	64.2565
6905	64.2705
6900	64.7456
6895	65.5061
6890	65.474
6885	64.3715
6880	64.9279
6875	65.3436
6870	65.8285
6865	66.2185
6860	65.0142
6855	63.2725
6850	63.2477
6845	64.5685
6840	64.1318
6835	63.414
6830	63.8761
6825	64.203
6820	64.1683
6815	63.3039
6810	63.6307
6805	64.6726
6800	64.9727
6795	64.5854
6790	64.0531
6785	64.0192
6780	64.1693
6775	63.6504
6770	65.3737
6765	65.4878
6760	64.4371
6755	64.3291
6750	62.2834
6745	61.4293
6740	62.9414
6735	64.2572
6730	64.2593
6725	63.1437
6720	63.7211
6715	64.4217
6710	63.2531
6705	63.5141
6700	64.5039
6695	64.6798
6690	64.5347
6685	65.458
6680	66.2334
6675	65.7095
6670	65.1646
6665	64.9905
6660	64.3301
6655	62.9371
6650	62.821
6645	64.0725
6640	63.8758
6635	63.8921
6630	64.2503
6625	64.5303
6620	63.9727
6615	62.6447
6610	62.9921
6605	64.1381
6600	64.3982
6595	65.4437
6590	66.3761
6585	65.8491
6580	65.4635
6575	64.2865
6570	63.171
6565	63.8932
6560	64.6375
6555	65.1372
6550	66.1986
6545	65.8966
6540	65.0174
6535	64.2973
6530	63.3852
6525	63.2375
6520	64.4027
6515	64.693
6510	64.3561
6505	65.627
6500	66.4476
6495	65.8302
6490	65.6359
6485	65.3633
6480	64.9033
6475	64.0349
6470	64.9262
6465	66.2208
6460	65.948
6455	65.1104
6450	64.8108
6445	65.4523
6440	66.0045
6435	65.3897
6430	63.9168
6425	63.6297
6420	65.6461
6415	66.1501
6410	65.2231
6405	65.5037
6400	65.8131
6395	64.9309
6390	64.7509
6385	65.3813
6380	65.532
6375	65.7891
6370	65.7071
6365	65.9785
6360	65.7827
6355	64.9048
6350	64.8992
6345	64.8714
6340	64.6282
6335	65.0105
6330	65.1638
6325	64.4619
6320	65.0315
6315	66.0146
6310	64.6719
6305	64.3351
6300	65.0449
6295	64.8293
6290	64.3453
6285	64.2179
6280	64.0145
6275	64.1608
6270	64.6615
6265	65.0728
6260	66.0242
6255	66.0877
6250	64.6916
6245	63.1925
6240	63.7759
6235	64.6944
6230	65.1549
6225	66.182
6220	65.6685
6215	64.5297
6210	64.4681
6205	64.52
6200	64.633
6195	64.8665
6190	64.1575
6185	64.5334
6180	65.9502
6175	65.467
6170	64.8418
6165	64.3862
6160	63.6496
6155	63.5122
6150	64.9559
6145	65.4454
6140	64.8247
6135	65.1485
6130	65.2266
6125	65.2857
6120	64.2422
6115	63.7192
6110	64.3182
6105	63.8379
6100	63.5957
6095	64.5107
6090	65.4851
6085	65.2968
6080	65.2365
6075	65.5351
6070	66.2331
6065	65.8784
6060	64.6049
6055	64.907
6050	65.6578
6045	65.2229
6040	64.8424
6035	65.4056
6030	65.3668
6025	65.3162
6020	65.8782
6015	66.4155
6010	66.1488
6005	65.2145
6000	65.093
5995	65.8193
5990	65.6671
5985	65.146
5980	64.6026
5975	64.6983
5970	64.9482
5965	64.7463
5960	64.7142
5955	64.8758
5950	64.8791
5945	65.5204
5940	65.3384
5935	64.1373
5930	64.3524
5925	65.1623
5920	65.3513
5915	65.1242
5910	64.3473
5905	64.4886
5900	65.39
5895	65.0383
5890	64.7152
5885	65.1545
5880	65.2854
5875	64.9368
5870	64.339
5865	64.1776
5860	65.1526
5855	65.6572
5850	64.8834
5845	64.8343
5840	64.9305
5835	64.6624
5830	64.22
5825	64.8811
5820	65.4595
5815	64.731
5810	64.0707
5805	64.6676
5800	65.0416
5795	64.8176
5790	64.8221
5785	64.6287
5780	64.1059
5775	64.0362
5770	64.0681
5765	63.869
5760	64.3026
5755	65.1053
5750	65.1675
5745	64.7837
5740	64.9083
5735	64.5659
5730	64.1726
5725	64.4672
5720	64.6704
5715	64.5436
5710	64.5509
5705	64.4859
5700	64.5696
5695	64.729
5690	64.7052
5685	64.8714
5680	64.7634
5675	64.2082
5670	64.3128
5665	64.353
5660	64.6842
5655	64.7876
5650	65.0087
5645	64.9909
5640	64.6286
5635	65
5630	65.8984
5625	66.2815
5620	65.9605
5615	65.8166
5610	65.6848
5605	65.5632
5600	65.8204
5595	65.6387
5590	65.0347
5585	64.6793
5580	64.3772
5575	64.5985
5570	65.2742
5565	65.2259
5560	65.0964
5555	64.9266
5550	64.5241
5545	64.5689
5540	64.8053
5535	64.9052
5530	64.8256
5525	65.3471
5520	65.4225
5515	64.7864
5510	64.2622
5505	64.6011
5500	64.8902
5495	64.6575
5490	64.5324
5485	65.0406
5480	65.2027
5475	64.9125
5470	64.9268
5465	64.5551
5460	64.3621
5455	64.5988
5450	64.9298
5445	65.1368
5440	65.0579
5435	64.7135
5430	64.4329
5425	64.9424
5420	65.376
5415	64.8983
5410	64.2872
5405	64.5051
5400	65.1842
5395	65.4485
5390	65.1885
5385	64.6612
5380	64.1742
5375	64.1869
5370	64.3578
5365	63.9812
5360	63.7443
5355	64.0266
5350	63.5664
5345	63.3989
5340	63.8742
5335	63.8855
5330	62.6341
5325	61.5858
5320	62.3754
5315	62.7905
5310	62.6656
5305	64.6369
5300	66.8839
5295	66.427
5290	67.1074
5285	66.7147
5280	65.0471
5275	64.0938
5270	64.8139
5265	65.7259
5260	66.3887
5255	66.6158
5250	66.7341
5245	66.9881
5240	65.1275
5235	64.2814
5230	65.2465
5225	65.4318
5220	65.1029
5215	64.5055
5210	64.2339
5205	64.7768
5200	64.5364
5195	64.3043
5190	64.4979
5185	64.6332
5180	64.8745
5175	64.9919
5170	65.1936
5165	65.4416
5160	65.3519
5155	64.8778
5150	64.9875
5145	64.8582
5140	64.5838
5135	64.6894
5130	64.9068
5125	64.8166
5120	64.3446
5115	64.3731
5110	64.7343
5105	64.8774
5100	64.8773
5095	64.8342
5090	64.8489
5085	65.0313
5080	65.2231
5075	64.7984
5070	64.5971
5065	64.5754
5060	64.6909
5055	64.6419
5050	64.5799
5045	64.7611
5040	64.8473
5035	64.8068
5030	64.9368
5025	65.0229
5020	65.0723
5015	65.0274
5010	64.8449
5005	64.8143
5000	65.1282
4995	64.9189
4990	64.6601
4985	64.9291
4980	65.2343
4975	65.2178
4970	65.0936
4965	64.5881
4960	64.3616
4955	64.4296
4950	64.6758
4945	65.3482
4940	65.2504
4935	64.6217
4930	64.4223
4925	64.7493
4920	65.0854
4915	65.0914
4910	64.9942
4905	64.7718
4900	64.6902
4895	64.8839
4890	64.8623
4885	64.6055
4880	64.5486
4875	64.5998
4870	64.3811
4865	64.3732
4860	64.5966
4855	64.8233
4850	64.9703
4845	65.1148
4840	65.2926
4835	64.9656
4830	64.8959
4825	64.9985
4820	64.5614
4815	64.3873
4810	64.4585
4805	64.5828
4800	64.8229
4795	65
4790	65.2781
4785	65.3241
4780	65.0038
4775	65.0614
4770	65.2497
4765	65.3785
4760	65.2061
4755	64.9816
4750	64.9809
4745	64.8875
4740	64.7614
4735	64.9019
4730	65.2132
4725	65.2146
4720	65.082
4715	64.8154
4710	64.8807
4705	65.2209
4700	65.1639
4695	65.0062
4690	65.113
4685	65.1664
4680	65.293
4675	65.396
4670	65.2345
4665	65.1363
4660	65.3013
4655	65.3085
4650	65.219
4645	65.1138
4640	64.9361
4635	64.9333
4630	64.9997
4625	65.053
4620	65.228
4615	65.2078
4610	65.1446
4605	65.1311
4600	65.2102
4595	65.1205
4590	64.9855
4585	64.9459
4580	64.9921
4575	64.9665
4570	64.9756
4565	64.8777
4560	64.6911
4555	64.7793
4550	64.8145
4545	64.6074
4540	64.5856
4535	64.7302
4530	64.8262
4525	64.5838
4520	64.2406
4515	64.2329
4510	64.2432
4505	64.3827
4500	64.5004
4495	64.3199
4490	64.0224
4485	64.0583
4480	63.9439
4475	63.8589
4470	64.0833
4465	64.2222
4460	64.2316
4455	64.3089
4450	64.1799
4445	63.9245
4440	63.8987
4435	63.8346
4430	63.5537
4425	63.7294
4420	63.9365
4415	64.0302
4410	64.8607
4405	64.943
4400	61.8636
4395	65.0083
4390	90.2402
4385	87.922
4380	72.9708
4375	66.9718
4370	64.7411
4365	64.2022
4360	64.3514
4355	63.898
4350	63.9931
4345	64.5038
4340	64.6064
4335	64.541
4330	64.6695
4325	64.5541
4320	64.4156
4315	64.2319
4310	64.083
4305	64.5456
4300	64.8014
4295	64.6678
4290	64.4486
4285	64.4196
4280	64.6604
4275	64.8277
4270	64.6199
4265	64.4978
4260	64.7244
4255	64.8314
4250	64.8801
4245	64.7167
4240	64.4097
4235	64.5319
4230	64.8151
4225	64.981
4220	65.0078
4215	64.7027
4210	64.5735
4205	64.4434
4200	64.609
4195	64.9964
4190	64.9554
4185	64.8715
4180	64.941
4175	65.1978
4170	65.0075
4165	64.6401
4160	64.7628
4155	65.0231
4150	64.9823
4145	64.89
4140	64.7985
4135	64.8565
4130	65.0361
4125	65.1869
4120	65.287
4115	65.3079
4110	65.3695
4105	65.3435
4100	65.2688
4095	65.295
4090	65.2166
4085	65.2518
4080	65.2473
4075	65.0636
4070	65.0578
4065	65.2002
4060	65.1658
4055	65.2719
4050	65.4615
4045	65.4501
4040	65.4431
4035	65.268
4030	65.1804
4025	65.2134
4020	65.2949
4015	65.3391
4010	65.3312
4005	65.3749
4000	65.2477
3995	65.0141
3990	64.9262
3985	64.8812
3980	65.0712
3975	65.2969
3970	65.2157
3965	65.1642
3960	65.3279
3955	65.2241
3950	64.9702
3945	65.0153
3940	65.1864
3935	65.1509
3930	65.0639
3925	65.1658
3920	65.1311
3915	64.9486
3910	64.9409
3905	64.9445
3900	64.9722
3895	65.1342
3890	65.0738
3885	65.0753
3880	65.1421
3875	65.1023
3870	65.0905
3865	65.0749
3860	65.0593
3855	65.0256
3850	65.1105
3845	65.2261
3840	65.1533
3835	65.1788
3830	65.1762
3825	65.1777
3820	65.2482
3815	65.0969
3810	64.9235
3805	64.9677
3800	65.1424
3795	65.1474
3790	65.1524
3785	65.1999
3780	65.1566
3775	65.085
3770	65.0696
3765	65.0685
3760	65.0844
3755	65.1036
3750	65.167
3745	65.1692
3740	65.0859
3735	65.1161
3730	65.112
3725	65.1167
3720	65.15
3715	65.0068
3710	64.9808
3705	65.0431
3700	65.1088
3695	65.2485
3690	65.3357
3685	65.2597
3680	65.2135
3675	65.2894
3670	65.251
3665	65.1112
3660	65.084
3655	65.1246
3650	65.1853
3645	65.2569
3640	65.2201
3635	65.2617
3630	65.3601
3625	65.3266
3620	65.3385
3615	65.2929
3610	65.2274
3605	65.2636
3600	65.2436
3595	65.1997
3590	65.1554
3585	65.2324
3580	65.3796
3575	65.3491
3570	65.1964
3565	65.0979
3560	65.1435
3555	65.3012
3550	65.2908
3545	65.2658
3540	65.2047
3535	65.0831
3530	65.0735
3525	65.0579
3520	64.9589
3515	65.0577
3510	65.2927
3505	65.2451
3500	64.9798
3495	65.0016
3490	65.0449
3485	65.1108
3480	65.1304
3475	65.0722
3470	65.1147
3465	65.1525
3460	65.1025
3455	65.1895
3450	65.3368
3445	65.4321
3440	65.4625
3435	65.4454
3430	65.2905
3425	65.1075
3420	65.0362
3415	64.9585
3410	64.9632
3405	64.9272
3400	64.9546
3395	65.1751
3390	65.2515
3385	65.1476
3380	65.0635
3375	65.0733
3370	65.1164
3365	65.0746
3360	65.0429
3355	65.1582
3350	65.205
3345	65.1264
3340	65.1244
3335	65.124
3330	65.0128
3325	64.963
3320	65.0649
3315	65.1863
3310	65.3036
3305	65.2714
3300	65.1261
3295	65.0634
3290	65.0007
3285	65.0164
3280	65.0467
3275	65.0249
3270	65.1263
3265	65.2492
3260	65.2756
3255	65.1347
3250	65.0496
3245	65.1671
3240	65.2622
3235	65.1618
3230	65.0403
3225	65.0352
3220	65.0913
3215	65.1381
3210	65.1493
3205	65.1747
3200	65.1889
3195	65.1221
3190	65.0779
3185	65.0845
3180	65.1046
3175	65.1423
3170	65.0901
3165	65.0211
3160	65.0138
3155	65.0757
3150	65.0934
3145	65.1205
3140	65.0798
3135	65.1827
3130	65.2677
3125	65.2485
3120	65.2077
3115	65.2082
3110	65.3
3105	65.2974
3100	65.3263
3095	65.3185
3090	65.3247
3085	65.412
3080	65.3053
3075	65.1383
3070	65.2228
3065	65.3445
3060	65.2879
3055	65.2863
3050	65.2088
3045	65.1391
3040	65.1412
3035	65.1118
3030	65.1708
3025	65.2768
3020	65.2843
3015	65.2207
3010	65.1443
3005	65.1038
3000	65.1791
2995	65.2074
2990	65.141
2985	65.137
2980	65.1185
2975	65.0698
2970	65.0896
2965	65.0952
2960	65.0238
2955	64.9014
2950	64.9082
2945	64.9731
2940	64.933
2935	65.0288
2930	65.1104
2925	64.9581
2920	64.8792
2915	64.9246
2910	64.9979
2905	64.9629
2900	64.9091
2895	65.0088
2890	65.0887
2885	65.057
2880	65.0784
2875	65.1129
2870	65.1052
2865	65.1158
2860	65.1518
2855	65.0408
2850	64.8869
2845	64.8957
2840	65.0539
2835	65.1698
2830	65.2265
2825	65.2351
2820	65.2193
2815	65.2333
2810	65.3183
2805	65.3036
2800	65.2013
2795	65.1905
2790	65.2031
2785	65.1778
2780	65.1737
2775	65.2266
2770	65.2466
2765	65.2476
2760	65.1785
2755	65.1522
2750	65.2349
2745	65.2824
2740	65.2933
2735	65.3207
2730	65.3698
2725	65.3557
2720	65.267
2715	65.2629
2710	65.3998
2705	65.3846
2700	65.3011
2695	65.2797
2690	65.2016
2685	65.1497
2680	65.1781
2675	65.1938
2670	65.244
2665	65.2717
2660	65.2198
2655	65.1883
2650	65.2009
2645	65.1945
2640	65.2404
2635	65.2445
2630	65.2705
2625	65.2668
2620	65.2703
2615	65.3194
2610	65.2765
2605	65.2475
2600	65.2299
2595	65.2343
2590	65.2544
2585	65.2685
2580	65.2594
2575	65.2613
2570	65.2941
2565	65.2726
2560	65.251
2555	65.2953
2550	65.3544
2545	65.3312
2540	65.2252
2535	65.2781
2530	65.3074
2525	65.2302
2520	65.2061
2515	65.2244
2510	65.2565
2505	65.1911
2500	65.22
2495	65.225
2490	65.2212
2485	65.2548
2480	65.2854
2475	65.2927
2470	65.2993
2465	65.332
2460	65.3889
2455	65.3304
2450	65.2256
2445	65.2365
2440	65.2845
2435	65.319
2430	65.2871
2425	65.289
2420	65.2917
2415	65.3411
2410	65.3367
2405	65.2797
2400	65.2022
2395	65.1828
2390	65.2332
2385	65.297
2380	65.2913
2375	65.241
2370	65.2282
2365	65.225
2360	65.2054
2355	65.2613
2350	65.3145
2345	65.2493
2340	65.3374
2335	65.4284
2330	65.372
2325	65.3931
2320	65.4795
2315	65.4381
2310	65.3641
2305	65.3025
2300	65.2645
2295	65.3112
2290	65.3127
2285	65.2363
2280	65.2247
2275	65.3039
2270	65.3395
2265	65.2816
2260	65.2304
2255	65.2727
2250	65.3816
2245	65.4181
2240	65.3998
2235	65.3525
2230	65.3034
2225	65.3368
2220	65.3896
2215	65.3964
2210	65.369
2205	65.3378
2200	65.3959
2195	65.418
2190	65.4014
2185	65.3627
2180	65.2877
2175	65.3169
2170	65.3155
2165	65.2753
2160	65.329
2155	65.373
2150	65.3101
2145	65.2965
2140	65.2852
2135	65.2521
2130	65.2806
2125	65.3207
2120	65.3369
2115	65.3229
2110	65.2932
2105	65.2472
2100	65.203
2095	65.2402
2090	65.3099
2085	65.3012
2080	65.2934
2075	65.3572
2070	65.4902
2065	65.4451
2060	65.2994
2055	65.2866
2050	65.2969
2045	65.3247
2040	65.3182
2035	65.305
2030	65.2677
2025	65.2808
2020	65.309
2015	65.333
2010	65.3223
2005	65.2564
2000	65.2126
1995	65.1715
1990	65.1499
1985	65.2384
1980	65.3287
1975	65.3481
1970	65.3152
1965	65.2932
1960	65.2888
1955	65.3157
1950	65.3539
1945	65.3912
1940	65.3904
1935	65.3521
1930	65.2783
1925	65.2025
1920	65.2006
1915	65.2688
1910	65.333
1905	65.2934
1900	65.2417
1895	65.2573
1890	65.2967
1885	65.329
1880	65.3557
1875	65.3324
1870	65.2932
1865	65.24
1860	65.2522
1855	65.3396
1850	65.3341
1845	65.3321
1840	65.3286
1835	65.2765
1830	65.2349
1825	65.2188
1820	65.2439
1815	65.3063
1810	65.347
1805	65.2777
1800	65.2181
1795	65.249
1790	65.2898
1785	65.2676
1780	65.2942
1775	65.3003
1770	65.2899
1765	65.265
1760	65.242
1755	65.1417
1750	65.0566
1745	65.0767
1740	65.049
1735	64.9842
1730	65.0614
1725	65.1628
1720	65.1695
1715	65.1846
1710	65.2562
1705	65.2241
1700	65.2213
1695	65.2421
1690	65.1959
1685	65.2118
1680	65.1548
1675	65.1092
1670	65.2038
1665	65.1851
1660	65.1053
1655	65.1473
1650	65.1768
1645	65.2035
1640	65.1488
1635	65.1302
1630	65.1853
1625	65.2265
1620	65.3512
1615	65.3076
1610	65.1826
1605	65.2259
1600	65.2134
1595	65.0932
1590	65.1058
1585	65.1666
1580	65.1629
1575	65.0535
1570	65.0045
1565	65.0861
1560	65.1005
1555	65.0006
1550	64.9961
1545	65.0285
1540	64.9866
1535	65.0113
1530	65.0385
1525	65.0837
1520	65.1112
1515	65.1348
1510	65.2515
1505	65.2108
1500	65.1496
1495	65.1863
1490	65.2126
1485	65.0446
1480	64.9813
1475	65.0336
1470	65.1178
1465	65.1224
1460	65.0456
1455	64.9204
1450	64.9904
1445	65.0974
1440	65.0547
1435	65.0665
1430	65.108
1425	64.9994
1420	64.9109
1415	65.0071
1410	65.0426
1405	65.0396
1400	65.1065
1395	65.0822
1390	64.9842
1385	64.9824
1380	64.9342
1375	64.826
1370	64.876
1365	64.9963
1360	64.9997
1355	64.9749
1350	65.0269
1345	65.0141
1340	65.003
1335	65.0463
1330	65.0501
1325	64.9784
1320	64.9799
1315	65.1174
1310	65.1199
1305	64.9765
1300	64.892
1295	64.8386
1290	64.9523
1285	64.9884
1280	64.8961
1275	64.8132
1270	64.7847
1265	64.8661
1260	64.9702
1255	64.9665
1250	64.8847
1245	64.9037
1240	64.9989
1235	64.9905
1230	64.9023
1225	64.9346
1220	65.001
1215	64.977
1210	65.03
1205	65.005
1200	64.8917
1195	64.9154
1190	64.9318
1185	64.92
1180	64.9427
1175	65.0045
1170	65.0059
1165	64.8416
1160	64.7002
1155	64.677
1150	64.7607
1145	64.7672
1140	64.7622
1135	64.706
1130	64.663
1125	64.6265
1120	64.6526
1115	64.6979
1110	64.7267
1105	64.7913
1100	64.808
1095	64.6722
1090	64.6688
1085	64.7149
1080	64.6003
1075	64.5299
1070	64.6516
1065	64.7611
1060	64.7112
1055	64.6656
1050	64.7166
1045	64.8127
1040	64.7791
1035	64.6887
1030	64.5782
1025	64.5427
1020	64.6383
1015	64.7175
1010	64.6282
1005	64.6259
1000	64.7805
995	 64.8052
990	 64.7487
985	 64.6757
980	 64.5888
975	 64.5754
970	 64.5695
965	 64.642
960	 64.6924
955	 64.7573
950	 64.8002
945	 64.67
940	 64.4575
935	 64.3707
930	 64.3063
925	 64.4871
920	 64.8644
915	 64.6774
910	 64.3248
905	 64.3205
900	 64.4812
895	 64.2736
890	 64.0573
885	 64.1969
880	 64.3931
875	 64.5185
870	 64.6543
865	 64.6498
860	 64.1915
855	 63.7408
850	 63.886
845	 64.085
840	 64.0591
835	 64.1057
830	 64.0649
825	 63.8762
820	 63.8834
815	 64.0913
810	 63.8939
805	 63.6555
800	 63.7085
795	 63.9342
790	 63.9259
785	 63.7899
780	 63.7854
775	 63.7313
770	 63.7118
765	 63.7172
760	 63.6274
755	 63.5251
750	 63.4741
745	 63.3288
740	 63.3423
735	 63.4298
730	 63.4677
725	 63.489
720	 63.5216
715	 63.4785
710	 63.2275
705	 63.0486
700	 63.056
695	 63.3031
690	 63.0536
685	 62.4344
680	 62.38
675	 62.6096
670	 62.7835
665	 62.8459
660	 62.5143
655	 62.3325
650	 62.5567
645	 62.53
640	 62.2118
635	 62.1841
630	 62.3496
625	 62.498
620	 62.3889
615	 62.0177
610	 62.0814
605	 62.0125
600	 61.8844
595	 61.9943
590	 62.0188
585	 62.0052
580	 62.0662
575	 61.8981
570	 61.4522
565	 61.1305
560	 61.1262
555	 61.2922
550	 61.449
545	 61.5849
540	 61.4461
535	 60.9623
530	 60.5729
525	 60.5113
520	 60.8046
515	 61.2184
510	 61.519
505	 61.3774
500	 60.7929
495	 60.0119
490	 59.767
485	 59.6723
480	 59.1492
475	 59.1017
470	 59.6503
465	 59.3722
460	 58.7933
455	 58.4228
450	 58.3296
445	 57.6236
440	 57.3053
435	 57.0618
430	 56.8649
425	 57.8156
420	 58.259
415	 56.4832
410	 54.1609
405	 54.8612
400	 58.2995
395	 66.1494
390	 62.3784
385	 52.8738
380	 65.5914
375	 67.5367
370	 37.6785