File: Bakgrunnsmateriale/MATLAB/FTIR/ftir_data/subBb/Mapping_36/C-4040-8_t25_cm-1.asc
PE IR       SPECTRUM    SPECTRUM    ASCII       PEDS        1.60
  -1
C-9AEE~1.ASC
17/05/02
13:01:56.00
17/05/02
13:01:56.00
tln
$C-4040-8_t0025$<tbV0>[12.5,7.0,8.0,0.0,22,1,0]
370
64

2002,4.07
MIRTGS : RIGHTBACK : INTERNAL 2
MIR : ON : INTERNAL 2
OPTKBR

0.200000
8
8.000000
FILLER
RATIO
SPECTRUM
UNLOCKED 256

DOUBLE
64
COMBINED
1
0
0

1.000000
RATIO

1
0
TRUE
51149
0
LEFT NOT FITTED RIGHT NOT FITTED 0
NONE
NONE
15600
12
4.427000
51148
TRUE
1 0 8 72 0 0 0 0

15798

#HDR
-1
-1
#GR
CM-1
%T
2.38419e-05
0.0
7800
-1.000000
7431
8
79.5649
22.6364
#DATA
7800	78.2437
7795	72.7195
7790	65.9309
7785	69.0229
7780	73.7757
7775	70.9797
7770	69.2633
7765	64.0995
7760	63.4612
7755	69.7866
7750	69.5266
7745	69.6536
7740	70.7874
7735	74.2978
7730	75.8355
7725	72.0533
7720	66.1469
7715	61.2577
7710	57.6636
7705	62.6561
7700	72.1604
7695	77.8218
7690	79.4198
7685	75.5721
7680	72.673
7675	70.6581
7670	67.9376
7665	68.9251
7660	69.7197
7655	69.107
7650	69.1891
7645	70.3541
7640	72.3514
7635	70.5469
7630	66.8277
7625	66.4619
7620	67.1753
7615	65.3115
7610	68.9329
7605	69.4785
7600	68.9956
7595	70.7868
7590	69.6155
7585	68.0845
7580	66.772
7575	70.0361
7570	71.023
7565	64.9601
7560	61.2469
7555	63.3159
7550	65.9016
7545	64.6447
7540	64.3213
7535	65.6284
7530	66.0635
7525	66.3076
7520	66.0203
7515	65.068
7510	62.4633
7505	62.4897
7500	65.9356
7495	66.2385
7490	63.7695
7485	63.378
7480	64.81
7475	67.9993
7470	66.4106
7465	64.0533
7460	64.3739
7455	64.3746
7450	64.654
7445	66.464
7440	66.4765
7435	66.0501
7430	67.1285
7425	65.8913
7420	63.9779
7415	65.5284
7410	65.6566
7405	64.2182
7400	63.4776
7395	63.868
7390	62.8685
7385	61.3963
7380	63.1263
7375	64.525
7370	66.155
7365	67.3437
7360	66.3936
7355	65.8127
7350	65.0559
7345	62.6906
7340	60.7058
7335	60.6011
7330	61.8098
7325	64.0898
7320	62.9946
7315	61.4847
7310	62.8023
7305	61.5383
7300	60.1674
7295	62.8254
7290	65.391
7285	66.5619
7280	67.621
7275	66.9773
7270	65.1929
7265	63.4059
7260	65.3279
7255	64.9998
7250	64.1604
7245	63.9365
7240	64.43
7235	63.937
7230	66.211
7225	68.66
7220	67.5552
7215	65.9472
7210	65.8073
7205	67.1902
7200	67.6854
7195	66.7686
7190	65.0934
7185	65.2768
7180	67.1198
7175	67.2395
7170	65.4534
7165	65.6011
7160	64.938
7155	64.1543
7150	66.4276
7145	67.5247
7140	65.9892
7135	62.4595
7130	62.0939
7125	64.0641
7120	64.3653
7115	64.4874
7110	63.6131
7105	64.321
7100	66.9927
7095	64.6425
7090	61.4427
7085	62.0214
7080	63.3068
7075	63.9794
7070	64.8868
7065	64.2126
7060	62.5682
7055	62.3672
7050	63.0062
7045	64.188
7040	65.0183
7035	64.6757
7030	65.1176
7025	64.5571
7020	63.5902
7015	63.9936
7010	62.0321
7005	61.0236
7000	64.269
6995	65.9318
6990	63.358
6985	63.6705
6980	66.3081
6975	65.5896
6970	64.9385
6965	66.8179
6960	66.7249
6955	64.0424
6950	62.1522
6945	62.9683
6940	63.9353
6935	62.6972
6930	63.2706
6925	65.8995
6920	66.9399
6915	65.0896
6910	63.9257
6905	64.7904
6900	64.3337
6895	62.9128
6890	62.7227
6885	63.8293
6880	65.1591
6875	64.281
6870	64.2259
6865	65.4189
6860	64.9179
6855	65.1405
6850	65.7126
6845	64.5482
6840	62.2615
6835	62.1157
6830	63.4331
6825	64.7245
6820	65.1834
6815	64.7298
6810	65.6169
6805	64.6934
6800	63.5894
6795	64.5764
6790	63.7057
6785	62.5187
6780	63.7639
6775	64.5835
6770	64.6603
6765	63.9916
6760	63.315
6755	64.7755
6750	64.6414
6745	63.0681
6740	62.3557
6735	63.2227
6730	63.0714
6725	62.15
6720	62.7867
6715	64.0316
6710	64.2899
6705	64.2965
6700	65.0811
6695	64.6291
6690	64.3776
6685	64.8217
6680	64.8699
6675	63.9913
6670	63.9113
6665	63.7246
6660	62.8977
6655	63.5785
6650	64.6742
6645	64.5098
6640	65.7811
6635	66.3766
6630	64.1321
6625	64.3087
6620	65.4836
6615	66.0599
6610	65.9071
6605	63.9774
6600	63.0736
6595	63.9729
6590	63.8723
6585	63.9608
6580	64.3434
6575	65.1453
6570	64.8921
6565	64.043
6560	64.0775
6555	63.8388
6550	63.1611
6545	62.7913
6540	63.0479
6535	62.9999
6530	62.69
6525	63.0462
6520	64.8263
6515	65.3005
6510	65.0798
6505	64.8797
6500	64.176
6495	63.4542
6490	64.1547
6485	64.1614
6480	63.7258
6475	63.6745
6470	64.5993
6465	65.7236
6460	64.9356
6455	64.3756
6450	64.782
6445	65.3646
6440	65
6435	63.9158
6430	63.9613
6425	64.6152
6420	65.1462
6415	63.9363
6410	63.9106
6405	65.2414
6400	65.1609
6395	65.0625
6390	65.1006
6385	64.9304
6380	64.0859
6375	63.398
6370	64.9018
6365	65.8223
6360	64.8357
6355	64.1487
6350	64.8017
6345	65.4156
6340	64.6765
6335	64.1326
6330	64.4504
6325	65.0414
6320	65.4849
6315	65.4141
6310	64.9157
6305	65.2346
6300	65.1005
6295	64.7726
6290	64.5926
6285	64.7254
6280	65.5081
6275	65.7822
6270	65.275
6265	64.5124
6260	64.3509
6255	64.3049
6250	64.9497
6245	65.4976
6240	65.6351
6235	64.6044
6230	63.9183
6225	65.3805
6220	65.1717
6215	64.1921
6210	64.3634
6205	64.5825
6200	65.0667
6195	64.5027
6190	63.6286
6185	63.4811
6180	63.7685
6175	64.0049
6170	64.0388
6165	64.7795
6160	65.1255
6155	63.755
6150	63.7029
6145	63.8906
6140	64.1369
6135	64.7907
6130	65.4621
6125	64.8548
6120	64.4924
6115	65.8015
6110	66.1156
6105	65.1019
6100	65.1166
6095	65.0071
6090	64.8664
6085	65.1552
6080	64.4581
6075	63.6828
6070	64.0978
6065	65.0808
6060	65.5362
6055	65.2607
6050	64.726
6045	64.2615
6040	64.1227
6035	64.4995
6030	64.592
6025	64.6119
6020	65.08
6015	65.1462
6010	65.0923
6005	65.9317
6000	65.5881
5995	64.2102
5990	64.5476
5985	65.259
5980	65.3408
5975	65.2085
5970	65.2705
5965	64.7636
5960	63.7853
5955	63.6403
5950	64.1316
5945	64.3886
5940	64.3001
5935	64.3118
5930	64.2868
5925	64.7553
5920	64.5224
5915	63.9577
5910	64.1102
5905	64.2809
5900	64.5689
5895	64.3658
5890	63.8258
5885	63.8769
5880	63.9646
5875	64.2364
5870	64.9101
5865	65.3022
5860	64.8221
5855	64.136
5850	64.4306
5845	64.9052
5840	64.841
5835	64.7328
5830	64.9848
5825	65.2337
5820	65.2634
5815	64.9039
5810	64.7082
5805	64.5885
5800	64.8514
5795	65.5321
5790	65.6016
5785	64.8916
5780	64.5753
5775	64.9416
5770	65.8142
5765	65.4435
5760	65.3551
5755	65.5722
5750	65.33
5745	65.4338
5740	65.0792
5735	64.579
5730	64.9039
5725	65.1477
5720	64.9803
5715	65.2854
5710	65.2726
5705	64.7827
5700	65.0817
5695	65.5593
5690	65.5345
5685	65.0576
5680	64.9727
5675	65.4748
5670	66.0991
5665	65.8486
5660	65.6931
5655	65.5723
5650	65.1513
5645	65.1592
5640	65.4007
5635	65.8418
5630	65.7704
5625	65.2069
5620	64.5471
5615	64.3071
5610	64.1976
5605	64.6793
5600	65.266
5595	64.7695
5590	64.8143
5585	65.2225
5580	64.8969
5575	65.1734
5570	65.2194
5565	64.673
5560	64.8894
5555	64.6772
5550	64.4353
5545	64.8353
5540	65.3906
5535	64.9795
5530	64.5993
5525	64.5578
5520	64.2698
5515	64.5363
5510	65.2161
5505	65.4479
5500	64.8413
5495	64.3575
5490	64.8458
5485	65.0248
5480	64.9794
5475	64.464
5470	63.8956
5465	63.8225
5460	63.9882
5455	64.6147
5450	65.4309
5445	64.8623
5440	63.9598
5435	64.0096
5430	64.6434
5425	65.0452
5420	65.077
5415	64.8818
5410	64.6948
5405	64.7844
5400	65.2827
5395	65.428
5390	64.7427
5385	64.45
5380	65.274
5375	65.673
5370	64.5758
5365	64.1349
5360	65.099
5355	65.2761
5350	65.0019
5345	65.0625
5340	65.0754
5335	64.8681
5330	64.5029
5325	63.9311
5320	63.5773
5315	63.9633
5310	64.248
5305	64.7614
5300	63.8479
5295	63.8691
5290	66.6065
5285	65.6497
5280	61.7972
5275	63.3373
5270	65.1837
5265	65.0055
5260	64.7216
5255	65.4057
5250	65.4551
5245	64.3326
5240	64.4685
5235	64.7594
5230	64.46
5225	64.0853
5220	64.2385
5215	64.3689
5210	64.5235
5205	64.859
5200	65.0006
5195	64.7047
5190	64.3154
5185	64.4423
5180	64.7771
5175	64.8491
5170	64.1446
5165	64.1195
5160	64.6611
5155	64.7422
5150	64.5412
5145	64.4654
5140	64.8722
5135	65.2073
5130	64.9515
5125	64.4585
5120	64.5759
5115	64.9823
5110	65.4298
5105	65.4861
5100	65.1961
5095	65.2391
5090	65.1979
5085	64.7698
5080	64.5265
5075	64.6489
5070	64.4809
5065	64.5288
5060	64.9147
5055	64.8903
5050	64.6788
5045	64.6943
5040	64.6914
5035	64.5689
5030	64.6445
5025	64.7138
5020	64.7936
5015	65.1745
5010	64.9471
5005	64.6673
5000	64.7573
4995	65.0744
4990	65.2776
4985	64.9218
4980	64.6811
4975	64.9888
4970	65.5292
4965	65.53
4960	64.8046
4955	64.424
4950	64.4727
4945	64.5154
4940	64.4648
4935	64.4557
4930	64.6475
4925	64.6413
4920	64.7608
4915	64.8883
4910	64.726
4905	64.5206
4900	64.466
4895	64.5574
4890	64.7876
4885	64.9383
4880	64.9057
4875	65.0682
4870	65.0923
4865	64.6114
4860	64.2075
4855	64.3841
4850	64.5317
4845	64.3679
4840	64.4816
4835	64.9413
4830	65.0579
4825	64.9293
4820	64.9935
4815	64.8868
4810	64.8208
4805	64.865
4800	65.0069
4795	65.2107
4790	65.1636
4785	65.0656
4780	65.1561
4775	65.177
4770	65.0901
4765	64.9087
4760	64.7814
4755	64.6886
4750	64.7903
4745	64.9831
4740	64.9394
4735	64.9869
4730	65.2058
4725	65.1626
4720	65.0535
4715	65.0283
4710	64.8652
4705	64.8405
4700	64.9944
4695	65.1674
4690	65.1482
4685	64.8751
4680	64.7614
4675	64.9639
4670	65.1079
4665	64.9947
4660	65.1288
4655	65.0874
4650	65.0038
4645	65.0353
4640	64.9291
4635	64.8566
4630	64.7387
4625	64.7394
4620	65.0301
4615	65.1401
4610	65.0074
4605	64.8949
4600	64.9158
4595	64.8303
4590	64.8703
4585	65.0152
4580	65.2227
4575	65.1841
4570	64.9457
4565	64.6803
4560	64.7692
4555	64.7129
4550	64.6534
4545	64.8434
4540	64.9182
4535	64.7628
4530	64.8225
4525	65.1961
4520	65.1323
4515	64.9192
4510	64.959
4505	64.5948
4500	64.2794
4495	64.4072
4490	64.5448
4485	64.585
4480	64.7099
4475	64.8661
4470	64.7588
4465	64.3391
4460	64.1974
4455	64.4881
4450	64.7785
4445	64.4999
4440	64.306
4435	64.6144
4430	64.711
4425	64.6655
4420	63.7517
4415	63.1905
4410	63.4895
4405	64.182
4400	64.4759
4395	63.7685
4390	68.0553
4385	68.4824
4380	64.7532
4375	65.838
4370	66.1384
4365	65.1375
4360	65.8473
4355	66.2451
4350	65.1318
4345	64.7766
4340	65.1896
4335	64.971
4330	64.4836
4325	64.5835
4320	65.1055
4315	64.886
4310	64.5536
4305	64.9463
4300	65.0824
4295	64.5154
4290	64.1918
4285	64.4155
4280	64.6122
4275	64.7258
4270	64.736
4265	64.6772
4260	64.598
4255	64.6226
4250	64.6544
4245	64.6317
4240	64.6847
4235	64.9774
4230	65.0706
4225	64.6474
4220	64.486
4215	64.6814
4210	64.766
4205	64.7753
4200	64.9193
4195	64.9956
4190	64.84
4185	64.7936
4180	64.929
4175	64.8119
4170	64.5688
4165	64.5387
4160	64.93
4155	65.1674
4150	65.0209
4145	65.0343
4140	65.1352
4135	65.0464
4130	64.9225
4125	64.9171
4120	64.8565
4115	64.8973
4110	65.0379
4105	65.0418
4100	65.1266
4095	64.9206
4090	64.8787
4085	64.9662
4080	64.7651
4075	64.8946
4070	65.1739
4065	65.0533
4060	64.9015
4055	65.0455
4050	65.1048
4045	65.169
4040	65.127
4035	65.0195
4030	65.066
4025	64.9733
4020	64.878
4015	64.98
4010	65.0448
4005	65.0831
4000	65.1616
3995	65.1339
3990	65.2082
3985	65.0612
3980	64.8341
3975	64.9081
3970	65.1494
3965	65.2407
3960	65.1856
3955	65.1456
3950	65.0562
3945	64.9519
3940	65.0062
3935	65.1818
3930	65.1901
3925	65.1216
3920	65.0769
3915	64.8381
3910	64.6455
3905	64.843
3900	65.0768
3895	65.1892
3890	65.4276
3885	65.3793
3880	65.0957
3875	65.1196
3870	65.1533
3865	65.1331
3860	65.1506
3855	65.1202
3850	65.082
3845	65.1247
3840	65.0267
3835	64.9724
3830	65.0513
3825	65.1943
3820	65.2201
3815	65.1909
3810	65.0719
3805	65.0222
3800	65.1111
3795	65.1688
3790	65.01
3785	64.9371
3780	64.9739
3775	64.9498
3770	65.0745
3765	65.0598
3760	64.9673
3755	65.0437
3750	65.1925
3745	65.3048
3740	65.1974
3735	65.2371
3730	65.2552
3725	65.1573
3720	65.1837
3715	65.1397
3710	65.1207
3705	65.1543
3700	65.1646
3695	65.0748
3690	64.9529
3685	65.0077
3680	65.05
3675	65.0759
3670	65.0586
3665	64.9093
3660	65.0177
3655	65.1294
3650	65.1764
3645	65.1661
3640	65.1081
3635	65.0653
3630	65.0336
3625	65.0374
3620	64.9876
3615	65.0502
3610	65.14
3605	65.0874
3600	65.0599
3595	65.0741
3590	65.0858
3585	65.0702
3580	65.0751
3575	65.1279
3570	65.2387
3565	65.1546
3560	65.0296
3555	65.0516
3550	65.184
3545	65.1808
3540	64.9572
3535	64.9281
3530	64.9705
3525	64.9809
3520	64.9559
3515	65.0014
3510	65.0112
3505	65.1694
3500	65.2685
3495	65.1289
3490	65.3484
3485	65.3289
3480	65.0177
3475	65.1925
3470	65.3538
3465	65.2388
3460	64.9623
3455	64.8631
3450	65.0189
3445	65.111
3440	65.1272
3435	64.9983
3430	64.9844
3425	65.0198
3420	64.9238
3415	64.9686
3410	65.1058
3405	65.1366
3400	65.2063
3395	65.2352
3390	65.0949
3385	64.9525
3380	64.9416
3375	64.9603
3370	64.9722
3365	64.9649
3360	65.0144
3355	65.1488
3350	65.1881
3345	65.0736
3340	65.0049
3335	65.0336
3330	64.9523
3325	64.8863
3320	65.1075
3315	65.1721
3310	65.0559
3305	65.0102
3300	65.0366
3295	65.0528
3290	65.054
3285	65.0653
3280	65.0147
3275	64.9427
3270	64.9679
3265	65.0914
3260	65.1894
3255	65.1586
3250	65.0926
3245	65.0697
3240	65.0154
3235	64.9032
3230	64.9125
3225	64.9988
3220	65.0435
3215	65.0894
3210	65.0894
3205	65.0265
3200	65.0178
3195	65.0891
3190	65.0045
3185	65.0586
3180	65.2418
3175	65.2081
3170	65.0074
3165	64.925
3160	64.9452
3155	65.0614
3150	65.1379
3145	65.1105
3140	65.1075
3135	64.9965
3130	64.9927
3125	65.0569
3120	65.1706
3115	65.1156
3110	65.0318
3105	65.0484
3100	65.0743
3095	65.058
3090	64.9244
3085	64.8787
3080	65.005
3075	65.0036
3070	64.9175
3065	64.9445
3060	64.9695
3055	64.9697
3050	65.009
3045	64.989
3040	65.0192
3035	65.0708
3030	65.0475
3025	65.063
3020	65.0851
3015	65.0721
3010	65.0095
3005	65.068
3000	65.1147
2995	65.0838
2990	65.0325
2985	64.9956
2980	64.9815
2975	64.9711
2970	65.0102
2965	64.9249
2960	64.8987
2955	64.8972
2950	64.8916
2945	64.9108
2940	64.8357
2935	64.8569
2930	64.8931
2925	64.7375
2920	64.6768
2915	64.7224
2910	64.6943
2905	64.7921
2900	64.903
2895	64.8369
2890	64.8092
2885	64.8438
2880	64.9
2875	64.9658
2870	65.0738
2865	65.002
2860	64.8657
2855	64.9305
2850	65.0094
2845	65.0844
2840	65.1081
2835	65.0731
2830	65.0798
2825	65.0941
2820	65.0615
2815	65.068
2810	65.1041
2805	65.076
2800	65.0406
2795	65.0711
2790	65.0878
2785	65.1382
2780	65.2041
2775	65.2006
2770	65.1526
2765	65.1566
2760	65.1864
2755	65.097
2750	65.0423
2745	65.0664
2740	65.0849
2735	65.1258
2730	65.144
2725	65.2129
2720	65.2416
2715	65.1726
2710	65.1178
2705	65.2399
2700	65.322
2695	65.167
2690	65.0882
2685	65.111
2680	65.1339
2675	65.2192
2670	65.1981
2665	65.1817
2660	65.2049
2655	65.1382
2650	65.0667
2645	65.0233
2640	65.0838
2635	65.2158
2630	65.2596
2625	65.1324
2620	65.0911
2615	65.1043
2610	65.107
2605	65.1426
2600	65.1884
2595	65.2172
2590	65.1399
2585	65.0335
2580	65.1021
2575	65.1971
2570	65.1842
2565	65.163
2560	65.2
2555	65.2147
2550	65.1571
2545	65.0977
2540	65.1527
2535	65.1859
2530	65.1809
2525	65.2042
2520	65.1776
2515	65.1197
2510	65.1238
2505	65.0932
2500	65.1574
2495	65.1855
2490	65.1466
2485	65.0546
2480	65.0176
2475	65.1527
2470	65.2086
2465	65.1694
2460	65.0865
2455	65.0654
2450	65.0803
2445	65.1244
2440	65.1429
2435	65.1974
2430	65.2589
2425	65.2713
2420	65.2173
2415	65.1798
2410	65.163
2405	65.0893
2400	65.0921
2395	65.1452
2390	65.1521
2385	65.1678
2380	65.156
2375	65.1487
2370	65.1535
2365	65.1655
2360	65.2017
2355	65.2187
2350	65.1693
2345	65.1425
2340	65.1564
2335	65.1967
2330	65.1611
2325	65.1328
2320	65.1396
2315	65.146
2310	65.2015
2305	65.2959
2300	65.2956
2295	65.1943
2290	65.1368
2285	65.1404
2280	65.0955
2275	65.0665
2270	65.1225
2265	65.1809
2260	65.1695
2255	65.1725
2250	65.2634
2245	65.2408
2240	65.1226
2235	65.0715
2230	65.0733
2225	65.0637
2220	65.0787
2215	65.1579
2210	65.1589
2205	65.192
2200	65.2319
2195	65.1829
2190	65.1164
2185	65.0903
2180	65.1079
2175	65.1685
2170	65.1919
2165	65.1683
2160	65.1392
2155	65.1793
2150	65.2498
2145	65.2577
2140	65.2943
2135	65.2638
2130	65.164
2125	65.1504
2120	65.178
2115	65.2046
2110	65.2425
2105	65.2026
2100	65.1064
2095	65.1084
2090	65.2439
2085	65.3221
2080	65.2458
2075	65.3003
2070	65.3114
2065	65.1746
2060	65.0875
2055	65.1189
2050	65.1971
2045	65.2845
2040	65.2999
2035	65.296
2030	65.2699
2025	65.1796
2020	65.1287
2015	65.1446
2010	65.187
2005	65.1739
2000	65.1819
1995	65.2101
1990	65.2094
1985	65.2135
1980	65.1978
1975	65.1514
1970	65.133
1965	65.19
1960	65.2735
1955	65.2963
1950	65.202
1945	65.1455
1940	65.2162
1935	65.3112
1930	65.341
1925	65.2356
1920	65.2175
1915	65.2413
1910	65.2209
1905	65.2177
1900	65.219
1895	65.2812
1890	65.2283
1885	65.1803
1880	65.2581
1875	65.3065
1870	65.3081
1865	65.3123
1860	65.3075
1855	65.2703
1850	65.2341
1845	65.2415
1840	65.3007
1835	65.274
1830	65.1603
1825	65.1869
1820	65.2143
1815	65.1087
1810	65.1005
1805	65.216
1800	65.2666
1795	65.2157
1790	65.2094
1785	65.2015
1780	65.1299
1775	65.0683
1770	65.1191
1765	65.1056
1760	65.047
1755	65.0563
1750	65.0435
1745	64.9879
1740	64.9442
1735	64.8713
1730	64.8291
1725	64.9276
1720	65.0285
1715	65.1086
1710	65.1409
1705	65.0603
1700	65.1242
1695	65.1783
1690	65.0822
1685	65.0996
1680	65.0342
1675	64.96
1670	65.0364
1665	65.1019
1660	65.1066
1655	65.0629
1650	65.0197
1645	64.9945
1640	65.0168
1635	65.0487
1630	65.0888
1625	65.1107
1620	65.0903
1615	65.0381
1610	65.0427
1605	65.0573
1600	65.085
1595	65.0632
1590	65.0171
1585	65.0458
1580	64.9868
1575	64.8845
1570	64.8878
1565	64.9733
1560	65.055
1555	64.9833
1550	64.9005
1545	64.9294
1540	64.9765
1535	64.9613
1530	64.9669
1525	64.8845
1520	64.9301
1515	65.047
1510	65.0226
1505	64.975
1500	65.0143
1495	65.0444
1490	65.0908
1485	65.1248
1480	65.0768
1475	65.0235
1470	65.0137
1465	64.9219
1460	64.8859
1455	64.8912
1450	64.9204
1445	64.9752
1440	65.0088
1435	65.0664
1430	65.1128
1425	65.1143
1420	65.1809
1415	65.1345
1410	65.0677
1405	65.0276
1400	64.9413
1395	64.9193
1390	64.9611
1385	64.9688
1380	64.9329
1375	64.9731
1370	65.0883
1365	65.1266
1360	65.0087
1355	64.9474
1350	64.9235
1345	64.9174
1340	64.9563
1335	64.986
1330	64.9648
1325	64.9824
1320	64.9918
1315	64.932
1310	64.8803
1305	64.8862
1300	64.8784
1295	64.9012
1290	64.9264
1285	64.9205
1280	64.8846
1275	64.8866
1270	64.9476
1265	64.9934
1260	64.9913
1255	64.9462
1250	64.8613
1245	64.8252
1240	64.8936
1235	64.907
1230	64.9071
1225	64.9052
1220	64.8455
1215	64.8487
1210	64.8635
1205	64.8582
1200	64.8679
1195	64.844
1190	64.8415
1185	64.9614
1180	64.9287
1175	64.8028
1170	64.7709
1165	64.7142
1160	64.6265
1155	64.6829
1150	64.7263
1145	64.6857
1140	64.5909
1135	64.6683
1130	64.8003
1125	64.7943
1120	64.7382
1115	64.7058
1110	64.8506
1105	64.9146
1100	64.916
1095	64.9041
1090	64.8544
1085	64.6611
1080	64.5904
1075	64.7277
1070	64.6315
1065	64.607
1060	64.6243
1055	64.6369
1050	64.6815
1045	64.6044
1040	64.6608
1035	64.7712
1030	64.6766
1025	64.5686
1020	64.6
1015	64.8108
1010	64.8069
1005	64.6718
1000	64.6301
995	 64.634
990	 64.7702
985	 64.6094
980	 64.5571
975	 64.7676
970	 64.7928
965	 64.7718
960	 64.6141
955	 64.5879
950	 64.8361
945	 64.7085
940	 64.4995
935	 64.5445
930	 64.7022
925	 64.8879
920	 64.8408
915	 64.4146
910	 64.2448
905	 64.4581
900	 63.9509
895	 63.6462
890	 63.8745
885	 63.8593
880	 64.1626
875	 64.1296
870	 63.7978
865	 64.0069
860	 64.1259
855	 64.4182
850	 64.5728
845	 64.4549
840	 64.5182
835	 64.4241
830	 64.5617
825	 64.7688
820	 64.5019
815	 64.1959
810	 64.0195
805	 63.9905
800	 64.0232
795	 64.135
790	 64.2406
785	 64.1402
780	 63.9728
775	 63.7919
770	 63.6201
765	 63.5534
760	 63.6607
755	 63.8011
750	 63.7648
745	 63.4211
740	 63.2118
735	 63.557
730	 63.6394
725	 63.5495
720	 63.7711
715	 63.7786
710	 63.5389
705	 63.1612
700	 62.8086
695	 62.9635
690	 63.2335
685	 63.2341
680	 63.2013
675	 63.0224
670	 62.9455
665	 62.8965
660	 62.9852
655	 62.9937
650	 62.7587
645	 62.6594
640	 62.8528
635	 63.0612
630	 62.8229
625	 62.7934
620	 62.8448
615	 62.7372
610	 62.886
605	 62.9262
600	 62.4436
595	 62.1027
590	 62.1705
585	 62.3059
580	 62.2948
575	 62.1818
570	 62.1284
565	 62.1877
560	 61.8608
555	 61.4212
550	 61.4282
545	 61.6139
540	 61.4843
535	 61.2443
530	 61.0531
525	 61.1535
520	 61.0454
515	 60.8505
510	 60.8387
505	 60.868
500	 60.9507
495	 60.8066
490	 60.8683
485	 60.775
480	 60.1949
475	 59.4263
470	 59.4647
465	 59.8018
460	 60.0102
455	 59.5267
450	 59.3628
445	 60.2178
440	 59.7283
435	 58.1222
430	 57.3443
425	 58.1528
420	 59.657
415	 57.9524
410	 54.1557
405	 50.4828
400	 47.2162
395	 51.4602
390	 49.6019
385	 44.1559
380	 36.3433
375	 24.52
370	 23.586