File: Bakgrunnsmateriale/MATLAB/FTIR/ftir_data/subBb/Mapping_36/C-4040-8_e37_cm-1.asc
PE IR       SPECTRUM    SPECTRUM    ASCII       PEDS        1.60
  -1
C-4040~1.ASC
17/05/02
10:48:50.00
17/05/02
10:48:50.00
tln
$C-4040-8_e0037$<ebV0>[-23.3,12.1,10.0,0.0,22,1,0]
370
64

2002,4.07
MIRTGS : RIGHTBACK : INTERNAL 2
MIR : ON : INTERNAL 2
OPTKBR

0.200000
8
8.000000
FILLER
SINGLE
SPECTRUM
UNLOCKED 256

DOUBLE

COMBINED
1
0
0

1.000000
BACKG

1
0
TRUE
51149
0
LEFT NOT FITTED RIGHT NOT FITTED 0
NONE
NONE
15600
12
4.427000
51148
TRUE
1 0 8 72 0 0 0 0

15798

#HDR
-1
-1
#GR
CM-1
EGY
2.38419e-05
0.0
7800
-1.000000
7431
8
2.447628
0.006937
#DATA
7800	0.034904
7795	0.036931
7790	0.038075
7785	0.037193
7780	0.038456
7775	0.040721
7770	0.040459
7765	0.041317
7760	0.042438
7755	0.043010
7750	0.044703
7745	0.046205
7740	0.046968
7735	0.046944
7730	0.048041
7725	0.051283
7720	0.054311
7715	0.052905
7710	0.052165
7705	0.052762
7700	0.054240
7695	0.058054
7690	0.059580
7685	0.058388
7680	0.056862
7675	0.056719
7670	0.057435
7665	0.059008
7660	0.060868
7655	0.060606
7650	0.060701
7645	0.062465
7640	0.061011
7635	0.061655
7630	0.064039
7625	0.064873
7620	0.066113
7615	0.068640
7610	0.069117
7605	0.069642
7600	0.071883
7595	0.074338
7590	0.074791
7585	0.073122
7580	0.071620
7575	0.071048
7570	0.071787
7565	0.071787
7560	0.072813
7555	0.073456
7550	0.074386
7545	0.076150
7540	0.075888
7535	0.078153
7530	0.080561
7525	0.082087
7520	0.081682
7515	0.080776
7510	0.082111
7505	0.084233
7500	0.085258
7495	0.084948
7490	0.084495
7485	0.084733
7480	0.086426
7475	0.087642
7470	0.086283
7465	0.086069
7460	0.086855
7455	0.086808
7450	0.087594
7445	0.087666
7440	0.089836
7435	0.092911
7430	0.091886
7425	0.089788
7420	0.090670
7415	0.092411
7410	0.091552
7405	0.091600
7400	0.092244
7395	0.093579
7390	0.095605
7385	0.097322
7380	0.097608
7375	0.099778
7370	0.101685
7365	0.098443
7360	0.097727
7355	0.100278
7350	0.102233
7345	0.103020
7340	0.102591
7335	0.102853
7330	0.103998
7325	0.104212
7320	0.103330
7315	0.103306
7310	0.104475
7305	0.108647
7300	0.110530
7295	0.109362
7290	0.108313
7285	0.109696
7280	0.110912
7275	0.110173
7270	0.111269
7265	0.113892
7260	0.115585
7255	0.114750
7250	0.113701
7245	0.114965
7240	0.117754
7235	0.117874
7230	0.116157
7225	0.115895
7220	0.116610
7215	0.118303
7210	0.121760
7205	0.122117
7200	0.120687
7195	0.119543
7190	0.121307
7185	0.122523
7180	0.123214
7175	0.125527
7170	0.127410
7165	0.129914
7160	0.131630
7155	0.130915
7150	0.130915
7145	0.130796
7140	0.131392
7135	0.132536
7130	0.132322
7125	0.132489
7120	0.132918
7115	0.133085
7110	0.133633
7105	0.133085
7100	0.131940
7095	0.132036
7090	0.134110
7085	0.136041
7080	0.137209
7075	0.137853
7070	0.140571
7065	0.141143
7060	0.139021
7055	0.140476
7050	0.141024
7045	0.141763
7040	0.145125
7035	0.147175
7030	0.146460
7025	0.145697
7020	0.145936
7015	0.148105
7010	0.153684
7005	0.153136
7000	0.148010
6995	0.148224
6990	0.148558
6985	0.149774
6980	0.152397
6975	0.151467
6970	0.151634
6965	0.155997
6960	0.157928
6955	0.158071
6950	0.159049
6945	0.159335
6940	0.158166
6935	0.158643
6930	0.160479
6925	0.159740
6920	0.159382
6915	0.160574
6910	0.161457
6905	0.163364
6900	0.164151
6895	0.165009
6890	0.166535
6885	0.167179
6880	0.167369
6875	0.168061
6870	0.168895
6865	0.168490
6860	0.168776
6855	0.168156
6850	0.170207
6845	0.173497
6840	0.174593
6835	0.175189
6830	0.174617
6825	0.174927
6820	0.174355
6815	0.174450
6810	0.177478
6805	0.178980
6800	0.179409
6795	0.179052
6790	0.178146
6785	0.178408
6780	0.179815
6775	0.182604
6770	0.183367
6765	0.182151
6760	0.182223
6755	0.182819
6750	0.185227
6745	0.188446
6740	0.190138
6735	0.189828
6730	0.188827
6725	0.186419
6720	0.186634
6715	0.189971
6710	0.191187
6705	0.189590
6700	0.187969
6695	0.187945
6690	0.189399
6685	0.190854
6680	0.193309
6675	0.195407
6670	0.194621
6665	0.194358
6660	0.196743
6655	0.197839
6650	0.196146
6645	0.195217
6640	0.195837
6635	0.194787
6630	0.196695
6625	0.199294
6620	0.197815
6615	0.197982
6610	0.199174
6605	0.198507
6600	0.200414
6595	0.201869
6590	0.201892
6585	0.204849
6580	0.205993
6575	0.203418
6570	0.204873
6565	0.207638
6560	0.206971
6555	0.208711
6550	0.209403
6545	0.208735
6540	0.209832
6535	0.211429
6530	0.213646
6525	0.213527
6520	0.213146
6515	0.213623
6510	0.215864
6505	0.218534
6500	0.217843
6495	0.217247
6490	0.219559
6485	0.220179
6480	0.219702
6475	0.222492
6470	0.224733
6465	0.224566
6460	0.224924
6455	0.225281
6450	0.225663
6445	0.226211
6440	0.227355
6435	0.229811
6430	0.232553
6425	0.233912
6420	0.235438
6415	0.235843
6410	0.235629
6405	0.237369
6400	0.240015
6395	0.240755
6390	0.242733
6385	0.244760
6380	0.244569
6375	0.245547
6370	0.247907
6365	0.248527
6360	0.249099
6355	0.250220
6350	0.252294
6345	0.253677
6340	0.255203
6335	0.255322
6330	0.254964
6325	0.259375
6320	0.264501
6315	0.265645
6310	0.264024
6305	0.265431
6300	0.269389
6295	0.269627
6290	0.267767
6285	0.270009
6280	0.272965
6275	0.272774
6270	0.274944
6265	0.278353
6260	0.279641
6255	0.279569
6250	0.281095
6245	0.283718
6240	0.285243
6235	0.285315
6230	0.284218
6225	0.286483
6220	0.289988
6215	0.291442
6210	0.293898
6205	0.296139
6200	0.295758
6195	0.296163
6190	0.299263
6185	0.303483
6180	0.303840
6175	0.301814
6170	0.301790
6165	0.303339
6160	0.304794
6155	0.306415
6150	0.308704
6145	0.310945
6140	0.311684
6135	0.312113
6130	0.313568
6125	0.316548
6120	0.318288
6115	0.319528
6110	0.322294
6105	0.323748
6100	0.322341
6095	0.322723
6090	0.325560
6085	0.328350
6080	0.329947
6075	0.332331
6070	0.334835
6065	0.337266
6060	0.338649
6055	0.340318
6050	0.340819
6045	0.340795
6040	0.344443
6035	0.346422
6030	0.346136
6025	0.347185
6020	0.350379
6015	0.354123
6010	0.355982
6005	0.356721
6000	0.357055
5995	0.355601
5990	0.356721
5985	0.360155
5980	0.362157
5975	0.362610
5970	0.363850
5965	0.365567
5960	0.366139
5955	0.368404
5950	0.371241
5945	0.371336
5940	0.371026
5935	0.372862
5930	0.374698
5925	0.377750
5920	0.377058
5915	0.374388
5910	0.373911
5905	0.376987
5900	0.380468
5895	0.382018
5890	0.381517
5885	0.381398
5880	0.382518
5875	0.384759
5870	0.386714
5865	0.386238
5860	0.388646
5855	0.391077
5850	0.391745
5845	0.394511
5840	0.393557
5835	0.392341
5830	0.396060
5825	0.399160
5820	0.399708
5815	0.400829
5810	0.402593
5805	0.402164
5800	0.402307
5795	0.405430
5790	0.408363
5785	0.407934
5780	0.409030
5775	0.412535
5770	0.414061
5765	0.413250
5760	0.414896
5755	0.418853
5750	0.418663
5745	0.418472
5740	0.419425
5735	0.421977
5730	0.424289
5725	0.425124
5720	0.424408
5715	0.424098
5710	0.425219
5705	0.427603
5700	0.430440
5695	0.431704
5690	0.430464
5685	0.428080
5680	0.427222
5675	0.428390
5670	0.431251
5665	0.433993
5660	0.435185
5655	0.434446
5650	0.434088
5645	0.436496
5640	0.439167
5635	0.440311
5630	0.440382
5625	0.443100
5620	0.444126
5615	0.444602
5610	0.446343
5605	0.446081
5600	0.445890
5595	0.448608
5590	0.450086
5585	0.450015
5580	0.451588
5575	0.455760
5570	0.458621
5565	0.459122
5560	0.460457
5555	0.463104
5550	0.464677
5545	0.465822
5540	0.466370
5535	0.469231
5530	0.474023
5525	0.476956
5520	0.478148
5515	0.480151
5510	0.482583
5505	0.482678
5500	0.483131
5495	0.486469
5490	0.488853
5485	0.489807
5480	0.492644
5475	0.495839
5470	0.498342
5465	0.502443
5460	0.503420
5455	0.503444
5450	0.505661
5445	0.507092
5440	0.507068
5435	0.510287
5430	0.515437
5425	0.518083
5420	0.519585
5415	0.520920
5410	0.522613
5405	0.527977
5400	0.530195
5395	0.529479
5390	0.530028
5385	0.532579
5380	0.535774
5375	0.537467
5370	0.539755
5365	0.542426
5360	0.545048
5355	0.546979
5350	0.549197
5345	0.550556
5340	0.552511
5335	0.557541
5330	0.560998
5325	0.564980
5320	0.570225
5315	0.573825
5310	0.577116
5305	0.580787
5300	0.582122
5295	0.585079
5290	0.589156
5285	0.588631
5280	0.592732
5275	0.595688
5270	0.596356
5265	0.601601
5260	0.605988
5255	0.607514
5250	0.614905
5245	0.624990
5240	0.636768
5235	0.643253
5230	0.644898
5225	0.646162
5220	0.636124
5215	0.636911
5210	0.639486
5205	0.638270
5200	0.641560
5195	0.653672
5190	0.663781
5185	0.662231
5180	0.649881
5175	0.647234
5170	0.659179
5165	0.669527
5160	0.673913
5155	0.679254
5150	0.678944
5145	0.676774
5140	0.680971
5135	0.686836
5130	0.688457
5125	0.688147
5120	0.690388
5115	0.695204
5110	0.697040
5105	0.700926
5100	0.704097
5095	0.704860
5090	0.708985
5085	0.716757
5080	0.719308
5075	0.721287
5070	0.724840
5065	0.726556
5060	0.729274
5055	0.732350
5050	0.736522
5045	0.739717
5040	0.744581
5035	0.749063
5030	0.751900
5025	0.754618
5020	0.756454
5015	0.759434
5010	0.763058
5005	0.766348
5000	0.767540
4995	0.769519
4990	0.775599
4985	0.779628
4980	0.780653
4975	0.780987
4970	0.780987
4965	0.782942
4960	0.786113
4955	0.788521
4950	0.790286
4945	0.791549
4940	0.794053
4935	0.798177
4930	0.800752
4925	0.801205
4920	0.801610
4915	0.804066
4910	0.806927
4905	0.808262
4900	0.810790
4895	0.811362
4890	0.809359
4885	0.812649
4880	0.818395
4875	0.821781
4870	0.824904
4865	0.828242
4860	0.830698
4855	0.835204
4850	0.838899
4845	0.841546
4840	0.844001
4835	0.844860
4830	0.847291
4825	0.850009
4820	0.852727
4815	0.856137
4810	0.859594
4805	0.863766
4800	0.865340
4795	0.866961
4790	0.870633
4785	0.872540
4780	0.875020
4775	0.878429
4770	0.881028
4765	0.881862
4760	0.883173
4755	0.886416
4750	0.888776
4745	0.889229
4740	0.891089
4735	0.893926
4730	0.895833
4725	0.897383
4720	0.898647
4715	0.900340
4710	0.901627
4705	0.900483
4700	0.898647
4695	0.898194
4690	0.900816
4685	0.904345
4680	0.906419
4675	0.906443
4670	0.906610
4665	0.908160
4660	0.909328
4655	0.911045
4650	0.913524
4645	0.918054
4640	0.920891
4635	0.921440
4630	0.921058
4625	0.922322
4620	0.925564
4615	0.929212
4610	0.932788
4605	0.934052
4600	0.935387
4595	0.937914
4590	0.941681
4585	0.944805
4580	0.948119
4575	0.953102
4570	0.956797
4565	0.960588
4560	0.965785
4555	0.967192
4550	0.967860
4545	0.974154
4540	0.979852
4535	0.984573
4530	0.986909
4525	0.989341
4520	0.993466
4515	0.996470
4510	0.997948
4505	0.997185
4500	0.996828
4495	1.000666
4490	1.003766
4485	1.004028
4480	1.005840
4475	1.007175
4470	1.006507
4465	1.007890
4460	1.008629
4455	1.004934
4450	1.004409
4445	1.007771
4440	1.008486
4435	1.008653
4430	1.010918
4425	1.007199
4420	1.001238
4415	0.998830
4410	0.960063
4405	0.878787
4400	0.907611
4395	1.010966
4390	1.054143
4385	1.056790
4380	1.062774
4375	1.063442
4370	1.058268
4365	1.055598
4360	1.061582
4355	1.068687
4350	1.067423
4345	1.069641
4340	1.075625
4335	1.079344
4330	1.085495
4325	1.093864
4320	1.098966
4315	1.104640
4310	1.110100
4305	1.114940
4300	1.119637
4295	1.123666
4290	1.129007
4285	1.134538
4280	1.138758
4275	1.143717
4270	1.147699
4265	1.150584
4260	1.155734
4255	1.161193
4250	1.165604
4245	1.167058
4240	1.169896
4235	1.176500
4230	1.180982
4225	1.182413
4220	1.184272
4215	1.185345
4210	1.186513
4205	1.192355
4200	1.196765
4195	1.195216
4190	1.195597
4185	1.200437
4180	1.204872
4175	1.205420
4170	1.205778
4165	1.211023
4160	1.216125
4155	1.219916
4150	1.222872
4145	1.225948
4140	1.229333
4135	1.231575
4130	1.235294
4125	1.239538
4120	1.243233
4115	1.247525
4110	1.253461
4105	1.257491
4100	1.263475
4095	1.269435
4090	1.276397
4085	1.283693
4080	1.288509
4075	1.292419
4070	1.299905
4065	1.308846
4060	1.315546
4055	1.322460
4050	1.328921
4045	1.334667
4040	1.342701
4035	1.349639
4030	1.354813
4025	1.361012
4020	1.366829
4015	1.373577
4010	1.380109
4005	1.385045
4000	1.387572
3995	1.389312
3990	1.393961
3985	1.399898
3980	1.402688
3975	1.404166
3970	1.406502
3965	1.409912
3960	1.412177
3955	1.413369
3950	1.416540
3945	1.420521
3940	1.423382
3935	1.425027
3930	1.426029
3925	1.428484
3920	1.428484
3915	1.429986
3910	1.433372
3905	1.430416
3900	1.432490
3895	1.439619
3890	1.440787
3885	1.440668
3880	1.443791
3875	1.445174
3870	1.447629
3865	1.454615
3860	1.457762
3855	1.453018
3850	1.462173
3845	1.469802
3840	1.467132
3835	1.474690
3830	1.486015
3825	1.490259
3820	1.492881
3815	1.501846
3810	1.509094
3805	1.506924
3800	1.511597
3795	1.524949
3790	1.532077
3785	1.535344
3780	1.541304
3775	1.546573
3770	1.547431
3765	1.549363
3760	1.551389
3755	1.547408
3750	1.542019
3745	1.545047
3740	1.554608
3735	1.557540
3730	1.562666
3725	1.569008
3720	1.571393
3715	1.569676
3710	1.569843
3705	1.573681
3700	1.577830
3695	1.577448
3690	1.570057
3685	1.571965
3680	1.571941
3675	1.564884
3670	1.568460
3665	1.577997
3660	1.579380
3655	1.573848
3650	1.569366
3645	1.575255
3640	1.581406
3635	1.580166
3630	1.577782
3625	1.582598
3620	1.583623
3615	1.583528
3610	1.588082
3605	1.592230
3600	1.593422
3595	1.594614
3590	1.596832
3585	1.601290
3580	1.605677
3575	1.605653
3570	1.604652
3565	1.608753
3560	1.615691
3555	1.619362
3550	1.620173
3545	1.621246
3540	1.621961
3535	1.622319
3530	1.622271
3525	1.621985
3520	1.623201
3515	1.625084
3510	1.625108
3505	1.622080
3500	1.618957
3495	1.615905
3490	1.614189
3485	1.613521
3480	1.610803
3475	1.608252
3470	1.605296
3465	1.602554
3460	1.600289
3455	1.596570
3450	1.593685
3445	1.590156
3440	1.584696
3435	1.581716
3430	1.581597
3425	1.581668
3420	1.585173
3415	1.587796
3410	1.588678
3405	1.591300
3400	1.594972
3395	1.598501
3390	1.600813
3385	1.604700
3380	1.608204
3375	1.611614
3370	1.617169
3365	1.622390
3360	1.630449
3355	1.640653
3350	1.646208
3345	1.652240
3340	1.658463
3335	1.664447
3330	1.674056
3325	1.684737
3320	1.690745
3315	1.695632
3310	1.701450
3305	1.708173
3300	1.716208
3295	1.723194
3290	1.727461
3285	1.732826
3280	1.740193
3275	1.747369
3270	1.754784
3265	1.758098
3260	1.760029
3255	1.763272
3250	1.766681
3245	1.771092
3240	1.775193
3235	1.776933
3230	1.780319
3225	1.783585
3220	1.784300
3215	1.784896
3210	1.785087
3205	1.785159
3200	1.785063
3195	1.786184
3190	1.788115
3185	1.789808
3180	1.791596
3175	1.792383
3170	1.793146
3165	1.797580
3160	1.801204
3155	1.802825
3150	1.805853
3145	1.809906
3140	1.815629
3135	1.824021
3130	1.831412
3125	1.834535
3120	1.838612
3115	1.846194
3110	1.853799
3105	1.861429
3100	1.870441
3095	1.881122
3090	1.890563
3085	1.900029
3080	1.908707
3075	1.915693
3070	1.921176
3065	1.926159
3060	1.935887
3055	1.945996
3050	1.954293
3045	1.959776
3040	1.963877
3035	1.966166
3030	1.966285
3025	1.959395
3020	1.952052
3015	1.961326
3010	1.985192
3005	2.006316
3000	2.017760
2995	2.023386
2990	2.024984
2985	2.021956
2980	2.012491
2975	1.996207
2970	1.969981
2965	1.940965
2960	1.925206
2955	1.921772
2950	1.914834
2945	1.892423
2940	1.850247
2935	1.805901
2930	1.773428
2925	1.764941
2920	1.802039
2915	1.864004
2910	1.911830
2905	1.941680
2900	1.962041
2895	1.977419
2890	1.990818
2885	2.002024
2880	2.007436
2875	1.998186
2870	1.967334
2865	1.922631
2860	1.904678
2855	1.933336
2850	1.982116
2845	2.029514
2840	2.066874
2835	2.091979
2830	2.109241
2825	2.122044
2820	2.134585
2815	2.148222
2810	2.158737
2805	2.166724
2800	2.175116
2795	2.182626
2790	2.190756
2785	2.200078
2780	2.210021
2775	2.219223
2770	2.228260
2765	2.235889
2760	2.239918
2755	2.243661
2750	2.248024
2745	2.249574
2740	2.251458
2735	2.252602
2730	2.252483
2725	2.252674
2720	2.252626
2715	2.251601
2710	2.249050
2705	2.246189
2700	2.243328
2695	2.243137
2690	2.244687
2685	2.242231
2680	2.237319
2675	2.234768
2670	2.231597
2665	2.226853
2660	2.224230
2655	2.223157
2650	2.222847
2645	2.222609
2640	2.222061
2635	2.221417
2630	2.221894
2625	2.221465
2620	2.220535
2615	2.221441
2610	2.223634
2605	2.225065
2600	2.226352
2595	2.228760
2590	2.233147
2585	2.237272
2580	2.244424
2575	2.253460
2570	2.260708
2565	2.266955
2560	2.271461
2555	2.276468
2550	2.283740
2545	2.290749
2540	2.295494
2535	2.299594
2530	2.304291
2525	2.308964
2520	2.312493
2515	2.315640
2510	2.318835
2505	2.320814
2500	2.321195
2495	2.322602
2490	2.323412
2485	2.322173
2480	2.319955
2475	2.317237
2470	2.313208
2465	2.309608
2460	2.306842
2455	2.303647
2450	2.299761
2445	2.293872
2440	2.288174
2435	2.283191
2430	2.278256
2425	2.274441
2420	2.271866
2415	2.267217
2410	2.262949
2405	2.258157
2400	2.254414
2395	2.251768
2390	2.250766
2385	2.250146
2380	2.247023
2375	2.242255
2370	2.236866
2365	2.234125
2360	2.237725
2355	2.247309
2350	2.258729
2345	2.263641
2340	2.265691
2335	2.271437
2330	2.278494
2325	2.287149
2320	2.297782
2315	2.307629
2310	2.316236
2305	2.325606
2300	2.332806
2295	2.339267
2290	2.346444
2285	2.352404
2280	2.357053
2275	2.361869
2270	2.365493
2265	2.367615
2260	2.371239
2255	2.374720
2250	2.375912
2245	2.374529
2240	2.374053
2235	2.374172
2230	2.373385
2225	2.371788
2220	2.369666
2215	2.365779
2210	2.362561
2205	2.360486
2200	2.356648
2195	2.352166
2190	2.347540
2185	2.343440
2180	2.340364
2175	2.337074
2170	2.333426
2165	2.330040
2160	2.328801
2155	2.329778
2150	2.331686
2145	2.331924
2140	2.331352
2135	2.330851
2130	2.330923
2125	2.332115
2120	2.333140
2115	2.333092
2110	2.333688
2105	2.334260
2100	2.332901
2095	2.332592
2090	2.333474
2085	2.336406
2080	2.341651
2075	2.346992
2070	2.353906
2065	2.363777
2060	2.374911
2055	2.385306
2050	2.394914
2045	2.405667
2040	2.414584
2035	2.422952
2030	2.429509
2025	2.434563
2020	2.438521
2015	2.441000
2010	2.443432
2005	2.446317
2000	2.447628
1995	2.446126
1990	2.444815
1985	2.444553
1980	2.441215
1975	2.437019
1970	2.432632
1965	2.427530
1960	2.423548
1955	2.420711
1950	2.415728
1945	2.410316
1940	2.407598
1935	2.404403
1930	2.398705
1925	2.390456
1920	2.384066
1915	2.380871
1910	2.376627
1905	2.370882
1900	2.365779
1895	2.362895
1890	2.360892
1885	2.363348
1880	2.367758
1875	2.367758
1870	2.367281
1865	2.371907
1860	2.376532
1855	2.381801
1850	2.384710
1845	2.384757
1840	2.391600
1835	2.396273
1830	2.396416
1825	2.401423
1820	2.408576
1815	2.413392
1810	2.415490
1805	2.417802
1800	2.419257
1795	2.416729
1790	2.416920
1785	2.418422
1780	2.415800
1775	2.406573
1770	2.400374
1765	2.401638
1760	2.397131
1755	2.385973
1750	2.371835
1745	2.357625
1740	2.335619
1735	2.315211
1730	2.314567
1725	2.315568
1720	2.300405
1715	2.290344
1710	2.288508
1705	2.271127
1700	2.246236
1695	2.244329
1690	2.247428
1685	2.233743
1680	2.231502
1675	2.225375
1670	2.215337
1665	2.207732
1660	2.194905
1655	2.167558
1650	2.154541
1645	2.154874
1640	2.145481
1635	2.131652
1630	2.123451
1625	2.102684
1620	2.066254
1615	2.018141
1610	1.973986
1605	1.964378
1600	1.985144
1595	2.003431
1590	2.008056
1585	2.000856
1580	1.984620
1575	1.973938
1570	1.970386
1565	1.950240
1560	1.920366
1555	1.926660
1550	1.946878
1545	1.947021
1540	1.971292
1535	2.038526
1530	2.089285
1525	2.102184
1520	2.099299
1515	2.092432
1510	2.069377
1505	2.008676
1500	1.844358
1495	1.675748
1490	1.722478
1485	1.872849
1480	1.954269
1475	1.968574
1470	1.963925
1465	1.938629
1460	1.872324
1455	1.782774
1450	1.759576
1445	1.815485
1440	1.852154
1435	1.860499
1430	1.866722
1425	1.862549
1420	1.848864
1415	1.831340
1410	1.787734
1405	1.730513
1400	1.725983
1395	1.765489
1390	1.784205
1385	1.779007
1380	1.790571
1375	1.804423
1370	1.809787
1365	1.810693
1360	1.810646
1355	1.810598
1350	1.807641
1345	1.803851
1340	1.806664
1335	1.820755
1330	1.834702
1325	1.842451
1320	1.846528
1315	1.848268
1310	1.848888
1305	1.847958
1300	1.847410
1295	1.848268
1290	1.847648
1285	1.846385
1280	1.840782
1275	1.821208
1270	1.778411
1265	1.723241
1260	1.713538
1255	1.761388
1250	1.805639
1245	1.823592
1240	1.828193
1235	1.825952
1230	1.821422
1225	1.812481
1220	1.795387
1215	1.769733
1210	1.747226
1205	1.737952
1200	1.737976
1195	1.738023
1190	1.731967
1185	1.719689
1180	1.705598
1175	1.690888
1170	1.670885
1165	1.647639
1160	1.625347
1155	1.612019
1150	1.603603
1145	1.594328
1140	1.584005
1135	1.567769
1130	1.545929
1125	1.520776
1120	1.494884
1115	1.467323
1110	1.443076
1105	1.428818
1100	1.421976
1095	1.419019
1090	1.420331
1085	1.422619
1080	1.421427
1075	1.421594
1070	1.428794
1065	1.432609
1060	1.416039
1055	1.349830
1050	1.294779
1045	1.330566
1040	1.372766
1035	1.377058
1030	1.367616
1025	1.357746
1020	1.355171
1015	1.362681
1010	1.376152
1005	1.388072
1000	1.392793
995	 1.390337
990	 1.385831
985	 1.379632
980	 1.370596
975	 1.359653
970	 1.345467
965	 1.327872
960	 1.309609
955	 1.292419
950	 1.277446
945	 1.264190
940	 1.254701
935	 1.243543
930	 1.232814
925	 1.222634
920	 1.209831
915	 1.192712
910	 1.173424
905	 1.157593
900	 1.148891
895	 1.143002
890	 1.128888
885	 1.094460
880	 1.046133
875	 1.022410
870	 1.042985
865	 1.075935
860	 1.091408
855	 1.090025
850	 1.079320
845	 1.072859
840	 1.056575
835	 1.006293
830	 0.921678
825	 0.851130
820	 0.868701
815	 0.923156
810	 0.945782
805	 0.942349
800	 0.938105
795	 0.946688
790	 0.960922
785	 0.972747
780	 0.976562
775	 0.972580
770	 0.966811
765	 0.962305
760	 0.958204
755	 0.952434
750	 0.946021
745	 0.937771
740	 0.928688
735	 0.918006
730	 0.904893
725	 0.890040
720	 0.874423
715	 0.859761
710	 0.845503
705	 0.830912
700	 0.810790
695	 0.779628
690	 0.742626
685	 0.728201
680	 0.731801
675	 0.727367
670	 0.715970
665	 0.704431
660	 0.692749
655	 0.680589
650	 0.667452
645	 0.653815
640	 0.642132
635	 0.628113
630	 0.613832
625	 0.601792
620	 0.587677
615	 0.567960
610	 0.542640
605	 0.522994
600	 0.519704
595	 0.517964
590	 0.511455
585	 0.505447
580	 0.501871
575	 0.497436
570	 0.491762
565	 0.485348
560	 0.476837
555	 0.467634
550	 0.459289
545	 0.452160
540	 0.443315
535	 0.433182
530	 0.422692
525	 0.410246
520	 0.397729
515	 0.386428
510	 0.375151
505	 0.362420
500	 0.346088
495	 0.327992
490	 0.311732
485	 0.294446
480	 0.276112
475	 0.259780
470	 0.245213
465	 0.229907
460	 0.211477
455	 0.192070
450	 0.175857
445	 0.163078
440	 0.149965
435	 0.135326
430	 0.119090
425	 0.102734
420	 0.087475
415	 0.072741
410	 0.060200
405	 0.051140
400	 0.040960
395	 0.030708
390	 0.023293
385	 0.017881
380	 0.011801
375	 0.008106
370	 0.006937