File: Bakgrunnsmateriale/MATLAB/FTIR/ftir_data/subBb/Mapping_36/C-4040-8_t09_cm-1.asc
PE IR       SPECTRUM    SPECTRUM    ASCII       PEDS        1.60
  -1
C-99E0~1.ASC
17/05/02
11:32:51.00
17/05/02
11:32:51.00
tln
$C-4040-8_t0009$<tbV0>[2.5,-8.0,8.0,0.0,22,1,0]
370
64

2002,4.07
MIRTGS : RIGHTBACK : INTERNAL 2
MIR : ON : INTERNAL 2
OPTKBR

0.200000
8
8.000000
FILLER
RATIO
SPECTRUM
UNLOCKED 256

DOUBLE
64
COMBINED
1
0
0

1.000000
RATIO

1
0
TRUE
51149
0
LEFT NOT FITTED RIGHT NOT FITTED 0
NONE
NONE
15600
12
4.427000
51148
TRUE
1 0 8 72 0 0 0 0

15798

#HDR
-1
-1
#GR
CM-1
%T
2.38419e-05
0.0
7800
-1.000000
7431
8
79.5861
23.9281
#DATA
7800	71.1286
7795	68.8673
7790	61.8606
7785	62.7774
7780	66.7686
7775	70.1803
7770	70.6596
7765	68.0887
7760	74.1099
7755	79.5861
7750	70.5894
7745	63.9074
7740	69.2346
7735	70.5078
7730	65.8826
7725	62.2878
7720	62.2902
7715	62.1177
7710	61.5126
7705	62.8453
7700	65.9906
7695	66.9883
7690	64.8259
7685	63.3912
7680	67.4779
7675	66.4549
7670	62.4398
7665	62.0389
7660	64.7191
7655	65.1701
7650	63.1018
7645	63.215
7640	69.4447
7635	72.0401
7630	68.5961
7625	67.1341
7620	64.59
7615	61.2891
7610	62.6521
7605	63.9277
7600	62.5635
7595	61.529
7590	64.9282
7585	67.6819
7580	66.2844
7575	66.026
7570	68.4371
7565	71.018
7560	67.8021
7555	63.5785
7550	61.8765
7545	64.2832
7540	68.2894
7535	62.8915
7530	61.1423
7525	61.5705
7520	64.3142
7515	66.844
7510	63.2144
7505	61.1117
7500	61.7633
7495	61.2309
7490	62.6253
7485	64.4467
7480	63.5598
7475	61.4671
7470	61.6113
7465	62.5748
7460	62.0312
7455	61.6345
7450	61.8457
7445	64.3118
7440	64.7015
7435	64.0272
7430	67.7901
7425	68.4299
7420	65.3087
7415	65.7465
7410	69.5188
7405	69.4392
7400	68.4268
7395	67.4385
7390	65.2054
7385	63.9809
7380	63.2176
7375	62.9384
7370	64.5773
7365	68.4125
7360	68.0895
7355	66.8827
7350	64.1813
7345	62.1327
7340	65.7117
7335	66.0401
7330	63.1088
7325	62.6946
7320	63.0048
7315	62.7311
7310	64.7349
7305	62.94
7300	62.3104
7295	63.7944
7290	64.7848
7285	64.6225
7280	63.3552
7275	65.764
7270	67.2035
7265	64.3055
7260	62.6133
7255	64.1387
7250	65.22
7245	63.1444
7240	62.2581
7235	63.6877
7230	63.3239
7225	64.5536
7220	65.8846
7215	66.0505
7210	64.6455
7205	62.7464
7200	63.328
7195	67.2823
7190	67.0572
7185	63.702
7180	63.5122
7175	63.7053
7170	62.1434
7165	60.1754
7160	60.4963
7155	63.0992
7150	62.7197
7145	63.2576
7140	63.2198
7135	63.1453
7130	63.0904
7125	62.5954
7120	62.2563
7115	62.9796
7110	64.5485
7105	63.9991
7100	64.0156
7095	62.7621
7090	61.1847
7085	61.6416
7080	60.7166
7075	61.852
7070	63.0616
7065	62.2392
7060	62.2977
7055	61.3251
7050	61.7736
7045	62.4112
7040	61.5054
7035	61.9904
7030	64.4194
7025	62.3765
7020	62.6879
7015	61.1751
7010	58.7093
7005	60.6241
7000	63.2674
6995	62.2175
6990	62.1534
6985	63.4292
6980	63.2637
6975	63.8183
6970	63.9752
6965	61.8729
6960	60.5976
6955	61.1107
6950	61.873
6945	62.1179
6940	63.2327
6935	64.4688
6930	64.1316
6925	62.8897
6920	62.4653
6915	62.5729
6910	62.4678
6905	61.7642
6900	62.3914
6895	62.7751
6890	62.0285
6885	62.3065
6880	62.0488
6875	62.1123
6870	63.1806
6865	63.937
6860	63.9885
6855	63.6636
6850	62.8167
6845	63.1897
6840	63.3054
6835	64.2674
6830	65.5425
6825	65.0097
6820	64.4174
6815	63.3027
6810	62.1206
6805	63.0331
6800	63.7281
6795	63.5492
6790	63.1967
6785	63.5988
6780	63.5181
6775	62.9055
6770	62.7977
6765	62.867
6760	63.1962
6755	64.1831
6750	62.6786
6745	61.3131
6740	61.4053
6735	61.5559
6730	62.229
6725	63.6476
6720	64.5746
6715	63.2593
6710	62.0909
6705	62.0791
6700	63.1492
6695	64.2936
6690	63.9404
6685	64.3999
6680	64.1353
6675	62.953
6670	63.4676
6665	63.3202
6660	61.4178
6655	60.8263
6650	61.9375
6645	62.0739
6640	62.8891
6635	64.4328
6630	61.9906
6625	61.8031
6620	63.3369
6615	62.9679
6610	62.8455
6605	63.9784
6600	63.4227
6595	63.1746
6590	63.8081
6585	62.6414
6580	62.5561
6575	63.7693
6570	63.49
6565	62.1162
6560	62.6696
6555	62.84
6550	63.0497
6545	63.2741
6540	62.9541
6535	63.1034
6530	61.7638
6525	61.3891
6520	62.5859
6515	63.4366
6510	62.7646
6505	61.7982
6500	62.7556
6495	64.7624
6490	64.2661
6485	63.3766
6480	64.3053
6475	64.0646
6470	63.1229
6465	63.3212
6460	64.2772
6455	64.8246
6450	64.1879
6445	64.1602
6440	64.3469
6435	63.1771
6430	62.454
6425	63.238
6420	62.9809
6415	63.0363
6410	63.8983
6405	62.5485
6400	61.4422
6395	62.6219
6390	63.1458
6385	62.975
6380	63.1366
6375	63.7466
6370	63.9608
6365	63.8678
6360	63.1377
6355	62.8105
6350	63.3407
6345	63.1506
6340	62.3983
6335	61.8457
6330	62.6346
6325	63.6325
6320	62.7749
6315	62.3203
6310	62.8288
6305	62.4151
6300	61.9344
6295	62.8639
6290	64.146
6285	64.2477
6280	63.8615
6275	64.085
6270	63.6387
6265	63.2901
6260	63.872
6255	63.4946
6250	63.1192
6245	62.9459
6240	62.9426
6235	63.131
6230	64.0914
6225	64.2176
6220	63.5543
6215	63.5802
6210	63.6616
6205	63.8185
6200	63.9959
6195	63.5457
6190	63.0341
6185	62.7642
6180	63.122
6175	63.3943
6170	64.1549
6165	64.2761
6160	63.8222
6155	63.6625
6150	63.133
6145	63.1571
6140	63.696
6135	63.5068
6130	62.8944
6125	62.1557
6120	62.7456
6115	63.2345
6110	62.7789
6105	62.8745
6100	63.7702
6095	64.3483
6090	63.8796
6085	63.311
6080	63.3265
6075	63.3843
6070	63.8316
6065	64.3862
6060	64.0456
6055	63.4495
6050	63.5306
6045	63.8513
6040	63.2238
6035	63.0481
6030	63.844
6025	64.1076
6020	63.5901
6015	63.1397
6010	62.9813
6005	62.9978
6000	63.2624
5995	63.9283
5990	63.7626
5985	62.8638
5980	63.1369
5975	63.3986
5970	63.1186
5965	63.6349
5960	63.6847
5955	63.4479
5950	63.435
5945	63.5387
5940	63.405
5935	62.9909
5930	62.7222
5925	62.7539
5920	63.5342
5915	64.458
5910	64.4397
5905	63.0214
5900	62.9747
5895	63.8622
5890	63.9655
5885	63.8781
5880	63.6289
5875	63.4639
5870	64.0751
5865	64.5518
5860	64.2052
5855	64.1626
5850	64.2597
5845	63.6639
5840	63.732
5835	64.0368
5830	63.5274
5825	63.5187
5820	63.8563
5815	63.5664
5810	63.3902
5805	64.2001
5800	64.1721
5795	63.3836
5790	63.2066
5785	63.9233
5780	64.0259
5775	63.5434
5770	64.0258
5765	64.303
5760	63.6456
5755	63.1904
5750	63.6174
5745	63.7036
5740	63.7774
5735	63.8503
5730	63.645
5725	63.5
5720	63.4882
5715	63.8038
5710	63.8978
5705	63.7125
5700	63.6556
5695	63.5006
5690	63.5505
5685	63.5936
5680	63.6589
5675	64.0719
5670	64.0775
5665	63.5222
5660	63.377
5655	63.7472
5650	63.7208
5645	63.4629
5640	63.6084
5635	63.64
5630	63.7652
5625	63.5696
5620	63.0367
5615	62.6888
5610	63.1654
5605	63.7955
5600	64.1083
5595	63.5464
5590	63.0413
5585	63.3468
5580	63.9984
5575	64.1963
5570	64.4988
5565	64.6229
5560	63.8098
5555	63.5999
5550	63.7176
5545	63.3043
5540	63.6042
5535	63.6961
5530	63.317
5525	63.5162
5520	64.4211
5515	64.2484
5510	63.4206
5505	63.279
5500	64.0487
5495	64.2457
5490	64.4307
5485	64.7232
5480	64.6061
5475	64.1262
5470	63.6167
5465	63.3547
5460	63.5315
5455	63.6852
5450	63.9776
5445	64.0369
5440	63.6948
5435	63.5228
5430	63.1115
5425	62.5658
5420	62.9813
5415	63.3363
5410	63.4064
5405	62.9848
5400	62.8561
5395	63.2617
5390	63.4797
5385	63.485
5380	63.4957
5375	63.9885
5370	64.0438
5365	63.9167
5360	64.3137
5355	64.2057
5350	63.58
5345	63.434
5340	63.4679
5335	63.2935
5330	63.8531
5325	63.6133
5320	63.6182
5315	63.8877
5310	64.6731
5305	64.5359
5300	63.9749
5295	63.0655
5290	62.2189
5285	63.0286
5280	63.4561
5275	63.2354
5270	63.092
5265	64.589
5260	66.4794
5255	64.4952
5250	62.4929
5245	62.4035
5240	61.3031
5235	61.1205
5230	62.2766
5225	63.1797
5220	64.2917
5215	64.3594
5210	64.2377
5205	64.7799
5200	64.9313
5195	63.4995
5190	62.6572
5185	63.274
5180	64.452
5175	64.7079
5170	63.8668
5165	62.9622
5160	63.116
5155	63.2311
5150	63.4916
5145	64.0995
5140	64.045
5135	63.4646
5130	63.1594
5125	63.626
5120	63.9743
5115	63.6643
5110	63.2932
5105	62.9601
5100	63.3304
5095	63.8451
5090	63.8832
5085	63.6185
5080	63.7523
5075	63.7752
5070	63.692
5065	64.0668
5060	64.2588
5055	64.064
5050	63.781
5045	63.7595
5040	63.767
5035	63.7933
5030	63.9904
5025	64.281
5020	64.1945
5015	63.9734
5010	63.9375
5005	63.9072
5000	64.0185
4995	64.1033
4990	63.9966
4985	63.714
4980	63.4657
4975	63.5367
4970	63.5946
4965	63.3377
4960	63.3264
4955	63.6564
4950	63.9197
4945	64.008
4940	63.9437
4935	63.8331
4930	63.6822
4925	63.5606
4920	63.5154
4915	63.5412
4910	63.6638
4905	63.7322
4900	63.6885
4895	63.6405
4890	63.9397
4885	64.241
4880	64.0732
4875	63.8654
4870	63.6863
4865	63.6283
4860	63.7668
4855	63.5934
4850	63.5954
4845	63.5116
4840	63.3479
4835	63.6251
4830	63.788
4825	63.6672
4820	63.6518
4815	63.6066
4810	63.6821
4805	63.5751
4800	63.5097
4795	63.514
4790	63.5211
4785	63.7182
4780	63.7083
4775	63.551
4770	63.5795
4765	63.6859
4760	63.4446
4755	63.4138
4750	63.6165
4745	63.6308
4740	63.7559
4735	63.9765
4730	63.8643
4725	63.6534
4720	63.6047
4715	63.4105
4710	63.1849
4705	63.4415
4700	64.036
4695	64.3464
4690	64.082
4685	63.7038
4680	63.46
4675	63.5832
4670	63.7999
4665	63.763
4660	63.6776
4655	63.671
4650	63.4808
4645	63.0553
4640	63.0903
4635	63.2815
4630	63.4775
4625	63.5837
4620	63.5496
4615	63.4075
4610	63.3733
4605	63.5824
4600	63.622
4595	63.5177
4590	63.5863
4585	63.7812
4580	63.8329
4575	63.5943
4570	63.4657
4565	63.4799
4560	63.2142
4555	63.3234
4550	63.6822
4545	63.4864
4540	63.3376
4535	63.2031
4530	63.2133
4525	63.3308
4520	63.2923
4515	63.0432
4510	63.1529
4505	63.3117
4500	63.5466
4495	63.4621
4490	63.3221
4485	63.4946
4480	63.4441
4475	63.2298
4470	63.4333
4465	63.6582
4460	63.656
4455	63.8769
4450	63.6386
4445	63.0699
4440	63.3959
4435	63.6539
4430	63.1805
4425	63.1553
4420	63.329
4415	63.5625
4410	65.9708
4405	71.7752
4400	69.3376
4395	61.1742
4390	49.1685
4385	52.5561
4380	64.5839
4375	64.3444
4370	63.5913
4365	63.6299
4360	63.6903
4355	63.5694
4350	63.8859
4345	63.9249
4340	63.5424
4335	63.4573
4330	63.2984
4325	62.909
4320	62.9185
4315	62.8894
4310	62.9968
4305	63.023
4300	62.9836
4295	63.0877
4290	63.1621
4285	63.1656
4280	63.2339
4275	63.169
4270	62.8874
4265	62.6111
4260	62.7608
4255	62.9736
4250	63.0612
4245	63.0394
4240	62.9802
4235	62.7719
4230	62.6379
4225	62.8344
4220	63.0437
4215	63.2691
4210	63.3718
4205	63.1781
4200	62.9895
4195	63.0798
4190	63.1498
4185	63.0747
4180	63.1815
4175	63.3734
4170	63.3093
4165	63.0091
4160	62.8505
4155	62.7601
4150	62.7813
4145	62.8445
4140	62.8745
4135	62.804
4130	62.7775
4125	62.9637
4120	63.0001
4115	62.8259
4110	62.6961
4105	62.8404
4100	62.9892
4095	62.961
4090	62.8365
4085	62.7698
4080	62.6302
4075	62.7254
4070	62.7175
4065	62.6863
4060	62.7692
4055	62.6893
4050	62.7043
4045	62.7009
4040	62.6047
4035	62.6671
4030	62.6971
4025	62.6431
4020	62.6002
4015	62.4968
4010	62.5405
4005	62.6521
4000	62.7188
3995	62.7658
3990	62.6844
3985	62.6404
3980	62.6718
3975	62.7406
3970	62.7532
3965	62.6382
3960	62.6272
3955	62.7185
3950	62.6907
3945	62.527
3940	62.4476
3935	62.4052
3930	62.4718
3925	62.5694
3920	62.606
3915	62.6993
3910	62.6557
3905	62.5623
3900	62.5168
3895	62.5637
3890	62.4527
3885	62.3978
3880	62.4906
3875	62.4669
3870	62.4944
3865	62.4657
3860	62.3803
3855	62.4251
3850	62.4264
3845	62.7007
3840	62.8537
3835	62.4939
3830	62.2475
3825	62.3222
3820	62.3723
3815	62.3021
3810	62.2516
3805	62.3916
3800	62.442
3795	62.3637
3790	62.331
3785	62.3659
3780	62.2162
3775	61.9949
3770	62.0416
3765	62.2655
3760	62.4332
3755	62.402
3750	62.2465
3745	62.0427
3740	61.9794
3735	62.1384
3730	62.1584
3725	61.9802
3720	62.0452
3715	62.1598
3710	62.1724
3705	62.0832
3700	61.8855
3695	61.8547
3690	62.0012
3685	62.026
3680	62.0118
3675	62.0477
3670	61.9072
3665	61.7526
3660	61.773
3655	61.8892
3650	61.9491
3645	61.9331
3640	61.9506
3635	61.8238
3630	61.6684
3625	61.7257
3620	61.7753
3615	61.6744
3610	61.4856
3605	61.4451
3600	61.5696
3595	61.6651
3590	61.6255
3585	61.4893
3580	61.3677
3575	61.4348
3570	61.5271
3565	61.4998
3560	61.4368
3555	61.3066
3550	61.2691
3545	61.3402
3540	61.4709
3535	61.3193
3530	61.0757
3525	61.0646
3520	61.1149
3515	61.2629
3510	61.2663
3505	60.9512
3500	60.9955
3495	61.1713
3490	61.4294
3485	61.3763
3480	61.167
3475	61.1466
3470	61.1851
3465	61.3429
3460	61.3808
3455	61.1743
3450	61.0444
3445	61.1075
3440	61.1379
3435	61.1294
3430	61.0772
3425	61.0969
3420	61.0239
3415	60.9259
3410	60.9413
3405	60.9858
3400	61.0166
3395	60.96
3390	60.9188
3385	60.8284
3380	60.8053
3375	60.7906
3370	60.6338
3365	60.6339
3360	60.6311
3355	60.5279
3350	60.5966
3345	60.6798
3340	60.7546
3335	60.7568
3330	60.5542
3325	60.3264
3320	60.361
3315	60.5468
3310	60.6614
3305	60.5922
3300	60.5331
3295	60.5105
3290	60.4848
3285	60.4822
3280	60.3453
3275	60.2129
3270	60.1794
3265	60.1767
3260	60.1718
3255	60.2039
3250	60.257
3245	60.1265
3240	59.9194
3235	59.9268
3230	59.9303
3225	59.9616
3220	60.0283
3215	59.9219
3210	59.8663
3205	59.9467
3200	59.9812
3195	59.9877
3190	59.9367
3185	59.8938
3180	59.8935
3175	59.816
3170	59.8305
3165	59.7992
3160	59.7228
3155	59.7012
3150	59.7655
3145	59.7526
3140	59.6371
3135	59.4882
3130	59.4375
3125	59.4826
3120	59.4681
3115	59.4589
3110	59.4487
3105	59.4326
3100	59.4199
3095	59.3587
3090	59.3547
3085	59.3556
3080	59.2224
3075	59.1744
3070	59.3155
3065	59.3611
3060	59.1727
3055	59.0629
3050	59.0671
3045	59.0343
3040	58.9602
3035	58.9584
3030	59.0467
3025	59.0557
3020	59.0704
3015	58.9782
3010	58.8066
3005	58.7784
3000	58.8295
2995	58.7269
2990	58.7269
2985	58.7365
2980	58.6323
2975	58.5339
2970	58.5047
2965	58.4405
2960	58.3651
2955	58.2883
2950	58.3058
2945	58.2576
2940	58.1714
2935	58.0627
2930	58.0474
2925	58.0158
2920	57.883
2915	57.8813
2910	57.9693
2905	57.9895
2900	57.9533
2895	57.9337
2890	58.0073
2885	58.0219
2880	57.917
2875	57.8881
2870	57.955
2865	57.9453
2860	57.7945
2855	57.6536
2850	57.6655
2845	57.7329
2840	57.7038
2835	57.6626
2830	57.6087
2825	57.6223
2820	57.6335
2815	57.6045
2810	57.632
2805	57.6237
2800	57.569
2795	57.4972
2790	57.438
2785	57.455
2780	57.4638
2775	57.3758
2770	57.1719
2765	57.1315
2760	57.1634
2755	57.1173
2750	57.0916
2745	57.0851
2740	56.9781
2735	56.97
2730	57.0052
2725	57.045
2720	57.0405
2715	56.9126
2710	56.8588
2705	56.916
2700	56.9618
2695	56.8333
2690	56.6246
2685	56.5554
2680	56.5869
2675	56.6184
2670	56.5981
2665	56.5402
2660	56.4103
2655	56.3186
2650	56.2819
2645	56.2927
2640	56.2334
2635	56.1712
2630	56.1587
2625	56.2272
2620	56.3046
2615	56.2181
2610	56.0989
2605	56.1018
2600	56.0577
2595	56.0092
2590	55.9216
2585	55.8833
2580	55.8823
2575	55.7997
2570	55.7193
2565	55.7133
2560	55.6963
2555	55.6937
2550	55.705
2545	55.569
2540	55.4589
2535	55.4531
2530	55.4669
2525	55.4808
2520	55.4406
2515	55.353
2510	55.316
2505	55.3112
2500	55.2647
2495	55.1591
2490	55.075
2485	55.0761
2480	55.0624
2475	54.9793
2470	54.9758
2465	54.9549
2460	54.8905
2455	54.8275
2450	54.797
2445	54.7214
2440	54.6093
2435	54.6524
2430	54.6477
2425	54.499
2420	54.4513
2415	54.4723
2410	54.4319
2405	54.3866
2400	54.3324
2395	54.3567
2390	54.3591
2385	54.3077
2380	54.2648
2375	54.1938
2370	54.2091
2365	54.2062
2360	54.1095
2355	54.0462
2350	53.958
2345	53.9245
2340	53.916
2335	53.7963
2330	53.7658
2325	53.7949
2320	53.7639
2315	53.6937
2310	53.6062
2305	53.5132
2300	53.4775
2295	53.4873
2290	53.4671
2285	53.4126
2280	53.3903
2275	53.3395
2270	53.2753
2265	53.1955
2260	53.144
2255	53.0566
2250	52.9659
2245	53.0118
2240	53.0342
2235	52.9336
2230	52.8214
2225	52.8174
2220	52.7901
2215	52.7246
2210	52.6396
2205	52.5583
2200	52.4853
2195	52.4786
2190	52.4325
2185	52.3365
2180	52.2657
2175	52.274
2170	52.2474
2165	52.2311
2160	52.2259
2155	52.1029
2150	51.9847
2145	51.969
2140	51.9334
2135	51.9175
2130	51.9308
2125	51.8266
2120	51.6692
2115	51.6825
2110	51.753
2105	51.7195
2100	51.7001
2095	51.6485
2090	51.5388
2085	51.4531
2080	51.4165
2075	51.3639
2070	51.4356
2065	51.4018
2060	51.2558
2055	51.2115
2050	51.1767
2045	51.0401
2040	50.9809
2035	50.9524
2030	50.9258
2025	50.8537
2020	50.6988
2015	50.6656
2010	50.7267
2005	50.6711
2000	50.6489
1995	50.6395
1990	50.5292
1985	50.4007
1980	50.3973
1975	50.3974
1970	50.3282
1965	50.2603
1960	50.2011
1955	50.1669
1950	50.1132
1945	50.0453
1940	49.9587
1935	49.8269
1930	49.7854
1925	49.8341
1920	49.8172
1915	49.8061
1910	49.7432
1905	49.6318
1900	49.6153
1895	49.589
1890	49.494
1885	49.412
1880	49.3991
1875	49.4196
1870	49.4009
1865	49.3838
1860	49.3401
1855	49.1928
1850	49.083
1845	49.0687
1840	49.0186
1835	48.915
1830	48.8975
1825	48.8942
1820	48.8365
1815	48.7898
1810	48.798
1805	48.7437
1800	48.6593
1795	48.6398
1790	48.5642
1785	48.4705
1780	48.3997
1775	48.3784
1770	48.3539
1765	48.3164
1760	48.2239
1755	48.0966
1750	47.9801
1745	47.9213
1740	47.9195
1735	47.8365
1730	47.6957
1725	47.7097
1720	47.8003
1715	47.7265
1710	47.6074
1705	47.5793
1700	47.5596
1695	47.4943
1690	47.453
1685	47.437
1680	47.3658
1675	47.2669
1670	47.1829
1665	47.1673
1660	47.1756
1655	47.1208
1650	46.997
1645	46.9288
1640	46.9171
1635	46.8538
1630	46.7711
1625	46.7651
1620	46.7333
1615	46.661
1610	46.5964
1605	46.5832
1600	46.4717
1595	46.3433
1590	46.2808
1585	46.1747
1580	46.1357
1575	46.1273
1570	46.0891
1565	46.0204
1560	46.0205
1555	46.0194
1550	45.9075
1545	45.7946
1540	45.7597
1535	45.6835
1530	45.5782
1525	45.5677
1520	45.5549
1515	45.5181
1510	45.4899
1505	45.4214
1500	45.3236
1495	45.2433
1490	45.2131
1485	45.1273
1480	45.0588
1475	45.015
1470	44.8823
1465	44.9176
1460	44.9869
1455	44.935
1450	44.8647
1445	44.7919
1440	44.7652
1435	44.7091
1430	44.5962
1425	44.5199
1420	44.504
1415	44.5139
1410	44.453
1405	44.338
1400	44.3708
1395	44.3356
1390	44.242
1385	44.1632
1380	44.0192
1375	44.0069
1370	44.014
1365	43.9727
1360	43.8524
1355	43.7552
1350	43.6909
1345	43.661
1340	43.6717
1335	43.6582
1330	43.5285
1325	43.4412
1320	43.3937
1315	43.3292
1310	43.2645
1305	43.1984
1300	43.0901
1295	43.0755
1290	43.0086
1285	42.906
1280	42.846
1275	42.7943
1270	42.7833
1265	42.795
1260	42.7691
1255	42.6546
1250	42.5283
1245	42.539
1240	42.5298
1235	42.5262
1230	42.4173
1225	42.3539
1220	42.2775
1215	42.1641
1210	42.1889
1205	42.163
1200	42.0309
1195	42.0044
1190	41.9712
1185	41.8105
1180	41.696
1175	41.6621
1170	41.6822
1165	41.5708
1160	41.4022
1155	41.4058
1150	41.4973
1145	41.4176
1140	41.2401
1135	41.1803
1130	41.2479
1125	41.2024
1120	41.1545
1115	41.1469
1110	41.0891
1105	40.9452
1100	40.8581
1095	40.8777
1090	40.8854
1085	40.8365
1080	40.7572
1075	40.7969
1070	40.6267
1065	40.4993
1060	40.4713
1055	40.418
1050	40.4593
1045	40.4224
1040	40.2604
1035	40.1113
1030	40.1468
1025	40.1033
1020	39.9587
1015	39.9062
1010	39.8332
1005	39.729
1000	39.6576
995	 39.5462
990	 39.4083
985	 39.4791
980	 39.51
975	 39.4208
970	 39.3466
965	 39.2292
960	 39.0834
955	 38.9228
950	 38.9165
945	 39.0285
940	 39.0157
935	 39.0134
930	 39.1
925	 38.8039
920	 38.5634
915	 38.5761
910	 38.6702
905	 38.6227
900	 38.37
895	 37.9241
890	 37.8497
885	 38.0071
880	 38.6462
875	 38.8714
870	 38.1351
865	 37.5606
860	 37.515
855	 37.5632
850	 37.6395
845	 37.5411
840	 37.5112
835	 37.523
830	 36.992
825	 36.8952
820	 36.933
815	 36.8005
810	 36.7657
805	 36.7884
800	 36.7032
795	 36.6793
790	 36.6678
785	 36.408
780	 36.2045
775	 36.2701
770	 36.3234
765	 36.0796
760	 35.8711
755	 35.7115
750	 35.753
745	 35.7621
740	 35.3935
735	 35.0898
730	 34.9404
725	 34.7994
720	 34.7769
715	 34.7049
710	 34.6112
705	 34.3243
700	 34.1022
695	 34.2406
690	 34.1548
685	 33.9025
680	 33.9682
675	 34.0593
670	 34.1146
665	 33.9964
660	 33.6472
655	 33.3113
650	 33.2635
645	 33.2674
640	 33.0173
635	 32.744
630	 32.5117
625	 32.5183
620	 32.4817
615	 32.1505
610	 31.9548
605	 32.0372
600	 31.687
595	 31.2795
590	 31.4307
585	 31.4566
580	 30.9648
575	 30.8522
570	 30.7306
565	 30.4922
560	 30.3902
555	 30.4208
550	 30.0374
545	 29.6666
540	 29.7583
535	 29.6051
530	 29.242
525	 29.0357
520	 29.1054
515	 29.1358
510	 28.6374
505	 27.9102
500	 27.8549
495	 28.0628
490	 28.0324
485	 27.4532
480	 26.2642
475	 26.2387
470	 26.6086
465	 26.6187
460	 26.1827
455	 25.8656
450	 25.5535
445	 26.0713
440	 26.7411
435	 26.3351
430	 27.0834
425	 26.6988
420	 24.7138
415	 24.9895
410	 26.6249
405	 25.013
400	 24.0912
395	 26.5111
390	 26.7334
385	 24.0121
380	 29.7565
375	 53.6413
370	 77.9326