File: Bakgrunnsmateriale/MATLAB/FTIR/ftir_data/subBb/Mapping_36/C-4040-8_t17_cm-1.asc
PE IR       SPECTRUM    SPECTRUM    ASCII       PEDS        1.60
  -1
C-1AEF~1.ASC
17/05/02
12:17:20.00
17/05/02
12:17:20.00
tln
$C-4040-8_t0017$<tbV0>[-7.5,-3.0,8.0,0.0,22,1,0]
370
64

2002,4.07
MIRTGS : RIGHTBACK : INTERNAL 2
MIR : ON : INTERNAL 2
OPTKBR

0.200000
8
8.000000
FILLER
RATIO
SPECTRUM
UNLOCKED 256

DOUBLE
64
COMBINED
1
0
0

1.000000
RATIO

1
0
TRUE
51149
0
LEFT NOT FITTED RIGHT NOT FITTED 0
NONE
NONE
15600
12
4.427000
51148
TRUE
1 0 8 72 0 0 0 0

15798

#HDR
-1
-1
#GR
CM-1
%T
2.38419e-05
0.0
7800
-1.000000
7431
8
85.7463
46.2511
#DATA
7800	73.4895
7795	72.3517
7790	72.5437
7785	70.6362
7780	61.5028
7775	61.2606
7770	63.3052
7765	65.6348
7760	70.5361
7755	66.4817
7750	67.0016
7745	73.2592
7740	73.7675
7735	70.1421
7730	68.7523
7725	66.2298
7720	66.2594
7715	71.6541
7710	70.3634
7705	68.5833
7700	67.9496
7695	65.1971
7690	61.4975
7685	62.77
7680	66.0718
7675	68.5205
7670	67.4422
7665	64.0327
7660	63.1995
7655	68.9657
7650	73.1927
7645	69.7557
7640	67.8385
7635	68.4018
7630	69.5986
7625	69.0011
7620	67.8664
7615	67.675
7610	67.9951
7605	69.9828
7600	67.3553
7595	63.8417
7590	63.0426
7585	63.7474
7580	65.6113
7575	67.5665
7570	66.1016
7565	65.661
7560	68.3028
7555	67.5244
7550	65.667
7545	67.246
7540	67.8158
7535	65.8811
7530	66.9388
7525	69.2988
7520	69.1145
7515	66.3222
7510	62.804
7505	64.2672
7500	65.8574
7495	64.5843
7490	64.4633
7485	66.8187
7480	65.5864
7475	60.9947
7470	61.0201
7465	65.6779
7460	67.241
7455	66.4078
7450	67.6577
7445	67.933
7440	65.31
7435	64.0867
7430	64.1142
7425	66.8239
7420	69.0861
7415	67.2976
7410	67.5297
7405	69.3004
7400	65.7148
7395	63.1554
7390	65.7577
7385	68.6998
7380	68.8205
7375	67.0209
7370	66.7303
7365	66.4588
7360	65.6337
7355	66.4203
7350	68.6799
7345	66.1667
7340	62.7407
7335	62.5938
7330	64.0846
7325	67.0089
7320	67.2889
7315	63.4886
7310	61.0166
7305	63.7014
7300	65.2266
7295	62.9988
7290	61.535
7285	62.1948
7280	63.8607
7275	65.0624
7270	65.2187
7265	66.5585
7260	65.8791
7255	63.5664
7250	64.3998
7245	66.4239
7240	65.038
7235	63.1453
7230	63.055
7225	64.9733
7220	66.0351
7215	65.6185
7210	63.9057
7205	61.852
7200	62.7636
7195	63.2206
7190	63.5592
7185	64.2785
7180	65.11
7175	68.3143
7170	66.7626
7165	62.2184
7160	60.4354
7155	61.6933
7150	62.8448
7145	63.8766
7140	65.2605
7135	64.6075
7130	63.7118
7125	66.3456
7120	67.5459
7115	65.3721
7110	63.9313
7105	63.3294
7100	62.6665
7095	62.277
7090	62.1281
7085	62.7487
7080	64.6944
7075	64.1381
7070	62.8076
7065	65.7721
7060	67.7029
7055	65.2913
7050	62.384
7045	60.8909
7040	61.8792
7035	61.6987
7030	61.0073
7025	62.8369
7020	64.6016
7015	62.2904
7010	61.9438
7005	63.4811
7000	64.1031
6995	65.3061
6990	63.734
6985	62.5096
6980	63.645
6975	64.2625
6970	63.1512
6965	63.6514
6960	64.5848
6955	63.5134
6950	63.1112
6945	64.5521
6940	65.2761
6935	63.9521
6930	63.4357
6925	64.6746
6920	64.0096
6915	63.9892
6910	64.0324
6905	64.2239
6900	63.996
6895	63.0384
6890	63.8249
6885	65.1254
6880	65.6046
6875	65.3032
6870	64.9404
6865	64.9349
6860	64.3027
6855	63.2864
6850	63.7761
6845	64.7769
6840	63.6755
6835	63.3717
6830	65.4287
6825	66.0208
6820	64.3619
6815	62.6929
6810	62.8111
6805	64.2275
6800	64.5358
6795	64.149
6790	63.9808
6785	63.3502
6780	61.7173
6775	61.2157
6770	62.8217
6765	63.594
6760	64.2189
6755	64.5942
6750	62.6836
6745	62.5177
6740	64.0184
6735	63.5371
6730	63.2742
6725	63.8714
6720	64.2573
6715	63.9323
6710	63.9029
6705	63.2087
6700	63.7862
6695	64.4711
6690	64.3782
6685	63.8337
6680	62.6659
6675	62.3462
6670	62.7403
6665	62.8293
6660	62.6745
6655	62.7598
6650	63.91
6645	64.6152
6640	64.9027
6635	64.7714
6630	63.9211
6625	64.224
6620	65.8974
6615	65.2983
6610	65.0269
6605	66.0622
6600	65.1536
6595	65.6627
6590	65.0187
6585	63.9124
6580	63.9736
6575	62.8214
6570	63.4915
6565	64.8475
6560	65.4458
6555	65.9535
6550	65.1716
6545	64.9434
6540	65.5901
6535	66.0079
6530	66.2353
6525	65.6
6520	66.5727
6515	67.8548
6510	67.619
6505	66.332
6500	65.3898
6495	65.1405
6490	65.1858
6485	65.0602
6480	64.6521
6475	65.5305
6470	65.8222
6465	64.8901
6460	64.6835
6455	64.6545
6450	64.4124
6445	64.7862
6440	64.2262
6435	62.8933
6430	62.5736
6425	63.4104
6420	65.0269
6415	66.2147
6410	65.8607
6405	66.2138
6400	66.5559
6395	65.6815
6390	64.7117
6385	64.3626
6380	64.5803
6375	65.4697
6370	64.9139
6365	64.6527
6360	65.849
6355	66.5351
6350	66.2598
6345	65.3421
6340	64.52
6335	63.5871
6330	63.9873
6325	65.2323
6320	65.4375
6315	65.1774
6310	64.2202
6305	65.1268
6300	65.1846
6295	63.9782
6290	63.8442
6285	65.3768
6280	66.0533
6275	64.2543
6270	64.375
6265	64.7686
6260	63.7609
6255	63.6242
6250	64.6956
6245	65.8834
6240	65.7836
6235	64.487
6230	63.9074
6225	64.5317
6220	64.6611
6215	63.9597
6210	64.4108
6205	65.3496
6200	65.2884
6195	64.9567
6190	64.0684
6185	64.3938
6180	65.6891
6175	65.1057
6170	64.4859
6165	64.1452
6160	63.9381
6155	64.1693
6150	65.2796
6145	65.7229
6140	64.9292
6135	64.9348
6130	65.4823
6125	66.2494
6120	65.5623
6115	64.4984
6110	64.9965
6105	65.6241
6100	65.2045
6095	64.4512
6090	64.5153
6085	64.7182
6080	65.0195
6075	65.0911
6070	65.4602
6065	65.3589
6060	64.856
6055	64.9279
6050	64.8958
6045	64.9812
6040	65.1375
6035	65.2626
6030	65.214
6025	65.0245
6020	65.1686
6015	65.3837
6010	65.588
6005	65.4123
6000	65.1665
5995	65.067
5990	65.0533
5985	65.3656
5980	65.4559
5975	65.2897
5970	65.4147
5965	65.7683
5960	65.2679
5955	64.9826
5950	64.9073
5945	64.8004
5940	64.6849
5935	65.4239
5930	65.9074
5925	65.1093
5920	64.5882
5915	64.5731
5910	64.2185
5905	64.5862
5900	65.0838
5895	65.0732
5890	64.6726
5885	64.6304
5880	64.986
5875	65.0475
5870	64.8386
5865	64.9929
5860	65.6947
5855	65.4902
5850	65.2366
5845	65.4806
5840	65.4443
5835	64.6982
5830	64.0534
5825	64.4956
5820	65.0611
5815	64.9179
5810	64.4098
5805	64.8272
5800	64.7418
5795	64.2722
5790	64.4487
5785	64.9526
5780	65.1036
5775	65.0665
5770	64.9485
5765	64.3381
5760	63.9241
5755	64.4305
5750	64.8022
5745	64.9335
5740	65.0902
5735	65.1463
5730	65.1805
5725	65.3041
5720	64.7992
5715	64.3388
5710	64.3263
5705	64.4364
5700	64.88
5695	65.0532
5690	64.7165
5685	64.5374
5680	64.498
5675	64.9163
5670	65.0062
5665	64.4023
5660	63.7292
5655	64.0101
5650	65.0013
5645	65.1644
5640	64.8259
5635	64.1566
5630	64.5499
5625	65.5345
5620	65.3617
5615	65.0249
5610	64.9534
5605	64.9945
5600	64.7835
5595	64.8727
5590	64.8551
5585	64.5492
5580	64.0454
5575	64.6685
5570	65.6517
5565	65.3355
5560	64.5725
5555	64.8294
5550	65.0338
5545	65.3291
5540	66.0298
5535	66.2621
5530	66.0369
5525	65.6346
5520	65.1716
5515	65.1173
5510	64.7171
5505	64.1474
5500	64.5555
5495	65.2947
5490	65.0887
5485	64.2148
5480	64.4133
5475	64.6098
5470	64.4569
5465	64.3816
5460	64.9228
5455	65.4248
5450	65.4413
5445	65.4927
5440	65.359
5435	65.2513
5430	65.4292
5425	65.276
5420	65.0372
5415	64.8213
5410	64.6898
5405	64.4719
5400	64.9512
5395	65.475
5390	65.3655
5385	65.0182
5380	64.9968
5375	64.787
5370	63.5726
5365	63.3651
5360	64.9352
5355	65.0722
5350	63.7969
5345	63.6774
5340	64.942
5335	65.3187
5330	64.1136
5325	62.9619
5320	61.5431
5315	61.115
5310	61.3863
5305	62.7174
5300	65.4259
5295	65.0053
5290	62.8297
5285	62.4493
5280	64.2541
5275	65.931
5270	65.398
5265	63.9237
5260	64.5076
5255	66.2739
5250	66.8477
5245	66.6107
5240	65.5458
5235	64.5899
5230	64.9361
5225	65.0071
5220	65.1636
5215	64.8704
5210	64.4128
5205	64.9659
5200	64.8883
5195	64.5091
5190	64.6143
5185	64.6999
5180	65.1472
5175	65.1946
5170	64.8037
5165	64.6716
5160	64.8144
5155	64.5481
5150	64.6987
5145	65.4601
5140	65.4139
5135	64.9841
5130	64.5561
5125	64.9117
5120	65.4098
5115	65.1955
5110	64.9534
5105	64.8894
5100	64.7404
5095	64.9093
5090	65.1857
5085	65.2437
5080	65.0624
5075	64.9493
5070	65.0988
5065	65.1147
5060	65.1534
5055	65.2277
5050	65.1721
5045	65.0843
5040	64.7817
5035	64.8424
5030	65.057
5025	65.0648
5020	65.118
5015	65.1026
5010	64.8224
5005	64.8974
5000	65.4186
4995	65.2615
4990	64.6932
4985	64.8736
4980	65.2001
4975	65.0251
4970	64.7698
4965	64.8619
4960	64.8566
4955	64.7284
4950	64.9521
4945	65.3327
4940	64.9322
4935	64.4812
4930	64.4671
4925	64.6941
4920	65.202
4915	65.355
4910	65.1851
4905	65.0374
4900	65.0794
4895	65.1996
4890	65.0848
4885	65.3156
4880	65.6035
4875	65.2111
4870	65.0219
4865	64.9817
4860	64.7454
4855	64.7947
4850	64.6875
4845	64.6207
4840	64.8832
4835	65.0567
4830	65.0818
4825	65.1285
4820	64.9378
4815	64.5405
4810	64.5219
4805	64.8154
4800	64.8308
4795	64.794
4790	64.9317
4785	65.1242
4780	65.2317
4775	65.3826
4770	65.1772
4765	65.0689
4760	65.1773
4755	64.9804
4750	64.7555
4745	64.7343
4740	64.8988
4735	64.9751
4730	65.1634
4725	65.3165
4720	65.1591
4715	65.0389
4710	65.1361
4705	65.3628
4700	65.4757
4695	65.1856
4690	65.1833
4685	65.242
4680	65.0007
4675	64.9841
4670	65.0558
4665	65.2494
4660	65.349
4655	65.1435
4650	65.0004
4645	65.053
4640	65.3309
4635	65.3737
4630	65.3179
4625	65.2187
4620	65.0531
4615	65.2887
4610	65.4062
4605	65.3878
4600	65.1064
4595	64.8968
4590	65.0723
4585	65.1277
4580	65.1245
4575	65.0465
4570	65.0183
4565	65.1024
4560	65.0113
4555	64.8397
4550	64.7188
4545	64.859
4540	65.066
4535	65.0651
4530	64.8644
4525	64.6697
4520	64.9397
4515	65.0381
4510	64.678
4505	64.6323
4500	64.7836
4495	64.6122
4490	64.1547
4485	64.0213
4480	64.1798
4475	64.5758
4470	64.6717
4465	64.5049
4460	64.5899
4455	64.7982
4450	64.709
4445	64.5957
4440	64.5761
4435	64.7552
4430	64.5985
4425	64.2043
4420	63.8308
4415	64.046
4410	65.4165
4405	65.6158
4400	62.1395
4395	60.6376
4390	82.6095
4385	74.5095
4380	58.3508
4375	63.6584
4370	65.7315
4365	65.8326
4360	65.3347
4355	64.7667
4350	64.6482
4345	65.0554
4340	65.1906
4335	64.9058
4330	64.6681
4325	64.5798
4320	64.6396
4315	65.0254
4310	65.2077
4305	65.0954
4300	64.7839
4295	64.7158
4290	64.7083
4285	64.7946
4280	64.9422
4275	64.8764
4270	64.617
4265	64.8417
4260	65.1016
4255	64.9087
4250	64.7758
4245	64.9027
4240	65.0542
4235	64.8832
4230	64.7425
4225	64.9883
4220	64.982
4215	64.6706
4210	64.5365
4205	64.6499
4200	64.7354
4195	64.9593
4190	64.8793
4185	64.8412
4180	64.9263
4175	64.898
4170	65.0708
4165	65.1866
4160	65.0904
4155	64.79
4150	64.6636
4145	64.6966
4140	64.7908
4135	65.0761
4130	65.1253
4125	65.0305
4120	65.0446
4115	65.1637
4110	65.2309
4105	65.2737
4100	65.1645
4095	65.0738
4090	65.0648
4085	65.1362
4080	65.141
4075	65.0724
4070	65.2167
4065	65.3517
4060	65.2872
4055	65.1984
4050	65.2686
4045	65.2755
4040	65.2134
4035	65.3082
4030	65.5237
4025	65.5179
4020	65.4127
4015	65.4152
4010	65.3096
4005	65.2131
4000	65.2273
3995	65.1011
3990	65.0011
3985	65.0532
3980	65.3849
3975	65.4392
3970	65.1271
3965	65.2111
3960	65.3853
3955	65.1701
3950	65.0676
3945	65.2004
3940	65.3281
3935	65.3228
3930	65.2154
3925	65.1222
3920	65.1337
3915	65.0903
3910	65.0835
3905	65.0117
3900	65.1244
3895	65.409
3890	65.351
3885	65.2098
3880	65.2884
3875	65.2291
3870	65.0524
3865	64.9324
3860	65.0498
3855	65.2336
3850	65.3062
3845	65.2116
3840	65.0802
3835	65.11
3830	65.2599
3825	65.324
3820	65.0526
3815	64.8559
3810	64.8638
3805	64.7867
3800	64.8953
3795	65.1044
3790	65.2456
3785	65.1372
3780	65.162
3775	65.2173
3770	65.209
3765	65.1453
3760	65.0586
3755	65.1942
3750	65.2982
3745	65.1474
3740	65.0059
3735	65.0191
3730	64.9818
3725	65.0725
3720	65.2801
3715	65.295
3710	65.2791
3705	65.27
3700	65.2226
3695	65.2887
3690	65.3512
3685	65.265
3680	65.183
3675	65.182
3670	65.1958
3665	65.1648
3660	65.289
3655	65.3374
3650	65.2661
3645	65.2924
3640	65.4094
3635	65.3691
3630	65.2724
3625	65.2902
3620	65.3528
3615	65.3028
3610	65.267
3605	65.3722
3600	65.4092
3595	65.2774
3590	65.0809
3585	65.1312
3580	65.3524
3575	65.3495
3570	65.1051
3565	64.895
3560	65.0215
3555	65.3305
3550	65.4112
3545	65.313
3540	65.1734
3535	65.0914
3530	65.1107
3525	65.1408
3520	65.1057
3515	65.0514
3510	64.8942
3505	64.778
3500	64.8958
3495	65.0718
3490	65.1686
3485	65.0615
3480	65.1013
3475	65.2698
3470	65.2793
3465	65.2808
3460	65.0467
3455	64.9375
3450	65.1427
3445	65.2479
3440	65.2802
3435	65.3604
3430	65.3823
3425	65.3535
3420	65.2749
3415	65.0807
3410	65.0749
3405	65.1213
3400	65.2227
3395	65.2034
3390	65.1724
3385	65.2055
3380	65.2113
3375	65.1417
3370	65.1004
3365	65.1643
3360	65.1607
3355	65.2243
3350	65.2778
3345	65.2655
3340	65.2372
3335	65.1986
3330	65.1802
3325	65.1823
3320	65.1688
3315	65.2062
3310	65.2251
3305	65.1805
3300	65.0926
3295	65.0916
3290	65.1614
3285	65.2462
3280	65.2547
3275	65.2047
3270	65.132
3265	65.1621
3260	65.1951
3255	65.0391
3250	64.8892
3245	64.9872
3240	65.1504
3235	65.2623
3230	65.1997
3225	64.9778
3220	64.9
3215	65.0588
3210	65.1806
3205	65.1423
3200	65.1282
3195	65.2081
3190	65.2806
3185	65.2677
3180	65.2292
3175	65.101
3170	65.0761
3165	65.1744
3160	65.2153
3155	65.2295
3150	65.2271
3145	65.1522
3140	65.2328
3135	65.3003
3130	65.221
3125	65.1282
3120	65.0057
3115	65.1076
3110	65.1805
3105	65.1025
3100	65.1266
3095	65.2642
3090	65.3853
3085	65.3313
3080	65.2485
3075	65.2131
3070	65.2215
3065	65.2988
3060	65.3651
3055	65.3616
3050	65.3218
3045	65.2724
3040	65.2305
3035	65.1698
3030	65.1798
3025	65.2722
3020	65.2277
3015	65.1781
3010	65.1853
3005	65.1589
3000	65.165
2995	65.1745
2990	65.2233
2985	65.3106
2980	65.1596
2975	64.9592
2970	64.9642
2965	65.0529
2960	65.1603
2955	65.115
2950	65.0097
2945	65.0657
2940	65.1192
2935	65.0922
2930	65.0288
2925	64.8903
2920	64.8382
2915	64.8776
2910	64.9915
2905	65.1025
2900	65.1454
2895	65.1825
2890	65.1815
2885	65.0739
2880	65.1001
2875	65.1326
2870	65.1059
2865	65.1932
2860	65.2064
2855	65.0061
2850	64.8614
2845	64.9399
2840	65.0949
2835	65.1853
2830	65.263
2825	65.3016
2820	65.2846
2815	65.2841
2810	65.2974
2805	65.2892
2800	65.2517
2795	65.2757
2790	65.2858
2785	65.2411
2780	65.2158
2775	65.2406
2770	65.2676
2765	65.2154
2760	65.1518
2755	65.1861
2750	65.2538
2745	65.2915
2740	65.2927
2735	65.3494
2730	65.4047
2725	65.3071
2720	65.2663
2715	65.2395
2710	65.2346
2705	65.2848
2700	65.3095
2695	65.2703
2690	65.2105
2685	65.2503
2680	65.2596
2675	65.1976
2670	65.1668
2665	65.1563
2660	65.1459
2655	65.1446
2650	65.2005
2645	65.264
2640	65.3506
2635	65.3697
2630	65.3579
2625	65.3375
2620	65.2281
2615	65.1474
2610	65.1486
2605	65.2901
2600	65.3837
2595	65.3838
2590	65.4015
2585	65.3643
2580	65.2327
2575	65.238
2570	65.347
2565	65.3092
2560	65.2852
2555	65.3699
2550	65.3272
2545	65.2413
2540	65.2238
2535	65.2907
2530	65.3591
2525	65.2968
2520	65.1895
2515	65.2099
2510	65.3594
2505	65.2993
2500	65.239
2495	65.2481
2490	65.2778
2485	65.3145
2480	65.3728
2475	65.3647
2470	65.3054
2465	65.312
2460	65.3694
2455	65.2869
2450	65.2532
2445	65.3656
2440	65.4515
2435	65.4006
2430	65.3354
2425	65.312
2420	65.3529
2415	65.3859
2410	65.3262
2405	65.3118
2400	65.3416
2395	65.3429
2390	65.347
2385	65.3362
2380	65.3732
2375	65.4728
2370	65.4844
2365	65.3894
2360	65.3228
2355	65.3391
2350	65.3761
2345	65.3541
2340	65.3045
2335	65.2442
2330	65.1943
2325	65.1906
2320	65.2884
2315	65.3659
2310	65.312
2305	65.2026
2300	65.2426
2295	65.2974
2290	65.2432
2285	65.2433
2280	65.2837
2275	65.3297
2270	65.3379
2265	65.3618
2260	65.3551
2255	65.2968
2250	65.2611
2245	65.2881
2240	65.4269
2235	65.4229
2230	65.2739
2225	65.275
2220	65.3629
2215	65.3118
2210	65.3096
2205	65.3458
2200	65.3639
2195	65.3828
2190	65.4264
2185	65.3836
2180	65.2568
2175	65.2326
2170	65.2928
2165	65.344
2160	65.401
2155	65.4694
2150	65.4674
2145	65.3991
2140	65.2646
2135	65.1549
2130	65.1833
2125	65.235
2120	65.3074
2115	65.4131
2110	65.4171
2105	65.3286
2100	65.2792
2095	65.3125
2090	65.3478
2085	65.3177
2080	65.2854
2075	65.3442
2070	65.2738
2065	65.2018
2060	65.2935
2055	65.31
2050	65.2725
2045	65.3053
2040	65.3842
2035	65.386
2030	65.3008
2025	65.214
2020	65.1944
2015	65.2451
2010	65.2463
2005	65.2861
2000	65.2951
1995	65.229
1990	65.2631
1985	65.2741
1980	65.2501
1975	65.2524
1970	65.195
1965	65.2167
1960	65.3194
1955	65.2934
1950	65.2609
1945	65.318
1940	65.2792
1935	65.2021
1930	65.2642
1925	65.3013
1920	65.2811
1915	65.3076
1910	65.2611
1905	65.264
1900	65.3392
1895	65.3154
1890	65.2437
1885	65.2836
1880	65.3008
1875	65.2449
1870	65.2876
1865	65.2791
1860	65.2262
1855	65.2834
1850	65.3412
1845	65.3447
1840	65.3401
1835	65.3059
1830	65.3098
1825	65.2612
1820	65.2398
1815	65.258
1810	65.2864
1805	65.2136
1800	65.2114
1795	65.1712
1790	65.151
1785	65.2442
1780	65.3455
1775	65.3317
1770	65.2329
1765	65.2308
1760	65.2874
1755	65.2624
1750	65.2271
1745	65.255
1740	65.2302
1735	65.0887
1730	65.0294
1725	65.1492
1720	65.1586
1715	65.0994
1710	65.1851
1705	65.1938
1700	65.152
1695	65.1512
1690	65.1699
1685	65.1931
1680	65.2042
1675	65.1736
1670	65.2348
1665	65.2015
1660	65.0697
1655	65.0932
1650	65.2056
1645	65.2148
1640	65.1345
1635	65.1155
1630	65.18
1625	65.2319
1620	65.2242
1615	65.1362
1610	65.0147
1605	65.058
1600	65.1599
1595	65.1743
1590	65.1624
1585	65.1878
1580	65.2375
1575	65.1565
1570	65.0089
1565	64.994
1560	65.0829
1555	65.0195
1550	64.9748
1545	65.0417
1540	65.0852
1535	65.0951
1530	65.1273
1525	65.1373
1520	65.1538
1515	65.1654
1510	65.1101
1505	65.0481
1500	65.1632
1495	65.1282
1490	64.9934
1485	65.0139
1480	65.0996
1475	65.102
1470	65.1045
1465	65.134
1460	65.0666
1455	64.9405
1450	64.9531
1445	65.048
1440	65.076
1435	65.0569
1430	65.0695
1425	65.0466
1420	64.9488
1415	64.9903
1410	64.9593
1405	64.9908
1400	65.1055
1395	65.0349
1390	64.8954
1385	64.9636
1380	65.0809
1375	65.0669
1370	65.0067
1365	64.9887
1360	65.0218
1355	65.0355
1350	64.9906
1345	64.9735
1340	64.9497
1335	64.8886
1330	64.948
1325	65.002
1320	64.987
1315	65.009
1310	65.0595
1305	65.0552
1300	64.9992
1295	64.9865
1290	65.0219
1285	64.9168
1280	64.9027
1275	64.9605
1270	64.9506
1265	64.977
1260	64.9611
1255	64.81
1250	64.8179
1245	64.9485
1240	64.9834
1235	64.9906
1230	64.9452
1225	64.9813
1220	64.9894
1215	64.9299
1210	64.9961
1205	65.0484
1200	64.978
1195	64.8895
1190	64.8612
1185	64.9029
1180	64.9838
1175	65.045
1170	65.0905
1165	65.0201
1160	64.8821
1155	64.8143
1150	64.7902
1145	64.8023
1140	64.7993
1135	64.7698
1130	64.8036
1125	64.7648
1120	64.7108
1115	64.7562
1110	64.8896
1105	64.9851
1100	64.9144
1095	64.7684
1090	64.7888
1085	64.8406
1080	64.7283
1075	64.5756
1070	64.6765
1065	64.8355
1060	64.8344
1055	64.7274
1050	64.761
1045	64.9748
1040	64.9401
1035	64.8302
1030	64.7749
1025	64.7004
1020	64.557
1015	64.5572
1010	64.667
1005	64.6673
1000	64.6828
995	 64.7243
990	 64.6529
985	 64.5353
980	 64.5231
975	 64.6825
970	 64.5649
965	 64.5822
960	 64.6341
955	 64.4275
950	 64.5173
945	 64.6581
940	 64.5028
935	 64.3095
930	 64.2701
925	 64.2791
920	 64.4807
915	 64.5048
910	 64.587
905	 64.5222
900	 64.4037
895	 64.2496
890	 64.1356
885	 64.5399
880	 64.9651
875	 64.7252
870	 64.7553
865	 64.9577
860	 64.4292
855	 63.9337
850	 64.0313
845	 64.1263
840	 64.0295
835	 63.9549
830	 63.8829
825	 64.0118
820	 64.1854
815	 64.0999
810	 63.7598
805	 63.5919
800	 63.8917
795	 64.0803
790	 63.9109
785	 63.8757
780	 64.0372
775	 64.0754
770	 63.9944
765	 64.0022
760	 63.9407
755	 63.8565
750	 63.7198
745	 63.6476
740	 63.6997
735	 63.7854
730	 63.7977
725	 63.7001
720	 63.5789
715	 63.4486
710	 63.3637
705	 63.3177
700	 63.2801
695	 63.461
690	 63.4235
685	 63.2583
680	 63.1737
675	 63.0058
670	 62.8823
665	 62.8823
660	 62.9102
655	 62.975
650	 62.8871
645	 62.852
640	 62.7056
635	 62.5642
630	 62.8812
625	 63.105
620	 62.9631
615	 62.6598
610	 62.5302
605	 62.4799
600	 62.2868
595	 62.1731
590	 62.1983
585	 62.0748
580	 62.1429
575	 62.2032
570	 62.0116
565	 61.8553
560	 61.8964
555	 61.8447
550	 61.9962
545	 62.1418
540	 61.9
535	 61.6861
530	 61.4017
525	 61.151
520	 61.2271
515	 61.1191
510	 61.1061
505	 61.0414
500	 60.8911
495	 60.5814
490	 60.4506
485	 60.4523
480	 59.7721
475	 59.2956
470	 59.6749
465	 59.386
460	 58.5348
455	 57.9017
450	 57.8127
445	 58.4968
440	 58.2051
435	 56.4442
430	 56.1754
425	 56.6307
420	 56.5176
415	 55.7298
410	 53.7739
405	 55.4579
400	 54.1764
395	 52.6001
390	 54.2555
385	 49.3621
380	 47.4323
375	 60.7175
370	 60.1023