File: Bakgrunnsmateriale/MATLAB/FTIR/ftir_data/subBb/Mapping_36/C-4040-8_t12.asc
PE IR       SPECTRUM    SPECTRUM    ASCII       PEDS        1.60
  -1
C-A922~1.ASC
17/05/02
11:46:56.00
17/05/02
11:47:22.00
tln
$C-4040-8_t0012$<tbV0>[-12.5,-8.0,8.0,0.0,22,1,0]
27.028
64

2002,4.07
MIRTGS : RIGHTBACK : INTERNAL 2
MIR : ON : INTERNAL 2
OPTKBR

0.200000
8
8.000000
FILLER
RATIO
SPECTRUM
UNLOCKED 256

DOUBLE
64
COMBINED
1
0
0

0.002000
RATIO

1
0
TRUE
51149
0
LEFT NOT FITTED RIGHT NOT FITTED 0
NONE
NONE
15600
12
4.427000
51148
TRUE
1 0 8 72 0 0 0 0

15798

#HDR
-1
-1
#GR
µM
%T
2.38419e-05
0.0
1.282000
0.002000
12874
8
79.1557
42.5175
#DATA
1.282000	 69.2177
1.300000	 57.8644
1.318000	 63.4208
1.336000	 66.1725
1.354000	 66.7737
1.372000	 65.4925
1.390000	 66.3646
1.408000	 65.3958
1.426000	 64.2463
1.444000	 66.248
1.462000	 63.7713
1.480000	 64.2516
1.498000	 64.3204
1.516000	 64.7834
1.534000	 64.8551
1.552000	 66.306
1.570000	 63.2765
1.588000	 63.4567
1.606000	 66.5692
1.624000	 64.7183
1.642000	 65.6279
1.660000	 65.5341
1.678000	 65.0662
1.696000	 64.7079
1.714000	 65.8485
1.732000	 64.9151
1.750000	 65.2413
1.768000	 64.502
1.786000	 65.0768
1.804000	 66.0981
1.822000	 64.886
1.840000	 66.2628
1.858000	 65.5338
1.876000	 64.7619
1.894000	 64.6385
1.912000	 64.7424
1.930000	 65.7232
1.948000	 64.6413
1.966000	 64.9026
1.984000	 64.8421
2.002000	 65.5645
2.020000	 65.6393
2.038000	 65.4258
2.056000	 65.2212
2.074000	 65.395
2.092000	 65.3344
2.110000	 64.8991
2.128000	 64.999
2.146000	 64.9188
2.164000	 65.079
2.182000	 65.3164
2.200000	 65.5236
2.218000	 65.112
2.236000	 65.282
2.254000	 66.1378
2.272000	 69.3012
2.290000	 65.9057
2.308000	 65.6667
2.326000	 65.5837
2.344000	 65.8963
2.362000	 65.3569
2.380000	 65.1673
2.398000	 65.7181
2.416000	 65.3298
2.434000	 65.2684
2.452000	 65.3328
2.470000	 65.1256
2.488000	 65.1211
2.506000	 65.4702
2.524000	 65.3176
2.542000	 65.179
2.560000	 65.3632
2.578000	 65.3776
2.596000	 65.3231
2.614000	 65.4926
2.632000	 65.4075
2.650000	 65.2626
2.668000	 65.4138
2.686000	 65.3457
2.704000	 65.2701
2.722000	 65.3024
2.740000	 65.3474
2.758000	 65.254
2.776000	 65.3192
2.794000	 65.3813
2.812000	 65.1916
2.830000	 65.1183
2.848000	 65.2421
2.866000	 65.4773
2.884000	 65.2802
2.902000	 65.3981
2.920000	 65.4358
2.938000	 65.3014
2.956000	 65.256
2.974000	 65.3356
2.992000	 65.3207
3.010000	 65.1219
3.028000	 65.3309
3.046000	 65.4387
3.064000	 65.2731
3.082000	 65.4817
3.100000	 65.2623
3.118000	 65.3353
3.136000	 65.266
3.154000	 65.3628
3.172000	 65.5186
3.190000	 65.2257
3.208000	 65.2301
3.226000	 65.213
3.244000	 65.2596
3.262000	 65.422
3.280000	 65.2955
3.298000	 65.4561
3.316000	 65.3816
3.334000	 65.2353
3.352000	 65.3871
3.370000	 65.1318
3.388000	 65.1338
3.406000	 65.1202
3.424000	 65.021
3.442000	 65.1412
3.460000	 65.129
3.478000	 65.1771
3.496000	 65.1958
3.514000	 65.2037
3.532000	 65.2565
3.550000	 65.2539
3.568000	 65.3768
3.586000	 65.4125
3.604000	 65.3588
3.622000	 65.212
3.640000	 65.2822
3.658000	 65.3468
3.676000	 65.3251
3.694000	 65.3735
3.712000	 65.2707
3.730000	 65.3055
3.748000	 65.3438
3.766000	 65.2724
3.784000	 65.2643
3.802000	 65.2388
3.820000	 65.4752
3.838000	 65.3568
3.856000	 65.2508
3.874000	 65.3363
3.892000	 65.478
3.910000	 65.4408
3.928000	 65.3651
3.946000	 65.4332
3.964000	 65.4765
3.982000	 65.4227
4.000000	 65.4346
4.018000	 65.2966
4.036000	 65.3241
4.054000	 65.4153
4.072000	 65.3144
4.090000	 65.2215
4.108000	 65.3578
4.125999	 65.2089
4.144000	 65.1948
4.162000	 65.5045
4.180000	 65.4415
4.198000	 65.3954
4.216000	 65.4139
4.234000	 65.3674
4.252000	 65.363
4.270000	 65.413
4.288000	 65.2744
4.306000	 65.4461
4.324000	 65.427
4.342000	 65.3263
4.359999	 65.4403
4.378000	 65.3569
4.396000	 65.3781
4.414000	 65.3825
4.432000	 65.4533
4.450000	 65.4997
4.468000	 65.4302
4.486000	 65.4135
4.504000	 65.3122
4.522000	 65.3268
4.540000	 65.3516
4.558000	 65.4029
4.576000	 65.339
4.594000	 65.2829
4.612000	 65.3219
4.630000	 65.3956
4.648000	 65.3216
4.666000	 65.3925
4.684000	 65.2957
4.702000	 65.293
4.720000	 65.3352
4.738000	 65.4471
4.756000	 65.4099
4.774000	 65.3936
4.792000	 65.4344
4.810000	 65.4091
4.828000	 65.4487
4.846000	 65.4504
4.864000	 65.3079
4.882000	 65.3229
4.900000	 65.346
4.918000	 65.3578
4.936000	 65.3442
4.954000	 65.2937
4.972000	 65.4227
4.990000	 65.4217
5.008000	 65.3825
5.026000	 65.3788
5.044000	 65.3358
5.062000	 65.3952
5.080000	 65.4132
5.098000	 65.4177
5.116000	 65.3431
5.134000	 65.4358
5.152000	 65.3983
5.170000	 65.2667
5.188000	 65.3425
5.206000	 65.4288
5.224000	 65.2849
5.242000	 65.3306
5.260000	 65.4452
5.278000	 65.3564
5.296000	 65.4276
5.314000	 65.4137
5.332000	 65.4227
5.350000	 65.3951
5.368000	 65.402
5.386000	 65.3989
5.404000	 65.3786
5.422000	 65.3942
5.440000	 65.34
5.458000	 65.3824
5.476000	 65.4482
5.494000	 65.4581
5.512000	 65.4097
5.530000	 65.437
5.548000	 65.4531
5.566000	 65.4379
5.584000	 65.4141
5.602000	 65.3777
5.620000	 65.3909
5.638000	 65.4669
5.656000	 65.352
5.674000	 65.3039
5.692000	 65.3445
5.710000	 65.2987
5.728000	 65.2322
5.746000	 65.2036
5.764000	 65.1895
5.782000	 65.2044
5.800000	 65.2091
5.818000	 65.2208
5.836000	 65.2289
5.854000	 65.2582
5.872000	 65.3483
5.890000	 65.4583
5.908000	 65.4379
5.926000	 65.3436
5.944000	 65.3055
5.962000	 65.2736
5.980000	 65.2196
5.998000	 65.2337
6.016000	 65.245
6.034000	 65.2323
6.052000	 65.255
6.070000	 65.2821
6.088000	 65.242
6.106000	 65.1673
6.124000	 65.171
6.142000	 65.2516
6.160000	 65.3302
6.178000	 65.3825
6.196000	 65.3239
6.214000	 65.2091
6.232000	 65.235
6.250000	 65.2933
6.268000	 65.2203
6.286000	 65.1753
6.304000	 65.2105
6.322000	 65.2292
6.340000	 65.1493
6.358000	 65.0715
6.376000	 65.1306
6.394000	 65.225
6.412000	 65.2074
6.430000	 65.1258
6.448000	 65.1293
6.466000	 65.1711
6.484000	 65.1693
6.502000	 65.1178
6.520000	 65.0836
6.538000	 65.1253
6.556000	 65.1675
6.574000	 65.1811
6.592000	 65.1361
6.610000	 65.1533
6.628000	 65.303
6.646000	 65.3342
6.664000	 65.2713
6.682000	 65.2844
6.700000	 65.2726
6.718000	 65.1591
6.736000	 65.0113
6.754000	 64.958
6.772000	 64.9958
6.790000	 65.0316
6.808000	 65.0982
6.826000	 65.203
6.844000	 65.28
6.862000	 65.2826
6.880000	 65.2023
6.898000	 65.0936
6.916000	 65.0247
6.934000	 65.057
6.952000	 65.1474
6.970000	 65.1586
6.988000	 65.0886
7.006000	 65.0443
7.024000	 65.0959
7.042000	 65.1751
7.060000	 65.1599
7.078000	 65.0863
7.096000	 65.0441
7.114000	 65.0582
7.132000	 65.1166
7.150000	 65.1549
7.168000	 65.1369
7.186000	 65.1075
7.204000	 65.0814
7.222000	 65.037
7.240000	 65.0093
7.258000	 65.0351
7.276000	 65.0735
7.294000	 65.0936
7.312000	 65.1062
7.330000	 65.1188
7.348000	 65.151
7.366000	 65.2033
7.384000	 65.2417
7.402000	 65.2712
7.420000	 65.2985
7.438000	 65.2711
7.456000	 65.178
7.474000	 65.0764
7.492000	 65.012
7.510000	 64.9931
7.528000	 64.9907
7.546000	 64.9977
7.564000	 65.05
7.582000	 65.1253
7.600000	 65.1464
7.618000	 65.1092
7.636000	 65.0691
7.654000	 65.0529
7.672000	 65.0573
7.690000	 65.0796
7.708000	 65.1062
7.726000	 65.1086
7.744000	 65.0802
7.762000	 65.0497
7.780000	 65.0363
7.798000	 65.0216
7.816000	 64.9882
7.834000	 64.9584
7.852000	 64.9655
7.870000	 64.9985
7.888000	 65.0116
7.906000	 64.9884
7.924000	 64.9625
7.942000	 64.9596
7.960000	 64.9685
7.978000	 64.9896
7.996000	 65.037
8.013999	 65.0807
8.032000	 65.0737
8.050000	 65.0374
8.068000	 65.0335
8.086000	 65.0635
8.103999	 65.0812
8.122000	 65.0743
8.140000	 65.0612
8.158000	 65.0383
8.176000	 65.0002
8.193999	 64.9756
8.212000	 64.9886
8.230000	 65.0183
8.248000	 65.0325
8.266000	 65.0343
8.283999	 65.045
8.302000	 65.0647
8.320000	 65.0771
8.338000	 65.077
8.356000	 65.0684
8.374000	 65.0515
8.391999	 65.0266
8.410000	 65.0023
8.428000	 64.985
8.446000	 64.9699
8.464000	 64.9501
8.481999	 64.933
8.500000	 64.9373
8.518000	 64.9709
8.536000	 65.0154
8.554000	 65.0385
8.571999	 65.0243
8.590000	 64.9864
8.608000	 64.947
8.626000	 64.9151
8.644000	 64.8905
8.661999	 64.8759
8.680000	 64.8763
8.698000	 64.8847
8.716000	 64.8842
8.734000	 64.8628
8.751999	 64.82
8.770000	 64.7688
8.788000	 64.7335
8.806000	 64.7355
8.824000	 64.7786
8.842000	 64.8497
8.859999	 64.9265
8.878000	 64.9801
8.896000	 64.9876
8.914000	 64.9496
8.932000	 64.895
8.949999	 64.8595
8.968000	 64.8569
8.986000	 64.8767
9.004000	 64.9039
9.022000	 64.9364
9.039999	 64.9836
9.058000	 65.0495
9.076000	 65.1145
9.094000	 65.1356
9.112000	 65.0776
9.129999	 64.9516
9.148000	 64.817
9.166000	 64.7386
9.184000	 64.7374
9.202000	 64.7817
9.219999	 64.8238
9.238000	 64.8487
9.256000	 64.8787
9.274000	 64.9338
9.292000	 64.9964
9.310000	 65.0251
9.327999	 64.9992
9.346000	 64.9418
9.364000	 64.8959
9.382000	 64.8838
9.400000	 64.8921
9.418000	 64.8944
9.436000	 64.8807
9.454000	 64.8638
9.472000	 64.8655
9.490000	 64.8968
9.508000	 64.9478
9.526000	 64.9926
9.544000	 65.0082
9.561999	 64.9922
9.580000	 64.9606
9.598000	 64.9325
9.616000	 64.9166
9.634000	 64.9109
9.652000	 64.9108
9.670000	 64.9142
9.688000	 64.9186
9.706000	 64.9166
9.724000	 64.8989
9.742000	 64.8617
9.760000	 64.8117
9.778000	 64.7632
9.795999	 64.7324
9.814000	 64.7299
9.832000	 64.7571
9.850000	 64.8048
9.868000	 64.8561
9.886000	 64.8937
9.904000	 64.9071
9.922000	 64.8976
9.940000	 64.8755
9.958000	 64.8534
9.976000	 64.8388
9.994000	 64.8335
10.012	64.8358
10.03	64.8418
10.048	64.8472
10.066	64.8473
10.084	64.838
10.102	64.8158
10.12	64.7783
10.138	64.7264
10.156	64.6654
10.174	64.6051
10.192	64.5577
10.21	64.5352
10.228	64.5453
10.246	64.5889
10.264	64.6596
10.282	64.7451
10.3	64.8322
10.318	64.9085
10.336	64.9618
10.354	64.9808
10.372	64.9593
10.39	64.9014
10.408	64.8235
10.426	64.7477
10.444	64.6939
10.462	64.6717
10.48	64.681
10.498	64.7147
10.516	64.7624
10.534	64.8108
10.552	64.8429
10.57	64.8421
10.588	64.7987
10.606	64.7183
10.624	64.6214
10.642	64.5382
10.66	64.492
10.678	64.4934
10.696	64.5348
10.714	64.5982
10.732	64.6632
10.75	64.7163
10.768	64.7518
10.786	64.7715
10.804	64.7814
10.822	64.7879
10.84	64.7962
10.858	64.8075
10.876	64.8182
10.894	64.8231
10.912	64.8179
10.93	64.8021
10.948	64.7779
10.966	64.7489
10.984	64.7181
11.002	64.6868
11.02	64.6571
11.038	64.6324
11.056	64.6168
11.074	64.612
11.092	64.617
11.11	64.6252
11.128	64.6292
11.146	64.6265
11.164	64.6194
11.182	64.6147
11.2	64.6177
11.218	64.6278
11.236	64.6384
11.254	64.6408
11.272	64.6307
11.29	64.6128
11.308	64.6
11.326	64.6079
11.344	64.6447
11.362	64.7053
11.38	64.7678
11.398	64.802
11.416	64.7788
11.434	64.686
11.452	64.5329
11.47	64.3492
11.488	64.1719
11.506	64.0354
11.524	63.9572
11.542	63.9344
11.56	63.9491
11.578	63.9772
11.596	64.0009
11.614	64.0128
11.632	64.0206
11.65	64.0422
11.668	64.0964
11.686	64.1946
11.704	64.3349
11.722	64.4992
11.74	64.6573
11.758	64.7762
11.776	64.8269
11.794	64.7954
11.812	64.6875
11.83	64.5293
11.848	64.362
11.866	64.2291
11.884	64.1633
11.902	64.1785
11.92	64.2633
11.938	64.3873
11.956	64.5089
11.974	64.5892
11.992	64.6052
12.01	64.5539
12.028	64.4512
12.046	64.3243
12.064	64.2012
12.082	64.1018
12.1	64.0362
12.118	64.0058
12.136	64.0078
12.154	64.0387
12.172	64.0953
12.19	64.173
12.208	64.2625
12.226	64.3496
12.244	64.4179
12.262	64.4518
12.28	64.4414
12.298	64.3871
12.316	64.3003
12.334	64.2004
12.352	64.1097
12.37	64.0481
12.388	64.028
12.406	64.0512
12.424	64.1093
12.442	64.1876
12.46	64.2686
12.478	64.3373
12.496	64.384
12.514	64.4058
12.532	64.4056
12.55	64.3901
12.568	64.367
12.586	64.3432
12.604	64.3224
12.622	64.3056
12.64	64.2912
12.658	64.2769
12.676	64.2603
12.694	64.2407
12.712	64.2191
12.73	64.1984
12.748	64.182
12.766	64.1735
12.784	64.1756
12.802	64.1892
12.82	64.213
12.838	64.2436
12.856	64.2766
12.874	64.3073
12.892	64.3312
12.91	64.345
12.928	64.3468
12.946	64.3367
12.964	64.3154
12.982	64.2846
13	64.2465
13.018	64.2034
13.036	64.1576
13.054	64.1116
13.072	64.0682
13.09	64.0302
13.108	63.9999
13.126	63.9789
13.144	63.9672
13.162	63.9639
13.18	63.9662
13.198	63.9702
13.216	63.9717
13.234	63.9669
13.252	63.9532
13.27	63.9293
13.288	63.8962
13.306	63.8565
13.324	63.8142
13.342	63.7739
13.36	63.7408
13.378	63.7198
13.396	63.715
13.414	63.7291
13.432	63.7635
13.45	63.8177
13.468	63.8892
13.486	63.9734
13.504	64.064
13.522	64.1534
13.54	64.234
13.558	64.2984
13.576	64.3407
13.594	64.3574
13.612	64.3474
13.63	64.3124
13.648	64.2565
13.666	64.1848
13.684	64.1039
13.702	64.0199
13.72	63.9381
13.738	63.8621
13.756	63.7945
13.774	63.737
13.792	63.6902
13.81	63.6547
13.828	63.6305
13.846	63.6176
13.864	63.6156
13.882	63.6235
13.9	63.6398
13.918	63.6619
13.936	63.6873
13.954	63.7128
13.972	63.7356
13.99	63.7533
14.008	63.7638
14.026	63.766
14.044	63.759
14.062	63.7423
14.08	63.7162
14.098	63.6814
14.116	63.6393
14.134	63.5918
14.152	63.5415
14.17	63.4922
14.188	63.4479
14.206	63.4128
14.224	63.3904
14.242	63.3833
14.26	63.3917
14.278	63.4143
14.296	63.4479
14.314	63.4877
14.332	63.5282
14.35	63.5643
14.368	63.5916
14.386	63.6071
14.404	63.6096
14.422	63.5998
14.44	63.5798
14.458	63.5527
14.476	63.5219
14.494	63.4905
14.512	63.4613
14.53	63.4361
14.548	63.4154
14.566	63.3984
14.584	63.3839
14.602	63.3701
14.62	63.3553
14.638	63.3377
14.656	63.3163
14.674	63.291
14.692	63.2624
14.71	63.2319
14.728	63.2009
14.746	63.1717
14.764	63.1463
14.782	63.1264
14.8	63.1127
14.818	63.1057
14.836	63.105
14.854	63.1094
14.872	63.1173
14.89	63.127
14.908	63.1374
14.926	63.1474
14.944	63.1563
14.962	63.1641
14.98	63.1712
14.998	63.1782
15.016	63.1858
15.034	63.1948
15.052	63.2058
15.07	63.2189
15.088	63.2342
15.106	63.2514
15.124	63.2699
15.142	63.2891
15.16	63.3084
15.178	63.3274
15.196	63.3455
15.214	63.3625
15.232	63.3783
15.25	63.3928
15.268	63.4059
15.286	63.4178
15.304	63.4285
15.322	63.4381
15.34	63.4469
15.358	63.4548
15.376	63.462
15.394	63.468
15.412	63.4718
15.43	63.4723
15.448	63.4675
15.466	63.4556
15.484	63.4353
15.502	63.4058
15.52	63.367
15.538	63.3209
15.556	63.2699
15.574	63.2173
15.592	63.1683
15.61	63.127
15.628	63.0967
15.646	63.0803
15.664	63.0791
15.682	63.0919
15.7	63.1168
15.718	63.1506
15.736	63.188
15.754	63.2248
15.772	63.257
15.79	63.2802
15.808	63.2923
15.826	63.2922
15.844	63.2797
15.862	63.2562
15.88	63.2234
15.898	63.1831
15.916	63.1378
15.934	63.0891
15.952	63.0381
15.97	62.9858
15.988	62.9327
16.006	62.8792
16.024	62.8258
16.042	62.7734
16.06	62.7234
16.078	62.677
16.096	62.636
16.114	62.6025
16.132	62.5778
16.15	62.5633
16.168	62.5599
16.186	62.5671
16.204	62.5843
16.222	62.6095
16.24	62.6404
16.258	62.675
16.276	62.7097
16.294	62.7422
16.312	62.7706
16.33	62.7928
16.348	62.8079
16.366	62.8156
16.384	62.8159
16.402	62.8098
16.42	62.798
16.438	62.7817
16.456	62.7623
16.474	62.7406
16.492	62.7178
16.51	62.6948
16.528	62.6722
16.546	62.6507
16.564	62.6307
16.582	62.6125
16.6	62.5963
16.618	62.5823
16.636	62.5705
16.654	62.5605
16.672	62.5523
16.69	62.5459
16.708	62.5413
16.726	62.5389
16.744	62.539
16.762	62.5429
16.78	62.551
16.798	62.5644
16.816	62.5839
16.834	62.6095
16.852	62.6416
16.87	62.6792
16.888	62.7221
16.906	62.7681
16.924	62.8157
16.942	62.8633
16.96	62.9074
16.978	62.9467
16.996	62.9787
17.014	63.0012
17.032	63.0133
17.05	63.0131
17.068	63.0004
17.086	62.9749
17.104	62.9375
17.122	62.889
17.14	62.8315
17.158	62.7677
17.176	62.6993
17.194	62.6309
17.212	62.5645
17.23	62.5035
17.248	62.4508
17.266	62.4076
17.284	62.3761
17.302	62.356
17.32	62.3475
17.338	62.3483
17.356	62.3578
17.374	62.372
17.392	62.3891
17.41	62.4059
17.428	62.4192
17.446	62.4276
17.464	62.4284
17.482	62.4213
17.5	62.4055
17.518	62.3825
17.536	62.3526
17.554	62.3188
17.572	62.2821
17.59	62.246
17.608	62.2123
17.626	62.1831
17.644	62.1607
17.662	62.1456
17.68	62.139
17.698	62.1404
17.716	62.1493
17.734	62.1643
17.752	62.1845
17.77	62.2071
17.788	62.2315
17.806	62.2548
17.824	62.2762
17.842	62.2941
17.86	62.308
17.878	62.3175
17.896	62.323
17.914	62.3246
17.932	62.3236
17.95	62.3202
17.968	62.3162
17.986	62.3119
18.004	62.3084
18.022	62.3061
18.04	62.3055
18.058	62.3063
18.076	62.3087
18.094	62.3115
18.112	62.3145
18.13	62.316
18.148	62.3156
18.166	62.3121
18.184	62.3047
18.202	62.2928
18.22	62.2759
18.238	62.2535
18.256	62.2256
18.274	62.1922
18.292	62.1538
18.31	62.1107
18.328	62.0639
18.346	62.0139
18.364	61.9621
18.382	61.9093
18.4	61.8567
18.418	61.8053
18.436	61.7563
18.454	61.7104
18.472	61.6683
18.49	61.6307
18.508	61.5977
18.526	61.5693
18.544	61.5455
18.562	61.5253
18.58	61.5087
18.598	61.4941
18.616	61.4813
18.634	61.4686
18.652	61.4557
18.67	61.441
18.688	61.4244
18.706	61.4044
18.724	61.3812
18.742	61.3542
18.76	61.3237
18.778	61.2896
18.796	61.2526
18.814	61.2134
18.832	61.1729
18.85	61.1319
18.868	61.0915
18.886	61.053
18.904	61.0176
18.922	60.9863
18.94	60.9604
18.958	60.9408
18.976	60.9282
18.994	60.9231
19.012	60.9257
19.03	60.9363
19.048	60.9541
19.066	60.9791
19.084	61.01
19.102	61.0461
19.12	61.0858
19.138	61.128
19.156	61.1711
19.174	61.2132
19.192	61.2533
19.21	61.2892
19.228	61.3204
19.246	61.3451
19.264	61.3633
19.282	61.3739
19.3	61.3774
19.318	61.3741
19.336	61.3645
19.354	61.3502
19.372	61.3313
19.39	61.3111
19.408	61.2895
19.426	61.2696
19.444	61.2513
19.462	61.2369
19.48	61.2268
19.498	61.2213
19.516	61.2208
19.534	61.2245
19.552	61.2326
19.57	61.2431
19.588	61.2554
19.606	61.2679
19.624	61.2788
19.642	61.2876
19.66	61.2916
19.678	61.2911
19.696	61.2844
19.714	61.2718
19.732	61.2528
19.75	61.2275
19.768	61.1973
19.786	61.1619
19.804	61.1236
19.822	61.0827
19.84	61.0409
19.858	60.9997
19.876	60.9596
19.894	60.9229
19.912	60.8892
19.93	60.8603
19.948	60.836
19.966	60.8168
19.984	60.8027
20.002	60.7932
20.02	60.7884
20.038	60.7874
20.056	60.7896
20.074	60.7947
20.092	60.8016
20.11	60.8104
20.128	60.8198
20.146	60.8299
20.164	60.8403
20.182	60.8506
20.2	60.861
20.218	60.8714
20.236	60.8821
20.254	60.8935
20.272	60.9055
20.29	60.9186
20.308	60.9329
20.326	60.9484
20.344	60.9654
20.362	60.9837
20.38	61.0032
20.398	61.0239
20.416	61.045
20.434	61.0668
20.452	61.0882
20.47	61.1092
20.488	61.1291
20.506	61.147
20.524	61.1631
20.542	61.1765
20.56	61.1874
20.578	61.1952
20.596	61.1998
20.614	61.2013
20.632	61.1996
20.65	61.1948
20.668	61.1872
20.686	61.1768
20.704	61.1639
20.722	61.1487
20.74	61.1314
20.758	61.1124
20.776	61.0916
20.794	61.0696
20.812	61.0463
20.83	61.0219
20.848	60.9968
20.866	60.9711
20.884	60.9452
20.902	60.9191
20.92	60.8934
20.938	60.8683
20.956	60.8439
20.974	60.8213
20.992	60.8002
21.01	60.7813
21.028	60.7648
21.046	60.7507
21.064	60.7394
21.082	60.7309
21.1	60.7246
21.118	60.721
21.136	60.7192
21.154	60.7186
21.172	60.7194
21.19	60.7197
21.208	60.72
21.226	60.7189
21.244	60.7153
21.262	60.7095
21.28	60.6995
21.298	60.6856
21.316	60.667
21.334	60.6427
21.352	60.6132
21.37	60.5782
21.388	60.5376
21.406	60.4919
21.424	60.442
21.442	60.3875
21.46	60.3302
21.478	60.2703
21.496	60.2084
21.514	60.1465
21.532	60.0839
21.55	60.0228
21.568	59.964
21.586	59.9073
21.604	59.8547
21.622	59.806
21.64	59.7614
21.658	59.7217
21.676	59.6866
21.694	59.6558
21.712	59.6295
21.73	59.6072
21.748	59.5881
21.766	59.5725
21.784	59.5593
21.802	59.5479
21.82	59.5385
21.838	59.5294
21.856	59.5209
21.874	59.5125
21.892	59.5034
21.91	59.4939
21.928	59.4836
21.946	59.472
21.964	59.4594
21.982	59.4463
22	59.4323
22.018	59.4181
22.036	59.4042
22.054	59.3901
22.072	59.3773
22.09	59.3662
22.108	59.3565
22.126	59.3499
22.144	59.3461
22.162	59.3454
22.18	59.3491
22.198	59.3567
22.216	59.3686
22.234	59.3853
22.252	59.4066
22.27	59.432
22.288	59.4615
22.306	59.495
22.324	59.5308
22.342	59.5694
22.36	59.6098
22.378	59.6495
22.396	59.6898
22.414	59.7285
22.432	59.7634
22.45	59.7959
22.468	59.8232
22.486	59.8437
22.504	59.8584
22.522	59.8646
22.54	59.8617
22.558	59.8502
22.576	59.8282
22.594	59.7957
22.612	59.7529
22.63	59.6994
22.648	59.6347
22.666	59.5598
22.684	59.4759
22.702	59.3819
22.72	59.28
22.738	59.1717
22.756	59.0558
22.774	58.9351
22.792	58.8111
22.81	58.6828
22.828	58.5528
22.846	58.4224
22.864	58.2908
22.882	58.1602
22.9	58.0314
22.918	57.9038
22.936	57.7792
22.954	57.6577
22.972	57.5392
22.99	57.4243
23.008	57.313
23.026	57.2054
23.044	57.1017
23.062	57.002
23.08	56.9064
23.098	56.8151
23.116	56.7279
23.134	56.6452
23.152	56.5679
23.17	56.4953
23.188	56.4283
23.206	56.3685
23.224	56.3152
23.242	56.2691
23.26	56.2319
23.278	56.2034
23.296	56.1836
23.314	56.173
23.332	56.1719
23.35	56.1798
23.368	56.1965
23.386	56.2225
23.404	56.2571
23.422	56.2985
23.44	56.3477
23.458	56.4036
23.476	56.4636
23.494	56.5288
23.512	56.598
23.53	56.6673
23.548	56.737
23.566	56.8071
23.584	56.8745
23.602	56.9384
23.62	56.9997
23.638	57.0566
23.656	57.1083
23.674	57.1554
23.692	57.1977
23.71	57.2347
23.728	57.2667
23.746	57.2941
23.764	57.3174
23.782	57.336
23.8	57.3514
23.818	57.3648
23.836	57.3752
23.854	57.384
23.872	57.3927
23.89	57.401
23.908	57.4089
23.926	57.4169
23.944	57.4256
23.962	57.4341
23.98	57.4413
23.998	57.4478
24.016	57.4535
24.034	57.4548
24.052	57.4509
24.07	57.4434
24.088	57.4281
24.106	57.4017
24.124	57.3669
24.142	57.3209
24.16	57.2602
24.178	57.1861
24.196	57.0982
24.214	56.9946
24.232	56.8746
24.25	56.7392
24.268	56.5894
24.286	56.4247
24.304	56.2448
24.322	56.0534
24.34	55.8533
24.358	55.6416
24.376	55.4223
24.394	55.2006
24.412	54.9733
24.43	54.7431
24.448	54.5169
24.466	54.2956
24.484	54.077
24.502	53.8675
24.52	53.6713
24.538	53.4841
24.556	53.3108
24.574	53.1572
24.592	53.021
24.61	52.9029
24.628	52.8072
24.646	52.735
24.664	52.6843
24.682	52.6579
24.7	52.658
24.718	52.6834
24.736	52.734
24.754	52.8098
24.772	52.9114
24.79	53.0381
24.808	53.1886
24.826	53.3628
24.844	53.5616
24.862	53.7821
24.88	54.0214
24.898	54.2812
24.916	54.5602
24.934	54.8549
24.952	55.1644
24.97	55.4908
24.988	55.8293
25.006	56.1755
25.024	56.5323
25.042	56.8979
25.06	57.2688
25.078	57.6442
25.096	58.0259
25.114	58.4105
25.132	58.795
25.15	59.1808
25.168	59.5678
25.186	59.9549
25.204	60.3414
25.222	60.7276
25.24	61.1149
25.258	61.5043
25.276	61.8953
25.294	62.2881
25.312	62.6829
25.33	63.0805
25.348	63.481
25.366	63.8825
25.384	64.2829
25.402	64.6844
25.42	65.0856
25.438	65.4824
25.456	65.8729
25.474	66.2608
25.492	66.6412
25.51	67.0083
25.528	67.3647
25.546	67.711
25.564	68.038
25.582	68.338
25.6	68.6187
25.618	68.8749
25.636	69.0961
25.654	69.2786
25.672	69.4297
25.69	69.5408
25.708	69.6027
25.726	69.6169
25.744	69.5856
25.762	69.5042
25.78	69.3682
25.798	69.1776
25.816	68.9361
25.834	68.6472
25.852	68.3105
25.87	67.9215
25.888	67.4911
25.906	67.0312
25.924	66.5366
25.942	66.0048
25.96	65.4558
25.978	64.9082
25.996	64.347
26.014	63.7786
26.032	63.2255
26.05	62.7044
26.068	62.1967
26.086	61.7144
26.104	61.2767
26.122	60.8934
26.14	60.5507
26.158	60.258
26.176	60.0262
26.194	59.8591
26.212	59.7504
26.23	59.7008
26.248	59.7112
26.266	59.7865
26.284	59.9228
26.302	60.1103
26.32	60.3399
26.338	60.623
26.356	60.9528
26.374	61.3116
26.392	61.6855
26.41	62.0918
26.428	62.5192
26.446	62.9467
26.464	63.3597
26.482	63.7767
26.5	64.1859
26.518	64.5696
26.536	64.9174
26.554	65.2436
26.572	65.5394
26.59	65.7929
26.608	65.9981
26.626	66.1642
26.644	66.2858
26.662	66.3564
26.68	66.3712
26.698	66.3332
26.716	66.2469
26.734	66.1165
26.752	65.9419
26.77	65.7196
26.788	65.4566
26.806	65.1602
26.824	64.8271
26.842	64.45
26.86	64.0484
26.878	63.6422
26.896	63.2318
26.914	62.8002
26.932	62.3744
26.95	61.9824
26.968	61.629
26.986	61.2901
27.004	60.9946
27.022	60.773
27.028	60.7284