File: Bakgrunnsmateriale/MATLAB/FTIR/ftir_data/subBb/Mapping_36/C-4040-8_t06_cm-1.asc
PE IR       SPECTRUM    SPECTRUM    ASCII       PEDS        1.60
  -1
C-996E~1.ASC
17/05/02
11:18:12.00
17/05/02
11:18:12.00
tln
$C-4040-8_t0006$<tbV0>[-12.5,-13.0,8.0,0.0,22,1,0]
370
64

2002,4.07
MIRTGS : RIGHTBACK : INTERNAL 2
MIR : ON : INTERNAL 2
OPTKBR

0.200000
8
8.000000
FILLER
RATIO
SPECTRUM
UNLOCKED 256

DOUBLE
64
COMBINED
1
0
0

1.000000
RATIO

1
0
TRUE
51149
0
LEFT NOT FITTED RIGHT NOT FITTED 0
NONE
NONE
15600
12
4.427000
51148
TRUE
1 0 8 72 0 0 0 0

15798

#HDR
-1
-1
#GR
CM-1
%T
2.38419e-05
0.0
7800
-1.000000
7431
8
74.1389
24.3071
#DATA
7800	70.3139
7795	61.0706
7790	60.9744
7785	66.6083
7780	60.4719
7775	54.0382
7770	63.4845
7765	70.4182
7760	68.7183
7755	67.4746
7750	68.9638
7745	63.1992
7740	57.7637
7735	65.2704
7730	70.8817
7725	68.8945
7720	66.0388
7715	70.7008
7710	71.7862
7705	66.6386
7700	61.7931
7695	59.5438
7690	62.241
7685	66.0661
7680	68.6634
7675	70.5291
7670	73.2205
7665	73.7946
7660	70.253
7655	68.6499
7650	69.7953
7645	69.2886
7640	67.9649
7635	65.9637
7630	67.0934
7625	70.2483
7620	66.1066
7615	61.4062
7610	66.5201
7605	68.1927
7600	64.1453
7595	62.5197
7590	63.1162
7585	62.0828
7580	63.1676
7575	69.8677
7570	70.2621
7565	68.6846
7560	66.4219
7555	66.8043
7550	64.9749
7545	60.2737
7540	62.1795
7535	63.008
7530	62.0666
7525	60.2788
7520	60.4232
7515	61.0315
7510	60.5953
7505	62.2021
7500	64.5392
7495	64.7907
7490	66.135
7485	68.9184
7480	65.8356
7475	64.7784
7470	67.5053
7465	69.2514
7460	69.0741
7455	66.7205
7450	64.3095
7445	64.4137
7440	64.4377
7435	64.3622
7430	66.8831
7425	65.7792
7420	63.8905
7415	64.195
7410	64.6105
7405	64.29
7400	63.652
7395	62.5198
7390	62.8596
7385	62.7435
7380	62.8753
7375	62.8418
7370	63.0151
7365	65.2674
7360	64.9398
7355	62.6165
7350	60.0343
7345	61.546
7340	64.7259
7335	64.9883
7330	64.3741
7325	65.4108
7320	67.3286
7315	66.8897
7310	64.2715
7305	60.6818
7300	60.9135
7295	63.6078
7290	66.4323
7285	66.1658
7280	65.3383
7275	65.3701
7270	66.0366
7265	64.3827
7260	61.6351
7255	63.998
7250	66.8538
7245	65.271
7240	60.9908
7235	61.9483
7230	65.3155
7225	66.2635
7220	65.7721
7215	63.0981
7210	62.2834
7205	63.6329
7200	64.4501
7195	63.977
7190	61.5391
7185	61.8115
7180	64.4937
7175	64.9317
7170	63.7898
7165	64.1009
7160	64.1554
7155	63.6249
7150	63.9588
7145	64.019
7140	64.182
7135	64.5753
7130	63.7396
7125	63.7505
7120	64.4631
7115	63.6241
7110	63.0102
7105	64.2687
7100	66.1536
7095	66.1853
7090	65.3047
7085	65.1395
7080	65.1538
7075	63.6947
7070	60.9093
7065	62.1243
7060	63.867
7055	63.3325
7050	64.5401
7045	65.664
7040	63.0736
7035	61.8745
7030	64.1758
7025	64.4858
7020	64.2845
7015	64.4324
7010	62.0231
7005	63.3258
7000	66.4489
6995	65.4498
6990	63.7329
6985	63.3187
6980	65.7076
6975	67.6677
6970	67.4846
6965	65.3042
6960	64.2175
6955	64.1201
6950	63.2082
6945	62.4436
6940	64.0807
6935	65.733
6930	65.3054
6925	65.603
6920	65.933
6915	65.1722
6910	64.4791
6905	64.343
6900	65.0213
6895	65.2244
6890	64.3879
6885	64.7332
6880	64.6465
6875	63.1579
6870	63.0746
6865	64.3908
6860	64.437
6855	64.6971
6850	65.2867
6845	64.2417
6840	64.093
6835	64.5947
6830	65.5665
6825	65.9417
6820	64.2198
6815	63.1964
6810	63.4073
6805	63.7336
6800	63.1075
6795	62.8728
6790	64.0525
6785	63.5904
6780	62.5725
6775	61.7865
6770	62.473
6765	62.4929
6760	62.9533
6755	64.1991
6750	63.5295
6745	61.5102
6740	61.5576
6735	63.0398
6730	63.1345
6725	63.3939
6720	63.5317
6715	63.4859
6710	64.4317
6705	65.0672
6700	66.5215
6695	67.1489
6690	65.355
6685	63.2887
6680	62.293
6675	63.529
6670	64.9485
6665	65.3311
6660	64.9188
6655	64.2526
6650	64.7017
6645	65.0843
6640	65.3522
6635	64.4194
6630	63.6619
6625	64.5794
6620	65.3255
6615	64.221
6610	63.865
6605	65.2834
6600	64.8398
6595	65.2854
6590	66.1014
6585	63.7986
6580	63.1708
6575	64.9868
6570	65.3994
6565	64.812
6560	64.7028
6555	65.0566
6550	65.2029
6545	65.1894
6540	65.1622
6535	65.8513
6530	65.2824
6525	64.0745
6520	64.4612
6515	65.2628
6510	64.8085
6505	64.2202
6500	65.7948
6495	66.5226
6490	65.5262
6485	65.2941
6480	65.8893
6475	65.8179
6470	64.6108
6465	63.4806
6460	64.1723
6455	65.2612
6450	65.5072
6445	65.154
6440	64.5755
6435	64.0002
6430	64.0118
6425	64.3861
6420	64.4413
6415	64.6751
6410	65.4321
6405	65.9281
6400	65.333
6395	65.5744
6390	65.3749
6385	64.5454
6380	63.845
6375	64.0487
6370	65.0146
6365	64.9347
6360	64.7309
6355	64.8259
6350	64.0754
6345	64.2873
6340	65.5022
6335	66.2061
6330	66.1376
6325	64.61
6320	63.3106
6315	63.1809
6310	63.9023
6305	64.3845
6300	63.4237
6295	63.7594
6290	64.7182
6285	65.9403
6280	65.8557
6275	65.0815
6270	64.8441
6265	64.7042
6260	64.8619
6255	65.4618
6250	65.6105
6245	64.7424
6240	64.4547
6235	64.7883
6230	65.0747
6225	64.0404
6220	63.7542
6215	64.5316
6210	64.2216
6205	64.0954
6200	64.9027
6195	65.2522
6190	64.8718
6185	64.0725
6180	64.1183
6175	65.271
6170	65.8004
6165	65.9135
6160	65.2528
6155	64.3342
6150	63.6136
6145	63.2594
6140	63.8665
6135	65.0427
6130	64.7905
6125	64.3296
6120	64.7148
6115	64.6134
6110	65.0069
6105	64.8719
6100	64.6245
6095	64.7746
6090	64.844
6085	64.5674
6080	64.409
6075	64.3373
6070	64.4779
6065	64.0392
6060	63.6848
6055	63.8129
6050	63.9945
6045	64.4897
6040	64.4321
6035	64.2108
6030	64.2183
6025	65.0764
6020	65.5455
6015	64.8082
6010	63.7775
6005	63.3457
6000	63.7886
5995	64.8785
5990	65.2506
5985	65.3924
5980	65.4518
5975	65.1864
5970	64.9134
5965	64.9834
5960	65.0554
5955	64.3224
5950	63.6561
5945	63.9513
5940	64.752
5935	64.7279
5930	64.724
5925	64.5935
5920	64.7895
5915	65.2388
5910	65.5309
5905	64.9989
5900	64.3626
5895	64.2682
5890	64.4434
5885	64.7768
5880	65.1658
5875	64.9353
5870	64.6115
5865	65.0128
5860	64.6132
5855	64.4106
5850	64.7379
5845	64.2162
5840	64.4282
5835	65.5242
5830	65.4752
5825	64.7519
5820	64.9766
5815	64.4623
5810	63.6365
5805	64.5277
5800	65.328
5795	65.0951
5790	64.9903
5785	65.4681
5780	65.4902
5775	64.7114
5770	64.5636
5765	65.2621
5760	65.659
5755	65.4665
5750	65.4876
5745	64.7806
5740	64.3853
5735	64.538
5730	64.5763
5725	64.9173
5720	65.2938
5715	65.1032
5710	64.4897
5705	64.0387
5700	63.515
5695	63.6163
5690	63.9576
5685	64.4479
5680	64.5366
5675	64.0377
5670	64.0656
5665	64.2914
5660	64.1619
5655	64.2776
5650	64.6205
5645	64.4358
5640	64.2194
5635	64.2786
5630	64.4008
5625	64.4017
5620	64.7792
5615	64.655
5610	64.2025
5605	64.5474
5600	65.1478
5595	65.0659
5590	65.3516
5585	65.8116
5580	64.8468
5575	63.8598
5570	64.2398
5565	64.7483
5560	64.3483
5555	64.263
5550	64.7738
5545	64.9666
5540	65.3606
5535	65.3229
5530	64.9082
5525	65.019
5520	65.137
5515	65.0646
5510	64.812
5505	64.7565
5500	64.9856
5495	64.7016
5490	64.6268
5485	64.9198
5480	64.8204
5475	64.5242
5470	64.5742
5465	64.0954
5460	64.141
5455	65.0205
5450	65.0187
5445	65.0615
5440	65.2204
5435	64.9298
5430	64.4932
5425	64.3871
5420	64.5936
5415	64.6384
5410	64.0109
5405	63.4269
5400	63.7127
5395	64.2917
5390	64.5723
5385	64.8573
5380	64.7717
5375	63.7687
5370	64.0839
5365	65.0751
5360	65.0679
5355	64.8976
5350	64.8727
5345	64.8552
5340	65.223
5335	64.7562
5330	64.6438
5325	65.1549
5320	64.535
5315	64.5116
5310	64.5932
5305	64.7223
5300	64.4068
5295	63.6062
5290	63.6237
5285	64.4333
5280	64.7935
5275	63.5001
5270	63.7824
5265	63.1021
5260	63.3835
5255	66.0175
5250	66.3882
5245	64.7573
5240	64.2707
5235	63.6173
5230	62.5752
5225	62.7114
5220	63.5251
5215	64.2143
5210	64.9921
5205	65.4708
5200	65.306
5195	64.1267
5190	63.1697
5185	63.2637
5180	64.8094
5175	65.4561
5170	64.7902
5165	64.0971
5160	63.9732
5155	64.2382
5150	64.6379
5145	65.0332
5140	64.3268
5135	63.9216
5130	64.308
5125	64.2113
5120	64.1684
5115	64.2324
5110	64.7003
5105	64.7037
5100	64.5492
5095	64.5587
5090	64.2398
5085	63.875
5080	64.1624
5075	64.3434
5070	64.4073
5065	64.4601
5060	64.7068
5055	64.9148
5050	64.982
5045	64.8938
5040	64.3536
5035	64.1215
5030	64.3523
5025	64.7949
5020	64.9212
5015	64.5901
5010	64.6927
5005	64.7869
5000	64.8824
4995	64.887
4990	64.5277
4985	64.3683
4980	64.424
4975	64.6395
4970	64.7694
4965	64.8764
4960	64.7469
4955	64.7782
4950	64.9409
4945	64.9538
4940	64.8382
4935	64.5653
4930	64.4565
4925	64.507
4920	64.7566
4915	64.8528
4910	64.9282
4905	65.0487
4900	64.8659
4895	64.8062
4890	65.2411
4885	65.2819
4880	64.7004
4875	64.549
4870	64.7063
4865	64.5272
4860	64.3492
4855	64.1286
4850	64.0732
4845	64.0978
4840	64.3334
4835	64.6604
4830	64.5708
4825	64.4198
4820	64.4727
4815	64.5941
4810	64.6976
4805	64.4421
4800	64.4556
4795	64.654
4790	64.8022
4785	64.8754
4780	64.7213
4775	64.4947
4770	64.5378
4765	64.8394
4760	64.7531
4755	64.3144
4750	64.3823
4745	64.6153
4740	64.5503
4735	64.4056
4730	64.2484
4725	64.1517
4720	64.2133
4715	64.1573
4710	64.2645
4705	64.5533
4700	64.7063
4695	64.8636
4690	64.6518
4685	64.3338
4680	64.3296
4675	64.5516
4670	64.746
4665	64.7473
4660	64.5453
4655	64.5148
4650	64.5655
4645	64.4359
4640	64.0268
4635	64.0494
4630	64.5236
4625	64.485
4620	63.998
4615	63.7046
4610	64.1226
4605	64.7446
4600	64.7042
4595	64.5421
4590	64.7166
4585	64.9949
4580	65.0563
4575	64.9606
4570	64.9017
4565	64.9078
4560	64.7194
4555	64.7192
4550	65.0726
4545	64.9032
4540	64.6305
4535	64.7111
4530	64.5614
4525	64.351
4520	64.3576
4515	64.4076
4510	64.5398
4505	64.9107
4500	64.9976
4495	64.9482
4490	64.7886
4485	64.794
4480	65.0512
4475	65.0188
4470	64.889
4465	64.8645
4460	64.7685
4455	64.6108
4450	64.8052
4445	65.2505
4440	65.3952
4435	65.3625
4430	65.1617
4425	65.0357
4420	65.1888
4415	65.2489
4410	67.7991
4405	73.4041
4400	69.6921
4395	59.4708
4390	44.3314
4385	48.6703
4380	61.534
4375	64.3698
4370	65.952
4365	65.6625
4360	65.4286
4355	65.4705
4350	65.4616
4345	65.0667
4340	64.6281
4335	64.9443
4330	65.1578
4325	64.8845
4320	64.9036
4315	65.0522
4310	64.9058
4305	64.5851
4300	64.5863
4295	64.6741
4290	64.612
4285	64.5432
4280	64.749
4275	64.8171
4270	64.5328
4265	64.4256
4260	64.6874
4255	64.7774
4250	64.5763
4245	64.4914
4240	64.5024
4235	64.2689
4230	64.0974
4225	64.4189
4220	64.4144
4215	64.4632
4210	64.5288
4205	64.2559
4200	64.0555
4195	64.3939
4190	64.4774
4185	64.4578
4180	64.3259
4175	64.3916
4170	64.5944
4165	64.5119
4160	64.4709
4155	64.2131
4150	64.0047
4145	64.0369
4140	64.1161
4135	64.2493
4130	64.2681
4125	64.1622
4120	64.2564
4115	64.3725
4110	64.2408
4105	64.3622
4100	64.3628
4095	64.0731
4090	63.9832
4085	63.8494
4080	63.8085
4075	64.062
4070	64.2171
4065	64.2886
4060	64.3421
4055	64.2457
4050	64.2877
4045	64.363
4040	64.11
4035	64.0914
4030	64.2167
4025	64.0983
4020	63.9783
4015	63.9144
4010	64.0034
4005	64.1505
4000	64.1892
3995	64.1794
3990	64.185
3985	64.1371
3980	64.1737
3975	64.1611
3970	64.1325
3965	64.148
3960	64.2359
3955	64.22
3950	64.1037
3945	64.1123
3940	64.2343
3935	64.2926
3930	64.2703
3925	64.086
3920	64.044
3915	64.0596
3910	63.9507
3905	64.1057
3900	64.2671
3895	64.142
3890	64.1794
3885	64.2297
3880	64.0649
3875	64.1114
3870	64.1608
3865	64.069
3860	64.0092
3855	64.033
3850	64.0227
3845	64.1392
3840	64.2764
3835	64.2414
3830	64.2866
3825	64.2809
3820	64.1026
3815	63.9919
3810	63.9718
3805	63.9994
3800	64.0492
3795	64.0468
3790	64.1446
3785	64.1398
3780	64.0004
3775	63.9877
3770	64.1582
3765	64.1638
3760	64.0668
3755	63.9554
3750	63.9419
3745	64.0352
3740	64.0088
3735	63.9625
3730	63.9915
3725	63.9119
3720	63.8734
3715	63.8778
3710	63.8945
3705	63.9736
3700	63.9252
3695	63.9045
3690	63.987
3685	63.9712
3680	63.8823
3675	63.8761
3670	63.8526
3665	63.8431
3660	63.838
3655	63.923
3650	64.0817
3645	64.0304
3640	63.875
3635	63.8015
3630	63.7228
3625	63.7505
3620	63.8996
3615	63.9373
3610	63.7061
3605	63.6599
3600	63.8814
3595	63.926
3590	63.7407
3585	63.5098
3580	63.5806
3575	63.7894
3570	63.7809
3565	63.7022
3560	63.6971
3555	63.7403
3550	63.7176
3545	63.5776
3540	63.5824
3535	63.6087
3530	63.697
3525	63.6853
3520	63.4567
3515	63.357
3510	63.4238
3505	63.458
3500	63.7416
3495	63.7929
3490	63.7192
3485	63.8024
3480	63.6977
3475	63.6036
3470	63.6033
3465	63.5904
3460	63.5165
3455	63.5345
3450	63.4202
3445	63.1252
3440	63.2541
3435	63.5636
3430	63.5966
3425	63.5566
3420	63.5063
3415	63.4204
3410	63.514
3405	63.6045
3400	63.4373
3395	63.387
3390	63.549
3385	63.4233
3380	63.2865
3375	63.3581
3370	63.2956
3365	63.3321
3360	63.351
3355	63.2349
3350	63.2721
3345	63.3273
3340	63.2337
3335	63.1927
3330	63.1482
3325	62.9731
3320	62.9809
3315	63.1505
3310	63.283
3305	63.2953
3300	63.21
3295	63.1071
3290	63.1911
3285	63.2806
3280	63.1674
3275	62.9772
3270	62.8024
3265	62.7852
3260	63.0033
3255	63.1957
3250	63.1031
3245	63.0158
3240	63.0214
3235	63.038
3230	62.9406
3225	62.8287
3220	62.796
3215	62.7914
3210	62.8987
3205	62.9591
3200	62.968
3195	62.9261
3190	62.8924
3185	62.9007
3180	62.9108
3175	62.8919
3170	62.9388
3165	62.7966
3160	62.6639
3155	62.7199
3150	62.8724
3145	62.9717
3140	62.9242
3135	62.7173
3130	62.6573
3125	62.6913
3120	62.7172
3115	62.713
3110	62.6339
3105	62.5107
3100	62.5867
3095	62.6422
3090	62.6814
3085	62.7455
3080	62.7023
3075	62.6799
3070	62.7598
3065	62.7659
3060	62.5721
3055	62.4722
3050	62.5468
3045	62.6864
3040	62.6608
3035	62.6093
3030	62.6075
3025	62.5962
3020	62.5387
3015	62.4993
3010	62.5748
3005	62.6343
3000	62.5885
2995	62.4779
2990	62.3962
2985	62.375
2980	62.4082
2975	62.3941
2970	62.3212
2965	62.2525
2960	62.1953
2955	62.1148
2950	62.1258
2945	62.117
2940	62.1124
2935	62.1133
2930	62.0155
2925	62.0022
2920	61.9604
2915	61.8973
2910	61.9584
2905	62.0215
2900	62.1073
2895	62.0697
2890	62.0398
2885	62.0674
2880	61.9965
2875	61.9711
2870	62.0526
2865	62.0018
2860	61.8397
2855	61.7547
2850	61.8762
2845	61.9927
2840	61.9589
2835	61.9135
2830	61.8812
2825	61.9112
2820	61.9015
2815	61.8313
2810	61.8105
2805	61.8348
2800	61.8575
2795	61.8772
2790	61.8963
2785	61.8728
2780	61.8786
2775	61.862
2770	61.7729
2765	61.7225
2760	61.7423
2755	61.7366
2750	61.6784
2745	61.6908
2740	61.7782
2735	61.7951
2730	61.7407
2725	61.6907
2720	61.6011
2715	61.6052
2710	61.6691
2705	61.6402
2700	61.7169
2695	61.6445
2690	61.4479
2685	61.4153
2680	61.4599
2675	61.4606
2670	61.4768
2665	61.5312
2660	61.465
2655	61.3209
2650	61.2372
2645	61.2782
2640	61.3308
2635	61.311
2630	61.2539
2625	61.3124
2620	61.3555
2615	61.3282
2610	61.2701
2605	61.2571
2600	61.2448
2595	61.1883
2590	61.1261
2585	61.1531
2580	61.1392
2575	61.0868
2570	61.0567
2565	61.0383
2560	61.1111
2555	61.1933
2550	61.1347
2545	61.0158
2540	60.9302
2535	60.9023
2530	60.9385
2525	60.9881
2520	61.0292
2515	61.0314
2510	60.9477
2505	60.8544
2500	60.8458
2495	60.8573
2490	60.8291
2485	60.7707
2480	60.7591
2475	60.7924
2470	60.7407
2465	60.6988
2460	60.6932
2455	60.7518
2450	60.7284
2445	60.6619
2440	60.6914
2435	60.7052
2430	60.6415
2425	60.555
2420	60.5548
2415	60.6205
2410	60.5045
2405	60.4365
2400	60.4915
2395	60.504
2390	60.4386
2385	60.3204
2380	60.3193
2375	60.3739
2370	60.3748
2365	60.3498
2360	60.2823
2355	60.2992
2350	60.3427
2345	60.333
2340	60.3195
2335	60.2248
2330	60.1677
2325	60.2293
2320	60.2428
2315	60.1534
2310	60.0804
2305	59.9764
2300	60.0079
2295	60.0718
2290	60.0479
2285	60.0281
2280	59.9998
2275	59.9389
2270	60.0186
2265	60.0352
2260	59.9317
2255	59.9202
2250	59.8684
2245	59.8389
2240	59.8171
2235	59.7944
2230	59.7795
2225	59.7107
2220	59.6426
2215	59.6208
2210	59.6202
2205	59.5544
2200	59.5195
2195	59.536
2190	59.5619
2185	59.596
2180	59.5341
2175	59.501
2170	59.5362
2165	59.5859
2160	59.6083
2155	59.5048
2150	59.3884
2145	59.3211
2140	59.3082
2135	59.3272
2130	59.3558
2125	59.2786
2120	59.1546
2115	59.2248
2110	59.2951
2105	59.2806
2100	59.2136
2095	59.1172
2090	59.1211
2085	59.0882
2080	59.0747
2075	58.9946
2070	59.0045
2065	59.0459
2060	58.9759
2055	59.0215
2050	59.0371
2045	58.9492
2040	58.868
2035	58.8304
2030	58.8096
2025	58.7775
2020	58.711
2015	58.6961
2010	58.7345
2005	58.7064
2000	58.6979
1995	58.6851
1990	58.6743
1985	58.6581
1980	58.6375
1975	58.6008
1970	58.5883
1965	58.5411
1960	58.5515
1955	58.6076
1950	58.5404
1945	58.4815
1940	58.4491
1935	58.3794
1930	58.4069
1925	58.4586
1920	58.4401
1915	58.4016
1910	58.4186
1905	58.3241
1900	58.2506
1895	58.2317
1890	58.3058
1885	58.297
1880	58.1846
1875	58.1685
1870	58.1752
1865	58.1826
1860	58.1767
1855	58.0392
1850	57.9485
1845	58.007
1840	57.9578
1835	57.9277
1830	57.9001
1825	57.898
1820	57.9342
1815	57.9268
1810	57.8659
1805	57.8354
1800	57.8141
1795	57.7476
1790	57.6563
1785	57.6509
1780	57.6617
1775	57.6539
1770	57.6269
1765	57.5633
1760	57.4779
1755	57.4236
1750	57.4142
1745	57.4104
1740	57.3456
1735	57.237
1730	57.1817
1725	57.1105
1720	57.1084
1715	57.2591
1710	57.2973
1705	57.3269
1700	57.3513
1695	57.2811
1690	57.2364
1685	57.1619
1680	57.1216
1675	57.1095
1670	57.0951
1665	57.171
1660	57.1656
1655	57.0192
1650	56.9112
1645	56.9313
1640	56.9723
1635	56.9475
1630	56.874
1625	56.8762
1620	56.8949
1615	56.8672
1610	56.7692
1605	56.6301
1600	56.6088
1595	56.6428
1590	56.601
1585	56.5646
1580	56.6245
1575	56.5778
1570	56.5114
1565	56.477
1560	56.4364
1555	56.3769
1550	56.3306
1545	56.3295
1540	56.3401
1535	56.2473
1530	56.1612
1525	56.1487
1520	56.1081
1515	56.0818
1510	56.1795
1505	56.1329
1500	56.0385
1495	56.1238
1490	56.1375
1485	55.9743
1480	55.8505
1475	55.8491
1470	55.942
1465	55.9945
1460	55.9831
1455	56.0257
1450	55.9788
1445	55.8687
1440	55.8116
1435	55.8264
1430	55.6824
1425	55.6429
1420	55.7372
1415	55.7225
1410	55.5779
1405	55.4384
1400	55.5322
1395	55.5754
1390	55.4637
1385	55.3993
1380	55.429
1375	55.5111
1370	55.5071
1365	55.4971
1360	55.4531
1355	55.3927
1350	55.4127
1345	55.4402
1340	55.3735
1335	55.2006
1330	55.196
1325	55.2378
1320	55.2023
1315	55.1125
1310	54.9934
1305	54.966
1300	54.9817
1295	54.9383
1290	54.8945
1285	54.773
1280	54.7085
1275	54.8024
1270	54.7555
1265	54.6822
1260	54.6948
1255	54.7024
1250	54.609
1245	54.5839
1240	54.5215
1235	54.5075
1230	54.5471
1225	54.5467
1220	54.549
1215	54.5075
1210	54.4742
1205	54.4774
1200	54.4329
1195	54.362
1190	54.2542
1185	54.2624
1180	54.288
1175	54.2622
1170	54.2795
1165	54.2155
1160	54.1449
1155	54.1301
1150	54.2165
1145	54.1309
1140	53.9298
1135	53.9567
1130	53.9457
1125	53.9114
1120	53.873
1115	53.8175
1110	53.7491
1105	53.7155
1100	53.9249
1095	54.0676
1090	53.9974
1085	53.7888
1080	53.5719
1075	53.6037
1070	53.6229
1065	53.4724
1060	53.3419
1055	53.353
1050	53.3053
1045	53.2635
1040	53.4301
1035	53.4666
1030	53.3282
1025	53.2805
1020	53.3192
1015	53.2542
1010	53.1415
1005	53.0625
1000	53.1166
995	 53.1594
990	 52.837
985	 52.7153
980	 52.833
975	 52.8195
970	 52.7355
965	 52.6981
960	 52.6139
955	 52.5519
950	 52.5317
945	 52.617
940	 52.584
935	 52.4563
930	 52.3836
925	 52.3162
920	 52.5058
915	 52.7128
910	 52.6787
905	 52.6634
900	 52.6141
895	 52.6714
890	 52.5903
885	 52.012
880	 51.7948
875	 51.7006
870	 51.5705
865	 51.702
860	 51.7004
855	 51.6642
850	 52.0855
845	 51.4112
840	 51.0471
835	 51.4045
830	 51.2074
825	 51.3231
820	 51.8416
815	 51.671
810	 51.3202
805	 51.4403
800	 51.4772
795	 51.2186
790	 51.0977
785	 50.8538
780	 50.7539
775	 50.826
770	 50.9608
765	 50.8897
760	 50.8004
755	 51.0544
750	 51.0044
745	 50.5911
740	 50.3824
735	 50.5445
730	 50.5264
725	 50.4745
720	 50.4773
715	 50.1978
710	 49.8442
705	 49.5779
700	 49.469
695	 49.5728
690	 49.6268
685	 49.6528
680	 49.7094
675	 49.6769
670	 49.6757
665	 49.6356
660	 49.3638
655	 49.035
650	 48.7656
645	 48.7159
640	 48.5707
635	 48.7361
630	 49.0698
625	 49.1151
620	 48.8326
615	 48.6474
610	 48.6585
605	 48.5546
600	 48.4646
595	 48.3987
590	 48.5158
585	 48.0897
580	 47.4639
575	 47.299
570	 47.6123
565	 47.9125
560	 47.8038
555	 47.3698
550	 46.9947
545	 46.9693
540	 46.8682
535	 46.9444
530	 46.8642
525	 46.3949
520	 46.1505
515	 46.0728
510	 45.4793
505	 45.0811
500	 45.0956
495	 44.8137
490	 44.5709
485	 44.9996
480	 45.0151
475	 44.8355
470	 44.72
465	 44.1927
460	 43.337
455	 43.2775
450	 43.1417
445	 42.5754
440	 42.318
435	 42.2248
430	 41.5011
425	 41.2767
420	 42.4024
415	 42.9206
410	 44.3165
405	 42.9172
400	 36.4976
395	 29.9257
390	 24.8218
385	 27.3757
380	 48.3482
375	 61.4247
370	 69.6568