File: Bakgrunnsmateriale/MATLAB/FTIR/ftir_data/subBb/Mapping_36/C-4040-8_t14.asc
PE IR       SPECTRUM    SPECTRUM    ASCII       PEDS        1.60
  -1
C-B92A~1.ASC
17/05/02
12:03:16.00
17/05/02
12:03:42.00
tln
$C-4040-8_t0014$<tbV0>[7.5,-3.0,8.0,0.0,22,1,0]
27.028
64

2002,4.07
MIRTGS : RIGHTBACK : INTERNAL 2
MIR : ON : INTERNAL 2
OPTKBR

0.200000
8
8.000000
FILLER
RATIO
SPECTRUM
UNLOCKED 256

DOUBLE
64
COMBINED
1
0
0

0.002000
RATIO

1
0
TRUE
51149
0
LEFT NOT FITTED RIGHT NOT FITTED 0
NONE
NONE
15600
12
4.427000
51148
TRUE
1 0 8 72 0 0 0 0

15798

#HDR
-1
-1
#GR
µM
%T
2.38419e-05
0.0
1.282000
0.002000
12874
8
93.2378
37.8871
#DATA
1.282000	 56.9192
1.300000	 68.8004
1.318000	 62.8902
1.336000	 64.9636
1.354000	 70.1592
1.372000	 66.1096
1.390000	 61.9907
1.408000	 62.7859
1.426000	 61.976
1.444000	 63.7801
1.462000	 64.6998
1.480000	 65.0477
1.498000	 63.6346
1.516000	 66.2792
1.534000	 64.7743
1.552000	 66.0734
1.570000	 63.7632
1.588000	 65.9532
1.606000	 65.2241
1.624000	 64.8919
1.642000	 65.2736
1.660000	 64.2664
1.678000	 65.673
1.696000	 65.1495
1.714000	 64.3954
1.732000	 64.7216
1.750000	 65.3995
1.768000	 64.0237
1.786000	 64.388
1.804000	 64.7545
1.822000	 64.97
1.840000	 65.1422
1.858000	 64.2394
1.876000	 65.3779
1.894000	 62.2162
1.912000	 64.9088
1.930000	 64.7581
1.948000	 64.9511
1.966000	 65.4238
1.984000	 64.9572
2.002000	 65.2539
2.020000	 65.1078
2.038000	 65.2186
2.056000	 64.9723
2.074000	 64.6298
2.092000	 65.0112
2.110000	 64.9248
2.128000	 65.0434
2.146000	 64.653
2.164000	 65.1192
2.182000	 65.2093
2.200000	 64.9846
2.218000	 65.167
2.236000	 65.3464
2.254000	 65.1003
2.272000	 65.395
2.290000	 65.8657
2.308000	 65.4559
2.326000	 65.2586
2.344000	 65.0044
2.362000	 64.9997
2.380000	 65.0527
2.398000	 64.7493
2.416000	 64.7369
2.434000	 65.174
2.452000	 65.2074
2.470000	 65.238
2.488000	 65.2692
2.506000	 65.0459
2.524000	 65.172
2.542000	 65.2865
2.560000	 65.2329
2.578000	 65.3088
2.596000	 65.1308
2.614000	 65.1675
2.632000	 65.0777
2.650000	 65.2179
2.668000	 65.2595
2.686000	 65.1495
2.704000	 65.1086
2.722000	 65.2226
2.740000	 65.1018
2.758000	 65.1183
2.776000	 65.1263
2.794000	 65.1296
2.812000	 65.0855
2.830000	 65.0992
2.848000	 65.1435
2.866000	 65.462
2.884000	 65.3707
2.902000	 65.3318
2.920000	 64.8421
2.938000	 65.0636
2.956000	 65.2793
2.974000	 65.1044
2.992000	 65.2331
3.010000	 65.1681
3.028000	 65.1017
3.046000	 65.1006
3.064000	 65.1668
3.082000	 65.1727
3.100000	 65.0591
3.118000	 65.1303
3.136000	 65.0621
3.154000	 65.2028
3.172000	 65.0803
3.190000	 65.1692
3.208000	 64.9944
3.226000	 65.2319
3.244000	 65.3371
3.262000	 65.1446
3.280000	 65.0861
3.298000	 64.8761
3.316000	 65.0938
3.334000	 65.0301
3.352000	 65.1153
3.370000	 65.1047
3.388000	 64.9284
3.406000	 65.0146
3.424000	 64.64
3.442000	 64.951
3.460000	 64.979
3.478000	 65.0282
3.496000	 65.048
3.514000	 64.9712
3.532000	 65.2097
3.550000	 65.0862
3.568000	 65.2201
3.586000	 65.1193
3.604000	 65.1799
3.622000	 65.1763
3.640000	 65.1701
3.658000	 65.3348
3.676000	 65.1511
3.694000	 65.2005
3.712000	 65.1219
3.730000	 65.0918
3.748000	 65.1955
3.766000	 65.1174
3.784000	 65.2034
3.802000	 65.2402
3.820000	 65.1285
3.838000	 65.2607
3.856000	 65.2421
3.874000	 65.1434
3.892000	 65.2588
3.910000	 65.1481
3.928000	 65.2374
3.946000	 65.1794
3.964000	 65.1462
3.982000	 65.1664
4.000000	 65.3136
4.018000	 65.1747
4.036000	 65.2048
4.054000	 65.2616
4.072000	 65.2761
4.090000	 65.1318
4.108000	 65.1383
4.125999	 65.27
4.144000	 65.3101
4.162000	 65.2765
4.180000	 65.1874
4.198000	 65.1709
4.216000	 65.2299
4.234000	 65.2364
4.252000	 65.2133
4.270000	 65.2266
4.288000	 65.2646
4.306000	 65.2259
4.324000	 65.2277
4.342000	 65.2046
4.359999	 65.3279
4.378000	 65.2661
4.396000	 65.2353
4.414000	 65.3082
4.432000	 65.3217
4.450000	 65.2994
4.468000	 65.2502
4.486000	 65.2334
4.504000	 65.3065
4.522000	 65.2758
4.540000	 65.1952
4.558000	 65.3188
4.576000	 65.3384
4.594000	 65.2596
4.612000	 65.279
4.630000	 65.3033
4.648000	 65.2391
4.666000	 65.2655
4.684000	 65.1519
4.702000	 65.2099
4.720000	 65.2096
4.738000	 65.182
4.756000	 65.2043
4.774000	 65.2283
4.792000	 65.0638
4.810000	 65.2625
4.828000	 65.2851
4.846000	 65.2789
4.864000	 65.3211
4.882000	 65.1715
4.900000	 65.199
4.918000	 65.2022
4.936000	 65.2901
4.954000	 65.1898
4.972000	 65.2586
4.990000	 65.2731
5.008000	 65.2495
5.026000	 65.2288
5.044000	 65.2339
5.062000	 65.2966
5.080000	 65.2304
5.098000	 65.1983
5.116000	 65.2763
5.134000	 65.2918
5.152000	 65.2861
5.170000	 65.236
5.188000	 65.2911
5.206000	 65.3045
5.224000	 65.322
5.242000	 65.2531
5.260000	 65.2836
5.278000	 65.3176
5.296000	 65.3302
5.314000	 65.3506
5.332000	 65.2853
5.350000	 65.2399
5.368000	 65.2337
5.386000	 65.2415
5.404000	 65.2047
5.422000	 65.1865
5.440000	 65.1907
5.458000	 65.224
5.476000	 65.1774
5.494000	 65.1949
5.512000	 65.3193
5.530000	 65.3086
5.548000	 65.2219
5.566000	 65.2613
5.584000	 65.3141
5.602000	 65.2743
5.620000	 65.2672
5.638000	 65.2873
5.656000	 65.2596
5.674000	 65.3085
5.692000	 65.2502
5.710000	 65.1139
5.728000	 65.1005
5.746000	 65.0796
5.764000	 65.0087
5.782000	 64.9494
5.800000	 65.0687
5.818000	 65.0992
5.836000	 65.0829
5.854000	 65.1575
5.872000	 65.1381
5.890000	 65.0628
5.908000	 65.1319
5.926000	 65.195
5.944000	 65.1998
5.962000	 65.1924
5.980000	 65.1557
5.998000	 65.1723
6.016000	 65.1265
6.034000	 65.0449
6.052000	 65.0219
6.070000	 65.0289
6.088000	 65.0406
6.106000	 65.0651
6.124000	 65.0905
6.142000	 65.0658
6.160000	 65.1492
6.178000	 65.1787
6.196000	 65.1476
6.214000	 65.1798
6.232000	 65.1663
6.250000	 65.162
6.268000	 65.1111
6.286000	 65.0866
6.304000	 65.1352
6.322000	 65.1624
6.340000	 65.1548
6.358000	 65.078
6.376000	 64.9915
6.394000	 64.9774
6.412000	 64.97
6.430000	 64.9812
6.448000	 65.0575
6.466000	 65.09
6.484000	 65.0098
6.502000	 64.9406
6.520000	 65.0072
6.538000	 65.1321
6.556000	 65.1347
6.574000	 65.0126
6.592000	 64.9851
6.610000	 65.0898
6.628000	 65.1598
6.646000	 65.1732
6.664000	 65.1706
6.682000	 65.137
6.700000	 65.1484
6.718000	 65.1544
6.736000	 65.127
6.754000	 65.1346
6.772000	 65.0808
6.790000	 64.9915
6.808000	 64.9821
6.826000	 65.0285
6.844000	 65.0926
6.862000	 65.0778
6.880000	 64.9822
6.898000	 64.957
6.916000	 64.9873
6.934000	 65.0292
6.952000	 65.1076
6.970000	 65.1688
6.988000	 65.1802
7.006000	 65.1398
7.024000	 65.0615
7.042000	 65.01
7.060000	 64.9957
7.078000	 64.9788
7.096000	 64.9721
7.114000	 65.0047
7.132000	 65.0729
7.150000	 65.1188
7.168000	 65.0721
7.186000	 64.9799
7.204000	 64.9593
7.222000	 65.0003
7.240000	 64.9991
7.258000	 64.9495
7.276000	 64.9157
7.294000	 64.8964
7.312000	 64.8811
7.330000	 64.9217
7.348000	 65.015
7.366000	 65.081
7.384000	 65.0892
7.402000	 65.0671
7.420000	 65.0494
7.438000	 65.0592
7.456000	 65.0691
7.474000	 65.0481
7.492000	 65.0163
7.510000	 64.9884
7.528000	 64.9602
7.546000	 64.9478
7.564000	 64.9643
7.582000	 65.0048
7.600000	 65.0493
7.618000	 65.0613
7.636000	 65.0422
7.654000	 65.0362
7.672000	 65.0465
7.690000	 65.0413
7.708000	 65.0232
7.726000	 65.008
7.744000	 64.9919
7.762000	 64.9716
7.780000	 64.9568
7.798000	 64.9556
7.816000	 64.9652
7.834000	 64.9737
7.852000	 64.9701
7.870000	 64.9618
7.888000	 64.973
7.906000	 65.0144
7.924000	 65.0513
7.942000	 65.037
7.960000	 64.9798
7.978000	 64.9253
7.996000	 64.8968
8.013999	 64.8933
8.032000	 64.9166
8.050000	 64.9578
8.068000	 64.9856
8.086000	 64.9749
8.103999	 64.9322
8.122000	 64.9001
8.140000	 64.923
8.158000	 64.9906
8.176000	 65.0353
8.193999	 65.017
8.212000	 64.9833
8.230000	 65.0035
8.248000	 65.068
8.266000	 65.0994
8.283999	 65.0536
8.302000	 64.9658
8.320000	 64.8964
8.338000	 64.8679
8.356000	 64.8613
8.374000	 64.8535
8.391999	 64.8372
8.410000	 64.8178
8.428000	 64.8043
8.446000	 64.8044
8.464000	 64.8181
8.481999	 64.8372
8.500000	 64.8545
8.518000	 64.8708
8.536000	 64.8893
8.554000	 64.9063
8.571999	 64.9159
8.590000	 64.9169
8.608000	 64.9067
8.626000	 64.8798
8.644000	 64.8415
8.661999	 64.8128
8.680000	 64.8137
8.698000	 64.8442
8.716000	 64.8885
8.734000	 64.9291
8.751999	 64.9483
8.770000	 64.9294
8.788000	 64.8686
8.806000	 64.7868
8.824000	 64.7215
8.842000	 64.7005
8.859999	 64.72
8.878000	 64.7459
8.896000	 64.7413
8.914000	 64.7002
8.932000	 64.6539
8.949999	 64.6447
8.968000	 64.687
8.986000	 64.7572
9.004000	 64.8184
9.022000	 64.8517
9.039999	 64.8608
9.058000	 64.8529
9.076000	 64.827
9.094000	 64.782
9.112000	 64.7289
9.129999	 64.6885
9.148000	 64.6787
9.166000	 64.7025
9.184000	 64.7473
9.202000	 64.7923
9.219999	 64.8182
9.238000	 64.8124
9.256000	 64.7705
9.274000	 64.7011
9.292000	 64.6265
9.310000	 64.575
9.327999	 64.568
9.346000	 64.609
9.364000	 64.6803
9.382000	 64.7491
9.400000	 64.7845
9.418000	 64.7757
9.436000	 64.7319
9.454000	 64.6695
9.472000	 64.6026
9.490000	 64.547
9.508000	 64.5276
9.526000	 64.5689
9.544000	 64.6682
9.561999	 64.7854
9.580000	 64.865
9.598000	 64.8766
9.616000	 64.8311
9.634000	 64.7654
9.652000	 64.716
9.670000	 64.7011
9.688000	 64.718
9.706000	 64.7477
9.724000	 64.7653
9.742000	 64.7534
9.760000	 64.7131
9.778000	 64.6649
9.795999	 64.6331
9.814000	 64.6276
9.832000	 64.6398
9.850000	 64.6537
9.868000	 64.6626
9.886000	 64.6714
9.904000	 64.6848
9.922000	 64.6987
9.940000	 64.7011
9.958000	 64.6861
9.976000	 64.6643
9.994000	 64.656
10.012	64.6784
10.03	64.7335
10.048	64.8073
10.066	64.8757
10.084	64.916
10.102	64.9124
10.12	64.861
10.138	64.7725
10.156	64.6699
10.174	64.5814
10.192	64.5299
10.21	64.5242
10.228	64.5592
10.246	64.6198
10.264	64.6886
10.282	64.7507
10.3	64.7986
10.318	64.8318
10.336	64.8558
10.354	64.8802
10.372	64.9135
10.39	64.959
10.408	65.0103
10.426	65.0506
10.444	65.0576
10.462	65.0143
10.48	64.9173
10.498	64.7846
10.516	64.65
10.534	64.5458
10.552	64.4851
10.57	64.4549
10.588	64.4247
10.606	64.3696
10.624	64.2861
10.642	64.1952
10.66	64.1286
10.678	64.1169
10.696	64.175
10.714	64.3001
10.732	64.4707
10.75	64.6509
10.768	64.7865
10.786	64.8213
10.804	64.712
10.822	64.4575
10.84	64.1078
10.858	63.7538
10.876	63.4952
10.894	63.4021
10.912	63.491
10.93	63.7194
10.948	64.0112
10.966	64.2822
10.984	64.4743
11.002	64.565
11.02	64.5659
11.038	64.5112
11.056	64.4385
11.074	64.3774
11.092	64.3399
11.11	64.322
11.128	64.311
11.146	64.2947
11.164	64.2673
11.182	64.2309
11.2	64.1938
11.218	64.165
11.236	64.1519
11.254	64.1595
11.272	64.191
11.29	64.2466
11.308	64.3223
11.326	64.4089
11.344	64.4922
11.362	64.5557
11.38	64.59
11.398	64.5965
11.416	64.5873
11.434	64.5798
11.452	64.5883
11.47	64.6172
11.488	64.6587
11.506	64.697
11.524	64.715
11.542	64.7018
11.56	64.6556
11.578	64.5825
11.596	64.4931
11.614	64.4
11.632	64.3148
11.65	64.2473
11.668	64.2064
11.686	64.1968
11.704	64.2179
11.722	64.2616
11.74	64.3143
11.758	64.3602
11.776	64.3836
11.794	64.3751
11.812	64.3336
11.83	64.2659
11.848	64.184
11.866	64.1014
11.884	64.0294
11.902	63.9759
11.92	63.9441
11.938	63.933
11.956	63.9385
11.974	63.954
11.992	63.9724
12.01	63.9875
12.028	63.9949
12.046	63.9918
12.064	63.977
12.082	63.9503
12.1	63.913
12.118	63.8697
12.136	63.828
12.154	63.7979
12.172	63.789
12.19	63.8081
12.208	63.8559
12.226	63.9256
12.244	64.0057
12.262	64.0818
12.28	64.1415
12.298	64.1774
12.316	64.1896
12.334	64.1834
12.352	64.1667
12.37	64.1473
12.388	64.13
12.406	64.1154
12.424	64.1014
12.442	64.0851
12.46	64.0642
12.478	64.0385
12.496	64.0098
12.514	63.9811
12.532	63.9555
12.55	63.9355
12.568	63.9227
12.586	63.9176
12.604	63.9204
12.622	63.9301
12.64	63.9447
12.658	63.9612
12.676	63.9747
12.694	63.9802
12.712	63.9736
12.73	63.9536
12.748	63.9222
12.766	63.8854
12.784	63.8515
12.802	63.8287
12.82	63.8234
12.838	63.8383
12.856	63.8719
12.874	63.919
12.892	63.972
12.91	64.0231
12.928	64.0659
12.946	64.0972
12.964	64.1169
12.982	64.1269
13	64.1303
13.018	64.1287
13.036	64.1217
13.054	64.107
13.072	64.0814
13.09	64.0427
13.108	63.9911
13.126	63.9304
13.144	63.8676
13.162	63.8109
13.18	63.7673
13.198	63.7408
13.216	63.7307
13.234	63.7316
13.252	63.7352
13.27	63.7317
13.288	63.7141
13.306	63.6791
13.324	63.629
13.342	63.5707
13.36	63.5139
13.378	63.4686
13.396	63.4424
13.414	63.4387
13.432	63.4561
13.45	63.4893
13.468	63.5302
13.486	63.5707
13.504	63.6041
13.522	63.6272
13.54	63.6399
13.558	63.645
13.576	63.6469
13.594	63.6503
13.612	63.6583
13.63	63.6723
13.648	63.6911
13.666	63.7116
13.684	63.7299
13.702	63.7416
13.72	63.7431
13.738	63.7319
13.756	63.7078
13.774	63.6726
13.792	63.6291
13.81	63.5821
13.828	63.5366
13.846	63.4976
13.864	63.4688
13.882	63.4526
13.9	63.4497
13.918	63.4587
13.936	63.477
13.954	63.5011
13.972	63.5272
13.99	63.5515
14.008	63.5717
14.026	63.5865
14.044	63.5955
14.062	63.5993
14.08	63.5989
14.098	63.5952
14.116	63.5884
14.134	63.5781
14.152	63.5637
14.17	63.5448
14.188	63.5212
14.206	63.4938
14.224	63.4645
14.242	63.436
14.26	63.4115
14.278	63.3943
14.296	63.387
14.314	63.3914
14.332	63.4081
14.35	63.4362
14.368	63.4731
14.386	63.5152
14.404	63.5577
14.422	63.5957
14.44	63.6244
14.458	63.6396
14.476	63.6384
14.494	63.619
14.512	63.5812
14.53	63.5264
14.548	63.4576
14.566	63.3785
14.584	63.2933
14.602	63.2065
14.62	63.122
14.638	63.0436
14.656	62.9738
14.674	62.9145
14.692	62.8664
14.71	62.8301
14.728	62.8058
14.746	62.7937
14.764	62.7938
14.782	62.8062
14.8	62.8304
14.818	62.8653
14.836	62.9092
14.854	62.9591
14.872	63.011
14.89	63.0602
14.908	63.1021
14.926	63.132
14.944	63.146
14.962	63.1415
14.98	63.1181
14.998	63.0769
15.016	63.0206
15.034	62.9536
15.052	62.8816
15.07	62.8099
15.088	62.7434
15.106	62.686
15.124	62.641
15.142	62.6093
15.16	62.5899
15.178	62.5813
15.196	62.5808
15.214	62.5854
15.232	62.5919
15.25	62.5983
15.268	62.6031
15.286	62.6056
15.304	62.6065
15.322	62.6066
15.34	62.6071
15.358	62.6094
15.376	62.6143
15.394	62.6223
15.412	62.6335
15.43	62.6474
15.448	62.6632
15.466	62.6797
15.484	62.6959
15.502	62.7107
15.52	62.723
15.538	62.7323
15.556	62.738
15.574	62.7395
15.592	62.7368
15.61	62.7297
15.628	62.7186
15.646	62.704
15.664	62.6867
15.682	62.6681
15.7	62.6498
15.718	62.6337
15.736	62.6228
15.754	62.6191
15.772	62.6246
15.79	62.6414
15.808	62.6701
15.826	62.7105
15.844	62.7618
15.862	62.8213
15.88	62.8859
15.898	62.9526
15.916	63.0167
15.934	63.074
15.952	63.1217
15.97	63.1566
15.988	63.1766
16.006	63.181
16.024	63.1696
16.042	63.1436
16.06	63.1047
16.078	63.0547
16.096	62.9961
16.114	62.9317
16.132	62.8633
16.15	62.793
16.168	62.7228
16.186	62.654
16.204	62.5881
16.222	62.5261
16.24	62.4688
16.258	62.417
16.276	62.3714
16.294	62.3324
16.312	62.3005
16.33	62.2759
16.348	62.258
16.366	62.2465
16.384	62.2406
16.402	62.2388
16.42	62.2402
16.438	62.2431
16.456	62.2459
16.474	62.2475
16.492	62.2464
16.51	62.2419
16.528	62.2335
16.546	62.2209
16.564	62.2047
16.582	62.1853
16.6	62.1637
16.618	62.1412
16.636	62.1186
16.654	62.0977
16.672	62.0794
16.69	62.0645
16.708	62.0543
16.726	62.049
16.744	62.0489
16.762	62.0537
16.78	62.0629
16.798	62.0758
16.816	62.0907
16.834	62.1066
16.852	62.1216
16.87	62.1337
16.888	62.1417
16.906	62.1433
16.924	62.1376
16.942	62.1233
16.96	62.0999
16.978	62.0677
16.996	62.0268
17.014	61.9792
17.032	61.9257
17.05	61.869
17.068	61.8113
17.086	61.7544
17.104	61.7018
17.122	61.6547
17.14	61.6154
17.158	61.5848
17.176	61.5635
17.194	61.5516
17.212	61.5484
17.23	61.5534
17.248	61.5647
17.266	61.5817
17.284	61.6023
17.302	61.6258
17.32	61.6507
17.338	61.6763
17.356	61.7024
17.374	61.7287
17.392	61.7553
17.41	61.7827
17.428	61.8112
17.446	61.8409
17.464	61.8722
17.482	61.905
17.5	61.9391
17.518	61.9738
17.536	62.0089
17.554	62.0428
17.572	62.0753
17.59	62.1047
17.608	62.1305
17.626	62.1518
17.644	62.168
17.662	62.1789
17.68	62.1844
17.698	62.1847
17.716	62.1803
17.734	62.172
17.752	62.1601
17.77	62.146
17.788	62.1298
17.806	62.113
17.824	62.0958
17.842	62.0792
17.86	62.0635
17.878	62.0494
17.896	62.0372
17.914	62.0273
17.932	62.0202
17.95	62.0159
17.968	62.0146
17.986	62.0161
18.004	62.0205
18.022	62.0272
18.04	62.0361
18.058	62.0461
18.076	62.0573
18.094	62.0682
18.112	62.0784
18.13	62.0868
18.148	62.0928
18.166	62.0955
18.184	62.0944
18.202	62.0891
18.22	62.0793
18.238	62.065
18.256	62.0465
18.274	62.0237
18.292	61.9976
18.31	61.9682
18.328	61.9367
18.346	61.9031
18.364	61.8686
18.382	61.8333
18.4	61.798
18.418	61.7631
18.436	61.7288
18.454	61.6954
18.472	61.663
18.49	61.6319
18.508	61.602
18.526	61.5735
18.544	61.5466
18.562	61.5214
18.58	61.498
18.598	61.4769
18.616	61.4581
18.634	61.4421
18.652	61.429
18.67	61.4191
18.688	61.4125
18.706	61.4091
18.724	61.409
18.742	61.4119
18.76	61.4178
18.778	61.4263
18.796	61.4372
18.814	61.45
18.832	61.4644
18.85	61.4797
18.868	61.4957
18.886	61.5117
18.904	61.5277
18.922	61.5432
18.94	61.5581
18.958	61.572
18.976	61.5849
18.994	61.5964
19.012	61.6067
19.03	61.6157
19.048	61.6234
19.066	61.6299
19.084	61.6353
19.102	61.6396
19.12	61.6428
19.138	61.6448
19.156	61.6459
19.174	61.6459
19.192	61.645
19.21	61.6433
19.228	61.6409
19.246	61.6379
19.264	61.6345
19.282	61.6308
19.3	61.6271
19.318	61.6237
19.336	61.6208
19.354	61.6192
19.372	61.6187
19.39	61.6202
19.408	61.6237
19.426	61.6299
19.444	61.6388
19.462	61.6511
19.48	61.6668
19.498	61.6863
19.516	61.7094
19.534	61.7361
19.552	61.7664
19.57	61.7996
19.588	61.8353
19.606	61.8726
19.624	61.9106
19.642	61.9485
19.66	61.9842
19.678	62.0178
19.696	62.0466
19.714	62.0709
19.732	62.088
19.75	62.0981
19.768	62.0995
19.786	62.092
19.804	62.0752
19.822	62.0485
19.84	62.0125
19.858	61.9674
19.876	61.9138
19.894	61.8528
19.912	61.7845
19.93	61.711
19.948	61.6322
19.966	61.5503
19.984	61.4653
20.002	61.3789
20.02	61.2916
20.038	61.2042
20.056	61.1176
20.074	61.0318
20.092	60.948
20.11	60.8658
20.128	60.7861
20.146	60.7087
20.164	60.634
20.182	60.5621
20.2	60.4933
20.218	60.4279
20.236	60.3658
20.254	60.3078
20.272	60.2538
20.29	60.2043
20.308	60.1594
20.326	60.1194
20.344	60.0847
20.362	60.0548
20.38	60.0298
20.398	60.0096
20.416	59.9934
20.434	59.9814
20.452	59.9721
20.47	59.9653
20.488	59.9601
20.506	59.9553
20.524	59.9508
20.542	59.9444
20.56	59.9365
20.578	59.9257
20.596	59.9117
20.614	59.8943
20.632	59.8728
20.65	59.8474
20.668	59.8188
20.686	59.7867
20.704	59.7525
20.722	59.7164
20.74	59.6795
20.758	59.6436
20.776	59.6084
20.794	59.5764
20.812	59.5475
20.83	59.5229
20.848	59.504
20.866	59.4904
20.884	59.4832
20.902	59.4824
20.92	59.4876
20.938	59.4991
20.956	59.5161
20.974	59.5374
20.992	59.5632
21.01	59.5915
21.028	59.622
21.046	59.6538
21.064	59.685
21.082	59.7163
21.1	59.7454
21.118	59.7724
21.136	59.7967
21.154	59.8173
21.172	59.8345
21.19	59.8479
21.208	59.8574
21.226	59.8632
21.244	59.8657
21.262	59.8649
21.28	59.8614
21.298	59.8552
21.316	59.8469
21.334	59.8373
21.352	59.8262
21.37	59.8148
21.388	59.8031
21.406	59.7917
21.424	59.7817
21.442	59.7726
21.46	59.7658
21.478	59.7616
21.496	59.7601
21.514	59.7626
21.532	59.7686
21.55	59.779
21.568	59.7942
21.586	59.814
21.604	59.8387
21.622	59.8684
21.64	59.9027
21.658	59.9417
21.676	59.9853
21.694	60.0322
21.712	60.0828
21.73	60.1363
21.748	60.191
21.766	60.2477
21.784	60.3042
21.802	60.3598
21.82	60.4146
21.838	60.4663
21.856	60.5152
21.874	60.5603
21.892	60.5998
21.91	60.6346
21.928	60.6632
21.946	60.6853
21.964	60.7009
21.982	60.7096
22	60.711
22.018	60.7056
22.036	60.6935
22.054	60.6747
22.072	60.65
22.09	60.6194
22.108	60.5831
22.126	60.5423
22.144	60.497
22.162	60.4476
22.18	60.3952
22.198	60.3393
22.216	60.2807
22.234	60.2203
22.252	60.1576
22.27	60.0931
22.288	60.0271
22.306	59.9594
22.324	59.8903
22.342	59.8199
22.36	59.748
22.378	59.6744
22.396	59.5992
22.414	59.5221
22.432	59.4427
22.45	59.3613
22.468	59.2776
22.486	59.1916
22.504	59.1033
22.522	59.0133
22.54	58.9214
22.558	58.8279
22.576	58.7336
22.594	58.6381
22.612	58.5421
22.63	58.4467
22.648	58.3514
22.666	58.257
22.684	58.1646
22.702	58.0737
22.72	57.9853
22.738	57.9004
22.756	57.8185
22.774	57.7407
22.792	57.6675
22.81	57.5986
22.828	57.5349
22.846	57.4769
22.864	57.4243
22.882	57.3774
22.9	57.3365
22.918	57.3013
22.936	57.272
22.954	57.2486
22.972	57.2309
22.99	57.2182
23.008	57.2107
23.026	57.208
23.044	57.2093
23.062	57.2147
23.08	57.2238
23.098	57.2355
23.116	57.25
23.134	57.2669
23.152	57.285
23.17	57.3049
23.188	57.3257
23.206	57.346
23.224	57.3662
23.242	57.3858
23.26	57.4037
23.278	57.4203
23.296	57.4353
23.314	57.4476
23.332	57.4572
23.35	57.4644
23.368	57.469
23.386	57.4706
23.404	57.4697
23.422	57.4676
23.44	57.4639
23.458	57.4588
23.476	57.4536
23.494	57.4481
23.512	57.4425
23.53	57.4373
23.548	57.433
23.566	57.4291
23.584	57.4256
23.602	57.4226
23.62	57.4201
23.638	57.4171
23.656	57.4138
23.674	57.4104
23.692	57.4046
23.71	57.3957
23.728	57.3847
23.746	57.3688
23.764	57.3465
23.782	57.3192
23.8	57.2845
23.818	57.2398
23.836	57.1867
23.854	57.1237
23.872	57.049
23.89	56.9631
23.908	56.866
23.926	56.7569
23.944	56.635
23.962	56.5016
23.98	56.3579
23.998	56.2032
24.016	56.0379
24.034	55.8664
24.052	55.6898
24.07	55.5059
24.088	55.3212
24.106	55.1401
24.124	54.958
24.142	54.7815
24.16	54.6182
24.178	54.4638
24.196	54.3218
24.214	54.2
24.232	54.0975
24.25	54.0138
24.268	53.9549
24.286	53.9239
24.304	53.9179
24.322	53.9382
24.34	53.9867
24.358	54.0637
24.376	54.1658
24.394	54.2895
24.412	54.4386
24.43	54.609
24.448	54.7918
24.466	54.9876
24.484	55.1983
24.502	55.4106
24.52	55.6155
24.538	55.8221
24.556	56.0198
24.574	56.196
24.592	56.356
24.61	56.4975
24.628	56.6104
24.646	56.6907
24.664	56.7431
24.682	56.7648
24.7	56.7532
24.718	56.7079
24.736	56.6326
24.754	56.5315
24.772	56.3998
24.79	56.2411
24.808	56.0673
24.826	55.8833
24.844	55.6806
24.862	55.4741
24.88	55.2788
24.898	55.085
24.916	54.8989
24.934	54.7374
24.952	54.606
24.97	54.4956
24.988	54.4195
25.006	54.3902
25.024	54.4018
25.042	54.4553
25.06	54.5563
25.078	54.7087
25.096	54.9095
25.114	55.154
25.132	55.4389
25.15	55.7709
25.168	56.1415
25.186	56.5378
25.204	56.9588
25.222	57.4108
25.24	57.8766
25.258	58.3409
25.276	58.8162
25.294	59.294
25.312	59.7555
25.33	60.1941
25.348	60.6211
25.366	61.0221
25.384	61.3818
25.402	61.7046
25.42	61.992
25.438	62.2373
25.456	62.4349
25.474	62.587
25.492	62.6977
25.51	62.7705
25.528	62.8022
25.546	62.7936
25.564	62.7548
25.582	62.6941
25.6	62.6021
25.618	62.4865
25.636	62.3607
25.654	62.2296
25.672	62.084
25.69	61.9356
25.708	61.797
25.726	61.6655
25.744	61.5389
25.762	61.4255
25.78	61.3327
25.798	61.2552
25.816	61.1949
25.834	61.157
25.852	61.1449
25.87	61.1564
25.888	61.1898
25.906	61.2439
25.924	61.3203
25.942	61.4187
25.96	61.5344
25.978	61.663
25.996	61.8104
26.014	61.9727
26.032	62.1397
26.05	62.3043
26.068	62.4769
26.086	62.6486
26.104	62.8069
26.122	62.9467
26.14	63.0785
26.158	63.1907
26.176	63.2702
26.194	63.3176
26.212	63.34
26.23	63.3231
26.248	63.2529
26.266	63.1327
26.284	62.966
26.302	62.7455
26.32	62.4639
26.338	62.121
26.356	61.7211
26.374	61.2678
26.392	60.7632
26.41	60.1988
26.428	59.584
26.446	58.9326
26.464	58.2531
26.482	57.5295
26.5	56.7767
26.518	56.0155
26.536	55.2559
26.554	54.4775
26.572	53.6999
26.59	52.9475
26.608	52.2307
26.626	51.5293
26.644	50.8606
26.662	50.2443
26.68	49.6871
26.698	49.1735
26.716	48.7172
26.734	48.3336
26.752	48.0288
26.77	47.7924
26.788	47.6285
26.806	47.5421
26.824	47.535
26.842	47.6039
26.86	47.7488
26.878	47.9702
26.896	48.2696
26.914	48.6472
26.932	49.0979
26.95	49.6168
26.968	50.259
26.986	51.0665
27.004	51.866
27.022	52.4783
27.028	52.5917