File: Bakgrunnsmateriale/MATLAB/FTIR/ftir_data/subBb/Mapping_36/C-4040-8_t05.asc
PE IR       SPECTRUM    SPECTRUM    ASCII       PEDS        1.60
  -1
C-B52E~1.ASC
17/05/02
11:13:31.00
17/05/02
11:13:57.00
tln
$C-4040-8_t0005$<tbV0>[-7.5,-13.0,8.0,0.0,22,1,0]
27.028
64

2002,4.07
MIRTGS : RIGHTBACK : INTERNAL 2
MIR : ON : INTERNAL 2
OPTKBR

0.200000
8
8.000000
FILLER
RATIO
SPECTRUM
UNLOCKED 256

DOUBLE
64
COMBINED
1
0
0

0.002000
RATIO

1
0
TRUE
51149
0
LEFT NOT FITTED RIGHT NOT FITTED 0
NONE
NONE
15600
12
4.427000
51148
TRUE
1 0 8 72 0 0 0 0

15798

#HDR
-1
-1
#GR
µM
%T
2.38419e-05
0.0
1.282000
0.002000
12874
8
77.1481
35.7838
#DATA
1.282000	 63.6576
1.300000	 61.794
1.318000	 61.3814
1.336000	 62.372
1.354000	 60.8214
1.372000	 62.6339
1.390000	 65.0777
1.408000	 62.9765
1.426000	 64.8028
1.444000	 64.6258
1.462000	 62.2033
1.480000	 64.1114
1.498000	 63.9757
1.516000	 63.5289
1.534000	 64.4052
1.552000	 65.5313
1.570000	 64.6712
1.588000	 64.5356
1.606000	 64.6353
1.624000	 64.5522
1.642000	 64.8307
1.660000	 64.1831
1.678000	 63.4286
1.696000	 65.2021
1.714000	 64.6226
1.732000	 63.9983
1.750000	 64.771
1.768000	 64.0082
1.786000	 64.9766
1.804000	 64.8182
1.822000	 64.5623
1.840000	 64.474
1.858000	 63.5106
1.876000	 64.506
1.894000	 65.3494
1.912000	 62.2695
1.930000	 64.9345
1.948000	 63.5419
1.966000	 63.8678
1.984000	 64.4851
2.002000	 64.6912
2.020000	 64.3779
2.038000	 64.5596
2.056000	 64.3543
2.074000	 64.7745
2.092000	 64.6098
2.110000	 64.4629
2.128000	 64.6322
2.146000	 64.4769
2.164000	 64.0689
2.182000	 64.5214
2.200000	 64.2266
2.218000	 64.2204
2.236000	 63.7456
2.254000	 64.2168
2.272000	 72.6191
2.290000	 65.073
2.308000	 64.4494
2.326000	 64.0655
2.344000	 64.3578
2.362000	 63.7628
2.380000	 64.1314
2.398000	 64.2185
2.416000	 64.1805
2.434000	 64.3353
2.452000	 64.1565
2.470000	 64.0569
2.488000	 64.041
2.506000	 64.1611
2.524000	 64.2396
2.542000	 63.7936
2.560000	 63.8853
2.578000	 64.0123
2.596000	 63.8952
2.614000	 64.1098
2.632000	 63.7057
2.650000	 63.6923
2.668000	 63.9996
2.686000	 63.7068
2.704000	 63.5926
2.722000	 63.6358
2.740000	 63.7286
2.758000	 63.5179
2.776000	 63.5428
2.794000	 63.6003
2.812000	 63.548
2.830000	 62.9991
2.848000	 63.4747
2.866000	 63.3497
2.884000	 63.4188
2.902000	 63.2844
2.920000	 63.3205
2.938000	 63.1772
2.956000	 63.1972
2.974000	 63.0949
2.992000	 63.0879
3.010000	 62.8013
3.028000	 62.9575
3.046000	 62.8639
3.064000	 62.6733
3.082000	 62.7769
3.100000	 62.6154
3.118000	 62.687
3.136000	 62.583
3.154000	 62.6654
3.172000	 62.5454
3.190000	 62.4561
3.208000	 62.4322
3.226000	 62.4571
3.244000	 62.3435
3.262000	 62.3791
3.280000	 62.4143
3.298000	 62.3804
3.316000	 62.1187
3.334000	 62.0868
3.352000	 62.1114
3.370000	 61.8179
3.388000	 61.6124
3.406000	 61.6052
3.424000	 61.4877
3.442000	 61.6636
3.460000	 61.5509
3.478000	 61.6332
3.496000	 61.5657
3.514000	 61.4915
3.532000	 61.4987
3.550000	 61.5052
3.568000	 61.4378
3.586000	 61.5115
3.604000	 61.3283
3.622000	 61.256
3.640000	 61.2672
3.658000	 61.2602
3.676000	 61.0958
3.694000	 61.0654
3.712000	 60.9788
3.730000	 60.9481
3.748000	 61.0217
3.766000	 60.9064
3.784000	 60.8169
3.802000	 60.7541
3.820000	 60.7865
3.838000	 60.7808
3.856000	 60.6388
3.874000	 60.5837
3.892000	 60.5222
3.910000	 60.6527
3.928000	 60.3383
3.946000	 60.4962
3.964000	 60.3928
3.982000	 60.238
4.000000	 60.2812
4.018000	 60.1693
4.036000	 60.1519
4.054000	 60.0883
4.072000	 60.0172
4.090000	 60.0213
4.108000	 59.9615
4.125999	 59.9717
4.144000	 59.8855
4.162000	 59.8977
4.180000	 59.8059
4.198000	 59.6968
4.216000	 59.6647
4.234000	 59.629
4.252000	 59.5622
4.270000	 59.5205
4.288000	 59.4841
4.306000	 59.4776
4.324000	 59.3369
4.342000	 59.2879
4.359999	 59.3264
4.378000	 59.2272
4.396000	 59.1901
4.414000	 59.2242
4.432000	 58.9949
4.450000	 59.0886
4.468000	 59.0163
4.486000	 59.0133
4.504000	 58.8737
4.522000	 58.935
4.540000	 58.7478
4.558000	 58.7731
4.576000	 58.7235
4.594000	 58.6587
4.612000	 58.7658
4.630000	 58.5839
4.648000	 58.4403
4.666000	 58.3679
4.684000	 58.3982
4.702000	 58.3298
4.720000	 58.2661
4.738000	 58.2602
4.756000	 58.2696
4.774000	 58.2161
4.792000	 58.156
4.810000	 58.1154
4.828000	 58.0202
4.846000	 57.9772
4.864000	 58.0433
4.882000	 58.0491
4.900000	 57.8321
4.918000	 57.778
4.936000	 57.7447
4.954000	 57.8531
4.972000	 57.7854
4.990000	 57.7238
5.008000	 57.63
5.026000	 57.5727
5.044000	 57.5621
5.062000	 57.5551
5.080000	 57.5081
5.098000	 57.4752
5.116000	 57.4095
5.134000	 57.4585
5.152000	 57.415
5.170000	 57.2902
5.188000	 57.2855
5.206000	 57.2749
5.224000	 57.174
5.242000	 57.1485
5.260000	 57.1654
5.278000	 57.0855
5.296000	 57.1073
5.314000	 57.0689
5.332000	 57.0282
5.350000	 57.0454
5.368000	 56.9985
5.386000	 56.908
5.404000	 56.8656
5.422000	 56.8
5.440000	 56.6939
5.458000	 56.6838
5.476000	 56.6819
5.494000	 56.6293
5.512000	 56.524
5.530000	 56.6015
5.548000	 56.6212
5.566000	 56.5725
5.584000	 56.5302
5.602000	 56.4541
5.620000	 56.334
5.638000	 56.3833
5.656000	 56.3583
5.674000	 56.243
5.692000	 56.2526
5.710000	 56.2515
5.728000	 56.0348
5.746000	 55.9524
5.764000	 55.9673
5.782000	 55.9993
5.800000	 55.9842
5.818000	 56.0251
5.836000	 56.0273
5.854000	 55.9641
5.872000	 55.9294
5.890000	 56.0085
5.908000	 55.9831
5.926000	 55.9286
5.944000	 55.8762
5.962000	 55.8021
5.980000	 55.7342
5.998000	 55.7481
6.016000	 55.781
6.034000	 55.7231
6.052000	 55.6297
6.070000	 55.5486
6.088000	 55.5069
6.106000	 55.4743
6.124000	 55.4449
6.142000	 55.473
6.160000	 55.5286
6.178000	 55.4718
6.196000	 55.3243
6.214000	 55.2363
6.232000	 55.2351
6.250000	 55.18
6.268000	 55.1501
6.286000	 55.1952
6.304000	 55.1883
6.322000	 55.1389
6.340000	 55.0383
6.358000	 54.9338
6.376000	 54.9326
6.394000	 54.9499
6.412000	 54.9175
6.430000	 54.8811
6.448000	 54.8601
6.466000	 54.823
6.484000	 54.752
6.502000	 54.7015
6.520000	 54.7267
6.538000	 54.7641
6.556000	 54.7997
6.574000	 54.7974
6.592000	 54.702
6.610000	 54.6718
6.628000	 54.7741
6.646000	 54.7808
6.664000	 54.68
6.682000	 54.6576
6.700000	 54.6433
6.718000	 54.5611
6.736000	 54.4458
6.754000	 54.372
6.772000	 54.3916
6.790000	 54.3707
6.808000	 54.2814
6.826000	 54.2786
6.844000	 54.3384
6.862000	 54.3173
6.880000	 54.2234
6.898000	 54.1881
6.916000	 54.2455
6.934000	 54.2749
6.952000	 54.2037
6.970000	 54.0759
6.988000	 53.9745
7.006000	 53.9489
7.024000	 53.9897
7.042000	 54.0426
7.060000	 54.0478
7.078000	 54.0157
7.096000	 53.987
7.114000	 53.9641
7.132000	 53.9545
7.150000	 53.9496
7.168000	 53.9073
7.186000	 53.8314
7.204000	 53.7588
7.222000	 53.7085
7.240000	 53.6901
7.258000	 53.6817
7.276000	 53.6425
7.294000	 53.591
7.312000	 53.5785
7.330000	 53.5936
7.348000	 53.5837
7.366000	 53.5373
7.384000	 53.499
7.402000	 53.5271
7.420000	 53.6205
7.438000	 53.6943
7.456000	 53.6795
7.474000	 53.6039
7.492000	 53.5317
7.510000	 53.4845
7.528000	 53.4504
7.546000	 53.4367
7.564000	 53.4496
7.582000	 53.4496
7.600000	 53.3987
7.618000	 53.33
7.636000	 53.2946
7.654000	 53.274
7.672000	 53.2257
7.690000	 53.1682
7.708000	 53.1449
7.726000	 53.1586
7.744000	 53.1862
7.762000	 53.2028
7.780000	 53.1896
7.798000	 53.155
7.816000	 53.1189
7.834000	 53.0764
7.852000	 53.0254
7.870000	 52.9908
7.888000	 52.9798
7.906000	 52.9719
7.924000	 52.9662
7.942000	 52.9672
7.960000	 52.9469
7.978000	 52.9023
7.996000	 52.8839
8.013999	 52.9089
8.032000	 52.9241
8.050000	 52.8922
8.068000	 52.8447
8.086000	 52.8136
8.103999	 52.7775
8.122000	 52.7105
8.140000	 52.6417
8.158000	 52.6166
8.176000	 52.6245
8.193999	 52.6199
8.212000	 52.5977
8.230000	 52.5867
8.248000	 52.5986
8.266000	 52.6247
8.283999	 52.6574
8.302000	 52.6772
8.320000	 52.6544
8.338000	 52.5918
8.356000	 52.5274
8.374000	 52.4846
8.391999	 52.4564
8.410000	 52.4373
8.428000	 52.4323
8.446000	 52.4386
8.464000	 52.4418
8.481999	 52.4376
8.500000	 52.4313
8.518000	 52.4205
8.536000	 52.3904
8.554000	 52.3316
8.571999	 52.2527
8.590000	 52.1733
8.608000	 52.1087
8.626000	 52.0603
8.644000	 52.0234
8.661999	 52.0075
8.680000	 52.0309
8.698000	 52.0865
8.716000	 52.1367
8.734000	 52.1534
8.751999	 52.1479
8.770000	 52.1459
8.788000	 52.1459
8.806000	 52.1231
8.824000	 52.0683
8.842000	 52.0043
8.859999	 51.9597
8.878000	 51.9379
8.896000	 51.9177
8.914000	 51.8801
8.932000	 51.8313
8.949999	 51.7977
8.968000	 51.8003
8.986000	 51.8345
9.004000	 51.8736
9.022000	 51.8926
9.039999	 51.8861
9.058000	 51.8634
9.076000	 51.8309
9.094000	 51.7857
9.112000	 51.7289
9.129999	 51.6782
9.148000	 51.6583
9.166000	 51.6806
9.184000	 51.7319
9.202000	 51.7826
9.219999	 51.807
9.238000	 51.8048
9.256000	 51.8016
9.274000	 51.8194
9.292000	 51.8463
9.310000	 51.8418
9.327999	 51.7782
9.346000	 51.6735
9.364000	 51.5793
9.382000	 51.5327
9.400000	 51.5265
9.418000	 51.5229
9.436000	 51.4932
9.454000	 51.4371
9.472000	 51.3748
9.490000	 51.3266
9.508000	 51.2994
9.526000	 51.2903
9.544000	 51.2964
9.561999	 51.3196
9.580000	 51.3609
9.598000	 51.4137
9.616000	 51.4633
9.634000	 51.493
9.652000	 51.4899
9.670000	 51.4492
9.688000	 51.3766
9.706000	 51.288
9.724000	 51.2079
9.742000	 51.1597
9.760000	 51.1511
9.778000	 51.1706
9.795999	 51.1958
9.814000	 51.209
9.832000	 51.2025
9.850000	 51.1739
9.868000	 51.1224
9.886000	 51.0496
9.904000	 50.9661
9.922000	 50.8905
9.940000	 50.8401
9.958000	 50.8208
9.976000	 50.8272
9.994000	 50.8523
10.012	50.8929
10.03	50.9455
10.048	51.0001
10.066	51.0397
10.084	51.0504
10.102	51.028
10.12	50.98
10.138	50.9199
10.156	50.8602
10.174	50.8095
10.192	50.773
10.21	50.7521
10.228	50.7425
10.246	50.7362
10.264	50.7273
10.282	50.7165
10.3	50.7108
10.318	50.7168
10.336	50.7347
10.354	50.7574
10.372	50.7753
10.39	50.7836
10.408	50.7844
10.426	50.7849
10.444	50.7917
10.462	50.8074
10.48	50.8296
10.498	50.8503
10.516	50.8583
10.534	50.8422
10.552	50.7969
10.57	50.7286
10.588	50.6559
10.606	50.6025
10.624	50.5852
10.642	50.605
10.66	50.646
10.678	50.6832
10.696	50.6964
10.714	50.6787
10.732	50.6356
10.75	50.5779
10.768	50.5139
10.786	50.4449
10.804	50.3686
10.822	50.2844
10.84	50.1969
10.858	50.1143
10.876	50.0434
10.894	49.9863
10.912	49.9418
10.93	49.9087
10.948	49.8905
10.966	49.8974
10.984	49.9413
11.002	50.0296
11.02	50.1582
11.038	50.3071
11.056	50.4458
11.074	50.5424
11.092	50.5762
11.11	50.5467
11.128	50.4712
11.146	50.3752
11.164	50.2845
11.182	50.2119
11.2	50.1581
11.218	50.1151
11.236	50.0723
11.254	50.0227
11.272	49.9655
11.29	49.9058
11.308	49.8495
11.326	49.8041
11.344	49.7756
11.362	49.769
11.38	49.7879
11.398	49.8322
11.416	49.8973
11.434	49.9764
11.452	50.0595
11.47	50.1377
11.488	50.2061
11.506	50.2646
11.524	50.3165
11.542	50.3644
11.56	50.4066
11.578	50.4342
11.596	50.4329
11.614	50.3885
11.632	50.297
11.65	50.1688
11.668	50.0284
11.686	49.9064
11.704	49.8272
11.722	49.8009
11.74	49.8163
11.758	49.8487
11.776	49.8695
11.794	49.8608
11.812	49.8224
11.83	49.7715
11.848	49.7349
11.866	49.7343
11.884	49.7777
11.902	49.8551
11.92	49.9421
11.938	50.0083
11.956	50.0264
11.974	49.9793
11.992	49.865
12.01	49.694
12.028	49.4881
12.046	49.2754
12.064	49.0867
12.082	48.9491
12.1	48.8831
12.118	48.8963
12.136	48.9801
12.154	49.1124
12.172	49.2632
12.19	49.4016
12.208	49.5048
12.226	49.5624
12.244	49.5762
12.262	49.5571
12.28	49.5202
12.298	49.4804
12.316	49.449
12.334	49.4316
12.352	49.4292
12.37	49.4384
12.388	49.4537
12.406	49.4697
12.424	49.481
12.442	49.4835
12.46	49.4725
12.478	49.4439
12.496	49.3945
12.514	49.3239
12.532	49.2343
12.55	49.132
12.568	49.0264
12.586	48.9282
12.604	48.8468
12.622	48.788
12.64	48.7537
12.658	48.7415
12.676	48.7458
12.694	48.759
12.712	48.7741
12.73	48.7855
12.748	48.7893
12.766	48.7834
12.784	48.7679
12.802	48.744
12.82	48.7148
12.838	48.6838
12.856	48.6551
12.874	48.6332
12.892	48.6213
12.91	48.6205
12.928	48.6295
12.946	48.6447
12.964	48.6611
12.982	48.6737
13	48.6787
13.018	48.6746
13.036	48.6623
13.054	48.6446
13.072	48.6254
13.09	48.6079
13.108	48.594
13.126	48.5838
13.144	48.5756
13.162	48.567
13.18	48.5555
13.198	48.5402
13.216	48.5219
13.234	48.5038
13.252	48.4903
13.27	48.4861
13.288	48.4946
13.306	48.517
13.324	48.5518
13.342	48.5946
13.36	48.6393
13.378	48.6792
13.396	48.7083
13.414	48.7224
13.432	48.72
13.45	48.7016
13.468	48.67
13.486	48.6285
13.504	48.5811
13.522	48.5309
13.54	48.48
13.558	48.4292
13.576	48.3789
13.594	48.3289
13.612	48.279
13.63	48.2296
13.648	48.1814
13.666	48.1359
13.684	48.0947
13.702	48.0595
13.72	48.0319
13.738	48.0131
13.756	48.0034
13.774	48.0028
13.792	48.0105
13.81	48.0251
13.828	48.0443
13.846	48.0653
13.864	48.0851
13.882	48.1002
13.9	48.1073
13.918	48.1037
13.936	48.0874
13.954	48.0579
13.972	48.0155
13.99	47.9621
14.008	47.9003
14.026	47.8337
14.044	47.766
14.062	47.7007
14.08	47.6407
14.098	47.5883
14.116	47.545
14.134	47.5118
14.152	47.4892
14.17	47.4773
14.188	47.4762
14.206	47.4858
14.224	47.5057
14.242	47.5351
14.26	47.5724
14.278	47.6151
14.296	47.66
14.314	47.7031
14.332	47.7399
14.35	47.7663
14.368	47.7785
14.386	47.7739
14.404	47.7519
14.422	47.7136
14.44	47.6618
14.458	47.601
14.476	47.5363
14.494	47.4731
14.512	47.4165
14.53	47.3704
14.548	47.3363
14.566	47.314
14.584	47.3016
14.602	47.2957
14.62	47.2923
14.638	47.287
14.656	47.2765
14.674	47.2588
14.692	47.2339
14.71	47.203
14.728	47.1685
14.746	47.1338
14.764	47.1024
14.782	47.0773
14.8	47.0603
14.818	47.0521
14.836	47.0524
14.854	47.0593
14.872	47.0704
14.89	47.0829
14.908	47.0944
14.926	47.1027
14.944	47.1065
14.962	47.105
14.98	47.0989
14.998	47.089
15.016	47.0764
15.034	47.0626
15.052	47.0486
15.07	47.0346
15.088	47.0207
15.106	47.0067
15.124	46.9919
15.142	46.9756
15.16	46.9573
15.178	46.937
15.196	46.915
15.214	46.8921
15.232	46.8696
15.25	46.8487
15.268	46.8305
15.286	46.8158
15.304	46.8049
15.322	46.7977
15.34	46.7935
15.358	46.7916
15.376	46.7906
15.394	46.7893
15.412	46.7865
15.43	46.7815
15.448	46.7735
15.466	46.7623
15.484	46.7479
15.502	46.7306
15.52	46.7107
15.538	46.6887
15.556	46.665
15.574	46.6401
15.592	46.6149
15.61	46.5903
15.628	46.5671
15.646	46.5467
15.664	46.5304
15.682	46.5193
15.7	46.5144
15.718	46.5166
15.736	46.5259
15.754	46.5419
15.772	46.5637
15.79	46.5895
15.808	46.6168
15.826	46.6433
15.844	46.6666
15.862	46.6832
15.88	46.6916
15.898	46.6901
15.916	46.6776
15.934	46.6542
15.952	46.6207
15.97	46.5782
15.988	46.5294
16.006	46.4767
16.024	46.4226
16.042	46.3702
16.06	46.3221
16.078	46.2802
16.096	46.2467
16.114	46.2227
16.132	46.2086
16.15	46.2046
16.168	46.2098
16.186	46.2226
16.204	46.2419
16.222	46.2647
16.24	46.2888
16.258	46.3124
16.276	46.3329
16.294	46.3487
16.312	46.359
16.33	46.3629
16.348	46.3611
16.366	46.3538
16.384	46.3424
16.402	46.3281
16.42	46.312
16.438	46.2953
16.456	46.2786
16.474	46.2622
16.492	46.2463
16.51	46.2302
16.528	46.2135
16.546	46.1955
16.564	46.1752
16.582	46.152
16.6	46.1254
16.618	46.0952
16.636	46.0611
16.654	46.0233
16.672	45.9823
16.69	45.9382
16.708	45.8918
16.726	45.8435
16.744	45.7937
16.762	45.7429
16.78	45.6914
16.798	45.6394
16.816	45.5872
16.834	45.5348
16.852	45.4827
16.87	45.4314
16.888	45.3813
16.906	45.3338
16.924	45.2899
16.942	45.2507
16.96	45.2182
16.978	45.1933
16.996	45.1774
17.014	45.1713
17.032	45.1751
17.05	45.1885
17.068	45.2101
17.086	45.2388
17.104	45.2712
17.122	45.3057
17.14	45.3387
17.158	45.3675
17.176	45.3905
17.194	45.4047
17.212	45.4097
17.23	45.4043
17.248	45.3893
17.266	45.3648
17.284	45.3331
17.302	45.2954
17.32	45.2538
17.338	45.2107
17.356	45.1673
17.374	45.1262
17.392	45.0882
17.41	45.0545
17.428	45.0258
17.446	45.0023
17.464	44.9839
17.482	44.9704
17.5	44.9611
17.518	44.9554
17.536	44.9527
17.554	44.9522
17.572	44.9535
17.59	44.9559
17.608	44.959
17.626	44.9625
17.644	44.966
17.662	44.9694
17.68	44.9722
17.698	44.9743
17.716	44.9757
17.734	44.9761
17.752	44.9755
17.77	44.974
17.788	44.9716
17.806	44.9684
17.824	44.9646
17.842	44.9604
17.86	44.9562
17.878	44.9521
17.896	44.9485
17.914	44.9454
17.932	44.9432
17.95	44.9419
17.968	44.9415
17.986	44.9416
18.004	44.942
18.022	44.942
18.04	44.9414
18.058	44.939
18.076	44.9346
18.094	44.927
18.112	44.916
18.13	44.9005
18.148	44.8806
18.166	44.8554
18.184	44.8253
18.202	44.7899
18.22	44.7502
18.238	44.7063
18.256	44.6598
18.274	44.6111
18.292	44.5626
18.31	44.5146
18.328	44.4697
18.346	44.4285
18.364	44.3933
18.382	44.3644
18.4	44.3433
18.418	44.3302
18.436	44.3258
18.454	44.3291
18.472	44.3403
18.49	44.3571
18.508	44.3795
18.526	44.4039
18.544	44.43
18.562	44.4536
18.58	44.4744
18.598	44.4885
18.616	44.4959
18.634	44.4937
18.652	44.4821
18.67	44.4603
18.688	44.4288
18.706	44.3882
18.724	44.3397
18.742	44.2858
18.76	44.228
18.778	44.1696
18.796	44.1124
18.814	44.0598
18.832	44.0133
18.85	43.9757
18.868	43.9478
18.886	43.9312
18.904	43.9257
18.922	43.9318
18.94	43.9477
18.958	43.9731
18.976	44.0051
18.994	44.0424
19.012	44.0819
19.03	44.1214
19.048	44.1583
19.066	44.19
19.084	44.2151
19.102	44.2311
19.12	44.2378
19.138	44.2338
19.156	44.2197
19.174	44.1954
19.192	44.1622
19.21	44.1214
19.228	44.0744
19.246	44.0237
19.264	43.9703
19.282	43.9174
19.3	43.8654
19.318	43.8178
19.336	43.7742
19.354	43.7369
19.372	43.7056
19.39	43.6814
19.408	43.6641
19.426	43.6526
19.444	43.6471
19.462	43.6452
19.48	43.6472
19.498	43.6499
19.516	43.6533
19.534	43.6548
19.552	43.6538
19.57	43.6488
19.588	43.6387
19.606	43.6232
19.624	43.6013
19.642	43.5733
19.66	43.5391
19.678	43.499
19.696	43.4539
19.714	43.404
19.732	43.351
19.75	43.295
19.768	43.2379
19.786	43.1798
19.804	43.1223
19.822	43.066
19.84	43.0116
19.858	42.96
19.876	42.9114
19.894	42.8665
19.912	42.8254
19.93	42.7887
19.948	42.7563
19.966	42.7284
19.984	42.7051
20.002	42.6864
20.02	42.6721
20.038	42.6623
20.056	42.6568
20.074	42.6555
20.092	42.6583
20.11	42.6652
20.128	42.6753
20.146	42.6888
20.164	42.7047
20.182	42.723
20.2	42.7427
20.218	42.763
20.236	42.7836
20.254	42.803
20.272	42.8216
20.29	42.8376
20.308	42.8512
20.326	42.8614
20.344	42.8679
20.362	42.8706
20.38	42.8692
20.398	42.8639
20.416	42.8552
20.434	42.8428
20.452	42.8282
20.47	42.8112
20.488	42.793
20.506	42.7747
20.524	42.756
20.542	42.7387
20.56	42.7224
20.578	42.7082
20.596	42.6963
20.614	42.6868
20.632	42.6798
20.65	42.6752
20.668	42.6728
20.686	42.6726
20.704	42.674
20.722	42.6767
20.74	42.6807
20.758	42.685
20.776	42.6898
20.794	42.6948
20.812	42.7
20.83	42.7051
20.848	42.7099
20.866	42.7146
20.884	42.7188
20.902	42.7228
20.92	42.726
20.938	42.7284
20.956	42.7297
20.974	42.7294
20.992	42.7276
21.01	42.723
21.028	42.7154
21.046	42.7042
21.064	42.6879
21.082	42.6669
21.1	42.6393
21.118	42.605
21.136	42.5637
21.154	42.5143
21.172	42.4571
21.19	42.3921
21.208	42.3189
21.226	42.2387
21.244	42.1523
21.262	42.0594
21.28	41.9633
21.298	41.8633
21.316	41.7617
21.334	41.6614
21.352	41.5614
21.37	41.4665
21.388	41.3766
21.406	41.2932
21.424	41.22
21.442	41.1556
21.46	41.1028
21.478	41.0622
21.496	41.0335
21.514	41.0176
21.532	41.0144
21.55	41.0227
21.568	41.0423
21.586	41.0726
21.604	41.1103
21.622	41.1567
21.64	41.2086
21.658	41.2634
21.676	41.322
21.694	41.3799
21.712	41.4371
21.73	41.4923
21.748	41.5417
21.766	41.5865
21.784	41.6246
21.802	41.6548
21.82	41.6775
21.838	41.6918
21.856	41.6972
21.874	41.6947
21.892	41.6849
21.91	41.6673
21.928	41.644
21.946	41.6156
21.964	41.5821
21.982	41.5468
22	41.5091
22.018	41.4705
22.036	41.4335
22.054	41.3972
22.072	41.3637
22.09	41.3342
22.108	41.308
22.126	41.2869
22.144	41.271
22.162	41.2602
22.18	41.2545
22.198	41.2543
22.216	41.2585
22.234	41.2667
22.252	41.2794
22.27	41.2944
22.288	41.3115
22.306	41.3307
22.324	41.3496
22.342	41.3686
22.36	41.3869
22.378	41.4024
22.396	41.4158
22.414	41.4261
22.432	41.4319
22.45	41.434
22.468	41.4311
22.486	41.4225
22.504	41.4087
22.522	41.3891
22.54	41.3633
22.558	41.3317
22.576	41.2938
22.594	41.2496
22.612	41.1994
22.63	41.1435
22.648	41.0816
22.666	41.0145
22.684	40.9429
22.702	40.8662
22.72	40.7859
22.738	40.7034
22.756	40.6179
22.774	40.5313
22.792	40.4448
22.81	40.3575
22.828	40.2724
22.846	40.1903
22.864	40.1107
22.882	40.0369
22.9	39.9694
22.918	39.908
22.936	39.856
22.954	39.8137
22.972	39.7809
22.99	39.7603
23.008	39.7519
23.026	39.7556
23.044	39.7726
23.062	39.8032
23.08	39.8468
23.098	39.9032
23.116	39.9731
23.134	40.0552
23.152	40.1474
23.17	40.2509
23.188	40.3638
23.206	40.4825
23.224	40.6088
23.242	40.7403
23.26	40.8718
23.278	41.0056
23.296	41.1391
23.314	41.2665
23.332	41.3899
23.35	41.5071
23.368	41.6129
23.386	41.7085
23.404	41.7929
23.422	41.8621
23.44	41.9167
23.458	41.9566
23.476	41.9798
23.494	41.986
23.512	41.976
23.53	41.9495
23.548	41.9058
23.566	41.846
23.584	41.7725
23.602	41.685
23.62	41.5837
23.638	41.4734
23.656	41.355
23.674	41.2273
23.692	41.096
23.71	40.9638
23.728	40.8281
23.746	40.6942
23.764	40.5658
23.782	40.4399
23.8	40.3208
23.818	40.2126
23.836	40.1127
23.854	40.0235
23.872	39.9482
23.89	39.8861
23.908	39.8369
23.926	39.8014
23.944	39.7806
23.962	39.7729
23.98	39.7762
23.998	39.7913
24.016	39.8178
24.034	39.8511
24.052	39.8896
24.07	39.9356
24.088	39.9833
24.106	40.0285
24.124	40.0749
24.142	40.1176
24.16	40.151
24.178	40.1779
24.196	40.1962
24.214	40.2006
24.232	40.1913
24.25	40.1691
24.268	40.1312
24.286	40.0759
24.304	40.0047
24.322	39.9176
24.34	39.8148
24.358	39.6957
24.376	39.5617
24.394	39.4144
24.412	39.2521
24.43	39.0767
24.448	38.892
24.466	38.6979
24.484	38.4935
24.502	38.2846
24.52	38.0749
24.538	37.8603
24.556	37.6462
24.574	37.4391
24.592	37.2365
24.61	37.0394
24.628	36.853
24.646	36.6782
24.664	36.5131
24.682	36.3619
24.7	36.2278
24.718	36.1082
24.736	36.0052
24.754	35.9219
24.772	35.8578
24.79	35.8124
24.808	35.7879
24.826	35.7853
24.844	35.8039
24.862	35.8433
24.88	35.9036
24.898	35.9853
24.916	36.0875
24.934	36.2093
24.952	36.3506
24.97	36.5121
24.988	36.6912
25.006	36.8856
25.024	37.0973
25.042	37.3246
25.06	37.5645
25.078	37.8169
25.096	38.0829
25.114	38.3589
25.132	38.6415
25.15	38.933
25.168	39.2319
25.186	39.535
25.204	39.8416
25.222	40.1532
25.24	40.4671
25.258	40.7808
25.276	41.0956
25.294	41.4111
25.312	41.7253
25.33	42.0375
25.348	42.3488
25.366	42.6579
25.384	42.9639
25.402	43.2673
25.42	43.568
25.438	43.8643
25.456	44.1557
25.474	44.4434
25.492	44.7258
25.51	45.0007
25.528	45.269
25.546	45.5309
25.564	45.7834
25.582	46.024
25.6	46.2553
25.618	46.4756
25.636	46.6814
25.654	46.8718
25.672	47.0492
25.69	47.2103
25.708	47.3509
25.726	47.472
25.744	47.5743
25.762	47.6557
25.78	47.7142
25.798	47.7504
25.816	47.7651
25.834	47.7586
25.852	47.7298
25.87	47.6774
25.888	47.6065
25.906	47.5226
25.924	47.4232
25.942	47.3073
25.96	47.1838
25.978	47.061
25.996	46.9303
26.014	46.7965
26.032	46.6732
26.05	46.5702
26.068	46.4737
26.086	46.395
26.104	46.351
26.122	46.3486
26.14	46.3741
26.158	46.4416
26.176	46.5668
26.194	46.7504
26.212	46.9838
26.23	47.2803
26.248	47.6533
26.266	48.1011
26.284	48.6193
26.302	49.212
26.32	49.8838
26.338	50.6391
26.356	51.4708
26.374	52.3685
26.392	53.3246
26.41	54.3537
26.428	55.4428
26.446	56.571
26.464	57.7249
26.482	58.9263
26.5	60.1568
26.518	61.3907
26.536	62.6145
26.554	63.8525
26.572	65.0834
26.59	66.2806
26.608	67.4332
26.626	68.5639
26.644	69.6522
26.662	70.6746
26.68	71.6218
26.698	72.5109
26.716	73.3309
26.734	74.0689
26.752	74.7179
26.77	75.2856
26.788	75.7746
26.806	76.1872
26.824	76.5206
26.842	76.7719
26.86	76.9531
26.878	77.0766
26.896	77.1421
26.914	77.1391
26.932	77.0862
26.95	77.0029
26.968	76.8822
26.986	76.7008
27.004	76.5097
27.022	76.362
27.028	76.3357