File: Bakgrunnsmateriale/MATLAB/FTIR/ftir_data/subBb/Mapping_36/C-4040-8_e37.asc
PE IR       SPECTRUM    SPECTRUM    ASCII       PEDS        1.60
  -1
C-4040~2.ASC
17/05/02
10:48:50.00
17/05/02
10:49:17.00
tln
$C-4040-8_e0037$<ebV0>[-23.3,12.1,10.0,0.0,22,1,0]
27.028
64

2002,4.07
MIRTGS : RIGHTBACK : INTERNAL 2
MIR : ON : INTERNAL 2
OPTKBR

0.200000
8
8.000000
FILLER
SINGLE
SPECTRUM
UNLOCKED 256

DOUBLE

COMBINED
1
0
0

0.002000
BACKG

1
0
TRUE
51149
0
LEFT NOT FITTED RIGHT NOT FITTED 0
NONE
NONE
15600
12
4.427000
51148
TRUE
1 0 8 72 0 0 0 0

15798

#HDR
-1
-1
#GR
µM
EGY
2.38419e-05
0.0
1.282000
0.002000
12874
8
2.447628
0.006937
#DATA
1.282000	 0.034904
1.300000	 0.059291
1.318000	 0.073933
1.336000	 0.084728
1.354000	 0.097231
1.372000	 0.108476
1.390000	 0.119600
1.408000	 0.132414
1.426000	 0.150806
1.444000	 0.159796
1.462000	 0.174605
1.480000	 0.182517
1.498000	 0.195316
1.516000	 0.201789
1.534000	 0.213198
1.552000	 0.226490
1.570000	 0.248086
1.588000	 0.270095
1.606000	 0.285242
1.624000	 0.305511
1.642000	 0.325470
1.660000	 0.347589
1.678000	 0.366252
1.696000	 0.381879
1.714000	 0.392631
1.732000	 0.413271
1.750000	 0.424194
1.768000	 0.434762
1.786000	 0.446223
1.804000	 0.465946
1.822000	 0.489224
1.840000	 0.510504
1.858000	 0.534593
1.876000	 0.560719
1.894000	 0.592925
1.912000	 0.644776
1.930000	 0.653228
1.948000	 0.687883
1.966000	 0.714690
1.984000	 0.744227
2.002000	 0.769515
2.020000	 0.790113
2.038000	 0.807811
2.056000	 0.828776
2.074000	 0.851718
2.092000	 0.874943
2.110000	 0.891466
2.128000	 0.898446
2.146000	 0.909380
2.164000	 0.924823
2.182000	 0.945858
2.200000	 0.973541
2.218000	 0.997988
2.236000	 1.006776
2.254000	 1.008347
2.272000	 0.884354
2.290000	 1.056094
2.308000	 1.081389
2.326000	 1.120227
2.344000	 1.149755
2.362000	 1.178066
2.380000	 1.196092
2.398000	 1.205696
2.416000	 1.229710
2.434000	 1.254774
2.452000	 1.289636
2.470000	 1.330430
2.488000	 1.367681
2.506000	 1.393437
2.524000	 1.411571
2.542000	 1.425182
2.560000	 1.431359
2.578000	 1.444351
2.596000	 1.456455
2.614000	 1.490064
2.632000	 1.513079
2.650000	 1.547157
2.668000	 1.541742
2.686000	 1.570458
2.704000	 1.578800
2.722000	 1.564444
2.740000	 1.569416
2.758000	 1.581674
2.776000	 1.593135
2.794000	 1.606009
2.812000	 1.618840
2.830000	 1.622439
2.848000	 1.625466
2.866000	 1.614110
2.884000	 1.603625
2.902000	 1.590975
2.920000	 1.581793
2.938000	 1.592156
2.956000	 1.606358
2.974000	 1.625800
2.992000	 1.655926
3.010000	 1.688580
3.028000	 1.712113
3.046000	 1.735743
3.064000	 1.758445
3.082000	 1.771421
3.100000	 1.783267
3.118000	 1.785180
3.136000	 1.788528
3.154000	 1.792876
3.172000	 1.804074
3.190000	 1.824383
3.208000	 1.842695
3.226000	 1.870823
3.244000	 1.904473
3.262000	 1.925307
3.280000	 1.955846
3.298000	 1.966785
3.316000	 1.958858
3.334000	 2.018687
3.352000	 2.019371
3.370000	 1.953950
3.388000	 1.918125
3.406000	 1.813968
3.424000	 1.795798
3.442000	 1.940264
3.460000	 1.990387
3.478000	 1.998997
3.496000	 1.904260
3.514000	 2.022811
3.532000	 2.105424
3.550000	 2.143151
3.568000	 2.170617
3.586000	 2.193224
3.604000	 2.219768
3.622000	 2.239358
3.640000	 2.249060
3.658000	 2.252597
3.676000	 2.252652
3.694000	 2.247410
3.712000	 2.243508
3.730000	 2.238146
3.748000	 2.229707
3.766000	 2.223193
3.784000	 2.222434
3.802000	 2.221879
3.820000	 2.220635
3.838000	 2.224927
3.856000	 2.230087
3.874000	 2.242114
3.892000	 2.261548
3.910000	 2.273660
3.928000	 2.289754
3.946000	 2.300308
3.964000	 2.310745
3.982000	 2.318049
4.000000	 2.321195
4.018000	 2.323260
4.036000	 2.318798
4.054000	 2.310648
4.072000	 2.304159
4.090000	 2.293857
4.108000	 2.282483
4.125999	 2.273822
4.144000	 2.265561
4.162000	 2.256205
4.180000	 2.250964
4.198000	 2.248559
4.216000	 2.238850
4.234000	 2.235588
4.252000	 2.254892
4.270000	 2.264533
4.288000	 2.275435
4.306000	 2.292682
4.324000	 2.311565
4.342000	 2.328697
4.359999	 2.341345
4.378000	 2.353262
4.396000	 2.362063
4.414000	 2.367347
4.432000	 2.373957
4.450000	 2.375233
4.468000	 2.374187
4.486000	 2.373167
4.504000	 2.369799
4.522000	 2.363218
4.540000	 2.358904
4.558000	 2.351210
4.576000	 2.343652
4.594000	 2.338244
4.612000	 2.332113
4.630000	 2.328798
4.648000	 2.331267
4.666000	 2.331752
4.684000	 2.330847
4.702000	 2.331606
4.720000	 2.333192
4.738000	 2.333558
4.756000	 2.333674
4.774000	 2.332618
4.792000	 2.335006
4.810000	 2.342770
4.828000	 2.351840
4.846000	 2.366888
4.864000	 2.383574
4.882000	 2.398527
4.900000	 2.413203
4.918000	 2.425394
4.936000	 2.433698
4.954000	 2.439350
4.972000	 2.442743
4.990000	 2.446791
5.008000	 2.446883
5.026000	 2.444807
5.044000	 2.443330
5.062000	 2.437415
5.080000	 2.431100
5.098000	 2.424579
5.116000	 2.420470
5.134000	 2.413088
5.152000	 2.408001
5.170000	 2.403701
5.188000	 2.394809
5.206000	 2.384835
5.224000	 2.380375
5.242000	 2.374033
5.260000	 2.366739
5.278000	 2.362721
5.296000	 2.361117
5.314000	 2.366504
5.332000	 2.367925
5.350000	 2.367724
5.368000	 2.374083
5.386000	 2.379850
5.404000	 2.384728
5.422000	 2.385252
5.440000	 2.394182
5.458000	 2.396133
5.476000	 2.399816
5.494000	 2.408365
5.512000	 2.413845
5.530000	 2.416134
5.548000	 2.418966
5.566000	 2.417676
5.584000	 2.416533
5.602000	 2.418428
5.620000	 2.415028
5.638000	 2.403835
5.656000	 2.400933
5.674000	 2.400210
5.692000	 2.390864
5.710000	 2.375361
5.728000	 2.360295
5.746000	 2.337319
5.764000	 2.315003
5.782000	 2.315170
5.800000	 2.313930
5.818000	 2.296531
5.836000	 2.290135
5.854000	 2.284655
5.872000	 2.260264
5.890000	 2.241799
5.908000	 2.248359
5.926000	 2.240579
5.944000	 2.231244
5.962000	 2.229693
5.980000	 2.219417
5.998000	 2.211038
6.016000	 2.202428
6.034000	 2.180603
6.052000	 2.157351
6.070000	 2.154975
6.088000	 2.151916
6.106000	 2.138484
6.124000	 2.128394
6.142000	 2.117852
6.160000	 2.092344
6.178000	 2.054135
6.196000	 2.007531
6.214000	 1.969832
6.232000	 1.965320
6.250000	 1.985144
6.268000	 2.002419
6.286000	 2.008207
6.304000	 2.003730
6.322000	 1.990854
6.340000	 1.977054
6.358000	 1.972814
6.376000	 1.966545
6.394000	 1.943408
6.412000	 1.919100
6.430000	 1.925672
6.448000	 1.944892
6.466000	 1.947543
6.484000	 1.953596
6.502000	 1.995985
6.520000	 2.055005
6.538000	 2.091973
6.556000	 2.102105
6.574000	 2.100195
6.592000	 2.096233
6.610000	 2.085243
6.628000	 2.059655
6.646000	 2.001527
6.664000	 1.869465
6.682000	 1.711054
6.700000	 1.670779
6.718000	 1.766657
6.736000	 1.883749
6.754000	 1.949155
6.772000	 1.967521
6.790000	 1.967798
6.808000	 1.960748
6.826000	 1.938514
6.844000	 1.891335
6.862000	 1.821972
6.880000	 1.764698
6.898000	 1.761561
6.916000	 1.804000
6.934000	 1.842102
6.952000	 1.855602
6.970000	 1.860916
6.988000	 1.866008
7.006000	 1.866212
7.024000	 1.859449
7.042000	 1.849014
7.060000	 1.837651
7.078000	 1.816978
7.096000	 1.778386
7.114000	 1.736382
7.132000	 1.719414
7.150000	 1.735463
7.168000	 1.764815
7.186000	 1.782658
7.204000	 1.782330
7.222000	 1.779089
7.240000	 1.786338
7.258000	 1.798018
7.276000	 1.805419
7.294000	 1.809128
7.312000	 1.810746
7.330000	 1.810600
7.348000	 1.810557
7.366000	 1.810879
7.384000	 1.810372
7.402000	 1.808442
7.420000	 1.805707
7.438000	 1.803667
7.456000	 1.804894
7.474000	 1.811392
7.492000	 1.821550
7.510000	 1.831113
7.528000	 1.837775
7.546000	 1.842213
7.564000	 1.845225
7.582000	 1.847041
7.600000	 1.848063
7.618000	 1.848744
7.636000	 1.848876
7.654000	 1.848356
7.672000	 1.847606
7.690000	 1.847372
7.708000	 1.847894
7.726000	 1.848314
7.744000	 1.847961
7.762000	 1.847249
7.780000	 1.846505
7.798000	 1.844641
7.816000	 1.839391
7.834000	 1.829012
7.852000	 1.811636
7.870000	 1.785421
7.888000	 1.752287
7.906000	 1.722087
7.924000	 1.708691
7.942000	 1.719105
7.960000	 1.746947
7.978000	 1.777995
7.996000	 1.801730
8.013999	 1.815919
8.032000	 1.823553
8.050000	 1.827294
8.068000	 1.828186
8.086000	 1.827108
8.103999	 1.825156
8.122000	 1.822727
8.140000	 1.819405
8.158000	 1.814335
8.176000	 1.807077
8.193999	 1.797145
8.212000	 1.784390
8.230000	 1.770090
8.248000	 1.756685
8.266000	 1.746512
8.283999	 1.740330
8.302000	 1.737696
8.320000	 1.737441
8.338000	 1.738208
8.356000	 1.738555
8.374000	 1.737512
8.391999	 1.734658
8.410000	 1.730071
8.428000	 1.723913
8.446000	 1.716806
8.464000	 1.709621
8.481999	 1.702790
8.500000	 1.695654
8.518000	 1.687327
8.536000	 1.677464
8.554000	 1.666577
8.571999	 1.655177
8.590000	 1.643555
8.608000	 1.632321
8.626000	 1.622781
8.644000	 1.615816
8.661999	 1.611102
8.680000	 1.607181
8.698000	 1.603045
8.716000	 1.598616
8.734000	 1.594238
8.751999	 1.589843
8.770000	 1.584637
8.788000	 1.578088
8.806000	 1.570015
8.824000	 1.560780
8.842000	 1.550515
8.859999	 1.539398
8.878000	 1.527827
8.896000	 1.516167
8.914000	 1.504525
8.932000	 1.492578
8.949999	 1.480215
8.968000	 1.467737
8.986000	 1.455921
9.004000	 1.445603
9.022000	 1.437337
9.039999	 1.431309
9.058000	 1.427048
9.076000	 1.423954
9.094000	 1.421613
9.112000	 1.419910
9.129999	 1.419069
9.148000	 1.419087
9.166000	 1.419811
9.184000	 1.420961
9.202000	 1.422064
9.219999	 1.422669
9.238000	 1.422456
9.256000	 1.421601
9.274000	 1.420709
9.292000	 1.420817
9.310000	 1.422464
9.327999	 1.425461
9.346000	 1.428830
9.364000	 1.431521
9.382000	 1.432723
9.400000	 1.431577
9.418000	 1.426385
9.436000	 1.414203
9.454000	 1.392506
9.472000	 1.362154
9.490000	 1.329513
9.508000	 1.304289
9.526000	 1.294547
9.544000	 1.301987
9.561999	 1.321278
9.580000	 1.343630
9.598000	 1.361906
9.616000	 1.373031
9.634000	 1.377712
9.652000	 1.378045
9.670000	 1.375869
9.688000	 1.372374
9.706000	 1.368265
9.724000	 1.364022
9.742000	 1.360216
9.760000	 1.357169
9.778000	 1.355308
9.795999	 1.354862
9.814000	 1.355956
9.832000	 1.358457
9.850000	 1.362156
9.868000	 1.366769
9.886000	 1.371853
9.904000	 1.377009
9.922000	 1.381889
9.940000	 1.386091
9.958000	 1.389367
9.976000	 1.391615
9.994000	 1.392689
10.012	1.392701
10.03	1.391869
10.048	1.390519
10.066	1.388991
10.084	1.387394
10.102	1.385735
10.12	1.383831
10.138	1.381618
10.156	1.379073
10.174	1.376114
10.192	1.372892
10.21	1.369453
10.228	1.365854
10.246	1.362015
10.264	1.357882
10.282	1.353315
10.3	1.348246
10.318	1.342760
10.336	1.336887
10.354	1.330852
10.372	1.324736
10.39	1.318621
10.408	1.312523
10.426	1.306512
10.444	1.300673
10.462	1.295114
10.48	1.289909
10.498	1.284952
10.516	1.280179
10.534	1.275440
10.552	1.270886
10.57	1.266682
10.588	1.263047
10.606	1.259880
10.624	1.257014
10.642	1.254064
10.66	1.250743
10.678	1.247127
10.696	1.243374
10.714	1.239734
10.732	1.236345
10.75	1.233268
10.768	1.230231
10.786	1.227160
10.804	1.223943
10.822	1.220424
10.84	1.216691
10.858	1.212636
10.876	1.208207
10.894	1.203347
10.912	1.198044
10.93	1.192379
10.948	1.186557
10.966	1.180679
10.984	1.174973
11.002	1.169564
11.02	1.164585
11.038	1.160155
11.056	1.156351
11.074	1.153284
11.092	1.150875
11.11	1.148996
11.128	1.147434
11.146	1.145881
11.164	1.144098
11.182	1.141780
11.2	1.138665
11.218	1.134497
11.236	1.128871
11.254	1.121531
11.272	1.112277
11.29	1.101029
11.308	1.088140
11.326	1.074272
11.344	1.060273
11.362	1.047229
11.38	1.036164
11.398	1.027992
11.416	1.023362
11.434	1.022571
11.452	1.025468
11.47	1.031474
11.488	1.039776
11.506	1.049269
11.524	1.058939
11.542	1.067953
11.56	1.075667
11.578	1.081899
11.596	1.086584
11.614	1.089826
11.632	1.091746
11.65	1.092597
11.668	1.092365
11.686	1.091092
11.704	1.089013
11.722	1.086307
11.74	1.083287
11.758	1.080329
11.776	1.077817
11.794	1.075911
11.812	1.074471
11.83	1.073204
11.848	1.071494
11.866	1.068720
11.884	1.064274
11.902	1.057777
11.92	1.048936
11.938	1.037700
11.956	1.024157
11.974	1.008251
11.992	0.990022
12.01	0.969609
12.028	0.947496
12.046	0.924478
12.064	0.901795
12.082	0.881157
12.1	0.864239
12.118	0.852574
12.136	0.847114
12.154	0.847889
12.172	0.854336
12.19	0.865094
12.208	0.878504
12.226	0.892729
12.244	0.906410
12.262	0.918496
12.28	0.928415
12.298	0.935981
12.316	0.941283
12.334	0.944553
12.352	0.946153
12.37	0.946324
12.388	0.945507
12.406	0.944012
12.424	0.942181
12.442	0.940387
12.46	0.938967
12.478	0.938114
12.496	0.938014
12.514	0.938762
12.532	0.940247
12.55	0.942374
12.568	0.944975
12.586	0.947944
12.604	0.951142
12.622	0.954404
12.64	0.957660
12.658	0.960882
12.676	0.964000
12.694	0.966872
12.712	0.969489
12.73	0.971770
12.748	0.973665
12.766	0.975108
12.784	0.976045
12.802	0.976534
12.82	0.976567
12.838	0.976173
12.856	0.975468
12.874	0.974488
12.892	0.973327
12.91	0.972102
12.928	0.970810
12.946	0.969523
12.964	0.968288
12.982	0.967125
13	0.966018
13.018	0.964964
13.036	0.964039
13.054	0.963155
13.072	0.962300
13.09	0.961498
13.108	0.960722
13.126	0.959914
13.144	0.958998
13.162	0.957961
13.18	0.956860
13.198	0.955698
13.216	0.954444
13.234	0.953183
13.252	0.951945
13.27	0.950674
13.288	0.949401
13.306	0.948094
13.324	0.946746
13.342	0.945302
13.36	0.943747
13.378	0.942114
13.396	0.940397
13.414	0.938638
13.432	0.936864
13.45	0.935067
13.468	0.933278
13.486	0.931501
13.504	0.929677
13.522	0.927798
13.54	0.925871
13.558	0.923861
13.576	0.921727
13.594	0.919479
13.612	0.917139
13.63	0.914714
13.648	0.912243
13.666	0.909692
13.684	0.907078
13.702	0.904388
13.72	0.901660
13.738	0.898851
13.756	0.896010
13.774	0.893132
13.792	0.890220
13.81	0.887271
13.828	0.884306
13.846	0.881345
13.864	0.878409
13.882	0.875517
13.9	0.872673
13.918	0.869894
13.936	0.867164
13.954	0.864456
13.972	0.861791
13.99	0.859179
14.008	0.856550
14.026	0.853929
14.044	0.851314
14.062	0.848727
14.08	0.846147
14.098	0.843592
14.116	0.841038
14.134	0.838458
14.152	0.835838
14.17	0.833150
14.188	0.830330
14.206	0.827298
14.224	0.824067
14.242	0.820560
14.26	0.816766
14.278	0.812654
14.296	0.808203
14.314	0.803426
14.332	0.798301
14.35	0.792759
14.368	0.786814
14.386	0.780521
14.404	0.773939
14.422	0.767209
14.44	0.760460
14.458	0.753892
14.476	0.747755
14.494	0.742271
14.512	0.737558
14.53	0.733816
14.548	0.731054
14.566	0.729264
14.584	0.728367
14.602	0.728216
14.62	0.728610
14.638	0.729301
14.656	0.730114
14.674	0.730910
14.692	0.731526
14.71	0.731850
14.728	0.731869
14.746	0.731519
14.764	0.730841
14.782	0.729847
14.8	0.728579
14.818	0.727092
14.836	0.725441
14.854	0.723625
14.872	0.721741
14.89	0.719808
14.908	0.717850
14.926	0.715903
14.944	0.713997
14.962	0.712112
14.98	0.710244
14.998	0.708404
15.016	0.706597
15.034	0.704792
15.052	0.702974
15.07	0.701172
15.088	0.699361
15.106	0.697490
15.124	0.695633
15.142	0.693750
15.16	0.691860
15.178	0.689973
15.196	0.688073
15.214	0.686200
15.232	0.684307
15.25	0.682402
15.268	0.680501
15.286	0.678574
15.304	0.676624
15.322	0.674642
15.34	0.672619
15.358	0.670540
15.376	0.668455
15.394	0.666352
15.412	0.664228
15.43	0.662097
15.448	0.659981
15.466	0.657913
15.484	0.655918
15.502	0.654011
15.52	0.652138
15.538	0.650356
15.556	0.648658
15.574	0.646998
15.592	0.645311
15.61	0.643594
15.628	0.641834
15.646	0.640012
15.664	0.638104
15.682	0.636100
15.7	0.634002
15.718	0.631833
15.736	0.629612
15.754	0.627372
15.772	0.625144
15.79	0.622959
15.808	0.620848
15.826	0.618814
15.844	0.616843
15.862	0.614953
15.88	0.613135
15.898	0.611377
15.916	0.609640
15.934	0.607944
15.952	0.606281
15.97	0.604636
15.988	0.602945
16.006	0.601208
16.024	0.599429
16.042	0.597612
16.06	0.595727
16.078	0.593760
16.096	0.591705
16.114	0.589553
16.132	0.587298
16.15	0.584933
16.168	0.582461
16.186	0.579876
16.204	0.577172
16.222	0.574336
16.24	0.571387
16.258	0.568336
16.276	0.565152
16.294	0.561857
16.312	0.558464
16.33	0.555002
16.348	0.551492
16.366	0.547957
16.384	0.544453
16.402	0.541013
16.42	0.537674
16.438	0.534530
16.456	0.531619
16.474	0.528971
16.492	0.526649
16.51	0.524679
16.528	0.523068
16.546	0.521790
16.564	0.520841
16.582	0.520206
16.6	0.519835
16.618	0.519652
16.636	0.519609
16.654	0.519652
16.672	0.519721
16.69	0.519770
16.708	0.519788
16.726	0.519728
16.744	0.519538
16.762	0.519231
16.78	0.518807
16.798	0.518258
16.816	0.517640
16.834	0.516956
16.852	0.516177
16.87	0.515340
16.888	0.514460
16.906	0.513562
16.924	0.512665
16.942	0.511797
16.96	0.510938
16.978	0.510093
16.996	0.509266
17.014	0.508473
17.032	0.507722
17.05	0.507007
17.068	0.506334
17.086	0.505708
17.104	0.505140
17.122	0.504624
17.14	0.504142
17.158	0.503698
17.176	0.503294
17.194	0.502898
17.212	0.502508
17.23	0.502121
17.248	0.501721
17.266	0.501304
17.284	0.500863
17.302	0.500389
17.32	0.499856
17.338	0.499286
17.356	0.498684
17.374	0.498059
17.392	0.497410
17.41	0.496734
17.428	0.496047
17.446	0.495353
17.464	0.494670
17.482	0.493998
17.5	0.493336
17.518	0.492683
17.536	0.492043
17.554	0.491397
17.572	0.490741
17.59	0.490060
17.608	0.489355
17.626	0.488631
17.644	0.487870
17.662	0.487068
17.68	0.486247
17.698	0.485402
17.716	0.484514
17.734	0.483593
17.752	0.482643
17.77	0.481668
17.788	0.480672
17.806	0.479696
17.824	0.478721
17.842	0.477704
17.86	0.476674
17.878	0.475655
17.896	0.474630
17.914	0.473598
17.932	0.472571
17.95	0.471544
17.968	0.470497
17.986	0.469447
18.004	0.468421
18.022	0.467412
18.04	0.466417
18.058	0.465447
18.076	0.464503
18.094	0.463565
18.112	0.462636
18.13	0.461732
18.148	0.460854
18.166	0.460008
18.184	0.459192
18.202	0.458412
18.22	0.457640
18.238	0.456864
18.256	0.456096
18.274	0.455338
18.292	0.454583
18.31	0.453828
18.328	0.453061
18.346	0.452278
18.364	0.451456
18.382	0.450604
18.4	0.449728
18.418	0.448827
18.436	0.447901
18.454	0.446950
18.472	0.445976
18.49	0.444971
18.508	0.443930
18.526	0.442876
18.544	0.441812
18.562	0.440752
18.58	0.439694
18.598	0.438638
18.616	0.437585
18.634	0.436533
18.652	0.435483
18.67	0.434435
18.688	0.433389
18.706	0.432356
18.724	0.431328
18.742	0.430294
18.76	0.429253
18.778	0.428201
18.796	0.427138
18.814	0.426070
18.832	0.424981
18.85	0.423848
18.868	0.422687
18.886	0.421505
18.904	0.420304
18.922	0.419089
18.94	0.417858
18.958	0.416611
18.976	0.415349
18.994	0.414067
19.012	0.412779
19.03	0.411499
19.048	0.410219
19.066	0.408929
19.084	0.407645
19.102	0.406380
19.12	0.405128
19.138	0.403892
19.156	0.402667
19.174	0.401444
19.192	0.400236
19.21	0.399062
19.228	0.397907
19.246	0.396753
19.264	0.395609
19.282	0.394488
19.3	0.393386
19.318	0.392297
19.336	0.391220
19.354	0.390140
19.372	0.389062
19.39	0.388007
19.408	0.386974
19.426	0.385935
19.444	0.384890
19.462	0.383841
19.48	0.382788
19.498	0.381737
19.516	0.380694
19.534	0.379637
19.552	0.378551
19.57	0.377456
19.588	0.376363
19.606	0.375264
19.624	0.374157
19.642	0.373040
19.66	0.371907
19.678	0.370761
19.696	0.369610
19.714	0.368453
19.732	0.367270
19.75	0.366063
19.768	0.364829
19.786	0.363565
19.804	0.362273
19.822	0.360957
19.84	0.359608
19.858	0.358217
19.876	0.356790
19.894	0.355335
19.912	0.353847
19.93	0.352313
19.948	0.350734
19.966	0.349139
19.984	0.347531
20.002	0.345906
20.02	0.344260
20.038	0.342607
20.056	0.340963
20.074	0.339322
20.092	0.337673
20.11	0.336021
20.128	0.334398
20.146	0.332807
20.164	0.331238
20.182	0.329688
20.2	0.328161
20.218	0.326663
20.236	0.325189
20.254	0.323744
20.272	0.322327
20.29	0.320915
20.308	0.319509
20.326	0.318107
20.344	0.316706
20.362	0.315307
20.38	0.313913
20.398	0.312521
20.416	0.311121
20.434	0.309715
20.452	0.308299
20.47	0.306874
20.488	0.305435
20.506	0.303972
20.524	0.302490
20.542	0.300995
20.56	0.299486
20.578	0.297959
20.596	0.296406
20.614	0.294842
20.632	0.293282
20.65	0.291721
20.668	0.290153
20.686	0.288574
20.704	0.287002
20.722	0.285446
20.74	0.283901
20.758	0.282365
20.776	0.280840
20.794	0.279334
20.812	0.277848
20.83	0.276382
20.848	0.274934
20.866	0.273505
20.884	0.272095
20.902	0.270704
20.92	0.269331
20.938	0.267977
20.956	0.266641
20.974	0.265324
20.992	0.264024
21.01	0.262743
21.028	0.261481
21.046	0.260236
21.064	0.259004
21.082	0.257786
21.1	0.256579
21.118	0.255377
21.136	0.254189
21.154	0.253023
21.172	0.251877
21.19	0.250732
21.208	0.249588
21.226	0.248443
21.244	0.247295
21.262	0.246145
21.28	0.244996
21.298	0.243853
21.316	0.242709
21.334	0.241559
21.352	0.240404
21.37	0.239233
21.388	0.238043
21.406	0.236836
21.424	0.235613
21.442	0.234372
21.46	0.233119
21.478	0.231859
21.496	0.230583
21.514	0.229276
21.532	0.227937
21.55	0.226580
21.568	0.225211
21.586	0.223826
21.604	0.222426
21.622	0.221010
21.64	0.219580
21.658	0.218132
21.676	0.216669
21.694	0.215197
21.712	0.213718
21.73	0.212232
21.748	0.210742
21.766	0.209247
21.784	0.207750
21.802	0.206252
21.82	0.204752
21.838	0.203259
21.856	0.201771
21.874	0.200291
21.892	0.198825
21.91	0.197369
21.928	0.195933
21.946	0.194524
21.964	0.193137
21.982	0.191768
22	0.190414
22.018	0.189082
22.036	0.187783
22.054	0.186513
22.072	0.185269
22.09	0.184049
22.108	0.182853
22.126	0.181682
22.144	0.180534
22.162	0.179411
22.18	0.178317
22.198	0.177251
22.216	0.176211
22.234	0.175195
22.252	0.174204
22.27	0.173231
22.288	0.172275
22.306	0.171336
22.324	0.170408
22.342	0.169489
22.36	0.168581
22.378	0.167684
22.396	0.166803
22.414	0.165926
22.432	0.165043
22.45	0.164158
22.468	0.163271
22.486	0.162383
22.504	0.161494
22.522	0.160600
22.54	0.159702
22.558	0.158800
22.576	0.157889
22.594	0.156970
22.612	0.156043
22.63	0.155113
22.648	0.154181
22.666	0.153243
22.684	0.152292
22.702	0.151327
22.72	0.150356
22.738	0.149389
22.756	0.148422
22.774	0.147449
22.792	0.146468
22.81	0.145479
22.828	0.144484
22.846	0.143481
22.864	0.142472
22.882	0.141455
22.9	0.140431
22.918	0.139400
22.936	0.138365
22.954	0.137329
22.972	0.136288
22.99	0.135238
23.008	0.134175
23.026	0.133103
23.044	0.132028
23.062	0.130951
23.08	0.129871
23.098	0.128783
23.116	0.127687
23.134	0.126586
23.152	0.125481
23.17	0.124371
23.188	0.123258
23.206	0.122149
23.224	0.121042
23.242	0.119937
23.26	0.118833
23.278	0.117731
23.296	0.116631
23.314	0.115533
23.332	0.114435
23.35	0.113340
23.368	0.112249
23.386	0.111162
23.404	0.110080
23.422	0.109005
23.44	0.107937
23.458	0.106877
23.476	0.105823
23.494	0.104775
23.512	0.103734
23.53	0.102700
23.548	0.101673
23.566	0.100652
23.584	0.099638
23.602	0.098630
23.62	0.097629
23.638	0.096634
23.656	0.095646
23.674	0.094664
23.692	0.093688
23.71	0.092719
23.728	0.091757
23.746	0.090800
23.764	0.089851
23.782	0.088911
23.8	0.087973
23.818	0.087031
23.836	0.086085
23.854	0.085140
23.872	0.084201
23.89	0.083267
23.908	0.082336
23.926	0.081407
23.944	0.080477
23.962	0.079549
23.98	0.078624
23.998	0.077704
24.016	0.076788
24.034	0.075875
24.052	0.074965
24.07	0.074058
24.088	0.073157
24.106	0.072266
24.124	0.071380
24.142	0.070506
24.16	0.069648
24.178	0.068806
24.196	0.067978
24.214	0.067169
24.232	0.066375
24.25	0.065599
24.268	0.064842
24.286	0.064104
24.304	0.063385
24.322	0.062685
24.34	0.062004
24.358	0.061341
24.376	0.060697
24.394	0.060071
24.412	0.059467
24.43	0.058880
24.448	0.058305
24.466	0.057740
24.484	0.057187
24.502	0.056644
24.52	0.056105
24.538	0.055575
24.556	0.055050
24.574	0.054531
24.592	0.054020
24.61	0.053514
24.628	0.053002
24.646	0.052480
24.664	0.051952
24.682	0.051420
24.7	0.050881
24.718	0.050339
24.736	0.049790
24.754	0.049233
24.772	0.048668
24.79	0.048096
24.808	0.047517
24.826	0.046930
24.844	0.046335
24.862	0.045733
24.88	0.045127
24.898	0.044517
24.916	0.043901
24.934	0.043280
24.952	0.042653
24.97	0.042018
24.988	0.041382
25.006	0.040749
25.024	0.040116
25.042	0.039485
25.06	0.038858
25.078	0.038238
25.096	0.037621
25.114	0.037011
25.132	0.036408
25.15	0.035811
25.168	0.035221
25.186	0.034640
25.204	0.034067
25.222	0.033502
25.24	0.032947
25.258	0.032403
25.276	0.031870
25.294	0.031346
25.312	0.030833
25.33	0.030330
25.348	0.029836
25.366	0.029353
25.384	0.028882
25.402	0.028425
25.42	0.027979
25.438	0.027544
25.456	0.027117
25.474	0.026701
25.492	0.026294
25.51	0.025896
25.528	0.025509
25.546	0.025131
25.564	0.024762
25.582	0.024403
25.6	0.024054
25.618	0.023714
25.636	0.023384
25.654	0.023064
25.672	0.022755
25.69	0.022454
25.708	0.022155
25.726	0.021859
25.744	0.021567
25.762	0.021279
25.78	0.020991
25.798	0.020707
25.816	0.020425
25.834	0.020142
25.852	0.019856
25.87	0.019569
25.888	0.019280
25.906	0.018990
25.924	0.018698
25.942	0.018405
25.96	0.018111
25.978	0.017816
25.996	0.017521
26.014	0.017224
26.032	0.016924
26.05	0.016618
26.068	0.016306
26.086	0.015990
26.104	0.015670
26.122	0.015344
26.14	0.015011
26.158	0.014676
26.176	0.014342
26.194	0.014009
26.212	0.013677
26.23	0.013346
26.248	0.013018
26.266	0.012688
26.284	0.012360
26.302	0.012039
26.32	0.011730
26.338	0.011433
26.356	0.011146
26.374	0.010870
26.392	0.010607
26.41	0.010354
26.428	0.010113
26.446	0.009884
26.464	0.009669
26.482	0.009469
26.5	0.009280
26.518	0.009103
26.536	0.008936
26.554	0.008779
26.572	0.008633
26.59	0.008502
26.608	0.008388
26.626	0.008291
26.644	0.008205
26.662	0.008126
26.68	0.008050
26.698	0.007980
26.716	0.007916
26.734	0.007856
26.752	0.007802
26.77	0.007753
26.788	0.007708
26.806	0.007662
26.824	0.007615
26.842	0.007570
26.86	0.007523
26.878	0.007473
26.896	0.007419
26.914	0.007362
26.932	0.007301
26.95	0.007239
26.968	0.007168
26.986	0.007086
27.004	0.007008
27.022	0.006949
27.028	0.006937