File: Bakgrunnsmateriale/MATLAB/FTIR/ftir_data/subBb/Mapping_36/C-4040-8_t09.asc
PE IR       SPECTRUM    SPECTRUM    ASCII       PEDS        1.60
  -1
C-C52E~1.ASC
17/05/02
11:32:51.00
17/05/02
11:33:18.00
tln
$C-4040-8_t0009$<tbV0>[2.5,-8.0,8.0,0.0,22,1,0]
27.028
64

2002,4.07
MIRTGS : RIGHTBACK : INTERNAL 2
MIR : ON : INTERNAL 2
OPTKBR

0.200000
8
8.000000
FILLER
RATIO
SPECTRUM
UNLOCKED 256

DOUBLE
64
COMBINED
1
0
0

0.002000
RATIO

1
0
TRUE
51149
0
LEFT NOT FITTED RIGHT NOT FITTED 0
NONE
NONE
15600
12
4.427000
51148
TRUE
1 0 8 72 0 0 0 0

15798

#HDR
-1
-1
#GR
µM
%T
2.38419e-05
0.0
1.282000
0.002000
12874
8
77.9326
23.9148
#DATA
1.282000	 71.1286
1.300000	 66.2728
1.318000	 67.1466
1.336000	 64.4415
1.354000	 64.0438
1.372000	 64.9589
1.390000	 67.6786
1.408000	 63.9475
1.426000	 59.5115
1.444000	 62.9299
1.462000	 63.3049
1.480000	 63.9977
1.498000	 63.0383
1.516000	 63.0325
1.534000	 62.8578
1.552000	 64.2968
1.570000	 63.9665
1.588000	 62.3129
1.606000	 64.3589
1.624000	 63.761
1.642000	 63.901
1.660000	 64.0489
1.678000	 63.6496
1.696000	 63.6971
1.714000	 64.0012
1.732000	 63.5901
1.750000	 63.8556
1.768000	 63.6558
1.786000	 64.0779
1.804000	 63.3316
1.822000	 64.5398
1.840000	 63.5177
1.858000	 63.4338
1.876000	 63.8136
1.894000	 63.4534
1.912000	 62.2524
1.930000	 64.1639
1.948000	 63.3015
1.966000	 63.674
1.984000	 63.7677
2.002000	 64.1033
2.020000	 63.9036
2.038000	 63.7133
2.056000	 63.6751
2.074000	 63.6587
2.092000	 63.7115
2.110000	 63.792
2.128000	 64.1183
2.146000	 63.6762
2.164000	 63.5618
2.182000	 63.8308
2.200000	 63.5106
2.218000	 63.2017
2.236000	 63.2854
2.254000	 63.6823
2.272000	 71.0235
2.290000	 63.5916
2.308000	 63.4588
2.326000	 62.9907
2.344000	 62.6389
2.362000	 62.7058
2.380000	 63.0216
2.398000	 63.3165
2.416000	 62.8727
2.434000	 62.7187
2.452000	 62.6395
2.470000	 62.7231
2.488000	 62.5879
2.506000	 62.6927
2.524000	 62.6111
2.542000	 62.4075
2.560000	 62.5807
2.578000	 62.4921
2.596000	 62.417
2.614000	 62.3102
2.632000	 62.4364
2.650000	 61.9753
2.668000	 62.171
2.686000	 61.9726
2.704000	 61.8431
2.722000	 62.0313
2.740000	 61.9486
2.758000	 61.7088
2.776000	 61.5032
2.794000	 61.3644
2.812000	 61.3345
2.830000	 61.2347
2.848000	 61.314
2.866000	 61.4551
2.884000	 61.2612
2.902000	 61.0956
2.920000	 61.0972
2.938000	 61.0013
2.956000	 60.8008
2.974000	 60.6576
2.992000	 60.7196
3.010000	 60.3126
3.028000	 60.5501
3.046000	 60.4455
3.064000	 60.1779
3.082000	 60.1104
3.100000	 59.9454
3.118000	 59.9077
3.136000	 59.9184
3.154000	 59.8263
3.172000	 59.7269
3.190000	 59.4831
3.208000	 59.4581
3.226000	 59.4183
3.244000	 59.3019
3.262000	 59.3711
3.280000	 59.0642
3.298000	 59.0146
3.316000	 58.9991
3.334000	 58.8221
3.352000	 58.7137
3.370000	 58.47
3.388000	 58.3021
3.406000	 58.0808
3.424000	 57.8943
3.442000	 57.9906
3.460000	 58.0043
3.478000	 57.8863
3.496000	 57.81
3.514000	 57.7281
3.532000	 57.6198
3.550000	 57.6112
3.568000	 57.5992
3.586000	 57.4377
3.604000	 57.3646
3.622000	 57.1634
3.640000	 57.1002
3.658000	 56.9813
3.676000	 57.0458
3.694000	 56.8861
3.712000	 56.7854
3.730000	 56.5753
3.748000	 56.5882
3.766000	 56.3237
3.784000	 56.2748
3.802000	 56.1581
3.820000	 56.2871
3.838000	 56.101
3.856000	 55.9877
3.874000	 55.8907
3.892000	 55.7145
3.910000	 55.6839
3.928000	 55.597
3.946000	 55.4547
3.964000	 55.4727
3.982000	 55.3197
4.000000	 55.2647
4.018000	 55.0679
4.036000	 55.0227
4.054000	 54.9714
4.072000	 54.8369
4.090000	 54.721
4.108000	 54.6614
4.125999	 54.4672
4.144000	 54.4592
4.162000	 54.3562
4.180000	 54.3699
4.198000	 54.2869
4.216000	 54.193
4.234000	 54.1461
4.252000	 53.9946
4.270000	 53.9333
4.288000	 53.7601
4.306000	 53.7847
4.324000	 53.6545
4.342000	 53.4901
4.359999	 53.4877
4.378000	 53.4072
4.396000	 53.3369
4.414000	 53.2034
4.432000	 53.0883
4.450000	 52.9816
4.468000	 53.0102
4.486000	 52.8152
4.504000	 52.7927
4.522000	 52.6632
4.540000	 52.5173
4.558000	 52.4757
4.576000	 52.3427
4.594000	 52.2677
4.612000	 52.2332
4.630000	 52.2237
4.648000	 52.0073
4.666000	 51.9622
4.684000	 51.9178
4.702000	 51.879
4.720000	 51.651
4.738000	 51.7515
4.756000	 51.7085
4.774000	 51.6431
4.792000	 51.4726
4.810000	 51.402
4.828000	 51.4153
4.846000	 51.3601
4.864000	 51.2106
4.882000	 51.1336
4.900000	 50.9852
4.918000	 50.9423
4.936000	 50.8761
4.954000	 50.6688
4.972000	 50.7191
4.990000	 50.658
5.008000	 50.6539
5.026000	 50.5192
5.044000	 50.383
5.062000	 50.4021
5.080000	 50.3077
5.098000	 50.2164
5.116000	 50.1644
5.134000	 50.0827
5.152000	 49.9805
5.170000	 49.8103
5.188000	 49.8123
5.206000	 49.8223
5.224000	 49.8034
5.242000	 49.6856
5.260000	 49.6131
5.278000	 49.5839
5.296000	 49.4599
5.314000	 49.3946
5.332000	 49.4193
5.350000	 49.397
5.368000	 49.3751
5.386000	 49.2489
5.404000	 49.0878
5.422000	 49.0666
5.440000	 48.9813
5.458000	 48.8927
5.476000	 48.9011
5.494000	 48.8386
5.512000	 48.7883
5.530000	 48.7929
5.548000	 48.692
5.566000	 48.6465
5.584000	 48.581
5.602000	 48.4718
5.620000	 48.3941
5.638000	 48.3748
5.656000	 48.3406
5.674000	 48.2784
5.692000	 48.1426
5.710000	 48.0088
5.728000	 47.9242
5.746000	 47.9208
5.764000	 47.8339
5.782000	 47.6877
5.800000	 47.7285
5.818000	 47.8002
5.836000	 47.6829
5.854000	 47.5906
5.872000	 47.5743
5.890000	 47.5366
5.908000	 47.4645
5.926000	 47.4509
5.944000	 47.4042
5.962000	 47.3148
5.980000	 47.2134
5.998000	 47.1665
6.016000	 47.175
6.034000	 47.1574
6.052000	 47.0572
6.070000	 46.9488
6.088000	 46.9245
6.106000	 46.8972
6.124000	 46.8138
6.142000	 46.7618
6.160000	 46.7628
6.178000	 46.7153
6.196000	 46.6443
6.214000	 46.5927
6.232000	 46.58
6.250000	 46.4717
6.268000	 46.3498
6.286000	 46.2937
6.304000	 46.2012
6.322000	 46.1392
6.340000	 46.134
6.358000	 46.1155
6.376000	 46.0668
6.394000	 46.0125
6.412000	 46.0232
6.430000	 46.0217
6.448000	 45.9325
6.466000	 45.819
6.484000	 45.7731
6.502000	 45.7385
6.520000	 45.6543
6.538000	 45.5724
6.556000	 45.5665
6.574000	 45.5639
6.592000	 45.5292
6.610000	 45.509
6.628000	 45.4768
6.646000	 45.4155
6.664000	 45.3358
6.682000	 45.262
6.700000	 45.227
6.718000	 45.197
6.736000	 45.1177
6.754000	 45.0616
6.772000	 45.0423
6.790000	 44.9537
6.808000	 44.8698
6.826000	 44.9179
6.844000	 44.9844
6.862000	 44.9653
6.880000	 44.915
6.898000	 44.8598
6.916000	 44.8021
6.934000	 44.7739
6.952000	 44.755
6.970000	 44.7038
6.988000	 44.6201
7.006000	 44.5455
7.024000	 44.5121
7.042000	 44.5039
7.060000	 44.5114
7.078000	 44.5044
7.096000	 44.4328
7.114000	 44.3463
7.132000	 44.3446
7.150000	 44.3797
7.168000	 44.3376
7.186000	 44.2625
7.204000	 44.2233
7.222000	 44.1533
7.240000	 44.0459
7.258000	 43.9989
7.276000	 44.0096
7.294000	 44.0154
7.312000	 44.0041
7.330000	 43.9585
7.348000	 43.8757
7.366000	 43.7995
7.384000	 43.7442
7.402000	 43.7006
7.420000	 43.6745
7.438000	 43.6591
7.456000	 43.6637
7.474000	 43.6822
7.492000	 43.6536
7.510000	 43.57
7.528000	 43.4928
7.546000	 43.4437
7.564000	 43.4108
7.582000	 43.3835
7.600000	 43.3421
7.618000	 43.2933
7.636000	 43.2609
7.654000	 43.227
7.672000	 43.1613
7.690000	 43.0955
7.708000	 43.0752
7.726000	 43.0734
7.744000	 43.0367
7.762000	 42.97
7.780000	 42.9115
7.798000	 42.8718
7.816000	 42.8399
7.834000	 42.8084
7.852000	 42.7844
7.870000	 42.7812
7.888000	 42.7922
7.906000	 42.7948
7.924000	 42.7838
7.942000	 42.7588
7.960000	 42.6963
7.978000	 42.6016
7.996000	 42.5347
8.013999	 42.5267
8.032000	 42.539
8.050000	 42.535
8.068000	 42.5299
8.086000	 42.5338
8.103999	 42.5129
8.122000	 42.4495
8.140000	 42.3851
8.158000	 42.3575
8.176000	 42.3404
8.193999	 42.2885
8.212000	 42.2131
8.230000	 42.1647
8.248000	 42.1663
8.266000	 42.1906
8.283999	 42.1939
8.302000	 42.1523
8.320000	 42.0798
8.338000	 42.0184
8.356000	 41.9989
8.374000	 42.0077
8.391999	 41.9996
8.410000	 41.9464
8.428000	 41.8617
8.446000	 41.7802
8.464000	 41.7209
8.481999	 41.6824
8.500000	 41.6629
8.518000	 41.6659
8.536000	 41.6805
8.554000	 41.6759
8.571999	 41.6258
8.590000	 41.5373
8.608000	 41.4469
8.626000	 41.3904
8.644000	 41.3824
8.661999	 41.4159
8.680000	 41.4671
8.698000	 41.4991
8.716000	 41.4818
8.734000	 41.4159
8.751999	 41.328
8.770000	 41.2474
8.788000	 41.1932
8.806000	 41.1776
8.824000	 41.2006
8.842000	 41.2375
8.859999	 41.2514
8.878000	 41.2272
8.896000	 41.1866
8.914000	 41.1601
8.932000	 41.1544
8.949999	 41.1544
8.968000	 41.1473
8.986000	 41.1308
9.004000	 41.1009
9.022000	 41.0505
9.039999	 40.983
9.058000	 40.9162
9.076000	 40.8716
9.094000	 40.8576
9.112000	 40.8649
9.129999	 40.8765
9.148000	 40.8833
9.166000	 40.8857
9.184000	 40.8829
9.202000	 40.8659
9.219999	 40.828
9.238000	 40.7819
9.256000	 40.7576
9.274000	 40.7701
9.292000	 40.7952
9.310000	 40.7868
9.327999	 40.7223
9.346000	 40.6256
9.364000	 40.5437
9.382000	 40.5046
9.400000	 40.4971
9.418000	 40.4907
9.436000	 40.468
9.454000	 40.4373
9.472000	 40.4189
9.490000	 40.4236
9.508000	 40.4436
9.526000	 40.4606
9.544000	 40.4599
9.561999	 40.4376
9.580000	 40.3949
9.598000	 40.3334
9.616000	 40.2577
9.634000	 40.182
9.652000	 40.1269
9.670000	 40.1068
9.688000	 40.119
9.706000	 40.1436
9.724000	 40.1553
9.742000	 40.1376
9.760000	 40.0915
9.778000	 40.0316
9.795999	 39.9773
9.814000	 39.9406
9.832000	 39.9209
9.850000	 39.908
9.868000	 39.8902
9.886000	 39.8626
9.904000	 39.8268
9.922000	 39.7875
9.940000	 39.7491
9.958000	 39.715
9.976000	 39.6875
9.994000	 39.665
10.012	39.641
10.03	39.6058
10.048	39.5537
10.066	39.4911
10.084	39.4361
10.102	39.4076
10.12	39.414
10.138	39.4468
10.156	39.487
10.174	39.5152
10.192	39.52
10.21	39.502
10.228	39.4707
10.246	39.4378
10.264	39.4097
10.282	39.3861
10.3	39.3615
10.318	39.3306
10.336	39.2926
10.354	39.2502
10.372	39.2064
10.39	39.1607
10.408	39.1101
10.426	39.0532
10.444	38.9945
10.462	38.9431
10.48	38.9083
10.498	38.895
10.516	38.9034
10.534	38.9294
10.552	38.9665
10.57	39.0063
10.588	39.0371
10.606	39.0485
10.624	39.0367
10.642	39.0098
10.66	38.9863
10.678	38.9858
10.696	39.0152
10.714	39.0629
10.732	39.1016
10.75	39.1039
10.768	39.0557
10.786	38.9629
10.804	38.8479
10.822	38.7362
10.84	38.647
10.858	38.5871
10.876	38.5546
10.894	38.5446
10.912	38.5535
10.93	38.5778
10.948	38.6111
10.966	38.644
10.984	38.6667
11.002	38.6729
11.02	38.6634
11.038	38.6422
11.056	38.6099
11.074	38.5608
11.092	38.4854
11.11	38.3777
11.128	38.2428
11.146	38.0998
11.164	37.9745
11.182	37.8871
11.2	37.8441
11.218	37.8371
11.236	37.8497
11.254	37.8705
11.272	37.902
11.29	37.9601
11.308	38.0624
11.326	38.2181
11.344	38.417
11.362	38.6281
11.38	38.8074
11.398	38.915
11.416	38.9248
11.434	38.8345
11.452	38.6638
11.47	38.4461
11.488	38.2137
11.506	37.9952
11.524	37.809
11.542	37.6639
11.56	37.5635
11.578	37.5069
11.596	37.4888
11.614	37.4981
11.632	37.5206
11.65	37.5434
11.668	37.557
11.686	37.5618
11.704	37.5654
11.722	37.5773
11.74	37.6011
11.758	37.6303
11.776	37.6498
11.794	37.6451
11.812	37.6109
11.83	37.5553
11.848	37.4988
11.866	37.4646
11.884	37.4671
11.902	37.5038
11.92	37.5554
11.938	37.5939
11.956	37.5915
11.974	37.533
11.992	37.4226
12.01	37.2792
12.028	37.131
12.046	37.0048
12.064	36.9183
12.082	36.876
12.1	36.8715
12.118	36.8906
12.136	36.9174
12.154	36.9388
12.172	36.9466
12.19	36.9382
12.208	36.9154
12.226	36.8831
12.244	36.8472
12.262	36.8135
12.28	36.7865
12.298	36.7689
12.316	36.7612
12.334	36.7619
12.352	36.7685
12.37	36.7776
12.388	36.7858
12.406	36.7901
12.424	36.7879
12.442	36.7776
12.46	36.7593
12.478	36.735
12.496	36.7087
12.514	36.6858
12.532	36.6709
12.55	36.6664
12.568	36.6723
12.586	36.6849
12.604	36.6976
12.622	36.7028
12.64	36.6941
12.658	36.6683
12.676	36.6257
12.694	36.5698
12.712	36.5059
12.73	36.4399
12.748	36.3764
12.766	36.3188
12.784	36.2696
12.802	36.231
12.82	36.205
12.838	36.1936
12.856	36.198
12.874	36.2171
12.892	36.2478
12.91	36.2838
12.928	36.3172
12.946	36.3397
12.964	36.3452
12.982	36.3308
13	36.2975
13.018	36.2495
13.036	36.1933
13.054	36.135
13.072	36.0793
13.09	36.0287
13.108	35.9831
13.126	35.9415
13.144	35.9015
13.162	35.8621
13.18	35.823
13.198	35.7853
13.216	35.7512
13.234	35.7238
13.252	35.7058
13.27	35.6989
13.288	35.7036
13.306	35.7184
13.324	35.7403
13.342	35.7647
13.36	35.7861
13.378	35.7987
13.396	35.7974
13.414	35.7784
13.432	35.7399
13.45	35.6827
13.468	35.6099
13.486	35.5266
13.504	35.4392
13.522	35.354
13.54	35.2763
13.558	35.2095
13.576	35.1551
13.594	35.1121
13.612	35.0782
13.63	35.0498
13.648	35.0234
13.666	34.9962
13.684	34.9664
13.702	34.9342
13.72	34.9006
13.738	34.8682
13.756	34.8394
13.774	34.8164
13.792	34.8002
13.81	34.7906
13.828	34.786
13.846	34.7842
13.864	34.7826
13.882	34.779
13.9	34.7721
13.918	34.7615
13.936	34.7478
13.954	34.7323
13.972	34.7166
13.99	34.7018
14.008	34.6882
14.026	34.6749
14.044	34.6604
14.062	34.6424
14.08	34.6184
14.098	34.5863
14.116	34.545
14.134	34.4949
14.152	34.4375
14.17	34.3753
14.188	34.3117
14.206	34.2506
14.224	34.1962
14.242	34.1519
14.26	34.1208
14.278	34.1046
14.296	34.1036
14.314	34.1166
14.332	34.1411
14.35	34.1728
14.368	34.2066
14.386	34.2371
14.404	34.2586
14.422	34.2673
14.44	34.2604
14.458	34.2374
14.476	34.1999
14.494	34.1512
14.512	34.0963
14.53	34.0407
14.548	33.9897
14.566	33.9478
14.584	33.9175
14.602	33.9002
14.62	33.8954
14.638	33.901
14.656	33.9143
14.674	33.9322
14.692	33.9524
14.71	33.9728
14.728	33.9917
14.746	34.0088
14.764	34.0238
14.782	34.0373
14.8	34.0497
14.818	34.0614
14.836	34.0727
14.854	34.084
14.872	34.0946
14.89	34.104
14.908	34.1111
14.926	34.1147
14.944	34.1135
14.962	34.1061
14.98	34.0919
14.998	34.0703
15.016	34.0411
15.034	34.0045
15.052	33.9613
15.07	33.9123
15.088	33.8586
15.106	33.8013
15.124	33.7413
15.142	33.6799
15.16	33.6181
15.178	33.557
15.196	33.4979
15.214	33.4423
15.232	33.3916
15.25	33.3471
15.268	33.3098
15.286	33.2809
15.304	33.2608
15.322	33.2493
15.34	33.246
15.358	33.2498
15.376	33.2584
15.394	33.2696
15.412	33.2811
15.43	33.2907
15.448	33.2957
15.466	33.2945
15.484	33.286
15.502	33.2695
15.52	33.2453
15.538	33.2145
15.556	33.1782
15.574	33.1381
15.592	33.0958
15.61	33.0529
15.628	33.0102
15.646	32.9684
15.664	32.9279
15.682	32.8882
15.7	32.849
15.718	32.8099
15.736	32.7705
15.754	32.7307
15.772	32.6909
15.79	32.6516
15.808	32.6141
15.826	32.5795
15.844	32.549
15.862	32.524
15.88	32.5051
15.898	32.4928
15.916	32.4871
15.934	32.4874
15.952	32.4924
15.97	32.5011
15.988	32.5114
16.006	32.5216
16.024	32.5302
16.042	32.5354
16.06	32.5361
16.078	32.5313
16.096	32.5201
16.114	32.5021
16.132	32.4771
16.15	32.445
16.168	32.4067
16.186	32.3628
16.204	32.3141
16.222	32.2625
16.24	32.2095
16.258	32.1567
16.276	32.1065
16.294	32.0609
16.312	32.0216
16.33	31.9905
16.348	31.9685
16.366	31.9561
16.384	31.9531
16.402	31.9582
16.42	31.9701
16.438	31.9865
16.456	32.0042
16.474	32.0212
16.492	32.0341
16.51	32.0401
16.528	32.0377
16.546	32.0246
16.564	32.0007
16.582	31.9656
16.6	31.92
16.618	31.8655
16.636	31.8033
16.654	31.7361
16.672	31.6662
16.69	31.5955
16.708	31.5273
16.726	31.4635
16.744	31.4059
16.762	31.3571
16.78	31.3177
16.798	31.2892
16.816	31.2722
16.834	31.2666
16.852	31.2722
16.87	31.2878
16.888	31.3124
16.906	31.3435
16.924	31.3788
16.942	31.4163
16.96	31.4521
16.978	31.4844
16.996	31.5099
17.014	31.5263
17.032	31.5323
17.05	31.5256
17.068	31.5065
17.086	31.4744
17.104	31.4311
17.122	31.3775
17.14	31.3164
17.158	31.2507
17.176	31.1823
17.194	31.1159
17.212	31.0529
17.23	30.9964
17.248	30.9482
17.266	30.9093
17.284	30.8803
17.302	30.8606
17.32	30.8497
17.338	30.8451
17.356	30.8458
17.374	30.8487
17.392	30.8523
17.41	30.8543
17.428	30.8529
17.446	30.8473
17.464	30.8363
17.482	30.8201
17.5	30.7986
17.518	30.7731
17.536	30.7439
17.554	30.7129
17.572	30.6806
17.59	30.6487
17.608	30.6178
17.626	30.5886
17.644	30.5615
17.662	30.5367
17.68	30.514
17.698	30.4934
17.716	30.4745
17.734	30.4572
17.752	30.4415
17.77	30.4275
17.788	30.4151
17.806	30.405
17.824	30.3972
17.842	30.3922
17.86	30.3901
17.878	30.3913
17.896	30.3951
17.914	30.4014
17.932	30.4088
17.95	30.4166
17.968	30.4228
17.986	30.4264
18.004	30.4255
18.022	30.4186
18.04	30.4048
18.058	30.383
18.076	30.3528
18.094	30.3142
18.112	30.2678
18.13	30.2146
18.148	30.1559
18.166	30.0936
18.184	30.0298
18.202	29.9661
18.22	29.9055
18.238	29.8487
18.256	29.7986
18.274	29.7554
18.292	29.7207
18.31	29.6944
18.328	29.6769
18.346	29.6674
18.364	29.6654
18.382	29.6695
18.4	29.6787
18.418	29.6911
18.436	29.7057
18.454	29.7204
18.472	29.7344
18.49	29.7461
18.508	29.7549
18.526	29.7598
18.544	29.7607
18.562	29.7569
18.58	29.7485
18.598	29.7354
18.616	29.718
18.634	29.6965
18.652	29.6712
18.67	29.6429
18.688	29.6116
18.706	29.5781
18.724	29.5426
18.742	29.5057
18.76	29.4677
18.778	29.4291
18.796	29.3903
18.814	29.3518
18.832	29.3139
18.85	29.2771
18.868	29.2418
18.886	29.2085
18.904	29.1773
18.922	29.1488
18.94	29.123
18.958	29.1003
18.976	29.0808
18.994	29.0646
19.012	29.0516
19.03	29.042
19.048	29.0356
19.066	29.0323
19.084	29.0318
19.102	29.0342
19.12	29.039
19.138	29.0461
19.156	29.0552
19.174	29.0658
19.192	29.0777
19.21	29.0904
19.228	29.1035
19.246	29.1165
19.264	29.129
19.282	29.1403
19.3	29.1503
19.318	29.1578
19.336	29.1629
19.354	29.1644
19.372	29.1622
19.39	29.1554
19.408	29.144
19.426	29.127
19.444	29.1044
19.462	29.0758
19.48	29.0413
19.498	29.0008
19.516	28.9543
19.534	28.9023
19.552	28.8446
19.57	28.7822
19.588	28.7153
19.606	28.6447
19.624	28.5715
19.642	28.4961
19.66	28.4204
19.678	28.3443
19.696	28.2701
19.714	28.1976
19.732	28.129
19.75	28.0643
19.768	28.0052
19.786	27.9519
19.804	27.9054
19.822	27.8662
19.84	27.8345
19.858	27.8107
19.876	27.7946
19.894	27.7859
19.912	27.7845
19.93	27.7892
19.948	27.8001
19.966	27.8154
19.984	27.8352
20.002	27.8574
20.02	27.8819
20.038	27.9072
20.056	27.9323
20.074	27.9569
20.092	27.9795
20.11	28.0003
20.128	28.0183
20.146	28.0335
20.164	28.0459
20.182	28.0553
20.2	28.0622
20.218	28.0668
20.236	28.0693
20.254	28.0703
20.272	28.0697
20.29	28.0683
20.308	28.0662
20.326	28.0631
20.344	28.0592
20.362	28.0541
20.38	28.0473
20.398	28.0388
20.416	28.0266
20.434	28.0113
20.452	27.9908
20.47	27.965
20.488	27.9328
20.506	27.8928
20.524	27.8452
20.542	27.7888
20.56	27.7236
20.578	27.65
20.596	27.5674
20.614	27.477
20.632	27.3798
20.65	27.2759
20.668	27.1686
20.686	27.0571
20.704	26.9451
20.722	26.8336
20.74	26.7239
20.758	26.6199
20.776	26.5207
20.794	26.4301
20.812	26.3482
20.83	26.2762
20.848	26.216
20.866	26.1668
20.884	26.1295
20.902	26.1041
20.92	26.0895
20.938	26.0857
20.956	26.0919
20.974	26.1058
20.992	26.1281
21.01	26.1557
21.028	26.1885
21.046	26.225
21.064	26.2626
21.082	26.3021
21.1	26.3408
21.118	26.3786
21.136	26.415
21.154	26.4487
21.172	26.4802
21.19	26.5088
21.208	26.5346
21.226	26.5576
21.244	26.578
21.262	26.5958
21.28	26.6114
21.298	26.6248
21.316	26.6361
21.334	26.6454
21.352	26.6528
21.37	26.6581
21.388	26.6615
21.406	26.6627
21.424	26.6612
21.442	26.6572
21.46	26.6502
21.478	26.6402
21.496	26.627
21.514	26.6103
21.532	26.5901
21.55	26.5665
21.568	26.5395
21.586	26.5093
21.604	26.4763
21.622	26.4403
21.64	26.4022
21.658	26.3631
21.676	26.3225
21.694	26.2821
21.712	26.2418
21.73	26.2021
21.748	26.1644
21.766	26.1282
21.784	26.0942
21.802	26.063
21.82	26.0342
21.838	26.008
21.856	25.9845
21.874	25.9633
21.892	25.9439
21.91	25.9266
21.928	25.9101
21.946	25.894
21.964	25.8784
21.982	25.8619
22	25.8448
22.018	25.8266
22.036	25.8063
22.054	25.7842
22.072	25.7605
22.09	25.7349
22.108	25.7078
22.126	25.6806
22.144	25.6527
22.162	25.6253
22.18	25.6006
22.198	25.5777
22.216	25.5586
22.234	25.5454
22.252	25.5368
22.27	25.5354
22.288	25.5421
22.306	25.5563
22.324	25.5794
22.342	25.6118
22.36	25.6528
22.378	25.702
22.396	25.7601
22.414	25.8253
22.432	25.896
22.45	25.9734
22.468	26.0538
22.486	26.1356
22.504	26.2197
22.522	26.3015
22.54	26.3802
22.558	26.4559
22.576	26.5242
22.594	26.5854
22.612	26.639
22.63	26.6823
22.648	26.7156
22.666	26.739
22.684	26.7518
22.702	26.7537
22.72	26.7463
22.738	26.7305
22.756	26.7055
22.774	26.6746
22.792	26.6393
22.81	26.5984
22.828	26.5564
22.846	26.5149
22.864	26.4726
22.882	26.4343
22.9	26.401
22.918	26.372
22.936	26.3506
22.954	26.3375
22.972	26.3321
22.99	26.3358
23.008	26.3494
23.026	26.3718
23.044	26.4023
23.062	26.4414
23.08	26.4882
23.098	26.5402
23.116	26.5987
23.134	26.6619
23.152	26.726
23.17	26.7922
23.188	26.859
23.206	26.9227
23.224	26.9846
23.242	27.0432
23.26	27.0947
23.278	27.1402
23.296	27.1785
23.314	27.2069
23.332	27.226
23.35	27.2353
23.368	27.2329
23.386	27.219
23.404	27.1937
23.422	27.1565
23.44	27.1071
23.458	27.0461
23.476	26.9743
23.494	26.8913
23.512	26.7977
23.53	26.6953
23.548	26.5837
23.566	26.4632
23.584	26.3372
23.602	26.2054
23.62	26.0678
23.638	25.9283
23.656	25.7875
23.674	25.6444
23.692	25.5034
23.71	25.3664
23.728	25.2313
23.746	25.1022
23.764	24.9819
23.782	24.8681
23.8	24.7638
23.818	24.6721
23.836	24.5912
23.854	24.5226
23.872	24.4687
23.89	24.4286
23.908	24.4026
23.926	24.392
23.944	24.3969
23.962	24.4167
23.98	24.4509
23.998	24.5001
24.016	24.5638
24.034	24.6397
24.052	24.7273
24.07	24.8275
24.088	24.9367
24.106	25.0522
24.124	25.1768
24.142	25.3063
24.16	25.4361
24.178	25.5691
24.196	25.7027
24.214	25.8311
24.232	25.9552
24.25	26.0752
24.268	26.1861
24.286	26.2859
24.304	26.3769
24.322	26.4558
24.34	26.5198
24.358	26.571
24.376	26.6078
24.394	26.6275
24.412	26.6306
24.43	26.6175
24.448	26.5877
24.466	26.5404
24.484	26.476
24.502	26.3973
24.52	26.3057
24.538	26.1989
24.556	26.0808
24.574	25.9561
24.592	25.8225
24.61	25.6813
24.628	25.5371
24.646	25.3904
24.664	25.2395
24.682	25.0893
24.7	24.9432
24.718	24.7974
24.736	24.6561
24.754	24.5252
24.772	24.4033
24.79	24.2902
24.808	24.1904
24.826	24.1067
24.844	24.0367
24.862	23.9817
24.88	23.9432
24.898	23.9211
24.916	23.9149
24.934	23.9243
24.952	23.9494
24.97	23.9904
24.988	24.0462
25.006	24.1162
25.024	24.2018
25.042	24.3012
25.06	24.4116
25.078	24.5333
25.096	24.6673
25.114	24.8091
25.132	24.9549
25.15	25.1078
25.168	25.2654
25.186	25.4232
25.204	25.5799
25.222	25.7378
25.24	25.8939
25.258	26.0455
25.276	26.1949
25.294	26.3404
25.312	26.4785
25.33	26.6082
25.348	26.7318
25.366	26.8454
25.384	26.945
25.402	27.0323
25.42	27.1072
25.438	27.1669
25.456	27.2098
25.474	27.2372
25.492	27.2489
25.51	27.2442
25.528	27.2229
25.546	27.1855
25.564	27.1324
25.582	27.064
25.6	26.9792
25.618	26.8794
25.636	26.7668
25.654	26.6419
25.672	26.5029
25.69	26.3532
25.708	26.1964
25.726	26.0303
25.744	25.8554
25.762	25.6769
25.78	25.4992
25.798	25.3173
25.816	25.135
25.834	24.9592
25.852	24.7923
25.87	24.6284
25.888	24.4754
25.906	24.3419
25.924	24.2279
25.942	24.1298
25.96	24.0533
25.978	24.0035
25.996	23.9762
26.014	23.973
26.032	23.9997
26.05	24.0604
26.068	24.1497
26.086	24.2714
26.104	24.4319
26.122	24.6332
26.14	24.8698
26.158	25.1481
26.176	25.4752
26.194	25.8517
26.212	26.2734
26.23	26.7457
26.248	27.2742
26.266	27.8571
26.284	28.4928
26.302	29.1853
26.32	29.9381
26.338	30.7508
26.356	31.6215
26.374	32.5487
26.392	33.5316
26.41	34.5732
26.428	35.6699
26.446	36.816
26.464	38.0088
26.482	39.2567
26.5	40.5499
26.518	41.8755
26.536	43.2271
26.554	44.617
26.572	46.0335
26.59	47.4622
26.608	48.8979
26.626	50.3531
26.644	51.8148
26.662	53.2679
26.68	54.7071
26.698	56.144
26.716	57.5684
26.734	58.9694
26.752	60.3431
26.77	61.6972
26.788	63.0267
26.806	64.3262
26.824	65.5932
26.842	66.8311
26.86	68.04
26.878	69.2194
26.896	70.3684
26.914	71.4869
26.932	72.5776
26.95	73.6436
26.968	74.7401
26.986	75.9016
27.004	76.9685
27.022	77.7758
27.028	77.9326