File: Bakgrunnsmateriale/MATLAB/FTIR/ftir_data/subBb/Mapping_36/C-4040-8_t19.asc
PE IR       SPECTRUM    SPECTRUM    ASCII       PEDS        1.60
  -1
C-C92E~1.ASC
17/05/02
12:27:19.00
17/05/02
12:27:45.00
tln
$C-4040-8_t0019$<tbV0>[12.5,2.0,8.0,0.0,22,1,0]
27.028
64

2002,4.07
MIRTGS : RIGHTBACK : INTERNAL 2
MIR : ON : INTERNAL 2
OPTKBR

0.200000
8
8.000000
FILLER
RATIO
SPECTRUM
UNLOCKED 256

DOUBLE
64
COMBINED
1
0
0

0.002000
RATIO

1
0
TRUE
51149
0
LEFT NOT FITTED RIGHT NOT FITTED 0
NONE
NONE
15600
12
4.427000
51148
TRUE
1 0 8 72 0 0 0 0

15798

#HDR
-1
-1
#GR
µM
%T
2.38419e-05
0.0
1.282000
0.002000
12874
8
72.6392
45.4647
#DATA
1.282000	 69.0795
1.300000	 66.8007
1.318000	 67.1876
1.336000	 66.7099
1.354000	 65.3009
1.372000	 62.4358
1.390000	 63.5126
1.408000	 66.1774
1.426000	 60.4049
1.444000	 63.9716
1.462000	 63.6865
1.480000	 65.0837
1.498000	 63.4497
1.516000	 64.4144
1.534000	 65.9196
1.552000	 65.2
1.570000	 64.4319
1.588000	 65.4624
1.606000	 65.6203
1.624000	 64.4142
1.642000	 64.3613
1.660000	 64.8868
1.678000	 65.2123
1.696000	 64.962
1.714000	 64.7397
1.732000	 65.1427
1.750000	 65.1106
1.768000	 64.4247
1.786000	 64.6874
1.804000	 64.7366
1.822000	 64.736
1.840000	 64.8486
1.858000	 64.0241
1.876000	 63.38
1.894000	 64.2408
1.912000	 63.838
1.930000	 63.5019
1.948000	 64.2212
1.966000	 65.0346
1.984000	 65.189
2.002000	 64.9088
2.020000	 64.8233
2.038000	 65.0594
2.056000	 64.565
2.074000	 64.5283
2.092000	 64.9345
2.110000	 64.0057
2.128000	 64.5152
2.146000	 64.7235
2.164000	 64.8904
2.182000	 64.8713
2.200000	 65.1469
2.218000	 64.9602
2.236000	 65.0465
2.254000	 65.3679
2.272000	 64.1972
2.290000	 66.2047
2.308000	 65.3529
2.326000	 65.5258
2.344000	 65.114
2.362000	 64.8123
2.380000	 64.6781
2.398000	 64.8152
2.416000	 64.7681
2.434000	 64.7921
2.452000	 65.0092
2.470000	 65.1175
2.488000	 65.0074
2.506000	 64.8423
2.524000	 65.0547
2.542000	 65.0225
2.560000	 65.174
2.578000	 65.1042
2.596000	 65.0996
2.614000	 65.0409
2.632000	 64.8299
2.650000	 64.9428
2.668000	 65.2475
2.686000	 64.8505
2.704000	 65.1522
2.722000	 64.9829
2.740000	 64.9036
2.758000	 64.951
2.776000	 64.9592
2.794000	 65.0107
2.812000	 65.0608
2.830000	 64.892
2.848000	 65.0445
2.866000	 65.3899
2.884000	 64.9536
2.902000	 65.2325
2.920000	 64.8335
2.938000	 65.166
2.956000	 65.0474
2.974000	 65.0465
2.992000	 64.9533
3.010000	 65.0307
3.028000	 65.0063
3.046000	 64.9123
3.064000	 64.8916
3.082000	 65.0364
3.100000	 64.9575
3.118000	 65.0312
3.136000	 64.9236
3.154000	 64.986
3.172000	 64.9669
3.190000	 64.9392
3.208000	 65.0648
3.226000	 65.0392
3.244000	 65.0826
3.262000	 64.9966
3.280000	 64.9067
3.298000	 64.8666
3.316000	 64.9685
3.334000	 64.9695
3.352000	 64.8992
3.370000	 64.8958
3.388000	 64.7716
3.406000	 64.9551
3.424000	 64.6387
3.442000	 64.7813
3.460000	 64.8927
3.478000	 64.8904
3.496000	 64.9014
3.514000	 64.8163
3.532000	 65.0523
3.550000	 64.9985
3.568000	 65.0153
3.586000	 64.9939
3.604000	 65.0159
3.622000	 65.0721
3.640000	 65.0646
3.658000	 65.0292
3.676000	 65.1256
3.694000	 65.1463
3.712000	 64.8891
3.730000	 65.0316
3.748000	 64.9923
3.766000	 65.0087
3.784000	 64.9468
3.802000	 65.0754
3.820000	 65.1131
3.838000	 65.0731
3.856000	 65.0188
3.874000	 65.1354
3.892000	 65.1232
3.910000	 65.0986
3.928000	 64.9995
3.946000	 65.0529
3.964000	 65.0658
3.982000	 65.0647
4.000000	 64.9606
4.018000	 64.9752
4.036000	 65.0233
4.054000	 65.0807
4.072000	 65.0481
4.090000	 65.13
4.108000	 65.0749
4.125999	 65.1081
4.144000	 65.1301
4.162000	 65.0324
4.180000	 65.0594
4.198000	 64.9948
4.216000	 65.0732
4.234000	 65.0972
4.252000	 65.099
4.270000	 65.0815
4.288000	 64.9508
4.306000	 65.0114
4.324000	 65.1844
4.342000	 64.9443
4.359999	 65.0412
4.378000	 65.0055
4.396000	 65.0551
4.414000	 65.1146
4.432000	 65.0677
4.450000	 64.9912
4.468000	 65.1144
4.486000	 65.1293
4.504000	 65.0791
4.522000	 65.0461
4.540000	 64.9797
4.558000	 65.0239
4.576000	 65.1666
4.594000	 64.9611
4.612000	 65.0809
4.630000	 65.1064
4.648000	 65.0759
4.666000	 65.0547
4.684000	 64.9684
4.702000	 64.9029
4.720000	 65.001
4.738000	 65.0474
4.756000	 65.0841
4.774000	 65.1265
4.792000	 65.1397
4.810000	 65.0256
4.828000	 65.0637
4.846000	 65.069
4.864000	 65.0532
4.882000	 65.0682
4.900000	 65.1028
4.918000	 65.0935
4.936000	 65.0882
4.954000	 65.0665
4.972000	 65.0345
4.990000	 65.0498
5.008000	 65.0252
5.026000	 65.06
5.044000	 65.0804
5.062000	 64.9617
5.080000	 64.9912
5.098000	 65.0158
5.116000	 65.0816
5.134000	 65.0354
5.152000	 65.0977
5.170000	 65.0846
5.188000	 65.0745
5.206000	 65.0332
5.224000	 65.022
5.242000	 65.0236
5.260000	 65.0137
5.278000	 65.0428
5.296000	 65.0771
5.314000	 65.0378
5.332000	 65.0545
5.350000	 65.0757
5.368000	 64.9815
5.386000	 65.0016
5.404000	 65.1329
5.422000	 65.0332
5.440000	 64.9859
5.458000	 65.0045
5.476000	 65.0556
5.494000	 65.0469
5.512000	 65.0394
5.530000	 65.0226
5.548000	 64.9869
5.566000	 65.0644
5.584000	 65.0699
5.602000	 65.0257
5.620000	 65.0464
5.638000	 65.077
5.656000	 64.9824
5.674000	 65.0247
5.692000	 65.0193
5.710000	 64.9311
5.728000	 64.864
5.746000	 64.8834
5.764000	 64.8558
5.782000	 64.7982
5.800000	 64.8833
5.818000	 64.8815
5.836000	 64.8497
5.854000	 64.9454
5.872000	 64.9938
5.890000	 64.9087
5.908000	 64.8721
5.926000	 64.8993
5.944000	 64.9005
5.962000	 64.8614
5.980000	 64.908
5.998000	 64.9968
6.016000	 65.0041
6.034000	 64.9544
6.052000	 64.9576
6.070000	 65.0071
6.088000	 64.9866
6.106000	 64.9768
6.124000	 64.9438
6.142000	 64.8864
6.160000	 64.9297
6.178000	 64.9936
6.196000	 64.9568
6.214000	 64.9112
6.232000	 64.9142
6.250000	 65.0051
6.268000	 65.0157
6.286000	 64.9626
6.304000	 64.9326
6.322000	 64.9939
6.340000	 64.9959
6.358000	 64.869
6.376000	 64.7743
6.394000	 64.7944
6.412000	 64.8393
6.430000	 64.8715
6.448000	 64.8948
6.466000	 64.8903
6.484000	 64.7972
6.502000	 64.7005
6.520000	 64.7485
6.538000	 64.8581
6.556000	 64.8919
6.574000	 64.8388
6.592000	 64.8124
6.610000	 64.9082
6.628000	 65.0415
6.646000	 65.0783
6.664000	 64.9851
6.682000	 64.8562
6.700000	 64.8587
6.718000	 64.8792
6.736000	 64.8466
6.754000	 64.8618
6.772000	 64.8713
6.790000	 64.8316
6.808000	 64.8003
6.826000	 64.8034
6.844000	 64.8544
6.862000	 64.9044
6.880000	 64.8722
6.898000	 64.8146
6.916000	 64.7821
6.934000	 64.7693
6.952000	 64.7898
6.970000	 64.8206
6.988000	 64.8662
7.006000	 64.8872
7.024000	 64.8115
7.042000	 64.73
7.060000	 64.7495
7.078000	 64.7939
7.096000	 64.786
7.114000	 64.7696
7.132000	 64.7694
7.150000	 64.7584
7.168000	 64.7268
7.186000	 64.6952
7.204000	 64.6966
7.222000	 64.7241
7.240000	 64.7359
7.258000	 64.7273
7.276000	 64.7303
7.294000	 64.7728
7.312000	 64.8395
7.330000	 64.86
7.348000	 64.7977
7.366000	 64.7247
7.384000	 64.7334
7.402000	 64.8124
7.420000	 64.8682
7.438000	 64.8537
7.456000	 64.8057
7.474000	 64.7801
7.492000	 64.7867
7.510000	 64.7793
7.528000	 64.7311
7.546000	 64.6905
7.564000	 64.6967
7.582000	 64.7258
7.600000	 64.7457
7.618000	 64.7494
7.636000	 64.7541
7.654000	 64.7763
7.672000	 64.7908
7.690000	 64.7609
7.708000	 64.7078
7.726000	 64.6814
7.744000	 64.6885
7.762000	 64.7066
7.780000	 64.7279
7.798000	 64.7474
7.816000	 64.7499
7.834000	 64.7281
7.852000	 64.6882
7.870000	 64.6477
7.888000	 64.6419
7.906000	 64.6933
7.924000	 64.7614
7.942000	 64.7784
7.960000	 64.739
7.978000	 64.6934
7.996000	 64.678
8.013999	 64.694
8.032000	 64.7174
8.050000	 64.7188
8.068000	 64.6912
8.086000	 64.6525
8.103999	 64.6133
8.122000	 64.5783
8.140000	 64.5752
8.158000	 64.6325
8.176000	 64.7211
8.193999	 64.7699
8.212000	 64.7512
8.230000	 64.7067
8.248000	 64.6853
8.266000	 64.6821
8.283999	 64.6573
8.302000	 64.596
8.320000	 64.5353
8.338000	 64.5242
8.356000	 64.5672
8.374000	 64.6196
8.391999	 64.6366
8.410000	 64.6105
8.428000	 64.5602
8.446000	 64.5122
8.464000	 64.4941
8.481999	 64.5268
8.500000	 64.602
8.518000	 64.6795
8.536000	 64.7159
8.554000	 64.6968
8.571999	 64.6454
8.590000	 64.5989
8.608000	 64.5751
8.626000	 64.5665
8.644000	 64.5635
8.661999	 64.5675
8.680000	 64.5761
8.698000	 64.571
8.716000	 64.538
8.734000	 64.4921
8.751999	 64.4636
8.770000	 64.4671
8.788000	 64.4951
8.806000	 64.5313
8.824000	 64.559
8.842000	 64.5598
8.859999	 64.5233
8.878000	 64.463
8.896000	 64.4136
8.914000	 64.4028
8.932000	 64.4251
8.949999	 64.4448
8.968000	 64.4291
8.986000	 64.3815
9.004000	 64.3415
9.022000	 64.3485
9.039999	 64.4023
9.058000	 64.4608
9.076000	 64.4766
9.094000	 64.4382
9.112000	 64.3751
9.129999	 64.3298
9.148000	 64.3233
9.166000	 64.3474
9.184000	 64.3793
9.202000	 64.4
9.219999	 64.4029
9.238000	 64.392
9.256000	 64.3755
9.274000	 64.3613
9.292000	 64.3568
9.310000	 64.3705
9.327999	 64.4113
9.346000	 64.4817
9.364000	 64.5675
9.382000	 64.6379
9.400000	 64.6628
9.418000	 64.6346
9.436000	 64.5718
9.454000	 64.5013
9.472000	 64.4421
9.490000	 64.4043
9.508000	 64.3974
9.526000	 64.4311
9.544000	 64.5029
9.561999	 64.5892
9.580000	 64.656
9.598000	 64.6793
9.616000	 64.6558
9.634000	 64.5976
9.652000	 64.5212
9.670000	 64.4432
9.688000	 64.3787
9.706000	 64.34
9.724000	 64.3323
9.742000	 64.3503
9.760000	 64.3789
9.778000	 64.4002
9.795999	 64.4034
9.814000	 64.3901
9.832000	 64.3703
9.850000	 64.3537
9.868000	 64.3431
9.886000	 64.3351
9.904000	 64.3256
9.922000	 64.3155
9.940000	 64.3081
9.958000	 64.3041
9.976000	 64.2985
9.994000	 64.2849
10.012	64.262
10.03	64.2371
10.048	64.2226
10.066	64.2277
10.084	64.2497
10.102	64.2753
10.12	64.2868
10.138	64.2749
10.156	64.2461
10.174	64.2179
10.192	64.2085
10.21	64.2252
10.228	64.2608
10.246	64.3003
10.264	64.3309
10.282	64.3483
10.3	64.3557
10.318	64.358
10.336	64.3547
10.354	64.3403
10.372	64.3095
10.39	64.264
10.408	64.2144
10.426	64.1758
10.444	64.1618
10.462	64.1792
10.48	64.2271
10.498	64.2949
10.516	64.3624
10.534	64.4048
10.552	64.4011
10.57	64.3458
10.588	64.2526
10.606	64.1485
10.624	64.0614
10.642	64.0069
10.66	63.9829
10.678	63.9713
10.696	63.952
10.714	63.9154
10.732	63.8697
10.75	63.8352
10.768	63.8358
10.786	63.8828
10.804	63.9682
10.822	64.0674
10.84	64.1492
10.858	64.1938
10.876	64.1989
10.894	64.1797
10.912	64.1592
10.93	64.16
10.948	64.1959
10.966	64.2717
10.984	64.3821
11.002	64.5096
11.02	64.6274
11.038	64.7013
11.056	64.7021
11.074	64.6197
11.092	64.4698
11.11	64.2918
11.128	64.1308
11.146	64.0137
11.164	63.9412
11.182	63.8944
11.2	63.8512
11.218	63.8056
11.236	63.7741
11.254	63.783
11.272	63.8513
11.29	63.9764
11.308	64.1307
11.326	64.2722
11.344	64.3681
11.362	64.4072
11.38	64.4052
11.398	64.3925
11.416	64.4015
11.434	64.4487
11.452	64.53
11.47	64.6217
11.488	64.6934
11.506	64.718
11.524	64.6834
11.542	64.5947
11.56	64.4715
11.578	64.3371
11.596	64.2096
11.614	64.0987
11.632	64.0057
11.65	63.9288
11.668	63.8683
11.686	63.829
11.704	63.8173
11.722	63.8362
11.74	63.8803
11.758	63.934
11.776	63.9751
11.794	63.9852
11.812	63.9571
11.83	63.896
11.848	63.8169
11.866	63.7368
11.884	63.6687
11.902	63.6192
11.92	63.588
11.938	63.5707
11.956	63.562
11.974	63.5585
11.992	63.561
12.01	63.5725
12.028	63.598
12.046	63.6409
12.064	63.6982
12.082	63.7606
12.1	63.8144
12.118	63.8449
12.136	63.8426
12.154	63.8074
12.172	63.7491
12.19	63.685
12.208	63.6345
12.226	63.6117
12.244	63.6206
12.262	63.655
12.28	63.6999
12.298	63.7384
12.316	63.758
12.334	63.7549
12.352	63.7331
12.37	63.7036
12.388	63.6784
12.406	63.667
12.424	63.6729
12.442	63.6934
12.46	63.7213
12.478	63.7479
12.496	63.7656
12.514	63.7704
12.532	63.7622
12.55	63.7438
12.568	63.7195
12.586	63.6942
12.604	63.6719
12.622	63.6553
12.64	63.6462
12.658	63.6456
12.676	63.6536
12.694	63.6693
12.712	63.6906
12.73	63.7144
12.748	63.7365
12.766	63.7528
12.784	63.7602
12.802	63.7567
12.82	63.7424
12.838	63.7194
12.856	63.6917
12.874	63.664
12.892	63.6411
12.91	63.6271
12.928	63.625
12.946	63.636
12.964	63.6596
12.982	63.6931
13	63.7322
13.018	63.7706
13.036	63.8013
13.054	63.8174
13.072	63.8137
13.09	63.7876
13.108	63.7405
13.126	63.6773
13.144	63.6063
13.162	63.5365
13.18	63.4762
13.198	63.4308
13.216	63.4016
13.234	63.3863
13.252	63.3795
13.27	63.3746
13.288	63.3664
13.306	63.3523
13.324	63.3328
13.342	63.3109
13.36	63.291
13.378	63.2774
13.396	63.2723
13.414	63.2757
13.432	63.2857
13.45	63.2993
13.468	63.3136
13.486	63.3269
13.504	63.3394
13.522	63.3526
13.54	63.369
13.558	63.3904
13.576	63.4172
13.594	63.4481
13.612	63.48
13.63	63.5084
13.648	63.5288
13.666	63.5373
13.684	63.5318
13.702	63.5121
13.72	63.4787
13.738	63.4338
13.756	63.38
13.774	63.3209
13.792	63.2602
13.81	63.202
13.828	63.1505
13.846	63.1095
13.864	63.0819
13.882	63.069
13.9	63.0698
13.918	63.0811
13.936	63.0981
13.954	63.1149
13.972	63.1257
13.99	63.1255
14.008	63.1116
14.026	63.084
14.044	63.045
14.062	62.9991
14.08	62.9517
14.098	62.9084
14.116	62.8733
14.134	62.849
14.152	62.8369
14.17	62.8366
14.188	62.8475
14.206	62.868
14.224	62.8969
14.242	62.9329
14.26	62.9748
14.278	63.0211
14.296	63.0696
14.314	63.1178
14.332	63.1621
14.35	63.1992
14.368	63.2258
14.386	63.2387
14.404	63.2356
14.422	63.2156
14.44	63.1792
14.458	63.1279
14.476	63.0644
14.494	62.992
14.512	62.9143
14.53	62.8354
14.548	62.7588
14.566	62.6876
14.584	62.6243
14.602	62.571
14.62	62.5288
14.638	62.4984
14.656	62.4795
14.674	62.471
14.692	62.4712
14.71	62.4778
14.728	62.488
14.746	62.4992
14.764	62.5086
14.782	62.5144
14.8	62.5158
14.818	62.5124
14.836	62.5053
14.854	62.4957
14.872	62.4858
14.89	62.4776
14.908	62.4726
14.926	62.4717
14.944	62.475
14.962	62.4814
14.98	62.4893
14.998	62.4967
15.016	62.5015
15.034	62.5016
15.052	62.4955
15.07	62.483
15.088	62.4646
15.106	62.4414
15.124	62.4153
15.142	62.3889
15.16	62.3636
15.178	62.3412
15.196	62.3226
15.214	62.3087
15.232	62.2991
15.25	62.293
15.268	62.2896
15.286	62.2879
15.304	62.2871
15.322	62.2866
15.34	62.2859
15.358	62.2848
15.376	62.2833
15.394	62.2816
15.412	62.2796
15.43	62.2771
15.448	62.2738
15.466	62.2689
15.484	62.2617
15.502	62.2512
15.52	62.2365
15.538	62.2167
15.556	62.1914
15.574	62.1601
15.592	62.1229
15.61	62.0803
15.628	62.0333
15.646	61.9832
15.664	61.9319
15.682	61.8817
15.7	61.8349
15.718	61.794
15.736	61.762
15.754	61.7409
15.772	61.732
15.79	61.7368
15.808	61.7548
15.826	61.7852
15.844	61.8264
15.862	61.8752
15.88	61.9288
15.898	61.9842
15.916	62.038
15.934	62.0876
15.952	62.1315
15.97	62.1684
15.988	62.1981
16.006	62.2212
16.024	62.2381
16.042	62.2502
16.06	62.2587
16.078	62.2642
16.096	62.2673
16.114	62.2677
16.132	62.2647
16.15	62.2579
16.168	62.2455
16.186	62.227
16.204	62.202
16.222	62.17
16.24	62.1319
16.258	62.0883
16.276	62.0411
16.294	61.9922
16.312	61.943
16.33	61.8958
16.348	61.852
16.366	61.8123
16.384	61.7775
16.402	61.7472
16.42	61.7211
16.438	61.6981
16.456	61.6773
16.474	61.6578
16.492	61.6387
16.51	61.6198
16.528	61.6012
16.546	61.5831
16.564	61.5669
16.582	61.5534
16.6	61.5443
16.618	61.5411
16.636	61.5449
16.654	61.5569
16.672	61.5774
16.69	61.6065
16.708	61.6435
16.726	61.6873
16.744	61.7364
16.762	61.7882
16.78	61.8406
16.798	61.8908
16.816	61.935
16.834	61.9715
16.852	61.997
16.87	62.0093
16.888	62.0073
16.906	61.9896
16.924	61.9569
16.942	61.9095
16.96	61.8501
16.978	61.7806
16.996	61.7046
17.014	61.6263
17.032	61.548
17.05	61.4747
17.068	61.4083
17.086	61.3513
17.104	61.3055
17.122	61.2712
17.14	61.2484
17.158	61.2354
17.176	61.2313
17.194	61.2329
17.212	61.2385
17.23	61.2457
17.248	61.2519
17.266	61.256
17.284	61.2562
17.302	61.2522
17.32	61.2435
17.338	61.2307
17.356	61.2141
17.374	61.1952
17.392	61.1748
17.41	61.1542
17.428	61.1347
17.446	61.1167
17.464	61.1016
17.482	61.0895
17.5	61.0808
17.518	61.0757
17.536	61.074
17.554	61.0756
17.572	61.0805
17.59	61.0882
17.608	61.0984
17.626	61.1109
17.644	61.1252
17.662	61.1409
17.68	61.1572
17.698	61.1738
17.716	61.1898
17.734	61.2047
17.752	61.2181
17.77	61.2295
17.788	61.2387
17.806	61.2454
17.824	61.2499
17.842	61.2526
17.86	61.2541
17.878	61.2549
17.896	61.2564
17.914	61.2588
17.932	61.2639
17.95	61.2719
17.968	61.2836
17.986	61.2988
18.004	61.3178
18.022	61.3394
18.04	61.3634
18.058	61.3876
18.076	61.4117
18.094	61.4327
18.112	61.4502
18.13	61.4614
18.148	61.466
18.166	61.4622
18.184	61.4502
18.202	61.4295
18.22	61.4015
18.238	61.3663
18.256	61.3269
18.274	61.2836
18.292	61.2403
18.31	61.1975
18.328	61.1589
18.346	61.1248
18.364	61.098
18.382	61.0782
18.4	61.0667
18.418	61.0624
18.436	61.0655
18.454	61.0736
18.472	61.0865
18.49	61.1008
18.508	61.1163
18.526	61.1295
18.544	61.1401
18.562	61.1456
18.58	61.1459
18.598	61.1398
18.616	61.1275
18.634	61.1093
18.652	61.0858
18.67	61.0584
18.688	61.0277
18.706	60.9956
18.724	60.9626
18.742	60.9307
18.76	60.9003
18.778	60.8727
18.796	60.848
18.814	60.827
18.832	60.8094
18.85	60.7952
18.868	60.784
18.886	60.7756
18.904	60.7696
18.922	60.7657
18.94	60.7637
18.958	60.7632
18.976	60.7644
18.994	60.767
19.012	60.7713
19.03	60.7773
19.048	60.7852
19.066	60.7951
19.084	60.8068
19.102	60.8204
19.12	60.8354
19.138	60.8514
19.156	60.8679
19.174	60.8843
19.192	60.9
19.21	60.9143
19.228	60.9268
19.246	60.9366
19.264	60.9438
19.282	60.9475
19.3	60.948
19.318	60.9452
19.336	60.9391
19.354	60.9302
19.372	60.9185
19.39	60.905
19.408	60.8897
19.426	60.8736
19.444	60.8566
19.462	60.8393
19.48	60.8218
19.498	60.8041
19.516	60.7863
19.534	60.768
19.552	60.7492
19.57	60.7295
19.588	60.7085
19.606	60.686
19.624	60.6615
19.642	60.635
19.66	60.6061
19.678	60.5751
19.696	60.5421
19.714	60.5072
19.732	60.4712
19.75	60.4341
19.768	60.3971
19.786	60.3603
19.804	60.3249
19.822	60.2911
19.84	60.2595
19.858	60.2308
19.876	60.2048
19.894	60.182
19.912	60.1621
19.93	60.1446
19.948	60.1295
19.966	60.1155
19.984	60.1026
20.002	60.0894
20.02	60.0754
20.038	60.0597
20.056	60.041
20.074	60.0194
20.092	59.9933
20.11	59.9631
20.128	59.928
20.146	59.8879
20.164	59.8435
20.182	59.7943
20.2	59.7417
20.218	59.6862
20.236	59.6283
20.254	59.5704
20.272	59.5121
20.29	59.4562
20.308	59.4023
20.326	59.3528
20.344	59.3081
20.362	59.2691
20.38	59.2372
20.398	59.2121
20.416	59.195
20.434	59.1857
20.452	59.1839
20.47	59.1899
20.488	59.2027
20.506	59.2216
20.524	59.2464
20.542	59.2751
20.56	59.3081
20.578	59.3431
20.596	59.3799
20.614	59.4175
20.632	59.4542
20.65	59.4901
20.668	59.5235
20.686	59.5546
20.704	59.5824
20.722	59.6066
20.74	59.6272
20.758	59.6439
20.776	59.6566
20.794	59.6657
20.812	59.6709
20.83	59.6727
20.848	59.6715
20.866	59.6672
20.884	59.6607
20.902	59.6518
20.92	59.6411
20.938	59.629
20.956	59.6156
20.974	59.6014
20.992	59.5864
21.01	59.5711
21.028	59.5555
21.046	59.5399
21.064	59.5248
21.082	59.5099
21.1	59.4959
21.118	59.4828
21.136	59.4706
21.154	59.4599
21.172	59.4504
21.19	59.4424
21.208	59.436
21.226	59.4309
21.244	59.4271
21.262	59.4246
21.28	59.4227
21.298	59.4216
21.316	59.4206
21.334	59.4189
21.352	59.4169
21.37	59.4128
21.388	59.407
21.406	59.3986
21.424	59.3864
21.442	59.3709
21.46	59.3507
21.478	59.3256
21.496	59.2955
21.514	59.2597
21.532	59.2183
21.55	59.1716
21.568	59.1196
21.586	59.0626
21.604	59.0019
21.622	58.9369
21.64	58.8693
21.658	58.8004
21.676	58.7298
21.694	58.6602
21.712	58.5915
21.73	58.5245
21.748	58.4613
21.766	58.4013
21.784	58.3456
21.802	58.295
21.82	58.2492
21.838	58.2088
21.856	58.1739
21.874	58.144
21.892	58.1185
21.91	58.0978
21.928	58.0803
21.946	58.0657
21.964	58.0538
21.982	58.0422
22	58.0314
22.018	58.0204
22.036	58.0071
22.054	57.9925
22.072	57.9748
22.09	57.9532
22.108	57.9281
22.126	57.8984
22.144	57.864
22.162	57.825
22.18	57.7815
22.198	57.7332
22.216	57.6807
22.234	57.6246
22.252	57.5644
22.27	57.5019
22.288	57.4375
22.306	57.3711
22.324	57.3053
22.342	57.2395
22.36	57.1747
22.378	57.1132
22.396	57.0542
22.414	56.9988
22.432	56.9486
22.45	56.903
22.468	56.8627
22.486	56.8286
22.504	56.8003
22.522	56.7776
22.54	56.761
22.558	56.75
22.576	56.7432
22.594	56.7412
22.612	56.7429
22.63	56.7462
22.648	56.7522
22.666	56.7588
22.684	56.7633
22.702	56.7671
22.72	56.7679
22.738	56.7633
22.756	56.7545
22.774	56.7398
22.792	56.7175
22.81	56.6884
22.828	56.6523
22.846	56.6086
22.864	56.5576
22.882	56.5004
22.9	56.4367
22.918	56.3667
22.936	56.2935
22.954	56.2165
22.972	56.1366
22.99	56.0582
23.008	55.9807
23.026	55.9051
23.044	55.8361
23.062	55.7733
23.08	55.7172
23.098	55.6715
23.116	55.6355
23.134	55.6096
23.152	55.5955
23.17	55.5933
23.188	55.6025
23.206	55.6233
23.224	55.6564
23.242	55.7005
23.26	55.7536
23.278	55.8171
23.296	55.8889
23.314	55.9648
23.332	56.0466
23.35	56.1321
23.368	56.2166
23.386	56.3013
23.404	56.385
23.422	56.4641
23.44	56.5391
23.458	56.6096
23.476	56.6726
23.494	56.7282
23.512	56.7765
23.53	56.816
23.548	56.8463
23.566	56.8679
23.584	56.8804
23.602	56.8834
23.62	56.8773
23.638	56.8625
23.656	56.839
23.674	56.8067
23.692	56.7666
23.71	56.7192
23.728	56.664
23.746	56.6025
23.764	56.5357
23.782	56.4631
23.8	56.3852
23.818	56.3029
23.836	56.2158
23.854	56.1242
23.872	56.0283
23.89	55.9277
23.908	55.823
23.926	55.7153
23.944	55.6037
23.962	55.4891
23.98	55.3738
23.998	55.2575
24.016	55.1401
24.034	55.0248
24.052	54.9125
24.07	54.8017
24.088	54.6965
24.106	54.5998
24.124	54.5088
24.142	54.4272
24.16	54.3592
24.178	54.3022
24.196	54.2584
24.214	54.2326
24.232	54.2242
24.25	54.2329
24.268	54.262
24.286	54.3129
24.304	54.384
24.322	54.477
24.34	54.5937
24.358	54.7337
24.376	54.8956
24.394	55.0786
24.412	55.2837
24.43	55.5096
24.448	55.7535
24.466	56.0159
24.484	56.2971
24.502	56.5924
24.52	56.8984
24.538	57.2184
24.556	57.5486
24.574	57.8844
24.592	58.2282
24.61	58.5785
24.628	58.9312
24.646	59.2847
24.664	59.641
24.682	59.998
24.7	60.3539
24.718	60.7101
24.736	61.0656
24.754	61.4188
24.772	61.7695
24.79	62.1182
24.808	62.4656
24.826	62.8115
24.844	63.155
24.862	63.4988
24.88	63.8453
24.898	64.1935
24.916	64.5438
24.934	64.8978
24.952	65.2562
24.97	65.6179
24.988	65.9843
25.006	66.3567
25.024	66.7367
25.042	67.1213
25.06	67.5061
25.078	67.8921
25.096	68.281
25.114	68.6643
25.132	69.035
25.15	69.4015
25.168	69.7558
25.186	70.0845
25.204	70.3856
25.222	70.6659
25.24	70.9116
25.258	71.1099
25.276	71.2706
25.294	71.388
25.312	71.4489
25.33	71.4479
25.348	71.393
25.366	71.2767
25.384	71.0905
25.402	70.8352
25.42	70.5138
25.438	70.1267
25.456	69.6725
25.474	69.1479
25.492	68.5626
25.51	67.9275
25.528	67.2384
25.546	66.4942
25.564	65.7115
25.582	64.9037
25.6	64.0564
25.618	63.181
25.636	62.2974
25.654	61.413
25.672	60.5139
25.69	59.6178
25.708	58.7445
25.726	57.8877
25.744	57.0452
25.762	56.2343
25.78	55.4691
25.798	54.7365
25.816	54.0441
25.834	53.4071
25.852	52.833
25.87	52.3108
25.888	51.8494
25.906	51.4587
25.924	51.1389
25.942	50.8855
25.96	50.7045
25.978	50.6018
25.996	50.577
26.014	50.6272
26.032	50.75
26.05	50.945
26.068	51.2173
26.086	51.5589
26.104	51.9592
26.122	52.4162
26.14	52.9398
26.158	53.5132
26.176	54.1176
26.194	54.7566
26.212	55.4394
26.23	56.1387
26.248	56.8273
26.266	57.5179
26.284	58.213
26.302	58.8842
26.32	59.5053
26.338	60.0945
26.356	60.6477
26.374	61.1422
26.392	61.5588
26.41	61.9128
26.428	62.2001
26.446	62.4081
26.464	62.5267
26.482	62.5622
26.5	62.5167
26.518	62.3903
26.536	62.181
26.554	61.8846
26.572	61.5117
26.59	61.0738
26.608	60.5742
26.626	60.0011
26.644	59.3705
26.662	58.7002
26.68	57.9934
26.698	57.235
26.716	56.4458
26.734	55.6483
26.752	54.8482
26.77	54.0287
26.788	53.2073
26.806	52.4029
26.824	51.618
26.842	50.8382
26.86	50.0818
26.878	49.3682
26.896	48.7011
26.914	48.0656
26.932	47.4777
26.95	46.9543
26.968	46.4988
26.986	46.0967
27.004	45.7637
27.022	45.5163
27.028	45.4647