File: Bakgrunnsmateriale/MATLAB/FTIR/ftir_data/subBb/Mapping_36/C-4040-8_t26_cm-1.asc
PE IR       SPECTRUM    SPECTRUM    ASCII       PEDS        1.60
  -1
C-9A6E~1.ASC
17/05/02
13:06:38.00
17/05/02
13:06:38.00
tln
$C-4040-8_t0026$<tbV0>[7.5,7.0,8.0,0.0,22,1,0]
370
64

2002,4.07
MIRTGS : RIGHTBACK : INTERNAL 2
MIR : ON : INTERNAL 2
OPTKBR

0.200000
8
8.000000
FILLER
RATIO
SPECTRUM
UNLOCKED 256

DOUBLE
64
COMBINED
1
0
0

1.000000
RATIO

1
0
TRUE
51149
0
LEFT NOT FITTED RIGHT NOT FITTED 0
NONE
NONE
15600
12
4.427000
51148
TRUE
1 0 8 72 0 0 0 0

15798

#HDR
-1
-1
#GR
CM-1
%T
2.38419e-05
0.0
7800
-1.000000
7431
8
79.0335
36.0982
#DATA
7800	71.9859
7795	75.2945
7790	68.7858
7785	68.0887
7780	71.9814
7775	73.4167
7770	66.3035
7765	61.9495
7760	63.1386
7755	63.7152
7750	64.8999
7745	65.902
7740	67.3443
7735	71.8899
7730	70.3338
7725	70.3949
7720	69.3789
7715	65.5618
7710	65.3202
7705	70.9448
7700	71.3928
7695	69.9688
7690	68.8253
7685	67.5803
7680	69.9111
7675	71.5839
7670	68.8738
7665	67.0247
7660	68.2176
7655	68.343
7650	68.3367
7645	69.8218
7640	68.9044
7635	64.9578
7630	62.4331
7625	66.3744
7620	68.162
7615	65.3409
7610	67.3115
7605	68.8229
7600	67.5058
7595	67.5402
7590	69.7879
7585	70.3896
7580	73.2587
7575	77.0048
7570	75.2661
7565	66.8311
7560	63.932
7555	67.7824
7550	69.0125
7545	66.4019
7540	65.2919
7535	66.2779
7530	67.486
7525	68.1722
7520	64.7453
7515	64.2038
7510	64.4619
7505	65.6789
7500	64.6392
7495	63.3776
7490	63.9214
7485	64.8082
7480	65.5581
7475	65.5353
7470	62.5906
7465	65.6276
7460	69.1035
7455	65.7159
7450	63.5027
7445	65.8886
7440	68.0139
7435	68.9362
7430	68.2145
7425	65.4491
7420	65.2177
7415	67.7737
7410	66.401
7405	62.4216
7400	61.5051
7395	61.841
7390	62.9192
7385	65.6826
7380	66.494
7375	65.172
7370	64.5415
7365	64.6199
7360	66.0605
7355	69.583
7350	69.5974
7345	65.4402
7340	62.4051
7335	62.398
7330	63.7344
7325	66.7992
7320	68.0259
7315	67.4105
7310	67.5256
7305	66.44
7300	65.2849
7295	65.0285
7290	65.7404
7285	66.1656
7280	65.8155
7275	66.3269
7270	64.9757
7265	63.5704
7260	65.0594
7255	66.5964
7250	65.3347
7245	62.813
7240	60.6539
7235	60.4317
7230	64.5394
7225	66.4232
7220	64.852
7215	64.5777
7210	65.7196
7205	65.5044
7200	63.6928
7195	63.2858
7190	63.0358
7185	64.6815
7180	66.8467
7175	67.0779
7170	65.7996
7165	66.0243
7160	66.8876
7155	64.766
7150	63.8625
7145	66.1295
7140	66.4798
7135	65.0644
7130	64.2519
7125	63.7552
7120	63.5335
7115	63.1934
7110	63.0006
7105	64.22
7100	64.3266
7095	62.9801
7090	63.0933
7085	62.928
7080	62.1418
7075	63.7753
7070	63.4343
7065	61.3812
7060	61.108
7055	63.3783
7050	65.4681
7045	65.5734
7040	62.6416
7035	62.5082
7030	66.2342
7025	67.2803
7020	66.0279
7015	64.9581
7010	62.3726
7005	62.8515
7000	64.5663
6995	65.4568
6990	65.3847
6985	64.8002
6980	66.4971
6975	66.6873
6970	66.6846
6965	67.0342
6960	66.0256
6955	64.315
6950	64.907
6945	66.4093
6940	65.877
6935	64.7214
6930	64.1552
6925	64.9845
6920	65.1638
6915	63.7382
6910	64.3867
6905	65.6052
6900	65.4433
6895	64.2349
6890	64.8468
6885	66.0784
6880	65.9872
6875	66.4043
6870	65.9921
6865	65.4554
6860	64.9536
6855	64.7119
6850	65.6874
6845	65.7874
6840	65.3849
6835	65.5577
6830	65.2839
6825	65.7482
6820	65.5532
6815	65.6512
6810	66.8986
6805	66.279
6800	65.1332
6795	65.6776
6790	64.7082
6785	64.0652
6780	64.9664
6775	64.3313
6770	63.452
6765	63.536
6760	64.3255
6755	65.1999
6750	65.4149
6745	64.0255
6740	63.2188
6735	64.4505
6730	64.2742
6725	63.6378
6720	63.3974
6715	63.5377
6710	64.7742
6705	64.5771
6700	63.9788
6695	64.2478
6690	65.8
6685	67.1903
6680	66.4809
6675	63.9379
6670	63.9815
6665	65.4003
6660	64.5595
6655	62.2607
6650	62.7247
6645	64.499
6640	65.6497
6635	67.1651
6630	66.5144
6625	65.3888
6620	65.6723
6615	65.6141
6610	65.0676
6605	64.6779
6600	65.5359
6595	65.0411
6590	62.554
6585	62.6348
6580	64.2893
6575	65.2241
6570	65.8763
6565	65.9393
6560	64.6342
6555	63.7216
6550	63.6062
6545	64.4492
6540	64.714
6535	63.9005
6530	64.0069
6525	64.7
6520	65.9453
6515	67.0374
6510	65.9162
6505	64.7804
6500	64.5579
6495	64.6555
6490	66.0228
6485	65.8642
6480	65.8158
6475	66.0817
6470	65.0949
6465	65.3574
6460	64.8726
6455	64.762
6450	65.0331
6445	64.7821
6440	64.8781
6435	64.2203
6430	63.4895
6425	64.0771
6420	64.2215
6415	63.7044
6410	64.6328
6405	65.8764
6400	65.4234
6395	65.0905
6390	65.2703
6385	65.3478
6380	65.2883
6375	65.4106
6370	66.079
6365	65.9892
6360	64.9431
6355	63.651
6350	64.8381
6345	65.0717
6340	64.0094
6335	64.5322
6330	65.0106
6325	64.6729
6320	64.2087
6315	64.1205
6310	64.7169
6305	65.1156
6300	65.0215
6295	65.2799
6290	66.1354
6285	65.6853
6280	64.4175
6275	64.9894
6270	65.1146
6265	65.11
6260	64.408
6255	63.9127
6250	64.9098
6245	64.7653
6240	64.6587
6235	64.9154
6230	64.6934
6225	64.8125
6220	65.3541
6215	65.7252
6210	65.3065
6205	64.945
6200	65.2736
6195	65.0609
6190	64.1582
6185	63.1056
6180	62.8374
6175	63.9031
6170	64.5911
6165	65.8602
6160	66.6451
6155	64.9993
6150	64.2572
6145	64.6415
6140	64.6626
6135	64.7117
6130	65.0064
6125	65.1831
6120	65.4478
6115	65.2551
6110	65.0352
6105	65.6655
6100	65.5756
6095	64.8279
6090	64.7911
6085	65.4638
6080	65.5951
6075	65.0535
6070	65.1164
6065	65.7704
6060	66.1817
6055	66.4392
6050	65.8502
6045	64.4107
6040	64.0788
6035	63.9289
6030	63.8146
6025	64.2006
6020	65.0203
6015	65.0599
6010	64.7126
6005	65.1466
6000	65.2603
5995	64.8308
5990	64.743
5985	64.8149
5980	64.995
5975	64.9855
5970	65.2346
5965	65.3034
5960	65.0025
5955	65.0057
5950	64.7751
5945	64.6931
5940	65.0804
5935	65.0254
5930	64.9455
5925	65.0234
5920	64.8634
5915	64.2902
5910	64.4487
5905	65.45
5900	65.5323
5895	65.165
5890	64.7977
5885	64.682
5880	64.88
5875	64.5423
5870	64.6842
5865	65.006
5860	64.975
5855	65.347
5850	65.4162
5845	65.0504
5840	65.0398
5835	65.2712
5830	65.2069
5825	64.8329
5820	64.8892
5815	64.8009
5810	64.7292
5805	64.76
5800	64.8848
5795	65.1145
5790	65.0704
5785	64.5504
5780	64.9403
5775	65.25
5770	64.9816
5765	64.7521
5760	64.9193
5755	65.0235
5750	65.0155
5745	65.3296
5740	64.5921
5735	63.8245
5730	64.5606
5725	64.9066
5720	64.8921
5715	65.0633
5710	65.0154
5705	65.0345
5700	65.6553
5695	66.1632
5690	65.4897
5685	64.8924
5680	65.0785
5675	64.9918
5670	65.0506
5665	64.7818
5660	64.4834
5655	64.7525
5650	65.3855
5645	65.6136
5640	65.2966
5635	65.3893
5630	65.6007
5625	65.0165
5620	64.5977
5615	64.8555
5610	65.3443
5605	65.6235
5600	65.4925
5595	65.2245
5590	65.2071
5585	65.3445
5580	65.4893
5575	65.6801
5570	65.5739
5565	65.4083
5560	64.8829
5555	64.6968
5550	65.0564
5545	64.9906
5540	65.6226
5535	65.9347
5530	65.2942
5525	65.1813
5520	65.4104
5515	65.3518
5510	65.3535
5505	65.4008
5500	65.095
5495	64.7498
5490	64.8223
5485	65.1434
5480	65.3063
5475	65.0629
5470	65.1196
5465	64.7083
5460	64.4425
5455	64.805
5450	64.7743
5445	64.4777
5440	64.2641
5435	64.2565
5430	64.4734
5425	64.5057
5420	64.3661
5415	64.7995
5410	65.5296
5405	65.8062
5400	65.6723
5395	65.7374
5390	65.379
5385	64.737
5380	64.4997
5375	64.2461
5370	64.9121
5365	65.4409
5360	65.39
5355	64.9708
5350	64.9898
5345	65.156
5340	64.136
5335	63.4809
5330	65.2597
5325	66.2836
5320	64.7215
5315	64.6087
5310	62.7382
5305	60.759
5300	61.8906
5295	63.8174
5290	63.4704
5285	61.4031
5280	59.9421
5275	61.0199
5270	64.0781
5265	65.58
5260	65.2688
5255	65.3678
5250	65.953
5245	65.7328
5240	64.7956
5235	63.9241
5230	64.1582
5225	64.8694
5220	65.4336
5215	65.1932
5210	64.9301
5205	65.0805
5200	65.1767
5195	64.6254
5190	63.6853
5185	63.9924
5180	64.8278
5175	65.2489
5170	64.9368
5165	64.493
5160	64.8978
5155	64.9183
5150	64.7807
5145	65.1915
5140	65.44
5135	65.0507
5130	64.7772
5125	64.9205
5120	64.8792
5115	64.6496
5110	65.0004
5105	65.1341
5100	65.0689
5095	65.0065
5090	64.6295
5085	64.323
5080	64.6394
5075	64.9003
5070	64.8113
5065	64.8724
5060	64.7745
5055	64.4969
5050	64.4698
5045	64.5561
5040	64.823
5035	64.9598
5030	65.1681
5025	65.2778
5020	65.1813
5015	64.9623
5010	64.6857
5005	64.9262
5000	65.3098
4995	65.1735
4990	65.1191
4985	65.0534
4980	65.106
4975	65.033
4970	65.2227
4965	65.5653
4960	65.0378
4955	64.4537
4950	64.3918
4945	64.5943
4940	64.5679
4935	64.4587
4930	64.7384
4925	65.0453
4920	65.1968
4915	65.1785
4910	64.9701
4905	64.7909
4900	64.8548
4895	64.6448
4890	64.5095
4885	64.7097
4880	64.7988
4875	64.8323
4870	65.11
4865	64.9273
4860	64.6214
4855	64.6101
4850	64.5446
4845	64.5529
4840	64.6494
4835	64.8301
4830	64.9034
4825	64.9099
4820	65.0169
4815	64.9816
4810	65.0246
4805	64.8769
4800	64.7805
4795	64.9067
4790	65.0738
4785	65.2466
4780	65.3133
4775	64.9682
4770	64.8278
4765	64.9837
4760	65.115
4755	65.1942
4750	65.0698
4745	64.8377
4740	64.8201
4735	64.8421
4730	64.9206
4725	64.9294
4720	64.9959
4715	65.1456
4710	65.187
4705	65.0294
4700	65.1028
4695	65.364
4690	65.3343
4685	65.2427
4680	65.1462
4675	65.0258
4670	65.2723
4665	65.3626
4660	65.4031
4655	65.508
4650	65.4819
4645	65.415
4640	65.3704
4635	65.3347
4630	65.1566
4625	65.0373
4620	65.1572
4615	65.2305
4610	64.9417
4605	64.7392
4600	64.89
4595	65.1272
4590	65.4557
4585	65.3291
4580	65.0707
4575	64.9582
4570	64.7382
4565	64.7881
4560	65.0511
4555	64.7661
4550	64.5246
4545	64.4242
4540	64.3749
4535	64.4251
4530	64.5268
4525	64.7206
4520	64.7095
4515	64.6049
4510	64.5319
4505	64.3848
4500	64.3034
4495	64.4116
4490	64.4692
4485	64.3223
4480	64.1773
4475	64.1379
4470	64.2824
4465	64.3882
4460	64.3511
4455	64.0224
4450	64.1287
4445	64.3109
4440	64.173
4435	64.4558
4430	64.3908
4425	63.7996
4420	63.5645
4415	63.8446
4410	64.4969
4405	64.5492
4400	62.818
4395	60.2667
4390	69.4402
4385	79.0335
4380	71.834
4375	64.8441
4370	64.4489
4365	64.1868
4360	64.9765
4355	65.6362
4350	64.9534
4345	64.5345
4340	64.7985
4335	64.7564
4330	64.6065
4325	64.6061
4320	64.7831
4315	64.8082
4310	64.7486
4305	64.8852
4300	64.9622
4295	64.7986
4290	64.5873
4285	64.8451
4280	64.8535
4275	64.5282
4270	64.3339
4265	64.4172
4260	64.7612
4255	64.8476
4250	64.6187
4245	64.3994
4240	64.5236
4235	64.8185
4230	64.9372
4225	64.8576
4220	64.7611
4215	64.7564
4210	64.8749
4205	64.986
4200	64.9353
4195	64.9998
4190	65.2806
4185	65.2368
4180	65.0814
4175	64.8442
4170	64.8354
4165	65.0287
4160	65.1374
4155	64.9409
4150	64.7902
4145	65.033
4140	65.1123
4135	64.9067
4130	65.009
4125	65.1701
4120	65.1872
4115	65.1818
4110	65.4491
4105	65.6174
4100	65.495
4095	65.4468
4090	65.2779
4085	64.9018
4080	64.8263
4075	65.0542
4070	65.3486
4065	65.3543
4060	65.2348
4055	65.263
4050	65.38
4045	65.4909
4040	65.3997
4035	65.2217
4030	65.13
4025	65.0222
4020	64.9825
4015	64.967
4010	64.8809
4005	64.9877
4000	65.1491
3995	65.1833
3990	65.2887
3985	65.3801
3980	65.273
3975	65.0856
3970	65.219
3965	65.3676
3960	65.2296
3955	65.2173
3950	65.2769
3945	65.2428
3940	65.2003
3935	65.1651
3930	65.0794
3925	64.9765
3920	65.0135
3915	65.065
3910	64.9992
3905	65.0859
3900	65.3762
3895	65.3178
3890	65.0323
3885	65.0769
3880	65.1404
3875	65.1231
3870	65.0304
3865	65.0567
3860	65.2186
3855	65.3225
3850	65.2257
3845	65.0062
3840	65.0228
3835	65.1322
3830	65.1427
3825	65.2851
3820	65.4235
3815	65.3563
3810	65.2389
3805	65.1011
3800	65.0168
3795	65.1473
3790	65.2975
3785	65.3648
3780	65.1793
3775	64.9066
3770	64.8973
3765	65.0301
3760	65.1269
3755	65.1866
3750	65.2024
3745	65.1126
3740	65.0814
3735	65.2615
3730	65.372
3725	65.2991
3720	65.3138
3715	65.2692
3710	65.2472
3705	65.2596
3700	65.2511
3695	65.323
3690	65.1866
3685	65.17
3680	65.229
3675	65.1885
3670	65.1803
3665	65.1207
3660	65.2316
3655	65.3203
3650	65.2996
3645	65.3032
3640	65.2249
3635	65.0952
3630	65.0822
3625	65.0945
3620	65.1192
3615	65.2564
3610	65.2856
3605	65.2472
3600	65.2078
3595	65.1725
3590	65.0625
3585	65.0547
3580	65.2177
3575	65.2824
3570	65.3356
3565	65.257
3560	65.1235
3555	65.1357
3550	65.2304
3545	65.178
3540	65.0762
3535	65.1556
3530	65.2453
3525	65.2441
3520	65.2192
3515	65.0883
3510	65.1927
3505	65.3859
3500	65.3857
3495	65.3176
3490	65.325
3485	65.2895
3480	65.0704
3475	65.0537
3470	65.2283
3465	65.4569
3460	65.4355
3455	65.2996
3450	65.3349
3445	65.3727
3440	65.2183
3435	65.1033
3430	65.0983
3425	65.0197
3420	65.078
3415	65.2923
3410	65.3343
3405	65.2363
3400	65.2774
3395	65.2588
3390	64.9907
3385	64.9836
3380	65.244
3375	65.3006
3370	65.2562
3365	65.189
3360	65.1469
3355	65.1528
3350	65.1644
3345	65.1743
3340	65.18
3335	65.1724
3330	65.091
3325	65.1428
3320	65.2731
3315	65.2832
3310	65.2869
3305	65.2249
3300	65.1529
3295	65.0591
3290	65.0928
3285	65.1752
3280	65.2137
3275	65.2463
3270	65.1068
3265	65.0794
3260	65.1827
3255	65.1764
3250	65.2103
3245	65.23
3240	65.1581
3235	65.1557
3230	65.1627
3225	65.1288
3220	65.1512
3215	65.2561
3210	65.2106
3205	65.1057
3200	65.1441
3195	65.2403
3190	65.1932
3185	65.1771
3180	65.2224
3175	65.2618
3170	65.2019
3165	65.2076
3160	65.2363
3155	65.1857
3150	65.1419
3145	65.0923
3140	65.0852
3135	65.1145
3130	65.153
3125	65.2382
3120	65.2972
3115	65.2428
3110	65.2899
3105	65.3483
3100	65.325
3095	65.2775
3090	65.3085
3085	65.3545
3080	65.268
3075	65.1899
3070	65.1122
3065	65.1002
3060	65.1497
3055	65.1339
3050	65.2716
3045	65.3306
3040	65.2278
3035	65.0496
3030	65.0388
3025	65.1099
3020	65.1767
3015	65.2259
3010	65.2086
3005	65.2532
3000	65.2884
2995	65.2313
2990	65.3047
2985	65.3208
2980	65.2033
2975	65.024
2970	64.9315
2965	64.96
2960	64.9711
2955	64.9698
2950	65.01
2945	65.0259
2940	65.0717
2935	65.0018
2930	64.8189
2925	64.7369
2920	64.7366
2915	64.8725
2910	64.9704
2905	65.0685
2900	65.0784
2895	65.0646
2890	65.0618
2885	64.9885
2880	64.957
2875	65.0172
2870	65.1273
2865	65.0886
2860	65.0874
2855	65.087
2850	64.9777
2845	65.0467
2840	65.0856
2835	65.1302
2830	65.1744
2825	65.2831
2820	65.3264
2815	65.2511
2810	65.2773
2805	65.3629
2800	65.3069
2795	65.214
2790	65.258
2785	65.2623
2780	65.236
2775	65.2765
2770	65.2952
2765	65.2189
2760	65.2299
2755	65.2767
2750	65.2804
2745	65.2418
2740	65.1622
2735	65.1956
2730	65.2666
2725	65.3131
2720	65.3609
2715	65.4145
2710	65.3855
2705	65.2729
2700	65.2756
2695	65.3299
2690	65.367
2685	65.338
2680	65.2571
2675	65.1781
2670	65.1955
2665	65.2598
2660	65.2834
2655	65.2546
2650	65.2109
2645	65.2091
2640	65.1702
2635	65.2087
2630	65.2619
2625	65.3276
2620	65.3211
2615	65.2373
2610	65.2868
2605	65.386
2600	65.4036
2595	65.3379
2590	65.24
2585	65.1528
2580	65.1749
2575	65.2483
2570	65.2875
2565	65.3539
2560	65.4392
2555	65.4677
2550	65.407
2545	65.3369
2540	65.284
2535	65.2581
2530	65.2881
2525	65.2841
2520	65.2748
2515	65.3234
2510	65.3612
2505	65.3382
2500	65.3304
2495	65.3753
2490	65.309
2485	65.268
2480	65.2392
2475	65.2433
2470	65.2841
2465	65.3012
2460	65.2764
2455	65.2924
2450	65.2146
2445	65.2789
2440	65.3436
2435	65.2713
2430	65.2151
2425	65.2208
2420	65.3106
2415	65.3942
2410	65.3346
2405	65.2222
2400	65.193
2395	65.29
2390	65.3411
2385	65.2994
2380	65.262
2375	65.2899
2370	65.3264
2365	65.3218
2360	65.3001
2355	65.2612
2350	65.2613
2345	65.278
2340	65.2302
2335	65.1973
2330	65.1459
2325	65.1396
2320	65.2524
2315	65.3168
2310	65.2978
2305	65.3247
2300	65.3785
2295	65.3654
2290	65.3693
2285	65.3971
2280	65.321
2275	65.2235
2270	65.2755
2265	65.387
2260	65.424
2255	65.4126
2250	65.3826
2245	65.33
2240	65.2829
2235	65.2295
2230	65.1976
2225	65.2435
2220	65.3488
2215	65.381
2210	65.297
2205	65.2775
2200	65.3465
2195	65.3857
2190	65.3248
2185	65.2825
2180	65.2709
2175	65.2803
2170	65.3217
2165	65.3433
2160	65.2659
2155	65.2098
2150	65.2535
2145	65.2975
2140	65.3814
2135	65.4409
2130	65.4045
2125	65.3963
2120	65.28
2115	65.2305
2110	65.3012
2105	65.3532
2100	65.3842
2095	65.3287
2090	65.3179
2085	65.3315
2080	65.2426
2075	65.2219
2070	65.3057
2065	65.3609
2060	65.3513
2055	65.2923
2050	65.2683
2045	65.3084
2040	65.3403
2035	65.3569
2030	65.3238
2025	65.3769
2020	65.3174
2015	65.2556
2010	65.3659
2005	65.4219
2000	65.396
1995	65.3091
1990	65.3419
1985	65.4237
1980	65.4221
1975	65.3381
1970	65.3539
1965	65.4141
1960	65.3603
1955	65.3618
1950	65.3584
1945	65.317
1940	65.3618
1935	65.3878
1930	65.4507
1925	65.4009
1920	65.3214
1915	65.322
1910	65.3764
1905	65.4324
1900	65.4139
1895	65.4353
1890	65.4209
1885	65.3926
1880	65.3403
1875	65.3875
1870	65.4229
1865	65.3637
1860	65.3749
1855	65.4227
1850	65.3769
1845	65.3538
1840	65.4461
1835	65.486
1830	65.4338
1825	65.3996
1820	65.3409
1815	65.2915
1810	65.293
1805	65.3252
1800	65.4019
1795	65.4099
1790	65.346
1785	65.3185
1780	65.3838
1775	65.4664
1770	65.3887
1765	65.2721
1760	65.2831
1755	65.2744
1750	65.161
1745	65.0566
1740	65.075
1735	65.098
1730	65.0439
1725	65.0262
1720	65.1285
1715	65.2117
1710	65.2165
1705	65.2456
1700	65.2303
1695	65.1378
1690	65.1198
1685	65.1507
1680	65.3125
1675	65.3159
1670	65.228
1665	65.2555
1660	65.2477
1655	65.2031
1650	65.2424
1645	65.244
1640	65.2484
1635	65.1889
1630	65.1178
1625	65.1723
1620	65.1387
1615	65.1651
1610	65.2843
1605	65.3062
1600	65.2497
1595	65.1925
1590	65.1317
1585	65.1479
1580	65.2135
1575	65.2001
1570	65.1433
1565	65.0836
1560	65.0642
1555	65.1965
1550	65.1444
1545	65.0646
1540	65.0091
1535	65.0793
1530	65.2069
1525	65.2388
1520	65.2533
1515	65.2247
1510	65.1875
1505	65.1827
1500	65.1996
1495	65.3493
1490	65.312
1485	65.1518
1480	65.1002
1475	65.0717
1470	65.0768
1465	65.0373
1460	65.0977
1455	65.1986
1450	65.1589
1445	65.0993
1440	65.1556
1435	65.2343
1430	65.2038
1425	65.174
1420	65.0629
1415	64.9633
1410	64.9621
1405	65.0387
1400	65.0585
1395	65.059
1390	65.1234
1385	65.0439
1380	64.937
1375	65.0115
1370	65.1109
1365	65.1323
1360	65.1065
1355	65.085
1350	65.0893
1345	65.0535
1340	64.9335
1335	64.9936
1330	65.1076
1325	65.1447
1320	65.1716
1315	65.1654
1310	65.1074
1305	65.0981
1300	65.1143
1295	65.0872
1290	65.064
1285	65.0925
1280	65.1317
1275	65.0161
1270	64.9023
1265	65.0133
1260	65.1197
1255	64.9805
1250	64.8998
1245	65.0494
1240	65.0709
1235	65.0083
1230	64.9513
1225	64.9356
1220	64.9687
1215	64.9415
1210	64.9432
1205	65.032
1200	65.017
1195	64.8826
1190	64.8431
1185	64.8427
1180	64.8646
1175	64.8262
1170	64.7346
1165	64.7461
1160	64.796
1155	64.8843
1150	64.8576
1145	64.7167
1140	64.7089
1135	64.7876
1130	64.8602
1125	64.9274
1120	64.8934
1115	64.7532
1110	64.7269
1105	64.828
1100	64.8811
1095	64.9082
1090	65.0216
1085	64.9406
1080	64.8333
1075	64.9241
1070	64.8644
1065	64.8581
1060	64.8103
1055	64.8166
1050	64.9522
1045	64.9167
1040	64.7999
1035	64.8289
1030	64.8081
1025	64.8276
1020	64.8747
1015	64.8769
1010	64.8773
1005	64.8664
1000	64.8066
995	 64.6196
990	 64.5697
985	 64.7245
980	 64.8456
975	 64.6735
970	 64.5177
965	 64.5917
960	 64.5517
955	 64.4169
950	 64.3491
945	 64.4019
940	 64.4896
935	 64.4959
930	 64.6133
925	 64.5169
920	 64.2934
915	 64.4983
910	 64.8988
905	 65.2639
900	 65.0559
895	 64.2754
890	 64.1307
885	 64.5466
880	 64.4486
875	 64.0979
870	 63.952
865	 64.3107
860	 64.5318
855	 64.6669
850	 64.6152
845	 64.4378
840	 64.2663
835	 64.3048
830	 64.4291
825	 64.4138
820	 64.1721
815	 64.1952
810	 64.2485
805	 64.18
800	 64.1439
795	 64.0202
790	 63.8963
785	 63.7935
780	 63.8241
775	 63.8919
770	 63.6958
765	 63.6047
760	 63.762
755	 63.7491
750	 63.5288
745	 63.5097
740	 63.6831
735	 63.724
730	 63.6751
725	 63.5914
720	 63.4622
715	 63.4623
710	 63.3737
705	 63.3064
700	 63.1504
695	 63.2088
690	 63.3914
685	 63.2014
680	 62.8466
675	 62.7702
670	 62.9112
665	 63.0865
660	 63.2146
655	 63.0581
650	 62.8726
645	 62.6836
640	 62.6888
635	 63.0646
630	 62.984
625	 62.7541
620	 62.8494
615	 63.026
610	 63.279
605	 63.3207
600	 62.9745
595	 62.7588
590	 62.7627
585	 62.6706
580	 62.528
575	 62.1978
570	 61.8161
565	 61.7717
560	 61.8755
555	 61.8057
550	 61.6721
545	 61.8059
540	 61.6844
535	 61.5679
530	 61.4397
525	 61.4583
520	 61.3103
515	 61.0967
510	 61.3746
505	 61.5937
500	 61.5052
495	 61.4106
490	 61.343
485	 60.7579
480	 59.7903
475	 59.2532
470	 59.9109
465	 60.4927
460	 60.3615
455	 60.0281
450	 59.7666
445	 59.9963
440	 60.3992
435	 59.0998
430	 58.2385
425	 58.734
420	 59.0893
415	 59.8092
410	 60.1664
405	 55.8366
400	 52.9237
395	 53.6753
390	 63.8734
385	 67.4118
380	 55.0292
375	 38.2763
370	 41.2659