File: Bakgrunnsmateriale/MATLAB/FTIR/ftir_data/subBb/Mapping_36/C-4040-8_t08_cm-1.asc
PE IR       SPECTRUM    SPECTRUM    ASCII       PEDS        1.60
  -1
C-9965~1.ASC
17/05/02
11:28:10.00
17/05/02
11:28:10.00
tln
$C-4040-8_t0008$<tbV0>[7.5,-8.0,8.0,0.0,22,1,0]
370
64

2002,4.07
MIRTGS : RIGHTBACK : INTERNAL 2
MIR : ON : INTERNAL 2
OPTKBR

0.200000
8
8.000000
FILLER
RATIO
SPECTRUM
UNLOCKED 256

DOUBLE
64
COMBINED
1
0
0

1.000000
RATIO

1
0
TRUE
51149
0
LEFT NOT FITTED RIGHT NOT FITTED 0
NONE
NONE
15600
12
4.427000
51148
TRUE
1 0 8 72 0 0 0 0

15798

#HDR
-1
-1
#GR
CM-1
%T
2.38419e-05
0.0
7800
-1.000000
7431
8
81.1664
9.982895
#DATA
7800	61.8007
7795	61.5451
7790	59.5356
7785	55.7867
7780	54.3806
7775	60.7182
7770	69.0239
7765	66.543
7760	62.4703
7755	69.0728
7750	69.6374
7745	65.4661
7740	68.0002
7735	69.3801
7730	62.9854
7725	58.8793
7720	61.6402
7715	67.873
7710	72.0342
7705	68.5285
7700	62.3656
7695	58.3755
7690	59.7149
7685	62.9053
7680	63.6897
7675	69.6559
7670	71.4829
7665	64.8093
7660	62.2581
7655	66.388
7650	67.8563
7645	66.9323
7640	67.7321
7635	65.4646
7630	63.0088
7625	64.3639
7620	63.7159
7615	61.6705
7610	62.6715
7605	62.9028
7600	61.939
7595	59.8719
7590	56.889
7585	61.5873
7580	65.4429
7575	62.8524
7570	61.9183
7565	65.3325
7560	67.5719
7555	67.2249
7550	62.4236
7545	57.6065
7540	62.3689
7535	65.3799
7530	63.7534
7525	61.4252
7520	62.5932
7515	65.3969
7510	63.6784
7505	61.0269
7500	61.9683
7495	63.1389
7490	61.8334
7485	60.2624
7480	60.7556
7475	60.8793
7470	60.7749
7465	61.3299
7460	64.261
7455	65.4915
7450	64.8974
7445	66.0938
7440	64.0542
7435	58.6175
7430	60.1686
7425	63.7006
7420	63.9307
7415	65.1466
7410	65.8201
7405	65.9353
7400	64.4434
7395	66.2966
7390	67.0392
7385	64.2337
7380	61.4078
7375	60.4036
7370	63.5602
7365	67.1822
7360	65.9392
7355	65.1326
7350	63.5445
7345	64.3091
7340	64.7962
7335	61.2878
7330	60.7043
7325	63.0572
7320	65.016
7315	65.8643
7310	67.5871
7305	65.8101
7300	62.8444
7295	62.878
7290	64.2864
7285	64.1463
7280	63.5526
7275	65.5398
7270	63.6264
7265	61.6698
7260	63.6556
7255	64.4189
7250	63.8667
7245	62.6186
7240	61.0977
7235	60.4635
7230	62.6514
7225	64.189
7220	65.4777
7215	65.2218
7210	62.3413
7205	63.2259
7200	63.7423
7195	63.1072
7190	62.2318
7185	62.5184
7180	65.1775
7175	64.1588
7170	62.4351
7165	61.5852
7160	61.4212
7155	61.9998
7150	62.7824
7145	64.1551
7140	63.704
7135	62.0408
7130	61.102
7125	61.1397
7120	63.1332
7115	65.6332
7110	64.8204
7105	62.1605
7100	63.1073
7095	64.8717
7090	63.1118
7085	62.7206
7080	65.0296
7075	66.1172
7070	62.8357
7065	61.1039
7060	62.4996
7055	61.6044
7050	63.2242
7045	64.2302
7040	62.1128
7035	62.9497
7030	64.6307
7025	66.3829
7020	66.8221
7015	63.9574
7010	61.5625
7005	62.4986
7000	65.4015
6995	66.5686
6990	66.7723
6985	65.3339
6980	65.2783
6975	67.0356
6970	65.0477
6965	62.4047
6960	63.1207
6955	62.691
6950	63.2216
6945	63.9921
6940	62.9325
6935	61.6946
6930	61.7246
6925	63.6867
6920	64.7711
6915	64.8291
6910	64.7771
6905	64.0507
6900	63.7527
6895	63.2182
6890	62.869
6885	62.6917
6880	62.6762
6875	63.6883
6870	64.4725
6865	64.8496
6860	64.7274
6855	65.5337
6850	65.131
6845	63.0721
6840	62.1177
6835	62.2233
6830	63.6018
6825	63.6614
6820	63.603
6815	63.4846
6810	62.6112
6805	61.5952
6800	61.8791
6795	64.1371
6790	64.2724
6785	62.5795
6780	62.8933
6775	62.9466
6770	62.5621
6765	63.9806
6760	64.9285
6755	64.1678
6750	63.0541
6745	62.4679
6740	61.8275
6735	61.917
6730	63.3079
6725	64.0273
6720	64.0069
6715	63.2959
6710	62.0067
6705	62.8013
6700	64.313
6695	65.0842
6690	65.2097
6685	64.3825
6680	63.295
6675	62.7577
6670	61.9582
6665	62.1613
6660	61.7055
6655	61.1394
6650	63.0459
6645	64.4751
6640	64.7456
6635	64.6536
6630	63.5124
6625	62.7673
6620	63.7468
6615	64.0264
6610	63.9589
6605	63.3513
6600	62.5664
6595	62.8361
6590	63.7943
6585	64.085
6580	64.7232
6575	64.7538
6570	63.425
6565	63.299
6560	64.4373
6555	63.5291
6550	63.5582
6545	63.9462
6540	63.5629
6535	63.2539
6530	63.0895
6525	63.3056
6520	63.8535
6515	64.36
6510	64.2429
6505	63.9362
6500	63.3572
6495	63.2105
6490	63.3246
6485	64.5319
6480	64.8806
6475	63.3626
6470	62.8877
6465	63.6117
6460	63.9847
6455	63.8945
6450	63.8469
6445	64.4848
6440	64.7261
6435	63.7054
6430	62.6005
6425	62.8866
6420	63.6237
6415	63.5386
6410	63.939
6405	64.0553
6400	63.6132
6395	64.1008
6390	64.3791
6385	64.0528
6380	64.1315
6375	64.2618
6370	63.4156
6365	63.3136
6360	64.1621
6355	63.9618
6350	63.1315
6345	62.4852
6340	62.5198
6335	64.1259
6330	64.6507
6325	63.4865
6320	62.3644
6315	62.3855
6310	63.3356
6305	63.4841
6300	63.1516
6295	63.8957
6290	65.1852
6285	65.3019
6280	63.6208
6275	62.913
6270	62.7917
6265	63.0232
6260	63.884
6255	64.4446
6250	64.0298
6245	63.4053
6240	63.4614
6235	64.2711
6230	64.4886
6225	63.6043
6220	62.8601
6215	63.5312
6210	63.0738
6205	62.2823
6200	62.9602
6195	63.4572
6190	63.5984
6185	63.3183
6180	63.3898
6175	63.5254
6170	63.735
6165	63.7461
6160	64.1004
6155	64.5433
6150	64.2362
6145	62.9925
6140	62.8003
6135	63.1423
6130	63.0151
6125	62.8164
6120	63.0023
6115	63.3222
6110	63.262
6105	63.7433
6100	63.6129
6095	63.0956
6090	63.2665
6085	63.3616
6080	63.9481
6075	63.9581
6070	63.6227
6065	63.4592
6060	63.2148
6055	63.5752
6050	64.4988
6045	64.6414
6040	63.4963
6035	62.9265
6030	62.6816
6025	63.3881
6020	64.2301
6015	63.8002
6010	63.0387
6005	62.8142
6000	63.239
5995	64.2279
5990	64.266
5985	63.8742
5980	63.1612
5975	63.0576
5970	63.8762
5965	63.8133
5960	63.3799
5955	62.8839
5950	63.0025
5945	63.7294
5940	63.9624
5935	63.7321
5930	63.9465
5925	63.4646
5920	63.3442
5915	63.7214
5910	63.9975
5905	63.6855
5900	63.0051
5895	62.638
5890	62.4348
5885	62.6248
5880	63.1361
5875	63.2331
5870	63.5738
5865	64.0021
5860	63.5801
5855	63.712
5850	64.2148
5845	63.7462
5840	63.5315
5835	63.8048
5830	63.9695
5825	63.3634
5820	63.1093
5815	63.6851
5810	64.0055
5805	64.3749
5800	63.8965
5795	63.1425
5790	63.0943
5785	63.748
5780	64.0695
5775	63.5959
5770	63.4532
5765	63.6098
5760	63.4682
5755	63.0587
5750	62.9211
5745	63.034
5740	63.6767
5735	63.7778
5730	62.983
5725	62.637
5720	63.0788
5715	63.5863
5710	63.4253
5705	62.8307
5700	62.2483
5695	62.4974
5690	63.0375
5685	63.2233
5680	63.775
5675	64.3537
5670	63.9633
5665	63.6393
5660	64.0896
5655	63.645
5650	63.3651
5645	63.4453
5640	63.3733
5635	63.3715
5630	63.1498
5625	62.938
5620	62.8599
5615	62.59
5610	62.8564
5605	63.4405
5600	63.5491
5595	63.3486
5590	63.7319
5585	64.4672
5580	64.4456
5575	64.0414
5570	63.9105
5565	63.6393
5560	63.1653
5555	63.1444
5550	63.5537
5545	63.7103
5540	64.3738
5535	64.2741
5530	63.3226
5525	63.1231
5520	63.2853
5515	63.0734
5510	62.8966
5505	63.5238
5500	64.1667
5495	63.8406
5490	63.4375
5485	63.5038
5480	63.2787
5475	63.1548
5470	63.5785
5465	63.5811
5460	63.1576
5455	62.9722
5450	63.1177
5445	63.4249
5440	63.3279
5435	62.8632
5430	62.6811
5425	62.6703
5420	62.8582
5415	63.0064
5410	63.0443
5405	62.7569
5400	62.6612
5395	62.9623
5390	62.8849
5385	62.2292
5380	62.2247
5375	62.8043
5370	62.9995
5365	62.977
5360	63.2193
5355	63.2947
5350	63.2856
5345	63.7865
5340	63.7919
5335	63.0368
5330	62.637
5325	62.7221
5320	63.2201
5315	62.8768
5310	61.2335
5305	60.4763
5300	61.4048
5295	62.3164
5290	63.6837
5285	65.7586
5280	65.1979
5275	61.9159
5270	62.6918
5265	65.5508
5260	65.1724
5255	62.6756
5250	62.3628
5245	62.3121
5240	60.7396
5235	62.3358
5230	63.2389
5225	61.5934
5220	61.8416
5215	62.4382
5210	63.8147
5205	64.4231
5200	63.9585
5195	62.4955
5190	61.4196
5185	62.0739
5180	63.7792
5175	64.4694
5170	63.6378
5165	63.0589
5160	63.2035
5155	63.027
5150	63.0809
5145	63.07
5140	63.0574
5135	62.8427
5130	62.5723
5125	62.5612
5120	62.6835
5115	62.5538
5110	62.6013
5105	62.6721
5100	63.0015
5095	63.5278
5090	63.3943
5085	62.8901
5080	63.1142
5075	63.4675
5070	63.1941
5065	62.888
5060	62.7873
5055	62.7066
5050	62.9822
5045	63.2459
5040	63.2568
5035	62.9636
5030	62.7084
5025	62.5958
5020	62.5545
5015	62.6824
5010	62.8593
5005	62.8065
5000	62.8713
4995	62.6924
4990	62.0898
4985	62.342
4980	62.9695
4975	63.1389
4970	63.4205
4965	63.387
4960	62.9714
4955	62.7467
4950	62.9358
4945	63.2939
4940	63.167
4935	62.547
4930	62.2916
4925	62.5124
4920	62.7355
4915	62.5597
4910	62.6082
4905	62.9775
4900	63.1696
4895	63.234
4890	63.5521
4885	63.5881
4880	63.1145
4875	62.4697
4870	62.3039
4865	62.6243
4860	62.7482
4855	62.6986
4850	62.5512
4845	62.4446
4840	62.4358
4835	62.7554
4830	63.0155
4825	63.0109
4820	62.8781
4815	62.8683
4810	63.0428
4805	62.9874
4800	62.9084
4795	62.9479
4790	63.0269
4785	62.871
4780	62.5671
4775	62.6314
4770	62.739
4765	62.8711
4760	63.0276
4755	63.0493
4750	63.124
4745	63.1991
4740	63.1085
4735	62.9666
4730	62.9056
4725	62.8462
4720	63.0236
4715	63.0936
4710	62.9702
4705	62.9205
4700	63.1139
4695	63.412
4690	63.1659
4685	62.9648
4680	62.9892
4675	63.0867
4670	62.9514
4665	62.624
4660	62.6022
4655	62.6196
4650	62.479
4645	62.2785
4640	62.2837
4635	62.4877
4630	62.6102
4625	62.6311
4620	62.3396
4615	62.1869
4610	62.3105
4605	62.5227
4600	62.7107
4595	62.6132
4590	62.488
4585	62.4738
4580	62.4575
4575	62.4627
4570	62.3518
4565	62.086
4560	61.8793
4555	61.8046
4550	61.7882
4545	61.8267
4540	61.8325
4535	61.7499
4530	61.5528
4525	61.5296
4520	61.6841
4515	61.701
4510	61.6147
4505	61.8974
4500	62.1766
4495	61.764
4490	61.6077
4485	61.9975
4480	61.6962
4475	61.1593
4470	61.4329
4465	61.9368
4460	61.8245
4455	61.6095
4450	61.6437
4445	61.8829
4440	61.703
4435	60.9537
4430	60.9566
4425	62.0985
4420	62.476
4415	62.1063
4410	64.6237
4405	71.0833
4400	68.3031
4395	63.314
4390	67.7233
4385	75.2007
4380	66.2467
4375	60.0239
4370	61.1927
4365	62.4717
4360	62.0805
4355	61.0709
4350	61.1792
4345	61.5228
4340	61.3865
4335	61.2193
4330	61.1408
4325	61.313
4320	61.3952
4315	61.0628
4310	60.9106
4305	61.0323
4300	61.1197
4295	61.1289
4290	61.2777
4285	61.2966
4280	61.4226
4275	61.4255
4270	61.2897
4265	61.4306
4260	61.4389
4255	61.3731
4250	61.4518
4245	61.6137
4240	61.5823
4235	61.2927
4230	61.1912
4225	61.3121
4220	61.4184
4215	61.5752
4210	61.5792
4205	61.3341
4200	61.3928
4195	61.8721
4190	61.9635
4185	61.5356
4180	61.3417
4175	61.6682
4170	61.6394
4165	61.492
4160	61.4881
4155	61.3144
4150	61.4256
4145	61.6645
4140	61.6271
4135	61.6651
4130	61.7302
4125	61.5892
4120	61.5401
4115	61.51
4110	61.5645
4105	61.6079
4100	61.4175
4095	61.3824
4090	61.3568
4085	61.3939
4080	61.6076
4075	61.7702
4070	61.5764
4065	61.3035
4060	61.3474
4055	61.4812
4050	61.457
4045	61.4263
4040	61.0673
4035	60.9829
4030	61.1846
4025	61.1654
4020	61.1761
4015	61.1434
4010	61.1174
4005	61.0315
4000	61.0049
3995	61.1298
3990	61.1182
3985	61.1328
3980	61.0656
3975	60.989
3970	61.0668
3965	61.0244
3960	60.8485
3955	60.9777
3950	60.974
3945	60.6394
3940	60.5527
3935	60.6129
3930	60.5444
3925	60.5324
3920	60.5962
3915	60.7494
3910	60.719
3905	60.6615
3900	60.7069
3895	60.6397
3890	60.4281
3885	60.4272
3880	60.7146
3875	60.7432
3870	60.4688
3865	60.378
3860	60.3709
3855	60.3129
3850	60.2153
3845	60.4426
3840	60.6436
3835	60.4743
3830	60.3329
3825	60.2291
3820	60.217
3815	60.1654
3810	59.9032
3805	60.0147
3800	60.2484
3795	60.0244
3790	59.9268
3785	60.008
3780	60.0001
3775	59.9387
3770	59.9375
3765	60.035
3760	60.1161
3755	60.1644
3750	60.1703
3745	60.1497
3740	60.0232
3735	59.9229
3730	59.8605
3725	59.8093
3720	59.778
3715	59.6959
3710	59.6601
3705	59.7144
3700	59.7075
3695	59.6301
3690	59.5657
3685	59.5195
3680	59.588
3675	59.609
3670	59.3748
3665	59.2934
3660	59.437
3655	59.4965
3650	59.4821
3645	59.4566
3640	59.5318
3635	59.506
3630	59.2763
3625	59.168
3620	59.3114
3615	59.2745
3610	59.0664
3605	59.0857
3600	59.2067
3595	59.1593
3590	58.9913
3585	58.8247
3580	58.8368
3575	59.0257
3570	58.9828
3565	58.9649
3560	58.8608
3555	58.7639
3550	58.8103
3545	58.8069
3540	58.7001
3535	58.6784
3530	58.7242
3525	58.6929
3520	58.6697
3515	58.5459
3510	58.4807
3505	58.5224
3500	58.511
3495	58.3787
3490	58.2758
3485	58.2385
3480	58.1953
3475	58.1659
3470	58.097
3465	58.0632
3460	58.198
3455	58.2184
3450	57.9972
3445	58.0498
3440	58.2789
3435	58.2147
3430	57.9404
3425	57.9733
3420	57.8366
3415	57.6354
3410	57.6827
3405	57.7396
3400	57.8392
3395	57.9059
3390	57.7649
3385	57.5316
3380	57.5254
3375	57.6002
3370	57.5464
3365	57.5077
3360	57.3517
3355	57.265
3350	57.391
3345	57.3861
3340	57.3904
3335	57.3825
3330	57.1389
3325	56.8866
3320	56.9069
3315	57.0553
3310	57.1244
3305	57.0021
3300	56.8773
3295	56.8944
3290	56.9166
3285	56.8981
3280	56.8025
3275	56.687
3270	56.568
3265	56.5441
3260	56.6019
3255	56.7463
3250	56.7779
3245	56.582
3240	56.4394
3235	56.4231
3230	56.2759
3225	56.1127
3220	56.1059
3215	56.1244
3210	56.2193
3205	56.2765
3200	56.1875
3195	56.0586
3190	56.111
3185	56.0998
3180	55.9245
3175	55.9264
3170	56.0459
3165	56.0087
3160	55.9591
3155	55.9193
3150	55.8121
3145	55.7223
3140	55.6193
3135	55.4625
3130	55.4606
3125	55.5347
3120	55.5671
3115	55.4969
3110	55.2825
3105	55.2351
3100	55.3121
3095	55.3044
3090	55.2413
3085	55.2109
3080	55.1863
3075	55.1176
3070	54.9961
3065	54.9409
3060	54.8905
3055	54.7701
3050	54.7189
3045	54.8249
3040	54.8068
3035	54.6599
3030	54.5856
3025	54.5949
3020	54.4947
3015	54.3702
3010	54.3671
3005	54.3444
3000	54.2847
2995	54.1766
2990	54.1425
2985	54.1322
2980	54.0895
2975	53.9449
2970	53.7885
2965	53.68
2960	53.6625
2955	53.686
2950	53.5902
2945	53.5918
2940	53.6545
2935	53.5417
2930	53.4699
2925	53.4293
2920	53.2522
2915	53.1266
2910	53.2442
2905	53.2879
2900	53.1982
2895	53.1189
2890	53.0777
2885	53.0233
2880	52.9582
2875	52.9463
2870	52.9648
2865	52.9335
2860	52.8141
2855	52.7259
2850	52.6302
2845	52.5646
2840	52.5129
2835	52.4256
2830	52.3936
2825	52.4114
2820	52.4764
2815	52.4299
2810	52.3283
2805	52.2547
2800	52.2024
2795	52.2375
2790	52.2046
2785	52.0621
2780	52.0638
2775	52.0365
2770	51.8469
2765	51.7322
2760	51.8272
2755	51.7782
2750	51.6407
2745	51.6057
2740	51.5189
2735	51.4902
2730	51.4362
2725	51.3514
2720	51.3575
2715	51.3126
2710	51.1701
2705	51.0664
2700	51.0495
2695	51.0214
2690	50.8837
2685	50.8237
2680	50.8887
2675	50.8431
2670	50.8244
2665	50.7566
2660	50.5855
2655	50.4761
2650	50.4253
2645	50.3201
2640	50.2653
2635	50.3453
2630	50.2962
2625	50.1888
2620	50.114
2615	50.0032
2610	49.9624
2605	50.0097
2600	49.8747
2595	49.7304
2590	49.6477
2585	49.7159
2580	49.7285
2575	49.5912
2570	49.5129
2565	49.4052
2560	49.3368
2555	49.3199
2550	49.1831
2545	49.0027
2540	48.9559
2535	48.9316
2530	48.8834
2525	48.8684
2520	48.8694
2515	48.7696
2510	48.6823
2505	48.6375
2500	48.5677
2495	48.4543
2490	48.4339
2485	48.4801
2480	48.4022
2475	48.3012
2470	48.2479
2465	48.1233
2460	48.0622
2455	48.0458
2450	47.9292
2445	47.9223
2440	47.894
2435	47.7268
2430	47.6325
2425	47.6647
2420	47.6496
2415	47.5563
2410	47.4927
2405	47.4207
2400	47.4003
2395	47.3712
2390	47.2228
2385	47.1266
2380	47.109
2375	47.0129
2370	46.8561
2365	46.7865
2360	46.7439
2355	46.6625
2350	46.6387
2345	46.6446
2340	46.5908
2335	46.491
2330	46.3815
2325	46.346
2320	46.2926
2315	46.2499
2310	46.2163
2305	46.0718
2300	46.0079
2295	45.9712
2290	45.841
2285	45.8031
2280	45.7633
2275	45.6451
2270	45.5726
2265	45.5662
2260	45.5209
2255	45.4364
2250	45.3502
2245	45.309
2240	45.2825
2235	45.2445
2230	45.1432
2225	45.0136
2220	44.879
2215	44.8227
2210	44.7303
2205	44.5769
2200	44.5629
2195	44.5946
2190	44.5165
2185	44.3979
2180	44.3216
2175	44.2443
2170	44.1332
2165	44.1252
2160	44.1664
2155	44.0313
2150	43.8558
2145	43.7979
2140	43.7252
2135	43.6437
2130	43.5747
2125	43.5018
2120	43.4856
2115	43.4829
2110	43.3924
2105	43.3204
2100	43.2778
2095	43.1758
2090	43.0597
2085	42.9756
2080	42.8905
2075	42.8786
2070	42.8537
2065	42.7586
2060	42.6391
2055	42.5698
2050	42.5977
2045	42.5265
2040	42.4237
2035	42.3141
2030	42.2556
2025	42.2002
2020	42.1553
2015	42.0802
2010	41.9989
2005	41.9607
2000	41.9508
1995	41.9151
1990	41.8076
1985	41.6492
1980	41.6127
1975	41.589
1970	41.4763
1965	41.4181
1960	41.372
1955	41.3077
1950	41.273
1945	41.1545
1940	41.0132
1935	40.9557
1930	40.9297
1925	40.9353
1920	40.8763
1915	40.6715
1910	40.5123
1905	40.4883
1900	40.4684
1895	40.343
1890	40.2504
1885	40.2343
1880	40.152
1875	40.071
1870	40.0223
1865	39.8736
1860	39.7787
1855	39.7552
1850	39.7428
1845	39.688
1840	39.6201
1835	39.6078
1830	39.5413
1825	39.4389
1820	39.4047
1815	39.3414
1810	39.2309
1805	39.1421
1800	39.0609
1795	38.9878
1790	38.8888
1785	38.8296
1780	38.8676
1775	38.7997
1770	38.667
1765	38.5273
1760	38.3928
1755	38.3086
1750	38.2498
1745	38.2348
1740	38.1322
1735	37.949
1730	37.8583
1725	37.8114
1720	37.7816
1715	37.7568
1710	37.7444
1705	37.7311
1700	37.6951
1695	37.5472
1690	37.449
1685	37.4531
1680	37.4114
1675	37.3387
1670	37.2662
1665	37.1178
1660	37.0565
1655	37.0183
1650	36.9452
1645	36.9386
1640	36.8891
1635	36.7461
1630	36.6952
1625	36.6322
1620	36.5095
1615	36.411
1610	36.2859
1605	36.2097
1600	36.1836
1595	36.124
1590	36.0033
1585	35.9578
1580	35.8995
1575	35.7866
1570	35.7238
1565	35.6392
1560	35.5948
1555	35.5285
1550	35.4709
1545	35.4625
1540	35.3146
1535	35.1677
1530	35.119
1525	35.13
1520	35.1456
1515	35.0579
1510	34.9629
1505	34.9238
1500	34.887
1495	34.8158
1490	34.7498
1485	34.6343
1480	34.4999
1475	34.4337
1470	34.3619
1465	34.3444
1460	34.3376
1455	34.1594
1450	34.0996
1445	34.1434
1440	34.0848
1435	33.9873
1430	33.8648
1425	33.8257
1420	33.8396
1415	33.749
1410	33.5776
1405	33.3705
1400	33.3611
1395	33.4721
1390	33.4229
1385	33.348
1380	33.2559
1375	33.0908
1370	33.0519
1365	33.0061
1360	32.9268
1355	32.848
1350	32.7547
1345	32.7559
1340	32.7231
1335	32.6332
1330	32.6275
1325	32.6009
1320	32.4566
1315	32.2713
1310	32.1794
1305	32.2254
1300	32.1634
1295	31.9523
1290	31.8919
1285	31.8831
1280	31.8077
1275	31.7227
1270	31.6679
1265	31.5432
1260	31.487
1255	31.489
1250	31.3908
1245	31.2921
1240	31.2391
1235	31.2525
1230	31.1846
1225	31.027
1220	30.889
1215	30.868
1210	30.9067
1205	30.9583
1200	30.8041
1195	30.5854
1190	30.5253
1185	30.4688
1180	30.3906
1175	30.3602
1170	30.3681
1165	30.3468
1160	30.1583
1155	30.048
1150	30.1252
1145	30.0645
1140	29.8786
1135	29.8247
1130	29.7618
1125	29.6833
1120	29.5954
1115	29.5161
1110	29.3536
1105	29.2617
1100	29.2123
1095	29.1829
1090	29.2292
1085	29.1518
1080	29.0903
1075	29.0655
1070	28.8948
1065	28.8136
1060	28.8749
1055	28.8471
1050	28.7382
1045	28.6718
1040	28.5238
1035	28.3781
1030	28.3308
1025	28.3878
1020	28.2967
1015	27.9721
1010	27.9298
1005	27.999
1000	27.932
995	 27.8572
990	 27.7208
985	 27.6199
980	 27.7043
975	 27.6682
970	 27.4432
965	 27.3077
960	 27.2469
955	 27.0994
950	 27.2597
945	 27.2284
940	 26.971
935	 26.8579
930	 26.5685
925	 26.3225
920	 26.4724
915	 26.3266
910	 26.1271
905	 26.5483
900	 26.6925
895	 26.522
890	 26.5088
885	 25.8932
880	 25.3876
875	 25.4931
870	 25.6506
865	 25.7558
860	 25.4313
855	 24.8358
850	 24.7898
845	 24.9765
840	 25.1571
835	 25.135
830	 24.8392
825	 24.7948
820	 24.9463
815	 25.0185
810	 24.7394
805	 24.5012
800	 24.59
795	 24.5952
790	 24.4864
785	 24.3998
780	 24.0721
775	 23.8152
770	 23.8145
765	 23.7086
760	 23.4768
755	 23.4378
750	 23.2831
745	 23.1207
740	 23.0175
735	 22.8172
730	 22.8374
725	 22.9283
720	 22.8715
715	 22.4774
710	 22.122
705	 21.9757
700	 22.0611
695	 22.1983
690	 21.9994
685	 21.6788
680	 21.613
675	 21.5149
670	 21.3066
665	 21.266
660	 21.2268
655	 21.024
650	 20.661
645	 20.3953
640	 20.1418
635	 19.943
630	 20.16
625	 20.1792
620	 19.9472
615	 19.6468
610	 19.2941
605	 19.1138
600	 18.9482
595	 18.9226
590	 19.0325
585	 19.0418
580	 18.6698
575	 18.5719
570	 18.5864
565	 17.9076
560	 17.6851
555	 17.6995
550	 17.308
545	 16.8201
540	 16.6688
535	 16.7358
530	 16.6387
525	 16.6636
520	 16.5692
515	 16.2604
510	 15.8854
505	 15.3136
500	 14.6788
495	 14.5667
490	 14.6982
485	 14.3186
480	 14.4707
475	 14.7216
470	 14.1851
465	 14.2259
460	 13.9404
455	 12.8427
450	 12.6762
445	 13.0643
440	 13.3119
435	 13.4801
430	 12.7621
425	 11.5976
420	 10.161
415	 11.5341
410	 13.9289
405	 12.371
400	 10.7998
395	 10.2802
390	 21.3322
385	 30.1834
380	 34.297
375	 68.6424
370	 80.5312