File: Bakgrunnsmateriale/MATLAB/FTIR/ftir_data/subBb/Mapping_36/C-4040-8_e39.asc
PE IR       SPECTRUM    SPECTRUM    ASCII       PEDS        1.60
  -1
C-A138~1.ASC
17/05/02
12:56:27.00
17/05/02
12:56:53.00
tln
$C-4040-8_e0039$<ebV0>[-23.3,12.1,10.0,0.0,22,1,0]
27.028
64

2002,4.07
MIRTGS : RIGHTBACK : INTERNAL 2
MIR : ON : INTERNAL 2
OPTKBR

0.200000
8
8.000000
FILLER
SINGLE
SPECTRUM
UNLOCKED 256

DOUBLE

COMBINED
1
0
0

0.002000
BACKG

1
0
TRUE
51149
0
LEFT NOT FITTED RIGHT NOT FITTED 0
NONE
NONE
15600
12
4.427000
51148
TRUE
1 0 8 72 0 0 0 0

15798

#HDR
-1
-1
#GR
µM
EGY
2.38419e-05
0.0
1.282000
0.002000
12874
8
2.449373
0.006222
#DATA
1.282000	 0.030851
1.300000	 0.055966
1.318000	 0.069840
1.336000	 0.085800
1.354000	 0.097942
1.372000	 0.108285
1.390000	 0.122507
1.408000	 0.137607
1.426000	 0.148676
1.444000	 0.160837
1.462000	 0.174324
1.480000	 0.185580
1.498000	 0.194857
1.516000	 0.203269
1.534000	 0.213920
1.552000	 0.229553
1.570000	 0.245544
1.588000	 0.267019
1.606000	 0.288721
1.624000	 0.306175
1.642000	 0.329286
1.660000	 0.350627
1.678000	 0.368461
1.696000	 0.380968
1.714000	 0.395020
1.732000	 0.411518
1.750000	 0.425582
1.768000	 0.434411
1.786000	 0.445496
1.804000	 0.469953
1.822000	 0.493864
1.840000	 0.517293
1.858000	 0.531363
1.876000	 0.562293
1.894000	 0.612640
1.912000	 0.637575
1.930000	 0.658646
1.948000	 0.683878
1.966000	 0.713679
1.984000	 0.745670
2.002000	 0.770615
2.020000	 0.794444
2.038000	 0.810385
2.056000	 0.831885
2.074000	 0.851208
2.092000	 0.875810
2.110000	 0.895197
2.128000	 0.906944
2.146000	 0.910196
2.164000	 0.925841
2.182000	 0.945658
2.200000	 0.978525
2.218000	 0.994735
2.236000	 1.008707
2.254000	 1.010305
2.272000	 1.013314
2.290000	 1.053860
2.308000	 1.085123
2.326000	 1.117946
2.344000	 1.152196
2.362000	 1.176480
2.380000	 1.196328
2.398000	 1.215734
2.416000	 1.230853
2.434000	 1.253285
2.452000	 1.296688
2.470000	 1.330442
2.488000	 1.371428
2.506000	 1.395295
2.524000	 1.411052
2.542000	 1.424173
2.560000	 1.436620
2.578000	 1.448917
2.596000	 1.456487
2.614000	 1.491991
2.632000	 1.518579
2.650000	 1.550449
2.668000	 1.546570
2.686000	 1.571937
2.704000	 1.579076
2.722000	 1.567869
2.740000	 1.572848
2.758000	 1.584738
2.776000	 1.596920
2.794000	 1.607684
2.812000	 1.617704
2.830000	 1.622866
2.848000	 1.624310
2.866000	 1.613389
2.884000	 1.605108
2.902000	 1.591074
2.920000	 1.584298
2.938000	 1.594947
2.956000	 1.609591
2.974000	 1.629492
2.992000	 1.660883
3.010000	 1.686474
3.028000	 1.715491
3.046000	 1.738817
3.064000	 1.758845
3.082000	 1.773125
3.100000	 1.781328
3.118000	 1.788109
3.136000	 1.791166
3.154000	 1.796383
3.172000	 1.808186
3.190000	 1.825843
3.208000	 1.845502
3.226000	 1.871949
3.244000	 1.907262
3.262000	 1.929725
3.280000	 1.957129
3.298000	 1.974597
3.316000	 1.960270
3.334000	 2.019226
3.352000	 2.022346
3.370000	 1.956127
3.388000	 1.920122
3.406000	 1.813088
3.424000	 1.798905
3.442000	 1.942374
3.460000	 1.993055
3.478000	 1.999976
3.496000	 1.906471
3.514000	 2.025921
3.532000	 2.104690
3.550000	 2.144870
3.568000	 2.171769
3.586000	 2.196289
3.604000	 2.222800
3.622000	 2.239713
3.640000	 2.250781
3.658000	 2.255927
3.676000	 2.254620
3.694000	 2.248591
3.712000	 2.244186
3.730000	 2.240961
3.748000	 2.231887
3.766000	 2.225349
3.784000	 2.223175
3.802000	 2.219456
3.820000	 2.224439
3.838000	 2.226386
3.856000	 2.228458
3.874000	 2.244892
3.892000	 2.261892
3.910000	 2.273956
3.928000	 2.289122
3.946000	 2.302432
3.964000	 2.313512
3.982000	 2.321427
4.000000	 2.321600
4.018000	 2.324499
4.036000	 2.322322
4.054000	 2.313759
4.072000	 2.305576
4.090000	 2.295503
4.108000	 2.284060
4.125999	 2.274163
4.144000	 2.264336
4.162000	 2.259161
4.180000	 2.256122
4.198000	 2.251678
4.216000	 2.240125
4.234000	 2.238094
4.252000	 2.258182
4.270000	 2.265935
4.288000	 2.276334
4.306000	 2.296571
4.324000	 2.312895
4.342000	 2.329038
4.359999	 2.342454
4.378000	 2.353332
4.396000	 2.364099
4.414000	 2.368638
4.432000	 2.373399
4.450000	 2.374017
4.468000	 2.375778
4.486000	 2.374921
4.504000	 2.370357
4.522000	 2.363854
4.540000	 2.357555
4.558000	 2.349749
4.576000	 2.344274
4.594000	 2.337684
4.612000	 2.333381
4.630000	 2.332421
4.648000	 2.330538
4.666000	 2.331179
4.684000	 2.329001
4.702000	 2.330854
4.720000	 2.332333
4.738000	 2.334353
4.756000	 2.333743
4.774000	 2.333720
4.792000	 2.333755
4.810000	 2.341696
4.828000	 2.355145
4.846000	 2.369423
4.864000	 2.386839
4.882000	 2.401486
4.900000	 2.412831
4.918000	 2.424916
4.936000	 2.433233
4.954000	 2.440466
4.972000	 2.444209
4.990000	 2.446552
5.008000	 2.449200
5.026000	 2.447373
5.044000	 2.441228
5.062000	 2.435620
5.080000	 2.429504
5.098000	 2.424350
5.116000	 2.417805
5.134000	 2.413567
5.152000	 2.407974
5.170000	 2.401849
5.188000	 2.395478
5.206000	 2.388840
5.224000	 2.381090
5.242000	 2.373362
5.260000	 2.366753
5.278000	 2.361171
5.296000	 2.362667
5.314000	 2.366498
5.332000	 2.368279
5.350000	 2.368805
5.368000	 2.375116
5.386000	 2.380118
5.404000	 2.383502
5.422000	 2.384879
5.440000	 2.391880
5.458000	 2.396257
5.476000	 2.401935
5.494000	 2.410917
5.512000	 2.416928
5.530000	 2.420103
5.548000	 2.419752
5.566000	 2.418128
5.584000	 2.417935
5.602000	 2.419527
5.620000	 2.415954
5.638000	 2.405426
5.656000	 2.403053
5.674000	 2.402511
5.692000	 2.392504
5.710000	 2.376129
5.728000	 2.361124
5.746000	 2.339056
5.764000	 2.318146
5.782000	 2.318618
5.800000	 2.316740
5.818000	 2.299258
5.836000	 2.292069
5.854000	 2.285587
5.872000	 2.264511
5.890000	 2.249321
5.908000	 2.254536
5.926000	 2.245578
5.944000	 2.233878
5.962000	 2.230785
5.980000	 2.220670
5.998000	 2.212314
6.016000	 2.202949
6.034000	 2.181246
6.052000	 2.158361
6.070000	 2.156266
6.088000	 2.154693
6.106000	 2.140742
6.124000	 2.128537
6.142000	 2.116045
6.160000	 2.092407
6.178000	 2.056965
6.196000	 2.009623
6.214000	 1.969291
6.232000	 1.964584
6.250000	 1.985502
6.268000	 2.002585
6.286000	 2.007824
6.304000	 2.003817
6.322000	 1.992752
6.340000	 1.979571
6.358000	 1.974664
6.376000	 1.969192
6.394000	 1.947660
6.412000	 1.923020
6.430000	 1.927399
6.448000	 1.946510
6.466000	 1.950890
6.484000	 1.957517
6.502000	 1.997813
6.520000	 2.054682
6.538000	 2.092044
6.556000	 2.104488
6.574000	 2.103585
6.592000	 2.097731
6.610000	 2.086484
6.628000	 2.064087
6.646000	 2.006032
6.664000	 1.871160
6.682000	 1.711418
6.700000	 1.670709
6.718000	 1.765952
6.736000	 1.881509
6.754000	 1.947266
6.772000	 1.967881
6.790000	 1.968768
6.808000	 1.961818
6.826000	 1.940545
6.844000	 1.894395
6.862000	 1.824623
6.880000	 1.765944
6.898000	 1.762910
6.916000	 1.805980
6.934000	 1.843478
6.952000	 1.856195
6.970000	 1.860052
6.988000	 1.862992
7.006000	 1.862482
7.024000	 1.857569
7.042000	 1.849984
7.060000	 1.839874
7.078000	 1.818786
7.096000	 1.778587
7.114000	 1.735292
7.132000	 1.719409
7.150000	 1.737353
7.168000	 1.767037
7.186000	 1.784729
7.204000	 1.784428
7.222000	 1.781194
7.240000	 1.788542
7.258000	 1.800188
7.276000	 1.806660
7.294000	 1.808789
7.312000	 1.809365
7.330000	 1.809640
7.348000	 1.810502
7.366000	 1.810844
7.384000	 1.809732
7.402000	 1.808232
7.420000	 1.807337
7.438000	 1.807404
7.456000	 1.809536
7.474000	 1.814807
7.492000	 1.822980
7.510000	 1.831633
7.528000	 1.838049
7.546000	 1.841671
7.564000	 1.844152
7.582000	 1.846467
7.600000	 1.848212
7.618000	 1.848846
7.636000	 1.848405
7.654000	 1.847419
7.672000	 1.846798
7.690000	 1.846976
7.708000	 1.847434
7.726000	 1.847442
7.744000	 1.846998
7.762000	 1.846171
7.780000	 1.844467
7.798000	 1.841354
7.816000	 1.836151
7.834000	 1.826957
7.852000	 1.810570
7.870000	 1.784438
7.888000	 1.750975
7.906000	 1.720274
7.924000	 1.706497
7.942000	 1.716835
7.960000	 1.744918
7.978000	 1.776780
7.996000	 1.801604
8.013999	 1.816688
8.032000	 1.824131
8.050000	 1.826946
8.068000	 1.827172
8.086000	 1.825940
8.103999	 1.823865
8.122000	 1.820981
8.140000	 1.817076
8.158000	 1.811723
8.176000	 1.804519
8.193999	 1.795030
8.212000	 1.783250
8.230000	 1.770364
8.248000	 1.758319
8.266000	 1.748961
8.283999	 1.742874
8.302000	 1.739747
8.320000	 1.738779
8.338000	 1.738986
8.356000	 1.739225
8.374000	 1.738418
8.391999	 1.735942
8.410000	 1.731407
8.428000	 1.725050
8.446000	 1.717616
8.464000	 1.710163
8.481999	 1.703245
8.500000	 1.696490
8.518000	 1.688784
8.536000	 1.679221
8.554000	 1.667971
8.571999	 1.655941
8.590000	 1.644121
8.608000	 1.633050
8.626000	 1.623400
8.644000	 1.615802
8.661999	 1.610605
8.680000	 1.607429
8.698000	 1.604759
8.716000	 1.601374
8.734000	 1.596749
8.751999	 1.591266
8.770000	 1.585081
8.788000	 1.577853
8.806000	 1.569228
8.824000	 1.559368
8.842000	 1.548700
8.859999	 1.537630
8.878000	 1.526312
8.896000	 1.514692
8.914000	 1.502846
8.932000	 1.491088
8.949999	 1.479719
8.968000	 1.468804
8.986000	 1.458328
9.004000	 1.448544
9.022000	 1.439844
9.039999	 1.432724
9.058000	 1.427380
9.076000	 1.423606
9.094000	 1.421041
9.112000	 1.419400
9.129999	 1.418556
9.148000	 1.418449
9.166000	 1.419144
9.184000	 1.420644
9.202000	 1.422504
9.219999	 1.423942
9.238000	 1.424235
9.256000	 1.423386
9.274000	 1.422224
9.292000	 1.422067
9.310000	 1.423700
9.327999	 1.426634
9.346000	 1.429683
9.364000	 1.431605
9.382000	 1.431829
9.400000	 1.429901
9.418000	 1.424285
9.436000	 1.412020
9.454000	 1.390436
9.472000	 1.360312
9.490000	 1.327911
9.508000	 1.303198
9.526000	 1.294350
9.544000	 1.303043
9.561999	 1.323665
9.580000	 1.346996
9.598000	 1.365470
9.616000	 1.376057
9.634000	 1.379830
9.652000	 1.379350
9.670000	 1.376739
9.688000	 1.373203
9.706000	 1.369223
9.724000	 1.365015
9.742000	 1.360892
9.760000	 1.357214
9.778000	 1.354634
9.795999	 1.353460
9.814000	 1.353965
9.832000	 1.356107
9.850000	 1.359638
9.868000	 1.364305
9.886000	 1.369608
9.904000	 1.374949
9.922000	 1.379803
9.940000	 1.383782
9.958000	 1.386932
9.976000	 1.389386
9.994000	 1.391300
10.012	1.392593
10.03	1.393103
10.048	1.392611
10.066	1.391156
10.084	1.388858
10.102	1.386075
10.12	1.382967
10.138	1.379750
10.156	1.376367
10.174	1.372816
10.192	1.369137
10.21	1.365284
10.228	1.361427
10.246	1.357510
10.264	1.353577
10.282	1.349550
10.3	1.345206
10.318	1.340453
10.336	1.335154
10.354	1.329336
10.372	1.323192
10.39	1.317005
10.408	1.310913
10.426	1.305021
10.444	1.299369
10.462	1.293876
10.48	1.288649
10.498	1.283681
10.516	1.279071
10.534	1.274779
10.552	1.270791
10.57	1.267096
10.588	1.263656
10.606	1.260437
10.624	1.257366
10.642	1.254381
10.66	1.251230
10.678	1.247864
10.696	1.244155
10.714	1.240129
10.732	1.235927
10.75	1.231737
10.768	1.227700
10.786	1.223847
10.804	1.220242
10.822	1.216793
10.84	1.213433
10.858	1.209974
10.876	1.206160
10.894	1.201663
10.912	1.196387
10.93	1.190399
10.948	1.184035
10.966	1.177753
10.984	1.171935
11.002	1.166922
11.02	1.162723
11.038	1.159400
11.056	1.156837
11.074	1.154824
11.092	1.153130
11.11	1.151480
11.128	1.149527
11.146	1.147109
11.164	1.144185
11.182	1.140673
11.2	1.136472
11.218	1.131497
11.236	1.125366
11.254	1.117739
11.272	1.108385
11.29	1.097302
11.308	1.084792
11.326	1.071520
11.344	1.058310
11.362	1.046144
11.38	1.036042
11.398	1.028863
11.416	1.025247
11.434	1.025352
11.452	1.028886
11.47	1.035124
11.488	1.043162
11.506	1.051876
11.524	1.060478
11.542	1.068339
11.56	1.074989
11.578	1.080381
11.596	1.084446
11.614	1.087165
11.632	1.088699
11.65	1.089114
11.668	1.088532
11.686	1.087282
11.704	1.085526
11.722	1.083526
11.74	1.081444
11.758	1.079456
11.776	1.077600
11.794	1.075776
11.812	1.073857
11.83	1.071665
11.848	1.068937
11.866	1.065397
11.884	1.060819
11.902	1.054852
11.92	1.047125
11.938	1.037177
11.956	1.024622
11.974	1.009031
11.992	0.990247
12.01	0.968432
12.028	0.944271
12.046	0.919013
12.064	0.894403
12.082	0.872381
12.1	0.854906
12.118	0.843472
12.136	0.838942
12.154	0.841252
12.172	0.849434
12.19	0.861928
12.208	0.876792
12.226	0.892063
12.244	0.906319
12.262	0.918441
12.28	0.927984
12.298	0.934873
12.316	0.939494
12.334	0.942247
12.352	0.943590
12.37	0.943919
12.388	0.943644
12.406	0.942985
12.424	0.942159
12.442	0.941459
12.46	0.940967
12.478	0.940795
12.496	0.941039
12.514	0.941739
12.532	0.942874
12.55	0.944364
12.568	0.946274
12.586	0.948549
12.604	0.951162
12.622	0.954036
12.64	0.957099
12.658	0.960309
12.676	0.963458
12.694	0.966401
12.712	0.969001
12.73	0.971211
12.748	0.972948
12.766	0.974121
12.784	0.974805
12.802	0.975056
12.82	0.974925
12.838	0.974533
12.856	0.974002
12.874	0.973403
12.892	0.972799
12.91	0.972202
12.928	0.971690
12.946	0.971206
12.964	0.970725
12.982	0.970195
13	0.969566
13.018	0.968766
13.036	0.967776
13.054	0.966651
13.072	0.965420
13.09	0.964116
13.108	0.962817
13.126	0.961552
13.144	0.960375
13.162	0.959301
13.18	0.958307
13.198	0.957380
13.216	0.956480
13.234	0.955586
13.252	0.954631
13.27	0.953592
13.288	0.952453
13.306	0.951234
13.324	0.949908
13.342	0.948468
13.36	0.946964
13.378	0.945391
13.396	0.943753
13.414	0.942022
13.432	0.940187
13.45	0.938253
13.468	0.936192
13.486	0.934005
13.504	0.931710
13.522	0.929300
13.54	0.926814
13.558	0.924281
13.576	0.921702
13.594	0.919120
13.612	0.916539
13.63	0.913941
13.648	0.911327
13.666	0.908693
13.684	0.906020
13.702	0.903314
13.72	0.900588
13.738	0.897807
13.756	0.895036
13.774	0.892249
13.792	0.889515
13.81	0.886808
13.828	0.884153
13.846	0.881509
13.864	0.878872
13.882	0.876227
13.9	0.873567
13.918	0.870894
13.936	0.868198
13.954	0.865464
13.972	0.862709
13.99	0.859961
14.008	0.857200
14.026	0.854448
14.044	0.851681
14.062	0.848902
14.08	0.846093
14.098	0.843247
14.116	0.840402
14.134	0.837538
14.152	0.834671
14.17	0.831814
14.188	0.828930
14.206	0.826051
14.224	0.823099
14.242	0.820025
14.26	0.816763
14.278	0.813253
14.296	0.809390
14.314	0.805089
14.332	0.800297
14.35	0.794979
14.368	0.789126
14.386	0.782760
14.404	0.775957
14.422	0.768886
14.44	0.761741
14.458	0.754735
14.476	0.748123
14.494	0.742195
14.512	0.737114
14.53	0.733052
14.548	0.730085
14.566	0.728190
14.584	0.727275
14.602	0.727181
14.62	0.727681
14.638	0.728592
14.656	0.729631
14.674	0.730607
14.692	0.731389
14.71	0.731881
14.728	0.732015
14.746	0.731805
14.764	0.731243
14.782	0.730402
14.8	0.729322
14.818	0.728032
14.836	0.726575
14.854	0.725015
14.872	0.723346
14.89	0.721579
14.908	0.719734
14.926	0.717835
14.944	0.715896
14.962	0.713911
14.98	0.711906
14.998	0.709899
15.016	0.707897
15.034	0.705882
15.052	0.703868
15.07	0.701885
15.088	0.699921
15.106	0.697941
15.124	0.695947
15.142	0.693987
15.16	0.692053
15.178	0.690137
15.196	0.688241
15.214	0.686346
15.232	0.684468
15.25	0.682604
15.268	0.680742
15.286	0.678888
15.304	0.677009
15.322	0.675115
15.34	0.673209
15.358	0.671276
15.376	0.669366
15.394	0.667454
15.412	0.665534
15.43	0.663620
15.448	0.661745
15.466	0.659869
15.484	0.657986
15.502	0.656111
15.52	0.654194
15.538	0.652257
15.556	0.650277
15.574	0.648199
15.592	0.646046
15.61	0.643839
15.628	0.641586
15.646	0.639286
15.664	0.636961
15.682	0.634639
15.7	0.632346
15.718	0.630110
15.736	0.627967
15.754	0.625918
15.772	0.623962
15.79	0.622099
15.808	0.620316
15.826	0.618612
15.844	0.616992
15.862	0.615371
15.88	0.613754
15.898	0.612138
15.916	0.610505
15.934	0.608808
15.952	0.607047
15.97	0.605245
15.988	0.603414
16.006	0.601545
16.024	0.599632
16.042	0.597673
16.06	0.595692
16.078	0.593687
16.096	0.591624
16.114	0.589512
16.132	0.587336
16.15	0.585068
16.168	0.582722
16.186	0.580264
16.204	0.577658
16.222	0.574890
16.24	0.571954
16.258	0.568846
16.276	0.565568
16.294	0.562115
16.312	0.558502
16.33	0.554818
16.348	0.551073
16.366	0.547297
16.384	0.543576
16.402	0.539957
16.42	0.536484
16.438	0.533250
16.456	0.530288
16.474	0.527635
16.492	0.525381
16.51	0.523508
16.528	0.522013
16.546	0.520891
16.564	0.520086
16.582	0.519573
16.6	0.519355
16.618	0.519324
16.636	0.519419
16.654	0.519613
16.672	0.519840
16.69	0.520047
16.708	0.520169
16.726	0.520206
16.744	0.520163
16.762	0.519945
16.78	0.519575
16.798	0.519110
16.816	0.518538
16.834	0.517862
16.852	0.517071
16.87	0.516217
16.888	0.515324
16.906	0.514391
16.924	0.513439
16.942	0.512493
16.96	0.511566
16.978	0.510665
16.996	0.509804
17.014	0.508989
17.032	0.508223
17.05	0.507516
17.068	0.506861
17.086	0.506252
17.104	0.505690
17.122	0.505173
17.14	0.504696
17.158	0.504238
17.176	0.503786
17.194	0.503347
17.212	0.502912
17.23	0.502468
17.248	0.502009
17.266	0.501532
17.284	0.501048
17.302	0.500557
17.32	0.500056
17.338	0.499554
17.356	0.499054
17.374	0.498564
17.392	0.498086
17.41	0.497632
17.428	0.497177
17.446	0.496711
17.464	0.496240
17.482	0.495758
17.5	0.495251
17.518	0.494711
17.536	0.494129
17.554	0.493500
17.572	0.492823
17.59	0.492077
17.608	0.491271
17.626	0.490410
17.644	0.489508
17.662	0.488571
17.68	0.487581
17.698	0.486556
17.716	0.485544
17.734	0.484530
17.752	0.483504
17.77	0.482494
17.788	0.481504
17.806	0.480529
17.824	0.479575
17.842	0.478662
17.86	0.477768
17.878	0.476879
17.896	0.476000
17.914	0.475132
17.932	0.474257
17.95	0.473375
17.968	0.472499
17.986	0.471620
18.004	0.470723
18.022	0.469818
18.04	0.468911
18.058	0.467986
18.076	0.467038
18.094	0.466079
18.112	0.465107
18.13	0.464112
18.148	0.463102
18.166	0.462090
18.184	0.461073
18.202	0.460049
18.22	0.459025
18.238	0.458003
18.256	0.456991
18.274	0.455990
18.292	0.454981
18.31	0.453967
18.328	0.452965
18.346	0.451971
18.364	0.450978
18.382	0.449986
18.4	0.448998
18.418	0.448008
18.436	0.447014
18.454	0.446009
18.472	0.444988
18.49	0.443973
18.508	0.442972
18.526	0.441965
18.544	0.440949
18.562	0.439952
18.58	0.438973
18.598	0.437984
18.616	0.436991
18.634	0.436009
18.652	0.435035
18.67	0.434062
18.688	0.433091
18.706	0.432114
18.724	0.431131
18.742	0.430139
18.76	0.429132
18.778	0.428100
18.796	0.427043
18.814	0.425956
18.832	0.424838
18.85	0.423683
18.868	0.422496
18.886	0.421278
18.904	0.420041
18.922	0.418802
18.94	0.417547
18.958	0.416255
18.976	0.414968
18.994	0.413725
19.012	0.412494
19.03	0.411256
19.048	0.410030
19.066	0.408825
19.084	0.407646
19.102	0.406505
19.12	0.405387
19.138	0.404280
19.156	0.403184
19.174	0.402097
19.192	0.401013
19.21	0.399921
19.228	0.398827
19.246	0.397738
19.264	0.396650
19.282	0.395558
19.3	0.394461
19.318	0.393352
19.336	0.392234
19.354	0.391125
19.372	0.390019
19.39	0.388879
19.408	0.387710
19.426	0.386547
19.444	0.385391
19.462	0.384226
19.48	0.383050
19.498	0.381866
19.516	0.380672
19.534	0.379474
19.552	0.378277
19.57	0.377070
19.588	0.375845
19.606	0.374610
19.624	0.373378
19.642	0.372140
19.66	0.370885
19.678	0.369617
19.696	0.368345
19.714	0.367066
19.732	0.365756
19.75	0.364411
19.768	0.363058
19.786	0.361707
19.804	0.360332
19.822	0.358919
19.84	0.357490
19.858	0.356060
19.876	0.354621
19.894	0.353169
19.912	0.351704
19.93	0.350226
19.948	0.348735
19.966	0.347243
19.984	0.345752
20.002	0.344251
20.02	0.342729
20.038	0.341208
20.056	0.339707
20.074	0.338217
20.092	0.336734
20.11	0.335258
20.128	0.333789
20.146	0.332331
20.164	0.330871
20.182	0.329405
20.2	0.327941
20.218	0.326490
20.236	0.325044
20.254	0.323594
20.272	0.322141
20.29	0.320686
20.308	0.319231
20.326	0.317770
20.344	0.316304
20.362	0.314829
20.38	0.313341
20.398	0.311843
20.416	0.310335
20.434	0.308817
20.452	0.307284
20.47	0.305734
20.488	0.304171
20.506	0.302598
20.524	0.301014
20.542	0.299431
20.56	0.297846
20.578	0.296261
20.596	0.294668
20.614	0.293081
20.632	0.291514
20.65	0.289964
20.668	0.288429
20.686	0.286907
20.704	0.285405
20.722	0.283919
20.74	0.282456
20.758	0.281028
20.776	0.279633
20.794	0.278269
20.812	0.276936
20.83	0.275634
20.848	0.274367
20.866	0.273130
20.884	0.271905
20.902	0.270691
20.92	0.269493
20.938	0.268321
20.956	0.267163
20.974	0.265997
20.992	0.264827
21.01	0.263659
21.028	0.262498
21.046	0.261334
21.064	0.260152
21.082	0.258955
21.1	0.257745
21.118	0.256521
21.136	0.255284
21.154	0.254033
21.172	0.252767
21.19	0.251493
21.208	0.250212
21.226	0.248919
21.244	0.247611
21.262	0.246289
21.28	0.244962
21.298	0.243631
21.316	0.242295
21.334	0.240953
21.352	0.239605
21.37	0.238256
21.388	0.236906
21.406	0.235555
21.424	0.234203
21.442	0.232849
21.46	0.231493
21.478	0.230137
21.496	0.228779
21.514	0.227420
21.532	0.226060
21.55	0.224697
21.568	0.223327
21.586	0.221952
21.604	0.220576
21.622	0.219204
21.64	0.217825
21.658	0.216430
21.676	0.215022
21.694	0.213606
21.712	0.212180
21.73	0.210748
21.748	0.209319
21.766	0.207893
21.784	0.206456
21.802	0.204997
21.82	0.203523
21.838	0.202046
21.856	0.200565
21.874	0.199081
21.892	0.197596
21.91	0.196107
21.928	0.194626
21.946	0.193163
21.964	0.191713
21.982	0.190274
22	0.188843
22.018	0.187429
22.036	0.186044
22.054	0.184683
22.072	0.183351
22.09	0.182052
22.108	0.180784
22.126	0.179554
22.144	0.178361
22.162	0.177207
22.18	0.176094
22.198	0.175024
22.216	0.173990
22.234	0.172989
22.252	0.172023
22.27	0.171082
22.288	0.170163
22.306	0.169268
22.324	0.168389
22.342	0.167529
22.36	0.166684
22.378	0.165845
22.396	0.165018
22.414	0.164190
22.432	0.163350
22.45	0.162499
22.468	0.161643
22.486	0.160785
22.504	0.159924
22.522	0.159050
22.54	0.158158
22.558	0.157252
22.576	0.156340
22.594	0.155420
22.612	0.154493
22.63	0.153563
22.648	0.152629
22.666	0.151690
22.684	0.150747
22.702	0.149797
22.72	0.148846
22.738	0.147899
22.756	0.146953
22.774	0.146009
22.792	0.145066
22.81	0.144124
22.828	0.143185
22.846	0.142254
22.864	0.141327
22.882	0.140400
22.9	0.139470
22.918	0.138540
22.936	0.137603
22.954	0.136657
22.972	0.135705
22.99	0.134745
23.008	0.133781
23.026	0.132810
23.044	0.131825
23.062	0.130826
23.08	0.129815
23.098	0.128796
23.116	0.127769
23.134	0.126732
23.152	0.125683
23.17	0.124621
23.188	0.123548
23.206	0.122463
23.224	0.121364
23.242	0.120254
23.26	0.119140
23.278	0.118022
23.296	0.116897
23.314	0.115762
23.332	0.114619
23.35	0.113467
23.368	0.112306
23.386	0.111132
23.404	0.109951
23.422	0.108775
23.44	0.107603
23.458	0.106433
23.476	0.105262
23.494	0.104086
23.512	0.102911
23.53	0.101742
23.548	0.100583
23.566	0.099431
23.584	0.098285
23.602	0.097146
23.62	0.096013
23.638	0.094889
23.656	0.093773
23.674	0.092664
23.692	0.091571
23.71	0.090497
23.728	0.089440
23.746	0.088399
23.764	0.087373
23.782	0.086363
23.8	0.085370
23.818	0.084397
23.836	0.083442
23.854	0.082505
23.872	0.081586
23.89	0.080690
23.908	0.079809
23.926	0.078935
23.944	0.078065
23.962	0.077204
23.98	0.076355
23.998	0.075522
24.016	0.074701
24.034	0.073893
24.052	0.073100
24.07	0.072322
24.088	0.071551
24.106	0.070779
24.124	0.070009
24.142	0.069243
24.16	0.068484
24.178	0.067732
24.196	0.066985
24.214	0.066242
24.232	0.065499
24.25	0.064759
24.268	0.064027
24.286	0.063305
24.304	0.062593
24.322	0.061885
24.34	0.061178
24.358	0.060475
24.376	0.059775
24.394	0.059077
24.412	0.058383
24.43	0.057691
24.448	0.057005
24.466	0.056325
24.484	0.055651
24.502	0.054981
24.52	0.054316
24.538	0.053654
24.556	0.053000
24.574	0.052359
24.592	0.051733
24.61	0.051118
24.628	0.050510
24.646	0.049907
24.664	0.049308
24.682	0.048721
24.7	0.048151
24.718	0.047597
24.736	0.047054
24.754	0.046517
24.772	0.045984
24.79	0.045457
24.808	0.044941
24.826	0.044439
24.844	0.043953
24.862	0.043473
24.88	0.042986
24.898	0.042494
24.916	0.042000
24.934	0.041511
24.952	0.041031
24.97	0.040559
24.988	0.040086
25.006	0.039607
25.024	0.039124
25.042	0.038637
25.06	0.038148
25.078	0.037654
25.096	0.037158
25.114	0.036659
25.132	0.036156
25.15	0.035652
25.168	0.035143
25.186	0.034630
25.204	0.034110
25.222	0.033584
25.24	0.033055
25.258	0.032526
25.276	0.031994
25.294	0.031461
25.312	0.030933
25.33	0.030411
25.348	0.029893
25.366	0.029381
25.384	0.028875
25.402	0.028375
25.42	0.027881
25.438	0.027396
25.456	0.026923
25.474	0.026460
25.492	0.026006
25.51	0.025563
25.528	0.025127
25.546	0.024699
25.564	0.024285
25.582	0.023892
25.6	0.023519
25.618	0.023163
25.636	0.022817
25.654	0.022477
25.672	0.022148
25.69	0.021827
25.708	0.021510
25.726	0.021198
25.744	0.020891
25.762	0.020591
25.78	0.020299
25.798	0.020016
25.816	0.019739
25.834	0.019469
25.852	0.019204
25.87	0.018946
25.888	0.018692
25.906	0.018440
25.924	0.018190
25.942	0.017943
25.96	0.017696
25.978	0.017443
25.996	0.017184
26.014	0.016922
26.032	0.016660
26.05	0.016404
26.068	0.016150
26.086	0.015899
26.104	0.015647
26.122	0.015396
26.14	0.015147
26.158	0.014897
26.176	0.014643
26.194	0.014382
26.212	0.014116
26.23	0.013851
26.248	0.013596
26.266	0.013353
26.284	0.013118
26.302	0.012886
26.32	0.012652
26.338	0.012415
26.356	0.012179
26.374	0.011945
26.392	0.011716
26.41	0.011490
26.428	0.011267
26.446	0.011050
26.464	0.010838
26.482	0.010633
26.5	0.010432
26.518	0.010234
26.536	0.010039
26.554	0.009847
26.572	0.009658
26.59	0.009474
26.608	0.009297
26.626	0.009124
26.644	0.008956
26.662	0.008792
26.68	0.008629
26.698	0.008469
26.716	0.008313
26.734	0.008162
26.752	0.008017
26.77	0.007878
26.788	0.007743
26.806	0.007608
26.824	0.007474
26.842	0.007339
26.86	0.007207
26.878	0.007081
26.896	0.006965
26.914	0.006857
26.932	0.006754
26.95	0.006651
26.968	0.006543
26.986	0.006427
27.004	0.006319
27.022	0.006238
27.028	0.006222