File: Bakgrunnsmateriale/MATLAB/FTIR/ftir_data/subBb/Mapping_36/C-4040-8_t25.asc
PE IR       SPECTRUM    SPECTRUM    ASCII       PEDS        1.60
  -1
C-BD2E~1.ASC
17/05/02
13:01:56.00
17/05/02
13:02:23.00
tln
$C-4040-8_t0025$<tbV0>[12.5,7.0,8.0,0.0,22,1,0]
27.028
64

2002,4.07
MIRTGS : RIGHTBACK : INTERNAL 2
MIR : ON : INTERNAL 2
OPTKBR

0.200000
8
8.000000
FILLER
RATIO
SPECTRUM
UNLOCKED 256

DOUBLE
64
COMBINED
1
0
0

0.002000
RATIO

1
0
TRUE
51149
0
LEFT NOT FITTED RIGHT NOT FITTED 0
NONE
NONE
15600
12
4.427000
51148
TRUE
1 0 8 72 0 0 0 0

15798

#HDR
-1
-1
#GR
µM
%T
2.38419e-05
0.0
1.282000
0.002000
12874
8
79.3528
22.6321
#DATA
1.282000	 78.2437
1.300000	 79.3528
1.318000	 68.7926
1.336000	 63.3761
1.354000	 61.423
1.372000	 65.7256
1.390000	 66.5087
1.408000	 66.0193
1.426000	 63.3627
1.444000	 65.8026
1.462000	 62.2449
1.480000	 64.2192
1.498000	 64.0739
1.516000	 63.7846
1.534000	 65.1052
1.552000	 65.4274
1.570000	 65.1135
1.588000	 64.8517
1.606000	 64.8685
1.624000	 64.5033
1.642000	 64.8595
1.660000	 64.6757
1.678000	 63.7231
1.696000	 64.5008
1.714000	 64.7487
1.732000	 65.1997
1.750000	 65.3331
1.768000	 65.6572
1.786000	 65.2365
1.804000	 65.0828
1.822000	 64.9565
1.840000	 64.0329
1.858000	 64.8337
1.876000	 64.5465
1.894000	 61.7542
1.912000	 64.4726
1.930000	 64.6726
1.948000	 65.2044
1.966000	 64.9112
1.984000	 64.6941
2.002000	 65.0741
2.020000	 64.4661
2.038000	 64.5848
2.056000	 64.472
2.074000	 64.9783
2.092000	 65.1541
2.110000	 64.9301
2.128000	 65.0188
2.146000	 65.1332
2.164000	 64.9689
2.182000	 65.1143
2.200000	 64.8238
2.218000	 64.9028
2.236000	 64.8616
2.254000	 64.5237
2.272000	 64.5873
2.290000	 65.364
2.308000	 64.7247
2.326000	 65.027
2.344000	 64.6943
2.362000	 65.0508
2.380000	 64.8608
2.398000	 64.5743
2.416000	 65.1354
2.434000	 65.0389
2.452000	 64.747
2.470000	 65.1132
2.488000	 64.8827
2.506000	 65.2041
2.524000	 65.2078
2.542000	 65.2019
2.560000	 64.7704
2.578000	 65.0775
2.596000	 65.0805
2.614000	 65.1836
2.632000	 65.1255
2.650000	 64.9747
2.668000	 65.2522
2.686000	 65.1676
2.704000	 65.144
2.722000	 65.0928
2.740000	 65.1786
2.758000	 65.0405
2.776000	 65.0628
2.794000	 65.078
2.812000	 65.0323
2.830000	 64.9477
2.848000	 65.0095
2.866000	 65.3883
2.884000	 65.3199
2.902000	 65.0992
2.920000	 65.0156
2.938000	 65.1467
2.956000	 64.9375
2.974000	 64.9777
2.992000	 65.0202
3.010000	 64.9936
3.028000	 65.0187
3.046000	 65.055
3.064000	 65.1259
3.082000	 65.0681
3.100000	 64.9885
3.118000	 65.0598
3.136000	 64.9915
3.154000	 65.0277
3.172000	 65.1189
3.190000	 64.9929
3.208000	 65.1654
3.226000	 65.0749
3.244000	 64.9384
3.262000	 64.9366
3.280000	 65.0088
3.298000	 65.0586
3.316000	 65.0788
3.334000	 65.1122
3.352000	 64.9951
3.370000	 64.9762
3.388000	 64.8826
3.406000	 64.8424
3.424000	 64.672
3.442000	 64.7824
3.460000	 64.8091
3.478000	 64.9611
3.496000	 64.8696
3.514000	 65.0724
3.532000	 65.0745
3.550000	 65.0558
3.568000	 65.0528
3.586000	 65.0938
3.604000	 65.1986
3.622000	 65.1893
3.640000	 65.0567
3.658000	 65.1291
3.676000	 65.2426
3.694000	 65.1727
3.712000	 65.1327
3.730000	 65.1215
3.748000	 65.1801
3.766000	 65.1438
3.784000	 65.0363
3.802000	 65.2619
3.820000	 65.1023
3.838000	 65.1388
3.856000	 65.2056
3.874000	 65.0698
3.892000	 65.179
3.910000	 65.2147
3.928000	 65.0993
3.946000	 65.1851
3.964000	 65.2043
3.982000	 65.125
4.000000	 65.1574
4.018000	 65.1322
4.036000	 65.0731
4.054000	 65.1906
4.072000	 65.0649
4.090000	 65.1245
4.108000	 65.2085
4.125999	 65.2626
4.144000	 65.1793
4.162000	 65.0751
4.180000	 65.151
4.198000	 65.1648
4.216000	 65.1523
4.234000	 65.1864
4.252000	 65.1901
4.270000	 65.1454
4.288000	 65.1848
4.306000	 65.1373
4.324000	 65.1632
4.342000	 65.3132
4.359999	 65.1684
4.378000	 65.1375
4.396000	 65.0674
4.414000	 65.1775
4.432000	 65.1605
4.450000	 65.2735
4.468000	 65.0935
4.486000	 65.0738
4.504000	 65.0756
4.522000	 65.164
4.540000	 65.2216
4.558000	 65.1673
4.576000	 65.0908
4.594000	 65.1469
4.612000	 65.1864
4.630000	 65.1389
4.648000	 65.2364
4.666000	 65.2673
4.684000	 65.2624
4.702000	 65.1447
4.720000	 65.1838
4.738000	 65.2401
4.756000	 65.1543
4.774000	 65.1139
4.792000	 65.3174
4.810000	 65.2418
4.828000	 65.3289
4.846000	 65.1382
4.864000	 65.1071
4.882000	 65.2281
4.900000	 65.3022
4.918000	 65.2961
4.936000	 65.1961
4.954000	 65.1267
4.972000	 65.1799
4.990000	 65.17
5.008000	 65.2045
5.026000	 65.2097
5.044000	 65.2096
5.062000	 65.1565
5.080000	 65.1433
5.098000	 65.249
5.116000	 65.293
5.134000	 65.1601
5.152000	 65.1972
5.170000	 65.3235
5.188000	 65.296
5.206000	 65.2101
5.224000	 65.2377
5.242000	 65.2225
5.260000	 65.2109
5.278000	 65.2825
5.296000	 65.1967
5.314000	 65.2233
5.332000	 65.3055
5.350000	 65.3091
5.368000	 65.3119
5.386000	 65.2863
5.404000	 65.2359
5.422000	 65.2473
5.440000	 65.3102
5.458000	 65.203
5.476000	 65.1689
5.494000	 65.2162
5.512000	 65.0956
5.530000	 65.1345
5.548000	 65.259
5.566000	 65.2337
5.584000	 65.2064
5.602000	 65.2022
5.620000	 65.1186
5.638000	 65.0723
5.656000	 65.1325
5.674000	 65.0656
5.692000	 65.0514
5.710000	 65.0514
5.728000	 64.9978
5.746000	 64.9469
5.764000	 64.8695
5.782000	 64.8337
5.800000	 64.9485
5.818000	 65.0469
5.836000	 65.1309
5.854000	 65.1155
5.872000	 65.0604
5.890000	 65.1751
5.908000	 65.1301
5.926000	 65.0807
5.944000	 65.0867
5.962000	 64.9727
5.980000	 64.9943
5.998000	 65.0795
6.016000	 65.1132
6.034000	 65.0844
6.052000	 65.0399
6.070000	 65.0007
6.088000	 65.0022
6.106000	 65.0297
6.124000	 65.0667
6.142000	 65.0988
6.160000	 65.1119
6.178000	 65.0738
6.196000	 65.035
6.214000	 65.0448
6.232000	 65.0591
6.250000	 65.085
6.268000	 65.0679
6.286000	 65.0194
6.304000	 65.038
6.322000	 65.0252
6.340000	 64.9204
6.358000	 64.8748
6.376000	 64.9064
6.394000	 64.9978
6.412000	 65.0546
6.430000	 64.988
6.448000	 64.9083
6.466000	 64.9087
6.484000	 64.967
6.502000	 64.9685
6.520000	 64.9658
6.538000	 64.9619
6.556000	 64.8886
6.574000	 64.9032
6.592000	 65.0106
6.610000	 65.0558
6.628000	 65.0021
6.646000	 64.9763
6.664000	 65.0099
6.682000	 65.0333
6.700000	 65.0672
6.718000	 65.1032
6.736000	 65.1253
6.754000	 65.0877
6.772000	 65.0288
6.790000	 65.0278
6.808000	 64.9962
6.826000	 64.9217
6.844000	 64.8884
6.862000	 64.8858
6.880000	 64.8975
6.898000	 64.923
6.916000	 64.9644
6.934000	 64.9989
6.952000	 65.019
6.970000	 65.0711
6.988000	 65.1122
7.006000	 65.1055
7.024000	 65.1304
7.042000	 65.1805
7.060000	 65.1607
7.078000	 65.0957
7.096000	 65.0638
7.114000	 65.037
7.132000	 64.9766
7.150000	 64.9257
7.168000	 64.9189
7.186000	 64.9457
7.204000	 64.9737
7.222000	 64.9663
7.240000	 64.938
7.258000	 64.9382
7.276000	 64.9848
7.294000	 65.0644
7.312000	 65.1299
7.330000	 65.115
7.348000	 65.0316
7.366000	 64.9661
7.384000	 64.9445
7.402000	 64.9288
7.420000	 64.9149
7.438000	 64.9198
7.456000	 64.9442
7.474000	 64.9752
7.492000	 64.9857
7.510000	 64.9708
7.528000	 64.965
7.546000	 64.9811
7.564000	 64.9951
7.582000	 64.9846
7.600000	 64.9447
7.618000	 64.8983
7.636000	 64.8798
7.654000	 64.8849
7.672000	 64.884
7.690000	 64.8784
7.708000	 64.8864
7.726000	 64.9056
7.744000	 64.9221
7.762000	 64.9288
7.780000	 64.9222
7.798000	 64.9025
7.816000	 64.8813
7.834000	 64.878
7.852000	 64.9009
7.870000	 64.939
7.888000	 64.9739
7.906000	 64.9939
7.924000	 64.9974
7.942000	 64.9867
7.960000	 64.9623
7.978000	 64.9225
7.996000	 64.8723
8.013999	 64.8311
8.032000	 64.8251
8.050000	 64.8588
8.068000	 64.9
8.086000	 64.9128
8.103999	 64.9025
8.122000	 64.9017
8.140000	 64.9143
8.158000	 64.9117
8.176000	 64.8816
8.193999	 64.8488
8.212000	 64.8385
8.230000	 64.8483
8.248000	 64.8601
8.266000	 64.8634
8.283999	 64.8602
8.302000	 64.8583
8.320000	 64.8631
8.338000	 64.8686
8.356000	 64.8599
8.374000	 64.8359
8.391999	 64.8256
8.410000	 64.8598
8.428000	 64.9269
8.446000	 64.9745
8.464000	 64.9617
8.481999	 64.8998
8.500000	 64.8318
8.518000	 64.7894
8.536000	 64.7746
8.554000	 64.7673
8.571999	 64.7435
8.590000	 64.6953
8.608000	 64.6445
8.626000	 64.6257
8.644000	 64.6498
8.661999	 64.6919
8.680000	 64.7204
8.698000	 64.7259
8.716000	 64.7141
8.734000	 64.6849
8.751999	 64.6374
8.770000	 64.5937
8.788000	 64.5923
8.806000	 64.6479
8.824000	 64.7294
8.842000	 64.7883
8.859999	 64.8063
8.878000	 64.8006
8.896000	 64.7892
8.914000	 64.7675
8.932000	 64.7305
8.949999	 64.6983
8.968000	 64.7047
8.986000	 64.7587
9.004000	 64.8322
9.022000	 64.8874
9.039999	 64.911
9.058000	 64.9153
9.076000	 64.9159
9.094000	 64.9158
9.112000	 64.9122
9.129999	 64.9052
9.148000	 64.8951
9.166000	 64.8732
9.184000	 64.8231
9.202000	 64.7394
9.219999	 64.6442
9.238000	 64.581
9.256000	 64.583
9.274000	 64.6419
9.292000	 64.708
9.310000	 64.7291
9.327999	 64.692
9.346000	 64.6309
9.364000	 64.5935
9.382000	 64.5973
9.400000	 64.6208
9.418000	 64.632
9.436000	 64.6228
9.454000	 64.6137
9.472000	 64.6263
9.490000	 64.6577
9.508000	 64.6827
9.526000	 64.6794
9.544000	 64.649
9.561999	 64.614
9.580000	 64.5994
9.598000	 64.6172
9.616000	 64.6626
9.634000	 64.7184
9.652000	 64.7612
9.670000	 64.7703
9.688000	 64.7404
9.706000	 64.6856
9.724000	 64.6295
9.742000	 64.5882
9.760000	 64.5651
9.778000	 64.5605
9.795999	 64.5807
9.814000	 64.6343
9.832000	 64.7169
9.850000	 64.802
9.868000	 64.8525
9.886000	 64.8474
9.904000	 64.7966
9.922000	 64.7329
9.940000	 64.6865
9.958000	 64.6649
9.976000	 64.6539
9.994000	 64.6374
10.012	64.6156
10.03	64.6063
10.048	64.6288
10.066	64.682
10.084	64.741
10.102	64.7705
10.12	64.7472
10.138	64.677
10.156	64.5931
10.174	64.5353
10.192	64.5301
10.21	64.5775
10.228	64.6551
10.246	64.7328
10.264	64.7858
10.282	64.8053
10.3	64.7996
10.318	64.7867
10.336	64.7799
10.354	64.7765
10.372	64.7612
10.39	64.7185
10.408	64.6502
10.426	64.5791
10.444	64.5403
10.462	64.5571
10.48	64.6283
10.498	64.7251
10.516	64.8079
10.534	64.8452
10.552	64.8272
10.57	64.7643
10.588	64.6795
10.606	64.5963
10.624	64.5314
10.642	64.4944
10.66	64.4879
10.678	64.5081
10.696	64.5465
10.714	64.5933
10.732	64.643
10.75	64.6942
10.768	64.7498
10.786	64.8104
10.804	64.869
10.822	64.9116
10.84	64.9217
10.858	64.8876
10.876	64.8068
10.894	64.6877
10.912	64.5468
10.93	64.4071
10.948	64.2936
10.966	64.2309
10.984	64.2331
11.002	64.293
11.02	64.3809
11.038	64.4482
11.056	64.4478
11.074	64.3539
11.092	64.1774
11.11	63.9637
11.128	63.7741
11.146	63.6564
11.164	63.6293
11.182	63.6766
11.2	63.7578
11.218	63.8329
11.236	63.8746
11.254	63.8784
11.272	63.8615
11.29	63.8523
11.308	63.876
11.326	63.9436
11.344	64.0453
11.362	64.1539
11.38	64.2325
11.398	64.2519
11.416	64.2008
11.434	64.0931
11.452	63.9644
11.47	63.8576
11.488	63.8025
11.506	63.8086
11.524	63.8618
11.542	63.936
11.56	64.0047
11.578	64.0532
11.596	64.0823
11.614	64.1038
11.632	64.1346
11.65	64.188
11.668	64.2673
11.686	64.3638
11.704	64.4601
11.722	64.5362
11.74	64.5776
11.758	64.5804
11.776	64.5521
11.794	64.5101
11.812	64.4733
11.83	64.4556
11.848	64.4611
11.866	64.4827
11.884	64.5064
11.902	64.5181
11.92	64.5101
11.938	64.4847
11.956	64.452
11.974	64.426
11.992	64.419
12.01	64.4386
12.028	64.4853
12.046	64.5528
12.064	64.6288
12.082	64.6993
12.1	64.7498
12.118	64.7691
12.136	64.7521
12.154	64.7003
12.172	64.6219
12.19	64.529
12.208	64.4348
12.226	64.3493
12.244	64.2773
12.262	64.2186
12.28	64.1692
12.298	64.1245
12.316	64.0819
12.334	64.0422
12.352	64.0089
12.37	63.9866
12.388	63.9775
12.406	63.9806
12.424	63.9916
12.442	64.0043
12.46	64.0139
12.478	64.019
12.496	64.0222
12.514	64.0288
12.532	64.0446
12.55	64.0722
12.568	64.11
12.586	64.1525
12.604	64.1923
12.622	64.2225
12.64	64.239
12.658	64.2407
12.676	64.2296
12.694	64.2097
12.712	64.1841
12.73	64.1552
12.748	64.1242
12.766	64.0908
12.784	64.0544
12.802	64.0152
12.82	63.974
12.838	63.9323
12.856	63.8916
12.874	63.8525
12.892	63.8149
12.91	63.7782
12.928	63.7413
12.946	63.7036
12.964	63.6657
12.982	63.6295
13	63.5975
13.018	63.5723
13.036	63.5562
13.054	63.5499
13.072	63.5535
13.09	63.5657
13.108	63.5849
13.126	63.6093
13.144	63.6374
13.162	63.6678
13.18	63.6996
13.198	63.7314
13.216	63.7616
13.234	63.7879
13.252	63.8081
13.27	63.8198
13.288	63.821
13.306	63.8095
13.324	63.7838
13.342	63.7436
13.36	63.6892
13.378	63.6218
13.396	63.5445
13.414	63.4617
13.432	63.3798
13.45	63.3059
13.468	63.2477
13.486	63.2121
13.504	63.2042
13.522	63.2256
13.54	63.2741
13.558	63.3437
13.576	63.4254
13.594	63.5084
13.612	63.5819
13.63	63.6371
13.648	63.6688
13.666	63.6762
13.684	63.6622
13.702	63.6335
13.72	63.5985
13.738	63.5662
13.756	63.5442
13.774	63.5375
13.792	63.5483
13.81	63.5753
13.828	63.6152
13.846	63.6626
13.864	63.7116
13.882	63.7562
13.9	63.7916
13.918	63.8146
13.936	63.8233
13.954	63.8179
13.972	63.7999
13.99	63.7717
14.008	63.7359
14.026	63.6947
14.044	63.6499
14.062	63.6024
14.08	63.5521
14.098	63.498
14.116	63.4389
14.134	63.3738
14.152	63.3023
14.17	63.2254
14.188	63.145
14.206	63.064
14.224	62.9866
14.242	62.9172
14.26	62.8607
14.278	62.8203
14.296	62.7987
14.314	62.7968
14.332	62.8141
14.35	62.8488
14.368	62.8973
14.386	62.9551
14.404	63.017
14.422	63.0778
14.44	63.1328
14.458	63.1784
14.476	63.2125
14.494	63.2347
14.512	63.2459
14.53	63.2487
14.548	63.2463
14.566	63.2415
14.584	63.2369
14.602	63.2337
14.62	63.2322
14.638	63.2314
14.656	63.2293
14.674	63.2239
14.692	63.2135
14.71	63.1969
14.728	63.1739
14.746	63.1451
14.764	63.1127
14.782	63.0791
14.8	63.0467
14.818	63.0176
14.836	62.9937
14.854	62.9756
14.872	62.9633
14.89	62.9552
14.908	62.9498
14.926	62.9453
14.944	62.9399
14.962	62.9327
14.98	62.9237
14.998	62.9139
15.016	62.9044
15.034	62.8974
15.052	62.895
15.07	62.8986
15.088	62.909
15.106	62.9259
15.124	62.9479
15.142	62.9723
15.16	62.9962
15.178	63.0167
15.196	63.0308
15.214	63.036
15.232	63.0313
15.25	63.0165
15.268	62.9924
15.286	62.9607
15.304	62.9242
15.322	62.8852
15.34	62.8458
15.358	62.8082
15.376	62.7739
15.394	62.7434
15.412	62.7173
15.43	62.6957
15.448	62.6786
15.466	62.6665
15.484	62.6598
15.502	62.659
15.52	62.6653
15.538	62.6792
15.556	62.7012
15.574	62.7314
15.592	62.7693
15.61	62.8131
15.628	62.8608
15.646	62.9099
15.664	62.9566
15.682	62.9979
15.7	63.031
15.718	63.0531
15.736	63.0623
15.754	63.0583
15.772	63.0412
15.79	63.0125
15.808	62.9755
15.826	62.933
15.844	62.8885
15.862	62.8464
15.88	62.8096
15.898	62.7805
15.916	62.7615
15.934	62.7529
15.952	62.7542
15.97	62.7643
15.988	62.7805
16.006	62.8002
16.024	62.8209
16.042	62.8392
16.06	62.8529
16.078	62.8607
16.096	62.8612
16.114	62.8549
16.132	62.8424
16.15	62.8249
16.168	62.8052
16.186	62.785
16.204	62.7661
16.222	62.7511
16.24	62.7412
16.258	62.7372
16.276	62.7399
16.294	62.7493
16.312	62.765
16.33	62.7862
16.348	62.8116
16.366	62.8404
16.384	62.8704
16.402	62.8998
16.42	62.9269
16.438	62.9495
16.456	62.965
16.474	62.9722
16.492	62.969
16.51	62.9543
16.528	62.9278
16.546	62.8895
16.564	62.8405
16.582	62.7816
16.6	62.7153
16.618	62.6439
16.636	62.5693
16.654	62.4948
16.672	62.4227
16.69	62.3546
16.708	62.2931
16.726	62.2389
16.744	62.1932
16.762	62.1564
16.78	62.1284
16.798	62.1092
16.816	62.0978
16.834	62.0936
16.852	62.0959
16.87	62.1031
16.888	62.1145
16.906	62.1287
16.924	62.1452
16.942	62.1631
16.96	62.1819
16.978	62.2011
16.996	62.2203
17.014	62.2388
17.032	62.2567
17.05	62.2732
17.068	62.288
17.086	62.3009
17.104	62.3112
17.122	62.3188
17.14	62.3232
17.158	62.3245
17.176	62.3226
17.194	62.3179
17.212	62.3107
17.23	62.3014
17.248	62.2907
17.266	62.2786
17.284	62.2659
17.302	62.2526
17.32	62.2388
17.338	62.2247
17.356	62.2103
17.374	62.1957
17.392	62.1813
17.41	62.1671
17.428	62.1539
17.446	62.1421
17.464	62.1326
17.482	62.1257
17.5	62.1223
17.518	62.1223
17.536	62.1258
17.554	62.1327
17.572	62.1424
17.59	62.1538
17.608	62.1658
17.626	62.1775
17.644	62.1865
17.662	62.1924
17.68	62.1931
17.698	62.1882
17.716	62.1764
17.734	62.1575
17.752	62.1312
17.77	62.0981
17.788	62.0582
17.806	62.0127
17.824	61.9623
17.842	61.9082
17.86	61.8518
17.878	61.7939
17.896	61.7363
17.914	61.6795
17.932	61.6251
17.95	61.5736
17.968	61.5262
17.986	61.4834
18.004	61.4461
18.022	61.4149
18.04	61.3901
18.058	61.3723
18.076	61.3615
18.094	61.3579
18.112	61.3612
18.13	61.371
18.148	61.3866
18.166	61.4071
18.184	61.4312
18.202	61.458
18.22	61.4855
18.238	61.5131
18.256	61.5388
18.274	61.5622
18.292	61.5816
18.31	61.5971
18.328	61.6076
18.346	61.6134
18.364	61.6143
18.382	61.6107
18.4	61.6027
18.418	61.5912
18.436	61.5764
18.454	61.5593
18.472	61.54
18.49	61.5193
18.508	61.4974
18.526	61.4748
18.544	61.4515
18.562	61.4278
18.58	61.4037
18.598	61.3791
18.616	61.3542
18.634	61.3287
18.652	61.3028
18.67	61.2764
18.688	61.2497
18.706	61.2229
18.724	61.1962
18.742	61.1703
18.76	61.1455
18.778	61.1225
18.796	61.1017
18.814	61.0839
18.832	61.0695
18.85	61.0592
18.868	61.0531
18.886	61.0514
18.904	61.0539
18.922	61.0606
18.94	61.0705
18.958	61.0832
18.976	61.0976
18.994	61.113
19.012	61.1282
19.03	61.1421
19.048	61.1537
19.066	61.162
19.084	61.1665
19.102	61.1664
19.12	61.1618
19.138	61.1524
19.156	61.1387
19.174	61.1207
19.192	61.0994
19.21	61.0754
19.228	61.0494
19.246	61.0228
19.264	60.9958
19.282	60.9699
19.3	60.9451
19.318	60.9229
19.336	60.903
19.354	60.8862
19.372	60.8724
19.39	60.8616
19.408	60.8537
19.426	60.8481
19.444	60.845
19.462	60.8431
19.48	60.8427
19.498	60.8428
19.516	60.8433
19.534	60.8436
19.552	60.8433
19.57	60.8426
19.588	60.841
19.606	60.839
19.624	60.8366
19.642	60.8342
19.66	60.8323
19.678	60.831
19.696	60.8312
19.714	60.8327
19.732	60.8361
19.75	60.8415
19.768	60.8488
19.786	60.8583
19.804	60.8692
19.822	60.8817
19.84	60.8949
19.858	60.9082
19.876	60.9213
19.894	60.9329
19.912	60.943
19.93	60.9504
19.948	60.9552
19.966	60.9568
19.984	60.955
20.002	60.95
20.02	60.9418
20.038	60.9309
20.056	60.9178
20.074	60.9028
20.092	60.8871
20.11	60.8706
20.128	60.855
20.146	60.84
20.164	60.8269
20.182	60.8159
20.2	60.8074
20.218	60.8018
20.236	60.7991
20.254	60.7991
20.272	60.8019
20.29	60.8069
20.308	60.8143
20.326	60.8231
20.344	60.833
20.362	60.8434
20.38	60.8536
20.398	60.8634
20.416	60.8716
20.434	60.8784
20.452	60.8828
20.47	60.8847
20.488	60.8838
20.506	60.8795
20.524	60.872
20.542	60.8611
20.56	60.8467
20.578	60.8287
20.596	60.8071
20.614	60.7819
20.632	60.7533
20.65	60.7211
20.668	60.6854
20.686	60.6461
20.704	60.6032
20.722	60.5568
20.74	60.5068
20.758	60.4533
20.776	60.3964
20.794	60.3363
20.812	60.2731
20.83	60.2073
20.848	60.1394
20.866	60.0694
20.884	59.9987
20.902	59.927
20.92	59.856
20.938	59.7861
20.956	59.7179
20.974	59.6534
20.992	59.5921
21.01	59.536
21.028	59.4855
21.046	59.4409
21.064	59.4036
21.082	59.3732
21.1	59.3504
21.118	59.3353
21.136	59.3275
21.154	59.3267
21.172	59.333
21.19	59.3449
21.208	59.3626
21.226	59.3849
21.244	59.4105
21.262	59.4399
21.28	59.4706
21.298	59.5027
21.316	59.5353
21.334	59.5669
21.352	59.598
21.37	59.6275
21.388	59.6553
21.406	59.6816
21.424	59.7061
21.442	59.729
21.46	59.7508
21.478	59.7715
21.496	59.7915
21.514	59.8113
21.532	59.8307
21.55	59.8502
21.568	59.8701
21.586	59.8901
21.604	59.9099
21.622	59.9298
21.64	59.9488
21.658	59.9662
21.676	59.9822
21.694	59.9949
21.712	60.0042
21.73	60.0096
21.748	60.0094
21.766	60.0041
21.784	59.9927
21.802	59.9746
21.82	59.9501
21.838	59.9195
21.856	59.8822
21.874	59.8393
21.892	59.7921
21.91	59.7399
21.928	59.6852
21.946	59.6287
21.964	59.5706
21.982	59.5146
22	59.4597
22.018	59.408
22.036	59.3624
22.054	59.3216
22.072	59.2881
22.09	59.2635
22.108	59.2469
22.126	59.2399
22.144	59.2427
22.162	59.255
22.18	59.2765
22.198	59.3078
22.216	59.3475
22.234	59.3946
22.252	59.4499
22.27	59.5105
22.288	59.5757
22.306	59.6456
22.324	59.7165
22.342	59.789
22.36	59.8617
22.378	59.931
22.396	59.9983
22.414	60.0613
22.432	60.1172
22.45	60.1676
22.468	60.2099
22.486	60.2429
22.504	60.2673
22.522	60.2817
22.54	60.2857
22.558	60.2795
22.576	60.2627
22.594	60.235
22.612	60.1969
22.63	60.1487
22.648	60.0899
22.666	60.0216
22.684	59.9452
22.702	59.8597
22.72	59.7672
22.738	59.669
22.756	59.5643
22.774	59.4553
22.792	59.3434
22.81	59.2278
22.828	59.1107
22.846	58.9931
22.864	58.8742
22.882	58.7569
22.9	58.6416
22.918	58.528
22.936	58.4182
22.954	58.3127
22.972	58.211
22.99	58.1144
23.008	58.0226
23.026	57.9358
23.044	57.8545
23.062	57.7785
23.08	57.7079
23.098	57.6432
23.116	57.5842
23.134	57.5312
23.152	57.4847
23.17	57.4446
23.188	57.411
23.206	57.3841
23.224	57.3636
23.242	57.3499
23.26	57.3435
23.278	57.3444
23.296	57.3525
23.314	57.3683
23.332	57.3915
23.35	57.4223
23.368	57.4611
23.386	57.508
23.404	57.5627
23.422	57.6253
23.44	57.696
23.458	57.7745
23.476	57.8597
23.494	57.9525
23.512	58.0519
23.53	58.1562
23.548	58.2659
23.566	58.3805
23.584	58.4968
23.602	58.6148
23.62	58.7349
23.638	58.8528
23.656	58.968
23.674	59.0814
23.692	59.1886
23.71	59.2877
23.728	59.3806
23.746	59.4634
23.764	59.5335
23.782	59.5933
23.8	59.6394
23.818	59.669
23.836	59.6839
23.854	59.6825
23.872	59.6624
23.89	59.6244
23.908	59.5683
23.926	59.4936
23.944	59.3997
23.962	59.2875
23.98	59.1583
23.998	59.0115
24.016	58.8475
24.034	58.6693
24.052	58.478
24.07	58.2721
24.088	58.0557
24.106	57.8313
24.124	57.5962
24.142	57.3546
24.16	57.1112
24.178	56.8636
24.196	56.6138
24.214	56.3662
24.232	56.1207
24.25	55.8768
24.268	55.6375
24.286	55.4043
24.304	55.176
24.322	54.9529
24.34	54.7354
24.358	54.5238
24.376	54.3169
24.394	54.1135
24.412	53.9149
24.43	53.7198
24.448	53.5253
24.466	53.3317
24.484	53.1397
24.502	52.9447
24.52	52.7438
24.538	52.5394
24.556	52.3293
24.574	52.1106
24.592	51.8839
24.61	51.6495
24.628	51.4065
24.646	51.1537
24.664	50.8915
24.682	50.6234
24.7	50.3517
24.718	50.0731
24.736	49.7921
24.754	49.5146
24.772	49.2373
24.79	48.9617
24.808	48.697
24.826	48.4474
24.844	48.2067
24.862	47.9838
24.88	47.788
24.898	47.6143
24.916	47.4651
24.934	47.3485
24.952	47.2676
24.97	47.2182
24.988	47.2041
25.006	47.2291
25.024	47.2932
25.042	47.3938
25.06	47.5286
25.078	47.6992
25.096	47.9064
25.114	48.1411
25.132	48.396
25.15	48.6796
25.168	48.9836
25.186	49.2942
25.204	49.6093
25.222	49.936
25.24	50.2589
25.258	50.5641
25.276	50.8619
25.294	51.1462
25.312	51.4027
25.33	51.6257
25.348	51.8239
25.366	51.9878
25.384	52.1071
25.402	52.1837
25.42	52.2199
25.438	52.2132
25.456	52.1608
25.474	52.0623
25.492	51.9232
25.51	51.7494
25.528	51.5378
25.546	51.2884
25.564	51.0118
25.582	50.7167
25.6	50.3946
25.618	50.0517
25.636	49.7001
25.654	49.3442
25.672	48.9758
25.69	48.6051
25.708	48.2429
25.726	47.8874
25.744	47.5362
25.762	47.1959
25.78	46.8723
25.798	46.563
25.816	46.2671
25.834	45.9849
25.852	45.7181
25.87	45.4679
25.888	45.2287
25.906	44.9947
25.924	44.7677
25.942	44.5494
25.96	44.3313
25.978	44.1053
25.996	43.8778
26.014	43.6463
26.032	43.4011
26.05	43.135
26.068	42.8555
26.086	42.5582
26.104	42.2358
26.122	41.8842
26.14	41.5086
26.158	41.1064
26.176	40.6744
26.194	40.2113
26.212	39.7188
26.23	39.1981
26.248	38.6501
26.266	38.0719
26.284	37.4651
26.302	36.8361
26.32	36.1908
26.338	35.5218
26.356	34.8334
26.374	34.1366
26.392	33.4402
26.41	32.7335
26.428	32.0232
26.446	31.3222
26.464	30.6392
26.482	29.9636
26.5	29.3017
26.518	28.6634
26.536	28.0542
26.554	27.4659
26.572	26.904
26.59	26.3756
26.608	25.8848
26.626	25.4265
26.644	25.0024
26.662	24.6144
26.68	24.2638
26.698	23.9493
26.716	23.6704
26.734	23.4266
26.752	23.2193
26.77	23.0494
26.788	22.9121
26.806	22.8025
26.824	22.7188
26.842	22.6641
26.86	22.6365
26.878	22.634
26.896	22.6552
26.914	22.7009
26.932	22.7722
26.95	22.8699
26.968	23.0109
26.986	23.2055
27.004	23.4048
27.022	23.5582
27.028	23.586