File: Bakgrunnsmateriale/MATLAB/FTIR/ftir_data/subBb/Mapping_36/C-4040-8_t14_cm-1.asc
PE IR       SPECTRUM    SPECTRUM    ASCII       PEDS        1.60
  -1
C-1A6F~1.ASC
17/05/02
12:03:16.00
17/05/02
12:03:16.00
tln
$C-4040-8_t0014$<tbV0>[7.5,-3.0,8.0,0.0,22,1,0]
370
64

2002,4.07
MIRTGS : RIGHTBACK : INTERNAL 2
MIR : ON : INTERNAL 2
OPTKBR

0.200000
8
8.000000
FILLER
RATIO
SPECTRUM
UNLOCKED 256

DOUBLE
64
COMBINED
1
0
0

1.000000
RATIO

1
0
TRUE
51149
0
LEFT NOT FITTED RIGHT NOT FITTED 0
NONE
NONE
15600
12
4.427000
51148
TRUE
1 0 8 72 0 0 0 0

15798

#HDR
-1
-1
#GR
CM-1
%T
2.38419e-05
0.0
7800
-1.000000
7431
8
93.4188
37.7473
#DATA
7800	56.9192
7795	65.4792
7790	66.7979
7785	66.8522
7780	69.4686
7775	73.2663
7770	76.7591
7765	70.1739
7760	71.4093
7755	71.4106
7750	63.4623
7745	66.1703
7740	70.2536
7735	66.8732
7730	64.9059
7725	65.915
7720	69.8426
7715	73.8359
7710	70.8719
7705	70.1437
7700	67.5933
7695	64.8631
7690	72.761
7685	72.1879
7680	64.7902
7675	63.0515
7670	64.5093
7665	62.1961
7660	62.3693
7655	66.521
7650	67.7671
7645	65.8091
7640	62.0307
7635	64.4634
7630	67.351
7625	63.806
7620	63.2116
7615	66.8245
7610	66.6289
7605	65.385
7600	66.3943
7595	65.8761
7590	63.0068
7585	63.9697
7580	65.9906
7575	67.0146
7570	70.5204
7565	71.7771
7560	71.9749
7555	67.9009
7550	64.4876
7545	65.4099
7540	66.5313
7535	67.3936
7530	66.4166
7525	66.9469
7520	67.2675
7515	66.7952
7510	66.241
7505	64.5388
7500	65.1323
7495	66.893
7490	66.4263
7485	64.9544
7480	63.6226
7475	62.9563
7470	65.1452
7465	66.2886
7460	62.978
7455	64.037
7450	67.9105
7445	68.3773
7440	63.8273
7435	60.3817
7430	62.3931
7425	65.6606
7420	66.1132
7415	65.5501
7410	64.1292
7405	64.1237
7400	65.219
7395	65.9643
7390	68.3659
7385	70.2575
7380	69.9057
7375	67.9546
7370	65.5913
7365	65.8958
7360	68.8343
7355	68.2327
7350	66.0823
7345	63.7216
7340	62.8902
7335	61.6238
7330	63.4557
7325	68.0863
7320	67.7525
7315	63.6657
7310	61.2254
7305	64.3268
7300	66.9858
7295	67.7551
7290	66.6547
7285	64.9266
7280	64.2264
7275	64.9491
7270	66.6796
7265	63.9555
7260	60.5809
7255	59.6548
7250	63.4659
7245	65.9081
7240	62.5367
7235	62.1628
7230	65.0458
7225	66.0374
7220	66.7344
7215	65.8052
7210	64.9699
7205	66.22
7200	64.8347
7195	62.167
7190	62.4433
7185	63.1526
7180	62.8524
7175	63.6222
7170	62.4804
7165	60.5894
7160	61.5865
7155	64.4188
7150	66.0363
7145	65.2383
7140	64.4631
7135	62.7156
7130	62.5753
7125	65.6891
7120	65.7024
7115	66.2185
7110	66.9435
7105	63.9224
7100	62.5893
7095	62.9781
7090	63.3481
7085	64.4031
7080	66.2465
7075	66.2976
7070	65.7068
7065	66.6983
7060	65.5243
7055	63.6662
7050	62.9576
7045	64.9188
7040	65.9787
7035	63.9255
7030	61.329
7025	64.6243
7020	68.1307
7015	63.6306
7010	61.3513
7005	61.6536
7000	63.5658
6995	64.9014
6990	61.7724
6985	61.6936
6980	64.4383
6975	63.6723
6970	61.2197
6965	62.2958
6960	64.3885
6955	63.6777
6950	61.9292
6945	63.1116
6940	63.9053
6935	63.5688
6930	63.7073
6925	63.7732
6920	63.7232
6915	64.068
6910	63.6011
6905	62.932
6900	63.3068
6895	64.1916
6890	64.5723
6885	64.4065
6880	64.3767
6875	63.5866
6870	63.2569
6865	63.9684
6860	63.7671
6855	62.9239
6850	63.6291
6845	65.4615
6840	64.7151
6835	64.1054
6830	64.6897
6825	64.9793
6820	64.7839
6815	64.3019
6810	65.547
6805	65.996
6800	65.9264
6795	64.6227
6790	63.4792
6785	62.66
6780	61.6035
6775	61.6653
6770	63.9928
6765	65.0956
6760	64.9046
6755	64.877
6750	63.4316
6745	63.8724
6740	64.647
6735	64.0892
6730	64.3521
6725	63.4052
6720	63.9348
6715	64.5251
6710	64.02
6705	64.2367
6700	64.4367
6695	64.3296
6690	63.5665
6685	64.24
6680	64.2923
6675	63.6322
6670	64.2081
6665	64.3141
6660	63.2554
6655	63.1583
6650	64.9055
6645	65.3411
6640	64.2486
6635	64.2379
6630	64.3033
6625	64.7735
6620	64.1366
6615	63.8995
6610	64.8575
6605	65.3339
6600	65.0632
6595	66.749
6590	66.3387
6585	64.9003
6580	64.7372
6575	64.6133
6570	64.642
6565	65.2027
6560	65.9876
6555	65.3502
6550	64.805
6545	64.1862
6540	63.5859
6535	64.8616
6530	65.928
6525	65.08
6520	64.7311
6515	65.0238
6510	64.5024
6505	64.0549
6500	64.9386
6495	65.1514
6490	64.8707
6485	64.497
6480	65.5202
6475	65.9832
6470	65.188
6465	64.4976
6460	64.5296
6455	64.478
6450	64.9076
6445	65.8515
6440	66.2866
6435	65.5399
6430	63.9211
6425	63.62
6420	64.5353
6415	65.5714
6410	65.9841
6405	66.4323
6400	66.0929
6395	64.7481
6390	64.1007
6385	63.8495
6380	63.9365
6375	63.6277
6370	63.6942
6365	64.3565
6360	64.6712
6355	64.5809
6350	64.7662
6345	64.1714
6340	63.5478
6335	64.2777
6330	65.1461
6325	65.2642
6320	64.894
6315	65.0115
6310	64.9273
6305	64.594
6300	65.3966
6295	66.2008
6290	66.2076
6285	65.1474
6280	63.8
6275	63.587
6270	64.7577
6265	65.041
6260	65.4627
6255	65.9265
6250	65.06
6245	64.3839
6240	64.7173
6235	64.8472
6230	64.9176
6225	65.4075
6220	65.3692
6215	65.0599
6210	65.6316
6205	66.1317
6200	66.703
6195	67.1733
6190	65.7768
6185	65.457
6180	65.9604
6175	65.2025
6170	65.0843
6165	64.9709
6160	64.9109
6155	64.9539
6150	64.9878
6145	64.8007
6140	64.9745
6135	64.9408
6130	65.0816
6125	65.7086
6120	65.2731
6115	64.7673
6110	64.3242
6105	64.6147
6100	64.7068
6095	64.8248
6090	65.2744
6085	65.2232
6080	65.832
6075	65.76
6070	65.1875
6065	64.6771
6060	64.2785
6055	64.3971
6050	64.6682
6045	64.7525
6040	64.5995
6035	64.866
6030	65.1227
6025	64.3271
6020	64.6825
6015	65.7069
6010	66.0861
6005	65.7766
6000	65.2978
5995	65.4844
5990	65.6119
5985	65.3891
5980	65.1729
5975	65.4288
5970	66.2872
5965	66.3973
5960	65.7637
5955	65.0171
5950	65.5315
5945	65.839
5940	64.7836
5935	64.203
5930	64.5853
5925	64.5803
5920	64.864
5915	65.0123
5910	64.2357
5905	64.3909
5900	65.2037
5895	64.9833
5890	64.2944
5885	64.388
5880	65.0028
5875	65.1026
5870	64.5761
5865	64.513
5860	65.3184
5855	65.5764
5850	65.026
5845	64.7041
5840	64.651
5835	64.482
5830	64.1662
5825	65.216
5820	65.4725
5815	65.0397
5810	64.4155
5805	64.1198
5800	64.1416
5795	64.4161
5790	65.0288
5785	65.3593
5780	65.2316
5775	64.8265
5770	64.683
5765	65.0901
5760	65.2221
5755	65.0615
5750	64.9898
5745	64.8952
5740	64.943
5735	64.8214
5730	65.0252
5725	65.7402
5720	65.9524
5715	65.4781
5710	65.1325
5705	65.1188
5700	64.9179
5695	64.6345
5690	64.7267
5685	64.8251
5680	65.1244
5675	65.2812
5670	65.081
5665	64.5855
5660	64.1894
5655	64.0267
5650	64.4671
5645	65.1067
5640	65.2477
5635	65.1141
5630	65.0803
5625	65.1594
5620	65.0621
5615	65.0964
5610	65.0137
5605	64.5862
5600	64.4048
5595	64.2996
5590	64.2585
5585	63.8897
5580	63.7949
5575	64.3391
5570	65.0403
5565	65.0074
5560	64.6852
5555	65.3641
5550	65.3571
5545	64.8128
5540	64.8698
5535	64.8981
5530	64.7072
5525	64.8434
5520	64.7345
5515	64.4929
5510	64.6154
5505	64.8971
5500	64.834
5495	64.7094
5490	64.9066
5485	65.0364
5480	64.9122
5475	65.0548
5470	65.6598
5465	65.7523
5460	65.3213
5455	65.0582
5450	64.962
5445	64.5212
5440	64.4849
5435	65.1125
5430	65.651
5425	65.3489
5420	64.4966
5415	64.3444
5410	64.6328
5405	64.9048
5400	64.9249
5395	64.8251
5390	64.9099
5385	64.4181
5380	64.3725
5375	64.7057
5370	64.1801
5365	64.0585
5360	64.5232
5355	64.1057
5350	62.9256
5345	63.4526
5340	64.9248
5335	65.1608
5330	65.424
5325	65.2199
5320	64.8188
5315	64.9467
5310	64.8799
5305	65.4533
5300	66.1649
5295	67.5183
5290	67.8806
5285	64.7733
5280	62.245
5275	62.8205
5270	64.0602
5265	64.7527
5260	66.6398
5255	67.7948
5250	67.3087
5245	66.2933
5240	64.9561
5235	64.2608
5230	64.9365
5225	65.7782
5220	65.6561
5215	64.8258
5210	64.5113
5205	64.9026
5200	64.6323
5195	64.6396
5190	65.1279
5185	65.049
5180	64.6761
5175	64.6237
5170	64.9961
5165	65.1587
5160	64.9859
5155	64.69
5150	64.3939
5145	64.7512
5140	65.1553
5135	65.0147
5130	64.8905
5125	64.8276
5120	64.4501
5115	64.1565
5110	64.4386
5105	64.7818
5100	64.8857
5095	65.2165
5090	65.4655
5085	65.3955
5080	65.2263
5075	64.821
5070	64.7405
5065	64.8491
5060	64.7374
5055	64.6652
5050	64.7236
5045	65.144
5040	64.9113
5035	64.3405
5030	64.3916
5025	64.233
5020	64.5987
5015	64.9738
5010	64.9665
5005	64.8348
5000	65.0302
4995	65.2538
4990	64.9313
4985	64.7969
4980	64.7322
4975	64.8503
4970	65.2371
4965	65.5027
4960	65.4099
4955	65.0232
4950	65.138
4945	65.3229
4940	65.1827
4935	65.0877
4930	65.1228
4925	65.0484
4920	65.1261
4915	65.35
4910	65.4203
4905	65.1244
4900	65.1704
4895	65.113
4890	64.8708
4885	64.6568
4880	64.5826
4875	64.6417
4870	64.7558
4865	64.9915
4860	64.7892
4855	64.8793
4850	64.8606
4845	64.7724
4840	64.9424
4835	64.8823
4830	64.8013
4825	64.8266
4820	64.5033
4815	64.3915
4810	64.5544
4805	64.5919
4800	64.6974
4795	64.8603
4790	65.1166
4785	65.2116
4780	65.0076
4775	64.9797
4770	64.9503
4765	64.9665
4760	65.0126
4755	64.9441
4750	64.9257
4745	64.9042
4740	64.9222
4735	64.8932
4730	64.791
4725	64.8526
4720	64.9599
4715	64.7897
4710	64.6361
4705	64.9642
4700	65.0572
4695	65.0111
4690	64.9648
4685	64.83
4680	64.7214
4675	64.7548
4670	64.7907
4665	64.6917
4660	64.6509
4655	64.8134
4650	65.0877
4645	65.1985
4640	65.2365
4635	65.2446
4630	65.2065
4625	65.2274
4620	65.0567
4615	64.9114
4610	65.1982
4605	65.2874
4600	65.1803
4595	65.0901
4590	65.1296
4585	65.2102
4580	65.1798
4575	64.9287
4570	64.7089
4565	64.8363
4560	65.0179
4555	65.3101
4550	65.3167
4545	64.9557
4540	64.9491
4535	65.1351
4530	64.9053
4525	64.7096
4520	64.8794
4515	65.0831
4510	65.1513
4505	65.2011
4500	65.3311
4495	65.4455
4490	65.2639
4485	65.1233
4480	65.3532
4475	65.4474
4470	65.3323
4465	65.3682
4460	65.0471
4455	65.0791
4450	65.2349
4445	65.2343
4440	65.1898
4435	65.0411
4430	64.7412
4425	64.6317
4420	64.8572
4415	65.2376
4410	66.2283
4405	66.9833
4400	65.2878
4395	71.2822
4390	93.4188
4385	53.5425
4380	40.256
4375	60.5253
4370	65.7308
4365	66.1344
4360	65.9988
4355	65.8009
4350	65.507
4345	65.159
4340	65.2843
4335	65.4745
4330	65.4641
4325	65.4401
4320	65.3248
4315	65.2617
4310	65.1186
4305	65.2676
4300	65.2795
4295	65.1846
4290	65.1452
4285	65.0642
4280	65.1305
4275	65.3449
4270	65.1534
4265	65.0091
4260	65.1071
4255	65.0784
4250	64.9941
4245	64.8849
4240	64.7687
4235	64.9312
4230	65.1304
4225	65.2003
4220	65.2975
4215	65.1021
4210	64.9583
4205	65.0214
4200	65.098
4195	65.3265
4190	65.3304
4185	65.1702
4180	64.9894
4175	64.7531
4170	64.7516
4165	64.8206
4160	64.8468
4155	64.9451
4150	65.0275
4145	64.8375
4140	64.7195
4135	64.9391
4130	65.0861
4125	64.8983
4120	64.7729
4115	64.9677
4110	65.175
4105	65.1152
4100	65.0756
4095	65.0638
4090	64.9775
4085	64.995
4080	65.1787
4075	65.129
4070	64.8514
4065	64.8783
4060	64.9525
4055	64.9972
4050	65.2109
4045	65.1961
4040	65.0298
4035	64.9334
4030	64.974
4025	65.0785
4020	65.2497
4015	65.3138
4010	65.2408
4005	65.0996
4000	64.9051
3995	64.9411
3990	65.0473
3985	64.9855
3980	64.9249
3975	65.0061
3970	65.1384
3965	65.1537
3960	65.1772
3955	65.1825
3950	65.2577
3945	65.2768
3940	65.3804
3935	65.3235
3930	65.198
3925	65.1752
3920	65.0801
3915	65.1797
3910	65.3099
3905	65.1879
3900	65.0589
3895	65.2316
3890	65.4625
3885	65.4837
3880	65.345
3875	65.2202
3870	65.2139
3865	65.2129
3860	65.153
3855	65.1055
3850	65.1428
3845	65.0821
3840	64.9771
3835	64.9649
3830	65.0561
3825	65.176
3820	65.1215
3815	64.9899
3810	64.9983
3805	65.0621
3800	65.0796
3795	65.0737
3790	65.0038
3785	65.0043
3780	65.2137
3775	65.2253
3770	65.219
3765	65.2175
3760	65.1847
3755	65.1752
3750	65.2634
3745	65.184
3740	65.1595
3735	65.3207
3730	65.2372
3725	65.1368
3720	65.215
3715	65.3683
3710	65.3643
3705	65.1978
3700	65.1122
3695	65.1001
3690	65.0618
3685	65.0212
3680	65.0597
3675	65.2029
3670	65.1608
3665	64.879
3660	64.7981
3655	64.9408
3650	65.0937
3645	65.1432
3640	65.1474
3635	65.1543
3630	65.1053
3625	65.1373
3620	65.3075
3615	65.2913
3610	65.2276
3605	65.1877
3600	65.0772
3595	65.0386
3590	65.0605
3585	65.1345
3580	65.1394
3575	65.1059
3570	65.0514
3565	64.8774
3560	64.9181
3555	65.1342
3550	65.2125
3545	65.0978
3540	65.0349
3535	65.0761
3530	65.1612
3525	65.1389
3520	65.0935
3515	65.1279
3510	65.1404
3505	65.0187
3500	65.0244
3495	65.4295
3490	65.5007
3485	65.1881
3480	65.0406
3475	65.2958
3470	65.3975
3465	65.3498
3460	65.297
3455	65.2315
3450	65.1957
3445	65.3703
3440	65.4445
3435	65.3076
3430	65.0925
3425	64.8517
3420	64.8431
3415	64.9508
3410	65.0113
3405	65.0553
3400	65.075
3395	65.1039
3390	65.1922
3385	65.2831
3380	65.2091
3375	65.0749
3370	65.0213
3365	65.0563
3360	65.1337
3355	65.1847
3350	65.1852
3345	65.157
3340	65.313
3335	65.3563
3330	65.2005
3325	65.121
3320	65.2129
3315	65.1995
3310	65.1077
3305	65.0902
3300	65.0988
3295	65.0724
3290	65.0805
3285	65.0975
3280	65.0824
3275	65.1094
3270	65.2497
3265	65.1995
3260	65.091
3255	65.0301
3250	65.0259
3245	65.162
3240	65.2398
3235	65.208
3230	65.1329
3225	65.0522
3220	65.0403
3215	65.0694
3210	65.1291
3205	65.1352
3200	65.1668
3195	65.1275
3190	65.0731
3185	65.0482
3180	65.1017
3175	65.1947
3170	65.1957
3165	65.1263
3160	65.1637
3155	65.1463
3150	65.0169
3145	65.0113
3140	65.0883
3135	65.1658
3130	65.2164
3125	65.1206
3120	65.0099
3115	65.0088
3110	65.0856
3105	65.143
3100	65.2283
3095	65.2949
3090	65.3231
3085	65.3423
3080	65.3182
3075	65.2109
3070	65.1153
3065	65.1492
3060	65.1443
3055	65.1555
3050	65.109
3045	65.0631
3040	65.0653
3035	64.9028
3030	64.9374
3025	65.1768
3020	65.1819
3015	65.0885
3010	65.1273
3005	65.1263
3000	65.0343
2995	65.0988
2990	65.2437
2985	65.167
2980	65.0669
2975	65.1268
2970	65.1588
2965	65.0185
2960	64.8807
2955	64.9052
2950	64.9392
2945	65.0077
2940	65.0685
2935	64.988
2930	64.8438
2925	64.6902
2920	64.647
2915	64.7902
2910	64.9194
2905	64.9508
2900	64.9468
2895	64.9837
2890	64.9768
2885	64.9123
2880	64.9683
2875	65.0284
2870	64.985
2865	64.9912
2860	65.0491
2855	64.9843
2850	64.9327
2845	64.9801
2840	65.0449
2835	65.154
2830	65.2127
2825	65.1614
2820	65.0944
2815	65.0948
2810	65.1453
2805	65.2074
2800	65.2184
2795	65.2113
2790	65.1515
2785	65.0617
2780	65.1138
2775	65.1776
2770	65.2042
2765	65.2024
2760	65.1699
2755	65.1724
2750	65.1914
2745	65.1593
2740	65.2194
2735	65.3185
2730	65.3219
2725	65.1882
2720	65.1524
2715	65.1605
2710	65.1735
2705	65.208
2700	65.1731
2695	65.1283
2690	65.1277
2685	65.1503
2680	65.0767
2675	65.0816
2670	65.1725
2665	65.2047
2660	65.1535
2655	65.1187
2650	65.1832
2645	65.2123
2640	65.1904
2635	65.1941
2630	65.2416
2625	65.2095
2620	65.1376
2615	65.1122
2610	65.108
2605	65.281
2600	65.3535
2595	65.2632
2590	65.2225
2585	65.1728
2580	65.1519
2575	65.2457
2570	65.2671
2565	65.1538
2560	65.0958
2555	65.2303
2550	65.3015
2545	65.2233
2540	65.1868
2535	65.1834
2530	65.1528
2525	65.1582
2520	65.1005
2515	65.0815
2510	65.1912
2505	65.2622
2500	65.3136
2495	65.1611
2490	65.1423
2485	65.2613
2480	65.2331
2475	65.1864
2470	65.2048
2465	65.2974
2460	65.3471
2455	65.2541
2450	65.1359
2445	65.1317
2440	65.1405
2435	65.134
2430	65.2109
2425	65.2775
2420	65.2454
2415	65.2982
2410	65.2933
2405	65.2752
2400	65.2558
2395	65.1851
2390	65.2139
2385	65.2198
2380	65.1449
2375	65.1862
2370	65.2339
2365	65.2063
2360	65.2579
2355	65.2337
2350	65.2178
2345	65.2236
2340	65.2377
2335	65.261
2330	65.2628
2325	65.2305
2320	65.2373
2315	65.2373
2310	65.228
2305	65.2154
2300	65.2199
2295	65.3143
2290	65.3103
2285	65.2664
2280	65.2701
2275	65.2363
2270	65.2581
2265	65.3114
2260	65.3197
2255	65.3226
2250	65.314
2245	65.2865
2240	65.2585
2235	65.2431
2230	65.2354
2225	65.2437
2220	65.3093
2215	65.3132
2210	65.2568
2205	65.1938
2200	65.2271
2195	65.3044
2190	65.3583
2185	65.3345
2180	65.268
2175	65.2703
2170	65.2901
2165	65.2598
2160	65.3016
2155	65.2905
2150	65.2337
2145	65.2728
2140	65.2076
2135	65.1518
2130	65.1816
2125	65.2241
2120	65.2203
2115	65.1877
2110	65.1819
2105	65.1891
2100	65.2298
2095	65.2335
2090	65.0993
2085	65.0932
2080	65.2428
2075	65.2879
2070	65.2854
2065	65.2808
2060	65.2941
2055	65.317
2050	65.2093
2045	65.1507
2040	65.2066
2035	65.2032
2030	65.2387
2025	65.2882
2020	65.2056
2015	65.2099
2010	65.2671
2005	65.2736
2000	65.2639
1995	65.2416
1990	65.229
1985	65.2302
1980	65.25
1975	65.2989
1970	65.2551
1965	65.1914
1960	65.2146
1955	65.2737
1950	65.2916
1945	65.2902
1940	65.2827
1935	65.2413
1930	65.2555
1925	65.3111
1920	65.3044
1915	65.3226
1910	65.2807
1905	65.2464
1900	65.2966
1895	65.3179
1890	65.321
1885	65.3495
1880	65.3378
1875	65.2801
1870	65.2427
1865	65.2344
1860	65.2358
1855	65.2392
1850	65.2006
1845	65.1856
1840	65.1896
1835	65.205
1830	65.224
1825	65.1635
1820	65.1984
1815	65.3085
1810	65.3263
1805	65.2563
1800	65.217
1795	65.2887
1790	65.3102
1785	65.2739
1780	65.2654
1775	65.2866
1770	65.2671
1765	65.2785
1760	65.3116
1755	65.1945
1750	65.1035
1745	65.0997
1740	65.077
1735	65.0103
1730	64.9481
1725	65.0439
1720	65.1124
1715	65.0692
1710	65.1394
1705	65.1577
1700	65.0888
1695	65.081
1690	65.1795
1685	65.196
1680	65.2025
1675	65.1736
1670	65.1581
1665	65.1675
1660	65.0826
1655	65.0302
1650	65.0211
1645	65.0374
1640	65.0472
1635	65.0891
1630	65.0695
1625	65.1118
1620	65.1865
1615	65.1472
1610	65.1766
1605	65.1678
1600	65.162
1595	65.1051
1590	65.0937
1585	65.1461
1580	65.1654
1575	65.1242
1570	65.0157
1565	64.9769
1560	64.9714
1555	64.9837
1550	65.0722
1545	65.0712
1540	64.9601
1535	64.9741
1530	65.121
1525	65.1276
1520	64.9875
1515	65.0292
1510	65.1477
1505	65.1724
1500	65.1665
1495	65.1341
1490	65.1599
1485	65.1282
1480	65.1331
1475	65.0376
1470	64.9767
1465	65.0283
1460	65.1016
1455	65.0191
1450	64.9557
1445	64.9951
1440	65.0724
1435	65.1659
1430	65.1746
1425	65.0901
1420	65.0096
1415	64.9899
1410	64.9709
1405	65.0158
1400	65.1091
1395	65.0699
1390	64.9578
1385	64.9967
1380	64.9834
1375	64.9198
1370	64.8898
1365	64.9061
1360	65.0388
1355	65.0913
1350	65.0597
1345	65.0561
1340	65.0647
1335	65.0185
1330	64.9742
1325	64.948
1320	64.9888
1315	65.0565
1310	65.0449
1305	65.0414
1300	65.0393
1295	65.0111
1290	64.9831
1285	64.9559
1280	64.963
1275	64.9735
1270	64.9617
1265	65.0121
1260	65.0476
1255	64.9526
1250	64.8938
1245	64.9168
1240	64.9828
1235	64.9501
1230	64.9024
1225	65.0094
1220	65.0108
1215	65.0048
1210	65.0997
1205	64.9817
1200	64.872
1195	64.857
1190	64.8247
1185	64.8025
1180	64.8293
1175	64.8639
1170	64.9004
1165	64.9176
1160	64.8895
1155	64.8171
1150	64.839
1145	64.9284
1140	64.9247
1135	64.7671
1130	64.7053
1125	64.7481
1120	64.661
1115	64.6891
1110	64.8306
1105	64.8585
1100	64.7908
1095	64.6851
1090	64.7218
1085	64.8155
1080	64.7596
1075	64.5925
1070	64.6083
1065	64.7695
1060	64.7381
1055	64.5795
1050	64.5603
1045	64.8253
1040	64.8332
1035	64.7032
1030	64.7517
1025	64.7234
1020	64.6276
1015	64.655
1010	64.6823
1005	64.6944
1000	64.6596
995	 64.8166
990	 64.9138
985	 64.6909
980	 64.521
975	 64.6597
970	 64.8173
965	 64.8947
960	 65.0325
955	 64.9709
950	 64.585
945	 64.4366
940	 64.2129
935	 64.1709
930	 64.6752
925	 64.6314
920	 63.571
915	 63.7039
910	 64.5098
905	 64.4637
900	 64.3212
895	 64.2493
890	 64.1519
885	 64.2842
880	 64.5601
875	 64.5808
870	 64.6733
865	 64.6533
860	 64.3329
855	 64.2049
850	 64.3722
845	 64.2471
840	 63.9696
835	 63.9561
830	 63.9907
825	 63.862
820	 63.8189
815	 64.1108
810	 64.1732
805	 64.1027
800	 64.0033
795	 63.9188
790	 63.9614
785	 63.9394
780	 63.8236
775	 64.0047
770	 64.1284
765	 64.0815
760	 63.8227
755	 63.7342
750	 63.5992
745	 63.4448
740	 63.6177
735	 63.6547
730	 63.7402
725	 63.6264
720	 63.4499
715	 63.5465
710	 63.5983
705	 63.5262
700	 63.3898
695	 63.5211
690	 63.6209
685	 63.223
680	 62.8373
675	 62.8584
670	 63.1313
665	 62.9396
660	 62.5975
655	 62.6029
650	 62.6177
645	 62.712
640	 62.7207
635	 62.6193
630	 62.8604
625	 63.1813
620	 62.8747
615	 62.4112
610	 62.2392
605	 62.2329
600	 62.0844
595	 62.0827
590	 62.1152
585	 61.7304
580	 61.5599
575	 61.7543
570	 62.0238
565	 62.1846
560	 62.0659
555	 62.0255
550	 62.0948
545	 61.8982
540	 61.5852
535	 61.4115
530	 61.4956
525	 61.6232
520	 61.6405
515	 61.6266
510	 61.8764
505	 62.0776
500	 61.3885
495	 60.4858
490	 59.9999
485	 59.8893
480	 59.519
475	 59.6653
470	 59.8622
465	 59.7609
460	 60.1638
455	 60.7083
450	 60.2601
445	 59.2592
440	 57.9506
435	 57.2191
430	 57.3997
425	 57.4375
420	 57.262
415	 55.2368
410	 54.2619
405	 56.7631
400	 54.3946
395	 59.8651
390	 62.3255
385	 61.6334
380	 62.5355
375	 50.0955
370	 52.5917