File: Bakgrunnsmateriale/MATLAB/FTIR/ftir_data/subBb/Mapping_36/C-4040-8_t17.asc
PE IR       SPECTRUM    SPECTRUM    ASCII       PEDS        1.60
  -1
C-B926~1.ASC
17/05/02
12:17:20.00
17/05/02
12:17:46.00
tln
$C-4040-8_t0017$<tbV0>[-7.5,-3.0,8.0,0.0,22,1,0]
27.028
64

2002,4.07
MIRTGS : RIGHTBACK : INTERNAL 2
MIR : ON : INTERNAL 2
OPTKBR

0.200000
8
8.000000
FILLER
RATIO
SPECTRUM
UNLOCKED 256

DOUBLE
64
COMBINED
1
0
0

0.002000
RATIO

1
0
TRUE
51149
0
LEFT NOT FITTED RIGHT NOT FITTED 0
NONE
NONE
15600
12
4.427000
51148
TRUE
1 0 8 72 0 0 0 0

15798

#HDR
-1
-1
#GR
µM
%T
2.38419e-05
0.0
1.282000
0.002000
12874
8
83.2724
46.2058
#DATA
1.282000	 73.4895
1.300000	 62.8424
1.318000	 63.273
1.336000	 66.8103
1.354000	 68.5015
1.372000	 61.5573
1.390000	 63.1768
1.408000	 63.0035
1.426000	 61.5805
1.444000	 64.6604
1.462000	 63.6601
1.480000	 64.6987
1.498000	 62.3202
1.516000	 65.4369
1.534000	 66.926
1.552000	 64.778
1.570000	 64.7978
1.588000	 64.4532
1.606000	 64.2712
1.624000	 63.9727
1.642000	 64.5095
1.660000	 65.0245
1.678000	 65.2144
1.696000	 65.1254
1.714000	 64.5685
1.732000	 65.0589
1.750000	 64.3125
1.768000	 63.8305
1.786000	 64.7802
1.804000	 65.5681
1.822000	 64.7774
1.840000	 65.2589
1.858000	 64.9588
1.876000	 64.2489
1.894000	 64.3243
1.912000	 64.9238
1.930000	 65.018
1.948000	 64.827
1.966000	 65.2484
1.984000	 64.7963
2.002000	 65.2621
2.020000	 64.9077
2.038000	 65.0633
2.056000	 64.9285
2.074000	 65.0416
2.092000	 65.2278
2.110000	 64.9157
2.128000	 65.447
2.146000	 65.3454
2.164000	 65.0547
2.182000	 65.1258
2.200000	 64.8354
2.218000	 64.6173
2.236000	 64.6929
2.254000	 64.6993
2.272000	 63.1129
2.290000	 65.84
2.308000	 64.7625
2.326000	 64.7488
2.344000	 64.7349
2.362000	 64.813
2.380000	 64.6929
2.398000	 65.0655
2.416000	 64.8373
2.434000	 65.2464
2.452000	 65.1028
2.470000	 65.287
2.488000	 65.4095
2.506000	 65.0055
2.524000	 65.3646
2.542000	 65.3077
2.560000	 65.0292
2.578000	 65.2939
2.596000	 65.2982
2.614000	 65.3309
2.632000	 64.9182
2.650000	 65.2158
2.668000	 65.2613
2.686000	 65.1677
2.704000	 65.2283
2.722000	 65.1939
2.740000	 65.2624
2.758000	 65.2803
2.776000	 65.4121
2.794000	 65.3755
2.812000	 65.2702
2.830000	 65.0864
2.848000	 64.9424
2.866000	 65.1612
2.884000	 65.2905
2.902000	 65.2406
2.920000	 65.3527
2.938000	 65.1462
2.956000	 65.2139
2.974000	 65.1674
2.992000	 65.2509
3.010000	 65.1678
3.028000	 65.1289
3.046000	 65.2587
3.064000	 65.1814
3.082000	 64.9997
3.100000	 65.0102
3.118000	 65.163
3.136000	 65.2785
3.154000	 65.0702
3.172000	 65.2419
3.190000	 65.2989
3.208000	 65.0347
3.226000	 65.1298
3.244000	 65.2852
3.262000	 65.2883
3.280000	 65.3113
3.298000	 65.1556
3.316000	 65.1786
3.334000	 65.1674
3.352000	 65.2915
3.370000	 65.0035
3.388000	 65.0311
3.406000	 65.097
3.424000	 64.8393
3.442000	 65.0973
3.460000	 65.1844
3.478000	 65.1335
3.496000	 65.2151
3.514000	 64.9171
3.532000	 65.244
3.550000	 65.2794
3.568000	 65.2728
3.586000	 65.2733
3.604000	 65.2435
3.622000	 65.1582
3.640000	 65.2764
3.658000	 65.3774
3.676000	 65.2676
3.694000	 65.2607
3.712000	 65.2552
3.730000	 65.2673
3.748000	 65.161
3.766000	 65.1426
3.784000	 65.3038
3.802000	 65.3576
3.820000	 65.1866
3.838000	 65.2737
3.856000	 65.3851
3.874000	 65.2628
3.892000	 65.3525
3.910000	 65.3308
3.928000	 65.2512
3.946000	 65.3072
3.964000	 65.2471
3.982000	 65.334
4.000000	 65.239
4.018000	 65.2853
4.036000	 65.3804
4.054000	 65.2947
4.072000	 65.3041
4.090000	 65.3659
4.108000	 65.389
4.125999	 65.316
4.144000	 65.3704
4.162000	 65.3297
4.180000	 65.3479
4.198000	 65.3485
4.216000	 65.4999
4.234000	 65.3395
4.252000	 65.3686
4.270000	 65.3253
4.288000	 65.2127
4.306000	 65.2329
4.324000	 65.3571
4.342000	 65.1964
4.359999	 65.2856
4.378000	 65.2489
4.396000	 65.3309
4.414000	 65.3581
4.432000	 65.3093
4.450000	 65.2574
4.468000	 65.4527
4.486000	 65.2571
4.504000	 65.362
4.522000	 65.2999
4.540000	 65.355
4.558000	 65.3906
4.576000	 65.3907
4.594000	 65.2259
4.612000	 65.3135
4.630000	 65.4036
4.648000	 65.4764
4.666000	 65.3571
4.684000	 65.1544
4.702000	 65.2195
4.720000	 65.3378
4.738000	 65.4239
4.756000	 65.2942
4.774000	 65.3158
4.792000	 65.3361
4.810000	 65.2931
4.828000	 65.3075
4.846000	 65.2207
4.864000	 65.3161
4.882000	 65.2738
4.900000	 65.3732
4.918000	 65.3624
4.936000	 65.2278
4.954000	 65.2076
4.972000	 65.2484
4.990000	 65.298
5.008000	 65.2456
5.026000	 65.2666
5.044000	 65.2584
5.062000	 65.2543
5.080000	 65.1843
5.098000	 65.2949
5.116000	 65.2882
5.134000	 65.2851
5.152000	 65.2976
5.170000	 65.2029
5.188000	 65.2985
5.206000	 65.2802
5.224000	 65.3064
5.242000	 65.2446
5.260000	 65.3269
5.278000	 65.3099
5.296000	 65.2432
5.314000	 65.3127
5.332000	 65.246
5.350000	 65.294
5.368000	 65.2517
5.386000	 65.2524
5.404000	 65.3402
5.422000	 65.347
5.440000	 65.3234
5.458000	 65.3126
5.476000	 65.272
5.494000	 65.2401
5.512000	 65.2671
5.530000	 65.2657
5.548000	 65.2034
5.566000	 65.1937
5.584000	 65.1448
5.602000	 65.2424
5.620000	 65.3522
5.638000	 65.3059
5.656000	 65.2157
5.674000	 65.2646
5.692000	 65.2811
5.710000	 65.2295
5.728000	 65.2496
5.746000	 65.2364
5.764000	 65.086
5.782000	 65.0358
5.800000	 65.1671
5.818000	 65.135
5.836000	 65.1176
5.854000	 65.2029
5.872000	 65.1755
5.890000	 65.145
5.908000	 65.1617
5.926000	 65.178
5.944000	 65.2077
5.962000	 65.1824
5.980000	 65.1995
5.998000	 65.2436
6.016000	 65.1185
6.034000	 65.0613
6.052000	 65.1544
6.070000	 65.2308
6.088000	 65.1752
6.106000	 65.1141
6.124000	 65.1357
6.142000	 65.2066
6.160000	 65.2353
6.178000	 65.2105
6.196000	 65.1067
6.214000	 65.0083
6.232000	 65.0671
6.250000	 65.1599
6.268000	 65.1751
6.286000	 65.1638
6.304000	 65.1739
6.322000	 65.229
6.340000	 65.2112
6.358000	 65.09
6.376000	 64.9803
6.394000	 65.0149
6.412000	 65.0838
6.430000	 65.0235
6.448000	 64.9736
6.466000	 65.0139
6.484000	 65.0787
6.502000	 65.0831
6.520000	 65.1058
6.538000	 65.1281
6.556000	 65.136
6.574000	 65.1517
6.592000	 65.1605
6.610000	 65.1577
6.628000	 65.0819
6.646000	 65.0517
6.664000	 65.1496
6.682000	 65.1679
6.700000	 65.0487
6.718000	 64.9832
6.736000	 65.0216
6.754000	 65.0925
6.772000	 65.109
6.790000	 65.0958
6.808000	 65.1125
6.826000	 65.134
6.844000	 65.0941
6.862000	 64.9904
6.880000	 64.9262
6.898000	 64.9584
6.916000	 65.0328
6.934000	 65.0747
6.952000	 65.0707
6.970000	 65.0562
6.988000	 65.0634
7.006000	 65.075
7.024000	 65.0171
7.042000	 64.9491
7.060000	 64.9743
7.078000	 64.9915
7.096000	 64.9521
7.114000	 64.9754
7.132000	 65.0679
7.150000	 65.1089
7.168000	 65.0377
7.186000	 64.9246
7.204000	 64.8952
7.222000	 64.9738
7.240000	 65.0636
7.258000	 65.0889
7.276000	 65.0594
7.294000	 65.017
7.312000	 64.9902
7.330000	 64.9914
7.348000	 65.0146
7.366000	 65.0358
7.384000	 65.0319
7.402000	 65.0012
7.420000	 64.9737
7.438000	 64.9746
7.456000	 64.9648
7.474000	 64.9165
7.492000	 64.8887
7.510000	 64.9214
7.528000	 64.9733
7.546000	 65.0014
7.564000	 64.9974
7.582000	 64.9842
7.600000	 64.9998
7.618000	 65.0382
7.636000	 65.0611
7.654000	 65.0612
7.672000	 65.0435
7.690000	 65.0046
7.708000	 64.9753
7.726000	 64.9944
7.744000	 65.025
7.762000	 64.9973
7.780000	 64.9245
7.798000	 64.8858
7.816000	 64.9108
7.834000	 64.951
7.852000	 64.9614
7.870000	 64.9519
7.888000	 64.9549
7.906000	 64.9782
7.924000	 64.9875
7.942000	 64.9396
7.960000	 64.847
7.978000	 64.7838
7.996000	 64.8035
8.013999	 64.8801
8.032000	 64.9481
8.050000	 64.9768
8.068000	 64.9847
8.086000	 64.9919
8.103999	 64.9849
8.122000	 64.9562
8.140000	 64.9419
8.158000	 64.9692
8.176000	 65.0034
8.193999	 64.9947
8.212000	 64.9531
8.230000	 64.9299
8.248000	 64.9517
8.266000	 65.0004
8.283999	 65.0406
8.302000	 65.0465
8.320000	 65.0151
8.338000	 64.9643
8.356000	 64.9154
8.374000	 64.8798
8.391999	 64.8621
8.410000	 64.8642
8.428000	 64.884
8.446000	 64.9178
8.464000	 64.9596
8.481999	 64.9992
8.500000	 65.0297
8.518000	 65.0556
8.536000	 65.0812
8.554000	 65.0905
8.571999	 65.0604
8.590000	 64.9944
8.608000	 64.9224
8.626000	 64.8685
8.644000	 64.8337
8.661999	 64.8097
8.680000	 64.7948
8.698000	 64.7901
8.716000	 64.7942
8.734000	 64.8025
8.751999	 64.8077
8.770000	 64.8008
8.788000	 64.783
8.806000	 64.77
8.824000	 64.7773
8.842000	 64.7973
8.859999	 64.8054
8.878000	 64.786
8.896000	 64.7502
8.914000	 64.7205
8.932000	 64.7105
8.949999	 64.7221
8.968000	 64.7548
8.986000	 64.8076
9.004000	 64.8717
9.022000	 64.9322
9.039999	 64.9742
9.058000	 64.9863
9.076000	 64.9612
9.094000	 64.9026
9.112000	 64.8301
9.129999	 64.7734
9.148000	 64.7543
9.166000	 64.7728
9.184000	 64.8085
9.202000	 64.8363
9.219999	 64.8385
9.238000	 64.8069
9.256000	 64.7425
9.274000	 64.661
9.292000	 64.5945
9.310000	 64.5734
9.327999	 64.6067
9.346000	 64.6773
9.364000	 64.7559
9.382000	 64.8176
9.400000	 64.8507
9.418000	 64.8537
9.436000	 64.8307
9.454000	 64.7891
9.472000	 64.7422
9.490000	 64.7102
9.508000	 64.7155
9.526000	 64.7701
9.544000	 64.8603
9.561999	 64.9489
9.580000	 64.9957
9.598000	 64.9862
9.616000	 64.9382
9.634000	 64.8841
9.652000	 64.8449
9.670000	 64.8202
9.688000	 64.7998
9.706000	 64.7783
9.724000	 64.7556
9.742000	 64.729
9.760000	 64.6908
9.778000	 64.6375
9.795999	 64.5791
9.814000	 64.5364
9.832000	 64.5274
9.850000	 64.5524
9.868000	 64.5966
9.886000	 64.6408
9.904000	 64.6706
9.922000	 64.6806
9.940000	 64.6741
9.958000	 64.6627
9.976000	 64.6606
9.994000	 64.675
10.012	64.7
10.03	64.721
10.048	64.7252
10.066	64.7101
10.084	64.683
10.102	64.651
10.12	64.6145
10.138	64.5713
10.156	64.5266
10.174	64.4964
10.192	64.499
10.21	64.5406
10.228	64.6059
10.246	64.6645
10.264	64.6851
10.282	64.6567
10.3	64.5965
10.318	64.5412
10.336	64.5251
10.354	64.5559
10.372	64.6121
10.39	64.6546
10.408	64.6532
10.426	64.6024
10.444	64.5237
10.462	64.4517
10.48	64.4158
10.498	64.4279
10.516	64.4787
10.534	64.5472
10.552	64.6101
10.57	64.6499
10.588	64.6561
10.606	64.6262
10.624	64.5651
10.642	64.4859
10.66	64.4066
10.678	64.3449
10.696	64.3083
10.714	64.2927
10.732	64.2846
10.75	64.2724
10.768	64.2562
10.786	64.2481
10.804	64.2647
10.822	64.3121
10.84	64.3806
10.858	64.4481
10.876	64.4935
10.894	64.51
10.912	64.5071
10.93	64.5051
10.948	64.5186
10.966	64.5479
10.984	64.5802
11.002	64.5965
11.02	64.5862
11.038	64.5518
11.056	64.506
11.074	64.4632
11.092	64.4305
11.11	64.4052
11.128	64.3775
11.146	64.3375
11.164	64.2821
11.182	64.2181
11.2	64.1609
11.218	64.1276
11.236	64.1357
11.254	64.1943
11.272	64.3033
11.29	64.4522
11.308	64.6209
11.326	64.7802
11.344	64.9017
11.362	64.9629
11.38	64.9553
11.398	64.889
11.416	64.7921
11.434	64.7007
11.452	64.6494
11.47	64.6582
11.488	64.7235
11.506	64.821
11.524	64.914
11.542	64.968
11.56	64.9594
11.578	64.8824
11.596	64.7467
11.614	64.5733
11.632	64.3872
11.65	64.2116
11.668	64.0671
11.686	63.9672
11.704	63.9179
11.722	63.9165
11.74	63.9523
11.758	64.009
11.776	64.0668
11.794	64.1099
11.812	64.1308
11.83	64.1294
11.848	64.1115
11.866	64.0853
11.884	64.0577
11.902	64.033
11.92	64.0121
11.938	63.9938
11.956	63.9762
11.974	63.9572
11.992	63.9361
12.01	63.9139
12.028	63.8944
12.046	63.8833
12.064	63.8862
12.082	63.9069
12.1	63.9467
12.118	64.0013
12.136	64.0615
12.154	64.1168
12.172	64.1586
12.19	64.182
12.208	64.1876
12.226	64.178
12.244	64.1556
12.262	64.1203
12.28	64.0693
12.298	64.0007
12.316	63.9158
12.334	63.8213
12.352	63.7281
12.37	63.6495
12.388	63.5972
12.406	63.5785
12.424	63.5947
12.442	63.6413
12.46	63.71
12.478	63.7908
12.496	63.8739
12.514	63.9507
12.532	64.014
12.55	64.0583
12.568	64.0793
12.586	64.0759
12.604	64.0502
12.622	64.0082
12.64	63.9588
12.658	63.9114
12.676	63.8746
12.694	63.8536
12.712	63.8505
12.73	63.864
12.748	63.8906
12.766	63.9255
12.784	63.9641
12.802	64.0022
12.82	64.0363
12.838	64.0633
12.856	64.0809
12.874	64.0876
12.892	64.0832
12.91	64.0693
12.928	64.0492
12.946	64.0275
12.964	64.0088
12.982	63.9965
13	63.9916
13.018	63.9928
13.036	63.9972
13.054	64.0014
13.072	64.0021
13.09	63.9975
13.108	63.9871
13.126	63.9722
13.144	63.9547
13.162	63.9366
13.18	63.919
13.198	63.9024
13.216	63.8861
13.234	63.8685
13.252	63.8482
13.27	63.8242
13.288	63.7964
13.306	63.7661
13.324	63.7352
13.342	63.7062
13.36	63.6816
13.378	63.6631
13.396	63.6518
13.414	63.6474
13.432	63.6492
13.45	63.6558
13.468	63.6659
13.486	63.6782
13.504	63.6919
13.522	63.7069
13.54	63.723
13.558	63.7402
13.576	63.758
13.594	63.7752
13.612	63.7906
13.63	63.8023
13.648	63.8092
13.666	63.8102
13.684	63.8055
13.702	63.7955
13.72	63.7814
13.738	63.7639
13.756	63.7442
13.774	63.7232
13.792	63.7015
13.81	63.6791
13.828	63.6564
13.846	63.6336
13.864	63.6108
13.882	63.5878
13.9	63.5645
13.918	63.5408
13.936	63.5166
13.954	63.492
13.972	63.4674
13.99	63.4435
14.008	63.4212
14.026	63.4017
14.044	63.3858
14.062	63.3738
14.08	63.3654
14.098	63.3596
14.116	63.3547
14.134	63.3489
14.152	63.3406
14.17	63.3291
14.188	63.3147
14.206	63.2987
14.224	63.2835
14.242	63.2725
14.26	63.2687
14.278	63.2745
14.296	63.2907
14.314	63.3168
14.332	63.3504
14.35	63.388
14.368	63.4252
14.386	63.4573
14.404	63.4803
14.422	63.4915
14.44	63.4899
14.458	63.4762
14.476	63.4523
14.494	63.4213
14.512	63.3867
14.53	63.3524
14.548	63.321
14.566	63.2941
14.584	63.2724
14.602	63.2554
14.62	63.2419
14.638	63.2302
14.656	63.2184
14.674	63.2048
14.692	63.1885
14.71	63.1689
14.728	63.1457
14.746	63.1195
14.764	63.0909
14.782	63.0609
14.8	63.0305
14.818	63.0007
14.836	62.9725
14.854	62.9469
14.872	62.9245
14.89	62.9061
14.908	62.8918
14.926	62.882
14.944	62.8761
14.962	62.8737
14.98	62.8738
14.998	62.8757
15.016	62.8786
15.034	62.8817
15.052	62.8846
15.07	62.8873
15.088	62.8901
15.106	62.8936
15.124	62.8986
15.142	62.9056
15.16	62.9148
15.178	62.926
15.196	62.9385
15.214	62.9513
15.232	62.9627
15.25	62.9711
15.268	62.975
15.286	62.9733
15.304	62.9657
15.322	62.9527
15.34	62.9356
15.358	62.9158
15.376	62.896
15.394	62.8782
15.412	62.864
15.43	62.8546
15.448	62.8501
15.466	62.8494
15.484	62.8507
15.502	62.8521
15.52	62.8503
15.538	62.8431
15.556	62.8288
15.574	62.8064
15.592	62.776
15.61	62.7394
15.628	62.6988
15.646	62.6572
15.664	62.6187
15.682	62.5867
15.7	62.5639
15.718	62.553
15.736	62.5553
15.754	62.5708
15.772	62.5988
15.79	62.6376
15.808	62.6844
15.826	62.737
15.844	62.7927
15.862	62.8482
15.88	62.9014
15.898	62.9506
15.916	62.9943
15.934	63.0314
15.952	63.0615
15.97	63.0842
15.988	63.0992
16.006	63.1066
16.024	63.1061
16.042	63.0981
16.06	63.0826
16.078	63.06
16.096	63.0308
16.114	62.9959
16.132	62.9563
16.15	62.9133
16.168	62.8687
16.186	62.8236
16.204	62.7794
16.222	62.7375
16.24	62.6988
16.258	62.6638
16.276	62.6329
16.294	62.6064
16.312	62.5842
16.33	62.566
16.348	62.5517
16.366	62.541
16.384	62.5333
16.402	62.5278
16.42	62.524
16.438	62.5207
16.456	62.517
16.474	62.5121
16.492	62.5048
16.51	62.4944
16.528	62.4807
16.546	62.4632
16.564	62.4422
16.582	62.4181
16.6	62.3916
16.618	62.3635
16.636	62.3347
16.654	62.3063
16.672	62.2788
16.69	62.253
16.708	62.2301
16.726	62.2105
16.744	62.1946
16.762	62.1832
16.78	62.176
16.798	62.1731
16.816	62.1739
16.834	62.1778
16.852	62.1838
16.87	62.1904
16.888	62.1968
16.906	62.2011
16.924	62.2026
16.942	62.2004
16.96	62.1938
16.978	62.1832
16.996	62.1686
17.014	62.1514
17.032	62.1323
17.05	62.1132
17.068	62.0954
17.086	62.0803
17.104	62.0694
17.122	62.0632
17.14	62.0627
17.158	62.0677
17.176	62.0779
17.194	62.0923
17.212	62.1101
17.23	62.13
17.248	62.1504
17.266	62.1703
17.284	62.1877
17.302	62.202
17.32	62.212
17.338	62.2172
17.356	62.2174
17.374	62.2125
17.392	62.2028
17.41	62.1886
17.428	62.1709
17.446	62.1499
17.464	62.1267
17.482	62.1017
17.5	62.0758
17.518	62.0494
17.536	62.0229
17.554	61.9971
17.572	61.972
17.59	61.9482
17.608	61.9261
17.626	61.9061
17.644	61.8887
17.662	61.8742
17.68	61.8631
17.698	61.8556
17.716	61.8519
17.734	61.8517
17.752	61.8548
17.77	61.8604
17.788	61.8682
17.806	61.8765
17.824	61.8849
17.842	61.8919
17.86	61.897
17.878	61.8993
17.896	61.8985
17.914	61.8947
17.932	61.8881
17.95	61.8791
17.968	61.8691
17.986	61.8589
18.004	61.8499
18.022	61.8436
18.04	61.841
18.058	61.8433
18.076	61.8509
18.094	61.8643
18.112	61.8834
18.13	61.9076
18.148	61.9359
18.166	61.9674
18.184	62.0001
18.202	62.0331
18.22	62.0641
18.238	62.0924
18.256	62.1159
18.274	62.1342
18.292	62.1462
18.31	62.1517
18.328	62.1507
18.346	62.1433
18.364	62.1302
18.382	62.1119
18.4	62.0894
18.418	62.0637
18.436	62.0356
18.454	62.0062
18.472	61.976
18.49	61.9461
18.508	61.9167
18.526	61.8885
18.544	61.8614
18.562	61.8359
18.58	61.8121
18.598	61.7897
18.616	61.7686
18.634	61.7485
18.652	61.7291
18.67	61.7097
18.688	61.6901
18.706	61.6696
18.724	61.6478
18.742	61.6243
18.76	61.5988
18.778	61.5709
18.796	61.5408
18.814	61.5085
18.832	61.4742
18.85	61.4383
18.868	61.4016
18.886	61.3645
18.904	61.3281
18.922	61.2931
18.94	61.2605
18.958	61.2311
18.976	61.2055
18.994	61.1845
19.012	61.1682
19.03	61.1571
19.048	61.1509
19.066	61.1496
19.084	61.1524
19.102	61.159
19.12	61.1682
19.138	61.1792
19.156	61.191
19.174	61.2025
19.192	61.2129
19.21	61.221
19.228	61.2266
19.246	61.2287
19.264	61.2274
19.282	61.2223
19.3	61.2138
19.318	61.2024
19.336	61.1885
19.354	61.1733
19.372	61.157
19.39	61.1413
19.408	61.1262
19.426	61.1132
19.444	61.1021
19.462	61.0939
19.48	61.0887
19.498	61.0861
19.516	61.0865
19.534	61.0887
19.552	61.0926
19.57	61.0971
19.588	61.1017
19.606	61.1057
19.624	61.1084
19.642	61.1096
19.66	61.1085
19.678	61.1054
19.696	61.1002
19.714	61.093
19.732	61.0843
19.75	61.0742
19.768	61.0633
19.786	61.0518
19.804	61.0401
19.822	61.0285
19.84	61.0169
19.858	61.0054
19.876	60.9939
19.894	60.9821
19.912	60.9699
19.93	60.9566
19.948	60.9422
19.966	60.9262
19.984	60.9084
20.002	60.8888
20.02	60.8672
20.038	60.8438
20.056	60.8184
20.074	60.7914
20.092	60.7631
20.11	60.7336
20.128	60.7037
20.146	60.6732
20.164	60.643
20.182	60.6132
20.2	60.5844
20.218	60.5573
20.236	60.532
20.254	60.5094
20.272	60.4893
20.29	60.4727
20.308	60.4596
20.326	60.45
20.344	60.4441
20.362	60.4418
20.38	60.4429
20.398	60.4472
20.416	60.4538
20.434	60.4627
20.452	60.4723
20.47	60.4825
20.488	60.492
20.506	60.4992
20.524	60.5044
20.542	60.5052
20.56	60.5021
20.578	60.4935
20.596	60.479
20.614	60.4586
20.632	60.4312
20.65	60.3973
20.668	60.3569
20.686	60.3099
20.704	60.2573
20.722	60.199
20.74	60.136
20.758	60.0698
20.776	60
20.794	59.9292
20.812	59.8569
20.83	59.7851
20.848	59.7152
20.866	59.6471
20.884	59.5833
20.902	59.5234
20.92	59.4692
20.938	59.4214
20.956	59.3801
20.974	59.3469
20.992	59.3213
21.01	59.3039
21.028	59.295
21.046	59.2941
21.064	59.3008
21.082	59.3154
21.1	59.336
21.118	59.3629
21.136	59.3948
21.154	59.4298
21.172	59.4684
21.19	59.5074
21.208	59.547
21.226	59.5855
21.244	59.6205
21.262	59.6529
21.28	59.6794
21.298	59.7003
21.316	59.7145
21.334	59.7204
21.352	59.7186
21.37	59.7083
21.388	59.6892
21.406	59.662
21.424	59.627
21.442	59.584
21.46	59.5348
21.478	59.4795
21.496	59.4188
21.514	59.3549
21.532	59.287
21.55	59.2173
21.568	59.1468
21.586	59.0754
21.604	59.0051
21.622	58.9356
21.64	58.8676
21.658	58.802
21.676	58.7385
21.694	58.6774
21.712	58.6189
21.73	58.5627
21.748	58.5083
21.766	58.4559
21.784	58.4049
21.802	58.355
21.82	58.3062
21.838	58.2578
21.856	58.2097
21.874	58.1622
21.892	58.115
21.91	58.0681
21.928	58.0223
21.946	57.9775
21.964	57.9338
21.982	57.893
22	57.8545
22.018	57.8193
22.036	57.7887
22.054	57.7621
22.072	57.7408
22.09	57.7258
22.108	57.7166
22.126	57.714
22.144	57.7182
22.162	57.729
22.18	57.7464
22.198	57.7708
22.216	57.8011
22.234	57.8368
22.252	57.8783
22.27	57.9238
22.288	57.973
22.306	58.0258
22.324	58.0799
22.342	58.1357
22.36	58.1922
22.378	58.2473
22.396	58.3017
22.414	58.3541
22.432	58.4025
22.45	58.4481
22.468	58.4888
22.486	58.5237
22.504	58.5534
22.522	58.576
22.54	58.5913
22.558	58.5994
22.576	58.5985
22.594	58.5888
22.612	58.57
22.63	58.5408
22.648	58.5016
22.666	58.4521
22.684	58.392
22.702	58.3212
22.72	58.2404
22.738	58.15
22.756	58.0494
22.774	57.9408
22.792	57.8252
22.81	57.7017
22.828	57.5739
22.846	57.4427
22.864	57.3076
22.882	57.1729
22.9	57.0394
22.918	56.9067
22.936	56.7795
22.954	56.6579
22.972	56.542
22.99	56.4359
23.008	56.3396
23.026	56.253
23.044	56.1789
23.062	56.1171
23.08	56.0675
23.098	56.0306
23.116	56.0071
23.134	55.9958
23.152	55.9954
23.17	56.0072
23.188	56.0292
23.206	56.0582
23.224	56.0958
23.242	56.1398
23.26	56.1864
23.278	56.2371
23.296	56.2899
23.314	56.3409
23.332	56.391
23.35	56.4394
23.368	56.4828
23.386	56.522
23.404	56.5565
23.422	56.5849
23.44	56.6067
23.458	56.6226
23.476	56.6329
23.494	56.6369
23.512	56.6356
23.53	56.6305
23.548	56.6213
23.566	56.6083
23.584	56.5942
23.602	56.5791
23.62	56.5628
23.638	56.5476
23.656	56.5347
23.674	56.5231
23.692	56.5139
23.71	56.5081
23.728	56.5052
23.746	56.5045
23.764	56.5061
23.782	56.5106
23.8	56.5156
23.818	56.5193
23.836	56.5236
23.854	56.5255
23.872	56.5217
23.89	56.514
23.908	56.5006
23.926	56.4776
23.944	56.4458
23.962	56.4049
23.98	56.3526
23.998	56.2882
24.016	56.2125
24.034	56.125
24.052	56.025
24.07	55.9125
24.088	55.7898
24.106	55.658
24.124	55.515
24.142	55.3651
24.16	55.2128
24.178	55.0548
24.196	54.8946
24.214	54.7393
24.232	54.5874
24.25	54.4391
24.268	54.3019
24.286	54.1785
24.304	54.0655
24.322	53.9683
24.34	53.8913
24.358	53.8317
24.376	53.791
24.394	53.7717
24.412	53.7745
24.43	53.7975
24.448	53.8391
24.466	53.9001
24.484	53.9805
24.502	54.0758
24.52	54.1837
24.538	54.3077
24.556	54.4417
24.574	54.5787
24.592	54.7233
24.61	54.8719
24.628	55.015
24.646	55.1507
24.664	55.2829
24.682	55.4031
24.7	55.5045
24.718	55.5925
24.736	55.6629
24.754	55.7096
24.772	55.7326
24.79	55.7334
24.808	55.7104
24.826	55.6617
24.844	55.5878
24.862	55.4913
24.88	55.3748
24.898	55.2348
24.916	55.0748
24.934	54.902
24.952	54.7177
24.97	54.5182
24.988	54.3124
25.006	54.1086
25.024	53.9003
25.042	53.6923
25.06	53.4943
25.078	53.3083
25.096	53.1299
25.114	52.9665
25.132	52.8248
25.15	52.7012
25.168	52.5967
25.186	52.5151
25.204	52.4586
25.222	52.4251
25.24	52.4136
25.258	52.4233
25.276	52.4565
25.294	52.5104
25.312	52.5807
25.33	52.6661
25.348	52.7695
25.366	52.8855
25.384	53.009
25.402	53.1448
25.42	53.2897
25.438	53.4348
25.456	53.575
25.474	53.7182
25.492	53.8553
25.51	53.9755
25.528	54.0796
25.546	54.1707
25.564	54.2412
25.582	54.2846
25.6	54.3045
25.618	54.3004
25.636	54.2694
25.654	54.2097
25.672	54.1232
25.69	54.0097
25.708	53.8689
25.726	53.6993
25.744	53.5023
25.762	53.2812
25.78	53.0387
25.798	52.7717
25.816	52.4828
25.834	52.1765
25.852	51.854
25.87	51.5113
25.888	51.1549
25.906	50.792
25.924	50.4206
25.942	50.0388
25.96	49.6557
25.978	49.2797
25.996	48.9035
26.014	48.5304
26.032	48.1721
26.05	47.8366
26.068	47.5121
26.086	47.2085
26.104	46.9402
26.122	46.7133
26.14	46.5164
26.158	46.3605
26.176	46.2585
26.194	46.2117
26.212	46.213
26.23	46.2711
26.248	46.3949
26.266	46.5843
26.284	46.8357
26.302	47.1494
26.32	47.5264
26.338	47.9719
26.356	48.4799
26.374	49.0401
26.392	49.6449
26.41	50.3075
26.428	51.0167
26.446	51.7542
26.464	52.5083
26.482	53.2986
26.5	54.1083
26.518	54.9136
26.536	55.7018
26.554	56.4947
26.572	57.2742
26.59	58.0178
26.608	58.7154
26.626	59.3855
26.644	60.0134
26.662	60.5819
26.68	61.0834
26.698	61.5301
26.716	61.916
26.734	62.2341
26.752	62.4792
26.77	62.6547
26.788	62.7666
26.806	62.8209
26.824	62.8161
26.842	62.7471
26.86	62.6263
26.878	62.467
26.896	62.2689
26.914	62.0214
26.932	61.7426
26.95	61.4518
26.968	61.1368
26.986	60.771
27.004	60.4202
27.022	60.1528
27.028	60.1023