File: Bakgrunnsmateriale/MATLAB/FTIR/ftir_data/subBb/Mapping_36/C-4040-8_t03_cm-1.asc
PE IR       SPECTRUM    SPECTRUM    ASCII       PEDS        1.60
  -1
C-99E1~1.ASC
17/05/02
11:04:08.00
17/05/02
11:04:08.00
tln
$C-4040-8_t0003$<tbV0>[2.5,-13.0,8.0,0.0,22,1,0]
370
64

2002,4.07
MIRTGS : RIGHTBACK : INTERNAL 2
MIR : ON : INTERNAL 2
OPTKBR

0.200000
8
8.000000
FILLER
RATIO
SPECTRUM
UNLOCKED 256

DOUBLE
64
COMBINED
1
0
0

1.000000
RATIO

1
0
TRUE
51149
0
LEFT NOT FITTED RIGHT NOT FITTED 0
NONE
NONE
15600
12
4.427000
51148
TRUE
1 0 8 72 0 0 0 0

15798

#HDR
-1
-1
#GR
CM-1
%T
2.38419e-05
0.0
7800
-1.000000
7431
8
73.852
25.5955
#DATA
7800	70.6359
7795	64.6712
7790	59.215
7785	59.7077
7780	62.8079
7775	67.1017
7770	72.9908
7765	66.3398
7760	63.7365
7755	63.2831
7750	61.8
7745	62.4613
7740	64.6866
7735	66.0734
7730	62.0459
7725	58.4965
7720	61.3229
7715	64.4903
7710	62.9215
7705	65.5524
7700	68.4544
7695	68.7965
7690	66.5451
7685	61.9391
7680	70.3702
7675	73.4901
7670	70.4744
7665	68.4237
7660	65.7329
7655	66.0948
7650	66.082
7645	60.8621
7640	64.047
7635	67.7274
7630	64.5153
7625	61.3874
7620	62.431
7615	64.9034
7610	65.8813
7605	65.4303
7600	63.4419
7595	61.5737
7590	61.7115
7585	61.4191
7580	59.5797
7575	58.9238
7570	58.8843
7565	61.8159
7560	68.3136
7555	69.8505
7550	66.0361
7545	63.9026
7540	64.3475
7535	64.0252
7530	64.694
7525	63.8541
7520	65.1251
7515	70.1475
7510	66.2867
7505	58.7514
7500	59.3792
7495	63.4255
7490	63.5154
7485	63.1023
7480	61.3345
7475	60.8512
7470	63.8283
7465	64.4077
7460	64.5426
7455	65.653
7450	67.0504
7445	66.5859
7440	64.9364
7435	63.0184
7430	61.0408
7425	63.3588
7420	65.3218
7415	63.9307
7410	66.839
7405	67.318
7400	66.7316
7395	66.2297
7390	63.2132
7385	61.5196
7380	62.2697
7375	62.7255
7370	62.0629
7365	64.1234
7360	65.8227
7355	64.9292
7350	63.0626
7345	63.8945
7340	65.1607
7335	65.7072
7330	66.415
7325	66.8302
7320	66.8637
7315	66.3959
7310	63.6777
7305	60.8273
7300	61.2245
7295	62.6235
7290	62.1786
7285	62.7034
7280	64.2847
7275	64.6738
7270	64.437
7265	62.4363
7260	60.3645
7255	60.6491
7250	63.0513
7245	62.9158
7240	60.4432
7235	61.1827
7230	64.8717
7225	66.8206
7220	66.8347
7215	64.9508
7210	62.0455
7205	61.0779
7200	63.8049
7195	64.7631
7190	64.9447
7185	66.557
7180	67.1947
7175	67.434
7170	65.5099
7165	61.6407
7160	60.2254
7155	61.6849
7150	62.2804
7145	63.4065
7140	62.9848
7135	62.4122
7130	62.6277
7125	63.9346
7120	66.0476
7115	67.3444
7110	64.8677
7105	64.3287
7100	65.1506
7095	64.9348
7090	63.6689
7085	63.3476
7080	62.99
7075	63.1456
7070	62.9586
7065	63.1688
7060	64.1995
7055	63.0013
7050	62.7391
7045	63.5032
7040	62.6355
7035	61.8582
7030	64.115
7025	65.8491
7020	64.3741
7015	61.8329
7010	59.8032
7005	60.6129
7000	62.7847
6995	62.5464
6990	64.4561
6985	65.3029
6980	64.0049
6975	65.6886
6970	66.2839
6965	64.337
6960	64.0569
6955	63.9697
6950	63.2663
6945	63.605
6940	63.3454
6935	62.6457
6930	63.1473
6925	62.9407
6920	62.2736
6915	62.1812
6910	63.3766
6905	63.5902
6900	63.3167
6895	64.6308
6890	66.3285
6885	64.3002
6880	62.2815
6875	62.5765
6870	62.4527
6865	62.5987
6860	63.8763
6855	65.4918
6850	64.7954
6845	62.4615
6840	61.1801
6835	61.2759
6830	62.7017
6825	63.2856
6820	64.5865
6815	65.2651
6810	63.8888
6805	62.7787
6800	61.3071
6795	60.9144
6790	62.1097
6785	63.5968
6780	64.2339
6775	63.7211
6770	63.6748
6765	65.1396
6760	64.133
6755	63.2947
6750	63.188
6745	62.4966
6740	62.3331
6735	62.0053
6730	61.7376
6725	63.2362
6720	64.0371
6715	63.2964
6710	62.4577
6705	62.677
6700	64.0648
6695	64.8752
6690	64.6455
6685	64.3562
6680	63.4588
6675	62.4555
6670	61.9328
6665	62.7786
6660	63.2498
6655	63.0874
6650	63.8808
6645	64.3346
6640	64.9225
6635	65.2567
6630	63.6505
6625	63.735
6620	64.6783
6615	64.3025
6610	63.724
6605	63.7678
6600	62.8171
6595	62.2771
6590	63.2944
6585	63.0855
6580	62.3904
6575	62.3211
6570	62.5956
6565	63.7115
6560	64.2433
6555	64.4649
6550	64.3737
6545	63.2847
6540	62.7172
6535	62.8779
6530	63.0457
6525	63.7421
6520	63.9699
6515	64.2511
6510	64.6162
6505	63.988
6500	63.7573
6495	65.1092
6490	64.8295
6485	63.1313
6480	62.5093
6475	62.6064
6470	63.1175
6465	63.735
6460	63.5684
6455	63.0999
6450	63.2395
6445	64.1724
6440	65.0281
6435	65.1575
6430	64.8327
6425	64.268
6420	63.6703
6415	63.7819
6410	64.0531
6405	63.5414
6400	62.5062
6395	62.8152
6390	63.6911
6385	64.209
6380	64.2514
6375	63.4888
6370	63.3401
6365	63.8096
6360	64.1801
6355	63.2841
6350	62.1916
6345	63.8409
6340	64.5114
6335	64.3559
6330	64.6886
6325	63.4806
6320	62.1238
6315	61.4266
6310	62.0267
6305	63.1492
6300	63.7912
6295	64.4021
6290	64.9681
6285	64.4518
6280	64.6091
6275	65.522
6270	65.2674
6265	64.3965
6260	63.105
6255	63.1335
6250	63.8674
6245	63.6977
6240	63.7875
6235	63.5691
6230	63.543
6225	63.5935
6220	63.4066
6215	62.6978
6210	62.2313
6205	62.5692
6200	62.8379
6195	63.2862
6190	63.4074
6185	62.7111
6180	62.9882
6175	63.4382
6170	63.7387
6165	63.9664
6160	63.3848
6155	63.1534
6150	63.3324
6145	63.4487
6140	64.0083
6135	64.5613
6130	64.0198
6125	63.1548
6120	63.4451
6115	63.4414
6110	63.411
6105	63.6917
6100	64.1307
6095	64.2508
6090	64.1335
6085	63.8879
6080	63.3889
6075	63.3095
6070	63.3064
6065	63.1189
6060	63.2139
6055	62.8682
6050	62.9955
6045	64.1154
6040	63.6493
6035	63.3724
6030	64.4555
6025	64.3569
6020	63.3173
6015	63.1574
6010	63.8139
6005	63.352
6000	63.165
5995	64.5458
5990	64.6608
5985	63.9422
5980	63.9471
5975	64.1016
5970	63.9473
5965	64.0428
5960	63.9429
5955	63.2104
5950	62.803
5945	63.3235
5940	64.1745
5935	63.982
5930	63.3175
5925	62.8151
5920	62.931
5915	63.4912
5910	63.7898
5905	63.372
5900	63.0814
5895	63.2974
5890	63.4863
5885	63.9312
5880	64.1363
5875	63.3841
5870	63.1182
5865	63.7162
5860	63.4111
5855	63.3348
5850	63.7217
5845	63.6684
5840	64.2122
5835	64.364
5830	63.8627
5825	63.5345
5820	63.5718
5815	64.0126
5810	64.2774
5805	64.4097
5800	64.6743
5795	64.4431
5790	63.4796
5785	63.3017
5780	63.4091
5775	63.0569
5770	63.1682
5765	63.9363
5760	63.4161
5755	62.8853
5750	63.9365
5745	64.23
5740	63.82
5735	63.6616
5730	63.5892
5725	63.4911
5720	63.636
5715	64.145
5710	64.5804
5705	63.8378
5700	62.8955
5695	63.0518
5690	63.1543
5685	63.5128
5680	63.9547
5675	63.8184
5670	63.6374
5665	63.9174
5660	63.6934
5655	63.9472
5650	64.1098
5645	63.6307
5640	63.5945
5635	63.7311
5630	64.2916
5625	64.5731
5620	64.3404
5615	63.8144
5610	63.4613
5605	63.9077
5600	64.4766
5595	64.4483
5590	63.8511
5585	63.9957
5580	64.465
5575	64.1117
5570	64.0461
5565	64.3149
5560	64.2236
5555	64.0744
5550	64.0532
5545	63.6974
5540	63.7486
5535	63.8688
5530	63.8605
5525	63.6693
5520	63.5567
5515	64.1191
5510	64.3645
5505	64.1351
5500	64.3598
5495	64.4312
5490	64.3613
5485	64.4994
5480	64.4348
5475	64.2801
5470	63.7264
5465	63.3532
5460	63.647
5455	63.7726
5450	63.8326
5445	64.2274
5440	64.5319
5435	63.7708
5430	63.1073
5425	63.3181
5420	63.6938
5415	64.0959
5410	64.2972
5405	64.0428
5400	63.8787
5395	63.9525
5390	63.8356
5385	63.4363
5380	63.4513
5375	63.6945
5370	64.129
5365	64.0703
5360	63.5895
5355	63.8172
5350	64.4384
5345	64.6038
5340	64.0253
5335	63.0685
5330	63.238
5325	64.178
5320	64.5414
5315	64.2268
5310	64.0974
5305	63.0203
5300	63.1732
5295	63.5822
5290	61.3803
5285	60.9176
5280	62.5465
5275	62.4046
5270	63.5846
5265	64.2911
5260	63.0324
5255	64.3066
5250	65.1709
5245	65.5433
5240	64.7987
5235	64.0813
5230	63.5566
5225	62.0859
5220	63.1792
5215	64.0193
5210	64.0711
5205	64.8405
5200	65.3673
5195	63.5817
5190	61.7284
5185	62.0721
5180	64.082
5175	64.8175
5170	64.0886
5165	63.8613
5160	63.6296
5155	62.5931
5150	62.4953
5145	63.4476
5140	63.6236
5135	63.5305
5130	63.6468
5125	63.901
5120	64.2115
5115	64.0664
5110	63.9864
5105	63.622
5100	63.3611
5095	63.6322
5090	63.4537
5085	63.255
5080	63.5367
5075	63.5719
5070	63.4844
5065	63.8398
5060	64.3919
5055	64.3341
5050	64.0806
5045	64.0745
5040	63.7901
5035	63.7081
5030	63.8798
5025	64.1244
5020	64.1997
5015	63.9257
5010	63.8036
5005	63.9183
5000	64.0761
4995	63.7951
4990	63.5594
4985	63.6474
4980	63.554
4975	63.3314
4970	63.4904
4965	63.9677
4960	63.7698
4955	63.453
4950	63.7145
4945	63.9869
4940	63.833
4935	63.3663
4930	63.4201
4925	63.9622
4920	63.8634
4915	63.5889
4910	63.868
4905	63.977
4900	63.6444
4895	63.9168
4890	64.6449
4885	64.1556
4880	63.6348
4875	63.8066
4870	63.8725
4865	63.6802
4860	63.9118
4855	63.8658
4850	63.6361
4845	63.4876
4840	63.6068
4835	63.8835
4830	63.7974
4825	63.8149
4820	64.0817
4815	63.9398
4810	63.8336
4805	63.8255
4800	63.7233
4795	63.6922
4790	63.8525
4785	63.9704
4780	63.8627
4775	63.9907
4770	64.0898
4765	63.8746
4760	63.7597
4755	63.7822
4750	63.7783
4745	63.7796
4740	63.7767
4735	63.6352
4730	63.7927
4725	63.9487
4720	63.9112
4715	63.7701
4710	63.5478
4705	63.8694
4700	64.2552
4695	64.2442
4690	63.9128
4685	63.5502
4680	63.64
4675	63.7873
4670	63.7662
4665	63.8534
4660	63.7918
4655	63.7777
4650	63.7252
4645	63.3418
4640	63.2515
4635	63.3901
4630	63.5384
4625	63.9073
4620	64.1722
4615	64.0156
4610	63.7545
4605	63.7779
4600	63.9202
4595	63.9445
4590	63.9658
4585	63.9354
4580	63.8919
4575	63.8032
4570	63.8404
4565	63.9816
4560	63.7783
4555	63.4478
4550	63.7151
4545	64.1032
4540	63.8864
4535	63.5224
4530	63.4999
4525	63.5798
4520	63.4743
4515	63.3573
4510	63.556
4505	63.7348
4500	63.7397
4495	63.6123
4490	63.5431
4485	63.838
4480	63.9711
4475	63.7445
4470	63.7962
4465	63.817
4460	63.8086
4455	64.0311
4450	64.0208
4445	63.6522
4440	63.796
4435	64.3465
4430	64.2699
4425	64.384
4420	65.0822
4415	65.8992
4410	67.1472
4405	67.8166
4400	62.352
4395	53.5808
4390	53.4686
4385	61.6674
4380	65.5051
4375	64.409
4370	64.0111
4365	64.6879
4360	64.1882
4355	63.2682
4350	63.6556
4345	64.0303
4340	63.9393
4335	63.8245
4330	63.571
4325	63.2595
4320	63.4904
4315	63.6725
4310	63.562
4305	63.4821
4300	63.5619
4295	63.5784
4290	63.4819
4285	63.4683
4280	63.5584
4275	63.5837
4270	63.6553
4265	63.7091
4260	63.7184
4255	63.7553
4250	63.7227
4245	63.624
4240	63.9004
4235	63.8937
4230	63.6855
4225	63.5788
4220	63.6102
4215	63.781
4210	63.7662
4205	63.5482
4200	63.4169
4195	63.5343
4190	63.5983
4185	63.5976
4180	63.5237
4175	63.7062
4170	63.6875
4165	63.6516
4160	63.5676
4155	63.3431
4150	63.3118
4145	63.4134
4140	63.5706
4135	63.6335
4130	63.4406
4125	63.3943
4120	63.2507
4115	63.3475
4110	63.4369
4105	63.4254
4100	63.5049
4095	63.688
4090	63.5714
4085	63.3627
4080	63.4485
4075	63.6563
4070	63.6428
4065	63.3817
4060	63.4045
4055	63.5582
4050	63.4052
4045	63.326
4040	63.2537
4035	63.295
4030	63.3164
4025	63.3877
4020	63.4446
4015	63.3551
4010	63.2638
4005	63.3458
4000	63.3953
3995	63.2962
3990	63.2494
3985	63.2023
3980	63.2929
3975	63.3419
3970	63.3883
3965	63.4135
3960	63.3847
3955	63.3628
3950	63.1795
3945	63.0787
3940	63.2968
3935	63.4317
3930	63.3036
3925	63.1399
3920	63.0539
3915	63.2229
3910	63.3381
3905	63.2915
3900	63.2066
3895	63.1676
3890	63.2106
3885	63.1891
3880	63.1332
3875	63.2375
3870	63.1524
3865	63.0033
3860	63.0464
3855	63.1888
3850	63.1093
3845	63.1188
3840	63.2431
3835	63.2246
3830	63.1525
3825	63.0343
3820	62.8677
3815	62.7138
3810	62.7308
3805	63.0529
3800	63.1515
3795	62.8972
3790	62.9341
3785	63.201
3780	63.1563
3775	62.9187
3770	62.8972
3765	63.0236
3760	63.1003
3755	63.0876
3750	62.9487
3745	62.8532
3740	62.8227
3735	62.877
3730	62.9278
3725	62.9365
3720	62.9531
3715	62.9143
3710	62.8788
3705	62.8668
3700	62.8861
3695	62.8216
3690	62.7985
3685	62.7841
3680	62.7692
3675	62.84
3670	62.8184
3665	62.7799
3660	62.8039
3655	62.7613
3650	62.6197
3645	62.6127
3640	62.7166
3635	62.7982
3630	62.7932
3625	62.6842
3620	62.6042
3615	62.5315
3610	62.4036
3605	62.4135
3600	62.5616
3595	62.6004
3590	62.5069
3585	62.4908
3580	62.4521
3575	62.4565
3570	62.4977
3565	62.5249
3560	62.4742
3555	62.4528
3550	62.3422
3545	62.3293
3540	62.4562
3535	62.3696
3530	62.3012
3525	62.3121
3520	62.363
3515	62.306
3510	62.1984
3505	62.0996
3500	62.0373
3495	62.1612
3490	62.1778
3485	62.0132
3480	62.1454
3475	62.2558
3470	62.1874
3465	62.1961
3460	62.2427
3455	62.2833
3450	62.2113
3445	62.0601
3440	62.1001
3435	62.1722
3430	62.126
3425	62.0965
3420	62.0234
3415	61.8912
3410	61.789
3405	61.934
3400	62.0365
3395	61.9874
3390	62.0161
3385	61.8809
3380	61.7478
3375	61.7857
3370	61.7988
3365	61.8609
3360	61.9153
3355	61.7594
3350	61.7398
3345	61.698
3340	61.7121
3335	61.8716
3330	61.8339
3325	61.5512
3320	61.4962
3315	61.5684
3310	61.5768
3305	61.6188
3300	61.5838
3295	61.5293
3290	61.5639
3285	61.4835
3280	61.3801
3275	61.3652
3270	61.3671
3265	61.4216
3260	61.4539
3255	61.4675
3250	61.411
3245	61.3451
3240	61.361
3235	61.3439
3230	61.1487
3225	61.0857
3220	61.1714
3215	61.2204
3210	61.1698
3205	61.2041
3200	61.2441
3195	61.2282
3190	61.2135
3185	61.1425
3180	61.1264
3175	61.2489
3170	61.3553
3165	61.26
3160	61.1701
3155	61.1493
3150	60.9955
3145	60.9592
3140	61.0508
3135	60.9823
3130	60.8314
3125	61.0383
3120	61.2726
3115	61.1466
3110	61.0121
3105	60.9259
3100	60.856
3095	60.8511
3090	60.8854
3085	60.8928
3080	60.9173
3075	60.8911
3070	60.8647
3065	60.8649
3060	60.7946
3055	60.7414
3050	60.8021
3045	60.8894
3040	60.8949
3035	60.8335
3030	60.6618
3025	60.662
3020	60.6643
3015	60.6379
3010	60.5323
3005	60.4087
3000	60.3939
2995	60.3786
2990	60.4182
2985	60.4556
2980	60.3675
2975	60.2255
2970	60.0967
2965	60.1106
2960	60.1577
2955	60.1684
2950	60.1792
2945	60.0575
2940	59.9718
2935	60.0084
2930	60.0352
2925	59.9105
2920	59.8011
2915	59.9615
2910	60.0302
2905	59.9685
2900	59.9536
2895	59.8847
2890	59.8793
2885	59.9677
2880	59.8923
2875	59.8512
2870	59.9051
2865	59.8765
2860	59.8612
2855	59.7689
2850	59.7028
2845	59.699
2840	59.6841
2835	59.7194
2830	59.6972
2825	59.6699
2820	59.6565
2815	59.5868
2810	59.5265
2805	59.5129
2800	59.524
2795	59.5796
2790	59.6073
2785	59.6631
2780	59.6424
2775	59.5642
2770	59.4938
2765	59.3559
2760	59.2897
2755	59.2995
2750	59.2227
2745	59.2234
2740	59.247
2735	59.2119
2730	59.2604
2725	59.2568
2720	59.2106
2715	59.1418
2710	59.0585
2705	59.0489
2700	59.0834
2695	59.0277
2690	58.8521
2685	58.8198
2680	58.9278
2675	58.8901
2670	58.8648
2665	58.9084
2660	58.8745
2655	58.763
2650	58.6637
2645	58.6522
2640	58.6321
2635	58.5494
2630	58.499
2625	58.4815
2620	58.5215
2615	58.563
2610	58.5031
2605	58.5173
2600	58.4973
2595	58.3553
2590	58.3011
2585	58.3724
2580	58.3382
2575	58.2789
2570	58.3009
2565	58.2922
2560	58.3085
2555	58.2648
2550	58.0893
2545	57.9903
2540	58.0097
2535	58.0589
2530	58.0497
2525	58.0514
2520	58.1326
2515	58.1331
2510	58.0599
2505	58.0047
2500	57.9532
2495	57.8421
2490	57.7854
2485	57.7723
2480	57.7381
2475	57.717
2470	57.7599
2465	57.7697
2460	57.7025
2455	57.6184
2450	57.5647
2445	57.5784
2440	57.5154
2435	57.484
2430	57.4404
2425	57.4388
2420	57.354
2415	57.2645
2410	57.2915
2405	57.3263
2400	57.3099
2395	57.2438
2390	57.2387
2385	57.1944
2380	57.112
2375	57.1328
2370	57.1276
2365	57.1016
2360	57.06
2355	56.9809
2350	56.91
2345	56.9443
2340	56.9675
2335	56.8539
2330	56.8223
2325	56.8188
2320	56.7908
2315	56.8049
2310	56.8262
2305	56.7623
2300	56.7021
2295	56.5766
2290	56.4709
2285	56.499
2280	56.5059
2275	56.4707
2270	56.4435
2265	56.4422
2260	56.4135
2255	56.3502
2250	56.2994
2245	56.2873
2240	56.2631
2235	56.1908
2230	56.1092
2225	56.0127
2220	55.94
2215	55.9249
2210	55.8983
2205	55.8096
2200	55.8702
2195	55.9673
2190	55.9007
2185	55.8212
2180	55.8465
2175	55.87
2170	55.8019
2165	55.7313
2160	55.6088
2155	55.5774
2150	55.6886
2145	55.6432
2140	55.5014
2135	55.4092
2130	55.3864
2125	55.3527
2120	55.3268
2115	55.3834
2110	55.3513
2105	55.2887
2100	55.3193
2095	55.3234
2090	55.2432
2085	55.1083
2080	55.0809
2075	55.2353
2070	55.1867
2065	55.0225
2060	54.8897
2055	54.7998
2050	54.8196
2045	54.8392
2040	54.8294
2035	54.7586
2030	54.7158
2025	54.6645
2020	54.6557
2015	54.6848
2010	54.663
2005	54.6246
2000	54.6193
1995	54.6642
1990	54.6355
1985	54.4299
1980	54.3254
1975	54.3411
1970	54.326
1965	54.3516
1960	54.3331
1955	54.2179
1950	54.145
1945	54.087
1940	54.0658
1935	54.0323
1930	53.9679
1925	53.9383
1920	53.8871
1915	53.8668
1910	53.9083
1905	53.9537
1900	53.8818
1895	53.7301
1890	53.7112
1885	53.7195
1880	53.6389
1875	53.6056
1870	53.6103
1865	53.5673
1860	53.5799
1855	53.5283
1850	53.4226
1845	53.3456
1840	53.2853
1835	53.3034
1830	53.2943
1825	53.2495
1820	53.24
1815	53.1989
1810	53.13
1805	53.1051
1800	53.0302
1795	52.9907
1790	53.0144
1785	52.9276
1780	52.8828
1775	52.923
1770	52.9052
1765	52.8454
1760	52.7559
1755	52.6101
1750	52.5499
1745	52.5349
1740	52.4387
1735	52.3792
1730	52.3672
1725	52.3459
1720	52.3693
1715	52.4787
1710	52.4195
1705	52.2827
1700	52.2166
1695	52.1664
1690	52.1745
1685	52.1098
1680	52.0672
1675	52.0233
1670	52.0022
1665	52.0021
1660	51.9196
1655	51.8455
1650	51.8172
1645	51.8775
1640	51.8514
1635	51.7989
1630	51.7433
1625	51.6757
1620	51.607
1615	51.5175
1610	51.4378
1605	51.3823
1600	51.3584
1595	51.3454
1590	51.3054
1585	51.2074
1580	51.1935
1575	51.1735
1570	51.0931
1565	51.1139
1560	51.13
1555	51.0919
1550	51.0079
1545	50.9499
1540	50.967
1535	50.9653
1530	50.9275
1525	50.8076
1520	50.7781
1515	50.7373
1510	50.7546
1505	50.802
1500	50.6954
1495	50.5045
1490	50.526
1485	50.5212
1480	50.449
1475	50.4263
1470	50.3459
1465	50.3333
1460	50.3423
1455	50.2835
1450	50.1339
1445	50.0337
1440	50.011
1435	50.0154
1430	49.9533
1425	49.9537
1420	50.0499
1415	50.0123
1410	49.8684
1405	49.7777
1400	49.7468
1395	49.7651
1390	49.7723
1385	49.6996
1380	49.614
1375	49.5668
1370	49.5691
1365	49.5709
1360	49.5422
1355	49.5231
1350	49.4971
1345	49.5044
1340	49.5249
1335	49.3914
1330	49.2435
1325	49.1603
1320	49.2024
1315	49.1816
1310	49.0561
1305	49.0525
1300	49.0472
1295	49.0066
1290	48.9345
1285	48.796
1280	48.6981
1275	48.6971
1270	48.7411
1265	48.7349
1260	48.6086
1255	48.5208
1250	48.5098
1245	48.5107
1240	48.5229
1235	48.4761
1230	48.3893
1225	48.339
1220	48.2959
1215	48.3361
1210	48.3782
1205	48.2671
1200	48.1045
1195	48.054
1190	47.9871
1185	47.894
1180	47.8863
1175	47.9057
1170	47.8956
1165	47.853
1160	47.8349
1155	47.7033
1150	47.6452
1145	47.6084
1140	47.5263
1135	47.455
1130	47.3805
1125	47.3749
1120	47.3177
1115	47.2871
1110	47.2533
1105	47.1321
1100	47.1464
1095	47.116
1090	47.0291
1085	46.8534
1080	46.8132
1075	46.8108
1070	46.7595
1065	46.8031
1060	46.8693
1055	46.8638
1050	46.8018
1045	46.7577
1040	46.7164
1035	46.6958
1030	46.6995
1025	46.7085
1020	46.5408
1015	46.4068
1010	46.2434
1005	46.1788
1000	46.2704
995	 46.3295
990	 46.2361
985	 45.9822
980	 45.8801
975	 45.8194
970	 45.6814
965	 45.6582
960	 45.6831
955	 45.6378
950	 45.4426
945	 45.3816
940	 45.5609
935	 45.7628
930	 45.629
925	 45.3531
920	 45.3554
915	 45.4271
910	 45.4676
905	 45.6221
900	 45.3963
895	 45.22
890	 45.0391
885	 45.0058
880	 45.158
875	 44.932
870	 44.5131
865	 44.2102
860	 44.0997
855	 44.2366
850	 44.3675
845	 43.9606
840	 43.8686
835	 44.2282
830	 44.116
825	 44.0231
820	 44.1146
815	 44.0524
810	 43.9641
805	 43.9083
800	 43.8164
795	 43.486
790	 43.2444
785	 43.3868
780	 43.5136
775	 43.4018
770	 43.2396
765	 43.3283
760	 43.2544
755	 42.9729
750	 42.9469
745	 42.9279
740	 42.8428
735	 42.7341
730	 42.6007
725	 42.5294
720	 42.5643
715	 42.4861
710	 42.2231
705	 41.8764
700	 41.8361
695	 41.7617
690	 41.5056
685	 41.3913
680	 41.3438
675	 41.3677
670	 41.3199
665	 41.0613
660	 40.8038
655	 40.7399
650	 40.781
645	 40.7179
640	 40.7657
635	 40.9339
630	 40.7602
625	 40.4129
620	 40.1658
615	 40.0583
610	 40.1595
605	 40.2352
600	 39.9127
595	 39.7551
590	 39.6758
585	 39.3304
580	 39.0189
575	 39.1207
570	 38.9764
565	 38.6641
560	 38.8038
555	 38.6681
550	 38.465
545	 38.1346
540	 37.7193
535	 37.5636
530	 37.8139
525	 37.8515
520	 37.2941
515	 36.8982
510	 36.8018
505	 36.2748
500	 36.1323
495	 36.1717
490	 35.7468
485	 35.1624
480	 34.8759
475	 34.7791
470	 34.6944
465	 34.9318
460	 35.12
455	 33.7944
450	 33.9782
445	 34.4637
440	 33.4616
435	 32.6364
430	 31.6016
425	 31.1704
420	 31.0127
415	 29.5428
410	 28.954
405	 28.2947
400	 28.8512
395	 25.9157
390	 29.4615
385	 34.0371
380	 32.8908
375	 47.3678
370	 67.1411