File: Bakgrunnsmateriale/MATLAB/FTIR/ftir_data/subBb/Mapping_36/C-4040-8_t35.asc
PE IR       SPECTRUM    SPECTRUM    ASCII       PEDS        1.60
  -1
C-B13E~1.ASC
17/05/02
13:49:26.00
17/05/02
13:49:52.00
tln
$C-4040-8_t0035$<tbV0>[-7.5,12.0,8.0,0.0,22,1,0]
27.028
64

2002,4.07
MIRTGS : RIGHTBACK : INTERNAL 2
MIR : ON : INTERNAL 2
OPTKBR

0.200000
8
8.000000
FILLER
RATIO
SPECTRUM
UNLOCKED 256

DOUBLE
64
COMBINED
1
0
0

0.002000
RATIO

1
0
TRUE
51149
0
LEFT NOT FITTED RIGHT NOT FITTED 0
NONE
NONE
15600
12
4.427000
51148
TRUE
1 0 8 72 0 0 0 0

15798

#HDR
-1
-1
#GR
µM
%T
2.38419e-05
0.0
1.282000
0.002000
12874
8
80.9255
37.6758
#DATA
1.282000	 65.5983
1.300000	 69.6496
1.318000	 69.846
1.336000	 64.3771
1.354000	 65.6162
1.372000	 65.4252
1.390000	 63.2097
1.408000	 63.1109
1.426000	 66.347
1.444000	 64.6067
1.462000	 63.0472
1.480000	 63.1235
1.498000	 63.4745
1.516000	 66.0273
1.534000	 64.891
1.552000	 64.6583
1.570000	 64.9635
1.588000	 65.06
1.606000	 64.9483
1.624000	 65.0382
1.642000	 64.7314
1.660000	 64.8848
1.678000	 64.5988
1.696000	 64.3373
1.714000	 64.5216
1.732000	 65.1425
1.750000	 64.911
1.768000	 64.8555
1.786000	 65.9315
1.804000	 64.7976
1.822000	 64.7883
1.840000	 64.0775
1.858000	 65.1585
1.876000	 64.1539
1.894000	 62.5616
1.912000	 63.8917
1.930000	 64.8885
1.948000	 64.5723
1.966000	 64.8987
1.984000	 64.3036
2.002000	 64.8206
2.020000	 64.3925
2.038000	 64.2878
2.056000	 64.1415
2.074000	 64.6881
2.092000	 64.9693
2.110000	 64.8849
2.128000	 64.4463
2.146000	 64.9095
2.164000	 64.6327
2.182000	 64.9671
2.200000	 64.7716
2.218000	 64.9187
2.236000	 64.6623
2.254000	 65.0513
2.272000	 65.2689
2.290000	 66.2625
2.308000	 64.3132
2.326000	 65.173
2.344000	 65.0867
2.362000	 65.1422
2.380000	 65.0539
2.398000	 64.5367
2.416000	 64.5853
2.434000	 65.1802
2.452000	 64.5807
2.470000	 65.1026
2.488000	 64.8147
2.506000	 64.9698
2.524000	 65.1975
2.542000	 64.8378
2.560000	 64.8686
2.578000	 64.8572
2.596000	 65.0503
2.614000	 64.9141
2.632000	 65.1463
2.650000	 64.8655
2.668000	 64.8771
2.686000	 65.0763
2.704000	 65.0695
2.722000	 64.9615
2.740000	 65.1836
2.758000	 64.9812
2.776000	 64.8915
2.794000	 65.0294
2.812000	 64.9713
2.830000	 64.8878
2.848000	 64.89
2.866000	 65.1004
2.884000	 65.0637
2.902000	 65.0946
2.920000	 65.3068
2.938000	 64.9396
2.956000	 65.0666
2.974000	 65.1251
2.992000	 64.8459
3.010000	 64.8946
3.028000	 64.8035
3.046000	 64.865
3.064000	 64.9963
3.082000	 64.9587
3.100000	 64.9827
3.118000	 64.8481
3.136000	 64.9644
3.154000	 64.8458
3.172000	 65.0146
3.190000	 64.7185
3.208000	 64.9229
3.226000	 64.9823
3.244000	 65.0289
3.262000	 65.0367
3.280000	 64.9303
3.298000	 64.957
3.316000	 65.0171
3.334000	 65.043
3.352000	 64.9461
3.370000	 64.7784
3.388000	 64.8335
3.406000	 64.6769
3.424000	 64.643
3.442000	 64.818
3.460000	 64.9422
3.478000	 64.8251
3.496000	 64.9469
3.514000	 64.8172
3.532000	 64.8943
3.550000	 64.9703
3.568000	 65.0934
3.586000	 64.9755
3.604000	 65.1109
3.622000	 64.9919
3.640000	 64.9918
3.658000	 64.9482
3.676000	 64.9464
3.694000	 65
3.712000	 65.0545
3.730000	 65.0793
3.748000	 64.9303
3.766000	 64.9602
3.784000	 64.9977
3.802000	 65.0577
3.820000	 64.8932
3.838000	 64.9529
3.856000	 65.0962
3.874000	 64.9141
3.892000	 65.0471
3.910000	 65.1572
3.928000	 64.9739
3.946000	 64.9716
3.964000	 64.9706
3.982000	 65.0136
4.000000	 65.0946
4.018000	 65.1062
4.036000	 65.0509
4.054000	 65.1725
4.072000	 65.11
4.090000	 65.1439
4.108000	 65.1228
4.125999	 65.1408
4.144000	 65.0703
4.162000	 64.9779
4.180000	 65.0296
4.198000	 64.9594
4.216000	 65.0574
4.234000	 64.9569
4.252000	 64.9015
4.270000	 65.0506
4.288000	 65.1866
4.306000	 65.0518
4.324000	 65.0477
4.342000	 65.1356
4.359999	 65.1256
4.378000	 65.0806
4.396000	 64.9811
4.414000	 65.1185
4.432000	 65.1266
4.450000	 65.0987
4.468000	 65.0349
4.486000	 64.9902
4.504000	 64.9592
4.522000	 65.0126
4.540000	 65.0584
4.558000	 64.9581
4.576000	 65.0026
4.594000	 64.9964
4.612000	 65.0425
4.630000	 64.9292
4.648000	 64.9622
4.666000	 64.9789
4.684000	 64.9478
4.702000	 64.9893
4.720000	 65.0121
4.738000	 64.9629
4.756000	 64.9988
4.774000	 64.9428
4.792000	 64.9476
4.810000	 64.9764
4.828000	 64.9671
4.846000	 64.9248
4.864000	 64.954
4.882000	 65.0067
4.900000	 65.0562
4.918000	 64.9771
4.936000	 64.9483
4.954000	 64.995
4.972000	 65.0175
4.990000	 64.9834
5.008000	 64.9977
5.026000	 65.0202
5.044000	 65.0592
5.062000	 65.0671
5.080000	 65.078
5.098000	 64.9427
5.116000	 65.0589
5.134000	 65.0859
5.152000	 65.0615
5.170000	 65.0312
5.188000	 65.0618
5.206000	 65.0085
5.224000	 65.0878
5.242000	 65.1418
5.260000	 65.0226
5.278000	 65.0269
5.296000	 65.0006
5.314000	 64.9748
5.332000	 65.0316
5.350000	 65.051
5.368000	 65.0306
5.386000	 65.0526
5.404000	 65.0518
5.422000	 65.085
5.440000	 65.1424
5.458000	 65.0887
5.476000	 64.9324
5.494000	 64.9431
5.512000	 65.0369
5.530000	 65.0601
5.548000	 65.053
5.566000	 65.0305
5.584000	 64.9646
5.602000	 64.9928
5.620000	 65.0176
5.638000	 64.993
5.656000	 65.0302
5.674000	 65.0009
5.692000	 64.9443
5.710000	 64.945
5.728000	 64.8866
5.746000	 64.8393
5.764000	 64.7774
5.782000	 64.7302
5.800000	 64.8054
5.818000	 64.868
5.836000	 64.9696
5.854000	 65.0298
5.872000	 64.9922
5.890000	 64.9404
5.908000	 64.8869
5.926000	 64.8937
5.944000	 64.9247
5.962000	 64.9111
5.980000	 64.869
5.998000	 64.8901
6.016000	 64.9259
6.034000	 64.9037
6.052000	 64.8627
6.070000	 64.8056
6.088000	 64.8164
6.106000	 64.8814
6.124000	 64.8537
6.142000	 64.8717
6.160000	 64.8841
6.178000	 64.8453
6.196000	 64.8546
6.214000	 64.8756
6.232000	 64.8532
6.250000	 64.8237
6.268000	 64.7862
6.286000	 64.8099
6.304000	 64.8056
6.322000	 64.7425
6.340000	 64.7225
6.358000	 64.7314
6.376000	 64.7647
6.394000	 64.8288
6.412000	 64.8501
6.430000	 64.8268
6.448000	 64.78
6.466000	 64.7157
6.484000	 64.719
6.502000	 64.7637
6.520000	 64.7696
6.538000	 64.7286
6.556000	 64.7502
6.574000	 64.7953
6.592000	 64.7626
6.610000	 64.7465
6.628000	 64.7419
6.646000	 64.7377
6.664000	 64.7373
6.682000	 64.7309
6.700000	 64.7823
6.718000	 64.8612
6.736000	 64.8761
6.754000	 64.7769
6.772000	 64.6619
6.790000	 64.6732
6.808000	 64.7262
6.826000	 64.7217
6.844000	 64.7414
6.862000	 64.8079
6.880000	 64.8143
6.898000	 64.7418
6.916000	 64.6926
6.934000	 64.7149
6.952000	 64.7538
6.970000	 64.7412
6.988000	 64.7319
7.006000	 64.7735
7.024000	 64.7463
7.042000	 64.6505
7.060000	 64.6303
7.078000	 64.6582
7.096000	 64.6817
7.114000	 64.7218
7.132000	 64.7158
7.150000	 64.6665
7.168000	 64.6676
7.186000	 64.6968
7.204000	 64.6943
7.222000	 64.6758
7.240000	 64.6635
7.258000	 64.6576
7.276000	 64.6798
7.294000	 64.7347
7.312000	 64.7584
7.330000	 64.7077
7.348000	 64.6389
7.366000	 64.6228
7.384000	 64.6603
7.402000	 64.7056
7.420000	 64.7266
7.438000	 64.7278
7.456000	 64.7062
7.474000	 64.6563
7.492000	 64.6187
7.510000	 64.6323
7.528000	 64.6775
7.546000	 64.7084
7.564000	 64.6825
7.582000	 64.6056
7.600000	 64.5496
7.618000	 64.571
7.636000	 64.6605
7.654000	 64.7653
7.672000	 64.8272
7.690000	 64.8243
7.708000	 64.7881
7.726000	 64.755
7.744000	 64.7309
7.762000	 64.7155
7.780000	 64.7181
7.798000	 64.7289
7.816000	 64.7197
7.834000	 64.6967
7.852000	 64.6955
7.870000	 64.7187
7.888000	 64.7364
7.906000	 64.7358
7.924000	 64.7288
7.942000	 64.725
7.960000	 64.7182
7.978000	 64.6887
7.996000	 64.6317
8.013999	 64.5807
8.032000	 64.5727
8.050000	 64.607
8.068000	 64.6506
8.086000	 64.6736
8.103999	 64.6737
8.122000	 64.6699
8.140000	 64.6757
8.158000	 64.6806
8.176000	 64.6658
8.193999	 64.6294
8.212000	 64.5868
8.230000	 64.5533
8.248000	 64.5311
8.266000	 64.5181
8.283999	 64.5225
8.302000	 64.5502
8.320000	 64.5835
8.338000	 64.5923
8.356000	 64.562
8.374000	 64.5054
8.391999	 64.4548
8.410000	 64.445
8.428000	 64.4878
8.446000	 64.5541
8.464000	 64.5955
8.481999	 64.5851
8.500000	 64.5308
8.518000	 64.4672
8.536000	 64.4312
8.554000	 64.4297
8.571999	 64.4319
8.590000	 64.409
8.608000	 64.3779
8.626000	 64.3827
8.644000	 64.4359
8.661999	 64.4993
8.680000	 64.5267
8.698000	 64.5097
8.716000	 64.4709
8.734000	 64.4299
8.751999	 64.3882
8.770000	 64.3499
8.788000	 64.3355
8.806000	 64.3641
8.824000	 64.4263
8.842000	 64.4875
8.859999	 64.5176
8.878000	 64.5121
8.896000	 64.4853
8.914000	 64.451
8.932000	 64.4175
8.949999	 64.3943
8.968000	 64.3945
8.986000	 64.4269
9.004000	 64.4847
9.022000	 64.5454
9.039999	 64.5845
9.058000	 64.5898
9.076000	 64.5653
9.094000	 64.5227
9.112000	 64.4767
9.129999	 64.4418
9.148000	 64.4271
9.166000	 64.4278
9.184000	 64.4234
9.202000	 64.394
9.219999	 64.3407
9.238000	 64.2869
9.256000	 64.258
9.274000	 64.2626
9.292000	 64.2907
9.310000	 64.3266
9.327999	 64.3587
9.346000	 64.3812
9.364000	 64.393
9.382000	 64.3971
9.400000	 64.3974
9.418000	 64.3934
9.436000	 64.3822
9.454000	 64.3664
9.472000	 64.3573
9.490000	 64.3644
9.508000	 64.3803
9.526000	 64.3823
9.544000	 64.3554
9.561999	 64.3106
9.580000	 64.276
9.598000	 64.2686
9.616000	 64.2812
9.634000	 64.2933
9.652000	 64.289
9.670000	 64.2663
9.688000	 64.2327
9.706000	 64.1995
9.724000	 64.1793
9.742000	 64.1821
9.760000	 64.2095
9.778000	 64.2513
9.795999	 64.2936
9.814000	 64.328
9.832000	 64.3536
9.850000	 64.3695
9.868000	 64.3703
9.886000	 64.3538
9.904000	 64.3288
9.922000	 64.3136
9.940000	 64.3208
9.958000	 64.3424
9.976000	 64.354
9.994000	 64.3363
10.012	64.2937
10.03	64.2528
10.048	64.2431
10.066	64.2734
10.084	64.3276
10.102	64.3746
10.12	64.3876
10.138	64.3589
10.156	64.3009
10.174	64.2353
10.192	64.1831
10.21	64.1581
10.228	64.1648
10.246	64.1969
10.264	64.2383
10.282	64.2698
10.3	64.2831
10.318	64.2888
10.336	64.3148
10.354	64.3847
10.372	64.4986
10.39	64.625
10.408	64.7185
10.426	64.748
10.444	64.7145
10.462	64.6403
10.48	64.5467
10.498	64.4396
10.516	64.3148
10.534	64.1774
10.552	64.0556
10.57	63.9879
10.588	64.0003
10.606	64.0799
10.624	64.1764
10.642	64.2232
10.66	64.177
10.678	64.0374
10.696	63.8506
10.714	63.6867
10.732	63.6128
10.75	63.6616
10.768	63.8176
10.786	64.0255
10.804	64.2071
10.822	64.3
10.84	64.2769
10.858	64.1566
10.876	63.9883
10.894	63.8261
10.912	63.7032
10.93	63.6263
10.948	63.5848
10.966	63.5665
10.984	63.5688
11.002	63.5949
11.02	63.6434
11.038	63.7022
11.056	63.7536
11.074	63.7846
11.092	63.7983
11.11	63.814
11.128	63.8541
11.146	63.927
11.164	64.0194
11.182	64.105
11.2	64.1567
11.218	64.1641
11.236	64.1373
11.254	64.0997
11.272	64.0764
11.29	64.0832
11.308	64.1227
11.326	64.1851
11.344	64.254
11.362	64.3111
11.38	64.3387
11.398	64.3231
11.416	64.2564
11.434	64.1427
11.452	63.9988
11.47	63.8525
11.488	63.7321
11.506	63.661
11.524	63.649
11.542	63.6918
11.56	63.7724
11.578	63.8684
11.596	63.958
11.614	64.0236
11.632	64.0572
11.65	64.0608
11.668	64.0435
11.686	64.0169
11.704	63.9903
11.722	63.9685
11.74	63.9495
11.758	63.9274
11.776	63.8959
11.794	63.8537
11.812	63.8065
11.83	63.7647
11.848	63.7396
11.866	63.7369
11.884	63.7548
11.902	63.7832
11.92	63.8082
11.938	63.818
11.956	63.8062
11.974	63.774
11.992	63.7301
12.01	63.687
12.028	63.6575
12.046	63.6494
12.064	63.6631
12.082	63.6918
12.1	63.7244
12.118	63.7494
12.136	63.7591
12.154	63.7525
12.172	63.7341
12.19	63.7124
12.208	63.696
12.226	63.6907
12.244	63.6976
12.262	63.7135
12.28	63.732
12.298	63.745
12.316	63.7465
12.334	63.7329
12.352	63.704
12.37	63.6626
12.388	63.6138
12.406	63.5633
12.424	63.5167
12.442	63.4785
12.46	63.4516
12.478	63.438
12.496	63.4375
12.514	63.4492
12.532	63.4709
12.55	63.4995
12.568	63.5309
12.586	63.5608
12.604	63.585
12.622	63.5998
12.64	63.6027
12.658	63.5931
12.676	63.5722
12.694	63.5432
12.712	63.5106
12.73	63.48
12.748	63.4569
12.766	63.4457
12.784	63.4492
12.802	63.4679
12.82	63.4988
12.838	63.5365
12.856	63.5733
12.874	63.6008
12.892	63.6105
12.91	63.5965
12.928	63.5563
12.946	63.4922
12.964	63.4102
12.982	63.3196
13	63.2316
13.018	63.1562
13.036	63.1009
13.054	63.0692
13.072	63.0605
13.09	63.0703
13.108	63.0921
13.126	63.1185
13.144	63.1427
13.162	63.1599
13.18	63.1675
13.198	63.1647
13.216	63.1527
13.234	63.1333
13.252	63.1091
13.27	63.0822
13.288	63.0547
13.306	63.0277
13.324	63.0025
13.342	62.9801
13.36	62.9613
13.378	62.9472
13.396	62.9389
13.414	62.9373
13.432	62.9436
13.45	62.9583
13.468	62.9812
13.486	63.0112
13.504	63.0457
13.522	63.0813
13.54	63.1138
13.558	63.1395
13.576	63.155
13.594	63.1585
13.612	63.15
13.63	63.1308
13.648	63.1034
13.666	63.0708
13.684	63.0354
13.702	62.9991
13.72	62.9634
13.738	62.9292
13.756	62.897
13.774	62.8675
13.792	62.8423
13.81	62.8232
13.828	62.8122
13.846	62.8108
13.864	62.8194
13.882	62.837
13.9	62.8609
13.918	62.8873
13.936	62.9114
13.954	62.9286
13.972	62.9352
13.99	62.9295
14.008	62.9114
14.026	62.8826
14.044	62.8466
14.062	62.8075
14.08	62.769
14.098	62.7339
14.116	62.7034
14.134	62.677
14.152	62.6527
14.17	62.628
14.188	62.5994
14.206	62.5645
14.224	62.5213
14.242	62.4695
14.26	62.4107
14.278	62.3475
14.296	62.2834
14.314	62.2225
14.332	62.1684
14.35	62.1244
14.368	62.0926
14.386	62.0738
14.404	62.0676
14.422	62.0727
14.44	62.087
14.458	62.1084
14.476	62.1351
14.494	62.1654
14.512	62.1985
14.53	62.2339
14.548	62.2714
14.566	62.3108
14.584	62.3515
14.602	62.3926
14.62	62.4326
14.638	62.4696
14.656	62.5013
14.674	62.5257
14.692	62.5414
14.71	62.5471
14.728	62.5427
14.746	62.5286
14.764	62.5064
14.782	62.478
14.8	62.4455
14.818	62.4114
14.836	62.3778
14.854	62.3468
14.872	62.3197
14.89	62.2971
14.908	62.2793
14.926	62.2659
14.944	62.2566
14.962	62.2509
14.98	62.248
14.998	62.2476
15.016	62.2493
15.034	62.2532
15.052	62.2596
15.07	62.2689
15.088	62.2812
15.106	62.2968
15.124	62.3154
15.142	62.3361
15.16	62.3578
15.178	62.3789
15.196	62.3975
15.214	62.4109
15.232	62.4173
15.25	62.4151
15.268	62.4032
15.286	62.381
15.304	62.3489
15.322	62.3076
15.34	62.2585
15.358	62.2029
15.376	62.1431
15.394	62.0809
15.412	62.0183
15.43	61.9568
15.448	61.899
15.466	61.8467
15.484	61.8018
15.502	61.7661
15.52	61.7415
15.538	61.7294
15.556	61.7306
15.574	61.7457
15.592	61.7744
15.61	61.8153
15.628	61.8666
15.646	61.9259
15.664	61.9896
15.682	62.0541
15.7	62.1162
15.718	62.1722
15.736	62.2185
15.754	62.2531
15.772	62.2744
15.79	62.2814
15.808	62.2744
15.826	62.2545
15.844	62.2231
15.862	62.1828
15.88	62.1363
15.898	62.086
15.916	62.0349
15.934	61.9861
15.952	61.9412
15.97	61.9024
15.988	61.8715
16.006	61.8494
16.024	61.8366
16.042	61.8334
16.06	61.8391
16.078	61.853
16.096	61.8735
16.114	61.8987
16.132	61.9269
16.15	61.9561
16.168	61.9839
16.186	62.0087
16.204	62.0292
16.222	62.0444
16.24	62.0542
16.258	62.0585
16.276	62.0583
16.294	62.0549
16.312	62.0493
16.33	62.0433
16.348	62.0382
16.366	62.0348
16.384	62.034
16.402	62.0359
16.42	62.0402
16.438	62.0462
16.456	62.0526
16.474	62.0584
16.492	62.0621
16.51	62.0624
16.528	62.0584
16.546	62.0491
16.564	62.0342
16.582	62.0135
16.6	61.9872
16.618	61.956
16.636	61.9203
16.654	61.8812
16.672	61.8395
16.69	61.7961
16.708	61.7524
16.726	61.7092
16.744	61.6675
16.762	61.6286
16.78	61.5933
16.798	61.5626
16.816	61.5369
16.834	61.5166
16.852	61.5017
16.87	61.4916
16.888	61.4859
16.906	61.4836
16.924	61.4837
16.942	61.4856
16.96	61.488
16.978	61.4903
16.996	61.4917
17.014	61.4916
17.032	61.4898
17.05	61.4859
17.068	61.4798
17.086	61.4715
17.104	61.4612
17.122	61.4489
17.14	61.4352
17.158	61.4208
17.176	61.4061
17.194	61.3926
17.212	61.3807
17.23	61.3714
17.248	61.3654
17.266	61.3629
17.284	61.3643
17.302	61.369
17.32	61.3765
17.338	61.3856
17.356	61.3955
17.374	61.4043
17.392	61.4114
17.41	61.4154
17.428	61.4158
17.446	61.4122
17.464	61.4044
17.482	61.3928
17.5	61.3781
17.518	61.3611
17.536	61.3424
17.554	61.3235
17.572	61.3046
17.59	61.2868
17.608	61.2701
17.626	61.2548
17.644	61.2403
17.662	61.2263
17.68	61.212
17.698	61.1967
17.716	61.1794
17.734	61.1597
17.752	61.1369
17.77	61.1108
17.788	61.0813
17.806	61.0492
17.824	61.0147
17.842	60.9787
17.86	60.9425
17.878	60.9065
17.896	60.8723
17.914	60.8401
17.932	60.8112
17.95	60.7855
17.968	60.7634
17.986	60.7446
18.004	60.729
18.022	60.7159
18.04	60.7049
18.058	60.6948
18.076	60.6854
18.094	60.6751
18.112	60.6638
18.13	60.6505
18.148	60.635
18.166	60.6167
18.184	60.5957
18.202	60.5717
18.22	60.5455
18.238	60.517
18.256	60.4875
18.274	60.4571
18.292	60.4274
18.31	60.3987
18.328	60.3724
18.346	60.3489
18.364	60.3294
18.382	60.3138
18.4	60.3029
18.418	60.2963
18.436	60.2941
18.454	60.2955
18.472	60.3003
18.49	60.307
18.508	60.3153
18.526	60.3235
18.544	60.3316
18.562	60.3375
18.58	60.3413
18.598	60.342
18.616	60.3395
18.634	60.3336
18.652	60.3245
18.67	60.313
18.688	60.2994
18.706	60.285
18.724	60.2702
18.742	60.2567
18.76	60.2447
18.778	60.2355
18.796	60.2292
18.814	60.2266
18.832	60.2274
18.85	60.2317
18.868	60.2388
18.886	60.2483
18.904	60.2591
18.922	60.2704
18.94	60.2812
18.958	60.2906
18.976	60.2977
18.994	60.3017
19.012	60.3023
19.03	60.2988
19.048	60.2913
19.066	60.2795
19.084	60.264
19.102	60.2451
19.12	60.2234
19.138	60.1996
19.156	60.1746
19.174	60.1494
19.192	60.1246
19.21	60.1012
19.228	60.0798
19.246	60.0614
19.264	60.0461
19.282	60.0346
19.3	60.0265
19.318	60.022
19.336	60.0208
19.354	60.0218
19.372	60.025
19.39	60.0288
19.408	60.0333
19.426	60.0364
19.444	60.0383
19.462	60.0371
19.48	60.0329
19.498	60.0246
19.516	60.012
19.534	59.9948
19.552	59.9729
19.57	59.9468
19.588	59.9166
19.606	59.8832
19.624	59.8476
19.642	59.8103
19.66	59.7732
19.678	59.7361
19.696	59.7012
19.714	59.6681
19.732	59.6385
19.75	59.6123
19.768	59.5904
19.786	59.573
19.804	59.5599
19.822	59.5514
19.84	59.5467
19.858	59.5454
19.876	59.547
19.894	59.5503
19.912	59.5553
19.93	59.5604
19.948	59.5657
19.966	59.5697
19.984	59.5726
20.002	59.5735
20.02	59.5723
20.038	59.5687
20.056	59.5626
20.074	59.5541
20.092	59.5433
20.11	59.5302
20.128	59.5156
20.146	59.4992
20.164	59.4819
20.182	59.4638
20.2	59.4455
20.218	59.4274
20.236	59.4096
20.254	59.393
20.272	59.3774
20.29	59.3639
20.308	59.3523
20.326	59.3434
20.344	59.3373
20.362	59.3344
20.38	59.3354
20.398	59.3401
20.416	59.3488
20.434	59.3614
20.452	59.3781
20.47	59.3991
20.488	59.4238
20.506	59.4517
20.524	59.4827
20.542	59.5151
20.56	59.5496
20.578	59.5832
20.596	59.616
20.614	59.6463
20.632	59.6721
20.65	59.6935
20.668	59.707
20.686	59.7131
20.704	59.7094
20.722	59.6949
20.74	59.6692
20.758	59.6307
20.776	59.5797
20.794	59.5162
20.812	59.4395
20.83	59.3514
20.848	59.2523
20.866	59.1427
20.884	59.0262
20.902	58.9016
20.92	58.7734
20.938	58.6429
20.956	58.5112
20.974	58.3834
20.992	58.258
21.01	58.1401
21.028	58.0303
21.046	57.9298
21.064	57.8417
21.082	57.7652
21.1	57.7024
21.118	57.6535
21.136	57.6182
21.154	57.597
21.172	57.5895
21.19	57.5942
21.208	57.6115
21.226	57.6397
21.244	57.6771
21.262	57.724
21.28	57.777
21.298	57.8365
21.316	57.9008
21.334	57.9674
21.352	58.0372
21.37	58.1073
21.388	58.1778
21.406	58.2479
21.424	58.3163
21.442	58.3834
21.46	58.448
21.478	58.5097
21.496	58.5685
21.514	58.6237
21.532	58.6755
21.55	58.7236
21.568	58.7678
21.586	58.8082
21.604	58.8447
21.622	58.8774
21.64	58.9061
21.658	58.9308
21.676	58.9515
21.694	58.9681
21.712	58.9807
21.73	58.9894
21.748	58.9947
21.766	58.9964
21.784	58.9951
21.802	58.9909
21.82	58.9838
21.838	58.9752
21.856	58.9647
21.874	58.9529
21.892	58.9407
21.91	58.9277
21.928	58.9147
21.946	58.902
21.964	58.8895
21.982	58.8777
22	58.8666
22.018	58.8563
22.036	58.8469
22.054	58.8384
22.072	58.8309
22.09	58.8243
22.108	58.8186
22.126	58.8137
22.144	58.8096
22.162	58.8064
22.18	58.8043
22.198	58.803
22.216	58.8031
22.234	58.8049
22.252	58.8083
22.27	58.8139
22.288	58.8219
22.306	58.8324
22.324	58.8457
22.342	58.862
22.36	58.8812
22.378	58.9037
22.396	58.9294
22.414	58.9581
22.432	58.9898
22.45	59.0247
22.468	59.0617
22.486	59.1003
22.504	59.1409
22.522	59.1812
22.54	59.2212
22.558	59.2606
22.576	59.2971
22.594	59.331
22.612	59.3616
22.63	59.3864
22.648	59.4063
22.666	59.4202
22.684	59.4261
22.702	59.4251
22.72	59.4159
22.738	59.3974
22.756	59.3702
22.774	59.3338
22.792	59.2876
22.81	59.2321
22.828	59.1674
22.846	59.0934
22.864	59.0101
22.882	58.9189
22.9	58.8196
22.918	58.7125
22.936	58.5996
22.954	58.4808
22.972	58.3564
22.99	58.2285
23.008	58.0966
23.026	57.9614
23.044	57.8256
23.062	57.6883
23.08	57.5507
23.098	57.4163
23.116	57.2838
23.134	57.1547
23.152	57.0327
23.17	56.9167
23.188	56.8078
23.206	56.7093
23.224	56.6201
23.242	56.5411
23.26	56.4752
23.278	56.4215
23.296	56.3805
23.314	56.3541
23.332	56.342
23.35	56.344
23.368	56.3603
23.386	56.3918
23.404	56.4371
23.422	56.4945
23.44	56.5649
23.458	56.6472
23.476	56.7382
23.494	56.839
23.512	56.9485
23.53	57.0626
23.548	57.1817
23.566	57.3054
23.584	57.4299
23.602	57.5545
23.62	57.68
23.638	57.8027
23.656	57.9211
23.674	58.0365
23.692	58.147
23.71	58.2513
23.728	58.3501
23.746	58.4434
23.764	58.5307
23.782	58.6119
23.8	58.6881
23.818	58.7598
23.836	58.8265
23.854	58.8893
23.872	58.9495
23.89	59.0063
23.908	59.0607
23.926	59.1148
23.944	59.1681
23.962	59.2207
23.98	59.2744
23.998	59.3296
24.016	59.3857
24.034	59.4431
24.052	59.5023
24.07	59.5633
24.088	59.6247
24.106	59.6858
24.124	59.7474
24.142	59.8081
24.16	59.8665
24.178	59.9239
24.196	59.9787
24.214	60.0285
24.232	60.0738
24.25	60.1146
24.268	60.1483
24.286	60.1742
24.304	60.1936
24.322	60.2038
24.34	60.2029
24.358	60.1923
24.376	60.1708
24.394	60.1369
24.412	60.0913
24.43	60.0336
24.448	59.9624
24.466	59.8772
24.484	59.7787
24.502	59.6666
24.52	59.5406
24.538	59.4007
24.556	59.2474
24.574	59.0808
24.592	58.9008
24.61	58.7077
24.628	58.5021
24.646	58.2837
24.664	58.0525
24.682	57.8101
24.7	57.5577
24.718	57.2934
24.736	57.0198
24.754	56.7404
24.772	56.4536
24.79	56.16
24.808	55.8641
24.826	55.568
24.844	55.2687
24.862	54.9708
24.88	54.6793
24.898	54.3912
24.916	54.1083
24.934	53.8357
24.952	53.575
24.97	53.3237
24.988	53.0854
25.006	52.8638
25.024	52.6568
25.042	52.4652
25.06	52.2914
25.078	52.136
25.096	51.9979
25.114	51.878
25.132	51.7773
25.15	51.6965
25.168	51.6337
25.186	51.5867
25.204	51.556
25.222	51.5426
25.24	51.5413
25.258	51.5477
25.276	51.5661
25.294	51.593
25.312	51.6212
25.33	51.6487
25.348	51.6799
25.366	51.7078
25.384	51.7253
25.402	51.7363
25.42	51.7394
25.438	51.728
25.456	51.6976
25.474	51.6533
25.492	51.5911
25.51	51.5062
25.528	51.3982
25.546	51.269
25.564	51.1168
25.582	50.9398
25.6	50.7382
25.618	50.5132
25.636	50.2662
25.654	49.9969
25.672	49.7043
25.69	49.3919
25.708	49.0634
25.726	48.717
25.744	48.3527
25.762	47.9762
25.78	47.5918
25.798	47.1955
25.816	46.7898
25.834	46.3796
25.852	45.967
25.87	45.5484
25.888	45.1278
25.906	44.7095
25.924	44.2935
25.942	43.8782
25.96	43.4663
25.978	43.0604
25.996	42.6585
26.014	42.2613
26.032	41.872
26.05	41.4928
26.068	41.1208
26.086	40.7582
26.104	40.4086
26.122	40.0729
26.14	39.7475
26.158	39.4376
26.176	39.1487
26.194	38.8803
26.212	38.6295
26.23	38.4028
26.248	38.2064
26.266	38.0371
26.284	37.8944
26.302	37.7851
26.32	37.7155
26.338	37.6803
26.356	37.6812
26.374	37.7251
26.392	37.8182
26.41	37.9564
26.428	38.1398
26.446	38.3706
26.464	38.6511
26.482	38.9816
26.5	39.3586
26.518	39.7786
26.536	40.2413
26.554	40.7531
26.572	41.3033
26.59	41.8796
26.608	42.4787
26.626	43.1136
26.644	43.7669
26.662	44.4197
26.68	45.0681
26.698	45.729
26.716	46.3802
26.734	46.9979
26.752	47.5778
26.77	48.1384
26.788	48.6575
26.806	49.111
26.824	49.4938
26.842	49.8235
26.86	50.0829
26.878	50.254
26.896	50.3308
26.914	50.3263
26.932	50.2331
26.95	50.0435
26.968	49.7036
26.986	49.1852
27.004	48.6373
27.022	48.2136
27.028	48.1382