File: Bakgrunnsmateriale/MATLAB/FTIR/ftir_data/subBb/Mapping_36/C-4040-8_e39_cm-1.asc
PE IR       SPECTRUM    SPECTRUM    ASCII       PEDS        1.60
  -1
C-1B25~1.ASC
17/05/02
12:56:27.00
17/05/02
12:56:27.00
tln
$C-4040-8_e0039$<ebV0>[-23.3,12.1,10.0,0.0,22,1,0]
370
64

2002,4.07
MIRTGS : RIGHTBACK : INTERNAL 2
MIR : ON : INTERNAL 2
OPTKBR

0.200000
8
8.000000
FILLER
SINGLE
SPECTRUM
UNLOCKED 256

DOUBLE

COMBINED
1
0
0

1.000000
BACKG

1
0
TRUE
51149
0
LEFT NOT FITTED RIGHT NOT FITTED 0
NONE
NONE
15600
12
4.427000
51148
TRUE
1 0 8 72 0 0 0 0

15798

#HDR
-1
-1
#GR
CM-1
EGY
2.38419e-05
0.0
7800
-1.000000
7431
8
2.449369
0.006222
#DATA
7800	0.030851
7795	0.031590
7790	0.036001
7785	0.037622
7780	0.037479
7775	0.039172
7770	0.040245
7765	0.042295
7760	0.044155
7755	0.043511
7750	0.043630
7745	0.045394
7740	0.045800
7735	0.044465
7730	0.045394
7725	0.048470
7720	0.051474
7715	0.053548
7710	0.055789
7705	0.054717
7700	0.054645
7695	0.055599
7690	0.056266
7685	0.055813
7680	0.054144
7675	0.055408
7670	0.059866
7665	0.061774
7660	0.061511
7655	0.061273
7650	0.060296
7645	0.060844
7640	0.063180
7635	0.064206
7630	0.065064
7625	0.064611
7620	0.065851
7615	0.069093
7610	0.068306
7605	0.067901
7600	0.068426
7595	0.066876
7590	0.067782
7585	0.071549
7580	0.072455
7575	0.068664
7570	0.067567
7565	0.073814
7560	0.078558
7555	0.077223
7550	0.074458
7545	0.074744
7540	0.077891
7535	0.078678
7530	0.077319
7525	0.078010
7520	0.082683
7515	0.085258
7510	0.084948
7505	0.083637
7500	0.083398
7495	0.084686
7490	0.085353
7485	0.085806
7480	0.087118
7475	0.086736
7470	0.086379
7465	0.085115
7460	0.085616
7455	0.088310
7450	0.089097
7445	0.089406
7440	0.090074
7435	0.089430
7430	0.090098
7425	0.090503
7420	0.091028
7415	0.091338
7410	0.091981
7405	0.094771
7400	0.096988
7395	0.097370
7390	0.097608
7385	0.097966
7380	0.098323
7375	0.100731
7370	0.101590
7365	0.101161
7360	0.100302
7355	0.098252
7350	0.100827
7345	0.105595
7340	0.108313
7335	0.108242
7330	0.107455
7325	0.105690
7320	0.105929
7315	0.107884
7310	0.108885
7305	0.110983
7300	0.112223
7295	0.111579
7290	0.109004
7285	0.107407
7280	0.108599
7275	0.110411
7270	0.112652
7265	0.114035
7260	0.114202
7255	0.114560
7250	0.114679
7245	0.118470
7240	0.120854
7235	0.120568
7230	0.117325
7225	0.115990
7220	0.119137
7215	0.122046
7210	0.121808
7205	0.120806
7200	0.120997
7195	0.122165
7190	0.123786
7185	0.122332
7180	0.123739
7175	0.127387
7170	0.128769
7165	0.126433
7160	0.125241
7155	0.128197
7150	0.128841
7145	0.127291
7140	0.128865
7135	0.133037
7130	0.133466
7125	0.133514
7120	0.135397
7115	0.134754
7110	0.135874
7105	0.137925
7100	0.136804
7095	0.135731
7090	0.136399
7085	0.138497
7080	0.140929
7075	0.140619
7070	0.139355
7065	0.142073
7060	0.145244
7055	0.144147
7050	0.142288
7045	0.142574
7040	0.144743
7035	0.145149
7030	0.144600
7025	0.148248
7020	0.149250
7015	0.147557
7010	0.150799
7005	0.152230
7000	0.150084
6995	0.147843
6990	0.149798
6985	0.153279
6980	0.153923
6975	0.155711
6970	0.155377
6965	0.152826
6960	0.154066
6955	0.157213
6950	0.158405
6945	0.159525
6940	0.161647
6935	0.161838
6930	0.161290
6925	0.160813
6920	0.160956
6915	0.162911
6910	0.163531
6905	0.163841
6900	0.164508
6895	0.167083
6890	0.167608
6885	0.167202
6880	0.166368
6875	0.166296
6870	0.167417
6865	0.168657
6860	0.169801
6855	0.169920
6850	0.169444
6845	0.171518
6840	0.174307
6835	0.174069
6830	0.173139
6825	0.173425
6820	0.173830
6815	0.174260
6810	0.173282
6805	0.174641
6800	0.177955
6795	0.179243
6790	0.181269
6785	0.181913
6780	0.180172
6775	0.180602
6770	0.183868
6765	0.185942
6760	0.186395
6755	0.185155
6750	0.185441
6745	0.186967
6740	0.188469
6735	0.188422
6730	0.189542
6725	0.191879
6720	0.190973
6715	0.189685
6710	0.188899
6705	0.188612
6700	0.189137
6695	0.191235
6690	0.191354
6685	0.190687
6680	0.191807
6675	0.195240
6670	0.196743
6665	0.195670
6660	0.196242
6655	0.196433
6650	0.195789
6645	0.196766
6640	0.195980
6635	0.196146
6630	0.197601
6625	0.197577
6620	0.197267
6615	0.199484
6610	0.200986
6605	0.201535
6600	0.202322
6595	0.203847
6590	0.206828
6585	0.207757
6580	0.205755
6575	0.205159
6570	0.205969
6565	0.207400
6560	0.209188
6555	0.209331
6550	0.210070
6545	0.211405
6540	0.213027
6535	0.214529
6530	0.215697
6525	0.216150
6520	0.214171
6515	0.214910
6510	0.217103
6505	0.216174
6500	0.217461
6495	0.220036
6490	0.219964
6485	0.221228
6480	0.223898
6475	0.226354
6470	0.227546
6465	0.225830
6460	0.227165
6455	0.229310
6450	0.230431
6445	0.230002
6440	0.229883
6435	0.233888
6430	0.236868
6425	0.236392
6420	0.236940
6415	0.239229
6410	0.238943
6405	0.237727
6400	0.238370
6395	0.238704
6390	0.240516
6385	0.242805
6380	0.243878
6375	0.245523
6370	0.245642
6365	0.245499
6360	0.247931
6355	0.250792
6350	0.251078
6345	0.252056
6340	0.255274
6335	0.258040
6330	0.258708
6325	0.258445
6320	0.259208
6315	0.260925
6310	0.262641
6305	0.264501
6300	0.266218
6295	0.267481
6290	0.268006
6285	0.269007
6280	0.270915
6275	0.272321
6270	0.274062
6265	0.276589
6260	0.278759
6255	0.281500
6250	0.282621
6245	0.283360
6240	0.285029
6235	0.287747
6230	0.289344
6225	0.288534
6220	0.290584
6215	0.292611
6210	0.292921
6205	0.294375
6200	0.294923
6195	0.296783
6190	0.300288
6185	0.302028
6180	0.303745
6175	0.304126
6170	0.303959
6165	0.303101
6160	0.304031
6155	0.308442
6150	0.309729
6145	0.310230
6140	0.310540
6135	0.311446
6130	0.313282
6125	0.316858
6120	0.317978
6115	0.318813
6110	0.320744
6105	0.322222
6100	0.324034
6095	0.327086
6090	0.329327
6085	0.331282
6080	0.334310
6075	0.335526
6070	0.334310
6065	0.334119
6060	0.335860
6055	0.335645
6050	0.338125
6045	0.344491
6040	0.346803
6035	0.348067
6030	0.349831
6025	0.350666
6020	0.349569
6015	0.349926
6010	0.352454
6005	0.353598
6000	0.356912
5995	0.360441
5990	0.361776
5985	0.361800
5980	0.360965
5975	0.362706
5970	0.362682
5965	0.363802
5960	0.368142
5955	0.369787
5950	0.370573
5945	0.371837
5940	0.372600
5935	0.372743
5930	0.373697
5925	0.374579
5920	0.375270
5915	0.377845
5910	0.378847
5905	0.378036
5900	0.378847
5895	0.381588
5890	0.382733
5885	0.382852
5880	0.383830
5875	0.385999
5870	0.386571
5865	0.387883
5860	0.389575
5855	0.389933
5850	0.390982
5845	0.392270
5840	0.393438
5835	0.394916
5830	0.395298
5825	0.396132
5820	0.398993
5815	0.402212
5810	0.403904
5805	0.405550
5800	0.407290
5795	0.407099
5790	0.408363
5785	0.411605
5780	0.411987
5775	0.411534
5770	0.412011
5765	0.412511
5760	0.412583
5755	0.414752
5750	0.415706
5745	0.415444
5740	0.418710
5735	0.422000
5730	0.422286
5725	0.423955
5720	0.426602
5715	0.425767
5710	0.426411
5705	0.429368
5700	0.428175
5695	0.426626
5690	0.428366
5685	0.430178
5680	0.430631
5675	0.431752
5670	0.433659
5665	0.436139
5660	0.435328
5655	0.434303
5650	0.434255
5645	0.435876
5640	0.436806
5635	0.436735
5630	0.437283
5625	0.440454
5620	0.444817
5615	0.445652
5610	0.445628
5605	0.445342
5600	0.445246
5595	0.447487
5590	0.449371
5585	0.452089
5580	0.454020
5575	0.454282
5570	0.457239
5565	0.461149
5560	0.462746
5555	0.464463
5550	0.466871
5545	0.469493
5540	0.470304
5535	0.472927
5530	0.477075
5525	0.478672
5520	0.480675
5515	0.482654
5510	0.484132
5505	0.486660
5500	0.488567
5495	0.491380
5490	0.493764
5485	0.493168
5480	0.494289
5475	0.498461
5470	0.502443
5465	0.506472
5460	0.505495
5455	0.503230
5450	0.505256
5445	0.510287
5440	0.515294
5435	0.517320
5430	0.514554
5425	0.513124
5420	0.516772
5415	0.520205
5410	0.521087
5405	0.521540
5400	0.523424
5395	0.524640
5390	0.528740
5385	0.532078
5380	0.530695
5375	0.533175
5370	0.539994
5365	0.544238
5360	0.544524
5355	0.545454
5350	0.547933
5345	0.554633
5340	0.561094
5335	0.561642
5330	0.562548
5325	0.567007
5320	0.569534
5315	0.568032
5310	0.572538
5305	0.582432
5300	0.595307
5295	0.602912
5290	0.600600
5285	0.602245
5280	0.612545
5275	0.607800
5270	0.606727
5265	0.612878
5260	0.618004
5255	0.614762
5250	0.616359
5245	0.623369
5240	0.629067
5235	0.635218
5230	0.637602
5225	0.638413
5220	0.639009
5215	0.640416
5210	0.641155
5205	0.643062
5200	0.647377
5195	0.651669
5190	0.655484
5185	0.657582
5180	0.659298
5175	0.662922
5170	0.666880
5165	0.668168
5160	0.667595
5155	0.669884
5150	0.675392
5145	0.678849
5140	0.680017
5135	0.682783
5130	0.686287
5125	0.689506
5120	0.693202
5115	0.696682
5110	0.698065
5105	0.700616
5100	0.703883
5095	0.705456
5090	0.709486
5085	0.715208
5080	0.718832
5075	0.721716
5070	0.724959
5065	0.727272
5060	0.731706
5055	0.737094
5050	0.740551
5045	0.743317
5040	0.745916
5035	0.750780
5030	0.753450
5025	0.754189
5020	0.755405
5015	0.757980
5010	0.762748
5005	0.766706
5000	0.769472
4995	0.770616
4990	0.772452
4985	0.777530
4980	0.780463
4975	0.780844
4970	0.780916
4965	0.782084
4960	0.786614
4955	0.791645
4950	0.794649
4945	0.796031
4940	0.796675
4935	0.798463
4930	0.799226
4925	0.800609
4920	0.802683
4915	0.804543
4910	0.808215
4905	0.811147
4900	0.812983
4895	0.816059
4890	0.817751
4885	0.820398
4880	0.824832
4875	0.826406
4870	0.826501
4865	0.830650
4860	0.834441
4855	0.835251
4850	0.837993
4845	0.840592
4840	0.841832
4835	0.843477
4830	0.846767
4825	0.849795
4820	0.852322
4815	0.857615
4810	0.861835
4805	0.865101
4800	0.867819
4795	0.869107
4790	0.871419
4785	0.874781
4780	0.875830
4775	0.878024
4770	0.882339
4765	0.886082
4760	0.887632
4755	0.890088
4750	0.892615
4745	0.893378
4740	0.894856
4735	0.897598
4730	0.899481
4725	0.900578
4720	0.900864
4715	0.902247
4710	0.904989
4705	0.907397
4700	0.907230
4695	0.905513
4690	0.906658
4685	0.909066
4680	0.908398
4675	0.908708
4670	0.909304
4665	0.909352
4660	0.910139
4655	0.912785
4650	0.914573
4645	0.915050
4640	0.918698
4635	0.921082
4630	0.923061
4625	0.925016
4620	0.925946
4615	0.926399
4610	0.930571
4605	0.936126
4600	0.937271
4595	0.939512
4590	0.942659
4585	0.944972
4580	0.947165
4575	0.952363
4570	0.957417
4565	0.960779
4560	0.963306
4555	0.968647
4550	0.974822
4545	0.978732
4540	0.979733
4535	0.982379
4530	0.985503
4525	0.986766
4520	0.989437
4515	0.990557
4510	0.993251
4505	0.998878
4500	1.001572
4495	1.002144
4490	1.004767
4485	1.005339
4480	1.004004
4475	1.006507
4470	1.010322
4465	1.011085
4460	1.008534
4455	1.010084
4450	1.011228
4445	1.011300
4440	1.011800
4435	1.009845
4430	1.011037
4425	1.012468
4420	1.015710
4415	1.018166
4410	1.012635
4405	1.010084
4400	1.017189
4395	0.999617
4390	0.916790
4385	1.030683
4380	1.098966
4375	1.056885
4370	1.053667
4365	1.056480
4360	1.062059
4355	1.061463
4350	1.066589
4345	1.071000
4340	1.074218
4335	1.081562
4330	1.088047
4325	1.090192
4320	1.094341
4315	1.101446
4310	1.107335
4305	1.110696
4300	1.116514
4295	1.127862
4290	1.135253
4285	1.134586
4280	1.137614
4275	1.143693
4270	1.148796
4265	1.153206
4260	1.157546
4255	1.162528
4250	1.167464
4245	1.171612
4240	1.174807
4235	1.176190
4230	1.178503
4225	1.184487
4220	1.189827
4215	1.190662
4210	1.190996
4205	1.194238
4200	1.197171
4195	1.198625
4190	1.199150
4185	1.202774
4180	1.206660
4175	1.210951
4170	1.215815
4165	1.216220
4160	1.215744
4155	1.218032
4150	1.222443
4145	1.226162
4140	1.229882
4135	1.235437
4130	1.238679
4125	1.239848
4120	1.244854
4115	1.250147
4110	1.252198
4105	1.257514
4100	1.263642
4095	1.268577
4090	1.276063
4085	1.285552
4080	1.294541
4075	1.299166
4070	1.302981
4065	1.310062
4060	1.316571
4055	1.322221
4050	1.328611
4045	1.335048
4040	1.343131
4035	1.352357
4030	1.358461
4025	1.364064
4020	1.370596
4015	1.376080
4010	1.381230
4005	1.385283
4000	1.388406
3995	1.392245
3990	1.395559
3985	1.399374
3980	1.405262
3975	1.409220
3970	1.409125
3965	1.409554
3960	1.412224
3955	1.415252
3950	1.418495
3945	1.421356
3940	1.422929
3935	1.423859
3930	1.425695
3925	1.428270
3920	1.431083
3915	1.435232
3910	1.438379
3905	1.435637
3900	1.434493
3895	1.437282
3890	1.437234
3885	1.440238
3880	1.447749
3875	1.450538
3870	1.450181
3865	1.454377
3860	1.456952
3855	1.452732
3850	1.462960
3845	1.476216
3840	1.476502
3835	1.481509
3830	1.491093
3825	1.491713
3820	1.491260
3815	1.500225
3810	1.509761
3805	1.512002
3800	1.517534
3795	1.526665
3790	1.533889
3785	1.538515
3780	1.543736
3775	1.549625
3770	1.551842
3765	1.555490
3760	1.556348
3755	1.552128
3750	1.547145
3745	1.548409
3740	1.555728
3735	1.559352
3730	1.564836
3725	1.570701
3720	1.573038
3715	1.572084
3710	1.571941
3705	1.576638
3700	1.579403
3695	1.576209
3690	1.571416
3685	1.575160
3680	1.575660
3675	1.568698
3670	1.570773
3665	1.579952
3660	1.580262
3655	1.575684
3650	1.572728
3645	1.578998
3640	1.585340
3635	1.584744
3630	1.582527
3625	1.585316
3620	1.586246
3615	1.586914
3610	1.589369
3605	1.594042
3600	1.598668
3595	1.599955
3590	1.600456
3585	1.604056
3580	1.607275
3575	1.609277
3570	1.609945
3565	1.613092
3560	1.617050
3555	1.617789
3550	1.619005
3545	1.620912
3540	1.623177
3535	1.623129
3530	1.623177
3525	1.625275
3520	1.626515
3515	1.625084
3510	1.624274
3505	1.623702
3500	1.622486
3495	1.620793
3490	1.614499
3485	1.611828
3480	1.617074
3475	1.614570
3470	1.607656
3465	1.603364
3460	1.601552
3455	1.599669
3450	1.595044
3445	1.590371
3440	1.587653
3435	1.586699
3430	1.585006
3425	1.584267
3420	1.585721
3415	1.588702
3410	1.591539
3405	1.594400
3400	1.595926
3395	1.600170
3390	1.607680
3385	1.609611
3380	1.610445
3375	1.614165
3370	1.618790
3365	1.625585
3360	1.633119
3355	1.639342
3350	1.646137
3345	1.655840
3340	1.664042
3335	1.669335
3330	1.676130
3325	1.683235
3320	1.688981
3315	1.695275
3310	1.703000
3305	1.711559
3300	1.718831
3295	1.724696
3290	1.730871
3285	1.736593
3280	1.742219
3275	1.747941
3270	1.754021
3265	1.758122
3260	1.761603
3255	1.766848
3250	1.770401
3245	1.772904
3240	1.776552
3235	1.779508
3230	1.780772
3225	1.781487
3220	1.783037
3215	1.784753
3210	1.786851
3205	1.788973
3200	1.790046
3195	1.789903
3190	1.790785
3185	1.792097
3180	1.791644
3175	1.792287
3170	1.796984
3165	1.801013
3160	1.803684
3155	1.806879
3150	1.809525
3145	1.813268
3140	1.818919
3135	1.825571
3130	1.831960
3125	1.836895
3120	1.841545
3115	1.848697
3110	1.854586
3105	1.862335
3100	1.871633
3095	1.880383
3090	1.891541
3085	1.902627
3080	1.911973
3075	1.919770
3070	1.925826
3065	1.930284
3060	1.937818
3055	1.948809
3050	1.955819
3045	1.961755
3040	1.968479
3035	1.973915
3030	1.973152
3025	1.963591
3020	1.953983
3015	1.962900
3010	1.987934
3005	2.007126
3000	2.018165
2995	2.025294
2990	2.027750
2985	2.024745
2980	2.015781
2975	1.999235
2970	1.972103
2965	1.943540
2960	1.927614
2955	1.923537
2950	1.916599
2945	1.892352
2940	1.848840
2935	1.805400
2930	1.774525
2925	1.767873
2920	1.804971
2915	1.865577
2910	1.914525
2905	1.943683
2900	1.963591
2895	1.979994
2890	1.993513
2885	2.005457
2880	2.009129
2875	1.999187
2870	1.969528
2865	1.925778
2860	1.906752
2855	1.934409
2850	1.984548
2845	2.032542
2840	2.068424
2835	2.091979
2830	2.108454
2825	2.122282
2820	2.136421
2815	2.149248
2810	2.157807
2805	2.166724
2800	2.177500
2795	2.186036
2790	2.193713
2785	2.203941
2780	2.213931
2775	2.222299
2770	2.230501
2765	2.236843
2760	2.240276
2755	2.244687
2750	2.249526
2745	2.251505
2740	2.253985
2735	2.255749
2730	2.256035
2725	2.255058
2720	2.254581
2715	2.252840
2710	2.250313
2705	2.246975
2700	2.243852
2695	2.244114
2690	2.243232
2685	2.241349
2680	2.240777
2675	2.237725
2670	2.233481
2665	2.229332
2660	2.226352
2655	2.225303
2650	2.224421
2645	2.223563
2640	2.222537
2635	2.220487
2630	2.219462
2625	2.220797
2620	2.223157
2615	2.225804
2610	2.226400
2605	2.226400
2600	2.226591
2595	2.227497
2590	2.232384
2585	2.240228
2580	2.246570
2575	2.253937
2570	2.261066
2565	2.267122
2560	2.271747
2555	2.276444
2550	2.282762
2545	2.290296
2540	2.296233
2535	2.301549
2530	2.307105
2525	2.311706
2520	2.315807
2515	2.319931
2510	2.321600
2505	2.321624
2500	2.321600
2495	2.322673
2490	2.324151
2485	2.325415
2480	2.324080
2475	2.319884
2470	2.315974
2465	2.312707
2460	2.309203
2455	2.304935
2450	2.300953
2445	2.295517
2440	2.289843
2435	2.284669
2430	2.280712
2425	2.275657
2420	2.270412
2415	2.265906
2410	2.262210
2405	2.259945
2400	2.258443
2395	2.257108
2390	2.255129
2385	2.253055
2380	2.250170
2375	2.244257
2370	2.238059
2365	2.236247
2360	2.240252
2355	2.250504
2350	2.261567
2345	2.265119
2340	2.266788
2335	2.271294
2330	2.280879
2325	2.291822
2320	2.300333
2315	2.308678
2310	2.317810
2305	2.326250
2300	2.333259
2295	2.340483
2290	2.346658
2285	2.352237
2280	2.358722
2275	2.363944
2270	2.366685
2265	2.368903
2260	2.371740
2255	2.373695
2250	2.373743
2245	2.374505
2240	2.375531
2235	2.375984
2230	2.375221
2225	2.373218
2220	2.370166
2215	2.365875
2210	2.363252
2205	2.359914
2200	2.354764
2195	2.350401
2190	2.347683
2185	2.344012
2180	2.340149
2175	2.336311
2170	2.333688
2165	2.333068
2160	2.332448
2155	2.331447
2150	2.330374
2145	2.331113
2140	2.330183
2135	2.328991
2130	2.330303
2125	2.331018
2120	2.331972
2115	2.333450
2110	2.334403
2105	2.334046
2100	2.333664
2095	2.333760
2090	2.333021
2085	2.334928
2080	2.340340
2075	2.348256
2070	2.357411
2065	2.366495
2060	2.377438
2055	2.388834
2050	2.398705
2045	2.406454
2040	2.414178
2035	2.422380
2030	2.429437
2025	2.433943
2020	2.438926
2015	2.443170
2010	2.444505
2005	2.446174
2000	2.448129
1995	2.449369
1990	2.447605
1985	2.443528
1980	2.438974
1975	2.435231
1970	2.430772
1965	2.426958
1960	2.423000
1955	2.418112
1950	2.414703
1945	2.411699
1940	2.407050
1935	2.402591
1930	2.397537
1925	2.393531
1920	2.387690
1915	2.381849
1910	2.376341
1905	2.370405
1900	2.365612
1895	2.361321
1890	2.361655
1885	2.364659
1880	2.367424
1875	2.368235
1870	2.368378
1865	2.372813
1860	2.377605
1855	2.381372
1850	2.383542
1845	2.384400
1840	2.389860
1835	2.394509
1830	2.397823
1825	2.403569
1820	2.411150
1815	2.416348
1810	2.419471
1805	2.420258
1800	2.419137
1795	2.417659
1790	2.418279
1785	2.419519
1780	2.416729
1775	2.407860
1770	2.402424
1765	2.403879
1760	2.399301
1755	2.387261
1750	2.372479
1745	2.358531
1740	2.337431
1735	2.318334
1730	2.318048
1725	2.318525
1720	2.303051
1715	2.292776
1710	2.289390
1705	2.273702
1700	2.252912
1695	2.251434
1690	2.252888
1685	2.237820
1680	2.233052
1675	2.226519
1670	2.216625
1665	2.208805
1660	2.195239
1655	2.168583
1650	2.155399
1645	2.156996
1640	2.148222
1635	2.132892
1630	2.122068
1625	2.101659
1620	2.068543
1615	2.020740
1610	1.973772
1605	1.963543
1600	1.985502
1595	2.003526
1590	2.007675
1585	2.001380
1580	1.987051
1575	1.976060
1570	1.972532
1565	1.954197
1560	1.924443
1555	1.928305
1550	1.948833
1545	1.950860
1540	1.974368
1535	2.038645
1530	2.089190
1525	2.104735
1520	2.102375
1515	2.093219
1510	2.072858
1505	2.013373
1500	1.845741
1495	1.675891
1490	1.722121
1485	1.870751
1480	1.952672
1475	1.969408
1470	1.964855
1465	1.940655
1460	1.875448
1455	1.784491
1450	1.760864
1445	1.817417
1440	1.853013
1435	1.859784
1430	1.863288
1425	1.859712
1420	1.849865
1415	1.833581
1410	1.788330
1405	1.729393
1400	1.727271
1395	1.767706
1390	1.786279
1385	1.781105
1380	1.792883
1375	1.805925
1370	1.809072
1365	1.809525
1360	1.810741
1355	1.810073
1350	1.807904
1345	1.807284
1340	1.811099
1335	1.822304
1330	1.835155
1325	1.841855
1320	1.845693
1315	1.848483
1310	1.848506
1305	1.847004
1300	1.847028
1295	1.847481
1290	1.846718
1285	1.844191
1280	1.837396
1275	1.819729
1270	1.777362
1265	1.721453
1260	1.711249
1255	1.759672
1250	1.805782
1245	1.824164
1240	1.827263
1235	1.824712
1230	1.819372
1225	1.809835
1220	1.793384
1215	1.770043
1210	1.749634
1205	1.740121
1200	1.738858
1195	1.738834
1190	1.733303
1185	1.720643
1180	1.706051
1175	1.692128
1170	1.672482
1165	1.648187
1160	1.626038
1155	1.611566
1150	1.605129
1145	1.596856
1140	1.584362
1135	1.566839
1130	1.544094
1125	1.519298
1120	1.493310
1115	1.468443
1110	1.446008
1105	1.429581
1100	1.421403
1095	1.418495
1090	1.419758
1085	1.423740
1080	1.423168
1075	1.422786
1070	1.429653
1065	1.431345
1060	1.413846
1055	1.348042
1050	1.294445
1045	1.333427
1040	1.375818
1035	1.378059
1030	1.368594
1025	1.357936
1020	1.353454
1015	1.360154
1010	1.374077
1005	1.385664
1000	1.391792
995	 1.392483
990	 1.386237
985	 1.377081
980	 1.366543
975	 1.355242
970	 1.342844
965	 1.326370
960	 1.308059
955	 1.291179
950	 1.276540
945	 1.264762
940	 1.255011
935	 1.244330
930	 1.231122
925	 1.218914
920	 1.207590
915	 1.190757
910	 1.170444
905	 1.157665
900	 1.151371
895	 1.142454
890	 1.125383
885	 1.090884
880	 1.045131
875	 1.024937
870	 1.046156
865	 1.075220
860	 1.088452
855	 1.086354
850	 1.078748
845	 1.071071
840	 1.053786
835	 1.007056
830	 0.915956
825	 0.842142
820	 0.865983
815	 0.922989
810	 0.943255
805	 0.942230
800	 0.941157
795	 0.947570
790	 0.960350
785	 0.972127
780	 0.974917
775	 0.972414
770	 0.970029
765	 0.965428
760	 0.959539
755	 0.955009
750	 0.949168
745	 0.941133
740	 0.930452
735	 0.917482
730	 0.903820
725	 0.889348
720	 0.875210
715	 0.860571
710	 0.845384
705	 0.829505
700	 0.811648
695	 0.781846
690	 0.742578
685	 0.727152
680	 0.731801
675	 0.728273
670	 0.717902
665	 0.705480
660	 0.692963
655	 0.680828
650	 0.668454
645	 0.655913
640	 0.641965
635	 0.626587
630	 0.614380
625	 0.602173
620	 0.587701
615	 0.568461
610	 0.541663
605	 0.521945
600	 0.519776
595	 0.518846
590	 0.512123
585	 0.505995
580	 0.502181
575	 0.498104
570	 0.493860
565	 0.486493
560	 0.477910
555	 0.470018
550	 0.461196
545	 0.451827
540	 0.442385
535	 0.432896
530	 0.422501
525	 0.410056
520	 0.398659
515	 0.387096
510	 0.374484
505	 0.360488
500	 0.344419
495	 0.327777
490	 0.310993
485	 0.292682
480	 0.275397
475	 0.260901
470	 0.245213
465	 0.228071
460	 0.210022
455	 0.190591
450	 0.173640
445	 0.161457
440	 0.148463
435	 0.134825
430	 0.119400
425	 0.101780
420	 0.084853
415	 0.071191
410	 0.059223
405	 0.048422
400	 0.039768
395	 0.030803
390	 0.022721
385	 0.017499
380	 0.012707
375	 0.008749
370	 0.006222