File: Bakgrunnsmateriale/MATLAB/FTIR/ftir_data/subBb/Mapping_36/C-4040-8_t26.asc
PE IR       SPECTRUM    SPECTRUM    ASCII       PEDS        1.60
  -1
C-BD22~1.ASC
17/05/02
13:06:38.00
17/05/02
13:07:04.00
tln
$C-4040-8_t0026$<tbV0>[7.5,7.0,8.0,0.0,22,1,0]
27.028
64

2002,4.07
MIRTGS : RIGHTBACK : INTERNAL 2
MIR : ON : INTERNAL 2
OPTKBR

0.200000
8
8.000000
FILLER
RATIO
SPECTRUM
UNLOCKED 256

DOUBLE
64
COMBINED
1
0
0

0.002000
RATIO

1
0
TRUE
51149
0
LEFT NOT FITTED RIGHT NOT FITTED 0
NONE
NONE
15600
12
4.427000
51148
TRUE
1 0 8 72 0 0 0 0

15798

#HDR
-1
-1
#GR
µM
%T
2.38419e-05
0.0
1.282000
0.002000
12874
8
78.617
36.0933
#DATA
1.282000	 71.9859
1.300000	 69.6333
1.318000	 70.16
1.336000	 64.8038
1.354000	 65.4482
1.372000	 65.9544
1.390000	 63.2426
1.408000	 64.6335
1.426000	 63.6549
1.444000	 64.9398
1.462000	 65.3865
1.480000	 64.8985
1.498000	 64.1562
1.516000	 65.5128
1.534000	 66.2747
1.552000	 64.8005
1.570000	 66.1093
1.588000	 65.0371
1.606000	 64.6951
1.624000	 66.0105
1.642000	 64.7804
1.660000	 64.3348
1.678000	 65
1.696000	 65.2453
1.714000	 65.3055
1.732000	 65.212
1.750000	 65.0773
1.768000	 64.6524
1.786000	 65.4502
1.804000	 65.0967
1.822000	 64.9083
1.840000	 64.2633
1.858000	 64.6043
1.876000	 65.0282
1.894000	 59.9191
1.912000	 64.1432
1.930000	 64.6258
1.948000	 64.9162
1.966000	 64.3552
1.984000	 64.807
2.002000	 65.1736
2.020000	 64.3779
2.038000	 64.817
2.056000	 64.8275
2.074000	 65.0009
2.092000	 65.3165
2.110000	 64.8243
2.128000	 65.1454
2.146000	 65.4074
2.164000	 65.1186
2.182000	 65.1988
2.200000	 64.4343
2.218000	 64.4993
2.236000	 64.2072
2.254000	 64.3487
2.272000	 63.5378
2.290000	 64.289
2.308000	 64.6708
2.326000	 64.9596
2.344000	 64.3586
2.362000	 64.8798
2.380000	 64.9765
2.398000	 64.8314
2.416000	 65.0775
2.434000	 65.539
2.452000	 64.8748
2.470000	 65.42
2.488000	 64.9846
2.506000	 65.2782
2.524000	 65.2957
2.542000	 65.1533
2.560000	 65.0345
2.578000	 65.1414
2.596000	 65.2972
2.614000	 65.2635
2.632000	 65.0243
2.650000	 64.8727
2.668000	 65.1783
2.686000	 65.296
2.704000	 65.2836
2.722000	 65.1907
2.740000	 65.2984
2.758000	 65.0964
2.776000	 65.2251
2.794000	 65.2373
2.812000	 65.1194
2.830000	 65.1922
2.848000	 65.1369
2.866000	 65.3351
2.884000	 65.3639
2.902000	 65.3826
2.920000	 65.0151
2.938000	 65.2281
2.956000	 65.0918
2.974000	 65.1576
2.992000	 65.1731
3.010000	 65.2265
3.028000	 65.1884
3.046000	 65.1871
3.064000	 65.1098
3.082000	 65.2264
3.100000	 65.1343
3.118000	 65.1411
3.136000	 65.1801
3.154000	 65.2093
3.172000	 65.1624
3.190000	 65.1158
3.208000	 65.2675
3.226000	 65.3231
3.244000	 65.327
3.262000	 65.0923
3.280000	 65.3035
3.298000	 65.0186
3.316000	 65.2231
3.334000	 65.2806
3.352000	 65.2939
3.370000	 64.9397
3.388000	 64.997
3.406000	 65.0348
3.424000	 64.728
3.442000	 65.0639
3.460000	 65.0635
3.478000	 65.0122
3.496000	 65.0819
3.514000	 65.0332
3.532000	 65.1599
3.550000	 65.2788
3.568000	 65.3592
3.586000	 65.2687
3.604000	 65.2802
3.622000	 65.2196
3.640000	 65.2691
3.658000	 65.2166
3.676000	 65.3574
3.694000	 65.3146
3.712000	 65.3396
3.730000	 65.2743
3.748000	 65.2232
3.766000	 65.2585
3.784000	 65.1906
3.802000	 65.2599
3.820000	 65.2792
3.838000	 65.3788
3.856000	 65.3066
3.874000	 65.1564
3.892000	 65.2939
3.910000	 65.4667
3.928000	 65.3473
3.946000	 65.2596
3.964000	 65.271
3.982000	 65.3546
4.000000	 65.3304
4.018000	 65.2939
4.036000	 65.2358
4.054000	 65.3066
4.072000	 65.2965
4.090000	 65.2792
4.108000	 65.2596
4.125999	 65.2366
4.144000	 65.3882
4.162000	 65.1912
4.180000	 65.3323
4.198000	 65.2707
4.216000	 65.3165
4.234000	 65.3096
4.252000	 65.2532
4.270000	 65.2521
4.288000	 65.1725
4.306000	 65.1944
4.324000	 65.3116
4.342000	 65.3509
4.359999	 65.3607
4.378000	 65.3939
4.396000	 65.2224
4.414000	 65.3778
4.432000	 65.4165
4.450000	 65.3529
4.468000	 65.2631
4.486000	 65.1984
4.504000	 65.3442
4.522000	 65.3233
4.540000	 65.3065
4.558000	 65.3799
4.576000	 65.2834
4.594000	 65.2719
4.612000	 65.3365
4.630000	 65.2625
4.648000	 65.2361
4.666000	 65.3183
4.684000	 65.4406
4.702000	 65.406
4.720000	 65.2488
4.738000	 65.2931
4.756000	 65.3757
4.774000	 65.3248
4.792000	 65.3378
4.810000	 65.2262
4.828000	 65.2842
4.846000	 65.3658
4.864000	 65.3032
4.882000	 65.2779
4.900000	 65.3354
4.918000	 65.3459
4.936000	 65.3658
4.954000	 65.28
4.972000	 65.3372
4.990000	 65.4243
5.008000	 65.3352
5.026000	 65.3482
5.044000	 65.4374
5.062000	 65.3451
5.080000	 65.3796
5.098000	 65.3815
5.116000	 65.3645
5.134000	 65.3306
5.152000	 65.353
5.170000	 65.3955
5.188000	 65.4466
5.206000	 65.3275
5.224000	 65.3254
5.242000	 65.4144
5.260000	 65.4157
5.278000	 65.4359
5.296000	 65.4134
5.314000	 65.3547
5.332000	 65.3796
5.350000	 65.4157
5.368000	 65.3543
5.386000	 65.4144
5.404000	 65.3837
5.422000	 65.3612
5.440000	 65.4756
5.458000	 65.4581
5.476000	 65.4071
5.494000	 65.3433
5.512000	 65.2893
5.530000	 65.2988
5.548000	 65.3635
5.566000	 65.4204
5.584000	 65.3562
5.602000	 65.3183
5.620000	 65.3976
5.638000	 65.4639
5.656000	 65.3308
5.674000	 65.2677
5.692000	 65.2897
5.710000	 65.1977
5.728000	 65.0651
5.746000	 65.0716
5.764000	 65.0977
5.782000	 65.0374
5.800000	 65.0374
5.818000	 65.156
5.836000	 65.218
5.854000	 65.2204
5.872000	 65.2566
5.890000	 65.1847
5.908000	 65.1242
5.926000	 65.1196
5.944000	 65.2328
5.962000	 65.346
5.980000	 65.2555
5.998000	 65.2351
6.016000	 65.2649
6.034000	 65.2144
6.052000	 65.2203
6.070000	 65.2498
6.088000	 65.2436
6.106000	 65.237
6.124000	 65.1441
6.142000	 65.1333
6.160000	 65.1745
6.178000	 65.1281
6.196000	 65.1909
6.214000	 65.2953
6.232000	 65.3034
6.250000	 65.2497
6.268000	 65.1976
6.286000	 65.1389
6.304000	 65.1341
6.322000	 65.1937
6.340000	 65.2195
6.358000	 65.1725
6.376000	 65.1291
6.394000	 65.0671
6.412000	 65.073
6.430000	 65.1932
6.448000	 65.1644
6.466000	 65.0826
6.484000	 65.0308
6.502000	 65.0149
6.520000	 65.117
6.538000	 65.2136
6.556000	 65.238
6.574000	 65.2509
6.592000	 65.2438
6.610000	 65.2024
6.628000	 65.1868
6.646000	 65.1816
6.664000	 65.1902
6.682000	 65.301
6.700000	 65.373
6.718000	 65.2566
6.736000	 65.1443
6.754000	 65.1049
6.772000	 65.0764
6.790000	 65.0754
6.808000	 65.0706
6.826000	 65.0372
6.844000	 65.071
6.862000	 65.1651
6.880000	 65.2008
6.898000	 65.1538
6.916000	 65.1031
6.934000	 65.1168
6.952000	 65.1886
6.970000	 65.2351
6.988000	 65.2131
7.006000	 65.1885
7.024000	 65.1562
7.042000	 65.0643
7.060000	 64.9803
7.078000	 64.9525
7.096000	 64.9698
7.114000	 65.0275
7.132000	 65.064
7.150000	 65.0511
7.168000	 65.0581
7.186000	 65.1078
7.204000	 65.1174
7.222000	 65.0332
7.240000	 64.9459
7.258000	 64.954
7.276000	 65.0258
7.294000	 65.0958
7.312000	 65.1326
7.330000	 65.129
7.348000	 65.1108
7.366000	 65.096
7.384000	 65.0828
7.402000	 65.0856
7.420000	 65.0903
7.438000	 65.0403
7.456000	 64.9537
7.474000	 64.9316
7.492000	 65.0003
7.510000	 65.0822
7.528000	 65.1242
7.546000	 65.1436
7.564000	 65.1613
7.582000	 65.1753
7.600000	 65.1711
7.618000	 65.1396
7.636000	 65.1036
7.654000	 65.0934
7.672000	 65.1055
7.690000	 65.1144
7.708000	 65.1045
7.726000	 65.082
7.744000	 65.0656
7.762000	 65.0674
7.780000	 65.0889
7.798000	 65.1218
7.816000	 65.1284
7.834000	 65.0677
7.852000	 64.9656
7.870000	 64.9042
7.888000	 64.93
7.906000	 65.018
7.924000	 65.102
7.942000	 65.1124
7.960000	 65.0314
7.978000	 64.9258
7.996000	 64.8926
8.013999	 64.9572
8.032000	 65.0488
8.050000	 65.0865
8.068000	 65.064
8.086000	 65.0269
8.103999	 64.9977
8.122000	 64.9663
8.140000	 64.9366
8.158000	 64.9314
8.176000	 64.9513
8.193999	 64.968
8.212000	 64.9623
8.230000	 64.942
8.248000	 64.9301
8.266000	 64.9459
8.283999	 64.9913
8.302000	 65.0388
8.320000	 65.0473
8.338000	 65.0004
8.356000	 64.9258
8.374000	 64.8677
8.391999	 64.8451
8.410000	 64.8433
8.428000	 64.8426
8.446000	 64.8443
8.464000	 64.8563
8.481999	 64.8673
8.500000	 64.8516
8.518000	 64.8043
8.536000	 64.7533
8.554000	 64.7294
8.571999	 64.7348
8.590000	 64.7529
8.608000	 64.7748
8.626000	 64.8071
8.644000	 64.852
8.661999	 64.8908
8.680000	 64.8942
8.698000	 64.8494
8.716000	 64.777
8.734000	 64.7158
8.751999	 64.6924
8.770000	 64.7059
8.788000	 64.7397
8.806000	 64.7781
8.824000	 64.8139
8.842000	 64.8466
8.859999	 64.8792
8.878000	 64.9119
8.896000	 64.9336
8.914000	 64.9265
8.932000	 64.8826
8.949999	 64.8162
8.968000	 64.7549
8.986000	 64.7209
9.004000	 64.7211
9.022000	 64.7515
9.039999	 64.8005
9.058000	 64.8484
9.076000	 64.8761
9.094000	 64.8809
9.112000	 64.8817
9.129999	 64.9031
9.148000	 64.9515
9.166000	 65.0052
9.184000	 65.0282
9.202000	 64.9976
9.219999	 64.9255
9.238000	 64.8552
9.256000	 64.8313
9.274000	 64.8617
9.292000	 64.9086
9.310000	 64.926
9.327999	 64.9015
9.346000	 64.8641
9.364000	 64.8472
9.382000	 64.854
9.400000	 64.8589
9.418000	 64.8404
9.436000	 64.8067
9.454000	 64.7863
9.472000	 64.8014
9.490000	 64.8506
9.508000	 64.9116
9.526000	 64.9558
9.544000	 64.9646
9.561999	 64.9363
9.580000	 64.8846
9.598000	 64.8317
9.616000	 64.7993
9.634000	 64.798
9.652000	 64.8178
9.670000	 64.8347
9.688000	 64.8311
9.706000	 64.8112
9.724000	 64.7972
9.742000	 64.806
9.760000	 64.8345
9.778000	 64.8624
9.795999	 64.8745
9.814000	 64.8729
9.832000	 64.8708
9.850000	 64.876
9.868000	 64.8831
9.886000	 64.8833
9.904000	 64.8757
9.922000	 64.8676
9.940000	 64.8657
9.958000	 64.8662
9.976000	 64.856
9.994000	 64.8232
10.012	64.7659
10.03	64.6946
10.048	64.627
10.066	64.5789
10.084	64.5594
10.102	64.5711
10.12	64.6105
10.138	64.67
10.156	64.7387
10.174	64.8014
10.192	64.8404
10.21	64.841
10.228	64.7989
10.246	64.7238
10.264	64.6372
10.282	64.5643
10.3	64.5236
10.318	64.5209
10.336	64.546
10.354	64.5791
10.372	64.5999
10.39	64.5965
10.408	64.5703
10.426	64.5292
10.444	64.4826
10.462	64.4377
10.48	64.3988
10.498	64.3693
10.516	64.3524
10.534	64.3496
10.552	64.3604
10.57	64.3827
10.588	64.4123
10.606	64.4445
10.624	64.4736
10.642	64.4923
10.66	64.4976
10.678	64.4944
10.696	64.4963
10.714	64.5174
10.732	64.5594
10.75	64.6074
10.768	64.6341
10.786	64.617
10.804	64.5511
10.822	64.4557
10.84	64.3633
10.858	64.3048
10.876	64.2964
10.894	64.3356
10.912	64.4095
10.93	64.5041
10.948	64.6119
10.966	64.7314
10.984	64.8615
11.002	64.9956
11.02	65.1214
11.038	65.2212
11.056	65.2776
11.074	65.276
11.092	65.2064
11.11	65.0667
11.128	64.8656
11.146	64.6256
11.164	64.3849
11.182	64.1863
11.2	64.0701
11.218	64.0551
11.236	64.131
11.254	64.2627
11.272	64.4035
11.29	64.5112
11.308	64.5647
11.326	64.5638
11.344	64.5222
11.362	64.4555
11.38	64.3734
11.398	64.2784
11.416	64.173
11.434	64.0669
11.452	63.9788
11.47	63.9308
11.488	63.937
11.506	63.9968
11.524	64.0937
11.542	64.2045
11.56	64.3071
11.578	64.3896
11.596	64.4511
11.614	64.4989
11.632	64.5413
11.65	64.5827
11.668	64.6222
11.686	64.6545
11.704	64.6732
11.722	64.6744
11.74	64.6583
11.758	64.6287
11.776	64.5904
11.794	64.5469
11.812	64.4998
11.83	64.4501
11.848	64.3987
11.866	64.3482
11.884	64.3034
11.902	64.2701
11.92	64.253
11.938	64.2541
11.956	64.2719
11.974	64.3011
11.992	64.3352
12.01	64.3693
12.028	64.4003
12.046	64.4264
12.064	64.4456
12.082	64.4543
12.1	64.4475
12.118	64.4207
12.136	64.3737
12.154	64.3115
12.172	64.2442
12.19	64.1855
12.208	64.147
12.226	64.1352
12.244	64.1486
12.262	64.1793
12.28	64.2152
12.298	64.2442
12.316	64.2588
12.334	64.257
12.352	64.2423
12.37	64.2215
12.388	64.2017
12.406	64.1874
12.424	64.1794
12.442	64.1754
12.46	64.1712
12.478	64.1629
12.496	64.1481
12.514	64.1265
12.532	64.0996
12.55	64.0696
12.568	64.0385
12.586	64.0077
12.604	63.9779
12.622	63.9497
12.64	63.9227
12.658	63.8966
12.676	63.8708
12.694	63.8457
12.712	63.822
12.73	63.8016
12.748	63.787
12.766	63.7809
12.784	63.7852
12.802	63.8002
12.82	63.8234
12.838	63.8504
12.856	63.8756
12.874	63.893
12.892	63.8973
12.91	63.8853
12.928	63.8567
12.946	63.8143
12.964	63.7632
12.982	63.71
13	63.6615
13.018	63.6237
13.036	63.6008
13.054	63.5946
13.072	63.6048
13.09	63.6289
13.108	63.6624
13.126	63.7003
13.144	63.7373
13.162	63.7682
13.18	63.7887
13.198	63.7962
13.216	63.7893
13.234	63.7683
13.252	63.7348
13.27	63.6918
13.288	63.6434
13.306	63.5942
13.324	63.5491
13.342	63.5125
13.36	63.4878
13.378	63.4772
13.396	63.4808
13.414	63.4975
13.432	63.5247
13.45	63.559
13.468	63.5968
13.486	63.6341
13.504	63.6677
13.522	63.6952
13.54	63.715
13.558	63.7266
13.576	63.7307
13.594	63.7282
13.612	63.721
13.63	63.711
13.648	63.7004
13.666	63.6904
13.684	63.6816
13.702	63.6736
13.72	63.6651
13.738	63.6543
13.756	63.6393
13.774	63.6189
13.792	63.5931
13.81	63.5634
13.828	63.5327
13.846	63.5043
13.864	63.4814
13.882	63.466
13.9	63.4585
13.918	63.4576
13.936	63.4607
13.954	63.4643
13.972	63.4652
13.99	63.4608
14.008	63.4503
14.026	63.4347
14.044	63.4157
14.062	63.3959
14.08	63.3778
14.098	63.3628
14.116	63.3512
14.134	63.3416
14.152	63.3319
14.17	63.3195
14.188	63.3026
14.206	63.2799
14.224	63.2519
14.242	63.2204
14.26	63.1887
14.278	63.1605
14.296	63.1394
14.314	63.1285
14.332	63.1297
14.35	63.1434
14.368	63.1688
14.386	63.2035
14.404	63.2439
14.422	63.2858
14.44	63.325
14.458	63.3578
14.476	63.3809
14.494	63.3917
14.512	63.3889
14.53	63.3721
14.548	63.3421
14.566	63.3003
14.584	63.2487
14.602	63.1896
14.62	63.1258
14.638	63.0603
14.656	62.9961
14.674	62.936
14.692	62.8824
14.71	62.8371
14.728	62.8017
14.746	62.7769
14.764	62.7625
14.782	62.7578
14.8	62.7616
14.818	62.7726
14.836	62.7894
14.854	62.8103
14.872	62.8339
14.89	62.8592
14.908	62.8854
14.926	62.9121
14.944	62.939
14.962	62.9664
14.98	62.9942
14.998	63.0226
15.016	63.0514
15.034	63.0807
15.052	63.1098
15.07	63.1378
15.088	63.1636
15.106	63.1858
15.124	63.2027
15.142	63.2126
15.16	63.2143
15.178	63.2071
15.196	63.1907
15.214	63.1655
15.232	63.1334
15.25	63.0962
15.268	63.0563
15.286	63.0169
15.304	62.9807
15.322	62.949
15.34	62.9224
15.358	62.9005
15.376	62.8814
15.394	62.863
15.412	62.8431
15.43	62.8196
15.448	62.7913
15.466	62.7586
15.484	62.7231
15.502	62.6871
15.52	62.6544
15.538	62.6291
15.556	62.6143
15.574	62.6126
15.592	62.6261
15.61	62.6546
15.628	62.6966
15.646	62.75
15.664	62.8106
15.682	62.8739
15.7	62.9361
15.718	62.9928
15.736	63.0396
15.754	63.0746
15.772	63.0959
15.79	63.1027
15.808	63.0958
15.826	63.0766
15.844	63.0468
15.862	63.0095
15.88	62.9673
15.898	62.923
15.916	62.8796
15.934	62.84
15.952	62.8061
15.97	62.7795
15.988	62.7614
16.006	62.7519
16.024	62.7509
16.042	62.7573
16.06	62.7698
16.078	62.7872
16.096	62.8078
16.114	62.8301
16.132	62.8532
16.15	62.8763
16.168	62.8993
16.186	62.9222
16.204	62.9453
16.222	62.9694
16.24	62.9951
16.258	63.0225
16.276	63.0524
16.294	63.0845
16.312	63.1188
16.33	63.1546
16.348	63.1911
16.366	63.2274
16.384	63.2621
16.402	63.2935
16.42	63.3206
16.438	63.3416
16.456	63.3552
16.474	63.3605
16.492	63.3568
16.51	63.3439
16.528	63.3221
16.546	63.2919
16.564	63.2544
16.582	63.2107
16.6	63.1626
16.618	63.1119
16.636	63.0599
16.654	63.0091
16.672	62.9606
16.69	62.9155
16.708	62.8754
16.726	62.8408
16.744	62.8122
16.762	62.7897
16.78	62.7732
16.798	62.7623
16.816	62.7561
16.834	62.754
16.852	62.7547
16.87	62.757
16.888	62.7602
16.906	62.7627
16.924	62.7641
16.942	62.7635
16.96	62.7605
16.978	62.755
16.996	62.7467
17.014	62.7361
17.032	62.7233
17.05	62.709
17.068	62.6937
17.086	62.6778
17.104	62.6618
17.122	62.6458
17.14	62.63
17.158	62.6141
17.176	62.5981
17.194	62.5811
17.212	62.5627
17.23	62.5423
17.248	62.519
17.266	62.4923
17.284	62.4616
17.302	62.4268
17.32	62.3876
17.338	62.3444
17.356	62.2975
17.374	62.2477
17.392	62.1958
17.41	62.1428
17.428	62.0899
17.446	62.0379
17.464	61.9883
17.482	61.9417
17.5	61.8991
17.518	61.8612
17.536	61.8286
17.554	61.8016
17.572	61.7803
17.59	61.7649
17.608	61.755
17.626	61.7503
17.644	61.7501
17.662	61.7542
17.68	61.7613
17.698	61.771
17.716	61.7826
17.734	61.7953
17.752	61.8087
17.77	61.8222
17.788	61.8354
17.806	61.8477
17.824	61.859
17.842	61.8688
17.86	61.8766
17.878	61.882
17.896	61.8844
17.914	61.8836
17.932	61.8791
17.95	61.8707
17.968	61.8583
17.986	61.8422
18.004	61.8226
18.022	61.8007
18.04	61.7768
18.058	61.753
18.076	61.7297
18.094	61.709
18.112	61.6915
18.13	61.6788
18.148	61.6711
18.166	61.6692
18.184	61.6728
18.202	61.6819
18.22	61.695
18.238	61.7119
18.256	61.7303
18.274	61.7498
18.292	61.7679
18.31	61.7842
18.328	61.7966
18.346	61.8051
18.364	61.8084
18.382	61.8068
18.4	61.7999
18.418	61.7887
18.436	61.7735
18.454	61.7558
18.472	61.7361
18.49	61.7159
18.508	61.6957
18.526	61.6767
18.544	61.659
18.562	61.6433
18.58	61.6295
18.598	61.6175
18.616	61.6072
18.634	61.5977
18.652	61.5888
18.67	61.5796
18.688	61.5699
18.706	61.5591
18.724	61.5473
18.742	61.5342
18.76	61.5201
18.778	61.5053
18.796	61.4903
18.814	61.4757
18.832	61.4619
18.85	61.4498
18.868	61.4396
18.886	61.4321
18.904	61.4271
18.922	61.4251
18.94	61.4257
18.958	61.4289
18.976	61.4338
18.994	61.4402
19.012	61.4469
19.03	61.4533
19.048	61.4583
19.066	61.4612
19.084	61.4611
19.102	61.4572
19.12	61.4493
19.138	61.4368
19.156	61.4201
19.174	61.3989
19.192	61.3739
19.21	61.3457
19.228	61.3151
19.246	61.2831
19.264	61.2503
19.282	61.2186
19.3	61.1882
19.318	61.161
19.336	61.1372
19.354	61.1185
19.372	61.1048
19.39	61.0971
19.408	61.0953
19.426	61.0994
19.444	61.1096
19.462	61.1251
19.48	61.146
19.498	61.1711
19.516	61.2003
19.534	61.2321
19.552	61.2662
19.57	61.3012
19.588	61.3364
19.606	61.3712
19.624	61.4045
19.642	61.4364
19.66	61.4657
19.678	61.4927
19.696	61.5166
19.714	61.5375
19.732	61.5551
19.75	61.5696
19.768	61.5809
19.786	61.589
19.804	61.5941
19.822	61.5964
19.84	61.5959
19.858	61.5929
19.876	61.5875
19.894	61.5801
19.912	61.5706
19.93	61.5595
19.948	61.5467
19.966	61.533
19.984	61.5184
20.002	61.5036
20.02	61.4888
20.038	61.4745
20.056	61.4612
20.074	61.4489
20.092	61.4382
20.11	61.4291
20.128	61.4218
20.146	61.4165
20.164	61.4129
20.182	61.4111
20.2	61.4106
20.218	61.4113
20.236	61.4126
20.254	61.4137
20.272	61.4146
20.29	61.414
20.308	61.412
20.326	61.4075
20.344	61.4
20.362	61.3893
20.38	61.3744
20.398	61.3557
20.416	61.3321
20.434	61.3039
20.452	61.2709
20.47	61.2331
20.488	61.1906
20.506	61.1435
20.524	61.0918
20.542	61.0361
20.56	60.9763
20.578	60.9129
20.596	60.846
20.614	60.776
20.632	60.7032
20.65	60.6277
20.668	60.5501
20.686	60.4703
20.704	60.3889
20.722	60.3061
20.74	60.2222
20.758	60.1381
20.776	60.0535
20.794	59.9698
20.812	59.8865
20.83	59.805
20.848	59.7262
20.866	59.65
20.884	59.5786
20.902	59.5113
20.92	59.4503
20.938	59.3962
20.956	59.3492
20.974	59.3111
20.992	59.2814
21.01	59.2613
21.028	59.2512
21.046	59.2508
21.064	59.2605
21.082	59.28
21.1	59.3085
21.118	59.3463
21.136	59.3922
21.154	59.4446
21.172	59.5041
21.19	59.5678
21.208	59.6361
21.226	59.7072
21.244	59.7791
21.262	59.8525
21.28	59.9243
21.298	59.9949
21.316	60.063
21.334	60.1271
21.352	60.1876
21.37	60.2433
21.388	60.2939
21.406	60.3393
21.424	60.3792
21.442	60.4137
21.46	60.4428
21.478	60.4665
21.496	60.485
21.514	60.4986
21.532	60.5072
21.55	60.5115
21.568	60.5117
21.586	60.5078
21.604	60.5006
21.622	60.4898
21.64	60.4761
21.658	60.4601
21.676	60.4414
21.694	60.4208
21.712	60.3982
21.73	60.3741
21.748	60.349
21.766	60.323
21.784	60.2963
21.802	60.2694
21.82	60.242
21.838	60.2151
21.856	60.1886
21.874	60.1626
21.892	60.1374
21.91	60.1131
21.928	60.0896
21.946	60.0668
21.964	60.0448
21.982	60.0234
22	60.0025
22.018	59.982
22.036	59.9616
22.054	59.9414
22.072	59.9213
22.09	59.9012
22.108	59.8812
22.126	59.8615
22.144	59.8417
22.162	59.8224
22.18	59.8043
22.198	59.787
22.216	59.7714
22.234	59.7583
22.252	59.7474
22.27	59.74
22.288	59.7367
22.306	59.7373
22.324	59.7431
22.342	59.7542
22.36	59.7704
22.378	59.7926
22.396	59.8206
22.414	59.8541
22.432	59.8929
22.45	59.9374
22.468	59.9856
22.486	60.0368
22.504	60.0914
22.522	60.1458
22.54	60.1998
22.558	60.2532
22.576	60.3016
22.594	60.3458
22.612	60.3845
22.63	60.4137
22.648	60.4347
22.666	60.4462
22.684	60.4458
22.702	60.4344
22.72	60.4117
22.738	60.377
22.756	60.3303
22.774	60.273
22.792	60.2054
22.81	60.1271
22.828	60.041
22.846	59.9476
22.864	59.8466
22.882	59.7418
22.9	59.6341
22.918	59.5229
22.936	59.4126
22.954	59.3035
22.972	59.1954
22.99	59.0914
23.008	58.9913
23.026	58.8953
23.044	58.8052
23.062	58.7209
23.08	58.6424
23.098	58.5708
23.116	58.5061
23.134	58.4481
23.152	58.3972
23.17	58.3534
23.188	58.3165
23.206	58.2864
23.224	58.2633
23.242	58.2468
23.26	58.2367
23.278	58.2329
23.296	58.2355
23.314	58.2442
23.332	58.2594
23.35	58.2805
23.368	58.3072
23.386	58.3398
23.404	58.3776
23.422	58.4195
23.44	58.466
23.458	58.5164
23.476	58.5686
23.494	58.6236
23.512	58.6803
23.53	58.7357
23.548	58.7899
23.566	58.8429
23.584	58.8921
23.602	58.937
23.62	58.9782
23.638	59.0139
23.656	59.0435
23.674	59.0675
23.692	59.086
23.71	59.0987
23.728	59.1056
23.746	59.1082
23.764	59.107
23.782	59.1008
23.8	59.0929
23.818	59.0861
23.836	59.0779
23.854	59.072
23.872	59.0727
23.89	59.078
23.908	59.0895
23.926	59.1112
23.944	59.1428
23.962	59.1839
23.98	59.2357
23.998	59.2994
24.016	59.3741
24.034	59.4576
24.052	59.5499
24.07	59.6523
24.088	59.7593
24.106	59.8674
24.124	59.9806
24.142	60.0928
24.16	60.1972
24.178	60.2981
24.196	60.3917
24.214	60.4696
24.232	60.5331
24.25	60.5824
24.268	60.6109
24.286	60.6156
24.304	60.5996
24.322	60.5594
24.34	60.4916
24.358	60.3972
24.376	60.2778
24.394	60.1344
24.412	59.965
24.43	59.7721
24.448	59.5607
24.466	59.3309
24.484	59.0813
24.502	58.819
24.52	58.5483
24.538	58.2645
24.556	57.9737
24.574	57.6828
24.592	57.3883
24.61	57.0924
24.628	56.8021
24.646	56.5192
24.664	56.2409
24.682	55.9716
24.7	55.715
24.718	55.4692
24.736	55.2344
24.754	55.0117
24.772	54.8014
24.79	54.6029
24.808	54.4151
24.826	54.2379
24.844	54.0722
24.862	53.9154
24.88	53.7649
24.898	53.6215
24.916	53.4852
24.934	53.3547
24.952	53.2294
24.97	53.1096
24.988	52.9959
25.006	52.8884
25.024	52.7849
25.042	52.6885
25.06	52.6035
25.078	52.5298
25.096	52.4654
25.114	52.417
25.132	52.39
25.15	52.3789
25.168	52.3883
25.186	52.4264
25.204	52.4952
25.222	52.5905
25.24	52.7183
25.258	52.8846
25.276	53.0859
25.294	53.3233
25.312	53.6002
25.33	53.9192
25.348	54.2781
25.366	54.676
25.384	55.1118
25.402	55.5892
25.42	56.1045
25.438	56.6504
25.456	57.2238
25.474	57.832
25.492	58.4638
25.51	59.1059
25.528	59.7619
25.546	60.4341
25.564	61.1068
25.582	61.7669
25.6	62.4267
25.618	63.078
25.636	63.7049
25.654	64.3009
25.672	64.8769
25.69	65.4211
25.708	65.9206
25.726	66.3785
25.744	66.7971
25.762	67.1674
25.78	67.4816
25.798	67.7447
25.816	67.9559
25.834	68.1115
25.852	68.209
25.87	68.251
25.888	68.2375
25.906	68.1686
25.924	68.0426
25.942	67.8605
25.96	67.6268
25.978	67.3457
25.996	67.0139
26.014	66.6333
26.032	66.2094
26.05	65.7464
26.068	65.2399
26.086	64.6932
26.104	64.1114
26.122	63.4969
26.14	62.8461
26.158	62.1625
26.176	61.4502
26.194	60.709
26.212	59.937
26.23	59.1387
26.248	58.3186
26.266	57.4742
26.284	56.6055
26.302	55.7181
26.32	54.8172
26.338	53.8974
26.356	52.9615
26.374	52.0172
26.392	51.0707
26.41	50.1131
26.428	49.1508
26.446	48.1948
26.464	47.2525
26.482	46.3127
26.5	45.3839
26.518	44.4784
26.536	43.6019
26.554	42.7422
26.572	41.9109
26.59	41.1221
26.608	40.3809
26.626	39.6746
26.644	39.0159
26.662	38.4191
26.68	37.8893
26.698	37.4152
26.716	37.006
26.734	36.6719
26.752	36.4164
26.77	36.2323
26.788	36.1235
26.806	36.0941
26.824	36.1484
26.842	36.2844
26.86	36.4953
26.878	36.7741
26.896	37.1233
26.914	37.5498
26.932	38.0362
26.95	38.5645
26.968	39.1734
26.986	39.9061
27.004	40.6192
27.022	41.164
27.028	41.2659