File: Bakgrunnsmateriale/MATLAB/FTIR/ftir_data/subBb/Mapping_36/C-4040-8_t18.asc
PE IR       SPECTRUM    SPECTRUM    ASCII       PEDS        1.60
  -1
C-C92A~1.ASC
17/05/02
12:22:01.00
17/05/02
12:22:27.00
tln
$C-4040-8_t0018$<tbV0>[-12.5,-3.0,8.0,0.0,22,1,0]
27.028
64

2002,4.07
MIRTGS : RIGHTBACK : INTERNAL 2
MIR : ON : INTERNAL 2
OPTKBR

0.200000
8
8.000000
FILLER
RATIO
SPECTRUM
UNLOCKED 256

DOUBLE
64
COMBINED
1
0
0

0.002000
RATIO

1
0
TRUE
51149
0
LEFT NOT FITTED RIGHT NOT FITTED 0
NONE
NONE
15600
12
4.427000
51148
TRUE
1 0 8 72 0 0 0 0

15798

#HDR
-1
-1
#GR
µM
%T
2.38419e-05
0.0
1.282000
0.002000
12874
8
106.577
28.278
#DATA
1.282000	 62.1854
1.300000	 67.9818
1.318000	 67.3516
1.336000	 65.0588
1.354000	 63.4452
1.372000	 68.1259
1.390000	 63.69
1.408000	 63.1279
1.426000	 61.8934
1.444000	 65.1372
1.462000	 64.813
1.480000	 65.3914
1.498000	 62.5931
1.516000	 65.2651
1.534000	 65.2865
1.552000	 65.7995
1.570000	 64.3507
1.588000	 65.1088
1.606000	 65.587
1.624000	 64.2989
1.642000	 65.7075
1.660000	 65.2502
1.678000	 65.1774
1.696000	 65.5049
1.714000	 65.0696
1.732000	 65.1941
1.750000	 64.9586
1.768000	 64.5114
1.786000	 65.1916
1.804000	 65.3238
1.822000	 64.871
1.840000	 65.3064
1.858000	 64.134
1.876000	 64.525
1.894000	 63.275
1.912000	 64.6981
1.930000	 65.6753
1.948000	 65.0452
1.966000	 65.109
1.984000	 65.1434
2.002000	 65.3672
2.020000	 65.2589
2.038000	 65.1528
2.056000	 64.8609
2.074000	 64.8238
2.092000	 65.0297
2.110000	 65.1248
2.128000	 65.0911
2.146000	 65.1011
2.164000	 65.0629
2.182000	 64.6529
2.200000	 64.5081
2.218000	 64.561
2.236000	 64.4767
2.254000	 64.3606
2.272000	 62.5736
2.290000	 64.3413
2.308000	 64.7686
2.326000	 64.3194
2.344000	 64.2972
2.362000	 64.8599
2.380000	 64.8671
2.398000	 65.2505
2.416000	 65.3241
2.434000	 65.4201
2.452000	 65.3479
2.470000	 65.2531
2.488000	 65.3526
2.506000	 64.98
2.524000	 65.3957
2.542000	 65.2672
2.560000	 65.1962
2.578000	 65.0959
2.596000	 65.117
2.614000	 65.1641
2.632000	 64.9894
2.650000	 65.2272
2.668000	 65.399
2.686000	 65.1736
2.704000	 65.192
2.722000	 65.3196
2.740000	 65.2992
2.758000	 65.2761
2.776000	 65.0576
2.794000	 65.276
2.812000	 65.1102
2.830000	 65.1946
2.848000	 65.3394
2.866000	 65.2541
2.884000	 65.4132
2.902000	 65.315
2.920000	 65.3415
2.938000	 65.0212
2.956000	 65.074
2.974000	 65.0578
2.992000	 64.9987
3.010000	 65.1783
3.028000	 65.2022
3.046000	 65.1746
3.064000	 65.2573
3.082000	 65.2343
3.100000	 65.1313
3.118000	 65.337
3.136000	 65.0707
3.154000	 65.2759
3.172000	 65.1494
3.190000	 65.3245
3.208000	 65.1355
3.226000	 65.217
3.244000	 65.3162
3.262000	 65.3164
3.280000	 65.141
3.298000	 65.1821
3.316000	 65.1979
3.334000	 64.9835
3.352000	 65.1628
3.370000	 65.0536
3.388000	 64.9536
3.406000	 65.0135
3.424000	 64.7027
3.442000	 65.0122
3.460000	 65.1212
3.478000	 65.0385
3.496000	 65.0146
3.514000	 64.9059
3.532000	 65.1897
3.550000	 65.0951
3.568000	 65.2063
3.586000	 65.2098
3.604000	 65.238
3.622000	 65.2648
3.640000	 65.2363
3.658000	 65.2034
3.676000	 65.2507
3.694000	 65.2126
3.712000	 65.2468
3.730000	 65.2017
3.748000	 65.1275
3.766000	 65.2732
3.784000	 65.0836
3.802000	 65.2973
3.820000	 65.1541
3.838000	 65.2304
3.856000	 65.1755
3.874000	 65.2054
3.892000	 65.2131
3.910000	 65.2182
3.928000	 65.176
3.946000	 65.2702
3.964000	 65.2933
3.982000	 65.1826
4.000000	 65.2551
4.018000	 65.2302
4.036000	 65.3174
4.054000	 65.2805
4.072000	 65.2936
4.090000	 65.3185
4.108000	 65.3418
4.125999	 65.3302
4.144000	 65.4585
4.162000	 65.1156
4.180000	 65.1769
4.198000	 65.2578
4.216000	 65.2916
4.234000	 65.279
4.252000	 65.2233
4.270000	 65.2143
4.288000	 65.2148
4.306000	 65.2761
4.324000	 65.3349
4.342000	 65.2151
4.359999	 65.2413
4.378000	 65.1795
4.396000	 65.3481
4.414000	 65.3134
4.432000	 65.1033
4.450000	 65.1656
4.468000	 65.3254
4.486000	 65.2199
4.504000	 65.3301
4.522000	 65.3542
4.540000	 65.1458
4.558000	 65.2678
4.576000	 65.3001
4.594000	 65.2959
4.612000	 65.3074
4.630000	 65.3092
4.648000	 65.2416
4.666000	 65.22
4.684000	 65.1723
4.702000	 65.1408
4.720000	 65.1867
4.738000	 65.2567
4.756000	 65.145
4.774000	 65.2548
4.792000	 65.1953
4.810000	 65.2787
4.828000	 65.2929
4.846000	 65.3311
4.864000	 65.3447
4.882000	 65.2903
4.900000	 65.3657
4.918000	 65.3699
4.936000	 65.3509
4.954000	 65.3307
4.972000	 65.3328
4.990000	 65.2951
5.008000	 65.1971
5.026000	 65.2433
5.044000	 65.286
5.062000	 65.3106
5.080000	 65.3372
5.098000	 65.3137
5.116000	 65.3213
5.134000	 65.3293
5.152000	 65.2564
5.170000	 65.2455
5.188000	 65.3763
5.206000	 65.3342
5.224000	 65.3237
5.242000	 65.3216
5.260000	 65.2986
5.278000	 65.2667
5.296000	 65.3405
5.314000	 65.3473
5.332000	 65.2878
5.350000	 65.3423
5.368000	 65.2497
5.386000	 65.3193
5.404000	 65.3823
5.422000	 65.3162
5.440000	 65.3103
5.458000	 65.3165
5.476000	 65.2558
5.494000	 65.2126
5.512000	 65.2894
5.530000	 65.353
5.548000	 65.2777
5.566000	 65.3152
5.584000	 65.3243
5.602000	 65.2552
5.620000	 65.2802
5.638000	 65.249
5.656000	 65.2551
5.674000	 65.2545
5.692000	 65.3177
5.710000	 65.2845
5.728000	 65.1839
5.746000	 65.0814
5.764000	 64.9743
5.782000	 65.0292
5.800000	 65.1821
5.818000	 65.2393
5.836000	 65.2001
5.854000	 65.2273
5.872000	 65.1657
5.890000	 65.1932
5.908000	 65.1993
5.926000	 65.221
5.944000	 65.1944
5.962000	 65.0588
5.980000	 65.107
5.998000	 65.1592
6.016000	 65.1207
6.034000	 65.1151
6.052000	 65.1096
6.070000	 65.1578
6.088000	 65.1374
6.106000	 65.122
6.124000	 65.194
6.142000	 65.2327
6.160000	 65.2112
6.178000	 65.2376
6.196000	 65.1969
6.214000	 65.1645
6.232000	 65.2291
6.250000	 65.1971
6.268000	 65.0842
6.286000	 64.985
6.304000	 64.9606
6.322000	 65.0469
6.340000	 65.1392
6.358000	 65.1632
6.376000	 65.1471
6.394000	 65.1125
6.412000	 65.0561
6.430000	 65.0802
6.448000	 65.1208
6.466000	 65.0914
6.484000	 65.0338
6.502000	 64.9927
6.520000	 65.0368
6.538000	 65.1478
6.556000	 65.1535
6.574000	 65.024
6.592000	 64.9971
6.610000	 65.1156
6.628000	 65.21
6.646000	 65.2155
6.664000	 65.1683
6.682000	 65.1107
6.700000	 65.1304
6.718000	 65.1985
6.736000	 65.2281
6.754000	 65.1907
6.772000	 65.1233
6.790000	 65.1232
6.808000	 65.154
6.826000	 65.1054
6.844000	 65.0299
6.862000	 65.0089
6.880000	 65.0015
6.898000	 65.0243
6.916000	 65.0806
6.934000	 65.086
6.952000	 65.0826
6.970000	 65.152
6.988000	 65.2282
7.006000	 65.2043
7.024000	 65.1207
7.042000	 65.0692
7.060000	 65.0301
7.078000	 64.9771
7.096000	 64.9671
7.114000	 65.0174
7.132000	 65.0827
7.150000	 65.1143
7.168000	 65.0888
7.186000	 65.0542
7.204000	 65.0559
7.222000	 65.0836
7.240000	 65.122
7.258000	 65.1121
7.276000	 65.0166
7.294000	 64.9348
7.312000	 64.9671
7.330000	 65.0759
7.348000	 65.1385
7.366000	 65.0914
7.384000	 65.0163
7.402000	 65.0159
7.420000	 65.0722
7.438000	 65.1097
7.456000	 65.0918
7.474000	 65.0577
7.492000	 65.0773
7.510000	 65.1278
7.528000	 65.1207
7.546000	 65.0556
7.564000	 65.0091
7.582000	 65.0216
7.600000	 65.064
7.618000	 65.0702
7.636000	 65.025
7.654000	 64.9966
7.672000	 65.0271
7.690000	 65.0651
7.708000	 65.0604
7.726000	 65.036
7.744000	 65.0306
7.762000	 65.0388
7.780000	 65.0431
7.798000	 65.0579
7.816000	 65.0927
7.834000	 65.1036
7.852000	 65.0507
7.870000	 64.9767
7.888000	 64.9577
7.906000	 65.0034
7.924000	 65.0556
7.942000	 65.0666
7.960000	 65.0397
7.978000	 65.006
7.996000	 64.9848
8.013999	 64.9685
8.032000	 64.9438
8.050000	 64.9233
8.068000	 64.9355
8.086000	 64.9795
8.103999	 65.0147
8.122000	 65.0169
8.140000	 65.0187
8.158000	 65.06
8.176000	 65.1159
8.193999	 65.1223
8.212000	 65.0721
8.230000	 65.0333
8.248000	 65.0589
8.266000	 65.1149
8.283999	 65.1299
8.302000	 65.082
8.320000	 65.0186
8.338000	 65.0027
8.356000	 65.0521
8.374000	 65.1277
8.391999	 65.1701
8.410000	 65.1528
8.428000	 65.0978
8.446000	 65.0471
8.464000	 65.0256
8.481999	 65.0287
8.500000	 65.0344
8.518000	 65.0265
8.536000	 65.0108
8.554000	 65.0088
8.571999	 65.0317
8.590000	 65.0628
8.608000	 65.0687
8.626000	 65.0303
8.644000	 64.9622
8.661999	 64.8982
8.680000	 64.8606
8.698000	 64.8443
8.716000	 64.8319
8.734000	 64.8172
8.751999	 64.8102
8.770000	 64.8199
8.788000	 64.8398
8.806000	 64.8506
8.824000	 64.8411
8.842000	 64.8216
8.859999	 64.8105
8.878000	 64.811
8.896000	 64.8064
8.914000	 64.7818
8.932000	 64.7411
8.949999	 64.7045
8.968000	 64.6906
8.986000	 64.7055
9.004000	 64.7424
9.022000	 64.7842
9.039999	 64.8107
9.058000	 64.8086
9.076000	 64.7782
9.094000	 64.7338
9.112000	 64.6982
9.129999	 64.6946
9.148000	 64.7333
9.166000	 64.8016
9.184000	 64.8681
9.202000	 64.9061
9.219999	 64.9152
9.238000	 64.9112
9.256000	 64.8984
9.274000	 64.8647
9.292000	 64.8049
9.310000	 64.7401
9.327999	 64.7075
9.346000	 64.7304
9.364000	 64.7967
9.382000	 64.8669
9.400000	 64.905
9.418000	 64.901
9.436000	 64.8695
9.454000	 64.8305
9.472000	 64.797
9.490000	 64.777
9.508000	 64.7807
9.526000	 64.8156
9.544000	 64.8734
9.561999	 64.9262
9.580000	 64.946
9.598000	 64.9281
9.616000	 64.8937
9.634000	 64.8684
9.652000	 64.8597
9.670000	 64.8539
9.688000	 64.8322
9.706000	 64.7904
9.724000	 64.743
9.742000	 64.7131
9.760000	 64.7154
9.778000	 64.7479
9.795999	 64.7959
9.814000	 64.8412
9.832000	 64.8699
9.850000	 64.8737
9.868000	 64.8515
9.886000	 64.8087
9.904000	 64.7596
9.922000	 64.7248
9.940000	 64.7224
9.958000	 64.7574
9.976000	 64.8161
9.994000	 64.8725
10.012	64.9034
10.03	64.901
10.048	64.8772
10.066	64.8543
10.084	64.8464
10.102	64.8479
10.12	64.8356
10.138	64.7877
10.156	64.7044
10.174	64.6114
10.192	64.5471
10.21	64.5418
10.228	64.6019
10.246	64.712
10.264	64.843
10.282	64.9644
10.3	65.0517
10.318	65.0881
10.336	65.0675
10.354	64.9968
10.372	64.8951
10.39	64.7904
10.408	64.7073
10.426	64.6571
10.444	64.6359
10.462	64.6325
10.48	64.6377
10.498	64.6485
10.516	64.6659
10.534	64.6893
10.552	64.7155
10.57	64.7424
10.588	64.7701
10.606	64.7981
10.624	64.8206
10.642	64.8233
10.66	64.7922
10.678	64.7241
10.696	64.6365
10.714	64.5605
10.732	64.524
10.75	64.5338
10.768	64.5696
10.786	64.5969
10.804	64.5852
10.822	64.5284
10.84	64.445
10.858	64.3676
10.876	64.3247
10.894	64.3277
10.912	64.371
10.93	64.4371
10.948	64.5081
10.966	64.5721
10.984	64.6268
11.002	64.677
11.02	64.7288
11.038	64.7804
11.056	64.8196
11.074	64.8275
11.092	64.7865
11.11	64.6923
11.128	64.5572
11.146	64.4054
11.164	64.2657
11.182	64.1574
11.2	64.0861
11.218	64.0446
11.236	64.0205
11.254	64.0042
11.272	63.9936
11.29	63.9925
11.308	64.0053
11.326	64.037
11.344	64.0902
11.362	64.1633
11.38	64.2497
11.398	64.3385
11.416	64.4175
11.434	64.48
11.452	64.5271
11.47	64.5664
11.488	64.6061
11.506	64.6499
11.524	64.6932
11.542	64.7249
11.56	64.7318
11.578	64.7047
11.596	64.6414
11.614	64.5496
11.632	64.442
11.65	64.3342
11.668	64.2419
11.686	64.1781
11.704	64.1516
11.722	64.1657
11.74	64.216
11.758	64.2902
11.776	64.3704
11.794	64.4391
11.812	64.4844
11.83	64.5011
11.848	64.4918
11.866	64.4621
11.884	64.418
11.902	64.3651
11.92	64.3078
11.938	64.2501
11.956	64.198
11.974	64.1587
11.992	64.1396
12.01	64.1455
12.028	64.1766
12.046	64.2275
12.064	64.2873
12.082	64.3442
12.1	64.3878
12.118	64.4126
12.136	64.4199
12.154	64.4167
12.172	64.413
12.19	64.4173
12.208	64.4338
12.226	64.4592
12.244	64.4839
12.262	64.4948
12.28	64.4802
12.298	64.4349
12.316	64.3622
12.334	64.2741
12.352	64.1873
12.37	64.1192
12.388	64.0819
12.406	64.0793
12.424	64.1067
12.442	64.1533
12.46	64.2069
12.478	64.2577
12.496	64.3012
12.514	64.3384
12.532	64.3735
12.55	64.4113
12.568	64.4542
12.586	64.5024
12.604	64.5537
12.622	64.6048
12.64	64.6521
12.658	64.6928
12.676	64.7245
12.694	64.7456
12.712	64.7551
12.73	64.7527
12.748	64.7388
12.766	64.7147
12.784	64.6818
12.802	64.6422
12.82	64.5973
12.838	64.5482
12.856	64.4952
12.874	64.4386
12.892	64.3788
12.91	64.3172
12.928	64.2559
12.946	64.1983
12.964	64.1479
12.982	64.1074
13	64.0776
13.018	64.0575
13.036	64.0449
13.054	64.0361
13.072	64.0276
13.09	64.0167
13.108	64.0023
13.126	63.9844
13.144	63.9647
13.162	63.9461
13.18	63.9315
13.198	63.9235
13.216	63.9234
13.234	63.9307
13.252	63.9438
13.27	63.9601
13.288	63.977
13.306	63.993
13.324	64.0076
13.342	64.022
13.36	64.0382
13.378	64.0581
13.396	64.083
13.414	64.1128
13.432	64.1455
13.45	64.1774
13.468	64.2041
13.486	64.2208
13.504	64.2234
13.522	64.2095
13.54	64.1789
13.558	64.1336
13.576	64.0774
13.594	64.0153
13.612	63.9527
13.63	63.895
13.648	63.8468
13.666	63.8111
13.684	63.7891
13.702	63.78
13.72	63.781
13.738	63.7883
13.756	63.797
13.774	63.8032
13.792	63.8039
13.81	63.7982
13.828	63.7874
13.846	63.7741
13.864	63.7617
13.882	63.7529
13.9	63.7495
13.918	63.7514
13.936	63.7573
13.954	63.7645
13.972	63.77
13.99	63.7715
14.008	63.7676
14.026	63.7587
14.044	63.7462
14.062	63.7324
14.08	63.7193
14.098	63.7077
14.116	63.6969
14.134	63.6852
14.152	63.6698
14.17	63.6481
14.188	63.6183
14.206	63.5805
14.224	63.5367
14.242	63.4907
14.26	63.4478
14.278	63.4135
14.296	63.3926
14.314	63.3886
14.332	63.4031
14.35	63.4353
14.368	63.4828
14.386	63.5409
14.404	63.6037
14.422	63.6651
14.44	63.7193
14.458	63.7612
14.476	63.7871
14.494	63.7948
14.512	63.7838
14.53	63.7553
14.548	63.712
14.566	63.6577
14.584	63.597
14.602	63.5347
14.62	63.4757
14.638	63.4244
14.656	63.384
14.674	63.3563
14.692	63.342
14.71	63.3403
14.728	63.3496
14.746	63.3676
14.764	63.3914
14.782	63.4186
14.8	63.4471
14.818	63.4752
14.836	63.5019
14.854	63.5265
14.872	63.5491
14.89	63.57
14.908	63.5893
14.926	63.6071
14.944	63.6233
14.962	63.6371
14.98	63.6475
14.998	63.6532
15.016	63.6527
15.034	63.6449
15.052	63.629
15.07	63.6054
15.088	63.5753
15.106	63.5405
15.124	63.5036
15.142	63.4676
15.16	63.435
15.178	63.4079
15.196	63.3876
15.214	63.3749
15.232	63.3696
15.25	63.3706
15.268	63.3769
15.286	63.3872
15.304	63.4
15.322	63.4143
15.34	63.4295
15.358	63.4447
15.376	63.4593
15.394	63.4728
15.412	63.4845
15.43	63.4941
15.448	63.501
15.466	63.5045
15.484	63.5044
15.502	63.5001
15.52	63.4917
15.538	63.4792
15.556	63.4629
15.574	63.4433
15.592	63.4209
15.61	63.3963
15.628	63.3698
15.646	63.3419
15.664	63.313
15.682	63.2836
15.7	63.2543
15.718	63.2259
15.736	63.1999
15.754	63.1777
15.772	63.1607
15.79	63.1511
15.808	63.1506
15.826	63.16
15.844	63.1803
15.862	63.211
15.88	63.2507
15.898	63.2975
15.916	63.3483
15.934	63.3989
15.952	63.4458
15.97	63.4854
15.988	63.5131
16.006	63.5268
16.024	63.5246
16.042	63.5056
16.06	63.4709
16.078	63.4224
16.096	63.3631
16.114	63.2978
16.132	63.2303
16.15	63.1649
16.168	63.1067
16.186	63.0584
16.204	63.0226
16.222	63.0012
16.24	62.9937
16.258	62.9995
16.276	63.0161
16.294	63.0409
16.312	63.0715
16.33	63.1039
16.348	63.1353
16.366	63.1635
16.384	63.1857
16.402	63.2004
16.42	63.2068
16.438	63.204
16.456	63.1924
16.474	63.1722
16.492	63.1444
16.51	63.1103
16.528	63.0712
16.546	63.0289
16.564	62.9856
16.582	62.9425
16.6	62.9021
16.618	62.8658
16.636	62.8348
16.654	62.8107
16.672	62.794
16.69	62.7853
16.708	62.7848
16.726	62.7918
16.744	62.8059
16.762	62.8256
16.78	62.8495
16.798	62.8759
16.816	62.9019
16.834	62.926
16.852	62.9452
16.87	62.9571
16.888	62.96
16.906	62.9516
16.924	62.9314
16.942	62.8984
16.96	62.8536
16.978	62.798
16.996	62.7332
17.014	62.6627
17.032	62.5883
17.05	62.5143
17.068	62.4434
17.086	62.3781
17.104	62.3219
17.122	62.2758
17.14	62.2418
17.158	62.22
17.176	62.2105
17.194	62.212
17.212	62.2233
17.23	62.2429
17.248	62.2679
17.266	62.2972
17.284	62.3276
17.302	62.3579
17.32	62.3863
17.338	62.4116
17.356	62.4332
17.374	62.4507
17.392	62.4643
17.41	62.4745
17.428	62.4824
17.446	62.4885
17.464	62.4943
17.482	62.5002
17.5	62.5072
17.518	62.5152
17.536	62.5244
17.554	62.5343
17.572	62.5445
17.59	62.5538
17.608	62.5613
17.626	62.5663
17.644	62.5673
17.662	62.5639
17.68	62.555
17.698	62.5408
17.716	62.5208
17.734	62.4957
17.752	62.4656
17.77	62.4319
17.788	62.395
17.806	62.3567
17.824	62.3178
17.842	62.2799
17.86	62.2443
17.878	62.2119
17.896	62.1843
17.914	62.1619
17.932	62.146
17.95	62.1366
17.968	62.1344
17.986	62.139
18.004	62.1504
18.022	62.1679
18.04	62.1911
18.058	62.2183
18.076	62.2492
18.094	62.2818
18.112	62.3157
18.13	62.3489
18.148	62.3809
18.166	62.4102
18.184	62.4364
18.202	62.4587
18.22	62.477
18.238	62.4914
18.256	62.5022
18.274	62.5097
18.292	62.515
18.31	62.5185
18.328	62.5212
18.346	62.5234
18.364	62.526
18.382	62.529
18.4	62.5326
18.418	62.5362
18.436	62.5398
18.454	62.5423
18.472	62.5432
18.49	62.5411
18.508	62.5356
18.526	62.5254
18.544	62.5103
18.562	62.4898
18.58	62.464
18.598	62.4335
18.616	62.3985
18.634	62.3609
18.652	62.3211
18.67	62.2815
18.688	62.2426
18.706	62.207
18.724	62.1751
18.742	62.1485
18.76	62.1275
18.778	62.113
18.796	62.1044
18.814	62.1016
18.832	62.1034
18.85	62.1089
18.868	62.1164
18.886	62.1245
18.904	62.1312
18.922	62.1349
18.94	62.1342
18.958	62.1276
18.976	62.1146
18.994	62.0942
19.012	62.0669
19.03	62.0323
19.048	61.9917
19.066	61.9458
19.084	61.8961
19.102	61.844
19.12	61.7912
19.138	61.7393
19.156	61.6895
19.174	61.6437
19.192	61.6024
19.21	61.5672
19.228	61.5381
19.246	61.5157
19.264	61.4997
19.282	61.4899
19.3	61.4863
19.318	61.4881
19.336	61.4952
19.354	61.5066
19.372	61.5223
19.39	61.5414
19.408	61.5639
19.426	61.5889
19.444	61.6163
19.462	61.6453
19.48	61.6758
19.498	61.7068
19.516	61.7383
19.534	61.7687
19.552	61.7976
19.57	61.8238
19.588	61.8464
19.606	61.8646
19.624	61.8772
19.642	61.8842
19.66	61.8843
19.678	61.8778
19.696	61.8644
19.714	61.8443
19.732	61.8184
19.75	61.7863
19.768	61.7503
19.786	61.7099
19.804	61.6676
19.822	61.6238
19.84	61.58
19.858	61.5379
19.876	61.4978
19.894	61.4621
19.912	61.4304
19.93	61.405
19.948	61.3854
19.966	61.3728
19.984	61.3672
20.002	61.3683
20.02	61.3766
20.038	61.391
20.056	61.411
20.074	61.4362
20.092	61.4647
20.11	61.4967
20.128	61.5295
20.146	61.5633
20.164	61.5958
20.182	61.6264
20.2	61.6541
20.218	61.6776
20.236	61.697
20.254	61.7109
20.272	61.7197
20.29	61.7231
20.308	61.7211
20.326	61.7143
20.344	61.7026
20.362	61.6868
20.38	61.6675
20.398	61.6447
20.416	61.6195
20.434	61.5915
20.452	61.5617
20.47	61.5302
20.488	61.4971
20.506	61.4625
20.524	61.4265
20.542	61.3886
20.56	61.3489
20.578	61.3072
20.596	61.2632
20.614	61.2169
20.632	61.1683
20.65	61.1174
20.668	61.0648
20.686	61.0102
20.704	60.9551
20.722	60.8996
20.74	60.8446
20.758	60.7917
20.776	60.7406
20.794	60.6938
20.812	60.6512
20.83	60.6139
20.848	60.5834
20.866	60.5592
20.884	60.5425
20.902	60.5333
20.92	60.5311
20.938	60.5361
20.956	60.5475
20.974	60.5634
20.992	60.5845
21.01	60.6076
21.028	60.6327
21.046	60.6581
21.064	60.6812
21.082	60.7028
21.1	60.7195
21.118	60.7314
21.136	60.7377
21.154	60.7365
21.172	60.7286
21.19	60.7132
21.208	60.6902
21.226	60.6603
21.244	60.624
21.262	60.5812
21.28	60.5339
21.298	60.4816
21.316	60.4259
21.334	60.3685
21.352	60.3087
21.37	60.2492
21.388	60.1899
21.406	60.1318
21.424	60.0768
21.442	60.0244
21.46	59.9758
21.478	59.9314
21.496	59.8911
21.514	59.8557
21.532	59.8249
21.55	59.7992
21.568	59.7787
21.586	59.7632
21.604	59.7531
21.622	59.7483
21.64	59.7488
21.658	59.7544
21.676	59.7653
21.694	59.7812
21.712	59.8021
21.73	59.828
21.748	59.8586
21.766	59.8939
21.784	59.9334
21.802	59.9769
21.82	60.0242
21.838	60.0742
21.856	60.1275
21.874	60.1828
21.892	60.2389
21.91	60.2964
21.928	60.3531
21.946	60.4084
21.964	60.4622
21.982	60.5118
22	60.5578
22.018	60.5988
22.036	60.6327
22.054	60.6603
22.072	60.68
22.09	60.6908
22.108	60.6932
22.126	60.6866
22.144	60.6706
22.162	60.6459
22.18	60.6128
22.198	60.5709
22.216	60.5216
22.234	60.466
22.252	60.4035
22.27	60.3365
22.288	60.2656
22.306	60.1909
22.324	60.1153
22.342	60.0386
22.36	59.9616
22.378	59.8865
22.396	59.8128
22.414	59.7411
22.432	59.6728
22.45	59.6073
22.468	59.5448
22.486	59.4856
22.504	59.4295
22.522	59.3755
22.54	59.3237
22.558	59.2738
22.576	59.2236
22.594	59.1739
22.612	59.1236
22.63	59.0704
22.648	59.0154
22.666	58.9569
22.684	58.8924
22.702	58.8232
22.72	58.7477
22.738	58.6643
22.756	58.5737
22.774	58.4755
22.792	58.3687
22.81	58.2538
22.828	58.132
22.846	58.0034
22.864	57.868
22.882	57.728
22.9	57.5834
22.918	57.4345
22.936	57.2852
22.954	57.1351
22.972	56.9849
22.99	56.84
23.008	56.6995
23.026	56.5644
23.044	56.4402
23.062	56.3259
23.08	56.2224
23.098	56.1337
23.116	56.0593
23.134	55.9993
23.152	55.9556
23.17	55.9284
23.188	55.9169
23.206	55.9211
23.224	55.9421
23.242	55.9779
23.26	56.0254
23.278	56.0868
23.296	56.159
23.314	56.2366
23.332	56.3222
23.35	56.4126
23.368	56.5008
23.386	56.5891
23.404	56.675
23.422	56.7515
23.44	56.8202
23.458	56.8798
23.476	56.9242
23.494	56.9539
23.512	56.9689
23.53	56.9655
23.548	56.9431
23.566	56.9026
23.584	56.8431
23.602	56.7638
23.62	56.6654
23.638	56.5499
23.656	56.417
23.674	56.2666
23.692	56.1026
23.71	55.9266
23.728	55.7366
23.746	55.5379
23.764	55.3335
23.782	55.1208
23.8	54.9042
23.818	54.6881
23.836	54.4694
23.854	54.2516
23.872	54.0388
23.89	53.829
23.908	53.624
23.926	53.428
23.944	53.2398
23.962	53.0601
23.98	52.8927
23.998	52.7379
24.016	52.595
24.034	52.4668
24.052	52.3545
24.07	52.2567
24.088	52.176
24.106	52.1142
24.124	52.0695
24.142	52.0441
24.16	52.0404
24.178	52.0569
24.196	52.0948
24.214	52.157
24.232	52.2434
24.25	52.3535
24.268	52.4885
24.286	52.6493
24.304	52.8351
24.322	53.0458
24.34	53.2817
24.358	53.5433
24.376	53.8286
24.394	54.1351
24.412	54.4648
24.43	54.8156
24.448	55.1832
24.466	55.5679
24.484	55.9706
24.502	56.3842
24.52	56.8039
24.538	57.2348
24.556	57.6704
24.574	58.1033
24.592	58.537
24.61	58.9695
24.628	59.394
24.646	59.8087
24.664	60.2166
24.682	60.6125
24.7	60.9923
24.718	61.3593
24.736	61.7111
24.754	62.0442
24.772	62.3588
24.79	62.6557
24.808	62.9336
24.826	63.1913
24.844	63.4291
24.862	63.6487
24.88	63.8513
24.898	64.036
24.916	64.2036
24.934	64.3564
24.952	64.4949
24.97	64.618
24.988	64.7282
25.006	64.8278
25.024	64.9157
25.042	64.9924
25.06	65.0592
25.078	65.1165
25.096	65.1638
25.114	65.2017
25.132	65.231
25.15	65.2519
25.168	65.2638
25.186	65.2654
25.204	65.257
25.222	65.2389
25.24	65.2099
25.258	65.1691
25.276	65.1176
25.294	65.0545
25.312	64.9781
25.33	64.8878
25.348	64.7845
25.366	64.6675
25.384	64.5358
25.402	64.3895
25.42	64.2291
25.438	64.0546
25.456	63.8658
25.474	63.6622
25.492	63.4455
25.51	63.2175
25.528	62.9782
25.546	62.7271
25.564	62.4654
25.582	62.1942
25.6	61.9126
25.618	61.6213
25.636	61.321
25.654	61.0123
25.672	60.6946
25.69	60.3686
25.708	60.035
25.726	59.6934
25.744	59.3438
25.762	58.9877
25.78	58.626
25.798	58.2563
25.816	57.8812
25.834	57.5046
25.852	57.1279
25.87	56.7478
25.888	56.3687
25.906	55.996
25.924	55.6279
25.942	55.263
25.96	54.9082
25.978	54.5704
25.996	54.2456
26.014	53.9345
26.032	53.642
26.05	53.3721
26.068	53.1223
26.086	52.8925
26.104	52.6838
26.122	52.498
26.14	52.3355
26.158	52.192
26.176	52.0626
26.194	51.9493
26.212	51.8546
26.23	51.7684
26.248	51.6806
26.266	51.5975
26.284	51.519
26.302	51.4318
26.32	51.3237
26.338	51.2042
26.356	51.0704
26.374	50.9096
26.392	50.7114
26.41	50.4852
26.428	50.2275
26.446	49.9292
26.464	49.5838
26.482	49.1971
26.5	48.7679
26.518	48.2935
26.536	47.771
26.554	47.2004
26.572	46.5862
26.59	45.9331
26.608	45.2413
26.626	44.5047
26.644	43.734
26.662	42.9407
26.68	42.1267
26.698	41.2818
26.716	40.4205
26.734	39.5584
26.752	38.6985
26.77	37.8289
26.788	36.9638
26.806	36.1186
26.824	35.2961
26.842	34.4852
26.86	33.6979
26.878	32.9474
26.896	32.2375
26.914	31.5592
26.932	30.9185
26.95	30.3222
26.968	29.7558
26.986	29.203
27.004	28.7165
27.022	28.3511
27.028	28.278