File: Bakgrunnsmateriale/MATLAB/FTIR/ftir_data/subBb/Mapping_36/C-4040-8_t23_cm-1.asc
PE IR       SPECTRUM    SPECTRUM    ASCII       PEDS        1.60
  -1
C-9AE1~1.ASC
17/05/02
12:46:03.00
17/05/02
12:46:03.00
tln
$C-4040-8_t0023$<tbV0>[-7.5,2.0,8.0,0.0,22,1,0]
370
64

2002,4.07
MIRTGS : RIGHTBACK : INTERNAL 2
MIR : ON : INTERNAL 2
OPTKBR

0.200000
8
8.000000
FILLER
RATIO
SPECTRUM
UNLOCKED 256

DOUBLE
64
COMBINED
1
0
0

1.000000
RATIO

1
0
TRUE
51149
0
LEFT NOT FITTED RIGHT NOT FITTED 0
NONE
NONE
15600
12
4.427000
51148
TRUE
1 0 8 72 0 0 0 0

15798

#HDR
-1
-1
#GR
CM-1
%T
2.38419e-05
0.0
7800
-1.000000
7431
8
93.3986
44.291
#DATA
7800	68.4168
7795	62.9357
7790	66.6702
7785	73.292
7780	70.3739
7775	65.5222
7770	72.399
7765	75.339
7760	70.1227
7755	69.243
7750	63.7277
7745	58.9202
7740	61.1941
7735	64.4461
7730	64.4751
7725	61.817
7720	64.4984
7715	69.3593
7710	72.6094
7705	69.7818
7700	66.3841
7695	65.6717
7690	62.9931
7685	60.6255
7680	64.9591
7675	69.3185
7670	70.9395
7665	67.2957
7660	64.1498
7655	65.1645
7650	67.8822
7645	65.4684
7640	62.4855
7635	65.0729
7630	70.0924
7625	72.2408
7620	65.1293
7615	63.3611
7610	67.5197
7605	68.9844
7600	64.7869
7595	62.3092
7590	63.7322
7585	62.8545
7580	64.4022
7575	66.9371
7570	66.0825
7565	63.8864
7560	65.7208
7555	67.2545
7550	62.8352
7545	63.771
7540	68.8017
7535	67.2238
7530	66.2052
7525	68.3459
7520	68.9908
7515	67.2253
7510	64.5705
7505	61.6695
7500	62.0397
7495	66.5642
7490	65.4753
7485	64.5558
7480	65.4286
7475	61.0582
7470	58.6766
7465	59.5221
7460	63.3359
7455	65.7246
7450	65.8077
7445	64.579
7440	63.6597
7435	62.3008
7430	62.7439
7425	63.7686
7420	65.538
7415	66.5517
7410	65.2894
7405	64.9133
7400	65.3449
7395	67.2239
7390	66.763
7385	63.4586
7380	62.8159
7375	66.2093
7370	66.5004
7365	62.8553
7360	65.2709
7355	68.0113
7350	66.9746
7345	63.498
7340	62.3828
7335	64.8511
7330	66.6896
7325	65.0099
7320	65.5212
7315	64.045
7310	63.8425
7305	68.1739
7300	70.497
7295	70.8683
7290	68.7097
7285	64.7297
7280	63.3671
7275	66.1555
7270	67.0093
7265	63.5854
7260	62.033
7255	63.4383
7250	65.5232
7245	66.1334
7240	66.1567
7235	66.692
7230	65.6542
7225	65.1722
7220	65.076
7215	66.5611
7210	67.4075
7205	66.9249
7200	67.8306
7195	66.5076
7190	63.6509
7185	63.4428
7180	64.3534
7175	63.7719
7170	63.5558
7165	63.1741
7160	63.5193
7155	65.2722
7150	64.4993
7145	65.1442
7140	66.9716
7135	65.3487
7130	62.9924
7125	63.6201
7120	64.652
7115	64.6298
7110	67.1863
7105	67.2308
7100	65.4398
7095	64.2876
7090	63.9999
7085	64.8014
7080	63.9061
7075	62.6118
7070	64.2423
7065	66.3247
7060	66.3929
7055	65.3977
7050	63.1605
7045	62.6508
7040	64.0879
7035	63.6866
7030	65.9197
7025	69.5024
7020	66.2138
7015	61.2082
7010	60.8132
7005	62.3561
7000	62.6989
6995	62.1662
6990	61.6834
6985	60.7365
6980	61.5325
6975	64.2628
6970	64.3641
6965	62.5386
6960	62.8615
6955	63.519
6950	64.0585
6945	65.3358
6940	65.212
6935	64.2776
6930	64.7769
6925	65.8552
6920	66.7562
6915	66.8794
6910	65.6736
6905	65.7741
6900	66.1827
6895	65.2634
6890	65.243
6885	65.8747
6880	67.7838
6875	67.5524
6870	65.3855
6865	63.168
6860	63.1677
6855	64.0601
6850	63.5985
6845	64.1249
6840	63.333
6835	63.3036
6830	65.4696
6825	64.8702
6820	63.5373
6815	63.0577
6810	63.4035
6805	64.8449
6800	65.7712
6795	66.0212
6790	65.2271
6785	63.9596
6780	63.1785
6775	62.7921
6770	62.8379
6765	61.9326
6760	62.3957
6755	64.1129
6750	62.8715
6745	61.7688
6740	62.6143
6735	62.2125
6730	61.1243
6725	61.2348
6720	62.9421
6715	63.6894
6710	63.5479
6705	64.3788
6700	65.0868
6695	63.4871
6690	62.1906
6685	62.9263
6680	63.1144
6675	62.8899
6670	63.7824
6665	64.0975
6660	63.1448
6655	62.3374
6650	61.9888
6645	62.416
6640	63.6705
6635	65.8483
6630	66.8689
6625	66.6571
6620	65.58
6615	64.245
6610	65.3211
6605	65.5027
6600	64.6326
6595	65.4387
6590	65.2735
6585	64.0586
6580	63.678
6575	63.7094
6570	64.0632
6565	65.5204
6560	66.2925
6555	65.9144
6550	65.466
6545	64.4829
6540	63.6063
6535	64.2085
6530	64.1326
6525	64.3079
6520	65.8232
6515	66.4042
6510	66.2081
6505	66.3349
6500	65.6227
6495	64.8972
6490	65.0846
6485	65.5573
6480	65.3861
6475	65.2712
6470	66.1836
6465	66.4796
6460	65.7581
6455	64.5548
6450	64.1787
6445	63.5113
6440	64.1984
6435	64.531
6430	64.0323
6425	64.3259
6420	65.0961
6415	65.2198
6410	65.3274
6405	66.2807
6400	66.1328
6395	64.8388
6390	64.4208
6385	64.5855
6380	64.5069
6375	65.0282
6370	66.0051
6365	65.7788
6360	64.9896
6355	64.2311
6350	63.89
6345	63.961
6340	63.9895
6335	63.5877
6330	63.2387
6325	63.7527
6320	64.4371
6315	64.7267
6310	63.2744
6305	62.7411
6300	63.6641
6295	63.8915
6290	64.2686
6285	65.0785
6280	63.8333
6275	62.5377
6270	64.1411
6265	65.374
6260	65.0073
6255	64.795
6250	64.9174
6245	65.6193
6240	65.3141
6235	64.0086
6230	64.6255
6225	65.4653
6220	64.1844
6215	63.7357
6210	64.4795
6205	64.5658
6200	64.7294
6195	65.0753
6190	65.7084
6185	66.1619
6180	65.5769
6175	64.8121
6170	64.6847
6165	64.5563
6160	64.1887
6155	63.6744
6150	64.4618
6145	64.5707
6140	64.5789
6135	66.2024
6130	66.5618
6125	65.9017
6120	65.7963
6115	66.0323
6110	65.3243
6105	64.6052
6100	64.4844
6095	65.0253
6090	65.7573
6085	66.0633
6080	65.3481
6075	64.871
6070	65.393
6065	65.843
6060	65.1867
6055	64.7261
6050	64.8658
6045	65.2341
6040	65.5968
6035	65.5355
6030	65.2104
6025	64.8309
6020	65.0249
6015	65.0849
6010	65.265
6005	65.9168
6000	65.8179
5995	66.0062
5990	65.9189
5985	65.7501
5980	65.8092
5975	65.273
5970	65.0123
5965	65.725
5960	65.7436
5955	64.9405
5950	64.8533
5945	65.4895
5940	65.121
5935	64.6577
5930	64.7584
5925	65.2059
5920	65.6724
5915	65.1312
5910	64.2356
5905	64.2692
5900	64.8579
5895	65.5643
5890	65.8308
5885	65.6063
5880	64.843
5875	64.3707
5870	64.6322
5865	64.6596
5860	65.1632
5855	65.5357
5850	65.928
5845	65.738
5840	65.1795
5835	64.7796
5830	64.4005
5825	64.1712
5820	64.4881
5815	64.8152
5810	64.3514
5805	64.4641
5800	65.0095
5795	64.4834
5790	64.3506
5785	64.819
5780	64.7728
5775	64.5616
5770	64.6218
5765	64.9648
5760	65.092
5755	65.1547
5750	64.9343
5745	64.9887
5740	65.4534
5735	64.7199
5730	63.7362
5725	64.5327
5720	65.4042
5715	64.9254
5710	64.9917
5705	65.1087
5700	65.0953
5695	64.9265
5690	64.6568
5685	64.7174
5680	64.3936
5675	64.0898
5670	64.4606
5665	64.6806
5660	64.3924
5655	64.2165
5650	64.5866
5645	64.8298
5640	65.0689
5635	65.1351
5630	65.181
5625	65.725
5620	65.5922
5615	65.5116
5610	65.7636
5605	66.2721
5600	66.1826
5595	65.6911
5590	65.6364
5585	65.5293
5580	65.2192
5575	65.3146
5570	65.135
5565	64.8279
5560	65.289
5555	65.3427
5550	65.0675
5545	65.5343
5540	66.1172
5535	65.6557
5530	65.2655
5525	65.4596
5520	65.3236
5515	65.2221
5510	65.0116
5505	65.7703
5500	66.2597
5495	65.5298
5490	64.7128
5485	64.7364
5480	65.4333
5475	65.6512
5470	64.8301
5465	64.642
5460	65.0722
5455	64.9874
5450	65.0375
5445	65.1062
5440	65.1587
5435	65.0331
5430	64.5104
5425	64.6282
5420	65.269
5415	65.274
5410	64.7245
5405	64.638
5400	65.4605
5395	65.8036
5390	65.2037
5385	64.9434
5380	65.0632
5375	65.4272
5370	65.1519
5365	64.5606
5360	64.3996
5355	64.7302
5350	65.1623
5345	65.3185
5340	65.8649
5335	65.7386
5330	64.659
5325	64.1616
5320	64.3281
5315	64.8049
5310	64.802
5305	64.3369
5300	63.9849
5295	65.1631
5290	66.6342
5285	64.9945
5280	64.2586
5275	62.3147
5270	62.7498
5265	63.0186
5260	63.6388
5255	65.8278
5250	66.9056
5245	66.5273
5240	65.1925
5235	65.3016
5230	66.21
5225	65.6822
5220	65.183
5215	64.5142
5210	64.1489
5205	64.9227
5200	65.3949
5195	65.6038
5190	65.9109
5185	66.0704
5180	65.3631
5175	64.7513
5170	65.0492
5165	65.4299
5160	65.3749
5155	65.2786
5150	65.1693
5145	65.0079
5140	65.152
5135	64.5828
5130	64.5696
5125	65.1867
5120	65.3918
5115	65.3985
5110	65.4784
5105	65.5887
5100	65.4132
5095	65.3242
5090	65.4394
5085	65.2865
5080	65.1386
5075	65.1782
5070	65.0211
5065	64.9305
5060	65.0401
5055	64.9783
5050	64.9012
5045	64.9003
5040	64.8281
5035	64.8782
5030	65.2867
5025	65.4649
5020	65.2242
5015	65.3134
5010	65.4897
5005	65.495
5000	65.875
4995	65.7904
4990	64.9821
4985	64.8777
4980	65.0089
4975	65.0558
4970	65.2226
4965	65.1929
4960	64.8226
4955	64.7597
4950	64.9821
4945	64.8771
4940	64.6572
4935	64.6269
4930	64.7685
4925	65.1427
4920	65.5414
4915	65.5178
4910	65.3875
4905	65.258
4900	65.2205
4895	64.963
4890	64.5357
4885	64.6368
4880	65.0945
4875	65.1707
4870	64.952
4865	64.7784
4860	64.7125
4855	64.8438
4850	65.0749
4845	65.1649
4840	64.9938
4835	65.006
4830	65.0562
4825	64.9462
4820	64.7872
4815	64.6599
4810	64.8596
4805	65.1119
4800	65.0105
4795	64.8021
4790	65.0789
4785	65.3579
4780	65.432
4775	65.5562
4770	65.6214
4765	65.5881
4760	65.4863
4755	65.3335
4750	65.0719
4745	64.8099
4740	64.7287
4735	65.0292
4730	65.2713
4725	65.2494
4720	65.2372
4715	64.9573
4710	65.0358
4705	65.5303
4700	65.6354
4695	65.3945
4690	65.3267
4685	65.2619
4680	65.2523
4675	65.421
4670	65.5204
4665	65.41
4660	65.3447
4655	65.4705
4650	65.588
4645	65.5665
4640	65.3907
4635	65.4204
4630	65.4115
4625	65.4276
4620	65.5605
4615	65.4665
4610	65.3391
4605	65.1787
4600	65.0164
4595	65.3961
4590	65.3899
4585	65.0711
4580	64.8608
4575	64.6052
4570	64.6651
4565	64.7552
4560	64.7931
4555	64.8337
4550	64.9008
4545	64.8427
4540	64.8024
4535	65.0151
4530	64.8956
4525	64.7496
4520	64.7305
4515	64.5543
4510	64.4494
4505	64.5173
4500	64.5502
4495	64.2692
4490	64.1416
4485	64.4554
4480	64.553
4475	64.5348
4470	64.339
4465	64.2214
4460	64.1791
4455	64.3605
4450	64.5711
4445	64.2334
4440	64.4604
4435	64.5929
4430	63.8243
4425	63.3396
4420	63.1444
4415	62.7542
4410	63.8027
4405	65.7329
4400	63.6446
4395	63.93
4390	83.6176
4385	91.7712
4380	74.0929
4375	65.752
4370	65.3569
4365	64.9777
4360	64.5185
4355	64.6291
4350	64.8301
4345	64.7724
4340	64.6725
4335	64.4121
4330	64.3147
4325	64.4407
4320	64.4958
4315	64.6758
4310	64.9638
4305	64.9562
4300	64.5038
4295	64.4272
4290	64.6397
4285	64.5712
4280	64.4513
4275	64.5671
4270	64.5565
4265	64.3705
4260	64.4672
4255	64.7288
4250	64.8853
4245	64.8906
4240	64.7376
4235	64.63
4230	64.7732
4225	64.9254
4220	64.9266
4215	64.8242
4210	64.9002
4205	65.0392
4200	64.8154
4195	64.6605
4190	64.9099
4185	64.9327
4180	64.8484
4175	64.981
4170	64.96
4165	64.8604
4160	64.9367
4155	65.0945
4150	65.2227
4145	65.2399
4140	65.2075
4135	65.2342
4130	65.1626
4125	65.0416
4120	65.1437
4115	65.2078
4110	65.2163
4105	65.3693
4100	65.487
4095	65.5489
4090	65.5485
4085	65.4311
4080	65.3607
4075	65.1935
4070	65.1681
4065	65.2465
4060	65.1849
4055	65.2574
4050	65.485
4045	65.4001
4040	65.3641
4035	65.4257
4030	65.2632
4025	65.2052
4020	65.25
4015	65.2583
4010	65.0947
4005	65.2068
4000	65.379
3995	65.2026
3990	65.1467
3985	65.1623
3980	65.1946
3975	65.2455
3970	65.3112
3965	65.3448
3960	65.3635
3955	65.2207
3950	65.1713
3945	65.1807
3940	65.314
3935	65.4664
3930	65.4451
3925	65.2573
3920	64.9824
3915	65.0851
3910	65.2673
3905	65.1153
3900	65.0285
3895	65.1708
3890	65.2248
3885	65.1802
3880	65.2401
3875	65.1388
3870	65.1607
3865	65.1482
3860	65.1634
3855	65.2405
3850	65.3419
3845	65.3391
3840	65.1257
3835	65.0476
3830	65.2433
3825	65.3973
3820	65.2771
3815	65.0206
3810	64.9931
3805	65.1299
3800	65.21
3795	65.2523
3790	65.2797
3785	65.3768
3780	65.4205
3775	65.2724
3770	65.2242
3765	65.1631
3760	65.1648
3755	65.3779
3750	65.3784
3745	65.0913
3740	65.0184
3735	65.1249
3730	65.1166
3725	65.1768
3720	65.3426
3715	65.3878
3710	65.2062
3705	65.1189
3700	65.2308
3695	65.3548
3690	65.4337
3685	65.3835
3680	65.3785
3675	65.432
3670	65.2966
3665	65.2517
3660	65.39
3655	65.3935
3650	65.3546
3645	65.4681
3640	65.451
3635	65.3883
3630	65.3805
3625	65.3221
3620	65.3336
3615	65.3674
3610	65.3797
3605	65.4662
3600	65.4405
3595	65.3089
3590	65.1741
3585	65.1933
3580	65.2646
3575	65.3003
3570	65.2172
3565	65.1435
3560	65.1388
3555	65.2199
3550	65.2923
3545	65.3169
3540	65.3091
3535	65.2291
3530	65.1126
3525	65.031
3520	64.9395
3515	65.0454
3510	65.1582
3505	65.0188
3500	64.8689
3495	65.204
3490	65.5829
3485	65.4879
3480	65.276
3475	65.4032
3470	65.3871
3465	65.3062
3460	65.2309
3455	65.193
3450	65.4297
3445	65.49
3440	65.2515
3435	65.2158
3430	65.3317
3425	65.2724
3420	65.0998
3415	65.1464
3410	65.1997
3405	65.1058
3400	65.0918
3395	65.179
3390	65.1648
3385	65.2167
3380	65.2668
3375	65.2895
3370	65.1915
3365	65.1009
3360	65.1424
3355	65.1554
3350	65.1033
3345	65.0426
3340	65.0803
3335	65.0914
3330	65.0564
3325	65.1751
3320	65.3282
3315	65.2465
3310	65.1613
3305	65.2362
3300	65.205
3295	65.1537
3290	65.2248
3285	65.264
3280	65.2338
3275	65.3018
3270	65.4133
3265	65.3119
3260	65.216
3255	65.2697
3250	65.315
3245	65.3621
3240	65.3003
3235	65.2048
3230	65.1696
3225	65.1075
3220	65.0889
3215	65.2224
3210	65.3615
3205	65.2962
3200	65.277
3195	65.2671
3190	65.2019
3185	65.1844
3180	65.2885
3175	65.3456
3170	65.3164
3165	65.2027
3160	65.0365
3155	65.0542
3150	65.109
3145	65.1417
3140	65.2284
3135	65.3136
3130	65.3846
3125	65.3991
3120	65.393
3115	65.4156
3110	65.3483
3105	65.2349
3100	65.3638
3095	65.4412
3090	65.4613
3085	65.5164
3080	65.459
3075	65.3683
3070	65.3465
3065	65.4111
3060	65.4392
3055	65.4238
3050	65.473
3045	65.4702
3040	65.4124
3035	65.3056
3030	65.2704
3025	65.2784
3020	65.296
3015	65.3775
3010	65.3794
3005	65.3412
3000	65.2965
2995	65.2341
2990	65.2312
2985	65.2022
2980	65.1847
2975	65.2085
2970	65.1938
2965	65.1602
2960	65.0971
2955	64.9829
2950	64.9458
2945	65.0144
2940	65.032
2935	65.0931
2930	65.1087
2925	64.9129
2920	64.8387
2915	64.8714
2910	65.0339
2905	65.18
2900	65.1293
2895	65.0241
2890	64.9809
2885	64.9746
2880	65.0425
2875	65.201
2870	65.2587
2865	65.2541
2860	65.1561
2855	65.012
2850	64.9484
2845	64.9939
2840	65.1454
2835	65.2306
2830	65.2805
2825	65.2469
2820	65.2303
2815	65.2611
2810	65.3047
2805	65.2694
2800	65.2724
2795	65.2824
2790	65.2209
2785	65.2216
2780	65.2556
2775	65.2625
2770	65.2533
2765	65.2529
2760	65.1985
2755	65.1481
2750	65.2335
2745	65.3274
2740	65.325
2735	65.3782
2730	65.4449
2725	65.438
2720	65.4137
2715	65.3334
2710	65.2428
2705	65.2479
2700	65.2896
2695	65.2835
2690	65.2788
2685	65.2461
2680	65.2597
2675	65.276
2670	65.2578
2665	65.2463
2660	65.2487
2655	65.2638
2650	65.3265
2645	65.275
2640	65.2104
2635	65.2568
2630	65.408
2625	65.4319
2620	65.3058
2615	65.2086
2610	65.1857
2605	65.2409
2600	65.2193
2595	65.2639
2590	65.3239
2585	65.3093
2580	65.2703
2575	65.3082
2570	65.3453
2565	65.2689
2560	65.2125
2555	65.2588
2550	65.3434
2545	65.39
2540	65.3221
2535	65.3241
2530	65.4007
2525	65.3271
2520	65.2521
2515	65.342
2510	65.3982
2505	65.4059
2500	65.4226
2495	65.3426
2490	65.2687
2485	65.2629
2480	65.2991
2475	65.3428
2470	65.3942
2465	65.4255
2460	65.4099
2455	65.37
2450	65.324
2445	65.3528
2440	65.4576
2435	65.5471
2430	65.4744
2425	65.354
2420	65.3478
2415	65.4201
2410	65.3578
2405	65.2472
2400	65.2373
2395	65.2884
2390	65.2615
2385	65.2553
2380	65.3015
2375	65.3199
2370	65.3289
2365	65.3603
2360	65.4108
2355	65.3561
2350	65.2922
2345	65.3659
2340	65.4834
2335	65.4769
2330	65.3811
2325	65.3519
2320	65.3715
2315	65.3229
2310	65.2186
2305	65.2145
2300	65.4119
2295	65.4654
2290	65.3303
2285	65.2552
2280	65.3779
2275	65.462
2270	65.3533
2265	65.279
2260	65.3198
2255	65.3548
2250	65.3437
2245	65.3664
2240	65.4232
2235	65.4677
2230	65.3777
2225	65.2964
2220	65.3471
2215	65.3733
2210	65.2743
2205	65.2652
2200	65.2497
2195	65.2347
2190	65.3457
2185	65.4436
2180	65.3868
2175	65.3517
2170	65.4478
2165	65.4979
2160	65.4954
2155	65.4299
2150	65.2711
2145	65.2184
2140	65.3348
2135	65.375
2130	65.3418
2125	65.2979
2120	65.2632
2115	65.3197
2110	65.3903
2105	65.3528
2100	65.2643
2095	65.2807
2090	65.3254
2085	65.3151
2080	65.318
2075	65.3749
2070	65.3845
2065	65.3312
2060	65.3664
2055	65.4284
2050	65.3754
2045	65.326
2040	65.3066
2035	65.3118
2030	65.3444
2025	65.3668
2020	65.3562
2015	65.311
2010	65.323
2005	65.3443
2000	65.2936
1995	65.2627
1990	65.2804
1985	65.3187
1980	65.3419
1975	65.3564
1970	65.3028
1965	65.2544
1960	65.3174
1955	65.3203
1950	65.3178
1945	65.418
1940	65.4502
1935	65.3584
1930	65.3003
1925	65.2933
1920	65.3321
1915	65.416
1910	65.353
1905	65.3186
1900	65.3224
1895	65.3325
1890	65.3228
1885	65.3203
1880	65.3255
1875	65.3121
1870	65.3125
1865	65.2795
1860	65.2261
1855	65.3076
1850	65.3465
1845	65.3496
1840	65.3696
1835	65.2906
1830	65.2708
1825	65.2738
1820	65.2702
1815	65.3385
1810	65.3734
1805	65.3077
1800	65.3078
1795	65.3628
1790	65.3528
1785	65.3548
1780	65.3916
1775	65.3939
1770	65.3746
1765	65.3596
1760	65.367
1755	65.3076
1750	65.2227
1745	65.241
1740	65.252
1735	65.1201
1730	65.066
1725	65.1363
1720	65.299
1715	65.3234
1710	65.2507
1705	65.2007
1700	65.2458
1695	65.3186
1690	65.3273
1685	65.3229
1680	65.2331
1675	65.1883
1670	65.2043
1665	65.2301
1660	65.2652
1655	65.2173
1650	65.1731
1645	65.2507
1640	65.2671
1635	65.1731
1630	65.1605
1625	65.2176
1620	65.3125
1615	65.3034
1610	65.2304
1605	65.1731
1600	65.2618
1595	65.2628
1590	65.1738
1585	65.1988
1580	65.2268
1575	65.1484
1570	65.1078
1565	65.0637
1560	65.0855
1555	65.0299
1550	65.0143
1545	65.0292
1540	64.9752
1535	65.0849
1530	65.167
1525	65.1466
1520	65.1612
1515	65.1897
1510	65.2402
1505	65.2831
1500	65.3069
1495	65.2064
1490	65.0651
1485	65.0522
1480	65.0965
1475	65.0628
1470	65.0559
1465	65.1463
1460	65.1445
1455	65.0934
1450	65.0393
1445	65.0568
1440	65.1098
1435	65.1446
1430	65.2332
1425	65.1638
1420	65.095
1415	65.1043
1410	65.0094
1405	65.0701
1400	65.1631
1395	65.0751
1390	65.0142
1385	65.1007
1380	65.1244
1375	65.1219
1370	65.1223
1365	65.0725
1360	65.096
1355	65.208
1350	65.2004
1345	65.1962
1340	65.1943
1335	65.1368
1330	65.1571
1325	65.128
1320	65.1281
1315	65.1546
1310	65.2085
1305	65.1762
1300	65.1299
1295	65.1262
1290	65.1191
1285	64.9951
1280	64.9337
1275	64.9973
1270	65.02
1265	65.0806
1260	65.1316
1255	65.0785
1250	65.0204
1245	65.1104
1240	65.1372
1235	65.0726
1230	65.0479
1225	65.0736
1220	64.9957
1215	64.9373
1210	65.0236
1205	64.9836
1200	64.8989
1195	64.9227
1190	64.9491
1185	64.9335
1180	64.9535
1175	64.9904
1170	64.9859
1165	64.9784
1160	64.9564
1155	64.9358
1150	64.9952
1145	64.9248
1140	64.9119
1135	64.8787
1130	64.832
1125	64.8444
1120	64.8409
1115	64.8648
1110	64.851
1105	64.8016
1100	64.8257
1095	64.8531
1090	64.9028
1085	64.9413
1080	64.959
1075	64.9765
1070	65.0006
1065	65.0563
1060	64.905
1055	64.7213
1050	64.8273
1045	65.2116
1040	65.1726
1035	64.8648
1030	64.814
1025	64.7954
1020	64.6263
1015	64.6589
1010	64.7802
1005	64.7682
1000	64.797
995	 64.845
990	 64.7251
985	 64.5567
980	 64.5931
975	 64.7271
970	 64.8183
965	 64.8891
960	 64.9563
955	 64.8378
950	 64.9213
945	 65.009
940	 64.7158
935	 64.552
930	 64.3809
925	 64.2149
920	 64.1977
915	 64.2173
910	 64.0146
905	 63.8534
900	 63.9801
895	 64.3437
890	 64.4148
885	 64.3751
880	 64.5758
875	 64.8668
870	 64.9704
865	 64.8615
860	 64.7047
855	 64.4485
850	 64.5253
845	 64.586
840	 64.3853
835	 64.333
830	 64.5025
825	 64.413
820	 64.0866
815	 64.0128
810	 64.1051
805	 64.1791
800	 64.1819
795	 64.2439
790	 64.3574
785	 64.3738
780	 64.38
775	 64.3127
770	 64.1809
765	 64.1244
760	 63.862
755	 63.8766
750	 63.9386
745	 63.8906
740	 63.9688
735	 64.0961
730	 64.1225
725	 64.0287
720	 63.9333
715	 63.7198
710	 63.5627
705	 63.6727
700	 63.6345
695	 63.5706
690	 63.5519
685	 63.4072
680	 63.1626
675	 63.0908
670	 63.1707
665	 63.2001
660	 63.1886
655	 63.2323
650	 63.09
645	 63.0749
640	 63.1841
635	 63.1565
630	 63.2036
625	 63.6015
620	 63.4758
615	 63.0728
610	 62.8087
605	 62.7834
600	 62.745
595	 62.7975
590	 63.0604
585	 62.9961
580	 62.9464
575	 62.8753
570	 62.3839
565	 62.4776
560	 62.9137
555	 62.6201
550	 62.4206
545	 62.4264
540	 62.7299
535	 62.4431
530	 62.0759
525	 62.1758
520	 62.3722
515	 62.8227
510	 62.8955
505	 62.6692
500	 62.3608
495	 61.8481
490	 61.4373
485	 61.2993
480	 61.2366
475	 61.3899
470	 61.2891
465	 60.2131
460	 59.2347
455	 59.2963
450	 59.5817
445	 59.6686
440	 60.4147
435	 59.2808
430	 58.1127
425	 57.5308
420	 56.8448
415	 57.0832
410	 57.9017
405	 57.9959
400	 57.3235
395	 62.4498
390	 70.902
385	 60.0959
380	 53.2008
375	 54.7026
370	 44.291