File: Bakgrunnsmateriale/MATLAB/FTIR/ftir_data/subBb/Mapping_36/C-4040-8_t36_cm-1.asc
PE IR       SPECTRUM    SPECTRUM    ASCII       PEDS        1.60
  -1
C-1B6E~1.ASC
17/05/02
13:54:07.00
17/05/02
13:54:07.00
tln
$C-4040-8_t0036$<tbV0>[-12.5,12.0,8.0,0.0,22,1,0]
370
64

2002,4.07
MIRTGS : RIGHTBACK : INTERNAL 2
MIR : ON : INTERNAL 2
OPTKBR

0.200000
8
8.000000
FILLER
RATIO
SPECTRUM
UNLOCKED 256

DOUBLE
64
COMBINED
1
0
0

1.000000
RATIO

1
0
TRUE
51149
0
LEFT NOT FITTED RIGHT NOT FITTED 0
NONE
NONE
15600
12
4.427000
51148
TRUE
1 0 8 72 0 0 0 0

15798

#HDR
-1
-1
#GR
CM-1
%T
2.38419e-05
0.0
7800
-1.000000
7431
8
79.1852
47.8689
#DATA
7800	68.406
7795	77.3148
7790	78.6405
7785	73.5088
7780	65.076
7775	64.5785
7770	72.0533
7765	71.4426
7760	68.7457
7755	68.9121
7750	69.8596
7745	75.0229
7740	77.0869
7735	76.6306
7730	72.7137
7725	71.5345
7720	73.4464
7715	71.8623
7710	65.8608
7705	63.85
7700	68.1527
7695	69.7924
7690	67.6819
7685	70.4201
7680	78.0429
7675	75.3264
7670	65.4464
7665	63.7142
7660	62.7043
7655	65.7273
7650	68.1092
7645	65.4478
7640	65.2365
7635	64.5673
7630	60.9521
7625	60.9656
7620	63.9354
7615	67.8781
7610	68.7229
7605	65.504
7600	64.1852
7595	66.4383
7590	66.4803
7585	66.153
7580	68.1418
7575	70.5632
7570	70.5437
7565	64.264
7560	61.5475
7555	65.5124
7550	69.402
7545	68.0962
7540	65.4367
7535	66.2826
7530	68.7873
7525	66.04
7520	59.4677
7515	57.2488
7510	61.3067
7505	66.9271
7500	66.6055
7495	63.7869
7490	63.8132
7485	63.0319
7480	62.951
7475	63.3814
7470	61.7058
7465	63.9361
7460	64.3092
7455	64.9086
7450	68.7295
7445	69.6408
7440	65.7115
7435	62.5017
7430	65.029
7425	66.9215
7420	63.5964
7415	63.3103
7410	65.5419
7405	63.8744
7400	61.1404
7395	61.7418
7390	63.6142
7385	65.526
7380	62.3684
7375	60.3266
7370	59.4857
7365	60.1478
7360	63.0142
7355	67.1809
7350	66.2191
7345	63.1986
7340	62.9334
7335	63.6981
7330	64.4475
7325	64.9671
7320	63.5934
7315	64.7422
7310	65.9344
7305	65.2309
7300	63.6743
7295	62.4814
7290	64.962
7285	67.2052
7280	66.9102
7275	64.5988
7270	61.9925
7265	62.096
7260	64.1509
7255	67.1684
7250	66.6163
7245	63.3678
7240	62.6135
7235	61.31
7230	64.0101
7225	67.9836
7220	67.5857
7215	64.8003
7210	65.2353
7205	66.2946
7200	64.9468
7195	63.5691
7190	64.4968
7185	67.2982
7180	65.831
7175	61.408
7170	61.0284
7165	65.1385
7160	66.649
7155	65.6743
7150	65.5473
7145	67.7374
7140	67.9581
7135	64.0629
7130	63.9321
7125	65.7269
7120	64.6517
7115	63.7481
7110	64.332
7105	64.4741
7100	63.7927
7095	62.5915
7090	61.7582
7085	62.7113
7080	63.8484
7075	65.5574
7070	66.6824
7065	65.2049
7060	63.7983
7055	63.971
7050	64.1135
7045	63.3157
7040	63.1201
7035	64.5895
7030	65.5166
7025	64.8008
7020	64.3172
7015	64.6697
7010	63.4536
7005	65.1024
7000	66.9909
6995	67.1479
6990	64.9626
6985	63.264
6980	63.6641
6975	63.9244
6970	65.616
6965	65.0501
6960	63.3196
6955	63.2578
6950	64.1854
6945	64.3901
6940	64.0187
6935	62.7187
6930	62.7984
6925	64.3736
6920	65.8663
6915	64.5183
6910	62.7505
6905	63.4135
6900	63.7427
6895	62.1732
6890	61.2365
6885	61.7465
6880	62.7511
6875	64.2143
6870	64.3162
6865	64.2476
6860	64.7152
6855	65.1016
6850	65.4939
6845	64.6035
6840	64.3568
6835	65.7471
6830	66.3366
6825	66.0145
6820	65.7212
6815	65.4115
6810	65.7751
6805	64.5868
6800	63.6149
6795	65.4517
6790	64.7349
6785	62.8624
6780	63.5011
6775	63.061
6770	61.6206
6765	61.8559
6760	62.6808
6755	62.9387
6750	62.3897
6745	61.8006
6740	62.0794
6735	62.7855
6730	62.3295
6725	62.8875
6720	63.9128
6715	63.5678
6710	62.8026
6705	63.3121
6700	63.9907
6695	63.6294
6690	63.9283
6685	63.7737
6680	62.7105
6675	62.8968
6670	63.8769
6665	64.6773
6660	64.166
6655	64.0366
6650	64.1039
6645	63.5294
6640	63.8302
6635	64.5985
6630	65.3093
6625	65.7378
6620	65.491
6615	64.9486
6610	64.9136
6605	65.2731
6600	66.1402
6595	65.7091
6590	64.1195
6585	63.7259
6580	63.9821
6575	64.971
6570	64.9831
6565	63.2679
6560	62.9753
6555	64.3661
6550	64.1902
6545	63.2929
6540	62.9696
6535	63.5004
6530	64.4033
6525	63.9616
6520	63.335
6515	63.8087
6510	64.8221
6505	65.5776
6500	64.3208
6495	63.1231
6490	64.4407
6485	64.9475
6480	64.168
6475	63.3692
6470	63.4512
6465	64.7901
6460	64.4266
6455	63.4751
6450	63.4824
6445	63.8643
6440	64.142
6435	64.0781
6430	62.9532
6425	62.9118
6420	63.5395
6415	63.6091
6410	64.7151
6405	65.1075
6400	64.2512
6395	64.4432
6390	65.2758
6385	65.517
6380	65.4323
6375	65.044
6370	64.815
6365	64.5896
6360	64.4612
6355	64.2731
6350	65.15
6345	65.8822
6340	65.3081
6335	63.8875
6330	62.8986
6325	63.4256
6320	64.2749
6315	64.323
6310	63.9318
6305	63.2369
6300	63.7068
6295	64.9036
6290	65.3851
6285	65.8306
6280	65.6688
6275	64.4351
6270	63.2817
6265	63.1651
6260	64.0273
6255	63.6467
6250	63.9485
6245	64.016
6240	63.7536
6235	63.3743
6230	62.9646
6225	62.9876
6220	63.6135
6215	63.8326
6210	63.7046
6205	64.1109
6200	64.5964
6195	64.6552
6190	64.0726
6185	63.3865
6180	62.7969
6175	62.7123
6170	63.1752
6165	63.8385
6160	64.2831
6155	63.6211
6150	63.9622
6145	65.0816
6140	65.4022
6135	64.7888
6130	65.0965
6125	65.4129
6120	65.1776
6115	64.4386
6110	63.9059
6105	63.5266
6100	63.3258
6095	63.9232
6090	63.9912
6085	63.9793
6080	64.3262
6075	64.1696
6070	63.9158
6065	64.1525
6060	64.6402
6055	65.0437
6050	64.4952
6045	64.0548
6040	64.3138
6035	64.4654
6030	64.0652
6025	64.3828
6020	65.3282
6015	65.3224
6010	65.0673
6005	65.3239
6000	64.9595
5995	64.1909
5990	63.8421
5985	64.2624
5980	64.8731
5975	64.7616
5970	64.5973
5965	63.9605
5960	63.2615
5955	63.3812
5950	63.8049
5945	64.2866
5940	64.608
5935	64.8136
5930	65.0452
5925	65.0489
5920	64.5046
5915	64.0172
5910	64.5386
5905	64.7132
5900	64.2844
5895	64.1765
5890	64.631
5885	64.8717
5880	64.7941
5875	64.6578
5870	64.6079
5865	64.5125
5860	64.3634
5855	64.5626
5850	64.7164
5845	64.4854
5840	65.0393
5835	64.69
5830	64.2936
5825	65.3283
5820	65.1484
5815	63.9731
5810	63.7866
5805	63.8634
5800	63.8717
5795	64.5068
5790	64.7488
5785	64.5036
5780	64.6092
5775	64.4465
5770	64.1571
5765	64.9213
5760	65.4631
5755	64.5797
5750	64.6969
5745	65.1765
5740	64.7097
5735	64.6553
5730	64.882
5725	64.3484
5720	64.1011
5715	64.6721
5710	64.6173
5705	64.576
5700	65.0496
5695	65.0007
5690	64.4988
5685	64.2823
5680	64.4318
5675	64.4063
5670	64.1546
5665	63.8797
5660	63.7914
5655	63.7861
5650	64.3899
5645	64.6582
5640	64.7511
5635	65.1006
5630	65.0416
5625	64.3724
5620	63.856
5615	64.3428
5610	64.7493
5605	64.7373
5600	65.0004
5595	65.0591
5590	64.4993
5585	64.2765
5580	65.0212
5575	65.004
5570	64.3897
5565	64.3578
5560	64.6483
5555	64.5389
5550	64.2128
5545	64.1752
5540	64.5795
5535	64.5121
5530	64.3494
5525	64.5825
5520	64.53
5515	64.9885
5510	65.311
5505	64.6569
5500	64.6025
5495	64.5844
5490	64.4485
5485	64.5709
5480	64.4158
5475	64.3217
5470	63.8466
5465	63.5177
5460	64.3535
5455	65.0048
5450	64.5221
5445	64.2598
5440	64.3149
5435	64.3203
5430	64.87
5425	64.9411
5420	64.7344
5415	64.7745
5410	64.9003
5405	64.7115
5400	64.925
5395	65.0975
5390	64.6691
5385	64.35
5380	64.7569
5375	64.6802
5370	64.5311
5365	64.5104
5360	65.0572
5355	65.4866
5350	65.374
5345	64.6445
5340	64.5757
5335	64.341
5330	64.2229
5325	63.4406
5320	63.3989
5315	63.9601
5310	63.7183
5305	63.9944
5300	63.8699
5295	63.004
5290	61.7841
5285	61.015
5280	60.7043
5275	63.5231
5270	65.836
5265	64.7335
5260	64.114
5255	64.8415
5250	64.5202
5245	63.0872
5240	63.234
5235	64.1112
5230	64.4354
5225	64.0044
5220	64.118
5215	64.401
5210	64.5252
5205	64.6051
5200	64.562
5195	64.285
5190	63.9022
5185	64.001
5180	64.5682
5175	64.597
5170	64.3836
5165	64.326
5160	64.4305
5155	64.5437
5150	64.442
5145	64.2046
5140	64.407
5135	64.4819
5130	64.4963
5125	64.5636
5120	64.5288
5115	64.4641
5110	64.4515
5105	64.4876
5100	64.4561
5095	64.6646
5090	64.9284
5085	64.8147
5080	64.8205
5075	64.9445
5070	64.9401
5065	64.9701
5060	64.9478
5055	64.6307
5050	64.3808
5045	64.4884
5040	64.7489
5035	64.9103
5030	64.6196
5025	64.3129
5020	64.6689
5015	64.812
5010	64.614
5005	64.5495
5000	64.4053
4995	64.4754
4990	64.5478
4985	64.6155
4980	64.6856
4975	64.8153
4970	64.8535
4965	64.8332
4960	64.807
4955	64.6902
4950	64.4276
4945	64.3685
4940	64.5085
4935	64.4252
4930	64.4603
4925	64.9084
4920	64.9624
4915	64.5076
4910	64.3538
4905	64.5221
4900	64.3197
4895	64.0143
4890	64.4312
4885	64.7263
4880	64.3977
4875	64.2939
4870	64.4533
4865	64.2937
4860	64.3838
4855	64.633
4850	64.3719
4845	64.1828
4840	64.5931
4835	65.1655
4830	64.9828
4825	64.7597
4820	64.7691
4815	64.6012
4810	64.4321
4805	64.3776
4800	64.3094
4795	64.3237
4790	64.4022
4785	64.5011
4780	64.6786
4775	64.8595
4770	64.7969
4765	64.6993
4760	64.7679
4755	64.5833
4750	64.454
4745	64.6875
4740	64.9359
4735	64.6242
4730	64.3362
4725	64.5524
4720	64.7299
4715	64.4763
4710	64.3151
4705	64.2474
4700	64.3174
4695	64.4505
4690	64.314
4685	64.3166
4680	64.5028
4675	64.4652
4670	64.6568
4665	65.0719
4660	65.0718
4655	64.7074
4650	64.5403
4645	64.4396
4640	64.3895
4635	64.7164
4630	64.6822
4625	64.4461
4620	64.7109
4615	64.9571
4610	64.6692
4605	64.4061
4600	64.8268
4595	65.0146
4590	64.859
4585	64.9437
4580	65.1154
4575	65.019
4570	64.67
4565	64.3833
4560	64.4398
4555	64.6156
4550	64.6167
4545	64.4165
4540	64.4223
4535	64.2585
4530	64.2853
4525	64.4739
4520	64.6084
4515	64.8689
4510	64.9012
4505	64.7034
4500	64.7314
4495	64.8907
4490	64.6429
4485	64.5266
4480	64.4785
4475	64.6852
4470	64.7611
4465	64.5548
4460	64.6825
4455	64.4535
4450	64.1369
4445	64.3389
4440	64.4141
4435	64.6717
4430	64.7935
4425	64.5071
4420	64.3276
4415	63.9558
4410	63.986
4405	64.5445
4400	63.8413
4395	64.5087
4390	78.0813
4385	66.6818
4380	47.8689
4375	58.3251
4370	65.871
4365	66.4065
4360	65.4696
4355	65.4737
4350	65.4677
4345	65.5887
4340	65.2845
4335	64.6138
4330	64.4084
4325	64.7002
4320	64.8386
4315	64.802
4310	64.7379
4305	64.8637
4300	64.986
4295	64.5772
4290	64.4099
4285	64.7573
4280	64.8766
4275	64.755
4270	64.6903
4265	64.7335
4260	64.6339
4255	64.6223
4250	64.5566
4245	64.5308
4240	64.5998
4235	64.5836
4230	64.5829
4225	64.5585
4220	64.5395
4215	64.5751
4210	64.6451
4205	64.5626
4200	64.4521
4195	64.6205
4190	64.8677
4185	64.9022
4180	64.9481
4175	64.71
4170	64.703
4165	64.8286
4160	64.8548
4155	64.9123
4150	64.7872
4145	64.7608
4140	64.7286
4135	64.6053
4130	64.6714
4125	64.8502
4120	64.7863
4115	64.6653
4110	64.9332
4105	64.8064
4100	64.7151
4095	64.8092
4090	64.7463
4085	64.6266
4080	64.5813
4075	64.7075
4070	64.822
4065	64.8157
4060	64.8766
4055	65.0136
4050	65.1519
4045	64.9705
4040	64.7126
4035	64.723
4030	64.6736
4025	64.6001
4020	64.644
4015	64.8006
4010	64.8167
4005	64.7392
4000	64.7781
3995	64.7424
3990	64.8135
3985	64.9528
3980	64.9818
3975	64.9323
3970	64.7976
3965	64.8163
3960	64.9238
3955	64.8823
3950	64.8089
3945	64.8621
3940	64.9814
3935	64.9314
3930	64.7815
3925	64.8694
3920	64.7959
3915	64.5791
3910	64.4928
3905	64.5386
3900	64.636
3895	64.7292
3890	64.7688
3885	64.6764
3880	64.6926
3875	64.7328
3870	64.7142
3865	64.6057
3860	64.5843
3855	64.784
3850	64.8803
3845	64.8582
3840	64.7772
3835	64.6946
3830	64.6944
3825	64.9242
3820	65.0538
3815	64.988
3810	64.9627
3805	64.9642
3800	64.8327
3795	64.847
3790	64.9962
3785	64.9425
3780	64.7697
3775	64.8179
3770	64.8774
3765	64.7281
3760	64.8097
3755	64.8991
3750	64.8344
3745	64.7901
3740	64.8098
3735	64.9189
3730	64.8697
3725	64.8002
3720	64.923
3715	64.9403
3710	64.9419
3705	64.8488
3700	64.7335
3695	64.8125
3690	64.8722
3685	64.7911
3680	64.6543
3675	64.5866
3670	64.6737
3665	64.725
3660	64.8478
3655	64.9071
3650	64.9797
3645	64.8921
3640	64.7877
3635	64.8117
3630	64.7831
3625	64.797
3620	64.8348
3615	64.8897
3610	64.9111
3605	64.9597
3600	64.889
3595	64.8561
3590	64.8426
3585	64.7695
3580	64.7686
3575	64.7208
3570	64.6762
3565	64.6453
3560	64.7139
3555	64.8414
3550	64.8229
3545	64.7649
3540	64.7013
3535	64.7127
3530	64.7809
3525	64.7475
3520	64.7786
3515	64.8634
3510	64.8571
3505	64.9233
3500	64.9486
3495	64.8839
3490	64.9637
3485	64.9811
3480	64.7134
3475	64.7319
3470	64.9794
3465	64.9319
3460	64.7561
3455	64.7019
3450	64.6913
3445	64.7491
3440	64.7255
3435	64.572
3430	64.6625
3425	64.9533
3420	64.895
3415	64.7209
3410	64.726
3405	64.8149
3400	64.9284
3395	64.8506
3390	64.5409
3385	64.4932
3380	64.752
3375	64.8445
3370	64.8497
3365	64.8242
3360	64.7925
3355	64.8765
3350	64.9378
3345	64.8413
3340	64.7352
3335	64.791
3330	64.8556
3325	64.8385
3320	64.8412
3315	64.9961
3310	64.949
3305	64.7595
3300	64.6996
3295	64.7598
3290	64.8868
3285	64.9177
3280	64.8183
3275	64.8033
3270	64.7959
3265	64.7357
3260	64.8383
3255	64.8651
3250	64.8634
3245	64.8882
3240	64.7996
3235	64.7212
3230	64.744
3225	64.7606
3220	64.783
3215	64.7771
3210	64.7119
3205	64.7304
3200	64.7915
3195	64.7915
3190	64.7932
3185	64.8208
3180	64.8686
3175	64.8236
3170	64.7709
3165	64.8343
3160	64.9235
3155	64.8629
3150	64.8664
3145	64.8182
3140	64.7334
3135	64.7284
3130	64.7508
3125	64.7469
3120	64.7773
3115	64.7521
3110	64.7368
3105	64.7424
3100	64.8597
3095	64.9101
3090	64.7877
3085	64.8179
3080	64.8262
3075	64.7485
3070	64.649
3065	64.6261
3060	64.6958
3055	64.7424
3050	64.7972
3045	64.7623
3040	64.7612
3035	64.7053
3030	64.7107
3025	64.7314
3020	64.7472
3015	64.7543
3010	64.7115
3005	64.7698
3000	64.8799
2995	64.8868
2990	64.8018
2985	64.7724
2980	64.6991
2975	64.6349
2970	64.6971
2965	64.6621
2960	64.6508
2955	64.7139
2950	64.7465
2945	64.8232
2940	64.9205
2935	64.8225
2930	64.601
2925	64.508
2920	64.5255
2915	64.5907
2910	64.6441
2905	64.6819
2900	64.6886
2895	64.6257
2890	64.5032
2885	64.4816
2880	64.6027
2875	64.6992
2870	64.7602
2865	64.7391
2860	64.7057
2855	64.6986
2850	64.6872
2845	64.7146
2840	64.7238
2835	64.7698
2830	64.8898
2825	64.9791
2820	64.9458
2815	64.846
2810	64.8851
2805	64.895
2800	64.8467
2795	64.8622
2790	64.8625
2785	64.872
2780	64.9236
2775	64.917
2770	64.8906
2765	64.8229
2760	64.8094
2755	64.8734
2750	64.8952
2745	64.8851
2740	64.8649
2735	64.9375
2730	64.9677
2725	64.9515
2720	64.9334
2715	64.9371
2710	64.9516
2705	64.9464
2700	64.9433
2695	64.9211
2690	64.9701
2685	64.9477
2680	64.7943
2675	64.8429
2670	64.8886
2665	64.8346
2660	64.8531
2655	64.8202
2650	64.7355
2645	64.7025
2640	64.7582
2635	64.891
2630	65.0234
2625	64.9797
2620	64.8838
2615	64.8521
2610	64.8273
2605	64.8842
2600	64.9359
2595	64.968
2590	64.9619
2585	64.9491
2580	64.9594
2575	64.9206
2570	64.8966
2565	64.8965
2560	64.9442
2555	64.9726
2550	64.9297
2545	64.8714
2540	64.9793
2535	65.0642
2530	65.0733
2525	65.0323
2520	64.9563
2515	64.8706
2510	64.8541
2505	64.9579
2500	64.9853
2495	64.9437
2490	64.9464
2485	64.9002
2480	64.8884
2475	64.9774
2470	64.9624
2465	64.9594
2460	65.0025
2455	64.9966
2450	64.9138
2445	64.8819
2440	64.9122
2435	64.9272
2430	64.9438
2425	64.9365
2420	65.0054
2415	65.0998
2410	65.0275
2405	64.9352
2400	64.9014
2395	64.8941
2390	64.9311
2385	64.9287
2380	64.9264
2375	64.9444
2370	64.9914
2365	64.9162
2360	64.8191
2355	64.8899
2350	64.9164
2345	64.9248
2340	64.9487
2335	65.0138
2330	64.956
2325	64.8979
2320	64.9777
2315	65.0022
2310	64.9987
2305	65.0069
2300	65.0102
2295	64.9539
2290	64.9875
2285	65.0661
2280	64.9887
2275	64.926
2270	64.9683
2265	64.9417
2260	64.9363
2255	65.0054
2250	65.0077
2245	64.9321
2240	64.9546
2235	64.9388
2230	64.8322
2225	64.7871
2220	64.7873
2215	64.8345
2210	64.8526
2205	64.9214
2200	64.979
2195	64.9789
2190	64.9288
2185	64.9994
2180	65.0062
2175	64.9789
2170	64.9947
2165	64.9303
2160	64.8328
2155	64.8741
2150	64.9162
2145	64.9136
2140	64.9366
2135	64.9522
2130	64.9068
2125	64.9211
2120	64.9186
2115	64.8396
2110	64.8059
2105	64.8832
2100	64.9862
2095	64.9768
2090	64.9534
2085	64.9167
2080	64.9056
2075	64.9109
2070	64.9554
2065	64.9646
2060	64.9582
2055	64.9564
2050	64.8987
2045	64.9345
2040	65.0092
2035	64.9966
2030	65.0161
2025	64.9959
2020	64.9194
2015	64.9407
2010	64.984
2005	64.9555
2000	64.9264
1995	64.9457
1990	65.036
1985	64.9857
1980	64.9533
1975	65.007
1970	64.9776
1965	64.9141
1960	64.9386
1955	65.0146
1950	65.0251
1945	64.9802
1940	65.018
1935	65.112
1930	65.1351
1925	64.9899
1920	64.9062
1915	64.9138
1910	64.9263
1905	64.9928
1900	64.9999
1895	65.0092
1890	64.9909
1885	64.963
1880	64.9392
1875	64.9595
1870	64.9742
1865	64.958
1860	64.9613
1855	64.9692
1850	64.9353
1845	64.9508
1840	65.0051
1835	64.9923
1830	64.876
1825	64.8895
1820	64.8956
1815	64.8605
1810	64.8712
1805	64.9889
1800	64.9902
1795	64.8815
1790	64.8579
1785	64.9097
1780	64.9271
1775	64.9124
1770	64.9206
1765	64.8821
1760	64.8636
1755	64.8152
1750	64.7498
1745	64.7218
1740	64.7202
1735	64.6722
1730	64.6125
1725	64.6434
1720	64.7153
1715	64.7729
1710	64.8269
1705	64.8456
1700	64.8655
1695	64.907
1690	64.8534
1685	64.7679
1680	64.7591
1675	64.8153
1670	64.8124
1665	64.7782
1660	64.8041
1655	64.83
1650	64.8152
1645	64.8098
1640	64.7765
1635	64.7272
1630	64.7714
1625	64.8117
1620	64.8229
1615	64.8623
1610	64.8748
1605	64.7941
1600	64.7304
1595	64.7648
1590	64.8147
1585	64.7495
1580	64.679
1575	64.6814
1570	64.6199
1565	64.5379
1560	64.5778
1555	64.7563
1550	64.726
1545	64.6164
1540	64.6181
1535	64.686
1530	64.7243
1525	64.7663
1520	64.7676
1515	64.7251
1510	64.7628
1505	64.7578
1500	64.7396
1495	64.6966
1490	64.7252
1485	64.8459
1480	64.7971
1475	64.7104
1470	64.6443
1465	64.6728
1460	64.819
1455	64.7764
1450	64.5697
1445	64.5434
1440	64.6363
1435	64.7721
1430	64.8134
1425	64.7408
1420	64.7204
1415	64.6581
1410	64.6191
1405	64.7348
1400	64.7168
1395	64.6433
1390	64.5874
1385	64.5383
1380	64.5753
1375	64.6874
1370	64.7382
1365	64.678
1360	64.5736
1355	64.5255
1350	64.5537
1345	64.5785
1340	64.5422
1335	64.5921
1330	64.6462
1325	64.646
1320	64.6471
1315	64.6204
1310	64.615
1305	64.6602
1300	64.6433
1295	64.6279
1290	64.6077
1285	64.5695
1280	64.521
1275	64.51
1270	64.5345
1265	64.5859
1260	64.6152
1255	64.6067
1250	64.5522
1245	64.5608
1240	64.6179
1235	64.625
1230	64.5827
1225	64.5454
1220	64.453
1215	64.4132
1210	64.4181
1205	64.4839
1200	64.5944
1195	64.5467
1190	64.389
1185	64.4097
1180	64.4416
1175	64.3886
1170	64.4188
1165	64.3764
1160	64.2889
1155	64.3645
1150	64.3461
1145	64.3189
1140	64.2998
1135	64.2602
1130	64.2781
1125	64.3505
1120	64.4644
1115	64.4613
1110	64.2414
1105	64.2026
1100	64.4655
1095	64.4653
1090	64.3376
1085	64.227
1080	64.2016
1075	64.3277
1070	64.2941
1065	64.3279
1060	64.3348
1055	64.3449
1050	64.3781
1045	64.2907
1040	64.2506
1035	64.3649
1030	64.3643
1025	64.3143
1020	64.3992
1015	64.4487
1010	64.312
1005	64.208
1000	64.1836
995	 64.1593
990	 64.1834
985	 64.3862
980	 64.5853
975	 64.5195
970	 64.322
965	 64.1372
960	 63.8579
955	 64.2309
950	 64.3639
945	 64.0891
940	 64.396
935	 64.652
930	 64.564
925	 64.3895
920	 63.8849
915	 63.7106
910	 64.1833
905	 64.6954
900	 64.5338
895	 64.3446
890	 64.2984
885	 64.0018
880	 63.8448
875	 63.7626
870	 63.7189
865	 63.9084
860	 63.874
855	 63.8293
850	 63.8991
845	 63.9511
840	 63.9479
835	 63.8133
830	 63.8042
825	 63.963
820	 63.969
815	 63.8449
810	 63.661
805	 63.6375
800	 63.6843
795	 63.5731
790	 63.6469
785	 63.581
780	 63.4061
775	 63.4781
770	 63.3788
765	 63.3445
760	 63.4872
755	 63.39
750	 63.2128
745	 63.0776
740	 62.9867
735	 62.9511
730	 62.8488
725	 62.9328
720	 62.9851
715	 62.8898
710	 62.7109
705	 62.6327
700	 62.6923
695	 62.756
690	 62.5746
685	 62.4382
680	 62.4712
675	 62.4708
670	 62.3875
665	 62.2923
660	 62.113
655	 62.1762
650	 62.1692
645	 62.1572
640	 62.3698
635	 62.4532
630	 62.0342
625	 61.8378
620	 62.0505
615	 62.2697
610	 62.3122
605	 62.1284
600	 62.0297
595	 61.9311
590	 61.7162
585	 61.5503
580	 61.5263
575	 61.2294
570	 61.0271
565	 61.2639
560	 61.3042
555	 61.2632
550	 61.0451
545	 60.99
540	 61.1435
535	 60.9311
530	 60.452
525	 60.3874
520	 60.2843
515	 60.4627
510	 60.3175
505	 59.9059
500	 59.9085
495	 59.8586
490	 59.43
485	 59.3702
480	 59.4335
475	 59.2854
470	 59.1184
465	 59.4208
460	 59.5985
455	 59.4465
450	 58.8143
445	 57.9037
440	 58.0697
435	 58.0712
430	 57.9006
425	 57.1624
420	 57.2247
415	 58.4245
410	 58.9999
405	 57.4513
400	 58.0132
395	 56.8518
390	 53.1757
385	 52.8435
380	 61.4836
375	 67.7149
370	 63.1791