File: Bakgrunnsmateriale/MATLAB/FTIR/ftir_data/subBb/Mapping_36/C-4040-8_t12_cm-1.asc
PE IR       SPECTRUM    SPECTRUM    ASCII       PEDS        1.60
  -1
C-1A64~1.ASC
17/05/02
11:46:56.00
17/05/02
11:46:56.00
tln
$C-4040-8_t0012$<tbV0>[-12.5,-8.0,8.0,0.0,22,1,0]
370
64

2002,4.07
MIRTGS : RIGHTBACK : INTERNAL 2
MIR : ON : INTERNAL 2
OPTKBR

0.200000
8
8.000000
FILLER
RATIO
SPECTRUM
UNLOCKED 256

DOUBLE
64
COMBINED
1
0
0

1.000000
RATIO

1
0
TRUE
51149
0
LEFT NOT FITTED RIGHT NOT FITTED 0
NONE
NONE
15600
12
4.427000
51148
TRUE
1 0 8 72 0 0 0 0

15798

#HDR
-1
-1
#GR
CM-1
%T
2.38419e-05
0.0
7800
-1.000000
7431
8
80.9199
42.3431
#DATA
7800	69.2177
7795	73.6987
7790	78.0298
7785	80.6015
7780	79.2368
7775	71.4405
7770	67.6234
7765	64.6732
7760	66.9608
7755	71.0438
7750	65.7208
7745	61.7014
7740	61.7077
7735	61.7635
7730	62.8709
7725	59.692
7720	58.029
7715	63.2744
7710	63.5852
7705	60.3902
7700	57.1733
7695	56.5952
7690	59.1901
7685	62.9786
7680	66.9333
7675	70.8041
7670	72.0786
7665	71.1389
7660	71.8045
7655	75.5442
7650	71.2322
7645	64.711
7640	69.8139
7635	74.1906
7630	70.0473
7625	65.7682
7620	67.2851
7615	68.1072
7610	69.2713
7605	66.485
7600	62.9872
7595	64.4485
7590	63.9682
7585	63.746
7580	66.4262
7575	70.5452
7570	72.5593
7565	70.2569
7560	68.901
7555	70.2042
7550	65.6375
7545	60.6578
7540	62.318
7535	64.4494
7530	64.517
7525	60.6968
7520	59.7189
7515	63.972
7510	67.0589
7505	64.4913
7500	62.1309
7495	62.929
7490	65.0318
7485	66.1656
7480	63.7095
7475	65.0604
7470	68.5847
7465	68.4006
7460	68.2458
7455	68.4925
7450	67.0583
7445	65.7723
7440	65.594
7435	65.5583
7430	65.5672
7425	67.1773
7420	66.0265
7415	63.3601
7410	67.4155
7405	69.2392
7400	66.6199
7395	65.1603
7390	67.0166
7385	66.5933
7380	65.6208
7375	64.8781
7370	63.7036
7365	66.4045
7360	65.5566
7355	62.6603
7350	62.0259
7345	61.5136
7340	59.7224
7335	60.0975
7330	63.0507
7325	66.6985
7320	68.3647
7315	67.7007
7310	67.825
7305	66.5911
7300	64.2904
7295	64.2442
7290	65.874
7285	63.1158
7280	62.0604
7275	65.3393
7270	66.155
7265	63.4414
7260	63.0471
7255	65.1341
7250	66.8238
7245	66.7421
7240	65.0128
7235	63.0312
7230	62.3264
7225	62.6163
7220	63.1538
7215	65.3979
7210	66.3369
7205	66.6561
7200	67.0258
7195	66.4486
7190	66.221
7185	65.8705
7180	64.7302
7175	63.9271
7170	63.6742
7165	61.8329
7160	62.5932
7155	65.424
7150	64.9795
7145	64.2611
7140	65.4483
7135	66.7627
7130	65.7691
7125	64.4132
7120	64.6324
7115	65.9531
7110	64.7099
7105	64.6986
7100	65.7346
7095	65.7612
7090	66.0926
7085	65.6779
7080	63.7517
7075	62.0879
7070	61.16
7065	62.4145
7060	63.6113
7055	63.1539
7050	63.4212
7045	63.1334
7040	63.532
7035	64.6063
7030	65.7286
7025	65.2116
7020	65.1171
7015	65.0893
7010	63.4195
7005	64.104
7000	65.6362
6995	64.7332
6990	65.7754
6985	65.1241
6980	62.8366
6975	63.7999
6970	65.0393
6965	64.997
6960	63.2441
6955	63.0122
6950	63.3749
6945	63.5576
6940	65.2811
6935	66.1228
6930	65.9734
6925	66.253
6920	66.0511
6915	66.0552
6910	65.9079
6905	64.8092
6900	64.6336
6895	65.2783
6890	64.5648
6885	64.2709
6880	64.2543
6875	63.6716
6870	63.9181
6865	65.7398
6860	66.0578
6855	65.8658
6850	65.4272
6845	65.1809
6840	63.7936
6835	63.1279
6830	65.1518
6825	65.6547
6820	65.4292
6815	64.6791
6810	64.5465
6805	64.877
6800	64.5422
6795	65.7881
6790	66.9907
6785	67.0151
6780	66.1491
6775	65.4009
6770	65.6862
6765	64.8632
6760	64.0718
6755	64.1557
6750	62.5456
6745	61.353
6740	61.9518
6735	62.962
6730	63.9405
6725	64.5659
6720	64.7856
6715	64.2556
6710	63.632
6705	64.0789
6700	65.1986
6695	66.0578
6690	66.5926
6685	66.9262
6680	65.9983
6675	64.15
6670	63.7089
6665	63.8041
6660	62.5307
6655	62.7695
6650	65.5859
6645	66.7712
6640	66.036
6635	65.0108
6630	63.3521
6625	63.2313
6620	65.4428
6615	65.5962
6610	64.2724
6605	64.6888
6600	64.9519
6595	64.794
6590	64.9792
6585	64.365
6580	64.3755
6575	66.3744
6570	65.8507
6565	64.8226
6560	65.7189
6555	65.4205
6550	65.1221
6545	64.8782
6540	64.8311
6535	65.8935
6530	65.2456
6525	64.8943
6520	64.8352
6515	65.2277
6510	65.5576
6505	64.8328
6500	64.4984
6495	64.9934
6490	64.5653
6485	63.6587
6480	63.3919
6475	62.9962
6470	63.4248
6465	64.3242
6460	65.0153
6455	64.501
6450	64.4332
6445	65.8675
6440	66.4573
6435	65.4744
6430	64.9062
6425	65.162
6420	65.101
6415	64.3652
6410	64.9368
6405	65.868
6400	65.4174
6395	65.6957
6390	65.4459
6385	64.8248
6380	65.6456
6375	64.9258
6370	63.3383
6365	63.858
6360	65.2488
6355	65.8647
6350	66.2959
6345	66.2185
6340	65.5959
6335	65.3123
6330	65.4006
6325	64.537
6320	63.4667
6315	64.0447
6310	65.7032
6305	65.6078
6300	63.8796
6295	63.7028
6290	65.3265
6285	65.6376
6280	65.1154
6275	65.1908
6270	64.8071
6265	64.7704
6260	64.7907
6255	64.866
6250	65.2148
6245	65.2356
6240	65.11
6235	65.5241
6230	66.5401
6225	66.2893
6220	64.8209
6215	64.0991
6210	64.4673
6205	64.9192
6200	65.3966
6195	65.3183
6190	64.5285
6185	63.5626
6180	64.1486
6175	65.2807
6170	66.0191
6165	65.7379
6160	64.9945
6155	64.4899
6150	64.0543
6145	64.0618
6140	65.007
6135	65.7583
6130	65.9535
6125	65.2263
6120	65.1634
6115	65.2647
6110	64.862
6105	65.4205
6100	66.8755
6095	66.481
6090	65.612
6085	65.2221
6080	65.069
6075	64.8068
6070	64.4011
6065	64.4448
6060	64.9719
6055	65.0352
6050	65.1588
6045	65.3405
6040	65.1235
6035	65.6435
6030	66.2604
6025	65.6545
6020	65.3002
6015	65.2584
6010	65.3237
6005	65.5059
6000	65.4967
5995	65.9508
5990	66.0402
5985	65.2404
5980	64.9244
5975	65.3617
5970	65.4553
5965	65.0244
5960	65.0282
5955	65.1509
5950	64.3781
5945	64.1167
5940	64.5844
5935	64.527
5930	64.4351
5925	64.6394
5920	64.895
5915	65.664
5910	66.4356
5905	65.7064
5900	64.729
5895	64.7487
5890	64.8544
5885	64.9661
5880	65.4356
5875	65.1386
5870	64.6187
5865	65.2905
5860	65.4216
5855	65.0155
5850	64.952
5845	65.1765
5840	65.6686
5835	65.8795
5830	65.3099
5825	64.9692
5820	65.8137
5815	65.6778
5810	65.1908
5805	66.1535
5800	66.7069
5795	65.9487
5790	64.9909
5785	64.9696
5780	65.1062
5775	64.9546
5770	64.8279
5765	65.1037
5760	65.4028
5755	64.9055
5750	64.7732
5745	64.6719
5740	65.0944
5735	65.0806
5730	64.7463
5725	64.9854
5720	65.2894
5715	65.2711
5710	65.133
5705	65.0794
5700	64.9026
5695	65.3181
5690	65.6567
5685	65.2943
5680	65.1663
5675	65.283
5670	65.2895
5665	64.9321
5660	64.4123
5655	64.5884
5650	64.8257
5645	64.9149
5640	64.7889
5635	64.6991
5630	64.9415
5625	64.701
5620	64.7207
5615	64.505
5610	64.5366
5605	64.9203
5600	65.1152
5595	64.6374
5590	64.1843
5585	64.4824
5580	64.6006
5575	63.946
5570	64.4363
5565	65.3397
5560	65.4117
5555	65.123
5550	65.3835
5545	65.9413
5540	66.2428
5535	65.8704
5530	64.9838
5525	64.6085
5520	64.8222
5515	65.4598
5510	65.5792
5505	65.049
5500	64.9217
5495	65.1366
5490	64.9593
5485	64.9539
5480	65.573
5475	66.1949
5470	65.9234
5465	64.9611
5460	65.0617
5455	65.741
5450	65.8367
5445	65.7698
5440	66.0622
5435	66.2684
5430	65.9244
5425	65.5961
5420	65.199
5415	64.8908
5410	65.0152
5405	65.0844
5400	65.3399
5395	65.7471
5390	65.6886
5385	65.3003
5380	65.8134
5375	65.7599
5370	65.2061
5365	64.9395
5360	64.8349
5355	65.5935
5350	65.7943
5345	65.3101
5340	64.843
5335	64.4184
5330	64.7943
5325	64.7649
5320	65.199
5315	65.992
5310	65.3218
5305	63.8166
5300	64.5852
5295	65.2523
5290	64.1711
5285	63.4237
5280	64.5882
5275	64.9025
5270	65.5826
5265	68.1455
5260	67.2345
5255	66.3636
5250	66.4743
5245	64.8107
5240	63.199
5235	64.287
5230	64.7344
5225	64.3575
5220	64.7093
5215	66.1256
5210	66.4953
5205	65.745
5200	65.0836
5195	64.3201
5190	64.0851
5185	64.8086
5180	66.0901
5175	66.7989
5170	65.6045
5165	64.355
5160	64.1369
5155	63.8531
5150	64.1411
5145	64.9643
5140	64.9821
5135	64.6463
5130	64.7795
5125	65.0018
5120	65.1074
5115	65.0501
5110	65.1773
5105	65.266
5100	65.1628
5095	65.2624
5090	65.2816
5085	64.7327
5080	64.715
5075	65.1546
5070	65.0292
5065	64.9843
5060	65.2889
5055	65.5733
5050	65.1343
5045	64.8967
5040	64.8252
5035	64.4931
5030	64.4227
5025	64.6217
5020	64.9123
5015	65.0486
5010	65.3642
5005	65.5225
5000	65.4658
4995	65.5644
4990	65.1157
4985	64.6069
4980	64.5278
4975	64.7551
4970	65.3915
4965	65.656
4960	65.624
4955	65.6848
4950	65.6346
4945	65.6947
4940	65.524
4935	65.2146
4930	65.2009
4925	65.3863
4920	65.3614
4915	65.4259
4910	65.5976
4905	65.2611
4900	64.8542
4895	65.0865
4890	65.8298
4885	66.0099
4880	65.7028
4875	65.6322
4870	65.6835
4865	65.3221
4860	65.1077
4855	65.1837
4850	65.0514
4845	65.0535
4840	65.1202
4835	65.3353
4830	65.4491
4825	65.4299
4820	65.3435
4815	65.1122
4810	65.0765
4805	65.1353
4800	65.2126
4795	65.2021
4790	65.1506
4785	65.3031
4780	65.3325
4775	65.2244
4770	65.0764
4765	64.9993
4760	65.1281
4755	65.0063
4750	64.762
4745	64.9086
4740	64.914
4735	64.8534
4730	65.0573
4725	65.1589
4720	65.1071
4715	65.0525
4710	64.9334
4705	64.9865
4700	64.9877
4695	65.1643
4690	65.2635
4685	65.0719
4680	64.9881
4675	64.9046
4670	64.9442
4665	64.8792
4660	64.9165
4655	64.9563
4650	64.9599
4645	64.7923
4640	64.6945
4635	64.9165
4630	65.2149
4625	65.2169
4620	65.0384
4615	64.8667
4610	64.9553
4605	65.1592
4600	65.1875
4595	65.0527
4590	65.1118
4585	65.3017
4580	65.3059
4575	65.3506
4570	65.5128
4565	65.6102
4560	65.2779
4555	65.2632
4550	65.5348
4545	65.5171
4540	65.3709
4535	65.2609
4530	65.3279
4525	65.1519
4520	64.9131
4515	64.838
4510	65.029
4505	65.3485
4500	65.6567
4495	65.5502
4490	65.104
4485	64.9142
4480	64.9402
4475	65.0653
4470	65.3999
4465	65.2083
4460	65.4237
4455	66.2123
4450	66.2645
4445	66.2078
4440	66.3189
4435	65.9609
4430	65.3602
4425	65.7474
4420	66.4986
4415	66.3718
4410	68.44
4405	73.8221
4400	64.9665
4395	48.745
4390	42.4069
4385	54.9669
4380	67.1226
4375	66.903
4370	66.0758
4365	66.1045
4360	66.5793
4355	66.095
4350	66.0033
4345	65.8001
4340	65.7074
4335	65.6663
4330	65.7081
4325	65.8524
4320	65.9625
4315	66.0799
4310	66.1238
4305	65.8872
4300	65.6047
4295	65.5577
4290	65.5568
4285	65.4997
4280	65.6883
4275	65.8773
4270	65.8937
4265	65.8785
4260	65.6784
4255	65.5044
4250	65.3506
4245	65.4598
4240	65.6056
4235	65.3891
4230	65.4077
4225	65.4927
4220	65.4899
4215	65.559
4210	65.594
4205	65.3573
4200	65.1522
4195	65.4098
4190	65.4912
4185	65.292
4180	65.3386
4175	65.6733
4170	65.7111
4165	65.3457
4160	65.2048
4155	65.2236
4150	65.2704
4145	65.2752
4140	65.3087
4135	65.3235
4130	65.1188
4125	64.9646
4120	65.1425
4115	65.4749
4110	65.3491
4105	65.103
4100	64.9445
4095	65.0206
4090	65.1603
4085	65.1634
4080	65.2815
4075	65.3381
4070	65.2106
4065	65.2122
4060	65.175
4055	65.0465
4050	65.0851
4045	65.1648
4040	65.0111
4035	65.0235
4030	65.2662
4025	65.2283
4020	65.1245
4015	65.0811
4010	64.9465
4005	64.9904
4000	65.3353
3995	65.5923
3990	65.447
3985	65.2039
3980	65.1934
3975	65.3079
3970	65.3144
3965	65.2797
3960	65.3638
3955	65.3802
3950	65.1711
3945	65.1585
3940	65.2645
3935	65.1985
3930	65.1587
3925	65.2936
3920	65.5437
3915	65.5292
3910	65.2702
3905	65.4257
3900	65.4504
3895	65.3887
3890	65.376
3885	65.2385
3880	65.3329
3875	65.4702
3870	65.3477
3865	65.2878
3860	65.3046
3855	65.3724
3850	65.292
3845	65.4983
3840	65.7186
3835	65.5423
3830	65.4491
3825	65.4863
3820	65.2974
3815	65.1192
3810	65.1798
3805	65.478
3800	65.4367
3795	65.2597
3790	65.2997
3785	65.2523
3780	65.1744
3775	65.2122
3770	65.4154
3765	65.4578
3760	65.398
3755	65.3377
3750	65.37
3745	65.4622
3740	65.3976
3735	65.4048
3730	65.4626
3725	65.3628
3720	65.3509
3715	65.3214
3710	65.2997
3705	65.3784
3700	65.3449
3695	65.1447
3690	65.237
3685	65.4669
3680	65.3858
3675	65.2949
3670	65.3144
3665	65.2554
3660	65.2402
3655	65.2832
3650	65.3451
3645	65.325
3640	65.2853
3635	65.2999
3630	65.2662
3625	65.2632
3620	65.3431
3615	65.2831
3610	65.1511
3605	65.198
3600	65.4223
3595	65.4139
3590	65.1741
3585	65.1794
3580	65.3552
3575	65.4699
3570	65.5524
3565	65.4093
3560	65.1796
3555	65.209
3550	65.2411
3545	65.2535
3540	65.2815
3535	65.151
3530	65.1812
3525	65.3966
3520	65.3545
3515	65.2326
3510	65.2752
3505	65.3687
3500	65.2829
3495	65.3927
3490	65.4797
3485	65.4468
3480	65.3779
3475	65.2644
3470	65.2564
3465	65.3121
3460	65.3433
3455	65.3185
3450	65.3725
3445	65.4038
3440	65.4493
3435	65.487
3430	65.511
3425	65.4456
3420	65.2612
3415	65.2142
3410	65.3261
3405	65.3183
3400	65.2549
3395	65.2795
3390	65.3738
3385	65.3072
3380	65.2272
3375	65.3079
3370	65.3512
3365	65.3499
3360	65.2937
3355	65.2378
3350	65.3733
3345	65.3784
3340	65.3034
3335	65.3805
3330	65.3329
3325	65.1435
3320	65.1686
3315	65.3846
3310	65.4868
3305	65.3876
3300	65.3058
3295	65.3833
3290	65.4821
3285	65.4611
3280	65.4077
3275	65.3482
3270	65.255
3265	65.2599
3260	65.3061
3255	65.3938
3250	65.5139
3245	65.4914
3240	65.3178
3235	65.2804
3230	65.315
3225	65.2561
3220	65.2811
3215	65.3063
3210	65.3492
3205	65.3113
3200	65.3289
3195	65.3117
3190	65.2632
3185	65.2804
3180	65.2857
3175	65.3116
3170	65.3646
3165	65.2743
3160	65.2997
3155	65.5035
3150	65.48
3145	65.4043
3140	65.3338
3135	65.2288
3130	65.2049
3125	65.2107
3120	65.2256
3115	65.2105
3110	65.1255
3105	65.1687
3100	65.2142
3095	65.1982
3090	65.2724
3085	65.2513
3080	65.3064
3075	65.3449
3070	65.3466
3065	65.4251
3060	65.3498
3055	65.2499
3050	65.2666
3045	65.3779
3040	65.4232
3035	65.4774
3030	65.4512
3025	65.5406
3020	65.4958
3015	65.3673
3010	65.2917
3005	65.252
3000	65.235
2995	65.2947
2990	65.4519
2985	65.4307
2980	65.3221
2975	65.3043
2970	65.2096
2965	65.0969
2960	65.1064
2955	65.1112
2950	65.1462
2945	65.1682
2940	65.1117
2935	65.1313
2930	65.1238
2925	65.0802
2920	65.0119
2915	65.0162
2910	65.1011
2905	65.1436
2900	65.1564
2895	65.1264
2890	65.1295
2885	65.1446
2880	65.1441
2875	65.1794
2870	65.2222
2865	65.2242
2860	65.1932
2855	65.1734
2850	65.1596
2845	65.2164
2840	65.2607
2835	65.2477
2830	65.267
2825	65.349
2820	65.3462
2815	65.2069
2810	65.2527
2805	65.3666
2800	65.374
2795	65.3978
2790	65.4158
2785	65.3942
2780	65.3609
2775	65.3586
2770	65.3198
2765	65.2168
2760	65.221
2755	65.2609
2750	65.264
2745	65.3068
2740	65.341
2735	65.3443
2730	65.3284
2725	65.2651
2720	65.3328
2715	65.415
2710	65.4125
2705	65.3472
2700	65.3323
2695	65.2884
2690	65.2147
2685	65.2441
2680	65.3164
2675	65.3302
2670	65.3251
2665	65.38
2660	65.3512
2655	65.2682
2650	65.237
2645	65.2501
2640	65.2753
2635	65.2476
2630	65.2412
2625	65.3805
2620	65.4924
2615	65.4213
2610	65.3716
2605	65.3538
2600	65.328
2595	65.2748
2590	65.2347
2585	65.3083
2580	65.3327
2575	65.3426
2570	65.4635
2565	65.5169
2560	65.4741
2555	65.396
2550	65.3426
2545	65.3696
2540	65.3795
2535	65.4226
2530	65.4858
2525	65.4989
2520	65.4417
2515	65.4166
2510	65.4275
2505	65.4615
2500	65.4346
2495	65.3129
2490	65.2798
2485	65.3553
2480	65.3441
2475	65.3176
2470	65.3723
2465	65.4221
2460	65.3767
2455	65.3041
2450	65.2581
2445	65.2215
2440	65.2677
2435	65.3547
2430	65.3426
2425	65.2511
2420	65.1258
2415	65.1577
2410	65.2904
2405	65.4698
2400	65.5054
2395	65.4724
2390	65.4085
2385	65.3788
2380	65.411
2375	65.4271
2370	65.4008
2365	65.3745
2360	65.3717
2355	65.3944
2350	65.3366
2345	65.3634
2340	65.4125
2335	65.3121
2330	65.28
2325	65.3792
2320	65.4837
2315	65.458
2310	65.3973
2305	65.3375
2300	65.3502
2295	65.4313
2290	65.4193
2285	65.3609
2280	65.3655
2275	65.3787
2270	65.3518
2265	65.3904
2260	65.4469
2255	65.4555
2250	65.4813
2245	65.502
2240	65.4495
2235	65.4219
2230	65.4183
2225	65.3756
2220	65.3092
2215	65.2961
2210	65.3365
2205	65.349
2200	65.3591
2195	65.3954
2190	65.4002
2185	65.3348
2180	65.2909
2175	65.2803
2170	65.298
2165	65.3738
2160	65.3964
2155	65.3456
2150	65.3305
2145	65.3949
2140	65.3469
2135	65.2957
2130	65.3003
2125	65.2905
2120	65.3185
2115	65.394
2110	65.448
2105	65.4132
2100	65.4237
2095	65.3976
2090	65.3888
2085	65.442
2080	65.4075
2075	65.4447
2070	65.4461
2065	65.4592
2060	65.3713
2055	65.3109
2050	65.3333
2045	65.3136
2040	65.3516
2035	65.3591
2030	65.3543
2025	65.3394
2020	65.2987
2015	65.3309
2010	65.4459
2005	65.4355
2000	65.382
1995	65.3895
1990	65.382
1985	65.3322
1980	65.3628
1975	65.3953
1970	65.401
1965	65.4392
1960	65.3934
1955	65.3424
1950	65.4015
1945	65.4516
1940	65.3758
1935	65.2749
1930	65.2827
1925	65.4125
1920	65.412
1915	65.2947
1910	65.2875
1905	65.4006
1900	65.4337
1895	65.3572
1890	65.4068
1885	65.4297
1880	65.4125
1875	65.4225
1870	65.3999
1865	65.3889
1860	65.419
1855	65.3791
1850	65.3835
1845	65.4
1840	65.3486
1835	65.3494
1830	65.4132
1825	65.4528
1820	65.4576
1815	65.4157
1810	65.4201
1805	65.4561
1800	65.4454
1795	65.4341
1790	65.4087
1785	65.3773
1780	65.3831
1775	65.4603
1770	65.4075
1765	65.2998
1760	65.3262
1755	65.3407
1750	65.2781
1745	65.2279
1740	65.2015
1735	65.1893
1730	65.2038
1725	65.2081
1720	65.2176
1715	65.2278
1710	65.241
1705	65.3082
1700	65.4165
1695	65.4698
1690	65.3848
1685	65.3196
1680	65.2949
1675	65.2461
1670	65.2174
1665	65.2451
1660	65.2377
1655	65.2375
1650	65.273
1645	65.2717
1640	65.199
1635	65.1557
1630	65.2171
1625	65.3052
1620	65.374
1615	65.3493
1610	65.2207
1605	65.228
1600	65.2933
1595	65.2121
1590	65.1787
1585	65.2216
1580	65.2099
1575	65.0959
1570	65.0953
1565	65.2095
1560	65.2146
1555	65.1235
1550	65.1388
1545	65.1764
1540	65.1467
1535	65.0851
1530	65.1191
1525	65.1697
1520	65.1743
1515	65.1229
1510	65.2577
1505	65.3386
1500	65.2683
1495	65.2908
1490	65.2106
1485	65.025
1480	64.9609
1475	65.012
1470	65.0726
1465	65.2027
1460	65.2901
1455	65.2416
1450	65.1017
1445	65.0219
1440	65.1121
1435	65.1616
1430	65.069
1425	65.0672
1420	65.1757
1415	65.1313
1410	65.0486
1405	65.0672
1400	65.1468
1395	65.1361
1390	65.0969
1385	65.0417
1380	65.0131
1375	65.0679
1370	65.0976
1365	65.1153
1360	65.1648
1355	65.2352
1350	65.2813
1345	65.2813
1340	65.1381
1335	65.0151
1330	64.9918
1325	64.9995
1320	65.1019
1315	65.1404
1310	65.0732
1305	65.0528
1300	65.0833
1295	65.1111
1290	65.0651
1285	65.0352
1280	64.9957
1275	64.9567
1270	65.0047
1265	64.9899
1260	64.9584
1255	64.9753
1250	65.0492
1245	65.0735
1240	65.0304
1235	65.078
1230	65.0687
1225	65.0281
1220	64.9752
1215	65.0189
1210	65.034
1205	65.0612
1200	65.078
1195	65.058
1190	65.0105
1185	64.9763
1180	64.9386
1175	64.9542
1170	65.0338
1165	65.0009
1160	64.9238
1155	64.8779
1150	64.8837
1145	64.8634
1140	64.7638
1135	64.7429
1130	64.8829
1125	64.9908
1120	64.9048
1115	64.8573
1110	64.9121
1105	65.0177
1100	65.1371
1095	64.9325
1090	64.7295
1085	64.8174
1080	64.8867
1075	65.0193
1070	64.9425
1065	64.8866
1060	64.8828
1055	64.8737
1050	64.9884
1045	64.9798
1040	64.9169
1035	64.9123
1030	64.9151
1025	64.8229
1020	64.7275
1015	64.8112
1010	64.9066
1005	64.8623
1000	64.8336
995	 64.8476
990	 64.8174
985	 64.6784
980	 64.5392
975	 64.6272
970	 64.8737
965	 64.9756
960	 64.7854
955	 64.6728
950	 64.7911
945	 64.8179
940	 64.5528
935	 64.5324
930	 64.7227
925	 64.7838
920	 64.8148
915	 64.8033
910	 64.7094
905	 64.6211
900	 64.6256
895	 64.6163
890	 64.6384
885	 64.6044
880	 64.7112
875	 64.7212
870	 64.1185
865	 63.95
860	 64.0182
855	 64.2673
850	 64.8043
845	 64.4886
840	 64.1873
835	 64.5945
830	 64.3087
825	 64.0039
820	 64.1977
815	 64.453
810	 64.1389
805	 64.103
800	 64.391
795	 64.3527
790	 64.2767
785	 64.1895
780	 64.2138
775	 64.3412
770	 64.2747
765	 64.0684
760	 63.9641
755	 63.9597
750	 63.7927
745	 63.7433
740	 64.1119
735	 64.3541
730	 64.0355
725	 63.6877
720	 63.6288
715	 63.75
710	 63.7083
705	 63.4561
700	 63.4275
695	 63.6083
690	 63.4926
685	 63.3729
680	 63.2389
675	 63.1065
670	 63.1471
665	 63.1968
660	 63.2993
655	 63.4053
650	 63.4651
645	 63.4022
640	 63.1007
635	 63.2131
630	 63.2371
625	 62.8971
620	 62.5812
615	 62.6791
610	 62.8135
605	 62.6711
600	 62.5545
595	 62.5731
590	 62.8813
585	 62.9598
580	 62.469
575	 62.3884
570	 62.3384
565	 62.1407
560	 62.3061
555	 62.3064
550	 62.3059
545	 62.0065
540	 61.5806
535	 61.4206
530	 61.0917
525	 60.9537
520	 61.3246
515	 61.2788
510	 61.269
505	 61.128
500	 60.7941
495	 60.8622
490	 61.0357
485	 61.2012
480	 61.0173
475	 60.7462
470	 60.7018
465	 60.1762
460	 59.5971
455	 59.4492
450	 59.3738
445	 59.8281
440	 59.2371
435	 57.4337
430	 56.2397
425	 56.6651
420	 57.3588
415	 57.417
410	 55.247
405	 52.6546
400	 56.0592
395	 62.781
390	 69.1502
385	 65.0289
380	 60.2823
375	 66.3656
370	 60.7284