File: Bakgrunnsmateriale/MATLAB/FTIR/ftir_data/subBb/Mapping_36/C-4040-8_t10_cm-1.asc
PE IR       SPECTRUM    SPECTRUM    ASCII       PEDS        1.60
  -1
C-1A61~1.ASC
17/05/02
11:37:33.00
17/05/02
11:37:33.00
tln
$C-4040-8_t0010$<tbV0>[-2.5,-8.0,8.0,0.0,22,1,0]
370
64

2002,4.07
MIRTGS : RIGHTBACK : INTERNAL 2
MIR : ON : INTERNAL 2
OPTKBR

0.200000
8
8.000000
FILLER
RATIO
SPECTRUM
UNLOCKED 256

DOUBLE
64
COMBINED
1
0
0

1.000000
RATIO

1
0
TRUE
51149
0
LEFT NOT FITTED RIGHT NOT FITTED 0
NONE
NONE
15600
12
4.427000
51148
TRUE
1 0 8 72 0 0 0 0

15798

#HDR
-1
-1
#GR
CM-1
%T
2.38419e-05
0.0
7800
-1.000000
7431
8
75.0515
32.5642
#DATA
7800	67.7793
7795	68.0671
7790	62.3302
7785	63.8586
7780	68.0459
7775	65.0168
7770	64.076
7765	68.9337
7760	61.3845
7755	57.373
7750	63.1894
7745	68.9772
7740	70.2988
7735	71.0697
7730	71.9977
7725	68.7936
7720	65.9958
7715	63.2362
7710	63.579
7705	64.6283
7700	65.6042
7695	59.891
7690	57.3825
7685	66.3821
7680	75.0515
7675	64.7832
7670	62.7451
7665	68.9868
7660	66.0082
7655	63.5634
7650	63.652
7645	64.3533
7640	68.938
7635	67.6645
7630	67.6566
7625	67.8409
7620	68.2421
7615	68.6141
7610	68.9881
7605	71.1372
7600	65.2721
7595	60.0692
7590	62.0577
7585	63.2526
7580	63.3335
7575	65.5829
7570	64.0544
7565	66.0066
7560	62.9395
7555	58.1567
7550	60.5667
7545	63.3997
7540	65.3654
7535	63.0419
7530	61.5096
7525	58.8718
7520	56.8548
7515	61.8767
7510	63.7331
7505	61.6658
7500	62.7059
7495	62.463
7490	62.3266
7485	63.253
7480	63.0081
7475	60.847
7470	61.2368
7465	64.1386
7460	62.039
7455	60.5463
7450	62.6061
7445	65.2102
7440	65.407
7435	63.4375
7430	64.4562
7425	64.977
7420	63.852
7415	63.5792
7410	65.2083
7405	64.9016
7400	64.777
7395	65.8074
7390	66.143
7385	64.6358
7380	63.9454
7375	61.6986
7370	59.9615
7365	63.1781
7360	65.6205
7355	63.1309
7350	60.9322
7345	61.8052
7340	62.9455
7335	64.5289
7330	63.3812
7325	61.1689
7320	62.4069
7315	61.2557
7310	61.2794
7305	62.9157
7300	64.3689
7295	65.7275
7290	64.583
7285	61.2002
7280	61.754
7275	64.7451
7270	64.3477
7265	64.0377
7260	62.9761
7255	61.7989
7250	62.8926
7245	63.3241
7240	61.439
7235	62.3878
7230	66.3739
7225	67.0101
7220	66.381
7215	64.8723
7210	61.9444
7205	61.7104
7200	61.6883
7195	64.3434
7190	65.6304
7185	64.5334
7180	64.5655
7175	63.3887
7170	62.4279
7165	61.4091
7160	59.6047
7155	60.2828
7150	61.3647
7145	62.7313
7140	63.6159
7135	63.3881
7130	64.0147
7125	64.1407
7120	64.2557
7115	64.5444
7110	64.0698
7105	64.7064
7100	65.8036
7095	66.0257
7090	65.4796
7085	65.1589
7080	63.5373
7075	63.9555
7070	64.3069
7065	64.2918
7060	63.775
7055	61.8686
7050	64.4368
7045	65.5004
7040	61.9466
7035	59.7455
7030	61.2289
7025	63.8552
7020	66.3806
7015	66.1963
7010	64.445
7005	64.5447
7000	64.927
6995	64.6833
6990	64.4746
6985	65.712
6980	65.3869
6975	64.5186
6970	64.988
6965	63.1191
6960	61.933
6955	62.127
6950	63.3856
6945	63.6532
6940	63.8515
6935	65.9173
6930	66.0999
6925	65.0032
6920	65.1039
6915	63.5167
6910	63.1427
6905	64.3435
6900	64.7274
6895	64.0106
6890	63.6907
6885	63.2766
6880	62.9444
6875	63.0851
6870	63.0597
6865	64.3988
6860	64.7753
6855	65.1306
6850	64.3725
6845	62.5618
6840	63.4418
6835	64.1346
6830	63.293
6825	63.5304
6820	63.6772
6815	63.7084
6810	63.8177
6805	63.9071
6800	63.717
6795	64.0093
6790	64.4165
6785	64.2345
6780	63.3971
6775	63.1289
6770	63.2582
6765	62.6571
6760	62.103
6755	62.9642
6750	64.0409
6745	64.4201
6740	63.8228
6735	64.2341
6730	64.0394
6725	62.9478
6720	62.8383
6715	64.5505
6710	65.3453
6705	64.7798
6700	64.8801
6695	65.6325
6690	66.4404
6685	66.1656
6680	64.0607
6675	62.989
6670	63.641
6665	63.7656
6660	63.3419
6655	63.3321
6650	63.7952
6645	62.9838
6640	61.8662
6635	62.7625
6630	62.2768
6625	62.4515
6620	64.916
6615	65.0475
6610	64.7701
6605	65.9237
6600	65.3714
6595	63.5228
6590	63.3217
6585	63.2272
6580	63.9272
6575	65.1345
6570	64.2588
6565	63.0478
6560	63.0679
6555	63.0292
6550	62.5198
6545	61.7477
6540	62.9247
6535	65.2773
6530	64.9671
6525	65.4909
6520	66.2068
6515	65.1609
6510	63.6849
6505	62.4055
6500	62.6899
6495	63.9369
6490	64.0821
6485	64.0681
6480	64.7926
6475	63.8995
6470	63.1261
6465	63.128
6460	63.2603
6455	63.892
6450	64.6563
6445	64.1856
6440	63.6133
6435	64.1013
6430	64.1118
6425	62.849
6420	62.9667
6415	63.8223
6410	63.4925
6405	62.7126
6400	63.2298
6395	63.0303
6390	63.0545
6385	63.6046
6380	64.5192
6375	65.3829
6370	64.7218
6365	64.7291
6360	65.0116
6355	64.4055
6350	63.6676
6345	63.4496
6340	63.9832
6335	64.5865
6330	64.6702
6325	63.5333
6320	62.4995
6315	62.7542
6310	64.3395
6305	64.3763
6300	63.029
6295	63.2907
6290	65.1955
6285	65.358
6280	64.4513
6275	64.4539
6270	63.085
6265	62.3936
6260	63.18
6255	64.2586
6250	64.6167
6245	63.5808
6240	63.0341
6235	64.5471
6230	65.5861
6225	64.9701
6220	64.5045
6215	63.8252
6210	62.4119
6205	62.7534
6200	64.2847
6195	64.5321
6190	63.4073
6185	62.4756
6180	63.3024
6175	63.9852
6170	64.5085
6165	64.6153
6160	64.259
6155	63.7895
6150	62.865
6145	63.2229
6140	64.3087
6135	64.5318
6130	64.0125
6125	63.7671
6120	63.7566
6115	63.608
6110	63.5306
6105	63.7162
6100	64.2737
6095	64.7002
6090	64.7535
6085	64.3909
6080	63.9547
6075	63.2372
6070	63.3399
6065	63.8284
6060	63.7867
6055	63.8235
6050	64.5864
6045	64.8484
6040	64.0628
6035	64.2975
6030	64.9312
6025	64.5798
6020	64.4429
6015	64.3981
6010	64.378
6005	64.8116
6000	64.5673
5995	64.7901
5990	65.2739
5985	64.481
5980	64.2164
5975	64.9088
5970	65.1424
5965	64.452
5960	64.0491
5955	63.3384
5950	62.4423
5945	62.9922
5940	64.1287
5935	64.107
5930	63.4237
5925	62.7856
5920	63.5057
5915	64.2899
5910	64.555
5905	63.9049
5900	63.6246
5895	64.0677
5890	64.1369
5885	63.7566
5880	63.8389
5875	64.1573
5870	64.3619
5865	64.4751
5860	64.035
5855	64.2033
5850	64.3574
5845	64.0168
5840	64.7627
5835	65.2749
5830	64.9066
5825	64.4967
5820	63.9535
5815	63.3789
5810	63.8019
5805	64.6214
5800	64.6149
5795	63.7865
5790	63.6515
5785	63.9489
5780	64.0886
5775	63.778
5770	63.4446
5765	63.4423
5760	63.4433
5755	62.9565
5750	62.9864
5745	63.1193
5740	63.5284
5735	63.9652
5730	64.0114
5725	63.6168
5720	63.6347
5715	64.1886
5710	64.3266
5705	64.1017
5700	63.4822
5695	63.3876
5690	63.5062
5685	63.9476
5680	64.1008
5675	63.804
5670	63.8409
5665	63.8298
5660	64.2425
5655	64.3585
5650	63.8514
5645	63.8255
5640	63.5418
5635	63.2114
5630	63.9523
5625	64.2787
5620	63.9888
5615	63.746
5610	63.5291
5605	63.5706
5600	64.0178
5595	64.5402
5590	64.6163
5585	64.5371
5580	64.759
5575	64.5799
5570	64.2185
5565	63.8666
5560	64.23
5555	64.4563
5550	64.3117
5545	64.4463
5540	64.6791
5535	64.4445
5530	63.7117
5525	63.7274
5520	63.9543
5515	63.7571
5510	63.8601
5505	64.3931
5500	64.3367
5495	64.3154
5490	64.3931
5485	64.4922
5480	64.1716
5475	63.7675
5470	63.9596
5465	64.0664
5460	64.0744
5455	64.0877
5450	63.8354
5445	63.7281
5440	64.2432
5435	64.3245
5430	63.6597
5425	63.0387
5420	63.2871
5415	63.7993
5410	63.8822
5405	63.3771
5400	63.7724
5395	64.1075
5390	63.8277
5385	63.8084
5380	64.202
5375	64.0115
5370	63.9705
5365	64.3991
5360	64.5231
5355	64.42
5350	64.3165
5345	64.6702
5340	65.3576
5335	64.9576
5330	64.7629
5325	64.6512
5320	63.9075
5315	63.4231
5310	62.9019
5305	63.4159
5300	64.3572
5295	65.6202
5290	65.729
5285	64.2425
5280	63.426
5275	63.0406
5270	63.6833
5265	64.0066
5260	63.4916
5255	65.3533
5250	67.2551
5245	64.6052
5240	60.569
5235	60.0915
5230	61.7372
5225	62.9089
5220	64.2241
5215	64.3109
5210	64.4714
5205	64.9467
5200	64.8834
5195	64.4842
5190	63.6977
5185	63.6703
5180	64.6628
5175	65.1464
5170	64.5807
5165	63.8948
5160	63.7593
5155	63.2812
5150	62.9886
5145	63.5127
5140	64.3553
5135	64.2847
5130	64.2036
5125	64.6073
5120	64.5841
5115	64.033
5110	63.7971
5105	63.7281
5100	63.9468
5095	64.2849
5090	64.2278
5085	63.902
5080	63.9549
5075	63.915
5070	63.8329
5065	64.2691
5060	64.4783
5055	64.1149
5050	63.7286
5045	63.9615
5040	64.1761
5035	64.134
5030	63.9608
5025	63.9729
5020	64.0859
5015	63.8169
5010	63.5255
5005	63.6244
5000	64.028
4995	64.166
4990	63.709
4985	63.6397
4980	63.8806
4975	63.9965
4970	64.2586
4965	63.9981
4960	63.4183
4955	63.7778
4950	64.0323
4945	63.9777
4940	63.7389
4935	63.6042
4930	63.9222
4925	64.2985
4920	64.3419
4915	63.9238
4910	63.7935
4905	63.8775
4900	63.9359
4895	64.395
4890	64.9286
4885	64.5673
4880	64.0207
4875	63.8945
4870	63.9124
4865	63.9108
4860	63.9081
4855	63.6019
4850	63.5102
4845	63.7716
4840	63.8462
4835	64.056
4830	64.147
4825	64.1566
4820	64.1257
4815	63.9553
4810	63.9225
4805	63.9273
4800	64.2284
4795	64.4352
4790	64.2259
4785	64.2074
4780	64.1981
4775	64.2653
4770	64.1371
4765	64.207
4760	64.2598
4755	64.0727
4750	64.1456
4745	64.3126
4740	64.293
4735	64.2617
4730	64.2956
4725	64.0484
4720	63.7501
4715	63.8108
4710	64.0233
4705	63.9651
4700	64.1263
4695	64.4333
4690	64.2279
4685	63.9606
4680	63.8786
4675	63.8598
4670	63.8863
4665	64.1003
4660	64.3407
4655	64.2509
4650	64.0342
4645	63.6732
4640	63.921
4635	64.2622
4630	64.2402
4625	64.037
4620	63.6078
4615	63.5731
4610	63.7017
4605	63.9006
4600	63.9775
4595	63.783
4590	63.8745
4585	64.0217
4580	63.9552
4575	63.8351
4570	63.947
4565	63.7776
4560	63.624
4555	63.916
4550	64.1421
4545	63.848
4540	63.3965
4535	63.3615
4530	63.4457
4525	63.2576
4520	63.0018
4515	62.9945
4510	63.0415
4505	63.0494
4500	63.2919
4495	63.391
4490	63.1788
4485	63.034
4480	62.9596
4475	63.0784
4470	63.2384
4465	63.1655
4460	63.1747
4455	63.5324
4450	63.6521
4445	63.3756
4440	63.4614
4435	63.6765
4430	63.4538
4425	63.4453
4420	63.1901
4415	63.8875
4410	66.5719
4405	71.9132
4400	67.543
4395	61.4173
4390	63.9299
4385	68.6243
4380	67.7619
4375	64.2295
4370	63.1903
4365	63.26
4360	63.4928
4355	63.3895
4350	63.2432
4345	63.4905
4340	63.3299
4335	63.169
4330	62.875
4325	62.9523
4320	63.1812
4315	63.039
4310	63.0344
4305	63.0795
4300	63.0821
4295	63.1394
4290	63.2634
4285	63.4181
4280	63.4643
4275	63.376
4270	63.5253
4265	63.4718
4260	63.3425
4255	63.432
4250	63.5616
4245	63.7153
4240	63.5463
4235	63.4384
4230	63.4367
4225	63.5173
4220	63.5881
4215	63.576
4210	63.7526
4205	63.7039
4200	63.6552
4195	63.7688
4190	63.7769
4185	63.6055
4180	63.3179
4175	63.2077
4170	63.6056
4165	63.7671
4160	63.5535
4155	63.4829
4150	63.5478
4145	63.4858
4140	63.3441
4135	63.5101
4130	63.7145
4125	63.8576
4120	63.8619
4115	63.7311
4110	63.5673
4105	63.7417
4100	63.7203
4095	63.7275
4090	63.7649
4085	63.7694
4080	63.7981
4075	63.9057
4070	63.905
4065	63.7784
4060	63.7567
4055	63.7001
4050	63.6748
4045	63.7454
4040	63.6459
4035	63.4609
4030	63.4499
4025	63.4987
4020	63.5834
4015	63.5028
4010	63.2899
4005	63.3006
4000	63.48
3995	63.5083
3990	63.4686
3985	63.484
3980	63.4963
3975	63.5174
3970	63.4909
3965	63.4084
3960	63.4377
3955	63.5336
3950	63.3518
3945	63.245
3940	63.4004
3935	63.4596
3930	63.3472
3925	63.1383
3920	63.1561
3915	63.3563
3910	63.3194
3905	63.398
3900	63.34
3895	63.0547
3890	62.9893
3885	63.1088
3880	63.4209
3875	63.5916
3870	63.4374
3865	63.1608
3860	63.0256
3855	63.0735
3850	63.1219
3845	63.3205
3840	63.3717
3835	63.211
3830	63.2129
3825	63.218
3820	63.0162
3815	62.8866
3810	62.8774
3805	63.2586
3800	63.4635
3795	63.1166
3790	63.0205
3785	62.9639
3780	62.8231
3775	63.0199
3770	63.2463
3765	63.282
3760	63.2073
3755	63.1872
3750	63.1192
3745	63.0166
3740	62.9122
3735	63.0092
3730	63.0822
3725	62.9948
3720	63.0312
3715	62.9742
3710	62.8902
3705	62.9422
3700	62.8693
3695	62.8442
3690	62.9864
3685	63.0152
3680	62.9722
3675	63.0542
3670	63.0051
3665	62.9087
3660	62.9528
3655	63.0809
3650	63.0949
3645	63.0157
3640	63.0418
3635	63.0602
3630	62.9498
3625	62.7988
3620	62.7471
3615	62.8162
3610	62.6913
3605	62.6148
3600	62.7792
3595	62.8003
3590	62.6776
3585	62.5608
3580	62.5839
3575	62.7838
3570	62.8269
3565	62.7451
3560	62.6591
3555	62.528
3550	62.5332
3545	62.4752
3540	62.4667
3535	62.4544
3530	62.3786
3525	62.507
3520	62.5332
3515	62.4771
3510	62.4037
3505	62.4546
3500	62.5154
3495	62.5294
3490	62.5605
3485	62.4536
3480	62.3861
3475	62.3259
3470	62.3165
3465	62.3305
3460	62.2859
3455	62.3793
3450	62.3458
3445	62.1943
3440	62.1571
3435	62.2751
3430	62.3635
3425	62.2806
3420	62.11
3415	62.0569
3410	62.1498
3405	62.181
3400	62.1661
3395	62.1606
3390	62.2546
3385	62.1788
3380	62.1121
3375	62.1402
3370	62.0388
3365	62.0194
3360	62.0351
3355	62.0296
3350	62.0602
3345	61.8891
3340	61.8507
3335	61.9553
3330	61.9619
3325	61.8757
3320	61.8788
3315	62.0262
3310	62.0209
3305	61.9012
3300	61.8129
3295	61.737
3290	61.7869
3285	61.8982
3280	61.9121
3275	61.7372
3270	61.4952
3265	61.6279
3260	61.7533
3255	61.5889
3250	61.5449
3245	61.6359
3240	61.6706
3235	61.6405
3230	61.5171
3225	61.5127
3220	61.5497
3215	61.5223
3210	61.5339
3205	61.5505
3200	61.5521
3195	61.4799
3190	61.4235
3185	61.4422
3180	61.4263
3175	61.4371
3170	61.4298
3165	61.3325
3160	61.2381
3155	61.3091
3150	61.3199
3145	61.2766
3140	61.1674
3135	61.0121
3130	61.0059
3125	61.171
3120	61.1201
3115	60.9869
3110	61.0131
3105	61.0957
3100	61.1851
3095	61.1227
3090	61.0427
3085	61.0293
3080	60.9949
3075	60.9545
3070	60.9873
3065	61.051
3060	60.9415
3055	60.9549
3050	61.0264
3045	60.9717
3040	60.8948
3035	61.004
3030	61.0241
3025	60.9036
3020	60.8723
3015	60.8468
3010	60.824
3005	60.7473
3000	60.6996
2995	60.6586
2990	60.6606
2985	60.6763
2980	60.6168
2975	60.4891
2970	60.35
2965	60.4124
2960	60.4238
2955	60.3723
2950	60.3775
2945	60.3811
2940	60.3243
2935	60.1713
2930	60.1554
2925	60.1155
2920	60.0358
2915	60.0764
2910	60.1903
2905	60.1722
2900	60.115
2895	60.0795
2890	60.126
2885	60.2015
2880	60.0964
2875	59.9819
2870	60.0369
2865	60.1
2860	60.0416
2855	60.0407
2850	60.023
2845	59.9479
2840	59.9183
2835	59.8022
2830	59.7589
2825	59.8899
2820	59.9302
2815	59.8234
2810	59.8317
2805	59.8391
2800	59.778
2795	59.7699
2790	59.7388
2785	59.7466
2780	59.7416
2775	59.682
2770	59.594
2765	59.6041
2760	59.6055
2755	59.5627
2750	59.5556
2745	59.5614
2740	59.5104
2735	59.535
2730	59.5118
2725	59.5144
2720	59.4502
2715	59.3652
2710	59.3151
2705	59.2851
2700	59.316
2695	59.2417
2690	59.049
2685	59.047
2680	59.1434
2675	59.1054
2670	59.0904
2665	59.1583
2660	59.1194
2655	59.0996
2650	59.0355
2645	58.884
2640	58.8857
2635	58.8855
2630	58.7887
2625	58.7474
2620	58.7657
2615	58.8074
2610	58.8367
2605	58.8383
2600	58.8298
2595	58.8673
2590	58.7729
2585	58.6549
2580	58.6055
2575	58.5251
2570	58.4674
2565	58.4332
2560	58.4456
2555	58.477
2550	58.3955
2545	58.3584
2540	58.404
2535	58.4215
2530	58.4395
2525	58.4135
2520	58.3759
2515	58.2754
2510	58.164
2505	58.2041
2500	58.2956
2495	58.1628
2490	58.0517
2485	58.0542
2480	58.0768
2475	58.0709
2470	58.0053
2465	57.9243
2460	57.9346
2455	57.9881
2450	57.9306
2445	57.8207
2440	57.7988
2435	57.7923
2430	57.8321
2425	57.8396
2420	57.7005
2415	57.5778
2410	57.6046
2405	57.6817
2400	57.5545
2395	57.473
2390	57.4647
2385	57.4308
2380	57.4671
2375	57.4458
2370	57.3594
2365	57.3122
2360	57.2938
2355	57.2814
2350	57.2069
2345	57.1293
2340	57.0869
2335	57.1534
2330	57.1596
2325	57.0569
2320	57.0288
2315	56.976
2310	56.9683
2305	56.9261
2300	56.9298
2295	56.9903
2290	56.914
2285	56.7927
2280	56.6688
2275	56.6291
2270	56.7094
2265	56.691
2260	56.556
2255	56.4975
2250	56.5392
2245	56.5629
2240	56.4929
2235	56.4627
2230	56.4799
2225	56.4267
2220	56.3072
2215	56.3312
2210	56.3387
2205	56.2091
2200	56.1494
2195	56.1766
2190	56.2016
2185	56.1411
2180	56.042
2175	55.9981
2170	55.9804
2165	55.9412
2160	55.9277
2155	55.9756
2150	55.9703
2145	55.8482
2140	55.745
2135	55.7522
2130	55.7742
2125	55.6659
2120	55.603
2115	55.6578
2110	55.5889
2105	55.5631
2100	55.5599
2095	55.4626
2090	55.4363
2085	55.3191
2080	55.2049
2075	55.3003
2070	55.3167
2065	55.2629
2060	55.2224
2055	55.2513
2050	55.1646
2045	55.0154
2040	54.992
2035	54.9693
2030	54.9391
2025	54.8961
2020	54.8564
2015	54.8402
2010	54.7913
2005	54.7462
2000	54.742
1995	54.7526
1990	54.6943
1985	54.6051
1980	54.565
1975	54.5197
1970	54.4504
1965	54.4582
1960	54.4664
1955	54.3877
1950	54.3206
1945	54.2907
1940	54.2448
1935	54.2412
1930	54.279
1925	54.2631
1920	54.1721
1915	54.1028
1910	54.1156
1905	54.1857
1900	54.1144
1895	53.9883
1890	53.9653
1885	53.9549
1880	53.8746
1875	53.848
1870	53.8182
1865	53.7742
1860	53.737
1855	53.6519
1850	53.5966
1845	53.562
1840	53.5155
1835	53.5315
1830	53.5247
1825	53.4499
1820	53.3976
1815	53.3779
1810	53.3544
1805	53.2811
1800	53.2213
1795	53.2118
1790	53.1566
1785	53.0724
1780	53.0035
1775	52.9769
1770	52.9922
1765	52.9725
1760	52.9129
1755	52.8621
1750	52.7751
1745	52.6836
1740	52.6606
1735	52.6083
1730	52.5007
1725	52.4218
1720	52.5337
1715	52.6203
1710	52.4617
1705	52.4248
1700	52.4326
1695	52.3659
1690	52.3532
1685	52.3347
1680	52.2516
1675	52.2087
1670	52.1731
1665	52.1382
1660	52.0861
1655	52.0044
1650	51.9245
1645	51.8675
1640	51.8363
1635	51.7268
1630	51.6354
1625	51.7042
1620	51.6805
1615	51.6065
1610	51.6003
1605	51.5301
1600	51.4509
1595	51.3938
1590	51.3557
1585	51.3072
1580	51.3314
1575	51.2771
1570	51.1402
1565	51.1747
1560	51.2576
1555	51.182
1550	51.1097
1545	51.1221
1540	51.1037
1535	50.9228
1530	50.8448
1525	50.879
1520	50.8731
1515	50.7927
1510	50.838
1505	50.7996
1500	50.706
1495	50.6676
1490	50.6273
1485	50.5325
1480	50.4512
1475	50.4043
1470	50.3664
1465	50.3446
1460	50.3766
1455	50.3652
1450	50.269
1445	50.2268
1440	50.2287
1435	50.1883
1430	50.1132
1425	50.0556
1420	50.0171
1415	49.9985
1410	49.936
1405	49.8713
1400	49.8465
1395	49.7928
1390	49.7732
1385	49.7172
1380	49.659
1375	49.6877
1370	49.6472
1365	49.5606
1360	49.5324
1355	49.4271
1350	49.371
1345	49.4395
1340	49.4129
1335	49.309
1330	49.2145
1325	49.0896
1320	49.0331
1315	49.0518
1310	49.0578
1305	49.0395
1300	48.9774
1295	48.9017
1290	48.8087
1285	48.7678
1280	48.7454
1275	48.7099
1270	48.5794
1265	48.4909
1260	48.516
1255	48.5216
1250	48.4608
1245	48.3817
1240	48.391
1235	48.4056
1230	48.2874
1225	48.1519
1220	48.1128
1215	48.1629
1210	48.2192
1205	48.2103
1200	48.1365
1195	48.0517
1190	47.8702
1185	47.8144
1180	47.829
1175	47.7808
1170	47.7804
1165	47.7975
1160	47.706
1155	47.5727
1150	47.5314
1145	47.4876
1140	47.3512
1135	47.3029
1130	47.3089
1125	47.306
1120	47.3266
1115	47.2132
1110	47.1221
1105	47.0204
1100	46.9788
1095	46.9845
1090	46.991
1085	47.0162
1080	46.9174
1075	46.8152
1070	46.6812
1065	46.5657
1060	46.5854
1055	46.6357
1050	46.7439
1045	46.7693
1040	46.6155
1035	46.4412
1030	46.2827
1025	46.2938
1020	46.3979
1015	46.3885
1010	46.2934
1005	46.1012
1000	46.0397
995	 46.1058
990	 46.0874
985	 45.967
980	 45.7456
975	 45.6961
970	 45.7678
965	 45.7185
960	 45.6321
955	 45.6323
950	 45.6133
945	 45.5568
940	 45.3527
935	 45.4206
930	 45.4212
925	 45.1857
920	 45.1968
915	 45.1202
910	 44.9274
905	 44.7462
900	 44.605
895	 44.4293
890	 44.3197
885	 44.2028
880	 44.1561
875	 44.3886
870	 44.4666
865	 44.7628
860	 44.5275
855	 43.835
850	 43.7201
845	 43.8293
840	 43.8753
835	 44.2334
830	 44.3608
825	 43.9348
820	 43.6829
815	 43.7517
810	 43.7893
805	 43.8242
800	 43.8831
795	 43.7375
790	 43.5843
785	 43.3717
780	 43.0936
775	 43.092
770	 43.2026
765	 43.2315
760	 43.1676
755	 43.0996
750	 42.9641
745	 43.0686
740	 42.9202
735	 42.6337
730	 42.6125
725	 42.7574
720	 42.6857
715	 42.5864
710	 42.458
705	 42.1258
700	 41.9366
695	 41.9592
690	 41.7968
685	 41.5515
680	 41.3925
675	 41.2534
670	 41.1805
665	 40.8777
660	 40.8074
655	 40.9708
650	 40.94
645	 40.9905
640	 40.809
635	 40.6126
630	 40.3265
625	 39.9707
620	 39.8793
615	 39.7947
610	 39.8148
605	 40.0527
600	 39.9263
595	 39.863
590	 39.5948
585	 39.1647
580	 39.1206
575	 38.8955
570	 38.3662
565	 38.1333
560	 38.4942
555	 38.7155
550	 38.4431
545	 38.1173
540	 37.7566
535	 37.4504
530	 37.4693
525	 37.3384
520	 37.1775
515	 37.1918
510	 36.5773
505	 36.034
500	 35.9266
495	 35.7069
490	 35.593
485	 35.7206
480	 35.5667
475	 35.3351
470	 35.3238
465	 34.7432
460	 34.2624
455	 34.8773
450	 34.5814
445	 33.8212
440	 34.1259
435	 34.6116
430	 33.317
425	 32.589
420	 33.0215
415	 32.8546
410	 32.9457
405	 34.3977
400	 36.4346
395	 43.2851
390	 51.0077
385	 43.3395
380	 52.9353
375	 45.7555
370	 44.4899