File: Bakgrunnsmateriale/MATLAB/FTIR/ftir_data/subBb/Mapping_36/C-4040-8_t24.asc
PE IR       SPECTRUM    SPECTRUM    ASCII       PEDS        1.60
  -1
C-BD2A~1.ASC
17/05/02
12:50:44.00
17/05/02
12:51:11.00
tln
$C-4040-8_t0024$<tbV0>[-12.5,2.0,8.0,0.0,22,1,0]
27.028
64

2002,4.07
MIRTGS : RIGHTBACK : INTERNAL 2
MIR : ON : INTERNAL 2
OPTKBR

0.200000
8
8.000000
FILLER
RATIO
SPECTRUM
UNLOCKED 256

DOUBLE
64
COMBINED
1
0
0

0.002000
RATIO

1
0
TRUE
51149
0
LEFT NOT FITTED RIGHT NOT FITTED 0
NONE
NONE
15600
12
4.427000
51148
TRUE
1 0 8 72 0 0 0 0

15798

#HDR
-1
-1
#GR
µM
%T
2.38419e-05
0.0
1.282000
0.002000
12874
8
85.6056
43.4696
#DATA
1.282000	 61.5177
1.300000	 63.0002
1.318000	 64.3821
1.336000	 65.4193
1.354000	 67.1457
1.372000	 66.5851
1.390000	 64.0956
1.408000	 63.9565
1.426000	 63.6475
1.444000	 65.8184
1.462000	 64.8303
1.480000	 63.1347
1.498000	 64.2602
1.516000	 65.5388
1.534000	 65.5055
1.552000	 65.8016
1.570000	 64.5167
1.588000	 64.3618
1.606000	 64.2141
1.624000	 64.6691
1.642000	 65.1905
1.660000	 64.9184
1.678000	 64.8533
1.696000	 64.1771
1.714000	 64.1487
1.732000	 64.5867
1.750000	 65.1931
1.768000	 64.4378
1.786000	 64.929
1.804000	 65.5166
1.822000	 64.6264
1.840000	 64.5597
1.858000	 64.114
1.876000	 64.0927
1.894000	 62.103
1.912000	 65.2505
1.930000	 64.8477
1.948000	 64.616
1.966000	 64.9504
1.984000	 64.8752
2.002000	 65.1918
2.020000	 64.7972
2.038000	 65.1699
2.056000	 64.8066
2.074000	 64.8598
2.092000	 65.389
2.110000	 65.0608
2.128000	 65.3671
2.146000	 64.6921
2.164000	 65.2332
2.182000	 64.7176
2.200000	 64.5176
2.218000	 64.3176
2.236000	 64.765
2.254000	 64.487
2.272000	 63.7334
2.290000	 64.5357
2.308000	 64.6519
2.326000	 64.6191
2.344000	 64.6525
2.362000	 64.8151
2.380000	 64.6425
2.398000	 64.9792
2.416000	 64.7979
2.434000	 65.1961
2.452000	 65.2567
2.470000	 65.3452
2.488000	 65.512
2.506000	 65.1808
2.524000	 65.1227
2.542000	 65.1128
2.560000	 64.9678
2.578000	 65.2746
2.596000	 65.2504
2.614000	 65.052
2.632000	 65.081
2.650000	 65.1576
2.668000	 65.314
2.686000	 65.2565
2.704000	 65.231
2.722000	 65.3201
2.740000	 65.1425
2.758000	 65.3819
2.776000	 65.3167
2.794000	 65.448
2.812000	 65.2584
2.830000	 65.2146
2.848000	 65.1209
2.866000	 65.3089
2.884000	 65.3077
2.902000	 65.3115
2.920000	 65.1046
2.938000	 65.1121
2.956000	 65.2507
2.974000	 65.0722
2.992000	 65.0308
3.010000	 65.1482
3.028000	 65.2173
3.046000	 65.2218
3.064000	 65.1878
3.082000	 65.0254
3.100000	 65.054
3.118000	 65.0936
3.136000	 65.2398
3.154000	 65.2166
3.172000	 65.1957
3.190000	 65.2028
3.208000	 65.357
3.226000	 65.2453
3.244000	 65.3556
3.262000	 65.2687
3.280000	 65.2663
3.298000	 65.2454
3.316000	 65.2456
3.334000	 65.1828
3.352000	 65.1209
3.370000	 65.0926
3.388000	 64.9626
3.406000	 64.961
3.424000	 64.8253
3.442000	 64.965
3.460000	 65.2139
3.478000	 65.1534
3.496000	 65.1269
3.514000	 64.9014
3.532000	 65.2229
3.550000	 65.2162
3.568000	 65.2094
3.586000	 65.3116
3.604000	 65.2045
3.622000	 65.2745
3.640000	 65.22
3.658000	 65.319
3.676000	 65.3161
3.694000	 65.1788
3.712000	 65.2292
3.730000	 65.2591
3.748000	 65.2577
3.766000	 65.2404
3.784000	 65.2752
3.802000	 65.3178
3.820000	 65.2676
3.838000	 65.3435
3.856000	 65.2925
3.874000	 65.2683
3.892000	 65.2848
3.910000	 65.2332
3.928000	 65.2338
3.946000	 65.404
3.964000	 65.1972
3.982000	 65.1986
4.000000	 65.2615
4.018000	 65.3563
4.036000	 65.348
4.054000	 65.3778
4.072000	 65.3448
4.090000	 65.2827
4.108000	 65.2918
4.125999	 65.2275
4.144000	 65.3342
4.162000	 65.3449
4.180000	 65.2543
4.198000	 65.2725
4.216000	 65.313
4.234000	 65.3705
4.252000	 65.2885
4.270000	 65.2491
4.288000	 65.3297
4.306000	 65.4347
4.324000	 65.404
4.342000	 65.3791
4.359999	 65.4132
4.378000	 65.399
4.396000	 65.3746
4.414000	 65.3144
4.432000	 65.2784
4.450000	 65.3225
4.468000	 65.4394
4.486000	 65.2815
4.504000	 65.2282
4.522000	 65.3448
4.540000	 65.3638
4.558000	 65.3039
4.576000	 65.4629
4.594000	 65.3671
4.612000	 65.3557
4.630000	 65.4381
4.648000	 65.3783
4.666000	 65.3485
4.684000	 65.2601
4.702000	 65.2823
4.720000	 65.35
4.738000	 65.318
4.756000	 65.2064
4.774000	 65.2737
4.792000	 65.1717
4.810000	 65.2558
4.828000	 65.3672
4.846000	 65.2665
4.864000	 65.3706
4.882000	 65.2207
4.900000	 65.2833
4.918000	 65.2974
4.936000	 65.3415
4.954000	 65.3482
4.972000	 65.3155
4.990000	 65.3364
5.008000	 65.2859
5.026000	 65.2344
5.044000	 65.3238
5.062000	 65.4186
5.080000	 65.2933
5.098000	 65.3271
5.116000	 65.3708
5.134000	 65.3327
5.152000	 65.3452
5.170000	 65.3432
5.188000	 65.3087
5.206000	 65.2436
5.224000	 65.3131
5.242000	 65.3785
5.260000	 65.3566
5.278000	 65.3628
5.296000	 65.3574
5.314000	 65.3449
5.332000	 65.3549
5.350000	 65.33
5.368000	 65.2347
5.386000	 65.3112
5.404000	 65.3563
5.422000	 65.2207
5.440000	 65.1787
5.458000	 65.2638
5.476000	 65.3275
5.494000	 65.3257
5.512000	 65.3549
5.530000	 65.386
5.548000	 65.2978
5.566000	 65.3027
5.584000	 65.3196
5.602000	 65.3191
5.620000	 65.404
5.638000	 65.4248
5.656000	 65.3519
5.674000	 65.3519
5.692000	 65.3127
5.710000	 65.2342
5.728000	 65.2019
5.746000	 65.1773
5.764000	 65.0871
5.782000	 65.0279
5.800000	 65.0822
5.818000	 65.1621
5.836000	 65.1988
5.854000	 65.2385
5.872000	 65.2643
5.890000	 65.3248
5.908000	 65.261
5.926000	 65.2271
5.944000	 65.1999
5.962000	 65.1266
5.980000	 65.219
5.998000	 65.2665
6.016000	 65.1751
6.034000	 65.1966
6.052000	 65.2672
6.070000	 65.2204
6.088000	 65.1362
6.106000	 65.1227
6.124000	 65.1331
6.142000	 65.1438
6.160000	 65.1975
6.178000	 65.252
6.196000	 65.2173
6.214000	 65.1725
6.232000	 65.2049
6.250000	 65.1896
6.268000	 65.1244
6.286000	 65.13
6.304000	 65.1414
6.322000	 65.1644
6.340000	 65.1403
6.358000	 65.0736
6.376000	 65.0533
6.394000	 65.0296
6.412000	 65.0341
6.430000	 65.1166
6.448000	 65.1673
6.466000	 65.1367
6.484000	 65.0647
6.502000	 65.0239
6.520000	 65.0794
6.538000	 65.1645
6.556000	 65.1461
6.574000	 65.0546
6.592000	 65.0312
6.610000	 65.0895
6.628000	 65.1756
6.646000	 65.2208
6.664000	 65.2134
6.682000	 65.184
6.700000	 65.1854
6.718000	 65.1696
6.736000	 65.1371
6.754000	 65.1451
6.772000	 65.1537
6.790000	 65.1727
6.808000	 65.1687
6.826000	 65.1264
6.844000	 65.1135
6.862000	 65.0977
6.880000	 65.0693
6.898000	 65.101
6.916000	 65.1705
6.934000	 65.1629
6.952000	 65.0765
6.970000	 65.0726
6.988000	 65.1759
7.006000	 65.1922
7.024000	 65.0881
7.042000	 65.0293
7.060000	 65.045
7.078000	 65.0584
7.096000	 65.0727
7.114000	 65.1038
7.132000	 65.1634
7.150000	 65.2389
7.168000	 65.2453
7.186000	 65.1712
7.204000	 65.128
7.222000	 65.1657
7.240000	 65.1918
7.258000	 65.13
7.276000	 65.0575
7.294000	 65.0524
7.312000	 65.0623
7.330000	 65.0484
7.348000	 65.0512
7.366000	 65.081
7.384000	 65.0995
7.402000	 65.0882
7.420000	 65.0852
7.438000	 65.1358
7.456000	 65.1946
7.474000	 65.191
7.492000	 65.1467
7.510000	 65.1091
7.528000	 65.0909
7.546000	 65.1089
7.564000	 65.157
7.582000	 65.2057
7.600000	 65.2468
7.618000	 65.2536
7.636000	 65.1921
7.654000	 65.0969
7.672000	 65.0188
7.690000	 64.9663
7.708000	 64.964
7.726000	 65.0382
7.744000	 65.1445
7.762000	 65.2097
7.780000	 65.2066
7.798000	 65.1473
7.816000	 65.0703
7.834000	 65.0217
7.852000	 65.0084
7.870000	 65.0045
7.888000	 65.0082
7.906000	 65.031
7.924000	 65.0533
7.942000	 65.0506
7.960000	 65.0368
7.978000	 65.0386
7.996000	 65.053
8.013999	 65.0604
8.032000	 65.0557
8.050000	 65.0447
8.068000	 65.03
8.086000	 65.0157
8.103999	 65.0113
8.122000	 65.0248
8.140000	 65.0563
8.158000	 65.0924
8.176000	 65.1065
8.193999	 65.0795
8.212000	 65.026
8.230000	 64.9872
8.248000	 64.992
8.266000	 65.0279
8.283999	 65.053
8.302000	 65.0418
8.320000	 65.0057
8.338000	 64.9665
8.356000	 64.9344
8.374000	 64.9185
8.391999	 64.9272
8.410000	 64.9458
8.428000	 64.9468
8.446000	 64.9336
8.464000	 64.9353
8.481999	 64.9641
8.500000	 65.0087
8.518000	 65.0582
8.536000	 65.1031
8.554000	 65.1195
8.571999	 65.0864
8.590000	 65.0157
8.608000	 64.9423
8.626000	 64.8929
8.644000	 64.8759
8.661999	 64.8829
8.680000	 64.895
8.698000	 64.8986
8.716000	 64.893
8.734000	 64.8804
8.751999	 64.8525
8.770000	 64.8043
8.788000	 64.7562
8.806000	 64.7387
8.824000	 64.7615
8.842000	 64.808
8.859999	 64.8553
8.878000	 64.8832
8.896000	 64.8758
8.914000	 64.8342
8.932000	 64.7881
8.949999	 64.7772
8.968000	 64.8118
8.986000	 64.8678
9.004000	 64.9184
9.022000	 64.9573
9.039999	 64.9856
9.058000	 64.992
9.076000	 64.9588
9.094000	 64.8872
9.112000	 64.803
9.129999	 64.7387
9.148000	 64.7155
9.166000	 64.7369
9.184000	 64.7898
9.202000	 64.8493
9.219999	 64.8899
9.238000	 64.8935
9.256000	 64.8559
9.274000	 64.7931
9.292000	 64.7407
9.310000	 64.7366
9.327999	 64.7955
9.346000	 64.8942
9.364000	 64.9857
9.382000	 65.0281
9.400000	 65.0092
9.418000	 64.945
9.436000	 64.8616
9.454000	 64.7793
9.472000	 64.7131
9.490000	 64.6788
9.508000	 64.6941
9.526000	 64.766
9.544000	 64.8783
9.561999	 64.9948
9.580000	 65.078
9.598000	 65.1089
9.616000	 65.0921
9.634000	 65.0465
9.652000	 64.9927
9.670000	 64.9477
9.688000	 64.9232
9.706000	 64.9229
9.724000	 64.9357
9.742000	 64.9371
9.760000	 64.9028
9.778000	 64.8263
9.795999	 64.7269
9.814000	 64.6394
9.832000	 64.5941
9.850000	 64.599
9.868000	 64.6426
9.886000	 64.7049
9.904000	 64.7668
9.922000	 64.8148
9.940000	 64.8408
9.958000	 64.8457
9.976000	 64.8391
9.994000	 64.834
10.012	64.8411
10.03	64.865
10.048	64.905
10.066	64.9553
10.084	65.0043
10.102	65.0338
10.12	65.0241
10.138	64.966
10.156	64.8718
10.174	64.7724
10.192	64.7019
10.21	64.6789
10.228	64.6988
10.246	64.7409
10.264	64.7825
10.282	64.8113
10.3	64.8266
10.318	64.8336
10.336	64.8368
10.354	64.8387
10.372	64.8416
10.39	64.8496
10.408	64.8647
10.426	64.8823
10.444	64.8916
10.462	64.8829
10.48	64.8561
10.498	64.8241
10.516	64.8036
10.534	64.8046
10.552	64.8208
10.57	64.8334
10.588	64.8213
10.606	64.7759
10.624	64.7041
10.642	64.6249
10.66	64.5574
10.678	64.516
10.696	64.5064
10.714	64.5277
10.732	64.5748
10.75	64.6412
10.768	64.72
10.786	64.8029
10.804	64.8774
10.822	64.9276
10.84	64.9363
10.858	64.8938
10.876	64.8061
10.894	64.6973
10.912	64.6001
10.93	64.5443
10.948	64.5382
10.966	64.5632
10.984	64.5872
11.002	64.5813
11.02	64.5377
11.038	64.4721
11.056	64.4098
11.074	64.3689
11.092	64.3496
11.11	64.3352
11.128	64.3058
11.146	64.254
11.164	64.1924
11.182	64.1495
11.2	64.1592
11.218	64.2426
11.236	64.4015
11.254	64.6174
11.272	64.8583
11.29	65.0869
11.308	65.2734
11.326	65.3964
11.344	65.448
11.362	65.4325
11.38	65.363
11.398	65.2576
11.416	65.1386
11.434	65.026
11.452	64.9362
11.47	64.8782
11.488	64.8515
11.506	64.8482
11.524	64.8567
11.542	64.8666
11.56	64.8688
11.578	64.8567
11.596	64.8251
11.614	64.7694
11.632	64.6884
11.65	64.5866
11.668	64.4761
11.686	64.3757
11.704	64.3043
11.722	64.2752
11.74	64.2903
11.758	64.3386
11.776	64.3991
11.794	64.4497
11.812	64.4765
11.83	64.4756
11.848	64.4539
11.866	64.4235
11.884	64.3964
11.902	64.38
11.92	64.3756
11.938	64.3802
11.956	64.3884
11.974	64.3965
11.992	64.4039
12.01	64.4142
12.028	64.4329
12.046	64.4642
12.064	64.507
12.082	64.5546
12.1	64.5959
12.118	64.6178
12.136	64.6104
12.154	64.5711
12.172	64.505
12.19	64.4231
12.208	64.3394
12.226	64.2657
12.244	64.2079
12.262	64.1663
12.28	64.1365
12.298	64.1133
12.316	64.0928
12.334	64.0743
12.352	64.0589
12.37	64.0482
12.388	64.0419
12.406	64.0375
12.424	64.0315
12.442	64.0205
12.46	64.0043
12.478	63.9864
12.496	63.9731
12.514	63.9719
12.532	63.9879
12.55	64.0224
12.568	64.0724
12.586	64.1324
12.604	64.1962
12.622	64.2589
12.64	64.3177
12.658	64.3707
12.676	64.4156
12.694	64.4495
12.712	64.4674
12.73	64.4646
12.748	64.4385
12.766	64.3901
12.784	64.3249
12.802	64.2521
12.82	64.183
12.838	64.1278
12.856	64.0931
12.874	64.0804
12.892	64.0867
12.91	64.1055
12.928	64.129
12.946	64.1512
12.964	64.1687
12.982	64.1813
13	64.1905
13.018	64.1986
13.036	64.2069
13.054	64.2149
13.072	64.2202
13.09	64.2196
13.108	64.2104
13.126	64.1915
13.144	64.164
13.162	64.1319
13.18	64.101
13.198	64.0774
13.216	64.0655
13.234	64.067
13.252	64.0803
13.27	64.1014
13.288	64.1237
13.306	64.1409
13.324	64.1474
13.342	64.1402
13.36	64.1185
13.378	64.0839
13.396	64.0397
13.414	63.99
13.432	63.9387
13.45	63.889
13.468	63.8432
13.486	63.8029
13.504	63.7691
13.522	63.7423
13.54	63.7227
13.558	63.7099
13.576	63.7034
13.594	63.7022
13.612	63.7046
13.63	63.7095
13.648	63.7159
13.666	63.7239
13.684	63.7343
13.702	63.7485
13.72	63.7678
13.738	63.7933
13.756	63.8246
13.774	63.86
13.792	63.8962
13.81	63.9287
13.828	63.9531
13.846	63.9653
13.864	63.9628
13.882	63.9448
13.9	63.9126
13.918	63.8697
13.936	63.8208
13.954	63.771
13.972	63.7253
13.99	63.6874
14.008	63.6595
14.026	63.6415
14.044	63.6324
14.062	63.6296
14.08	63.6302
14.098	63.6316
14.116	63.6317
14.134	63.6293
14.152	63.6241
14.17	63.6162
14.188	63.6062
14.206	63.5945
14.224	63.5816
14.242	63.5677
14.26	63.5531
14.278	63.5379
14.296	63.523
14.314	63.5095
14.332	63.4991
14.35	63.4935
14.368	63.4942
14.386	63.5018
14.404	63.5157
14.422	63.534
14.44	63.5535
14.458	63.5703
14.476	63.5808
14.494	63.5818
14.512	63.5714
14.53	63.5498
14.548	63.5187
14.566	63.481
14.584	63.4406
14.602	63.4012
14.62	63.3666
14.638	63.3396
14.656	63.3215
14.674	63.3124
14.692	63.3116
14.71	63.3176
14.728	63.3289
14.746	63.3435
14.764	63.3597
14.782	63.3761
14.8	63.3918
14.818	63.406
14.836	63.4179
14.854	63.4265
14.872	63.4307
14.89	63.4292
14.908	63.4207
14.926	63.4041
14.944	63.3785
14.962	63.344
14.98	63.301
14.998	63.2513
15.016	63.1969
15.034	63.1409
15.052	63.0872
15.07	63.0392
15.088	63.0002
15.106	62.9731
15.124	62.9602
15.142	62.9624
15.16	62.9792
15.178	63.0095
15.196	63.051
15.214	63.1001
15.232	63.1531
15.25	63.2065
15.268	63.2568
15.286	63.3008
15.304	63.336
15.322	63.3608
15.34	63.3745
15.358	63.3765
15.376	63.3672
15.394	63.3479
15.412	63.3198
15.43	63.2847
15.448	63.2449
15.466	63.2025
15.484	63.1597
15.502	63.118
15.52	63.0798
15.538	63.0461
15.556	63.0178
15.574	62.9955
15.592	62.9795
15.61	62.9694
15.628	62.9651
15.646	62.9662
15.664	62.9723
15.682	62.9831
15.7	62.9984
15.718	63.0177
15.736	63.0405
15.754	63.066
15.772	63.0935
15.79	63.1219
15.808	63.1496
15.826	63.1751
15.844	63.1971
15.862	63.2138
15.88	63.2242
15.898	63.2277
15.916	63.2239
15.934	63.2137
15.952	63.1979
15.97	63.1776
15.988	63.1551
16.006	63.1317
16.024	63.1088
16.042	63.0876
16.06	63.0683
16.078	63.0509
16.096	63.0351
16.114	63.0198
16.132	63.0041
16.15	62.9869
16.168	62.9676
16.186	62.9462
16.204	62.9227
16.222	62.8985
16.24	62.8753
16.258	62.8545
16.276	62.839
16.294	62.8313
16.312	62.8332
16.33	62.8468
16.348	62.873
16.366	62.9117
16.384	62.9618
16.402	63.0204
16.42	63.0848
16.438	63.1507
16.456	63.2128
16.474	63.2683
16.492	63.3126
16.51	63.3436
16.528	63.3606
16.546	63.3631
16.564	63.3535
16.582	63.3333
16.6	63.3064
16.618	63.2761
16.636	63.2449
16.654	63.2165
16.672	63.1923
16.69	63.1734
16.708	63.1608
16.726	63.1537
16.744	63.1518
16.762	63.1541
16.78	63.1597
16.798	63.1672
16.816	63.1753
16.834	63.183
16.852	63.1889
16.87	63.1916
16.888	63.1905
16.906	63.1841
16.924	63.1718
16.942	63.1526
16.96	63.1263
16.978	63.093
16.996	63.053
17.014	63.0079
17.032	62.9585
17.05	62.9074
17.068	62.8564
17.086	62.8075
17.104	62.7638
17.122	62.7262
17.14	62.6967
17.158	62.6756
17.176	62.6633
17.194	62.6581
17.212	62.6589
17.23	62.6634
17.248	62.6685
17.266	62.6725
17.284	62.6717
17.302	62.6649
17.32	62.6499
17.338	62.6266
17.356	62.5948
17.374	62.5561
17.392	62.5122
17.41	62.4657
17.428	62.4202
17.446	62.3774
17.464	62.3419
17.482	62.3145
17.5	62.2981
17.518	62.2931
17.536	62.3003
17.554	62.3184
17.572	62.3467
17.59	62.3829
17.608	62.425
17.626	62.4709
17.644	62.5178
17.662	62.5646
17.68	62.6087
17.698	62.6499
17.716	62.6872
17.734	62.7208
17.752	62.7505
17.77	62.7776
17.788	62.8023
17.806	62.826
17.824	62.8488
17.842	62.8719
17.86	62.8952
17.878	62.9188
17.896	62.9425
17.914	62.966
17.932	62.9886
17.95	63.01
17.968	63.0291
17.986	63.0459
18.004	63.0596
18.022	63.0703
18.04	63.0778
18.058	63.0825
18.076	63.0845
18.094	63.0847
18.112	63.083
18.13	63.0802
18.148	63.0764
18.166	63.0721
18.184	63.0672
18.202	63.0617
18.22	63.0556
18.238	63.0487
18.256	63.0407
18.274	63.0313
18.292	63.0203
18.31	63.0077
18.328	62.993
18.346	62.9764
18.364	62.9578
18.382	62.9375
18.4	62.9155
18.418	62.8922
18.436	62.8674
18.454	62.8419
18.472	62.8158
18.49	62.7894
18.508	62.763
18.526	62.7374
18.544	62.7125
18.562	62.6893
18.58	62.6678
18.598	62.6491
18.616	62.6331
18.634	62.6207
18.652	62.612
18.67	62.6076
18.688	62.6074
18.706	62.6114
18.724	62.6193
18.742	62.6309
18.76	62.6457
18.778	62.6631
18.796	62.6825
18.814	62.7031
18.832	62.724
18.85	62.7442
18.868	62.763
18.886	62.7796
18.904	62.7936
18.922	62.8043
18.94	62.8117
18.958	62.8153
18.976	62.8154
18.994	62.8118
19.012	62.8052
19.03	62.7956
19.048	62.7838
19.066	62.7704
19.084	62.7559
19.102	62.7409
19.12	62.7257
19.138	62.7108
19.156	62.6961
19.174	62.6819
19.192	62.6681
19.21	62.6544
19.228	62.6408
19.246	62.6268
19.264	62.6124
19.282	62.5971
19.3	62.5809
19.318	62.5635
19.336	62.5452
19.354	62.5259
19.372	62.5059
19.39	62.486
19.408	62.466
19.426	62.4474
19.444	62.4299
19.462	62.4146
19.48	62.4016
19.498	62.3911
19.516	62.3835
19.534	62.3785
19.552	62.3761
19.57	62.3757
19.588	62.3771
19.606	62.3795
19.624	62.3821
19.642	62.3845
19.66	62.3853
19.678	62.3847
19.696	62.3814
19.714	62.3757
19.732	62.3664
19.75	62.3536
19.768	62.337
19.786	62.3165
19.804	62.2921
19.822	62.2637
19.84	62.2314
19.858	62.1954
19.876	62.1558
19.894	62.1128
19.912	62.0663
19.93	62.0167
19.948	61.9639
19.966	61.9082
19.984	61.8494
20.002	61.7879
20.02	61.7236
20.038	61.6567
20.056	61.5876
20.074	61.5164
20.092	61.4439
20.11	61.3703
20.128	61.2967
20.146	61.2231
20.164	61.1512
20.182	61.0811
20.2	61.0143
20.218	60.9519
20.236	60.8944
20.254	60.8443
20.272	60.801
20.29	60.7669
20.308	60.7417
20.326	60.7267
20.344	60.7225
20.362	60.7288
20.38	60.746
20.398	60.7739
20.416	60.8115
20.434	60.8592
20.452	60.9144
20.47	60.9771
20.488	61.0453
20.506	61.117
20.524	61.1921
20.542	61.2666
20.56	61.3412
20.578	61.4126
20.596	61.4802
20.614	61.5429
20.632	61.5986
20.65	61.6478
20.668	61.6891
20.686	61.7226
20.704	61.7484
20.722	61.7663
20.74	61.777
20.758	61.7817
20.776	61.7801
20.794	61.7748
20.812	61.7654
20.83	61.7537
20.848	61.7412
20.866	61.7277
20.884	61.7156
20.902	61.7048
20.92	61.696
20.938	61.6899
20.956	61.6862
20.974	61.685
20.992	61.6866
21.01	61.6893
21.028	61.6934
21.046	61.6978
21.064	61.7008
21.082	61.7029
21.1	61.7014
21.118	61.6964
21.136	61.6868
21.154	61.6711
21.172	61.6496
21.19	61.6214
21.208	61.5861
21.226	61.5444
21.244	61.4962
21.262	61.4417
21.28	61.3828
21.298	61.3192
21.316	61.2526
21.334	61.1851
21.352	61.116
21.37	61.0485
21.388	60.9825
21.406	60.9189
21.424	60.8595
21.442	60.8037
21.46	60.7525
21.478	60.7063
21.496	60.6645
21.514	60.6268
21.532	60.5936
21.55	60.5634
21.568	60.5357
21.586	60.5103
21.604	60.4853
21.622	60.4611
21.64	60.4367
21.658	60.4107
21.676	60.3838
21.694	60.3552
21.712	60.3246
21.73	60.2926
21.748	60.2596
21.766	60.2251
21.784	60.1908
21.802	60.1573
21.82	60.1243
21.838	60.0942
21.856	60.0665
21.874	60.0422
21.892	60.0227
21.91	60.0075
21.928	59.9974
21.946	59.9931
21.964	59.9941
21.982	59.9999
22	60.0112
22.018	60.0264
22.036	60.044
22.054	60.0649
22.072	60.0862
22.09	60.1067
22.108	60.1267
22.126	60.1429
22.144	60.1554
22.162	60.1635
22.18	60.1643
22.198	60.1586
22.216	60.1453
22.234	60.123
22.252	60.0923
22.27	60.0531
22.288	60.0051
22.306	59.9487
22.324	59.8858
22.342	59.8156
22.36	59.7395
22.378	59.6608
22.396	59.5778
22.414	59.4935
22.432	59.4109
22.45	59.3284
22.468	59.2496
22.486	59.1766
22.504	59.1083
22.522	59.0481
22.54	58.9966
22.558	58.9536
22.576	58.9211
22.594	58.8995
22.612	58.8884
22.63	58.8882
22.648	58.8993
22.666	58.9208
22.684	58.9515
22.702	58.9926
22.72	59.0416
22.738	59.0968
22.756	59.1596
22.774	59.2265
22.792	59.2957
22.81	59.3684
22.828	59.4407
22.846	59.5112
22.864	59.5808
22.882	59.6461
22.9	59.7061
22.918	59.7615
22.936	59.8099
22.954	59.8509
22.972	59.8848
22.99	59.9104
23.008	59.9273
23.026	59.9361
23.044	59.937
23.062	59.9295
23.08	59.9144
23.098	59.8934
23.116	59.8657
23.134	59.8323
23.152	59.7953
23.17	59.7537
23.188	59.7088
23.206	59.6637
23.224	59.6176
23.242	59.5711
23.26	59.526
23.278	59.4823
23.296	59.4396
23.314	59.3978
23.332	59.3577
23.35	59.3182
23.368	59.2778
23.386	59.2371
23.404	59.1955
23.422	59.1511
23.44	59.1047
23.458	59.0556
23.476	59.0015
23.494	58.9429
23.512	58.8794
23.53	58.8091
23.548	58.7316
23.566	58.6474
23.584	58.5562
23.602	58.4574
23.62	58.3516
23.638	58.2405
23.656	58.1239
23.674	58.0017
23.692	57.8776
23.71	57.753
23.728	57.6262
23.746	57.5021
23.764	57.3837
23.782	57.2684
23.8	57.1605
23.818	57.064
23.836	56.9765
23.854	56.9003
23.872	56.8387
23.89	56.7904
23.908	56.7562
23.926	56.7384
23.944	56.737
23.962	56.7514
23.98	56.7817
23.998	56.8288
24.016	56.8919
24.034	56.9682
24.052	57.0571
24.07	57.16
24.088	57.2716
24.106	57.3881
24.124	57.5131
24.142	57.6415
24.16	57.7676
24.178	57.8949
24.196	58.0201
24.214	58.1365
24.232	58.2455
24.25	58.3469
24.268	58.434
24.286	58.5044
24.304	58.5611
24.322	58.5994
24.34	58.6157
24.358	58.6127
24.376	58.5882
24.394	58.5391
24.412	58.4654
24.43	58.3683
24.448	58.2485
24.466	58.1054
24.484	57.9391
24.502	57.7529
24.52	57.5484
24.538	57.322
24.556	57.0807
24.574	56.832
24.592	56.5711
24.61	56.3017
24.628	56.0342
24.646	55.7694
24.664	55.5034
24.682	55.2493
24.7	55.0168
24.718	54.7967
24.736	54.5982
24.754	54.4345
24.772	54.3018
24.79	54.2002
24.808	54.1417
24.826	54.1328
24.844	54.1663
24.862	54.249
24.88	54.3882
24.898	54.5821
24.916	54.8296
24.934	55.1325
24.952	55.4929
24.97	55.9098
24.988	56.3787
25.006	56.8963
25.024	57.4688
25.042	58.0885
25.06	58.7429
25.078	59.4322
25.096	60.1615
25.114	60.9129
25.132	61.6712
25.15	62.4509
25.168	63.2398
25.186	64.0161
25.204	64.7761
25.222	65.5305
25.24	66.2584
25.258	66.9408
25.276	67.5908
25.294	68.2015
25.312	68.7549
25.33	69.2437
25.348	69.6785
25.366	70.0492
25.384	70.3447
25.402	70.5682
25.42	70.7212
25.438	70.7997
25.456	70.8001
25.474	70.7239
25.492	70.5745
25.51	70.3552
25.528	70.0637
25.546	69.7007
25.564	69.2743
25.582	68.7912
25.6	68.244
25.618	67.6392
25.636	66.9879
25.654	66.2937
25.672	65.5488
25.69	64.765
25.708	63.9553
25.726	63.1149
25.744	62.243
25.762	61.353
25.78	60.4557
25.798	59.5411
25.816	58.6154
25.834	57.6908
25.852	56.7728
25.87	55.852
25.888	54.9385
25.906	54.0432
25.924	53.1652
25.942	52.3004
25.96	51.4586
25.978	50.649
25.996	49.8652
26.014	49.109
26.032	48.3898
26.05	47.714
26.068	47.0734
26.086	46.4738
26.104	45.924
26.122	45.428
26.14	44.9786
26.158	44.582
26.176	44.2454
26.194	43.9696
26.212	43.7507
26.23	43.5924
26.248	43.4986
26.266	43.4696
26.284	43.5032
26.302	43.5987
26.32	43.7554
26.338	43.9789
26.356	44.2636
26.374	44.5993
26.392	44.9782
26.41	45.4106
26.428	45.889
26.446	46.3998
26.464	46.9345
26.482	47.5081
26.5	48.1073
26.518	48.7138
26.536	49.3171
26.554	49.9326
26.572	50.5492
26.59	51.1529
26.608	51.7363
26.626	52.3099
26.644	52.8678
26.662	53.4028
26.68	53.9107
26.698	54.396
26.716	54.859
26.734	55.3001
26.752	55.7166
26.77	56.107
26.788	56.4794
26.806	56.8426
26.824	57.1981
26.842	57.5398
26.86	57.8746
26.878	58.2101
26.896	58.5492
26.914	58.8871
26.932	59.2256
26.95	59.5671
26.968	59.9341
26.986	60.34
27.004	60.7205
27.022	61.0093
27.028	61.0647