File: Bakgrunnsmateriale/MATLAB/FTIR/ftir_data/subBb/Mapping_36/C-4040-8_t35_cm-1.asc
PE IR       SPECTRUM    SPECTRUM    ASCII       PEDS        1.60
  -1
C-1BEE~1.ASC
17/05/02
13:49:26.00
17/05/02
13:49:26.00
tln
$C-4040-8_t0035$<tbV0>[-7.5,12.0,8.0,0.0,22,1,0]
370
64

2002,4.07
MIRTGS : RIGHTBACK : INTERNAL 2
MIR : ON : INTERNAL 2
OPTKBR

0.200000
8
8.000000
FILLER
RATIO
SPECTRUM
UNLOCKED 256

DOUBLE
64
COMBINED
1
0
0

1.000000
RATIO

1
0
TRUE
51149
0
LEFT NOT FITTED RIGHT NOT FITTED 0
NONE
NONE
15600
12
4.427000
51148
TRUE
1 0 8 72 0 0 0 0

15798

#HDR
-1
-1
#GR
CM-1
%T
2.38419e-05
0.0
7800
-1.000000
7431
8
81.6374
37.7282
#DATA
7800	65.5983
7795	70.4521
7790	65.651
7785	65.0713
7780	69.2928
7775	63.8208
7770	59.9773
7765	61.2918
7760	73.6024
7755	81.5915
7750	80.0145
7745	77.619
7740	74.4978
7735	74.5929
7730	73.7183
7725	66.5008
7720	63.6553
7715	69.0229
7710	66.4058
7705	61.1823
7700	61.9763
7695	67.0892
7690	70.7864
7685	72.6089
7680	73.7399
7675	69.8658
7670	63.6662
7665	61.3544
7660	64.7908
7655	67.8663
7650	66.2799
7645	64.1744
7640	65.8334
7635	68.6179
7630	69.536
7625	72.5504
7620	70.1423
7615	63.7805
7610	62.4412
7605	63.2602
7600	65.5782
7595	69.1449
7590	69.675
7585	70.1626
7580	70.8371
7575	73.3152
7570	75.5946
7565	71.8451
7560	63.9888
7555	63.0252
7550	68.1557
7545	71.4874
7540	67.8004
7535	64.8777
7530	66.9314
7525	67.5375
7520	62.7843
7515	59.9232
7510	61.0527
7505	62.3349
7500	65.1496
7495	68.4525
7490	66.7759
7485	64.3662
7480	63.1936
7475	64.4594
7470	65.8571
7465	66.89
7460	65.7887
7455	65.1058
7450	67.1368
7445	65.9464
7440	64.3086
7435	63.9936
7430	63.5297
7425	67.9876
7420	70.9442
7415	67.9012
7410	66.2908
7405	64.5223
7400	61.6279
7395	61.8846
7390	64.2807
7385	65.7095
7380	65.7382
7375	63.4665
7370	64.6462
7365	66.505
7360	65.4498
7355	66.4285
7350	65.0437
7345	60.6466
7340	59.4193
7335	60.242
7330	61.6508
7325	63.9522
7320	64.8253
7315	65.1995
7310	64.4825
7305	63.5504
7300	64.3222
7295	64.2015
7290	65.3668
7285	64.6556
7280	65.2735
7275	66.7126
7270	64.6042
7265	62.9209
7260	63.4606
7255	63.2342
7250	65.4947
7245	66.3723
7240	64.6034
7235	63.7619
7230	64.4492
7225	66.8343
7220	67.1478
7215	64.2426
7210	63.7887
7205	64.3752
7200	62.9949
7195	63.0861
7190	64.2665
7185	66.207
7180	66.0828
7175	64.6226
7170	65.4001
7165	67.1895
7160	66.6937
7155	65.4261
7150	66.4332
7145	67.956
7140	65.6049
7135	63.1136
7130	63.6967
7125	63.7689
7120	63.0609
7115	64.3172
7110	63.5894
7105	62.2845
7100	64.1047
7095	64.9447
7090	64.28
7085	63.9159
7080	64.1104
7075	64.3259
7070	64.7625
7065	64.4226
7060	64.7865
7055	63.8895
7050	63.6582
7045	64.6708
7040	65.976
7035	67.8544
7030	67.4609
7025	63.9085
7020	64.5216
7015	66.6262
7010	65.88
7005	65.4534
7000	65.1266
6995	66.845
6990	66.7769
6985	64.9481
6980	63.6857
6975	63.6474
6970	65.9398
6965	67.8625
6960	67.8216
6955	66.6907
6950	64.5683
6945	62.8811
6940	63.3877
6935	64.7483
6930	64.9212
6925	64.5806
6920	63.2367
6915	62.9944
6910	64.5031
6905	65.1353
6900	65.3966
6895	63.7387
6890	64.2629
6885	64.7364
6880	64.9677
6875	66.0089
6870	66.119
6865	64.8419
6860	64.1042
6855	64.4802
6850	65.1006
6845	64.5231
6840	63.0567
6835	63.7108
6830	64.89
6825	64.5579
6820	65.406
6815	66.0681
6810	65.3763
6805	63.9663
6800	63.8668
6795	64.3618
6790	63.7422
6785	64.1703
6780	64.6274
6775	63.9237
6770	63.1132
6765	63.1622
6760	63.151
6755	63.1779
6750	63.9943
6745	64.8133
6740	64.0471
6735	63.2683
6730	62.241
6725	62.2975
6720	63.1382
6715	63.2594
6710	63.9935
6705	66.0881
6700	66.8592
6695	64.3814
6690	64.635
6685	66.6357
6680	65.3685
6675	63.2798
6670	62.2758
6665	63.593
6660	65.2209
6655	65.1587
6650	63.8614
6645	63.8911
6640	65.2295
6635	65.7229
6630	66.2792
6625	67.2299
6620	67.2683
6615	66.0627
6610	65.4129
6605	65.7726
6600	66.084
6595	65.7526
6590	63.3927
6585	62.3931
6580	63.2622
6575	63.6237
6570	64.5693
6565	65.3575
6560	65.2027
6555	65.0964
6550	65.697
6545	65.548
6540	64.2392
6535	63.8294
6530	63.9514
6525	63.9095
6520	64.6803
6515	65.3366
6510	65.3941
6505	66.0709
6500	66.2529
6495	66.0078
6490	65.7339
6485	64.4258
6480	63.6914
6475	63.0277
6470	63.2902
6465	65.0738
6460	64.7775
6455	64.2639
6450	64.2812
6445	64.4166
6440	64.9746
6435	64.2231
6430	63.7848
6425	64.6439
6420	64.4392
6415	63.2811
6410	63.2918
6405	64.6259
6400	65.0848
6395	65.1747
6390	65.1272
6385	64.8155
6380	64.1952
6375	63.9723
6370	64.8529
6365	65.4382
6360	65.6815
6355	66.1211
6350	66.0353
6345	65.5916
6340	65.124
6335	64.3615
6330	64.8762
6325	66.252
6320	66.423
6315	65.7354
6310	64.9399
6305	64.6954
6300	64.8385
6295	65.3162
6290	65.6372
6285	65.62
6280	65.336
6275	65.7446
6270	66.2198
6265	64.3222
6260	63.3751
6255	63.8473
6250	64.3774
6245	64.841
6240	65.3526
6235	65.5278
6230	65.1146
6225	64.8696
6220	64.6851
6215	65.0597
6210	64.8446
6205	64.5333
6200	65.4076
6195	65.7419
6190	64.8507
6185	63.9492
6180	63.6781
6175	64.6127
6170	64.7187
6165	64.7038
6160	65.0519
6155	64.9826
6150	65.0445
6145	65.0362
6140	64.9397
6135	64.834
6130	64.9163
6125	64.407
6120	64.681
6115	65.2361
6110	64.956
6105	65.0381
6100	64.8408
6095	64.6539
6090	64.7313
6085	64.45
6080	63.9637
6075	64.2708
6070	64.8623
6065	65.1219
6060	65.307
6055	65.6941
6050	64.9702
6045	64.1439
6040	64.556
6035	64.8473
6030	64.9727
6025	64.9154
6020	64.9277
6015	64.9426
6010	64.8477
6005	65.0527
6000	64.6033
5995	63.891
5990	64.0376
5985	64.6215
5980	64.2834
5975	63.7527
5970	64.6028
5965	65.1516
5960	64.6151
5955	64.8727
5950	64.8941
5945	64.6636
5940	64.7457
5935	64.7093
5930	64.987
5925	65.3783
5920	65.2152
5915	64.5238
5910	64.7201
5905	64.8649
5900	64.3934
5895	64.4425
5890	65.0875
5885	64.8512
5880	64.5824
5875	64.6338
5870	64.3355
5865	63.9011
5860	63.7259
5855	64.4615
5850	65.2886
5845	65.2772
5840	64.9751
5835	64.5784
5830	64.3332
5825	64.7586
5820	65.0525
5815	64.9084
5810	64.8492
5805	64.692
5800	64.6011
5795	65.0174
5790	65.0843
5785	64.4685
5780	64.2385
5775	64.9337
5770	65.5218
5765	65.4398
5760	65.0353
5755	65.0122
5750	65.5853
5745	65.7506
5740	65.072
5735	64.4442
5730	64.4282
5725	64.3574
5720	64.3839
5715	64.8554
5710	64.9961
5705	64.8339
5700	65.4265
5695	65.8179
5690	65.0346
5685	64.4921
5680	64.85
5675	65.2376
5670	65.2444
5665	65.0883
5660	64.9416
5655	64.852
5650	64.7736
5645	64.6798
5640	65.5454
5635	66.1773
5630	65.7525
5625	64.959
5620	64.6116
5615	64.2123
5610	64.0027
5605	64.7836
5600	65.8417
5595	65.8381
5590	65.4127
5585	64.7441
5580	64.4856
5575	65.1977
5570	65.2746
5565	64.5211
5560	64.0599
5555	64.7843
5550	65.0444
5545	64.7224
5540	65.0819
5535	65.1349
5530	64.7801
5525	64.6023
5520	64.6303
5515	64.9318
5510	65.1065
5505	64.588
5500	64.4112
5495	64.415
5490	64.5862
5485	65.3734
5480	65.5141
5475	64.6521
5470	64.3021
5465	64.1197
5460	64.43
5455	65.2378
5450	65.2397
5445	64.0689
5440	63.4088
5435	64.0397
5430	64.9321
5425	65.3308
5420	64.9952
5415	64.502
5410	64.1311
5405	63.9781
5400	64.1599
5395	65.2989
5390	65.8001
5385	65.2655
5380	65.233
5375	65.4355
5370	64.9177
5365	64.337
5360	64.3866
5355	64.954
5350	65.2318
5345	64.9174
5340	63.8025
5335	64.1142
5330	64.0915
5325	63.47
5320	63.9925
5315	65.8843
5310	66.4974
5305	64.2092
5300	61.317
5295	59.7117
5290	61.9214
5285	63.9457
5280	62.5848
5275	63.0419
5270	63.7625
5265	64.2042
5260	64.4837
5255	65.2672
5250	65.6185
5245	65.4772
5240	64.8543
5235	64.3559
5230	63.8778
5225	63.5238
5220	63.8027
5215	64.3609
5210	64.7237
5205	64.86
5200	64.7784
5195	64.2668
5190	63.7589
5185	64.3816
5180	64.9402
5175	64.6451
5170	64.1583
5165	64.0301
5160	64.352
5155	64.579
5150	64.3221
5145	64.3671
5140	64.5895
5135	64.5938
5130	64.5067
5125	64.4322
5120	64.4982
5115	64.6797
5110	64.6292
5105	64.4429
5100	64.4542
5095	64.7832
5090	64.948
5085	64.8755
5080	64.8181
5075	64.6464
5070	64.4889
5065	64.6387
5060	64.6175
5055	64.5556
5050	64.6401
5045	64.3633
5040	64.3112
5035	64.4925
5030	64.594
5025	64.4298
5020	64.7223
5015	65.1863
5010	64.9955
5005	64.745
5000	64.6994
4995	64.8207
4990	64.7086
4985	64.5187
4980	64.3405
4975	64.5414
4970	65.1981
4965	65.3003
4960	64.8558
4955	64.4089
4950	64.4036
4945	64.4629
4940	64.5957
4935	64.8184
4930	64.94
4925	64.7676
4920	64.7626
4915	64.8743
4910	64.5711
4905	64.1833
4900	64.1696
4895	64.2757
4890	64.4056
4885	64.3007
4880	64.1839
4875	64.3901
4870	64.4525
4865	64.1767
4860	64.2102
4855	64.4636
4850	64.7646
4845	64.8296
4840	64.8146
4835	64.8958
4830	64.7649
4825	64.6504
4820	64.682
4815	64.5672
4810	64.5685
4805	64.3986
4800	64.3448
4795	64.8255
4790	65.1638
4785	64.9202
4780	64.9739
4775	64.9708
4770	64.736
4765	64.7538
4760	64.8085
4755	64.697
4750	64.6017
4745	64.847
4740	64.8982
4735	64.8062
4730	64.8311
4725	64.8829
4720	64.7737
4715	64.5546
4710	64.4692
4705	64.4557
4700	64.4297
4695	64.602
4690	64.492
4685	64.211
4680	64.478
4675	64.7035
4670	64.606
4665	64.7165
4660	64.9065
4655	64.8492
4650	64.8526
4645	65.004
4640	64.7473
4635	64.7065
4630	64.6399
4625	64.581
4620	64.6499
4615	64.7406
4610	64.7335
4605	64.6256
4600	64.5583
4595	64.6341
4590	64.8723
4585	64.9577
4580	65.0307
4575	65.0838
4570	64.8562
4565	64.8495
4560	64.9078
4555	64.6966
4550	64.717
4545	64.7781
4540	64.8575
4535	64.672
4530	64.5451
4525	64.6728
4520	64.6793
4515	64.9626
4510	65.0114
4505	64.6187
4500	64.504
4495	64.6985
4490	64.6689
4485	64.5581
4480	64.777
4475	64.8083
4470	64.5554
4465	64.6113
4460	65.1378
4455	65.4325
4450	65.079
4445	64.6828
4440	64.9351
4435	64.9666
4430	64.6652
4425	65.0286
4420	64.7277
4415	64.1932
4410	64.5695
4405	65.2544
4400	65.0287
4395	65.0951
4390	66.3132
4385	51.1732
4380	50.1586
4375	63.5152
4370	67.6942
4365	65.4606
4360	65.3226
4355	65.7622
4350	65.7066
4345	65.4635
4340	65.0916
4335	64.4694
4330	64.3452
4325	64.6921
4320	64.7153
4315	64.6298
4310	65.1468
4305	65.4191
4300	65.2322
4295	64.6697
4290	64.3609
4285	64.7358
4280	64.8994
4275	64.8792
4270	65.0341
4265	65.0536
4260	64.796
4255	64.8001
4250	64.8432
4245	64.7118
4240	64.7875
4235	65.08
4230	65.1869
4225	64.9592
4220	64.6132
4215	64.5436
4210	64.7876
4205	64.96
4200	65.0627
4195	64.9634
4190	64.9966
4185	64.9633
4180	64.8983
4175	64.782
4170	64.5346
4165	64.7802
4160	65.0969
4155	65.1523
4150	65.1172
4145	64.9008
4140	64.6277
4135	64.4818
4130	64.6069
4125	64.8514
4120	64.8962
4115	64.9185
4110	65.1405
4105	65.1539
4100	65.1266
4095	65.1362
4090	64.9081
4085	64.6871
4080	64.5534
4075	64.7583
4070	64.9861
4065	65.0353
4060	65.0484
4055	64.9675
4050	65.0568
4045	65.1602
4040	65.0514
4035	64.9703
4030	64.911
4025	64.7216
4020	64.7881
4015	64.892
4010	64.7758
4005	64.8165
4000	64.9799
3995	64.9479
3990	64.9749
3985	64.8933
3980	64.7479
3975	64.8828
3970	64.9177
3965	65.0685
3960	65.2448
3955	65.2944
3950	65.2472
3945	65.0208
3940	64.8794
3935	64.8324
3930	64.8988
3925	64.952
3920	64.8046
3915	64.7063
3910	64.8015
3905	64.8825
3900	64.9266
3895	65.0076
3890	65.0579
3885	64.9248
3880	64.8459
3875	64.9345
3870	65.0178
3865	65.108
3860	65.1309
3855	65.0652
3850	65.0527
3845	65.0106
3840	64.8528
3835	64.6636
3830	64.7499
3825	64.929
3820	65.0932
3815	65.1655
3810	65.1855
3805	65.298
3800	65.1638
3795	65.1083
3790	65.0447
3785	64.866
3780	64.7861
3775	64.8323
3770	64.9226
3765	64.8661
3760	64.7689
3755	64.7606
3750	64.8213
3745	64.9958
3740	65.0259
3735	64.9648
3730	64.9931
3725	65.0594
3720	65.0604
3715	65.0333
3710	65.0726
3705	65.0404
3700	65.0487
3695	65.0846
3690	65.0819
3685	65.0866
3680	64.9594
3675	64.9418
3670	64.9772
3665	64.9258
3660	65.028
3655	65.1285
3650	65.1852
3645	65.116
3640	65.1048
3635	65.1027
3630	65.015
3625	64.9825
3620	64.9957
3615	64.9749
3610	64.9815
3605	64.956
3600	64.8251
3595	64.7537
3590	64.7736
3585	64.8068
3580	65.0017
3575	65.0902
3570	65.1124
3565	64.9486
3560	64.9081
3555	64.9802
3550	64.9463
3545	64.934
3540	64.9146
3535	64.8826
3530	64.9161
3525	64.9692
3520	64.9245
3515	64.8799
3510	64.8958
3505	64.8825
3500	64.7539
3495	64.7797
3490	65.0512
3485	65.1775
3480	64.7744
3475	64.6674
3470	64.9575
3465	65.1378
3460	65.2093
3455	65.1038
3450	65.0451
3445	65.0994
3440	65.0191
3435	65.0093
3430	65.1601
3425	65.2999
3420	65.2775
3415	65.0378
3410	64.9371
3405	64.9249
3400	65.0391
3395	65.0206
3390	64.8477
3385	65.003
3380	65.0782
3375	65.063
3370	65.1388
3365	65.1553
3360	65.0896
3355	65.0892
3350	65.12
3345	64.9723
3340	64.7763
3335	64.8159
3330	64.8938
3325	64.8426
3320	64.9863
3315	65.0935
3310	65.0071
3305	64.8531
3300	64.8293
3295	64.9747
3290	64.9432
3285	64.8831
3280	64.8426
3275	64.8644
3270	64.8874
3265	64.9682
3260	65.0218
3255	64.9723
3250	64.9626
3245	64.9598
3240	64.9518
3235	65.0153
3230	65.006
3225	64.9877
3220	65.0202
3215	64.9977
3210	64.9268
3205	64.805
3200	64.8673
3195	64.9701
3190	64.9656
3185	64.9758
3180	65.0134
3175	64.9821
3170	64.8301
3165	64.7858
3160	64.8633
3155	64.978
3150	65.021
3145	64.9135
3140	64.7942
3135	64.7206
3130	64.7292
3125	64.8275
3120	64.9002
3115	64.9473
3110	65.0163
3105	64.9727
3100	64.9796
3095	65.0374
3090	65.0168
3085	65.0228
3080	65.0049
3075	64.908
3070	64.9402
3065	65.0418
3060	64.943
3055	64.8449
3050	64.9139
3045	64.9894
3040	65.066
3035	64.9861
3030	64.9588
3025	64.9442
3020	64.9859
3015	65.0136
3010	65.0183
3005	65.0992
3000	65.0541
2995	64.9944
2990	64.9797
2985	64.9426
2980	64.9483
2975	64.8808
2970	64.8069
2965	64.7825
2960	64.839
2955	64.8202
2950	64.8478
2945	64.8413
2940	64.7349
2935	64.6755
2930	64.6929
2925	64.6493
2920	64.6482
2915	64.7317
2910	64.8117
2905	64.8179
2900	64.8356
2895	64.9058
2890	64.9399
2885	64.7964
2880	64.742
2875	64.8294
2870	64.8899
2865	64.9468
2860	64.94
2855	64.852
2850	64.8146
2845	64.8236
2840	64.8762
2835	64.8872
2830	64.9087
2825	65.0271
2820	65.0491
2815	64.9375
2810	65.0285
2805	65.1188
2800	65.0391
2795	64.96
2790	64.9708
2785	64.9524
2780	64.9632
2775	65.1052
2770	65.1134
2765	65.0383
2760	64.9883
2755	64.9927
2750	64.9902
2745	64.9905
2740	64.9652
2735	64.9468
2730	64.9664
2725	64.9833
2720	64.9444
2715	64.9833
2710	65.0195
2705	65.0012
2700	65.0676
2695	65.0645
2690	65.0293
2685	65.0541
2680	65.0785
2675	65.0024
2670	64.9192
2665	64.9692
2660	64.9597
2655	64.9627
2650	64.9817
2645	64.9801
2640	65.0217
2635	65.0441
2630	65.0578
2625	65.0279
2620	64.9406
2615	64.8421
2610	64.8415
2605	64.9693
2600	65.0994
2595	65.1207
2590	64.9937
2585	64.8669
2580	64.943
2575	65.0053
2570	65.0395
2565	65.1126
2560	65.1548
2555	65.154
2550	65.0889
2545	64.9543
2540	64.9002
2535	64.9566
2530	65.0267
2525	64.9939
2520	64.9588
2515	64.9801
2510	65.0259
2505	65.0722
2500	65.0946
2495	65.0779
2490	65.1028
2485	65.0857
2480	65.0462
2475	65.0762
2470	65.1376
2465	65.1879
2460	65.1829
2455	65.0981
2450	65.1088
2445	65.144
2440	65.1005
2435	65.12
2430	65.1153
2425	65.131
2420	65.1453
2415	65.1018
2410	65.0021
2405	64.9627
2400	64.9865
2395	64.999
2390	65.0583
2385	65.0361
2380	64.9163
2375	64.9794
2370	65.075
2365	65.0145
2360	64.9334
2355	64.9035
2350	64.9144
2345	64.997
2340	65.0868
2335	65.1826
2330	65.1577
2325	65.0738
2320	65.0397
2315	65.0355
2310	65.0635
2305	65.107
2300	65.1685
2295	65.138
2290	65.1142
2285	65.0893
2280	65.029
2275	64.9805
2270	65.0756
2265	65.1129
2260	65.0724
2255	65.1472
2250	65.1477
2245	65.0602
2240	65.0381
2235	65.0072
2230	64.9871
2225	64.9862
2220	64.9595
2215	64.9974
2210	65.0151
2205	65.0479
2200	65.0394
2195	64.9657
2190	64.9752
2185	65.001
2180	64.9585
2175	65.0368
2170	65.0748
2165	64.9616
2160	64.9279
2155	64.9664
2150	64.9591
2145	64.9696
2140	64.9876
2135	64.9486
2130	64.9432
2125	65.0128
2120	65.0241
2115	64.9721
2110	64.9654
2105	64.9948
2100	64.9831
2095	64.9429
2090	64.9585
2085	64.9388
2080	64.9652
2075	64.9966
2070	64.9549
2065	64.9288
2060	64.9208
2055	64.9652
2050	65.0018
2045	65.027
2040	65.0564
2035	65.0043
2030	64.9375
2025	64.9585
2020	64.997
2015	64.9919
2010	65.0242
2005	64.9937
2000	64.9731
1995	65.0109
1990	65.0199
1985	65.0416
1980	65.0671
1975	65.0692
1970	65.0916
1965	65.0011
1960	64.9451
1955	65.0505
1950	65.1049
1945	65.0624
1940	65.061
1935	65.0332
1930	65.0547
1925	65.0412
1920	65.0108
1915	65.0749
1910	65.1455
1905	65.0962
1900	65.0142
1895	65.0264
1890	65.0095
1885	64.9865
1880	64.978
1875	65.038
1870	65.0564
1865	65.0277
1860	65.0452
1855	65.0505
1850	65.0536
1845	65.0807
1840	65.1255
1835	65.142
1830	65.0247
1825	64.9205
1820	64.9452
1815	65.0255
1810	65.0643
1805	65.051
1800	65.053
1795	65.0107
1790	64.9609
1785	64.9937
1780	65.0206
1775	64.9922
1770	65.0178
1765	65.0268
1760	64.9693
1755	64.9431
1750	64.9379
1745	64.8762
1740	64.8372
1735	64.7789
1730	64.7285
1725	64.7913
1720	64.8547
1715	64.9357
1710	65.025
1705	65.0102
1700	64.9643
1695	64.9078
1690	64.8816
1685	64.9117
1680	64.9255
1675	64.8901
1670	64.8686
1665	64.9118
1660	64.9217
1655	64.8855
1650	64.8365
1645	64.7942
1640	64.8595
1635	64.8704
1630	64.8556
1625	64.8892
1620	64.8548
1615	64.8475
1610	64.8757
1605	64.8553
1600	64.8237
1595	64.7854
1590	64.8159
1585	64.7884
1580	64.7278
1575	64.726
1570	64.7472
1565	64.8148
1560	64.8508
1555	64.8253
1550	64.7661
1545	64.7069
1540	64.7436
1535	64.7746
1530	64.7324
1525	64.7551
1520	64.7916
1515	64.7494
1510	64.7449
1505	64.7374
1500	64.7355
1495	64.7424
1490	64.8351
1485	64.8799
1480	64.7554
1475	64.6507
1470	64.7162
1465	64.7218
1460	64.76
1455	64.8244
1450	64.7482
1445	64.6921
1440	64.7415
1435	64.7435
1430	64.7414
1425	64.7703
1420	64.6495
1415	64.6416
1410	64.6752
1405	64.7267
1400	64.6842
1395	64.6683
1390	64.7001
1385	64.6774
1380	64.6602
1375	64.6725
1370	64.7485
1365	64.7237
1360	64.6278
1355	64.6497
1350	64.7147
1345	64.7287
1340	64.6899
1335	64.6199
1330	64.6532
1325	64.7088
1320	64.6342
1315	64.5469
1310	64.6462
1305	64.8038
1300	64.8206
1295	64.7614
1290	64.7225
1285	64.7195
1280	64.7235
1275	64.692
1270	64.7242
1265	64.7361
1260	64.7258
1255	64.7088
1250	64.6181
1245	64.5729
1240	64.6432
1235	64.6753
1230	64.6714
1225	64.6789
1220	64.6229
1215	64.5526
1210	64.5187
1205	64.544
1200	64.5937
1195	64.5248
1190	64.4422
1185	64.528
1180	64.5959
1175	64.4917
1170	64.4276
1165	64.42
1160	64.3756
1155	64.4872
1150	64.5137
1145	64.4307
1140	64.3468
1135	64.3778
1130	64.5048
1125	64.4974
1120	64.4235
1115	64.3951
1110	64.5025
1105	64.5916
1100	64.5307
1095	64.4386
1090	64.4279
1085	64.3517
1080	64.2564
1075	64.3112
1070	64.3811
1065	64.3975
1060	64.3838
1055	64.3579
1050	64.3836
1045	64.2937
1040	64.2807
1035	64.2786
1030	64.1953
1025	64.2018
1020	64.3098
1015	64.3705
1010	64.3328
1005	64.3327
1000	64.3239
995	 64.2447
990	 64.3728
985	 64.3142
980	 64.1628
975	 64.221
970	 64.2855
965	 64.4355
960	 64.7415
955	 64.5941
950	 64.2364
945	 63.987
940	 64.2205
935	 63.8589
930	 63.6788
925	 64.2554
920	 64.0503
915	 63.6297
910	 63.5735
905	 63.7377
900	 63.8157
895	 64.066
890	 64.1374
885	 64.1002
880	 64.315
875	 64.1812
870	 63.701
865	 63.7759
860	 64.0523
855	 64.0017
850	 63.917
845	 63.7569
840	 63.7875
835	 63.7695
830	 63.6499
825	 63.7523
820	 63.7069
815	 63.7218
810	 63.7158
805	 63.5207
800	 63.4391
795	 63.549
790	 63.5929
785	 63.4674
780	 63.4998
775	 63.6049
770	 63.2945
765	 63.0605
760	 63.1568
755	 63.1188
750	 62.9905
745	 62.9394
740	 63.0646
735	 63.1545
730	 63.0059
725	 62.841
720	 62.8455
715	 62.9319
710	 62.7599
705	 62.6057
700	 62.3199
695	 62.0722
690	 62.1632
685	 62.3848
680	 62.5467
675	 62.4174
670	 62.2663
665	 62.2543
660	 62.3476
655	 62.404
650	 62.1135
645	 61.763
640	 61.8575
635	 62.2432
630	 62.1549
625	 61.8557
620	 61.9223
615	 62.0587
610	 62.0346
605	 62.0581
600	 61.852
595	 61.5494
590	 61.4865
585	 61.4672
580	 61.3672
575	 61.4112
570	 61.3341
565	 61.1957
560	 60.9482
555	 60.7187
550	 60.5984
545	 60.3458
540	 60.3202
535	 60.2966
530	 60.2387
525	 60.2915
520	 60.0768
515	 60.0351
510	 59.8797
505	 59.5612
500	 59.5736
495	 59.4434
490	 59.3445
485	 59.6532
480	 59.3339
475	 57.8959
470	 57.7666
465	 58.5977
460	 58.9926
455	 58.8802
450	 58.8036
445	 59.0698
440	 59.4095
435	 58.2392
430	 56.4893
425	 57.0589
420	 58.7266
415	 59.6531
410	 60.1451
405	 57.6803
400	 52.9358
395	 51.6276
390	 50.1934
385	 43.1495
380	 37.7282
375	 44.5865
370	 48.1382