File: Bakgrunnsmateriale/MATLAB/FTIR/ftir_data/subBb/Mapping_36/C-4040-8_t02.asc
PE IR       SPECTRUM    SPECTRUM    ASCII       PEDS        1.60
  -1
C-A522~1.ASC
17/05/02
10:59:27.00
17/05/02
10:59:53.00
tln
$C-4040-8_t0002$<tbV0>[7.5,-13.0,8.0,0.0,22,1,0]
27.028
64

2002,4.07
MIRTGS : RIGHTBACK : INTERNAL 2
MIR : ON : INTERNAL 2
OPTKBR

0.200000
8
8.000000
FILLER
RATIO
SPECTRUM
UNLOCKED 256

DOUBLE
64
COMBINED
1
0
0

0.002000
RATIO

1
0
TRUE
51149
0
LEFT NOT FITTED RIGHT NOT FITTED 0
NONE
NONE
15600
12
4.427000
51148
TRUE
1 0 8 72 0 0 0 0

15798

#HDR
-1
-1
#GR
µM
%T
2.38419e-05
0.0
1.282000
0.002000
12874
8
70.9828
12.3582
#DATA
1.282000	 64.4936
1.300000	 61.4143
1.318000	 63.8125
1.336000	 65.5459
1.354000	 62.9627
1.372000	 64.8935
1.390000	 63.6898
1.408000	 63.1669
1.426000	 62.3438
1.444000	 64.6992
1.462000	 61.4056
1.480000	 62.3963
1.498000	 63.2877
1.516000	 63.2599
1.534000	 63.7284
1.552000	 65.0788
1.570000	 63.5937
1.588000	 61.3654
1.606000	 64.0267
1.624000	 63.5598
1.642000	 63.2778
1.660000	 63.7699
1.678000	 63.1581
1.696000	 63.3784
1.714000	 63.74
1.732000	 63.8379
1.750000	 63.9379
1.768000	 64.0295
1.786000	 63.7649
1.804000	 64.1815
1.822000	 64.198
1.840000	 63.8666
1.858000	 63.8746
1.876000	 63.2696
1.894000	 63.8799
1.912000	 61.872
1.930000	 63.6654
1.948000	 62.6958
1.966000	 63.3017
1.984000	 63.5282
2.002000	 63.8374
2.020000	 63.3751
2.038000	 63.0421
2.056000	 63.026
2.074000	 63.2503
2.092000	 63.3011
2.110000	 63.1865
2.128000	 63.6074
2.146000	 63.0416
2.164000	 63.0013
2.182000	 62.9986
2.200000	 62.8389
2.218000	 62.5059
2.236000	 62.447
2.254000	 62.4826
2.272000	 67.1619
2.290000	 62.8162
2.308000	 62.6066
2.326000	 61.8789
2.344000	 62.5496
2.362000	 61.9797
2.380000	 62.0273
2.398000	 62.0553
2.416000	 61.8896
2.434000	 61.9971
2.452000	 62.0571
2.470000	 61.809
2.488000	 61.8046
2.506000	 61.7748
2.524000	 61.4854
2.542000	 61.435
2.560000	 61.2621
2.578000	 61.5761
2.596000	 61.1734
2.614000	 60.8621
2.632000	 61.0899
2.650000	 60.9322
2.668000	 60.9464
2.686000	 60.6915
2.704000	 60.5404
2.722000	 60.6078
2.740000	 60.4543
2.758000	 60.1099
2.776000	 60.3196
2.794000	 60.0263
2.812000	 59.8623
2.830000	 59.6814
2.848000	 59.483
2.866000	 59.3686
2.884000	 59.4436
2.902000	 59.0908
2.920000	 59.2462
2.938000	 59.0065
2.956000	 58.7949
2.974000	 58.6984
2.992000	 58.7372
3.010000	 58.2116
3.028000	 58.0969
3.046000	 58.1966
3.064000	 57.9352
3.082000	 57.7926
3.100000	 57.6079
3.118000	 57.4868
3.136000	 57.4571
3.154000	 57.2531
3.172000	 57.2797
3.190000	 56.8352
3.208000	 56.801
3.226000	 56.5692
3.244000	 56.5836
3.262000	 56.382
3.280000	 56.283
3.298000	 56.3201
3.316000	 55.9891
3.334000	 55.9133
3.352000	 55.7583
3.370000	 55.4703
3.388000	 55.2951
3.406000	 55.116
3.424000	 54.892
3.442000	 54.7937
3.460000	 54.7973
3.478000	 54.6191
3.496000	 54.4179
3.514000	 54.3808
3.532000	 54.2154
3.550000	 54.3574
3.568000	 54.2183
3.586000	 53.8878
3.604000	 53.8036
3.622000	 53.5975
3.640000	 53.4961
3.658000	 53.3137
3.676000	 53.2157
3.694000	 53.0896
3.712000	 52.7999
3.730000	 52.7445
3.748000	 52.5351
3.766000	 52.4578
3.784000	 52.3383
3.802000	 52.1242
3.820000	 52.2305
3.838000	 51.9935
3.856000	 51.8447
3.874000	 51.7434
3.892000	 51.5551
3.910000	 51.4479
3.928000	 51.3673
3.946000	 51.1729
3.964000	 51.004
3.982000	 50.9525
4.000000	 50.7256
4.018000	 50.6572
4.036000	 50.583
4.054000	 50.4463
4.072000	 50.2313
4.090000	 50.1296
4.108000	 49.9134
4.125999	 49.9207
4.144000	 49.8709
4.162000	 49.5757
4.180000	 49.5787
4.198000	 49.3352
4.216000	 49.2056
4.234000	 49.0749
4.252000	 48.976
4.270000	 48.8707
4.288000	 48.8125
4.306000	 48.7127
4.324000	 48.4696
4.342000	 48.3927
4.359999	 48.3747
4.378000	 48.2549
4.396000	 47.9499
4.414000	 47.9011
4.432000	 47.8702
4.450000	 47.7011
4.468000	 47.6377
4.486000	 47.535
4.504000	 47.3865
4.522000	 47.2942
4.540000	 47.1344
4.558000	 46.9868
4.576000	 46.9094
4.594000	 46.8322
4.612000	 46.6733
4.630000	 46.8169
4.648000	 46.6656
4.666000	 46.4251
4.684000	 46.1868
4.702000	 46.0992
4.720000	 46.0385
4.738000	 45.9392
4.756000	 45.8831
4.774000	 45.8251
4.792000	 45.7162
4.810000	 45.4619
4.828000	 45.4233
4.846000	 45.2442
4.864000	 45.3656
4.882000	 45.1248
4.900000	 44.9717
4.918000	 44.8748
4.936000	 44.7896
4.954000	 44.7366
4.972000	 44.6631
4.990000	 44.5337
5.008000	 44.5228
5.026000	 44.3291
5.044000	 44.2321
5.062000	 44.1368
5.080000	 44.1017
5.098000	 44.0154
5.116000	 43.8531
5.134000	 43.8805
5.152000	 43.8223
5.170000	 43.6255
5.188000	 43.5478
5.206000	 43.5008
5.224000	 43.4057
5.242000	 43.2518
5.260000	 43.0834
5.278000	 43.0873
5.296000	 43.1363
5.314000	 43.0005
5.332000	 42.8791
5.350000	 42.8146
5.368000	 42.7249
5.386000	 42.6305
5.404000	 42.5125
5.422000	 42.3833
5.440000	 42.2591
5.458000	 42.2871
5.476000	 42.3078
5.494000	 42.2099
5.512000	 42.069
5.530000	 42.0127
5.548000	 41.9967
5.566000	 41.8926
5.584000	 41.7516
5.602000	 41.6409
5.620000	 41.5516
5.638000	 41.5727
5.656000	 41.4597
5.674000	 41.3258
5.692000	 41.2514
5.710000	 41.1027
5.728000	 41.0681
5.746000	 41.0376
5.764000	 40.9015
5.782000	 40.7834
5.800000	 40.7269
5.818000	 40.7105
5.836000	 40.6267
5.854000	 40.5833
5.872000	 40.6258
5.890000	 40.5816
5.908000	 40.4545
5.926000	 40.4505
5.944000	 40.3906
5.962000	 40.2656
5.980000	 40.1189
5.998000	 40.0343
6.016000	 39.9815
6.034000	 39.9369
6.052000	 39.9297
6.070000	 39.9358
6.088000	 39.8552
6.106000	 39.6977
6.124000	 39.5499
6.142000	 39.4719
6.160000	 39.4558
6.178000	 39.3981
6.196000	 39.3285
6.214000	 39.2831
6.232000	 39.2419
6.250000	 39.1419
6.268000	 39.0158
6.286000	 38.9662
6.304000	 38.926
6.322000	 38.8697
6.340000	 38.7706
6.358000	 38.6696
6.376000	 38.6841
6.394000	 38.7558
6.412000	 38.72
6.430000	 38.5948
6.448000	 38.5051
6.466000	 38.4032
6.484000	 38.3166
6.502000	 38.3037
6.520000	 38.2242
6.538000	 38.1082
6.556000	 38.0979
6.574000	 38.1226
6.592000	 38.1005
6.610000	 38.0749
6.628000	 38.0425
6.646000	 37.9643
6.664000	 37.8538
6.682000	 37.7227
6.700000	 37.6245
6.718000	 37.5295
6.736000	 37.4162
6.754000	 37.3895
6.772000	 37.4379
6.790000	 37.4426
6.808000	 37.387
6.826000	 37.3457
6.844000	 37.3227
6.862000	 37.2442
6.880000	 37.1164
6.898000	 37.0521
6.916000	 37.0433
6.934000	 37.0365
6.952000	 37.0552
6.970000	 37.0324
6.988000	 36.9063
7.006000	 36.7618
7.024000	 36.6929
7.042000	 36.6841
7.060000	 36.6973
7.078000	 36.7081
7.096000	 36.6384
7.114000	 36.4872
7.132000	 36.3769
7.150000	 36.3383
7.168000	 36.3325
7.186000	 36.3619
7.204000	 36.3771
7.222000	 36.3227
7.240000	 36.2313
7.258000	 36.1491
7.276000	 36.0987
7.294000	 36.081
7.312000	 36.0615
7.330000	 36.0283
7.348000	 35.9889
7.366000	 35.9297
7.384000	 35.8639
7.402000	 35.8306
7.420000	 35.8263
7.438000	 35.8075
7.456000	 35.7542
7.474000	 35.6829
7.492000	 35.6103
7.510000	 35.5483
7.528000	 35.5074
7.546000	 35.4711
7.564000	 35.4206
7.582000	 35.3706
7.600000	 35.3368
7.618000	 35.3112
7.636000	 35.2823
7.654000	 35.2433
7.672000	 35.19
7.690000	 35.1331
7.708000	 35.0871
7.726000	 35.0529
7.744000	 35.0317
7.762000	 35.0105
7.780000	 34.9512
7.798000	 34.8563
7.816000	 34.7921
7.834000	 34.7878
7.852000	 34.7893
7.870000	 34.7452
7.888000	 34.6616
7.906000	 34.5702
7.924000	 34.5123
7.942000	 34.5159
7.960000	 34.5468
7.978000	 34.5479
7.996000	 34.516
8.013999	 34.4773
8.032000	 34.4312
8.050000	 34.3771
8.068000	 34.3383
8.086000	 34.3098
8.103999	 34.2449
8.122000	 34.1301
8.140000	 34.0211
8.158000	 33.9704
8.176000	 33.9712
8.193999	 33.9887
8.212000	 34.0047
8.230000	 34.0095
8.248000	 33.9874
8.266000	 33.9367
8.283999	 33.8789
8.302000	 33.8333
8.320000	 33.798
8.338000	 33.764
8.356000	 33.7281
8.374000	 33.6898
8.391999	 33.6479
8.410000	 33.6019
8.428000	 33.5551
8.446000	 33.5166
8.464000	 33.4972
8.481999	 33.4953
8.500000	 33.4875
8.518000	 33.4499
8.536000	 33.3833
8.554000	 33.306
8.571999	 33.236
8.590000	 33.1875
8.608000	 33.1745
8.626000	 33.1994
8.644000	 33.2404
8.661999	 33.2612
8.680000	 33.237
8.698000	 33.1717
8.716000	 33.0911
8.734000	 33.0213
8.751999	 32.9693
8.770000	 32.9253
8.788000	 32.8831
8.806000	 32.8506
8.824000	 32.8387
8.842000	 32.8406
8.859999	 32.8346
8.878000	 32.8071
8.896000	 32.7677
8.914000	 32.7371
8.932000	 32.7232
8.949999	 32.7139
8.968000	 32.6929
8.986000	 32.6576
9.004000	 32.6177
9.022000	 32.5802
9.039999	 32.5413
9.058000	 32.495
9.076000	 32.4481
9.094000	 32.4196
9.112000	 32.419
9.129999	 32.4317
9.148000	 32.4312
9.166000	 32.4025
9.184000	 32.3512
9.202000	 32.2922
9.219999	 32.2391
9.238000	 32.2034
9.256000	 32.1951
9.274000	 32.2105
9.292000	 32.2268
9.310000	 32.2162
9.327999	 32.1706
9.346000	 32.1057
9.364000	 32.0432
9.382000	 31.9925
9.400000	 31.9484
9.418000	 31.903
9.436000	 31.8541
9.454000	 31.8053
9.472000	 31.7637
9.490000	 31.7408
9.508000	 31.7467
9.526000	 31.78
9.544000	 31.82
9.561999	 31.8366
9.580000	 31.8102
9.598000	 31.7462
9.616000	 31.6695
9.634000	 31.6051
9.652000	 31.5598
9.670000	 31.5221
9.688000	 31.4773
9.706000	 31.4207
9.724000	 31.36
9.742000	 31.3079
9.760000	 31.2743
9.778000	 31.2623
9.795999	 31.2679
9.814000	 31.2817
9.832000	 31.2946
9.850000	 31.3021
9.868000	 31.3043
9.886000	 31.302
9.904000	 31.2904
9.922000	 31.2608
9.940000	 31.2093
9.958000	 31.1451
9.976000	 31.0876
9.994000	 31.0516
10.012	31.0373
10.03	31.0308
10.048	31.0156
10.066	30.9841
10.084	30.9387
10.102	30.8873
10.12	30.8367
10.138	30.7934
10.156	30.764
10.174	30.7533
10.192	30.7592
10.21	30.7711
10.228	30.777
10.246	30.7706
10.264	30.7552
10.282	30.7394
10.3	30.7278
10.318	30.7173
10.336	30.6968
10.354	30.6567
10.372	30.5953
10.39	30.5203
10.408	30.4435
10.426	30.3724
10.444	30.3058
10.462	30.2362
10.48	30.1562
10.498	30.0673
10.516	29.9829
10.534	29.9213
10.552	29.8971
10.57	29.9109
10.588	29.9495
10.606	29.9939
10.624	30.0296
10.642	30.0533
10.66	30.0722
10.678	30.0965
10.696	30.1295
10.714	30.1634
10.732	30.1808
10.75	30.1647
10.768	30.1035
10.786	29.9993
10.804	29.8678
10.822	29.7331
10.84	29.6206
10.858	29.5465
10.876	29.5148
10.894	29.5176
10.912	29.541
10.93	29.5709
10.948	29.5958
10.966	29.6056
10.984	29.5913
11.002	29.5455
11.02	29.467
11.038	29.3664
11.056	29.2646
11.074	29.1867
11.092	29.1491
11.11	29.1489
11.128	29.1663
11.146	29.1769
11.164	29.1628
11.182	29.1254
11.2	29.0845
11.218	29.0654
11.236	29.0869
11.254	29.1506
11.272	29.2394
11.29	29.3251
11.308	29.3829
11.326	29.3992
11.344	29.3767
11.362	29.3298
11.38	29.2756
11.398	29.2246
11.416	29.1757
11.434	29.1165
11.452	29.0305
11.47	28.9065
11.488	28.7461
11.506	28.5666
11.524	28.3963
11.542	28.2632
11.56	28.1873
11.578	28.1719
11.596	28.2045
11.614	28.2608
11.632	28.3168
11.65	28.3566
11.668	28.3744
11.686	28.3764
11.704	28.3734
11.722	28.3761
11.74	28.3907
11.758	28.4188
11.776	28.458
11.794	28.504
11.812	28.5532
11.83	28.6021
11.848	28.6468
11.866	28.684
11.884	28.7106
11.902	28.7236
11.92	28.7227
11.938	28.7085
11.956	28.6814
11.974	28.6405
11.992	28.5836
12.01	28.508
12.028	28.4119
12.046	28.2976
12.064	28.1742
12.082	28.0548
12.1	27.954
12.118	27.8836
12.136	27.8483
12.154	27.8436
12.172	27.8591
12.19	27.8822
12.208	27.903
12.226	27.9179
12.244	27.9305
12.262	27.9482
12.28	27.98
12.298	28.0327
12.316	28.1075
12.334	28.1983
12.352	28.2932
12.37	28.3756
12.388	28.4292
12.406	28.442
12.424	28.4086
12.442	28.3322
12.46	28.2212
12.478	28.0875
12.496	27.9431
12.514	27.7986
12.532	27.6611
12.55	27.536
12.568	27.4272
12.586	27.3374
12.604	27.2681
12.622	27.2188
12.64	27.187
12.658	27.1677
12.676	27.1542
12.694	27.1397
12.712	27.1192
12.73	27.0908
12.748	27.0559
12.766	27.0187
12.784	26.9848
12.802	26.9584
12.82	26.9417
12.838	26.9345
12.856	26.935
12.874	26.9397
12.892	26.9459
12.91	26.9528
12.928	26.9604
12.946	26.9702
12.964	26.983
12.982	26.9989
13	27.0167
13.018	27.0336
13.036	27.0459
13.054	27.0504
13.072	27.0454
13.09	27.0314
13.108	27.0105
13.126	26.9863
13.144	26.9622
13.162	26.9401
13.18	26.9196
13.198	26.8987
13.216	26.8735
13.234	26.8403
13.252	26.7961
13.27	26.7402
13.288	26.6739
13.306	26.6005
13.324	26.5246
13.342	26.4507
13.36	26.3829
13.378	26.3241
13.396	26.2757
13.414	26.2382
13.432	26.2109
13.45	26.1928
13.468	26.1821
13.486	26.1763
13.504	26.1723
13.522	26.1663
13.54	26.1542
13.558	26.1328
13.576	26.1003
13.594	26.0571
13.612	26.0058
13.63	25.9509
13.648	25.8976
13.666	25.8511
13.684	25.815
13.702	25.7906
13.72	25.7767
13.738	25.7701
13.756	25.7663
13.774	25.7607
13.792	25.7495
13.81	25.731
13.828	25.7051
13.846	25.6737
13.864	25.6394
13.882	25.6052
13.9	25.5736
13.918	25.5461
13.936	25.5234
13.954	25.5052
13.972	25.4905
13.99	25.478
14.008	25.4661
14.026	25.4531
14.044	25.437
14.062	25.4163
14.08	25.3898
14.098	25.3575
14.116	25.32
14.134	25.2791
14.152	25.2372
14.17	25.1976
14.188	25.1632
14.206	25.1365
14.224	25.119
14.242	25.1108
14.26	25.1101
14.278	25.1141
14.296	25.1196
14.314	25.1231
14.332	25.1219
14.35	25.1144
14.368	25.1003
14.386	25.0804
14.404	25.0562
14.422	25.0297
14.44	25.0022
14.458	24.9749
14.476	24.9481
14.494	24.9218
14.512	24.8952
14.53	24.8679
14.548	24.8392
14.566	24.8088
14.584	24.7766
14.602	24.7429
14.62	24.7082
14.638	24.6731
14.656	24.6387
14.674	24.6055
14.692	24.5743
14.71	24.5454
14.728	24.519
14.746	24.4951
14.764	24.4731
14.782	24.4525
14.8	24.4326
14.818	24.4127
14.836	24.392
14.854	24.37
14.872	24.3465
14.89	24.322
14.908	24.2971
14.926	24.2727
14.944	24.2501
14.962	24.2303
14.98	24.2138
14.998	24.2006
15.016	24.1901
15.034	24.1813
15.052	24.1723
15.07	24.1615
15.088	24.1477
15.106	24.1297
15.124	24.1069
15.142	24.0797
15.16	24.049
15.178	24.0161
15.196	23.9825
15.214	23.9503
15.232	23.921
15.25	23.8957
15.268	23.8751
15.286	23.8598
15.304	23.8492
15.322	23.8425
15.34	23.8387
15.358	23.8364
15.376	23.8335
15.394	23.8283
15.412	23.819
15.43	23.8042
15.448	23.7824
15.466	23.7528
15.484	23.7155
15.502	23.671
15.52	23.6209
15.538	23.5676
15.556	23.5136
15.574	23.4616
15.592	23.4149
15.61	23.3755
15.628	23.3444
15.646	23.3223
15.664	23.3081
15.682	23.3001
15.7	23.296
15.718	23.2929
15.736	23.2877
15.754	23.2786
15.772	23.2643
15.79	23.2442
15.808	23.2197
15.826	23.1921
15.844	23.1637
15.862	23.1374
15.88	23.1151
15.898	23.0982
15.916	23.0877
15.934	23.0829
15.952	23.0825
15.97	23.0848
15.988	23.0867
16.006	23.0861
16.024	23.0811
16.042	23.0702
16.06	23.053
16.078	23.0297
16.096	23.0014
16.114	22.97
16.132	22.937
16.15	22.9039
16.168	22.8727
16.186	22.8441
16.204	22.8187
16.222	22.7964
16.24	22.777
16.258	22.7598
16.276	22.7443
16.294	22.7307
16.312	22.7189
16.33	22.7095
16.348	22.7034
16.366	22.7012
16.384	22.7036
16.402	22.7108
16.42	22.7226
16.438	22.738
16.456	22.7549
16.474	22.7718
16.492	22.7859
16.51	22.7944
16.528	22.7959
16.546	22.7881
16.564	22.7705
16.582	22.7429
16.6	22.7059
16.618	22.6614
16.636	22.6107
16.654	22.5567
16.672	22.5015
16.69	22.4468
16.708	22.3953
16.726	22.348
16.744	22.3061
16.762	22.2702
16.78	22.2402
16.798	22.2161
16.816	22.1972
16.834	22.1831
16.852	22.1727
16.87	22.1652
16.888	22.16
16.906	22.1556
16.924	22.1513
16.942	22.1463
16.96	22.1391
16.978	22.1289
16.996	22.1142
17.014	22.0939
17.032	22.0673
17.05	22.0333
17.068	21.9917
17.086	21.9424
17.104	21.8861
17.122	21.8235
17.14	21.7564
17.158	21.6869
17.176	21.6166
17.194	21.549
17.212	21.4856
17.23	21.429
17.248	21.3814
17.266	21.3438
17.284	21.318
17.302	21.3038
17.32	21.3016
17.338	21.3097
17.356	21.3276
17.374	21.3523
17.392	21.382
17.41	21.4141
17.428	21.4452
17.446	21.4739
17.464	21.4963
17.482	21.5117
17.5	21.5179
17.518	21.5147
17.536	21.5016
17.554	21.4792
17.572	21.4482
17.59	21.4104
17.608	21.3673
17.626	21.3202
17.644	21.2717
17.662	21.2226
17.68	21.1755
17.698	21.1308
17.716	21.09
17.734	21.0536
17.752	21.022
17.77	20.9951
17.788	20.973
17.806	20.9553
17.824	20.9416
17.842	20.9311
17.86	20.9234
17.878	20.9179
17.896	20.9134
17.914	20.9096
17.932	20.9052
17.95	20.8998
17.968	20.892
17.986	20.8814
18.004	20.8669
18.022	20.8476
18.04	20.8232
18.058	20.7928
18.076	20.7563
18.094	20.7138
18.112	20.6655
18.13	20.6124
18.148	20.5552
18.166	20.4955
18.184	20.4346
18.202	20.3738
18.22	20.3152
18.238	20.2594
18.256	20.2083
18.274	20.1621
18.292	20.1217
18.31	20.0871
18.328	20.0581
18.346	20.0343
18.364	20.0147
18.382	19.9986
18.4	19.9849
18.418	19.9725
18.436	19.9607
18.454	19.9485
18.472	19.9357
18.49	19.9219
18.508	19.9071
18.526	19.8919
18.544	19.8763
18.562	19.8615
18.58	19.8475
18.598	19.8355
18.616	19.8257
18.634	19.8189
18.652	19.815
18.67	19.8143
18.688	19.8167
18.706	19.8216
18.724	19.8287
18.742	19.837
18.76	19.8458
18.778	19.8541
18.796	19.8611
18.814	19.8656
18.832	19.8668
18.85	19.864
18.868	19.8565
18.886	19.8435
18.904	19.8248
18.922	19.7998
18.94	19.7686
18.958	19.7306
18.976	19.6863
18.994	19.6355
19.012	19.5787
19.03	19.5162
19.048	19.449
19.066	19.3776
19.084	19.3032
19.102	19.227
19.12	19.1502
19.138	19.0743
19.156	19.0005
19.174	18.9306
19.192	18.8655
19.21	18.8071
19.228	18.7557
19.246	18.7129
19.264	18.6785
19.282	18.6534
19.3	18.6372
19.318	18.6296
19.336	18.6302
19.354	18.6374
19.372	18.651
19.39	18.6685
19.408	18.6899
19.426	18.7122
19.444	18.7355
19.462	18.7569
19.48	18.7765
19.498	18.7922
19.516	18.8037
19.534	18.8101
19.552	18.8109
19.57	18.8062
19.588	18.7957
19.606	18.78
19.624	18.7597
19.642	18.735
19.66	18.7073
19.678	18.6766
19.696	18.6445
19.714	18.6109
19.732	18.5771
19.75	18.5432
19.768	18.5098
19.786	18.4771
19.804	18.4451
19.822	18.414
19.84	18.3835
19.858	18.3536
19.876	18.3239
19.894	18.2941
19.912	18.2642
19.93	18.2338
19.948	18.2028
19.966	18.1713
19.984	18.1391
20.002	18.1065
20.02	18.0735
20.038	18.0404
20.056	18.0074
20.074	17.9745
20.092	17.9419
20.11	17.9097
20.128	17.8779
20.146	17.8467
20.164	17.8158
20.182	17.7853
20.2	17.7549
20.218	17.7245
20.236	17.6939
20.254	17.6627
20.272	17.631
20.29	17.5987
20.308	17.5657
20.326	17.5322
20.344	17.4984
20.362	17.4646
20.38	17.4311
20.398	17.3979
20.416	17.3659
20.434	17.3348
20.452	17.3055
20.47	17.2781
20.488	17.2529
20.506	17.23
20.524	17.2095
20.542	17.1908
20.56	17.1743
20.578	17.1587
20.596	17.1442
20.614	17.1299
20.632	17.1148
20.65	17.0989
20.668	17.0807
20.686	17.0603
20.704	17.0366
20.722	17.0092
20.74	16.9781
20.758	16.9426
20.776	16.9031
20.794	16.8599
20.812	16.8127
20.83	16.7628
20.848	16.7107
20.866	16.6564
20.884	16.602
20.902	16.5469
20.92	16.4929
20.938	16.4407
20.956	16.3904
20.974	16.3435
20.992	16.2997
21.01	16.26
21.028	16.2246
21.046	16.1937
21.064	16.1678
21.082	16.1467
21.1	16.1304
21.118	16.1191
21.136	16.1124
21.154	16.1102
21.172	16.1126
21.19	16.1189
21.208	16.1291
21.226	16.1431
21.244	16.1605
21.262	16.1812
21.28	16.2048
21.298	16.2313
21.316	16.2603
21.334	16.2916
21.352	16.3251
21.37	16.3603
21.388	16.3972
21.406	16.4354
21.424	16.4745
21.442	16.5145
21.46	16.5547
21.478	16.5952
21.496	16.6356
21.514	16.6752
21.532	16.7144
21.55	16.7525
21.568	16.789
21.586	16.824
21.604	16.857
21.622	16.888
21.64	16.9168
21.658	16.9431
21.676	16.967
21.694	16.9885
21.712	17.0076
21.73	17.0244
21.748	17.0395
21.766	17.0526
21.784	17.0646
21.802	17.0757
21.82	17.0859
21.838	17.0964
21.856	17.1072
21.874	17.1187
21.892	17.1317
21.91	17.1458
21.928	17.162
21.946	17.1807
21.964	17.2015
21.982	17.2246
22	17.25
22.018	17.2774
22.036	17.3064
22.054	17.3374
22.072	17.3687
22.09	17.3997
22.108	17.4306
22.126	17.459
22.144	17.4852
22.162	17.5083
22.18	17.5256
22.198	17.5381
22.216	17.544
22.234	17.5417
22.252	17.532
22.27	17.5133
22.288	17.4849
22.306	17.4473
22.324	17.4002
22.342	17.343
22.36	17.2768
22.378	17.2027
22.396	17.1198
22.414	17.0301
22.432	16.9357
22.45	16.8352
22.468	16.7324
22.486	16.6289
22.504	16.5237
22.522	16.4213
22.54	16.3225
22.558	16.2271
22.576	16.1392
22.594	16.0585
22.612	15.9856
22.63	15.9232
22.648	15.8707
22.666	15.8285
22.684	15.7979
22.702	15.7788
22.72	15.7705
22.738	15.7728
22.756	15.7862
22.774	15.8086
22.792	15.8392
22.81	15.8787
22.828	15.9238
22.846	15.9735
22.864	16.0285
22.882	16.0848
22.9	16.1417
22.918	16.1997
22.936	16.2548
22.954	16.3067
22.972	16.3555
22.99	16.3982
23.008	16.4347
23.026	16.4651
23.044	16.4875
23.062	16.5018
23.08	16.5083
23.098	16.506
23.116	16.4946
23.134	16.4748
23.152	16.4469
23.17	16.4103
23.188	16.366
23.206	16.3153
23.224	16.2576
23.242	16.1939
23.26	16.1262
23.278	16.0538
23.296	15.9776
23.314	15.8996
23.332	15.8191
23.35	15.7368
23.368	15.6548
23.386	15.5724
23.404	15.4901
23.422	15.4097
23.44	15.3307
23.458	15.2536
23.476	15.1794
23.494	15.1082
23.512	15.0398
23.53	14.9755
23.548	14.9151
23.566	14.8587
23.584	14.8067
23.602	14.7592
23.62	14.7161
23.638	14.6777
23.656	14.6442
23.674	14.6156
23.692	14.5912
23.71	14.571
23.728	14.5553
23.746	14.5428
23.764	14.5329
23.782	14.5264
23.8	14.5215
23.818	14.5169
23.836	14.5137
23.854	14.5103
23.872	14.5046
23.89	14.4977
23.908	14.4886
23.926	14.4751
23.944	14.4575
23.962	14.4358
23.98	14.4083
23.998	14.3747
24.016	14.3355
24.034	14.2897
24.052	14.2366
24.07	14.1768
24.088	14.1105
24.106	14.0378
24.124	13.9582
24.142	13.8729
24.16	13.7829
24.178	13.6871
24.196	13.5869
24.214	13.4847
24.232	13.3797
24.25	13.2724
24.268	13.1662
24.286	13.0621
24.304	12.9584
24.322	12.8592
24.34	12.7678
24.358	12.6816
24.376	12.603
24.394	12.5349
24.412	12.4761
24.43	12.4273
24.448	12.3914
24.466	12.3688
24.484	12.3586
24.502	12.3627
24.52	12.3826
24.538	12.4171
24.556	12.467
24.574	12.5334
24.592	12.6163
24.61	12.7152
24.628	12.8302
24.646	12.9616
24.664	13.1093
24.682	13.2718
24.7	13.4481
24.718	13.6394
24.736	13.8439
24.754	14.0592
24.772	14.2868
24.79	14.5258
24.808	14.772
24.826	15.0237
24.844	15.2843
24.862	15.5475
24.88	15.8073
24.898	16.0675
24.916	16.3258
24.934	16.5752
24.952	16.8139
24.97	17.0452
24.988	17.2638
25.006	17.4646
25.024	17.6504
25.042	17.82
25.06	17.9704
25.078	18.1
25.096	18.2107
25.114	18.3018
25.132	18.3725
25.15	18.4216
25.168	18.4516
25.186	18.4656
25.204	18.4629
25.222	18.4423
25.24	18.4102
25.258	18.3729
25.276	18.3256
25.294	18.2714
25.312	18.2171
25.33	18.1652
25.348	18.112
25.366	18.0617
25.384	18.0188
25.402	17.982
25.42	17.9509
25.438	17.9277
25.456	17.9142
25.474	17.9092
25.492	17.9125
25.51	17.9235
25.528	17.9445
25.546	17.9745
25.564	18.0082
25.582	18.0415
25.6	18.0794
25.618	18.1177
25.636	18.149
25.654	18.1702
25.672	18.1862
25.69	18.1919
25.708	18.1818
25.726	18.1557
25.744	18.1157
25.762	18.0608
25.78	17.9895
25.798	17.8996
25.816	17.7952
25.834	17.6819
25.852	17.5605
25.87	17.4256
25.888	17.2871
25.906	17.1558
25.924	17.0288
25.942	16.903
25.96	16.7918
25.978	16.708
25.996	16.6427
26.014	16.5987
26.032	16.5882
26.05	16.6208
26.068	16.6886
26.086	16.7941
26.104	16.9434
26.122	17.1404
26.14	17.382
26.158	17.6667
26.176	17.9932
26.194	18.3644
26.212	18.7807
26.23	19.2329
26.248	19.7118
26.266	20.2237
26.284	20.7678
26.302	21.331
26.32	21.9012
26.338	22.4892
26.356	23.0906
26.374	23.6898
26.392	24.2741
26.41	24.8549
26.428	25.4276
26.446	25.9812
26.464	26.5076
26.482	27.0139
26.5	27.4984
26.518	27.9568
26.536	28.3853
26.554	28.7847
26.572	29.1592
26.59	29.5132
26.608	29.8469
26.626	30.1545
26.644	30.4459
26.662	30.732
26.68	31.0149
26.698	31.285
26.716	31.5551
26.734	31.8391
26.752	32.1399
26.77	32.4473
26.788	32.7724
26.806	33.1274
26.824	33.5161
26.842	33.93
26.86	34.3747
26.878	34.8564
26.896	35.3787
26.914	35.9386
26.932	36.5327
26.95	37.1579
26.968	37.8622
26.986	38.6809
27.004	39.4659
27.022	40.064
27.028	40.1771