File: Bakgrunnsmateriale/MATLAB/FTIR/ftir_data/subBb/Mapping_36/C-4040-8_t10.asc
PE IR       SPECTRUM    SPECTRUM    ASCII       PEDS        1.60
  -1
C-A92A~1.ASC
17/05/02
11:37:33.00
17/05/02
11:37:59.00
tln
$C-4040-8_t0010$<tbV0>[-2.5,-8.0,8.0,0.0,22,1,0]
27.028
64

2002,4.07
MIRTGS : RIGHTBACK : INTERNAL 2
MIR : ON : INTERNAL 2
OPTKBR

0.200000
8
8.000000
FILLER
RATIO
SPECTRUM
UNLOCKED 256

DOUBLE
64
COMBINED
1
0
0

0.002000
RATIO

1
0
TRUE
51149
0
LEFT NOT FITTED RIGHT NOT FITTED 0
NONE
NONE
15600
12
4.427000
51148
TRUE
1 0 8 72 0 0 0 0

15798

#HDR
-1
-1
#GR
µM
%T
2.38419e-05
0.0
1.282000
0.002000
12874
8
75.094
32.563
#DATA
1.282000	 67.7793
1.300000	 57.4087
1.318000	 63.3259
1.336000	 63.2497
1.354000	 64.7642
1.372000	 63.627
1.390000	 64.8004
1.408000	 65.3508
1.426000	 65.1776
1.444000	 65.0156
1.462000	 63.4591
1.480000	 62.5644
1.498000	 62.9727
1.516000	 63.9069
1.534000	 66.0707
1.552000	 63.8948
1.570000	 64.6572
1.588000	 62.8647
1.606000	 65.252
1.624000	 64.1286
1.642000	 64.7602
1.660000	 64.5103
1.678000	 64.0043
1.696000	 63.964
1.714000	 65.2546
1.732000	 63.6592
1.750000	 64.2375
1.768000	 64.4113
1.786000	 64.1196
1.804000	 64.5291
1.822000	 64.4213
1.840000	 64.3098
1.858000	 64.057
1.876000	 64.7505
1.894000	 63.4047
1.912000	 61.7018
1.930000	 64.3826
1.948000	 64.1767
1.966000	 63.9881
1.984000	 64.1722
2.002000	 64.1663
2.020000	 64.0304
2.038000	 63.8572
2.056000	 63.9187
2.074000	 64.1641
2.092000	 64.1975
2.110000	 64.281
2.128000	 64.1849
2.146000	 64.342
2.164000	 63.6823
2.182000	 64.0221
2.200000	 63.8918
2.218000	 63.026
2.236000	 63.1912
2.254000	 63.6749
2.272000	 69.9726
2.290000	 63.1483
2.308000	 63.0638
2.326000	 63.0842
2.344000	 63.516
2.362000	 63.4413
2.380000	 63.6376
2.398000	 63.5926
2.416000	 63.3585
2.434000	 63.6055
2.452000	 63.8327
2.470000	 63.6972
2.488000	 63.5881
2.506000	 63.4699
2.524000	 63.4017
2.542000	 63.4468
2.560000	 63.365
2.578000	 63.4796
2.596000	 63.0925
2.614000	 63.2309
2.632000	 63.4378
2.650000	 63.0972
2.668000	 63.0863
2.686000	 62.9946
2.704000	 62.8391
2.722000	 63.0594
2.740000	 63.09
2.758000	 62.824
2.776000	 62.6936
2.794000	 62.6156
2.812000	 62.5514
2.830000	 62.4168
2.848000	 62.4144
2.866000	 62.5532
2.884000	 62.3409
2.902000	 62.2172
2.920000	 62.2704
2.938000	 62.1818
2.956000	 62.1281
2.974000	 62.0396
2.992000	 61.8315
3.010000	 61.8504
3.028000	 61.855
3.046000	 61.9193
3.064000	 61.6913
3.082000	 61.6409
3.100000	 61.5023
3.118000	 61.544
3.136000	 61.4279
3.154000	 61.4335
3.172000	 61.329
3.190000	 61.0077
3.208000	 61.0245
3.226000	 61.1858
3.244000	 61.0151
3.262000	 61.054
3.280000	 61.0266
3.298000	 61.047
3.316000	 60.8502
3.334000	 60.6959
3.352000	 60.6624
3.370000	 60.3646
3.388000	 60.3772
3.406000	 60.1945
3.424000	 60.0406
3.442000	 60.176
3.460000	 60.1226
3.478000	 59.9834
3.496000	 60.0464
3.514000	 59.9555
3.532000	 59.748
3.550000	 59.8638
3.568000	 59.8056
3.586000	 59.7363
3.604000	 59.6762
3.622000	 59.61
3.640000	 59.571
3.658000	 59.5335
3.676000	 59.4573
3.694000	 59.2894
3.712000	 59.2027
3.730000	 59.1338
3.748000	 59.1194
3.766000	 59.0995
3.784000	 58.8646
3.802000	 58.792
3.820000	 58.7842
3.838000	 58.8405
3.856000	 58.8553
3.874000	 58.6201
3.892000	 58.4625
3.910000	 58.4704
3.928000	 58.355
3.946000	 58.4245
3.964000	 58.3968
3.982000	 58.1828
4.000000	 58.2956
4.018000	 58.0488
4.036000	 58.0834
4.054000	 57.9483
4.072000	 57.9851
4.090000	 57.8205
4.108000	 57.7927
4.125999	 57.8112
4.144000	 57.5646
4.162000	 57.6404
4.180000	 57.4722
4.198000	 57.4455
4.216000	 57.3882
4.234000	 57.2952
4.252000	 57.2382
4.270000	 57.093
4.288000	 57.1798
4.306000	 57.0367
4.324000	 56.9645
4.342000	 56.9088
4.359999	 56.9819
4.378000	 56.7719
4.396000	 56.6312
4.414000	 56.7009
4.432000	 56.4993
4.450000	 56.5628
4.468000	 56.4689
4.486000	 56.4778
4.504000	 56.3112
4.522000	 56.3573
4.540000	 56.1668
4.558000	 56.1855
4.576000	 56.1474
4.594000	 56.0078
4.612000	 55.9702
4.630000	 55.9287
4.648000	 55.9849
4.666000	 55.7994
4.684000	 55.7529
4.702000	 55.7151
4.720000	 55.6177
4.738000	 55.6005
4.756000	 55.5759
4.774000	 55.4583
4.792000	 55.3817
4.810000	 55.2135
4.828000	 55.3259
4.846000	 55.2476
4.864000	 55.2462
4.882000	 55.1043
4.900000	 54.9928
4.918000	 54.9589
4.936000	 54.9058
4.954000	 54.8524
4.972000	 54.8057
4.990000	 54.7414
5.008000	 54.7537
5.026000	 54.688
5.044000	 54.5785
5.062000	 54.5271
5.080000	 54.4439
5.098000	 54.4733
5.116000	 54.3813
5.134000	 54.3073
5.152000	 54.2534
5.170000	 54.2464
5.188000	 54.2827
5.206000	 54.1889
5.224000	 54.0983
5.242000	 54.1526
5.260000	 54.1452
5.278000	 53.9834
5.296000	 53.9686
5.314000	 53.905
5.332000	 53.8482
5.350000	 53.809
5.368000	 53.7627
5.386000	 53.6827
5.404000	 53.5992
5.422000	 53.5545
5.440000	 53.515
5.458000	 53.5379
5.476000	 53.4685
5.494000	 53.3986
5.512000	 53.3753
5.530000	 53.3357
5.548000	 53.2425
5.566000	 53.2145
5.584000	 53.1708
5.602000	 53.0735
5.620000	 52.9957
5.638000	 52.9819
5.656000	 52.9884
5.674000	 52.9462
5.692000	 52.8779
5.710000	 52.8054
5.728000	 52.6923
5.746000	 52.6621
5.764000	 52.6066
5.782000	 52.4894
5.800000	 52.4245
5.818000	 52.5772
5.836000	 52.5834
5.854000	 52.426
5.872000	 52.4382
5.890000	 52.4048
5.908000	 52.3506
5.926000	 52.3544
5.944000	 52.2919
5.962000	 52.2221
5.980000	 52.1916
5.998000	 52.1521
6.016000	 52.1151
6.034000	 52.0423
6.052000	 51.9611
6.070000	 51.8903
6.088000	 51.8542
6.106000	 51.8003
6.124000	 51.6694
6.142000	 51.6519
6.160000	 51.7163
6.178000	 51.6536
6.196000	 51.604
6.214000	 51.5949
6.232000	 51.5232
6.250000	 51.4509
6.268000	 51.3974
6.286000	 51.3634
6.304000	 51.3152
6.322000	 51.3183
6.340000	 51.324
6.358000	 51.211
6.376000	 51.1272
6.394000	 51.2003
6.412000	 51.2564
6.430000	 51.1863
6.448000	 51.1175
6.466000	 51.1082
6.484000	 51.1367
6.502000	 51.0366
6.520000	 50.8873
6.538000	 50.845
6.556000	 50.8759
6.574000	 50.8873
6.592000	 50.8158
6.610000	 50.8008
6.628000	 50.8456
6.646000	 50.7921
6.664000	 50.7133
6.682000	 50.678
6.700000	 50.651
6.718000	 50.6059
6.736000	 50.5231
6.754000	 50.458
6.772000	 50.419
6.790000	 50.3862
6.808000	 50.3588
6.826000	 50.3446
6.844000	 50.3669
6.862000	 50.3856
6.880000	 50.3387
6.898000	 50.264
6.916000	 50.2288
6.934000	 50.2282
6.952000	 50.2235
6.970000	 50.1842
6.988000	 50.1273
7.006000	 50.0811
7.024000	 50.0426
7.042000	 50.0174
7.060000	 50.0053
7.078000	 49.979
7.096000	 49.923
7.114000	 49.8759
7.132000	 49.8603
7.150000	 49.8315
7.168000	 49.7935
7.186000	 49.7795
7.204000	 49.7587
7.222000	 49.7119
7.240000	 49.6661
7.258000	 49.664
7.276000	 49.691
7.294000	 49.6668
7.312000	 49.5962
7.330000	 49.5558
7.348000	 49.5407
7.366000	 49.4914
7.384000	 49.4097
7.402000	 49.3675
7.420000	 49.4007
7.438000	 49.4436
7.456000	 49.4312
7.474000	 49.3726
7.492000	 49.3041
7.510000	 49.2448
7.528000	 49.1774
7.546000	 49.0946
7.564000	 49.0395
7.582000	 49.0364
7.600000	 49.0498
7.618000	 49.055
7.636000	 49.058
7.654000	 49.0512
7.672000	 49.0221
7.690000	 48.9825
7.708000	 48.9415
7.726000	 48.8887
7.744000	 48.8298
7.762000	 48.7894
7.780000	 48.7696
7.798000	 48.755
7.816000	 48.7434
7.834000	 48.728
7.852000	 48.6817
7.870000	 48.5991
7.888000	 48.5217
7.906000	 48.4905
7.924000	 48.5012
7.942000	 48.5212
7.960000	 48.5265
7.978000	 48.5093
7.996000	 48.4713
8.013999	 48.4221
8.032000	 48.3819
8.050000	 48.3736
8.068000	 48.3965
8.086000	 48.4146
8.103999	 48.3906
8.122000	 48.3241
8.140000	 48.242
8.158000	 48.169
8.176000	 48.1219
8.193999	 48.1114
8.212000	 48.1307
8.230000	 48.1621
8.248000	 48.1941
8.266000	 48.2209
8.283999	 48.228
8.302000	 48.204
8.320000	 48.1635
8.338000	 48.1282
8.356000	 48.0917
8.374000	 48.0263
8.391999	 47.9294
8.410000	 47.843
8.428000	 47.8099
8.446000	 47.8219
8.464000	 47.8342
8.481999	 47.8201
8.500000	 47.7929
8.518000	 47.7758
8.536000	 47.7748
8.554000	 47.7855
8.571999	 47.7978
8.590000	 47.792
8.608000	 47.752
8.626000	 47.6846
8.644000	 47.6146
8.661999	 47.5637
8.680000	 47.5387
8.698000	 47.5306
8.716000	 47.5201
8.734000	 47.4866
8.751999	 47.4257
8.770000	 47.3576
8.788000	 47.3122
8.806000	 47.3016
8.824000	 47.3096
8.842000	 47.3119
8.859999	 47.3032
8.878000	 47.2997
8.896000	 47.3132
8.914000	 47.3305
8.932000	 47.3219
8.949999	 47.2763
8.968000	 47.2152
8.986000	 47.1664
9.004000	 47.1317
9.022000	 47.0935
9.039999	 47.0456
9.058000	 47.0027
9.076000	 46.9809
9.094000	 46.9794
9.112000	 46.984
9.129999	 46.9847
9.148000	 46.983
9.166000	 46.9862
9.184000	 46.9991
9.202000	 47.0146
9.219999	 47.0139
9.238000	 46.9824
9.256000	 46.9279
9.274000	 46.8737
9.292000	 46.8344
9.310000	 46.7995
9.327999	 46.7492
9.346000	 46.6804
9.364000	 46.6138
9.382000	 46.5732
9.400000	 46.5632
9.418000	 46.5722
9.436000	 46.5872
9.454000	 46.6035
9.472000	 46.6251
9.490000	 46.6578
9.508000	 46.7023
9.526000	 46.7491
9.544000	 46.7803
9.561999	 46.78
9.580000	 46.744
9.598000	 46.6829
9.616000	 46.6131
9.634000	 46.545
9.652000	 46.4784
9.670000	 46.4099
9.688000	 46.3428
9.706000	 46.2888
9.724000	 46.2622
9.742000	 46.2689
9.760000	 46.3027
9.778000	 46.3477
9.795999	 46.3863
9.814000	 46.4068
9.832000	 46.4067
9.850000	 46.3911
9.868000	 46.3661
9.886000	 46.3322
9.904000	 46.2842
9.922000	 46.2186
9.940000	 46.1424
9.958000	 46.0745
9.976000	 46.0356
9.994000	 46.0336
10.012	46.0579
10.03	46.0874
10.048	46.1048
10.066	46.1067
10.084	46.0993
10.102	46.0865
10.12	46.0631
10.138	46.0191
10.156	45.9514
10.174	45.8691
10.192	45.7893
10.21	45.7283
10.228	45.6946
10.246	45.6889
10.264	45.705
10.282	45.7324
10.3	45.7587
10.318	45.7719
10.336	45.7644
10.354	45.7367
10.372	45.6978
10.39	45.6613
10.408	45.6377
10.426	45.6297
10.444	45.6313
10.462	45.6332
10.48	45.6299
10.498	45.6225
10.516	45.6156
10.534	45.612
10.552	45.6056
10.57	45.5845
10.588	45.5386
10.606	45.4705
10.624	45.3969
10.642	45.345
10.66	45.3344
10.678	45.3674
10.696	45.423
10.714	45.4683
10.732	45.4742
10.75	45.4311
10.768	45.353
10.786	45.267
10.804	45.2017
10.822	45.1711
10.84	45.172
10.858	45.1879
10.876	45.1993
10.894	45.1925
10.912	45.1637
10.93	45.1172
10.948	45.0609
10.966	45.0018
10.984	44.9434
11.002	44.8862
11.02	44.8307
11.038	44.7782
11.056	44.73
11.074	44.6871
11.092	44.6475
11.11	44.6076
11.128	44.5627
11.146	44.511
11.164	44.4563
11.182	44.4051
11.2	44.3646
11.218	44.3375
11.236	44.3196
11.254	44.3009
11.272	44.2716
11.29	44.2289
11.308	44.1792
11.326	44.1391
11.344	44.1264
11.362	44.152
11.38	44.2114
11.398	44.2871
11.416	44.355
11.434	44.3989
11.452	44.4184
11.47	44.4291
11.488	44.4522
11.506	44.5047
11.524	44.5874
11.542	44.6825
11.56	44.7606
11.578	44.7918
11.596	44.7558
11.614	44.6497
11.632	44.4866
11.65	44.2902
11.668	44.0902
11.686	43.9141
11.704	43.7825
11.722	43.7064
11.74	43.6848
11.758	43.7055
11.776	43.7484
11.794	43.7921
11.812	43.8212
11.83	43.8297
11.848	43.8242
11.866	43.8188
11.884	43.8292
11.902	43.8669
11.92	43.9341
11.938	44.0241
11.956	44.1251
11.974	44.2231
11.992	44.3057
12.01	44.3626
12.028	44.3848
12.046	44.366
12.064	44.3048
12.082	44.2064
12.1	44.0843
12.118	43.9565
12.136	43.842
12.154	43.7552
12.172	43.703
12.19	43.6836
12.208	43.6881
12.226	43.7052
12.244	43.726
12.262	43.7447
12.28	43.7594
12.298	43.7712
12.316	43.7803
12.334	43.7866
12.352	43.7904
12.37	43.7935
12.388	43.7986
12.406	43.8091
12.424	43.826
12.442	43.8474
12.46	43.8683
12.478	43.8826
12.496	43.8847
12.514	43.8718
12.532	43.8445
12.55	43.8066
12.568	43.7633
12.586	43.72
12.604	43.6804
12.622	43.6458
12.64	43.615
12.658	43.5847
12.676	43.551
12.694	43.5107
12.712	43.4616
12.73	43.4033
12.748	43.3374
12.766	43.2677
12.784	43.1999
12.802	43.1403
12.82	43.0946
12.838	43.0663
12.856	43.0561
12.874	43.0614
12.892	43.078
12.91	43.1011
12.928	43.1266
12.946	43.1519
12.964	43.1756
12.982	43.1971
13	43.2155
13.018	43.2293
13.036	43.2372
13.054	43.238
13.072	43.2314
13.09	43.2189
13.108	43.2031
13.126	43.1874
13.144	43.1747
13.162	43.1658
13.18	43.1592
13.198	43.1513
13.216	43.1384
13.234	43.1171
13.252	43.087
13.27	43.051
13.288	43.0147
13.306	42.9847
13.324	42.9671
13.342	42.9654
13.36	42.9791
13.378	43.0043
13.396	43.0339
13.414	43.0597
13.432	43.0741
13.45	43.0714
13.468	43.0493
13.486	43.0086
13.504	42.9533
13.522	42.8893
13.54	42.8228
13.558	42.7593
13.576	42.7031
13.594	42.6571
13.612	42.6225
13.63	42.5994
13.648	42.5877
13.666	42.5873
13.684	42.5973
13.702	42.6167
13.72	42.6435
13.738	42.6749
13.756	42.707
13.774	42.7356
13.792	42.7565
13.81	42.7666
13.828	42.7643
13.846	42.7501
13.864	42.7265
13.882	42.6973
13.9	42.6671
13.918	42.6397
13.936	42.6179
13.954	42.6024
13.972	42.5923
13.99	42.5846
14.008	42.5759
14.026	42.5624
14.044	42.5412
14.062	42.5104
14.08	42.4696
14.098	42.4199
14.116	42.3629
14.134	42.3011
14.152	42.2372
14.17	42.174
14.188	42.1143
14.206	42.0607
14.224	42.0151
14.242	41.9795
14.26	41.9545
14.278	41.9399
14.296	41.9347
14.314	41.9369
14.332	41.9438
14.35	41.9522
14.368	41.9586
14.386	41.9597
14.404	41.953
14.422	41.9374
14.44	41.9124
14.458	41.8789
14.476	41.8386
14.494	41.7936
14.512	41.7464
14.53	41.6997
14.548	41.6554
14.566	41.6147
14.584	41.5781
14.602	41.5456
14.62	41.5166
14.638	41.4899
14.656	41.4645
14.674	41.4391
14.692	41.4131
14.71	41.3863
14.728	41.3588
14.746	41.3317
14.764	41.3062
14.782	41.2837
14.8	41.2653
14.818	41.2512
14.836	41.241
14.854	41.2334
14.872	41.2261
14.89	41.2165
14.908	41.2018
14.926	41.1796
14.944	41.148
14.962	41.1067
14.98	41.0571
14.998	41.0016
15.016	40.9438
15.034	40.888
15.052	40.8393
15.07	40.8016
15.088	40.7775
15.106	40.7687
15.124	40.7748
15.142	40.7936
15.16	40.8216
15.178	40.8551
15.196	40.8897
15.214	40.9209
15.232	40.9458
15.25	40.9627
15.268	40.9711
15.286	40.9715
15.304	40.9662
15.322	40.9579
15.34	40.949
15.358	40.9421
15.376	40.9396
15.394	40.942
15.412	40.9491
15.43	40.96
15.448	40.9722
15.466	40.983
15.484	40.99
15.502	40.9909
15.52	40.9837
15.538	40.968
15.556	40.9443
15.574	40.9137
15.592	40.8784
15.61	40.8407
15.628	40.8028
15.646	40.7664
15.664	40.7332
15.682	40.7036
15.7	40.6771
15.718	40.6529
15.736	40.6291
15.754	40.6041
15.772	40.5763
15.79	40.5441
15.808	40.5065
15.826	40.4632
15.844	40.4143
15.862	40.3609
15.88	40.3043
15.898	40.246
15.916	40.1881
15.934	40.1325
15.952	40.0807
15.97	40.0341
15.988	39.9938
16.006	39.9603
16.024	39.9338
16.042	39.9141
16.06	39.9
16.078	39.8909
16.096	39.8853
16.114	39.8817
16.132	39.8787
16.15	39.8747
16.168	39.8684
16.186	39.8593
16.204	39.8469
16.222	39.8317
16.24	39.8147
16.258	39.7967
16.276	39.78
16.294	39.7665
16.312	39.7577
16.33	39.7558
16.348	39.762
16.366	39.7766
16.384	39.7997
16.402	39.83
16.42	39.866
16.438	39.9052
16.456	39.9444
16.474	39.9815
16.492	40.0131
16.51	40.037
16.528	40.0521
16.546	40.0572
16.564	40.053
16.582	40.0398
16.6	40.02
16.618	39.9959
16.636	39.9692
16.654	39.9433
16.672	39.9198
16.69	39.9
16.708	39.8854
16.726	39.8755
16.744	39.8701
16.762	39.8676
16.78	39.8666
16.798	39.865
16.816	39.8599
16.834	39.8501
16.852	39.8328
16.87	39.8073
16.888	39.7728
16.906	39.7293
16.924	39.6779
16.942	39.6193
16.96	39.5563
16.978	39.4906
16.996	39.4251
17.014	39.3627
17.032	39.3047
17.05	39.2539
17.068	39.2111
17.086	39.1771
17.104	39.1518
17.122	39.1347
17.14	39.1247
17.158	39.12
17.176	39.1197
17.194	39.1208
17.212	39.1223
17.23	39.1222
17.248	39.1188
17.266	39.1114
17.284	39.0985
17.302	39.0799
17.32	39.055
17.338	39.0238
17.356	38.9863
17.374	38.9427
17.392	38.8935
17.41	38.8394
17.428	38.7811
17.446	38.719
17.464	38.6545
17.482	38.5883
17.5	38.5217
17.518	38.4561
17.536	38.3926
17.554	38.3333
17.572	38.2786
17.59	38.2308
17.608	38.1906
17.626	38.1591
17.644	38.1373
17.662	38.1255
17.68	38.124
17.698	38.1325
17.716	38.1507
17.734	38.1775
17.752	38.2124
17.77	38.2532
17.788	38.2996
17.806	38.3489
17.824	38.4003
17.842	38.4518
17.86	38.5019
17.878	38.5494
17.896	38.5925
17.914	38.6307
17.932	38.6625
17.95	38.6878
17.968	38.7056
17.986	38.716
18.004	38.7186
18.022	38.7138
18.04	38.7017
18.058	38.6832
18.076	38.6585
18.094	38.6292
18.112	38.5954
18.13	38.5585
18.148	38.5193
18.166	38.479
18.184	38.4382
18.202	38.3979
18.22	38.3586
18.238	38.3207
18.256	38.2845
18.274	38.2498
18.292	38.2166
18.31	38.1846
18.328	38.1531
18.346	38.1219
18.364	38.0902
18.382	38.0576
18.4	38.0237
18.418	37.9881
18.436	37.9504
18.454	37.9108
18.472	37.8692
18.49	37.8264
18.508	37.7823
18.526	37.7383
18.544	37.6945
18.562	37.6524
18.58	37.6121
18.598	37.575
18.616	37.5413
18.634	37.512
18.652	37.4873
18.67	37.4676
18.688	37.4528
18.706	37.4428
18.724	37.4371
18.742	37.4353
18.76	37.4368
18.778	37.4407
18.796	37.4465
18.814	37.453
18.832	37.4596
18.85	37.4653
18.868	37.4693
18.886	37.471
18.904	37.4698
18.922	37.4653
18.94	37.4574
18.958	37.4456
18.976	37.4302
18.994	37.4111
19.012	37.389
19.03	37.3642
19.048	37.3379
19.066	37.3106
19.084	37.2835
19.102	37.2577
19.12	37.234
19.138	37.2137
19.156	37.1971
19.174	37.1852
19.192	37.1778
19.21	37.1753
19.228	37.1769
19.246	37.1824
19.264	37.1909
19.282	37.2008
19.3	37.2116
19.318	37.2208
19.336	37.2281
19.354	37.2307
19.372	37.2286
19.39	37.2194
19.408	37.2034
19.426	37.1793
19.444	37.147
19.462	37.1068
19.48	37.0585
19.498	37.0036
19.516	36.9418
19.534	36.8755
19.552	36.805
19.57	36.7323
19.588	36.6584
19.606	36.5847
19.624	36.5129
19.642	36.4432
19.66	36.3776
19.678	36.316
19.696	36.2595
19.714	36.2081
19.732	36.1622
19.75	36.1218
19.768	36.0866
19.786	36.0567
19.804	36.0314
19.822	36.0105
19.84	35.9934
19.858	35.9798
19.876	35.9692
19.894	35.9606
19.912	35.9541
19.93	35.9484
19.948	35.9436
19.966	35.9384
19.984	35.9328
20.002	35.9257
20.02	35.9169
20.038	35.9059
20.056	35.8924
20.074	35.8764
20.092	35.8578
20.11	35.8367
20.128	35.8138
20.146	35.7888
20.164	35.7629
20.182	35.7363
20.2	35.7098
20.218	35.6844
20.236	35.6602
20.254	35.6387
20.272	35.6197
20.29	35.6042
20.308	35.5923
20.326	35.5841
20.344	35.5799
20.362	35.5793
20.38	35.5822
20.398	35.5885
20.416	35.5971
20.434	35.6082
20.452	35.6207
20.47	35.6344
20.488	35.6487
20.506	35.6627
20.524	35.6764
20.542	35.6887
20.56	35.6998
20.578	35.7088
20.596	35.7156
20.614	35.72
20.632	35.7215
20.65	35.7203
20.668	35.7163
20.686	35.7095
20.704	35.7
20.722	35.6878
20.74	35.6731
20.758	35.6563
20.776	35.6373
20.794	35.6167
20.812	35.5944
20.83	35.5711
20.848	35.5471
20.866	35.5225
20.884	35.4981
20.902	35.4739
20.92	35.4505
20.938	35.4283
20.956	35.4075
20.974	35.3888
20.992	35.3722
21.01	35.3581
21.028	35.3466
21.046	35.3377
21.064	35.3316
21.082	35.3281
21.1	35.3266
21.118	35.3273
21.136	35.3295
21.154	35.3324
21.172	35.3361
21.19	35.3389
21.208	35.341
21.226	35.3411
21.244	35.338
21.262	35.332
21.28	35.3213
21.298	35.3059
21.316	35.2853
21.334	35.2587
21.352	35.2264
21.37	35.1881
21.388	35.1435
21.406	35.0934
21.424	35.0383
21.442	34.9781
21.46	34.9146
21.478	34.8479
21.496	34.7789
21.514	34.7103
21.532	34.641
21.55	34.5741
21.568	34.5107
21.586	34.4508
21.604	34.3978
21.622	34.3509
21.64	34.3117
21.658	34.2818
21.676	34.2605
21.694	34.2489
21.712	34.2472
21.73	34.255
21.748	34.272
21.766	34.2986
21.784	34.3328
21.802	34.374
21.82	34.4222
21.838	34.4737
21.856	34.5296
21.874	34.5875
21.892	34.6442
21.91	34.7011
21.928	34.7547
21.946	34.8034
21.964	34.8479
21.982	34.8847
22	34.9143
22.018	34.9359
22.036	34.948
22.054	34.951
22.072	34.9448
22.09	34.9291
22.108	34.9042
22.126	34.8713
22.144	34.8301
22.162	34.7815
22.18	34.7277
22.198	34.6678
22.216	34.6039
22.234	34.5379
22.252	34.4687
22.27	34.3992
22.288	34.3304
22.306	34.2619
22.324	34.1963
22.342	34.1334
22.36	34.0737
22.378	34.0191
22.396	33.969
22.414	33.9242
22.432	33.8856
22.45	33.8526
22.468	33.826
22.486	33.8061
22.504	33.7926
22.522	33.7857
22.54	33.7855
22.558	33.7918
22.576	33.8043
22.594	33.8234
22.612	33.8485
22.63	33.8791
22.648	33.9154
22.666	33.9567
22.684	34.0019
22.702	34.0517
22.72	34.1043
22.738	34.1585
22.756	34.2152
22.774	34.272
22.792	34.3276
22.81	34.383
22.828	34.4351
22.846	34.483
22.864	34.5274
22.882	34.5649
22.9	34.595
22.918	34.6181
22.936	34.6313
22.954	34.6344
22.972	34.6276
22.99	34.6096
23.008	34.58
23.026	34.5392
23.044	34.4877
23.062	34.4247
23.08	34.3513
23.098	34.2693
23.116	34.1777
23.134	34.0781
23.152	33.9737
23.17	33.863
23.188	33.7481
23.206	33.6335
23.224	33.5176
23.242	33.4022
23.26	33.2919
23.278	33.1854
23.296	33.0839
23.314	32.9907
23.332	32.9052
23.35	32.8276
23.368	32.7601
23.386	32.7024
23.404	32.6543
23.422	32.6165
23.44	32.5894
23.458	32.5722
23.476	32.5638
23.494	32.5648
23.512	32.5744
23.53	32.5896
23.548	32.6106
23.566	32.6372
23.584	32.6664
23.602	32.6975
23.62	32.7313
23.638	32.7655
23.656	32.7994
23.674	32.8337
23.692	32.8667
23.71	32.8974
23.728	32.9268
23.746	32.9535
23.764	32.9767
23.782	32.9971
23.8	33.0141
23.818	33.0272
23.836	33.0368
23.854	33.0427
23.872	33.0447
23.89	33.0428
23.908	33.0373
23.926	33.0289
23.944	33.0171
23.962	33.0024
23.98	32.986
23.998	32.9678
24.016	32.9476
24.034	32.9269
24.052	32.9061
24.07	32.8846
24.088	32.8637
24.106	32.8445
24.124	32.8263
24.142	32.8097
24.16	32.7957
24.178	32.7839
24.196	32.7747
24.214	32.7688
24.232	32.7658
24.25	32.766
24.268	32.7707
24.286	32.7804
24.304	32.7944
24.322	32.8139
24.34	32.8401
24.358	32.8723
24.376	32.9107
24.394	32.9556
24.412	33.007
24.43	33.0647
24.448	33.1284
24.466	33.1985
24.484	33.2748
24.502	33.3561
24.52	33.4413
24.538	33.5315
24.556	33.6254
24.574	33.7216
24.592	33.8205
24.61	33.9221
24.628	34.0251
24.646	34.1292
24.664	34.2347
24.682	34.3416
24.7	34.4499
24.718	34.5601
24.736	34.671
24.754	34.7813
24.772	34.8903
24.79	34.9989
24.808	35.108
24.826	35.2178
24.844	35.3277
24.862	35.439
24.88	35.5528
24.898	35.6669
24.916	35.7835
24.934	35.9075
24.952	36.039
24.97	36.1756
24.988	36.3246
25.006	36.4927
25.024	36.6748
25.042	36.8744
25.06	37.0989
25.078	37.3506
25.096	37.6258
25.114	37.9282
25.132	38.2612
25.15	38.6235
25.168	39.0145
25.186	39.4343
25.204	39.8838
25.222	40.3629
25.24	40.8685
25.258	41.3983
25.276	41.9578
25.294	42.5407
25.312	43.1367
25.33	43.7441
25.348	44.3701
25.366	44.999
25.384	45.6147
25.402	46.2272
25.42	46.8325
25.438	47.4127
25.456	47.9574
25.474	48.4794
25.492	48.9674
25.51	49.407
25.528	49.8002
25.546	50.1509
25.564	50.4469
25.582	50.6776
25.6	50.8492
25.618	50.9608
25.636	51.0071
25.654	50.9846
25.672	50.896
25.69	50.7434
25.708	50.5285
25.726	50.2463
25.744	49.9001
25.762	49.5015
25.78	49.059
25.798	48.5556
25.816	48.009
25.834	47.4467
25.852	46.8791
25.87	46.2831
25.888	45.6891
25.906	45.1306
25.924	44.6
25.942	44.0867
25.96	43.6304
25.978	43.2683
25.996	42.9803
26.014	42.7687
26.032	42.6593
26.05	42.6741
26.068	42.8015
26.086	43.0374
26.104	43.3815
26.122	43.8404
26.14	44.4203
26.158	45.096
26.176	45.8403
26.194	46.664
26.212	47.5802
26.23	48.5344
26.248	49.4721
26.266	50.4205
26.284	51.3831
26.302	52.3004
26.32	53.1166
26.338	53.8689
26.356	54.55
26.374	55.1142
26.392	55.522
26.41	55.8
26.428	55.9456
26.446	55.942
26.464	55.7724
26.482	55.436
26.5	54.9527
26.518	54.3437
26.536	53.6146
26.554	52.7358
26.572	51.7493
26.59	50.7046
26.608	49.6185
26.626	48.4451
26.644	47.2366
26.662	46.0517
26.68	44.9062
26.698	43.7518
26.716	42.6426
26.734	41.6375
26.752	40.7574
26.77	39.9616
26.788	39.2758
26.806	38.7278
26.824	38.3244
26.842	38.0447
26.86	37.9071
26.878	37.9313
26.896	38.1232
26.914	38.4683
26.932	38.9752
26.95	39.6534
26.968	40.6163
26.986	41.9306
27.004	43.271
27.022	44.3023
27.028	44.4899