File: Bakgrunnsmateriale/MATLAB/FTIR/ftir_data/subBb/Mapping_36/C-4040-8_t27_cm-1.asc
PE IR       SPECTRUM    SPECTRUM    ASCII       PEDS        1.60
  -1
C-9AEF~1.ASC
17/05/02
13:11:19.00
17/05/02
13:11:19.00
tln
$C-4040-8_t0027$<tbV0>[2.5,7.0,8.0,0.0,22,1,0]
370
64

2002,4.07
MIRTGS : RIGHTBACK : INTERNAL 2
MIR : ON : INTERNAL 2
OPTKBR

0.200000
8
8.000000
FILLER
RATIO
SPECTRUM
UNLOCKED 256

DOUBLE
64
COMBINED
1
0
0

1.000000
RATIO

1
0
TRUE
51149
0
LEFT NOT FITTED RIGHT NOT FITTED 0
NONE
NONE
15600
12
4.427000
51148
TRUE
1 0 8 72 0 0 0 0

15798

#HDR
-1
-1
#GR
CM-1
%T
2.38419e-05
0.0
7800
-1.000000
7431
8
87.6974
36.4154
#DATA
7800	87.236
7795	79.4037
7790	63.2009
7785	62.7317
7780	64.9444
7775	63.6271
7770	65.6832
7765	65.1769
7760	62.1959
7755	68.6951
7750	72.4441
7745	66.944
7740	65.9334
7735	71.066
7730	71.0886
7725	64.6379
7720	64.2108
7715	67.3141
7710	64.9634
7705	67.978
7700	70.7599
7695	70.6137
7690	67.3989
7685	67.6955
7680	72.5343
7675	77.657
7670	77.52
7665	71.527
7660	69.3093
7655	71.5663
7650	73.1232
7645	71.2045
7640	67.5292
7635	66.4189
7630	65.6799
7625	65.4519
7620	64.8433
7615	66.6084
7610	68.2439
7605	66.363
7600	66.1311
7595	69.1756
7590	71.4672
7585	64.858
7580	62.3418
7575	70.5077
7570	76.4961
7565	70.7882
7560	65.6225
7555	67.4696
7550	70.1603
7545	66.9284
7540	62.9628
7535	65.5411
7530	67.0995
7525	66.518
7520	63.5377
7515	63.5737
7510	65.3054
7505	63.5757
7500	61.6242
7495	61.6204
7490	66.0373
7485	67.5961
7480	64.5838
7475	65.0243
7470	66.474
7465	68.5014
7460	68.1422
7455	65.6498
7450	66.1931
7445	66.8317
7440	64.71
7435	65.7881
7430	67.3947
7425	67.8012
7420	68.0347
7415	67.7177
7410	66.4599
7405	64.4737
7400	64.7328
7395	64.5314
7390	64.1853
7385	66.6534
7380	65.8357
7375	63.2544
7370	63.0897
7365	63.7692
7360	65.6807
7355	67.9639
7350	66.8509
7345	63.6864
7340	60.1157
7335	59.1871
7330	62.7156
7325	66.4844
7320	65.4141
7315	63.9376
7310	64.6492
7305	64.1062
7300	62.1534
7295	62.4896
7290	66.1278
7285	70.1092
7280	68.8983
7275	66.4953
7270	64.6771
7265	63.7947
7260	64.1261
7255	62.3878
7250	62.6863
7245	64.3392
7240	64.4097
7235	65.5371
7230	68.0375
7225	69.5188
7220	66.4095
7215	63.4418
7210	63.1643
7205	64.7833
7200	66.5507
7195	64.7721
7190	63.8279
7185	65.6242
7180	64.1838
7175	62.6615
7170	64.1556
7165	66.243
7160	66.1953
7155	65.7331
7150	66.0203
7145	64.7285
7140	64.0677
7135	64.1608
7130	63.8885
7125	64.4122
7120	63.2987
7115	63.36
7110	62.441
7105	61.9543
7100	63.1462
7095	64.2076
7090	64.253
7085	64.091
7080	65.6282
7075	67.081
7070	66.1389
7065	63.5789
7060	63.705
7055	64.2336
7050	62.7491
7045	62.6029
7040	61.6143
7035	61.589
7030	64.2199
7025	64.3293
7020	63.4728
7015	66.7852
7010	65.8138
7005	64.1473
7000	65.6118
6995	67.1949
6990	67.0204
6985	64.56
6980	63.6384
6975	63.543
6970	64.8397
6965	66.8022
6960	67.282
6955	65.9381
6950	64.4418
6945	64.3247
6940	64.0805
6935	64.857
6930	65.4456
6925	64.7352
6920	64.2194
6915	63.9957
6910	64.1119
6905	65.0531
6900	65.1838
6895	63.8249
6890	63.3317
6885	63.6046
6880	64.8605
6875	65.5503
6870	64.4314
6865	64.0673
6860	65.1535
6855	65.8839
6850	65.8612
6845	64.4285
6840	63.7649
6835	65.5359
6830	64.7617
6825	63.1048
6820	65.0585
6815	66.2529
6810	66.5557
6805	65.8886
6800	65.6732
6795	64.8371
6790	63.3371
6785	63.1547
6780	64.2914
6775	64.6995
6770	63.14
6765	61.8835
6760	61.8513
6755	63.1263
6750	63.8375
6745	63.1564
6740	63.0022
6735	64.1919
6730	63.9563
6725	61.9938
6720	62.9888
6715	65.3198
6710	65.6203
6705	64.7667
6700	64.2775
6695	64.1186
6690	64.7557
6685	65.9395
6680	64.8697
6675	63.204
6670	64.3572
6665	65.4393
6660	64.52
6655	64.1548
6650	65.1049
6645	63.8248
6640	63.9745
6635	66.488
6630	67.0548
6625	66.0297
6620	64.9572
6615	63.3906
6610	63.7749
6605	65.0473
6600	65.412
6595	65.2619
6590	64.4746
6585	63.3722
6580	64.1917
6575	65.3019
6570	64.473
6565	64.0063
6560	62.6796
6555	62.6993
6550	63.6729
6545	63.0435
6540	62.7826
6535	63.4826
6530	63.8112
6525	63.9031
6520	64.1556
6515	64.7566
6510	64.8955
6505	65.3024
6500	65.2335
6495	64.9007
6490	65.4129
6485	64.9023
6480	64.5583
6475	64.5282
6470	63.8977
6465	64.2755
6460	63.9468
6455	63.7252
6450	64.5698
6445	65.1983
6440	65.0712
6435	64.7069
6430	64.9885
6425	65.3076
6420	64.1762
6415	63.78
6410	64.7793
6405	65.8158
6400	66.0961
6395	66.8835
6390	66.1661
6385	65.0178
6380	65.5188
6375	65.1552
6370	65.1806
6365	66.2644
6360	65.948
6355	66.0022
6350	66.1733
6345	65.6549
6340	65.5557
6335	65.5777
6330	65.4776
6325	65.4337
6320	65.1869
6315	64.9295
6310	64.7815
6305	65.5552
6300	65.6464
6295	65.5816
6290	67.0286
6285	67.5816
6280	66.0574
6275	65.7692
6270	65.6042
6265	64.9604
6260	64.3413
6255	64.1802
6250	65.4227
6245	66.1419
6240	65.5205
6235	64.3003
6230	64.2554
6225	64.8249
6220	64.1929
6215	64.5539
6210	65.6388
6205	66.3298
6200	66.6483
6195	65.9434
6190	64.8199
6185	64.1496
6180	63.9508
6175	64.4356
6170	64.614
6165	65.4088
6160	66.0356
6155	65.351
6150	65.205
6145	65.3105
6140	65.5989
6135	65.0399
6130	64.3053
6125	64.4307
6120	65.3101
6115	65.5377
6110	65.0041
6105	64.2534
6100	63.9935
6095	63.8123
6090	63.819
6085	64.3281
6080	64.2161
6075	64.3737
6070	64.8523
6065	65.1882
6060	65.4482
6055	66.1111
6050	66.1681
6045	64.8812
6040	63.939
6035	64.1716
6030	64.5294
6025	63.9674
6020	64.0677
6015	64.6502
6010	64.9688
6005	65.2126
6000	64.5217
5995	63.9593
5990	64.2623
5985	64.8577
5980	64.9866
5975	64.3676
5970	65.0563
5965	65.6806
5960	64.7944
5955	64.6979
5950	64.7952
5945	64.5845
5940	64.721
5935	65.1515
5930	65.0599
5925	65.0889
5920	65.4373
5915	64.8779
5910	64.3589
5905	65.2547
5900	65.6929
5895	65.209
5890	65.3491
5885	65.5524
5880	65.539
5875	65.1568
5870	65.0392
5865	64.7525
5860	64.688
5855	65.0792
5850	65.0091
5845	64.8411
5840	65.1205
5835	65.3926
5830	65.2489
5825	64.9233
5820	64.8042
5815	64.8998
5810	64.9015
5805	65.12
5800	64.9528
5795	64.846
5790	65.0149
5785	64.5999
5780	64.5052
5775	64.8444
5770	65.2278
5765	65.6839
5760	66.0449
5755	65.9041
5750	65.656
5745	66.1685
5740	65.7117
5735	64.9916
5730	64.7211
5725	64.3747
5720	64.0361
5715	64.5433
5710	64.6121
5705	64.4598
5700	64.7966
5695	65.1444
5690	65.4083
5685	65.0995
5680	65.096
5675	65.7655
5670	65.8204
5665	64.9443
5660	64.6135
5655	65.1828
5650	65.8125
5645	65.8346
5640	65.5535
5635	65.3243
5630	65.4706
5625	65.6589
5620	65.4356
5615	65.2627
5610	65.3137
5605	65.4459
5600	65.888
5595	66.0245
5590	66.186
5585	65.3772
5580	64.8696
5575	65.0264
5570	65.2568
5565	65.3412
5560	65.2732
5555	64.9345
5550	64.7254
5545	64.355
5540	64.3467
5535	64.8933
5530	65.0585
5525	65.1217
5520	64.8829
5515	64.9391
5510	65.077
5505	65.2186
5500	65.1251
5495	64.5221
5490	64.614
5485	65.4699
5480	65.532
5475	65.0564
5470	64.7347
5465	64.3651
5460	64.4124
5455	65.106
5450	65.6707
5445	65.3367
5440	64.6168
5435	64.6679
5430	65.2105
5425	65.754
5420	65.3111
5415	64.5007
5410	64.8371
5405	65.6456
5400	65.3762
5395	65.0181
5390	65.193
5385	65.6223
5380	66.1551
5375	66.0273
5370	65.6262
5365	64.8248
5360	65.0033
5355	65.3106
5350	65.1046
5345	64.981
5340	65.338
5335	66.0005
5330	65.9472
5325	64.8969
5320	63.7184
5315	64.5767
5310	64.8854
5305	64.2745
5300	64.1343
5295	64.1592
5290	67.1268
5285	66.4137
5280	63.8963
5275	62.9777
5270	62.6479
5265	64.8241
5260	64.9901
5255	64.8321
5250	65.124
5245	65.009
5240	65.2984
5235	64.5701
5230	64.3322
5225	64.5309
5220	64.5376
5215	64.7378
5210	64.8953
5205	65.0696
5200	64.8819
5195	64.5734
5190	64.6433
5185	65.01
5180	65.0696
5175	64.8864
5170	64.4299
5165	64.3944
5160	64.8993
5155	65.2014
5150	64.9643
5145	64.8078
5140	64.9879
5135	65.0642
5130	65.1568
5125	65.3179
5120	65.2291
5115	64.9033
5110	64.8098
5105	64.9311
5100	65.1758
5095	65.2642
5090	65.2914
5085	64.9879
5080	64.7946
5075	64.9201
5070	64.8523
5065	64.7487
5060	64.789
5055	64.8586
5050	64.9751
5045	65.0751
5040	65.2586
5035	65.2216
5030	65.2007
5025	65.2795
5020	65.4712
5015	65.5834
5010	65.3625
5005	65.4343
5000	65.5238
4995	65.5268
4990	65.5891
4985	65.4723
4980	65.2001
4975	64.9356
4970	65.0571
4965	65.2225
4960	65.235
4955	65.1163
4950	64.797
4945	65.0309
4940	65.1045
4935	64.85
4930	64.7187
4925	64.9595
4920	65.3175
4915	65.097
4910	64.7095
4905	64.7278
4900	64.8071
4895	64.9241
4890	64.9756
4885	64.8029
4880	64.4356
4875	64.7829
4870	65.1083
4865	64.7345
4860	64.7286
4855	65.0743
4850	65.1125
4845	65.1915
4840	65.0323
4835	64.8981
4830	65.0526
4825	65.1726
4820	65.1634
4815	64.9158
4810	64.8436
4805	64.8647
4800	64.9054
4795	64.9954
4790	65.1969
4785	65.1397
4780	65.2077
4775	65.2922
4770	65.0481
4765	64.8937
4760	64.8061
4755	64.8465
4750	64.9535
4745	64.8249
4740	64.6667
4735	64.543
4730	64.5471
4725	64.7073
4720	65.0042
4715	65.0016
4710	65.0091
4705	65.0176
4700	64.8351
4695	64.8234
4690	64.8753
4685	64.9819
4680	65.1231
4675	65.1133
4670	65.3236
4665	65.6947
4660	65.6208
4655	65.2518
4650	65.001
4645	65.1307
4640	65.0649
4635	64.9361
4630	64.9856
4625	65.0736
4620	65.0465
4615	65.1939
4610	65.1792
4605	64.972
4600	65.0817
4595	65.353
4590	65.5122
4585	65.5302
4580	65.5862
4575	65.3802
4570	65.2472
4565	65.2498
4560	65.2448
4555	65.2398
4550	65.151
4545	65.1723
4540	65.4634
4535	65.5371
4530	65.543
4525	65.4732
4520	65.3373
4515	65.5667
4510	65.6579
4505	65.4901
4500	65.2994
4495	65.33
4490	65.3696
4485	65.4728
4480	65.5417
4475	65.3903
4470	65.1753
4465	65.46
4460	65.9992
4455	65.8142
4450	65.6553
4445	65.6424
4440	65.088
4435	64.7738
4430	65.1384
4425	65.6309
4420	65.3908
4415	64.4747
4410	65.0217
4405	65.8387
4400	64.6315
4395	62.3256
4390	60.9168
4385	61.8976
4380	64.3078
4375	64.5901
4370	66.0997
4365	66.1719
4360	65.4917
4355	65.5829
4350	65.5531
4345	65.8464
4340	66.0882
4335	65.9345
4330	65.6177
4325	65.4311
4320	65.436
4315	65.5893
4310	65.6939
4305	65.6726
4300	65.5941
4295	65.2278
4290	64.9546
4285	64.9994
4280	64.9974
4275	65.0081
4270	65.3184
4265	65.5499
4260	65.7564
4255	65.5556
4250	65.1657
4245	64.9862
4240	64.8234
4235	65.0684
4230	65.4525
4225	65.1893
4220	65.0563
4215	65.3778
4210	65.5876
4205	65.2618
4200	64.9022
4195	65.0072
4190	65.2887
4185	65.2276
4180	65.0774
4175	65.1977
4170	65.3063
4165	65.1654
4160	65.1684
4155	65.2907
4150	65.2792
4145	65.1007
4140	64.8921
4135	64.9027
4130	65.1789
4125	65.2203
4120	65.1967
4115	65.1471
4110	65.1563
4105	65.3766
4100	65.3749
4095	65.3182
4090	65.1587
4085	64.9778
4080	64.9528
4075	65.1047
4070	65.2165
4065	65.2075
4060	65.2829
4055	65.3726
4050	65.3979
4045	65.4315
4040	65.349
4035	65.2052
4030	65.2726
4025	65.1862
4020	64.9814
4015	64.9987
4010	65.0326
4005	65.0545
4000	65.2334
3995	65.2938
3990	65.3697
3985	65.3819
3980	65.121
3975	64.9643
3970	65.1679
3965	65.4698
3960	65.5926
3955	65.4436
3950	65.2087
3945	65.2985
3940	65.4472
3935	65.4666
3930	65.4944
3925	65.4462
3920	65.2979
3915	65.2358
3910	65.1645
3905	65.1117
3900	65.1522
3895	65.4178
3890	65.6653
3885	65.4372
3880	65.3363
3875	65.3564
3870	65.2998
3865	65.318
3860	65.3471
3855	65.3131
3850	65.279
3845	65.1291
3840	65.1325
3835	65.1641
3830	65.2297
3825	65.4096
3820	65.3043
3815	65.1856
3810	65.0558
3805	64.988
3800	65.0174
3795	65.1423
3790	65.232
3785	65.2535
3780	65.328
3775	65.275
3770	65.2462
3765	65.1599
3760	65.2202
3755	65.3552
3750	65.4046
3745	65.3548
3740	65.1612
3735	65.2629
3730	65.3881
3725	65.2836
3720	65.2877
3715	65.3069
3710	65.3156
3705	65.3092
3700	65.3173
3695	65.3305
3690	65.2666
3685	65.2259
3680	65.1956
3675	65.2119
3670	65.335
3665	65.4034
3660	65.5567
3655	65.4268
3650	65.1863
3645	65.1062
3640	65.1019
3635	65.1161
3630	65.0202
3625	65.1211
3620	65.304
3615	65.3104
3610	65.2044
3605	65.178
3600	65.2241
3595	65.2405
3590	65.2221
3585	65.2
3580	65.3695
3575	65.3706
3570	65.3042
3565	65.2178
3560	65.1964
3555	65.3062
3550	65.3002
3545	65.3065
3540	65.3948
3535	65.4562
3530	65.3714
3525	65.2514
3520	65.2698
3515	65.3807
3510	65.248
3505	65.1809
3500	65.0844
3495	64.9423
3490	65.2197
3485	65.5246
3480	65.1257
3475	64.9953
3470	65.138
3465	65.1481
3460	65.2415
3455	65.341
3450	65.4126
3445	65.398
3440	65.2976
3435	65.1669
3430	65.3078
3425	65.4193
3420	65.2544
3415	65.2211
3410	65.224
3405	65.1543
3400	65.2436
3395	65.2961
3390	65.2627
3385	65.3093
3380	65.3136
3375	65.3288
3370	65.3976
3365	65.3053
3360	65.2255
3355	65.365
3350	65.4518
3345	65.2639
3340	65.0807
3335	65.15
3330	65.2481
3325	65.3646
3320	65.4337
3315	65.3925
3310	65.2926
3305	65.2838
3300	65.295
3295	65.2799
3290	65.2095
3285	65.1906
3280	65.2692
3275	65.33
3270	65.2762
3265	65.1724
3260	65.1305
3255	65.1346
3250	65.2949
3245	65.3402
3240	65.2772
3235	65.2367
3230	65.3
3225	65.2942
3220	65.2472
3215	65.2221
3210	65.1273
3205	65.0711
3200	65.1696
3195	65.3889
3190	65.3963
3185	65.2776
3180	65.3191
3175	65.4071
3170	65.3589
3165	65.2655
3160	65.1931
3155	65.2781
3150	65.3407
3145	65.1937
3140	65.1089
3135	65.0679
3130	65.0597
3125	65.2267
3120	65.3569
3115	65.3542
3110	65.3399
3105	65.2535
3100	65.2362
3095	65.2578
3090	65.2444
3085	65.2765
3080	65.2642
3075	65.2927
3070	65.3369
3065	65.3267
3060	65.2699
3055	65.1907
3050	65.3431
3045	65.4434
3040	65.3496
3035	65.2112
3030	65.2256
3025	65.2444
3020	65.2462
3015	65.2915
3010	65.3586
3005	65.4989
3000	65.4989
2995	65.398
2990	65.2772
2985	65.1914
2980	65.2065
2975	65.3007
2970	65.2853
2965	65.1268
2960	65.0334
2955	65.11
2950	65.1862
2945	65.1522
2940	65.158
2935	65.1397
2930	64.9987
2925	64.9276
2920	64.8835
2915	64.9345
2910	65.0971
2905	65.0739
2900	65.0288
2895	65.1867
2890	65.327
2885	65.2452
2880	65.1462
2875	65.0494
2870	65.0802
2865	65.1599
2860	65.0995
2855	65.0545
2850	65.0457
2845	65.1448
2840	65.2454
2835	65.284
2830	65.2907
2825	65.3084
2820	65.3324
2815	65.2786
2810	65.3233
2805	65.3599
2800	65.3173
2795	65.2994
2790	65.3667
2785	65.4341
2780	65.3562
2775	65.2518
2770	65.1845
2765	65.2061
2760	65.2983
2755	65.2568
2750	65.1668
2745	65.2883
2740	65.3542
2735	65.3467
2730	65.3849
2725	65.4194
2720	65.408
2715	65.435
2710	65.3935
2705	65.3877
2700	65.478
2695	65.4694
2690	65.3885
2685	65.3357
2680	65.326
2675	65.3722
2670	65.4207
2665	65.4066
2660	65.3893
2655	65.3514
2650	65.3176
2645	65.2351
2640	65.224
2635	65.3304
2630	65.4359
2625	65.4731
2620	65.4094
2615	65.3269
2610	65.3371
2605	65.3177
2600	65.2948
2595	65.4146
2590	65.4903
2585	65.4037
2580	65.3537
2575	65.3332
2570	65.3809
2565	65.4549
2560	65.5323
2555	65.5498
2550	65.5363
2545	65.5286
2540	65.4733
2535	65.4231
2530	65.3888
2525	65.5005
2520	65.4956
2515	65.3482
2510	65.3798
2505	65.4988
2500	65.565
2495	65.5453
2490	65.4641
2485	65.3362
2480	65.2962
2475	65.3487
2470	65.3971
2465	65.4131
2460	65.3821
2455	65.3573
2450	65.3429
2445	65.3846
2440	65.4478
2435	65.5064
2430	65.393
2425	65.2681
2420	65.306
2415	65.3851
2410	65.362
2405	65.2897
2400	65.3009
2395	65.267
2390	65.2805
2385	65.2876
2380	65.2878
2375	65.389
2370	65.4189
2365	65.3947
2360	65.3489
2355	65.3693
2350	65.4263
2345	65.3763
2340	65.2869
2335	65.3255
2330	65.275
2325	65.3207
2320	65.4527
2315	65.4761
2310	65.4363
2305	65.4118
2300	65.4551
2295	65.4571
2290	65.4407
2285	65.4286
2280	65.3736
2275	65.3463
2270	65.4037
2265	65.429
2260	65.3564
2255	65.35
2250	65.4539
2245	65.4441
2240	65.4015
2235	65.3494
2230	65.285
2225	65.3352
2220	65.4089
2215	65.4552
2210	65.4571
2205	65.392
2200	65.3795
2195	65.4362
2190	65.4974
2185	65.4824
2180	65.3971
2175	65.4172
2170	65.4217
2165	65.3949
2160	65.3952
2155	65.3818
2150	65.3865
2145	65.3545
2140	65.4299
2135	65.4607
2130	65.4449
2125	65.4397
2120	65.4219
2115	65.4458
2110	65.4638
2105	65.4579
2100	65.4302
2095	65.433
2090	65.4644
2085	65.4218
2080	65.44
2075	65.435
2070	65.3832
2065	65.3533
2060	65.3914
2055	65.4203
2050	65.3986
2045	65.4473
2040	65.4877
2035	65.4541
2030	65.439
2025	65.4146
2020	65.3792
2015	65.3152
2010	65.369
2005	65.4793
2000	65.4845
1995	65.412
1990	65.3982
1985	65.4273
1980	65.4996
1975	65.5685
1970	65.5272
1965	65.4884
1960	65.5375
1955	65.543
1950	65.4548
1945	65.3955
1940	65.4929
1935	65.5427
1930	65.5328
1925	65.506
1920	65.4353
1915	65.3878
1910	65.3907
1905	65.3513
1900	65.3196
1895	65.3563
1890	65.3557
1885	65.4167
1880	65.4503
1875	65.4495
1870	65.4267
1865	65.3522
1860	65.3379
1855	65.38
1850	65.3838
1845	65.3816
1840	65.4436
1835	65.4903
1830	65.4236
1825	65.37
1820	65.3772
1815	65.3964
1810	65.3748
1805	65.4025
1800	65.4569
1795	65.4036
1790	65.3473
1785	65.3831
1780	65.3716
1775	65.3376
1770	65.3319
1765	65.3343
1760	65.3603
1755	65.3757
1750	65.2598
1745	65.116
1740	65.1156
1735	65.1532
1730	65.0797
1725	65.122
1720	65.259
1715	65.3037
1710	65.2729
1705	65.291
1700	65.35
1695	65.3406
1690	65.3414
1685	65.4102
1680	65.3779
1675	65.2845
1670	65.283
1665	65.3784
1660	65.3383
1655	65.2488
1650	65.2745
1645	65.2716
1640	65.2137
1635	65.1674
1630	65.2443
1625	65.3138
1620	65.3003
1615	65.2554
1610	65.2282
1605	65.2599
1600	65.275
1595	65.2036
1590	65.1786
1585	65.1656
1580	65.1106
1575	65.1185
1570	65.261
1565	65.2941
1560	65.2225
1555	65.1841
1550	65.1155
1545	65.0512
1540	65.1157
1535	65.2466
1530	65.2716
1525	65.1997
1520	65.1899
1515	65.2207
1510	65.2306
1505	65.1771
1500	65.2393
1495	65.3084
1490	65.2589
1485	65.2111
1480	65.2076
1475	65.1955
1470	65.1465
1465	65.1791
1460	65.2438
1455	65.2013
1450	65.0417
1445	65.0497
1440	65.1637
1435	65.2447
1430	65.266
1425	65.2147
1420	65.1852
1415	65.1535
1410	65.0611
1405	65.1191
1400	65.1475
1395	65.1134
1390	65.1102
1385	65.0413
1380	65.051
1375	65.1601
1370	65.1789
1365	65.2143
1360	65.187
1355	65.1888
1350	65.1873
1345	65.1814
1340	65.1812
1335	65.1644
1330	65.1182
1325	65.1022
1320	65.1086
1315	65.0593
1310	65.0866
1305	65.1642
1300	65.126
1295	65.0825
1290	65.1029
1285	65.1601
1280	65.2197
1275	65.1831
1270	65.1575
1265	65.1494
1260	65.1807
1255	65.1597
1250	65.0807
1245	65.0883
1240	65.1865
1235	65.184
1230	65.1373
1225	65.1358
1220	65.1301
1215	65.0679
1210	65.0483
1205	65.0915
1200	65.1334
1195	65.0779
1190	64.981
1185	64.9868
1180	65.0338
1175	65.0196
1170	65.0167
1165	64.9774
1160	64.8499
1155	64.8211
1150	64.8776
1145	64.9264
1140	64.8827
1135	64.8896
1130	65.0243
1125	65.1072
1120	65.0074
1115	64.8391
1110	64.8126
1105	64.9175
1100	64.9469
1095	65.0404
1090	65.1322
1085	64.9139
1080	64.8356
1075	64.9439
1070	64.852
1065	64.8224
1060	64.8691
1055	64.8126
1050	64.7926
1045	64.7229
1040	64.8166
1035	64.9248
1030	64.7382
1025	64.6061
1020	64.7723
1015	64.9807
1010	64.8645
1005	64.9014
1000	64.9653
995	 64.834
990	 64.9462
985	 65.1543
980	 65.1912
975	 65.0297
970	 64.878
965	 64.9272
960	 65.0292
955	 64.8166
950	 64.6004
945	 64.6223
940	 64.7469
935	 64.7385
930	 64.8073
925	 65.0834
920	 65.3371
915	 65.2189
910	 64.9903
905	 64.416
900	 63.4697
895	 63.026
890	 63.3001
885	 63.5769
880	 64.1189
875	 64.4732
870	 64.1845
865	 64.2166
860	 64.7385
855	 64.6816
850	 64.5181
845	 64.5374
840	 64.692
835	 64.5885
830	 64.4876
825	 64.6439
820	 64.5607
815	 64.5711
810	 64.634
805	 64.4165
800	 64.211
795	 64.1746
790	 64.3128
785	 64.2766
780	 64.1848
775	 64.1952
770	 64.2194
765	 64.2393
760	 64.3259
755	 64.188
750	 63.9837
745	 63.8122
740	 63.6285
735	 63.7688
730	 63.92
725	 63.8917
720	 63.8734
715	 64.0541
710	 64.044
705	 63.7339
700	 63.3003
695	 63.3651
690	 63.7151
685	 63.6204
680	 63.2874
675	 63.2293
670	 63.4042
665	 63.6049
660	 63.5035
655	 63.3515
650	 63.2763
645	 63.2228
640	 63.2673
635	 63.167
630	 62.991
625	 63.1928
620	 63.3455
615	 63.0749
610	 62.9577
605	 62.9586
600	 62.8595
595	 62.8192
590	 62.7556
585	 62.6401
580	 62.6556
575	 62.4754
570	 62.2418
565	 62.486
560	 62.5878
555	 62.6016
550	 62.5795
545	 62.627
540	 62.4094
535	 62.0699
530	 61.9452
525	 61.6848
520	 61.2396
515	 61.0035
510	 61.0394
505	 61.249
500	 61.3092
495	 61.4057
490	 61.0045
485	 60.4962
480	 60.0618
475	 59.8594
470	 60.5172
465	 61.013
460	 60.6102
455	 60.5158
450	 59.9343
445	 58.7401
440	 59.4811
435	 59.0037
430	 58.355
425	 59.9665
420	 59.9858
415	 58.533
410	 59.4533
405	 61.5148
400	 62.0912
395	 62.8991
390	 49.3104
385	 43.7037
380	 50.0259
375	 41.6457
370	 36.9885