File: Bakgrunnsmateriale/MATLAB/FTIR/ftir_data/subBb/Mapping_36/C-4040-8_t31.asc
PE IR       SPECTRUM    SPECTRUM    ASCII       PEDS        1.60
  -1
C-A13E~1.ASC
17/05/02
13:30:41.00
17/05/02
13:31:07.00
tln
$C-4040-8_t0031$<tbV0>[12.5,12.0,8.0,0.0,22,1,0]
27.028
64

2002,4.07
MIRTGS : RIGHTBACK : INTERNAL 2
MIR : ON : INTERNAL 2
OPTKBR

0.200000
8
8.000000
FILLER
RATIO
SPECTRUM
UNLOCKED 256

DOUBLE
64
COMBINED
1
0
0

0.002000
RATIO

1
0
TRUE
51149
0
LEFT NOT FITTED RIGHT NOT FITTED 0
NONE
NONE
15600
12
4.427000
51148
TRUE
1 0 8 72 0 0 0 0

15798

#HDR
-1
-1
#GR
µM
%T
2.38419e-05
0.0
1.282000
0.002000
12874
8
106.629
55.581
#DATA
1.282000	 71.5626
1.300000	 70.0786
1.318000	 68.4949
1.336000	 64.8547
1.354000	 63.067
1.372000	 66.6174
1.390000	 63.3857
1.408000	 64.2132
1.426000	 65.7266
1.444000	 64.8034
1.462000	 65.0727
1.480000	 65.8329
1.498000	 64.901
1.516000	 64.6933
1.534000	 65.6106
1.552000	 64.5892
1.570000	 65.346
1.588000	 64.9451
1.606000	 64.4991
1.624000	 64.5094
1.642000	 64.2584
1.660000	 64.7326
1.678000	 65.3039
1.696000	 64.973
1.714000	 65.0516
1.732000	 65.5578
1.750000	 65.2487
1.768000	 64.9839
1.786000	 65.4705
1.804000	 64.9907
1.822000	 64.7091
1.840000	 63.8752
1.858000	 64.9408
1.876000	 63.8913
1.894000	 60.0064
1.912000	 65.1013
1.930000	 65.5821
1.948000	 65.1342
1.966000	 64.9875
1.984000	 64.6801
2.002000	 65.061
2.020000	 64.8191
2.038000	 64.4421
2.056000	 64.635
2.074000	 65.0599
2.092000	 65.2341
2.110000	 65.3507
2.128000	 65.1866
2.146000	 65.3753
2.164000	 65.1946
2.182000	 64.9679
2.200000	 64.478
2.218000	 64.0583
2.236000	 63.9014
2.254000	 63.3337
2.272000	 63.2325
2.290000	 64.7556
2.308000	 63.4982
2.326000	 63.9015
2.344000	 64.3116
2.362000	 64.7151
2.380000	 64.453
2.398000	 65.0745
2.416000	 64.9787
2.434000	 65.3551
2.452000	 65.0822
2.470000	 65.3381
2.488000	 65.2114
2.506000	 65.2675
2.524000	 65.0768
2.542000	 65.1712
2.560000	 64.9264
2.578000	 64.8488
2.596000	 65.0405
2.614000	 65.1018
2.632000	 65.1359
2.650000	 65.2693
2.668000	 65.1246
2.686000	 65.0959
2.704000	 65.2397
2.722000	 65.244
2.740000	 65.3057
2.758000	 65.2226
2.776000	 65.104
2.794000	 65.2488
2.812000	 65.2288
2.830000	 65.18
2.848000	 65.1335
2.866000	 65.2665
2.884000	 64.9787
2.902000	 65.3594
2.920000	 65.2714
2.938000	 65.1052
2.956000	 65.1997
2.974000	 65.0288
2.992000	 65.1259
3.010000	 65.2484
3.028000	 65.1315
3.046000	 65.2684
3.064000	 65.2746
3.082000	 65.1269
3.100000	 65.2455
3.118000	 65.1614
3.136000	 65.2713
3.154000	 65.2047
3.172000	 65.1076
3.190000	 65.1448
3.208000	 65.2619
3.226000	 65.1642
3.244000	 65.2053
3.262000	 65.1934
3.280000	 65.1884
3.298000	 65.1936
3.316000	 65.1846
3.334000	 65.1765
3.352000	 65.0125
3.370000	 64.8505
3.388000	 64.9597
3.406000	 64.9362
3.424000	 64.7366
3.442000	 64.9908
3.460000	 65.0586
3.478000	 65.0815
3.496000	 64.9453
3.514000	 65.1426
3.532000	 65.2054
3.550000	 65.1449
3.568000	 65.2891
3.586000	 65.3015
3.604000	 65.2665
3.622000	 65.3176
3.640000	 65.2395
3.658000	 65.2715
3.676000	 65.1585
3.694000	 65.3072
3.712000	 65.2261
3.730000	 65.1919
3.748000	 65.2659
3.766000	 65.2665
3.784000	 65.2102
3.802000	 65.4059
3.820000	 65.3131
3.838000	 65.3117
3.856000	 65.3644
3.874000	 65.3502
3.892000	 65.3863
3.910000	 65.3483
3.928000	 65.2026
3.946000	 65.3348
3.964000	 65.2983
3.982000	 65.2935
4.000000	 65.3103
4.018000	 65.3273
4.036000	 65.3196
4.054000	 65.3461
4.072000	 65.2886
4.090000	 65.3289
4.108000	 65.356
4.125999	 65.4483
4.144000	 65.3597
4.162000	 65.3828
4.180000	 65.2563
4.198000	 65.2191
4.216000	 65.4052
4.234000	 65.2705
4.252000	 65.308
4.270000	 65.3581
4.288000	 65.3871
4.306000	 65.3251
4.324000	 65.3607
4.342000	 65.4061
4.359999	 65.3965
4.378000	 65.3789
4.396000	 65.2965
4.414000	 65.3467
4.432000	 65.3746
4.450000	 65.4246
4.468000	 65.385
4.486000	 65.3778
4.504000	 65.3052
4.522000	 65.2853
4.540000	 65.3548
4.558000	 65.4346
4.576000	 65.4219
4.594000	 65.3687
4.612000	 65.3305
4.630000	 65.2334
4.648000	 65.4507
4.666000	 65.4095
4.684000	 65.3265
4.702000	 65.3449
4.720000	 65.2806
4.738000	 65.291
4.756000	 65.3236
4.774000	 65.3145
4.792000	 65.3948
4.810000	 65.3463
4.828000	 65.2884
4.846000	 65.2798
4.864000	 65.3177
4.882000	 65.4026
4.900000	 65.4113
4.918000	 65.3712
4.936000	 65.313
4.954000	 65.3159
4.972000	 65.3251
4.990000	 65.3919
5.008000	 65.3085
5.026000	 65.3686
5.044000	 65.4183
5.062000	 65.3794
5.080000	 65.4311
5.098000	 65.3898
5.116000	 65.4776
5.134000	 65.3147
5.152000	 65.3141
5.170000	 65.3871
5.188000	 65.3269
5.206000	 65.2952
5.224000	 65.3543
5.242000	 65.3872
5.260000	 65.4337
5.278000	 65.4873
5.296000	 65.4038
5.314000	 65.374
5.332000	 65.311
5.350000	 65.3041
5.368000	 65.3271
5.386000	 65.3323
5.404000	 65.4
5.422000	 65.4424
5.440000	 65.4147
5.458000	 65.3814
5.476000	 65.4028
5.494000	 65.4459
5.512000	 65.4118
5.530000	 65.3732
5.548000	 65.4312
5.566000	 65.3658
5.584000	 65.3159
5.602000	 65.3472
5.620000	 65.3983
5.638000	 65.4171
5.656000	 65.4241
5.674000	 65.3585
5.692000	 65.3495
5.710000	 65.346
5.728000	 65.2386
5.746000	 65.1611
5.764000	 65.0365
5.782000	 64.9884
5.800000	 65.0298
5.818000	 65.227
5.836000	 65.3821
5.854000	 65.3717
5.872000	 65.2702
5.890000	 65.2625
5.908000	 65.2798
5.926000	 65.2692
5.944000	 65.2962
5.962000	 65.2362
5.980000	 65.2093
5.998000	 65.1934
6.016000	 65.2275
6.034000	 65.2512
6.052000	 65.1935
6.070000	 65.1412
6.088000	 65.1857
6.106000	 65.2634
6.124000	 65.2756
6.142000	 65.3135
6.160000	 65.3051
6.178000	 65.2486
6.196000	 65.2595
6.214000	 65.2813
6.232000	 65.2215
6.250000	 65.1439
6.268000	 65.1428
6.286000	 65.1648
6.304000	 65.0865
6.322000	 65.0079
6.340000	 65.0517
6.358000	 65.0151
6.376000	 64.9829
6.394000	 65.0939
6.412000	 65.203
6.430000	 65.1942
6.448000	 65.1894
6.466000	 65.1751
6.484000	 65.1302
6.502000	 65.0897
6.520000	 65.035
6.538000	 65.0225
6.556000	 65.0825
6.574000	 65.166
6.592000	 65.2439
6.610000	 65.2273
6.628000	 65.0989
6.646000	 65.0457
6.664000	 65.0972
6.682000	 65.1163
6.700000	 65.1246
6.718000	 65.2151
6.736000	 65.2587
6.754000	 65.1689
6.772000	 65.1192
6.790000	 65.1621
6.808000	 65.1446
6.826000	 65.099
6.844000	 65.1489
6.862000	 65.2623
6.880000	 65.2947
6.898000	 65.1955
6.916000	 65.099
6.934000	 65.1194
6.952000	 65.2263
6.970000	 65.291
6.988000	 65.2841
7.006000	 65.2977
7.024000	 65.3143
7.042000	 65.2779
7.060000	 65.2102
7.078000	 65.1479
7.096000	 65.1506
7.114000	 65.2088
7.132000	 65.2254
7.150000	 65.2062
7.168000	 65.1907
7.186000	 65.1476
7.204000	 65.0952
7.222000	 65.0966
7.240000	 65.1657
7.258000	 65.2353
7.276000	 65.2321
7.294000	 65.2024
7.312000	 65.2147
7.330000	 65.2073
7.348000	 65.1589
7.366000	 65.1607
7.384000	 65.1983
7.402000	 65.1877
7.420000	 65.1528
7.438000	 65.1441
7.456000	 65.1676
7.474000	 65.2164
7.492000	 65.2568
7.510000	 65.2782
7.528000	 65.3191
7.546000	 65.3609
7.564000	 65.3332
7.582000	 65.2584
7.600000	 65.2212
7.618000	 65.2273
7.636000	 65.2262
7.654000	 65.2107
7.672000	 65.2052
7.690000	 65.2221
7.708000	 65.2567
7.726000	 65.2768
7.744000	 65.2497
7.762000	 65.2018
7.780000	 65.1849
7.798000	 65.1926
7.816000	 65.1806
7.834000	 65.1368
7.852000	 65.0858
7.870000	 65.0547
7.888000	 65.0597
7.906000	 65.1156
7.924000	 65.2107
7.942000	 65.2737
7.960000	 65.2311
7.978000	 65.1122
7.996000	 65.0268
8.013999	 65.0347
8.032000	 65.0992
8.050000	 65.1624
8.068000	 65.2064
8.086000	 65.2403
8.103999	 65.2661
8.122000	 65.2699
8.140000	 65.2387
8.158000	 65.1829
8.176000	 65.1373
8.193999	 65.1273
8.212000	 65.1368
8.230000	 65.1228
8.248000	 65.0724
8.266000	 65.0276
8.283999	 65.0363
8.302000	 65.0905
8.320000	 65.1385
8.338000	 65.1454
8.356000	 65.1074
8.374000	 65.0359
8.391999	 64.9633
8.410000	 64.9383
8.428000	 64.9818
8.446000	 65.0546
8.464000	 65.0946
8.481999	 65.0771
8.500000	 65.0282
8.518000	 64.9931
8.536000	 64.9934
8.554000	 65.0082
8.571999	 65.0024
8.590000	 64.9738
8.608000	 64.9558
8.626000	 64.9717
8.644000	 64.999
8.661999	 64.9916
8.680000	 64.9339
8.698000	 64.862
8.716000	 64.8246
8.734000	 64.8362
8.751999	 64.8718
8.770000	 64.9021
8.788000	 64.9194
8.806000	 64.9302
8.824000	 64.9389
8.842000	 64.9475
8.859999	 64.9635
8.878000	 64.9965
8.896000	 65.0465
8.914000	 65.0971
8.932000	 65.1195
8.949999	 65.0919
8.968000	 65.0204
8.986000	 64.9388
9.004000	 64.8875
9.022000	 64.8886
9.039999	 64.9308
9.058000	 64.9764
9.076000	 64.9905
9.094000	 64.9703
9.112000	 64.9442
9.129999	 64.9428
9.148000	 64.9669
9.166000	 64.9892
9.184000	 64.9821
9.202000	 64.9441
9.219999	 64.8987
9.238000	 64.8687
9.256000	 64.8565
9.274000	 64.8492
9.292000	 64.8402
9.310000	 64.8407
9.327999	 64.8669
9.346000	 64.9198
9.364000	 64.9774
9.382000	 65.0111
9.400000	 65.0078
9.418000	 64.9788
9.436000	 64.9511
9.454000	 64.9493
9.472000	 64.9819
9.490000	 65.0383
9.508000	 65.0967
9.526000	 65.1367
9.544000	 65.1485
9.561999	 65.1355
9.580000	 65.111
9.598000	 65.0907
9.616000	 65.0855
9.634000	 65.094
9.652000	 65.1011
9.670000	 65.0867
9.688000	 65.0422
9.706000	 64.9803
9.724000	 64.9268
9.742000	 64.9022
9.760000	 64.9112
9.778000	 64.9446
9.795999	 64.9895
9.814000	 65.0339
9.832000	 65.0651
9.850000	 65.069
9.868000	 65.0388
9.886000	 64.9851
9.904000	 64.9341
9.922000	 64.9122
9.940000	 64.9277
9.958000	 64.9652
9.976000	 64.9984
9.994000	 65.0093
10.012	64.9966
10.03	64.9699
10.048	64.9397
10.066	64.9113
10.084	64.8878
10.102	64.8746
10.12	64.8771
10.138	64.8948
10.156	64.9189
10.174	64.9374
10.192	64.9438
10.21	64.942
10.228	64.9418
10.246	64.9485
10.264	64.956
10.282	64.9524
10.3	64.9322
10.318	64.9036
10.336	64.883
10.354	64.8807
10.372	64.8923
10.39	64.9014
10.408	64.894
10.426	64.8658
10.444	64.8256
10.462	64.7869
10.48	64.759
10.498	64.7435
10.516	64.736
10.534	64.7311
10.552	64.728
10.57	64.7302
10.588	64.742
10.606	64.7641
10.624	64.7918
10.642	64.8167
10.66	64.8317
10.678	64.8379
10.696	64.8475
10.714	64.8787
10.732	64.9447
10.75	65.0425
10.768	65.1483
10.786	65.2264
10.804	65.2403
10.822	65.1737
10.84	65.0399
10.858	64.8781
10.876	64.7382
10.894	64.6577
10.912	64.6459
10.93	64.681
10.948	64.7267
10.966	64.7507
10.984	64.742
11.002	64.7127
11.02	64.6825
11.038	64.6601
11.056	64.6342
11.074	64.5798
11.092	64.4799
11.11	64.3428
11.128	64.2042
11.146	64.1103
11.164	64.0972
11.182	64.172
11.2	64.3113
11.218	64.4748
11.236	64.618
11.254	64.7112
11.272	64.7441
11.29	64.7221
11.308	64.6607
11.326	64.5796
11.344	64.4961
11.362	64.4246
11.38	64.373
11.398	64.3419
11.416	64.3271
11.434	64.324
11.452	64.3299
11.47	64.346
11.488	64.3745
11.506	64.4159
11.524	64.4677
11.542	64.5249
11.56	64.5815
11.578	64.6322
11.596	64.6733
11.614	64.7043
11.632	64.7274
11.65	64.7468
11.668	64.7667
11.686	64.7905
11.704	64.8194
11.722	64.8514
11.74	64.8813
11.758	64.903
11.776	64.9106
11.794	64.9021
11.812	64.8799
11.83	64.85
11.848	64.8201
11.866	64.7957
11.884	64.7794
11.902	64.7716
11.92	64.771
11.938	64.7761
11.956	64.786
11.974	64.8007
11.992	64.8207
12.01	64.8476
12.028	64.8828
12.046	64.9272
12.064	64.98
12.082	65.0384
12.1	65.097
12.118	65.1484
12.136	65.1846
12.154	65.1996
12.172	65.1907
12.19	65.1593
12.208	65.1101
12.226	65.0492
12.244	64.9818
12.262	64.9114
12.28	64.8402
12.298	64.7705
12.316	64.706
12.334	64.6514
12.352	64.6122
12.37	64.5917
12.388	64.59
12.406	64.603
12.424	64.6238
12.442	64.6445
12.46	64.659
12.478	64.6645
12.496	64.6625
12.514	64.6567
12.532	64.6517
12.55	64.6504
12.568	64.6525
12.586	64.6558
12.604	64.6568
12.622	64.6521
12.64	64.6403
12.658	64.6217
12.676	64.598
12.694	64.5719
12.712	64.546
12.73	64.5226
12.748	64.5037
12.766	64.4911
12.784	64.4863
12.802	64.4907
12.82	64.5053
12.838	64.5294
12.856	64.5607
12.874	64.5953
12.892	64.6278
12.91	64.6521
12.928	64.6627
12.946	64.6561
12.964	64.631
12.982	64.5891
13	64.5342
13.018	64.4715
13.036	64.4066
13.054	64.3447
13.072	64.2896
13.09	64.2432
13.108	64.2054
13.126	64.1746
13.144	64.1485
13.162	64.1249
13.18	64.1023
13.198	64.0799
13.216	64.0587
13.234	64.04
13.252	64.0258
13.27	64.0174
13.288	64.0161
13.306	64.022
13.324	64.0346
13.342	64.0529
13.36	64.075
13.378	64.0995
13.396	64.125
13.414	64.1505
13.432	64.176
13.45	64.2017
13.468	64.2282
13.486	64.2559
13.504	64.2847
13.522	64.3141
13.54	64.3428
13.558	64.369
13.576	64.3907
13.594	64.4063
13.612	64.4148
13.63	64.4159
13.648	64.4105
13.666	64.3995
13.684	64.3844
13.702	64.3664
13.72	64.3463
13.738	64.3243
13.756	64.3005
13.774	64.2753
13.792	64.2496
13.81	64.2253
13.828	64.205
13.846	64.191
13.864	64.1855
13.882	64.1894
13.9	64.2017
13.918	64.2202
13.936	64.2416
13.954	64.2624
13.972	64.2798
13.99	64.2915
14.008	64.297
14.026	64.2969
14.044	64.2926
14.062	64.2858
14.08	64.2776
14.098	64.2685
14.116	64.2579
14.134	64.2443
14.152	64.2261
14.17	64.2021
14.188	64.1722
14.206	64.1373
14.224	64.1
14.242	64.0636
14.26	64.0323
14.278	64.0094
14.296	63.9975
14.314	63.9976
14.332	64.0091
14.35	64.0297
14.368	64.0561
14.386	64.0836
14.404	64.1072
14.422	64.1229
14.44	64.1274
14.458	64.1193
14.476	64.0989
14.494	64.068
14.512	64.03
14.53	63.9898
14.548	63.9519
14.566	63.9201
14.584	63.8969
14.602	63.8836
14.62	63.8798
14.638	63.8836
14.656	63.8923
14.674	63.9029
14.692	63.9129
14.71	63.9201
14.728	63.9232
14.746	63.9222
14.764	63.9176
14.782	63.9105
14.8	63.9023
14.818	63.894
14.836	63.8866
14.854	63.8805
14.872	63.8752
14.89	63.8699
14.908	63.8632
14.926	63.8543
14.944	63.8421
14.962	63.8268
14.98	63.8092
14.998	63.7908
15.016	63.7737
15.034	63.7606
15.052	63.7543
15.07	63.7566
15.088	63.7689
15.106	63.7914
15.124	63.823
15.142	63.8611
15.16	63.9029
15.178	63.9449
15.196	63.9837
15.214	64.0156
15.232	64.0385
15.25	64.051
15.268	64.0524
15.286	64.0431
15.304	64.0245
15.322	63.9979
15.34	63.9647
15.358	63.9263
15.376	63.884
15.394	63.8388
15.412	63.7915
15.43	63.7433
15.448	63.6959
15.466	63.6511
15.484	63.6113
15.502	63.5789
15.52	63.5567
15.538	63.5469
15.556	63.5508
15.574	63.569
15.592	63.6008
15.61	63.6437
15.628	63.6949
15.646	63.7506
15.664	63.8055
15.682	63.8555
15.7	63.8971
15.718	63.9271
15.736	63.9436
15.754	63.9467
15.772	63.937
15.79	63.9165
15.808	63.8884
15.826	63.8552
15.844	63.8198
15.862	63.7853
15.88	63.7533
15.898	63.7252
15.916	63.7015
15.934	63.6821
15.952	63.6665
15.97	63.6539
15.988	63.6434
16.006	63.6344
16.024	63.6268
16.042	63.62
16.06	63.6145
16.078	63.6105
16.096	63.6083
16.114	63.6085
16.132	63.6115
16.15	63.6175
16.168	63.6267
16.186	63.639
16.204	63.6541
16.222	63.6716
16.24	63.6909
16.258	63.7117
16.276	63.7332
16.294	63.755
16.312	63.7768
16.33	63.7978
16.348	63.8178
16.366	63.8365
16.384	63.8533
16.402	63.8679
16.42	63.8801
16.438	63.8895
16.456	63.8961
16.474	63.8998
16.492	63.9009
16.51	63.8999
16.528	63.8972
16.546	63.8937
16.564	63.8896
16.582	63.8853
16.6	63.8807
16.618	63.8756
16.636	63.8694
16.654	63.8608
16.672	63.8489
16.69	63.8329
16.708	63.8118
16.726	63.7857
16.744	63.7545
16.762	63.7197
16.78	63.6827
16.798	63.645
16.816	63.6096
16.834	63.5777
16.852	63.5519
16.87	63.5329
16.888	63.5215
16.906	63.5175
16.924	63.52
16.942	63.5279
16.96	63.5384
16.978	63.5503
16.996	63.5608
17.014	63.568
17.032	63.5708
17.05	63.5674
17.068	63.5582
17.086	63.543
17.104	63.5233
17.122	63.4999
17.14	63.4753
17.158	63.4513
17.176	63.4293
17.194	63.4118
17.212	63.3993
17.23	63.3929
17.248	63.3922
17.266	63.3968
17.284	63.4048
17.302	63.4144
17.32	63.4237
17.338	63.4294
17.356	63.4304
17.374	63.4233
17.392	63.4077
17.41	63.3818
17.428	63.3461
17.446	63.3003
17.464	63.2464
17.482	63.1855
17.5	63.1197
17.518	63.0518
17.536	62.9832
17.554	62.9175
17.572	62.8554
17.59	62.7999
17.608	62.7515
17.626	62.7113
17.644	62.6795
17.662	62.6563
17.68	62.6411
17.698	62.6333
17.716	62.632
17.734	62.6362
17.752	62.6451
17.77	62.6575
17.788	62.6732
17.806	62.6909
17.824	62.7105
17.842	62.7315
17.86	62.754
17.878	62.7775
17.896	62.8024
17.914	62.8286
17.932	62.8562
17.95	62.8851
17.968	62.9155
17.986	62.9471
18.004	62.9801
18.022	63.0138
18.04	63.0482
18.058	63.0823
18.076	63.116
18.094	63.1479
18.112	63.1777
18.13	63.2041
18.148	63.2266
18.166	63.2439
18.184	63.2558
18.202	63.2615
18.22	63.2612
18.238	63.2545
18.256	63.2426
18.274	63.2257
18.292	63.2058
18.31	63.1835
18.328	63.1616
18.346	63.1407
18.364	63.1236
18.382	63.111
18.4	63.1047
18.418	63.1052
18.436	63.1135
18.454	63.1289
18.472	63.1516
18.49	63.1794
18.508	63.2122
18.526	63.2464
18.544	63.2816
18.562	63.3139
18.58	63.3431
18.598	63.3653
18.616	63.3807
18.634	63.3866
18.652	63.3833
18.67	63.3701
18.688	63.3476
18.706	63.3169
18.724	63.279
18.742	63.2361
18.76	63.1895
18.778	63.1417
18.796	63.0941
18.814	63.0489
18.832	63.0068
18.85	62.9697
18.868	62.9374
18.886	62.9107
18.904	62.8889
18.922	62.8718
18.94	62.8581
18.958	62.8468
18.976	62.8364
18.994	62.8256
19.012	62.8132
19.03	62.7977
19.048	62.7787
19.066	62.7551
19.084	62.7272
19.102	62.6943
19.12	62.6574
19.138	62.6168
19.156	62.5738
19.174	62.5297
19.192	62.4857
19.21	62.444
19.228	62.4053
19.246	62.3719
19.264	62.3441
19.282	62.3239
19.3	62.311
19.318	62.3064
19.336	62.3098
19.354	62.3205
19.372	62.3385
19.39	62.3618
19.408	62.3904
19.426	62.4216
19.444	62.4556
19.462	62.4894
19.48	62.5229
19.498	62.5542
19.516	62.5831
19.534	62.6086
19.552	62.6302
19.57	62.6484
19.588	62.663
19.606	62.6747
19.624	62.6843
19.642	62.6923
19.66	62.7001
19.678	62.7079
19.696	62.7171
19.714	62.7277
19.732	62.7407
19.75	62.7559
19.768	62.7734
19.786	62.7933
19.804	62.8147
19.822	62.8374
19.84	62.8603
19.858	62.8825
19.876	62.9034
19.894	62.9213
19.912	62.9361
19.93	62.9461
19.948	62.9514
19.966	62.9508
19.984	62.9444
20.002	62.9323
20.02	62.9143
20.038	62.8909
20.056	62.8626
20.074	62.8297
20.092	62.7935
20.11	62.7537
20.128	62.7121
20.146	62.6684
20.164	62.6241
20.182	62.5794
20.2	62.5349
20.218	62.4913
20.236	62.4485
20.254	62.4075
20.272	62.368
20.29	62.3307
20.308	62.2956
20.326	62.2634
20.344	62.2341
20.362	62.2081
20.38	62.1862
20.398	62.1682
20.416	62.1553
20.434	62.1472
20.452	62.1449
20.47	62.1486
20.488	62.1584
20.506	62.1748
20.524	62.1974
20.542	62.2258
20.56	62.2603
20.578	62.2989
20.596	62.3419
20.614	62.3876
20.632	62.4341
20.65	62.4815
20.668	62.5259
20.686	62.5682
20.704	62.6049
20.722	62.6349
20.74	62.6576
20.758	62.6701
20.776	62.6731
20.794	62.665
20.812	62.6454
20.83	62.6149
20.848	62.5734
20.866	62.5215
20.884	62.4617
20.902	62.3931
20.92	62.3197
20.938	62.2424
20.956	62.1625
20.974	62.0848
20.992	62.0079
21.01	61.9366
21.028	61.8716
21.046	61.8139
21.064	61.7668
21.082	61.7293
21.1	61.703
21.118	61.6886
21.136	61.685
21.154	61.6924
21.172	61.7106
21.19	61.7373
21.208	61.7729
21.226	61.8156
21.244	61.8631
21.262	61.9162
21.28	61.971
21.298	62.0278
21.316	62.0851
21.334	62.1403
21.352	62.1944
21.37	62.2452
21.388	62.2924
21.406	62.3361
21.424	62.3755
21.442	62.4109
21.46	62.4425
21.478	62.4698
21.496	62.4934
21.514	62.5141
21.532	62.5315
21.55	62.5466
21.568	62.5598
21.586	62.5711
21.604	62.5818
21.622	62.5914
21.64	62.6008
21.658	62.6107
21.676	62.6208
21.694	62.6318
21.712	62.6438
21.73	62.6569
21.748	62.6714
21.766	62.6873
21.784	62.7044
21.802	62.7228
21.82	62.7423
21.838	62.7628
21.856	62.7846
21.874	62.8071
21.892	62.8299
21.91	62.8533
21.928	62.8765
21.946	62.8991
21.964	62.9211
21.982	62.9417
22	62.9609
22.018	62.9783
22.036	62.9933
22.054	63.0061
22.072	63.0164
22.09	63.024
22.108	63.029
22.126	63.0315
22.144	63.0313
22.162	63.0288
22.18	63.0246
22.198	63.0183
22.216	63.0108
22.234	63.0029
22.252	62.9942
22.27	62.9857
22.288	62.9779
22.306	62.9704
22.324	62.964
22.342	62.9589
22.36	62.9547
22.378	62.9513
22.396	62.949
22.414	62.9468
22.432	62.9439
22.45	62.9412
22.468	62.9362
22.486	62.9279
22.504	62.9169
22.522	62.9
22.54	62.8767
22.558	62.8471
22.576	62.8079
22.594	62.7593
22.612	62.701
22.63	62.6308
22.648	62.549
22.666	62.4558
22.684	62.3509
22.702	62.2339
22.72	62.1066
22.738	61.9704
22.756	61.824
22.774	61.6715
22.792	61.5147
22.81	61.3521
22.828	61.1895
22.846	61.0288
22.864	60.8686
22.882	60.7149
22.9	60.569
22.918	60.4299
22.936	60.3033
22.954	60.1898
22.972	60.0887
22.99	60.003
23.008	59.9328
23.026	59.8778
23.044	59.8388
23.062	59.8162
23.08	59.8092
23.098	59.8169
23.116	59.84
23.134	59.8772
23.152	59.9265
23.17	59.9889
23.188	60.0628
23.206	60.145
23.224	60.2367
23.242	60.3365
23.26	60.441
23.278	60.5516
23.296	60.6669
23.314	60.7836
23.332	60.9028
23.35	61.0235
23.368	61.1434
23.386	61.2631
23.404	61.382
23.422	61.4982
23.44	61.6119
23.458	61.723
23.476	61.8301
23.494	61.9336
23.512	62.0332
23.53	62.1274
23.548	62.2162
23.566	62.2998
23.584	62.3776
23.602	62.4494
23.62	62.5156
23.638	62.5765
23.656	62.6322
23.674	62.6826
23.692	62.7286
23.71	62.7705
23.728	62.808
23.746	62.8419
23.764	62.8728
23.782	62.9002
23.8	62.9249
23.818	62.9477
23.836	62.968
23.854	62.9864
23.872	63.0033
23.89	63.0187
23.908	63.0326
23.926	63.0455
23.944	63.0572
23.962	63.0678
23.98	63.0775
23.998	63.0865
24.016	63.0947
24.034	63.1017
24.052	63.1074
24.07	63.112
24.088	63.1149
24.106	63.1156
24.124	63.1141
24.142	63.1108
24.16	63.106
24.178	63.0993
24.196	63.0912
24.214	63.0822
24.232	63.072
24.25	63.0608
24.268	63.0501
24.286	63.0406
24.304	63.0315
24.322	63.0236
24.34	63.0176
24.358	63.0134
24.376	63.0106
24.394	63.009
24.412	63.0095
24.43	63.011
24.448	63.0114
24.466	63.0108
24.484	63.0098
24.502	63.0053
24.52	62.9953
24.538	62.9821
24.556	62.9627
24.574	62.9336
24.592	62.8971
24.61	62.8515
24.628	62.7923
24.646	62.718
24.664	62.6306
24.682	62.5281
24.7	62.4085
24.718	62.2723
24.736	62.1206
24.754	61.9546
24.772	61.7719
24.79	61.5744
24.808	61.368
24.826	61.1547
24.844	60.9305
24.862	60.7027
24.88	60.4789
24.898	60.2529
24.916	60.0294
24.934	59.8196
24.952	59.6266
24.97	59.4443
24.988	59.2835
25.006	59.1538
25.024	59.0482
25.042	58.9711
25.06	58.9323
25.078	58.9346
25.096	58.973
25.114	59.0534
25.132	59.1812
25.15	59.3544
25.168	59.5722
25.186	59.8347
25.204	60.1436
25.222	60.4986
25.24	60.8945
25.258	61.3271
25.276	61.8035
25.294	62.3161
25.312	62.8522
25.33	63.409
25.348	63.9954
25.366	64.5934
25.384	65.1849
25.402	65.781
25.42	66.3772
25.438	66.9533
25.456	67.4973
25.474	68.0239
25.492	68.5198
25.51	68.9678
25.528	69.3699
25.546	69.7309
25.564	70.0369
25.582	70.2757
25.6	70.4557
25.618	70.5741
25.636	70.6232
25.654	70.598
25.672	70.5026
25.69	70.339
25.708	70.1088
25.726	69.8073
25.744	69.4377
25.762	69.0106
25.78	68.5343
25.798	67.9975
25.816	67.4104
25.834	66.7897
25.852	66.1418
25.87	65.4528
25.888	64.741
25.906	64.027
25.924	63.3081
25.942	62.5774
25.96	61.8543
25.978	61.1572
25.996	60.474
26.014	59.8082
26.032	59.1767
26.05	58.5922
26.068	58.0414
26.086	57.532
26.104	57.0771
26.122	56.683
26.14	56.34
26.158	56.0551
26.176	55.8368
26.194	55.6874
26.212	55.6022
26.23	55.5823
26.248	55.629
26.266	55.7438
26.284	55.9249
26.302	56.1687
26.32	56.4724
26.338	56.8385
26.356	57.2654
26.374	57.7489
26.392	58.2857
26.41	58.8811
26.428	59.5303
26.446	60.2258
26.464	60.963
26.482	61.751
26.5	62.5807
26.518	63.4399
26.536	64.3229
26.554	65.2417
26.572	66.1841
26.59	67.1354
26.608	68.0904
26.626	69.0627
26.644	70.0373
26.662	70.9974
26.68	71.9382
26.698	72.8733
26.716	73.7883
26.734	74.6674
26.752	75.5076
26.77	76.3215
26.788	77.0943
26.806	77.8101
26.824	78.464
26.842	79.0666
26.86	79.6117
26.878	80.0925
26.896	80.5053
26.914	80.8545
26.932	81.1415
26.95	81.3675
26.968	81.5224
26.986	81.5986
27.004	81.6286
27.022	81.6463
27.028	81.6535