File: Bakgrunnsmateriale/MATLAB/FTIR/ftir_data/subBb/Mapping_36/C-4040-8_t31_cm-1.asc
PE IR       SPECTRUM    SPECTRUM    ASCII       PEDS        1.60
  -1
C-1BE4~1.ASC
17/05/02
13:30:41.00
17/05/02
13:30:41.00
tln
$C-4040-8_t0031$<tbV0>[12.5,12.0,8.0,0.0,22,1,0]
370
64

2002,4.07
MIRTGS : RIGHTBACK : INTERNAL 2
MIR : ON : INTERNAL 2
OPTKBR

0.200000
8
8.000000
FILLER
RATIO
SPECTRUM
UNLOCKED 256

DOUBLE
64
COMBINED
1
0
0

1.000000
RATIO

1
0
TRUE
51149
0
LEFT NOT FITTED RIGHT NOT FITTED 0
NONE
NONE
15600
12
4.427000
51148
TRUE
1 0 8 72 0 0 0 0

15798

#HDR
-1
-1
#GR
CM-1
%T
2.38419e-05
0.0
7800
-1.000000
7431
8
107.606
55.6235
#DATA
7800	71.5626
7795	73.1789
7790	66.3151
7785	68.0911
7780	69.6172
7775	65.23
7770	68.9326
7765	66.7904
7760	64.0181
7755	69.1164
7750	68.2708
7745	64.9845
7740	70.7293
7735	77.5059
7730	71.2946
7725	65.5335
7720	62.291
7715	64.2169
7710	65.6133
7705	67.1273
7700	67.5912
7695	68.1509
7690	70.9904
7685	70.2396
7680	70.7208
7675	69.192
7670	66.5758
7665	68.6409
7660	68.7759
7655	69.4295
7650	73.5228
7645	71.7477
7640	66.4102
7635	66.6661
7630	69.5568
7625	69.8097
7620	67.8643
7615	66.1581
7610	66.7201
7605	63.1739
7600	64.0144
7595	69.3916
7590	70.1481
7585	66.8845
7580	64.3993
7575	67.3829
7570	70.8926
7565	64.0213
7560	60.8479
7555	65.6749
7550	68.8049
7545	68.8809
7540	65.9626
7535	65.3831
7530	66.7487
7525	63.9936
7520	62.3052
7515	62.5715
7510	65.0256
7505	67.8926
7500	66.458
7495	65.267
7490	65.2741
7485	64.8518
7480	65.1637
7475	65.9496
7470	64.9482
7465	65.5796
7460	65.5987
7455	65.0364
7450	62.2868
7445	61.8315
7440	64.0462
7435	65.2971
7430	65.6994
7425	67.0969
7420	66.0501
7415	66.1652
7410	64.3322
7405	63.9523
7400	65.5449
7395	64.9471
7390	64.0989
7385	62.9699
7380	62.9521
7375	63.6606
7370	66.1429
7365	66.0329
7360	64.7432
7355	67.4188
7350	66.3143
7345	64.1985
7340	63.8002
7335	63.5651
7330	63.6603
7325	65.7444
7320	67.2204
7315	66.2258
7310	65.192
7305	64.1293
7300	63.7922
7295	64.4879
7290	65.9457
7285	68.7264
7280	69.5861
7275	66.5733
7270	64.962
7265	66.3965
7260	67.7318
7255	67.4356
7250	67.9038
7245	66.7197
7240	65.0485
7235	63.095
7230	62.5756
7225	63.6845
7220	65.6942
7215	66.061
7210	65.3314
7205	63.5732
7200	62.6534
7195	63.2827
7190	64.4895
7185	66.1997
7180	64.5232
7175	64.4437
7170	64.9495
7165	64.1868
7160	63.6548
7155	64.5861
7150	65.6
7145	66.6303
7140	65.449
7135	63.6138
7130	63.5705
7125	64.0186
7120	63.6435
7115	63.9634
7110	64.8514
7105	64.4873
7100	64.1712
7095	64.6059
7090	65.7729
7085	66.4192
7080	65.5384
7075	64.2721
7070	63.4946
7065	63.1898
7060	61.6628
7055	61.5675
7050	63.3002
7045	65.3599
7040	64.668
7035	64.7828
7030	69.2617
7025	69.2446
7020	66.9122
7015	66.7436
7010	64.0915
7005	62.1257
7000	64.0316
6995	67.3879
6990	66.9548
6985	64.1981
6980	62.5848
6975	62.9947
6970	64.6054
6965	66.7448
6960	66.9189
6955	64.2353
6950	63.9862
6945	65.6886
6940	65.0328
6935	64.2028
6930	64.1296
6925	64.822
6920	64.696
6915	64.9039
6910	65.2516
6905	64.9684
6900	64.6446
6895	63.5021
6890	63.6921
6885	64.2069
6880	64.3481
6875	64.7473
6870	64.3678
6865	64.3445
6860	63.7295
6855	63.1028
6850	63.3699
6845	64.2796
6840	65.0644
6835	65.9412
6830	66.1024
6825	65.4434
6820	65.2206
6815	65.2718
6810	66.1316
6805	66.1335
6800	65.3491
6795	65.5307
6790	64.826
6785	64.6125
6780	65.489
6775	65.4349
6770	64.0062
6765	64.911
6760	66.049
6755	65.6237
6750	65.0919
6745	64.1053
6740	63.0361
6735	63.1364
6730	63.1296
6725	62.9427
6720	63.8928
6715	65.2489
6710	66.4993
6705	66.32
6700	65.5885
6695	63.8601
6690	64.5962
6685	65.8139
6680	65.4235
6675	64.8537
6670	64.5266
6665	64.3589
6660	63.63
6655	62.6751
6650	62.9991
6645	63.6335
6640	64.5411
6635	64.4484
6630	64.0121
6625	64.4675
6620	65.3986
6615	65.8883
6610	66.0385
6605	64.4829
6600	63.9679
6595	64.8653
6590	64.4787
6585	63.5744
6580	63.729
6575	64.1429
6570	63.7643
6565	63.3368
6560	64.3348
6555	65.5133
6550	64.4168
6545	63.5527
6540	64.5157
6535	65.4758
6530	64.5435
6525	64.145
6520	65.3494
6515	65.9259
6510	65.152
6505	64.4064
6500	64.3717
6495	65.0278
6490	66.3117
6485	65.715
6480	63.9916
6475	63.4048
6470	64.3425
6465	65.3231
6460	65.4855
6455	65.6967
6450	65.2625
6445	64.5102
6440	64.8489
6435	64.4767
6430	64.2852
6425	64.4101
6420	63.9142
6415	63.5006
6410	64.3093
6405	65.44
6400	64.8622
6395	64.7578
6390	64.5051
6385	64.2315
6380	64.8283
6375	64.3582
6370	65.2055
6365	65.5608
6360	64.9552
6355	65.0847
6350	65.8963
6345	66.4004
6340	65.5744
6335	64.4315
6330	64.2987
6325	64.5161
6320	64.4579
6315	65.008
6310	64.9035
6305	64.487
6300	64.6222
6295	65.1086
6290	64.8051
6285	64.1516
6280	64.3629
6275	65.2611
6270	65.2546
6265	64.8115
6260	64.2481
6255	63.5975
6250	63.4418
6245	63.0624
6240	63.6358
6235	64.5434
6230	64.7243
6225	64.3212
6220	63.8237
6215	64.3448
6210	65.0855
6205	64.7949
6200	64.7881
6195	65.2523
6190	64.9078
6185	64.3178
6180	63.469
6175	64.1361
6170	65.6278
6165	66.14
6160	65.0817
6155	64.428
6150	65.1734
6145	64.8928
6140	64.7672
6135	65.5811
6130	66.6287
6125	65.6539
6120	64.5863
6115	64.6111
6110	65.1444
6105	65.4108
6100	65.1272
6095	64.946
6090	64.2389
6085	63.5059
6080	63.1862
6075	63.813
6070	64.4883
6065	64.7773
6060	64.5846
6055	65.1011
6050	65.4726
6045	64.2955
6040	64.1963
6035	64.9151
6030	65.061
6025	64.8131
6020	64.5653
6015	65.035
6010	65.9228
6005	66.2757
6000	65.6685
5995	65.1171
5990	64.8252
5985	64.9554
5980	65.5181
5975	64.953
5970	64.6763
5965	65.2112
5960	65.3285
5955	64.9052
5950	64.8929
5945	65.1885
5940	64.7081
5935	64.2562
5930	64.7617
5925	65.4655
5920	65.2739
5915	64.2972
5910	63.9518
5905	64.6046
5900	65.281
5895	64.8099
5890	64.6169
5885	64.9744
5880	65.5228
5875	65.5426
5870	65.0501
5865	64.2983
5860	64.3543
5855	64.9182
5850	65.2432
5845	65.1442
5840	64.9779
5835	65.0218
5830	65.3562
5825	65.2727
5820	64.8291
5815	64.8714
5810	64.9291
5805	64.7292
5800	64.4254
5795	64.7732
5790	64.9456
5785	64.3788
5780	64.6002
5775	65.4474
5770	65.6142
5765	65.7229
5760	65.8382
5755	65.6256
5750	65.7288
5745	65.7094
5740	65.5551
5735	65.4326
5730	64.8877
5725	64.7001
5720	64.8669
5715	65.2082
5710	65.0927
5705	64.3788
5700	64.3718
5695	64.7612
5690	65.1191
5685	64.8401
5680	64.6932
5675	65.1858
5670	65.3277
5665	64.8416
5660	64.613
5655	65.1111
5650	65.5287
5645	65.432
5640	65.3426
5635	65.4522
5630	65.5863
5625	65.7093
5620	65.2566
5615	64.8739
5610	65.0936
5605	65.757
5600	65.6146
5595	64.8419
5590	65.0639
5585	65.1583
5580	64.9255
5575	65.5599
5570	65.6212
5565	65.5464
5560	65.6247
5555	65.3052
5550	64.9066
5545	64.8071
5540	65.46
5535	65.5147
5530	65.1149
5525	64.7621
5520	64.3283
5515	64.7817
5510	65.1541
5505	64.5377
5500	64.9451
5495	65.2746
5490	64.7648
5485	64.9005
5480	65.2817
5475	65.2783
5470	64.8456
5465	64.1577
5460	64.7882
5455	65.631
5450	64.861
5445	63.8977
5440	63.688
5435	63.853
5430	64.6095
5425	64.8621
5420	64.5126
5415	64.7049
5410	64.9868
5405	65.0805
5400	65.101
5395	65.2848
5390	65.2971
5385	65.0693
5380	64.8921
5375	65.0477
5370	65.0469
5365	65.0334
5360	64.9854
5355	64.5622
5350	64.0192
5345	63.5391
5340	64.0686
5335	64.5108
5330	63.7705
5325	62.7241
5320	63.6736
5315	65.0345
5310	63.4941
5305	62.5236
5300	63.5051
5295	65.7739
5290	65.5094
5285	63.584
5280	60.0846
5275	61.1667
5270	65.0321
5265	65.5776
5260	65.075
5255	65.5415
5250	66.0363
5245	65.8026
5240	64.908
5235	64.4117
5230	65.1219
5225	65.5833
5220	65.411
5215	65.2218
5210	65.3533
5205	65.1484
5200	64.681
5195	64.7005
5190	64.9344
5185	65.3346
5180	65.5677
5175	65.0237
5170	64.5941
5165	64.8284
5160	65.1088
5155	65.1261
5150	64.8082
5145	64.6996
5140	65.121
5135	65.173
5130	65.0992
5125	64.962
5120	64.6149
5115	64.4425
5110	64.7093
5105	64.9531
5100	64.8984
5095	64.7559
5090	64.9466
5085	64.9171
5080	64.6341
5075	64.61
5070	64.6034
5065	64.8068
5060	65.0542
5055	65.0076
5050	64.6664
5045	64.6722
5040	64.6802
5035	64.7447
5030	64.712
5025	64.7438
5020	65.0314
5015	65.2338
5010	65.0919
5005	65.0498
5000	65.0015
4995	65.0612
4990	65.1098
4985	64.8018
4980	64.7119
4975	64.5951
4970	64.388
4965	64.4805
4960	64.5596
4955	64.7215
4950	64.8162
4945	64.561
4940	64.3207
4935	64.4527
4930	64.5859
4925	64.7966
4920	64.9904
4915	64.839
4910	64.5059
4905	64.4858
4900	64.536
4895	64.2822
4890	64.2567
4885	64.195
4880	64.2449
4875	64.3514
4870	64.7005
4865	64.6935
4860	64.5081
4855	64.7018
4850	64.9935
4845	64.878
4840	65.0625
4835	65.2531
4830	65.1233
4825	65.0359
4820	65.0585
4815	64.8996
4810	64.812
4805	64.7474
4800	64.6897
4795	64.8976
4790	65.0389
4785	65.065
4780	65.238
4775	65.3103
4770	65.1524
4765	65.0601
4760	65.3325
4755	65.2956
4750	65.3106
4745	65.4943
4740	65.3714
4735	65.2962
4730	65.3125
4725	65.2458
4720	65.2616
4715	65.1839
4710	64.9686
4705	65.0347
4700	65.1641
4695	65.2888
4690	65.1711
4685	65.0359
4680	65.1342
4675	65.2438
4670	65.372
4665	65.5102
4660	65.3874
4655	64.9863
4650	65.0858
4645	65.4243
4640	65.1595
4635	64.7898
4630	64.8056
4625	64.9764
4620	65.247
4615	65.3543
4610	65.1304
4605	64.8643
4600	64.8947
4595	64.8097
4590	64.8796
4585	64.9837
4580	64.893
4575	64.7829
4570	64.9409
4565	64.9925
4560	64.7017
4555	64.274
4550	64.365
4545	64.4796
4540	64.503
4535	64.4084
4530	64.3593
4525	64.2324
4520	63.8536
4515	63.9736
4510	64.0934
4505	63.911
4500	63.8452
4495	63.9289
4490	64.0006
4485	64.3811
4480	64.6003
4475	64.1263
4470	63.8259
4465	63.7805
4460	63.6775
4455	63.5315
4450	63.6447
4445	63.6887
4440	63.3699
4435	63.4421
4430	64.1632
4425	64.5467
4420	63.2488
4415	62.4445
4410	63.9887
4405	64.4877
4400	62.636
4395	63.303
4390	94.4214
4385	103.313
4380	74.4546
4375	65.3343
4370	65.1475
4365	64.4147
4360	63.6906
4355	63.625
4350	63.1814
4345	63.2869
4340	63.6864
4335	63.5846
4330	63.4783
4325	63.8025
4320	64.1281
4315	63.9036
4310	63.7103
4305	63.8683
4300	63.9076
4295	63.8711
4290	64.1415
4285	64.556
4280	64.3147
4275	64.1218
4270	64.2596
4265	64.317
4260	64.2486
4255	64.1827
4250	64.3344
4245	64.3302
4240	64.4564
4235	64.6945
4230	64.6339
4225	64.4108
4220	64.4178
4215	64.7042
4210	64.8783
4205	64.5741
4200	64.4728
4195	64.7182
4190	65.0493
4185	65.145
4180	65.0135
4175	65.0183
4170	65.0741
4165	64.9738
4160	64.9297
4155	65.1043
4150	65.1786
4145	65.1397
4140	65.0122
4135	64.9345
4130	65.17
4125	65.3043
4120	65.2303
4115	65.2061
4110	65.3447
4105	65.2927
4100	65.3114
4095	65.4198
4090	65.4261
4085	65.3855
4080	65.1282
4075	65.1525
4070	65.3729
4065	65.4876
4060	65.4125
4055	65.2533
4050	65.3092
4045	65.3739
4040	65.2843
4035	65.2166
4030	65.2338
4025	65.1579
4020	65.1991
4015	65.2038
4010	65.0184
4005	64.8994
4000	64.9279
3995	65.0415
3990	65.2895
3985	65.3834
3980	65.1273
3975	64.9914
3970	65.0919
3965	65.1352
3960	65.0395
3955	65.0831
3950	65.1028
3945	65.0123
3940	65.0506
3935	65.1602
3930	65.1379
3925	65.0784
3920	65.0411
3915	64.9237
3910	64.8469
3905	64.9804
3900	65.197
3895	65.22
3890	65.1253
3885	65.0518
3880	64.8733
3875	64.8801
3870	65.0564
3865	65.1242
3860	65.1083
3855	65.0843
3850	64.9871
3845	64.8478
3840	64.9529
3835	65.0535
3830	64.9362
3825	65.1384
3820	65.3872
3815	65.3034
3810	65.1353
3805	65.1482
3800	65.1463
3795	65.0474
3790	65.022
3785	65.061
3780	65.1618
3775	65.2617
3770	65.2458
3765	65.1917
3760	65.1999
3755	65.0687
3750	65.0482
3745	65.2576
3740	65.3232
3735	65.2603
3730	65.143
3725	65.0806
3720	65.1386
3715	65.2049
3710	65.2445
3705	65.1957
3700	65.2241
3695	65.2326
3690	65.187
3685	65.1825
3680	65.1091
3675	65.1911
3670	65.3288
3665	65.2277
3660	65.2308
3655	65.2397
3650	65.2975
3645	65.3843
3640	65.3224
3635	65.2642
3630	65.2381
3625	65.2305
3620	65.375
3615	65.3868
3610	65.1628
3605	65.0774
3600	65.1607
3595	65.2304
3590	65.1044
3585	65.1135
3580	65.2419
3575	65.1801
3570	65.1293
3565	65.1788
3560	65.1726
3555	65.2567
3550	65.3604
3545	65.4044
3540	65.3039
3535	65.1855
3530	65.1829
3525	65.1272
3520	64.9813
3515	65.0208
3510	65.1536
3505	65.1217
3500	64.9846
3495	64.9831
3490	65.2435
3485	65.1419
3480	64.8821
3475	64.8945
3470	64.8928
3465	65.1094
3460	65.262
3455	65.2945
3450	65.36
3445	65.3511
3440	65.2422
3435	65.1608
3430	65.2456
3425	65.2767
3420	65.1561
3415	65.1135
3410	65.1092
3405	65.0924
3400	65.1767
3395	65.1099
3390	64.9257
3385	65.1279
3380	65.1721
3375	65.0592
3370	65.1369
3365	65.0863
3360	65.0057
3355	65.0789
3350	65.1367
3345	65.1195
3340	65.1407
3335	65.1836
3330	65.245
3325	65.2682
3320	65.2153
3315	65.1321
3310	65.1369
3305	65.1475
3300	65.1195
3295	65.1072
3290	65.158
3285	65.2663
3280	65.234
3275	65.2103
3270	65.2183
3265	65.2549
3260	65.2979
3255	65.2053
3250	65.1484
3245	65.1282
3240	65.1402
3235	65.1445
3230	65.1453
3225	65.2622
3220	65.2555
3215	65.1665
3210	65.1555
3205	65.143
3200	65.0602
3195	65.162
3190	65.2772
3185	65.2361
3180	65.3139
3175	65.3469
3170	65.183
3165	65.0868
3160	65.1296
3155	65.1104
3150	65.1393
3145	65.2343
3140	65.2116
3135	65.1458
3130	65.157
3125	65.2325
3120	65.2841
3115	65.242
3110	65.257
3105	65.2458
3100	65.1652
3095	65.21
3090	65.2409
3085	65.2216
3080	65.166
3075	65.1034
3070	65.1296
3065	65.2
3060	65.1469
3055	65.0578
3050	65.1614
3045	65.2218
3040	65.2085
3035	65.2035
3030	65.1735
3025	65.1199
3020	65.1581
3015	65.1854
3010	65.214
3005	65.2434
3000	65.1867
2995	65.1075
2990	65.0401
2985	65.0056
2980	65.0271
2975	64.9844
2970	64.8817
2965	64.8605
2960	64.9448
2955	64.9575
2950	64.9736
2945	65.0336
2940	65.028
2935	64.9081
2930	64.8322
2925	64.8001
2920	64.735
2915	64.8329
2910	64.976
2905	64.9898
2900	64.9789
2895	64.9939
2890	65.0609
2885	65.1014
2880	65.097
2875	65.0814
2870	65.0705
2865	64.9855
2860	64.9491
2855	65.0434
2850	65.1105
2845	65.1406
2840	65.0849
2835	65.1378
2830	65.2093
2825	65.1556
2820	65.1247
2815	65.1806
2810	65.3229
2805	65.3354
2800	65.2461
2795	65.2605
2790	65.2955
2785	65.3072
2780	65.2835
2775	65.2687
2770	65.1982
2765	65.2013
2760	65.3401
2755	65.3326
2750	65.236
2745	65.2542
2740	65.266
2735	65.2795
2730	65.2107
2725	65.1459
2720	65.1612
2715	65.2092
2710	65.271
2705	65.3212
2700	65.2931
2695	65.2313
2690	65.2378
2685	65.2192
2680	65.1973
2675	65.2558
2670	65.2602
2665	65.2918
2660	65.3019
2655	65.2655
2650	65.2719
2645	65.2276
2640	65.2234
2635	65.3212
2630	65.4078
2625	65.4197
2620	65.3624
2615	65.2598
2610	65.2611
2605	65.3184
2600	65.3668
2595	65.3658
2590	65.3513
2585	65.3265
2580	65.3533
2575	65.3261
2570	65.3775
2565	65.4143
2560	65.3929
2555	65.2854
2550	65.2176
2545	65.2018
2540	65.2586
2535	65.3337
2530	65.3186
2525	65.3124
2520	65.2729
2515	65.2562
2510	65.311
2505	65.3373
2500	65.3103
2495	65.3132
2490	65.3329
2485	65.2889
2480	65.296
2475	65.3336
2470	65.3276
2465	65.356
2460	65.3303
2455	65.2811
2450	65.2411
2445	65.3285
2440	65.4228
2435	65.3679
2430	65.3325
2425	65.4283
2420	65.4374
2415	65.3709
2410	65.3462
2405	65.3568
2400	65.391
2395	65.2937
2390	65.2508
2385	65.2248
2380	65.2482
2375	65.3711
2370	65.3965
2365	65.3094
2360	65.2663
2355	65.2925
2350	65.3123
2345	65.329
2340	65.38
2335	65.4102
2330	65.3545
2325	65.3069
2320	65.3488
2315	65.3649
2310	65.3604
2305	65.3906
2300	65.4202
2295	65.4069
2290	65.3707
2285	65.3762
2280	65.3603
2275	65.2981
2270	65.2993
2265	65.3519
2260	65.3712
2255	65.382
2250	65.4163
2245	65.4282
2240	65.4071
2235	65.3571
2230	65.3737
2225	65.3667
2220	65.3024
2215	65.2831
2210	65.2834
2205	65.3112
2200	65.406
2195	65.4381
2190	65.4234
2185	65.4206
2180	65.3806
2175	65.3697
2170	65.3521
2165	65.278
2160	65.233
2155	65.3196
2150	65.493
2145	65.4616
2140	65.3506
2135	65.3268
2130	65.3244
2125	65.347
2120	65.2964
2115	65.2653
2110	65.2957
2105	65.3239
2100	65.3152
2095	65.3129
2090	65.3626
2085	65.3966
2080	65.3537
2075	65.3283
2070	65.2721
2065	65.2672
2060	65.298
2055	65.3272
2050	65.387
2045	65.4234
2040	65.4049
2035	65.3779
2030	65.3424
2025	65.3139
2020	65.325
2015	65.29
2010	65.3497
2005	65.3988
2000	65.3392
1995	65.3056
1990	65.3626
1985	65.4221
1980	65.4007
1975	65.3807
1970	65.4256
1965	65.407
1960	65.4027
1955	65.4763
1950	65.3906
1945	65.2622
1940	65.3365
1935	65.3887
1930	65.3589
1925	65.2925
1920	65.306
1915	65.3533
1910	65.3657
1905	65.4107
1900	65.4434
1895	65.4876
1890	65.428
1885	65.3902
1880	65.3507
1875	65.3109
1870	65.3078
1865	65.3081
1860	65.3417
1855	65.3338
1850	65.4092
1845	65.446
1840	65.4177
1835	65.4029
1830	65.3744
1825	65.416
1820	65.446
1815	65.4198
1810	65.3735
1805	65.4057
1800	65.4239
1795	65.3378
1790	65.3188
1785	65.3477
1780	65.3931
1775	65.4148
1770	65.4262
1765	65.3956
1760	65.3378
1755	65.3632
1750	65.3219
1745	65.2271
1740	65.1542
1735	65.0383
1730	64.9894
1725	65.0134
1720	65.1745
1715	65.3576
1710	65.3888
1705	65.3115
1700	65.2459
1695	65.2856
1690	65.2634
1685	65.2909
1680	65.2727
1675	65.2179
1670	65.2018
1665	65.2002
1660	65.2485
1655	65.2311
1650	65.1608
1645	65.15
1640	65.2338
1635	65.2735
1630	65.2949
1625	65.3204
1620	65.2598
1615	65.2522
1610	65.2819
1605	65.2291
1600	65.1439
1595	65.1455
1590	65.1604
1585	65.0517
1580	65.0205
1575	65.0476
1570	64.9791
1565	65.0594
1560	65.1981
1555	65.193
1550	65.1905
1545	65.1589
1540	65.1101
1535	65.0506
1530	65.0198
1525	65.0887
1520	65.1898
1515	65.2549
1510	65.1394
1505	65.0445
1500	65.1044
1495	65.1127
1490	65.1762
1485	65.2615
1480	65.1533
1475	65.1352
1470	65.1591
1465	65.099
1460	65.1814
1455	65.2997
1450	65.2057
1445	65.0918
1440	65.1787
1435	65.2895
1430	65.2834
1425	65.3135
1420	65.2771
1415	65.182
1410	65.1427
1405	65.2173
1400	65.2136
1395	65.1901
1390	65.1207
1385	65.093
1380	65.1955
1375	65.2378
1370	65.2023
1365	65.2145
1360	65.1516
1355	65.1924
1350	65.1764
1345	65.1433
1340	65.184
1335	65.2547
1330	65.2942
1325	65.3616
1320	65.2838
1315	65.2207
1310	65.2276
1305	65.2056
1300	65.2259
1295	65.2759
1290	65.2275
1285	65.1853
1280	65.1857
1275	65.1097
1270	65.0521
1265	65.1118
1260	65.2636
1255	65.1808
1250	65.0206
1245	65.0997
1240	65.199
1235	65.2579
1230	65.2604
1225	65.1668
1220	65.1284
1215	65.122
1210	65.0297
1205	65.0796
1200	65.1481
1195	65.0612
1190	64.9394
1185	65.0263
1180	65.0905
1175	65.0034
1170	65.0033
1165	64.9847
1160	64.9639
1155	64.9979
1150	64.8702
1145	64.8356
1140	64.9045
1135	64.9326
1130	64.9527
1125	65.0253
1120	65.1187
1115	65.0176
1110	64.8824
1105	64.9578
1100	64.9751
1095	64.9449
1090	64.9904
1085	64.9065
1080	64.8552
1075	64.8382
1070	64.9191
1065	65.014
1060	64.9532
1055	65.0011
1050	65.1333
1045	65.1259
1040	65.0854
1035	65.0969
1030	64.971
1025	64.9067
1020	65.0098
1015	65.0671
1010	64.941
1005	64.948
1000	65.0074
995	 64.936
990	 64.875
985	 64.9141
980	 64.9429
975	 64.9535
970	 64.9175
965	 64.8854
960	 64.8828
955	 64.771
950	 64.733
945	 64.7369
940	 64.8123
935	 64.8467
930	 65.0584
925	 65.2246
920	 64.7827
915	 64.6784
910	 64.7351
905	 64.6452
900	 64.3339
895	 64.1251
890	 64.6177
885	 64.6936
880	 64.419
875	 64.3239
870	 64.3874
865	 64.5836
860	 64.7227
855	 64.8058
850	 64.9076
845	 64.8426
840	 64.7711
835	 64.8027
830	 64.9332
825	 65.1561
820	 65.1469
815	 64.88
810	 64.6239
805	 64.6219
800	 64.6614
795	 64.6546
790	 64.6214
785	 64.5126
780	 64.5058
775	 64.6444
770	 64.575
765	 64.2899
760	 64.1302
755	 64.0306
750	 64.0435
745	 64.163
740	 64.3003
735	 64.4126
730	 64.37
725	 64.2481
720	 64.1932
715	 64.2895
710	 64.2754
705	 64.1786
700	 64.0028
695	 64.0871
690	 64.0703
685	 63.8854
680	 63.9188
675	 63.8954
670	 63.8546
665	 63.7588
660	 63.883
655	 64.0525
650	 63.8627
645	 63.5761
640	 63.6861
635	 63.9472
630	 63.7653
625	 63.6373
620	 63.6108
615	 63.7143
610	 63.8613
605	 63.8971
600	 63.8529
595	 63.6275
590	 63.5317
585	 63.5348
580	 63.3918
575	 63.4085
570	 62.9541
565	 62.633
560	 62.7503
555	 63.0063
550	 63.2547
545	 63.138
540	 63.2321
535	 63.3422
530	 62.9375
525	 62.7791
520	 62.3999
515	 62.4065
510	 62.6759
505	 62.8123
500	 62.9339
495	 62.53
490	 62.1603
485	 62.3992
480	 62.6081
475	 61.7954
470	 61.9606
465	 62.5046
460	 62.6641
455	 62.9373
450	 63.0081
445	 62.9345
440	 62.0528
435	 60.0094
430	 60.4163
425	 62.1245
420	 62.9372
415	 63.1155
410	 63.0092
405	 62.4681
400	 59.1937
395	 62.987
390	 70.6235
385	 61.3087
380	 56.396
375	 71.2419
370	 81.6535