File: Bakgrunnsmateriale/MATLAB/FTIR/ftir_data/subBb/Mapping_36/C-4040-8_t07_cm-1.asc
PE IR       SPECTRUM    SPECTRUM    ASCII       PEDS        1.60
  -1
C-99EF~1.ASC
17/05/02
11:23:29.00
17/05/02
11:23:29.00
tln
$C-4040-8_t0007$<tbV0>[12.5,-8.0,8.0,0.0,22,1,0]
370
64

2002,4.07
MIRTGS : RIGHTBACK : INTERNAL 2
MIR : ON : INTERNAL 2
OPTKBR

0.200000
8
8.000000
FILLER
RATIO
SPECTRUM
UNLOCKED 256

DOUBLE
64
COMBINED
1
0
0

1.000000
RATIO

1
0
TRUE
51149
0
LEFT NOT FITTED RIGHT NOT FITTED 0
NONE
NONE
15600
12
4.427000
51148
TRUE
1 0 8 72 0 0 0 0

15798

#HDR
-1
-1
#GR
CM-1
%T
2.38419e-05
0.0
7800
-1.000000
7431
8
94.1918
48.7352
#DATA
7800	68.295
7795	63.0128
7790	62.2637
7785	66.5495
7780	64.4453
7775	64.9202
7770	72.9708
7765	69.6651
7760	68.3726
7755	73.3209
7750	74.5451
7745	76.6377
7740	78.1611
7735	75.2406
7730	69.7306
7725	61.4413
7720	58.7383
7715	63.4578
7710	62.4118
7705	60.6023
7700	59.0439
7695	58.2692
7690	61.2032
7685	64.3024
7680	66.63
7675	68.9445
7670	70.3081
7665	68.4045
7660	66.0604
7655	68.8092
7650	69.1484
7645	66.5011
7640	72.4829
7635	73.6511
7630	69.6734
7625	69.8408
7620	70.6655
7615	69.124
7610	67.4837
7605	64.5525
7600	62.5014
7595	61.6665
7590	64.201
7585	68.9533
7580	67.7876
7575	64.9732
7570	65.4113
7565	69.8914
7560	68.9477
7555	67.8089
7550	67.2242
7545	65.761
7540	66.2133
7535	64.9631
7530	63.301
7525	62.33
7520	62.6818
7515	63.8214
7510	65.7116
7505	66.6557
7500	63.3574
7495	62.8681
7490	65.8435
7485	66.5808
7480	65.4615
7475	63.3147
7470	64.2006
7465	67.5442
7460	66.5545
7455	66.4254
7450	66.3743
7445	64.9369
7440	62.7321
7435	61.2079
7430	61.8222
7425	65.7231
7420	67.6586
7415	66.637
7410	65.9229
7405	67.9879
7400	69.0374
7395	66.4659
7390	66.3822
7385	65.3334
7380	65.3701
7375	62.0822
7370	59.8037
7365	62.9405
7360	65.0334
7355	63.3698
7350	61.4986
7345	64.2699
7340	66.7656
7335	66.1261
7330	65.231
7325	66.2759
7320	68.9122
7315	68.1022
7310	64.2688
7305	61.9402
7300	61.7358
7295	64.5244
7290	67.2195
7285	66.7606
7280	66.8098
7275	65.1817
7270	63.2153
7265	64.0569
7260	63.8688
7255	63.293
7250	63.7119
7245	64.2147
7240	62.8182
7235	64.271
7230	65.8805
7225	67.2227
7220	67.8549
7215	66.7327
7210	64.381
7205	62.4914
7200	63.26
7195	65.5165
7190	66.1654
7185	65.0715
7180	63.8495
7175	62.7694
7170	62.5355
7165	62.7326
7160	61.7848
7155	62.6912
7150	64.2719
7145	64.9965
7140	63.0483
7135	62.5596
7130	63.2188
7125	63.1125
7120	63.1464
7115	63.4183
7110	62.6755
7105	62.5332
7100	64.807
7095	68.1599
7090	67.5564
7085	64.9338
7080	64.1146
7075	64.8994
7070	64.7295
7065	65.1847
7060	65.666
7055	64.5755
7050	62.9501
7045	60.7618
7040	60.2192
7035	60.9125
7030	62.4641
7025	63.1911
7020	63.2928
7015	65.3967
7010	65.5905
7005	66.3188
7000	67.8104
6995	66.7427
6990	64.7019
6985	64.5159
6980	66.6025
6975	66.5083
6970	65.6739
6965	63.6977
6960	62.1479
6955	63.3892
6950	63.7819
6945	62.8942
6940	64.239
6935	65.0385
6930	63.6895
6925	63.6386
6920	64.4833
6915	64.3217
6910	65.7025
6905	65.2268
6900	63.8571
6895	63.1564
6890	62.1246
6885	61.9143
6880	62.5356
6875	62.1718
6870	62.2797
6865	63.6265
6860	64.6251
6855	64.5105
6850	63.5259
6845	63.1293
6840	64.205
6835	64.6336
6830	64.3003
6825	63.8927
6820	65.1159
6815	65.8526
6810	64.4871
6805	64.7207
6800	64.8186
6795	63.9035
6790	64.2143
6785	64.5144
6780	63.9895
6775	63.4034
6770	64.3264
6765	65.5382
6760	65.1561
6755	64.7355
6750	65.3977
6745	64.6816
6740	63.1481
6735	62.1736
6730	61.8355
6725	64.2185
6720	65.9002
6715	64.8944
6710	64.3258
6705	64.7695
6700	65.6811
6695	65.6211
6690	64.838
6685	64.8214
6680	64.0323
6675	63.3364
6670	63.8569
6665	64.2441
6660	64.1043
6655	63.2723
6650	63.6198
6645	65.7146
6640	66.325
6635	65.7128
6630	64.6548
6625	64.1807
6620	66.1687
6615	67.089
6610	66.1326
6605	66.297
6600	66.9314
6595	66.1096
6590	64.5971
6585	63.6319
6580	64.4778
6575	66.3026
6570	65.8876
6565	65.6089
6560	65.5629
6555	63.7759
6550	64.5228
6545	65.539
6540	65.086
6535	65.4456
6530	65.7212
6525	65.4282
6520	65.0224
6515	63.7135
6510	62.9833
6505	64.1352
6500	64.7315
6495	63.9412
6490	63.8358
6485	64.355
6480	64.271
6475	64.2627
6470	65.4456
6465	66.203
6460	66.2889
6455	65.9072
6450	66.1863
6445	66.7454
6440	66.1609
6435	65.6192
6430	63.9713
6425	63.09
6420	64.0443
6415	65.3434
6410	65.5607
6405	65.2238
6400	64.9821
6395	64.4087
6390	64.3599
6385	64.6448
6380	64.477
6375	65.0675
6370	65.3415
6365	65.337
6360	65.4096
6355	65.3944
6350	65.6932
6345	65.7369
6340	64.2944
6335	64.8613
6330	65.9071
6325	64.6556
6320	63.8714
6315	63.9283
6310	64.2328
6305	64.6457
6300	64.3783
6295	63.7571
6290	64.3421
6285	64.7485
6280	65.0007
6275	65.2148
6270	64.5489
6265	63.9357
6260	63.9207
6255	64.7883
6250	65.5695
6245	65.4477
6240	65.3357
6235	64.9776
6230	65.4363
6225	65.943
6220	64.8356
6215	64.34
6210	64.5169
6205	64.4543
6200	65.0764
6195	64.889
6190	64.6048
6185	64.103
6180	63.7085
6175	64.7177
6170	64.9504
6165	64.5775
6160	63.743
6155	63.7696
6150	64.6129
6145	64.3406
6140	64.0327
6135	63.736
6130	64.3815
6125	64.6712
6120	64.0332
6115	63.5188
6110	63.7914
6105	64.2355
6100	64.2608
6095	64.1618
6090	64.8606
6085	65.3151
6080	65.4154
6075	65.2719
6070	65.0488
6065	64.9041
6060	65.3956
6055	65.1986
6050	64.9414
6045	64.8643
6040	64.6616
6035	64.7331
6030	65.3989
6025	65.3642
6020	64.6293
6015	64.2698
6010	64.8978
6005	65.316
6000	64.9934
5995	64.8072
5990	64.7086
5985	64.8214
5980	65.2296
5975	64.9106
5970	64.5063
5965	65.1331
5960	65.2549
5955	64.3344
5950	63.8465
5945	63.5912
5940	63.9134
5935	64.4475
5930	64.4017
5925	64.0589
5920	64.8728
5915	65.5919
5910	65.5534
5905	65.1604
5900	64.8695
5895	64.6468
5890	64.4342
5885	64.27
5880	64.4369
5875	64.7303
5870	64.7397
5865	64.8653
5860	64.5239
5855	64.4249
5850	64.466
5845	64.3354
5840	64.8931
5835	65.1108
5830	64.8536
5825	64.2302
5820	63.7391
5815	64.4319
5810	65.0953
5805	65.3317
5800	65.2229
5795	64.8926
5790	64.9409
5785	65.0622
5780	64.6368
5775	64.3141
5770	64.6114
5765	64.8594
5760	65.0632
5755	64.9596
5750	64.9258
5745	64.6852
5740	64.9042
5735	64.3845
5730	63.9799
5725	64.3493
5720	64.7497
5715	64.5675
5710	64.5201
5705	64.6024
5700	64.1324
5695	63.7118
5690	63.7992
5685	64.4152
5680	65.2923
5675	65.5962
5670	65.1335
5665	64.9113
5660	64.945
5655	64.9823
5650	64.4349
5645	64.506
5640	64.9215
5635	64.8949
5630	64.7214
5625	64.3682
5620	64.6794
5615	64.5845
5610	64.1937
5605	64.5977
5600	65.3864
5595	65.4641
5590	65.7316
5585	65.3087
5580	64.965
5575	65.0755
5570	65.1995
5565	65.3042
5560	65.1774
5555	65.1675
5550	65.3593
5545	65.1975
5540	65.3544
5535	65.737
5530	65.542
5525	65.1425
5520	64.9585
5515	64.5846
5510	64.6024
5505	65.4928
5500	65.9144
5495	65.3781
5490	65.0004
5485	65.5239
5480	65.5933
5475	65.0475
5470	64.8666
5465	64.7353
5460	64.9058
5455	65.4577
5450	65.1905
5445	64.7966
5440	64.8854
5435	64.8537
5430	64.8322
5425	65.1089
5420	65.1315
5415	64.8911
5410	64.6516
5405	64.1305
5400	64.5681
5395	65.2341
5390	65.1094
5385	64.9939
5380	64.9345
5375	64.8586
5370	64.6183
5365	64.3766
5360	64.0973
5355	64.2386
5350	64.2279
5345	64.6195
5340	65.0858
5335	64.7224
5330	63.9437
5325	63.3637
5320	63.8014
5315	65.0712
5310	64.7576
5305	64.3713
5300	64.7229
5295	62.4473
5290	61.813
5285	64.9561
5280	67.1745
5275	68.1589
5270	68.4682
5265	68.1658
5260	65.2347
5255	63.3503
5250	64.4001
5245	65.0943
5240	62.4253
5235	61.6445
5230	63.197
5225	62.719
5220	63.2966
5215	64.2282
5210	65.2231
5205	65.8257
5200	65.6798
5195	64.3788
5190	63.4244
5185	63.8099
5180	65.8985
5175	66.5433
5170	65.3198
5165	64.6101
5160	64.404
5155	64.229
5150	64.9956
5145	65.4149
5140	64.9117
5135	64.4794
5130	64.7606
5125	65.2793
5120	65.1918
5115	64.9887
5110	65.0558
5105	64.9269
5100	64.9078
5095	65.296
5090	65.4586
5085	64.7377
5080	64.4914
5075	64.7689
5070	65.0116
5065	65.1555
5060	65.1622
5055	64.8256
5050	64.5613
5045	64.7155
5040	64.7187
5035	64.7471
5030	64.7045
5025	64.4899
5020	64.6777
5015	65.0497
5010	65.0415
5005	64.82
5000	64.9352
4995	64.828
4990	64.59
4985	64.5408
4980	64.4337
4975	64.67
4970	64.9778
4965	64.8322
4960	64.4682
4955	64.5364
4950	64.8211
4945	64.8808
4940	64.7853
4935	64.6089
4930	64.74
4925	64.6044
4920	64.7305
4915	64.9451
4910	64.9367
4905	65.0357
4900	64.8247
4895	64.6476
4890	64.9697
4885	64.8678
4880	64.8219
4875	64.9633
4870	64.734
4865	64.6767
4860	64.8245
4855	64.7007
4850	64.5988
4845	64.5208
4840	64.4353
4835	64.6458
4830	64.9799
4825	65.145
4820	64.9935
4815	64.8214
4810	64.4367
4805	64.4238
4800	64.8756
4795	65.0584
4790	64.8698
4785	64.6704
4780	64.6093
4775	64.5214
4770	64.8829
4765	65.3371
4760	65.1642
4755	64.7579
4750	64.8597
4745	65.1798
4740	65.2382
4735	65.2358
4730	65.3653
4725	65.1643
4720	64.9484
4715	64.7179
4710	64.5227
4705	64.7901
4700	65.2731
4695	65.57
4690	65.4839
4685	65.1947
4680	64.8589
4675	64.7961
4670	64.9608
4665	64.8354
4660	64.7871
4655	64.9814
4650	65.0637
4645	64.8818
4640	64.7352
4635	64.8396
4630	64.9393
4625	64.9504
4620	64.9512
4615	64.8126
4610	64.6746
4605	64.937
4600	65.1687
4595	65.2889
4590	65.2043
4585	64.9885
4580	64.8226
4575	64.7782
4570	64.8206
4565	64.7228
4560	64.5251
4555	64.653
4550	64.8527
4545	64.938
4540	64.61
4535	64.1448
4530	64.1591
4525	64.2246
4520	64.3291
4515	64.3805
4510	64.1924
4505	64.2987
4500	64.5641
4495	64.4857
4490	64.4722
4485	64.3816
4480	64.1686
4475	63.9269
4470	64.3041
4465	64.6059
4460	64.3216
4455	64.1373
4450	64.1135
4445	63.8225
4440	64.0759
4435	64.2749
4430	64.1351
4425	64.3481
4420	64.4551
4415	64.3571
4410	66.5772
4405	71.5647
4400	66.0126
4395	63.1707
4390	75.6444
4385	77.5356
4380	68.438
4375	65.8573
4370	66.048
4365	64.8225
4360	64.128
4355	64.5506
4350	64.4209
4345	64.2601
4340	64.2854
4335	64.6889
4330	64.7779
4325	64.4119
4320	64.3593
4315	64.2293
4310	64.2325
4305	64.6272
4300	64.7488
4295	64.5031
4290	64.3853
4285	64.3886
4280	64.3807
4275	64.2818
4270	64.2391
4265	64.4827
4260	64.5082
4255	64.3473
4250	64.41
4245	64.751
4240	64.9896
4235	64.9065
4230	64.6412
4225	64.6515
4220	64.754
4215	64.8039
4210	64.8868
4205	64.8716
4200	64.8643
4195	65.1139
4190	65.3347
4185	65.0983
4180	64.9322
4175	64.9402
4170	64.9611
4165	65.1378
4160	64.9656
4155	64.758
4150	64.9192
4145	64.8852
4140	64.8199
4135	65.1349
4130	65.194
4125	65.1337
4120	65.0452
4115	65.0137
4110	65.1087
4105	65.2647
4100	65.2466
4095	65.2637
4090	65.1942
4085	65.1404
4080	65.217
4075	65.2971
4070	65.3035
4065	65.2119
4060	65.1463
4055	65.0475
4050	65.1159
4045	65.3243
4040	65.2455
4035	65.1326
4030	65.2034
4025	65.3144
4020	65.2789
4015	65.1094
4010	65.021
4005	65.0183
4000	65.0109
3995	65.0671
3990	65.2348
3985	65.1707
3980	65.1289
3975	65.152
3970	65.2415
3965	65.1937
3960	65.0731
3955	65.1361
3950	65.1456
3945	65.0926
3940	65.0225
3935	64.9127
3930	64.8934
3925	64.8546
3920	64.8513
3915	64.9167
3910	64.9364
3905	65.0596
3900	65.0395
3895	64.9831
3890	65.051
3885	65.1365
3880	65.2426
3875	65.1776
3870	64.9954
3865	64.9009
3860	64.9456
3855	65.0395
3850	65.0689
3845	65.1547
3840	65.1474
3835	65.1643
3830	65.1793
3825	65.0852
3820	64.9093
3815	64.8685
3810	64.8735
3805	64.9201
3800	65.0537
3795	65.1035
3790	65.1402
3785	65.1196
3780	64.9768
3775	64.994
3770	65.0526
3765	65.0338
3760	65.0744
3755	65.1745
3750	65.2126
3745	65.1309
3740	65.1231
3735	65.2553
3730	65.1959
3725	65.0754
3720	65.1108
3715	65.1507
3710	65.1011
3705	65.0883
3700	65.0426
3695	64.9122
3690	65.1168
3685	65.2244
3680	65.1592
3675	65.1911
3670	65.1944
3665	65.2368
3660	65.2311
3655	65.2275
3650	65.17
3645	65.0968
3640	65.1749
3635	65.3075
3630	65.2781
3625	65.1536
3620	65.1476
3615	65.1399
3610	65.113
3605	65.0971
3600	65.1886
3595	65.3232
3590	65.3114
3585	65.1072
3580	65.0703
3575	65.2437
3570	65.2843
3565	65.2182
3560	65.1489
3555	65.0128
3550	65.0466
3545	65.1712
3540	65.1673
3535	65.139
3530	65.1573
3525	65.1263
3520	64.9638
3515	64.8916
3510	64.9399
3505	65.003
3500	65.019
3495	65.0683
3490	65.0788
3485	65.0324
3480	65.2211
3475	65.2365
3470	65.2538
3465	65.2282
3460	65.2194
3455	65.3101
3450	65.2082
3445	65.1612
3440	65.236
3435	65.2236
3430	65.1122
3425	65.024
3420	64.9036
3415	64.9415
3410	65.037
3405	64.9976
3400	65.0016
3395	65.0315
3390	65.0995
3385	65.1126
3380	65.0635
3375	64.9922
3370	64.9306
3365	65.0727
3360	65.1475
3355	65.0113
3350	65.0575
3345	65.1553
3340	65.2111
3335	65.241
3330	65.0999
3325	64.9153
3320	64.9205
3315	64.9711
3310	64.9717
3305	64.9878
3300	64.9399
3295	65.006
3290	65.183
3285	65.2112
3280	65.1568
3275	65.0424
3270	64.9814
3265	65.1031
3260	65.1319
3255	65.113
3250	65.074
3245	65.0217
3240	64.9771
3235	65.0242
3230	64.9629
3225	64.9573
3220	65.0231
3215	65.017
3210	65.0679
3205	65.1999
3200	65.154
3195	65.1193
3190	65.2392
3185	65.1573
3180	65.0563
3175	65.0676
3170	65.1037
3165	65.0668
3160	65.1199
3155	65.2834
3150	65.3119
3145	65.2826
3140	65.2358
3135	64.9606
3130	64.8204
3125	65.0269
3120	65.1407
3115	65.024
3110	64.988
3105	65.0469
3100	65.0713
3095	65.0882
3090	65.1404
3085	65.1682
3080	65.1557
3075	65.1707
3070	65.1189
3065	65.0187
3060	65.0329
3055	65.1215
3050	65.044
3045	65.0588
3040	65.1752
3035	65.1929
3030	65.1796
3025	65.1666
3020	65.1193
3015	65.0875
3010	65.1259
3005	65.0632
3000	64.9994
2995	65.0476
2990	65.0888
2985	65.0015
2980	64.9257
2975	64.9406
2970	64.9841
2965	65.0054
2960	64.9653
2955	64.8761
2950	64.8882
2945	64.8985
2940	64.8522
2935	64.7967
2930	64.7834
2925	64.7225
2920	64.6393
2915	64.686
2910	64.8737
2905	65.0043
2900	64.9938
2895	64.9157
2890	64.9331
2885	65.0449
2880	65.0051
2875	64.908
2870	64.9724
2865	64.9927
2860	64.9742
2855	64.9835
2850	65.0546
2845	65.1717
2840	65.1467
2835	65.0591
2830	64.9907
2825	65.0928
2820	65.1594
2815	65.0836
2810	65.108
2805	65.1597
2800	65.1983
2795	65.2238
2790	65.1685
2785	65.1998
2780	65.2272
2775	65.2013
2770	65.1538
2765	65.0826
2760	65.1264
2755	65.1066
2750	65.0864
2745	65.1588
2740	65.1663
2735	65.2061
2730	65.221
2725	65.2037
2720	65.1565
2715	65.1167
2710	65.1302
2705	65.2096
2700	65.2011
2695	65.1133
2690	65.0502
2685	65.0961
2680	65.1515
2675	65.1315
2670	65.2045
2665	65.247
2660	65.1409
2655	65.1237
2650	65.1078
2645	65.0906
2640	65.1047
2635	65.1375
2630	65.1444
2625	65.1631
2620	65.2353
2615	65.3218
2610	65.2266
2605	65.1409
2600	65.1901
2595	65.1963
2590	65.1451
2585	65.1681
2580	65.1682
2575	65.0587
2570	65.0347
2565	65.1012
2560	65.2294
2555	65.2706
2550	65.1822
2545	65.1711
2540	65.1894
2535	65.1925
2530	65.2084
2525	65.2279
2520	65.2625
2515	65.232
2510	65.1538
2505	65.146
2500	65.2732
2495	65.2385
2490	65.2107
2485	65.2582
2480	65.2455
2475	65.2325
2470	65.2744
2465	65.2753
2460	65.2013
2455	65.1748
2450	65.2091
2445	65.2819
2440	65.3086
2435	65.3081
2430	65.2728
2425	65.2401
2420	65.2549
2415	65.3624
2410	65.3873
2405	65.3646
2400	65.3348
2395	65.3402
2390	65.322
2385	65.2269
2380	65.2171
2375	65.2422
2370	65.2368
2365	65.2661
2360	65.2797
2355	65.2153
2350	65.177
2345	65.1884
2340	65.1548
2335	65.121
2330	65.1944
2325	65.2872
2320	65.3339
2315	65.3195
2310	65.281
2305	65.2451
2300	65.2864
2295	65.3084
2290	65.2543
2285	65.219
2280	65.1953
2275	65.2199
2270	65.2864
2265	65.2725
2260	65.1997
2255	65.1523
2250	65.1195
2245	65.1609
2240	65.2062
2235	65.2129
2230	65.2114
2225	65.269
2220	65.2455
2215	65.2014
2210	65.1392
2205	65.1216
2200	65.1447
2195	65.1734
2190	65.2043
2185	65.1767
2180	65.1733
2175	65.1896
2170	65.1832
2165	65.2573
2160	65.2486
2155	65.1583
2150	65.1445
2145	65.1725
2140	65.1286
2135	65.1251
2130	65.146
2125	65.1139
2120	65.1064
2115	65.0711
2110	65.1091
2105	65.1723
2100	65.1981
2095	65.2007
2090	65.1349
2085	65.0935
2080	65.1468
2075	65.2636
2070	65.2694
2065	65.1955
2060	65.1391
2055	65.0949
2050	65.1322
2045	65.1969
2040	65.2116
2035	65.1316
2030	65.1056
2025	65.0606
2020	65.0246
2015	65.1273
2010	65.2294
2005	65.199
2000	65.156
1995	65.1831
1990	65.1621
1985	65.1087
1980	65.1709
1975	65.1851
1970	65.1258
1965	65.0891
1960	65.1675
1955	65.1894
1950	65.1981
1945	65.2174
1940	65.1326
1935	65.1281
1930	65.139
1925	65.1766
1920	65.2321
1915	65.2165
1910	65.1816
1905	65.1487
1900	65.1463
1895	65.1306
1890	65.1707
1885	65.1856
1880	65.1395
1875	65.1592
1870	65.1471
1865	65.1668
1860	65.2666
1855	65.2303
1850	65.1572
1845	65.1112
1840	65.0515
1835	65.0779
1830	65.1654
1825	65.2262
1820	65.22
1815	65.2065
1810	65.2513
1805	65.2364
1800	65.1637
1795	65.2366
1790	65.2568
1785	65.2324
1780	65.2567
1775	65.2974
1770	65.275
1765	65.1623
1760	65.147
1755	65.182
1750	65.1178
1745	65.0363
1740	64.9586
1735	64.9335
1730	64.9416
1725	64.9186
1720	64.943
1715	65.0241
1710	65.0984
1705	65.179
1700	65.2702
1695	65.3089
1690	65.2556
1685	65.2458
1680	65.1222
1675	65.0112
1670	65.0287
1665	65.1474
1660	65.1265
1655	65.0705
1650	65.0723
1645	65.0668
1640	65.098
1635	65.1299
1630	65.0938
1625	65.0959
1620	65.1741
1615	65.1786
1610	65.1066
1605	65.0277
1600	65.0258
1595	65.076
1590	65.0442
1585	65.0264
1580	65.1135
1575	65.1076
1570	65.0333
1565	65.027
1560	65.1306
1555	65.1313
1550	65.1156
1545	65.1101
1540	65.1118
1535	64.9954
1530	64.9766
1525	65.0359
1520	65.0219
1515	64.9312
1510	64.9679
1505	65.0695
1500	65.079
1495	65.0083
1490	65.0151
1485	65.0156
1480	65.0388
1475	65.1012
1470	65.0137
1465	64.9895
1460	65.0229
1455	64.9633
1450	64.9066
1445	64.8794
1440	64.989
1435	65.019
1430	64.9338
1425	65.0663
1420	65.2203
1415	65.1477
1410	64.9578
1405	64.902
1400	65.0578
1395	65.1109
1390	65.0029
1385	64.9366
1380	64.8826
1375	64.829
1370	64.8499
1365	64.9707
1360	64.9697
1355	64.897
1350	64.9274
1345	65.128
1340	65.1918
1335	65.0992
1330	65.0417
1325	64.9847
1320	64.9888
1315	64.9678
1310	64.8178
1305	64.7904
1300	64.8881
1295	64.9301
1290	64.9062
1285	64.8926
1280	64.8993
1275	64.8825
1270	64.8638
1265	64.8929
1260	64.7897
1255	64.7839
1250	64.8284
1245	64.8819
1240	64.8856
1235	64.8569
1230	64.7539
1225	64.7192
1220	64.803
1215	64.8568
1210	64.882
1205	64.993
1200	65.0025
1195	64.9171
1190	64.7983
1185	64.6986
1180	64.7593
1175	64.7912
1170	64.718
1165	64.712
1160	64.7775
1155	64.7176
1150	64.719
1145	64.8419
1140	64.7849
1135	64.6915
1130	64.7742
1125	64.9261
1120	64.883
1115	64.7888
1110	64.8748
1105	64.9206
1100	64.7816
1095	64.7146
1090	64.7304
1085	64.758
1080	64.7535
1075	64.7329
1070	64.6169
1065	64.554
1060	64.5403
1055	64.5257
1050	64.6132
1045	64.7798
1040	64.8952
1035	64.8697
1030	64.7129
1025	64.572
1020	64.5568
1015	64.5633
1010	64.6366
1005	64.7598
1000	64.8234
995	 64.8357
990	 64.7293
985	 64.7066
980	 64.7042
975	 64.6649
970	 64.7427
965	 64.632
960	 64.5512
955	 64.5323
950	 64.4242
945	 64.3698
940	 64.315
935	 64.5015
930	 64.608
925	 64.5021
920	 64.4143
915	 64.3777
910	 64.5406
905	 64.6735
900	 64.5604
895	 64.5206
890	 64.4866
885	 64.5845
880	 65.0175
875	 65.4758
870	 65.322
865	 64.5338
860	 64.0161
855	 64.2541
850	 64.6415
845	 64.4891
840	 64.5435
835	 64.8535
830	 63.9992
825	 63.2094
820	 63.7553
815	 64.4481
810	 64.3831
805	 63.933
800	 63.7585
795	 64.0278
790	 64.3427
785	 64.2433
780	 63.9328
775	 63.9832
770	 63.9883
765	 64.0203
760	 64.0946
755	 63.931
750	 63.6925
745	 63.6508
740	 63.6632
735	 63.543
730	 63.5036
725	 63.5673
720	 63.4699
715	 63.4318
710	 63.4529
705	 63.3497
700	 63.3151
695	 63.1762
690	 62.9699
685	 62.9178
680	 62.9352
675	 62.8628
670	 62.8668
665	 63.0916
660	 63.2751
655	 63.1898
650	 62.9311
645	 62.7303
640	 62.4836
635	 62.5253
630	 62.6766
625	 62.61
620	 62.6249
615	 62.5826
610	 62.4796
605	 62.6466
600	 62.9552
595	 62.8598
590	 62.7946
585	 62.4622
580	 62.1119
575	 62.3525
570	 62.2717
565	 61.5916
560	 61.3711
555	 61.6316
550	 61.7364
545	 61.3325
540	 61.1436
535	 61.3262
530	 61.3386
525	 61.0595
520	 60.617
515	 60.6357
510	 60.4483
505	 59.7424
500	 59.7543
495	 59.9278
490	 59.7644
485	 59.7085
480	 59.5549
475	 59.4163
470	 59.7719
465	 59.5362
460	 58.9064
455	 58.4151
450	 58.9183
445	 59.5877
440	 58.878
435	 58.283
430	 58.5971
425	 59.016
420	 59.5783
415	 59.9801
410	 59.563
405	 57.2258
400	 54.8568
395	 50.0039
390	 50.7292
385	 59.3152
380	 70.7354
375	 93.4935
370	 75.6492