File: Bakgrunnsmateriale/MATLAB/FTIR/ftir_data/subBb/Mapping_36/C-4040-8_t02_cm-1.asc
PE IR       SPECTRUM    SPECTRUM    ASCII       PEDS        1.60
  -1
C-9964~1.ASC
17/05/02
10:59:27.00
17/05/02
10:59:27.00
tln
$C-4040-8_t0002$<tbV0>[7.5,-13.0,8.0,0.0,22,1,0]
370
64

2002,4.07
MIRTGS : RIGHTBACK : INTERNAL 2
MIR : ON : INTERNAL 2
OPTKBR

0.200000
8
8.000000
FILLER
RATIO
SPECTRUM
UNLOCKED 256

DOUBLE
64
COMBINED
1
0
0

1.000000
RATIO

1
0
TRUE
51149
0
LEFT NOT FITTED RIGHT NOT FITTED 0
NONE
NONE
15600
12
4.427000
51148
TRUE
1 0 8 72 0 0 0 0

15798

#HDR
-1
-1
#GR
CM-1

2.38419e-05
0.0
7800
-1.000000
7431
8
71.0796
12.3695
#DATA
7800	64.4936
7795	67.7648
7790	60.542
7785	59.0396
7780	61.8747
7775	61.2447
7770	63.9344
7765	66.0539
7760	65.3419
7755	67.2078
7750	66.2862
7745	62.3921
7740	59.5536
7735	58.4842
7730	59.7502
7725	58.0177
7720	55.8567
7715	63.4924
7710	70.0872
7705	70.032
7700	68.5508
7695	62.9351
7690	61.7968
7685	67.4892
7680	69.4768
7675	64.6153
7670	64.6999
7665	64.4088
7660	61.5273
7655	59.0108
7650	62.667
7645	64.0282
7640	65.9782
7635	63.7017
7630	59.3822
7625	59.9964
7620	63.9156
7615	65.3763
7610	64.9366
7605	66.663
7600	63.6097
7595	58.5741
7590	60.1211
7585	66.6131
7580	67.5372
7575	65.4066
7570	64.4682
7565	64.028
7560	60.4907
7555	62.9055
7550	65.7459
7545	67.8983
7540	67.7287
7535	63.1633
7530	61.4193
7525	59.042
7520	60.8333
7515	64.4703
7510	62.5044
7505	60.1604
7500	59.7596
7495	61.3536
7490	62.1056
7485	65.5734
7480	67.4463
7475	63.3963
7470	62.3041
7465	61.9446
7460	61.1763
7455	63.5
7450	64.0152
7445	62.6671
7440	63.3109
7435	64.1762
7430	64.3708
7425	61.5324
7420	58.6893
7415	63.7325
7410	67.5075
7405	66.1285
7400	66.6135
7395	65.2163
7390	63.4321
7385	62.9857
7380	62.3091
7375	59.2186
7370	60.1383
7365	64.2877
7360	64.7139
7355	63.9393
7350	61.0804
7345	59.4338
7340	62.0412
7335	62.2654
7330	62.6011
7325	64.7956
7320	64.2711
7315	62.9188
7310	61.1269
7305	59.7411
7300	61.4738
7295	64.6532
7290	65.4213
7285	63.5403
7280	64.668
7275	65.5546
7270	64.6492
7265	63.9895
7260	61.8232
7255	62.2382
7250	64.3266
7245	65.6115
7240	65.3007
7235	63.5385
7230	62.8916
7225	63.716
7220	65.1386
7215	65.6239
7210	64.6505
7205	63.9635
7200	63.1388
7195	63.5848
7190	63.7267
7185	63.6967
7180	63.3805
7175	62.3848
7170	61.0465
7165	59.63
7160	59.1362
7155	60.5279
7150	60.8978
7145	60.908
7140	63.23
7135	66.5111
7130	65.3527
7125	61.1041
7120	61.3912
7115	63.3914
7110	64.4808
7105	63.8488
7100	62.9385
7095	63.5035
7090	63.5063
7085	62.6314
7080	60.6002
7075	61.299
7070	63.0883
7065	63.3653
7060	64.1438
7055	62.3726
7050	62.8453
7045	63.1055
7040	61.0821
7035	60.0465
7030	61.4078
7025	63.3363
7020	65.2078
7015	64.5637
7010	59.6066
7005	59.0071
7000	64.6175
6995	67.0643
6990	66.1799
6985	64.7483
6980	63.1745
6975	62.1675
6970	62.09
6965	60.7174
6960	60.084
6955	62.5654
6950	63.9403
6945	62.981
6940	63.2977
6935	63.1193
6930	63.115
6925	64.7878
6920	66.8171
6915	67.0468
6910	65.3353
6905	63.314
6900	62.7341
6895	63.3899
6890	63.8581
6885	62.7864
6880	63.3184
6875	64.6548
6870	64.4194
6865	64.5952
6860	65.3548
6855	65.4629
6850	63.236
6845	61.2971
6840	61.3986
6835	62.282
6830	63.3684
6825	63.185
6820	62.7367
6815	62.6093
6810	62.769
6805	63.3277
6800	63.7142
6795	64.1651
6790	64.8124
6785	63.6621
6780	62.1055
6775	61.7801
6770	62.3908
6765	63.2697
6760	62.7275
6755	62.1835
6750	61.2832
6745	60.7275
6740	60.7521
6735	61.3281
6730	62.9392
6725	64.4488
6720	65.2494
6715	64.7812
6710	64.457
6705	65.4044
6700	65.079
6695	64.6815
6690	64.7005
6685	63.9807
6680	63.3992
6675	63.2511
6670	62.6993
6665	62.4021
6660	61.8185
6655	62.7175
6650	63.7785
6645	62.9241
6640	62.5049
6635	63.0465
6630	64.5127
6625	64.1244
6620	63.0275
6615	62.1192
6610	61.9544
6605	63.0598
6600	63.1348
6595	63.3018
6590	63.2605
6585	63.4815
6580	63.1027
6575	62.7056
6570	62.5481
6565	62.3402
6560	62.7619
6555	62.1451
6550	62.5123
6545	63.6097
6540	63.6277
6535	63.6811
6530	64.2783
6525	64.2583
6520	63.7235
6515	64.3038
6510	64.7051
6505	63.7891
6500	63.9775
6495	64.4684
6490	63.8888
6485	63.6764
6480	64.5576
6475	64.1994
6470	64.1875
6465	64.6771
6460	64.001
6455	63.6951
6450	64.201
6445	64.9288
6440	65.3207
6435	65.0003
6430	63.4079
6425	62.5978
6420	63.3915
6415	64.6104
6410	65.5508
6405	65.0042
6400	63.7375
6395	63.3993
6390	62.5637
6385	62.8102
6380	64.4346
6375	64.5305
6370	63.6317
6365	63.621
6360	63.0956
6355	63.4365
6350	64.219
6345	64.38
6340	64.1161
6335	64.1514
6330	64.0736
6325	62.5138
6320	61.0678
6315	61.4735
6310	62.5132
6305	62.1305
6300	61.0466
6295	62.1606
6290	64.1433
6285	63.9183
6280	63.0454
6275	63.2762
6270	62.9155
6265	62.3739
6260	62.7135
6255	63.861
6250	63.9029
6245	62.9082
6240	62.5914
6235	63.5712
6230	64.4413
6225	63.6641
6220	63.2157
6215	63.3332
6210	62.8218
6205	62.53
6200	62.9622
6195	62.3891
6190	62.4578
6185	62.6714
6180	62.5117
6175	63.208
6170	63.9558
6165	64.2419
6160	63.8561
6155	63.3433
6150	63.2427
6145	62.8911
6140	63.2673
6135	63.8886
6130	63.5893
6125	63.244
6120	63.597
6115	63.7551
6110	63.4302
6105	63.3553
6100	64.1789
6095	64.3044
6090	63.2541
6085	63.1447
6080	63.5046
6075	63.4425
6070	64.0523
6065	63.9163
6060	63.0916
6055	63.542
6050	63.971
6045	63.4567
6040	62.6354
6035	62.354
6030	62.5908
6025	63.6104
6020	63.8495
6015	62.9543
6010	62.8616
6005	63.063
6000	63.0439
5995	63.7695
5990	63.8358
5985	63.7263
5980	63.9535
5975	64.3605
5970	64.1106
5965	63.4995
5960	63.1811
5955	63.0673
5950	63.011
5945	62.9575
5940	63.0381
5935	63.0468
5930	62.5793
5925	62.3528
5920	63.0408
5915	63.4161
5910	63.9211
5905	63.7432
5900	63.438
5895	63.4272
5890	64.0354
5885	64.4158
5880	64.2704
5875	63.688
5870	63.1044
5865	63.3635
5860	63.1546
5855	63.0724
5850	63.547
5845	63.3965
5840	63.7604
5835	63.7899
5830	63.4214
5825	63.4093
5820	63.7881
5815	63.4847
5810	63.096
5805	63.3174
5800	64.0402
5795	63.6713
5790	62.635
5785	63.5638
5780	64.5378
5775	64.0077
5770	63.4996
5765	63.4887
5760	63.5395
5755	62.977
5750	62.8359
5745	63.1141
5740	63.1907
5735	62.7141
5730	62.7869
5725	63.1254
5720	63.5693
5715	63.9167
5710	63.9436
5705	63.7316
5700	63.2153
5695	62.9104
5690	63.218
5685	63.8767
5680	63.6193
5675	63.0159
5670	63.0983
5665	63.207
5660	63.5861
5655	64.1052
5650	63.7059
5645	63.1257
5640	63.265
5635	63.4658
5630	63.663
5625	63.4031
5620	63.2261
5615	63.0476
5610	63.0924
5605	63.498
5600	63.7449
5595	64.0659
5590	64.7134
5585	64.7429
5580	64.1002
5575	63.2594
5570	62.91
5565	62.7437
5560	63.0721
5555	63.5794
5550	63.9692
5545	64.1335
5540	64.1517
5535	63.736
5530	63.603
5525	63.3563
5520	63.1516
5515	63.433
5510	64.0224
5505	64.3145
5500	64.2891
5495	63.8378
5490	64.0372
5485	64.322
5480	63.7883
5475	63.3396
5470	62.903
5465	62.9726
5460	63.412
5455	63.8712
5450	63.8508
5445	63.8903
5440	64.1729
5435	63.8889
5430	63.3235
5425	63.1635
5420	63.3996
5415	63.561
5410	63.5734
5405	62.9704
5400	62.7832
5395	63.1377
5390	63.8801
5385	64.1253
5380	63.7338
5375	63.8219
5370	63.9184
5365	63.8033
5360	63.7177
5355	63.3317
5350	63.0002
5345	63.0489
5340	63.2816
5335	63.1803
5330	63.3115
5325	63.8277
5320	63.5995
5315	63.1055
5310	62.7796
5305	61.6861
5300	62.1802
5295	63.2263
5290	63.8133
5285	64.4954
5280	63.9145
5275	63.135
5270	63.6235
5265	64.5094
5260	63.0177
5255	61.8314
5250	60.9626
5245	60.2391
5240	59.9341
5235	60.2142
5230	61.9
5225	63.0344
5220	65.0549
5215	64.3724
5210	63.4359
5205	62.9576
5200	62.5302
5195	61.8351
5190	61.6241
5185	62.9142
5180	63.7994
5175	63.757
5170	63.3856
5165	63.2902
5160	62.8793
5155	62.1826
5150	62.5083
5145	63.0768
5140	62.9107
5135	62.6364
5130	63.0426
5125	63.4151
5120	63.4229
5115	63.2528
5110	63.2471
5105	63.2426
5100	63.051
5095	63.1321
5090	63.3243
5085	63.2838
5080	63.3904
5075	63.2479
5070	62.8255
5065	63.0112
5060	63.2957
5055	63.4245
5050	63.268
5045	63.3727
5040	63.5216
5035	63.2274
5030	63.1045
5025	63.3639
5020	63.5761
5015	63.4266
5010	63.1583
5005	63.2373
5000	63.7048
4995	63.8372
4990	63.3696
4985	63.4579
4980	63.7776
4975	63.4536
4970	63.2733
4965	63.6044
4960	63.4423
4955	63.236
4950	63.3786
4945	63.2054
4940	62.9212
4935	62.8882
4930	62.9807
4925	63.0531
4920	63.1346
4915	63.2253
4910	63.181
4905	63.0042
4900	63.1952
4895	63.3979
4890	63.3788
4885	63.1882
4880	62.9971
4875	62.8748
4870	62.9808
4865	63.0161
4860	63.0351
4855	62.9072
4850	62.9915
4845	63.0439
4840	62.9083
4835	62.9575
4830	63.1647
4825	63.2511
4820	63.2461
4815	63.1827
4810	63.0746
4805	63.1113
4800	63.2972
4795	63.38
4790	63.1352
4785	63.1678
4780	63.3021
4775	63.2774
4770	63.181
4765	63.1723
4760	63.2089
4755	63.131
4750	63.0098
4745	63.17
4740	63.1969
4735	63.1902
4730	63.1395
4725	62.7041
4720	62.569
4715	62.9043
4710	63.2114
4705	63.2916
4700	63.5512
4695	63.7945
4690	63.4948
4685	63.0307
4680	62.9466
4675	63.1064
4670	63.1322
4665	62.9226
4660	63.0338
4655	63.1204
4650	62.8401
4645	62.6364
4640	62.6713
4635	62.8325
4630	63.0447
4625	63.1604
4620	62.9385
4615	62.8463
4610	62.9637
4605	62.9219
4600	62.8363
4595	62.9087
4590	62.9513
4585	62.9611
4580	62.9859
4575	62.7712
4570	62.762
4565	62.84
4560	62.6561
4555	62.7389
4550	62.986
4545	62.817
4540	62.647
4535	62.5932
4530	62.5917
4525	62.6976
4520	62.8022
4515	62.566
4510	62.4547
4505	62.7448
4500	63.0234
4495	62.817
4490	62.635
4485	62.9239
4480	62.8738
4475	62.4976
4470	62.4976
4465	62.7205
4460	63.0041
4455	63.0919
4450	63.1738
4445	63.1542
4440	62.7048
4435	62.4745
4430	62.7168
4425	62.826
4420	62.6476
4415	62.3579
4410	65.3259
4405	71.0796
4400	63.2082
4395	47.3195
4390	50.9852
4385	67.0254
4380	65.7537
4375	64.0552
4370	63.5204
4365	62.7407
4360	62.9332
4355	62.8873
4350	62.9871
4345	62.7891
4340	62.8745
4335	62.7524
4330	62.4217
4325	62.2128
4320	62.494
4315	62.7131
4310	62.3674
4305	62.053
4300	61.868
4295	62.2131
4290	62.602
4285	62.3583
4280	62.1777
4275	62.3437
4270	62.4964
4265	62.5502
4260	62.4656
4255	62.4549
4250	62.5996
4245	62.5442
4240	62.1692
4235	61.9714
4230	62.0477
4225	62.1087
4220	62.216
4215	62.2796
4210	62.2089
4205	62.0586
4200	62.0638
4195	62.3685
4190	62.5454
4185	62.3626
4180	62.1065
4175	62.0147
4170	62.0543
4165	61.9745
4160	62.0009
4155	61.9813
4150	62.1146
4145	62.1689
4140	61.9195
4135	61.8692
4130	62.0576
4125	62.2249
4120	62.1642
4115	61.9414
4110	61.9102
4105	62.1854
4100	62.1128
4095	62.0345
4090	61.8874
4085	61.7899
4080	62.012
4075	62.049
4070	62.0852
4065	62.143
4060	62.0097
4055	61.8995
4050	61.8259
4045	61.8109
4040	61.9099
4035	61.8152
4030	61.7311
4025	61.8392
4020	61.8195
4015	61.7108
4010	61.6997
4005	61.7606
4000	61.8059
3995	61.7872
3990	61.773
3985	61.7385
3980	61.827
3975	61.8855
3970	61.7028
3965	61.4947
3960	61.5688
3955	61.8719
3950	61.7263
3945	61.4036
3940	61.3413
3935	61.4194
3930	61.4391
3925	61.3101
3920	61.4031
3915	61.6024
3910	61.3944
3905	61.2617
3900	61.3492
3895	61.3688
3890	61.4693
3885	61.568
3880	61.5764
3875	61.5315
3870	61.3478
3865	61.2643
3860	61.3265
3855	61.2343
3850	61.1742
3845	61.3211
3840	61.4227
3835	61.2206
3830	61.0027
3825	60.849
3820	60.8758
3815	61.0328
3810	61.1021
3805	61.2043
3800	61.116
3795	60.9467
3790	61.029
3785	61.0006
3780	60.8539
3775	60.9123
3770	60.9512
3765	60.9196
3760	60.9038
3755	60.9293
3750	60.9455
3745	60.8883
3740	60.6899
3735	60.6795
3730	60.7594
3725	60.7378
3720	60.5985
3715	60.5206
3710	60.52
3705	60.5082
3700	60.5339
3695	60.5455
3690	60.5089
3685	60.4537
3680	60.5928
3675	60.6437
3670	60.4418
3665	60.2746
3660	60.2245
3655	60.2439
3650	60.4367
3645	60.5974
3640	60.4767
3635	60.2427
3630	60.1012
3625	60.13
3620	60.311
3615	60.3523
3610	60.326
3605	60.3413
3600	60.2794
3595	60.1011
3590	59.9713
3585	59.9958
3580	60.0105
3575	60.1042
3570	59.9565
3565	59.755
3560	59.7802
3555	59.8957
3550	60.0276
3545	59.8583
3540	59.5181
3535	59.6085
3530	59.7702
3525	59.6886
3520	59.6331
3515	59.4802
3510	59.5123
3505	59.5866
3500	59.6197
3495	59.6252
3490	59.4049
3485	59.3005
3480	59.3819
3475	59.3906
3470	59.442
3465	59.402
3460	59.2874
3455	59.2201
3450	59.1259
3445	59.0995
3440	59.2206
3435	59.229
3430	59.1917
3425	59.2496
3420	59.0554
3415	58.8991
3410	59.0033
3405	59.0382
3400	58.8763
3395	58.8456
3390	58.9012
3385	58.8241
3380	58.7673
3375	58.7061
3370	58.6639
3365	58.7061
3360	58.6441
3355	58.5674
3350	58.7525
3345	58.8071
3340	58.6684
3335	58.5564
3330	58.4418
3325	58.23
3320	58.2646
3315	58.3937
3310	58.3668
3305	58.2033
3300	58.0134
3295	58.0514
3290	58.2445
3285	58.2432
3280	58.1201
3275	57.9749
3270	57.8604
3265	57.9159
3260	57.9533
3255	57.9544
3250	57.937
3245	57.8036
3240	57.7073
3235	57.7591
3230	57.7181
3225	57.5945
3220	57.552
3215	57.4961
3210	57.4839
3205	57.4844
3200	57.4847
3195	57.5064
3190	57.4646
3185	57.4556
3180	57.3674
3175	57.2577
3170	57.2508
3165	57.1821
3160	57.1915
3155	57.2812
3150	57.2509
3145	57.1747
3140	57.0483
3135	56.8439
3130	56.7254
3125	56.877
3120	56.91
3115	56.7021
3110	56.5947
3105	56.6083
3100	56.5713
3095	56.5404
3090	56.5795
3085	56.5971
3080	56.5726
3075	56.5544
3070	56.4686
3065	56.3738
3060	56.3743
3055	56.3872
3050	56.2943
3045	56.3052
3040	56.3914
3035	56.4079
3030	56.2208
3025	56.0398
3020	56.0048
3015	55.9839
3010	55.9513
3005	56.009
3000	55.9403
2995	55.7363
2990	55.772
2985	55.7859
2980	55.6919
2975	55.6023
2970	55.5138
2965	55.4455
2960	55.3941
2955	55.3219
2950	55.2755
2945	55.1968
2940	55.1771
2935	55.0862
2930	54.9503
2925	54.9535
2920	54.8783
2915	54.811
2910	54.8548
2905	54.7869
2900	54.7397
2895	54.8248
2890	54.7942
2885	54.6856
2880	54.6009
2875	54.6219
2870	54.6712
2865	54.5664
2860	54.4096
2855	54.379
2850	54.4102
2845	54.3636
2840	54.2633
2835	54.2425
2830	54.218
2825	54.2922
2820	54.3597
2815	54.3288
2810	54.2376
2805	54.227
2800	54.1806
2795	54.0255
2790	53.8965
2785	53.8999
2780	53.8947
2775	53.8107
2770	53.6863
2765	53.6011
2760	53.6012
2755	53.5968
2750	53.5411
2745	53.4512
2740	53.3632
2735	53.3229
2730	53.2744
2725	53.2249
2720	53.2149
2715	53.1949
2710	53.1505
2705	53.0459
2700	52.9829
2695	52.8418
2690	52.6723
2685	52.6836
2680	52.7464
2675	52.6549
2670	52.5504
2665	52.5247
2660	52.5082
2655	52.4514
2650	52.3364
2645	52.3188
2640	52.3394
2635	52.2407
2630	52.1216
2625	52.15
2620	52.2368
2615	52.1875
2610	52.1052
2605	51.979
2600	51.9182
2595	51.8854
2590	51.7714
2585	51.7667
2580	51.7198
2575	51.605
2570	51.5547
2565	51.5589
2560	51.4977
2555	51.397
2550	51.3496
2545	51.3655
2540	51.2773
2535	51.183
2530	51.1154
2525	51.0321
2520	50.9918
2515	50.9944
2510	50.9269
2505	50.8062
2500	50.7256
2495	50.7256
2490	50.6782
2485	50.6081
2480	50.5914
2475	50.5754
2470	50.5296
2465	50.3993
2460	50.2978
2455	50.217
2450	50.136
2445	50.1296
2440	50.1032
2435	49.9425
2430	49.8172
2425	49.8984
2420	49.9503
2415	49.9225
2410	49.7472
2405	49.5956
2400	49.5901
2395	49.6251
2390	49.5016
2385	49.365
2380	49.3193
2375	49.259
2370	49.1714
2365	49.1075
2360	49.0544
2355	49.0137
2350	48.9425
2345	48.8792
2340	48.8603
2335	48.8211
2330	48.8076
2325	48.7628
2320	48.6564
2315	48.5235
2310	48.4226
2305	48.3881
2300	48.4084
2295	48.3926
2290	48.3254
2285	48.2685
2280	48.1391
2275	47.9554
2270	47.8949
2265	47.9011
2260	47.8889
2255	47.8581
2250	47.767
2245	47.6627
2240	47.6377
2235	47.6249
2230	47.5503
2225	47.4654
2220	47.383
2215	47.3394
2210	47.2638
2205	47.1587
2200	47.1105
2195	47.0108
2190	46.931
2185	46.908
2180	46.8834
2175	46.778
2170	46.655
2165	46.7602
2160	46.8173
2155	46.7628
2150	46.618
2145	46.4743
2140	46.3295
2135	46.1882
2130	46.1334
2125	46.0753
2120	46.042
2115	46.004
2110	45.9332
2105	45.9014
2100	45.8608
2095	45.8267
2090	45.7924
2085	45.644
2080	45.4713
2075	45.477
2070	45.3794
2065	45.2383
2060	45.3257
2055	45.3522
2050	45.1852
2045	45.0365
2040	44.9599
2035	44.8914
2030	44.8439
2025	44.7753
2020	44.7333
2015	44.7358
2010	44.6275
2005	44.5371
2000	44.5414
1995	44.487
1990	44.3378
1985	44.2589
1980	44.1959
1975	44.1322
1970	44.1061
1965	44.0797
1960	43.972
1955	43.8563
1950	43.8653
1945	43.8804
1940	43.7973
1935	43.6461
1930	43.5562
1925	43.543
1920	43.4869
1915	43.4146
1910	43.3269
1905	43.1611
1900	43.0752
1895	43.0847
1890	43.1317
1885	43.0924
1880	42.9504
1875	42.8746
1870	42.8249
1865	42.7554
1860	42.6857
1855	42.5965
1850	42.5049
1845	42.4018
1840	42.2778
1835	42.2631
1830	42.3049
1825	42.2978
1820	42.206
1815	42.0853
1810	42.017
1805	42.0105
1800	41.9653
1795	41.8504
1790	41.7354
1785	41.6394
1780	41.5552
1775	41.5692
1770	41.5203
1765	41.3703
1760	41.3005
1755	41.2044
1750	41.0791
1745	41.0709
1740	41.0309
1735	40.9039
1730	40.7923
1725	40.7304
1720	40.7186
1715	40.6541
1710	40.585
1705	40.6077
1700	40.622
1695	40.5043
1690	40.4423
1685	40.4381
1680	40.3341
1675	40.2001
1670	40.0688
1665	40.0137
1660	39.9561
1655	39.9301
1650	39.935
1645	39.9116
1640	39.7733
1635	39.6101
1630	39.4899
1625	39.4626
1620	39.4192
1615	39.3421
1610	39.2889
1605	39.2466
1600	39.1419
1595	39.0083
1590	38.9606
1585	38.9112
1580	38.8378
1575	38.7099
1570	38.6644
1565	38.7434
1560	38.7298
1555	38.5893
1550	38.4882
1545	38.3628
1540	38.3079
1535	38.2592
1530	38.1171
1525	38.1004
1520	38.1205
1515	38.0862
1510	38.0567
1505	37.9721
1500	37.8348
1495	37.6793
1490	37.569
1485	37.4263
1480	37.3949
1475	37.45
1470	37.4049
1465	37.3458
1460	37.3083
1455	37.1655
1450	37.054
1445	37.0408
1440	37.0457
1435	37.0378
1430	36.8623
1425	36.7079
1420	36.6842
1415	36.7052
1410	36.6628
1405	36.4596
1400	36.3485
1395	36.3328
1390	36.3758
1385	36.3307
1380	36.1997
1375	36.1049
1370	36.077
1365	36.0361
1360	35.9751
1355	35.8767
1350	35.8281
1345	35.8132
1340	35.7285
1335	35.6157
1330	35.5259
1325	35.4683
1320	35.3863
1315	35.3301
1310	35.2866
1305	35.2187
1300	35.1264
1295	35.0595
1290	35.0244
1285	34.9411
1280	34.7994
1275	34.7924
1270	34.729
1265	34.5741
1260	34.509
1255	34.5527
1250	34.5075
1245	34.4308
1240	34.344
1235	34.2764
1230	34.0762
1225	33.967
1220	33.9914
1215	34.0093
1210	33.9416
1205	33.8404
1200	33.7729
1195	33.7025
1190	33.6192
1185	33.5301
1180	33.4951
1175	33.4695
1170	33.336
1165	33.2011
1160	33.1889
1155	33.26
1150	33.1817
1145	33.0226
1140	32.9207
1135	32.8455
1130	32.8403
1125	32.7834
1120	32.7249
1115	32.6919
1110	32.6069
1105	32.5171
1100	32.4225
1095	32.433
1090	32.3807
1085	32.2482
1080	32.1966
1075	32.2252
1070	32.1064
1065	31.9734
1060	31.8598
1055	31.7523
1050	31.775
1045	31.8313
1040	31.672
1035	31.5393
1030	31.4115
1025	31.2797
1020	31.2736
1015	31.3026
1010	31.2934
1005	31.1732
1000	31.0449
995	 31.0126
990	 30.8901
985	 30.7687
980	 30.7673
975	 30.7623
970	 30.7229
965	 30.6294
960	 30.4084
955	 30.1968
950	 29.9436
945	 29.935
940	 30.0492
935	 30.1279
930	 30.1585
925	 29.8157
920	 29.5215
915	 29.5692
910	 29.5819
905	 29.2986
900	 29.1497
895	 29.1458
890	 29.0868
885	 29.3602
880	 29.325
875	 29.1366
870	 28.6848
865	 28.1856
860	 28.3052
855	 28.3746
850	 28.4323
845	 28.6134
840	 28.7244
835	 28.6349
830	 28.2829
825	 27.8747
820	 27.8886
815	 27.9599
810	 28.2606
805	 28.4135
800	 27.9108
795	 27.3718
790	 27.1675
785	 27.0742
780	 26.9414
775	 26.9501
770	 27.0037
765	 27.0454
760	 26.9449
755	 26.8147
750	 26.4857
745	 26.2235
740	 26.1696
735	 26.0251
730	 25.7943
725	 25.7486
720	 25.5927
715	 25.4807
710	 25.3823
705	 25.1694
700	 25.1165
695	 25.0773
690	 24.9236
685	 24.7494
680	 24.5517
675	 24.4163
670	 24.2735
665	 24.1795
660	 24.0638
655	 23.876
650	 23.8314
645	 23.666
640	 23.349
635	 23.2823
630	 23.123
625	 23.0868
620	 22.9424
615	 22.7578
610	 22.7067
605	 22.7957
600	 22.5177
595	 22.2063
590	 22.1437
585	 21.9182
580	 21.3977
575	 21.3808
570	 21.493
565	 21.1282
560	 20.9245
555	 20.8524
550	 20.4419
545	 20.0312
540	 19.8982
535	 19.8174
530	 19.8565
525	 19.4504
520	 18.7485
515	 18.7015
510	 18.7782
505	 18.4487
500	 18.1101
495	 17.7515
490	 17.3797
485	 17.1261
480	 16.7534
475	 16.1836
470	 16.2002
465	 16.6563
460	 17.0323
455	 17.2193
450	 17.5441
445	 16.7101
440	 15.77
435	 16.395
430	 16.1422
425	 14.9775
420	 14.519
415	 14.0775
410	 12.5482
405	 13.3616
400	 17.3997
395	 18.2044
390	 18.1555
385	 16.724
380	 21.7672
375	 30.8066
370	 40.1771