File: Bakgrunnsmateriale/MATLAB/FTIR/ftir_data/subBb/Mapping_36/C-4040-8_e38.asc
PE IR       SPECTRUM    SPECTRUM    ASCII       PEDS        1.60
  -1
C-A13C~1.ASC
17/05/02
11:52:50.00
17/05/02
11:53:17.00
tln
$C-4040-8_e0038$<ebV0>[-23.3,12.1,10.0,0.0,22,1,0]
27.028
64

2002,4.07
MIRTGS : RIGHTBACK : INTERNAL 2
MIR : ON : INTERNAL 2
OPTKBR

0.200000
8
8.000000
FILLER
SINGLE
SPECTRUM
UNLOCKED 256

DOUBLE

COMBINED
1
0
0

0.002000
BACKG

1
0
TRUE
51149
0
LEFT NOT FITTED RIGHT NOT FITTED 0
NONE
NONE
15600
12
4.427000
51148
TRUE
1 0 8 72 0 0 0 0

15798

#HDR
-1
-1
#GR
µM
EGY
2.38419e-05
0.0
1.282000
0.002000
12874
8
2.449655
0.008630
#DATA
1.282000	 0.033617
1.300000	 0.057070
1.318000	 0.072813
1.336000	 0.086090
1.354000	 0.095599
1.372000	 0.109840
1.390000	 0.124583
1.408000	 0.136120
1.426000	 0.153871
1.444000	 0.160250
1.462000	 0.173690
1.480000	 0.184911
1.498000	 0.195975
1.516000	 0.201242
1.534000	 0.213249
1.552000	 0.227130
1.570000	 0.247542
1.588000	 0.266260
1.606000	 0.287602
1.624000	 0.307815
1.642000	 0.326736
1.660000	 0.348707
1.678000	 0.364882
1.696000	 0.380468
1.714000	 0.397526
1.732000	 0.414901
1.750000	 0.426050
1.768000	 0.437868
1.786000	 0.447356
1.804000	 0.468847
1.822000	 0.493059
1.840000	 0.511540
1.858000	 0.535133
1.876000	 0.565746
1.894000	 0.613179
1.912000	 0.629125
1.930000	 0.657549
1.948000	 0.683223
1.966000	 0.709426
1.984000	 0.745661
2.002000	 0.769562
2.020000	 0.792921
2.038000	 0.807338
2.056000	 0.832013
2.074000	 0.854546
2.092000	 0.874674
2.110000	 0.896318
2.128000	 0.901493
2.146000	 0.911426
2.164000	 0.923844
2.182000	 0.947925
2.200000	 0.977713
2.218000	 1.001440
2.236000	 1.012496
2.254000	 1.014930
2.272000	 1.024370
2.290000	 1.061833
2.308000	 1.088517
2.326000	 1.124956
2.344000	 1.158877
2.362000	 1.182999
2.380000	 1.198604
2.398000	 1.211049
2.416000	 1.231244
2.434000	 1.252509
2.452000	 1.291898
2.470000	 1.329795
2.488000	 1.364985
2.506000	 1.396853
2.524000	 1.411863
2.542000	 1.423348
2.560000	 1.434174
2.578000	 1.446346
2.596000	 1.456661
2.614000	 1.491837
2.632000	 1.519047
2.650000	 1.547956
2.668000	 1.541613
2.686000	 1.572988
2.704000	 1.577948
2.722000	 1.566606
2.740000	 1.572663
2.758000	 1.580284
2.776000	 1.593547
2.794000	 1.604968
2.812000	 1.617160
2.830000	 1.622063
2.848000	 1.625122
2.866000	 1.613022
2.884000	 1.605575
2.902000	 1.588129
2.920000	 1.585314
2.938000	 1.595946
2.956000	 1.608730
2.974000	 1.631430
2.992000	 1.659018
3.010000	 1.686092
3.028000	 1.714504
3.046000	 1.738055
3.064000	 1.756791
3.082000	 1.771894
3.100000	 1.782409
3.118000	 1.784706
3.136000	 1.791909
3.154000	 1.795099
3.172000	 1.807582
3.190000	 1.821152
3.208000	 1.844197
3.226000	 1.870265
3.244000	 1.902562
3.262000	 1.926094
3.280000	 1.956235
3.298000	 1.973415
3.316000	 1.959526
3.334000	 2.021445
3.352000	 2.020728
3.370000	 1.952985
3.388000	 1.919622
3.406000	 1.814421
3.424000	 1.797354
3.442000	 1.942237
3.460000	 1.991878
3.478000	 1.998094
3.496000	 1.904032
3.514000	 2.027561
3.532000	 2.102948
3.550000	 2.143635
3.568000	 2.171237
3.586000	 2.196122
3.604000	 2.222211
3.622000	 2.239354
3.640000	 2.249358
3.658000	 2.252376
3.676000	 2.253164
3.694000	 2.248491
3.712000	 2.244893
3.730000	 2.239424
3.748000	 2.232225
3.766000	 2.225167
3.784000	 2.221603
3.802000	 2.219822
3.820000	 2.223830
3.838000	 2.226199
3.856000	 2.229936
3.874000	 2.244048
3.892000	 2.260905
3.910000	 2.275746
3.928000	 2.289704
3.946000	 2.302828
3.964000	 2.313736
3.982000	 2.320389
4.000000	 2.322530
4.018000	 2.324581
4.036000	 2.320357
4.054000	 2.311959
4.072000	 2.303414
4.090000	 2.293523
4.108000	 2.282434
4.125999	 2.273722
4.144000	 2.263232
4.162000	 2.259525
4.180000	 2.253812
4.198000	 2.249153
4.216000	 2.238874
4.234000	 2.235677
4.252000	 2.255091
4.270000	 2.263188
4.288000	 2.275010
4.306000	 2.294213
4.324000	 2.312241
4.342000	 2.330453
4.359999	 2.341950
4.378000	 2.354630
4.396000	 2.361579
4.414000	 2.367728
4.432000	 2.372998
4.450000	 2.374443
4.468000	 2.373954
4.486000	 2.374143
4.504000	 2.368543
4.522000	 2.362589
4.540000	 2.357807
4.558000	 2.348765
4.576000	 2.339970
4.594000	 2.338425
4.612000	 2.333572
4.630000	 2.328974
4.648000	 2.330576
4.666000	 2.331898
4.684000	 2.332787
4.702000	 2.332642
4.720000	 2.332156
4.738000	 2.332345
4.756000	 2.334902
4.774000	 2.333652
4.792000	 2.334827
4.810000	 2.341482
4.828000	 2.352399
4.846000	 2.368307
4.864000	 2.383002
4.882000	 2.400024
4.900000	 2.413917
4.918000	 2.424026
4.936000	 2.432319
4.954000	 2.438753
4.972000	 2.444175
4.990000	 2.447482
5.008000	 2.449603
5.026000	 2.448364
5.044000	 2.443523
5.062000	 2.436897
5.080000	 2.431963
5.098000	 2.425305
5.116000	 2.419278
5.134000	 2.412990
5.152000	 2.406713
5.170000	 2.403561
5.188000	 2.395232
5.206000	 2.388081
5.224000	 2.380408
5.242000	 2.374496
5.260000	 2.367809
5.278000	 2.363248
5.296000	 2.362063
5.314000	 2.364512
5.332000	 2.367143
5.350000	 2.368213
5.368000	 2.376720
5.386000	 2.382211
5.404000	 2.383425
5.422000	 2.385939
5.440000	 2.394662
5.458000	 2.398190
5.476000	 2.401921
5.494000	 2.410039
5.512000	 2.413942
5.530000	 2.417669
5.548000	 2.421222
5.566000	 2.419009
5.584000	 2.416220
5.602000	 2.418258
5.620000	 2.414401
5.638000	 2.404839
5.656000	 2.403251
5.674000	 2.400336
5.692000	 2.390540
5.710000	 2.375785
5.728000	 2.358989
5.746000	 2.336431
5.764000	 2.315963
5.782000	 2.316683
5.800000	 2.314020
5.818000	 2.297127
5.836000	 2.292835
5.854000	 2.286499
5.872000	 2.264582
5.890000	 2.248479
5.908000	 2.252320
5.926000	 2.242768
5.944000	 2.232570
5.962000	 2.231544
5.980000	 2.220496
5.998000	 2.211599
6.016000	 2.203785
6.034000	 2.181927
6.052000	 2.158105
6.070000	 2.155180
6.088000	 2.153665
6.106000	 2.140619
6.124000	 2.128447
6.142000	 2.116766
6.160000	 2.092191
6.178000	 2.054237
6.196000	 2.007839
6.214000	 1.969574
6.232000	 1.964385
6.250000	 1.984000
6.268000	 2.001015
6.286000	 2.006335
6.304000	 2.001793
6.322000	 1.989944
6.340000	 1.977216
6.358000	 1.973019
6.376000	 1.968139
6.394000	 1.946875
6.412000	 1.923095
6.430000	 1.928756
6.448000	 1.946328
6.466000	 1.948493
6.484000	 1.955799
6.502000	 1.997791
6.520000	 2.054177
6.538000	 2.089643
6.556000	 2.101525
6.574000	 2.102340
6.592000	 2.098113
6.610000	 2.086057
6.628000	 2.061303
6.646000	 2.001878
6.664000	 1.867062
6.682000	 1.708921
6.700000	 1.669925
6.718000	 1.766454
6.736000	 1.882984
6.754000	 1.947720
6.772000	 1.967253
6.790000	 1.967819
6.808000	 1.959648
6.826000	 1.937636
6.844000	 1.892068
6.862000	 1.823768
6.880000	 1.765957
6.898000	 1.762279
6.916000	 1.804712
6.934000	 1.842494
6.952000	 1.856019
6.970000	 1.860463
6.988000	 1.862734
7.006000	 1.862197
7.024000	 1.859028
7.042000	 1.852135
7.060000	 1.840886
7.078000	 1.818540
7.096000	 1.778310
7.114000	 1.735446
7.132000	 1.718729
7.150000	 1.735264
7.168000	 1.765153
7.186000	 1.783811
7.204000	 1.783204
7.222000	 1.778301
7.240000	 1.784703
7.258000	 1.797235
7.276000	 1.805410
7.294000	 1.808816
7.312000	 1.809806
7.330000	 1.809277
7.348000	 1.808633
7.366000	 1.808436
7.384000	 1.807993
7.402000	 1.806945
7.420000	 1.805673
7.438000	 1.804939
7.456000	 1.807055
7.474000	 1.813580
7.492000	 1.822772
7.510000	 1.831465
7.528000	 1.838022
7.546000	 1.842227
7.564000	 1.844592
7.582000	 1.845782
7.600000	 1.845899
7.618000	 1.845561
7.636000	 1.845409
7.654000	 1.845382
7.672000	 1.845549
7.690000	 1.846445
7.708000	 1.847523
7.726000	 1.847652
7.744000	 1.846873
7.762000	 1.845960
7.780000	 1.844672
7.798000	 1.841839
7.816000	 1.836322
7.834000	 1.826686
7.852000	 1.810454
7.870000	 1.784971
7.888000	 1.751865
7.906000	 1.720822
7.924000	 1.706616
7.942000	 1.717191
7.960000	 1.745904
7.978000	 1.777819
7.996000	 1.801966
8.013999	 1.816186
8.032000	 1.823084
8.050000	 1.825687
8.068000	 1.826133
8.086000	 1.825515
8.103999	 1.824087
8.122000	 1.821489
8.140000	 1.817167
8.158000	 1.810822
8.176000	 1.802677
8.193999	 1.793086
8.212000	 1.781587
8.230000	 1.768333
8.248000	 1.755320
8.266000	 1.745495
8.283999	 1.740419
8.302000	 1.739287
8.320000	 1.740007
8.338000	 1.740748
8.356000	 1.740145
8.374000	 1.737741
8.391999	 1.733889
8.410000	 1.729201
8.428000	 1.723905
8.446000	 1.717642
8.464000	 1.710459
8.481999	 1.702656
8.500000	 1.694403
8.518000	 1.685393
8.536000	 1.675375
8.554000	 1.664504
8.571999	 1.653085
8.590000	 1.641737
8.608000	 1.631190
8.626000	 1.622259
8.644000	 1.615427
8.661999	 1.610395
8.680000	 1.606527
8.698000	 1.603067
8.716000	 1.599413
8.734000	 1.595087
8.751999	 1.589894
8.770000	 1.583916
8.788000	 1.577337
8.806000	 1.569760
8.824000	 1.560818
8.842000	 1.550489
8.859999	 1.539305
8.878000	 1.527809
8.896000	 1.516234
8.914000	 1.504643
8.932000	 1.492899
8.949999	 1.480985
8.968000	 1.469081
8.986000	 1.457568
9.004000	 1.447001
9.022000	 1.438071
9.039999	 1.431139
9.058000	 1.426333
9.076000	 1.423393
9.094000	 1.421682
9.112000	 1.420647
9.129999	 1.420000
9.148000	 1.419866
9.166000	 1.420359
9.184000	 1.421416
9.202000	 1.422621
9.219999	 1.423349
9.238000	 1.423248
9.256000	 1.422763
9.274000	 1.422670
9.292000	 1.423685
9.310000	 1.425690
9.327999	 1.427990
9.346000	 1.429715
9.364000	 1.430447
9.382000	 1.430042
9.400000	 1.428050
9.418000	 1.422644
9.436000	 1.410665
9.454000	 1.389421
9.472000	 1.359938
9.490000	 1.328196
9.508000	 1.303649
9.526000	 1.293983
9.544000	 1.300933
9.561999	 1.319527
9.580000	 1.341520
9.598000	 1.359898
9.616000	 1.371600
9.634000	 1.376928
9.652000	 1.377701
9.670000	 1.375769
9.688000	 1.372243
9.706000	 1.367955
9.724000	 1.363356
9.742000	 1.359186
9.760000	 1.355843
9.778000	 1.353925
9.795999	 1.353670
9.814000	 1.355133
9.832000	 1.358146
9.850000	 1.362310
9.868000	 1.367129
9.886000	 1.372245
9.904000	 1.377205
9.922000	 1.381821
9.940000	 1.385807
9.958000	 1.389012
9.976000	 1.391294
9.994000	 1.392569
10.012	1.392897
10.03	1.392368
10.048	1.391095
10.066	1.389180
10.084	1.386760
10.102	1.384061
10.12	1.381392
10.138	1.378925
10.156	1.376692
10.174	1.374412
10.192	1.371753
10.21	1.368543
10.228	1.364678
10.246	1.360248
10.264	1.355454
10.282	1.350407
10.3	1.345163
10.318	1.339636
10.336	1.333781
10.354	1.327675
10.372	1.321455
10.39	1.315347
10.408	1.309464
10.426	1.303895
10.444	1.298530
10.462	1.293181
10.48	1.287700
10.498	1.282154
10.516	1.276621
10.534	1.271311
10.552	1.266556
10.57	1.262588
10.588	1.259446
10.606	1.257018
10.624	1.255037
10.642	1.253167
10.66	1.251127
10.678	1.248689
10.696	1.245787
10.714	1.242466
10.732	1.238889
10.75	1.235256
10.768	1.231732
10.786	1.228261
10.804	1.224757
10.822	1.220934
10.84	1.216818
10.858	1.212296
10.876	1.207414
10.894	1.202215
10.912	1.196635
10.93	1.190642
10.948	1.184394
10.966	1.178106
10.984	1.172157
11.002	1.166912
11.02	1.162537
11.038	1.159036
11.056	1.156194
11.074	1.153850
11.092	1.151793
11.11	1.149973
11.128	1.148376
11.146	1.146844
11.164	1.145240
11.182	1.143207
11.2	1.140265
11.218	1.135947
11.236	1.129776
11.254	1.121461
11.272	1.110998
11.29	1.098672
11.308	1.085006
11.326	1.070837
11.344	1.057104
11.362	1.044725
11.38	1.034528
11.398	1.027237
11.416	1.023205
11.434	1.022484
11.452	1.024823
11.47	1.029665
11.488	1.036368
11.506	1.044116
11.524	1.052192
11.542	1.060052
11.56	1.067213
11.578	1.073470
11.596	1.078736
11.614	1.083050
11.632	1.086391
11.65	1.088827
11.668	1.090280
11.686	1.090718
11.704	1.090104
11.722	1.088531
11.74	1.086147
11.758	1.083313
11.776	1.080354
11.794	1.077513
11.812	1.074956
11.83	1.072615
11.848	1.070167
11.866	1.067347
11.884	1.063645
11.902	1.058520
11.92	1.051575
11.938	1.042135
11.956	1.029768
11.974	1.014230
11.992	0.995362
12.01	0.973403
12.028	0.949118
12.046	0.923828
12.064	0.899221
12.082	0.877281
12.1	0.859906
12.118	0.848519
12.136	0.843996
12.154	0.846174
12.172	0.854025
12.19	0.866008
12.208	0.880188
12.226	0.894738
12.244	0.908288
12.262	0.919844
12.28	0.929118
12.298	0.936088
12.316	0.940988
12.334	0.944242
12.352	0.946163
12.37	0.946935
12.388	0.946876
12.406	0.946166
12.424	0.945053
12.442	0.943808
12.46	0.942710
12.478	0.941927
12.496	0.941603
12.514	0.941889
12.532	0.942723
12.55	0.944090
12.568	0.946000
12.586	0.948314
12.604	0.950927
12.622	0.953773
12.64	0.956677
12.658	0.959574
12.676	0.962395
12.694	0.964923
12.712	0.967216
12.73	0.969137
12.748	0.970697
12.766	0.971876
12.784	0.972690
12.802	0.973188
12.82	0.973343
12.838	0.973259
12.856	0.972902
12.874	0.972377
12.892	0.971704
12.91	0.970945
12.928	0.970086
12.946	0.969147
12.964	0.968144
12.982	0.967091
13	0.965961
13.018	0.964836
13.036	0.963786
13.054	0.962869
13.072	0.962062
13.09	0.961415
13.108	0.960924
13.126	0.960533
13.144	0.960152
13.162	0.959687
13.18	0.959105
13.198	0.958329
13.216	0.957312
13.234	0.956073
13.252	0.954700
13.27	0.953236
13.288	0.951718
13.306	0.950160
13.324	0.948610
13.342	0.947073
13.36	0.945477
13.378	0.943784
13.396	0.942003
13.414	0.940103
13.432	0.938087
13.45	0.935970
13.468	0.933773
13.486	0.931538
13.504	0.929286
13.522	0.927031
13.54	0.924762
13.558	0.922462
13.576	0.920118
13.594	0.917704
13.612	0.915229
13.63	0.912665
13.648	0.910054
13.666	0.907374
13.684	0.904683
13.702	0.901980
13.72	0.899286
13.738	0.896601
13.756	0.893947
13.774	0.891366
13.792	0.888813
13.81	0.886267
13.828	0.883731
13.846	0.881161
13.864	0.878576
13.882	0.875943
13.9	0.873280
13.918	0.870602
13.936	0.867941
13.954	0.865331
13.972	0.862778
13.99	0.860280
14.008	0.857784
14.026	0.855292
14.044	0.852765
14.062	0.850209
14.08	0.847566
14.098	0.844798
14.116	0.841896
14.134	0.838889
14.152	0.835795
14.17	0.832618
14.188	0.829376
14.206	0.826064
14.224	0.822664
14.242	0.819165
14.26	0.815474
14.278	0.811598
14.296	0.807444
14.314	0.802938
14.332	0.798030
14.35	0.792657
14.368	0.786766
14.386	0.780479
14.404	0.773814
14.422	0.766899
14.44	0.759948
14.458	0.753213
14.476	0.746929
14.494	0.741287
14.512	0.736533
14.53	0.732798
14.548	0.730143
14.566	0.728545
14.584	0.727883
14.602	0.727979
14.62	0.728636
14.638	0.729610
14.656	0.730676
14.674	0.731662
14.692	0.732419
14.71	0.732842
14.728	0.732895
14.746	0.732587
14.764	0.731916
14.782	0.730917
14.8	0.729665
14.818	0.728215
14.836	0.726560
14.854	0.724804
14.872	0.722948
14.89	0.721044
14.908	0.719117
14.926	0.717166
14.944	0.715219
14.962	0.713326
14.98	0.711458
14.998	0.709627
15.016	0.707864
15.034	0.706153
15.052	0.704462
15.07	0.702781
15.088	0.701098
15.106	0.699399
15.124	0.697636
15.142	0.695864
15.16	0.694063
15.178	0.692221
15.196	0.690340
15.214	0.688403
15.232	0.686424
15.25	0.684409
15.268	0.682353
15.286	0.680242
15.304	0.678108
15.322	0.675940
15.34	0.673742
15.358	0.671539
15.376	0.669306
15.394	0.667091
15.412	0.664909
15.43	0.662743
15.448	0.660623
15.466	0.658562
15.484	0.656551
15.502	0.654568
15.52	0.652615
15.538	0.650707
15.556	0.648830
15.574	0.646954
15.592	0.645052
15.61	0.643138
15.628	0.641214
15.646	0.639266
15.664	0.637295
15.682	0.635310
15.7	0.633323
15.718	0.631358
15.736	0.629396
15.754	0.627445
15.772	0.625513
15.79	0.623583
15.808	0.621658
15.826	0.619734
15.844	0.617800
15.862	0.615862
15.88	0.613899
15.898	0.611905
15.916	0.609906
15.934	0.607899
15.952	0.605888
15.97	0.603882
15.988	0.601891
16.006	0.599922
16.024	0.597984
16.042	0.596119
16.06	0.594283
16.078	0.592457
16.096	0.590653
16.114	0.588837
16.132	0.586985
16.15	0.585063
16.168	0.583075
16.186	0.580979
16.204	0.578734
16.222	0.576328
16.24	0.573741
16.258	0.570955
16.276	0.567963
16.294	0.564773
16.312	0.561398
16.33	0.557877
16.348	0.554238
16.366	0.550515
16.384	0.546785
16.402	0.543139
16.42	0.539632
16.438	0.536349
16.456	0.533346
16.474	0.530664
16.492	0.528375
16.51	0.526484
16.528	0.524992
16.546	0.523898
16.564	0.523129
16.582	0.522647
16.6	0.522422
16.618	0.522370
16.636	0.522436
16.654	0.522503
16.672	0.522551
16.69	0.522557
16.708	0.522452
16.726	0.522221
16.744	0.521847
16.762	0.521343
16.78	0.520723
16.798	0.520007
16.816	0.519217
16.834	0.518370
16.852	0.517497
16.87	0.516616
16.888	0.515740
16.906	0.514906
16.924	0.514118
16.942	0.513380
16.96	0.512692
16.978	0.512049
16.996	0.511429
17.014	0.510847
17.032	0.510305
17.05	0.509759
17.068	0.509214
17.086	0.508674
17.104	0.508110
17.122	0.507517
17.14	0.506883
17.158	0.506232
17.176	0.505581
17.194	0.504888
17.212	0.504172
17.23	0.503474
17.248	0.502788
17.266	0.502112
17.284	0.501430
17.302	0.500764
17.32	0.500154
17.338	0.499574
17.356	0.499018
17.374	0.498505
17.392	0.498013
17.41	0.497505
17.428	0.496990
17.446	0.496469
17.464	0.495935
17.482	0.495379
17.5	0.494775
17.518	0.494138
17.536	0.493471
17.554	0.492765
17.572	0.492020
17.59	0.491239
17.608	0.490408
17.626	0.489502
17.644	0.488570
17.662	0.487621
17.68	0.486620
17.698	0.485580
17.716	0.484534
17.734	0.483470
17.752	0.482377
17.77	0.481292
17.788	0.480221
17.806	0.479150
17.824	0.478082
17.842	0.477025
17.86	0.475981
17.878	0.474958
17.896	0.473945
17.914	0.472940
17.932	0.471954
17.95	0.470984
17.968	0.470010
17.986	0.469044
18.004	0.468100
18.022	0.467164
18.04	0.466227
18.058	0.465291
18.076	0.464358
18.094	0.463425
18.112	0.462495
18.13	0.461576
18.148	0.460665
18.166	0.459764
18.184	0.458871
18.202	0.457988
18.22	0.457112
18.238	0.456245
18.256	0.455394
18.274	0.454561
18.292	0.453722
18.31	0.452875
18.328	0.452016
18.346	0.451144
18.364	0.450262
18.382	0.449365
18.4	0.448448
18.418	0.447513
18.436	0.446561
18.454	0.445585
18.472	0.444578
18.49	0.443569
18.508	0.442569
18.526	0.441557
18.544	0.440530
18.562	0.439507
18.58	0.438488
18.598	0.437463
18.616	0.436432
18.634	0.435406
18.652	0.434381
18.67	0.433352
18.688	0.432317
18.706	0.431271
18.724	0.430213
18.742	0.429135
18.76	0.428042
18.778	0.426941
18.796	0.425829
18.814	0.424710
18.832	0.423575
18.85	0.422412
18.868	0.421232
18.886	0.420049
18.904	0.418850
18.922	0.417621
18.94	0.416380
18.958	0.415138
18.976	0.413896
18.994	0.412659
19.012	0.411421
19.03	0.410177
19.048	0.408933
19.066	0.407693
19.084	0.406453
19.102	0.405208
19.12	0.403960
19.138	0.402707
19.156	0.401453
19.174	0.400204
19.192	0.398955
19.21	0.397700
19.228	0.396444
19.246	0.395190
19.264	0.393940
19.282	0.392699
19.3	0.391466
19.318	0.390249
19.336	0.389046
19.354	0.387847
19.372	0.386655
19.39	0.385484
19.408	0.384333
19.426	0.383202
19.444	0.382092
19.462	0.380978
19.48	0.379856
19.498	0.378740
19.516	0.377636
19.534	0.376532
19.552	0.375423
19.57	0.374308
19.588	0.373181
19.606	0.372049
19.624	0.370915
19.642	0.369778
19.66	0.368631
19.678	0.367475
19.696	0.366313
19.714	0.365143
19.732	0.363953
19.75	0.362743
19.768	0.361520
19.786	0.360285
19.804	0.359036
19.822	0.357777
19.84	0.356502
19.858	0.355207
19.876	0.353896
19.894	0.352574
19.912	0.351240
19.93	0.349887
19.948	0.348515
19.966	0.347137
19.984	0.345755
20.002	0.344358
20.02	0.342939
20.038	0.341509
20.056	0.340073
20.074	0.338631
20.092	0.337190
20.11	0.335747
20.128	0.334291
20.146	0.332819
20.164	0.331347
20.182	0.329885
20.2	0.328419
20.218	0.326942
20.236	0.325461
20.254	0.323986
20.272	0.322515
20.29	0.321032
20.308	0.319535
20.326	0.318031
20.344	0.316520
20.362	0.315004
20.38	0.313489
20.398	0.311973
20.416	0.310444
20.434	0.308903
20.452	0.307355
20.47	0.305801
20.488	0.304242
20.506	0.302675
20.524	0.301102
20.542	0.299534
20.56	0.297970
20.578	0.296406
20.596	0.294832
20.614	0.293265
20.632	0.291727
20.65	0.290208
20.668	0.288701
20.686	0.287204
20.704	0.285715
20.722	0.284230
20.74	0.282754
20.758	0.281288
20.776	0.279834
20.794	0.278394
20.812	0.276968
20.83	0.275560
20.848	0.274174
20.866	0.272807
20.884	0.271444
20.902	0.270086
20.92	0.268735
20.938	0.267386
20.956	0.266046
20.974	0.264729
20.992	0.263433
21.01	0.262146
21.028	0.260861
21.046	0.259582
21.064	0.258308
21.082	0.257038
21.1	0.255786
21.118	0.254556
21.136	0.253341
21.154	0.252133
21.172	0.250934
21.19	0.249748
21.208	0.248581
21.226	0.247422
21.244	0.246262
21.262	0.245102
21.28	0.243945
21.298	0.242790
21.316	0.241637
21.334	0.240488
21.352	0.239343
21.37	0.238186
21.388	0.237012
21.406	0.235826
21.424	0.234628
21.442	0.233418
21.46	0.232190
21.478	0.230936
21.496	0.229665
21.514	0.228391
21.532	0.227116
21.55	0.225814
21.568	0.224465
21.586	0.223084
21.604	0.221690
21.622	0.220282
21.64	0.218861
21.658	0.217430
21.676	0.215988
21.694	0.214531
21.712	0.213055
21.73	0.211567
21.748	0.210072
21.766	0.208571
21.784	0.207061
21.802	0.205540
21.82	0.204010
21.838	0.202492
21.856	0.200987
21.874	0.199491
21.892	0.197997
21.91	0.196506
21.928	0.195031
21.946	0.193578
21.964	0.192144
21.982	0.190735
22	0.189351
22.018	0.187995
22.036	0.186677
22.054	0.185395
22.072	0.184148
22.09	0.182934
22.108	0.181755
22.126	0.180613
22.144	0.179511
22.162	0.178444
22.18	0.177411
22.198	0.176413
22.216	0.175446
22.234	0.174508
22.252	0.173601
22.27	0.172721
22.288	0.171872
22.306	0.171049
22.324	0.170233
22.342	0.169419
22.36	0.168613
22.378	0.167816
22.396	0.167031
22.414	0.166247
22.432	0.165449
22.45	0.164641
22.468	0.163827
22.486	0.163013
22.504	0.162197
22.522	0.161362
22.54	0.160499
22.558	0.159616
22.576	0.158728
22.594	0.157837
22.612	0.156937
22.63	0.156022
22.648	0.155089
22.666	0.154147
22.684	0.153203
22.702	0.152254
22.72	0.151303
22.738	0.150350
22.756	0.149395
22.774	0.148442
22.792	0.147496
22.81	0.146553
22.828	0.145616
22.846	0.144691
22.864	0.143775
22.882	0.142855
22.9	0.141926
22.918	0.140993
22.936	0.140059
22.954	0.139128
22.972	0.138195
22.99	0.137249
23.008	0.136288
23.026	0.135314
23.044	0.134329
23.062	0.133335
23.08	0.132327
23.098	0.131295
23.116	0.130237
23.134	0.129156
23.152	0.128056
23.17	0.126935
23.188	0.125795
23.206	0.124639
23.224	0.123465
23.242	0.122275
23.26	0.121075
23.278	0.119862
23.296	0.118639
23.314	0.117411
23.332	0.116174
23.35	0.114934
23.368	0.113700
23.386	0.112471
23.404	0.111248
23.422	0.110032
23.44	0.108819
23.458	0.107614
23.476	0.106430
23.494	0.105268
23.512	0.104126
23.53	0.103008
23.548	0.101917
23.566	0.100851
23.584	0.099806
23.602	0.098782
23.62	0.097779
23.638	0.096798
23.656	0.095839
23.674	0.094902
23.692	0.093983
23.71	0.093077
23.728	0.092186
23.746	0.091313
23.764	0.090460
23.782	0.089628
23.8	0.088811
23.818	0.088001
23.836	0.087200
23.854	0.086411
23.872	0.085636
23.89	0.084879
23.908	0.084133
23.926	0.083388
23.944	0.082645
23.962	0.081905
23.98	0.081167
23.998	0.080429
24.016	0.079691
24.034	0.078955
24.052	0.078222
24.07	0.077491
24.088	0.076757
24.106	0.076015
24.124	0.075265
24.142	0.074510
24.16	0.073753
24.178	0.072997
24.196	0.072236
24.214	0.071461
24.232	0.070672
24.25	0.069870
24.268	0.069055
24.286	0.068222
24.304	0.067372
24.322	0.066514
24.34	0.065655
24.358	0.064792
24.376	0.063923
24.394	0.063043
24.412	0.062148
24.43	0.061244
24.448	0.060342
24.466	0.059445
24.484	0.058549
24.502	0.057655
24.52	0.056760
24.538	0.055862
24.556	0.054970
24.574	0.054096
24.592	0.053237
24.61	0.052392
24.628	0.051565
24.646	0.050758
24.664	0.049967
24.682	0.049196
24.7	0.048446
24.718	0.047716
24.736	0.047005
24.754	0.046314
24.772	0.045643
24.79	0.044990
24.808	0.044358
24.826	0.043745
24.844	0.043154
24.862	0.042579
24.88	0.042016
24.898	0.041466
24.916	0.040929
24.934	0.040399
24.952	0.039874
24.97	0.039356
24.988	0.038844
25.006	0.038335
25.024	0.037833
25.042	0.037335
25.06	0.036837
25.078	0.036338
25.096	0.035839
25.114	0.035342
25.132	0.034849
25.15	0.034357
25.168	0.033869
25.186	0.033384
25.204	0.032906
25.222	0.032433
25.24	0.031963
25.258	0.031495
25.276	0.031026
25.294	0.030560
25.312	0.030103
25.33	0.029660
25.348	0.029228
25.366	0.028805
25.384	0.028392
25.402	0.027988
25.42	0.027594
25.438	0.027211
25.456	0.026841
25.474	0.026483
25.492	0.026136
25.51	0.025800
25.528	0.025477
25.546	0.025165
25.564	0.024863
25.582	0.024570
25.6	0.024286
25.618	0.024012
25.636	0.023747
25.654	0.023493
25.672	0.023250
25.69	0.023014
25.708	0.022778
25.726	0.022542
25.744	0.022307
25.762	0.022076
25.78	0.021849
25.798	0.021631
25.816	0.021416
25.834	0.021196
25.852	0.020967
25.87	0.020731
25.888	0.020491
25.906	0.020251
25.924	0.020011
25.942	0.019770
25.96	0.019527
25.978	0.019281
25.996	0.019033
26.014	0.018782
26.032	0.018524
26.05	0.018256
26.068	0.017976
26.086	0.017690
26.104	0.017400
26.122	0.017109
26.14	0.016814
26.158	0.016517
26.176	0.016221
26.194	0.015926
26.212	0.015632
26.23	0.015338
26.248	0.015047
26.266	0.014756
26.284	0.014467
26.302	0.014183
26.32	0.013907
26.338	0.013640
26.356	0.013379
26.374	0.013125
26.392	0.012877
26.41	0.012634
26.428	0.012397
26.446	0.012172
26.464	0.011960
26.482	0.011760
26.5	0.011572
26.518	0.011393
26.536	0.011223
26.554	0.011061
26.572	0.010909
26.59	0.010770
26.608	0.010646
26.626	0.010537
26.644	0.010439
26.662	0.010347
26.68	0.010258
26.698	0.010177
26.716	0.010102
26.734	0.010029
26.752	0.009959
26.77	0.009894
26.788	0.009830
26.806	0.009765
26.824	0.009696
26.842	0.009628
26.86	0.009557
26.878	0.009481
26.896	0.009401
26.914	0.009317
26.932	0.009227
26.95	0.009131
26.968	0.009017
26.986	0.008881
27.004	0.008750
27.022	0.008649
27.028	0.008630