File: Bakgrunnsmateriale/MATLAB/FTIR/ftir_data/subBb/Mapping_36/C-4040-8_t33_cm-1.asc
PE IR       SPECTRUM    SPECTRUM    ASCII       PEDS        1.60
  -1
C-1BE1~1.ASC
17/05/02
13:40:03.00
17/05/02
13:40:03.00
tln
$C-4040-8_t0033$<tbV0>[2.5,12.0,8.0,0.0,22,1,0]
370
64

2002,4.07
MIRTGS : RIGHTBACK : INTERNAL 2
MIR : ON : INTERNAL 2
OPTKBR

0.200000
8
8.000000
FILLER
RATIO
SPECTRUM
UNLOCKED 256

DOUBLE
64
COMBINED
1
0
0

1.000000
RATIO

1
0
TRUE
51149
0
LEFT NOT FITTED RIGHT NOT FITTED 0
NONE
NONE
15600
12
4.427000
51148
TRUE
1 0 8 72 0 0 0 0

15798

#HDR
-1
-1
#GR
CM-1
%T
2.38419e-05
0.0
7800
-1.000000
7431
8
90.5434
57.8012
#DATA
7800	71.7353
7795	72.7247
7790	64.9092
7785	68.1221
7780	75.9373
7775	65.6389
7770	58.2321
7765	57.8704
7760	61.3053
7755	71.5411
7750	75.1538
7745	71.4824
7740	71.5392
7735	78.259
7730	78.2424
7725	71.4268
7720	63.8278
7715	62.0053
7710	63.2504
7705	64.8412
7700	66.7189
7695	66.2126
7690	65.5136
7685	70.0966
7680	73.7779
7675	67.2738
7670	60.311
7665	61.026
7660	66.0299
7655	70.7371
7650	71.4589
7645	68.6961
7640	66.3003
7635	65.5181
7630	64.4341
7625	64.9007
7620	67.4788
7615	67.9107
7610	67.6583
7605	64.9236
7600	64.1826
7595	70.3194
7590	72.7526
7585	66.6549
7580	63.2156
7575	68.4498
7570	69.9199
7565	62.4092
7560	58.8993
7555	62.9797
7550	65.2972
7545	69.1578
7540	69.6022
7535	65.6508
7530	66.9047
7525	69.6266
7520	64.9981
7515	62.4045
7510	62.1525
7505	61.346
7500	63.7493
7495	65.979
7490	66.9834
7485	65.6148
7480	63.4685
7475	65.0556
7470	65.2252
7465	66.5852
7460	68.3326
7455	65.4834
7450	63.8281
7445	65.9392
7440	66.3004
7435	65.5382
7430	64.1955
7425	64.5082
7420	63.7231
7415	65.0625
7410	67.604
7405	65.8919
7400	63.2329
7395	62.703
7390	62.5406
7385	62.435
7380	61.7697
7375	61.4314
7370	62.7311
7365	65.0331
7360	66.001
7355	64.8834
7350	63.9123
7345	61.5548
7340	58.7949
7335	60.0815
7330	63.0483
7325	65.0453
7320	64.6429
7315	64.7937
7310	66.1778
7305	64.5432
7300	62.6417
7295	63.3187
7290	66.963
7285	69.0448
7280	66.7274
7275	65.5592
7270	65.5414
7265	64.3214
7260	64.1881
7255	65.4224
7250	67.5799
7245	65.2406
7240	62.0271
7235	62.2123
7230	64.9764
7225	66.3168
7220	64.4166
7215	62.207
7210	63.0261
7205	64.8425
7200	65.5249
7195	64.3721
7190	63.3775
7185	65.0006
7180	64.2832
7175	64.045
7170	64.3052
7165	65.3007
7160	65.7242
7155	62.9577
7150	61.5829
7145	62.4471
7140	63.3208
7135	62.1132
7130	61.3173
7125	63.0807
7120	63.5108
7115	62.295
7110	59.8808
7105	59.6676
7100	63.6771
7095	64.9155
7090	63.7685
7085	64.5342
7080	64.37
7075	63.0896
7070	62.6568
7065	63.1697
7060	63.3821
7055	62.1642
7050	63.0098
7045	66.1789
7040	64.5938
7035	62.767
7030	64.5704
7025	64.3421
7020	65.2245
7015	64.9899
7010	62.0185
7005	61.1651
7000	61.8032
6995	62.6864
6990	65.0978
6985	66.1516
6980	64.9632
6975	63.0334
6970	62.6209
6965	64.2514
6960	64.178
6955	64.3391
6950	66.539
6945	66.6137
6940	64.3867
6935	62.6722
6930	61.7631
6925	62.4939
6920	63.5464
6915	63.5734
6910	65.4251
6905	66.3612
6900	64.3928
6895	62.5377
6890	62.704
6885	63.677
6880	64.9041
6875	65.972
6870	65.1091
6865	63.5511
6860	63.8297
6855	64.6385
6850	65.7253
6845	64.7607
6840	64.3805
6835	65.4064
6830	65.2754
6825	64.2091
6820	65.338
6815	66.4848
6810	67.5848
6805	66.9997
6800	66.4041
6795	65.7446
6790	64.0143
6785	64.6466
6780	66.6496
6775	65.3657
6770	61.8827
6765	61.1556
6760	63.4252
6755	64.3233
6750	64.5343
6745	64.8493
6740	64.0216
6735	63.7842
6730	63.7018
6725	62.8012
6720	62.4822
6715	62.7424
6710	62.578
6705	63.2228
6700	64.6076
6695	64.5723
6690	64.1691
6685	64.8171
6680	64.8031
6675	62.5916
6670	61.5718
6665	63.2891
6660	63.9195
6655	65.53
6650	66.2538
6645	64.5881
6640	64.3009
6635	64.1978
6630	63.3749
6625	62.8781
6620	63.5565
6615	64.1848
6610	64.5037
6605	64.5787
6600	65.3265
6595	65.3091
6590	63.8229
6585	63.4425
6580	64.4598
6575	65.6595
6570	66.2353
6565	66.5169
6560	65.9175
6555	65.5967
6550	64.7834
6545	64.0161
6540	63.9914
6535	64.0246
6530	63.8002
6525	63.6888
6520	65.3169
6515	65.9193
6510	64.6923
6505	64.4433
6500	64.5076
6495	64.2888
6490	65.1848
6485	65.2101
6480	64.7807
6475	65.1213
6470	65.1065
6465	65.3421
6460	64.2036
6455	63.9978
6450	64.2925
6445	64.6045
6440	65.4257
6435	64.8364
6430	64.5926
6425	64.5237
6420	63.9094
6415	63.8649
6410	64.4939
6405	65.115
6400	65.0894
6395	65.0732
6390	64.7983
6385	64.7006
6380	64.0747
6375	63.7196
6370	64.8608
6365	65.5326
6360	64.7244
6355	64.5919
6350	64.5332
6345	63.9105
6340	63.0944
6335	63.2024
6330	63.2413
6325	63.7009
6320	64.6739
6315	64.8826
6310	65.1336
6305	64.6481
6300	64.4859
6295	64.1833
6290	64.2517
6285	64.9853
6280	65.1885
6275	64.516
6270	63.9601
6265	64.1568
6260	63.9174
6255	63.5142
6250	64.141
6245	64.5819
6240	64.4928
6235	64.2149
6230	63.9832
6225	64.4037
6220	63.7909
6215	63.5706
6210	63.7738
6205	64.4481
6200	65.1846
6195	64.2613
6190	63.5227
6185	63.6734
6180	63.9075
6175	64.4423
6170	64.2627
6165	64.6907
6160	65.6262
6155	65.3547
6150	65.1377
6145	64.7418
6140	65.187
6135	65.0214
6130	64.6328
6125	64.6482
6120	64.0943
6115	63.4174
6110	63.8348
6105	64.9148
6100	65.0387
6095	64.6165
6090	64.3629
6085	63.9683
6080	63.4869
6075	63.3628
6070	63.7532
6065	64.4685
6060	64.7254
6055	65.4268
6050	65.3736
6045	64.222
6040	64.4593
6035	65.3019
6030	64.4629
6025	63.6674
6020	63.7293
6015	64.0458
6010	64.7456
6005	65.435
6000	64.9461
5995	64.5604
5990	64.5643
5985	64.526
5980	64.7837
5975	64.356
5970	64.4284
5965	64.5755
5960	64.1485
5955	64.4226
5950	64.2226
5945	64.4734
5940	64.3861
5935	64.1391
5930	64.3906
5925	64.3085
5920	64.7415
5915	64.6971
5910	64.4503
5905	64.8378
5900	64.6233
5895	64.4032
5890	64.3711
5885	64.1996
5880	64.4671
5875	64.2526
5870	64.0947
5865	64.4685
5860	64.6531
5855	64.7037
5850	64.3887
5845	64.25
5840	64.2803
5835	64.0492
5830	64.7012
5825	65.1515
5820	64.434
5815	64.2508
5810	64.6522
5805	64.8424
5800	64.1944
5795	63.8707
5790	63.9937
5785	63.9091
5780	64.0882
5775	64.4833
5770	64.7199
5765	64.7954
5760	65.1008
5755	65.0175
5750	64.9513
5745	65.4205
5740	65.2218
5735	65.1736
5730	65.075
5725	64.1153
5720	63.6654
5715	64.0491
5710	64.2032
5705	63.9206
5700	64.401
5695	65.059
5690	64.6763
5685	64.4092
5680	65.0908
5675	65.1001
5670	64.3013
5665	63.665
5660	64.1228
5655	64.749
5650	64.8387
5645	64.5352
5640	64.4772
5635	64.5727
5630	64.903
5625	64.9019
5620	64.2866
5615	64.196
5610	64.703
5605	65.3424
5600	65.4813
5595	64.5281
5590	64.1628
5585	64.7459
5580	64.706
5575	64.3087
5570	63.6907
5565	63.4511
5560	64.0697
5555	64.5677
5550	64.8061
5545	64.6899
5540	64.5919
5535	64.2207
5530	63.791
5525	63.9695
5520	63.7553
5515	63.7637
5510	64.3127
5505	64.7672
5500	64.7373
5495	64.36
5490	64.126
5485	64.3477
5480	64.3675
5475	63.8066
5470	63.4886
5465	63.6615
5460	64.2942
5455	64.8371
5450	64.7631
5445	64.1503
5440	63.347
5435	63.4409
5430	64.4073
5425	65.1584
5420	64.5529
5415	63.5833
5410	64.3078
5405	65.0098
5400	64.6341
5395	64.6613
5390	64.4516
5385	64.1464
5380	65.1154
5375	64.8929
5370	63.6302
5365	62.978
5360	63.4324
5355	64.3092
5350	64.1466
5345	63.6806
5340	64.6936
5335	65.2143
5330	64.2505
5325	65.0627
5320	65.1532
5315	64.6628
5310	65.0019
5305	62.9346
5300	60.9454
5295	61.0733
5290	61.5879
5285	61.2394
5280	61.4303
5275	63.2775
5270	63.8526
5265	64.0017
5260	63.7932
5255	64.6901
5250	64.5551
5245	63.8021
5240	63.6254
5235	63.6033
5230	63.9739
5225	64.3481
5220	64.6453
5215	64.3253
5210	64.204
5205	64.7326
5200	64.7642
5195	64.5949
5190	64.5802
5185	64.5545
5180	64.3788
5175	64.1366
5170	63.89
5165	63.8422
5160	64.5154
5155	64.8416
5150	64.3866
5145	64.2142
5140	64.312
5135	64.3486
5130	64.5487
5125	64.6957
5120	64.6988
5115	64.5852
5110	64.4944
5105	64.6198
5100	64.5456
5095	64.6411
5090	64.8613
5085	64.7778
5080	64.7329
5075	64.6395
5070	64.7118
5065	64.8964
5060	64.7472
5055	64.5202
5050	64.5303
5045	64.4329
5040	64.0815
5035	63.7793
5030	64.2892
5025	65.0947
5020	65.2442
5015	64.883
5010	64.5357
5005	64.4708
5000	64.7001
4995	64.963
4990	64.8703
4985	64.6023
4980	64.7169
4975	64.9317
4970	64.7286
4965	64.4646
4960	64.218
4955	63.9492
4950	63.8488
4945	63.9939
4940	64.1304
4935	64.122
4930	64.186
4925	64.3699
4920	64.7177
4915	64.5897
4910	64.3275
4905	64.2482
4900	63.976
4895	63.6394
4890	63.6161
4885	64.0581
4880	64.4964
4875	64.3274
4870	64.1827
4865	64.22
4860	64.3316
4855	64.5676
4850	64.5692
4845	64.3943
4840	64.3064
4835	64.3651
4830	64.4134
4825	64.4385
4820	64.6398
4815	64.4245
4810	64.39
4805	64.5793
4800	64.5267
4795	64.6429
4790	64.8088
4785	64.7356
4780	64.6831
4775	64.7099
4770	64.6737
4765	64.4903
4760	64.4566
4755	64.4569
4750	64.4507
4745	64.4768
4740	64.5516
4735	64.5986
4730	64.5233
4725	64.511
4720	64.8082
4715	64.8437
4710	64.4243
4705	64.1958
4700	64.3876
4695	64.8116
4690	64.8235
4685	64.4894
4680	64.6639
4675	64.6081
4670	64.3631
4665	64.4889
4660	64.5479
4655	64.6228
4650	64.828
4645	64.8983
4640	64.5149
4635	64.3155
4630	64.3363
4625	64.3609
4620	64.5492
4615	64.9538
4610	64.8443
4605	64.3542
4600	64.3634
4595	64.5445
4590	64.667
4585	64.7901
4580	64.9778
4575	64.8669
4570	64.4564
4565	64.3219
4560	64.3283
4555	64.1522
4550	64.1506
4545	64.3265
4540	64.3873
4535	64.3652
4530	64.2946
4525	64.203
4520	64.1631
4515	64.2585
4510	64.2191
4505	64.0937
4500	64.0791
4495	64.1789
4490	63.9902
4485	63.9306
4480	64.307
4475	64.0773
4470	63.7153
4465	64.0224
4460	64.4347
4455	64.1086
4450	63.7153
4445	63.7998
4440	64.073
4435	64.2546
4430	64.1161
4425	64.5644
4420	64.8586
4415	64.0511
4410	63.4685
4405	64.0199
4400	63.4807
4395	63.0444
4390	67.2668
4385	64.7621
4380	63.0346
4375	63.0687
4370	63.8926
4365	64.6319
4360	64.6
4355	65.1042
4350	64.8424
4345	64.1047
4340	63.8466
4335	63.8813
4330	63.8677
4325	64.0685
4320	64.0352
4315	64.1175
4310	64.1204
4305	64.3028
4300	64.4099
4295	64.0482
4290	63.9809
4285	64.2914
4280	64.4431
4275	64.3687
4270	64.3189
4265	64.4119
4260	64.7154
4255	64.6318
4250	64.4552
4245	64.395
4240	64.2053
4235	64.2964
4230	64.3831
4225	64.2695
4220	64.2714
4215	64.5041
4210	64.6236
4205	64.5321
4200	64.4417
4195	64.274
4190	64.3395
4185	64.4368
4180	64.4887
4175	64.3484
4170	64.2692
4165	64.5384
4160	64.5349
4155	64.7018
4150	64.5947
4145	64.565
4140	64.5715
4135	64.4748
4130	64.6592
4125	64.8215
4120	64.7804
4115	64.7836
4110	64.8793
4105	64.8999
4100	64.836
4095	64.7649
4090	64.6372
4085	64.4156
4080	64.4066
4075	64.6255
4070	64.7168
4065	64.6163
4060	64.5872
4055	64.6503
4050	64.7809
4045	64.7623
4040	64.6728
4035	64.572
4030	64.5477
4025	64.4798
4020	64.4066
4015	64.4344
4010	64.3891
4005	64.493
4000	64.7813
3995	64.7609
3990	64.5738
3985	64.5576
3980	64.4024
3975	64.3999
3970	64.7083
3965	64.7138
3960	64.5556
3955	64.5324
3950	64.5518
3945	64.5366
3940	64.6454
3935	64.6934
3930	64.6213
3925	64.5519
3920	64.4613
3915	64.3708
3910	64.3292
3905	64.3988
3900	64.4683
3895	64.5785
3890	64.7438
3885	64.7258
3880	64.5679
3875	64.4832
3870	64.4861
3865	64.567
3860	64.6387
3855	64.5587
3850	64.4019
3845	64.3125
3840	64.3088
3835	64.4684
3830	64.4957
3825	64.5699
3820	64.7626
3815	64.812
3810	64.6527
3805	64.5661
3800	64.6305
3795	64.6216
3790	64.5746
3785	64.5762
3780	64.5379
3775	64.4402
3770	64.4302
3765	64.4775
3760	64.7177
3755	64.8166
3750	64.6806
3745	64.6013
3740	64.5885
3735	64.6204
3730	64.6591
3725	64.763
3720	64.7245
3715	64.5552
3710	64.5931
3705	64.623
3700	64.5402
3695	64.5229
3690	64.521
3685	64.5998
3680	64.7218
3675	64.7946
3670	64.6205
3665	64.4418
3660	64.5799
3655	64.6839
3650	64.6782
3645	64.5144
3640	64.4651
3635	64.4833
3630	64.4981
3625	64.5608
3620	64.6694
3615	64.5916
3610	64.5616
3605	64.6644
3600	64.5306
3595	64.4944
3590	64.5882
3585	64.5764
3580	64.5474
3575	64.5305
3570	64.5593
3565	64.5504
3560	64.5501
3555	64.6111
3550	64.7513
3545	64.7242
3540	64.5579
3535	64.6453
3530	64.6568
3525	64.5226
3520	64.5083
3515	64.5515
3510	64.6306
3505	64.738
3500	64.7424
3495	64.5817
3490	64.4104
3485	64.225
3480	64.0742
3475	64.2593
3470	64.4378
3465	64.4673
3460	64.4698
3455	64.5066
3450	64.6567
3445	64.6619
3440	64.5337
3435	64.5691
3430	64.791
3425	64.7647
3420	64.5574
3415	64.5313
3410	64.5695
3405	64.4936
3400	64.4993
3395	64.4996
3390	64.4009
3385	64.5498
3380	64.623
3375	64.6224
3370	64.6942
3365	64.6798
3360	64.5952
3355	64.5735
3350	64.6175
3345	64.5465
3340	64.5095
3335	64.4902
3330	64.5012
3325	64.5988
3320	64.5936
3315	64.4852
3310	64.4417
3305	64.4106
3300	64.3838
3295	64.5344
3290	64.6468
3285	64.6465
3280	64.5959
3275	64.5271
3270	64.4666
3265	64.5153
3260	64.5536
3255	64.4401
3250	64.4891
3245	64.6529
3240	64.5885
3235	64.3977
3230	64.3588
3225	64.4947
3220	64.5991
3215	64.6231
3210	64.5677
3205	64.5252
3200	64.5956
3195	64.6438
3190	64.5361
3185	64.4504
3180	64.5118
3175	64.5871
3170	64.505
3165	64.4157
3160	64.3659
3155	64.4439
3150	64.5778
3145	64.5607
3140	64.5088
3135	64.4287
3130	64.3958
3125	64.4382
3120	64.5015
3115	64.5005
3110	64.5944
3105	64.528
3100	64.4086
3095	64.5217
3090	64.5914
3085	64.5679
3080	64.5717
3075	64.5705
3070	64.6198
3065	64.6955
3060	64.6854
3055	64.6156
3050	64.6806
3045	64.7678
3040	64.7146
3035	64.4817
3030	64.3909
3025	64.5211
3020	64.6504
3015	64.6599
3010	64.5981
3005	64.7075
3000	64.7494
2995	64.6922
2990	64.6282
2985	64.6136
2980	64.6331
2975	64.5417
2970	64.4759
2965	64.4678
2960	64.396
2955	64.3378
2950	64.403
2945	64.4464
2940	64.504
2935	64.5198
2930	64.4362
2925	64.3379
2920	64.2227
2915	64.2843
2910	64.3728
2905	64.3217
2900	64.3376
2895	64.3962
2890	64.3857
2885	64.3424
2880	64.4086
2875	64.5039
2870	64.4805
2865	64.4656
2860	64.5059
2855	64.4593
2850	64.3698
2845	64.4291
2840	64.5388
2835	64.6513
2830	64.6881
2825	64.7017
2820	64.7027
2815	64.6683
2810	64.7732
2805	64.8313
2800	64.7888
2795	64.7889
2790	64.7242
2785	64.6885
2780	64.7765
2775	64.7783
2770	64.7204
2765	64.7501
2760	64.7856
2755	64.8157
2750	64.7895
2745	64.7054
2740	64.7275
2735	64.8
2730	64.773
2725	64.7666
2720	64.7805
2715	64.7698
2710	64.7372
2705	64.7405
2700	64.7621
2695	64.7294
2690	64.7438
2685	64.7373
2680	64.7048
2675	64.722
2670	64.7516
2665	64.7549
2660	64.7556
2655	64.7036
2650	64.6622
2645	64.6719
2640	64.6817
2635	64.7063
2630	64.7891
2625	64.8576
2620	64.8277
2615	64.7969
2610	64.7462
2605	64.7144
2600	64.7774
2595	64.8269
2590	64.8163
2585	64.7495
2580	64.8286
2575	64.9101
2570	64.8315
2565	64.8125
2560	64.8408
2555	64.8566
2550	64.852
2545	64.712
2540	64.6792
2535	64.7008
2530	64.7396
2525	64.7873
2520	64.808
2515	64.7717
2510	64.7627
2505	64.7929
2500	64.781
2495	64.7733
2490	64.8068
2485	64.7422
2480	64.7122
2475	64.8006
2470	64.9116
2465	64.8578
2460	64.8036
2455	64.8009
2450	64.7615
2445	64.7541
2440	64.8202
2435	64.8992
2430	64.8955
2425	64.8863
2420	64.8318
2415	64.8013
2410	64.8676
2405	64.9079
2400	64.8342
2395	64.7284
2390	64.7044
2385	64.7521
2380	64.8311
2375	64.8693
2370	64.8049
2365	64.8038
2360	64.8007
2355	64.7151
2350	64.655
2345	64.7078
2340	64.7744
2335	64.834
2330	64.7921
2325	64.7153
2320	64.7719
2315	64.8659
2310	64.8605
2305	64.8437
2300	64.843
2295	64.8079
2290	64.8007
2285	64.7911
2280	64.7842
2275	64.7461
2270	64.7495
2265	64.8206
2260	64.814
2255	64.7453
2250	64.7756
2245	64.8356
2240	64.7911
2235	64.7146
2230	64.6994
2225	64.7168
2220	64.7251
2215	64.7854
2210	64.8136
2205	64.7986
2200	64.7753
2195	64.7228
2190	64.6628
2185	64.6638
2180	64.7174
2175	64.8085
2170	64.8304
2165	64.7454
2160	64.7439
2155	64.7547
2150	64.7714
2145	64.7309
2140	64.7769
2135	64.8483
2130	64.7185
2125	64.6257
2120	64.5603
2115	64.5599
2110	64.622
2105	64.7228
2100	64.797
2095	64.7708
2090	64.7402
2085	64.7646
2080	64.742
2075	64.6379
2070	64.5957
2065	64.6075
2060	64.5792
2055	64.5533
2050	64.5525
2045	64.6062
2040	64.6636
2035	64.586
2030	64.5427
2025	64.5712
2020	64.5844
2015	64.5828
2010	64.6189
2005	64.6556
2000	64.6733
1995	64.6586
1990	64.6084
1985	64.6157
1980	64.7146
1975	64.7157
1970	64.6747
1965	64.6248
1960	64.6008
1955	64.6446
1950	64.6837
1945	64.6113
1940	64.605
1935	64.6034
1930	64.5823
1925	64.5341
1920	64.5156
1915	64.4421
1910	64.4508
1905	64.5587
1900	64.5762
1895	64.4917
1890	64.4491
1885	64.5284
1880	64.5061
1875	64.4647
1870	64.4981
1865	64.4851
1860	64.4796
1855	64.4831
1850	64.4703
1845	64.4462
1840	64.5003
1835	64.5762
1830	64.5112
1825	64.4341
1820	64.4285
1815	64.4306
1810	64.4161
1805	64.4636
1800	64.4815
1795	64.4398
1790	64.4435
1785	64.4999
1780	64.4587
1775	64.3878
1770	64.4118
1765	64.3844
1760	64.3214
1755	64.2999
1750	64.2351
1745	64.2309
1740	64.2787
1735	64.1711
1730	64.1286
1725	64.2174
1720	64.2192
1715	64.2207
1710	64.2915
1705	64.2866
1700	64.3216
1695	64.3003
1690	64.2328
1685	64.2935
1680	64.3178
1675	64.2628
1670	64.2758
1665	64.2757
1660	64.2614
1655	64.2578
1650	64.2273
1645	64.1966
1640	64.2029
1635	64.1826
1630	64.2738
1625	64.3501
1620	64.3154
1615	64.2654
1610	64.2053
1605	64.1622
1600	64.1133
1595	64.1305
1590	64.0874
1585	64.0238
1580	64.0202
1575	64.0144
1570	64.0162
1565	64.0428
1560	64.1154
1555	64.1753
1550	64.155
1545	64.0511
1540	64.0313
1535	64.1289
1530	64.1361
1525	64.1098
1520	64.1132
1515	64.1459
1510	64.1298
1505	64.0877
1500	64.1881
1495	64.2945
1490	64.1581
1485	64.1015
1480	64.1414
1475	64.1588
1470	64.1883
1465	64.1976
1460	64.1949
1455	64.1905
1450	64.148
1445	64.1363
1440	64.1893
1435	64.2427
1430	64.3063
1425	64.2668
1420	64.1473
1415	64.0944
1410	64.0681
1405	64.094
1400	64.0879
1395	64.1057
1390	64.1144
1385	64.1282
1380	64.133
1375	64.2297
1370	64.2929
1365	64.2796
1360	64.2204
1355	64.1454
1350	64.0995
1345	64.1053
1340	64.1049
1335	64.1364
1330	64.0697
1325	64.0347
1320	64.1113
1315	64.0886
1310	64.0142
1305	64.0307
1300	64.0566
1295	64.0488
1290	64.0331
1285	63.9655
1280	63.961
1275	63.9898
1270	64.0484
1265	64.1006
1260	64.1557
1255	64.1026
1250	64.0132
1245	63.9579
1240	64.0009
1235	64.0929
1230	64.1559
1225	64.1076
1220	64.0656
1215	64.1001
1210	64.1376
1205	64.149
1200	64.1348
1195	64.1504
1190	64.2086
1185	64.272
1180	64.3345
1175	64.2481
1170	64.1545
1165	64.1834
1160	64.1643
1155	64.0782
1150	64.0403
1145	64.0941
1140	64.1696
1135	64.2553
1130	64.3177
1125	64.2988
1120	64.2178
1115	64.1376
1110	64.0976
1105	64.2307
1100	64.3305
1095	64.2257
1090	64.2613
1085	64.2749
1080	64.2375
1075	64.394
1070	64.2889
1065	64.1221
1060	64.0301
1055	64.0355
1050	64.1349
1045	64.1103
1040	63.9949
1035	63.9398
1030	63.9693
1025	64.0952
1020	64.087
1015	64.0591
1010	63.9459
1005	64.0077
1000	64.3029
995	 64.351
990	 64.0277
985	 63.731
980	 63.9311
975	 63.9929
970	 63.7894
965	 63.8522
960	 63.9241
955	 63.9308
950	 63.8021
945	 63.6182
940	 63.8379
935	 63.904
930	 63.9008
925	 63.9098
920	 63.5569
915	 63.8021
910	 63.7854
905	 63.1645
900	 63.0817
895	 63.3001
890	 63.4833
885	 63.8393
880	 63.9892
875	 63.8026
870	 63.4752
865	 63.336
860	 63.3163
855	 63.3971
850	 63.5293
845	 63.5794
840	 63.5592
835	 63.6248
830	 63.6482
825	 63.6312
820	 63.5012
815	 63.446
810	 63.5648
805	 63.6962
800	 63.5649
795	 63.3856
790	 63.346
785	 63.295
780	 63.3244
775	 63.4226
770	 63.3019
765	 63.294
760	 63.3053
755	 63.1064
750	 62.937
745	 62.9523
740	 63.0315
735	 63.0832
730	 63.0671
725	 63.1755
720	 63.146
715	 62.9678
710	 62.908
705	 62.8785
700	 62.5456
695	 62.5613
690	 62.766
685	 62.5909
680	 62.4822
675	 62.5589
670	 62.4761
665	 62.3878
660	 62.3604
655	 62.3872
650	 62.5118
645	 62.4162
640	 62.365
635	 62.5012
630	 62.3021
625	 62.2037
620	 62.4245
615	 62.4545
610	 62.3974
605	 62.1115
600	 61.8256
595	 61.9477
590	 62.1178
585	 62.0383
580	 61.7957
575	 61.7316
570	 61.5017
565	 61.2224
560	 61.0083
555	 61.0217
550	 61.0791
545	 61.4757
540	 61.7889
535	 61.5452
530	 61.2227
525	 61.156
520	 60.9666
515	 60.9144
510	 60.6254
505	 60.3827
500	 60.5795
495	 60.6126
490	 60.3623
485	 60.4389
480	 60.3365
475	 60.0726
470	 59.8825
465	 59.8633
460	 59.3254
455	 58.6951
450	 59.2875
445	 59.5386
440	 59.6005
435	 59.408
430	 59.4399
425	 60.3766
420	 61.1692
415	 60.9625
410	 61.4473
405	 61.6794
400	 60.5676
395	 59.9982
390	 60.438
385	 64.6986
380	 73.8204
375	 75.2295
370	 90.5434