File: Bakgrunnsmateriale/MATLAB/FTIR/ftir_data/subBb/Mapping_36/C-4040-8_t29_cm-1.asc
PE IR       SPECTRUM    SPECTRUM    ASCII       PEDS        1.60
  -1
C-9AE0~1.ASC
17/05/02
13:20:42.00
17/05/02
13:20:42.00
tln
$C-4040-8_t0029$<tbV0>[-7.5,7.0,8.0,0.0,22,1,0]
370
64

2002,4.07
MIRTGS : RIGHTBACK : INTERNAL 2
MIR : ON : INTERNAL 2
OPTKBR

0.200000
8
8.000000
FILLER
RATIO
SPECTRUM
UNLOCKED 256

DOUBLE
64
COMBINED
1
0
0

1.000000
RATIO

1
0
TRUE
51149
0
LEFT NOT FITTED RIGHT NOT FITTED 0
NONE
NONE
15600
12
4.427000
51148
TRUE
1 0 8 72 0 0 0 0

15798

#HDR
-1
-1
#GR
CM-1
%T
2.38419e-05
0.0
7800
-1.000000
7431
8
88.975
51.8646
#DATA
7800	74.499
7795	77.9385
7790	66.1324
7785	64.5544
7780	69.3953
7775	72.9193
7770	72.9999
7765	70.007
7760	67.6565
7755	67.7613
7750	67.5343
7745	67.9666
7740	70.4969
7735	74.5406
7730	75.7344
7725	69.112
7720	60.063
7715	58.5642
7710	58.4516
7705	62.8229
7700	67.3779
7695	66.2099
7690	66.2137
7685	67.9254
7680	68.6386
7675	67.2945
7670	62.9901
7665	62.0488
7660	61.8736
7655	61.3593
7650	63.0952
7645	64.5008
7640	63.8692
7635	64.1769
7630	66.5881
7625	68.4417
7620	68.5994
7615	67.7943
7610	70.0057
7605	69.6532
7600	66.6114
7595	67.4801
7590	68.9569
7585	65.343
7580	64.2305
7575	72.2737
7570	75.6594
7565	68.7529
7560	63.6232
7555	61.9972
7550	63.7734
7545	67.3625
7540	67.8334
7535	61.8011
7530	62.0272
7525	66.8872
7520	65.6676
7515	63.9627
7510	63.6335
7505	66.0994
7500	67.5634
7495	68.6505
7490	67.9055
7485	65.1379
7480	60.6847
7475	59.5482
7470	60.9202
7465	63.2758
7460	64.7367
7455	64.2475
7450	63.7047
7445	65.3595
7440	66.5239
7435	66.2002
7430	65.313
7425	64.7298
7420	64.0469
7415	64.5699
7410	65.0425
7405	63.5785
7400	62.9347
7395	63.7558
7390	65.3036
7385	65.0747
7380	65.969
7375	65.2291
7370	66.5301
7365	66.7022
7360	64.9606
7355	65.8648
7350	65.5294
7345	62.7838
7340	61.2651
7335	63.6927
7330	63.6407
7325	61.7291
7320	61.398
7315	62.3286
7310	63.4899
7305	63.6431
7300	62.3383
7295	60.6678
7290	62.8867
7285	65.3516
7280	64.6287
7275	63.8086
7270	62.2094
7265	62.1358
7260	63.5749
7255	62.8518
7250	63.9731
7245	64.2235
7240	61.8106
7235	61.1142
7230	64.749
7225	67.2865
7220	65.7271
7215	63.3929
7210	62.6583
7205	62.6612
7200	62.5122
7195	63.1346
7190	65.1007
7185	66.4312
7180	64.4173
7175	62.6106
7170	62.6053
7165	64.1229
7160	64.6613
7155	63.4629
7150	62.6268
7145	64.042
7140	64.0738
7135	62.1207
7130	60.9823
7125	59.9519
7120	61.2456
7115	63.9943
7110	65.0388
7105	64.062
7100	62.9881
7095	62.4935
7090	62.5831
7085	62.0942
7080	62.95
7075	64.0094
7070	64.2554
7065	63.4701
7060	62.8922
7055	64.1724
7050	63.6651
7045	61.8638
7040	61.2077
7035	63.2326
7030	64.5118
7025	62.7529
7020	62.748
7015	65.4658
7010	64.4574
7005	62.3971
7000	64.5206
6995	65.5631
6990	62.8869
6985	61.9413
6980	62.0525
6975	62.1478
6970	62.201
6965	63.2646
6960	64.7063
6955	65.1526
6950	63.5606
6945	62.6699
6940	63.7896
6935	64.1378
6930	62.4838
6925	62.6223
6920	63.5833
6915	63.4381
6910	63.3813
6905	63.4363
6900	64.0124
6895	63.2514
6890	63.348
6885	63.6674
6880	62.8404
6875	63.5125
6870	64.7729
6865	64.7044
6860	63.9361
6855	64.449
6850	64.9654
6845	63.7266
6840	62.8986
6835	62.7238
6830	62.4896
6825	63.1803
6820	63.5868
6815	62.8902
6810	64.2398
6805	65.3433
6800	63.554
6795	62.5378
6790	63.4112
6785	64.2302
6780	64.5083
6775	64.8365
6770	64.1829
6765	62.4312
6760	62.1298
6755	63.3341
6750	63.434
6745	62.1115
6740	61.2778
6735	62.2012
6730	63.0588
6725	62.498
6720	62.1593
6715	62.4725
6710	62.9848
6705	63.7068
6700	64.0016
6695	64.2501
6690	64.9489
6685	65.356
6680	64.7112
6675	62.6773
6670	62.9269
6665	64.2739
6660	63.5357
6655	63.0972
6650	63.9541
6645	64.2264
6640	63.8971
6635	63.1128
6630	62.6361
6625	63.5008
6620	63.5681
6615	62.7799
6610	63.2677
6605	64.2179
6600	64.4042
6595	63.9776
6590	62.5602
6585	61.5257
6580	62.9464
6575	63.8608
6570	63.9481
6565	64.4808
6560	64.4367
6555	64.1471
6550	64.3254
6545	64.4778
6540	63.7705
6535	62.8127
6530	63.3592
6525	63.8632
6520	64.3123
6515	64.403
6510	63.4257
6505	64.1157
6500	64.1233
6495	62.745
6490	62.9874
6485	63.6639
6480	64.0261
6475	63.4293
6470	62.4061
6465	62.705
6460	63.9941
6455	65.499
6450	65.4877
6445	64.384
6440	63.1557
6435	62.4691
6430	62.1997
6425	62.7659
6420	63.1492
6415	63.7215
6410	64.5722
6405	64.5962
6400	64.2791
6395	64.6202
6390	64.5914
6385	64.0481
6380	63.4572
6375	62.5799
6370	63.2428
6365	65.0302
6360	65.7236
6355	64.7485
6350	63.8813
6345	64.2087
6340	64.2024
6335	63.7918
6330	63.1686
6325	63.855
6320	65.45
6315	65.4232
6310	64.4061
6305	63.8658
6300	62.67
6295	62.4009
6290	63.5681
6285	64.3313
6280	64.3943
6275	64.3702
6270	63.9764
6265	62.9848
6260	62.5147
6255	62.4335
6250	63.6273
6245	64.1828
6240	64.22
6235	63.7119
6230	62.6737
6225	63.0267
6220	63.479
6215	63.6896
6210	63.6343
6205	63.4046
6200	64.0035
6195	64.4717
6190	63.3902
6185	62.6952
6180	63.4039
6175	64.86
6170	64.8402
6165	64.0218
6160	64.0361
6155	63.6732
6150	63.8049
6145	63.8197
6140	64.4094
6135	64.3747
6130	63.4552
6125	63.4591
6120	64.4385
6115	64.5174
6110	64.3697
6105	64.3679
6100	64.4676
6095	64.2272
6090	63.7477
6085	63.9576
6080	63.8843
6075	63.7008
6070	64.6131
6065	64.7335
6060	64.3681
6055	65.3967
6050	65.2874
6045	63.974
6040	64.0403
6035	64.3724
6030	63.6661
6025	63.6548
6020	64.1687
6015	64.4511
6010	64.3078
6005	64.5821
6000	64.4657
5995	64.0699
5990	64.0927
5985	64.6837
5980	64.6744
5975	63.5308
5970	63.5282
5965	64.502
5960	64.5507
5955	63.8772
5950	63.4522
5945	63.7012
5940	63.9996
5935	64.0002
5930	63.8994
5925	63.963
5920	64.2589
5915	64.0296
5910	63.8844
5905	64.0406
5900	64.3046
5895	63.9572
5890	63.976
5885	64.0252
5880	63.8505
5875	63.8464
5870	64.2038
5865	64.0893
5860	63.406
5855	63.304
5850	63.8596
5845	64.1791
5840	64.1247
5835	64.6246
5830	65.3775
5825	64.8863
5820	64.0747
5815	63.8674
5810	63.9038
5805	63.6721
5800	63.3934
5795	64.1044
5790	64.2493
5785	63.919
5780	63.7185
5775	63.8772
5770	63.7557
5765	63.7162
5760	63.9608
5755	63.8015
5750	64.1578
5745	64.4191
5740	63.9571
5735	63.6298
5730	63.563
5725	63.6836
5720	63.921
5715	64.3386
5710	64.445
5705	63.8884
5700	64.0841
5695	64.7401
5690	64.6414
5685	63.7056
5680	63.5053
5675	64.2058
5670	64.1946
5665	63.6854
5660	64.0754
5655	64.1371
5650	64.742
5645	65.3229
5640	65.1951
5635	64.7098
5630	64.5314
5625	64.2165
5620	63.7737
5615	63.6651
5610	63.9219
5605	64.4744
5600	64.8337
5595	64.5899
5590	64.3932
5585	64.4506
5580	64.3047
5575	64.2436
5570	64.4677
5565	64.4895
5560	64.3709
5555	64.2701
5550	64.3923
5545	64.1764
5540	63.8795
5535	63.8347
5530	64.2799
5525	64.4693
5520	63.8606
5515	63.7547
5510	63.9556
5505	63.6753
5500	63.4421
5495	63.3068
5490	63.3774
5485	64.0284
5480	64.0425
5475	63.3167
5470	63.157
5465	63.1359
5460	63.9897
5455	64.9168
5450	64.0372
5445	63.2764
5440	63.3438
5435	63.7606
5430	64.5374
5425	64.768
5420	64.3083
5415	64.3116
5410	64.0081
5405	63.7444
5400	64.3942
5395	64.721
5390	63.9679
5385	63.7077
5380	64.7378
5375	64.791
5370	63.6056
5365	63.4448
5360	64.2618
5355	64.7166
5350	64.9184
5345	63.9444
5340	63.4121
5335	64.2773
5330	64.525
5325	63.7094
5320	63.5936
5315	65.1167
5310	64.9306
5305	63.5881
5300	62.4766
5295	61.0879
5290	60.6425
5285	60.6565
5280	60.2409
5275	62.4238
5270	63.4027
5265	63.9294
5260	64.1301
5255	64.0452
5250	64.2526
5245	64.2835
5240	63.6648
5235	62.9158
5230	63.0684
5225	63.4346
5220	63.7754
5215	63.7647
5210	64.0104
5205	63.9866
5200	63.4844
5195	63.1609
5190	63.4027
5185	63.5695
5180	63.6678
5175	63.9755
5170	63.7144
5165	63.9848
5160	64.7189
5155	64.6914
5150	64.3337
5145	64.1602
5140	64.2323
5135	64.0119
5130	63.9828
5125	64.2994
5120	64.4533
5115	64.5579
5110	64.635
5105	64.449
5100	64.3709
5095	64.363
5090	64.1511
5085	63.9546
5080	63.8692
5075	64.1834
5070	64.1069
5065	64.1746
5060	64.2026
5055	63.6877
5050	63.8922
5045	64.1442
5040	64.1119
5035	63.6245
5030	63.6843
5025	64.088
5020	64.1037
5015	63.9432
5010	63.7589
5005	63.9968
5000	64.1155
4995	63.7967
4990	63.8288
4985	63.9526
4980	64.014
4975	64.4375
4970	64.6658
4965	64.5639
4960	64.1379
4955	63.9539
4950	63.8141
4945	63.6888
4940	63.7165
4935	63.7179
4930	63.8872
4925	63.9553
4920	63.8591
4915	63.8413
4910	63.8276
4905	63.8107
4900	63.6794
4895	63.6104
4890	63.7647
4885	64.0216
4880	63.792
4875	63.652
4870	64.1437
4865	64.1238
4860	63.7507
4855	63.6336
4850	63.4983
4845	63.7225
4840	64.0425
4835	64.2331
4830	64.2137
4825	63.9509
4820	63.8523
4815	63.8324
4810	64.0291
4805	64.1167
4800	63.9569
4795	64.0213
4790	64.0702
4785	63.8815
4780	64.0371
4775	63.9779
4770	63.7863
4765	63.9426
4760	64.0948
4755	64.0264
4750	64.0663
4745	64.2832
4740	64.2611
4735	64.0023
4730	63.8437
4725	63.9128
4720	64.0488
4715	64.1944
4710	64.2581
4705	63.9398
4700	63.7322
4695	63.8824
4690	64.1046
4685	64.1221
4680	63.9896
4675	63.9411
4670	64.0475
4665	64.1658
4660	64.1754
4655	64.1385
4650	64.0939
4645	64.3892
4640	64.5796
4635	64.3569
4630	63.9686
4625	63.7491
4620	63.9934
4615	64.3192
4610	64.0837
4605	63.5964
4600	63.7521
4595	63.9686
4590	64.129
4585	64.2814
4580	64.3283
4575	63.9311
4570	63.5421
4565	63.7997
4560	64.1428
4555	63.8916
4550	63.8127
4545	63.8339
4540	63.7427
4535	63.7135
4530	63.6143
4525	63.5886
4520	63.4993
4515	63.5757
4510	63.5537
4505	63.282
4500	63.2995
4495	63.4712
4490	63.1861
4485	63.247
4480	63.5652
4475	63.4026
4470	63.0092
4465	62.9909
4460	63.4158
4455	63.3479
4450	62.97
4445	62.8628
4440	63.0622
4435	63.3702
4430	63.3163
4425	63.2686
4420	63.1961
4415	62.4449
4410	61.9811
4405	62.0264
4400	61.7612
4395	63.2276
4390	82.0533
4385	86.2781
4380	71.3493
4375	66.1136
4370	65.1963
4365	64.5857
4360	64.1428
4355	64.2739
4350	63.812
4345	63.6999
4340	63.8067
4335	63.5036
4330	63.5377
4325	63.8302
4320	63.8666
4315	63.6716
4310	63.5031
4305	63.5588
4300	63.5295
4295	63.4032
4290	63.2708
4285	63.453
4280	63.6682
4275	63.7443
4270	63.6803
4265	63.5824
4260	63.6367
4255	63.7127
4250	63.6383
4245	63.4496
4240	63.6353
4235	63.8518
4230	63.7857
4225	63.6577
4220	63.5816
4215	63.6693
4210	63.6623
4205	63.3667
4200	63.5065
4195	63.9253
4190	64.0822
4185	64.0054
4180	63.9823
4175	64.2025
4170	64.1673
4165	63.9399
4160	63.9444
4155	64.1695
4150	64.2358
4145	64.1152
4140	64.1776
4135	64.0903
4130	63.9957
4125	63.861
4120	63.91
4115	64.1639
4110	64.4614
4105	64.4155
4100	64.2682
4095	64.2948
4090	64.1826
4085	64.1509
4080	64.2267
4075	64.2223
4070	64.2498
4065	64.2674
4060	64.2648
4055	64.1708
4050	64.1588
4045	64.2584
4040	64.2665
4035	64.0635
4030	63.8683
4025	63.8645
4020	63.8889
4015	63.9761
4010	64.0264
4005	64.1415
4000	64.315
3995	64.2332
3990	63.9986
3985	64.0028
3980	64.087
3975	64.1344
3970	64.1698
3965	64.0906
3960	64.0814
3955	64.2752
3950	64.2437
3945	64.0979
3940	64.1789
3935	64.3063
3930	64.2806
3925	64.268
3920	63.9608
3915	63.6556
3910	63.7167
3905	64.0146
3900	64.1122
3895	64.1768
3890	64.2835
3885	64.1232
3880	64.0119
3875	63.9862
3870	63.8081
3865	63.909
3860	64.0591
3855	64.1668
3850	64.084
3845	63.8231
3840	63.809
3835	63.851
3830	63.8667
3825	64.0521
3820	64.1364
3815	64.0583
3810	63.9855
3805	63.9808
3800	64.0421
3795	64.08
3790	64.0233
3785	64.0642
3780	63.9913
3775	63.866
3770	63.9476
3765	64.0815
3760	64.2307
3755	64.1715
3750	64.0187
3745	64.0789
3740	64.1482
3735	64.151
3730	64.1993
3725	64.1337
3720	64.1468
3715	64.1506
3710	64.1362
3705	64.1112
3700	64.0296
3695	64.0748
3690	64.1094
3685	64.1112
3680	64.1062
3675	64.1105
3670	64.2326
3665	64.1284
3660	64.0843
3655	64.086
3650	63.9994
3645	63.9789
3640	64.0525
3635	64.1626
3630	64.0221
3625	64.0671
3620	64.2786
3615	64.2524
3610	64.1206
3605	64.1199
3600	64.0777
3595	64.1222
3590	64.1498
3585	63.9867
3580	63.9935
3575	64.0272
3570	63.986
3565	63.9599
3560	63.9424
3555	64.0038
3550	64.0696
3545	64.1058
3540	64.0261
3535	63.9965
3530	64.0627
3525	63.9717
3520	63.9953
3515	64.1013
3510	64.2049
3505	64.1916
3500	64.0292
3495	63.9414
3490	64.1374
3485	64.2256
3480	63.9263
3475	63.6263
3470	63.7254
3465	64.0583
3460	64.0937
3455	64.0336
3450	63.9367
3445	63.9098
3440	63.9855
3435	63.9388
3430	63.882
3425	63.9003
3420	63.916
3415	63.852
3410	63.8111
3405	63.9128
3400	63.9627
3395	63.8893
3390	63.699
3385	63.7075
3380	63.9557
3375	63.9754
3370	63.8668
3365	63.8361
3360	63.9431
3355	64.0443
3350	63.951
3345	63.8263
3340	63.8483
3335	63.8174
3330	63.7613
3325	63.8721
3320	63.8268
3315	63.8228
3310	63.9027
3305	63.8588
3300	63.8908
3295	63.9835
3290	63.9432
3285	63.8949
3280	63.9368
3275	63.9309
3270	63.9009
3265	63.9891
3260	64.0538
3255	63.9794
3250	63.9348
3245	64.0101
3240	64.041
3235	63.9745
3230	64.0217
3225	64.097
3220	64.04
3215	64.0552
3210	63.9827
3205	63.8819
3200	63.9138
3195	63.9377
3190	63.8795
3185	63.8175
3180	63.9957
3175	64.1314
3170	64.016
3165	64.0165
3160	64.0661
3155	64.0369
3150	64.008
3145	64.0152
3140	64.0384
3135	64.0206
3130	64.003
3125	63.9712
3120	63.9516
3115	63.9144
3110	63.9628
3105	63.9463
3100	63.9675
3095	64.1259
3090	64.1411
3085	64.0278
3080	63.9365
3075	63.9569
3070	63.9993
3065	63.9845
3060	63.9333
3055	63.8799
3050	63.9741
3045	64.0732
3040	64.0213
3035	63.8978
3030	63.8793
3025	63.9032
3020	63.8747
3015	63.8609
3010	63.9215
3005	63.9945
3000	64.0252
2995	64.0259
2990	63.9847
2985	63.9188
2980	63.9361
2975	63.9269
2970	63.8451
2965	63.7553
2960	63.7563
2955	63.8108
2950	63.8864
2945	63.8919
2940	63.8101
2935	63.7847
2930	63.6664
2925	63.5346
2920	63.5403
2915	63.5836
2910	63.7224
2905	63.8765
2900	63.857
2895	63.7323
2890	63.7068
2885	63.7523
2880	63.7924
2875	63.8504
2870	63.8756
2865	63.785
2860	63.749
2855	63.7348
2850	63.782
2845	63.8535
2840	63.8041
2835	63.8155
2830	63.8693
2825	63.8964
2820	63.8934
2815	63.9021
2810	63.9799
2805	63.9943
2800	63.9613
2795	64.0419
2790	64.056
2785	64.0321
2780	64.0731
2775	64.0941
2770	64.0098
2765	63.9173
2760	63.9999
2755	63.9861
2750	63.943
2745	64.0333
2740	64.0252
2735	63.9951
2730	63.9717
2725	64.039
2720	64.0373
2715	63.9558
2710	63.9297
2705	63.9092
2700	63.9222
2695	63.9835
2690	64.0691
2685	64.0171
2680	63.9
2675	63.9278
2670	64.0417
2665	64.0352
2660	63.9964
2655	63.9563
2650	63.9291
2645	63.9506
2640	63.9698
2635	64.0225
2630	64.0589
2625	64.0354
2620	64.0159
2615	63.9491
2610	63.9399
2605	63.9861
2600	63.9597
2595	63.9449
2590	63.975
2585	63.937
2580	63.9495
2575	63.9726
2570	64.0073
2565	64.0226
2560	64.0707
2555	64.0797
2550	64.0304
2545	63.9668
2540	63.9009
2535	63.8633
2530	63.8719
2525	63.93
2520	64.0235
2515	63.9684
2510	63.939
2505	64.0509
2500	64.1109
2495	63.9972
2490	63.9385
2485	63.9085
2480	63.8813
2475	63.9665
2470	64.0475
2465	64.0677
2460	64.0304
2455	64.0779
2450	64.0903
2445	64.0465
2440	64.0089
2435	64.044
2430	64.0093
2425	64.032
2420	64.0403
2415	64.0357
2410	64.0749
2405	64.0809
2400	63.9625
2395	63.8439
2390	63.9034
2385	63.9415
2380	63.8903
2375	63.93
2370	63.9499
2365	63.8797
2360	63.803
2355	63.81
2350	63.8963
2345	63.926
2340	63.8226
2335	63.844
2330	63.9013
2325	63.8966
2320	63.9335
2315	63.9405
2310	63.9558
2305	64.0029
2300	64.0274
2295	64.0383
2290	64.0297
2285	64.104
2280	64.1088
2275	64.0275
2270	64.0463
2265	64.0743
2260	64.0168
2255	63.9946
2250	64.0158
2245	64.0274
2240	64.0185
2235	63.9727
2230	63.9635
2225	63.9912
2220	63.9982
2215	64.0235
2210	63.99
2205	64.0077
2200	64.0593
2195	64.0714
2190	64.0179
2185	63.9569
2180	63.9706
2175	63.9724
2170	63.9472
2165	63.9519
2160	63.9672
2155	63.9893
2150	64.0519
2145	64.0323
2140	64.0243
2135	64.0495
2130	64.0063
2125	63.9822
2120	63.9681
2115	63.9596
2110	63.9957
2105	64.0175
2100	63.99
2095	63.9385
2090	63.9523
2085	64.0174
2080	64.0376
2075	64.0249
2070	63.9337
2065	63.8627
2060	63.9217
2055	64.0105
2050	63.9566
2045	63.8956
2040	63.8966
2035	63.8965
2030	63.8713
2025	63.9397
2020	63.987
2015	64.0129
2010	64.0565
2005	63.9903
2000	63.9553
1995	63.9854
1990	63.9651
1985	63.9918
1980	64.0617
1975	63.9933
1970	63.9308
1965	63.9951
1960	64.0176
1955	64.0124
1950	63.992
1945	63.9327
1940	63.9558
1935	63.9938
1930	64.0497
1925	63.9676
1920	63.8872
1915	63.9543
1910	64.0253
1905	64.0263
1900	63.9926
1895	63.9962
1890	64.0019
1885	63.9714
1880	63.9486
1875	63.9365
1870	63.9453
1865	63.9729
1860	64.0431
1855	64.0397
1850	63.9781
1845	63.9753
1840	63.9944
1835	64.0028
1830	63.9943
1825	64.0205
1820	63.9874
1815	63.9045
1810	63.9453
1805	64.0279
1800	64.0847
1795	64.0752
1790	64.0153
1785	63.9847
1780	64.0179
1775	64.012
1770	63.9527
1765	63.9187
1760	63.9826
1755	63.997
1750	63.9157
1745	63.8773
1740	63.8247
1735	63.7444
1730	63.7448
1725	63.8005
1720	63.9123
1715	63.9671
1710	63.9319
1705	63.8788
1700	63.917
1695	63.9699
1690	63.8951
1685	63.9037
1680	63.8989
1675	63.8552
1670	63.9303
1665	63.9944
1660	63.949
1655	63.9312
1650	63.9843
1645	63.9299
1640	63.846
1635	63.8331
1630	63.8842
1625	63.8919
1620	63.8552
1615	63.8488
1610	63.8126
1605	63.7971
1600	63.812
1595	63.8083
1590	63.8019
1585	63.7689
1580	63.6898
1575	63.7181
1570	63.8239
1565	63.7947
1560	63.7221
1555	63.7593
1550	63.7813
1545	63.7955
1540	63.7956
1535	63.8365
1530	63.8839
1525	63.8677
1520	63.7864
1515	63.8104
1510	63.8616
1505	63.8688
1500	63.8596
1495	63.8816
1490	63.8854
1485	63.932
1480	63.9433
1475	63.8928
1470	63.7912
1465	63.8124
1460	63.9066
1455	63.89
1450	63.7678
1445	63.7284
1440	63.7975
1435	63.8132
1430	63.7984
1425	63.8145
1420	63.7988
1415	63.7662
1410	63.7913
1405	63.8564
1400	63.874
1395	63.8555
1390	63.7984
1385	63.7911
1380	63.7261
1375	63.673
1370	63.7296
1365	63.7765
1360	63.7064
1355	63.647
1350	63.7298
1345	63.7402
1340	63.7273
1335	63.7754
1330	63.7299
1325	63.6892
1320	63.6708
1315	63.5839
1310	63.561
1305	63.7577
1300	63.7782
1295	63.6974
1290	63.6997
1285	63.7216
1280	63.7134
1275	63.6967
1270	63.7233
1265	63.8013
1260	63.84
1255	63.7693
1250	63.6924
1245	63.7365
1240	63.8365
1235	63.8373
1230	63.7497
1225	63.668
1220	63.7263
1215	63.828
1210	63.8197
1205	63.8542
1200	63.9158
1195	63.8511
1190	63.7797
1185	63.7851
1180	63.7649
1175	63.714
1170	63.775
1165	63.7597
1160	63.5514
1155	63.4603
1150	63.4585
1145	63.5183
1140	63.5477
1135	63.6134
1130	63.7434
1125	63.6652
1120	63.5408
1115	63.4178
1110	63.2702
1105	63.2241
1100	63.2935
1095	63.3908
1090	63.6153
1085	63.6702
1080	63.5901
1075	63.5899
1070	63.5054
1065	63.4357
1060	63.344
1055	63.23
1050	63.2071
1045	63.1452
1040	63.0783
1035	63.1572
1030	63.1889
1025	63.167
1020	63.2365
1015	63.2964
1010	63.2084
1005	63.2276
1000	63.2792
995	 63.1492
990	 63.1417
985	 63.2946
980	 63.4933
975	 63.5216
970	 63.3201
965	 63.1962
960	 63.2298
955	 63.1948
950	 63.1594
945	 63.2497
940	 63.3801
935	 63.4432
930	 63.4201
925	 63.4949
920	 63.5609
915	 63.1659
910	 63.1201
905	 63.5296
900	 63.1897
895	 62.6482
890	 62.1988
885	 62.3518
880	 62.8402
875	 62.9154
870	 62.7002
865	 62.8604
860	 62.8983
855	 62.8397
850	 62.8618
845	 63.0178
840	 63.171
835	 63.0718
830	 63.1949
825	 63.4063
820	 63.06
815	 63.0297
810	 62.972
805	 62.9414
800	 62.8572
795	 62.7414
790	 62.8569
785	 62.9272
780	 62.8994
775	 62.8407
770	 62.7437
765	 62.6967
760	 62.7813
755	 62.7726
750	 62.6354
745	 62.5474
740	 62.6869
735	 62.7318
730	 62.6327
725	 62.5478
720	 62.501
715	 62.567
710	 62.5705
705	 62.5024
700	 62.3011
695	 62.2064
690	 62.2457
685	 62.249
680	 62.2052
675	 62.0252
670	 62.0933
665	 62.3365
660	 62.2171
655	 61.9516
650	 61.7666
645	 61.8042
640	 61.7583
635	 62.0241
630	 62.0524
625	 61.722
620	 61.6926
615	 61.9174
610	 61.9356
605	 61.671
600	 61.4446
595	 61.3055
590	 61.5711
585	 61.8078
580	 61.6002
575	 61.2845
570	 60.8463
565	 60.801
560	 60.9627
555	 61.0658
550	 61.213
545	 61.0994
540	 60.7917
535	 60.555
530	 60.4001
525	 60.307
520	 60.2219
515	 60.2944
510	 60.6284
505	 60.6014
500	 60.069
495	 59.9854
490	 59.8568
485	 59.3307
480	 59.1986
475	 58.8335
470	 58.6079
465	 58.7384
460	 58.8358
455	 59.0104
450	 58.537
445	 57.0777
440	 56.4354
435	 56.687
430	 56.8693
425	 57.6047
420	 58.2539
415	 57.9537
410	 56.381
405	 56.5147
400	 53.5424
395	 55.1029
390	 63.409
385	 62.4998
380	 57.3139
375	 54.2868
370	 51.8646