File: Bakgrunnsmateriale/MATLAB/FTIR/ftir_data/subBb/Mapping_36/C-4040-8_t33.asc
PE IR       SPECTRUM    SPECTRUM    ASCII       PEDS        1.60
  -1
C-A136~1.ASC
17/05/02
13:40:03.00
17/05/02
13:40:29.00
tln
$C-4040-8_t0033$<tbV0>[2.5,12.0,8.0,0.0,22,1,0]
27.028
64

2002,4.07
MIRTGS : RIGHTBACK : INTERNAL 2
MIR : ON : INTERNAL 2
OPTKBR

0.200000
8
8.000000
FILLER
RATIO
SPECTRUM
UNLOCKED 256

DOUBLE
64
COMBINED
1
0
0

0.002000
RATIO

1
0
TRUE
51149
0
LEFT NOT FITTED RIGHT NOT FITTED 0
NONE
NONE
15600
12
4.427000
51148
TRUE
1 0 8 72 0 0 0 0

15798

#HDR
-1
-1
#GR
µM
%T
2.38419e-05
0.0
1.282000
0.002000
12874
8
90.5434
58.04
#DATA
1.282000	 71.7353
1.300000	 65.3594
1.318000	 69.948
1.336000	 65.633
1.354000	 62.4891
1.372000	 67.986
1.390000	 64.0529
1.408000	 61.7452
1.426000	 63.6253
1.444000	 62.4367
1.462000	 64.3873
1.480000	 64.2517
1.498000	 62.8827
1.516000	 65.5337
1.534000	 65.6838
1.552000	 64.9593
1.570000	 65.0239
1.588000	 64.3685
1.606000	 64.3098
1.624000	 65.5752
1.642000	 64.3681
1.660000	 63.6366
1.678000	 64.1518
1.696000	 64.398
1.714000	 64.0741
1.732000	 64.5743
1.750000	 64.1156
1.768000	 64.6546
1.786000	 65.3722
1.804000	 64.6409
1.822000	 64.1443
1.840000	 63.4728
1.858000	 64.6685
1.876000	 64.2913
1.894000	 61.4852
1.912000	 63.9632
1.930000	 64.4437
1.948000	 64.389
1.966000	 64.808
1.984000	 64.1106
2.002000	 64.9629
2.020000	 63.8462
2.038000	 64.2833
2.056000	 64.2302
2.074000	 64.6007
2.092000	 64.6834
2.110000	 64.5623
2.128000	 64.4469
2.146000	 64.5484
2.164000	 64.4838
2.182000	 64.8681
2.200000	 64.3131
2.218000	 64.1792
2.236000	 63.8157
2.254000	 64.2501
2.272000	 63.8648
2.290000	 64.6125
2.308000	 63.8444
2.326000	 64.3735
2.344000	 64.3592
2.362000	 64.3415
2.380000	 64.4816
2.398000	 64.2629
2.416000	 64.5482
2.434000	 64.8997
2.452000	 64.4693
2.470000	 64.7911
2.488000	 64.4081
2.506000	 64.582
2.524000	 64.6099
2.542000	 64.6828
2.560000	 64.3756
2.578000	 64.5431
2.596000	 64.4577
2.614000	 64.5526
2.632000	 64.637
2.650000	 64.4284
2.668000	 64.6395
2.686000	 64.7814
2.704000	 64.5273
2.722000	 64.7814
2.740000	 64.6697
2.758000	 64.5448
2.776000	 64.6116
2.794000	 64.5419
2.812000	 64.5881
2.830000	 64.6776
2.848000	 64.6045
2.866000	 64.3883
2.884000	 64.4615
2.902000	 64.6787
2.920000	 64.7509
2.938000	 64.4806
2.956000	 64.6128
2.974000	 64.641
2.992000	 64.5138
3.010000	 64.615
3.028000	 64.3783
3.046000	 64.6318
3.064000	 64.5404
3.082000	 64.6579
3.100000	 64.4695
3.118000	 64.5308
3.136000	 64.5042
3.154000	 64.5184
3.172000	 64.5213
3.190000	 64.4257
3.208000	 64.4964
3.226000	 64.4089
3.244000	 64.5717
3.262000	 64.6876
3.280000	 64.7074
3.298000	 64.3917
3.316000	 64.6688
3.334000	 64.7435
3.352000	 64.6275
3.370000	 64.4748
3.388000	 64.3751
3.406000	 64.5301
3.424000	 64.2285
3.442000	 64.3251
3.460000	 64.3871
3.478000	 64.5022
3.496000	 64.5041
3.514000	 64.413
3.532000	 64.6867
3.550000	 64.6723
3.568000	 64.8085
3.586000	 64.7023
3.604000	 64.7738
3.622000	 64.7796
3.640000	 64.7418
3.658000	 64.7998
3.676000	 64.7802
3.694000	 64.7314
3.712000	 64.7269
3.730000	 64.7077
3.748000	 64.7547
3.766000	 64.7085
3.784000	 64.6749
3.802000	 64.7848
3.820000	 64.8129
3.838000	 64.7128
3.856000	 64.8338
3.874000	 64.7942
3.892000	 64.8209
3.910000	 64.8418
3.928000	 64.7334
3.946000	 64.7043
3.964000	 64.8021
3.982000	 64.7578
4.000000	 64.781
4.018000	 64.7996
4.036000	 64.7382
4.054000	 64.8901
4.072000	 64.8041
4.090000	 64.7542
4.108000	 64.9027
4.125999	 64.8775
4.144000	 64.8183
4.162000	 64.8857
4.180000	 64.701
4.198000	 64.7926
4.216000	 64.8279
4.234000	 64.8093
4.252000	 64.6613
4.270000	 64.7485
4.288000	 64.8253
4.306000	 64.7292
4.324000	 64.8753
4.342000	 64.8478
4.359999	 64.8029
4.378000	 64.7896
4.396000	 64.7444
4.414000	 64.8147
4.432000	 64.7589
4.450000	 64.8186
4.468000	 64.7586
4.486000	 64.702
4.504000	 64.7239
4.522000	 64.8146
4.540000	 64.7917
4.558000	 64.709
4.576000	 64.6618
4.594000	 64.7755
4.612000	 64.8033
4.630000	 64.7449
4.648000	 64.7667
4.666000	 64.7235
4.684000	 64.8475
4.702000	 64.6509
4.720000	 64.5513
4.738000	 64.6124
4.756000	 64.7692
4.774000	 64.7675
4.792000	 64.7534
4.810000	 64.7239
4.828000	 64.5972
4.846000	 64.6048
4.864000	 64.5548
4.882000	 64.5598
4.900000	 64.6641
4.918000	 64.5603
4.936000	 64.5646
4.954000	 64.5813
4.972000	 64.6087
4.990000	 64.6617
5.008000	 64.6669
5.026000	 64.6047
5.044000	 64.6674
5.062000	 64.7192
5.080000	 64.66
5.098000	 64.603
5.116000	 64.6498
5.134000	 64.6565
5.152000	 64.6005
5.170000	 64.6001
5.188000	 64.5607
5.206000	 64.5187
5.224000	 64.4307
5.242000	 64.5062
5.260000	 64.5816
5.278000	 64.4846
5.296000	 64.4742
5.314000	 64.5301
5.332000	 64.4638
5.350000	 64.4999
5.368000	 64.478
5.386000	 64.4843
5.404000	 64.472
5.422000	 64.4459
5.440000	 64.5391
5.458000	 64.5508
5.476000	 64.4466
5.494000	 64.4278
5.512000	 64.4264
5.530000	 64.4273
5.548000	 64.4826
5.566000	 64.4545
5.584000	 64.4361
5.602000	 64.4995
5.620000	 64.4466
5.638000	 64.3879
5.656000	 64.4142
5.674000	 64.346
5.692000	 64.3092
5.710000	 64.2543
5.728000	 64.2219
5.746000	 64.2799
5.764000	 64.1687
5.782000	 64.135
5.800000	 64.2273
5.818000	 64.2094
5.836000	 64.2449
5.854000	 64.294
5.872000	 64.295
5.890000	 64.3276
5.908000	 64.2597
5.926000	 64.2493
5.944000	 64.3258
5.962000	 64.2828
5.980000	 64.2651
5.998000	 64.2808
6.016000	 64.2663
6.034000	 64.2598
6.052000	 64.2468
6.070000	 64.2052
6.088000	 64.2012
6.106000	 64.1918
6.124000	 64.2032
6.142000	 64.3198
6.160000	 64.3429
6.178000	 64.3051
6.196000	 64.2502
6.214000	 64.2003
6.232000	 64.1571
6.250000	 64.1133
6.268000	 64.1301
6.286000	 64.0995
6.304000	 64.0351
6.322000	 64.017
6.340000	 64.0202
6.358000	 64.011
6.376000	 64.0222
6.394000	 64.0535
6.412000	 64.1227
6.430000	 64.1743
6.448000	 64.1651
6.466000	 64.0868
6.484000	 64.0157
6.502000	 64.071
6.520000	 64.1417
6.538000	 64.1328
6.556000	 64.1105
6.574000	 64.11
6.592000	 64.1309
6.610000	 64.152
6.628000	 64.1131
6.646000	 64.0894
6.664000	 64.1694
6.682000	 64.2831
6.700000	 64.2495
6.718000	 64.1161
6.736000	 64.1058
6.754000	 64.1396
6.772000	 64.149
6.790000	 64.1752
6.808000	 64.191
6.826000	 64.1976
6.844000	 64.1971
6.862000	 64.1923
6.880000	 64.1842
6.898000	 64.1446
6.916000	 64.13
6.934000	 64.1671
6.952000	 64.2033
6.970000	 64.2467
6.988000	 64.2979
7.006000	 64.3031
7.024000	 64.236
7.042000	 64.1483
7.060000	 64.104
7.078000	 64.0798
7.096000	 64.069
7.114000	 64.0903
7.132000	 64.0943
7.150000	 64.0884
7.168000	 64.1053
7.186000	 64.1129
7.204000	 64.1197
7.222000	 64.1282
7.240000	 64.1262
7.258000	 64.1659
7.276000	 64.243
7.294000	 64.2885
7.312000	 64.2928
7.330000	 64.2734
7.348000	 64.2334
7.366000	 64.1844
7.384000	 64.1353
7.402000	 64.103
7.420000	 64.1008
7.438000	 64.1052
7.456000	 64.1023
7.474000	 64.1177
7.492000	 64.1365
7.510000	 64.103
7.528000	 64.0388
7.546000	 64.0325
7.564000	 64.0844
7.582000	 64.1169
7.600000	 64.0991
7.618000	 64.0514
7.636000	 64.0108
7.654000	 64.0146
7.672000	 64.0476
7.690000	 64.0576
7.708000	 64.0472
7.726000	 64.0506
7.744000	 64.0467
7.762000	 64.008
7.780000	 63.9682
7.798000	 63.958
7.816000	 63.9622
7.834000	 63.9755
7.852000	 64.0076
7.870000	 64.0423
7.888000	 64.0677
7.906000	 64.1026
7.924000	 64.1439
7.942000	 64.1538
7.960000	 64.1232
7.978000	 64.0755
7.996000	 64.0244
8.013999	 63.9789
8.032000	 63.958
8.050000	 63.9716
8.068000	 64.0095
8.086000	 64.0595
8.103999	 64.1124
8.122000	 64.1499
8.140000	 64.1521
8.158000	 64.12
8.176000	 64.0812
8.193999	 64.0654
8.212000	 64.0768
8.230000	 64.0996
8.248000	 64.1211
8.266000	 64.1389
8.283999	 64.1491
8.302000	 64.148
8.320000	 64.1397
8.338000	 64.134
8.356000	 64.1389
8.374000	 64.1582
8.391999	 64.1883
8.410000	 64.2199
8.428000	 64.2506
8.446000	 64.2877
8.464000	 64.3246
8.481999	 64.3318
8.500000	 64.2892
8.518000	 64.2189
8.536000	 64.1661
8.554000	 64.1548
8.571999	 64.1714
8.590000	 64.1873
8.608000	 64.1826
8.626000	 64.1537
8.644000	 64.111
8.661999	 64.07
8.680000	 64.044
8.698000	 64.0414
8.716000	 64.0618
8.734000	 64.0949
8.751999	 64.1302
8.770000	 64.1657
8.788000	 64.2044
8.806000	 64.2452
8.824000	 64.2825
8.842000	 64.3102
8.859999	 64.3229
8.878000	 64.3145
8.896000	 64.2855
8.914000	 64.2476
8.932000	 64.2111
8.949999	 64.1759
8.968000	 64.1388
8.986000	 64.1066
9.004000	 64.0948
9.022000	 64.1203
9.039999	 64.1859
9.058000	 64.2676
9.076000	 64.3247
9.094000	 64.3267
9.112000	 64.2813
9.129999	 64.2304
9.148000	 64.2155
9.166000	 64.2423
9.184000	 64.281
9.202000	 64.2936
9.219999	 64.2679
9.238000	 64.2314
9.256000	 64.2314
9.274000	 64.2871
9.292000	 64.3641
9.310000	 64.4023
9.327999	 64.3698
9.346000	 64.2879
9.364000	 64.2031
9.382000	 64.1418
9.400000	 64.0984
9.418000	 64.0596
9.436000	 64.0272
9.454000	 64.0133
9.472000	 64.025
9.490000	 64.0588
9.508000	 64.1022
9.526000	 64.1382
9.544000	 64.1493
9.561999	 64.1274
9.580000	 64.0811
9.598000	 64.0312
9.616000	 63.9939
9.634000	 63.9697
9.652000	 63.9497
9.670000	 63.9335
9.688000	 63.9336
9.706000	 63.9625
9.724000	 64.0149
9.742000	 64.0682
9.760000	 64.0994
9.778000	 64.103
9.795999	 64.0921
9.814000	 64.0819
9.832000	 64.0753
9.850000	 64.0619
9.868000	 64.0304
9.886000	 63.9834
9.904000	 63.9401
9.922000	 63.9272
9.940000	 63.9639
9.958000	 64.0496
9.976000	 64.1629
9.994000	 64.2724
10.012	64.35
10.03	64.3798
10.048	64.3574
10.066	64.2845
10.084	64.1667
10.102	64.0194
10.12	63.8724
10.138	63.7656
10.156	63.7304
10.174	63.7721
10.192	63.8644
10.21	63.9601
10.228	64.0178
10.246	64.0177
10.264	63.966
10.282	63.8877
10.3	63.8151
10.318	63.7759
10.336	63.7828
10.354	63.8257
10.372	63.8792
10.39	63.9163
10.408	63.9266
10.426	63.9196
10.444	63.9161
10.462	63.9249
10.48	63.9332
10.498	63.9146
10.516	63.8536
10.534	63.7598
10.552	63.6689
10.57	63.6183
10.588	63.6283
10.606	63.6899
10.624	63.7751
10.642	63.8516
10.66	63.8989
10.678	63.9128
10.696	63.9034
10.714	63.8868
10.732	63.8814
10.75	63.8969
10.768	63.9269
10.786	63.9487
10.804	63.931
10.822	63.8563
10.84	63.7355
10.858	63.6115
10.876	63.5411
10.894	63.5618
10.912	63.6685
10.93	63.8098
10.948	63.9153
10.966	63.927
10.984	63.829
11.002	63.6499
11.02	63.4414
11.038	63.2563
11.056	63.1266
11.074	63.0602
11.092	63.0491
11.11	63.0789
11.128	63.1344
11.146	63.2026
11.164	63.2694
11.182	63.3267
11.2	63.3746
11.218	63.4224
11.236	63.4835
11.254	63.5675
11.272	63.6724
11.29	63.7841
11.308	63.8841
11.326	63.955
11.344	63.9897
11.362	63.9905
11.38	63.9647
11.398	63.9186
11.416	63.856
11.434	63.7772
11.452	63.686
11.47	63.5909
11.488	63.5024
11.506	63.4307
11.524	63.3809
11.542	63.3517
11.56	63.3365
11.578	63.3278
11.596	63.3215
11.614	63.3168
11.632	63.317
11.65	63.3264
11.668	63.3468
11.686	63.3773
11.704	63.4141
11.722	63.452
11.74	63.4877
11.758	63.519
11.776	63.5449
11.794	63.5643
11.812	63.5761
11.83	63.5797
11.848	63.5757
11.866	63.5674
11.884	63.5601
11.902	63.5586
11.92	63.5661
11.938	63.5822
11.956	63.603
11.974	63.6229
11.992	63.6374
12.01	63.6451
12.028	63.6476
12.046	63.6481
12.064	63.649
12.082	63.6494
12.1	63.6459
12.118	63.6343
12.136	63.6124
12.154	63.5814
12.172	63.5455
12.19	63.5104
12.208	63.4804
12.226	63.4586
12.244	63.4462
12.262	63.4438
12.28	63.4517
12.298	63.4703
12.316	63.4992
12.334	63.537
12.352	63.5802
12.37	63.6237
12.388	63.6612
12.406	63.6869
12.424	63.6963
12.442	63.6879
12.46	63.6626
12.478	63.6236
12.496	63.576
12.514	63.5252
12.532	63.4764
12.55	63.4338
12.568	63.4004
12.586	63.3773
12.604	63.3633
12.622	63.3558
12.64	63.3511
12.658	63.346
12.676	63.3383
12.694	63.3274
12.712	63.3141
12.73	63.3008
12.748	63.2901
12.766	63.2852
12.784	63.2887
12.802	63.3017
12.82	63.3236
12.838	63.3516
12.856	63.3809
12.874	63.4057
12.892	63.4203
12.91	63.421
12.928	63.4066
12.946	63.3796
12.964	63.3452
12.982	63.3105
13	63.2829
13.018	63.2675
13.036	63.2661
13.054	63.2766
13.072	63.2941
13.09	63.3124
13.108	63.3253
13.126	63.3286
13.144	63.32
13.162	63.2997
13.18	63.2689
13.198	63.2298
13.216	63.1847
13.234	63.1365
13.252	63.0877
13.27	63.0416
13.288	63.0011
13.306	62.9685
13.324	62.9453
13.342	62.9317
13.36	62.9268
13.378	62.9291
13.396	62.9363
13.414	62.9465
13.432	62.9586
13.45	62.9721
13.468	62.987
13.486	63.0037
13.504	63.0217
13.522	63.0403
13.54	63.0577
13.558	63.0719
13.576	63.0811
13.594	63.0843
13.612	63.0817
13.63	63.075
13.648	63.0674
13.666	63.0621
13.684	63.062
13.702	63.069
13.72	63.0834
13.738	63.1041
13.756	63.1285
13.774	63.1531
13.792	63.1744
13.81	63.1889
13.828	63.1948
13.846	63.1909
13.864	63.1777
13.882	63.1561
13.9	63.1281
13.918	63.0956
13.936	63.0608
13.954	63.0256
13.972	62.9919
13.99	62.9614
14.008	62.9358
14.026	62.9167
14.044	62.9055
14.062	62.9024
14.08	62.9063
14.098	62.9145
14.116	62.9232
14.134	62.9272
14.152	62.9221
14.17	62.9039
14.188	62.8706
14.206	62.8224
14.224	62.7623
14.242	62.6952
14.26	62.6282
14.278	62.5679
14.296	62.5204
14.314	62.4901
14.332	62.4796
14.35	62.4889
14.368	62.5155
14.386	62.5552
14.404	62.6024
14.422	62.6512
14.44	62.696
14.458	62.7323
14.476	62.7564
14.494	62.7662
14.512	62.761
14.53	62.7417
14.548	62.7106
14.566	62.671
14.584	62.6269
14.602	62.5827
14.62	62.5426
14.638	62.5104
14.656	62.4883
14.674	62.4772
14.692	62.4765
14.71	62.4847
14.728	62.4991
14.746	62.5165
14.764	62.5334
14.782	62.5473
14.8	62.5562
14.818	62.5589
14.836	62.5553
14.854	62.5458
14.872	62.5317
14.89	62.5144
14.908	62.4952
14.926	62.4754
14.944	62.4562
14.962	62.4387
14.98	62.4231
14.998	62.4097
15.016	62.3984
15.034	62.3893
15.052	62.3821
15.07	62.3765
15.088	62.3722
15.106	62.3686
15.124	62.3652
15.142	62.362
15.16	62.3591
15.178	62.3571
15.196	62.3566
15.214	62.3587
15.232	62.3643
15.25	62.374
15.268	62.3879
15.286	62.406
15.304	62.4271
15.322	62.4498
15.34	62.4722
15.358	62.492
15.376	62.5069
15.394	62.5151
15.412	62.5159
15.43	62.5084
15.448	62.4933
15.466	62.4721
15.484	62.4466
15.502	62.419
15.52	62.3926
15.538	62.3701
15.556	62.3534
15.574	62.3444
15.592	62.3441
15.61	62.3522
15.628	62.3681
15.646	62.3901
15.664	62.4156
15.682	62.4418
15.7	62.4662
15.718	62.4859
15.736	62.498
15.754	62.501
15.772	62.4936
15.79	62.4756
15.808	62.4481
15.826	62.4128
15.844	62.3717
15.862	62.3284
15.88	62.2861
15.898	62.2475
15.916	62.216
15.934	62.1938
15.952	62.182
15.97	62.1814
15.988	62.1916
16.006	62.2111
16.024	62.2385
16.042	62.271
16.06	62.3061
16.078	62.3415
16.096	62.3748
16.114	62.404
16.132	62.428
16.15	62.4461
16.168	62.4581
16.186	62.4646
16.204	62.4662
16.222	62.4645
16.24	62.4605
16.258	62.4551
16.276	62.4495
16.294	62.4439
16.312	62.4384
16.33	62.4327
16.348	62.4259
16.366	62.4173
16.384	62.4054
16.402	62.389
16.42	62.3672
16.438	62.3392
16.456	62.3047
16.474	62.264
16.492	62.2176
16.51	62.1673
16.528	62.1142
16.546	62.0606
16.564	62.0087
16.582	61.96
16.6	61.9168
16.618	61.8808
16.636	61.8527
16.654	61.8337
16.672	61.8235
16.69	61.8221
16.708	61.8285
16.726	61.8415
16.744	61.8603
16.762	61.8828
16.78	61.9081
16.798	61.9347
16.816	61.9616
16.834	61.9882
16.852	62.0138
16.87	62.038
16.888	62.0604
16.906	62.0806
16.924	62.0983
16.942	62.113
16.96	62.124
16.978	62.1307
16.996	62.1323
17.014	62.1283
17.032	62.1182
17.05	62.1018
17.068	62.0796
17.086	62.0519
17.104	62.0203
17.122	61.9857
17.14	61.95
17.158	61.9148
17.176	61.8814
17.194	61.8517
17.212	61.8262
17.23	61.806
17.248	61.7906
17.266	61.7801
17.284	61.7729
17.302	61.7681
17.32	61.7643
17.338	61.7597
17.356	61.7535
17.374	61.7441
17.392	61.731
17.41	61.7135
17.428	61.6921
17.446	61.6669
17.464	61.6392
17.482	61.6093
17.5	61.5783
17.518	61.5469
17.536	61.5154
17.554	61.4842
17.572	61.4532
17.59	61.4223
17.608	61.3912
17.626	61.3596
17.644	61.3271
17.662	61.2937
17.68	61.2594
17.698	61.2246
17.716	61.1897
17.734	61.1556
17.752	61.1231
17.77	61.0936
17.788	61.0673
17.806	61.0454
17.824	61.0279
17.842	61.0154
17.86	61.0072
17.878	61.0035
17.896	61.0028
17.914	61.0051
17.932	61.0086
17.95	61.0128
17.968	61.0165
17.986	61.0195
18.004	61.0212
18.022	61.0217
18.04	61.0212
18.058	61.0206
18.076	61.0202
18.094	61.0215
18.112	61.025
18.13	61.0323
18.148	61.0437
18.166	61.0602
18.184	61.082
18.202	61.1095
18.22	61.1422
18.238	61.1802
18.256	61.2222
18.274	61.2681
18.292	61.3163
18.31	61.3667
18.328	61.4175
18.346	61.4684
18.364	61.5181
18.382	61.566
18.4	61.6111
18.418	61.6525
18.436	61.6899
18.454	61.7222
18.472	61.7491
18.49	61.7697
18.508	61.7839
18.526	61.7909
18.544	61.7907
18.562	61.7831
18.58	61.7681
18.598	61.7461
18.616	61.7173
18.634	61.683
18.652	61.6434
18.67	61.6003
18.688	61.5543
18.706	61.5078
18.724	61.4612
18.742	61.4167
18.76	61.3747
18.778	61.3371
18.796	61.3038
18.814	61.2759
18.832	61.2531
18.85	61.2356
18.868	61.2226
18.886	61.2138
18.904	61.2079
18.922	61.2042
18.94	61.2013
18.958	61.1984
18.976	61.1944
18.994	61.1885
19.012	61.1804
19.03	61.1693
19.048	61.1557
19.066	61.1393
19.084	61.1208
19.102	61.1006
19.12	61.0793
19.138	61.0577
19.156	61.0364
19.174	61.0164
19.192	60.998
19.21	60.982
19.228	60.9684
19.246	60.9578
19.264	60.9496
19.282	60.9438
19.3	60.94
19.318	60.9374
19.336	60.9357
19.354	60.9335
19.372	60.9308
19.39	60.9261
19.408	60.9193
19.426	60.9092
19.444	60.8958
19.462	60.8786
19.48	60.8575
19.498	60.8329
19.516	60.8047
19.534	60.7735
19.552	60.7395
19.57	60.7038
19.588	60.6667
19.606	60.6292
19.624	60.5922
19.642	60.556
19.66	60.5221
19.678	60.4906
19.696	60.4625
19.714	60.4379
19.732	60.4177
19.75	60.4018
19.768	60.3907
19.786	60.3843
19.804	60.3827
19.822	60.3859
19.84	60.3934
19.858	60.4051
19.876	60.4206
19.894	60.4392
19.912	60.4607
19.93	60.4837
19.948	60.5085
19.966	60.5334
19.984	60.5584
20.002	60.582
20.02	60.6041
20.038	60.6237
20.056	60.6399
20.074	60.6526
20.092	60.6608
20.11	60.6648
20.128	60.6639
20.146	60.6582
20.164	60.648
20.182	60.6333
20.2	60.6148
20.218	60.5931
20.236	60.5686
20.254	60.5427
20.272	60.5153
20.29	60.4885
20.308	60.462
20.326	60.4373
20.344	60.415
20.362	60.3954
20.38	60.3796
20.398	60.3674
20.416	60.3593
20.434	60.3554
20.452	60.355
20.47	60.3583
20.488	60.3646
20.506	60.373
20.524	60.3836
20.542	60.3947
20.56	60.4067
20.578	60.418
20.596	60.4282
20.614	60.437
20.632	60.4435
20.65	60.4477
20.668	60.4491
20.686	60.4475
20.704	60.4431
20.722	60.4356
20.74	60.4252
20.758	60.4124
20.776	60.397
20.794	60.3798
20.812	60.3608
20.83	60.3404
20.848	60.3192
20.866	60.297
20.884	60.2747
20.902	60.2521
20.92	60.2294
20.938	60.2069
20.956	60.1846
20.974	60.1628
20.992	60.1414
21.01	60.1204
21.028	60.0999
21.046	60.0799
21.064	60.0602
21.082	60.0409
21.1	60.0221
21.118	60.0037
21.136	59.986
21.154	59.9689
21.172	59.9526
21.19	59.9374
21.208	59.9232
21.226	59.9103
21.244	59.899
21.262	59.8892
21.28	59.8812
21.298	59.875
21.316	59.8705
21.334	59.8677
21.352	59.8666
21.37	59.8666
21.388	59.8678
21.406	59.8696
21.424	59.8711
21.442	59.8727
21.46	59.8726
21.478	59.8709
21.496	59.8669
21.514	59.8591
21.532	59.848
21.55	59.8322
21.568	59.8108
21.586	59.7842
21.604	59.7515
21.622	59.7126
21.64	59.6678
21.658	59.6167
21.676	59.5596
21.694	59.4981
21.712	59.4316
21.73	59.3615
21.748	59.2899
21.766	59.2157
21.784	59.1422
21.802	59.0705
21.82	59.0005
21.838	58.9359
21.856	58.8763
21.874	58.8231
21.892	58.779
21.91	58.7429
21.928	58.7163
21.946	58.7
21.964	58.6934
21.982	58.6966
22	58.7101
22.018	58.7325
22.036	58.7625
22.054	58.8009
22.072	58.845
22.09	58.8937
22.108	58.9474
22.126	59.0022
22.144	59.0585
22.162	59.1152
22.18	59.1694
22.198	59.222
22.216	59.2715
22.234	59.3163
22.252	59.3572
22.27	59.3934
22.288	59.4244
22.306	59.4507
22.324	59.4727
22.342	59.4901
22.36	59.5035
22.378	59.5142
22.396	59.5217
22.414	59.5272
22.432	59.5318
22.45	59.535
22.468	59.5379
22.486	59.5412
22.504	59.5447
22.522	59.5487
22.54	59.5534
22.558	59.5588
22.576	59.5646
22.594	59.571
22.612	59.5776
22.63	59.5836
22.648	59.5894
22.666	59.5945
22.684	59.598
22.702	59.6004
22.72	59.601
22.738	59.5992
22.756	59.5953
22.774	59.5893
22.792	59.5809
22.81	59.5703
22.828	59.5579
22.846	59.5438
22.864	59.528
22.882	59.5114
22.9	59.4939
22.918	59.4755
22.936	59.4575
22.954	59.4399
22.972	59.4227
22.99	59.4067
23.008	59.3918
23.026	59.3781
23.044	59.3665
23.062	59.3569
23.08	59.3493
23.098	59.3445
23.116	59.3422
23.134	59.3426
23.152	59.3465
23.17	59.3536
23.188	59.3641
23.206	59.3787
23.224	59.3971
23.242	59.4196
23.26	59.4466
23.278	59.478
23.296	59.514
23.314	59.5549
23.332	59.6009
23.35	59.6517
23.368	59.7072
23.386	59.7677
23.404	59.8328
23.422	59.9017
23.44	59.9749
23.458	60.0519
23.476	60.1308
23.494	60.2124
23.512	60.2961
23.53	60.3793
23.548	60.4625
23.566	60.5455
23.584	60.6255
23.602	60.7023
23.62	60.7764
23.638	60.8453
23.656	60.9081
23.674	60.9656
23.692	61.0165
23.71	61.0596
23.728	61.0959
23.746	61.1249
23.764	61.1464
23.782	61.1602
23.8	61.1676
23.818	61.1691
23.836	61.164
23.854	61.1539
23.872	61.1409
23.89	61.1237
23.908	61.1038
23.926	61.0837
23.944	61.0627
23.962	61.0413
23.98	61.0216
23.998	61.004
24.016	60.988
24.034	60.9753
24.052	60.9669
24.07	60.9619
24.088	60.9611
24.106	60.9654
24.124	60.9745
24.142	60.9881
24.16	61.0057
24.178	61.0281
24.196	61.0543
24.214	61.0829
24.232	61.1141
24.25	61.148
24.268	61.1834
24.286	61.2201
24.304	61.2586
24.322	61.2978
24.34	61.337
24.358	61.3769
24.376	61.4167
24.394	61.4553
24.412	61.4932
24.43	61.53
24.448	61.5646
24.466	61.5967
24.484	61.6268
24.502	61.6538
24.52	61.677
24.538	61.6972
24.556	61.7136
24.574	61.7253
24.592	61.7328
24.61	61.7359
24.628	61.7334
24.646	61.7251
24.664	61.7115
24.682	61.692
24.7	61.6661
24.718	61.6338
24.736	61.5956
24.754	61.552
24.772	61.5025
24.79	61.4474
24.808	61.388
24.826	61.3247
24.844	61.2569
24.862	61.1855
24.88	61.1115
24.898	61.0338
24.916	60.9533
24.934	60.8717
24.952	60.7891
24.97	60.7045
24.988	60.621
25.006	60.5416
25.024	60.4643
25.042	60.3903
25.06	60.322
25.078	60.2604
25.096	60.2042
25.114	60.1542
25.132	60.111
25.15	60.0748
25.168	60.0449
25.186	60.0209
25.204	60.0032
25.222	59.9918
25.24	59.9854
25.258	59.9823
25.276	59.9837
25.294	59.989
25.312	59.9963
25.33	60.0051
25.348	60.0162
25.366	60.0287
25.384	60.0415
25.402	60.0546
25.42	60.0685
25.438	60.0832
25.456	60.0986
25.474	60.1141
25.492	60.1311
25.51	60.1515
25.528	60.1742
25.546	60.1992
25.564	60.2294
25.582	60.2671
25.6	60.3096
25.618	60.3589
25.636	60.4189
25.654	60.4906
25.672	60.5715
25.69	60.665
25.708	60.7752
25.726	60.9008
25.744	61.0412
25.762	61.2
25.78	61.3799
25.798	61.5784
25.816	61.7967
25.834	62.0376
25.852	62.3025
25.87	62.5898
25.888	62.8997
25.906	63.2328
25.924	63.5897
25.942	63.97
25.96	64.3718
25.978	64.7935
25.996	65.2381
26.014	65.7031
26.032	66.1835
26.05	66.6757
26.068	67.1857
26.086	67.7076
26.104	68.2332
26.122	68.7597
26.14	69.2939
26.158	69.8273
26.176	70.3502
26.194	70.8644
26.212	71.3748
26.23	71.8679
26.248	72.3306
26.266	72.7665
26.284	73.1785
26.302	73.5577
26.32	73.8955
26.338	74.1948
26.356	74.4574
26.374	74.6815
26.392	74.865
26.41	75.0043
26.428	75.1057
26.446	75.1774
26.464	75.2239
26.482	75.2341
26.5	75.2196
26.518	75.1962
26.536	75.1707
26.554	75.1266
26.572	75.0814
26.59	75.0559
26.608	75.058
26.626	75.069
26.644	75.1078
26.662	75.196
26.68	75.341
26.698	75.5262
26.716	75.7656
26.734	76.075
26.752	76.4603
26.77	76.9107
26.788	77.4313
26.806	78.0276
26.824	78.7047
26.842	79.46
26.86	80.286
26.878	81.1755
26.896	82.1308
26.914	83.1591
26.932	84.2427
26.95	85.3633
26.968	86.5927
26.986	87.9969
27.004	89.3332
27.022	90.3502
27.028	90.5434