File: Bakgrunnsmateriale/MATLAB/FTIR/ftir_data/subBb/Mapping_36/C-4040-8_t18_cm-1.asc
PE IR       SPECTRUM    SPECTRUM    ASCII       PEDS        1.60
  -1
C-1A65~1.ASC
17/05/02
12:22:01.00
17/05/02
12:22:01.00
tln
$C-4040-8_t0018$<tbV0>[-12.5,-3.0,8.0,0.0,22,1,0]
370
64

2002,4.07
MIRTGS : RIGHTBACK : INTERNAL 2
MIR : ON : INTERNAL 2
OPTKBR

0.200000
8
8.000000
FILLER
RATIO
SPECTRUM
UNLOCKED 256

DOUBLE
64
COMBINED
1
0
0

1.000000
RATIO

1
0
TRUE
51149
0
LEFT NOT FITTED RIGHT NOT FITTED 0
NONE
NONE
15600
12
4.427000
51148
TRUE
1 0 8 72 0 0 0 0

15798

#HDR
-1
-1
#GR
CM-1
%T
2.38419e-05
0.0
7800
-1.000000
7431
8
108.584
28.278
#DATA
7800	62.1854
7795	64.6144
7790	71.2183
7785	74.0506
7780	71.0173
7775	69.1732
7770	72.9722
7765	75.611
7760	74.2553
7755	71.4879
7750	63.2507
7745	57.442
7740	60.0316
7735	66.0831
7730	67.6962
7725	69.0918
7720	71.5432
7715	70.7526
7710	69.3919
7705	67.8159
7700	70.3097
7695	71.2686
7690	65.0352
7685	65.5145
7680	68.6118
7675	69.1705
7670	74.0054
7665	73.0207
7660	66.233
7655	66.4493
7650	67.0521
7645	63.7433
7640	65.7936
7635	69.3646
7630	69.6217
7625	68.6472
7620	65.1247
7615	66.1206
7610	67.9991
7605	66.7242
7600	68.4145
7595	66.8925
7590	65.4926
7585	69.5065
7580	72.2858
7575	69.372
7570	64.7747
7565	62.6291
7560	61.2056
7555	61.2473
7550	65.4679
7545	68.8691
7540	67.3823
7535	65.875
7530	67.1653
7525	68.9753
7520	66.8707
7515	61.342
7510	61.1303
7505	65.6907
7500	65.2226
7495	61.3768
7490	61.8639
7485	65.0732
7480	65.7157
7475	63.4597
7470	61.6759
7465	63.2104
7460	64.316
7455	63.6158
7450	63.8646
7445	64.2194
7440	62.0843
7435	62.316
7430	63.7388
7425	65.5026
7420	67.5895
7415	67.8768
7410	66.1073
7405	66.7273
7400	66.6006
7395	65.3433
7390	64.8927
7385	63.2431
7380	62.7899
7375	64.5533
7370	64.0079
7365	61.9015
7360	63.5197
7355	64.2327
7350	64.8366
7345	62.1866
7340	60.8672
7335	64.5184
7330	67.5562
7325	65.4505
7320	66.0919
7315	68.5508
7310	66.1929
7305	64.7135
7300	65.4055
7295	67.6569
7290	68.6264
7285	65.8357
7280	64.2303
7275	66.0294
7270	68.2293
7265	68.0292
7260	64.9543
7255	63.4137
7250	64.173
7245	65.3036
7240	66.2353
7235	66.4138
7230	66.113
7225	66.0579
7220	65.0393
7215	64.0555
7210	64.4239
7205	64.5843
7200	64.5885
7195	63.7994
7190	63.6949
7185	64.9085
7180	65.3563
7175	64.7869
7170	63.0482
7165	61.4826
7160	62.3818
7155	65.0921
7150	67.0562
7145	63.7591
7140	59.8371
7135	61.0233
7130	63.9357
7125	64.9193
7120	65.1167
7115	66.1837
7110	66.6095
7105	64.3662
7100	62.3584
7095	62.1811
7090	63.7487
7085	64.3839
7080	63.1271
7075	61.8481
7070	62.9698
7065	64.6201
7060	64.8499
7055	63.5379
7050	62.9427
7045	64.6457
7040	65.8113
7035	61.9912
7030	60.9099
7025	66.5919
7020	68.9299
7015	63.6012
7010	61.81
7005	63.3734
7000	63.5258
6995	63.9121
6990	62.5761
6985	63.2327
6980	65.1229
6975	64.843
6970	65.9642
6965	66.266
6960	64.4444
6955	63.3138
6950	63.3136
6945	64.9735
6940	64.6238
6935	62.8889
6930	63.8915
6925	65.1292
6920	64.5175
6915	64.5507
6910	63.5782
6905	64.3811
6900	65.1
6895	63.7463
6890	63.0015
6885	63.1987
6880	64.901
6875	65.8365
6870	65.4221
6865	64.2796
6860	63.5681
6855	63.0658
6850	61.4415
6845	62.8062
6840	64.8051
6835	64.7276
6830	64.7803
6825	64.9364
6820	63.374
6815	63.0382
6810	64.5005
6805	63.9896
6800	64.1166
6795	64.2868
6790	63.5185
6785	62.9837
6780	62.3467
6775	61.5542
6770	63.7958
6765	64.5812
6760	64.1449
6755	66.1087
6750	66.1549
6745	65.0575
6740	64.4783
6735	64.306
6730	64.9342
6725	65.4166
6720	64.9344
6715	63.5629
6710	62.7087
6705	63.105
6700	63.5538
6695	63.5497
6690	63.6931
6685	63.7639
6680	62.6991
6675	62.7412
6670	64.522
6665	65.1926
6660	64.6511
6655	63.1376
6650	61.9174
6645	61.3562
6640	62.2225
6635	64.3255
6630	64.5327
6625	63.8585
6620	63.7572
6615	63.9612
6610	64.6508
6605	64.731
6600	64.3426
6595	65.6022
6590	65.3747
6585	63.9836
6580	63.786
6575	63.6025
6570	64.0703
6565	66.0879
6560	67.2617
6555	67.291
6550	66.8103
6545	65.5684
6540	64.3087
6535	64.1745
6530	64.4617
6525	64.6053
6520	65.2103
6515	65.1314
6510	64.4914
6505	64.6279
6500	65.2716
6495	65.817
6490	65.726
6485	65.0372
6480	65.184
6475	65.2985
6470	66.0141
6465	67.0828
6460	66.3748
6455	65.1974
6450	65.6367
6445	65.7949
6440	65.8707
6435	65.6039
6430	64.6306
6425	64.0194
6420	64.9184
6415	65.6389
6410	65.6351
6405	65.7918
6400	66.177
6395	64.9845
6390	64.2649
6385	64.8435
6380	64.6684
6375	64.5633
6370	64.4172
6365	64.0128
6360	64.3745
6355	64.6315
6350	65.3386
6345	65.4096
6340	64.972
6335	64.7246
6330	64.4825
6325	64.525
6320	65.0826
6315	64.9106
6310	64.6189
6305	65.1403
6300	65.2566
6295	64.8971
6290	64.1985
6285	64.4398
6280	64.3673
6275	63.9209
6270	65.5165
6265	66.2866
6260	65.7922
6255	65.357
6250	65.1735
6245	65.1436
6240	65.293
6235	65.245
6230	65.2589
6225	65.6404
6220	65.1238
6215	64.4031
6210	64.5686
6205	65.3505
6200	65.5091
6195	65.2946
6190	65.1299
6185	65.6069
6180	65.7661
6175	64.226
6170	63.0346
6165	63.0079
6160	63.8345
6155	64.7458
6150	65.6316
6145	65.7189
6140	64.9546
6135	65.4502
6130	66.1177
6125	66.3461
6120	65.5527
6115	64.4435
6110	64.7113
6105	65.4385
6100	65.2981
6095	65.0696
6090	65.7187
6085	65.337
6080	64.8855
6075	64.8855
6070	64.0472
6065	64.591
6060	65.5919
6055	65.6459
6050	65.3702
6045	64.8876
6040	65.116
6035	66.2417
6030	66.3661
6025	65.3902
6020	64.9224
6015	65.2033
6010	65.1896
6005	64.8121
6000	65.5403
5995	65.9071
5990	64.8805
5985	65.0078
5980	65.4013
5975	64.7801
5970	64.9792
5965	65.4907
5960	65.234
5955	64.6522
5950	64.8834
5945	65.59
5940	65.2044
5935	65.4766
5930	65.6808
5925	64.5466
5920	64.7621
5915	65.2447
5910	64.7104
5905	64.8833
5900	65.6028
5895	65.4292
5890	65.2807
5885	64.7311
5880	64.2183
5875	64.0692
5870	64.0954
5865	64.6194
5860	64.8103
5855	64.6709
5850	64.8647
5845	65.1884
5840	65.264
5835	65.1238
5830	64.6898
5825	64.9639
5820	65.3588
5815	64.8479
5810	64.5713
5805	64.9987
5800	64.6976
5795	64.3688
5790	64.8388
5785	65.0954
5780	65.1453
5775	65.1957
5770	65.093
5765	64.5675
5760	64.4466
5755	65.0896
5750	65.0004
5745	64.5416
5740	65.1764
5735	65.1
5730	65.0079
5725	65.2966
5720	65.0502
5715	64.9516
5710	65.0858
5705	65.1075
5700	64.9563
5695	64.5715
5690	64.4109
5685	64.6481
5680	64.4189
5675	64.5755
5670	64.992
5665	64.9055
5660	64.4744
5655	64.5619
5650	64.7199
5645	64.578
5640	64.2705
5635	64.5668
5630	65.4371
5625	66.0383
5620	65.7405
5615	65.4865
5610	65.7578
5605	65.2696
5600	65.1172
5595	65.4644
5590	65.3197
5585	64.8706
5580	64.9057
5575	65.5516
5570	65.9602
5565	65.5187
5560	65.1276
5555	64.7705
5550	64.8878
5545	65.2957
5540	65.2475
5535	64.8177
5530	64.6878
5525	65.0258
5520	65.2891
5515	65.027
5510	64.8734
5505	65.2381
5500	65.4991
5495	65.155
5490	64.83
5485	65.2123
5480	65.8461
5475	65.8359
5470	65.4786
5465	65.0584
5460	64.8665
5455	64.839
5450	64.832
5445	64.859
5440	64.9839
5435	65.3063
5430	64.8778
5425	64.0957
5420	64.1721
5415	64.9601
5410	65.1472
5405	65.2096
5400	65.1519
5395	64.6229
5390	64.0187
5385	63.9669
5380	64.2642
5375	64.6153
5370	64.4199
5365	63.625
5360	63.623
5355	64.1963
5350	64.2861
5345	64.3163
5340	65.0632
5335	65.4526
5330	64.4059
5325	63.7041
5320	63.497
5315	63.4411
5310	65.261
5305	67.7097
5300	66.3379
5295	63.0916
5290	63.0133
5285	63.3422
5280	63.2168
5275	66.4701
5270	67.8371
5265	67.0896
5260	67.2157
5255	67.4447
5250	65.7488
5245	65.9626
5240	66.8264
5235	65.4682
5230	64.6948
5225	64.8841
5220	65.4261
5215	64.9104
5210	64.3138
5205	64.9815
5200	65.1242
5195	64.9994
5190	65.2434
5185	65.5418
5180	65.6595
5175	65.3089
5170	65.1586
5165	65.195
5160	65.2224
5155	64.7677
5150	64.799
5145	65.4803
5140	65.5333
5135	65.1331
5130	64.9053
5125	64.7802
5120	64.9475
5115	64.9614
5110	64.8283
5105	65.412
5100	65.7466
5095	65.5972
5090	65.3568
5085	65.0455
5080	64.9939
5075	64.9012
5070	64.9684
5065	65.0611
5060	65.2911
5055	65.2153
5050	65.0476
5045	65.2109
5040	65.1346
5035	65.1467
5030	65.1253
5025	64.7108
5020	64.7165
5015	65.0301
5010	65.0784
5005	65.1634
5000	65.3668
4995	65.367
4990	65.0159
4985	64.9109
4980	65.0418
4975	64.9058
4970	65.0118
4965	65.4561
4960	65.4168
4955	65.1958
4950	65.2675
4945	65.3237
4940	65.3731
4935	65.1631
4930	65.0119
4925	64.9091
4920	65.148
4915	65.2791
4910	65.2167
4905	65.1148
4900	64.9907
4895	64.8377
4890	64.2537
4885	64.0469
4880	64.5166
4875	64.7312
4870	64.7274
4865	64.8327
4860	64.8983
4855	64.8541
4850	64.6134
4845	64.5214
4840	64.6523
4835	64.9582
4830	65.0644
4825	64.8799
4820	64.7942
4815	64.7088
4810	64.8436
4805	64.9727
4800	64.9537
4795	64.8652
4790	65.0131
4785	65.1687
4780	65.0265
4775	65.05
4770	65.217
4765	65.2
4760	65.2532
4755	65.4665
4750	65.3538
4745	65.077
4740	65.1094
4735	65.0947
4730	64.9256
4725	65.1139
4720	65.3419
4715	65.1746
4710	64.9556
4705	65.1057
4700	65.1136
4695	65.0902
4690	65.3538
4685	65.2352
4680	64.8995
4675	64.9428
4670	65.193
4665	65.2457
4660	65.1035
4655	65.2344
4650	65.4693
4645	65.2976
4640	65.086
4635	65.1791
4630	65.2798
4625	65.1415
4620	65.0727
4615	65.175
4610	65.18
4605	65.1309
4600	65.0141
4595	65.1582
4590	65.1664
4585	64.7217
4580	64.6976
4575	64.7619
4570	64.7774
4565	64.6205
4560	64.5068
4555	64.6243
4550	64.6231
4545	64.4939
4540	64.4048
4535	64.6811
4530	64.6603
4525	64.0899
4520	63.9937
4515	64.3578
4510	64.531
4505	64.6028
4500	64.3455
4495	64.2118
4490	64.3907
4485	64.4172
4480	64.2935
4475	64.3756
4470	64.5023
4465	64.3243
4460	64.3154
4455	64.4008
4450	64.2746
4445	64.1308
4440	64.3272
4435	64.2673
4430	63.5034
4425	62.7377
4420	63.0762
4415	63.8089
4410	64.653
4405	64.6682
4400	62.4428
4395	71.1996
4390	105.844
4385	92.3897
4380	69.0358
4375	62.204
4370	63.5544
4365	64.2493
4360	63.7305
4355	63.8365
4350	64.4988
4345	64.8223
4340	64.8792
4335	64.8351
4330	64.6294
4325	64.2528
4320	64.3165
4315	64.6045
4310	64.6308
4305	64.5599
4300	64.3668
4295	64.1831
4290	64.3669
4285	64.436
4280	64.3646
4275	64.3697
4270	64.2778
4265	64.3554
4260	64.69
4255	64.7222
4250	64.4762
4245	64.5747
4240	64.8656
4235	64.8851
4230	64.7949
4225	64.7976
4220	64.7341
4215	64.6176
4210	64.6954
4205	64.8274
4200	64.8635
4195	64.7692
4190	64.8463
4185	65.0699
4180	65.1941
4175	65.2471
4170	65.2489
4165	65.0563
4160	64.8631
4155	65.0484
4150	65.1958
4145	65.2987
4140	65.339
4135	65.1933
4130	65.0693
4125	65.1105
4120	65.2028
4115	65.4684
4110	65.4916
4105	65.2947
4100	65.4011
4095	65.4014
4090	65.1382
4085	65.1653
4080	65.355
4075	65.2492
4070	65.2418
4065	65.4498
4060	65.4091
4055	65.3755
4050	65.3063
4045	65.1927
4040	65.3721
4035	65.4866
4030	65.3223
4025	65.096
4020	65.3013
4015	65.6149
4010	65.5882
4005	65.3158
4000	65.188
3995	65.0655
3990	64.9788
3985	65.0155
3980	65.0771
3975	65.1688
3970	65.2503
3965	65.3715
3960	65.352
3955	65.1365
3950	65.062
3945	65.1542
3940	65.3388
3935	65.303
3930	65.1803
3925	65.1433
3920	65.1206
3915	65.1479
3910	65.1877
3905	65.183
3900	65.1141
3895	65.1093
3890	65.1829
3885	65.1821
3880	65.1107
3875	65.0942
3870	65.1474
3865	65.1049
3860	65.0899
3855	65.0934
3850	65.1281
3845	65.1399
3840	65.1237
3835	65.1654
3830	65.1561
3825	65.1752
3820	65.2074
3815	64.9201
3810	64.8264
3805	64.9534
3800	64.979
3795	65.1292
3790	65.1963
3785	65.1772
3780	65.2723
3775	65.2523
3770	65.1577
3765	65.0788
3760	65.0495
3755	65.2528
3750	65.4472
3745	65.2229
3740	65.0748
3735	65.2082
3730	65.249
3725	65.1857
3720	65.1933
3715	65.2935
3710	65.2769
3705	65.1521
3700	65.1473
3695	65.2798
3690	65.3004
3685	65.2241
3680	65.1446
3675	65.2702
3670	65.3756
3665	65.2617
3660	65.2146
3655	65.2397
3650	65.298
3645	65.2755
3640	65.2598
3635	65.2309
3630	65.2287
3625	65.2877
3620	65.3473
3615	65.2666
3610	65.1674
3605	65.0961
3600	65.0741
3595	65.1905
3590	65.1465
3585	65.1909
3580	65.2748
3575	65.2601
3570	65.1566
3565	64.9236
3560	64.9604
3555	65.147
3550	65.2287
3545	65.187
3540	65.1171
3535	65.1815
3530	65.1799
3525	65.1057
3520	65.098
3515	65.2379
3510	65.3637
3505	65.3669
3500	65.1762
3495	65.1577
3490	65.2595
3485	65.2091
3480	65.2483
3475	65.2205
3470	65.314
3465	65.459
3460	65.2611
3455	65.0554
3450	65.2231
3445	65.3179
3440	65.3384
3435	65.3114
3430	65.274
3425	65.3416
3420	65.2124
3415	64.9678
3410	64.8897
3405	64.9813
3400	65.1445
3395	65.2225
3390	65.1488
3385	65.0846
3380	65.0795
3375	65.1241
3370	65.0736
3365	65.0079
3360	65.1326
3355	65.1777
3350	65.0923
3345	64.9945
3340	65.0459
3335	65.1196
3330	65.0314
3325	65.0773
3320	65.2248
3315	65.0815
3310	64.9628
3305	65.1176
3300	65.2339
3295	65.1656
3290	65.1437
3285	65.1802
3280	65.1362
3275	65.0908
3270	65.208
3265	65.2743
3260	65.1842
3255	65.1264
3250	65.1129
3245	65.2237
3240	65.3062
3235	65.2444
3230	65.2015
3225	65.1137
3220	65.0605
3215	65.1949
3210	65.3229
3205	65.3225
3200	65.2357
3195	65.1892
3190	65.1006
3185	65.033
3180	65.1306
3175	65.2332
3170	65.2742
3165	65.1768
3160	65.0763
3155	65.1108
3150	65.1826
3145	65.2121
3140	65.2285
3135	65.3171
3130	65.4951
3125	65.3549
3120	65.1466
3115	65.1652
3110	65.2643
3105	65.2398
3100	65.2157
3095	65.2651
3090	65.314
3085	65.3403
3080	65.2713
3075	65.2165
3070	65.2712
3065	65.3108
3060	65.1632
3055	65.0718
3050	65.1197
3045	65.2317
3040	65.3221
3035	65.2191
3030	65.2139
3025	65.3239
3020	65.2426
3015	65.2009
3010	65.2254
3005	65.0844
3000	64.9755
2995	65.107
2990	65.1457
2985	65.159
2980	65.1356
2975	65.1208
2970	65.1262
2965	64.9803
2960	64.9289
2955	64.9488
2950	64.9545
2945	64.9758
2940	65.0013
2935	65.0176
2930	64.9875
2925	64.8143
2920	64.6985
2915	64.7666
2910	64.9288
2905	65.0158
2900	65.0739
2895	65.1155
2890	65.1199
2885	65.0577
2880	64.9946
2875	65.0441
2870	65.1399
2865	65.0467
2860	65.0142
2855	64.9225
2850	64.801
2845	64.936
2840	65.0831
2835	65.1472
2830	65.2046
2825	65.2349
2820	65.132
2815	65.1218
2810	65.2278
2805	65.2017
2800	65.2386
2795	65.2601
2790	65.2169
2785	65.1984
2780	65.1891
2775	65.2351
2770	65.2654
2765	65.2814
2760	65.2555
2755	65.1807
2750	65.1796
2745	65.277
2740	65.2742
2735	65.2178
2730	65.1673
2725	65.1852
2720	65.2529
2715	65.2177
2710	65.1898
2705	65.2349
2700	65.2729
2695	65.2544
2690	65.2269
2685	65.2128
2680	65.1999
2675	65.1856
2670	65.1435
2665	65.1242
2660	65.1895
2655	65.2776
2650	65.2534
2645	65.1066
2640	65.1081
2635	65.1996
2630	65.2996
2625	65.2343
2620	65.1326
2615	65.1944
2610	65.2013
2605	65.2362
2600	65.264
2595	65.2075
2590	65.1286
2585	65.1536
2580	65.2248
2575	65.2642
2570	65.2225
2565	65.13
2560	65.1439
2555	65.2782
2550	65.2472
2545	65.1638
2540	65.1261
2535	65.2409
2530	65.3884
2525	65.3508
2520	65.2227
2515	65.1592
2510	65.1967
2505	65.2543
2500	65.2551
2495	65.1423
2490	65.1834
2485	65.3625
2480	65.3496
2475	65.2934
2470	65.269
2465	65.3011
2460	65.3482
2455	65.2792
2450	65.2443
2445	65.3183
2440	65.39
2435	65.3524
2430	65.3079
2425	65.3254
2420	65.3583
2415	65.4522
2410	65.3802
2405	65.166
2400	65.107
2395	65.1547
2390	65.1904
2385	65.2309
2380	65.2726
2375	65.2983
2370	65.2754
2365	65.2573
2360	65.2833
2355	65.2405
2350	65.2248
2345	65.2254
2340	65.2098
2335	65.2161
2330	65.2094
2325	65.2326
2320	65.3163
2315	65.3533
2310	65.2858
2305	65.2076
2300	65.2509
2295	65.2529
2290	65.2107
2285	65.1793
2280	65.2247
2275	65.3436
2270	65.3898
2265	65.3008
2260	65.1706
2255	65.0931
2250	65.1116
2245	65.2285
2240	65.3309
2235	65.2778
2230	65.2192
2225	65.2645
2220	65.3325
2215	65.36
2210	65.3373
2205	65.2015
2200	65.1401
2195	65.2475
2190	65.298
2185	65.301
2180	65.3111
2175	65.2851
2170	65.2948
2165	65.3139
2160	65.3087
2155	65.3044
2150	65.2144
2145	65.2027
2140	65.2301
2135	65.1733
2130	65.1357
2125	65.1465
2120	65.1725
2115	65.2397
2110	65.2494
2105	65.1549
2100	65.1771
2095	65.2532
2090	65.225
2085	65.1972
2080	65.265
2075	65.299
2070	65.295
2065	65.3227
2060	65.3486
2055	65.3371
2050	65.29
2045	65.3212
2040	65.3705
2035	65.3735
2030	65.3624
2025	65.3476
2020	65.3318
2015	65.3347
2010	65.3287
2005	65.3034
2000	65.2399
1995	65.1918
1990	65.2395
1985	65.2775
1980	65.2922
1975	65.3136
1970	65.337
1965	65.3257
1960	65.3133
1955	65.3213
1950	65.3232
1945	65.3215
1940	65.2393
1935	65.234
1930	65.334
1925	65.3843
1920	65.3245
1915	65.3211
1910	65.3245
1905	65.3187
1900	65.2891
1895	65.2657
1890	65.3151
1885	65.3667
1880	65.3215
1875	65.2902
1870	65.3413
1865	65.2855
1860	65.2483
1855	65.3599
1850	65.3765
1845	65.3178
1840	65.3165
1835	65.3057
1830	65.3132
1825	65.2356
1820	65.2136
1815	65.2761
1810	65.3488
1805	65.3173
1800	65.2692
1795	65.3389
1790	65.3099
1785	65.2553
1780	65.2804
1775	65.2549
1770	65.2517
1765	65.2511
1760	65.2781
1755	65.3244
1750	65.2605
1745	65.17
1740	65.0738
1735	64.9751
1730	65.017
1725	65.1588
1720	65.2431
1715	65.2027
1710	65.2244
1705	65.1906
1700	65.1696
1695	65.207
1690	65.1997
1685	65.2323
1680	65.1239
1675	65.0562
1670	65.149
1665	65.1405
1660	65.118
1655	65.1071
1650	65.1319
1645	65.1587
1640	65.1178
1635	65.1572
1630	65.2302
1625	65.2153
1620	65.2298
1615	65.2142
1610	65.1601
1605	65.2254
1600	65.1971
1595	65.074
1590	64.9727
1585	64.9762
1580	65.0897
1575	65.1601
1570	65.154
1565	65.1245
1560	65.0594
1555	65.0831
1550	65.1197
1545	65.0719
1540	65.0055
1535	65.0127
1530	65.1366
1525	65.1462
1520	64.9977
1515	65.046
1510	65.1912
1505	65.2174
1500	65.1585
1495	65.1068
1490	65.1747
1485	65.2279
1480	65.1799
1475	65.1124
1470	65.1501
1465	65.1057
1460	65.0186
1455	65.0043
1450	65.0202
1445	65.0882
1440	65.0775
1435	65.1448
1430	65.2331
1425	65.1501
1420	65.0687
1415	65.0085
1410	64.9633
1405	65.0302
1400	65.1086
1395	65.0877
1390	65.0506
1385	65.08
1380	65.1283
1375	65.0373
1370	64.9313
1365	65.0512
1360	65.1355
1355	65.0284
1350	65.0304
1345	65.1071
1340	65.0767
1335	65.0737
1330	65.1347
1325	65.0512
1320	65.011
1315	65.0712
1310	65.032
1305	65.0057
1300	65.0671
1295	65.0406
1290	65.0341
1285	65.0438
1280	65.0858
1275	65.0841
1270	64.9659
1265	65.0005
1260	65.0684
1255	65.0235
1250	64.9814
1245	64.9436
1240	64.9299
1235	65.0051
1230	65.0145
1225	65.0778
1220	65.1173
1215	65.0331
1210	65.1109
1205	65.0938
1200	65.0001
1195	65.1043
1190	65.1656
1185	65.0645
1180	65.0257
1175	65.0315
1170	65.0066
1165	65.053
1160	65.0461
1155	64.9104
1150	64.8459
1145	64.8175
1140	64.8218
1135	64.8501
1130	64.8152
1125	64.8101
1120	64.7492
1115	64.6906
1110	64.7544
1105	64.8135
1100	64.7415
1095	64.6973
1090	64.8346
1085	64.915
1080	64.8943
1075	64.7661
1070	64.7298
1065	64.8884
1060	64.8737
1055	64.7875
1050	64.8098
1045	64.9393
1040	64.8948
1035	64.8575
1030	64.783
1025	64.7119
1020	64.8172
1015	64.8724
1010	64.7673
1005	64.7382
1000	64.8865
995	 64.8739
990	 64.848
985	 64.7235
980	 64.5361
975	 64.7871
970	 65.0776
965	 64.9499
960	 64.679
955	 64.6344
950	 64.6788
945	 64.7607
940	 64.8252
935	 64.6404
930	 64.5381
925	 64.5686
920	 64.3348
915	 64.4331
910	 64.6409
905	 64.8084
900	 64.685
895	 64.2057
890	 64.0205
885	 63.9971
880	 64.1707
875	 64.463
870	 64.6209
865	 64.7314
860	 64.467
855	 64.1584
850	 64.3203
845	 64.5011
840	 64.3565
835	 64.1555
830	 64.2344
825	 64.4151
820	 64.4207
815	 64.4921
810	 64.2164
805	 64.1033
800	 64.31
795	 64.4821
790	 64.6932
785	 64.7473
780	 64.596
775	 64.3405
770	 64.098
765	 64.0277
760	 63.95
755	 63.9382
750	 64.015
745	 64.1286
740	 64.2183
735	 63.9751
730	 63.7809
725	 63.8037
720	 63.7509
715	 63.7716
710	 63.7162
705	 63.625
700	 63.4026
695	 63.5493
690	 63.7949
685	 63.5465
680	 63.3396
675	 63.4703
670	 63.6065
665	 63.6424
660	 63.4498
655	 63.3766
650	 63.4659
645	 63.4994
640	 63.3743
635	 63.1845
630	 63.2343
625	 63.524
620	 63.2412
615	 63.0008
610	 63.1944
605	 63.0691
600	 62.7981
595	 62.8886
590	 62.8821
585	 62.3518
580	 62.2582
575	 62.4639
570	 62.5286
565	 62.5397
560	 62.2497
555	 62.1636
550	 62.4334
545	 62.5237
540	 62.5302
535	 62.2353
530	 62.1164
525	 61.9926
520	 61.5342
515	 61.5767
510	 61.8661
505	 61.6724
500	 61.3679
495	 61.657
490	 61.6308
485	 61.2048
480	 60.6078
475	 60.6668
470	 60.5431
465	 59.872
460	 59.8429
455	 60.5013
450	 60.5032
445	 59.5316
440	 58.7149
435	 56.8517
430	 56.0133
425	 56.9659
420	 54.7899
415	 52.145
410	 54.0694
405	 60.8118
400	 64.7957
395	 64.957
390	 61.2357
385	 54.6434
380	 51.3509
375	 42.7327
370	 28.278