File: Bakgrunnsmateriale/MATLAB/FTIR/ftir_data/subBb/Mapping_36/C-4040-8_t34_cm-1.asc
PE IR       SPECTRUM    SPECTRUM    ASCII       PEDS        1.60
  -1
C-1B6F~1.ASC
17/05/02
13:44:44.00
17/05/02
13:44:44.00
tln
$C-4040-8_t0034$<tbV0>[-2.5,12.0,8.0,0.0,22,1,0]
370
64

2002,4.07
MIRTGS : RIGHTBACK : INTERNAL 2
MIR : ON : INTERNAL 2
OPTKBR

0.200000
8
8.000000
FILLER
RATIO
SPECTRUM
UNLOCKED 256

DOUBLE
64
COMBINED
1
0
0

1.000000
RATIO

1
0
TRUE
51149
0
LEFT NOT FITTED RIGHT NOT FITTED 0
NONE
NONE
15600
12
4.427000
51148
TRUE
1 0 8 72 0 0 0 0

15798

#HDR
-1
-1
#GR
CM-1
%T
2.38419e-05
0.0
7800
-1.000000
7431
8
87.1398
56.5576
#DATA
7800	68.2395
7795	73.8176
7790	63.1619
7785	60.27
7780	64.8594
7775	60.876
7770	61.0569
7765	65.0405
7760	68.3756
7755	71.2783
7750	73.8188
7745	67.5251
7740	64.3394
7735	74.1917
7730	80.3506
7725	72.4199
7720	68.1775
7715	68.8971
7710	68.2127
7705	70.8364
7700	71.3941
7695	69.6278
7690	68.5802
7685	71.0817
7680	71.9052
7675	72.7881
7670	68.6911
7665	62.1496
7660	62.1713
7655	67.7809
7650	71.4202
7645	71.6877
7640	69.1933
7635	67.1726
7630	69.2328
7625	68.4948
7620	65.5024
7615	64.6852
7610	65.7974
7605	68.2919
7600	72.1853
7595	73.6455
7590	70.5869
7585	66.4783
7580	66.1767
7575	70.7193
7570	72.2533
7565	67.3308
7560	62.5682
7555	64.56
7550	68.8319
7545	68.5074
7540	65.1547
7535	64.5848
7530	66.5117
7525	67.9027
7520	65.6629
7515	64.051
7510	66.0648
7505	69.5399
7500	68.6668
7495	65.4108
7490	62.4064
7485	62.3253
7480	65.1456
7475	64.0492
7470	63.8221
7465	68.4514
7460	70.4873
7455	68.8649
7450	67.1379
7445	66.4338
7440	64.8755
7435	64.7693
7430	65.0355
7425	65.8321
7420	67.1946
7415	69.5086
7410	69.2705
7405	66.3338
7400	62.5887
7395	62.8498
7390	65.2972
7385	63.5412
7380	62.4641
7375	61.5969
7370	62.2144
7365	63.7972
7360	66.3612
7355	70.4451
7350	68.991
7345	65.2728
7340	65.3662
7335	66.4917
7330	66.644
7325	65.4895
7320	61.048
7315	59.4286
7310	60.8567
7305	61.7097
7300	63.8396
7295	65.7494
7290	65.4646
7285	66.6287
7280	67.3945
7275	66.155
7270	64.8596
7265	60.8593
7260	61.9399
7255	65.6253
7250	67.0339
7245	63.5968
7240	60.4029
7235	61.3952
7230	64.2279
7225	67.1977
7220	66.2457
7215	63.268
7210	62.6534
7205	63.9804
7200	65.0504
7195	65.6427
7190	63.7308
7185	64.0834
7180	65.1599
7175	64.1057
7170	64.0092
7165	66.7991
7160	68.0557
7155	65.5685
7150	64.0569
7145	65.3512
7140	64.7762
7135	63.7432
7130	65.082
7125	66.2845
7120	64.6134
7115	63.5443
7110	63.2627
7105	63.6589
7100	63.352
7095	63.5618
7090	64.95
7085	65.2979
7080	63.4859
7075	64.3535
7070	65.6667
7065	63.8786
7060	61.4963
7055	62.6247
7050	67.444
7045	68.0721
7040	66.6572
7035	68.225
7030	67.9589
7025	65.5849
7020	65.4801
7015	66.5725
7010	66.0252
7005	65.2706
7000	64.862
6995	66.9148
6990	68.3211
6985	66.8291
6980	64.9719
6975	64.7024
6970	65.4804
6965	66.7768
6960	66.0223
6955	64.462
6950	64.2151
6945	63.4305
6940	63.2338
6935	63.6856
6930	63.2596
6925	63.2149
6920	64.7396
6915	65.7589
6910	65.3644
6905	65.2871
6900	65.2797
6895	64.1009
6890	63.9853
6885	65.0869
6880	67.0104
6875	66.4137
6870	65.3489
6865	65.1552
6860	64.2207
6855	64.7652
6850	65.5345
6845	64.7961
6840	65.2255
6835	65.361
6830	64.372
6825	64.1068
6820	64.3424
6815	65.2178
6810	64.9405
6805	65.1407
6800	65.2769
6795	64.3049
6790	62.6652
6785	63.0459
6780	64.8534
6775	65.9369
6770	65.5178
6765	63.7209
6760	63.2725
6755	64.1213
6750	64.2153
6745	63.9336
6740	63.4034
6735	64.2504
6730	64.3774
6725	62.5509
6720	62.0708
6715	63.5891
6710	65.0136
6705	65.5573
6700	65.9459
6695	65.564
6690	65.8806
6685	66.434
6680	66.224
6675	65.9986
6670	64.4859
6665	63.5663
6660	64.6255
6655	64.8746
6650	64.2786
6645	64.2488
6640	65.629
6635	65.4129
6630	64.5844
6625	65.091
6620	65.4335
6615	64.6201
6610	64.1448
6605	64.1848
6600	64.2807
6595	63.8527
6590	63.5552
6585	64.3257
6580	65.2955
6575	64.5621
6570	64.7964
6565	64.9454
6560	64.2622
6555	63.8273
6550	63.3188
6545	63.372
6540	63.4747
6535	63.1996
6530	64.242
6525	64.9802
6520	65.2864
6515	64.6471
6510	63.5751
6505	64.1886
6500	64.3917
6495	63.846
6490	64.9207
6485	65.4428
6480	65.0109
6475	64.6025
6470	64.1616
6465	64.7576
6460	65.5085
6455	64.8574
6450	63.538
6445	63.0833
6440	64.0585
6435	64.3369
6430	64.2529
6425	64.4992
6420	63.5737
6415	63.3668
6410	64.1155
6405	64.7271
6400	64.8715
6395	65.8293
6390	66.793
6385	66.1764
6380	64.9996
6375	64.8067
6370	65.8838
6365	65.9492
6360	65.0343
6355	64.5663
6350	65.0739
6345	65.4529
6340	65.2372
6335	64.4052
6330	64.7122
6325	65.9198
6320	65.7044
6315	65.3583
6310	65.5029
6305	64.6841
6300	63.9611
6295	64.6214
6290	65.3408
6285	64.9318
6280	65.1276
6275	65.7582
6270	65.5593
6265	65.3003
6260	65.0332
6255	64.5144
6250	64.9888
6245	65.1051
6240	64.5731
6235	63.9161
6230	63.674
6225	63.5615
6220	63.2306
6215	63.4866
6210	63.7721
6205	63.7516
6200	64.6212
6195	64.789
6190	63.8715
6185	64.1909
6180	63.9563
6175	64.1198
6170	64.9069
6165	65.5843
6160	65.4662
6155	64.3913
6150	64.3341
6145	64.6413
6140	64.7146
6135	64.9005
6130	64.9366
6125	64.9738
6120	65.1374
6115	64.6309
6110	64.0384
6105	64.7818
6100	65.2639
6095	64.9001
6090	64.6495
6085	64.6841
6080	64.3999
6075	63.9066
6070	64.6499
6065	65.6843
6060	65.096
6055	64.8977
6050	65.0244
6045	64.226
6040	64.1892
6035	64.4056
6030	64.3187
6025	64.5611
6020	65.47
6015	65.5937
6010	65.0849
6005	65.4094
6000	65.0912
5995	64.5141
5990	64.6939
5985	65.137
5980	65.0522
5975	64.8891
5970	65.5021
5965	65.3375
5960	64.9701
5955	64.8853
5950	65.0137
5945	64.7287
5940	64.481
5935	64.9773
5930	65.1738
5925	64.9161
5920	64.778
5915	64.5545
5910	65.19
5905	65.9144
5900	65.6288
5895	64.943
5890	65.0457
5885	65.244
5880	64.5979
5875	64.2264
5870	65.277
5865	66.1771
5860	65.5287
5855	64.768
5850	64.7474
5845	65.0184
5840	64.7783
5835	64.3985
5830	65.0472
5825	65.539
5820	65.3929
5815	64.9459
5810	64.9429
5805	64.7987
5800	64.685
5795	64.6645
5790	64.3331
5785	63.8722
5780	64.0489
5775	64.4467
5770	64.6189
5765	65.2753
5760	66.1236
5755	65.4973
5750	64.7069
5745	64.9296
5740	65.3042
5735	65.2344
5730	64.8209
5725	64.7114
5720	65.0513
5715	64.6937
5710	63.7943
5705	63.9332
5700	64.4626
5695	64.7284
5690	65.3261
5685	65.429
5680	64.8367
5675	64.2848
5670	64.3983
5665	64.8984
5660	65.1956
5655	65.1315
5650	65.1197
5645	64.905
5640	64.7638
5635	65.4014
5630	66.0002
5625	65.517
5620	64.6758
5615	64.6558
5610	65.1336
5605	65.4863
5600	65.8525
5595	66.113
5590	65.8221
5585	64.9338
5580	64.9984
5575	65.7449
5570	66.13
5565	65.6147
5560	65.2133
5555	65.4812
5550	65.2575
5545	64.666
5540	64.765
5535	65.0828
5530	64.8877
5525	64.5172
5520	64.6437
5515	65.0924
5510	65.1282
5505	64.9153
5500	64.4203
5495	64.5359
5490	64.9727
5485	65.2436
5480	64.9706
5475	64.2818
5470	64.6238
5465	64.5859
5460	64.2292
5455	64.4982
5450	65.1714
5445	64.6301
5440	64.017
5435	64.5072
5430	65.4466
5425	66.1032
5420	65.5671
5415	64.7203
5410	64.7318
5405	64.4316
5400	64.6288
5395	65.0791
5390	64.5833
5385	64.75
5380	65.3193
5375	65.4019
5370	65.3865
5365	65.1755
5360	64.8821
5355	64.5465
5350	64.4702
5345	65.1075
5340	64.7712
5335	64.4612
5330	64.8789
5325	64.0596
5320	62.2356
5315	62.7936
5310	65.1175
5305	66.0103
5300	64.7656
5295	63.8815
5290	63.4544
5285	62.4375
5280	61.2334
5275	63.1071
5270	65.0595
5265	63.8994
5260	63.0186
5255	64.1863
5250	64.907
5245	64.686
5240	64.6583
5235	64.635
5230	64.5404
5225	64.7728
5220	64.8817
5215	64.5468
5210	64.5435
5205	64.9458
5200	65.3427
5195	65.2107
5190	64.6753
5185	64.3651
5180	64.3318
5175	64.5602
5170	64.8
5165	64.8604
5160	65.4184
5155	65.5187
5150	64.8684
5145	64.8925
5140	65.3418
5135	65.5065
5130	65.3818
5125	65.2234
5120	65.1051
5115	65.1056
5110	65.2791
5105	65.3388
5100	65.242
5095	65.2294
5090	65.111
5085	64.9328
5080	65.0258
5075	65.0509
5070	65.3673
5065	65.5764
5060	65.4865
5055	65.1752
5050	64.966
5045	64.8061
5040	64.7805
5035	64.7671
5030	64.9408
5025	65.0835
5020	65.2676
5015	65.5557
5010	65.3187
5005	65.0088
5000	64.9745
4995	64.8676
4990	64.6948
4985	64.4925
4980	64.6654
4975	64.7513
4970	64.9117
4965	65.0551
4960	64.7591
4955	64.5078
4950	64.7504
4945	64.9778
4940	64.9957
4935	64.748
4930	64.7371
4925	64.7154
4920	64.7398
4915	64.6662
4910	64.3699
4905	64.3152
4900	64.6533
4895	64.8037
4890	64.8331
4885	64.8262
4880	64.8223
4875	64.849
4870	65.0058
4865	64.7675
4860	64.4497
4855	64.873
4850	64.9459
4845	64.8021
4840	64.7607
4835	64.8792
4830	64.9314
4825	64.9809
4820	65.2019
4815	65.2665
4810	65.1177
4805	64.8159
4800	64.7749
4795	64.9177
4790	64.9405
4785	64.965
4780	64.9433
4775	64.993
4770	65.1618
4765	65.2186
4760	65.0809
4755	65.0289
4750	65.1822
4745	65.1038
4740	65.1424
4735	65.194
4730	65.1678
4725	65.3088
4720	65.4007
4715	65.2602
4710	65.0582
4705	64.9069
4700	65.1248
4695	65.2884
4690	65.1516
4685	65.1394
4680	65.265
4675	65.2107
4670	65.2178
4665	65.2297
4660	65.4343
4655	65.4099
4650	65.1064
4645	65.1973
4640	65.1167
4635	64.8786
4630	64.9897
4625	65.2507
4620	65.3748
4615	65.4609
4610	65.4028
4605	65.1353
4600	65.1007
4595	65.1899
4590	65.1884
4585	65.0842
4580	65.0775
4575	65.1473
4570	65.0616
4565	64.7125
4560	64.4846
4555	64.3077
4550	64.2973
4545	64.498
4540	64.6392
4535	64.4524
4530	64.5916
4525	64.9212
4520	64.832
4515	64.5735
4510	64.323
4505	64.1622
4500	63.9266
4495	63.9832
4490	64.0735
4485	64.1379
4480	64.4281
4475	64.2472
4470	63.7942
4465	63.8551
4460	64.2182
4455	64.1675
4450	64.2017
4445	64.1709
4440	63.834
4435	63.9184
4430	64.1302
4425	64.2212
4420	63.8344
4415	63.8103
4410	64.636
4405	64.3367
4400	63.5271
4395	64.3742
4390	73.1204
4385	76.4256
4380	73.6998
4375	76.2797
4370	71.4347
4365	65.0735
4360	63.6784
4355	63.8842
4350	64.256
4345	64.6073
4340	64.5197
4335	63.9763
4330	63.9032
4325	64.2249
4320	64.2165
4315	64.1685
4310	64.1929
4305	64.5038
4300	64.5727
4295	64.0965
4290	63.9044
4285	64.3967
4280	64.7698
4275	64.7053
4270	64.4638
4265	64.272
4260	64.412
4255	64.554
4250	64.549
4245	64.6565
4240	64.5327
4235	64.5948
4230	64.8385
4225	64.7849
4220	64.776
4215	64.8873
4210	65.1155
4205	64.9358
4200	64.7521
4195	64.999
4190	65.3554
4185	65.3229
4180	65.1846
4175	65.077
4170	65.1142
4165	65.0936
4160	65.1608
4155	65.3231
4150	65.3283
4145	65.0939
4140	64.937
4135	64.9294
4130	65.1443
4125	65.4124
4120	65.4412
4115	65.3934
4110	65.4692
4105	65.4004
4100	65.2768
4095	65.2394
4090	65.1844
4085	65.0915
4080	64.9834
4075	65.0815
4070	65.123
4065	65.1706
4060	65.2117
4055	65.2415
4050	65.3531
4045	65.4393
4040	65.1549
4035	64.9317
4030	65.0696
4025	65.2385
4020	65.1937
4015	64.9776
4010	64.8733
4005	64.9113
4000	65.0353
3995	65.1283
3990	65.1733
3985	65.263
3980	65.1787
3975	65.0493
3970	65.094
3965	65.1695
3960	65.2174
3955	65.1927
3950	65.1686
3945	65.1162
3940	65.1323
3935	65.192
3930	65.1682
3925	65.0663
3920	64.9182
3915	64.8784
3910	64.9881
3905	65.0255
3900	65.0361
3895	65.1827
3890	65.2587
3885	64.9951
3880	64.8587
3875	64.949
3870	64.9944
3865	65.0623
3860	65.1628
3855	65.0799
3850	64.8576
3845	64.8229
3840	64.9674
3835	65.005
3830	64.9456
3825	65.0001
3820	65.0369
3815	65.0055
3810	65.096
3805	65.1424
3800	65.0759
3795	65.1784
3790	65.2244
3785	65.1212
3780	65.0314
3775	65.0962
3770	65.1234
3765	65.098
3760	65.1621
3755	65.142
3750	65.1247
3745	65.2272
3740	65.1909
3735	65.2398
3730	65.2555
3725	65.2176
3720	65.1922
3715	65.1224
3710	65.1889
3705	65.2851
3700	65.3029
3695	65.2999
3690	65.2979
3685	65.2313
3680	65.0911
3675	65.136
3670	65.2379
3665	65.1888
3660	65.1539
3655	65.2172
3650	65.2554
3645	65.2257
3640	65.2686
3635	65.271
3630	65.1977
3625	65.175
3620	65.2811
3615	65.2513
3610	65.1785
3605	65.1438
3600	65.0753
3595	65.2034
3590	65.2533
3585	65.1902
3580	65.1859
3575	65.1476
3570	65.1134
3565	65.1173
3560	65.0827
3555	65.2037
3550	65.2752
3545	65.2441
3540	65.135
3535	65.0121
3530	65.0166
3525	65.0948
3520	65.0278
3515	65.1253
3510	65.2129
3505	65.1262
3500	65.0396
3495	65.0789
3490	65.4376
3485	65.3722
3480	64.8517
3475	64.8097
3470	65.0185
3465	65.1793
3460	65.1787
3455	65.1742
3450	65.0019
3445	64.8087
3440	64.9234
3435	65.0512
3430	65.1137
3425	65.1103
3420	65.1012
3415	65.1222
3410	65.1789
3405	65.2285
3400	65.2673
3395	65.1272
3390	64.9186
3385	64.9472
3380	65.018
3375	64.985
3370	64.9165
3365	64.895
3360	64.9508
3355	65.0466
3350	65.1115
3345	65.0877
3340	65.0673
3335	65.1684
3330	65.1138
3325	65.0813
3320	65.2377
3315	65.1957
3310	65.1476
3305	65.1297
3300	65.0872
3295	65.0702
3290	65.0635
3285	65.1284
3280	65.1839
3275	65.1783
3270	65.1386
3265	65.2345
3260	65.2743
3255	65.1745
3250	65.1918
3245	65.3365
3240	65.3251
3235	65.2103
3230	65.1328
3225	65.1134
3220	65.0658
3215	65.0525
3210	65.1433
3205	65.1788
3200	65.0951
3195	65.0723
3190	65.1198
3185	65.1812
3180	65.2239
3175	65.2577
3170	65.2136
3165	65.1991
3160	65.2516
3155	65.1645
3150	65.1324
3145	65.1528
3140	65.1868
3135	65.1791
3130	65.0888
3125	65.0448
3120	65.0922
3115	65.1946
3110	65.2121
3105	65.1367
3100	65.1283
3095	65.1808
3090	65.1899
3085	65.1977
3080	65.1828
3075	65.0895
3070	65.0622
3065	65.1117
3060	65.1443
3055	65.1055
3050	65.1688
3045	65.2175
3040	65.167
3035	65.0474
3030	65.0253
3025	65.1042
3020	65.1258
3015	65.175
3010	65.095
3005	65.1331
3000	65.234
2995	65.1979
2990	65.0741
2985	64.9571
2980	64.9817
2975	65.0519
2970	64.9941
2965	64.8848
2960	64.8987
2955	64.8536
2950	64.8503
2945	64.9347
2940	65.0591
2935	65.0684
2930	64.8556
2925	64.6731
2920	64.6456
2915	64.6351
2910	64.6465
2905	64.8095
2900	64.883
2895	64.9097
2890	65.0076
2885	64.9099
2880	64.818
2875	64.8636
2870	64.9943
2865	65.0293
2860	64.9627
2855	64.9662
2850	64.8564
2845	64.8055
2840	64.9172
2835	65.0813
2830	65.1649
2825	65.2469
2820	65.2699
2815	65.1592
2810	65.1801
2805	65.2872
2800	65.2371
2795	65.1482
2790	65.0894
2785	65.1009
2780	65.1953
2775	65.2933
2770	65.2634
2765	65.2076
2760	65.1978
2755	65.2163
2750	65.2045
2745	65.1575
2740	65.172
2735	65.2362
2730	65.2847
2725	65.3367
2720	65.2501
2715	65.263
2710	65.2868
2705	65.242
2700	65.2232
2695	65.1983
2690	65.233
2685	65.2054
2680	65.076
2675	65.0352
2670	65.1532
2665	65.3073
2660	65.3121
2655	65.2284
2650	65.2284
2645	65.2632
2640	65.2299
2635	65.1591
2630	65.2095
2625	65.2732
2620	65.2155
2615	65.1568
2610	65.1721
2605	65.1899
2600	65.1963
2595	65.2233
2590	65.1531
2585	65.1371
2580	65.1927
2575	65.1687
2570	65.2007
2565	65.2956
2560	65.3675
2555	65.3559
2550	65.2629
2545	65.1984
2540	65.198
2535	65.1736
2530	65.1658
2525	65.1443
2520	65.1421
2515	65.1111
2510	65.1161
2505	65.2468
2500	65.3276
2495	65.2985
2490	65.2643
2485	65.201
2480	65.1309
2475	65.0979
2470	65.1646
2465	65.2174
2460	65.1999
2455	65.145
2450	65.0985
2445	65.1386
2440	65.2261
2435	65.2848
2430	65.2403
2425	65.1888
2420	65.231
2415	65.2491
2410	65.2326
2405	65.2034
2400	65.2005
2395	65.2168
2390	65.2267
2385	65.2356
2380	65.2205
2375	65.1859
2370	65.1992
2365	65.2618
2360	65.2823
2355	65.2693
2350	65.2617
2345	65.2727
2340	65.2604
2335	65.1904
2330	65.0939
2325	65.1458
2320	65.216
2315	65.2204
2310	65.2517
2305	65.2746
2300	65.2828
2295	65.2378
2290	65.2256
2285	65.2402
2280	65.1912
2275	65.1936
2270	65.2895
2265	65.3019
2260	65.2657
2255	65.235
2250	65.2269
2245	65.2521
2240	65.2601
2235	65.2181
2230	65.2218
2225	65.2549
2220	65.2947
2215	65.3115
2210	65.2527
2205	65.1897
2200	65.1695
2195	65.1898
2190	65.2185
2185	65.2276
2180	65.2078
2175	65.2751
2170	65.3147
2165	65.2199
2160	65.1951
2155	65.2441
2150	65.2557
2145	65.2542
2140	65.2967
2135	65.3102
2130	65.2792
2125	65.2715
2120	65.2575
2115	65.2248
2110	65.2124
2105	65.2439
2100	65.2097
2095	65.2407
2090	65.3797
2085	65.3658
2080	65.2754
2075	65.212
2070	65.1772
2065	65.1941
2060	65.2303
2055	65.2423
2050	65.2367
2045	65.2977
2040	65.2935
2035	65.1961
2030	65.1619
2025	65.2183
2020	65.1647
2015	65.1706
2010	65.2914
2005	65.3269
2000	65.256
1995	65.1544
1990	65.2334
1985	65.3193
1980	65.2831
1975	65.2909
1970	65.3732
1965	65.3263
1960	65.2632
1955	65.2891
1950	65.3125
1945	65.3481
1940	65.3171
1935	65.2887
1930	65.3478
1925	65.2682
1920	65.1724
1915	65.1861
1910	65.2426
1905	65.2752
1900	65.2957
1895	65.2795
1890	65.2124
1885	65.1514
1880	65.0934
1875	65.1491
1870	65.2282
1865	65.2858
1860	65.3098
1855	65.2591
1850	65.2625
1845	65.3665
1840	65.3385
1835	65.2671
1830	65.2138
1825	65.2066
1820	65.2113
1815	65.1941
1810	65.1736
1805	65.2094
1800	65.2839
1795	65.2995
1790	65.2035
1785	65.1977
1780	65.2506
1775	65.2424
1770	65.1909
1765	65.1318
1760	65.1084
1755	65.1024
1750	65.1085
1745	65.0989
1740	65.0908
1735	65.0216
1730	64.9708
1725	64.9784
1720	64.8986
1715	64.9694
1710	65.1574
1705	65.1766
1700	65.1295
1695	64.9926
1690	64.8973
1685	64.9554
1680	65.1072
1675	65.2093
1670	65.2495
1665	65.2266
1660	65.18
1655	65.1461
1650	65.119
1645	65.0731
1640	65.0461
1635	65.0756
1630	65.1231
1625	65.2056
1620	65.1361
1615	65.008
1610	65.0088
1605	64.9947
1600	65.0082
1595	65.004
1590	64.9862
1585	64.9423
1580	65.0161
1575	65.0216
1570	64.9191
1565	64.9704
1560	65.0853
1555	65.0865
1550	65.0053
1545	65.0383
1540	65.0379
1535	64.9915
1530	65.0091
1525	65.0255
1520	65.0014
1515	65.0078
1510	65.0896
1505	65.169
1500	65.1691
1495	65.1607
1490	65.1247
1485	65.0799
1480	65.052
1475	65.0679
1470	64.9586
1465	64.8666
1460	64.9087
1455	64.9765
1450	64.9671
1445	64.935
1440	64.9817
1435	64.9808
1430	64.9399
1425	64.9467
1420	64.9866
1415	64.9477
1410	64.9182
1405	64.9343
1400	64.9316
1395	64.9487
1390	64.9792
1385	64.9952
1380	64.9766
1375	64.9346
1370	64.9286
1365	64.9742
1360	64.9616
1355	64.9688
1350	64.9405
1345	64.8921
1340	64.9025
1335	64.986
1330	64.9337
1325	64.8859
1320	64.8618
1315	64.7998
1310	64.8574
1305	64.977
1300	64.9461
1295	64.957
1290	64.9114
1285	64.801
1280	64.7956
1275	64.8173
1270	64.9051
1265	64.9513
1260	64.9496
1255	64.8986
1250	64.8054
1245	64.8018
1240	64.8113
1235	64.8587
1230	64.9378
1225	64.9582
1220	64.9346
1215	64.8898
1210	64.8079
1205	64.7533
1200	64.7926
1195	64.7784
1190	64.7459
1185	64.8144
1180	64.7795
1175	64.6875
1170	64.7308
1165	64.7265
1160	64.7306
1155	64.816
1150	64.7527
1145	64.7609
1140	64.7894
1135	64.7516
1130	64.8199
1125	64.9088
1120	64.8973
1115	64.7592
1110	64.6561
1105	64.6853
1100	64.8148
1095	64.8174
1090	64.7287
1085	64.5959
1080	64.5857
1075	64.6541
1070	64.6335
1065	64.6989
1060	64.7315
1055	64.6943
1050	64.6194
1045	64.5231
1040	64.6138
1035	64.7368
1030	64.6139
1025	64.6269
1020	64.8352
1015	64.8768
1010	64.7302
1005	64.6303
1000	64.6257
995	 64.5453
990	 64.3702
985	 64.5844
980	 64.9348
975	 64.8521
970	 64.5949
965	 64.2658
960	 64.3191
955	 64.4716
950	 64.4558
945	 64.469
940	 64.6008
935	 64.6276
930	 64.3952
925	 64.4558
920	 64.4938
915	 64.6173
910	 64.4876
905	 64.2353
900	 63.836
895	 63.7236
890	 63.961
885	 64.1555
880	 64.579
875	 64.7119
870	 64.3827
865	 64.2356
860	 64.3328
855	 64.4901
850	 64.4862
845	 64.4113
840	 64.494
835	 64.3843
830	 64.4008
825	 64.4527
820	 64.1248
815	 63.853
810	 63.9429
805	 64.0327
800	 64.0223
795	 63.9085
790	 63.7801
785	 63.8316
780	 63.9632
775	 63.8882
770	 63.6455
765	 63.5876
760	 63.7472
755	 63.7439
750	 63.587
745	 63.4505
740	 63.3418
735	 63.4386
730	 63.5275
725	 63.5424
720	 63.6034
715	 63.5749
710	 63.3658
705	 63.1909
700	 62.8977
695	 62.829
690	 63.0261
685	 62.9088
680	 62.8156
675	 62.9087
670	 62.8975
665	 62.9249
660	 62.8694
655	 62.6796
650	 62.5606
645	 62.4283
640	 62.3695
635	 62.5686
630	 62.4946
625	 62.2768
620	 62.2121
615	 62.1723
610	 62.1939
605	 62.4238
600	 62.4754
595	 62.2318
590	 62.2034
585	 62.2297
580	 61.9387
575	 61.9382
570	 62.0329
565	 61.9045
560	 61.6372
555	 61.5046
550	 61.4236
545	 61.3705
540	 61.5592
535	 61.6057
530	 61.3504
525	 61.3106
520	 60.7194
515	 60.0189
510	 59.843
505	 59.8828
500	 60.4544
495	 60.3803
490	 60.0631
485	 60.2874
480	 60.0313
475	 59.7663
470	 59.8457
465	 59.4137
460	 59.4647
455	 59.7934
450	 59.4234
445	 59.3281
440	 58.7801
435	 57.2289
430	 56.5813
425	 57.868
420	 59.959
415	 60.6435
410	 59.033
405	 58.7619
400	 58.4517
395	 62.7682
390	 65.1116
385	 61.222
380	 63.7065
375	 77.374
370	 87.1398