File: Bakgrunnsmateriale/MATLAB/FTIR/ftir_data/subBb/Mapping_36/C-4040-8_t11.asc
PE IR       SPECTRUM    SPECTRUM    ASCII       PEDS        1.60
  -1
C-A92E~1.ASC
17/05/02
11:42:14.00
17/05/02
11:42:40.00
tln
$C-4040-8_t0011$<tbV0>[-7.5,-8.0,8.0,0.0,22,1,0]
27.028
64

2002,4.07
MIRTGS : RIGHTBACK : INTERNAL 2
MIR : ON : INTERNAL 2
OPTKBR

0.200000
8
8.000000
FILLER
RATIO
SPECTRUM
UNLOCKED 256

DOUBLE
64
COMBINED
1
0
0

0.002000
RATIO

1
0
TRUE
51149
0
LEFT NOT FITTED RIGHT NOT FITTED 0
NONE
NONE
15600
12
4.427000
51148
TRUE
1 0 8 72 0 0 0 0

15798

#HDR
-1
-1
#GR
µM
%T
2.38419e-05
0.0
1.282000
0.002000
12874
8
75.4328
19.2993
#DATA
1.282000	 64.5421
1.300000	 61.7025
1.318000	 63.7258
1.336000	 63.1785
1.354000	 63.8933
1.372000	 67.9988
1.390000	 67.1763
1.408000	 63.9838
1.426000	 63.303
1.444000	 63.8335
1.462000	 64.4365
1.480000	 64.5094
1.498000	 64.3942
1.516000	 64.2468
1.534000	 64.391
1.552000	 64.7207
1.570000	 63.8511
1.588000	 64.5278
1.606000	 63.8817
1.624000	 64.4239
1.642000	 63.7265
1.660000	 64.4467
1.678000	 64.5662
1.696000	 63.8189
1.714000	 65.2185
1.732000	 63.8711
1.750000	 64.2826
1.768000	 64.3432
1.786000	 64.0129
1.804000	 64.9818
1.822000	 64.2857
1.840000	 64.109
1.858000	 64.7157
1.876000	 65.1386
1.894000	 66.0526
1.912000	 63.2888
1.930000	 64.5479
1.948000	 63.7931
1.966000	 64.2069
1.984000	 64.2301
2.002000	 63.9338
2.020000	 63.9971
2.038000	 64.2873
2.056000	 64.0497
2.074000	 64.3704
2.092000	 63.9318
2.110000	 63.9573
2.128000	 64.502
2.146000	 64.0133
2.164000	 63.9556
2.182000	 64.1627
2.200000	 63.8347
2.218000	 64.0956
2.236000	 64.0623
2.254000	 64.7904
2.272000	 75.4328
2.290000	 64.7378
2.308000	 64.4956
2.326000	 63.6698
2.344000	 63.7713
2.362000	 63.8226
2.380000	 63.325
2.398000	 63.8126
2.416000	 63.2688
2.434000	 63.1401
2.452000	 63.1322
2.470000	 63.2052
2.488000	 63.2683
2.506000	 63.259
2.524000	 63.016
2.542000	 62.998
2.560000	 63.1444
2.578000	 63.2988
2.596000	 62.8543
2.614000	 62.9759
2.632000	 62.8883
2.650000	 62.5825
2.668000	 62.6822
2.686000	 62.6863
2.704000	 62.4461
2.722000	 62.5029
2.740000	 62.3621
2.758000	 62.2491
2.776000	 62.2583
2.794000	 61.9975
2.812000	 61.7268
2.830000	 61.6708
2.848000	 61.6374
2.866000	 61.5138
2.884000	 61.6425
2.902000	 61.5047
2.920000	 61.4982
2.938000	 61.3293
2.956000	 61.2226
2.974000	 61.2356
2.992000	 61.1748
3.010000	 60.9444
3.028000	 60.7227
3.046000	 60.8689
3.064000	 60.4826
3.082000	 60.4703
3.100000	 60.2798
3.118000	 60.1578
3.136000	 60.4329
3.154000	 60.1572
3.172000	 60.1433
3.190000	 59.848
3.208000	 59.8861
3.226000	 59.742
3.244000	 59.6288
3.262000	 59.7451
3.280000	 59.5093
3.298000	 59.61
3.316000	 59.321
3.334000	 59.062
3.352000	 59.0944
3.370000	 58.99
3.388000	 58.7701
3.406000	 58.6098
3.424000	 58.3521
3.442000	 58.5148
3.460000	 58.3662
3.478000	 58.256
3.496000	 58.0718
3.514000	 58.1231
3.532000	 58.0508
3.550000	 58.0393
3.568000	 57.9431
3.586000	 57.8641
3.604000	 57.8204
3.622000	 57.4968
3.640000	 57.6144
3.658000	 57.4308
3.676000	 57.3592
3.694000	 57.3542
3.712000	 57.1598
3.730000	 57.022
3.748000	 56.9377
3.766000	 56.978
3.784000	 56.7519
3.802000	 56.5686
3.820000	 56.6266
3.838000	 56.4483
3.856000	 56.3063
3.874000	 56.3327
3.892000	 56.2713
3.910000	 56.1294
3.928000	 56.07
3.946000	 55.9638
3.964000	 55.7784
3.982000	 55.839
4.000000	 55.7164
4.018000	 55.5161
4.036000	 55.4864
4.054000	 55.4195
4.072000	 55.2161
4.090000	 55.1585
4.108000	 55.0871
4.125999	 55.0621
4.144000	 54.8614
4.162000	 54.8406
4.180000	 54.75
4.198000	 54.6174
4.216000	 54.4816
4.234000	 54.4871
4.252000	 54.3742
4.270000	 54.2352
4.288000	 54.1612
4.306000	 54.0656
4.324000	 54.0559
4.342000	 53.9299
4.359999	 53.8211
4.378000	 53.7384
4.396000	 53.6771
4.414000	 53.6916
4.432000	 53.4725
4.450000	 53.3324
4.468000	 53.1856
4.486000	 53.2265
4.504000	 53.1386
4.522000	 53.1022
4.540000	 52.9701
4.558000	 52.763
4.576000	 52.7877
4.594000	 52.6316
4.612000	 52.5435
4.630000	 52.6209
4.648000	 52.5261
4.666000	 52.4567
4.684000	 52.4114
4.702000	 52.248
4.720000	 52.2017
4.738000	 52.1417
4.756000	 51.9397
4.774000	 51.8347
4.792000	 51.7798
4.810000	 51.9046
4.828000	 51.7929
4.846000	 51.5498
4.864000	 51.568
4.882000	 51.4828
4.900000	 51.4726
4.918000	 51.2839
4.936000	 51.1186
4.954000	 51.1578
4.972000	 51.1223
4.990000	 51.0091
5.008000	 50.9696
5.026000	 50.9354
5.044000	 50.7469
5.062000	 50.6469
5.080000	 50.5788
5.098000	 50.6164
5.116000	 50.4568
5.134000	 50.3862
5.152000	 50.2783
5.170000	 50.305
5.188000	 50.2787
5.206000	 50.2202
5.224000	 50.0451
5.242000	 49.9333
5.260000	 49.9407
5.278000	 49.8222
5.296000	 49.8216
5.314000	 49.7307
5.332000	 49.6651
5.350000	 49.6241
5.368000	 49.6157
5.386000	 49.5053
5.404000	 49.3393
5.422000	 49.3145
5.440000	 49.3053
5.458000	 49.2576
5.476000	 49.2394
5.494000	 49.1537
5.512000	 49.123
5.530000	 49.1348
5.548000	 49.0242
5.566000	 48.9159
5.584000	 48.8681
5.602000	 48.7574
5.620000	 48.6132
5.638000	 48.6404
5.656000	 48.6532
5.674000	 48.5866
5.692000	 48.5231
5.710000	 48.3743
5.728000	 48.1971
5.746000	 48.1932
5.764000	 48.1696
5.782000	 48.047
5.800000	 47.9337
5.818000	 47.8893
5.836000	 47.9375
5.854000	 47.9142
5.872000	 47.9073
5.890000	 47.8876
5.908000	 47.7493
5.926000	 47.6958
5.944000	 47.6497
5.962000	 47.606
5.980000	 47.5625
5.998000	 47.5355
6.016000	 47.4857
6.034000	 47.4652
6.052000	 47.3778
6.070000	 47.2783
6.088000	 47.2871
6.106000	 47.2811
6.124000	 47.1589
6.142000	 47.0099
6.160000	 46.9951
6.178000	 46.9976
6.196000	 46.9651
6.214000	 46.9027
6.232000	 46.862
6.250000	 46.8437
6.268000	 46.7505
6.286000	 46.638
6.304000	 46.5716
6.322000	 46.5945
6.340000	 46.6224
6.358000	 46.5078
6.376000	 46.4159
6.394000	 46.415
6.412000	 46.463
6.430000	 46.4273
6.448000	 46.2597
6.466000	 46.1259
6.484000	 46.1143
6.502000	 46.0935
6.520000	 45.994
6.538000	 45.917
6.556000	 45.9097
6.574000	 45.8881
6.592000	 45.8078
6.610000	 45.8016
6.628000	 45.865
6.646000	 45.8355
6.664000	 45.7384
6.682000	 45.677
6.700000	 45.6482
6.718000	 45.5872
6.736000	 45.5065
6.754000	 45.4531
6.772000	 45.4083
6.790000	 45.3487
6.808000	 45.2817
6.826000	 45.2416
6.844000	 45.2366
6.862000	 45.2064
6.880000	 45.0751
6.898000	 44.901
6.916000	 44.8573
6.934000	 44.9453
6.952000	 45.0403
6.970000	 45.0437
6.988000	 44.896
7.006000	 44.734
7.024000	 44.7456
7.042000	 44.8449
7.060000	 44.8696
7.078000	 44.8002
7.096000	 44.6682
7.114000	 44.58
7.132000	 44.6068
7.150000	 44.6301
7.168000	 44.5771
7.186000	 44.5082
7.204000	 44.446
7.222000	 44.4075
7.240000	 44.4073
7.258000	 44.3812
7.276000	 44.2905
7.294000	 44.2117
7.312000	 44.212
7.330000	 44.2524
7.348000	 44.2572
7.366000	 44.1877
7.384000	 44.0747
7.402000	 44.0045
7.420000	 44.005
7.438000	 44.0229
7.456000	 44.0247
7.474000	 44.0126
7.492000	 43.9873
7.510000	 43.9585
7.528000	 43.926
7.546000	 43.862
7.564000	 43.7481
7.582000	 43.6256
7.600000	 43.5647
7.618000	 43.5771
7.636000	 43.6033
7.654000	 43.5878
7.672000	 43.5246
7.690000	 43.4416
7.708000	 43.3717
7.726000	 43.3358
7.744000	 43.3373
7.762000	 43.3491
7.780000	 43.3339
7.798000	 43.2949
7.816000	 43.2641
7.834000	 43.2474
7.852000	 43.2282
7.870000	 43.2075
7.888000	 43.194
7.906000	 43.1767
7.924000	 43.1477
7.942000	 43.1191
7.960000	 43.0892
7.978000	 43.0339
7.996000	 42.9519
8.013999	 42.883
8.032000	 42.8627
8.050000	 42.8844
8.068000	 42.9128
8.086000	 42.91
8.103999	 42.8482
8.122000	 42.73
8.140000	 42.6001
8.158000	 42.5136
8.176000	 42.4906
8.193999	 42.5089
8.212000	 42.5314
8.230000	 42.5267
8.248000	 42.4863
8.266000	 42.4342
8.283999	 42.405
8.302000	 42.4053
8.320000	 42.4115
8.338000	 42.4043
8.356000	 42.383
8.374000	 42.352
8.391999	 42.3097
8.410000	 42.2501
8.428000	 42.1712
8.446000	 42.0878
8.464000	 42.0284
8.481999	 42.0125
8.500000	 42.0301
8.518000	 42.0513
8.536000	 42.0517
8.554000	 42.0279
8.571999	 41.9897
8.590000	 41.9476
8.608000	 41.9038
8.626000	 41.8571
8.644000	 41.8138
8.661999	 41.7934
8.680000	 41.8069
8.698000	 41.8278
8.716000	 41.8107
8.734000	 41.744
8.751999	 41.6682
8.770000	 41.6339
8.788000	 41.6503
8.806000	 41.6827
8.824000	 41.6912
8.842000	 41.6636
8.859999	 41.6154
8.878000	 41.5682
8.896000	 41.5313
8.914000	 41.5028
8.932000	 41.478
8.949999	 41.452
8.968000	 41.413
8.986000	 41.346
9.004000	 41.2499
9.022000	 41.1495
9.039999	 41.0827
9.058000	 41.0698
9.076000	 41.0968
9.094000	 41.1296
9.112000	 41.1415
9.129999	 41.1277
9.148000	 41.0952
9.166000	 41.0483
9.184000	 40.9881
9.202000	 40.9203
9.219999	 40.8564
9.238000	 40.807
9.256000	 40.7752
9.274000	 40.7592
9.292000	 40.7563
9.310000	 40.7632
9.327999	 40.7716
9.346000	 40.7689
9.364000	 40.746
9.382000	 40.7038
9.400000	 40.6519
9.418000	 40.5996
9.436000	 40.5518
9.454000	 40.5122
9.472000	 40.4888
9.490000	 40.4889
9.508000	 40.5071
9.526000	 40.5218
9.544000	 40.511
9.561999	 40.4741
9.580000	 40.4348
9.598000	 40.4201
9.616000	 40.4375
9.634000	 40.4685
9.652000	 40.4827
9.670000	 40.4597
9.688000	 40.4027
9.706000	 40.335
9.724000	 40.284
9.742000	 40.265
9.760000	 40.2743
9.778000	 40.2952
9.795999	 40.3089
9.814000	 40.3044
9.832000	 40.2814
9.850000	 40.2474
9.868000	 40.2127
9.886000	 40.1851
9.904000	 40.167
9.922000	 40.1542
9.940000	 40.1376
9.958000	 40.1082
9.976000	 40.0654
9.994000	 40.0186
10.012	39.9829
10.03	39.9684
10.048	39.9734
10.066	39.9861
10.084	39.9916
10.102	39.9766
10.12	39.9314
10.138	39.852
10.156	39.7432
10.174	39.621
10.192	39.5121
10.21	39.4428
10.228	39.4251
10.246	39.4506
10.264	39.4947
10.282	39.53
10.3	39.5414
10.318	39.5288
10.336	39.5043
10.354	39.481
10.372	39.4652
10.39	39.4526
10.408	39.4327
10.426	39.3941
10.444	39.3321
10.462	39.2525
10.48	39.1698
10.498	39.1044
10.516	39.0722
10.534	39.0784
10.552	39.1117
10.57	39.1494
10.588	39.166
10.606	39.1456
10.624	39.0876
10.642	39.0064
10.66	38.9226
10.678	38.857
10.696	38.8237
10.714	38.8285
10.732	38.8686
10.75	38.9335
10.768	39.0057
10.786	39.0663
10.804	39.0991
10.822	39.0999
10.84	39.0764
10.858	39.0453
10.876	39.0232
10.894	39.0181
10.912	39.0259
10.93	39.0329
10.948	39.0246
10.966	38.9923
10.984	38.9386
11.002	38.8765
11.02	38.822
11.038	38.7844
11.056	38.7615
11.074	38.74
11.092	38.7009
11.11	38.6307
11.128	38.5274
11.146	38.4025
11.164	38.2755
11.182	38.1667
11.2	38.0897
11.218	38.0453
11.236	38.025
11.254	38.0144
11.272	37.998
11.29	37.9639
11.308	37.9079
11.326	37.8362
11.344	37.764
11.362	37.7133
11.38	37.7064
11.398	37.7586
11.416	37.8735
11.434	38.0384
11.452	38.226
11.47	38.396
11.488	38.5056
11.506	38.5173
11.524	38.4092
11.542	38.1834
11.56	37.8702
11.578	37.521
11.596	37.1948
11.614	36.9471
11.632	36.808
11.65	36.777
11.668	36.8255
11.686	36.912
11.704	36.9989
11.722	37.0619
11.74	37.097
11.758	37.1144
11.776	37.1307
11.794	37.1605
11.812	37.212
11.83	37.2872
11.848	37.3849
11.866	37.5014
11.884	37.6308
11.902	37.7636
11.92	37.8852
11.938	37.9788
11.956	38.0291
11.974	38.0282
11.992	37.979
12.01	37.8923
12.028	37.7841
12.046	37.6729
12.064	37.572
12.082	37.4888
12.1	37.4263
12.118	37.383
12.136	37.3551
12.154	37.337
12.172	37.3236
12.19	37.31
12.208	37.2911
12.226	37.2625
12.244	37.2218
12.262	37.1685
12.28	37.1054
12.298	37.039
12.316	36.9773
12.334	36.9293
12.352	36.904
12.37	36.9079
12.388	36.943
12.406	37.0055
12.424	37.0862
12.442	37.1721
12.46	37.2483
12.478	37.3015
12.496	37.3234
12.514	37.3112
12.532	37.2672
12.55	37.1981
12.568	37.1132
12.586	37.0227
12.604	36.9362
12.622	36.8614
12.64	36.8037
12.658	36.7645
12.676	36.7418
12.694	36.7311
12.712	36.7255
12.73	36.7181
12.748	36.7033
12.766	36.6792
12.784	36.6473
12.802	36.6127
12.82	36.5819
12.838	36.5611
12.856	36.5541
12.874	36.5607
12.892	36.5776
12.91	36.5988
12.928	36.6176
12.946	36.6284
12.964	36.6282
12.982	36.6169
13	36.5963
13.018	36.5697
13.036	36.5402
13.054	36.5103
13.072	36.481
13.09	36.4522
13.108	36.4225
13.126	36.391
13.144	36.3567
13.162	36.319
13.18	36.278
13.198	36.2338
13.216	36.1874
13.234	36.14
13.252	36.0935
13.27	36.05
13.288	36.0115
13.306	35.9797
13.324	35.9556
13.342	35.9389
13.36	35.9285
13.378	35.9222
13.396	35.9174
13.414	35.9114
13.432	35.9018
13.45	35.8875
13.468	35.8678
13.486	35.8433
13.504	35.8154
13.522	35.7856
13.54	35.7555
13.558	35.726
13.576	35.6977
13.594	35.6703
13.612	35.6429
13.63	35.6143
13.648	35.5831
13.666	35.5484
13.684	35.5099
13.702	35.4685
13.72	35.4258
13.738	35.3844
13.756	35.3473
13.774	35.3172
13.792	35.2954
13.81	35.2816
13.828	35.2739
13.846	35.2693
13.864	35.2638
13.882	35.2543
13.9	35.2385
13.918	35.2161
13.936	35.189
13.954	35.1601
13.972	35.1334
13.99	35.1123
14.008	35.0992
14.026	35.0941
14.044	35.0945
14.062	35.096
14.08	35.0932
14.098	35.0813
14.116	35.0569
14.134	35.0189
14.152	34.969
14.17	34.9111
14.188	34.8508
14.206	34.7941
14.224	34.7468
14.242	34.7127
14.26	34.6938
14.278	34.6893
14.296	34.6965
14.314	34.7116
14.332	34.7302
14.35	34.7479
14.368	34.7617
14.386	34.7698
14.404	34.7717
14.422	34.7684
14.44	34.7616
14.458	34.753
14.476	34.7437
14.494	34.7343
14.512	34.7245
14.53	34.713
14.548	34.6982
14.566	34.6783
14.584	34.6523
14.602	34.6196
14.62	34.5807
14.638	34.5368
14.656	34.4901
14.674	34.4428
14.692	34.3969
14.71	34.354
14.728	34.3153
14.746	34.281
14.764	34.2505
14.782	34.2227
14.8	34.1962
14.818	34.1697
14.836	34.1424
14.854	34.1136
14.872	34.0841
14.89	34.0551
14.908	34.0284
14.926	34.0059
14.944	33.9896
14.962	33.9811
14.98	33.9808
14.998	33.9884
15.016	34.0024
15.034	34.0205
15.052	34.0394
15.07	34.0561
15.088	34.0679
15.106	34.0728
15.124	34.0691
15.142	34.0566
15.16	34.0361
15.178	34.0087
15.196	33.9763
15.214	33.941
15.232	33.9046
15.25	33.8682
15.268	33.8324
15.286	33.7978
15.304	33.7641
15.322	33.7309
15.34	33.6978
15.358	33.6643
15.376	33.6306
15.394	33.5971
15.412	33.5635
15.43	33.5299
15.448	33.4958
15.466	33.4606
15.484	33.4234
15.502	33.3837
15.52	33.3406
15.538	33.2935
15.556	33.2426
15.574	33.1883
15.592	33.1314
15.61	33.0733
15.628	33.0151
15.646	32.9582
15.664	32.9035
15.682	32.8518
15.7	32.8039
15.718	32.7602
15.736	32.7211
15.754	32.6867
15.772	32.6574
15.79	32.6335
15.808	32.6155
15.826	32.6037
15.844	32.5984
15.862	32.5994
15.88	32.6062
15.898	32.6182
15.916	32.6345
15.934	32.6535
15.952	32.6744
15.97	32.6961
15.988	32.7179
16.006	32.7402
16.024	32.7631
16.042	32.7882
16.06	32.8168
16.078	32.8501
16.096	32.8895
16.114	32.9354
16.132	32.9873
16.15	33.0444
16.168	33.1035
16.186	33.1618
16.204	33.2163
16.222	33.2618
16.24	33.2954
16.258	33.3146
16.276	33.3164
16.294	33.3006
16.312	33.267
16.33	33.2171
16.348	33.1537
16.366	33.0792
16.384	32.9975
16.402	32.9123
16.42	32.826
16.438	32.7419
16.456	32.6617
16.474	32.5863
16.492	32.5167
16.51	32.4527
16.528	32.3941
16.546	32.3407
16.564	32.292
16.582	32.248
16.6	32.2086
16.618	32.1742
16.636	32.145
16.654	32.1215
16.672	32.1037
16.69	32.0918
16.708	32.0851
16.726	32.0829
16.744	32.0843
16.762	32.0869
16.78	32.0894
16.798	32.0898
16.816	32.0856
16.834	32.0759
16.852	32.059
16.87	32.0344
16.888	32.002
16.906	31.9625
16.924	31.9178
16.942	31.8691
16.96	31.82
16.978	31.772
16.996	31.728
17.014	31.6899
17.032	31.6585
17.05	31.6348
17.068	31.6178
17.086	31.6069
17.104	31.5988
17.122	31.5919
17.14	31.5823
17.158	31.5672
17.176	31.5447
17.194	31.5118
17.212	31.4682
17.23	31.4131
17.248	31.3484
17.266	31.2747
17.284	31.1961
17.302	31.1151
17.32	31.0354
17.338	30.9617
17.356	30.8959
17.374	30.8426
17.392	30.8026
17.41	30.7781
17.428	30.7688
17.446	30.7748
17.464	30.7939
17.482	30.8247
17.5	30.8647
17.518	30.9105
17.536	30.9604
17.554	31.0105
17.572	31.0598
17.59	31.1052
17.608	31.1457
17.626	31.1798
17.644	31.2066
17.662	31.226
17.68	31.2371
17.698	31.2402
17.716	31.2353
17.734	31.223
17.752	31.2034
17.77	31.1774
17.788	31.1453
17.806	31.1083
17.824	31.0671
17.842	31.0226
17.86	30.9761
17.878	30.9283
17.896	30.8809
17.914	30.8341
17.932	30.7898
17.95	30.7481
17.968	30.7102
17.986	30.676
18.004	30.6462
18.022	30.6203
18.04	30.5985
18.058	30.5798
18.076	30.5641
18.094	30.55
18.112	30.5373
18.13	30.5244
18.148	30.5109
18.166	30.4958
18.184	30.4785
18.202	30.4586
18.22	30.4359
18.238	30.41
18.256	30.3815
18.274	30.3503
18.292	30.3173
18.31	30.2827
18.328	30.2479
18.346	30.2133
18.364	30.1802
18.382	30.1492
18.4	30.1212
18.418	30.0966
18.436	30.0763
18.454	30.06
18.472	30.0481
18.49	30.04
18.508	30.0358
18.526	30.034
18.544	30.0346
18.562	30.0355
18.58	30.0366
18.598	30.0353
18.616	30.0316
18.634	30.0234
18.652	30.0105
18.67	29.9915
18.688	29.9666
18.706	29.9349
18.724	29.8969
18.742	29.8528
18.76	29.8033
18.778	29.7493
18.796	29.6919
18.814	29.6324
18.832	29.5721
18.85	29.5126
18.868	29.455
18.886	29.4007
18.904	29.3504
18.922	29.3051
18.94	29.2651
18.958	29.231
18.976	29.2027
18.994	29.1803
19.012	29.1635
19.03	29.1522
19.048	29.1459
19.066	29.1444
19.084	29.1473
19.102	29.1542
19.12	29.1647
19.138	29.1783
19.156	29.1945
19.174	29.2129
19.192	29.2327
19.21	29.2534
19.228	29.2742
19.246	29.2939
19.264	29.3117
19.282	29.3261
19.3	29.3366
19.318	29.3414
19.336	29.3405
19.354	29.3321
19.372	29.3165
19.39	29.2929
19.408	29.2615
19.426	29.2226
19.444	29.1762
19.462	29.1238
19.48	29.0652
19.498	29.0027
19.516	28.9362
19.534	28.8682
19.552	28.799
19.57	28.7307
19.588	28.6643
19.606	28.6007
19.624	28.5414
19.642	28.4866
19.66	28.4377
19.678	28.3946
19.696	28.3583
19.714	28.3285
19.732	28.3057
19.75	28.29
19.768	28.2813
19.786	28.2798
19.804	28.2851
19.822	28.2973
19.84	28.3158
19.858	28.3406
19.876	28.371
19.894	28.4061
19.912	28.4457
19.93	28.488
19.948	28.5331
19.966	28.5781
19.984	28.6235
20.002	28.6661
20.02	28.7055
20.038	28.7398
20.056	28.7667
20.074	28.786
20.092	28.7947
20.11	28.7931
20.128	28.7792
20.146	28.753
20.164	28.7143
20.182	28.6626
20.2	28.599
20.218	28.5239
20.236	28.4381
20.254	28.344
20.272	28.2414
20.29	28.1344
20.308	28.0222
20.326	27.9089
20.344	27.7954
20.362	27.6836
20.38	27.5768
20.398	27.4745
20.416	27.3809
20.434	27.2954
20.452	27.2204
20.47	27.1565
20.488	27.1041
20.506	27.0642
20.524	27.0366
20.542	27.0216
20.56	27.0191
20.578	27.0281
20.596	27.0488
20.614	27.0798
20.632	27.1199
20.65	27.169
20.668	27.2241
20.686	27.2857
20.704	27.3507
20.722	27.4183
20.74	27.4871
20.758	27.5541
20.776	27.6198
20.794	27.6803
20.812	27.7358
20.83	27.7843
20.848	27.8238
20.866	27.8547
20.884	27.8744
20.902	27.8832
20.92	27.8807
20.938	27.8663
20.956	27.8407
20.974	27.8043
20.992	27.7569
21.01	27.7015
21.028	27.6376
21.046	27.5674
21.064	27.4942
21.082	27.4168
21.1	27.3406
21.118	27.2654
21.136	27.1934
21.154	27.1285
21.172	27.0695
21.19	27.0203
21.208	26.981
21.226	26.9523
21.244	26.9357
21.262	26.9308
21.28	26.9368
21.298	26.9547
21.316	26.9823
21.334	27.0178
21.352	27.062
21.37	27.11
21.388	27.1623
21.406	27.2164
21.424	27.268
21.442	27.3185
21.46	27.3631
21.478	27.4009
21.496	27.4313
21.514	27.4507
21.532	27.46
21.55	27.4578
21.568	27.4426
21.586	27.4155
21.604	27.3763
21.622	27.3247
21.64	27.2624
21.658	27.1906
21.676	27.109
21.694	27.0212
21.712	26.9272
21.73	26.8284
21.748	26.7286
21.766	26.6263
21.784	26.525
21.802	26.4263
21.82	26.3297
21.838	26.2386
21.856	26.1528
21.874	26.0729
21.892	26.0005
21.91	25.9351
21.928	25.8772
21.946	25.8275
21.964	25.7854
21.982	25.7504
22	25.7227
22.018	25.7014
22.036	25.6855
22.054	25.6755
22.072	25.6694
22.09	25.6666
22.108	25.6674
22.126	25.6693
22.144	25.6727
22.162	25.677
22.18	25.6803
22.198	25.6833
22.216	25.685
22.234	25.6844
22.252	25.6819
22.27	25.6768
22.288	25.6689
22.306	25.6582
22.324	25.6445
22.342	25.6276
22.36	25.6077
22.378	25.5855
22.396	25.5604
22.414	25.5333
22.432	25.5049
22.45	25.4748
22.468	25.444
22.486	25.413
22.504	25.3814
22.522	25.3504
22.54	25.32
22.558	25.2902
22.576	25.2617
22.594	25.2345
22.612	25.2085
22.63	25.1842
22.648	25.1615
22.666	25.1405
22.684	25.1214
22.702	25.1042
22.72	25.089
22.738	25.076
22.756	25.0653
22.774	25.0568
22.792	25.0504
22.81	25.0461
22.828	25.044
22.846	25.0439
22.864	25.0458
22.882	25.0503
22.9	25.0573
22.918	25.0668
22.936	25.0793
22.954	25.0948
22.972	25.1133
22.99	25.1347
23.008	25.1593
23.026	25.1867
23.044	25.2164
23.062	25.2487
23.08	25.2831
23.098	25.3183
23.116	25.3551
23.134	25.3926
23.152	25.4287
23.17	25.4644
23.188	25.4986
23.206	25.5294
23.224	25.5575
23.242	25.582
23.26	25.6007
23.278	25.6147
23.296	25.6228
23.314	25.6228
23.332	25.6149
23.35	25.5992
23.368	25.5745
23.386	25.5407
23.404	25.4984
23.422	25.4487
23.44	25.3905
23.458	25.3253
23.476	25.2558
23.494	25.1812
23.512	25.1023
23.53	25.0227
23.548	24.9416
23.566	24.8597
23.584	24.782
23.602	24.7087
23.62	24.6393
23.638	24.5793
23.656	24.5303
23.674	24.4905
23.692	24.4647
23.71	24.4552
23.728	24.4601
23.746	24.4818
23.764	24.5223
23.782	24.5805
23.8	24.6566
23.818	24.751
23.836	24.8644
23.854	24.9946
23.872	25.1394
23.89	25.3014
23.908	25.477
23.926	25.6607
23.944	25.8554
23.962	26.0584
23.98	26.2617
23.998	26.4654
24.016	26.6704
24.034	26.8675
24.052	27.0528
24.07	27.2309
24.088	27.3931
24.106	27.5328
24.124	27.6553
24.142	27.7548
24.16	27.8245
24.178	27.8673
24.196	27.8817
24.214	27.8629
24.232	27.8106
24.25	27.7261
24.268	27.6085
24.286	27.4565
24.304	27.2707
24.322	27.0541
24.34	26.8088
24.358	26.5319
24.376	26.2285
24.394	25.905
24.412	25.5569
24.43	25.1883
24.448	24.8087
24.466	24.4189
24.484	24.016
24.502	23.6107
24.52	23.2094
24.538	22.805
24.556	22.4066
24.574	22.0247
24.592	21.6547
24.61	21.2988
24.628	20.9662
24.646	20.6587
24.664	20.3725
24.682	20.1154
24.7	19.8936
24.718	19.7021
24.736	19.5446
24.754	19.4266
24.772	19.3469
24.79	19.305
24.808	19.3045
24.826	19.3478
24.844	19.4329
24.862	19.5601
24.88	19.7298
24.898	19.9426
24.916	20.1972
24.934	20.4918
24.952	20.8271
24.97	21.204
24.988	21.6165
25.006	22.0597
25.024	22.5377
25.042	23.0468
25.06	23.5801
25.078	24.1363
25.096	24.7184
25.114	25.3198
25.132	25.9349
25.15	26.569
25.168	27.2175
25.186	27.8717
25.204	28.531
25.222	29.1996
25.24	29.8665
25.258	30.5218
25.276	31.1725
25.294	31.8147
25.312	32.4382
25.33	33.0391
25.348	33.6237
25.366	34.1849
25.384	34.7155
25.402	35.219
25.42	35.6948
25.438	36.1369
25.456	36.5413
25.474	36.9124
25.492	37.2473
25.51	37.5423
25.528	37.7967
25.546	38.0123
25.564	38.1893
25.582	38.3274
25.6	38.4254
25.618	38.4856
25.636	38.5113
25.654	38.502
25.672	38.4546
25.69	38.3779
25.708	38.2808
25.726	38.159
25.744	38.0127
25.762	37.8534
25.78	37.6908
25.798	37.5173
25.816	37.3366
25.834	37.1566
25.852	36.9816
25.87	36.8065
25.888	36.6344
25.906	36.469
25.924	36.3125
25.942	36.1627
25.96	36.0167
25.978	35.8716
25.996	35.7304
26.014	35.5915
26.032	35.4502
26.05	35.3029
26.068	35.153
26.086	34.9988
26.104	34.8376
26.122	34.6671
26.14	34.4883
26.158	34.3033
26.176	34.1143
26.194	33.9169
26.212	33.7102
26.23	33.5075
26.248	33.3222
26.266	33.1468
26.284	32.9807
26.302	32.8402
26.32	32.7406
26.338	32.6725
26.356	32.6369
26.374	32.6448
26.392	32.7056
26.41	32.8132
26.428	32.9678
26.446	33.1727
26.464	33.4316
26.482	33.7455
26.5	34.1086
26.518	34.5148
26.536	34.9625
26.554	35.4612
26.572	35.9971
26.59	36.5542
26.608	37.1272
26.626	37.7306
26.644	38.348
26.662	38.9605
26.68	39.565
26.698	40.178
26.716	40.777
26.734	41.3373
26.752	41.8507
26.77	42.3342
26.788	42.7761
26.806	43.1634
26.824	43.498
26.842	43.7918
26.86	44.0224
26.878	44.1665
26.896	44.2236
26.914	44.2134
26.932	44.1068
26.95	43.8732
26.968	43.4325
26.986	42.76
27.004	42.0498
27.022	41.5006
27.028	41.4027