File: Bakgrunnsmateriale/MATLAB/FTIR/ftir_data/subBb/Mapping_36/C-4040-8_t22.asc
PE IR       SPECTRUM    SPECTRUM    ASCII       PEDS        1.60
  -1
C-AD22~1.ASC
17/05/02
12:41:22.00
17/05/02
12:41:48.00
tln
$C-4040-8_t0022$<tbV0>[-2.5,2.0,8.0,0.0,22,1,0]
27.028
64

2002,4.07
MIRTGS : RIGHTBACK : INTERNAL 2
MIR : ON : INTERNAL 2
OPTKBR

0.200000
8
8.000000
FILLER
RATIO
SPECTRUM
UNLOCKED 256

DOUBLE
64
COMBINED
1
0
0

0.002000
RATIO

1
0
TRUE
51149
0
LEFT NOT FITTED RIGHT NOT FITTED 0
NONE
NONE
15600
12
4.427000
51148
TRUE
1 0 8 72 0 0 0 0

15798

#HDR
-1
-1
#GR
µM
%T
2.38419e-05
0.0
1.282000
0.002000
12874
8
83.2162
47.4951
#DATA
1.282000	 73.2663
1.300000	 68.8279
1.318000	 64.379
1.336000	 65.6717
1.354000	 66.2856
1.372000	 63.6269
1.390000	 63.3383
1.408000	 64.9293
1.426000	 64.7228
1.444000	 64.8469
1.462000	 64.8653
1.480000	 64.6656
1.498000	 63.1724
1.516000	 64.7079
1.534000	 65.5933
1.552000	 66.0389
1.570000	 65.6596
1.588000	 65.0411
1.606000	 65.1546
1.624000	 65.3854
1.642000	 64.7499
1.660000	 64.7115
1.678000	 66.0635
1.696000	 65.0876
1.714000	 64.458
1.732000	 64.5553
1.750000	 64.7833
1.768000	 64.3858
1.786000	 65.1982
1.804000	 64.6493
1.822000	 65.2282
1.840000	 65.0608
1.858000	 64.7095
1.876000	 65.3195
1.894000	 60.573
1.912000	 65.4225
1.930000	 64.6721
1.948000	 65.2414
1.966000	 65.0427
1.984000	 64.7679
2.002000	 65.132
2.020000	 64.6555
2.038000	 64.7748
2.056000	 64.5669
2.074000	 64.7748
2.092000	 64.9526
2.110000	 65.0331
2.128000	 65.2942
2.146000	 65.3795
2.164000	 65.2746
2.182000	 65.0137
2.200000	 65.0857
2.218000	 64.7745
2.236000	 64.9207
2.254000	 65.0554
2.272000	 65.1258
2.290000	 65.3012
2.308000	 64.8784
2.326000	 65.0758
2.344000	 64.7544
2.362000	 64.9637
2.380000	 64.9244
2.398000	 65.2004
2.416000	 64.9952
2.434000	 65.466
2.452000	 64.8002
2.470000	 65.0694
2.488000	 65.2505
2.506000	 65.027
2.524000	 65.2476
2.542000	 65.4119
2.560000	 65.1811
2.578000	 65.2075
2.596000	 65.2879
2.614000	 65.46
2.632000	 65.0609
2.650000	 65.2274
2.668000	 65.5112
2.686000	 65.1876
2.704000	 65.2865
2.722000	 65.217
2.740000	 65.354
2.758000	 65.2808
2.776000	 65.2757
2.794000	 65.3275
2.812000	 65.2416
2.830000	 65.1724
2.848000	 65.1147
2.866000	 65.36
2.884000	 65.1851
2.902000	 65.4135
2.920000	 65.1102
2.938000	 65.1675
2.956000	 65.2671
2.974000	 65.044
2.992000	 65.2517
3.010000	 65.2468
3.028000	 65.1845
3.046000	 65.1414
3.064000	 65.2454
3.082000	 65.2716
3.100000	 65.1452
3.118000	 65.236
3.136000	 65.0953
3.154000	 65.2793
3.172000	 65.1693
3.190000	 65.3137
3.208000	 65.2249
3.226000	 65.3948
3.244000	 65.3657
3.262000	 65.1981
3.280000	 65.109
3.298000	 64.9768
3.316000	 65.2305
3.334000	 65.1361
3.352000	 65.1934
3.370000	 65.1425
3.388000	 65.0217
3.406000	 65.1303
3.424000	 64.9041
3.442000	 64.9925
3.460000	 65.0894
3.478000	 65.1159
3.496000	 65.1174
3.514000	 65.0566
3.532000	 65.3074
3.550000	 65.1834
3.568000	 65.264
3.586000	 65.1903
3.604000	 65.223
3.622000	 65.2654
3.640000	 65.2613
3.658000	 65.3515
3.676000	 65.3201
3.694000	 65.3199
3.712000	 65.32
3.730000	 65.2622
3.748000	 65.1709
3.766000	 65.2283
3.784000	 65.2266
3.802000	 65.4128
3.820000	 65.2467
3.838000	 65.3832
3.856000	 65.2914
3.874000	 65.3827
3.892000	 65.3632
3.910000	 65.2433
3.928000	 65.1425
3.946000	 65.338
3.964000	 65.2751
3.982000	 65.2226
4.000000	 65.307
4.018000	 65.3318
4.036000	 65.3182
4.054000	 65.3131
4.072000	 65.3395
4.090000	 65.4305
4.108000	 65.2905
4.125999	 65.2895
4.144000	 65.3973
4.162000	 65.2703
4.180000	 65.3046
4.198000	 65.3049
4.216000	 65.3975
4.234000	 65.3126
4.252000	 65.3818
4.270000	 65.4411
4.288000	 65.3404
4.306000	 65.382
4.324000	 65.3571
4.342000	 65.3498
4.359999	 65.3323
4.378000	 65.3117
4.396000	 65.2954
4.414000	 65.3398
4.432000	 65.3065
4.450000	 65.3848
4.468000	 65.3996
4.486000	 65.3655
4.504000	 65.3456
4.522000	 65.2772
4.540000	 65.3072
4.558000	 65.2509
4.576000	 65.4784
4.594000	 65.4071
4.612000	 65.2686
4.630000	 65.3495
4.648000	 65.3216
4.666000	 65.2182
4.684000	 65.2645
4.702000	 65.2853
4.720000	 65.3295
4.738000	 65.3898
4.756000	 65.2317
4.774000	 65.2702
4.792000	 65.2581
4.810000	 65.3004
4.828000	 65.3735
4.846000	 65.3487
4.864000	 65.3766
4.882000	 65.37
4.900000	 65.2987
4.918000	 65.2961
4.936000	 65.375
4.954000	 65.2936
4.972000	 65.2483
4.990000	 65.2516
5.008000	 65.3766
5.026000	 65.3363
5.044000	 65.33
5.062000	 65.3946
5.080000	 65.3334
5.098000	 65.2856
5.116000	 65.3251
5.134000	 65.2823
5.152000	 65.3154
5.170000	 65.3827
5.188000	 65.344
5.206000	 65.2443
5.224000	 65.2792
5.242000	 65.2795
5.260000	 65.2463
5.278000	 65.3214
5.296000	 65.2974
5.314000	 65.3063
5.332000	 65.33
5.350000	 65.2951
5.368000	 65.2886
5.386000	 65.3113
5.404000	 65.3043
5.422000	 65.2783
5.440000	 65.2978
5.458000	 65.3247
5.476000	 65.2388
5.494000	 65.1519
5.512000	 65.1918
5.530000	 65.2534
5.548000	 65.2413
5.566000	 65.2437
5.584000	 65.291
5.602000	 65.3105
5.620000	 65.3786
5.638000	 65.3375
5.656000	 65.3082
5.674000	 65.293
5.692000	 65.2846
5.710000	 65.1912
5.728000	 65.1732
5.746000	 65.1211
5.764000	 65.0671
5.782000	 65.0278
5.800000	 65.0537
5.818000	 65.1596
5.836000	 65.198
5.854000	 65.2039
5.872000	 65.1736
5.890000	 65.2507
5.908000	 65.2059
5.926000	 65.2023
5.944000	 65.1896
5.962000	 65.1372
5.980000	 65.2241
5.998000	 65.2877
6.016000	 65.209
6.034000	 65.2157
6.052000	 65.3089
6.070000	 65.3622
6.088000	 65.2896
6.106000	 65.2143
6.124000	 65.1956
6.142000	 65.1436
6.160000	 65.162
6.178000	 65.2349
6.196000	 65.1816
6.214000	 65.0984
6.232000	 65.1281
6.250000	 65.1868
6.268000	 65.1519
6.286000	 65.1656
6.304000	 65.2244
6.322000	 65.181
6.340000	 65.0605
6.358000	 65.0191
6.376000	 65.0734
6.394000	 65.0372
6.412000	 64.978
6.430000	 65.0138
6.448000	 65.0409
6.466000	 65.0586
6.484000	 65.0667
6.502000	 65.0582
6.520000	 65.0886
6.538000	 65.106
6.556000	 65.0914
6.574000	 65.095
6.592000	 65.1148
6.610000	 65.1694
6.628000	 65.2619
6.646000	 65.3023
6.664000	 65.3222
6.682000	 65.3428
6.700000	 65.2583
6.718000	 65.1105
6.736000	 65.0464
6.754000	 65.0612
6.772000	 65.0327
6.790000	 65.0083
6.808000	 65.0292
6.826000	 65.0194
6.844000	 65.0362
6.862000	 65.0422
6.880000	 64.984
6.898000	 64.997
6.916000	 65.0631
6.934000	 65.1042
6.952000	 65.1564
6.970000	 65.2199
6.988000	 65.273
7.006000	 65.2707
7.024000	 65.2034
7.042000	 65.1313
7.060000	 65.0806
7.078000	 65.0516
7.096000	 65.0331
7.114000	 65.0111
7.132000	 65.0242
7.150000	 65.0705
7.168000	 65.0899
7.186000	 65.0847
7.204000	 65.078
7.222000	 65.0448
7.240000	 64.9808
7.258000	 64.9444
7.276000	 64.9774
7.294000	 65.0393
7.312000	 65.0792
7.330000	 65.1112
7.348000	 65.1335
7.366000	 65.0955
7.384000	 65.0232
7.402000	 65.019
7.420000	 65.1007
7.438000	 65.1697
7.456000	 65.1471
7.474000	 65.0696
7.492000	 65.0161
7.510000	 64.998
7.528000	 64.9853
7.546000	 64.9716
7.564000	 64.9687
7.582000	 64.9979
7.600000	 65.0595
7.618000	 65.0972
7.636000	 65.0756
7.654000	 65.0511
7.672000	 65.0853
7.690000	 65.1522
7.708000	 65.1887
7.726000	 65.1724
7.744000	 65.1227
7.762000	 65.0661
7.780000	 65.0222
7.798000	 64.9978
7.816000	 64.98
7.834000	 64.9551
7.852000	 64.934
7.870000	 64.9326
7.888000	 64.9412
7.906000	 64.9487
7.924000	 64.961
7.942000	 64.9751
7.960000	 64.9765
7.978000	 64.9664
7.996000	 64.9635
8.013999	 64.9809
8.032000	 65.0112
8.050000	 65.0217
8.068000	 64.9864
8.086000	 64.9213
8.103999	 64.8632
8.122000	 64.8384
8.140000	 64.8623
8.158000	 64.9305
8.176000	 64.9952
8.193999	 65.0006
8.212000	 64.9545
8.230000	 64.9191
8.248000	 64.9327
8.266000	 64.9725
8.283999	 64.9912
8.302000	 64.9653
8.320000	 64.9085
8.338000	 64.8584
8.356000	 64.8541
8.374000	 64.9029
8.391999	 64.9636
8.410000	 64.9847
8.428000	 64.9613
8.446000	 64.9406
8.464000	 64.9644
8.481999	 65.0251
8.500000	 65.0873
8.518000	 65.128
8.536000	 65.1434
8.554000	 65.1308
8.571999	 65.084
8.590000	 65.0049
8.608000	 64.9152
8.626000	 64.8436
8.644000	 64.8063
8.661999	 64.8018
8.680000	 64.8175
8.698000	 64.8371
8.716000	 64.8534
8.734000	 64.8716
8.751999	 64.8926
8.770000	 64.8995
8.788000	 64.8732
8.806000	 64.8196
8.824000	 64.7687
8.842000	 64.7434
8.859999	 64.7414
8.878000	 64.7479
8.896000	 64.7522
8.914000	 64.752
8.932000	 64.7533
8.949999	 64.7633
8.968000	 64.7791
8.986000	 64.7872
9.004000	 64.7815
9.022000	 64.7767
9.039999	 64.7955
9.058000	 64.8406
9.076000	 64.889
9.094000	 64.9186
9.112000	 64.93
9.129999	 64.9393
9.148000	 64.9533
9.166000	 64.9622
9.184000	 64.9543
9.202000	 64.9329
9.219999	 64.9115
9.238000	 64.8947
9.256000	 64.8725
9.274000	 64.8377
9.292000	 64.8049
9.310000	 64.8002
9.327999	 64.8361
9.346000	 64.8986
9.364000	 64.9565
9.382000	 64.9839
9.400000	 64.9724
9.418000	 64.9288
9.436000	 64.8634
9.454000	 64.7868
9.472000	 64.717
9.490000	 64.6835
9.508000	 64.7151
9.526000	 64.8144
9.544000	 64.9455
9.561999	 65.0509
9.580000	 65.0875
9.598000	 65.0529
9.616000	 64.9784
9.634000	 64.9027
9.652000	 64.8498
9.670000	 64.8273
9.688000	 64.8338
9.706000	 64.8614
9.724000	 64.892
9.742000	 64.902
9.760000	 64.8769
9.778000	 64.8241
9.795999	 64.7665
9.814000	 64.7224
9.832000	 64.693
9.850000	 64.6689
9.868000	 64.6471
9.886000	 64.6388
9.904000	 64.6554
9.922000	 64.6935
9.940000	 64.7339
9.958000	 64.7578
9.976000	 64.7632
9.994000	 64.7629
10.012	64.7701
10.03	64.7871
10.048	64.8041
10.066	64.8088
10.084	64.7971
10.102	64.774
10.12	64.7506
10.138	64.7382
10.156	64.7439
10.174	64.7677
10.192	64.8023
10.21	64.835
10.228	64.8543
10.246	64.8552
10.264	64.8414
10.282	64.8228
10.3	64.8124
10.318	64.8216
10.336	64.8558
10.354	64.9111
10.372	64.9739
10.39	65.0244
10.408	65.0442
10.426	65.0254
10.444	64.9773
10.462	64.9227
10.48	64.8886
10.498	64.8931
10.516	64.9341
10.534	64.9923
10.552	65.0385
10.57	65.0497
10.588	65.0148
10.606	64.9377
10.624	64.8304
10.642	64.7069
10.66	64.5782
10.678	64.4547
10.696	64.3485
10.714	64.2746
10.732	64.2492
10.75	64.2819
10.768	64.371
10.786	64.5013
10.804	64.6456
10.822	64.7756
10.84	64.869
10.858	64.9199
10.876	64.9372
10.894	64.9401
10.912	64.9474
10.93	64.9662
10.948	64.9878
10.966	64.9928
10.984	64.9652
11.002	64.9046
11.02	64.8303
11.038	64.7748
11.056	64.7651
11.074	64.8092
11.092	64.8906
11.11	64.9765
11.128	65.0307
11.146	65.0299
11.164	64.9672
11.182	64.8499
11.2	64.6926
11.218	64.5118
11.236	64.3284
11.254	64.1667
11.272	64.054
11.29	64.0151
11.308	64.0587
11.326	64.1725
11.344	64.326
11.362	64.4769
11.38	64.5886
11.398	64.6444
11.416	64.6498
11.434	64.6276
11.452	64.6067
11.47	64.611
11.488	64.6495
11.506	64.7181
11.524	64.8017
11.542	64.8802
11.56	64.9334
11.578	64.9458
11.596	64.9093
11.614	64.8247
11.632	64.7003
11.65	64.5513
11.668	64.3998
11.686	64.2689
11.704	64.1779
11.722	64.1394
11.74	64.1545
11.758	64.2121
11.776	64.2914
11.794	64.3704
11.812	64.4317
11.83	64.466
11.848	64.4755
11.866	64.4696
11.884	64.4592
11.902	64.4519
11.92	64.4493
11.938	64.4476
11.956	64.4422
11.974	64.4314
11.992	64.4193
12.01	64.4144
12.028	64.4255
12.046	64.457
12.064	64.503
12.082	64.5497
12.1	64.5794
12.118	64.5761
12.136	64.5329
12.154	64.4552
12.172	64.3563
12.19	64.2528
12.208	64.158
12.226	64.0787
12.244	64.0146
12.262	63.961
12.28	63.9127
12.298	63.8675
12.316	63.8265
12.334	63.7942
12.352	63.7763
12.37	63.778
12.388	63.801
12.406	63.8437
12.424	63.902
12.442	63.9702
12.46	64.0434
12.478	64.1183
12.496	64.1937
12.514	64.2696
12.532	64.3454
12.55	64.4197
12.568	64.4897
12.586	64.5511
12.604	64.599
12.622	64.63
12.64	64.6419
12.658	64.6342
12.676	64.6089
12.694	64.5688
12.712	64.5173
12.73	64.4576
12.748	64.3929
12.766	64.3264
12.784	64.2615
12.802	64.2012
12.82	64.1485
12.838	64.1063
12.856	64.0761
12.874	64.0579
12.892	64.0503
12.91	64.0508
12.928	64.056
12.946	64.063
12.964	64.0705
12.982	64.0789
13	64.0892
13.018	64.1031
13.036	64.1221
13.054	64.146
13.072	64.1733
13.09	64.2012
13.108	64.2267
13.126	64.2472
13.144	64.2606
13.162	64.2661
13.18	64.2635
13.198	64.2532
13.216	64.235
13.234	64.2088
13.252	64.1741
13.27	64.1315
13.288	64.0827
13.306	64.0308
13.324	63.9805
13.342	63.9369
13.36	63.9044
13.378	63.8853
13.396	63.8789
13.414	63.882
13.432	63.8895
13.45	63.8956
13.468	63.8952
13.486	63.8856
13.504	63.8663
13.522	63.8396
13.54	63.8096
13.558	63.781
13.576	63.7582
13.594	63.7445
13.612	63.7413
13.63	63.7489
13.648	63.7659
13.666	63.7905
13.684	63.8203
13.702	63.8529
13.72	63.8856
13.738	63.9157
13.756	63.9402
13.774	63.9565
13.792	63.9623
13.81	63.9559
13.828	63.9371
13.846	63.9064
13.864	63.8653
13.882	63.8159
13.9	63.7607
13.918	63.7024
13.936	63.644
13.954	63.5883
13.972	63.5383
13.99	63.4963
14.008	63.4649
14.026	63.4457
14.044	63.4396
14.062	63.4462
14.08	63.464
14.098	63.4905
14.116	63.5224
14.134	63.556
14.152	63.5873
14.17	63.6131
14.188	63.631
14.206	63.6395
14.224	63.6385
14.242	63.6288
14.26	63.612
14.278	63.5902
14.296	63.5657
14.314	63.5411
14.332	63.5187
14.35	63.5002
14.368	63.4874
14.386	63.4805
14.404	63.4791
14.422	63.4814
14.44	63.485
14.458	63.4866
14.476	63.4831
14.494	63.4715
14.512	63.4495
14.53	63.4163
14.548	63.3726
14.566	63.32
14.584	63.2614
14.602	63.2001
14.62	63.1402
14.638	63.0851
14.656	63.0376
14.674	62.9994
14.692	62.9713
14.71	62.953
14.728	62.9437
14.746	62.9416
14.764	62.9449
14.782	62.9517
14.8	62.9603
14.818	62.9695
14.836	62.9784
14.854	62.9859
14.872	62.9916
14.89	62.9953
14.908	62.997
14.926	62.9967
14.944	62.9948
14.962	62.9914
14.98	62.987
14.998	62.9817
15.016	62.9761
15.034	62.9705
15.052	62.9656
15.07	62.9621
15.088	62.9608
15.106	62.9625
15.124	62.9682
15.142	62.9783
15.16	62.9929
15.178	63.0117
15.196	63.0343
15.214	63.0596
15.232	63.0863
15.25	63.1134
15.268	63.1395
15.286	63.1641
15.304	63.1866
15.322	63.2066
15.34	63.224
15.358	63.2385
15.376	63.2498
15.394	63.2575
15.412	63.2611
15.43	63.2602
15.448	63.254
15.466	63.2421
15.484	63.2244
15.502	63.201
15.52	63.1726
15.538	63.1401
15.556	63.1046
15.574	63.0675
15.592	63.0306
15.61	62.9951
15.628	62.9623
15.646	62.933
15.664	62.9077
15.682	62.8865
15.7	62.8692
15.718	62.8555
15.736	62.8448
15.754	62.8366
15.772	62.8308
15.79	62.8274
15.808	62.8269
15.826	62.83
15.844	62.8372
15.862	62.8494
15.88	62.8666
15.898	62.8889
15.916	62.9155
15.934	62.9449
15.952	62.9754
15.97	63.0048
15.988	63.03
16.006	63.0489
16.024	63.0596
16.042	63.0601
16.06	63.0499
16.078	63.0291
16.096	62.9987
16.114	62.961
16.132	62.9183
16.15	62.8732
16.168	62.8294
16.186	62.7893
16.204	62.7554
16.222	62.7298
16.24	62.7134
16.258	62.7066
16.276	62.7089
16.294	62.7191
16.312	62.7359
16.33	62.757
16.348	62.7803
16.366	62.8041
16.384	62.8259
16.402	62.8434
16.42	62.8555
16.438	62.8603
16.456	62.8568
16.474	62.8447
16.492	62.8237
16.51	62.7948
16.528	62.7587
16.546	62.7171
16.564	62.6723
16.582	62.6258
16.6	62.5806
16.618	62.5386
16.636	62.5014
16.654	62.471
16.672	62.4478
16.69	62.4325
16.708	62.4245
16.726	62.423
16.744	62.4269
16.762	62.4341
16.78	62.443
16.798	62.4517
16.816	62.4578
16.834	62.4604
16.852	62.4576
16.87	62.4489
16.888	62.4338
16.906	62.4124
16.924	62.3854
16.942	62.3531
16.96	62.3174
16.978	62.2792
16.996	62.2401
17.014	62.2021
17.032	62.1663
17.05	62.1345
17.068	62.1076
17.086	62.0868
17.104	62.0728
17.122	62.0659
17.14	62.0662
17.158	62.0728
17.176	62.0854
17.194	62.1022
17.212	62.122
17.23	62.1432
17.248	62.1638
17.266	62.183
17.284	62.1987
17.302	62.2106
17.32	62.2178
17.338	62.2204
17.356	62.2183
17.374	62.2122
17.392	62.2028
17.41	62.191
17.428	62.178
17.446	62.1644
17.464	62.1519
17.482	62.1408
17.5	62.1321
17.518	62.1263
17.536	62.1235
17.554	62.1241
17.572	62.1282
17.59	62.1355
17.608	62.1459
17.626	62.1593
17.644	62.1751
17.662	62.1932
17.68	62.2127
17.698	62.2334
17.716	62.2545
17.734	62.2756
17.752	62.2962
17.77	62.3158
17.788	62.334
17.806	62.3501
17.824	62.3639
17.842	62.375
17.86	62.3832
17.878	62.3883
17.896	62.3906
17.914	62.3899
17.932	62.3868
17.95	62.3814
17.968	62.374
17.986	62.3648
18.004	62.3542
18.022	62.3425
18.04	62.3298
18.058	62.3165
18.076	62.3027
18.094	62.2889
18.112	62.2752
18.13	62.2623
18.148	62.2505
18.166	62.2405
18.184	62.233
18.202	62.2282
18.22	62.2271
18.238	62.2299
18.256	62.2369
18.274	62.2482
18.292	62.2636
18.31	62.2829
18.328	62.3049
18.346	62.3293
18.364	62.3544
18.382	62.3792
18.4	62.4019
18.418	62.4211
18.436	62.4357
18.454	62.4439
18.472	62.4449
18.49	62.4372
18.508	62.4205
18.526	62.3941
18.544	62.3578
18.562	62.3121
18.58	62.257
18.598	62.194
18.616	62.1234
18.634	62.0474
18.652	61.9664
18.67	61.883
18.688	61.798
18.706	61.7138
18.724	61.6313
18.742	61.5529
18.76	61.4793
18.778	61.4125
18.796	61.3531
18.814	61.3027
18.832	61.2613
18.85	61.2299
18.868	61.2081
18.886	61.1962
18.904	61.1937
18.922	61.2002
18.94	61.2146
18.958	61.2362
18.976	61.2634
18.994	61.295
19.012	61.3295
19.03	61.3657
19.048	61.4021
19.066	61.4378
19.084	61.4717
19.102	61.5027
19.12	61.5306
19.138	61.5546
19.156	61.5748
19.174	61.5908
19.192	61.6032
19.21	61.6122
19.228	61.6182
19.246	61.6218
19.264	61.6235
19.282	61.6241
19.3	61.6238
19.318	61.6239
19.336	61.6243
19.354	61.626
19.372	61.6289
19.39	61.6338
19.408	61.6406
19.426	61.6495
19.444	61.6605
19.462	61.6731
19.48	61.6874
19.498	61.7025
19.516	61.7184
19.534	61.7341
19.552	61.7492
19.57	61.763
19.588	61.7749
19.606	61.7849
19.624	61.7924
19.642	61.7976
19.66	61.8
19.678	61.8
19.696	61.798
19.714	61.794
19.732	61.7884
19.75	61.7812
19.768	61.7725
19.786	61.7624
19.804	61.7505
19.822	61.7367
19.84	61.7204
19.858	61.7014
19.876	61.6792
19.894	61.6529
19.912	61.6227
19.93	61.5876
19.948	61.5478
19.966	61.5031
19.984	61.4534
20.002	61.3998
20.02	61.3423
20.038	61.282
20.056	61.2197
20.074	61.1559
20.092	61.0927
20.11	61.0298
20.128	60.9693
20.146	60.911
20.164	60.8563
20.182	60.8054
20.2	60.759
20.218	60.7176
20.236	60.6812
20.254	60.6503
20.272	60.6248
20.29	60.6044
20.308	60.5892
20.326	60.5785
20.344	60.5721
20.362	60.5696
20.38	60.5703
20.398	60.5743
20.416	60.5805
20.434	60.589
20.452	60.5986
20.47	60.6092
20.488	60.6201
20.506	60.6305
20.524	60.6405
20.542	60.6487
20.56	60.6555
20.578	60.6599
20.596	60.6619
20.614	60.6612
20.632	60.6574
20.65	60.6506
20.668	60.6409
20.686	60.6282
20.704	60.6128
20.722	60.5948
20.74	60.5744
20.758	60.5525
20.776	60.5289
20.794	60.5048
20.812	60.4801
20.83	60.4556
20.848	60.4321
20.866	60.4096
20.884	60.3889
20.902	60.3701
20.92	60.3536
20.938	60.3398
20.956	60.3286
20.974	60.3204
20.992	60.3151
21.01	60.3127
21.028	60.3132
21.046	60.3166
21.064	60.3226
21.082	60.3312
21.1	60.3421
21.118	60.3554
21.136	60.3707
21.154	60.3876
21.172	60.4063
21.19	60.4257
21.208	60.4461
21.226	60.4665
21.244	60.4858
21.262	60.5045
21.28	60.5204
21.298	60.5336
21.316	60.543
21.334	60.5468
21.352	60.5457
21.37	60.5372
21.388	60.5213
21.406	60.4976
21.424	60.4647
21.442	60.4229
21.46	60.3719
21.478	60.3112
21.496	60.2415
21.514	60.1635
21.532	60.0768
21.55	59.9837
21.568	59.8847
21.586	59.7803
21.604	59.6746
21.622	59.5662
21.64	59.4584
21.658	59.354
21.676	59.2518
21.694	59.1567
21.712	59.0686
21.73	58.9885
21.748	58.9198
21.766	58.8615
21.784	58.8152
21.802	58.7824
21.82	58.7624
21.838	58.7553
21.856	58.7618
21.874	58.7807
21.892	58.8112
21.91	58.8538
21.928	58.9061
21.946	58.9673
21.964	59.0374
21.982	59.113
22	59.1947
22.018	59.2807
22.036	59.368
22.054	59.4579
22.072	59.5476
22.09	59.6355
22.108	59.7224
22.126	59.8055
22.144	59.8847
22.162	59.9597
22.18	60.029
22.198	60.0929
22.216	60.151
22.234	60.2024
22.252	60.2474
22.27	60.2862
22.288	60.3187
22.306	60.3452
22.324	60.3669
22.342	60.3833
22.36	60.3953
22.378	60.4041
22.396	60.4094
22.414	60.412
22.432	60.4129
22.45	60.4118
22.468	60.4094
22.486	60.4062
22.504	60.4021
22.522	60.3969
22.54	60.3911
22.558	60.3843
22.576	60.3753
22.594	60.3646
22.612	60.3514
22.63	60.3338
22.648	60.3125
22.666	60.2864
22.684	60.2534
22.702	60.2145
22.72	60.1685
22.738	60.1139
22.756	60.0513
22.774	59.9807
22.792	59.9016
22.81	59.8141
22.828	59.7198
22.846	59.6188
22.864	59.511
22.882	59.3991
22.9	59.2833
22.918	59.1636
22.936	59.0438
22.954	58.9237
22.972	58.8039
22.99	58.6885
23.008	58.5771
23.026	58.4702
23.044	58.3717
23.062	58.2811
23.08	58.1988
23.098	58.127
23.116	58.0656
23.134	58.0145
23.152	57.9744
23.17	57.9456
23.188	57.9272
23.206	57.9184
23.224	57.9198
23.242	57.9302
23.26	57.9473
23.278	57.9721
23.296	58.0032
23.314	58.0375
23.332	58.0762
23.35	58.1179
23.368	58.1595
23.386	58.2017
23.404	58.2438
23.422	58.283
23.44	58.3199
23.458	58.3541
23.476	58.3835
23.494	58.4081
23.512	58.428
23.53	58.4422
23.548	58.4506
23.566	58.4533
23.584	58.4494
23.602	58.439
23.62	58.422
23.638	58.3978
23.656	58.3661
23.674	58.3272
23.692	58.2803
23.71	58.2249
23.728	58.1615
23.746	58.0893
23.764	58.0081
23.782	57.9184
23.8	57.8192
23.818	57.7099
23.836	57.591
23.854	57.4621
23.872	57.3227
23.89	57.1728
23.908	57.0129
23.926	56.8434
23.944	56.6634
23.962	56.474
23.98	56.2775
23.998	56.0734
24.016	55.8617
24.034	55.6466
24.052	55.4291
24.07	55.2074
24.088	54.9873
24.106	54.7728
24.124	54.5598
24.142	54.3541
24.16	54.1623
24.178	53.9801
24.196	53.8112
24.214	53.6631
24.232	53.5343
24.25	53.4249
24.268	53.3416
24.286	53.2872
24.304	53.2585
24.322	53.2595
24.34	53.2937
24.358	53.3598
24.376	53.4567
24.394	53.5842
24.412	53.7444
24.43	53.9344
24.448	54.1492
24.466	54.3893
24.484	54.6557
24.502	54.9397
24.52	55.2362
24.538	55.5514
24.556	55.8762
24.574	56.2004
24.592	56.5295
24.61	56.8598
24.628	57.1797
24.646	57.4868
24.664	57.7858
24.682	58.0673
24.7	58.3239
24.718	58.5615
24.736	58.7756
24.754	58.9596
24.772	59.1135
24.79	59.2391
24.808	59.3343
24.826	59.3971
24.844	59.4278
24.862	59.43
24.88	59.4065
24.898	59.3542
24.916	59.2763
24.934	59.1793
24.952	59.0645
24.97	58.9286
24.988	58.7795
25.006	58.6247
25.024	58.4592
25.042	58.2862
25.06	58.1127
25.078	57.9405
25.096	57.7664
25.114	57.5946
25.132	57.4288
25.15	57.2678
25.168	57.1111
25.186	56.9591
25.204	56.8127
25.222	56.6716
25.24	56.534
25.258	56.3983
25.276	56.267
25.294	56.1376
25.312	56.006
25.33	55.8709
25.348	55.7351
25.366	55.5942
25.384	55.4434
25.402	55.2838
25.42	55.1162
25.438	54.939
25.456	54.7508
25.474	54.5512
25.492	54.3432
25.51	54.1303
25.528	53.9112
25.546	53.6855
25.564	53.4581
25.582	53.233
25.6	53.0055
25.618	52.7793
25.636	52.561
25.654	52.3536
25.672	52.1528
25.69	51.9623
25.708	51.7862
25.726	51.6234
25.744	51.4731
25.762	51.3386
25.78	51.2223
25.798	51.1198
25.816	51.0351
25.834	50.9746
25.852	50.9404
25.87	50.9273
25.888	50.9419
25.906	50.9917
25.924	51.0743
25.942	51.1875
25.96	51.3409
25.978	51.5437
25.996	51.791
26.014	52.083
26.032	52.4257
26.05	52.8242
26.068	53.2772
26.086	53.7813
26.104	54.3335
26.122	54.9349
26.14	55.5901
26.158	56.2874
26.176	57.0141
26.194	57.7737
26.212	58.5726
26.23	59.389
26.248	60.2013
26.266	61.0216
26.284	61.8505
26.302	62.662
26.32	63.4321
26.338	64.1784
26.356	64.8962
26.374	65.5629
26.392	66.1596
26.41	66.704
26.428	67.1888
26.446	67.5972
26.464	67.916
26.482	68.1543
26.5	68.3133
26.518	68.3916
26.536	68.3871
26.554	68.2992
26.572	68.1329
26.59	67.8937
26.608	67.5838
26.626	67.1983
26.644	66.7433
26.662	66.2257
26.68	65.6459
26.698	64.998
26.716	64.2925
26.734	63.5406
26.752	62.746
26.77	61.9012
26.788	61.0126
26.806	60.0872
26.824	59.1225
26.842	58.1116
26.86	57.0717
26.878	56.0205
26.896	54.9573
26.914	53.8669
26.932	52.7756
26.95	51.7108
26.968	50.6339
26.986	49.4925
27.004	48.4433
27.022	47.6493
27.028	47.4951