File: Bakgrunnsmateriale/MATLAB/FTIR/ftir_data/subBb/Mapping_36/C-4040-8_t30.asc
PE IR       SPECTRUM    SPECTRUM    ASCII       PEDS        1.60
  -1
C-A13A~1.ASC
17/05/02
13:25:23.00
17/05/02
13:25:50.00
tln
$C-4040-8_t0030$<tbV0>[-12.5,7.0,8.0,0.0,22,1,0]
27.028
64

2002,4.07
MIRTGS : RIGHTBACK : INTERNAL 2
MIR : ON : INTERNAL 2
OPTKBR

0.200000
8
8.000000
FILLER
RATIO
SPECTRUM
UNLOCKED 256

DOUBLE
64
COMBINED
1
0
0

0.002000
RATIO

1
0
TRUE
51149
0
LEFT NOT FITTED RIGHT NOT FITTED 0
NONE
NONE
15600
12
4.427000
51148
TRUE
1 0 8 72 0 0 0 0

15798

#HDR
-1
-1
#GR
µM
%T
2.38419e-05
0.0
1.282000
0.002000
12874
8
84.9462
56.4327
#DATA
1.282000	 84.9462
1.300000	 74.1415
1.318000	 69.5377
1.336000	 65.351
1.354000	 62.9507
1.372000	 65.7954
1.390000	 65.1939
1.408000	 62.9965
1.426000	 64.2173
1.444000	 64.4077
1.462000	 62.9937
1.480000	 63.4145
1.498000	 64.2166
1.516000	 63.1402
1.534000	 64.4788
1.552000	 65.2082
1.570000	 65.6571
1.588000	 64.0448
1.606000	 64.9268
1.624000	 64.7992
1.642000	 64.2669
1.660000	 64.5776
1.678000	 65.1482
1.696000	 64.601
1.714000	 64.9864
1.732000	 64.7145
1.750000	 64.698
1.768000	 64.8146
1.786000	 65.5631
1.804000	 65.3428
1.822000	 64.8815
1.840000	 64.2542
1.858000	 65.8269
1.876000	 64.4328
1.894000	 61.9051
1.912000	 64.9737
1.930000	 64.9947
1.948000	 64.7205
1.966000	 65.2225
1.984000	 64.8237
2.002000	 64.8526
2.020000	 64.6123
2.038000	 64.392
2.056000	 64.8336
2.074000	 65.0733
2.092000	 65.2424
2.110000	 65.1153
2.128000	 65.3024
2.146000	 65.4315
2.164000	 65.2574
2.182000	 65.1532
2.200000	 64.6802
2.218000	 64.2831
2.236000	 64.4028
2.254000	 64.2451
2.272000	 63.3867
2.290000	 64.3263
2.308000	 64.3418
2.326000	 64.5797
2.344000	 64.3876
2.362000	 64.8848
2.380000	 64.7879
2.398000	 64.3215
2.416000	 65.2073
2.434000	 65.4201
2.452000	 65.0303
2.470000	 65.264
2.488000	 64.8432
2.506000	 65.099
2.524000	 65.18
2.542000	 64.9689
2.560000	 65.0178
2.578000	 64.9346
2.596000	 65.14
2.614000	 65.1103
2.632000	 65.1181
2.650000	 64.938
2.668000	 64.9924
2.686000	 65.2392
2.704000	 65.1668
2.722000	 65.2667
2.740000	 65.2907
2.758000	 65.1472
2.776000	 65.1059
2.794000	 65.1644
2.812000	 65.1788
2.830000	 65.0962
2.848000	 64.9735
2.866000	 65.3168
2.884000	 65.4721
2.902000	 65.0608
2.920000	 65.111
2.938000	 65.0157
2.956000	 65.1008
2.974000	 64.9922
2.992000	 64.9239
3.010000	 65.1173
3.028000	 65.0062
3.046000	 65.0822
3.064000	 65.1197
3.082000	 65.1148
3.100000	 65.1811
3.118000	 64.9645
3.136000	 65.1885
3.154000	 65.3004
3.172000	 65.1974
3.190000	 65.0505
3.208000	 65.0393
3.226000	 65.3435
3.244000	 65.2366
3.262000	 65.1841
3.280000	 65.0972
3.298000	 65.0611
3.316000	 65.1951
3.334000	 65.2794
3.352000	 65.0895
3.370000	 65.0289
3.388000	 64.9183
3.406000	 65.0721
3.424000	 64.6208
3.442000	 64.9445
3.460000	 64.8969
3.478000	 64.9979
3.496000	 64.9826
3.514000	 64.9303
3.532000	 65.0634
3.550000	 65.1345
3.568000	 65.2497
3.586000	 65.2131
3.604000	 65.2241
3.622000	 65.1771
3.640000	 65.1144
3.658000	 65.2676
3.676000	 65.3319
3.694000	 65.2414
3.712000	 65.2841
3.730000	 65.1659
3.748000	 65.2567
3.766000	 65.0693
3.784000	 65.1324
3.802000	 65.3064
3.820000	 65.2676
3.838000	 65.1235
3.856000	 65.3024
3.874000	 65.1629
3.892000	 65.2235
3.910000	 65.2808
3.928000	 65.1912
3.946000	 65.2994
3.964000	 65.3309
3.982000	 65.1406
4.000000	 65.3384
4.018000	 65.2216
4.036000	 65.2791
4.054000	 65.3012
4.072000	 65.2555
4.090000	 65.3042
4.108000	 65.2628
4.125999	 65.241
4.144000	 65.1877
4.162000	 65.2093
4.180000	 65.2175
4.198000	 65.2259
4.216000	 65.1124
4.234000	 65.1473
4.252000	 65.1406
4.270000	 65.2424
4.288000	 65.2806
4.306000	 65.2664
4.324000	 65.2841
4.342000	 65.3032
4.359999	 65.2228
4.378000	 65.2213
4.396000	 65.2241
4.414000	 65.2353
4.432000	 65.2906
4.450000	 65.3898
4.468000	 65.2436
4.486000	 65.1137
4.504000	 65.1871
4.522000	 65.1588
4.540000	 65.2296
4.558000	 65.1826
4.576000	 65.2912
4.594000	 65.2711
4.612000	 65.2445
4.630000	 65.2288
4.648000	 65.2691
4.666000	 65.3002
4.684000	 65.3112
4.702000	 65.255
4.720000	 65.2707
4.738000	 65.2146
4.756000	 65.2874
4.774000	 65.208
4.792000	 65.1932
4.810000	 65.342
4.828000	 65.1909
4.846000	 65.1788
4.864000	 65.1758
4.882000	 65.1506
4.900000	 65.2944
4.918000	 65.2774
4.936000	 65.1826
4.954000	 65.1702
4.972000	 65.3494
4.990000	 65.3435
5.008000	 65.2483
5.026000	 65.205
5.044000	 65.3134
5.062000	 65.3304
5.080000	 65.3161
5.098000	 65.2772
5.116000	 65.2697
5.134000	 65.2732
5.152000	 65.2813
5.170000	 65.3005
5.188000	 65.3605
5.206000	 65.2967
5.224000	 65.2992
5.242000	 65.2911
5.260000	 65.3095
5.278000	 65.297
5.296000	 65.2313
5.314000	 65.2399
5.332000	 65.241
5.350000	 65.2364
5.368000	 65.2489
5.386000	 65.3247
5.404000	 65.2676
5.422000	 65.2422
5.440000	 65.2065
5.458000	 65.2752
5.476000	 65.3079
5.494000	 65.2903
5.512000	 65.3182
5.530000	 65.2639
5.548000	 65.2743
5.566000	 65.2979
5.584000	 65.3109
5.602000	 65.2615
5.620000	 65.2106
5.638000	 65.3177
5.656000	 65.3716
5.674000	 65.2794
5.692000	 65.1663
5.710000	 65.0427
5.728000	 64.9918
5.746000	 65.0122
5.764000	 65.0142
5.782000	 64.9725
5.800000	 65.0052
5.818000	 65.1201
5.836000	 65.1738
5.854000	 65.1935
5.872000	 65.2605
5.890000	 65.2774
5.908000	 65.166
5.926000	 65.0959
5.944000	 65.153
5.962000	 65.195
5.980000	 65.1776
5.998000	 65.1399
6.016000	 65.1538
6.034000	 65.2334
6.052000	 65.2429
6.070000	 65.1887
6.088000	 65.151
6.106000	 65.1336
6.124000	 65.148
6.142000	 65.213
6.160000	 65.2265
6.178000	 65.184
6.196000	 65.1383
6.214000	 65.0523
6.232000	 65.0124
6.250000	 65.004
6.268000	 65.0065
6.286000	 65.0018
6.304000	 64.9971
6.322000	 65.0362
6.340000	 65.0271
6.358000	 64.9565
6.376000	 64.8733
6.394000	 64.8664
6.412000	 64.9666
6.430000	 65.064
6.448000	 65.0669
6.466000	 65.0358
6.484000	 65.0216
6.502000	 65.0571
6.520000	 65.0939
6.538000	 65.106
6.556000	 65.1142
6.574000	 65.0842
6.592000	 65.0915
6.610000	 65.1076
6.628000	 65.0607
6.646000	 65.0577
6.664000	 65.119
6.682000	 65.1735
6.700000	 65.2071
6.718000	 65.2249
6.736000	 65.2007
6.754000	 65.1203
6.772000	 65.0709
6.790000	 65.0662
6.808000	 65.0501
6.826000	 65.0632
6.844000	 65.023
6.862000	 64.909
6.880000	 64.8895
6.898000	 64.9357
6.916000	 64.9791
6.934000	 65.0201
6.952000	 65.0343
6.970000	 65.0695
6.988000	 65.0965
7.006000	 65.0769
7.024000	 65.0721
7.042000	 65.0858
7.060000	 65.0767
7.078000	 65.0468
7.096000	 65.0339
7.114000	 65.0419
7.132000	 65.0355
7.150000	 65.006
7.168000	 64.9604
7.186000	 64.9429
7.204000	 64.9718
7.222000	 64.9541
7.240000	 64.8969
7.258000	 64.9172
7.276000	 64.9825
7.294000	 65.0126
7.312000	 65.0263
7.330000	 65.0404
7.348000	 65.0602
7.366000	 65.0977
7.384000	 65.125
7.402000	 65.1228
7.420000	 65.1021
7.438000	 65.0597
7.456000	 65.01
7.474000	 64.9886
7.492000	 64.9857
7.510000	 64.9697
7.528000	 64.9504
7.546000	 64.9517
7.564000	 64.9708
7.582000	 64.9891
7.600000	 64.9887
7.618000	 64.9729
7.636000	 64.9628
7.654000	 64.9575
7.672000	 64.955
7.690000	 64.9723
7.708000	 64.9975
7.726000	 65.0039
7.744000	 64.9992
7.762000	 64.9936
7.780000	 64.9737
7.798000	 64.9453
7.816000	 64.9321
7.834000	 64.9353
7.852000	 64.9424
7.870000	 64.9532
7.888000	 64.9703
7.906000	 64.9905
7.924000	 65.0053
7.942000	 65.0006
7.960000	 64.974
7.978000	 64.9398
7.996000	 64.9094
8.013999	 64.8824
8.032000	 64.8634
8.050000	 64.8667
8.068000	 64.8857
8.086000	 64.8855
8.103999	 64.8481
8.122000	 64.8113
8.140000	 64.8285
8.158000	 64.9014
8.176000	 64.9818
8.193999	 65.0247
8.212000	 65.02
8.230000	 64.9865
8.248000	 64.9488
8.266000	 64.9119
8.283999	 64.8665
8.302000	 64.8211
8.320000	 64.8047
8.338000	 64.8225
8.356000	 64.8389
8.374000	 64.8277
8.391999	 64.8106
8.410000	 64.8219
8.428000	 64.8568
8.446000	 64.8792
8.464000	 64.8689
8.481999	 64.8392
8.500000	 64.8149
8.518000	 64.8142
8.536000	 64.8391
8.554000	 64.8659
8.571999	 64.8615
8.590000	 64.8247
8.608000	 64.7994
8.626000	 64.8229
8.644000	 64.8776
8.661999	 64.9105
8.680000	 64.8968
8.698000	 64.8605
8.716000	 64.8279
8.734000	 64.7917
8.751999	 64.7355
8.770000	 64.6692
8.788000	 64.6208
8.806000	 64.6052
8.824000	 64.6167
8.842000	 64.6491
8.859999	 64.7024
8.878000	 64.7704
8.896000	 64.8357
8.914000	 64.8783
8.932000	 64.8842
8.949999	 64.8517
8.968000	 64.7998
8.986000	 64.7635
9.004000	 64.7709
9.022000	 64.8209
9.039999	 64.8832
9.058000	 64.922
9.076000	 64.9223
9.094000	 64.8961
9.112000	 64.8692
9.129999	 64.8624
9.148000	 64.882
9.166000	 64.9201
9.184000	 64.9585
9.202000	 64.9778
9.219999	 64.9668
9.238000	 64.933
9.256000	 64.8969
9.274000	 64.871
9.292000	 64.8477
9.310000	 64.812
9.327999	 64.7617
9.346000	 64.7124
9.364000	 64.681
9.382000	 64.673
9.400000	 64.6838
9.418000	 64.7071
9.436000	 64.7379
9.454000	 64.7687
9.472000	 64.7901
9.490000	 64.7986
9.508000	 64.8016
9.526000	 64.8093
9.544000	 64.8208
9.561999	 64.8216
9.580000	 64.7964
9.598000	 64.7461
9.616000	 64.69
9.634000	 64.6507
9.652000	 64.6368
9.670000	 64.6404
9.688000	 64.649
9.706000	 64.6571
9.724000	 64.666
9.742000	 64.6766
9.760000	 64.6864
9.778000	 64.6952
9.795999	 64.7099
9.814000	 64.7396
9.832000	 64.7845
9.850000	 64.8293
9.868000	 64.8529
9.886000	 64.8455
9.904000	 64.8139
9.922000	 64.7737
9.940000	 64.736
9.958000	 64.7017
9.976000	 64.6676
9.994000	 64.6357
10.012	64.616
10.03	64.6199
10.048	64.6503
10.066	64.6971
10.084	64.7429
10.102	64.7742
10.12	64.7887
10.138	64.7953
10.156	64.8062
10.174	64.8288
10.192	64.8628
10.21	64.901
10.228	64.936
10.246	64.9615
10.264	64.971
10.282	64.9605
10.3	64.9302
10.318	64.8877
10.336	64.8447
10.354	64.8099
10.372	64.7853
10.39	64.7659
10.408	64.7457
10.426	64.7223
10.444	64.6962
10.462	64.6685
10.48	64.6386
10.498	64.6053
10.516	64.5726
10.534	64.5504
10.552	64.5501
10.57	64.5767
10.588	64.623
10.606	64.6737
10.624	64.7147
10.642	64.7421
10.66	64.7655
10.678	64.8005
10.696	64.8549
10.714	64.9201
10.732	64.9708
10.75	64.9779
10.768	64.9247
10.786	64.8191
10.804	64.6918
10.822	64.5808
10.84	64.5182
10.858	64.5162
10.876	64.5699
10.894	64.6625
10.912	64.7754
10.93	64.8936
10.948	65.0082
10.966	65.1109
10.984	65.1879
11.002	65.2155
11.02	65.1666
11.038	65.0209
11.056	64.778
11.074	64.467
11.092	64.1423
11.11	63.8675
11.128	63.6975
11.146	63.6577
11.164	63.74
11.182	63.9117
11.2	64.1267
11.218	64.3451
11.236	64.5366
11.254	64.6849
11.272	64.786
11.29	64.8447
11.308	64.8718
11.326	64.8808
11.344	64.8816
11.362	64.8783
11.38	64.8659
11.398	64.8338
11.416	64.7714
11.434	64.6747
11.452	64.5517
11.47	64.4204
11.488	64.2992
11.506	64.2046
11.524	64.1436
11.542	64.1146
11.56	64.1102
11.578	64.1209
11.596	64.1384
11.614	64.1556
11.632	64.1702
11.65	64.1837
11.668	64.1983
11.686	64.2168
11.704	64.2398
11.722	64.2653
11.74	64.2908
11.758	64.3146
11.776	64.3376
11.794	64.3636
11.812	64.3972
11.83	64.4411
11.848	64.4929
11.866	64.5446
11.884	64.5852
11.902	64.6038
11.92	64.5956
11.938	64.5641
11.956	64.5198
11.974	64.4775
11.992	64.4505
12.01	64.4463
12.028	64.4648
12.046	64.4983
12.064	64.5344
12.082	64.5609
12.1	64.5689
12.118	64.5556
12.136	64.5249
12.154	64.4848
12.172	64.445
12.19	64.4135
12.208	64.3933
12.226	64.3832
12.244	64.3784
12.262	64.3725
12.28	64.3601
12.298	64.3387
12.316	64.3092
12.334	64.2755
12.352	64.2435
12.37	64.2187
12.388	64.2044
12.406	64.2007
12.424	64.2045
12.442	64.2108
12.46	64.2153
12.478	64.2159
12.496	64.2134
12.514	64.2112
12.532	64.2131
12.55	64.2214
12.568	64.2349
12.586	64.2492
12.604	64.2583
12.622	64.2562
12.64	64.2395
12.658	64.2085
12.676	64.1676
12.694	64.1243
12.712	64.0874
12.73	64.0646
12.748	64.0609
12.766	64.0774
12.784	64.1104
12.802	64.1534
12.82	64.1975
12.838	64.2336
12.856	64.2536
12.874	64.2517
12.892	64.2253
12.91	64.1747
12.928	64.1035
12.946	64.0182
12.964	63.9276
12.982	63.8411
13	63.7681
13.018	63.7157
13.036	63.6881
13.054	63.6855
13.072	63.7044
13.09	63.7382
13.108	63.7791
13.126	63.8188
13.144	63.8514
13.162	63.8729
13.18	63.8825
13.198	63.8817
13.216	63.8734
13.234	63.8607
13.252	63.8462
13.27	63.8316
13.288	63.8175
13.306	63.8043
13.324	63.7922
13.342	63.7814
13.36	63.772
13.378	63.7641
13.396	63.7575
13.414	63.7513
13.432	63.7449
13.45	63.7378
13.468	63.73
13.486	63.7221
13.504	63.7149
13.522	63.7093
13.54	63.7062
13.558	63.7065
13.576	63.7105
13.594	63.7185
13.612	63.7304
13.63	63.746
13.648	63.7646
13.666	63.7847
13.684	63.8042
13.702	63.8204
13.72	63.8299
13.738	63.8297
13.756	63.817
13.774	63.7908
13.792	63.7519
13.81	63.7031
13.828	63.6497
13.846	63.5975
13.864	63.5522
13.882	63.5183
13.9	63.4984
13.918	63.4926
13.936	63.4988
13.954	63.5135
13.972	63.5322
13.99	63.551
14.008	63.5666
14.026	63.5773
14.044	63.5827
14.062	63.5833
14.08	63.5803
14.098	63.5749
14.116	63.5677
14.134	63.5585
14.152	63.5463
14.17	63.5298
14.188	63.5072
14.206	63.4775
14.224	63.44
14.242	63.3958
14.26	63.3471
14.278	63.297
14.296	63.2493
14.314	63.2083
14.332	63.1777
14.35	63.1608
14.368	63.1593
14.386	63.1735
14.404	63.2021
14.422	63.2418
14.44	63.2888
14.458	63.3383
14.476	63.3855
14.494	63.4259
14.512	63.4561
14.53	63.4738
14.548	63.4787
14.566	63.4717
14.584	63.4551
14.602	63.432
14.62	63.4059
14.638	63.3806
14.656	63.3595
14.674	63.3448
14.692	63.3377
14.71	63.338
14.728	63.3449
14.746	63.3563
14.764	63.3696
14.782	63.3823
14.8	63.3925
14.818	63.3988
14.836	63.4008
14.854	63.3989
14.872	63.3947
14.89	63.3899
14.908	63.3861
14.926	63.385
14.944	63.3877
14.962	63.3946
14.98	63.4047
14.998	63.4168
15.016	63.429
15.034	63.4393
15.052	63.4458
15.07	63.4473
15.088	63.4431
15.106	63.4332
15.124	63.4179
15.142	63.3982
15.16	63.3748
15.178	63.3484
15.196	63.3196
15.214	63.2885
15.232	63.2553
15.25	63.2204
15.268	63.1839
15.286	63.1466
15.304	63.1094
15.322	63.0734
15.34	63.0393
15.358	63.0081
15.376	62.98
15.394	62.955
15.412	62.933
15.43	62.9132
15.448	62.8952
15.466	62.8785
15.484	62.8632
15.502	62.8493
15.52	62.8376
15.538	62.8291
15.556	62.8248
15.574	62.8252
15.592	62.831
15.61	62.8421
15.628	62.8578
15.646	62.8772
15.664	62.8981
15.682	62.9187
15.7	62.9373
15.718	62.952
15.736	62.9619
15.754	62.9668
15.772	62.9669
15.79	62.9636
15.808	62.9588
15.826	62.9544
15.844	62.9524
15.862	62.955
15.88	62.9627
15.898	62.976
15.916	62.9943
15.934	63.0161
15.952	63.0397
15.97	63.0633
15.988	63.0845
16.006	63.102
16.024	63.1149
16.042	63.1229
16.06	63.1268
16.078	63.1273
16.096	63.126
16.114	63.1244
16.132	63.1233
16.15	63.1237
16.168	63.1258
16.186	63.129
16.204	63.1327
16.222	63.1352
16.24	63.1351
16.258	63.1313
16.276	63.1218
16.294	63.1062
16.312	63.0842
16.33	63.0556
16.348	63.0215
16.366	62.9826
16.384	62.9407
16.402	62.8979
16.42	62.8556
16.438	62.8161
16.456	62.7812
16.474	62.7519
16.492	62.7297
16.51	62.7151
16.528	62.7083
16.546	62.7094
16.564	62.7175
16.582	62.7321
16.6	62.752
16.618	62.776
16.636	62.803
16.654	62.8314
16.672	62.8599
16.69	62.8875
16.708	62.9126
16.726	62.9343
16.744	62.9519
16.762	62.9646
16.78	62.9721
16.798	62.9744
16.816	62.9718
16.834	62.9648
16.852	62.9539
16.87	62.9402
16.888	62.9243
16.906	62.9072
16.924	62.8895
16.942	62.8717
16.96	62.8541
16.978	62.8364
16.996	62.8185
17.014	62.7995
17.032	62.779
17.05	62.7557
17.068	62.7292
17.086	62.6987
17.104	62.664
17.122	62.6251
17.14	62.5826
17.158	62.5378
17.176	62.4913
17.194	62.4458
17.212	62.4023
17.23	62.363
17.248	62.3294
17.266	62.3024
17.284	62.2832
17.302	62.2716
17.32	62.2675
17.338	62.2696
17.356	62.2772
17.374	62.2882
17.392	62.3015
17.41	62.3155
17.428	62.3288
17.446	62.3408
17.464	62.3507
17.482	62.3588
17.5	62.3651
17.518	62.3709
17.536	62.3765
17.554	62.3835
17.572	62.392
17.59	62.4031
17.608	62.4168
17.626	62.4334
17.644	62.4518
17.662	62.4719
17.68	62.4917
17.698	62.5104
17.716	62.5261
17.734	62.5375
17.752	62.5438
17.77	62.5438
17.788	62.5371
17.806	62.5237
17.824	62.5042
17.842	62.4793
17.86	62.4503
17.878	62.4182
17.896	62.3851
17.914	62.3516
17.932	62.3201
17.95	62.2907
17.968	62.2651
17.986	62.2434
18.004	62.2263
18.022	62.2134
18.04	62.205
18.058	62.2001
18.076	62.1985
18.094	62.199
18.112	62.2013
18.13	62.2041
18.148	62.2069
18.166	62.2087
18.184	62.2091
18.202	62.2076
18.22	62.2038
18.238	62.1977
18.256	62.1892
18.274	62.1783
18.292	62.1657
18.31	62.1514
18.328	62.1362
18.346	62.1202
18.364	62.1041
18.382	62.0879
18.4	62.072
18.418	62.0563
18.436	62.041
18.454	62.0258
18.472	62.0107
18.49	61.9953
18.508	61.9796
18.526	61.9632
18.544	61.9459
18.562	61.9277
18.58	61.9084
18.598	61.888
18.616	61.8666
18.634	61.8443
18.652	61.821
18.67	61.7972
18.688	61.7727
18.706	61.7481
18.724	61.7233
18.742	61.6987
18.76	61.6743
18.778	61.6505
18.796	61.6273
18.814	61.605
18.832	61.5835
18.85	61.5629
18.868	61.5432
18.886	61.5243
18.904	61.506
18.922	61.4882
18.94	61.4706
18.958	61.453
18.976	61.435
18.994	61.4164
19.012	61.3971
19.03	61.3769
19.048	61.356
19.066	61.3345
19.084	61.3127
19.102	61.291
19.12	61.2701
19.138	61.2505
19.156	61.2329
19.174	61.2182
19.192	61.207
19.21	61.2001
19.228	61.1979
19.246	61.2012
19.264	61.2098
19.282	61.2243
19.3	61.2443
19.318	61.2693
19.336	61.2991
19.354	61.3324
19.372	61.3692
19.39	61.4076
19.408	61.4478
19.426	61.4875
19.444	61.5269
19.462	61.5641
19.48	61.599
19.498	61.6305
19.516	61.6581
19.534	61.6815
19.552	61.7004
19.57	61.7149
19.588	61.7247
19.606	61.7306
19.624	61.7329
19.642	61.732
19.66	61.7287
19.678	61.7231
19.696	61.7163
19.714	61.7081
19.732	61.6994
19.75	61.69
19.768	61.6803
19.786	61.6704
19.804	61.6601
19.822	61.6492
19.84	61.6375
19.858	61.6246
19.876	61.6103
19.894	61.5941
19.912	61.5759
19.93	61.5553
19.948	61.5325
19.966	61.5075
19.984	61.4801
20.002	61.451
20.02	61.4203
20.038	61.3885
20.056	61.3559
20.074	61.3228
20.092	61.29
20.11	61.2573
20.128	61.2254
20.146	61.1944
20.164	61.1649
20.182	61.1369
20.2	61.111
20.218	61.0874
20.236	61.0663
20.254	61.0486
20.272	61.0342
20.29	61.0245
20.308	61.0191
20.326	61.0194
20.344	61.0256
20.362	61.0381
20.38	61.0579
20.398	61.0847
20.416	61.1188
20.434	61.1604
20.452	61.2084
20.47	61.2634
20.488	61.3236
20.506	61.3877
20.524	61.4556
20.542	61.5238
20.56	61.5931
20.578	61.6592
20.596	61.7215
20.614	61.7781
20.632	61.8257
20.65	61.8649
20.668	61.8912
20.686	61.9053
20.704	61.905
20.722	61.8893
20.74	61.8584
20.758	61.8113
20.776	61.7482
20.794	61.6705
20.812	61.5775
20.83	61.4717
20.848	61.3545
20.866	61.2263
20.884	61.092
20.902	60.9503
20.92	60.8064
20.938	60.6619
20.956	60.5177
20.974	60.3795
20.992	60.2455
21.01	60.1209
21.028	60.0063
21.046	59.9027
21.064	59.8132
21.082	59.7369
21.1	59.6755
21.118	59.6295
21.136	59.5983
21.154	59.582
21.172	59.5805
21.19	59.5918
21.208	59.6165
21.226	59.6528
21.244	59.6986
21.262	59.7546
21.28	59.8168
21.298	59.8857
21.316	59.9593
21.334	60.0347
21.352	60.1129
21.37	60.1903
21.388	60.2669
21.406	60.3419
21.424	60.413
21.442	60.481
21.46	60.544
21.478	60.6016
21.496	60.6537
21.514	60.6993
21.532	60.7386
21.55	60.7714
21.568	60.7975
21.586	60.817
21.604	60.8302
21.622	60.837
21.64	60.8379
21.658	60.8333
21.676	60.8232
21.694	60.8085
21.712	60.7891
21.73	60.7654
21.748	60.7387
21.766	60.7086
21.784	60.676
21.802	60.6413
21.82	60.6044
21.838	60.5666
21.856	60.5278
21.874	60.4882
21.892	60.4484
21.91	60.4083
21.928	60.368
21.946	60.3279
21.964	60.2879
21.982	60.2478
22	60.2077
22.018	60.1674
22.036	60.1269
22.054	60.0861
22.072	60.0449
22.09	60.0031
22.108	59.9609
22.126	59.9181
22.144	59.8745
22.162	59.8304
22.18	59.7861
22.198	59.7414
22.216	59.6968
22.234	59.6531
22.252	59.6097
22.27	59.5678
22.288	59.5276
22.306	59.489
22.324	59.4528
22.342	59.4191
22.36	59.3878
22.378	59.3595
22.396	59.3341
22.414	59.3115
22.432	59.2918
22.45	59.275
22.468	59.2602
22.486	59.2471
22.504	59.2358
22.522	59.2244
22.54	59.2126
22.558	59.2005
22.576	59.1856
22.594	59.1683
22.612	59.1481
22.63	59.123
22.648	59.0935
22.666	59.059
22.684	59.0183
22.702	58.9716
22.72	58.9191
22.738	58.8604
22.756	58.7954
22.774	58.7251
22.792	58.6497
22.81	58.5689
22.828	58.4846
22.846	58.3974
22.864	58.3069
22.882	58.2157
22.9	58.1243
22.918	58.0325
22.936	57.943
22.954	57.8562
22.972	57.7719
22.99	57.6922
23.008	57.617
23.026	57.5464
23.044	57.4817
23.062	57.4229
23.08	57.37
23.098	57.3233
23.116	57.283
23.134	57.2487
23.152	57.2205
23.17	57.1985
23.188	57.1824
23.206	57.1714
23.224	57.1656
23.242	57.1649
23.26	57.1685
23.278	57.1766
23.296	57.1891
23.314	57.2052
23.332	57.225
23.35	57.2485
23.368	57.2755
23.386	57.3061
23.404	57.3401
23.422	57.3772
23.44	57.4175
23.458	57.4609
23.476	57.5074
23.494	57.557
23.512	57.6096
23.53	57.6646
23.548	57.7222
23.566	57.7822
23.584	57.8441
23.602	57.9081
23.62	57.974
23.638	58.041
23.656	58.1091
23.674	58.1784
23.692	58.2482
23.71	58.3181
23.728	58.3884
23.746	58.4584
23.764	58.5274
23.782	58.5959
23.8	58.6635
23.818	58.7297
23.836	58.7947
23.854	58.8585
23.872	58.9207
23.89	58.9813
23.908	59.0405
23.926	59.0987
23.944	59.1555
23.962	59.2113
23.98	59.2663
23.998	59.3207
24.016	59.3743
24.034	59.4276
24.052	59.4808
24.07	59.5337
24.088	59.5864
24.106	59.6387
24.124	59.6912
24.142	59.7428
24.16	59.7928
24.178	59.8421
24.196	59.8896
24.214	59.9333
24.232	59.9737
24.25	60.0107
24.268	60.0427
24.286	60.0693
24.304	60.0911
24.322	60.1069
24.34	60.1155
24.358	60.118
24.376	60.1134
24.394	60.1005
24.412	60.0796
24.43	60.0507
24.448	60.0133
24.466	59.9667
24.484	59.9114
24.502	59.8485
24.52	59.7787
24.538	59.7009
24.556	59.6169
24.574	59.5285
24.592	59.4346
24.61	59.3359
24.628	59.235
24.646	59.1323
24.664	59.0268
24.682	58.9207
24.7	58.8159
24.718	58.7109
24.736	58.6069
24.754	58.5053
24.772	58.4059
24.79	58.3086
24.808	58.2142
24.826	58.1234
24.844	58.0355
24.862	57.9512
24.88	57.8711
24.898	57.7948
24.916	57.7225
24.934	57.6545
24.952	57.5914
24.97	57.5329
24.988	57.4783
25.006	57.427
25.024	57.3789
25.042	57.3345
25.06	57.2941
25.078	57.2573
25.096	57.2238
25.114	57.1962
25.132	57.1765
25.15	57.1633
25.168	57.1575
25.186	57.1612
25.204	57.1751
25.222	57.1984
25.24	57.2313
25.258	57.2743
25.276	57.3277
25.294	57.3908
25.312	57.4626
25.33	57.543
25.348	57.6328
25.366	57.7297
25.384	57.8312
25.402	57.9399
25.42	58.0539
25.438	58.1687
25.456	58.2817
25.474	58.3969
25.492	58.5097
25.51	58.6143
25.528	58.7119
25.546	58.8038
25.564	58.8844
25.582	58.949
25.6	59.0009
25.618	59.0388
25.636	59.0596
25.654	59.061
25.672	59.0447
25.69	59.0117
25.708	58.9626
25.726	58.8949
25.744	58.8102
25.762	58.7142
25.78	58.6111
25.798	58.4941
25.816	58.3697
25.834	58.248
25.852	58.1329
25.87	58.0157
25.888	57.9078
25.906	57.8217
25.924	57.7561
25.942	57.7063
25.96	57.6841
25.978	57.7004
25.996	57.7493
26.014	57.8314
26.032	57.9543
26.05	58.124
26.068	58.3363
26.086	58.5914
26.104	58.8915
26.122	59.2391
26.14	59.6341
26.158	60.0715
26.176	60.5459
26.194	61.0596
26.212	61.615
26.23	62.2008
26.248	62.8057
26.266	63.4374
26.284	64.0952
26.302	64.7625
26.32	65.4241
26.338	66.092
26.356	66.7623
26.374	67.4189
26.392	68.049
26.41	68.667
26.428	69.2649
26.446	69.8267
26.464	70.3409
26.482	70.8201
26.5	71.2584
26.518	71.6456
26.536	71.9764
26.554	72.2597
26.572	72.4892
26.59	72.6567
26.608	72.7583
26.626	72.7999
26.644	72.7789
26.662	72.6918
26.68	72.5376
26.698	72.3195
26.716	72.0349
26.734	71.6811
26.752	71.2569
26.77	70.7643
26.788	70.2036
26.806	69.5746
26.824	68.8776
26.842	68.113
26.86	67.2812
26.878	66.3824
26.896	65.4166
26.914	64.3838
26.932	63.2855
26.95	62.123
26.968	60.8025
26.986	59.2593
27.004	57.7765
27.022	56.6461
27.028	56.4327