File: Bakgrunnsmateriale/MATLAB/FTIR/ftir_data/subBb/Mapping_36/C-4040-8_t34.asc
PE IR       SPECTRUM    SPECTRUM    ASCII       PEDS        1.60
  -1
C-B13A~1.ASC
17/05/02
13:44:44.00
17/05/02
13:45:11.00
tln
$C-4040-8_t0034$<tbV0>[-2.5,12.0,8.0,0.0,22,1,0]
27.028
64

2002,4.07
MIRTGS : RIGHTBACK : INTERNAL 2
MIR : ON : INTERNAL 2
OPTKBR

0.200000
8
8.000000
FILLER
RATIO
SPECTRUM
UNLOCKED 256

DOUBLE
64
COMBINED
1
0
0

0.002000
RATIO

1
0
TRUE
51149
0
LEFT NOT FITTED RIGHT NOT FITTED 0
NONE
NONE
15600
12
4.427000
51148
TRUE
1 0 8 72 0 0 0 0

15798

#HDR
-1
-1
#GR
µM
%T
2.38419e-05
0.0
1.282000
0.002000
12874
8
87.1398
56.5554
#DATA
1.282000	 68.2395
1.300000	 68.4653
1.318000	 68.2185
1.336000	 62.3107
1.354000	 63.7783
1.372000	 65.5139
1.390000	 65.4386
1.408000	 63.5821
1.426000	 66.4304
1.444000	 63.1827
1.462000	 65.2344
1.480000	 63.8873
1.498000	 66.0717
1.516000	 63.98
1.534000	 65.2794
1.552000	 63.3357
1.570000	 65.9724
1.588000	 64.1484
1.606000	 63.6513
1.624000	 64.937
1.642000	 64.6489
1.660000	 64.6979
1.678000	 64.9474
1.696000	 65.0761
1.714000	 64.4386
1.732000	 64.5008
1.750000	 64.5603
1.768000	 65.1563
1.786000	 65.9076
1.804000	 64.6134
1.822000	 65.0609
1.840000	 64.5438
1.858000	 65.1247
1.876000	 64.8595
1.894000	 61.2373
1.912000	 64.5415
1.930000	 64.3203
1.948000	 65.4831
1.966000	 64.949
1.984000	 64.7803
2.002000	 64.8678
2.020000	 64.7178
2.038000	 64.2745
2.056000	 64.6325
2.074000	 65.1366
2.092000	 64.944
2.110000	 65.1581
2.128000	 65.1707
2.146000	 65.4416
2.164000	 65.3596
2.182000	 65.0675
2.200000	 64.4748
2.218000	 64.283
2.236000	 63.9731
2.254000	 63.859
2.272000	 63.7032
2.290000	 66.702
2.308000	 63.8478
2.326000	 64.5247
2.344000	 64.2915
2.362000	 64.6773
2.380000	 64.7689
2.398000	 65.1131
2.416000	 64.9266
2.434000	 65.4753
2.452000	 64.9994
2.470000	 65.3991
2.488000	 65.1685
2.506000	 65.1673
2.524000	 65.2095
2.542000	 65.1951
2.560000	 65.0268
2.578000	 64.8702
2.596000	 64.9437
2.614000	 64.9905
2.632000	 65.0795
2.650000	 65.1165
2.668000	 65.1648
2.686000	 65.2207
2.704000	 65.3009
2.722000	 65.1712
2.740000	 65.2528
2.758000	 65.1661
2.776000	 65.0897
2.794000	 65.186
2.812000	 65.1674
2.830000	 64.9965
2.848000	 65.2148
2.866000	 65.483
2.884000	 65.1214
2.902000	 64.821
2.920000	 65.1083
2.938000	 65.2425
2.956000	 64.9898
2.974000	 64.9167
2.992000	 65.0603
3.010000	 65.1736
3.028000	 65.1025
3.046000	 65.1548
3.064000	 65.2629
3.082000	 65.3433
3.100000	 65.1151
3.118000	 65.1817
3.136000	 65.1355
3.154000	 65.2216
3.172000	 65.1301
3.190000	 65.1761
3.208000	 65.1512
3.226000	 65.1298
3.244000	 65.2041
3.262000	 65.1034
3.280000	 65.191
3.298000	 65.0089
3.316000	 65.1742
3.334000	 65.2358
3.352000	 64.9509
3.370000	 64.9225
3.388000	 64.8368
3.406000	 65.0879
3.424000	 64.6444
3.442000	 64.7995
3.460000	 65.0071
3.478000	 64.859
3.496000	 64.9652
3.514000	 64.8008
3.532000	 65.1496
3.550000	 65.2024
3.568000	 65.2817
3.586000	 65.0832
3.604000	 65.2955
3.622000	 65.1971
3.640000	 65.1779
3.658000	 65.2464
3.676000	 65.2562
3.694000	 65.256
3.712000	 65.2017
3.730000	 65.1008
3.748000	 65.2184
3.766000	 65.2321
3.784000	 65.2604
3.802000	 65.2057
3.820000	 65.18
3.838000	 65.1894
3.856000	 65.2134
3.874000	 65.1877
3.892000	 65.2101
3.910000	 65.3723
3.928000	 65.2018
3.946000	 65.1707
3.964000	 65.1388
3.982000	 65.0997
4.000000	 65.3276
4.018000	 65.2524
4.036000	 65.1051
4.054000	 65.2085
4.072000	 65.1555
4.090000	 65.1388
4.108000	 65.2854
4.125999	 65.1943
4.144000	 65.2446
4.162000	 65.1962
4.180000	 65.2213
4.198000	 65.2305
4.216000	 65.1843
4.234000	 65.2814
4.252000	 65.2619
4.270000	 65.2699
4.288000	 65.1246
4.306000	 65.196
4.324000	 65.2331
4.342000	 65.282
4.359999	 65.2266
4.378000	 65.2363
4.396000	 65.1967
4.414000	 65.305
4.432000	 65.2427
4.450000	 65.2392
4.468000	 65.2465
4.486000	 65.2275
4.504000	 65.2926
4.522000	 65.2743
4.540000	 65.1748
4.558000	 65.1961
4.576000	 65.2286
4.594000	 65.241
4.612000	 65.2883
4.630000	 65.1965
4.648000	 65.2563
4.666000	 65.2645
4.684000	 65.3098
4.702000	 65.2735
4.720000	 65.2504
4.738000	 65.2105
4.756000	 65.2375
4.774000	 65.2493
4.792000	 65.3902
4.810000	 65.2606
4.828000	 65.1813
4.846000	 65.2044
4.864000	 65.2436
4.882000	 65.2508
4.900000	 65.3043
4.918000	 65.1713
4.936000	 65.211
4.954000	 65.1451
4.972000	 65.266
4.990000	 65.3226
5.008000	 65.1766
5.026000	 65.2427
5.044000	 65.3094
5.062000	 65.2839
5.080000	 65.3758
5.098000	 65.2712
5.116000	 65.2914
5.134000	 65.327
5.152000	 65.3313
5.170000	 65.2973
5.188000	 65.3277
5.206000	 65.1806
5.224000	 65.1939
5.242000	 65.2626
5.260000	 65.2907
5.278000	 65.2754
5.296000	 65.1927
5.314000	 65.1052
5.332000	 65.1406
5.350000	 65.2386
5.368000	 65.3038
5.386000	 65.281
5.404000	 65.2549
5.422000	 65.3724
5.440000	 65.3102
5.458000	 65.2343
5.476000	 65.2043
5.494000	 65.2115
5.512000	 65.1896
5.530000	 65.1784
5.548000	 65.2461
5.566000	 65.3103
5.584000	 65.2185
5.602000	 65.1968
5.620000	 65.2532
5.638000	 65.2322
5.656000	 65.1646
5.674000	 65.1167
5.692000	 65.1018
5.710000	 65.1088
5.728000	 65.0998
5.746000	 65.0928
5.764000	 65.0199
5.782000	 64.9714
5.800000	 64.9705
5.818000	 64.8893
5.836000	 65.0343
5.854000	 65.1801
5.872000	 65.1648
5.890000	 65.0779
5.908000	 64.9306
5.926000	 64.9072
5.944000	 65.0342
5.962000	 65.1719
5.980000	 65.2387
5.998000	 65.2436
6.016000	 65.2001
6.034000	 65.1599
6.052000	 65.1324
6.070000	 65.0984
6.088000	 65.0519
6.106000	 65.0559
6.124000	 65.0913
6.142000	 65.1549
6.160000	 65.2089
6.178000	 65.0898
6.196000	 65.0033
6.214000	 65.0072
6.232000	 64.9951
6.250000	 65.0082
6.268000	 65.004
6.286000	 64.9938
6.304000	 64.9454
6.322000	 64.9813
6.340000	 65.0434
6.358000	 64.9726
6.376000	 64.9151
6.394000	 64.9965
6.412000	 65.0914
6.430000	 65.0895
6.448000	 65.0136
6.466000	 65.0196
6.484000	 65.0533
6.502000	 65.0142
6.520000	 64.9907
6.538000	 65.0122
6.556000	 65.0259
6.574000	 65.008
6.592000	 64.9956
6.610000	 65.036
6.628000	 65.1143
6.646000	 65.1716
6.664000	 65.1717
6.682000	 65.1614
6.700000	 65.1504
6.718000	 65.1087
6.736000	 65.0767
6.754000	 65.0528
6.772000	 65.0653
6.790000	 65.04
6.808000	 64.9232
6.826000	 64.8666
6.844000	 64.8951
6.862000	 64.9461
6.880000	 64.987
6.898000	 64.9634
6.916000	 64.933
6.934000	 64.9604
6.952000	 64.9896
6.970000	 64.9789
6.988000	 64.9475
7.006000	 64.9327
7.024000	 64.9601
7.042000	 64.9866
7.060000	 64.9644
7.078000	 64.9264
7.096000	 64.9197
7.114000	 64.9329
7.132000	 64.9333
7.150000	 64.9336
7.168000	 64.9483
7.186000	 64.9687
7.204000	 64.9899
7.222000	 64.9947
7.240000	 64.9826
7.258000	 64.9616
7.276000	 64.9289
7.294000	 64.9213
7.312000	 64.955
7.330000	 64.975
7.348000	 64.9642
7.366000	 64.963
7.384000	 64.9685
7.402000	 64.9501
7.420000	 64.9167
7.438000	 64.8884
7.456000	 64.8889
7.474000	 64.9393
7.492000	 64.9875
7.510000	 64.9634
7.528000	 64.9063
7.546000	 64.8861
7.564000	 64.8804
7.582000	 64.8471
7.600000	 64.8058
7.618000	 64.8044
7.636000	 64.8691
7.654000	 64.9543
7.672000	 64.9796
7.690000	 64.9497
7.708000	 64.9408
7.726000	 64.9604
7.744000	 64.9402
7.762000	 64.8668
7.780000	 64.805
7.798000	 64.7907
7.816000	 64.7969
7.834000	 64.8056
7.852000	 64.8367
7.870000	 64.8927
7.888000	 64.9379
7.906000	 64.9514
7.924000	 64.9508
7.942000	 64.9474
7.960000	 64.9213
7.978000	 64.8657
7.996000	 64.8129
8.013999	 64.7943
8.032000	 64.8017
8.050000	 64.8085
8.068000	 64.8128
8.086000	 64.8338
8.103999	 64.8765
8.122000	 64.922
8.140000	 64.9511
8.158000	 64.9591
8.176000	 64.9518
8.193999	 64.9372
8.212000	 64.9184
8.230000	 64.8907
8.248000	 64.8504
8.266000	 64.804
8.283999	 64.7659
8.302000	 64.7535
8.320000	 64.7716
8.338000	 64.7981
8.356000	 64.7981
8.374000	 64.7667
8.391999	 64.7419
8.410000	 64.7558
8.428000	 64.7951
8.446000	 64.8206
8.464000	 64.806
8.481999	 64.7564
8.500000	 64.7039
8.518000	 64.6858
8.536000	 64.7097
8.554000	 64.7406
8.571999	 64.741
8.590000	 64.7181
8.608000	 64.7117
8.626000	 64.7436
8.644000	 64.7934
8.661999	 64.8171
8.680000	 64.7922
8.698000	 64.7478
8.716000	 64.7335
8.734000	 64.7617
8.751999	 64.7937
8.770000	 64.7916
8.788000	 64.7649
8.806000	 64.7505
8.824000	 64.766
8.842000	 64.802
8.859999	 64.8455
8.878000	 64.888
8.896000	 64.9185
8.914000	 64.9215
8.932000	 64.8884
8.949999	 64.828
8.968000	 64.7613
8.986000	 64.7047
9.004000	 64.6638
9.022000	 64.6458
9.039999	 64.6616
9.058000	 64.7115
9.076000	 64.7746
9.094000	 64.8204
9.112000	 64.8333
9.129999	 64.8204
9.148000	 64.7928
9.166000	 64.7524
9.184000	 64.6979
9.202000	 64.6375
9.219999	 64.5883
9.238000	 64.5672
9.256000	 64.5803
9.274000	 64.6158
9.292000	 64.6469
9.310000	 64.6537
9.327999	 64.6413
9.346000	 64.6335
9.364000	 64.6489
9.382000	 64.6833
9.400000	 64.7165
9.418000	 64.7325
9.436000	 64.7306
9.454000	 64.7185
9.472000	 64.7016
9.490000	 64.6804
9.508000	 64.6523
9.526000	 64.6143
9.544000	 64.5696
9.561999	 64.5318
9.580000	 64.5215
9.598000	 64.5517
9.616000	 64.6163
9.634000	 64.688
9.652000	 64.7325
9.670000	 64.7288
9.688000	 64.6824
9.706000	 64.6219
9.724000	 64.5828
9.742000	 64.5888
9.760000	 64.6416
9.778000	 64.7224
9.795999	 64.8047
9.814000	 64.8656
9.832000	 64.8916
9.850000	 64.8805
9.868000	 64.8387
9.886000	 64.7801
9.904000	 64.7209
9.922000	 64.6729
9.940000	 64.641
9.958000	 64.6254
9.976000	 64.6225
9.994000	 64.6254
10.012	64.6227
10.03	64.6017
10.048	64.5532
10.066	64.4823
10.084	64.4103
10.102	64.3694
10.12	64.3881
10.138	64.4762
10.156	64.6157
10.174	64.7676
10.192	64.8878
10.21	64.9465
10.228	64.9412
10.246	64.8915
10.264	64.821
10.282	64.7413
10.3	64.6493
10.318	64.5392
10.336	64.4172
10.354	64.3063
10.372	64.2369
10.39	64.2303
10.408	64.2816
10.426	64.3619
10.444	64.4317
10.462	64.4673
10.48	64.4695
10.498	64.4586
10.516	64.4536
10.534	64.4589
10.552	64.4657
10.57	64.4677
10.588	64.4713
10.606	64.4935
10.624	64.5455
10.642	64.6151
10.66	64.6703
10.678	64.6765
10.696	64.6243
10.714	64.535
10.732	64.4494
10.75	64.3988
10.768	64.3928
10.786	64.417
10.804	64.4467
10.822	64.466
10.84	64.4734
10.858	64.4815
10.876	64.5041
10.894	64.5437
10.912	64.5886
10.93	64.6182
10.948	64.6153
10.966	64.5755
10.984	64.5087
11.002	64.4319
11.02	64.3578
11.038	64.2862
11.056	64.2048
11.074	64.1005
11.092	63.9736
11.11	63.8434
11.128	63.7405
11.146	63.6902
11.164	63.6995
11.182	63.7553
11.2	63.8312
11.218	63.9039
11.236	63.9612
11.254	64.0056
11.272	64.0509
11.29	64.1129
11.308	64.2009
11.326	64.3144
11.344	64.4429
11.362	64.5686
11.38	64.6702
11.398	64.7302
11.416	64.7378
11.434	64.6937
11.452	64.6112
11.47	64.5111
11.488	64.4132
11.506	64.3327
11.524	64.2767
11.542	64.2453
11.56	64.2356
11.578	64.2436
11.596	64.2666
11.614	64.3007
11.632	64.343
11.65	64.3893
11.668	64.4343
11.686	64.4731
11.704	64.501
11.722	64.5145
11.74	64.5123
11.758	64.4955
11.776	64.4682
11.794	64.4388
11.812	64.4168
11.83	64.4102
11.848	64.4217
11.866	64.4467
11.884	64.4749
11.902	64.4928
11.92	64.4912
11.938	64.468
11.956	64.4295
11.974	64.3884
11.992	64.3586
12.01	64.3497
12.028	64.3642
12.046	64.3964
12.064	64.4343
12.082	64.4646
12.1	64.4753
12.118	64.4587
12.136	64.4133
12.154	64.3422
12.172	64.2522
12.19	64.1531
12.208	64.0555
12.226	63.9697
12.244	63.9035
12.262	63.8626
12.28	63.8483
12.298	63.8576
12.316	63.8839
12.334	63.9191
12.352	63.9552
12.37	63.9864
12.388	64.0096
12.406	64.0247
12.424	64.0333
12.442	64.0371
12.46	64.0371
12.478	64.0333
12.496	64.0249
12.514	64.0106
12.532	63.9899
12.55	63.9625
12.568	63.9297
12.586	63.8934
12.604	63.8569
12.622	63.8238
12.64	63.7975
12.658	63.7803
12.676	63.7738
12.694	63.7785
12.712	63.7935
12.73	63.8173
12.748	63.8476
12.766	63.8811
12.784	63.9142
12.802	63.9428
12.82	63.9628
12.838	63.9714
12.856	63.9663
12.874	63.947
12.892	63.9144
12.91	63.8707
12.928	63.8192
12.946	63.7637
12.964	63.7085
12.982	63.6581
13	63.6164
13.018	63.587
13.036	63.5721
13.054	63.5727
13.072	63.5877
13.09	63.6147
13.108	63.6497
13.126	63.6877
13.144	63.7237
13.162	63.7531
13.18	63.7722
13.198	63.7794
13.216	63.7744
13.234	63.7583
13.252	63.7335
13.27	63.7028
13.288	63.6693
13.306	63.6354
13.324	63.6029
13.342	63.5728
13.36	63.5449
13.378	63.5183
13.396	63.4918
13.414	63.4643
13.432	63.4358
13.45	63.4072
13.468	63.3807
13.486	63.3591
13.504	63.3453
13.522	63.3414
13.54	63.3483
13.558	63.3653
13.576	63.3901
13.594	63.4194
13.612	63.4492
13.63	63.476
13.648	63.4976
13.666	63.5132
13.684	63.523
13.702	63.5282
13.72	63.5306
13.738	63.5322
13.756	63.5341
13.774	63.5372
13.792	63.542
13.81	63.549
13.828	63.5585
13.846	63.5704
13.864	63.5842
13.882	63.5983
13.9	63.6107
13.918	63.6189
13.936	63.6203
13.954	63.6127
13.972	63.5952
13.99	63.5681
14.008	63.5331
14.026	63.493
14.044	63.4512
14.062	63.4109
14.08	63.3743
14.098	63.342
14.116	63.3129
14.134	63.285
14.152	63.2556
14.17	63.222
14.188	63.1824
14.206	63.136
14.224	63.0837
14.242	63.0277
14.26	62.9716
14.278	62.9186
14.296	62.8723
14.314	62.836
14.332	62.812
14.35	62.8022
14.368	62.807
14.386	62.8255
14.404	62.8555
14.422	62.8933
14.44	62.9342
14.458	62.9732
14.476	63.0056
14.494	63.0272
14.512	63.0351
14.53	63.0284
14.548	63.0083
14.566	62.9777
14.584	62.9406
14.602	62.9015
14.62	62.8652
14.638	62.8359
14.656	62.8163
14.674	62.8073
14.692	62.8086
14.71	62.8184
14.728	62.8343
14.746	62.8532
14.764	62.872
14.782	62.8886
14.8	62.9015
14.818	62.9099
14.836	62.9138
14.854	62.9137
14.872	62.9107
14.89	62.9061
14.908	62.9012
14.926	62.8974
14.944	62.8959
14.962	62.8974
14.98	62.9018
14.998	62.9084
15.016	62.9162
15.034	62.9237
15.052	62.9289
15.07	62.9305
15.088	62.9271
15.106	62.918
15.124	62.9029
15.142	62.8823
15.16	62.857
15.178	62.8284
15.196	62.7976
15.214	62.7661
15.232	62.7351
15.25	62.7057
15.268	62.6784
15.286	62.6539
15.304	62.6323
15.322	62.6134
15.34	62.5968
15.358	62.5818
15.376	62.5675
15.394	62.5529
15.412	62.5374
15.43	62.5201
15.448	62.5007
15.466	62.479
15.484	62.4554
15.502	62.4308
15.52	62.4067
15.538	62.385
15.556	62.3676
15.574	62.3563
15.592	62.3529
15.61	62.3583
15.628	62.3725
15.646	62.395
15.664	62.4241
15.682	62.4572
15.7	62.4919
15.718	62.5251
15.736	62.5534
15.754	62.5748
15.772	62.5876
15.79	62.5905
15.808	62.5838
15.826	62.568
15.844	62.5443
15.862	62.5147
15.88	62.4813
15.898	62.4458
15.916	62.4102
15.934	62.3761
15.952	62.3444
15.97	62.3159
15.988	62.2912
16.006	62.2703
16.024	62.2531
16.042	62.2396
16.06	62.2294
16.078	62.2222
16.096	62.2173
16.114	62.214
16.132	62.2117
16.15	62.2095
16.168	62.2067
16.186	62.2027
16.204	62.1972
16.222	62.1902
16.24	62.1821
16.258	62.1733
16.276	62.1651
16.294	62.1585
16.312	62.1545
16.33	62.1545
16.348	62.1591
16.366	62.1688
16.384	62.1839
16.402	62.2042
16.42	62.2294
16.438	62.2585
16.456	62.2905
16.474	62.3243
16.492	62.3584
16.51	62.3915
16.528	62.4224
16.546	62.4496
16.564	62.4719
16.582	62.4886
16.6	62.4988
16.618	62.5021
16.636	62.4982
16.654	62.4871
16.672	62.4695
16.69	62.4458
16.708	62.417
16.726	62.3845
16.744	62.3493
16.762	62.3136
16.78	62.2786
16.798	62.246
16.816	62.2179
16.834	62.1949
16.852	62.1785
16.87	62.1692
16.888	62.1671
16.906	62.1717
16.924	62.1819
16.942	62.1969
16.96	62.214
16.978	62.2317
16.996	62.2477
17.014	62.2595
17.032	62.266
17.05	62.2651
17.068	62.2565
17.086	62.2396
17.104	62.2151
17.122	62.1838
17.14	62.1473
17.158	62.1077
17.176	62.0663
17.194	62.0264
17.212	61.9891
17.23	61.9564
17.248	61.9297
17.266	61.9097
17.284	61.8969
17.302	61.891
17.32	61.8918
17.338	61.898
17.356	61.9089
17.374	61.9228
17.392	61.9389
17.41	61.9558
17.428	61.9725
17.446	61.9884
17.464	62.0023
17.482	62.0142
17.5	62.0233
17.518	62.0295
17.536	62.0326
17.554	62.0324
17.572	62.0288
17.59	62.0218
17.608	62.0112
17.626	61.9969
17.644	61.9792
17.662	61.9578
17.68	61.9335
17.698	61.9063
17.716	61.8767
17.734	61.8455
17.752	61.8131
17.77	61.7805
17.788	61.7479
17.806	61.7166
17.824	61.6866
17.842	61.6588
17.86	61.6333
17.878	61.6104
17.896	61.5901
17.914	61.5723
17.932	61.5568
17.95	61.5433
17.968	61.5315
17.986	61.521
18.004	61.5115
18.022	61.5026
18.04	61.4942
18.058	61.4859
18.076	61.4776
18.094	61.4689
18.112	61.4601
18.13	61.451
18.148	61.4417
18.166	61.4321
18.184	61.4225
18.202	61.4126
18.22	61.4029
18.238	61.3935
18.256	61.385
18.274	61.3776
18.292	61.372
18.31	61.3685
18.328	61.3677
18.346	61.3699
18.364	61.3758
18.382	61.3854
18.4	61.3991
18.418	61.4166
18.436	61.4378
18.454	61.4617
18.472	61.4881
18.49	61.5154
18.508	61.5435
18.526	61.5701
18.544	61.5951
18.562	61.6163
18.58	61.6335
18.598	61.645
18.616	61.6508
18.634	61.65
18.652	61.6428
18.67	61.6294
18.688	61.6101
18.706	61.5861
18.724	61.5582
18.742	61.528
18.76	61.4965
18.778	61.4653
18.796	61.4353
18.814	61.4081
18.832	61.3843
18.85	61.3651
18.868	61.3503
18.886	61.3406
18.904	61.3348
18.922	61.333
18.94	61.3334
18.958	61.3354
18.976	61.3369
18.994	61.3368
19.012	61.3333
19.03	61.3249
19.048	61.3103
19.066	61.2881
19.084	61.2579
19.102	61.2186
19.12	61.1708
19.138	61.114
19.156	61.0494
19.174	60.9776
19.192	60.8999
19.21	60.8178
19.228	60.7325
19.246	60.6465
19.264	60.5602
19.282	60.4766
19.3	60.3958
19.318	60.3203
19.336	60.2501
19.354	60.1867
19.372	60.1301
19.39	60.0807
19.408	60.0385
19.426	60.0028
19.444	59.9738
19.462	59.9496
19.48	59.9303
19.498	59.9142
19.516	59.9011
19.534	59.8894
19.552	59.8782
19.57	59.8672
19.588	59.8558
19.606	59.8442
19.624	59.8323
19.642	59.8207
19.66	59.8106
19.678	59.8021
19.696	59.7974
19.714	59.7962
19.732	59.801
19.75	59.8116
19.768	59.8293
19.786	59.8544
19.804	59.8868
19.822	59.9267
19.84	59.9729
19.858	60.0247
19.876	60.081
19.894	60.1395
19.912	60.2001
19.93	60.259
19.948	60.3167
19.966	60.3695
19.984	60.4175
20.002	60.4586
20.02	60.4921
20.038	60.5175
20.056	60.5337
20.074	60.5413
20.092	60.5401
20.11	60.5303
20.128	60.5133
20.146	60.4887
20.164	60.4587
20.182	60.4235
20.2	60.3847
20.218	60.3439
20.236	60.3015
20.254	60.2601
20.272	60.2193
20.29	60.1821
20.308	60.1481
20.326	60.1191
20.344	60.0957
20.362	60.0781
20.38	60.0673
20.398	60.063
20.416	60.0647
20.434	60.0726
20.452	60.0855
20.47	60.1036
20.488	60.1252
20.506	60.1492
20.524	60.1754
20.542	60.201
20.56	60.2265
20.578	60.2492
20.596	60.2688
20.614	60.2844
20.632	60.2943
20.65	60.299
20.668	60.2974
20.686	60.2894
20.704	60.2753
20.722	60.2548
20.74	60.2285
20.758	60.1976
20.776	60.1618
20.794	60.1233
20.812	60.0818
20.83	60.0391
20.848	59.9966
20.866	59.9543
20.884	59.9149
20.902	59.8779
20.92	59.845
20.938	59.8169
20.956	59.7937
20.974	59.7765
20.992	59.7651
21.01	59.7592
21.028	59.759
21.046	59.7637
21.064	59.7722
21.082	59.7849
21.1	59.7991
21.118	59.8151
21.136	59.8312
21.154	59.8454
21.172	59.8582
21.19	59.8672
21.208	59.8722
21.226	59.8729
21.244	59.8679
21.262	59.8578
21.28	59.8423
21.298	59.8212
21.316	59.7952
21.334	59.7649
21.352	59.7303
21.37	59.6933
21.388	59.6538
21.406	59.613
21.424	59.573
21.442	59.5332
21.46	59.4956
21.478	59.4607
21.496	59.4287
21.514	59.4011
21.532	59.3774
21.55	59.3586
21.568	59.3452
21.586	59.3369
21.604	59.3339
21.622	59.3363
21.64	59.3438
21.658	59.3564
21.676	59.3739
21.694	59.3952
21.712	59.4206
21.73	59.4494
21.748	59.4802
21.766	59.5137
21.784	59.548
21.802	59.5826
21.82	59.6175
21.838	59.6504
21.856	59.6819
21.874	59.7108
21.892	59.7358
21.91	59.7576
21.928	59.7745
21.946	59.786
21.964	59.7924
21.982	59.793
22	59.7876
22.018	59.7768
22.036	59.7607
22.054	59.7391
22.072	59.7134
22.09	59.684
22.108	59.6508
22.126	59.616
22.144	59.5793
22.162	59.5415
22.18	59.5049
22.198	59.4686
22.216	59.4343
22.234	59.4037
22.252	59.3759
22.27	59.3523
22.288	59.3334
22.306	59.3187
22.324	59.3083
22.342	59.3025
22.36	59.3005
22.378	59.3011
22.396	59.3051
22.414	59.3106
22.432	59.3162
22.45	59.3227
22.468	59.3275
22.486	59.3295
22.504	59.3292
22.522	59.3241
22.54	59.3135
22.558	59.2977
22.576	59.2747
22.594	59.2444
22.612	59.2068
22.63	59.1612
22.648	59.1073
22.666	59.0457
22.684	58.9766
22.702	58.8995
22.72	58.8156
22.738	58.7259
22.756	58.6297
22.774	58.5288
22.792	58.4241
22.81	58.315
22.828	58.2038
22.846	58.0914
22.864	57.9772
22.882	57.8634
22.9	57.7505
22.918	57.6382
22.936	57.5289
22.954	57.4226
22.972	57.3193
22.99	57.2209
23.008	57.1271
23.026	57.0381
23.044	56.9558
23.062	56.8797
23.08	56.8102
23.098	56.7487
23.116	56.6947
23.134	56.6486
23.152	56.6118
23.17	56.5841
23.188	56.5654
23.206	56.5564
23.224	56.5569
23.242	56.5669
23.26	56.5868
23.278	56.6169
23.296	56.6566
23.314	56.7052
23.332	56.7629
23.35	56.8293
23.368	56.9036
23.386	56.9863
23.404	57.0766
23.422	57.1732
23.44	57.2765
23.458	57.3861
23.476	57.5005
23.494	57.6201
23.512	57.7446
23.53	57.8722
23.548	58.0029
23.566	58.1366
23.584	58.272
23.602	58.4088
23.62	58.5472
23.638	58.6861
23.656	58.8252
23.674	58.9648
23.692	59.1036
23.71	59.241
23.728	59.3776
23.746	59.5118
23.764	59.6427
23.782	59.7714
23.8	59.8957
23.818	60.0141
23.836	60.128
23.854	60.2354
23.872	60.3341
23.89	60.4254
23.908	60.5081
23.926	60.5794
23.944	60.6401
23.962	60.6899
23.98	60.7267
23.998	60.7502
24.016	60.7609
24.034	60.7582
24.052	60.7415
24.07	60.711
24.088	60.6677
24.106	60.6121
24.124	60.5429
24.142	60.463
24.16	60.3749
24.178	60.2765
24.196	60.1702
24.214	60.0604
24.232	59.9458
24.25	59.8269
24.268	59.7093
24.286	59.5948
24.304	59.4809
24.322	59.3723
24.34	59.2724
24.358	59.1789
24.376	59.0934
24.394	59.0182
24.412	58.9533
24.43	58.8978
24.448	58.8517
24.466	58.8154
24.484	58.7888
24.502	58.7695
24.52	58.7563
24.538	58.7509
24.556	58.7505
24.574	58.752
24.592	58.7576
24.61	58.7654
24.628	58.7708
24.646	58.7723
24.664	58.7719
24.682	58.767
24.7	58.7554
24.718	58.738
24.736	58.7152
24.754	58.6874
24.772	58.6528
24.79	58.613
24.808	58.572
24.826	58.5311
24.844	58.4875
24.862	58.4464
24.88	58.4132
24.898	58.3838
24.916	58.361
24.934	58.352
24.952	58.3587
24.97	58.3776
24.988	58.4143
25.006	58.4744
25.024	58.555
25.042	58.657
25.06	58.7836
25.078	58.9366
25.096	59.1142
25.114	59.3155
25.132	59.54
25.15	59.7902
25.168	60.0624
25.186	60.3509
25.204	60.6559
25.222	60.9801
25.24	61.3143
25.258	61.6503
25.276	61.9953
25.294	62.3442
25.312	62.6859
25.33	63.0169
25.348	63.3437
25.366	63.6573
25.384	63.9484
25.402	64.2213
25.42	64.4751
25.438	64.7023
25.456	64.8979
25.474	65.0668
25.492	65.2062
25.51	65.3122
25.528	65.3838
25.546	65.4229
25.564	65.4303
25.582	65.4063
25.6	65.3485
25.618	65.2603
25.636	65.147
25.654	65.0098
25.672	64.8448
25.69	64.659
25.708	64.4598
25.726	64.2439
25.744	64.0113
25.762	63.7708
25.78	63.5296
25.798	63.2808
25.816	63.0289
25.834	62.782
25.852	62.5437
25.87	62.3079
25.888	62.0811
25.906	61.8706
25.924	61.6764
25.942	61.4956
25.96	61.333
25.978	61.1932
25.996	61.0733
26.014	60.9739
26.032	60.8987
26.05	60.8504
26.068	60.8253
26.086	60.826
26.104	60.8565
26.122	60.9184
26.14	61.0083
26.158	61.1295
26.176	61.286
26.194	61.4787
26.212	61.7053
26.23	61.9669
26.248	62.2647
26.266	62.5987
26.284	62.9682
26.302	63.3729
26.32	63.8125
26.338	64.288
26.356	64.7983
26.374	65.3413
26.392	65.9153
26.41	66.5233
26.428	67.1626
26.446	67.8285
26.464	68.5186
26.482	69.2383
26.5	69.9819
26.518	70.742
26.536	71.515
26.554	72.3086
26.572	73.1149
26.59	73.9241
26.608	74.7326
26.626	75.549
26.644	76.3645
26.662	77.1686
26.68	77.9588
26.698	78.7436
26.716	79.5132
26.734	80.2571
26.752	80.9728
26.77	81.6686
26.788	82.3357
26.806	82.9647
26.824	83.5535
26.842	84.1092
26.86	84.625
26.878	85.0939
26.896	85.5134
26.914	85.8884
26.932	86.2169
26.95	86.4963
26.968	86.7228
26.986	86.896
27.004	87.025
27.022	87.1187
27.028	87.1398