File: Bakgrunnsmateriale/MATLAB/FTIR/ftir_data/LPE454/Mapping_121/LPE454_t01.asc
PE IR       SPECTRUM    SPECTRUM    ASCII       PEDS        1.60
  -1
LPE454~4.ASC
17/05/19
14:29:21.00
17/05/19
14:29:46.00
tln
$LPE454_t0001$<tbV0>[13.0,-13.0,8.0,0.0,27,1,0]
27.028
64

2002,4.07
MIRTGS : RIGHTBACK : INTERNAL 2
MIR : ON : INTERNAL 2
OPTKBR

0.200000
8
8.000000
FILLER
RATIO
SPECTRUM
UNLOCKED 256

DOUBLE
64
COMBINED
1
0
0

0.002000
RATIO

1
0
TRUE
51149
0
LEFT NOT FITTED RIGHT NOT FITTED 0
NONE
NONE
15600
12
4.427000
51148
TRUE
1 0 8 72 0 0 0 0

15798

#HDR
-1
-1
#GR
µM
%T
2.38419e-05
0.0
2.000000
0.002000
12515
8
46.0631
-35.7296
#DATA
2.000000	 0.215363
2.018000	 0.128875
2.036000	 -0.268453
2.054000	 0.346221
2.072000	 1.088369
2.090000	 0.360841
2.108000	 -0.192198
2.126000	 0.101740
2.144000	 -0.052877
2.162000	 -0.157754
2.180000	 -0.255340
2.198000	 -0.280885
2.216000	 0.185583
2.234000	 0.325852
2.252000	 0.954859
2.270000	 -0.402964
2.288000	 -0.414547
2.306000	 0.504576
2.324000	 0.222559
2.342000	 0.179900
2.360000	 0.043380
2.378000	 0.054230
2.396000	 0.282416
2.414000	 0.397390
2.432000	 0.391938
2.450000	 0.087891
2.468000	 -0.090248
2.486000	 0.041410
2.504000	 0.024423
2.522000	 0.117561
2.540000	 0.061203
2.558000	 -0.113636
2.576000	 -0.015543
2.594000	 0.006436
2.612000	 0.065306
2.630000	 -0.027264
2.648000	 0.012423
2.666000	 -0.048152
2.684000	 0.158547
2.702000	 0.299613
2.720000	 -0.027266
2.738000	 0.083367
2.756000	 0.042221
2.774000	 0.098949
2.792000	 0.040337
2.810000	 0.093845
2.828000	 0.012434
2.846000	 0.054922
2.864000	 0.092511
2.882000	 0.092632
2.900000	 -0.004837
2.918000	 0.192017
2.936000	 0.088585
2.954000	 -0.071373
2.972000	 0.017616
2.990000	 0.089143
3.008000	 0.093420
3.026000	 0.017373
3.044000	 0.119497
3.062000	 0.044782
3.080000	 -0.061679
3.098000	 0.040127
3.116000	 0.204818
3.134000	 0.076666
3.152000	 0.014142
3.170000	 0.007055
3.188000	 0.113218
3.206000	 0.219813
3.224000	 0.044823
3.242000	 -0.072269
3.260000	 -0.055843
3.278000	 0.180938
3.296000	 -0.036598
3.314000	 0.093381
3.332000	 0.063071
3.350000	 -0.000738
3.368000	 -0.001374
3.386000	 -0.103541
3.404000	 0.128870
3.422000	 -0.081573
3.440000	 -0.025479
3.458000	 0.054104
3.476000	 -0.004542
3.494000	 0.155318
3.512000	 0.197916
3.530000	 0.020102
3.548000	 0.055555
3.566000	 0.086177
3.584000	 0.036046
3.602000	 0.066423
3.620000	 0.005759
3.638000	 0.051305
3.656000	 -0.024770
3.674000	 0.125027
3.692000	 -0.073148
3.710000	 0.047438
3.728000	 -0.038320
3.746000	 0.140540
3.764000	 0.089952
3.782000	 -0.018555
3.800000	 0.085290
3.818000	 0.079946
3.836000	 0.048123
3.854000	 -0.009409
3.872000	 -0.042191
3.890000	 0.072462
3.908000	 0.024292
3.926000	 0.024853
3.944000	 -0.002258
3.962000	 -0.064557
3.980000	 0.030656
3.998000	 0.287827
4.016000	 0.198378
4.034000	 0.111876
4.052000	 -0.019870
4.070000	 -0.000513
4.088000	 -0.055810
4.106000	 0.050117
4.124000	 -0.070403
4.141999	 0.135193
4.160000	 0.074268
4.178000	 -0.128742
4.196000	 0.029728
4.214000	 0.041802
4.232000	 0.005118
4.250000	 -0.001738
4.268000	 0.026881
4.286000	 0.049277
4.304000	 0.092948
4.322000	 0.070360
4.340000	 0.046588
4.358000	 0.066595
4.375999	 0.170776
4.394000	 0.098029
4.412000	 0.158209
4.430000	 0.165383
4.448000	 0.124515
4.466000	 0.219142
4.484000	 0.347110
4.502000	 0.495124
4.520000	 0.588450
4.538000	 0.667721
4.556000	 0.703816
4.574000	 0.894626
4.592000	 1.082736
4.609999	 1.082118
4.628000	 1.341975
4.646000	 1.595521
4.664000	 1.545051
4.682000	 1.866772
4.700000	 2.110559
4.718000	 2.294308
4.736000	 2.489769
4.754000	 2.741074
4.772000	 2.938308
4.790000	 3.374891
4.808000	 3.554192
4.826000	 3.467027
4.843999	 3.852329
4.862000	 3.835874
4.880000	 4.053495
4.898000	 4.208224
4.916000	 4.384573
4.934000	 4.609298
4.952000	 4.757800
4.970000	 4.913732
4.988000	 5.042887
5.006000	 5.181645
5.024000	 5.332236
5.042000	 5.497593
5.060000	 5.628629
5.077999	 5.635318
5.096000	 5.748107
5.114000	 5.862581
5.132000	 5.895837
5.150000	 6.080663
5.168000	 6.108886
5.186000	 6.190108
5.204000	 6.199695
5.222000	 6.334273
5.240000	 6.406082
5.258000	 6.504869
5.276000	 6.485601
5.294000	 6.578261
5.312000	 6.604296
5.330000	 6.618159
5.348000	 6.643604
5.366000	 6.726126
5.384000	 6.776504
5.402000	 6.758522
5.420000	 6.764231
5.438000	 6.730804
5.456000	 6.808978
5.474000	 6.849711
5.492000	 6.834878
5.510000	 6.824390
5.528000	 6.806822
5.546000	 6.835501
5.564000	 6.915898
5.582000	 6.981096
5.600000	 6.957494
5.618000	 6.993024
5.636000	 6.992362
5.654000	 6.982546
5.672000	 7.058986
5.690000	 7.061396
5.708000	 7.165828
5.726000	 7.138323
5.744000	 7.089309
5.762000	 7.089875
5.780000	 7.106065
5.798000	 7.226917
5.816000	 7.177023
5.834000	 7.147290
5.852000	 7.260714
5.870000	 7.350135
5.888000	 7.283687
5.906000	 7.215599
5.923999	 7.252872
5.942000	 7.360569
5.960000	 7.352114
5.978000	 7.330978
5.996000	 7.268321
6.014000	 7.294006
6.032000	 7.393442
6.050000	 7.380175
6.068000	 7.305172
6.086000	 7.256370
6.104000	 7.261230
6.122000	 7.319162
6.140000	 7.383156
6.158000	 7.389886
6.176000	 7.339870
6.194000	 7.283489
6.212000	 7.239679
6.230000	 7.279823
6.248000	 7.349929
6.266000	 7.377457
6.284000	 7.339820
6.302000	 7.311396
6.320000	 7.315580
6.338000	 7.336110
6.356000	 7.388167
6.374000	 7.418809
6.392000	 7.440352
6.410000	 7.428659
6.428000	 7.403960
6.446000	 7.403727
6.464000	 7.382036
6.482000	 7.410003
6.500000	 7.441001
6.518000	 7.358327
6.536000	 7.264498
6.554000	 7.275699
6.572000	 7.338301
6.590000	 7.345744
6.608000	 7.380537
6.626000	 7.463443
6.644000	 7.473350
6.662000	 7.466984
6.680000	 7.466988
6.698000	 7.383292
6.716000	 7.265595
6.734000	 7.237010
6.752000	 7.358398
6.770000	 7.503555
6.788000	 7.527117
6.806000	 7.456867
6.824000	 7.353652
6.842000	 7.319935
6.860000	 7.432460
6.878000	 7.562257
6.896000	 7.554136
6.914000	 7.478997
6.932000	 7.482785
6.950000	 7.543461
6.968000	 7.555077
6.986000	 7.510309
7.004000	 7.458759
7.022000	 7.443147
7.040000	 7.467861
7.058000	 7.476769
7.076000	 7.468599
7.094000	 7.488814
7.112000	 7.508409
7.130000	 7.495522
7.148000	 7.481946
7.166000	 7.484590
7.184000	 7.497976
7.202000	 7.514485
7.220000	 7.490960
7.238000	 7.415156
7.256000	 7.373666
7.274000	 7.418290
7.292000	 7.480993
7.310000	 7.507835
7.328000	 7.532045
7.346000	 7.564460
7.364000	 7.544688
7.382000	 7.469371
7.400000	 7.438493
7.418000	 7.482925
7.436000	 7.507126
7.454000	 7.465137
7.472000	 7.427656
7.490000	 7.450415
7.508000	 7.490967
7.526000	 7.470904
7.544000	 7.390752
7.562000	 7.338773
7.580000	 7.372326
7.598000	 7.438591
7.616000	 7.448778
7.634000	 7.399977
7.652000	 7.366748
7.670000	 7.394110
7.688000	 7.457838
7.706000	 7.505450
7.724000	 7.494349
7.742000	 7.428052
7.760000	 7.352485
7.778000	 7.308551
7.796000	 7.315040
7.814000	 7.368592
7.832000	 7.427771
7.850000	 7.449461
7.868000	 7.445532
7.886000	 7.445409
7.904000	 7.443199
7.922000	 7.428160
7.940000	 7.415047
7.958000	 7.411966
7.976000	 7.403746
7.994000	 7.381967
8.012000	 7.360434
8.030000	 7.358128
8.048000	 7.379885
8.065999	 7.411549
8.084000	 7.429770
8.102000	 7.420358
8.120000	 7.389478
8.138000	 7.348801
8.155999	 7.301900
8.173999	 7.264047
8.192000	 7.269928
8.210000	 7.328926
8.228000	 7.396497
8.246000	 7.422178
8.263999	 7.407385
8.282000	 7.390978
8.300000	 7.403651
8.318000	 7.454202
8.336000	 7.533224
8.353999	 7.619786
8.372000	 7.684718
8.390000	 7.695553
8.408000	 7.639671
8.426000	 7.548001
8.443999	 7.476671
8.462000	 7.453054
8.480000	 7.456577
8.498000	 7.463399
8.516000	 7.473527
8.533999	 7.487236
8.552000	 7.490598
8.570000	 7.471772
8.588000	 7.434168
8.606000	 7.389181
8.624000	 7.349900
8.641999	 7.332335
8.660000	 7.343230
8.678000	 7.373726
8.696000	 7.411906
8.714000	 7.449513
8.731999	 7.471207
8.750000	 7.461787
8.768000	 7.430753
8.786000	 7.410676
8.804000	 7.417688
8.821999	 7.429923
8.840000	 7.420761
8.858000	 7.399550
8.876000	 7.397724
8.894000	 7.424898
8.911999	 7.457348
8.930000	 7.474531
8.948000	 7.481544
8.966000	 7.486536
8.984000	 7.473825
9.001999	 7.417737
9.020000	 7.318638
9.038000	 7.216068
9.056000	 7.162022
9.074000	 7.176984
9.092000	 7.232763
9.109999	 7.279411
9.128000	 7.287074
9.146000	 7.263770
9.164000	 7.235527
9.182000	 7.215723
9.199999	 7.200213
9.218000	 7.185762
9.236000	 7.177162
9.254000	 7.176119
9.272000	 7.179481
9.289999	 7.189449
9.308000	 7.215973
9.326000	 7.263987
9.344000	 7.322266
9.362000	 7.370295
9.379999	 7.396398
9.398000	 7.402502
9.416000	 7.396324
9.434000	 7.385951
9.452000	 7.383341
9.469999	 7.399512
9.488000	 7.431308
9.506000	 7.459295
9.524000	 7.463902
9.542000	 7.441254
9.560000	 7.401825
9.577999	 7.357201
9.596000	 7.311810
9.614000	 7.269678
9.632000	 7.240684
9.650000	 7.233358
9.667999	 7.241721
9.686000	 7.247047
9.704000	 7.234933
9.722000	 7.208530
9.740000	 7.185517
9.757999	 7.183554
9.776000	 7.207716
9.794000	 7.249585
9.812000	 7.293061
9.830000	 7.321986
9.847999	 7.325541
9.866000	 7.301959
9.884000	 7.261582
9.902000	 7.224149
9.920000	 7.208264
9.937999	 7.218748
9.956000	 7.243312
9.974000	 7.264743
9.992000	 7.276195
10.01	7.284849
10.028	7.300375
10.046	7.320067
10.064	7.327710
10.082	7.307171
10.1	7.257018
10.118	7.194317
10.136	7.140452
10.154	7.105697
10.172	7.085154
10.19	7.067397
10.208	7.047103
10.226	7.028856
10.244	7.022215
10.262	7.034841
10.28	7.066812
10.298	7.109880
10.316	7.150534
10.334	7.176687
10.352	7.183884
10.37	7.178124
10.388	7.172782
10.406	7.179783
10.424	7.201308
10.442	7.226327
10.46	7.237025
10.478	7.218502
10.496	7.169618
10.514	7.101938
10.532	7.034733
10.55	6.984605
10.568	6.960001
10.586	6.960278
10.604	6.979689
10.622	7.010637
10.64	7.046536
10.658	7.081013
10.676	7.107420
10.694	7.120952
10.712	7.119959
10.73	7.108745
10.748	7.096319
10.766	7.092444
10.784	7.102320
10.802	7.123789
10.82	7.147994
10.838	7.163272
10.856	7.160903
10.874	7.138171
10.892	7.099494
10.91	7.054782
10.928	7.014608
10.946	6.986436
10.964	6.971181
10.982	6.964307
11	6.958870
11.018	6.948599
11.036	6.931485
11.054	6.910433
11.072	6.891850
11.09	6.883657
11.108	6.892112
11.126	6.919438
11.144	6.962169
11.162	7.010344
11.18	7.050633
11.198	7.069140
11.216	7.057535
11.234	7.017743
11.252	6.962365
11.27	6.909246
11.288	6.876035
11.306	6.871451
11.324	6.892867
11.342	6.928798
11.36	6.965993
11.378	6.995271
11.396	7.015567
11.414	7.031869
11.432	7.049519
11.45	7.069191
11.468	7.086066
11.486	7.092510
11.504	7.083249
11.522	7.058339
11.54	7.023098
11.558	6.985809
11.576	6.954370
11.594	6.932584
11.612	6.920265
11.63	6.914055
11.648	6.910012
11.666	6.904997
11.684	6.897936
11.702	6.889837
11.72	6.882623
11.738	6.878352
11.756	6.878299
11.774	6.882862
11.792	6.891066
11.81	6.900877
11.828	6.909877
11.846	6.915987
11.864	6.918089
11.882	6.916220
11.9	6.911546
11.918	6.905387
11.936	6.898115
11.954	6.889188
11.972	6.876839
11.99	6.859182
12.008	6.834807
12.026	6.803635
12.044	6.767765
12.062	6.731452
12.08	6.700481
12.098	6.680648
12.116	6.677058
12.134	6.692203
12.152	6.725498
12.17	6.773330
12.188	6.828944
12.206	6.883468
12.224	6.927066
12.242	6.950638
12.26	6.947735
12.278	6.916196
12.296	6.859715
12.314	6.787813
12.332	6.713221
12.35	6.648840
12.368	6.604370
12.386	6.583933
12.404	6.584984
12.422	6.600157
12.44	6.620274
12.458	6.638424
12.476	6.651686
12.494	6.662680
12.512	6.677389
12.53	6.702251
12.548	6.740803
12.566	6.791568
12.584	6.848104
12.602	6.900367
12.62	6.938033
12.638	6.953518
12.656	6.944247
12.674	6.913083
12.692	6.867098
12.71	6.816039
12.728	6.769601
12.746	6.735106
12.764	6.715730
12.782	6.710664
12.8	6.715795
12.818	6.725322
12.836	6.733652
12.854	6.736822
12.872	6.733176
12.89	6.723442
12.908	6.709700
12.926	6.694771
12.944	6.680974
12.962	6.669545
12.98	6.660270
12.998	6.652174
13.016	6.644056
13.034	6.634831
13.052	6.624048
13.07	6.611818
13.088	6.598505
13.106	6.584229
13.124	6.568450
13.142	6.550299
13.16	6.529092
13.178	6.504342
13.196	6.476768
13.214	6.447631
13.232	6.418332
13.25	6.390265
13.268	6.364438
13.286	6.341059
13.304	6.319586
13.322	6.299419
13.34	6.280386
13.358	6.263576
13.376	6.251317
13.394	6.246954
13.412	6.254022
13.43	6.275810
13.448	6.314092
13.466	6.368282
13.484	6.434943
13.502	6.508192
13.52	6.580540
13.538	6.644162
13.556	6.692392
13.574	6.721074
13.592	6.729209
13.61	6.719043
13.628	6.695596
13.646	6.665543
13.664	6.635792
13.682	6.612319
13.7	6.599065
13.718	6.597950
13.736	6.608451
13.754	6.628626
13.772	6.654873
13.79	6.683335
13.808	6.709887
13.826	6.731153
13.844	6.743880
13.862	6.745298
13.88	6.733246
13.898	6.706415
13.916	6.664742
13.934	6.609611
13.952	6.543909
13.97	6.471966
13.988	6.399092
14.006	6.331002
14.024	6.272729
14.042	6.227906
14.06	6.197916
14.078	6.181993
14.096	6.177387
14.114	6.179791
14.132	6.184215
14.15	6.185921
14.168	6.181209
14.186	6.167908
14.204	6.145146
14.222	6.114277
14.24	6.077569
14.258	6.038493
14.276	6.000669
14.294	5.967730
14.312	5.942803
14.33	5.928140
14.348	5.925244
14.366	5.934807
14.384	5.956341
14.402	5.988331
14.42	6.028364
14.438	6.073289
14.456	6.119540
14.474	6.163512
14.492	6.201918
14.51	6.232070
14.528	6.252379
14.546	6.262798
14.564	6.264514
14.582	6.259786
14.6	6.251633
14.618	6.243316
14.636	6.237788
14.654	6.236763
14.672	6.240841
14.69	6.249469
14.708	6.261069
14.726	6.273281
14.744	6.283462
14.762	6.289446
14.78	6.290254
14.798	6.285991
14.816	6.277884
14.834	6.268601
14.852	6.261640
14.87	6.260574
14.888	6.268458
14.906	6.287491
14.924	6.318704
14.942	6.361552
14.96	6.413360
14.978	6.470463
14.996	6.528312
15.014	6.581635
15.032	6.624681
15.05	6.652547
15.068	6.661906
15.086	6.650613
15.104	6.617737
15.122	6.564378
15.14	6.493556
15.158	6.409094
15.176	6.315524
15.194	6.218362
15.212	6.123573
15.23	6.035621
15.248	5.958064
15.266	5.893610
15.284	5.843882
15.302	5.808741
15.32	5.787101
15.338	5.777302
15.356	5.776992
15.374	5.783241
15.392	5.794045
15.41	5.807690
15.428	5.822652
15.446	5.838321
15.464	5.854353
15.482	5.870505
15.5	5.886651
15.518	5.902369
15.536	5.916902
15.554	5.929252
15.572	5.937980
15.59	5.940973
15.608	5.936730
15.626	5.924026
15.644	5.901787
15.662	5.870242
15.68	5.830620
15.698	5.784553
15.716	5.735022
15.734	5.685994
15.752	5.640866
15.77	5.603208
15.788	5.577420
15.806	5.565972
15.824	5.570587
15.842	5.592572
15.86	5.631263
15.878	5.685060
15.896	5.752017
15.914	5.828082
15.932	5.909356
15.95	5.992448
15.968	6.073196
15.986	6.147305
16.004	6.212263
16.022	6.265606
16.04	6.305373
16.058	6.331162
16.076	6.342817
16.094	6.341195
16.112	6.327731
16.13	6.303780
16.148	6.271384
16.166	6.232800
16.184	6.189643
16.202	6.143789
16.22	6.097307
16.238	6.051471
16.256	6.007583
16.274	5.967301
16.292	5.931779
16.31	5.902086
16.328	5.879680
16.346	5.865377
16.364	5.859846
16.382	5.863737
16.4	5.876962
16.418	5.899360
16.436	5.929796
16.454	5.966376
16.472	6.007610
16.49	6.050369
16.508	6.092088
16.526	6.130767
16.544	6.163113
16.562	6.187608
16.58	6.202947
16.598	6.208223
16.616	6.203973
16.634	6.190530
16.652	6.170056
16.67	6.144091
16.688	6.114280
16.706	6.083375
16.724	6.052348
16.742	6.022621
16.76	5.994666
16.778	5.968415
16.796	5.943346
16.814	5.918481
16.832	5.893279
16.85	5.866514
16.868	5.837842
16.886	5.806835
16.904	5.773934
16.922	5.739952
16.94	5.705906
16.958	5.674020
16.976	5.645266
16.994	5.621902
17.012	5.604838
17.03	5.594899
17.048	5.592128
17.066	5.595694
17.084	5.604697
17.102	5.616237
17.12	5.629035
17.138	5.639419
17.156	5.645418
17.174	5.644906
17.192	5.635691
17.21	5.617430
17.228	5.589480
17.246	5.553103
17.264	5.508815
17.282	5.459629
17.3	5.406910
17.318	5.353850
17.336	5.303034
17.354	5.256164
17.372	5.216134
17.39	5.183411
17.408	5.159357
17.426	5.143571
17.444	5.136163
17.462	5.135417
17.48	5.140607
17.498	5.149435
17.516	5.160296
17.534	5.171678
17.552	5.181281
17.57	5.188484
17.588	5.191711
17.606	5.190931
17.624	5.185576
17.642	5.176468
17.66	5.163802
17.678	5.149115
17.696	5.132889
17.714	5.116943
17.732	5.101986
17.75	5.089106
17.768	5.078973
17.786	5.071910
17.804	5.068122
17.822	5.067404
17.84	5.069034
17.858	5.072139
17.876	5.075756
17.894	5.078371
17.912	5.079365
17.93	5.077090
17.948	5.071327
17.966	5.061298
17.984	5.047307
18.002	5.029501
18.02	5.009146
18.038	4.986907
18.056	4.965268
18.074	4.944853
18.092	4.928944
18.11	4.918006
18.128	4.914923
18.146	4.919930
18.164	4.934817
18.182	4.959307
18.2	4.993887
18.218	5.037342
18.236	5.089507
18.254	5.147667
18.272	5.211355
18.29	5.277003
18.308	5.344162
18.326	5.408851
18.344	5.470607
18.362	5.525965
18.38	5.574494
18.398	5.613840
18.416	5.643710
18.434	5.662815
18.452	5.671547
18.47	5.669591
18.488	5.658304
18.506	5.637838
18.524	5.610643
18.542	5.577039
18.56	5.540230
18.578	5.500521
18.596	5.461296
18.614	5.422770
18.632	5.388113
18.65	5.357408
18.668	5.332774
18.686	5.314175
18.704	5.302852
18.722	5.298513
18.74	5.301040
18.758	5.309974
18.776	5.324303
18.794	5.343370
18.812	5.365503
18.83	5.389986
18.848	5.414891
18.866	5.439678
18.884	5.462695
18.902	5.483699
18.92	5.501591
18.938	5.516453
18.956	5.527818
18.974	5.536034
18.992	5.541192
19.01	5.543828
19.028	5.544525
19.046	5.543784
19.064	5.542460
19.082	5.540817
19.1	5.539647
19.118	5.538940
19.136	5.539102
19.154	5.540049
19.172	5.541953
19.19	5.544575
19.208	5.547534
19.226	5.550714
19.244	5.553617
19.262	5.556107
19.28	5.557309
19.298	5.557192
19.316	5.554723
19.334	5.549947
19.352	5.541840
19.37	5.530476
19.388	5.515039
19.406	5.495549
19.424	5.471879
19.442	5.443984
19.46	5.412169
19.478	5.376267
19.496	5.337397
19.514	5.295563
19.532	5.252198
19.55	5.207780
19.568	5.163574
19.586	5.120832
19.604	5.080244
19.622	5.043846
19.64	5.011599
19.658	4.985386
19.676	4.964955
19.694	4.951399
19.712	4.944651
19.73	4.944218
19.748	4.950343
19.766	4.961267
19.784	4.977110
19.802	4.995676
19.82	5.016059
19.838	5.036863
19.856	5.055720
19.874	5.072501
19.892	5.084279
19.91	5.091459
19.928	5.091968
19.946	5.085904
19.964	5.072860
19.982	5.052466
20	5.025720
20.018	4.992737
20.036	4.954396
20.054	4.911948
20.072	4.865520
20.09	4.817355
20.108	4.767128
20.126	4.716857
20.144	4.666478
20.162	4.617224
20.18	4.569633
20.198	4.523984
20.216	4.481036
20.234	4.440731
20.252	4.404023
20.27	4.370714
20.288	4.341823
20.306	4.317188
20.324	4.297840
20.342	4.284293
20.36	4.276881
20.378	4.277027
20.396	4.284426
20.414	4.300716
20.432	4.325747
20.45	4.360281
20.468	4.404905
20.486	4.459191
20.504	4.523234
20.522	4.596858
20.54	4.678239
20.558	4.768029
20.576	4.863035
20.594	4.962589
20.612	5.065109
20.63	5.166694
20.648	5.268212
20.666	5.363914
20.684	5.454400
20.702	5.536176
20.72	5.606731
20.738	5.666204
20.756	5.710685
20.774	5.740947
20.792	5.755478
20.81	5.753549
20.828	5.736037
20.846	5.703015
20.864	5.654691
20.882	5.593990
20.9	5.520002
20.918	5.436418
20.936	5.345249
20.954	5.246838
20.972	5.146925
20.99	5.044026
21.008	4.943376
21.026	4.846726
21.044	4.754733
21.062	4.672257
21.08	4.597988
21.098	4.535543
21.116	4.485820
21.134	4.448970
21.152	4.427120
21.17	4.419771
21.188	4.426387
21.206	4.447585
21.224	4.481819
21.242	4.527185
21.26	4.584449
21.278	4.649028
21.296	4.720912
21.314	4.798147
21.332	4.876282
21.35	4.956824
21.368	5.034994
21.386	5.109736
21.404	5.180662
21.422	5.244381
21.44	5.301713
21.458	5.351411
21.476	5.392412
21.494	5.425501
21.512	5.451239
21.53	5.469063
21.548	5.480936
21.566	5.487851
21.584	5.489626
21.602	5.489682
21.62	5.487444
21.638	5.484689
21.656	5.484137
21.674	5.484790
21.692	5.488786
21.71	5.496826
21.728	5.508640
21.746	5.525268
21.764	5.546914
21.782	5.572447
21.8	5.601490
21.818	5.634167
21.836	5.667938
21.854	5.703325
21.872	5.738853
21.89	5.771311
21.908	5.801955
21.926	5.828062
21.944	5.847805
21.962	5.862019
21.98	5.868089
21.998	5.865819
22.016	5.855173
22.034	5.834852
22.052	5.804773
22.07	5.766139
22.088	5.719245
22.106	5.663870
22.124	5.603353
22.142	5.537404
22.16	5.467216
22.178	5.397906
22.196	5.327775
22.214	5.260114
22.232	5.199291
22.25	5.143049
22.268	5.096294
22.286	5.061818
22.304	5.038095
22.322	5.029514
22.34	5.036817
22.358	5.059578
22.376	5.099944
22.394	5.158149
22.412	5.233186
22.43	5.324702
22.448	5.433714
22.466	5.556516
22.484	5.690979
22.502	5.838698
22.52	5.993011
22.538	6.152039
22.556	6.316703
22.574	6.478584
22.592	6.637594
22.61	6.792928
22.628	6.936932
22.646	7.071079
22.664	7.193311
22.682	7.297977
22.7	7.386577
22.718	7.457888
22.736	7.509204
22.754	7.540830
22.772	7.554673
22.79	7.551443
22.808	7.530013
22.826	7.495281
22.844	7.449778
22.862	7.391640
22.88	7.326906
22.898	7.257900
22.916	7.182969
22.934	7.108164
22.952	7.034916
22.97	6.962202
22.988	6.895646
23.006	6.836535
23.024	6.783791
23.042	6.740165
23.06	6.706435
23.078	6.681709
23.096	6.665993
23.114	6.660348
23.132	6.663360
23.15	6.671970
23.168	6.687416
23.186	6.708099
23.204	6.729053
23.222	6.751497
23.24	6.774040
23.258	6.791267
23.276	6.803436
23.294	6.810589
23.312	6.809845
23.33	6.801292
23.348	6.785073
23.366	6.759757
23.384	6.725268
23.402	6.681862
23.42	6.629097
23.438	6.566398
23.456	6.494494
23.474	6.414784
23.492	6.326695
23.51	6.230762
23.528	6.130156
23.546	6.025315
23.564	5.915710
23.582	5.804409
23.6	5.692690
23.618	5.579475
23.636	5.466142
23.654	5.353113
23.672	5.239738
23.69	5.128180
23.708	5.019645
23.726	4.912790
23.744	4.810280
23.762	4.714269
23.78	4.622802
23.798	4.538698
23.816	4.465093
23.834	4.399696
23.852	4.345105
23.87	4.305531
23.888	4.280396
23.906	4.269362
23.924	4.273770
23.942	4.294219
23.96	4.329871
23.978	4.379848
23.996	4.444037
24.014	4.522614
24.032	4.614221
24.05	4.717770
24.068	4.833652
24.086	4.962202
24.104	5.103540
24.122	5.257021
24.14	5.423654
24.158	5.604684
24.176	5.798316
24.194	6.006383
24.212	6.232871
24.23	6.476349
24.248	6.736773
24.266	7.022448
24.284	7.337475
24.302	7.676972
24.32	8.048168
24.338	8.457943
24.356	8.901908
24.374	9.383090
24.392	9.907222
24.41	10.4759
24.428	11.0861
24.446	11.7351
24.464	12.4247
24.482	13.1562
24.5	13.9174
24.518	14.6998
24.536	15.5156
24.554	16.3473
24.572	17.1718
24.59	17.9983
24.608	18.8227
24.626	19.6193
24.644	20.3793
24.662	21.1175
24.68	21.8064
24.698	22.4211
24.716	22.9795
24.734	23.4685
24.752	23.8634
24.77	24.164
24.788	24.3769
24.806	24.4841
24.824	24.4723
24.842	24.3506
24.86	24.1172
24.878	23.7679
24.896	23.2999
24.914	22.7183
24.932	22.0298
24.95	21.2345
24.968	20.326
24.986	19.3243
25.004	18.2496
25.022	17.0889
25.04	15.8507
25.058	14.5597
25.076	13.2259
25.094	11.8353
25.112	10.4065
25.13	8.958514
25.148	7.478646
25.166	5.974475
25.184	4.467433
25.202	2.965403
25.22	1.454648
25.238	-0.044765
25.256	-1.512041
25.274	-2.959815
25.292	-4.382557
25.31	-5.757605
25.328	-7.073797
25.346	-8.348284
25.364	-9.561000
25.382	-10.6887
25.4	-11.739
25.418	-12.7137
25.436	-13.5915
25.454	-14.3568
25.472	-15.0254
25.49	-15.5867
25.508	-16.0238
25.526	-16.336
25.544	-16.5316
25.562	-16.595
25.58	-16.5115
25.598	-16.2899
25.616	-15.9285
25.634	-15.4175
25.652	-14.751
25.67	-13.9375
25.688	-12.9712
25.706	-11.8443
25.724	-10.5538
25.742	-9.104633
25.76	-7.500632
25.778	-5.744194
25.796	-3.820760
25.814	-1.746931
25.832	0.449071
25.85	2.753881
25.868	5.198362
25.886	7.741850
25.904	10.3349
25.922	12.9792
25.94	15.7027
25.958	18.4377
25.976	21.1162
25.994	23.7755
26.012	26.4127
26.03	28.9532
26.048	31.3328
26.066	33.6
26.084	35.7381
26.102	37.6994
26.12	39.4538
26.138	41.0379
26.156	42.4297
26.174	43.5985
26.192	44.5273
26.21	45.234
26.228	45.7233
26.246	45.9989
26.264	46.0568
26.282	45.898
26.3	45.5362
26.318	44.9846
26.336	44.2462
26.354	43.3154
26.372	42.1886
26.39	40.8625
26.408	39.3353
26.426	37.6125
26.444	35.7011
26.462	33.6083
26.48	31.3383
26.498	28.8829
26.516	26.2322
26.534	23.3726
26.552	20.2916
26.57	17.0224
26.588	13.6039
26.606	10.0469
26.624	6.288632
26.642	2.413843
26.66	-1.475574
26.678	-5.342378
26.696	-9.299203
26.714	-13.2179
26.732	-16.9484
26.75	-20.4417
26.768	-23.8508
26.786	-27.0051
26.804	-29.7101
26.822	-31.8824
26.84	-33.6845
26.858	-34.9943
26.876	-35.6688
26.894	-35.6327
26.912	-34.9921
26.93	-33.708
26.948	-31.7285
26.966	-28.7163
26.984	-24.2561
27.002	-19.4962
27.02	-15.6786
27.028	-14.7108