File: Bakgrunnsmateriale/MATLAB/FTIR/ftir_data/LPE454/Mapping_121/LPE454_t10_cm-1.asc
PE IR       SPECTRUM    SPECTRUM    ASCII       PEDS        1.60
  -1
LPD7B5~1.ASC
17/05/19
15:10:51.00
17/05/19
15:10:51.00
tln
$LPE454_t0010$<tbV0>[-10.4,-13.0,8.0,0.0,27,1,0]
370
64

2002,4.07
MIRTGS : RIGHTBACK : INTERNAL 2
MIR : ON : INTERNAL 2
OPTKBR

0.200000
8
8.000000
FILLER
RATIO
SPECTRUM
UNLOCKED 256

DOUBLE
64
COMBINED
1
0
0

1.000000
RATIO

1
0
TRUE
51149
0
LEFT NOT FITTED RIGHT NOT FITTED 0
NONE
NONE
15600
12
4.427000
51148
TRUE
1 0 8 72 0 0 0 0

15798

#HDR
-1
-1
#GR
CM-1
%T
2.38419e-05
0.0
5000
-1.000000
4631
8
127.368
-1.666545
#DATA
5000	0.695610
4996	0.769042
4992	0.560855
4988	0.339841
4984	0.003719
4980	-0.203919
4976	-0.158333
4972	-0.091862
4968	0.162291
4964	0.406956
4960	0.440573
4956	0.460171
4952	0.327992
4948	0.091552
4944	-0.025296
4940	-0.229763
4936	-0.536966
4932	-0.427961
4928	0.099825
4924	0.345754
4920	0.183963
4916	0.086712
4912	0.201654
4908	0.127744
4904	-0.262761
4900	-0.428891
4896	-0.300502
4892	-0.233507
4888	-0.090694
4884	0.321459
4880	0.334095
4876	-0.296211
4872	-0.761508
4868	-0.790429
4864	-0.877594
4860	-0.809335
4856	-0.433588
4852	-0.096344
4848	0.088310
4844	0.221538
4840	0.327587
4836	0.223445
4832	-0.188589
4828	-0.092959
4824	0.833773
4820	1.443815
4816	1.554656
4812	1.700615
4808	1.598238
4804	1.361393
4800	1.086378
4796	0.996017
4792	1.449275
4788	1.666307
4784	1.417303
4780	0.973534
4776	0.432491
4772	0.220751
4768	0.109076
4764	-0.072455
4760	0.107789
4756	0.484228
4752	0.411725
4748	-0.183939
4744	-0.759339
4740	-0.622272
4736	-0.113606
4732	0.182437
4728	0.374031
4724	0.442838
4720	0.296211
4716	0.070762
4712	-0.064063
4708	0.053715
4704	0.009012
4700	-0.275516
4696	-0.409269
4692	-0.348711
4688	-0.019741
4684	0.196075
4680	0.131511
4676	0.193595
4672	0.444388
4668	0.707793
4664	0.835227
4660	0.732398
4656	0.509881
4652	0.406670
4648	0.405502
4644	0.351858
4640	0.247931
4636	0.265717
4632	0.433230
4628	0.410270
4624	0.168895
4620	-0.023889
4616	-0.143647
4612	-0.061225
4608	0.246143
4604	0.393033
4600	0.377774
4596	0.390195
4592	0.358843
4588	0.461268
4584	0.512290
4580	0.188779
4576	-0.181651
4572	-0.305271
4568	-0.275993
4564	0.011253
4560	0.319695
4556	0.117993
4552	-0.362229
4548	-0.589609
4544	-0.371718
4540	-0.048780
4536	-0.290441
4532	-0.607395
4528	-0.158619
4524	0.307631
4520	0.217032
4516	-0.148272
4512	-0.341296
4508	-0.343918
4504	-0.907826
4500	-1.632046
4496	-1.295375
4492	-0.148725
4488	0.536394
4484	0.296163
4480	2.357196
4476	7.906675
4472	13.4376
4468	15.5986
4464	12.7556
4460	6.979775
4456	2.521705
4452	0.675296
4448	-0.300407
4444	-0.600671
4440	-0.398063
4436	-0.732040
4432	-0.930070
4428	-0.712156
4424	-0.680589
4420	-0.698900
4416	-0.660729
4412	-0.794720
4408	-1.001214
4404	-1.173830
4400	-1.262998
4396	-1.073741
4392	-0.589418
4388	-0.247097
4384	-0.350356
4380	-0.585412
4376	-0.590252
4372	-0.358057
4368	-0.180912
4364	-0.291299
4360	-0.452685
4356	-0.309562
4352	0.060033
4348	0.269961
4344	0.430011
4340	0.749135
4336	0.881719
4332	0.613093
4328	0.407385
4324	0.462722
4320	0.435233
4316	0.354695
4312	0.291252
4308	0.106215
4304	0.039172
4300	0.181818
4296	0.276994
4292	0.274586
4288	0.277996
4284	0.343012
4280	0.357556
4276	0.191473
4272	0.059723
4268	0.081276
4264	0.120830
4260	0.119757
4256	-0.125002
4252	-0.370264
4248	-0.113105
4244	0.278711
4240	0.260615
4236	-0.065565
4232	-0.369310
4228	-0.472593
4224	-0.225567
4220	0.198531
4216	0.322246
4212	0.169491
4208	0.048494
4204	0.011777
4200	0.024223
4196	0.236439
4192	0.603079
4188	0.535345
4184	0.010037
4180	-0.017213
4176	0.385737
4172	0.289893
4168	-0.085711
4164	-0.207376
4160	-0.241422
4156	-0.276803
4152	-0.222802
4148	-0.034785
4144	0.219202
4140	0.299215
4136	0.210976
4132	0.139164
4128	0.105214
4124	0.170898
4120	0.287699
4116	0.332617
4112	0.385165
4108	0.440359
4104	0.267267
4100	-0.062894
4096	-0.234675
4092	-0.189423
4088	-0.043821
4084	0.114798
4080	0.163936
4076	0.096988
4072	0.074553
4068	0.016260
4064	-0.140595
4060	-0.130271
4056	0.105404
4052	0.258755
4048	0.213098
4044	0.047922
4040	-0.121879
4036	-0.030732
4032	0.120830
4028	0.073313
4024	0.091147
4020	0.085949
4016	-0.062489
4012	-0.179004
4008	-0.155878
4004	-0.105142
4000	-0.070858
3996	0.024986
3992	0.100231
3988	0.175666
3984	0.226855
3980	0.157332
3976	0.075769
3972	0.037264
3968	0.055217
3964	0.182509
3960	0.251698
3956	0.173091
3952	0.139999
3948	0.201964
3944	0.245594
3940	0.191354
3936	0.041770
3932	-0.048089
3928	0.035452
3924	0.077915
3920	0.012636
3916	0.038528
3912	0.087714
3908	0.013184
3904	-0.038862
3900	-0.049519
3896	-0.108289
3892	-0.033807
3888	0.128340
3884	0.165915
3880	0.121641
3876	0.099349
3872	0.138115
3868	0.184273
3864	0.213170
3860	0.225043
3856	0.070500
3852	-0.203537
3848	-0.233244
3844	-0.062274
3840	0.027608
3836	0.081348
3832	0.215387
3828	0.349140
3824	0.305056
3820	0.131750
3816	0.033855
3812	0.056576
3808	0.071167
3804	0.024437
3800	-0.043320
3796	-0.081348
3792	-0.059771
3788	-0.061535
3784	-0.029158
3780	0.089359
3776	0.162100
3772	0.171637
3768	0.144410
3764	0.127720
3760	0.184893
3756	0.215959
3752	0.190067
3748	0.172996
3744	0.128245
3740	0.094366
3736	0.085234
3732	0.018286
3728	-0.039696
3724	0.001621
3720	0.054693
3716	0.047063
3712	0.035834
3708	0.060725
3704	0.099444
3700	0.145530
3696	0.153493
3692	0.079941
3688	0.016760
3684	0.010418
3680	0.005793
3676	-0.008511
3672	-0.006699
3668	0.015401
3664	0.082778
3660	0.143694
3656	0.116324
3652	0.095510
3648	0.119900
3644	0.114560
3640	0.093483
3636	0.051307
3632	-0.042963
3628	-0.077223
3624	-0.023102
3620	-0.001931
3616	-0.018525
3612	-0.002622
3608	0.021982
3604	-0.016283
3600	-0.026774
3596	0.031447
3592	0.050640
3588	0.008082
3584	-0.023722
3580	0.060415
3576	0.094389
3572	-0.023674
3568	-0.073719
3564	0.044035
3560	0.170469
3556	0.178861
3552	0.162339
3548	0.183534
3544	0.147080
3540	0.092697
3536	0.072979
3532	0.062465
3528	0.079298
3524	0.116705
3520	0.121045
3516	0.083947
3512	0.100541
3508	0.081419
3504	0.002884
3500	0.024008
3496	0.027036
3492	-0.029754
3488	-0.009751
3484	-0.001931
3480	-0.072002
3476	-0.072002
3472	0.064945
3468	0.239753
3464	0.308084
3460	0.222349
3456	0.130128
3452	0.090146
3448	0.091695
3444	0.174355
3440	0.173616
3436	0.044345
3432	0.006937
3428	0.045204
3424	0.019288
3420	0.024414
3416	0.096011
3412	0.115370
3408	0.068116
3404	0.025105
3400	0.030875
3396	0.105738
3392	0.182938
3388	0.170612
3384	0.189805
3380	0.256681
3376	0.244283
3372	0.146245
3368	-0.021600
3364	-0.137281
3360	-0.117921
3356	-0.053215
3352	-0.003695
3348	0.058746
3344	0.115156
3340	0.111913
3336	0.086665
3332	0.092339
3328	0.105977
3324	0.058341
3320	0.004410
3316	0.047802
3312	0.088930
3308	0.035190
3304	-0.030159
3300	-0.057411
3296	-0.113129
3292	-0.134491
3288	-0.047779
3284	0.050449
3280	0.105690
3276	0.083708
3272	-0.029993
3268	-0.160789
3264	-0.182247
3260	-0.084161
3256	0.006389
3252	0.061511
3248	0.149607
3244	0.208997
3240	0.135231
3236	-0.003552
3232	-0.031232
3228	0.013351
3224	-0.019550
3220	0.067806
3216	0.323390
3212	0.369739
3208	0.237917
3204	0.172615
3200	0.119376
3196	0.042748
3192	-0.034546
3188	-0.021529
3184	0.071215
3180	0.081133
3176	0.054216
3172	0.067210
3168	0.097894
3164	0.081086
3160	0.024509
3156	-0.003862
3152	-0.073504
3148	-0.162863
3144	-0.166916
3140	-0.072073
3136	0.102543
3132	0.241065
3128	0.138902
3124	-0.006532
3120	0.119328
3116	0.279998
3112	0.294804
3108	0.221133
3104	0.050139
3100	-0.009727
3096	0.132179
3092	0.200676
3088	0.159502
3084	0.150966
3080	0.138854
3076	0.049734
3072	-0.060153
3068	-0.032830
3064	0.089383
3060	0.140547
3056	0.155901
3052	0.188040
3048	0.120329
3044	-0.011086
3040	-0.038719
3036	0.058722
3032	0.176191
3028	0.176596
3024	0.115728
3020	0.072908
3016	0.057888
3012	0.034523
3008	-0.032210
3004	-0.060033
3000	0.011396
2996	0.091218
2992	0.069594
2988	-0.000381
2984	0.021004
2980	0.050544
2976	0.039458
2972	0.070834
2968	0.088334
2964	0.088858
2960	0.057339
2956	-0.032520
2952	-0.050997
2948	-0.005936
2944	0.002264
2940	0.008058
2936	0.046133
2932	0.069069
2928	0.059628
2924	0.012040
2920	-0.060606
2916	-0.089049
2912	-0.013852
2908	0.119161
2904	0.129914
2900	0.019431
2896	-0.033330
2892	-0.048089
2888	-0.045824
2884	0.014996
2880	0.053977
2876	0.071501
2872	0.086450
2868	0.075435
2864	0.054931
2860	0.042462
2856	0.085020
2852	0.167250
2848	0.200176
2844	0.155067
2840	0.103855
2836	0.036835
2832	-0.042438
2828	-0.009799
2824	0.091028
2820	0.133991
2816	0.066399
2812	-0.043678
2808	-0.089335
2804	-0.079393
2800	-0.026822
2796	0.006246
2792	-0.000643
2788	0.050640
2784	0.093340
2780	0.090599
2776	0.127220
2772	0.157332
2768	0.146293
2764	0.100255
2760	0.007605
2756	-0.066208
2752	-0.044751
2748	0.010752
2744	0.033950
2740	0.027585
2736	0.007629
2732	-0.025987
2728	-0.070166
2724	-0.096511
2720	-0.108528
2716	-0.118279
2712	-0.102686
2708	-0.080943
2704	-0.047111
2700	0.016403
2696	0.069522
2692	0.092482
2688	0.133728
2684	0.152897
2680	0.112247
2676	0.088477
2672	0.047993
2668	-0.001859
2664	0.043225
2660	0.097489
2656	0.109171
2652	0.103640
2648	0.062823
2644	0.010514
2640	-0.038576
2636	-0.043892
2632	-0.005054
2628	-0.024533
2624	-0.085830
2620	-0.068426
2616	0.050377
2612	0.150799
2608	0.118160
2604	0.053548
2600	0.029563
2596	-0.019931
2592	-0.067090
2588	-0.080657
2584	-0.052881
2580	0.030446
2576	0.094747
2572	0.082325
2568	0.052428
2564	0.060486
2560	0.130701
2556	0.183844
2552	0.121092
2548	0.048875
2544	0.047349
2540	0.038957
2536	-0.004768
2532	-0.032091
2528	0.028204
2524	0.162053
2520	0.205230
2516	0.145936
2512	0.079154
2508	-0.018501
2504	0.017619
2500	0.190973
2496	0.197911
2492	0.061821
2488	-0.009274
2484	-0.011277
2480	-0.030231
2476	-0.026559
2472	0.010514
2468	0.006079
2464	-0.029778
2460	-0.009918
2456	0.048255
2452	0.035405
2448	-0.049018
2444	-0.159788
2440	-0.133848
2436	0.021719
2432	0.058150
2428	0.018095
2424	0.124382
2420	0.413680
2416	0.486826
2412	0.166344
2408	-0.066947
2404	0.080299
2400	0.305223
2396	0.261855
2392	0.082612
2388	-0.000190
2384	-0.042462
2380	-0.076770
2376	-0.041270
2372	0.018739
2368	0.071668
2364	0.125169
2360	0.159192
2356	0.172257
2352	0.135540
2348	0.099444
2344	0.138425
2340	0.189900
2336	0.184822
2332	0.159120
2328	0.153613
2324	0.186705
2320	0.245857
2316	0.228929
2312	0.200152
2308	0.252795
2304	0.295305
2300	0.298619
2296	0.297355
2292	0.336027
2288	0.376629
2284	0.358366
2280	0.360417
2276	0.447845
2272	0.584650
2268	0.663733
2264	0.659990
2260	0.688266
2256	0.777959
2252	0.855970
2248	0.904583
2244	0.937795
2240	0.980591
2236	1.056003
2232	1.155066
2228	1.314783
2224	1.496052
2220	1.610016
2216	1.697397
2212	1.816630
2208	1.960372
2204	2.093768
2200	2.262639
2196	2.503967
2192	2.708983
2188	2.884745
2184	3.122520
2180	3.334736
2176	3.486371
2172	3.679227
2168	3.904747
2164	4.123759
2160	4.343700
2156	4.558563
2152	4.790210
2148	5.040740
2144	5.284500
2140	5.533289
2136	5.790495
2132	6.020593
2128	6.244397
2124	6.493425
2120	6.724071
2116	6.898736
2112	7.108020
2108	7.401680
2104	7.680249
2100	7.903242
2096	8.101725
2092	8.358573
2088	8.722329
2084	9.024262
2080	9.135484
2076	9.359383
2072	9.779024
2068	10.0275
2064	10.1701
2060	10.4611
2056	10.7723
2052	10.9536
2048	11.1011
2044	11.2822
2040	11.4816
2036	11.6666
2032	11.7676
2028	11.8695
2024	12.0861
2020	12.3398
2016	12.5293
2012	12.6909
2008	12.8921
2004	13.101
2000	13.2764
1996	13.4804
1992	13.6735
1988	13.7648
1984	13.8635
1980	14.0152
1976	14.1374
1972	14.2638
1968	14.4371
1964	14.575
1960	14.6657
1956	14.7794
1952	14.8985
1948	14.9925
1944	15.0805
1940	15.1731
1936	15.2769
1932	15.4362
1928	15.6112
1924	15.6928
1920	15.7055
1916	15.7528
1912	15.8713
1908	15.9663
1904	16.0154
1900	16.1266
1896	16.2616
1892	16.3455
1888	16.4065
1884	16.4824
1880	16.5283
1876	16.5213
1872	16.5471
1868	16.6561
1864	16.7973
1860	16.8591
1856	16.8345
1852	16.8248
1848	16.8848
1844	16.9896
1840	17.0667
1836	17.0889
1832	17.1073
1828	17.1494
1824	17.1875
1820	17.2569
1816	17.3682
1812	17.4531
1808	17.5295
1804	17.5646
1800	17.5423
1796	17.5882
1792	17.6562
1788	17.684
1784	17.7144
1780	17.7115
1776	17.7298
1772	17.8272
1768	17.9227
1764	17.9193
1760	17.8495
1756	17.8543
1752	17.925
1748	17.9591
1744	17.9748
1740	18.0428
1736	18.1297
1732	18.0899
1728	17.9405
1724	17.9206
1720	18.0806
1716	18.1665
1712	18.1001
1708	18.1257
1704	18.2788
1700	18.385
1696	18.4171
1692	18.4063
1688	18.4064
1684	18.4576
1680	18.5018
1676	18.482
1672	18.42
1668	18.3657
1664	18.3556
1660	18.4562
1656	18.598
1652	18.6421
1648	18.6376
1644	18.6466
1640	18.6685
1636	18.7032
1632	18.7112
1628	18.6771
1624	18.6194
1620	18.6321
1616	18.7659
1612	18.8562
1608	18.8142
1604	18.7532
1600	18.7627
1596	18.8169
1592	18.8572
1588	18.8964
1584	18.9353
1580	18.9163
1576	18.8731
1572	18.8879
1568	18.9368
1564	18.9831
1560	19.031
1556	18.981
1552	18.8611
1548	18.8776
1544	18.9982
1540	19.0684
1536	19.1005
1532	19.1107
1528	19.0903
1524	19.1002
1520	19.1653
1516	19.2021
1512	19.2071
1508	19.2142
1504	19.1509
1500	19.0695
1496	19.0508
1492	19.0249
1488	19.0292
1484	19.1449
1480	19.2584
1476	19.2694
1472	19.2516
1468	19.2311
1464	19.2259
1460	19.2981
1456	19.2983
1452	19.1177
1448	18.9279
1444	18.9651
1440	19.2177
1436	19.3961
1432	19.3937
1428	19.3671
1424	19.3652
1420	19.3553
1416	19.3394
1412	19.2824
1408	19.1922
1404	19.1521
1400	19.1568
1396	19.1364
1392	19.1568
1388	19.2254
1384	19.2331
1380	19.194
1376	19.1822
1372	19.2019
1368	19.228
1364	19.3032
1360	19.3894
1356	19.4228
1352	19.4553
1348	19.4715
1344	19.4818
1340	19.543
1336	19.6275
1332	19.7221
1328	19.83
1324	19.8999
1320	19.9458
1316	20.0264
1312	20.1394
1308	20.2575
1304	20.3115
1300	20.2891
1296	20.2188
1292	20.089
1288	20.0379
1284	20.1611
1280	20.2641
1276	20.254
1272	20.2808
1268	20.364
1264	20.47
1260	20.5766
1256	20.5468
1252	20.5158
1248	20.6234
1244	20.7003
1240	20.6869
1236	20.6307
1232	20.5511
1228	20.5061
1224	20.5887
1220	20.7383
1216	20.8389
1212	20.9028
1208	20.9357
1204	21
1200	21.1087
1196	21.1355
1192	21.0528
1188	21.0049
1184	21.0556
1180	21.1089
1176	21.0761
1172	20.9713
1168	20.9301
1164	21.0058
1160	21.0832
1156	21.1237
1152	21.1844
1148	21.2603
1144	21.3532
1140	21.4877
1136	21.5718
1132	21.5564
1128	21.51
1124	21.4508
1120	21.3931
1116	21.365
1112	21.4121
1108	21.5398
1104	21.7095
1100	21.7993
1096	21.8246
1092	22.0119
1088	22.1632
1084	21.9897
1080	21.7619
1076	21.726
1072	21.7194
1068	21.6094
1064	21.5128
1060	21.5552
1056	21.7108
1052	21.8448
1048	21.8425
1044	21.8346
1040	21.9683
1036	22.0719
1032	22.0671
1028	22.1602
1024	22.2681
1020	22.0836
1016	21.8016
1012	21.7476
1008	21.768
1004	21.7412
1000	21.7609
996	 21.8328
992	 21.9909
988	 22.13
984	 22.0515
980	 22.0059
976	 22.2423
972	 22.4893
968	 22.4931
964	 22.3762
960	 22.2516
956	 22.1038
952	 22.0173
948	 22.0334
944	 22.0854
940	 22.1654
936	 22.2595
932	 22.3595
928	 22.4563
924	 22.5034
920	 22.5263
916	 22.5039
912	 22.4413
908	 22.472
904	 22.55
900	 22.4671
896	 22.2728
892	 22.1683
888	 22.1642
884	 22.2934
880	 22.4827
876	 22.4302
872	 22.3976
868	 22.6362
864	 22.7421
860	 22.6358
856	 22.5109
852	 22.4124
848	 22.4047
844	 22.464
840	 22.3763
836	 22.1932
832	 22.1906
828	 22.2941
824	 22.3173
820	 22.3119
816	 22.438
812	 22.563
808	 22.5267
804	 22.5268
800	 22.6065
796	 22.6001
792	 22.41
788	 22.108
784	 21.9918
780	 22.1818
776	 22.3835
772	 22.3833
768	 22.297
764	 22.3879
760	 22.8384
756	 23.3043
752	 23.1267
748	 22.3683
744	 21.9978
740	 22.1912
736	 22.2191
732	 22.0291
728	 21.9828
724	 22.2368
720	 22.5108
716	 22.3735
712	 22.003
708	 21.9211
704	 22.1693
700	 22.3049
696	 22.301
692	 22.3464
688	 22.4355
684	 22.5274
680	 22.455
676	 22.1582
672	 21.7147
668	 21.2861
664	 21.1304
660	 21.3057
656	 21.612
652	 21.8489
648	 21.9262
644	 21.8663
640	 21.8305
636	 21.8382
632	 21.908
628	 22.0522
624	 21.7992
620	 21.2392
616	 20.946
612	 20.8695
608	 20.9277
604	 21.1296
600	 21.3319
596	 21.4509
592	 21.4291
588	 21.4837
584	 21.7247
580	 21.4309
576	 20.6777
572	 20.4974
568	 20.7501
564	 20.8046
560	 20.7942
556	 20.9139
552	 20.8009
548	 20.3959
544	 20.2092
540	 20.3478
536	 20.6574
532	 20.9518
528	 20.9743
524	 20.9265
520	 20.942
516	 20.7685
512	 20.1989
508	 19.7788
504	 20.0617
500	 20.4293
496	 20.2254
492	 19.6316
488	 19.2965
484	 19.4349
480	 19.9179
476	 20.6459
472	 21.2465
468	 21.7547
464	 21.8623
460	 21.0109
456	 19.876
452	 19.0905
448	 18.5089
444	 18.6509
440	 19.9506
436	 20.4081
432	 17.7895
428	 15.9455
424	 19.3438
420	 24.1299
416	 25.1098
412	 21.4148
408	 9.124708
404	 -0.507116
400	 11.1821
396	 21.3587
392	 10.3403
388	 -1.537275
384	 15.1976
380	 59.1809
376	 101.823
372	 127.368
370	 119.297