File: Bakgrunnsmateriale/MATLAB/FTIR/ftir_data/LPE454/Mapping_121/LPE454_t18.asc
PE IR       SPECTRUM    SPECTRUM    ASCII       PEDS        1.60
  -1
LPE79C~1.ASC
17/05/19
15:48:21.00
17/05/19
15:48:47.00
tln
$LPE454_t0018$<tbV0>[-2.6,-10.4,8.0,0.0,27,1,0]
27.028
64

2002,4.07
MIRTGS : RIGHTBACK : INTERNAL 2
MIR : ON : INTERNAL 2
OPTKBR

0.200000
8
8.000000
FILLER
RATIO
SPECTRUM
UNLOCKED 256

DOUBLE
64
COMBINED
1
0
0

0.002000
RATIO

1
0
TRUE
51149
0
LEFT NOT FITTED RIGHT NOT FITTED 0
NONE
NONE
15600
12
4.427000
51148
TRUE
1 0 8 72 0 0 0 0

15798

#HDR
-1
-1
#GR
µM
%T
2.38419e-05
0.0
2.000000
0.002000
12515
8
42.1293
-8.735975
#DATA
2.000000	 0.446844
2.018000	 0.004073
2.036000	 0.190771
2.054000	 0.233282
2.072000	 0.190519
2.090000	 -0.195197
2.108000	 0.290442
2.126000	 -0.267801
2.144000	 -0.458709
2.162000	 1.035173
2.180000	 -0.003352
2.198000	 -0.054173
2.216000	 0.792299
2.234000	 -2.700751
2.252000	 -0.288373
2.270000	 -0.095693
2.288000	 0.247021
2.306000	 0.148346
2.324000	 0.246016
2.342000	 0.184135
2.360000	 0.187420
2.378000	 -0.115705
2.396000	 -0.107920
2.414000	 -0.174214
2.432000	 0.181782
2.450000	 0.334609
2.468000	 0.040008
2.486000	 0.119679
2.504000	 -0.000394
2.522000	 0.071858
2.540000	 0.116034
2.558000	 0.023762
2.576000	 0.250878
2.594000	 0.153849
2.612000	 -0.216961
2.630000	 -0.056390
2.648000	 0.183248
2.666000	 0.169847
2.684000	 0.063805
2.702000	 0.106631
2.720000	 -0.027618
2.738000	 0.181896
2.756000	 0.089597
2.774000	 -0.065675
2.792000	 0.205296
2.810000	 0.108111
2.828000	 0.066116
2.846000	 0.022725
2.864000	 -0.127526
2.882000	 -0.025311
2.900000	 -0.144165
2.918000	 0.102777
2.936000	 0.133537
2.954000	 -0.028007
2.972000	 0.154631
2.990000	 0.006071
3.008000	 0.054347
3.026000	 0.058642
3.044000	 0.107980
3.062000	 0.137081
3.080000	 0.242605
3.098000	 0.074570
3.116000	 0.022073
3.134000	 0.187227
3.152000	 0.028435
3.170000	 0.165319
3.188000	 -0.080205
3.206000	 0.040297
3.224000	 -0.038638
3.242000	 0.014009
3.260000	 0.017308
3.278000	 0.067812
3.296000	 -0.033966
3.314000	 0.282949
3.332000	 0.014465
3.350000	 0.047239
3.368000	 -0.018507
3.386000	 -0.034441
3.404000	 0.176905
3.422000	 0.037653
3.440000	 0.188566
3.458000	 -0.034707
3.476000	 -0.106218
3.494000	 0.060644
3.512000	 0.106996
3.530000	 0.101181
3.548000	 0.061655
3.566000	 0.000791
3.584000	 0.041584
3.602000	 -0.041162
3.620000	 0.106741
3.638000	 0.162532
3.656000	 0.011033
3.674000	 0.076020
3.692000	 0.029726
3.710000	 -0.043443
3.728000	 -0.058275
3.746000	 0.031718
3.764000	 0.067771
3.782000	 0.082577
3.800000	 0.027516
3.818000	 0.107142
3.836000	 0.085232
3.854000	 0.210003
3.872000	 0.042129
3.890000	 0.081712
3.908000	 0.079247
3.926000	 0.025929
3.944000	 0.078606
3.962000	 -0.095755
3.980000	 -0.074604
3.998000	 0.111737
4.016000	 0.052370
4.034000	 0.028599
4.052000	 0.026265
4.070000	 0.102189
4.088000	 0.098932
4.106000	 0.216156
4.124000	 0.005196
4.141999	 -0.045454
4.160000	 0.036489
4.178000	 0.016479
4.196000	 0.040448
4.214000	 0.010863
4.232000	 0.092023
4.250000	 0.049644
4.268000	 0.065803
4.286000	 0.198499
4.304000	 0.258530
4.322000	 0.274617
4.340000	 0.383269
4.358000	 0.360278
4.375999	 0.475425
4.394000	 0.679368
4.412000	 0.815135
4.430000	 1.137783
4.448000	 1.299647
4.466000	 1.600013
4.484000	 1.740914
4.502000	 2.152803
4.520000	 2.634629
4.538000	 2.955869
4.556000	 3.502749
4.574000	 4.128856
4.592000	 4.652866
4.609999	 5.333146
4.628000	 5.878637
4.646000	 6.400028
4.664000	 7.141735
4.682000	 7.969652
4.700000	 8.721285
4.718000	 9.434887
4.736000	 10.0188
4.754000	 10.8363
4.772000	 11.6236
4.790000	 12.3064
4.808000	 12.9521
4.826000	 13.7908
4.843999	 14.2679
4.862000	 14.7732
4.880000	 15.557
4.898000	 16.1132
4.916000	 16.6288
4.934000	 17.2469
4.952000	 17.6627
4.970000	 18.1273
4.988000	 18.6876
5.006000	 19.0577
5.024000	 19.4881
5.042000	 19.8976
5.060000	 20.2306
5.077999	 20.5045
5.096000	 20.8397
5.114000	 21.1283
5.132000	 21.425
5.150000	 21.7344
5.168000	 22.0632
5.186000	 22.2268
5.204000	 22.426
5.222000	 22.6714
5.240000	 22.9077
5.258000	 23.0647
5.276000	 23.2817
5.294000	 23.3916
5.312000	 23.5242
5.330000	 23.5719
5.348000	 23.6988
5.366000	 23.9477
5.384000	 24.1374
5.402000	 24.2469
5.420000	 24.3555
5.438000	 24.4167
5.456000	 24.5337
5.474000	 24.6457
5.492000	 24.6661
5.510000	 24.7722
5.528000	 24.8754
5.546000	 25.0729
5.564000	 25.1599
5.582000	 25.1522
5.600000	 25.2635
5.618000	 25.2798
5.636000	 25.3167
5.654000	 25.4351
5.672000	 25.529
5.690000	 25.5682
5.708000	 25.6473
5.726000	 25.6501
5.744000	 25.6245
5.762000	 25.7835
5.780000	 25.793
5.798000	 25.6896
5.816000	 25.8746
5.834000	 25.93
5.852000	 25.7448
5.870000	 25.9015
5.888000	 26.2373
5.906000	 26.3333
5.923999	 26.3391
5.942000	 26.2663
5.960000	 26.2067
5.978000	 26.3157
5.996000	 26.3586
6.014000	 26.3859
6.032000	 26.452
6.050000	 26.5243
6.068000	 26.5087
6.086000	 26.4851
6.104000	 26.5582
6.122000	 26.6347
6.140000	 26.6562
6.158000	 26.6769
6.176000	 26.7315
6.194000	 26.7176
6.212000	 26.6426
6.230000	 26.6419
6.248000	 26.6798
6.266000	 26.7882
6.284000	 26.8738
6.302000	 26.9323
6.320000	 26.9419
6.338000	 26.9259
6.356000	 26.9256
6.374000	 26.8934
6.392000	 26.9278
6.410000	 27.0314
6.428000	 27.0292
6.446000	 26.8952
6.464000	 26.8648
6.482000	 27.0273
6.500000	 27.1794
6.518000	 27.1771
6.536000	 27.1559
6.554000	 27.1783
6.572000	 27.2124
6.590000	 27.2025
6.608000	 27.2044
6.626000	 27.2608
6.644000	 27.2591
6.662000	 27.2044
6.680000	 27.1228
6.698000	 27.1281
6.716000	 27.2776
6.734000	 27.3274
6.752000	 27.3182
6.770000	 27.4028
6.788000	 27.5048
6.806000	 27.5028
6.824000	 27.4281
6.842000	 27.4567
6.860000	 27.5619
6.878000	 27.5671
6.896000	 27.5088
6.914000	 27.4108
6.932000	 27.2924
6.950000	 27.3041
6.968000	 27.4093
6.986000	 27.4926
7.004000	 27.5741
7.022000	 27.6453
7.040000	 27.6928
7.058000	 27.7439
7.076000	 27.7724
7.094000	 27.7383
7.112000	 27.6641
7.130000	 27.581
7.148000	 27.4888
7.166000	 27.4303
7.184000	 27.455
7.202000	 27.5229
7.220000	 27.5904
7.238000	 27.686
7.256000	 27.8447
7.274000	 28.0076
7.292000	 28.0532
7.310000	 27.9855
7.328000	 27.9088
7.346000	 27.8475
7.364000	 27.7912
7.382000	 27.7626
7.400000	 27.7593
7.418000	 27.768
7.436000	 27.7771
7.454000	 27.7735
7.472000	 27.7732
7.490000	 27.7956
7.508000	 27.8252
7.526000	 27.8517
7.544000	 27.9051
7.562000	 28.0096
7.580000	 28.1256
7.598000	 28.1867
7.616000	 28.1795
7.634000	 28.1314
7.652000	 28.0732
7.670000	 28.0346
7.688000	 28.0238
7.706000	 28.0122
7.724000	 27.9776
7.742000	 27.9352
7.760000	 27.908
7.778000	 27.8934
7.796000	 27.8817
7.814000	 27.8903
7.832000	 27.9326
7.850000	 27.9875
7.868000	 28.0343
7.886000	 28.0737
7.904000	 28.1069
7.922000	 28.1491
7.940000	 28.2327
7.958000	 28.3471
7.976000	 28.4321
7.994000	 28.4496
8.012000	 28.4186
8.030000	 28.3835
8.048000	 28.3641
8.065999	 28.339
8.084000	 28.2816
8.102000	 28.2107
8.120000	 28.1791
8.138000	 28.2011
8.155999	 28.2308
8.173999	 28.2248
8.192000	 28.1993
8.210000	 28.2048
8.228000	 28.268
8.246000	 28.3768
8.263999	 28.4998
8.282000	 28.6
8.300000	 28.6529
8.318000	 28.6685
8.336000	 28.6776
8.353999	 28.6887
8.372000	 28.6839
8.390000	 28.6533
8.408000	 28.6064
8.426000	 28.5482
8.443999	 28.4713
8.462000	 28.3739
8.480000	 28.2737
8.498000	 28.2054
8.516000	 28.2042
8.533999	 28.2768
8.552000	 28.3813
8.570000	 28.4545
8.588000	 28.4739
8.606000	 28.4696
8.624000	 28.4829
8.641999	 28.5291
8.660000	 28.5964
8.678000	 28.6667
8.696000	 28.7288
8.714000	 28.7732
8.731999	 28.7837
8.750000	 28.7428
8.768000	 28.6614
8.786000	 28.5878
8.804000	 28.5693
8.821999	 28.6007
8.840000	 28.6269
8.858000	 28.5974
8.876000	 28.5108
8.894000	 28.4027
8.911999	 28.3108
8.930000	 28.2612
8.948000	 28.2647
8.966000	 28.3108
8.984000	 28.3802
9.001999	 28.4679
9.020000	 28.5759
9.038000	 28.6897
9.056000	 28.7776
9.074000	 28.8162
9.092000	 28.8061
9.109999	 28.7661
9.128000	 28.7203
9.146000	 28.6993
9.164000	 28.7326
9.182000	 28.8242
9.199999	 28.9396
9.218000	 29.0292
9.236000	 29.0637
9.254000	 29.046
9.272000	 28.997
9.289999	 28.9379
9.308000	 28.8828
9.326000	 28.8377
9.344000	 28.796
9.362000	 28.7392
9.379999	 28.6526
9.398000	 28.5436
9.416000	 28.4418
9.434000	 28.3802
9.452000	 28.3738
9.469999	 28.4112
9.488000	 28.4648
9.506000	 28.5087
9.524000	 28.5315
9.542000	 28.5368
9.560000	 28.5371
9.577999	 28.5476
9.596000	 28.5808
9.614000	 28.641
9.632000	 28.7195
9.650000	 28.7952
9.667999	 28.844
9.686000	 28.8533
9.704000	 28.8306
9.722000	 28.8013
9.740000	 28.7954
9.757999	 28.8303
9.776000	 28.899
9.794000	 28.9682
9.812000	 28.9935
9.830000	 28.9481
9.847999	 28.8431
9.866000	 28.723
9.884000	 28.6354
9.902000	 28.6001
9.920000	 28.5974
9.937999	 28.5876
9.956000	 28.5434
9.974000	 28.4676
9.992000	 28.3877
10.01	28.3353
10.028	28.3289
10.046	28.3675
10.064	28.4361
10.082	28.5134
10.1	28.5815
10.118	28.6304
10.136	28.661
10.154	28.6825
10.172	28.707
10.19	28.7422
10.208	28.7884
10.226	28.8386
10.244	28.8825
10.262	28.9087
10.28	28.9085
10.298	28.8774
10.316	28.8166
10.334	28.7316
10.352	28.6292
10.37	28.5174
10.388	28.4056
10.406	28.3045
10.424	28.2255
10.442	28.1771
10.46	28.1602
10.478	28.1678
10.496	28.1882
10.514	28.2101
10.532	28.227
10.55	28.2377
10.568	28.2439
10.586	28.249
10.604	28.2565
10.622	28.2686
10.64	28.2856
10.658	28.3048
10.676	28.3231
10.694	28.3416
10.712	28.3683
10.73	28.4158
10.748	28.4966
10.766	28.6139
10.784	28.758
10.802	28.9062
10.82	29.0322
10.838	29.1134
10.856	29.1398
10.874	29.1139
10.892	29.0455
10.91	28.9484
10.928	28.8344
10.946	28.7147
10.964	28.5991
10.982	28.4975
11	28.4169
11.018	28.3596
11.036	28.3219
11.054	28.2955
11.072	28.2726
11.09	28.2488
11.108	28.2249
11.126	28.2038
11.144	28.1857
11.162	28.1659
11.18	28.1363
11.198	28.0897
11.216	28.0237
11.234	27.9439
11.252	27.8613
11.27	27.7897
11.288	27.7432
11.306	27.7319
11.324	27.7607
11.342	27.8283
11.36	27.9274
11.378	28.0453
11.396	28.168
11.414	28.2827
11.432	28.3817
11.45	28.464
11.468	28.5322
11.486	28.589
11.504	28.6342
11.522	28.6646
11.54	28.6763
11.558	28.6683
11.576	28.6428
11.594	28.6035
11.612	28.5553
11.63	28.5013
11.648	28.443
11.666	28.3814
11.684	28.3179
11.702	28.2551
11.72	28.1972
11.738	28.1474
11.756	28.1069
11.774	28.0743
11.792	28.047
11.81	28.0222
11.828	27.9978
11.846	27.9726
11.864	27.9457
11.882	27.9171
11.9	27.8869
11.918	27.8562
11.936	27.8258
11.954	27.7964
11.972	27.7676
11.99	27.738
12.008	27.706
12.026	27.6714
12.044	27.6363
12.062	27.6053
12.08	27.5843
12.098	27.5782
12.116	27.5883
12.134	27.6111
12.152	27.6394
12.17	27.6664
12.188	27.6893
12.206	27.7104
12.224	27.7368
12.242	27.7762
12.26	27.8327
12.278	27.9051
12.296	27.9864
12.314	28.0666
12.332	28.1355
12.35	28.1861
12.368	28.2147
12.386	28.222
12.404	28.2116
12.422	28.1882
12.44	28.1561
12.458	28.1182
12.476	28.0763
12.494	28.031
12.512	27.9829
12.53	27.9324
12.548	27.8794
12.566	27.8241
12.584	27.7654
12.602	27.7017
12.62	27.6316
12.638	27.5542
12.656	27.4704
12.674	27.383
12.692	27.2966
12.71	27.2167
12.728	27.1489
12.746	27.0969
12.764	27.0622
12.782	27.0432
12.8	27.0354
12.818	27.0336
12.836	27.0334
12.854	27.0337
12.872	27.0346
12.89	27.0395
12.908	27.0522
12.926	27.0763
12.944	27.113
12.962	27.1618
12.98	27.2203
12.998	27.2845
13.016	27.35
13.034	27.4128
13.052	27.4693
13.07	27.5179
13.088	27.5587
13.106	27.5936
13.124	27.6262
13.142	27.6605
13.16	27.7002
13.178	27.7466
13.196	27.7993
13.214	27.8537
13.232	27.9027
13.25	27.9373
13.268	27.9497
13.286	27.9345
13.304	27.8906
13.322	27.8214
13.34	27.7342
13.358	27.6379
13.376	27.5403
13.394	27.4467
13.412	27.3584
13.43	27.274
13.448	27.1902
13.466	27.1036
13.484	27.0124
13.502	26.9168
13.52	26.8189
13.538	26.7222
13.556	26.6303
13.574	26.5459
13.592	26.4708
13.61	26.4048
13.628	26.3475
13.646	26.2984
13.664	26.2583
13.682	26.2284
13.7	26.2108
13.718	26.2071
13.736	26.2185
13.754	26.2434
13.772	26.2789
13.79	26.32
13.808	26.3611
13.826	26.3968
13.844	26.4224
13.862	26.4353
13.88	26.4345
13.898	26.4212
13.916	26.3986
13.934	26.3709
13.952	26.3431
13.97	26.3208
13.988	26.3088
14.006	26.3106
14.024	26.3277
14.042	26.3598
14.06	26.4044
14.078	26.4575
14.096	26.5139
14.114	26.5683
14.132	26.6157
14.15	26.6524
14.168	26.6765
14.186	26.6877
14.204	26.6879
14.222	26.6799
14.24	26.6677
14.258	26.6551
14.276	26.6448
14.294	26.6386
14.312	26.6371
14.33	26.6397
14.348	26.645
14.366	26.6512
14.384	26.6562
14.402	26.6593
14.42	26.6599
14.438	26.6582
14.456	26.655
14.474	26.6514
14.492	26.6486
14.51	26.6473
14.528	26.6479
14.546	26.6495
14.564	26.6506
14.582	26.6493
14.6	26.6436
14.618	26.6313
14.636	26.6107
14.654	26.5803
14.672	26.5399
14.69	26.4896
14.708	26.4298
14.726	26.3615
14.744	26.2853
14.762	26.2022
14.78	26.1129
14.798	26.0183
14.816	25.9193
14.834	25.8171
14.852	25.7137
14.87	25.6112
14.888	25.5119
14.906	25.4184
14.924	25.3331
14.942	25.2583
14.96	25.1953
14.978	25.1446
14.996	25.1061
15.014	25.0792
15.032	25.0621
15.05	25.0537
15.068	25.0528
15.086	25.0588
15.104	25.0714
15.122	25.0908
15.14	25.1177
15.158	25.1524
15.176	25.1953
15.194	25.2462
15.212	25.304
15.23	25.367
15.248	25.433
15.266	25.4998
15.284	25.5645
15.302	25.6246
15.32	25.6785
15.338	25.7251
15.356	25.7634
15.374	25.7938
15.392	25.8167
15.41	25.8328
15.428	25.8425
15.446	25.8463
15.464	25.8447
15.482	25.8379
15.5	25.8263
15.518	25.8102
15.536	25.7904
15.554	25.7677
15.572	25.7439
15.59	25.7208
15.608	25.7
15.626	25.6826
15.644	25.6697
15.662	25.6618
15.68	25.6585
15.698	25.659
15.716	25.6619
15.734	25.6652
15.752	25.6673
15.77	25.6666
15.788	25.6616
15.806	25.6513
15.824	25.6353
15.842	25.6132
15.86	25.5851
15.878	25.5515
15.896	25.5128
15.914	25.4699
15.932	25.4232
15.95	25.3735
15.968	25.3213
15.986	25.2674
16.004	25.2128
16.022	25.1582
16.04	25.105
16.058	25.0541
16.076	25.0068
16.094	24.9646
16.112	24.929
16.13	24.9009
16.148	24.8811
16.166	24.8703
16.184	24.8682
16.202	24.8744
16.22	24.8882
16.238	24.9085
16.256	24.9342
16.274	24.9637
16.292	24.9959
16.31	25.0299
16.328	25.0646
16.346	25.0995
16.364	25.1341
16.382	25.1675
16.4	25.1987
16.418	25.2268
16.436	25.2501
16.454	25.2671
16.472	25.2765
16.49	25.2766
16.508	25.2666
16.526	25.2461
16.544	25.2149
16.562	25.1743
16.58	25.1251
16.598	25.0701
16.616	25.0116
16.634	24.952
16.652	24.8947
16.67	24.8415
16.688	24.7943
16.706	24.7546
16.724	24.7226
16.742	24.6986
16.76	24.6816
16.778	24.6707
16.796	24.6646
16.814	24.6617
16.832	24.6614
16.85	24.6625
16.868	24.6647
16.886	24.6674
16.904	24.6714
16.922	24.6769
16.94	24.6843
16.958	24.695
16.976	24.7093
16.994	24.7276
17.012	24.7506
17.03	24.7783
17.048	24.811
17.066	24.8486
17.084	24.8909
17.102	24.9376
17.12	24.9883
17.138	25.042
17.156	25.0974
17.174	25.1537
17.192	25.2081
17.21	25.2593
17.228	25.3044
17.246	25.3407
17.264	25.3665
17.282	25.3779
17.3	25.374
17.318	25.3524
17.336	25.313
17.354	25.2551
17.372	25.1805
17.39	25.0906
17.408	24.9884
17.426	24.8783
17.444	24.7627
17.462	24.6484
17.48	24.537
17.498	24.4343
17.516	24.3418
17.534	24.2621
17.552	24.1962
17.57	24.1444
17.588	24.1055
17.606	24.0778
17.624	24.0591
17.642	24.0456
17.66	24.0358
17.678	24.0251
17.696	24.0126
17.714	23.995
17.732	23.972
17.75	23.942
17.768	23.9058
17.786	23.8634
17.804	23.8164
17.822	23.7656
17.84	23.7137
17.858	23.6624
17.876	23.6136
17.894	23.5701
17.912	23.533
17.93	23.5046
17.948	23.4853
17.966	23.4766
17.984	23.4782
18.002	23.4905
18.02	23.5125
18.038	23.5437
18.056	23.5817
18.074	23.626
18.092	23.6731
18.11	23.7225
18.128	23.7703
18.146	23.8158
18.164	23.8558
18.182	23.8894
18.2	23.9145
18.218	23.931
18.236	23.9379
18.254	23.9365
18.272	23.9268
18.29	23.9118
18.308	23.8917
18.326	23.8708
18.344	23.8499
18.362	23.8334
18.38	23.822
18.398	23.8193
18.416	23.8259
18.434	23.844
18.452	23.873
18.47	23.9137
18.488	23.9643
18.506	24.0248
18.524	24.0914
18.542	24.1636
18.56	24.2368
18.578	24.3106
18.596	24.3798
18.614	24.4442
18.632	24.4991
18.65	24.5445
18.668	24.5773
18.686	24.5974
18.704	24.6036
18.722	24.5963
18.74	24.576
18.758	24.5436
18.776	24.501
18.794	24.4495
18.812	24.392
18.83	24.3297
18.848	24.266
18.866	24.202
18.884	24.1407
18.902	24.0826
18.92	24.03
18.938	23.9829
18.956	23.9423
18.974	23.9079
18.992	23.8798
19.01	23.8571
19.028	23.8389
19.046	23.8245
19.064	23.8125
19.082	23.802
19.1	23.7916
19.118	23.7808
19.136	23.7681
19.154	23.7536
19.172	23.7363
19.19	23.7166
19.208	23.6943
19.226	23.6695
19.244	23.6426
19.262	23.6136
19.28	23.5829
19.298	23.5507
19.316	23.5173
19.334	23.4827
19.352	23.4472
19.37	23.4106
19.388	23.3727
19.406	23.3335
19.424	23.2926
19.442	23.2498
19.46	23.205
19.478	23.1581
19.496	23.1092
19.514	23.0581
19.532	23.0054
19.55	22.9514
19.568	22.8966
19.586	22.8417
19.604	22.787
19.622	22.7336
19.64	22.6815
19.658	22.632
19.676	22.5849
19.694	22.541
19.712	22.5003
19.73	22.4632
19.748	22.4298
19.766	22.3999
19.784	22.3734
19.802	22.3502
19.82	22.33
19.838	22.3127
19.856	22.2977
19.874	22.285
19.892	22.2741
19.91	22.2651
19.928	22.2573
19.946	22.2508
19.964	22.2452
19.982	22.2403
20	22.2359
20.018	22.2316
20.036	22.2272
20.054	22.2221
20.072	22.2162
20.09	22.2087
20.108	22.1997
20.126	22.1879
20.144	22.1734
20.162	22.1554
20.18	22.1333
20.198	22.1071
20.216	22.076
20.234	22.0403
20.252	21.9997
20.27	21.9542
20.288	21.9045
20.306	21.8503
20.324	21.7928
20.342	21.7323
20.36	21.6694
20.378	21.6058
20.396	21.5411
20.414	21.4779
20.432	21.4161
20.45	21.3571
20.468	21.3017
20.486	21.2504
20.504	21.2047
20.522	21.1644
20.54	21.1313
20.558	21.1052
20.576	21.0869
20.594	21.0772
20.612	21.0759
20.63	21.0832
20.648	21.0991
20.666	21.1233
20.684	21.156
20.702	21.1963
20.72	21.2438
20.738	21.2983
20.756	21.3583
20.774	21.4242
20.792	21.4936
20.81	21.5666
20.828	21.6418
20.846	21.7175
20.864	21.7941
20.882	21.8691
20.9	21.9426
20.918	22.0134
20.936	22.0802
20.954	22.1432
20.972	22.2009
20.99	22.2536
21.008	22.3003
21.026	22.3406
21.044	22.3744
21.062	22.401
21.08	22.4205
21.098	22.4323
21.116	22.4363
21.134	22.4325
21.152	22.4203
21.17	22.4
21.188	22.3715
21.206	22.3347
21.224	22.2898
21.242	22.2369
21.26	22.1759
21.278	22.1081
21.296	22.0332
21.314	21.9521
21.332	21.8662
21.35	21.7749
21.368	21.6807
21.386	21.584
21.404	21.4854
21.422	21.3871
21.44	21.2885
21.458	21.1919
21.476	21.0984
21.494	21.0079
21.512	20.9219
21.53	20.8403
21.548	20.7633
21.566	20.6912
21.584	20.6238
21.602	20.5595
21.62	20.4989
21.638	20.4402
21.656	20.3815
21.674	20.3238
21.692	20.2635
21.71	20.2001
21.728	20.1333
21.746	20.0596
21.764	19.9799
21.782	19.8929
21.8	19.7971
21.818	19.6933
21.836	19.5811
21.854	19.4596
21.872	19.3303
21.89	19.1949
21.908	19.0522
21.926	18.9057
21.944	18.7571
21.962	18.6056
21.98	18.457
21.998	18.3108
22.016	18.1687
22.034	18.0354
22.052	17.9093
22.07	17.7937
22.088	17.6914
22.106	17.6011
22.124	17.5253
22.142	17.4648
22.16	17.4189
22.178	17.3882
22.196	17.3731
22.214	17.3721
22.232	17.3838
22.25	17.4093
22.268	17.4451
22.286	17.4898
22.304	17.5441
22.322	17.6031
22.34	17.6669
22.358	17.7346
22.376	17.8014
22.394	17.8686
22.412	17.9341
22.43	17.9946
22.448	18.0515
22.466	18.1027
22.484	18.1465
22.502	18.1836
22.52	18.2132
22.538	18.2347
22.556	18.2485
22.574	18.2555
22.592	18.2552
22.61	18.2485
22.628	18.2375
22.646	18.2216
22.664	18.2021
22.682	18.1821
22.7	18.1602
22.718	18.1384
22.736	18.1197
22.754	18.1025
22.772	18.0889
22.79	18.0808
22.808	18.0772
22.826	18.079
22.844	18.0867
22.862	18.1001
22.88	18.1199
22.898	18.147
22.916	18.1808
22.934	18.2208
22.952	18.2673
22.97	18.3199
22.988	18.3754
23.006	18.4342
23.024	18.4957
23.042	18.5553
23.06	18.6131
23.078	18.6687
23.096	18.718
23.114	18.7615
23.132	18.7985
23.15	18.8256
23.168	18.8431
23.186	18.8506
23.204	18.8453
23.222	18.8268
23.24	18.7958
23.258	18.7515
23.276	18.6931
23.294	18.622
23.312	18.5401
23.33	18.4463
23.348	18.3422
23.366	18.2321
23.384	18.1148
23.402	17.9917
23.42	17.8678
23.438	17.7426
23.456	17.6165
23.474	17.4954
23.492	17.3794
23.51	17.2681
23.528	17.1666
23.546	17.076
23.564	16.9951
23.582	16.9271
23.6	16.8734
23.618	16.8327
23.636	16.8059
23.654	16.794
23.672	16.7967
23.69	16.8121
23.708	16.8396
23.726	16.8803
23.744	16.9305
23.762	16.9873
23.78	17.053
23.798	17.1244
23.816	17.1979
23.834	17.2754
23.852	17.3552
23.87	17.4344
23.888	17.513
23.906	17.5917
23.924	17.6707
23.942	17.7492
23.96	17.8278
23.978	17.9083
23.996	17.9902
24.014	18.0731
24.032	18.162
24.05	18.26
24.068	18.3645
24.086	18.4785
24.104	18.6055
24.122	18.7458
24.14	18.896
24.158	19.0532
24.176	19.2225
24.194	19.3979
24.212	19.5674
24.23	19.7325
24.248	19.8946
24.266	20.0362
24.284	20.1492
24.302	20.2444
24.32	20.3029
24.338	20.3076
24.356	20.2708
24.374	20.1818
24.392	20.0224
24.41	19.7956
24.428	19.5027
24.446	19.1321
24.464	18.6772
24.482	18.1436
24.5	17.5327
24.518	16.8448
24.536	16.0751
24.554	15.2341
24.572	14.3345
24.59	13.3675
24.608	12.3396
24.626	11.274
24.644	10.1784
24.662	9.039745
24.68	7.884215
24.698	6.735365
24.716	5.576052
24.734	4.419889
24.752	3.292111
24.77	2.192603
24.788	1.115303
24.806	0.080205
24.824	-0.898843
24.842	-1.833672
24.86	-2.715849
24.878	-3.533790
24.896	-4.288668
24.914	-4.983043
24.932	-5.613828
24.95	-6.178047
24.968	-6.676663
24.986	-7.114384
25.004	-7.495618
25.022	-7.816039
25.04	-8.079691
25.058	-8.295545
25.076	-8.466208
25.094	-8.586206
25.112	-8.666527
25.13	-8.718170
25.148	-8.735975
25.166	-8.721933
25.184	-8.684345
25.202	-8.627748
25.22	-8.547869
25.238	-8.447000
25.256	-8.327771
25.274	-8.189296
25.292	-8.031756
25.31	-7.856887
25.328	-7.665311
25.346	-7.455507
25.364	-7.230289
25.382	-6.992806
25.4	-6.742287
25.418	-6.478505
25.436	-6.204039
25.454	-5.920754
25.472	-5.626733
25.49	-5.323638
25.508	-5.013896
25.526	-4.700349
25.544	-4.381673
25.562	-4.052819
25.58	-3.709363
25.598	-3.357878
25.616	-2.993191
25.634	-2.604309
25.652	-2.187155
25.67	-1.753706
25.688	-1.286378
25.706	-0.764713
25.724	-0.191338
25.742	0.426572
25.76	1.110073
25.778	1.878681
25.796	2.722502
25.814	3.642073
25.832	4.647710
25.85	5.748006
25.868	6.939324
25.886	8.216167
25.904	9.573559
25.922	11.0195
25.94	12.5571
25.958	14.1565
25.976	15.7883
25.994	17.4745
26.012	19.2091
26.03	20.9477
26.048	22.6528
26.066	24.3565
26.084	26.0438
26.102	27.6792
26.12	29.2417
26.138	30.7603
26.156	32.2127
26.174	33.5695
26.192	34.8167
26.21	35.9721
26.228	37.0315
26.246	37.9897
26.264	38.8458
26.282	39.6031
26.3	40.2614
26.318	40.8205
26.336	41.2835
26.354	41.6491
26.372	41.9131
26.39	42.0714
26.408	42.1291
26.426	42.0844
26.444	41.9318
26.462	41.6687
26.48	41.3106
26.498	40.8421
26.516	40.2398
26.534	39.4858
26.552	38.5941
26.57	37.5646
26.588	36.3926
26.606	35.0705
26.624	33.5919
26.642	31.978
26.66	30.2521
26.678	28.4181
26.696	26.4426
26.714	24.3756
26.732	22.2742
26.75	20.1519
26.768	17.9441
26.786	15.7359
26.804	13.6232
26.822	11.6418
26.84	9.705484
26.858	7.895066
26.876	6.303023
26.894	4.970373
26.912	3.819875
26.93	2.905849
26.948	2.292670
26.966	2.089174
26.984	2.354438
27.002	2.831829
27.02	3.247923
27.028	3.334999