File: Bakgrunnsmateriale/MATLAB/FTIR/ftir_data/LPE454/Mapping_121/LPE454_t111.asc
PE IR       SPECTRUM    SPECTRUM    ASCII       PEDS        1.60
  -1
LP97FD~1.ASC
17/05/19
23:33:04.00
17/05/19
23:33:30.00
tln
$LPE454_t0111$<tbV0>[13.0,13.0,8.0,0.0,27,1,0]
27.028
64

2002,4.07
MIRTGS : RIGHTBACK : INTERNAL 2
MIR : ON : INTERNAL 2
OPTKBR

0.200000
8
8.000000
FILLER
RATIO
SPECTRUM
UNLOCKED 256

DOUBLE
64
COMBINED
1
0
0

0.002000
RATIO

1
0
TRUE
51149
0
LEFT NOT FITTED RIGHT NOT FITTED 0
NONE
NONE
15600
12
4.427000
51148
TRUE
1 0 8 72 0 0 0 0

15798

#HDR
-1
-1
#GR
µM
%T
2.38419e-05
0.0
2.000000
0.002000
12515
8
31.3798
-7.284074
#DATA
2.000000	 0.378704
2.018000	 0.542891
2.036000	 0.133810
2.054000	 0.429635
2.072000	 0.159950
2.090000	 0.305305
2.108000	 0.107832
2.126000	 -0.039039
2.144000	 -0.118821
2.162000	 0.186301
2.180000	 31.3798
2.198000	 -0.796576
2.216000	 -0.247840
2.234000	 -0.149973
2.252000	 0.001032
2.270000	 -0.075983
2.288000	 -0.071014
2.306000	 0.299924
2.324000	 0.098156
2.342000	 0.158267
2.360000	 0.256823
2.378000	 -0.272256
2.396000	 -0.077720
2.414000	 -0.364795
2.432000	 0.714225
2.450000	 0.828155
2.468000	 0.530787
2.486000	 -0.019917
2.504000	 -0.020299
2.522000	 0.181862
2.540000	 0.071139
2.558000	 0.034113
2.576000	 0.032280
2.594000	 0.138843
2.612000	 -0.090733
2.630000	 0.154633
2.648000	 0.033612
2.666000	 -0.010051
2.684000	 0.098106
2.702000	 0.037088
2.720000	 0.002421
2.738000	 0.017877
2.756000	 0.084094
2.774000	 0.162415
2.792000	 -0.049988
2.810000	 0.042247
2.828000	 0.003747
2.846000	 -0.089941
2.864000	 0.007904
2.882000	 0.108465
2.900000	 -0.033541
2.918000	 -0.058122
2.936000	 -0.003868
2.954000	 0.062442
2.972000	 0.190961
2.990000	 0.013307
3.008000	 0.031819
3.026000	 0.083070
3.044000	 0.002450
3.062000	 -0.029812
3.080000	 -0.078277
3.098000	 0.091833
3.116000	 0.126278
3.134000	 0.032528
3.152000	 -0.027374
3.170000	 0.021133
3.188000	 0.044434
3.206000	 -0.027040
3.224000	 -0.043454
3.242000	 0.026101
3.260000	 -0.149307
3.278000	 -0.008638
3.296000	 -0.024124
3.314000	 -0.002025
3.332000	 0.080090
3.350000	 0.001885
3.368000	 -0.011752
3.386000	 -0.034397
3.404000	 0.134126
3.422000	 -0.012039
3.440000	 0.066913
3.458000	 -0.014563
3.476000	 0.043108
3.494000	 0.031823
3.512000	 0.009779
3.530000	 0.052687
3.548000	 0.011058
3.566000	 0.038818
3.584000	 0.086301
3.602000	 0.081755
3.620000	 0.079823
3.638000	 0.051187
3.656000	 -0.008896
3.674000	 0.011115
3.692000	 -0.006113
3.710000	 0.009429
3.728000	 0.025413
3.746000	 -0.016392
3.764000	 -0.025691
3.782000	 0.019867
3.800000	 0.061086
3.818000	 0.102643
3.836000	 0.067119
3.854000	 -0.011221
3.872000	 0.041623
3.890000	 0.038058
3.908000	 0.107677
3.926000	 -0.055376
3.944000	 0.080210
3.962000	 0.073859
3.980000	 0.040520
3.998000	 -0.012903
4.016000	 -0.071115
4.034000	 0.168371
4.052000	 0.084014
4.070000	 0.059832
4.088000	 0.040907
4.106000	 -0.017298
4.124000	 0.022226
4.141999	 -0.047474
4.160000	 0.005154
4.178000	 0.073206
4.196000	 -0.025182
4.214000	 0.046687
4.232000	 0.012267
4.250000	 0.119250
4.268000	 0.045760
4.286000	 0.055972
4.304000	 0.077912
4.322000	 0.060836
4.340000	 0.066985
4.358000	 0.140184
4.375999	 0.222930
4.394000	 0.221404
4.412000	 0.352975
4.430000	 0.552199
4.448000	 0.625505
4.466000	 0.770474
4.484000	 0.916120
4.502000	 1.109000
4.520000	 1.567405
4.538000	 1.921762
4.556000	 2.179289
4.574000	 2.623830
4.592000	 2.980831
4.609999	 3.528220
4.628000	 3.969460
4.646000	 4.545349
4.664000	 5.266340
4.682000	 5.911203
4.700000	 6.580085
4.718000	 7.114907
4.736000	 7.791034
4.754000	 8.436469
4.772000	 9.045946
4.790000	 9.787070
4.808000	 10.5724
4.826000	 11.0634
4.843999	 11.8308
4.862000	 12.2904
4.880000	 12.9173
4.898000	 13.4335
4.916000	 14.0585
4.934000	 14.579
4.952000	 15.067
4.970000	 15.6408
4.988000	 16.0942
5.006000	 16.4473
5.024000	 16.8909
5.042000	 17.3305
5.060000	 17.7772
5.077999	 18.102
5.096000	 18.4767
5.114000	 18.832
5.132000	 19.1575
5.150000	 19.4888
5.168000	 19.7259
5.186000	 20.0053
5.204000	 20.2801
5.222000	 20.5143
5.240000	 20.7501
5.258000	 20.9687
5.276000	 21.2496
5.294000	 21.4791
5.312000	 21.5309
5.330000	 21.6856
5.348000	 21.8872
5.366000	 22.0934
5.384000	 22.3242
5.402000	 22.4139
5.420000	 22.5193
5.438000	 22.7094
5.456000	 22.8173
5.474000	 22.8505
5.492000	 22.977
5.510000	 23.1886
5.528000	 23.3418
5.546000	 23.3911
5.564000	 23.4801
5.582000	 23.5299
5.600000	 23.4986
5.618000	 23.6146
5.636000	 23.752
5.654000	 23.825
5.672000	 23.8446
5.690000	 23.8482
5.708000	 23.9045
5.726000	 23.9561
5.744000	 24.0142
5.762000	 24.1025
5.780000	 24.17
5.798000	 24.1611
5.816000	 24.2295
5.834000	 24.299
5.852000	 24.3259
5.870000	 24.3964
5.888000	 24.4381
5.906000	 24.4783
5.923999	 24.5948
5.942000	 24.6102
5.960000	 24.5877
5.978000	 24.6143
5.996000	 24.7146
6.014000	 24.8456
6.032000	 24.8751
6.050000	 24.904
6.068000	 24.9501
6.086000	 24.9795
6.104000	 24.9859
6.122000	 24.9808
6.140000	 25.0352
6.158000	 25.0879
6.176000	 25.0364
6.194000	 25.0369
6.212000	 25.0156
6.230000	 25.0473
6.248000	 25.1561
6.266000	 25.2311
6.284000	 25.1997
6.302000	 25.1751
6.320000	 25.1419
6.338000	 25.0962
6.356000	 25.1519
6.374000	 25.2257
6.392000	 25.2472
6.410000	 25.237
6.428000	 25.2227
6.446000	 25.1643
6.464000	 25.1448
6.482000	 25.1866
6.500000	 25.1833
6.518000	 25.1713
6.536000	 25.1443
6.554000	 25.0889
6.572000	 25.0826
6.590000	 25.1566
6.608000	 25.2154
6.626000	 25.1926
6.644000	 25.1499
6.662000	 25.1419
6.680000	 25.1764
6.698000	 25.1995
6.716000	 25.1564
6.734000	 25.1133
6.752000	 25.1151
6.770000	 25.1081
6.788000	 25.073
6.806000	 25.0726
6.824000	 25.0883
6.842000	 25.0342
6.860000	 25.0045
6.878000	 25.0703
6.896000	 25.0989
6.914000	 25.0754
6.932000	 25.0534
6.950000	 24.9896
6.968000	 24.9309
6.986000	 25.0022
7.004000	 25.1323
7.022000	 25.1541
7.040000	 25.118
7.058000	 25.1417
7.076000	 25.1742
7.094000	 25.1511
7.112000	 25.1
7.130000	 25.0666
7.148000	 25.0877
7.166000	 25.1076
7.184000	 25.0337
7.202000	 24.9471
7.220000	 24.9633
7.238000	 25.0172
7.256000	 25.0216
7.274000	 24.9814
7.292000	 24.9374
7.310000	 24.9194
7.328000	 24.9197
7.346000	 24.9283
7.364000	 24.9485
7.382000	 24.949
7.400000	 24.9077
7.418000	 24.8693
7.436000	 24.879
7.454000	 24.8976
7.472000	 24.8647
7.490000	 24.7978
7.508000	 24.7506
7.526000	 24.7284
7.544000	 24.7094
7.562000	 24.6968
7.580000	 24.695
7.598000	 24.6785
7.616000	 24.6304
7.634000	 24.5764
7.652000	 24.5502
7.670000	 24.5596
7.688000	 24.5923
7.706000	 24.626
7.724000	 24.6266
7.742000	 24.5677
7.760000	 24.4735
7.778000	 24.4115
7.796000	 24.4095
7.814000	 24.4259
7.832000	 24.4244
7.850000	 24.4167
7.868000	 24.4083
7.886000	 24.3819
7.904000	 24.3531
7.922000	 24.3575
7.940000	 24.3716
7.958000	 24.3277
7.976000	 24.2202
7.994000	 24.1214
8.012000	 24.0775
8.030000	 24.0547
8.048000	 24.0072
8.065999	 23.9431
8.084000	 23.9005
8.102000	 23.8945
8.120000	 23.9074
8.138000	 23.9212
8.155999	 23.9375
8.173999	 23.9586
8.192000	 23.9653
8.210000	 23.9369
8.228000	 23.8873
8.246000	 23.8512
8.263999	 23.8387
8.282000	 23.8294
8.300000	 23.806
8.318000	 23.7748
8.336000	 23.7598
8.353999	 23.7827
8.372000	 23.8385
8.390000	 23.8868
8.408000	 23.8905
8.426000	 23.8556
8.443999	 23.814
8.462000	 23.7806
8.480000	 23.7514
8.498000	 23.7332
8.516000	 23.7386
8.533999	 23.7573
8.552000	 23.7591
8.570000	 23.7306
8.588000	 23.685
8.606000	 23.6349
8.624000	 23.5744
8.641999	 23.497
8.660000	 23.4178
8.678000	 23.3641
8.696000	 23.3503
8.714000	 23.3679
8.731999	 23.3954
8.750000	 23.4096
8.768000	 23.3984
8.786000	 23.3682
8.804000	 23.3344
8.821999	 23.3018
8.840000	 23.2602
8.858000	 23.203
8.876000	 23.1395
8.894000	 23.0847
8.911999	 23.0434
8.930000	 23.014
8.948000	 22.9994
8.966000	 23.0017
8.984000	 23.0123
9.001999	 23.0164
9.020000	 23.0063
9.038000	 22.9832
9.056000	 22.9455
9.074000	 22.885
9.092000	 22.8012
9.109999	 22.7165
9.128000	 22.6685
9.146000	 22.682
9.164000	 22.748
9.182000	 22.8275
9.199999	 22.8789
9.218000	 22.8847
9.236000	 22.8549
9.254000	 22.8118
9.272000	 22.7713
9.289999	 22.7372
9.308000	 22.7088
9.326000	 22.6875
9.344000	 22.6757
9.362000	 22.6718
9.379999	 22.6689
9.398000	 22.6587
9.416000	 22.6362
9.434000	 22.6044
9.452000	 22.5732
9.469999	 22.5531
9.488000	 22.5461
9.506000	 22.5408
9.524000	 22.519
9.542000	 22.4714
9.560000	 22.4056
9.577999	 22.3411
9.596000	 22.2945
9.614000	 22.2729
9.632000	 22.2753
9.650000	 22.2926
9.667999	 22.3087
9.686000	 22.3081
9.704000	 22.2869
9.722000	 22.2572
9.740000	 22.2374
9.757999	 22.2339
9.776000	 22.2333
9.794000	 22.2127
9.812000	 22.16
9.830000	 22.0836
9.847999	 22.0053
9.866000	 21.9466
9.884000	 21.9189
9.902000	 21.9199
9.920000	 21.9365
9.937999	 21.9496
9.956000	 21.9431
9.974000	 21.9122
9.992000	 21.867
10.01	21.8271
10.028	21.8096
10.046	21.8175
10.064	21.8406
10.082	21.8636
10.1	21.8739
10.118	21.865
10.136	21.8353
10.154	21.7876
10.172	21.7288
10.19	21.6705
10.208	21.6262
10.226	21.6028
10.244	21.5977
10.262	21.5988
10.28	21.5924
10.298	21.5711
10.316	21.5382
10.334	21.5031
10.352	21.4739
10.37	21.451
10.388	21.4266
10.406	21.3904
10.424	21.338
10.442	21.2776
10.46	21.2265
10.478	21.2047
10.496	21.2211
10.514	21.2678
10.532	21.3213
10.55	21.356
10.568	21.3553
10.586	21.3206
10.604	21.2668
10.622	21.213
10.64	21.1709
10.658	21.1417
10.676	21.1171
10.694	21.0891
10.712	21.0555
10.73	21.0209
10.748	20.9933
10.766	20.9772
10.784	20.9703
10.802	20.9632
10.82	20.9454
10.838	20.9099
10.856	20.8585
10.874	20.8009
10.892	20.7486
10.91	20.7109
10.928	20.6892
10.946	20.6802
10.964	20.6796
10.982	20.6859
11	20.7006
11.018	20.7263
11.036	20.7623
11.054	20.8026
11.072	20.8376
11.09	20.857
11.108	20.8546
11.126	20.83
11.144	20.7871
11.162	20.7331
11.18	20.6752
11.198	20.6189
11.216	20.5677
11.234	20.5226
11.252	20.4828
11.27	20.4467
11.288	20.4129
11.306	20.3817
11.324	20.3559
11.342	20.3392
11.36	20.3344
11.378	20.3408
11.396	20.3538
11.414	20.3658
11.432	20.3707
11.45	20.3668
11.468	20.3567
11.486	20.3454
11.504	20.3358
11.522	20.3269
11.54	20.3145
11.558	20.2936
11.576	20.2617
11.594	20.2213
11.612	20.1798
11.63	20.1468
11.648	20.1294
11.666	20.1297
11.684	20.1427
11.702	20.1589
11.72	20.1677
11.738	20.1615
11.756	20.1388
11.774	20.1041
11.792	20.0647
11.81	20.027
11.828	19.9934
11.846	19.962
11.864	19.9282
11.882	19.888
11.9	19.8404
11.918	19.7897
11.936	19.7432
11.954	19.7085
11.972	19.6905
11.99	19.6881
12.008	19.6942
12.026	19.698
12.044	19.6883
12.062	19.6597
12.08	19.6144
12.098	19.5611
12.116	19.5123
12.134	19.4791
12.152	19.4665
12.17	19.4727
12.188	19.4901
12.206	19.5088
12.224	19.5203
12.242	19.5209
12.26	19.5119
12.278	19.4995
12.296	19.4913
12.314	19.4944
12.332	19.5111
12.35	19.539
12.368	19.5704
12.386	19.5945
12.404	19.5998
12.422	19.5774
12.44	19.5237
12.458	19.4411
12.476	19.3382
12.494	19.2276
12.512	19.1233
12.53	19.0379
12.548	18.9793
12.566	18.9504
12.584	18.9489
12.602	18.9691
12.62	19.0031
12.638	19.0434
12.656	19.084
12.674	19.1206
12.692	19.1503
12.71	19.1715
12.728	19.1826
12.746	19.182
12.764	19.1682
12.782	19.1408
12.8	19.1006
12.818	19.0501
12.836	18.9931
12.854	18.934
12.872	18.8776
12.89	18.8281
12.908	18.7887
12.926	18.7615
12.944	18.7472
12.962	18.7447
12.98	18.7514
12.998	18.7637
13.016	18.7773
13.034	18.7876
13.052	18.7913
13.07	18.7862
13.088	18.7721
13.106	18.7499
13.124	18.7219
13.142	18.6897
13.16	18.6548
13.178	18.6168
13.196	18.5745
13.214	18.5261
13.232	18.4712
13.25	18.411
13.268	18.3487
13.286	18.2897
13.304	18.24
13.322	18.2049
13.34	18.1875
13.358	18.1877
13.376	18.2025
13.394	18.2265
13.412	18.2528
13.43	18.2757
13.448	18.2909
13.466	18.2969
13.484	18.2949
13.502	18.288
13.52	18.2806
13.538	18.2762
13.556	18.2773
13.574	18.2848
13.592	18.2979
13.61	18.3147
13.628	18.3323
13.646	18.3481
13.664	18.3598
13.682	18.3659
13.7	18.3655
13.718	18.3581
13.736	18.3438
13.754	18.3232
13.772	18.2971
13.79	18.2666
13.808	18.2326
13.826	18.1971
13.844	18.1613
13.862	18.1268
13.88	18.0943
13.898	18.0641
13.916	18.0356
13.934	18.0076
13.952	17.9783
13.97	17.9461
13.988	17.9094
14.006	17.8676
14.024	17.8217
14.042	17.7731
14.06	17.7242
14.078	17.6775
14.096	17.6358
14.114	17.6005
14.132	17.5724
14.15	17.5513
14.168	17.5361
14.186	17.5256
14.204	17.5179
14.222	17.512
14.24	17.5073
14.258	17.5041
14.276	17.5031
14.294	17.5047
14.312	17.5097
14.33	17.5179
14.348	17.5289
14.366	17.5414
14.384	17.5535
14.402	17.5632
14.42	17.5681
14.438	17.5668
14.456	17.5581
14.474	17.5414
14.492	17.5168
14.51	17.4847
14.528	17.4461
14.546	17.4019
14.564	17.3529
14.582	17.2996
14.6	17.243
14.618	17.1841
14.636	17.1242
14.654	17.0649
14.672	17.0079
14.69	16.9552
14.708	16.9082
14.726	16.868
14.744	16.8348
14.762	16.8077
14.78	16.7853
14.798	16.7661
14.816	16.7482
14.834	16.7306
14.852	16.7124
14.87	16.6943
14.888	16.6775
14.906	16.6636
14.924	16.6546
14.942	16.652
14.96	16.6564
14.978	16.6674
14.996	16.6834
15.014	16.7023
15.032	16.7208
15.05	16.736
15.068	16.7458
15.086	16.7492
15.104	16.7461
15.122	16.7378
15.14	16.7268
15.158	16.7155
15.176	16.7066
15.194	16.7022
15.212	16.7036
15.23	16.7102
15.248	16.7212
15.266	16.7346
15.284	16.7478
15.302	16.7583
15.32	16.7642
15.338	16.7642
15.356	16.7574
15.374	16.744
15.392	16.7251
15.41	16.7018
15.428	16.6757
15.446	16.6486
15.464	16.6215
15.482	16.5952
15.5	16.5706
15.518	16.5476
15.536	16.5262
15.554	16.5064
15.572	16.488
15.59	16.471
15.608	16.4553
15.626	16.441
15.644	16.4279
15.662	16.4157
15.68	16.4043
15.698	16.3932
15.716	16.3819
15.734	16.3699
15.752	16.3567
15.77	16.3418
15.788	16.3248
15.806	16.3058
15.824	16.2848
15.842	16.2622
15.86	16.2383
15.878	16.2136
15.896	16.1886
15.914	16.1635
15.932	16.1389
15.95	16.1146
15.968	16.0907
15.986	16.0667
16.004	16.0421
16.022	16.0166
16.04	15.9894
16.058	15.9605
16.076	15.9299
16.094	15.898
16.112	15.8662
16.13	15.8356
16.148	15.808
16.166	15.7855
16.184	15.7697
16.202	15.762
16.22	15.7635
16.238	15.7744
16.256	15.7947
16.274	15.8227
16.292	15.8563
16.31	15.8934
16.328	15.9301
16.346	15.9633
16.364	15.9906
16.382	16.0083
16.4	16.0145
16.418	16.0081
16.436	15.9878
16.454	15.9546
16.472	15.9091
16.49	15.8534
16.508	15.7901
16.526	15.7211
16.544	15.6504
16.562	15.5802
16.58	15.5127
16.598	15.451
16.616	15.3964
16.634	15.3503
16.652	15.3139
16.67	15.2871
16.688	15.2699
16.706	15.2614
16.724	15.2606
16.742	15.2664
16.76	15.2766
16.778	15.2899
16.796	15.3045
16.814	15.3189
16.832	15.3321
16.85	15.3434
16.868	15.3526
16.886	15.3593
16.904	15.3643
16.922	15.3683
16.94	15.3722
16.958	15.3775
16.976	15.3851
16.994	15.3963
17.012	15.4118
17.03	15.4321
17.048	15.4573
17.066	15.4868
17.084	15.5203
17.102	15.5562
17.12	15.5937
17.138	15.6305
17.156	15.6651
17.174	15.6961
17.192	15.7209
17.21	15.7388
17.228	15.7477
17.246	15.7471
17.264	15.7362
17.282	15.7148
17.3	15.6832
17.318	15.6417
17.336	15.5916
17.354	15.5336
17.372	15.47
17.39	15.4018
17.408	15.3309
17.426	15.2593
17.444	15.1883
17.462	15.1199
17.48	15.0547
17.498	14.9941
17.516	14.9377
17.534	14.8858
17.552	14.8375
17.57	14.7923
17.588	14.7485
17.606	14.7051
17.624	14.6606
17.642	14.6139
17.66	14.5642
17.678	14.5104
17.696	14.4527
17.714	14.3915
17.732	14.3279
17.75	14.2625
17.768	14.1984
17.786	14.1364
17.804	14.0801
17.822	14.0304
17.84	13.9904
17.858	13.961
17.876	13.9438
17.894	13.9388
17.912	13.9465
17.93	13.9649
17.948	13.9936
17.966	14.0291
17.984	14.0702
18.002	14.1132
18.02	14.1554
18.038	14.1944
18.056	14.2269
18.074	14.2517
18.092	14.2663
18.11	14.2705
18.128	14.2637
18.146	14.2465
18.164	14.2198
18.182	14.1853
18.2	14.1446
18.218	14.1005
18.236	14.0545
18.254	14.0098
18.272	13.9672
18.29	13.9297
18.308	13.8977
18.326	13.8727
18.344	13.8545
18.362	13.843
18.38	13.8375
18.398	13.8368
18.416	13.8396
18.434	13.8443
18.452	13.8495
18.47	13.8539
18.488	13.8558
18.506	13.8545
18.524	13.8494
18.542	13.8401
18.56	13.8273
18.578	13.8111
18.596	13.7935
18.614	13.7748
18.632	13.7574
18.65	13.7416
18.668	13.7299
18.686	13.7222
18.704	13.7204
18.722	13.724
18.74	13.7335
18.758	13.7482
18.776	13.7672
18.794	13.7896
18.812	13.8132
18.83	13.8367
18.848	13.8574
18.866	13.8743
18.884	13.8848
18.902	13.8885
18.92	13.884
18.938	13.8716
18.956	13.8508
18.974	13.8228
18.992	13.7882
19.01	13.7485
19.028	13.7058
19.046	13.6616
19.064	13.6185
19.082	13.5777
19.1	13.5419
19.118	13.5114
19.136	13.4881
19.154	13.4717
19.172	13.4626
19.19	13.4601
19.208	13.463
19.226	13.4707
19.244	13.4806
19.262	13.4922
19.28	13.5026
19.298	13.5116
19.316	13.5164
19.334	13.5172
19.352	13.5128
19.37	13.5034
19.388	13.4896
19.406	13.4715
19.424	13.452
19.442	13.4308
19.46	13.412
19.478	13.3956
19.496	13.3851
19.514	13.381
19.532	13.3856
19.55	13.4005
19.568	13.4251
19.586	13.4604
19.604	13.505
19.622	13.5578
19.64	13.6176
19.658	13.6794
19.676	13.7431
19.694	13.802
19.712	13.8568
19.73	13.899
19.748	13.9289
19.766	13.9397
19.784	13.9305
19.802	13.8978
19.82	13.8388
19.838	13.7537
19.856	13.6406
19.874	13.5007
19.892	13.3358
19.91	13.1459
19.928	12.9377
19.946	12.7098
19.964	12.4718
19.982	12.2236
20	11.9734
20.018	11.725
20.036	11.4824
20.054	11.254
20.072	11.0391
20.09	10.8473
20.108	10.6771
20.126	10.5347
20.144	10.4204
20.162	10.3353
20.18	10.2812
20.198	10.2562
20.216	10.2595
20.234	10.2903
20.252	10.3438
20.27	10.4209
20.288	10.5142
20.306	10.6239
20.324	10.7446
20.342	10.873
20.36	11.0077
20.378	11.1416
20.396	11.276
20.414	11.4054
20.432	11.5301
20.45	11.6471
20.468	11.7545
20.486	11.8529
20.504	11.9413
20.522	12.0199
20.54	12.0897
20.558	12.1501
20.576	12.2036
20.594	12.2508
20.612	12.2928
20.63	12.3318
20.648	12.3675
20.666	12.4027
20.684	12.4372
20.702	12.4726
20.72	12.5105
20.738	12.5504
20.756	12.5933
20.774	12.6391
20.792	12.6874
20.81	12.7388
20.828	12.792
20.846	12.8458
20.864	12.9004
20.882	12.9535
20.9	13.0055
20.918	13.0543
20.936	13.0984
20.954	13.1378
20.972	13.1701
20.99	13.1958
21.008	13.2134
21.026	13.2219
21.044	13.2217
21.062	13.2121
21.08	13.1932
21.098	13.1659
21.116	13.1297
21.134	13.0859
21.152	13.0361
21.17	12.9798
21.188	12.9202
21.206	12.8574
21.224	12.793
21.242	12.7304
21.26	12.6683
21.278	12.6113
21.296	12.5596
21.314	12.5145
21.332	12.4799
21.35	12.4543
21.368	12.4407
21.386	12.4397
21.404	12.4511
21.422	12.476
21.44	12.5143
21.458	12.5655
21.476	12.6299
21.494	12.7068
21.512	12.7939
21.53	12.8922
21.548	12.9987
21.566	13.1116
21.584	13.2313
21.602	13.352
21.62	13.4749
21.638	13.5968
21.656	13.7132
21.674	13.8261
21.692	13.9292
21.71	14.0215
21.728	14.1024
21.746	14.1669
21.764	14.2165
21.782	14.2482
21.8	14.2594
21.818	14.2515
21.836	14.2219
21.854	14.1703
21.872	14.0972
21.89	14.0025
21.908	13.8857
21.926	13.7493
21.944	13.5942
21.962	13.4201
21.98	13.2325
21.998	13.0302
22.016	12.816
22.034	12.5963
22.052	12.3683
22.07	12.1379
22.088	11.9095
22.106	11.6809
22.124	11.4595
22.142	11.2462
22.16	11.0414
22.178	10.8507
22.196	10.673
22.214	10.5099
22.232	10.3647
22.25	10.2362
22.268	10.1249
22.286	10.0316
22.304	9.955657
22.322	9.895199
22.34	9.850683
22.358	9.820982
22.376	9.802484
22.394	9.796408
22.412	9.800409
22.43	9.810881
22.448	9.829371
22.466	9.853200
22.484	9.879956
22.502	9.910813
22.52	9.944063
22.538	9.978579
22.556	10.015
22.574	10.0537
22.592	10.0938
22.61	10.1364
22.628	10.183
22.646	10.233
22.664	10.2875
22.682	10.3487
22.7	10.4158
22.718	10.4898
22.736	10.572
22.754	10.6621
22.772	10.7598
22.79	10.8655
22.808	10.9795
22.826	11.0993
22.844	11.224
22.862	11.3546
22.88	11.4864
22.898	11.6182
22.916	11.751
22.934	11.8785
22.952	11.9994
22.97	12.1147
22.988	12.2174
23.006	12.3068
23.024	12.3835
23.042	12.442
23.06	12.4815
23.078	12.5029
23.096	12.5039
23.114	12.4836
23.132	12.4435
23.15	12.3846
23.168	12.3058
23.186	12.2089
23.204	12.0981
23.222	11.9716
23.24	11.8319
23.258	11.6859
23.276	11.5318
23.294	11.3716
23.312	11.2134
23.33	11.0554
23.348	10.8994
23.366	10.7532
23.384	10.616
23.402	10.4883
23.42	10.3763
23.438	10.2802
23.456	10.1995
23.474	10.1379
23.492	10.0964
23.51	10.0737
23.528	10.0705
23.546	10.0876
23.564	10.1242
23.582	10.1784
23.6	10.2502
23.618	10.3399
23.636	10.4442
23.654	10.5618
23.672	10.6943
23.69	10.8371
23.708	10.9876
23.726	11.1483
23.744	11.3145
23.762	11.4824
23.78	11.6545
23.798	11.8277
23.816	11.998
23.834	12.1673
23.852	12.3342
23.87	12.4956
23.888	12.6525
23.906	12.8044
23.924	12.9496
23.942	13.0878
23.96	13.2195
23.978	13.3439
23.996	13.4603
24.014	13.5691
24.032	13.6715
24.05	13.768
24.068	13.8578
24.086	13.9427
24.104	14.0242
24.122	14.101
24.14	14.1746
24.158	14.2473
24.176	14.3186
24.194	14.3885
24.212	14.4578
24.23	14.527
24.248	14.5956
24.266	14.6635
24.284	14.7309
24.302	14.7985
24.32	14.8636
24.338	14.9238
24.356	14.9815
24.374	15.0339
24.392	15.077
24.41	15.1127
24.428	15.1399
24.446	15.1532
24.464	15.1512
24.482	15.1366
24.5	15.1034
24.518	15.0465
24.536	14.9695
24.554	14.8699
24.572	14.7436
24.59	14.5901
24.608	14.4111
24.626	14.2067
24.644	13.9758
24.662	13.718
24.68	13.4384
24.698	13.1411
24.716	12.8211
24.734	12.4843
24.752	12.1396
24.77	11.785
24.788	11.4196
24.806	11.0558
24.824	10.701
24.842	10.3465
24.86	10.0026
24.878	9.682169
24.896	9.380510
24.914	9.098549
24.932	8.847436
24.95	8.633296
24.968	8.449709
24.986	8.301569
25.004	8.194462
25.022	8.127215
25.04	8.098695
25.058	8.109856
25.076	8.162372
25.094	8.256123
25.112	8.386514
25.13	8.549229
25.148	8.748074
25.166	8.979916
25.184	9.237606
25.202	9.518416
25.22	9.826733
25.238	10.156
25.256	10.4994
25.274	10.861
25.292	11.2387
25.31	11.6251
25.328	12.0162
25.346	12.4175
25.364	12.8225
25.382	13.2235
25.4	13.6213
25.418	14.0175
25.436	14.4086
25.454	14.7915
25.472	15.1676
25.49	15.5375
25.508	15.9015
25.526	16.2584
25.544	16.6083
25.562	16.9548
25.58	17.3014
25.598	17.6451
25.616	17.9876
25.634	18.3338
25.652	18.6863
25.67	19.0416
25.688	19.4028
25.706	19.7738
25.724	20.1561
25.742	20.5476
25.76	20.9479
25.778	21.3565
25.796	21.7759
25.814	22.2035
25.832	22.6349
25.85	23.0685
25.868	23.5099
25.886	23.9509
25.904	24.3813
25.922	24.8022
25.94	25.2196
25.958	25.6175
25.976	25.9802
25.994	26.3172
26.012	26.6274
26.03	26.8922
26.048	27.0956
26.066	27.2495
26.084	27.3502
26.102	27.3862
26.12	27.35
26.138	27.2495
26.156	27.0816
26.174	26.8415
26.192	26.5261
26.21	26.1383
26.228	25.6802
26.246	25.1541
26.264	24.5567
26.282	23.8885
26.3	23.1587
26.318	22.3761
26.336	21.5313
26.354	20.628
26.372	19.6839
26.39	18.7148
26.408	17.7061
26.426	16.6643
26.444	15.6084
26.462	14.554
26.48	13.4846
26.498	12.409
26.516	11.3442
26.534	10.3026
26.552	9.270048
26.57	8.254088
26.588	7.266999
26.606	6.317287
26.624	5.396672
26.642	4.507071
26.66	3.652225
26.678	2.834343
26.696	2.050558
26.714	1.301798
26.732	0.589446
26.75	-0.084224
26.768	-0.718329
26.786	-1.318426
26.804	-1.890384
26.822	-2.439323
26.84	-2.963666
26.858	-3.458228
26.876	-3.917829
26.894	-4.343369
26.912	-4.743281
26.93	-5.103314
26.948	-5.407851
26.966	-5.642857
26.984	-5.812200
27.002	-5.931604
27.02	-6.016886
27.028	-6.044316