File: Bakgrunnsmateriale/MATLAB/FTIR/ftir_data/LPE454/Mapping_121/LPE454_t107_cm-1.asc
PE IR       SPECTRUM    SPECTRUM    ASCII       PEDS        1.60
  -1
LP0ADC~1.ASC
17/05/19
23:08:24.00
17/05/19
23:08:24.00
tln
$LPE454_t0107$<tbV0>[-5.2,10.4,8.0,0.0,27,1,0]
370
64

2002,4.07
MIRTGS : RIGHTBACK : INTERNAL 2
MIR : ON : INTERNAL 2
OPTKBR

0.200000
8
8.000000
FILLER
RATIO
SPECTRUM
UNLOCKED 256

DOUBLE
64
COMBINED
1
0
0

1.000000
RATIO

1
0
TRUE
51149
0
LEFT NOT FITTED RIGHT NOT FITTED 0
NONE
NONE
15600
12
4.427000
51148
TRUE
1 0 8 72 0 0 0 0

15798

#HDR
-1
-1
#GR
CM-1
%T
2.38419e-05
0.0
5000
-1.000000
4631
8
38.6063
-23.3485
#DATA
5000	-0.081825
4996	-0.153446
4992	-0.180768
4988	-0.078272
4984	0.060439
4980	0.086045
4976	0.049376
4972	0.099730
4968	0.219368
4964	0.130891
4960	0.122714
4956	0.419449
4952	0.544953
4948	0.420141
4944	0.261139
4940	0.213646
4936	0.224709
4932	0.111341
4928	0.024390
4924	-0.112032
4920	-0.442051
4916	-0.583148
4912	-0.419974
4908	-0.145792
4904	0.185132
4900	0.384545
4896	0.183010
4892	-0.017118
4888	0.123643
4884	0.046324
4880	-0.272822
4876	-0.435805
4872	-0.232934
4868	0.030326
4864	0.029635
4860	0.074768
4856	0.207519
4852	0.315046
4848	0.390744
4844	0.400447
4840	0.250768
4836	-0.015091
4832	-0.174546
4828	-0.112128
4824	0.084757
4820	0.284099
4816	0.416231
4812	0.362133
4808	0.231575
4804	0.164937
4800	0.001502
4796	-0.072550
4792	0.097799
4788	0.186014
4784	0.095224
4780	-0.045275
4776	-0.062298
4772	0.191903
4768	0.508999
4764	0.504446
4760	0.218415
4756	0.126600
4752	0.373744
4748	0.558733
4744	0.433993
4740	0.263619
4736	0.391149
4732	0.718116
4728	0.949788
4724	1.061844
4720	1.019978
4716	0.787830
4712	0.545668
4708	0.460076
4704	0.471186
4700	0.391721
4696	0.177669
4692	0.045228
4688	0.317263
4684	0.756001
4680	0.580334
4676	0.100135
4672	-0.017762
4668	-0.013232
4664	-0.176239
4660	-0.265765
4656	-0.313997
4652	-0.269317
4648	0.015926
4644	0.034427
4640	-0.142693
4636	-0.209832
4632	-0.489854
4628	-0.662994
4624	-0.695943
4620	-0.491619
4616	0.106382
4612	0.129866
4608	-0.622677
4604	-0.920200
4600	-0.585293
4596	3.350758
4592	16.4856
4588	27.4553
4584	10.6273
4580	-4.771566
4576	-2.283239
4572	-0.617504
4568	-0.677561
4564	-0.383663
4560	0.562214
4556	0.544881
4552	-0.056385
4548	-0.496816
4544	-0.632500
4540	-0.447130
4536	-0.247073
4532	-0.297546
4528	-0.360274
4524	-0.245904
4520	-0.134396
4516	-0.090885
4512	0.159311
4508	0.528049
4504	0.538682
4500	0.421500
4496	0.385642
4492	0.222897
4488	0.103306
4484	0.131058
4480	0.185251
4476	0.389051
4472	0.631475
4468	0.581431
4464	0.408267
4460	0.439548
4456	0.537419
4452	0.467848
4448	0.311970
4444	0.112223
4440	-0.018239
4436	0.093126
4432	0.226783
4428	0.297093
4424	0.429892
4420	0.539541
4416	0.472640
4412	0.412964
4408	0.566768
4404	0.654244
4400	0.484132
4396	0.375986
4392	0.443243
4388	0.356435
4384	0.269937
4380	0.520420
4376	0.653338
4372	0.321173
4368	0.005245
4364	-0.054430
4360	-0.043654
4356	0.010108
4352	0.055885
4348	0.048732
4344	0.069928
4340	0.074458
4336	0.010013
4332	-0.085973
4328	-0.155997
4324	-0.096893
4320	-0.037717
4316	-0.153851
4312	-0.244617
4308	-0.082659
4304	0.123476
4300	0.184321
4296	0.212311
4292	0.111389
4288	-0.016570
4284	-0.011610
4280	-0.050854
4276	-0.054240
4272	0.039100
4268	0.079345
4264	-0.046038
4260	-0.222468
4256	-0.192523
4252	-0.100469
4248	-0.097966
4244	-0.145578
4240	-0.181698
4236	0.007700
4232	0.299978
4228	0.364303
4224	0.288820
4220	0.214982
4216	0.095629
4212	0.092291
4208	0.227046
4204	0.275421
4200	0.217103
4196	0.036835
4192	-0.143861
4188	-0.112152
4184	0.106382
4180	0.384283
4176	0.378537
4172	0.132513
4168	0.231695
4164	0.445079
4160	0.317978
4156	0.151801
4152	0.146842
4148	0.130772
4144	0.121593
4140	0.190210
4136	0.101685
4132	-0.159931
4128	-0.314736
4124	-0.187873
4120	0.017571
4116	0.124955
4112	0.160932
4108	-0.108838
4104	-0.154733
4100	0.303149
4096	0.372123
4092	0.331950
4088	0.730252
4084	0.976276
4080	0.994205
4076	0.950789
4072	0.543570
4068	-0.195527
4064	-0.526618
4060	0.149679
4056	0.855159
4052	0.678396
4048	0.371313
4044	0.305867
4040	0.242400
4036	0.208091
4032	0.123739
4028	0.035190
4024	-0.029087
4020	-0.177335
4016	-0.290155
4012	-0.185465
4008	0.052237
4004	0.243163
4000	0.239491
3996	0.111865
3992	0.091385
3988	0.126171
3984	0.166368
3980	0.300931
3976	0.425362
3972	0.230264
3968	-0.133323
3964	-0.230765
3960	-0.087833
3956	0.065183
3952	0.143814
3948	0.149655
3944	0.106120
3940	-0.031638
3936	-0.214123
3932	-0.184392
3928	0.019502
3924	0.091743
3920	-0.001907
3916	-0.039863
3912	0.022006
3908	0.057315
3904	0.109410
3900	0.156593
3896	0.117301
3892	0.105237
3888	0.134110
3884	0.112247
3880	0.027608
3876	-0.013136
3872	-0.012135
3868	-0.087380
3864	-0.095391
3860	0.021576
3856	0.066041
3852	0.023317
3848	0.027894
3844	0.057959
3840	0.081253
3836	0.068497
3832	-0.023961
3828	-0.147032
3824	-0.171422
3820	0.029778
3816	0.216603
3812	0.143504
3808	-0.012493
3804	-0.030326
3800	0.033211
3796	0.053501
3792	0.053048
3788	0.073575
3784	0.143432
3780	0.197172
3776	0.211381
3772	0.185704
3768	0.104475
3764	0.025773
3760	-0.027704
3756	-0.022053
3752	-0.021505
3748	-0.041913
3744	-0.017666
3740	0.016283
3736	0.037574
3732	0.027608
3728	-0.051784
3724	-0.115251
3720	-0.076246
3716	0.007128
3712	0.094485
3708	0.114393
3704	0.056219
3700	-0.000858
3696	-0.063037
3692	-0.106763
3688	-0.116801
3684	-0.098705
3680	-0.056791
3676	-0.077033
3672	-0.110363
3668	-0.046706
3664	0.053071
3660	0.122952
3656	0.141239
3652	0.117421
3648	0.080537
3644	0.023984
3640	0.034308
3636	0.108480
3632	0.110769
3628	0.047302
3624	-0.014138
3620	-0.080180
3616	-0.046682
3612	0.105142
3608	0.144195
3604	0.061130
3600	0.086736
3596	0.196242
3592	0.186753
3588	0.054740
3584	-0.050234
3580	-0.072789
3576	-0.066566
3572	-0.057959
3568	-0.012326
3564	0.046086
3560	0.103735
3556	0.181531
3552	0.178956
3548	0.092768
3544	0.052189
3540	0.022792
3536	-0.032043
3532	0.018072
3528	0.116848
3524	0.130534
3520	0.122570
3516	0.081729
3512	0.018835
3508	-0.003194
3504	0.009822
3500	0.057172
3496	0.074696
3492	0.085520
3488	0.145959
3484	0.164103
3480	0.180912
3476	0.260353
3472	0.218367
3468	0.046277
3464	-0.055956
3460	-0.068259
3456	-0.057482
3452	-0.016617
3448	0.054168
3444	0.099349
3440	0.064611
3436	-0.004196
3432	-0.059890
3428	-0.092482
3424	-0.061988
3420	-0.006532
3416	0.023317
3412	0.022983
3408	0.031709
3404	0.055146
3400	0.046920
3396	0.090312
3392	0.199580
3388	0.231361
3384	0.196266
3380	0.135254
3376	0.060939
3372	0.064229
3368	0.086092
3364	0.040102
3360	-0.036144
3356	-0.060915
3352	-0.005507
3348	0.026416
3344	0.016736
3340	0.034713
3336	0.047492
3332	0.057125
3328	0.078272
3324	0.073218
3320	0.046682
3316	0.023698
3312	0.038027
3308	0.068879
3304	0.073266
3300	0.025272
3296	-0.045204
3292	-0.053811
3288	-0.031566
3284	-0.000286
3280	0.059580
3276	0.117468
3272	0.180983
3268	0.213027
3264	0.207972
3260	0.139021
3256	-0.028753
3252	-0.102686
3248	-0.040507
3244	0.024080
3240	0.088429
3236	0.126886
3232	0.099039
3228	0.033712
3224	-0.037145
3220	-0.080132
3216	-0.047135
3212	0.017786
3208	0.025486
3204	0.014615
3200	-0.050520
3196	-0.121855
3192	-0.015950
3188	0.123500
3184	0.100564
3180	0.004482
3176	-0.027370
3172	0.003647
3168	0.069212
3164	0.125980
3160	0.130915
3156	0.130915
3152	0.121879
3148	0.105619
3144	0.068163
3140	-0.012493
3136	-0.066184
3132	-0.070858
3128	0.003480
3124	0.066852
3120	0.021719
3116	0.009417
3112	0.100350
3108	0.158929
3104	0.078701
3100	-0.047564
3096	-0.081968
3092	-0.045776
3088	-0.008344
3084	0.002408
3080	-0.027704
3076	-0.062274
3072	-0.104427
3068	-0.086331
3064	0.044345
3060	0.147485
3056	0.149631
3052	0.056385
3048	-0.050783
3044	-0.049948
3040	0.042963
3036	0.113773
3032	0.040769
3028	-0.080537
3024	-0.086069
3020	-0.044894
3016	-0.017237
3012	0.034356
3008	0.069332
3004	0.047898
3000	0.020098
2996	-0.013518
2992	-0.073146
2988	-0.086688
2984	-0.044751
2980	-0.013017
2976	0.032901
2972	0.118803
2968	0.154876
2964	0.091862
2960	0.022053
2956	0.002479
2952	-0.004768
2948	-0.027489
2944	-0.012207
2940	0.064468
2936	0.127911
2932	0.099444
2928	0.023007
2924	0.035786
2920	0.084924
2916	0.071954
2912	0.071644
2908	0.123143
2904	0.125622
2900	0.042009
2896	0.002145
2892	0.049710
2888	0.049114
2884	-0.031733
2880	-0.067734
2876	-0.035905
2872	-0.008678
2868	0.004410
2864	0.030517
2860	0.063061
2856	0.051403
2852	0.006747
2848	0.003004
2844	0.028657
2840	-0.003767
2836	-0.047874
2832	-0.004673
2828	0.046563
2824	0.028300
2820	-0.004029
2816	-0.016069
2812	0.004935
2808	0.028705
2804	0.014972
2800	0.030612
2796	0.048565
2792	0.041222
2788	0.061154
2784	0.052905
2780	0.005102
2776	-0.020718
2772	0.003027
2768	0.022172
2764	0.016403
2760	0.042700
2756	0.054454
2752	0.039458
2748	0.050163
2744	0.060534
2740	0.073361
2736	0.077271
2732	0.046968
2728	0.021743
2724	0.032424
2720	0.074744
2716	0.082230
2712	0.039482
2708	0.041818
2704	0.090003
2700	0.147294
2696	0.179982
2692	0.127267
2688	0.021791
2684	-0.020003
2680	0.024914
2676	0.066351
2672	0.083351
2668	0.078964
2664	0.043416
2660	0.028967
2656	0.071763
2652	0.116133
2648	0.088858
2644	0.023984
2640	-0.015044
2636	-0.027704
2632	-0.001859
2628	0.054502
2624	0.086784
2620	0.060057
2616	0.005459
2612	-0.015544
2608	-0.003695
2604	0.012779
2600	0.032663
2596	0.072097
2592	0.088691
2588	0.032591
2584	-0.030899
2580	-0.047445
2576	-0.011253
2572	0.044655
2568	0.052905
2564	-0.010156
2560	-0.070261
2556	-0.081849
2552	-0.063180
2548	-0.032162
2544	-0.025463
2540	-0.011372
2536	0.027394
2532	0.060343
2528	0.062918
2524	0.052309
2520	0.060772
2516	0.084209
2512	0.097823
2508	0.024747
2504	-0.082039
2500	-0.038266
2496	0.076603
2492	0.106287
2488	0.110387
2484	0.065088
2480	-0.035572
2476	-0.057029
2472	0.020360
2468	0.110507
2464	0.142478
2460	0.083804
2456	0.024366
2452	0.065875
2448	0.099253
2444	0.083184
2440	0.123810
2436	0.186634
2432	0.225090
2428	0.228071
2424	0.208449
2420	0.205850
2416	0.141692
2412	0.040340
2408	0.033378
2404	0.116443
2400	0.190663
2396	0.174379
2392	0.127744
2388	0.185036
2384	0.312614
2380	0.374698
2376	0.380945
2372	0.378131
2368	0.395750
2364	0.477194
2360	0.544857
2356	0.570249
2352	0.632286
2348	0.683331
2344	0.674247
2340	0.692629
2336	0.739407
2332	0.782990
2328	0.877428
2324	0.988721
2320	1.101469
2316	1.232218
2312	1.304650
2308	1.322460
2304	1.392960
2300	1.562333
2296	1.752305
2292	1.868319
2288	1.974701
2284	2.179217
2280	2.410030
2276	2.587842
2272	2.765488
2268	2.959513
2264	3.111982
2260	3.275728
2256	3.545665
2252	3.846788
2248	4.138088
2244	4.466128
2240	4.771566
2236	5.047249
2232	5.347251
2228	5.647492
2224	5.984449
2220	6.369304
2216	6.744623
2212	7.107424
2208	7.480621
2204	7.894253
2200	8.341836
2196	8.767104
2192	9.187126
2188	9.657311
2184	10.1447
2180	10.6495
2176	11.1734
2172	11.6656
2168	12.202
2164	12.8075
2160	13.3979
2156	13.9257
2152	14.3993
2148	14.9227
2144	15.4597
2140	15.9277
2136	16.3985
2132	16.9413
2128	17.5021
2124	17.9836
2120	18.4732
2116	19.0259
2112	19.5738
2108	20.1019
2104	20.6111
2100	21.1375
2096	21.6904
2092	22.1896
2088	22.6552
2084	23.1626
2080	23.5915
2076	23.8734
2072	24.2413
2068	24.7859
2064	25.3295
2060	25.8291
2056	26.222
2052	26.4862
2048	26.835
2044	27.3032
2040	27.7449
2036	28.1168
2032	28.4233
2028	28.7241
2024	29.0726
2020	29.4273
2016	29.7679
2012	30.0709
2008	30.3334
2004	30.5698
2000	30.8238
1996	31.0842
1992	31.2881
1988	31.4736
1984	31.6362
1980	31.8408
1976	32.1419
1972	32.4711
1968	32.8064
1964	33.0723
1960	33.2474
1956	33.4293
1952	33.6254
1948	33.8307
1944	34.0548
1940	34.1864
1936	34.2275
1932	34.3052
1928	34.4127
1924	34.5284
1920	34.6541
1916	34.7771
1912	34.924
1908	35.1101
1904	35.2936
1900	35.4451
1896	35.6001
1892	35.7642
1888	35.8825
1884	35.9429
1880	35.9792
1876	35.9708
1872	35.9321
1868	35.9513
1864	36.0513
1860	36.1444
1856	36.1858
1852	36.2494
1848	36.3504
1844	36.4792
1840	36.6309
1836	36.7563
1832	36.8625
1828	36.9598
1824	37.0275
1820	37.0523
1816	37.0422
1812	36.9998
1808	36.9341
1804	36.8967
1800	36.8908
1796	36.9251
1792	37.0345
1788	37.142
1784	37.2105
1780	37.282
1776	37.367
1772	37.4931
1768	37.5951
1764	37.5786
1760	37.5461
1756	37.5979
1752	37.6009
1748	37.495
1744	37.3769
1740	37.2839
1736	37.2299
1732	37.2182
1728	37.2969
1724	37.4473
1720	37.545
1716	37.6429
1712	37.7941
1708	37.8935
1704	37.9484
1700	37.9782
1696	37.9678
1692	37.9386
1688	37.8758
1684	37.802
1680	37.742
1676	37.6787
1672	37.6434
1668	37.6717
1664	37.7365
1660	37.7834
1656	37.8245
1652	37.904
1648	37.976
1644	38.0826
1640	38.2432
1636	38.2954
1632	38.2308
1628	38.1533
1624	38.0606
1620	37.9482
1616	37.8481
1612	37.7669
1608	37.7148
1604	37.745
1600	37.8191
1596	37.8642
1592	37.8996
1588	37.9331
1584	37.9836
1580	38.0903
1576	38.1987
1572	38.2489
1568	38.2839
1564	38.331
1560	38.3
1556	38.1871
1552	38.0787
1548	37.9644
1544	37.8817
1540	37.86
1536	37.8164
1532	37.7478
1528	37.7783
1524	37.9424
1520	38.1151
1516	38.2092
1512	38.2983
1508	38.4269
1504	38.4603
1500	38.3792
1496	38.2699
1492	38.1739
1488	38.0899
1484	37.9559
1480	37.8422
1476	37.8138
1472	37.7944
1468	37.7569
1464	37.806
1460	37.9467
1456	38.0737
1452	38.187
1448	38.2825
1444	38.3407
1440	38.4343
1436	38.5516
1432	38.5133
1428	38.3212
1424	38.1673
1420	38.0763
1416	37.9773
1412	37.8656
1408	37.7595
1404	37.6705
1400	37.6662
1396	37.7373
1392	37.8463
1388	38.0576
1384	38.2862
1380	38.3867
1376	38.4634
1372	38.571
1368	38.6041
1364	38.5242
1360	38.3597
1356	38.2154
1352	38.1296
1348	38.0199
1344	37.8887
1340	37.7584
1336	37.6302
1332	37.6263
1328	37.753
1324	37.9017
1320	38.1159
1316	38.3504
1312	38.4598
1308	38.4928
1304	38.56
1300	38.57
1296	38.4429
1292	38.3108
1288	38.1988
1284	38.0247
1280	37.8483
1276	37.7033
1272	37.609
1268	37.5971
1264	37.612
1260	37.6655
1256	37.8365
1252	38.1094
1248	38.3368
1244	38.4228
1240	38.4586
1236	38.4989
1232	38.4542
1228	38.325
1224	38.1372
1220	37.9239
1216	37.7925
1212	37.6717
1208	37.5037
1204	37.4056
1200	37.3847
1196	37.4515
1192	37.6361
1188	37.8253
1184	37.9492
1180	38.1103
1176	38.3103
1172	38.3561
1168	38.305
1164	38.3139
1160	38.2871
1156	38.1147
1152	37.8558
1148	37.6314
1144	37.4339
1140	37.2509
1136	37.1941
1132	37.2583
1128	37.3682
1124	37.4695
1120	37.5837
1116	37.7685
1112	37.9487
1108	38.1001
1104	38.1377
1100	38.0816
1096	38.0129
1092	37.8298
1088	37.568
1084	37.2795
1080	37.0618
1076	37.0068
1072	36.9865
1068	36.9513
1064	36.9928
1060	37.1331
1056	37.2993
1052	37.4324
1048	37.5821
1044	37.754
1040	37.8338
1036	37.8501
1032	37.9263
1028	37.8947
1024	37.5909
1020	37.284
1016	37.082
1012	36.8753
1008	36.7406
1004	36.6718
1000	36.5907
996	 36.5858
992	 36.6903
988	 36.8798
984	 37.1799
980	 37.4417
976	 37.5564
972	 37.6006
968	 37.6035
964	 37.5229
960	 37.3499
956	 37.1231
952	 36.8864
948	 36.6411
944	 36.3757
940	 36.1883
936	 36.1459
932	 36.1515
928	 36.1515
924	 36.2263
920	 36.4097
916	 36.645
912	 36.8273
908	 36.9197
904	 36.9951
900	 37.0089
896	 36.9278
892	 36.789
888	 36.5538
884	 36.2356
880	 35.9414
876	 35.7187
872	 35.4511
868	 35.2572
864	 35.3632
860	 35.5658
856	 35.7182
852	 35.8678
848	 35.9419
844	 36.0252
840	 36.1415
836	 36.1521
832	 36.1996
828	 36.2694
824	 36.0678
820	 35.7274
816	 35.4129
812	 35.1093
808	 34.897
804	 34.6941
800	 34.5474
796	 34.5903
792	 34.7242
788	 34.8611
784	 35.0269
780	 35.2555
776	 35.4599
772	 35.5286
768	 35.4658
764	 35.4335
760	 35.455
756	 35.3108
752	 34.9766
748	 34.5285
744	 34.1208
740	 34.0218
736	 34.0507
732	 33.9406
728	 33.9129
724	 34.0272
720	 34.0965
716	 34.1766
712	 34.3542
708	 34.5892
704	 34.7388
700	 34.6837
696	 34.5375
692	 34.3595
688	 34.1577
684	 33.9591
680	 33.6257
676	 33.1581
672	 32.796
668	 32.8468
664	 33.0945
660	 33.0649
656	 32.9545
652	 32.961
648	 33.0245
644	 33.2927
640	 33.5797
636	 33.5737
632	 33.4703
628	 33.3699
624	 33.2746
620	 33.2554
616	 32.9451
612	 32.3222
608	 31.8361
604	 31.4182
600	 31.0763
596	 31.0749
592	 31.359
588	 31.6941
584	 32.0993
580	 32.3554
576	 31.913
572	 31.3338
568	 31.3994
564	 31.6252
560	 31.727
556	 31.7431
552	 31.3431
548	 30.8018
544	 30.4445
540	 29.6844
536	 28.6407
532	 28.5367
528	 29.3933
524	 29.8346
520	 29.2175
516	 28.3596
512	 28.1602
508	 28.8057
504	 29.7016
500	 30.2209
496	 30.5296
492	 30.3861
488	 30.2517
484	 30.4084
480	 29.7587
476	 28.7953
472	 28.4858
468	 28.3489
464	 27.9299
460	 27.5746
456	 27.529
452	 27.6663
448	 27.6875
444	 27.3876
440	 27.0368
436	 26.9728
432	 27.3447
428	 26.813
424	 24.0735
420	 22.3894
416	 24.5174
412	 26.7883
408	 28.7932
404	 33.377
400	 34.9418
396	 29.8565
392	 22.2114
388	 17.5856
384	 14.4869
380	 4.423809
376	 -17.4029
372	 -20.8391
370	 -13.8284