File: Bakgrunnsmateriale/MATLAB/FTIR/ftir_data/LPE454/Mapping_121/LPE454_e127_cm-1.asc
PE IR       SPECTRUM    SPECTRUM    ASCII       PEDS        1.60
  -1
LP0A1C~1.ASC
17/05/19
23:27:42.00
17/05/19
23:27:42.00
tln
$LPE454_e0127$<ebV0>[-23.3,12.1,10.0,0.0,27,1,0]
370
64

2002,4.07
MIRTGS : RIGHTBACK : INTERNAL 2
MIR : ON : INTERNAL 2
OPTKBR

0.200000
8
8.000000
FILLER
SINGLE
SPECTRUM
UNLOCKED 256

DOUBLE

COMBINED
1
0
0

1.000000
BACKG

1
0
TRUE
51149
0
LEFT NOT FITTED RIGHT NOT FITTED 0
NONE
NONE
15600
12
4.427000
51148
TRUE
1 0 8 72 0 0 0 0

15798

#HDR
-1
-1
#GR
CM-1
EGY
2.38419e-05
0.0
5000
-1.000000
4631
8
2.428817
0.008010
#DATA
5000	0.770783
4996	0.775384
4992	0.776720
4988	0.775933
4984	0.776338
4980	0.779581
4976	0.784230
4972	0.786328
4968	0.785946
4964	0.787281
4960	0.789451
4956	0.789284
4952	0.789093
4948	0.790810
4944	0.792360
4940	0.793838
4936	0.795650
4932	0.796985
4928	0.798916
4924	0.800824
4920	0.801706
4916	0.802111
4912	0.802707
4908	0.804018
4904	0.806641
4900	0.809741
4896	0.812029
4892	0.813674
4888	0.815153
4884	0.816178
4880	0.817489
4876	0.820159
4872	0.824165
4868	0.827550
4864	0.829243
4860	0.830292
4856	0.831651
4852	0.834465
4848	0.837087
4844	0.838589
4840	0.840592
4836	0.843286
4832	0.847053
4828	0.851678
4824	0.854587
4820	0.855016
4816	0.856399
4812	0.858926
4808	0.861978
4804	0.866031
4800	0.869035
4796	0.870585
4792	0.872755
4788	0.875520
4784	0.877428
4780	0.878739
4776	0.880122
4772	0.881528
4768	0.882887
4764	0.884246
4760	0.886583
4756	0.889968
4752	0.893759
4748	0.896525
4744	0.896859
4740	0.896167
4736	0.896358
4732	0.898766
4728	0.901508
4724	0.903725
4720	0.906682
4716	0.907611
4712	0.906205
4708	0.904130
4704	0.903058
4700	0.905060
4696	0.907516
4692	0.908112
4688	0.908207
4684	0.909852
4680	0.912570
4676	0.912475
4672	0.911545
4668	0.912499
4664	0.913166
4660	0.913739
4656	0.913882
4652	0.913047
4648	0.915002
4644	0.919437
4640	0.920844
4636	0.919485
4632	0.918221
4628	0.917553
4624	0.918841
4620	0.922846
4616	0.922894
4612	0.920605
4608	0.923681
4604	0.927305
4600	0.934672
4596	0.933837
4592	0.853419
4588	0.773882
4584	0.858283
4580	0.968027
4576	0.968861
4572	0.952553
4568	0.952768
4564	0.953412
4560	0.962424
4556	0.976610
4552	0.984716
4548	0.980710
4544	0.975441
4540	0.978231
4536	0.982975
4532	0.984406
4528	0.984096
4524	0.986194
4520	0.990223
4516	0.992250
4512	0.993514
4508	0.995898
4504	0.997614
4500	0.999355
4496	1.002430
4492	1.004409
4488	1.005792
4484	1.007819
4480	1.007413
4476	1.006007
4472	1.007080
4468	1.008677
4464	1.008152
4460	1.007342
4456	1.008081
4452	1.009273
4448	1.009631
4444	1.010179
4440	1.013064
4436	1.015639
4432	1.014876
4428	1.013851
4424	1.014351
4420	1.014709
4416	1.015186
4412	1.016807
4408	1.018381
4404	1.018834
4400	1.019597
4396	1.021647
4392	1.023674
4388	1.025319
4384	1.026844
4380	1.028466
4376	1.030707
4372	1.033496
4368	1.037073
4364	1.042437
4360	1.046943
4356	1.049327
4352	1.053094
4348	1.058244
4344	1.061654
4340	1.063108
4336	1.066660
4332	1.072573
4328	1.077842
4324	1.083278
4320	1.089143
4316	1.094365
4312	1.098346
4308	1.102209
4304	1.107406
4300	1.113033
4296	1.118397
4292	1.122450
4288	1.125693
4284	1.129698
4280	1.133871
4276	1.138591
4272	1.143980
4268	1.148986
4264	1.152944
4260	1.156044
4256	1.159119
4252	1.161837
4248	1.164484
4244	1.167964
4240	1.170659
4236	1.172685
4232	1.175737
4228	1.180076
4224	1.183652
4220	1.184892
4216	1.186180
4212	1.188659
4208	1.191306
4204	1.194071
4200	1.195502
4196	1.196622
4192	1.200175
4188	1.202583
4184	1.199984
4180	1.197910
4176	1.201534
4172	1.206111
4168	1.208257
4164	1.211738
4160	1.216506
4156	1.219224
4152	1.219320
4148	1.219224
4144	1.221990
4140	1.227092
4136	1.230430
4132	1.232361
4128	1.235294
4124	1.241302
4120	1.249194
4116	1.253175
4112	1.254892
4108	1.257991
4104	1.257157
4100	1.254415
4096	1.259255
4092	1.269030
4088	1.275897
4084	1.277613
4080	1.282429
4076	1.292252
4072	1.296615
4068	1.299786
4064	1.307630
4060	1.315402
4056	1.321315
4052	1.325798
4048	1.330804
4044	1.336836
4040	1.341485
4036	1.346874
4032	1.354622
4028	1.360869
4024	1.364302
4020	1.367259
4016	1.372575
4012	1.377248
4008	1.377415
4004	1.377320
4000	1.382732
3996	1.390385
3992	1.395201
3988	1.397633
3984	1.398158
3980	1.399135
3976	1.402425
3972	1.405954
3968	1.408386
3964	1.409459
3960	1.410770
3956	1.413583
3952	1.415824
3948	1.415848
3944	1.414442
3940	1.413917
3936	1.415681
3932	1.418232
3928	1.419758
3924	1.420760
3920	1.421332
3916	1.421308
3912	1.421666
3908	1.420545
3904	1.418519
3900	1.420783
3896	1.425695
3892	1.427865
3888	1.427435
3884	1.428604
3880	1.433467
3876	1.435804
3872	1.433253
3868	1.433634
3864	1.440453
3860	1.444363
3856	1.439809
3852	1.442599
3848	1.455593
3844	1.461172
3840	1.459407
3836	1.461482
3832	1.468443
3828	1.474142
3824	1.476478
3820	1.479625
3816	1.487660
3812	1.496267
3808	1.498508
3804	1.499223
3800	1.506066
3796	1.516437
3792	1.524209
3788	1.528501
3784	1.531744
3780	1.536011
3776	1.540112
3772	1.540732
3768	1.542568
3764	1.548171
3760	1.549983
3756	1.543688
3752	1.534557
3748	1.531553
3744	1.537680
3740	1.545357
3736	1.548194
3732	1.553106
3728	1.560354
3724	1.564073
3720	1.565957
3716	1.564669
3712	1.562261
3708	1.563930
3704	1.566910
3700	1.568937
3696	1.567697
3692	1.561808
3688	1.560926
3684	1.565003
3680	1.561641
3676	1.553654
3672	1.552844
3668	1.560759
3664	1.569056
3660	1.569938
3656	1.564240
3652	1.557922
3648	1.560020
3644	1.569175
3640	1.574230
3636	1.572585
3632	1.566505
3628	1.564741
3624	1.569151
3620	1.570534
3616	1.570200
3612	1.572275
3608	1.577258
3604	1.583194
3600	1.586627
3596	1.587390
3592	1.586079
3588	1.585936
3584	1.589775
3580	1.594114
3576	1.596736
3572	1.597976
3568	1.598525
3564	1.600718
3560	1.603698
3556	1.607251
3552	1.611232
3548	1.613020
3544	1.614093
3540	1.614832
3536	1.613831
3532	1.612949
3528	1.614522
3524	1.617884
3520	1.620411
3516	1.620531
3512	1.618123
3508	1.615715
3504	1.614642
3500	1.613903
3496	1.613068
3492	1.611256
3488	1.608133
3484	1.604747
3480	1.601624
3476	1.599168
3472	1.597714
3468	1.596999
3464	1.596283
3460	1.594853
3456	1.592946
3452	1.591062
3448	1.587533
3444	1.582312
3440	1.578164
3436	1.575708
3432	1.574373
3428	1.574540
3424	1.575112
3420	1.575684
3416	1.576614
3412	1.578164
3408	1.581501
3404	1.585531
3400	1.587486
3396	1.588106
3392	1.590037
3388	1.592922
3384	1.595711
3380	1.598429
3376	1.601529
3372	1.605677
3368	1.610898
3364	1.616573
3360	1.622509
3356	1.627945
3352	1.633119
3348	1.639819
3344	1.647448
3340	1.653909
3336	1.659250
3332	1.664733
3328	1.670646
3324	1.676011
3320	1.681447
3316	1.686882
3312	1.691389
3308	1.696062
3304	1.701784
3300	1.707983
3296	1.713442
3292	1.717877
3288	1.722431
3284	1.728129
3280	1.734089
3276	1.739764
3272	1.744437
3268	1.747989
3264	1.751255
3260	1.753377
3256	1.756286
3252	1.760816
3248	1.763725
3244	1.765251
3240	1.766967
3236	1.768207
3232	1.769328
3228	1.770925
3224	1.772189
3220	1.773524
3216	1.775169
3212	1.776695
3208	1.778101
3204	1.779508
3200	1.779818
3196	1.778578
3192	1.777935
3188	1.778888
3184	1.780390
3180	1.782393
3176	1.784563
3172	1.785659
3168	1.786184
3164	1.787066
3160	1.788735
3156	1.791572
3152	1.795792
3148	1.800608
3144	1.804494
3140	1.808071
3136	1.812839
3132	1.818394
3128	1.822829
3124	1.825189
3120	1.827692
3116	1.832556
3112	1.839041
3108	1.845812
3104	1.852703
3100	1.860332
3096	1.868820
3092	1.876759
3088	1.884579
3084	1.893115
3080	1.899766
3076	1.904296
3072	1.909184
3068	1.914834
3064	1.921558
3060	1.928234
3056	1.935029
3052	1.942682
3048	1.948261
3044	1.952052
3040	1.956844
3036	1.960921
3032	1.961278
3028	1.958084
3024	1.952362
3020	1.946878
3016	1.950669
3012	1.967263
3008	1.987147
3004	2.000784
3000	2.008700
2996	2.014279
2992	2.017164
2988	2.017045
2984	2.013969
2980	2.006530
2976	1.991891
2972	1.969885
2968	1.944518
2964	1.923918
2960	1.914381
2956	1.912188
2952	1.909089
2948	1.898145
2944	1.874351
2940	1.838970
2936	1.802039
2932	1.772737
2928	1.753759
2924	1.755881
2920	1.789283
2916	1.840305
2912	1.884722
2908	1.913809
2904	1.933407
2900	1.948523
2896	1.960635
2892	1.971197
2888	1.979875
2884	1.986002
2880	1.989054
2876	1.984953
2872	1.967430
2868	1.935529
2864	1.901698
2860	1.889538
2856	1.909470
2852	1.947426
2848	1.987314
2844	2.023410
2840	2.052640
2836	2.072739
2832	2.086234
2828	2.098155
2824	2.109909
2820	2.121233
2816	2.132081
2812	2.141666
2808	2.150249
2804	2.158665
2800	2.165627
2796	2.170753
2792	2.176523
2788	2.183675
2784	2.191829
2780	2.200794
2776	2.208733
2772	2.215194
2768	2.220439
2764	2.223730
2760	2.225708
2756	2.228689
2752	2.232766
2748	2.235078
2744	2.235198
2740	2.235579
2736	2.237057
2732	2.239251
2728	2.240490
2724	2.240300
2720	2.239727
2716	2.238655
2712	2.235841
2708	2.232265
2704	2.230763
2700	2.230668
2696	2.228713
2692	2.225565
2688	2.222990
2684	2.220678
2680	2.218556
2676	2.216601
2672	2.214312
2668	2.211523
2664	2.208971
2660	2.205896
2656	2.202177
2652	2.200531
2648	2.200818
2644	2.200269
2640	2.198839
2636	2.198123
2632	2.199482
2628	2.202033
2624	2.203130
2620	2.202987
2616	2.203369
2612	2.204418
2608	2.205300
2604	2.205967
2600	2.207231
2596	2.209091
2592	2.210903
2588	2.213406
2584	2.218651
2580	2.225947
2576	2.233076
2572	2.239584
2568	2.245616
2564	2.250862
2560	2.254915
2556	2.259898
2552	2.265501
2548	2.269744
2544	2.273964
2540	2.278780
2536	2.283072
2532	2.287173
2528	2.291846
2524	2.295351
2520	2.296090
2516	2.296495
2512	2.298545
2508	2.301168
2504	2.303671
2500	2.306365
2496	2.308511
2492	2.308821
2488	2.307105
2484	2.304100
2480	2.301287
2476	2.299308
2472	2.297377
2468	2.294707
2464	2.291059
2460	2.287101
2456	2.283239
2452	2.279853
2448	2.276492
2444	2.272725
2440	2.269172
2436	2.264928
2432	2.258229
2428	2.250862
2424	2.245688
2420	2.243208
2416	2.242660
2412	2.242040
2408	2.239274
2404	2.235484
2400	2.232336
2396	2.230119
2392	2.228903
2388	2.227807
2384	2.225852
2380	2.222776
2376	2.218198
2372	2.213978
2368	2.211666
2364	2.210998
2360	2.213597
2356	2.220869
2352	2.229905
2348	2.235817
2344	2.237749
2340	2.240347
2336	2.246093
2332	2.253627
2328	2.261519
2324	2.269482
2320	2.277755
2316	2.285289
2312	2.292394
2308	2.300047
2304	2.307248
2300	2.313685
2296	2.319717
2292	2.325296
2288	2.330994
2284	2.335524
2280	2.338290
2276	2.341318
2272	2.344989
2268	2.347874
2264	2.349686
2260	2.351975
2256	2.354145
2252	2.354407
2248	2.353858
2244	2.354645
2240	2.355551
2236	2.355003
2232	2.354288
2228	2.353453
2224	2.351856
2220	2.349162
2216	2.345824
2212	2.342319
2208	2.338719
2204	2.335786
2200	2.332639
2196	2.329444
2192	2.327227
2188	2.324390
2184	2.320861
2180	2.317929
2176	2.314591
2172	2.309703
2168	2.306604
2164	2.307486
2160	2.309298
2156	2.309703
2152	2.309513
2148	2.309536
2144	2.308440
2140	2.306652
2136	2.306532
2132	2.307081
2128	2.306413
2124	2.305912
2120	2.306866
2116	2.308034
2112	2.309155
2108	2.310776
2104	2.311730
2100	2.310800
2096	2.309346
2092	2.309036
2088	2.309465
2084	2.311277
2080	2.314996
2076	2.321052
2072	2.329754
2068	2.339124
2064	2.347254
2060	2.354454
2056	2.361011
2052	2.368354
2048	2.377152
2044	2.385210
2040	2.391934
2036	2.398777
2032	2.405261
2028	2.410340
2024	2.413964
2020	2.416253
2016	2.418518
2012	2.421641
2008	2.424383
2004	2.426362
2000	2.428174
1996	2.428698
1992	2.426695
1988	2.424550
1984	2.422857
1980	2.419638
1976	2.416086
1972	2.413702
1968	2.410578
1964	2.405834
1960	2.401065
1956	2.397561
1952	2.393984
1948	2.389311
1944	2.386283
1940	2.384686
1936	2.381706
1932	2.377533
1928	2.372622
1924	2.366590
1920	2.361416
1916	2.358508
1912	2.355217
1908	2.350950
1904	2.347898
1900	2.344799
1896	2.341198
1892	2.339720
1888	2.341127
1884	2.343153
1880	2.344441
1876	2.344775
1872	2.344608
1868	2.346706
1864	2.351331
1860	2.355289
1856	2.358245
1852	2.360105
1848	2.358102
1844	2.357745
1840	2.364444
1836	2.371430
1832	2.373933
1828	2.375268
1824	2.379536
1820	2.386116
1816	2.391219
1812	2.393913
1808	2.395725
1804	2.397036
1800	2.397036
1796	2.393913
1792	2.391076
1788	2.393579
1784	2.396416
1780	2.394199
1776	2.385711
1772	2.377963
1768	2.378511
1764	2.379870
1760	2.376317
1756	2.367210
1752	2.353191
1748	2.341556
1744	2.331089
1740	2.313470
1736	2.293896
1732	2.288222
1728	2.293729
1724	2.290821
1720	2.275371
1716	2.266407
1712	2.269029
1708	2.263498
1704	2.242565
1700	2.220964
1696	2.218818
1692	2.227377
1688	2.218985
1684	2.205896
1680	2.205753
1676	2.202272
1672	2.193474
1668	2.187943
1664	2.181911
1660	2.169322
1656	2.144575
1652	2.125525
1648	2.126240
1644	2.129936
1640	2.122235
1636	2.108573
1632	2.101731
1628	2.094268
1624	2.075552
1620	2.045655
1616	2.006959
1612	1.967740
1608	1.944231
1604	1.948189
1600	1.966047
1596	1.979780
1592	1.985478
1588	1.983857
1584	1.975679
1580	1.962113
1576	1.951050
1572	1.947665
1568	1.942706
1564	1.922249
1560	1.897740
1556	1.900887
1552	1.923441
1548	1.931357
1544	1.927447
1540	1.948356
1536	2.001285
1532	2.050471
1528	2.074289
1524	2.078366
1520	2.075552
1516	2.071332
1512	2.058386
1508	2.029705
1504	1.964473
1500	1.825714
1496	1.677989
1492	1.659083
1488	1.763367
1484	1.874613
1480	1.931786
1476	1.945424
1472	1.944208
1468	1.936030
1464	1.909899
1460	1.854014
1456	1.780176
1452	1.737022
1448	1.757168
1444	1.805138
1440	1.831603
1436	1.839780
1432	1.845192
1428	1.844882
1424	1.837849
1420	1.828432
1416	1.817917
1412	1.792693
1408	1.745557
1404	1.706695
1400	1.708269
1396	1.738405
1392	1.762247
1388	1.763129
1384	1.760292
1380	1.771521
1376	1.783680
1372	1.788973
1368	1.791357
1364	1.792025
1360	1.792645
1356	1.792311
1352	1.790690
1348	1.788687
1344	1.786923
1340	1.790547
1336	1.802253
1332	1.814508
1328	1.821160
1324	1.824045
1320	1.825833
1316	1.827526
1312	1.829338
1308	1.830005
1304	1.829123
1300	1.828503
1296	1.828408
1292	1.828312
1288	1.828360
1284	1.826810
1280	1.820445
1276	1.807022
1272	1.780700
1268	1.737833
1264	1.698207
1260	1.696085
1256	1.732635
1252	1.773548
1248	1.797223
1244	1.807141
1240	1.810765
1236	1.811075
1232	1.808357
1228	1.802039
1224	1.791644
1220	1.776814
1216	1.757812
1212	1.738524
1208	1.726365
1204	1.723504
1200	1.724505
1196	1.723384
1192	1.718425
1188	1.711344
1184	1.702690
1180	1.692461
1176	1.680231
1172	1.664781
1168	1.646661
1164	1.627254
1160	1.609516
1156	1.598024
1152	1.592326
1148	1.586747
1144	1.578116
1140	1.568198
1136	1.557040
1132	1.542019
1128	1.523137
1124	1.502633
1120	1.482176
1116	1.461362
1112	1.441121
1108	1.425313
1104	1.415777
1100	1.411318
1096	1.409506
1092	1.408886
1088	1.410126
1084	1.412272
1080	1.412677
1076	1.413393
1072	1.417231
1068	1.421356
1064	1.420712
1060	1.403903
1056	1.353859
1052	1.295304
1048	1.290321
1044	1.333069
1040	1.364111
1036	1.368570
1032	1.361942
1028	1.352715
1024	1.345109
1020	1.343846
1016	1.351094
1012	1.362609
1008	1.372599
1004	1.379489
1000	1.382732
996	 1.381969
992	 1.378655
988	 1.373100
984	 1.364994
980	 1.356959
976	 1.350164
972	 1.340866
968	 1.328015
964	 1.314544
960	 1.300835
956	 1.286745
952	 1.273655
948	 1.262354
944	 1.252937
940	 1.244783
936	 1.236581
932	 1.228284
928	 1.220154
924	 1.211714
920	 1.201939
916	 1.188802
912	 1.172757
908	 1.157546
904	 1.146340
900	 1.139807
896	 1.135325
892	 1.126933
888	 1.107406
884	 1.074695
880	 1.038169
876	 1.017498
872	 1.025629
868	 1.051282
864	 1.072621
860	 1.080250
856	 1.077985
852	 1.073193
848	 1.069188
844	 1.063394
840	 1.049256
836	 1.015758
832	 0.952553
828	 0.875473
824	 0.837016
820	 0.862288
816	 0.908017
812	 0.932431
808	 0.936770
804	 0.934839
800	 0.935173
796	 0.940561
792	 0.949978
788	 0.960493
784	 0.967955
780	 0.970482
776	 0.968933
772	 0.964307
768	 0.959539
764	 0.957226
760	 0.955843
756	 0.952982
752	 0.947737
748	 0.940370
744	 0.932455
740	 0.923919
736	 0.915360
732	 0.907492
728	 0.897169
724	 0.883054
720	 0.869607
716	 0.859284
712	 0.849246
708	 0.837016
704	 0.822567
700	 0.806641
696	 0.785875
692	 0.755596
688	 0.728917
684	 0.722336
680	 0.725483
676	 0.722765
672	 0.714135
668	 0.704407
664	 0.695753
660	 0.688314
656	 0.680255
652	 0.669860
648	 0.658082
644	 0.646185
640	 0.635147
636	 0.625300
632	 0.615549
628	 0.605106
624	 0.594830
620	 0.584173
616	 0.570559
612	 0.552248
608	 0.532913
604	 0.521469
600	 0.518274
596	 0.515437
592	 0.510811
588	 0.506544
584	 0.502562
580	 0.498390
576	 0.494956
572	 0.491070
568	 0.485277
564	 0.479412
560	 0.473904
556	 0.466275
552	 0.458359
548	 0.452446
544	 0.445508
540	 0.437974
536	 0.432443
532	 0.428295
528	 0.422167
524	 0.410246
520	 0.396704
516	 0.387811
512	 0.378918
508	 0.366544
504	 0.354766
500	 0.342273
496	 0.328969
492	 0.316357
488	 0.301861
484	 0.287461
480	 0.275254
476	 0.263500
472	 0.249719
468	 0.234365
464	 0.220394
460	 0.208473
456	 0.197100
452	 0.184512
448	 0.171780
444	 0.159215
440	 0.145959
436	 0.133681
432	 0.123333
428	 0.113177
424	 0.100350
420	 0.085663
416	 0.073623
412	 0.064778
408	 0.056433
404	 0.047612
400	 0.039410
396	 0.033020
392	 0.027513
388	 0.021553
384	 0.015711
380	 0.011563
376	 0.010466
372	 0.009393
370	 0.008010