File: Bakgrunnsmateriale/MATLAB/FTIR/ftir_data/LPE454/Mapping_121/LPE454_t14.asc
PE IR       SPECTRUM    SPECTRUM    ASCII       PEDS        1.60
  -1
LPD79C~1.ASC
17/05/19
15:29:54.00
17/05/19
15:30:20.00
tln
$LPE454_t0014$<tbV0>[7.8,-10.4,8.0,0.0,27,1,0]
27.028
64

2002,4.07
MIRTGS : RIGHTBACK : INTERNAL 2
MIR : ON : INTERNAL 2
OPTKBR

0.200000
8
8.000000
FILLER
RATIO
SPECTRUM
UNLOCKED 256

DOUBLE
64
COMBINED
1
0
0

0.002000
RATIO

1
0
TRUE
51149
0
LEFT NOT FITTED RIGHT NOT FITTED 0
NONE
NONE
15600
12
4.427000
51148
TRUE
1 0 8 72 0 0 0 0

15798

#HDR
-1
-1
#GR
µM
%T
2.38419e-05
0.0
2.000000
0.002000
12515
8
34.1239
-20.5541
#DATA
2.000000	 0.327444
2.018000	 0.155830
2.036000	 -0.257651
2.054000	 0.790690
2.072000	 0.160567
2.090000	 1.061755
2.108000	 1.805742
2.126000	 -0.167462
2.144000	 0.370144
2.162000	 0.381382
2.180000	 0.126124
2.198000	 -0.949744
2.216000	 -0.578236
2.234000	 17.0918
2.252000	 -1.500432
2.270000	 0.656969
2.288000	 0.722980
2.306000	 0.558621
2.324000	 0.299946
2.342000	 0.084181
2.360000	 0.397496
2.378000	 0.504437
2.396000	 0.810551
2.414000	 0.090939
2.432000	 0.362128
2.450000	 0.143024
2.468000	 0.137155
2.486000	 0.103928
2.504000	 0.204115
2.522000	 0.420063
2.540000	 0.140409
2.558000	 0.110517
2.576000	 -0.051555
2.594000	 0.116885
2.612000	 0.150422
2.630000	 0.087704
2.648000	 0.141845
2.666000	 0.129721
2.684000	 0.021650
2.702000	 0.028273
2.720000	 -0.108447
2.738000	 0.125951
2.756000	 -0.077564
2.774000	 0.021818
2.792000	 -0.036873
2.810000	 0.129117
2.828000	 0.036400
2.846000	 0.054586
2.864000	 0.047604
2.882000	 0.210013
2.900000	 -0.045070
2.918000	 -0.054722
2.936000	 -0.079313
2.954000	 -0.109310
2.972000	 0.137096
2.990000	 -0.074060
3.008000	 0.086617
3.026000	 -0.031462
3.044000	 -0.034311
3.062000	 0.224861
3.080000	 0.106619
3.098000	 0.033859
3.116000	 0.073305
3.134000	 -0.062181
3.152000	 0.004542
3.170000	 0.175501
3.188000	 0.177487
3.206000	 0.020851
3.224000	 0.087176
3.242000	 0.116983
3.260000	 0.125591
3.278000	 -0.027546
3.296000	 -0.038481
3.314000	 0.043413
3.332000	 -0.057281
3.350000	 0.025919
3.368000	 0.166828
3.386000	 0.064954
3.404000	 0.116720
3.422000	 0.197071
3.440000	 0.028346
3.458000	 -0.065193
3.476000	 0.028506
3.494000	 0.123712
3.512000	 -0.071887
3.530000	 0.030456
3.548000	 -0.002774
3.566000	 0.098169
3.584000	 0.108056
3.602000	 0.034651
3.620000	 0.062454
3.638000	 0.100546
3.656000	 0.020707
3.674000	 -0.057058
3.692000	 0.080574
3.710000	 -0.066222
3.728000	 0.061204
3.746000	 0.037488
3.764000	 0.015881
3.782000	 0.013867
3.800000	 0.004365
3.818000	 0.054944
3.836000	 0.001016
3.854000	 -0.010318
3.872000	 0.081035
3.890000	 0.039482
3.908000	 0.075306
3.926000	 -0.001387
3.944000	 -0.025845
3.962000	 -0.087244
3.980000	 0.064649
3.998000	 0.029242
4.016000	 -0.006695
4.034000	 -0.013982
4.052000	 0.117231
4.070000	 0.036427
4.088000	 -0.008033
4.106000	 0.002411
4.124000	 0.130969
4.141999	 -0.068915
4.160000	 0.022730
4.178000	 0.017491
4.196000	 0.115262
4.214000	 0.101384
4.232000	 0.076742
4.250000	 0.077717
4.268000	 0.206722
4.286000	 0.242799
4.304000	 0.396430
4.322000	 0.465842
4.340000	 0.555346
4.358000	 0.784874
4.375999	 0.948450
4.394000	 1.058708
4.412000	 1.357511
4.430000	 1.679672
4.448000	 2.143449
4.466000	 2.516111
4.484000	 2.983466
4.502000	 3.499558
4.520000	 4.012700
4.538000	 4.684760
4.556000	 5.396378
4.574000	 6.187279
4.592000	 7.022638
4.609999	 7.797348
4.628000	 8.803991
4.646000	 9.537215
4.664000	 10.6852
4.682000	 11.5354
4.700000	 12.626
4.718000	 13.4635
4.736000	 14.4318
4.754000	 15.4531
4.772000	 16.5557
4.790000	 17.2789
4.808000	 18.0165
4.826000	 19.2648
4.843999	 20.0995
4.862000	 21.0425
4.880000	 21.5543
4.898000	 22.3361
4.916000	 23.034
4.934000	 23.6742
4.952000	 24.3679
4.970000	 24.9946
4.988000	 25.523
5.006000	 26.0583
5.024000	 26.5289
5.042000	 27.0782
5.060000	 27.5978
5.077999	 27.965
5.096000	 28.381
5.114000	 28.7311
5.132000	 29.1351
5.150000	 29.346
5.168000	 29.6034
5.186000	 29.8849
5.204000	 30.2421
5.222000	 30.5472
5.240000	 30.7405
5.258000	 30.9693
5.276000	 31.2033
5.294000	 31.4291
5.312000	 31.5222
5.330000	 31.6678
5.348000	 31.8845
5.366000	 32.0157
5.384000	 32.1791
5.402000	 32.285
5.420000	 32.454
5.438000	 32.5576
5.456000	 32.6205
5.474000	 32.7344
5.492000	 32.8067
5.510000	 32.9151
5.528000	 33.028
5.546000	 33.0978
5.564000	 33.2112
5.582000	 33.2804
5.600000	 33.288
5.618000	 33.2722
5.636000	 33.4065
5.654000	 33.4351
5.672000	 33.3354
5.690000	 33.4252
5.708000	 33.616
5.726000	 33.5684
5.744000	 33.568
5.762000	 33.7017
5.780000	 33.7092
5.798000	 33.6766
5.816000	 33.7545
5.834000	 33.694
5.852000	 33.593
5.870000	 33.7763
5.888000	 33.8481
5.906000	 33.8648
5.923999	 33.9395
5.942000	 33.9694
5.960000	 33.9572
5.978000	 33.959
5.996000	 33.8791
6.014000	 33.8786
6.032000	 33.9562
6.050000	 34.0141
6.068000	 33.9135
6.086000	 33.8835
6.104000	 33.9969
6.122000	 33.9785
6.140000	 33.8955
6.158000	 33.8761
6.176000	 33.9695
6.194000	 33.9945
6.212000	 33.8575
6.230000	 33.8097
6.248000	 33.8559
6.266000	 33.8367
6.284000	 33.7792
6.302000	 33.7678
6.320000	 33.8418
6.338000	 34.002
6.356000	 34.0252
6.374000	 33.9455
6.392000	 33.986
6.410000	 34.1076
6.428000	 34.0812
6.446000	 33.9171
6.464000	 33.8789
6.482000	 33.9806
6.500000	 34.023
6.518000	 33.9568
6.536000	 33.8693
6.554000	 33.8513
6.572000	 33.8809
6.590000	 33.848
6.608000	 33.8755
6.626000	 34.0022
6.644000	 34.0087
6.662000	 33.8953
6.680000	 33.8067
6.698000	 33.772
6.716000	 33.7841
6.734000	 33.8138
6.752000	 33.8305
6.770000	 33.8555
6.788000	 33.9009
6.806000	 33.9365
6.824000	 33.9126
6.842000	 33.8873
6.860000	 33.9161
6.878000	 33.8904
6.896000	 33.775
6.914000	 33.6759
6.932000	 33.6621
6.950000	 33.7185
6.968000	 33.7821
6.986000	 33.7972
7.004000	 33.7438
7.022000	 33.6984
7.040000	 33.7231
7.058000	 33.7477
7.076000	 33.7448
7.094000	 33.7513
7.112000	 33.7588
7.130000	 33.7633
7.148000	 33.7751
7.166000	 33.793
7.184000	 33.814
7.202000	 33.8256
7.220000	 33.8118
7.238000	 33.7779
7.256000	 33.7481
7.274000	 33.7162
7.292000	 33.656
7.310000	 33.5799
7.328000	 33.5369
7.346000	 33.5525
7.364000	 33.5976
7.382000	 33.6474
7.400000	 33.7112
7.418000	 33.7594
7.436000	 33.7498
7.454000	 33.7146
7.472000	 33.7062
7.490000	 33.7099
7.508000	 33.6659
7.526000	 33.5553
7.544000	 33.452
7.562000	 33.4476
7.580000	 33.5253
7.598000	 33.5896
7.616000	 33.5961
7.634000	 33.567
7.652000	 33.5301
7.670000	 33.5167
7.688000	 33.5413
7.706000	 33.558
7.724000	 33.5241
7.742000	 33.4791
7.760000	 33.4817
7.778000	 33.5201
7.796000	 33.5414
7.814000	 33.513
7.832000	 33.4352
7.850000	 33.3395
7.868000	 33.2657
7.886000	 33.2259
7.904000	 33.2111
7.922000	 33.2201
7.940000	 33.2538
7.958000	 33.3039
7.976000	 33.3562
7.994000	 33.3881
8.012000	 33.3756
8.030000	 33.328
8.048000	 33.295
8.065999	 33.3098
8.084000	 33.3463
8.102000	 33.3569
8.120000	 33.3341
8.138000	 33.3072
8.155999	 33.2997
8.173999	 33.3101
8.192000	 33.3216
8.210000	 33.3149
8.228000	 33.285
8.246000	 33.2492
8.263999	 33.2294
8.282000	 33.2275
8.300000	 33.2286
8.318000	 33.2272
8.336000	 33.2366
8.353999	 33.2639
8.372000	 33.289
8.390000	 33.2772
8.408000	 33.2139
8.426000	 33.1302
8.443999	 33.0882
8.462000	 33.1212
8.480000	 33.1908
8.498000	 33.227
8.516000	 33.205
8.533999	 33.1587
8.552000	 33.1294
8.570000	 33.127
8.588000	 33.1379
8.606000	 33.1495
8.624000	 33.1511
8.641999	 33.1305
8.660000	 33.0807
8.678000	 33.0108
8.696000	 32.9392
8.714000	 32.8836
8.731999	 32.8574
8.750000	 32.864
8.768000	 32.8865
8.786000	 32.8936
8.804000	 32.8717
8.821999	 32.8446
8.840000	 32.8452
8.858000	 32.8733
8.876000	 32.8978
8.894000	 32.8993
8.911999	 32.8971
8.930000	 32.9231
8.948000	 32.9731
8.966000	 32.9982
8.984000	 32.9528
9.001999	 32.8496
9.020000	 32.7595
9.038000	 32.7492
9.056000	 32.8179
9.074000	 32.9009
9.092000	 32.9331
9.109999	 32.9005
9.128000	 32.8318
9.146000	 32.7603
9.164000	 32.6979
9.182000	 32.6392
9.199999	 32.5777
9.218000	 32.5128
9.236000	 32.4523
9.254000	 32.4118
9.272000	 32.4102
9.289999	 32.4555
9.308000	 32.5308
9.326000	 32.5988
9.344000	 32.626
9.362000	 32.6074
9.379999	 32.5728
9.398000	 32.5637
9.416000	 32.6018
9.434000	 32.6768
9.452000	 32.756
9.469999	 32.8025
9.488000	 32.7891
9.506000	 32.71
9.524000	 32.5885
9.542000	 32.4679
9.560000	 32.3896
9.577999	 32.3721
9.596000	 32.4062
9.614000	 32.4648
9.632000	 32.5163
9.650000	 32.5342
9.667999	 32.5024
9.686000	 32.4191
9.704000	 32.3
9.722000	 32.1741
9.740000	 32.0705
9.757999	 32.0064
9.776000	 31.983
9.794000	 31.9941
9.812000	 32.0363
9.830000	 32.1084
9.847999	 32.2032
9.866000	 32.3023
9.884000	 32.3826
9.902000	 32.4304
9.920000	 32.4504
9.937999	 32.4587
9.956000	 32.4675
9.974000	 32.4746
9.992000	 32.467
10.01	32.4337
10.028	32.3741
10.046	32.3003
10.064	32.2293
10.082	32.1764
10.1	32.1494
10.118	32.1458
10.136	32.1542
10.154	32.1598
10.172	32.151
10.19	32.1271
10.208	32.0977
10.226	32.0744
10.244	32.0613
10.262	32.0505
10.28	32.0286
10.298	31.9879
10.316	31.9344
10.334	31.8867
10.352	31.8639
10.37	31.8729
10.388	31.9006
10.406	31.9237
10.424	31.9222
10.442	31.8948
10.46	31.8599
10.478	31.8451
10.496	31.8664
10.514	31.9196
10.532	31.9797
10.55	32.0189
10.568	32.0203
10.586	31.9847
10.604	31.9253
10.622	31.858
10.64	31.7932
10.658	31.7366
10.676	31.6931
10.694	31.6682
10.712	31.665
10.73	31.6779
10.748	31.6916
10.766	31.6867
10.784	31.6502
10.802	31.5815
10.82	31.4914
10.838	31.397
10.856	31.312
10.874	31.2447
10.892	31.197
10.91	31.1679
10.928	31.1544
10.946	31.1519
10.964	31.1551
10.982	31.1591
11	31.1617
11.018	31.1659
11.036	31.1765
11.054	31.1961
11.072	31.2219
11.09	31.2457
11.108	31.2589
11.126	31.2574
11.144	31.2434
11.162	31.2246
11.18	31.2074
11.198	31.1933
11.216	31.1782
11.234	31.1555
11.252	31.122
11.27	31.0812
11.288	31.0426
11.306	31.0166
11.324	31.0105
11.342	31.0257
11.36	31.057
11.378	31.095
11.396	31.1302
11.414	31.155
11.432	31.1648
11.45	31.1584
11.468	31.1359
11.486	31.0985
11.504	31.048
11.522	30.9877
11.54	30.9212
11.558	30.8536
11.576	30.7893
11.594	30.7311
11.612	30.6797
11.63	30.6336
11.648	30.5906
11.666	30.5495
11.684	30.5121
11.702	30.4834
11.72	30.469
11.738	30.4725
11.756	30.4927
11.774	30.5231
11.792	30.554
11.81	30.5758
11.828	30.5824
11.846	30.5725
11.864	30.5494
11.882	30.5193
11.9	30.4896
11.918	30.4672
11.936	30.4564
11.954	30.4601
11.972	30.4787
11.99	30.5096
12.008	30.5471
12.026	30.5828
12.044	30.6078
12.062	30.6159
12.08	30.6061
12.098	30.5832
12.116	30.557
12.134	30.5387
12.152	30.5367
12.17	30.5545
12.188	30.59
12.206	30.6354
12.224	30.6796
12.242	30.7102
12.26	30.7164
12.278	30.6895
12.296	30.6258
12.314	30.5269
12.332	30.4002
12.35	30.2576
12.368	30.1143
12.386	29.9869
12.404	29.8888
12.422	29.8277
12.44	29.8043
12.458	29.8128
12.476	29.8421
12.494	29.8792
12.512	29.9118
12.53	29.9303
12.548	29.9292
12.566	29.9066
12.584	29.8647
12.602	29.8081
12.62	29.743
12.638	29.6756
12.656	29.612
12.674	29.5565
12.692	29.5121
12.71	29.4805
12.728	29.463
12.746	29.4596
12.764	29.4708
12.782	29.4971
12.8	29.5388
12.818	29.596
12.836	29.6671
12.854	29.7491
12.872	29.8376
12.89	29.9271
12.908	30.0116
12.926	30.0855
12.944	30.1441
12.962	30.1835
12.98	30.2007
12.998	30.1939
13.016	30.1624
13.034	30.1066
13.052	30.0283
13.07	29.9314
13.088	29.8218
13.106	29.7065
13.124	29.5934
13.142	29.4895
13.16	29.4002
13.178	29.3287
13.196	29.2753
13.214	29.2385
13.232	29.2153
13.25	29.2027
13.268	29.1976
13.286	29.1969
13.304	29.1971
13.322	29.1945
13.34	29.1851
13.358	29.1653
13.376	29.1331
13.394	29.0888
13.412	29.0354
13.43	28.9787
13.448	28.9265
13.466	28.8865
13.484	28.8641
13.502	28.8613
13.52	28.8761
13.538	28.9021
13.556	28.9304
13.574	28.9512
13.592	28.9563
13.61	28.9409
13.628	28.9046
13.646	28.851
13.664	28.7873
13.682	28.7219
13.7	28.6635
13.718	28.6191
13.736	28.5929
13.754	28.5866
13.772	28.5991
13.79	28.6273
13.808	28.6668
13.826	28.7126
13.844	28.7594
13.862	28.802
13.88	28.8356
13.898	28.8562
13.916	28.861
13.934	28.8487
13.952	28.8204
13.97	28.7794
13.988	28.7307
14.006	28.6808
14.024	28.636
14.042	28.6016
14.06	28.5806
14.078	28.5729
14.096	28.5752
14.114	28.5817
14.132	28.5856
14.15	28.5797
14.168	28.558
14.186	28.5169
14.204	28.4557
14.222	28.377
14.24	28.286
14.258	28.1897
14.276	28.0951
14.294	28.0086
14.312	27.935
14.33	27.8771
14.348	27.8356
14.366	27.8095
14.384	27.7967
14.402	27.7944
14.42	27.8001
14.438	27.8117
14.456	27.8279
14.474	27.8476
14.492	27.8701
14.51	27.8943
14.528	27.9187
14.546	27.9416
14.564	27.9607
14.582	27.9743
14.6	27.9807
14.618	27.979
14.636	27.9697
14.654	27.9541
14.672	27.9347
14.69	27.9139
14.708	27.8943
14.726	27.8777
14.744	27.865
14.762	27.8553
14.78	27.8475
14.798	27.8396
14.816	27.8294
14.834	27.8155
14.852	27.7974
14.87	27.7766
14.888	27.7557
14.906	27.7385
14.924	27.7295
14.942	27.7335
14.96	27.7535
14.978	27.7907
14.996	27.8446
15.014	27.9127
15.032	27.9894
15.05	28.0683
15.068	28.1432
15.086	28.2082
15.104	28.2584
15.122	28.2901
15.14	28.3023
15.158	28.2958
15.176	28.2721
15.194	28.2342
15.212	28.1855
15.23	28.1295
15.248	28.0689
15.266	28.0066
15.284	27.9453
15.302	27.8866
15.32	27.832
15.338	27.7829
15.356	27.7404
15.374	27.7054
15.392	27.6783
15.41	27.6592
15.428	27.6478
15.446	27.6426
15.464	27.6416
15.482	27.6425
15.5	27.6427
15.518	27.6384
15.536	27.6268
15.554	27.6055
15.572	27.5724
15.59	27.5263
15.608	27.4677
15.626	27.3974
15.644	27.3175
15.662	27.2311
15.68	27.1413
15.698	27.0511
15.716	26.9644
15.734	26.8841
15.752	26.812
15.77	26.7496
15.788	26.6974
15.806	26.6545
15.824	26.6197
15.842	26.5907
15.86	26.5648
15.878	26.5398
15.896	26.5137
15.914	26.4847
15.932	26.4523
15.95	26.4166
15.968	26.3785
15.986	26.3397
16.004	26.3016
16.022	26.2664
16.04	26.2361
16.058	26.2123
16.076	26.1961
16.094	26.1887
16.112	26.19
16.13	26.1997
16.148	26.2174
16.166	26.2414
16.184	26.2701
16.202	26.3019
16.22	26.3339
16.238	26.3641
16.256	26.3905
16.274	26.4104
16.292	26.4222
16.31	26.4248
16.328	26.4172
16.346	26.4
16.364	26.3734
16.382	26.3397
16.4	26.3015
16.418	26.2608
16.436	26.2221
16.454	26.1886
16.472	26.1628
16.49	26.1482
16.508	26.1461
16.526	26.1575
16.544	26.1823
16.562	26.219
16.58	26.2663
16.598	26.3209
16.616	26.3799
16.634	26.4409
16.652	26.4998
16.67	26.5549
16.688	26.6039
16.706	26.6447
16.724	26.6766
16.742	26.6985
16.76	26.7103
16.778	26.7122
16.796	26.7041
16.814	26.6869
16.832	26.6611
16.85	26.6275
16.868	26.5872
16.886	26.5412
16.904	26.4911
16.922	26.4379
16.94	26.3831
16.958	26.3285
16.976	26.2748
16.994	26.2239
17.012	26.1765
17.03	26.1333
17.048	26.095
17.066	26.0615
17.084	26.0327
17.102	26.0076
17.12	25.9857
17.138	25.9652
17.156	25.945
17.174	25.924
17.192	25.9004
17.21	25.8735
17.228	25.842
17.246	25.8054
17.264	25.7632
17.282	25.7155
17.3	25.6625
17.318	25.6046
17.336	25.5429
17.354	25.4781
17.372	25.4122
17.39	25.3458
17.408	25.2809
17.426	25.2192
17.444	25.1617
17.462	25.1106
17.48	25.0663
17.498	25.0304
17.516	25.003
17.534	24.9848
17.552	24.9752
17.57	24.9741
17.588	24.9802
17.606	24.9925
17.624	25.0097
17.642	25.0298
17.66	25.0521
17.678	25.0737
17.696	25.0943
17.714	25.1115
17.732	25.1248
17.75	25.133
17.768	25.1356
17.786	25.1325
17.804	25.1235
17.822	25.1088
17.84	25.089
17.858	25.0646
17.876	25.0363
17.894	25.0053
17.912	24.9718
17.93	24.9375
17.948	24.9025
17.966	24.8685
17.984	24.8355
18.002	24.8047
18.02	24.7765
18.038	24.7515
18.056	24.7304
18.074	24.7134
18.092	24.7008
18.11	24.6928
18.128	24.6892
18.146	24.69
18.164	24.6946
18.182	24.7026
18.2	24.7138
18.218	24.7275
18.236	24.7433
18.254	24.7608
18.272	24.7798
18.29	24.7999
18.308	24.8212
18.326	24.8435
18.344	24.8669
18.362	24.8915
18.38	24.9172
18.398	24.9442
18.416	24.9723
18.434	25.0016
18.452	25.0315
18.47	25.062
18.488	25.092
18.506	25.1216
18.524	25.149
18.542	25.174
18.56	25.1952
18.578	25.2123
18.596	25.2236
18.614	25.2289
18.632	25.227
18.65	25.2177
18.668	25.2003
18.686	25.1749
18.704	25.1413
18.722	25.1
18.74	25.0517
18.758	24.9969
18.776	24.9374
18.794	24.8739
18.812	24.8087
18.83	24.7427
18.848	24.6784
18.866	24.6168
18.884	24.5605
18.902	24.5103
18.92	24.4682
18.938	24.4348
18.956	24.4114
18.974	24.398
18.992	24.3951
19.01	24.4018
19.028	24.4176
19.046	24.4411
19.064	24.4706
19.082	24.5045
19.1	24.5401
19.118	24.5761
19.136	24.6091
19.154	24.6384
19.172	24.6605
19.19	24.6752
19.208	24.68
19.226	24.6751
19.244	24.6594
19.262	24.6333
19.28	24.5977
19.298	24.5528
19.316	24.5014
19.334	24.4436
19.352	24.3836
19.37	24.321
19.388	24.2606
19.406	24.202
19.424	24.149
19.442	24.1017
19.46	24.0623
19.478	24.0312
19.496	24.0086
19.514	23.995
19.532	23.9892
19.55	23.9912
19.568	23.9993
19.586	24.0122
19.604	24.0289
19.622	24.0472
19.64	24.0668
19.658	24.0849
19.676	24.1019
19.694	24.1157
19.712	24.1264
19.73	24.1332
19.748	24.1359
19.766	24.1347
19.784	24.1294
19.802	24.1207
19.82	24.1091
19.838	24.0949
19.856	24.079
19.874	24.0615
19.892	24.0439
19.91	24.026
19.928	24.0092
19.946	23.9933
19.964	23.9794
19.982	23.9676
20	23.9584
20.018	23.9521
20.036	23.9487
20.054	23.9486
20.072	23.9515
20.09	23.9573
20.108	23.9661
20.126	23.977
20.144	23.9902
20.162	24.0047
20.18	24.0201
20.198	24.0361
20.216	24.0518
20.234	24.0671
20.252	24.0811
20.27	24.0938
20.288	24.1047
20.306	24.1135
20.324	24.1203
20.342	24.1246
20.36	24.1267
20.378	24.1266
20.396	24.1245
20.414	24.1207
20.432	24.1151
20.45	24.1082
20.468	24.1001
20.486	24.0908
20.504	24.0808
20.522	24.0698
20.54	24.0583
20.558	24.046
20.576	24.0332
20.594	24.0199
20.612	24.006
20.63	23.9916
20.648	23.9768
20.666	23.9617
20.684	23.9464
20.702	23.931
20.72	23.9159
20.738	23.9011
20.756	23.8874
20.774	23.8744
20.792	23.8634
20.81	23.8545
20.828	23.8479
20.846	23.8443
20.864	23.8436
20.882	23.8463
20.9	23.8525
20.918	23.8618
20.936	23.8741
20.954	23.8891
20.972	23.9054
20.99	23.9235
21.008	23.9414
21.026	23.9585
21.044	23.9743
21.062	23.9862
21.08	23.9952
21.098	23.9985
21.116	23.9958
21.134	23.9865
21.152	23.9687
21.17	23.9431
21.188	23.9085
21.206	23.8646
21.224	23.812
21.242	23.7507
21.26	23.6807
21.278	23.6039
21.296	23.5201
21.314	23.4307
21.332	23.3382
21.35	23.2418
21.368	23.1449
21.386	23.0482
21.404	22.9523
21.422	22.8608
21.44	22.7724
21.458	22.6898
21.476	22.6144
21.494	22.5457
21.512	22.4856
21.53	22.4339
21.548	22.3905
21.566	22.3557
21.584	22.3292
21.602	22.3093
21.62	22.2967
21.638	22.2897
21.656	22.2863
21.674	22.2873
21.692	22.2899
21.71	22.2936
21.728	22.298
21.746	22.3005
21.764	22.3014
21.782	22.3001
21.8	22.2953
21.818	22.2875
21.836	22.2766
21.854	22.2622
21.872	22.245
21.89	22.2263
21.908	22.2053
21.926	22.184
21.944	22.1634
21.962	22.1432
21.98	22.1258
21.998	22.1112
22.016	22.0997
22.034	22.0932
22.052	22.0913
22.07	22.0939
22.088	22.1013
22.106	22.1135
22.124	22.1289
22.142	22.1479
22.16	22.1694
22.178	22.1903
22.196	22.2117
22.214	22.231
22.232	22.2448
22.25	22.2549
22.268	22.2576
22.286	22.2508
22.304	22.2357
22.322	22.2097
22.34	22.1722
22.358	22.1237
22.376	22.064
22.394	21.9923
22.412	21.9105
22.43	21.8203
22.448	21.7203
22.466	21.6144
22.484	21.5053
22.502	21.3912
22.52	21.2779
22.538	21.1674
22.556	21.0586
22.574	20.9584
22.592	20.8668
22.61	20.7843
22.628	20.7169
22.646	20.6638
22.664	20.6257
22.682	20.6058
22.7	20.6037
22.718	20.619
22.736	20.6523
22.754	20.7038
22.772	20.772
22.79	20.8562
22.808	20.9573
22.826	21.072
22.844	21.1988
22.862	21.339
22.88	21.4873
22.898	21.6418
22.916	21.8037
22.934	21.9672
22.952	22.1309
22.97	22.2956
22.988	22.4556
23.006	22.6099
23.024	22.7593
23.042	22.8994
23.06	23.0296
23.078	23.1506
23.096	23.2604
23.114	23.3586
23.132	23.4457
23.15	23.5219
23.168	23.5866
23.186	23.6407
23.204	23.686
23.222	23.722
23.24	23.7493
23.258	23.7704
23.276	23.7848
23.294	23.793
23.312	23.7974
23.33	23.798
23.348	23.7946
23.366	23.7884
23.384	23.7795
23.402	23.7677
23.42	23.7534
23.438	23.7372
23.456	23.7185
23.474	23.6959
23.492	23.6697
23.51	23.6397
23.528	23.6045
23.546	23.5641
23.564	23.5187
23.582	23.466
23.6	23.4055
23.618	23.3378
23.636	23.261
23.654	23.1739
23.672	23.0774
23.69	22.9713
23.708	22.855
23.726	22.7281
23.744	22.5931
23.762	22.4518
23.78	22.3024
23.798	22.1478
23.816	21.991
23.834	21.83
23.852	21.6673
23.87	21.5071
23.888	21.3465
23.906	21.1886
23.924	21.0402
23.942	20.8998
23.96	20.7681
23.978	20.6539
23.996	20.5597
24.014	20.4823
24.032	20.429
24.05	20.4041
24.068	20.4037
24.086	20.4323
24.104	20.4944
24.122	20.5865
24.14	20.7118
24.158	20.8751
24.176	21.0755
24.194	21.3126
24.212	21.588
24.23	21.9026
24.248	22.2554
24.266	22.6449
24.284	23.0717
24.302	23.5372
24.32	24.0345
24.338	24.5581
24.356	25.1154
24.374	25.696
24.392	26.285
24.41	26.8888
24.428	27.5038
24.446	28.1096
24.464	28.7009
24.482	29.2872
24.5	29.847
24.518	30.3627
24.536	30.8481
24.554	31.2913
24.572	31.6742
24.59	31.9998
24.608	32.2697
24.626	32.4735
24.644	32.6048
24.662	32.6686
24.68	32.6664
24.698	32.598
24.716	32.457
24.734	32.2549
24.752	32.0076
24.77	31.7116
24.788	31.3656
24.806	30.9919
24.824	30.6046
24.842	30.1881
24.86	29.7605
24.878	29.3447
24.896	28.9337
24.914	28.5281
24.932	28.1454
24.95	27.7956
24.968	27.469
24.986	27.1722
25.004	26.9133
25.022	26.6927
25.04	26.5066
25.058	26.3524
25.076	26.2304
25.094	26.143
25.112	26.0819
25.13	26.0392
25.148	26.0237
25.166	26.028
25.184	26.0359
25.202	26.0414
25.22	26.0549
25.238	26.0611
25.256	26.0444
25.274	26.0151
25.292	25.9682
25.31	25.8847
25.328	25.7545
25.346	25.5909
25.364	25.3807
25.382	25.1078
25.4	24.7777
25.418	24.3914
25.436	23.9346
25.454	23.3965
25.472	22.7869
25.49	22.1005
25.508	21.3278
25.526	20.4657
25.544	19.5192
25.562	18.4877
25.58	17.3704
25.598	16.1622
25.616	14.8701
25.634	13.5048
25.652	12.0707
25.67	10.5568
25.688	8.980266
25.706	7.360934
25.724	5.693202
25.742	3.971795
25.76	2.225749
25.778	0.481039
25.796	-1.287711
25.814	-3.065035
25.832	-4.813013
25.85	-6.509576
25.868	-8.187912
25.886	-9.816411
25.904	-11.3546
25.922	-12.796
25.94	-14.1634
25.958	-15.4254
25.976	-16.5505
25.994	-17.5493
26.012	-18.4263
26.03	-19.1609
26.048	-19.7345
26.066	-20.1561
26.084	-20.4283
26.102	-20.5484
26.12	-20.5125
26.138	-20.3192
26.156	-19.9781
26.174	-19.4997
26.192	-18.8814
26.21	-18.1141
26.228	-17.2248
26.246	-16.2416
26.264	-15.1587
26.282	-13.9667
26.3	-12.6963
26.318	-11.3774
26.336	-9.996079
26.354	-8.551090
26.372	-7.067664
26.39	-5.568899
26.408	-4.039381
26.426	-2.482489
26.444	-0.915729
26.462	0.645844
26.48	2.211500
26.498	3.780963
26.516	5.348970
26.534	6.911846
26.552	8.474303
26.57	10.0334
26.588	11.5844
26.606	13.1263
26.624	14.6667
26.642	16.1954
26.66	17.7003
26.678	19.1773
26.696	20.6409
26.714	22.074
26.732	23.4565
26.75	24.7821
26.768	26.0718
26.786	27.302
26.804	28.4459
26.822	29.4943
26.84	30.4723
26.858	31.3555
26.876	32.1159
26.894	32.7417
26.912	33.2573
26.93	33.6447
26.948	33.8828
26.966	33.922
26.984	33.7227
27.002	33.4215
27.02	33.1648
27.028	33.1081