File: Bakgrunnsmateriale/MATLAB/FTIR/ftir_data/LPE454/Mapping_121/LPE454_t110_cm-1.asc
PE IR       SPECTRUM    SPECTRUM    ASCII       PEDS        1.60
  -1
LP0358~1.ASC
17/05/19
23:22:14.00
17/05/19
23:22:14.00
tln
$LPE454_t0110$<tbV0>[-13.0,10.4,8.0,0.0,27,1,0]
370
64

2002,4.07
MIRTGS : RIGHTBACK : INTERNAL 2
MIR : ON : INTERNAL 2
OPTKBR

0.200000
8
8.000000
FILLER
RATIO
SPECTRUM
UNLOCKED 256

DOUBLE
64
COMBINED
1
0
0

1.000000
RATIO

1
0
TRUE
51149
0
LEFT NOT FITTED RIGHT NOT FITTED 0
NONE
NONE
15600
12
4.427000
51148
TRUE
1 0 8 72 0 0 0 0

15798

#HDR
-1
-1
#GR
CM-1
%T
2.38419e-05
0.0
5000
-1.000000
4631
8
40.2595
-4.469680
#DATA
5000	0.317454
4996	0.331854
4992	0.224518
4988	0.054574
4984	-0.022816
4980	-0.041341
4976	0.167226
4972	0.569677
4968	0.641679
4964	0.402116
4960	0.199937
4956	0.080108
4952	0.095462
4948	0.252413
4944	0.316429
4940	0.067687
4936	-0.152969
4932	0.144648
4928	0.598907
4924	0.600099
4920	0.364089
4916	0.201511
4912	0.132918
4908	0.239753
4904	0.343227
4900	0.280141
4896	0.265383
4892	0.239920
4888	-0.004601
4884	-0.072503
4880	0.080132
4876	0.103974
4872	0.048136
4868	-0.099349
4864	-0.140643
4860	0.013732
4856	-0.008678
4852	-0.002932
4848	0.249576
4844	0.281715
4840	0.012278
4836	-0.102782
4832	0.169992
4828	0.413060
4824	0.258159
4820	0.096082
4816	0.124740
4812	0.123143
4808	0.114130
4804	0.132632
4800	0.151491
4796	0.221061
4792	0.264978
4788	0.235819
4784	0.261259
4780	0.368118
4776	0.369167
4772	0.328040
4768	0.412344
4764	0.428223
4760	0.347375
4756	0.358414
4752	0.311064
4748	0.083065
4744	0.071167
4740	0.405573
4736	0.696659
4732	0.642919
4728	0.353384
4724	0.191092
4720	0.096726
4716	-0.132846
4712	-0.192856
4708	-0.149607
4704	-0.349259
4700	-0.574111
4696	-0.663638
4692	-0.706744
4688	-0.455880
4684	-0.226187
4680	-0.452041
4676	-0.614285
4672	-0.456571
4668	-0.417232
4664	-0.578284
4660	-0.526809
4656	-0.418066
4652	-0.472497
4648	-0.327634
4644	0.009727
4640	0.320887
4636	0.434517
4632	0.195169
4628	-0.094199
4624	-0.442028
4620	-0.528836
4616	0.303483
4612	0.913143
4608	0.807714
4604	2.001643
4600	6.929016
4596	18.2095
4592	32.9964
4588	32.232
4584	8.218646
4580	-4.463481
4576	-3.814268
4572	-3.599214
4568	-2.368330
4564	-2.332592
4560	-2.288603
4556	-2.450013
4552	-2.843499
4548	-2.398324
4544	-1.460981
4540	-1.013994
4536	-0.591945
4532	-0.264143
4528	-0.242018
4524	-0.368738
4520	-0.397038
4516	-0.155353
4512	-0.002169
4508	0.049853
4504	0.160837
4500	0.217533
4496	0.143003
4492	-0.026011
4488	0.077438
4484	0.270128
4480	0.206661
4476	0.123095
4472	0.041198
4468	0.001835
4464	0.191926
4460	0.459671
4456	0.591897
4452	0.542211
4448	0.341820
4444	0.226855
4440	0.199532
4436	0.023579
4432	-0.060319
4428	0.176477
4424	0.435614
4420	0.378680
4416	0.125956
4412	0.060725
4408	0.068974
4404	-0.157451
4400	-0.314521
4396	-0.184488
4392	0.036931
4388	0.206255
4384	0.302577
4380	0.333142
4376	0.320172
4372	0.181746
4368	-0.007581
4364	-0.035715
4360	0.005245
4356	0.095677
4352	0.228810
4348	0.300669
4344	0.338411
4340	0.199794
4336	0.059676
4332	0.130105
4328	0.196862
4324	0.246953
4320	0.295019
4316	0.271534
4312	0.228643
4308	0.201606
4304	0.208663
4300	0.177979
4296	0.049996
4292	0.006723
4288	0.112533
4284	0.193452
4280	0.181841
4276	0.206446
4272	0.276923
4268	0.178003
4264	-0.019764
4260	-0.134658
4256	-0.176835
4252	-0.134778
4248	-0.001502
4244	0.177192
4240	0.267887
4236	0.200104
4232	-0.012993
4228	-0.226211
4224	-0.183176
4220	-0.018239
4216	0.018906
4212	0.050520
4208	0.052404
4204	0.006580
4200	-0.004410
4196	-0.063371
4192	-0.056982
4188	0.043916
4184	0.087475
4180	0.053620
4176	0.056886
4172	0.103569
4168	0.107216
4164	0.084376
4160	0.107216
4156	0.040674
4152	-0.032424
4148	-0.032234
4144	0.024461
4140	0.011348
4136	-0.126695
4132	-0.117969
4128	-0.151801
4124	-0.364589
4120	-0.342869
4116	0.000333
4112	0.347542
4108	0.416231
4104	0.180196
4100	0.039339
4096	0.277471
4092	0.920820
4088	1.467680
4084	1.065969
4080	0.376987
4076	-0.054574
4072	-0.309300
4068	0.103425
4064	0.439906
4060	0.363612
4056	0.404262
4052	0.415277
4048	0.458765
4044	0.391888
4040	0.136399
4036	0.065207
4032	0.152540
4028	-0.035905
4024	-0.470662
4020	-0.573396
4016	-0.194311
4012	0.225162
4008	0.316953
4004	0.234508
4000	0.256538
3996	0.221538
3992	-0.011110
3988	-0.076937
3984	0.056362
3980	0.164031
3976	0.289845
3972	0.229239
3968	0.012969
3964	-0.100302
3960	-0.083541
3956	-0.026822
3952	-0.013852
3948	0.020384
3944	0.041007
3940	-0.029945
3936	-0.004887
3932	0.122833
3928	0.171470
3924	0.186944
3920	0.209474
3916	0.177764
3912	0.107622
3908	0.120210
3904	0.165629
3900	0.118041
3896	-0.006818
3892	-0.138092
3888	-0.152683
3884	-0.028729
3880	0.038266
3876	-0.024724
3872	-0.127434
3868	-0.157976
3864	-0.050354
3860	0.034165
3856	0.042557
3852	0.061178
3848	0.085663
3844	0.133109
3840	0.221204
3836	0.296711
3832	0.258231
3828	0.150775
3824	0.092720
3820	-0.027108
3816	-0.106668
3812	-0.021362
3808	0.008034
3804	-0.041890
3800	-0.072169
3796	-0.043296
3792	0.053906
3788	0.082755
3784	0.028300
3780	-0.027418
3776	-0.110483
3772	-0.161886
3768	-0.101661
3764	0.036048
3760	0.101542
3756	0.028467
3752	0.012826
3748	0.109457
3744	0.133013
3740	0.097274
3736	0.083422
3732	0.101184
3728	0.053501
3724	-0.086045
3720	-0.132131
3716	-0.076413
3712	-0.010132
3708	0.066447
3704	0.106644
3700	0.105476
3696	0.128102
3692	0.166893
3688	0.174069
3684	0.189280
3680	0.143241
3676	0.015377
3672	0.007557
3668	0.083112
3664	0.073528
3660	-0.023651
3656	-0.111484
3652	-0.055694
3648	0.078511
3644	0.098919
3640	0.056624
3636	0.108313
3632	0.177836
3628	0.113320
3624	-0.003981
3620	0.003862
3616	0.116705
3612	0.165462
3608	0.093054
3604	0.060462
3600	0.104069
3596	0.027084
3592	-0.096392
3588	-0.082349
3584	0.013017
3580	0.113487
3576	0.166869
3572	0.239586
3568	0.291919
3564	0.143718
3560	-0.049829
3556	0.000619
3552	0.224184
3548	0.281834
3544	0.206661
3540	0.176286
3536	0.169134
3532	0.199556
3528	0.196814
3524	0.106120
3520	0.027942
3516	0.016689
3512	0.023889
3508	0.042819
3504	0.043582
3500	0.008463
3496	-0.002646
3492	0.033378
3488	0.077152
3484	0.042486
3480	0.004696
3476	0.118041
3472	0.242519
3468	0.181078
3464	0.021624
3460	-0.074672
3456	-0.094389
3452	-0.055289
3448	0.026130
3444	0.071525
3440	0.077557
3436	0.051116
3432	0.006866
3428	0.023698
3424	0.082659
3420	0.109839
3416	0.089311
3412	0.091147
3408	0.136923
3404	0.143361
3400	0.099539
3396	0.056815
3392	0.079083
3388	0.141286
3384	0.218367
3380	0.266838
3376	0.170588
3372	0.036048
3368	-0.007653
3364	-0.012969
3360	-0.032687
3356	-0.004625
3352	0.012445
3348	-0.041627
3344	-0.014805
3340	0.094842
3336	0.196814
3332	0.188016
3328	0.061345
3324	-0.004887
3320	-0.010943
3316	-0.042724
3312	-0.011134
3308	0.060009
3304	0.050354
3300	0.029921
3296	0.011372
3292	-0.013351
3288	0.020194
3284	0.045466
3280	0.052595
3276	0.057363
3272	-0.011682
3268	-0.045013
3264	0.035262
3260	0.127148
3256	0.218439
3252	0.249171
3248	0.152444
3244	0.052356
3240	-0.007438
3236	-0.028061
3232	0.027489
3228	0.042700
3224	-0.040793
3220	-0.090479
3216	-0.037503
3212	-0.030350
3208	-0.159764
3204	-0.222611
3200	-0.080537
3196	0.071668
3192	0.055813
3188	-0.003457
3184	0.033593
3180	0.134682
3176	0.175666
3172	0.126361
3168	0.110197
3164	0.138640
3160	0.140285
3156	0.072956
3152	0.004696
3148	0.017762
3144	0.007796
3140	-0.073838
3136	-0.074577
3132	-0.003504
3128	-0.020122
3124	-0.026917
3120	0.070118
3116	0.150966
3112	0.186705
3108	0.211310
3104	0.176954
3100	0.098967
3096	0.026488
3092	-0.025892
3088	-0.022888
3084	-0.006413
3080	-0.013995
3076	-0.013995
3072	0.018262
3068	0.076746
3064	0.096082
3060	0.067400
3056	0.079464
3052	0.112676
3048	0.088477
3044	0.007867
3040	-0.033545
3036	0.072622
3032	0.209403
3028	0.224304
3024	0.156712
3020	0.089001
3016	0.045633
3012	0.029349
3008	0.026369
3004	0.016117
3000	0.022459
2996	0.066494
2992	0.109267
2988	0.116515
2984	0.106978
2980	0.078129
2976	0.029826
2972	-0.021028
2968	-0.010395
2964	0.066566
2960	0.065541
2956	0.001335
2952	-0.000047
2948	-0.007438
2944	-0.071763
2940	-0.065279
2936	0.036263
2932	0.094604
2928	0.030970
2924	-0.062298
2920	-0.104236
2916	-0.116634
2912	-0.088357
2908	-0.047492
2904	-0.016808
2900	0.015234
2896	0.036525
2892	0.046753
2888	0.037097
2884	0.041246
2880	0.097656
2876	0.167202
2872	0.180482
2868	0.117182
2864	0.014376
2860	-0.020861
2856	0.043892
2852	0.112104
2848	0.125718
2844	0.049066
2840	-0.028777
2836	0.010538
2832	0.085806
2828	0.101709
2824	0.100731
2820	0.084781
2816	0.007271
2812	-0.026226
2808	0.030064
2804	0.092959
2800	0.091910
2796	0.033617
2792	0.018119
2788	0.008392
2784	-0.044679
2780	-0.084590
2776	-0.112676
2772	-0.089240
2768	0.013399
2764	0.051045
2760	0.009608
2756	0.053524
2752	0.112819
2748	0.071358
2744	0.022649
2740	0.023317
2736	0.038981
2732	0.050640
2728	0.060343
2724	0.068140
2720	0.076365
2716	0.110912
2712	0.159287
2708	0.167465
2704	0.088810
2700	-0.036716
2696	-0.099539
2692	-0.091218
2688	-0.040411
2684	0.032091
2680	0.069880
2676	0.045323
2672	0.009012
2668	-0.009870
2664	-0.026869
2660	-0.015282
2656	0.041937
2652	0.061941
2648	0.013542
2644	-0.033712
2640	-0.049209
2636	-0.019621
2632	0.012540
2628	-0.009536
2624	-0.059366
2620	-0.050354
2616	0.020980
2612	0.066375
2608	0.051212
2604	0.037503
2600	0.078630
2596	0.134587
2592	0.127959
2588	0.028920
2584	-0.085473
2580	-0.132083
2576	-0.093531
2572	-0.017929
2568	0.028562
2564	0.027370
2560	-0.003027
2556	0.018739
2552	0.067281
2548	0.060153
2544	0.034999
2540	0.021338
2536	0.004553
2532	0.001430
2528	0.045180
2524	0.101518
2520	0.057697
2516	-0.012850
2512	0.070500
2508	0.175023
2504	0.163817
2500	0.098752
2496	0.009417
2492	-0.042843
2488	-0.019931
2484	0.014066
2480	0.021338
2476	0.009799
2472	-0.033950
2468	-0.084805
2464	-0.100922
2460	-0.076746
2456	-0.040435
2452	-0.006651
2448	0.011706
2444	-0.022602
2440	-0.059485
2436	-0.013947
2432	0.039625
2428	-0.003767
2424	-0.012302
2420	0.103664
2416	0.174665
2412	0.085473
2408	-0.036931
2404	-0.042581
2400	-0.028324
2396	-0.055384
2392	-0.047039
2388	-0.002551
2384	0.095701
2380	0.210785
2376	0.256967
2372	0.238919
2368	0.202631
2364	0.160694
2360	0.147914
2356	0.199484
2352	0.245094
2348	0.240159
2344	0.228977
2340	0.269675
2336	0.315284
2332	0.294828
2328	0.265312
2324	0.294685
2320	0.393652
2316	0.507688
2312	0.568795
2308	0.607466
2304	0.632476
2300	0.638175
2296	0.671839
2292	0.733876
2288	0.821900
2284	0.910711
2280	0.960397
2276	1.020336
2272	1.121830
2268	1.247692
2264	1.402139
2260	1.548218
2256	1.702117
2252	1.878666
2248	2.006578
2244	2.112889
2240	2.272224
2236	2.477097
2232	2.649402
2228	2.769589
2224	2.930688
2220	3.143525
2216	3.365111
2212	3.621506
2208	3.877735
2204	4.122352
2200	4.376125
2196	4.603981
2192	4.871678
2188	5.197620
2184	5.487227
2180	5.766463
2176	6.086993
2172	6.379365
2168	6.705117
2164	7.153630
2160	7.563900
2156	7.884049
2152	8.210039
2148	8.529782
2144	8.855438
2140	9.211707
2136	9.596872
2132	10.0152
2128	10.4129
2124	10.7516
2120	11.0822
2116	11.4614
2112	11.8701
2108	12.2533
2104	12.6126
2100	12.9756
2096	13.3469
2092	13.7384
2088	14.1168
2084	14.4754
2080	14.8678
2076	15.2754
2072	15.6455
2068	15.8597
2064	15.9822
2060	16.3057
2056	16.7964
2052	17.2268
2048	17.5749
2044	17.8866
2040	18.1583
2036	18.4392
2032	18.7593
2028	19.0807
2024	19.3342
2020	19.5153
2016	19.7545
2012	20.032
2008	20.2468
2004	20.4511
2000	20.7137
1996	21.0057
1992	21.2414
1988	21.4179
1984	21.586
1980	21.8023
1976	22.077
1972	22.3003
1968	22.4401
1964	22.5559
1960	22.696
1956	22.8806
1952	23.0577
1948	23.2054
1944	23.3584
1940	23.5222
1936	23.6917
1932	23.8721
1928	24.0021
1924	24.0775
1920	24.1889
1916	24.316
1912	24.4295
1908	24.559
1904	24.6792
1900	24.7812
1896	24.8764
1892	24.953
1888	25.0259
1884	25.0807
1880	25.1027
1876	25.1116
1872	25.1608
1868	25.2951
1864	25.4322
1860	25.518
1856	25.587
1852	25.6621
1848	25.7816
1844	25.9015
1840	25.9369
1836	25.9178
1832	25.9275
1828	25.9842
1824	26.0452
1820	26.0781
1816	26.0946
1812	26.144
1808	26.1925
1804	26.2204
1800	26.2545
1796	26.2939
1792	26.3508
1788	26.3934
1784	26.4184
1780	26.4579
1776	26.488
1772	26.4745
1768	26.4531
1764	26.4651
1760	26.5049
1756	26.5564
1752	26.5775
1748	26.5746
1744	26.6301
1740	26.6983
1736	26.6757
1732	26.6698
1728	26.7482
1724	26.8264
1720	26.8577
1716	26.8126
1712	26.7364
1708	26.715
1704	26.7711
1700	26.7929
1696	26.7157
1692	26.6794
1688	26.7355
1684	26.8322
1680	26.9041
1676	26.8829
1672	26.8442
1668	26.8744
1664	26.9011
1660	26.8686
1656	26.8383
1652	26.8412
1648	26.8809
1644	26.9334
1640	26.9407
1636	26.9161
1632	26.8824
1628	26.8789
1624	26.9176
1620	26.9115
1616	26.8618
1612	26.843
1608	26.8154
1604	26.7772
1600	26.807
1596	26.8351
1592	26.8281
1588	26.8518
1584	26.8531
1580	26.8222
1576	26.8431
1572	26.8751
1568	26.8849
1564	26.9336
1560	26.9778
1556	26.968
1552	26.9222
1548	26.8943
1544	26.9309
1540	26.9536
1536	26.9049
1532	26.8567
1528	26.8722
1524	26.902
1520	26.8887
1516	26.8462
1512	26.7801
1508	26.7649
1504	26.8433
1500	26.9197
1496	26.9439
1492	26.88
1488	26.7858
1484	26.7694
1480	26.7859
1476	26.7842
1472	26.7782
1468	26.7709
1464	26.7784
1460	26.8106
1456	26.7882
1452	26.7178
1448	26.7094
1444	26.7632
1440	26.8207
1436	26.8507
1432	26.8731
1428	26.8499
1424	26.74
1420	26.6629
1416	26.6535
1412	26.6407
1408	26.6166
1404	26.5422
1400	26.4479
1396	26.4669
1392	26.5132
1388	26.5218
1384	26.5993
1380	26.6756
1376	26.6618
1372	26.6556
1368	26.6614
1364	26.5983
1360	26.5334
1356	26.5157
1352	26.4991
1348	26.4975
1344	26.4962
1340	26.4464
1336	26.4223
1332	26.4436
1328	26.4518
1324	26.5012
1320	26.6064
1316	26.6371
1312	26.5582
1308	26.5084
1304	26.5169
1300	26.499
1296	26.4521
1292	26.4434
1288	26.4577
1284	26.4147
1280	26.3503
1276	26.3277
1272	26.3393
1268	26.3543
1264	26.3157
1260	26.298
1256	26.3936
1252	26.4459
1248	26.3731
1244	26.302
1240	26.2702
1236	26.2325
1232	26.2195
1228	26.239
1224	26.2174
1220	26.1602
1216	26.1302
1212	26.1265
1208	26.0927
1204	26.0414
1200	26.0499
1196	26.0538
1192	26.0156
1188	25.9861
1184	25.9575
1180	25.9172
1176	25.8435
1172	25.7694
1168	25.7365
1164	25.7438
1160	25.7503
1156	25.7315
1152	25.7401
1148	25.7309
1144	25.7109
1140	25.7355
1136	25.7411
1132	25.686
1128	25.6326
1124	25.6675
1120	25.708
1116	25.6453
1112	25.499
1108	25.3924
1104	25.3882
1100	25.3452
1096	25.2377
1092	25.1996
1088	25.2808
1084	25.3955
1080	25.3933
1076	25.3022
1072	25.2966
1068	25.3698
1064	25.3639
1060	25.2942
1056	25.243
1052	25.1404
1048	25.0524
1044	25.0312
1040	24.9818
1036	24.9619
1032	24.9933
1028	25.0463
1024	25.06
1020	24.9789
1016	24.9247
1012	24.9414
1008	24.9012
1004	24.7954
1000	24.7227
996	 24.6487
992	 24.5291
988	 24.4689
984	 24.4862
980	 24.4658
976	 24.3953
972	 24.3633
968	 24.3699
964	 24.3762
960	 24.3438
956	 24.2232
952	 24.1075
948	 24.1678
944	 24.3585
940	 24.4059
936	 24.2701
932	 24.1079
928	 23.9225
924	 23.7435
920	 23.6307
916	 23.5512
912	 23.5535
908	 23.6974
904	 23.8322
900	 23.8175
896	 23.7898
892	 23.8475
888	 23.8281
884	 23.6828
880	 23.5712
876	 23.4297
872	 23.1949
868	 23.1056
864	 23.1615
860	 23.2042
856	 23.1803
852	 23.0396
848	 22.9064
844	 22.9395
840	 23.0462
836	 23.1053
832	 23.0947
828	 22.9931
824	 22.9165
820	 22.9092
816	 22.7742
812	 22.5572
808	 22.4474
804	 22.3826
800	 22.3178
796	 22.2635
792	 22.1775
788	 22.1379
784	 22.1557
780	 22.1619
776	 22.1439
772	 22.1886
768	 22.3305
764	 22.4445
760	 22.412
756	 22.2072
752	 21.9471
748	 21.7155
744	 21.6018
740	 21.6652
736	 21.6941
732	 21.5628
728	 21.3625
724	 21.1712
720	 21.0245
716	 21.0478
712	 21.185
708	 21.1761
704	 21.158
700	 21.2124
696	 21.1497
692	 21.0543
688	 20.9244
684	 20.5813
680	 20.33
676	 20.4168
672	 20.4281
668	 20.1647
664	 20.0531
660	 20.3467
656	 20.6231
652	 20.4718
648	 20.1805
644	 20.0791
640	 19.9972
636	 19.9708
632	 20.036
628	 19.8826
624	 19.539
620	 19.2112
616	 18.9464
612	 18.7592
608	 18.8213
604	 19.2356
600	 19.5773
596	 19.2975
592	 18.6641
588	 18.4061
584	 18.4595
580	 18.5549
576	 18.7289
572	 18.7572
568	 18.6959
564	 18.5511
560	 18.2187
556	 18.031
552	 18.0372
548	 18.0232
544	 17.6286
540	 16.7791
536	 16.3472
532	 16.3669
528	 16.0773
524	 16.0234
520	 16.7834
516	 17.7406
512	 18.1012
508	 17.9663
504	 17.2524
500	 15.9938
496	 15.5914
492	 16.081
488	 16.2026
484	 15.9473
480	 15.9586
476	 16.07
472	 15.8489
468	 15.4329
464	 15.1566
460	 14.9656
456	 14.9988
452	 15.8343
448	 16.1853
444	 14.7578
440	 13.5118
436	 13.791
432	 14.7252
428	 15.7384
424	 15.5471
420	 13.8719
416	 13.1936
412	 13.7803
408	 13.6175
404	 11.0808
400	 10.4359
396	 13.5617
392	 13.4468
388	 11.6071
384	 12.9523
380	 11.4391
376	 31.2414
372	 36.2336
370	 23.0528