File: Bakgrunnsmateriale/MATLAB/FTIR/ftir_data/LPE454/Mapping_121/LPE454_t114_cm-1.asc
PE IR       SPECTRUM    SPECTRUM    ASCII       PEDS        1.60
  -1
LP0758~1.ASC
17/05/19
23:46:54.00
17/05/19
23:46:54.00
tln
$LPE454_t0114$<tbV0>[5.2,13.0,8.0,0.0,27,1,0]
370
64

2002,4.07
MIRTGS : RIGHTBACK : INTERNAL 2
MIR : ON : INTERNAL 2
OPTKBR

0.200000
8
8.000000
FILLER
RATIO
SPECTRUM
UNLOCKED 256

DOUBLE
64
COMBINED
1
0
0

1.000000
RATIO

1
0
TRUE
51149
0
LEFT NOT FITTED RIGHT NOT FITTED 0
NONE
NONE
15600
12
4.427000
51148
TRUE
1 0 8 72 0 0 0 0

15798

#HDR
-1
-1
#GR
CM-1
%T
2.38419e-05
0.0
5000
-1.000000
4631
8
40.4823
-4.661870
#DATA
5000	-0.021624
4996	-0.084090
4992	0.074982
4988	0.307202
4984	0.384140
4980	0.240135
4976	0.112152
4972	0.085616
4968	0.099992
4964	0.083661
4960	0.047540
4956	0.265598
4952	0.581026
4948	0.590658
4944	0.481176
4940	0.465822
4936	0.447106
4932	0.427961
4928	0.492715
4924	0.573015
4920	0.586438
4916	0.483250
4912	0.254058
4908	0.163412
4904	0.243139
4900	0.362157
4896	0.547599
4892	0.516867
4888	0.283837
4884	0.387215
4880	0.616621
4876	0.589704
4872	0.513219
4868	0.427198
4864	0.229692
4860	0.032281
4856	-0.031614
4852	0.078153
4848	0.276279
4844	0.366401
4840	0.349211
4836	0.214958
4832	0.019764
4828	0.035142
4824	0.072717
4820	-0.022745
4816	-0.000834
4812	0.115942
4808	0.177693
4804	0.245904
4800	0.322151
4796	0.356197
4792	0.337123
4788	0.161671
4784	0.021028
4780	0.168561
4776	0.272059
4772	0.118279
4768	0.058102
4764	0.239610
4760	0.384664
4756	0.401210
4752	0.381541
4748	0.381827
4744	0.413465
4740	0.433969
4736	0.540614
4732	0.851893
4728	1.000881
4724	0.916671
4720	0.971722
4716	1.037979
4712	0.987005
4708	0.967597
4704	0.946927
4700	0.945115
4696	0.939726
4692	0.892281
4688	1.006889
4684	1.168394
4680	1.037549
4676	0.793910
4672	0.721526
4668	0.527024
4664	0.288271
4660	0.284337
4656	0.295567
4652	0.196504
4648	0.131106
4644	0.017261
4640	-0.376343
4636	-0.738692
4632	-0.771236
4628	-0.860810
4624	-0.950360
4620	-0.848436
4616	-0.815057
4612	-1.333284
4608	-2.111959
4604	-2.263784
4600	-2.632260
4596	-3.125953
4592	4.482173
4588	29.9192
4584	39.1949
4580	21.8168
4576	6.797456
4572	0.553083
4568	-0.798511
4564	-0.887584
4560	-0.596404
4556	-0.582742
4552	-0.716161
4548	-0.897431
4544	-1.014685
4540	-0.720191
4536	-0.415372
4532	-0.366377
4528	-0.371837
4524	-0.585246
4520	-1.116704
4516	-1.334095
4512	-0.974941
4508	-0.540089
4504	-0.433301
4500	-0.505924
4496	-0.473856
4492	-0.307607
4488	-0.007057
4484	0.334215
4480	0.450062
4476	0.520443
4472	0.678777
4468	0.767803
4464	0.759601
4460	0.638151
4456	0.527763
4452	0.645112
4448	0.771832
4444	0.646996
4440	0.446701
4436	0.317692
4432	0.256180
4428	0.290775
4424	0.331592
4420	0.261592
4416	0.082564
4412	0.071430
4408	0.370049
4404	0.484848
4400	0.262284
4396	0.223231
4392	0.393986
4388	0.341844
4384	0.098991
4380	-0.026321
4376	0.027298
4372	0.100255
4368	0.060033
4364	0.027346
4360	0.019502
4356	-0.022482
4352	0.141310
4348	0.383043
4344	0.401043
4340	0.304365
4336	0.255084
4332	0.262165
4328	0.250720
4324	0.310826
4320	0.378561
4316	0.375914
4312	0.433158
4308	0.314426
4304	0.015878
4300	-0.091695
4296	0.008296
4292	0.065684
4288	-0.035929
4284	-0.051379
4280	0.070190
4276	0.081539
4272	0.079298
4268	0.150132
4264	0.161147
4260	0.192618
4256	0.243091
4252	0.252795
4248	0.314521
4244	0.310754
4240	0.164771
4236	0.077772
4232	0.060343
4228	0.031065
4224	0.112462
4220	0.285816
4216	0.392127
4212	0.296831
4208	0.115704
4204	0.085163
4200	0.153422
4196	0.195312
4192	0.130867
4188	-0.044703
4184	-0.215983
4180	-0.367236
4176	-0.299620
4172	0.084590
4168	0.422072
4164	0.325822
4160	0.158476
4156	0.350332
4152	0.447726
4148	0.444674
4144	0.571966
4140	0.424218
4136	0.343656
4132	0.506472
4128	0.390505
4124	0.150752
4120	0.256299
4116	0.292706
4112	0.056719
4108	-0.092673
4104	-0.438547
4100	-0.724291
4096	-0.515723
4092	-0.572395
4088	-0.960564
4084	-0.958442
4080	-0.627923
4076	-0.177001
4072	0.271797
4068	0.417375
4064	0.242090
4060	0.093483
4056	0.132560
4052	0.242447
4048	0.362920
4044	0.331616
4040	0.120592
4036	-0.020360
4032	-0.022363
4028	-0.000572
4024	0.005412
4020	0.144886
4016	0.367426
4012	0.449752
4008	0.426912
4004	0.367641
4000	0.202488
3996	-0.019550
3992	-0.026822
3988	0.174236
3984	0.283241
3980	0.250792
3976	0.151181
3972	0.093173
3968	0.155353
3964	0.120854
3960	-0.041866
3956	-0.024771
3952	0.078320
3948	0.139117
3944	0.202751
3940	0.132369
3936	0.068426
3932	0.121235
3928	0.212740
3924	0.361704
3920	0.407075
3916	0.217628
3912	0.058698
3908	0.095510
3904	0.070953
3900	-0.058984
3896	-0.096273
3892	-0.050425
3888	-0.052022
3884	-0.099706
3880	-0.094485
3876	-0.061964
3872	-0.039029
3868	0.025534
3864	0.085854
3860	0.072288
3856	0.038146
3852	0.037097
3848	0.076293
3844	0.116872
3840	0.078821
3836	0.029468
3832	0.022411
3828	-0.049591
3824	-0.122046
3820	-0.046372
3816	0.105023
3812	0.166177
3808	0.167465
3804	0.098443
3800	-0.022840
3796	-0.024938
3792	-0.023388
3788	-0.063061
3784	0.028634
3780	0.122261
3776	0.055670
3772	-0.052738
3768	-0.053882
3764	0.015258
3760	0.073480
3756	0.158786
3752	0.188374
3748	0.117611
3744	0.051712
3740	0.025844
3736	0.029897
3732	0.057506
3728	0.065660
3724	0.075697
3720	0.182056
3716	0.238823
3712	0.099325
3708	0.005125
3704	0.023102
3700	-0.028347
3696	-0.103735
3692	-0.087308
3688	0.005292
3684	0.065565
3680	0.029563
3676	-0.020670
3672	0.009202
3668	0.099992
3664	0.161051
3660	0.139093
3656	0.122475
3652	0.119829
3648	0.050210
3644	0.025677
3640	0.030112
3636	0.007081
3632	0.049567
3628	0.109910
3624	0.139260
3620	0.118923
3616	0.027179
3612	-0.077199
3608	-0.080585
3604	-0.018167
3600	0.021934
3596	0.042819
3592	0.027227
3588	0.042533
3584	0.018286
3580	-0.085282
3576	-0.038242
3572	0.122904
3568	0.197410
3564	0.181889
3560	0.149846
3556	0.130200
3552	0.125813
3548	0.148415
3544	0.128412
3540	0.058984
3536	0.048780
3532	0.059986
3528	0.047469
3524	0.040674
3520	-0.002527
3516	-0.043582
3512	0.010895
3508	0.091695
3504	0.119495
3500	0.110483
3496	0.003170
3492	-0.201320
3488	-0.271725
3484	-0.151872
3480	-0.106263
3476	-0.103592
3472	0.025010
3468	0.111675
3464	0.110769
3460	0.122189
3456	0.113797
3452	0.112223
3448	0.135803
3444	0.128626
3440	0.129556
3436	0.174975
3432	0.187540
3428	0.106787
3424	0.046181
3420	0.116491
3416	0.225663
3412	0.215959
3408	0.103950
3404	0.052881
3400	0.138807
3396	0.238323
3392	0.188541
3388	0.072765
3384	0.023198
3380	0.036334
3376	0.096654
3372	0.089836
3368	-0.023174
3364	-0.105905
3360	-0.125694
3356	-0.084853
3352	-0.002765
3348	0.031876
3344	0.036621
3340	0.094819
3336	0.168395
3332	0.119137
3328	0.042414
3324	0.121212
3320	0.237751
3316	0.268840
3312	0.218963
3308	0.120377
3304	0.063228
3300	0.040006
3296	0.045299
3292	0.081872
3288	0.100016
3284	0.112771
3280	0.132632
3276	0.121259
3272	0.053048
3268	-0.022149
3264	-0.014472
3260	0.063681
3256	0.075626
3252	0.023651
3248	0.057053
3244	0.147128
3240	0.181698
3236	0.147533
3232	0.042819
3228	-0.031113
3224	-0.003981
3220	0.003910
3216	0.018358
3212	0.094604
3208	0.109100
3204	0.066208
3200	0.078773
3196	0.080513
3192	0.032019
3188	0.049400
3184	0.108551
3180	0.112938
3176	0.036120
3172	-0.049901
3168	-0.046062
3164	0.035285
3160	0.098490
3156	0.094509
3152	0.089931
3148	0.071167
3144	0.067853
3140	0.094079
3136	0.068426
3132	0.056457
3128	0.071930
3124	0.072979
3120	0.031661
3116	-0.019192
3112	0.057244
3108	0.076723
3104	-0.062561
3100	-0.121688
3096	-0.130009
3092	-0.054574
3088	0.084161
3084	0.089049
3080	-0.013685
3076	-0.090456
3072	-0.043892
3068	0.067925
3064	0.094532
3060	0.082707
3056	0.122809
3052	0.082516
3048	-0.049996
3044	-0.070023
3040	0.026440
3036	0.110101
3032	0.124430
3028	0.060129
3024	0.009012
3020	0.018262
3016	0.048947
3012	0.100755
3008	0.146889
3004	0.147008
3000	0.091385
2996	-0.009965
2992	-0.061750
2988	-0.023031
2984	0.012445
2980	0.015044
2976	0.007367
2972	-0.029277
2968	-0.032663
2964	0.037360
2960	0.087881
2956	0.088787
2952	0.073266
2948	0.054669
2944	0.021028
2940	-0.025224
2936	-0.015163
2932	0.022006
2928	0.018262
2924	0.031208
2920	0.069594
2916	0.083112
2912	0.085115
2908	0.102710
2904	0.085306
2900	0.026607
2896	-0.021028
2892	-0.081300
2888	-0.117802
2884	-0.082898
2880	-0.035929
2876	0.004625
2872	0.056457
2868	0.121951
2864	0.145411
2860	0.082421
2856	0.019454
2852	0.015830
2848	0.036478
2844	0.039601
2840	0.033164
2836	0.029826
2832	0.003337
2828	0.001502
2824	0.049686
2820	0.085330
2816	0.087261
2812	0.052571
2808	-0.015187
2804	-0.056409
2800	-0.065898
2796	-0.063371
2792	-0.031208
2788	0.022077
2784	0.065779
2780	0.069046
2776	0.054383
2772	0.047469
2768	0.034856
2764	-0.010561
2760	-0.051283
2756	-0.023245
2752	-0.008010
2748	-0.052475
2744	-0.090169
2740	-0.088214
2736	-0.025129
2732	0.013113
2728	-0.037908
2724	-0.022172
2720	0.062704
2716	0.080800
2712	0.068092
2708	0.034356
2704	-0.040531
2700	-0.078034
2696	-0.064587
2692	-0.023531
2688	0.018358
2684	0.043463
2680	0.074243
2676	0.119638
2672	0.169563
2668	0.156855
2664	0.095891
2660	0.076317
2656	0.093603
2652	0.086331
2648	0.023961
2644	0.007510
2640	0.085210
2636	0.086355
2632	-0.013113
2628	-0.034618
2624	0.000548
2620	-0.023889
2616	-0.048518
2612	-0.039339
2608	-0.051283
2604	-0.060153
2600	-0.057435
2596	-0.042319
2592	-0.000691
2588	0.009298
2584	-0.012874
2580	-0.026559
2576	-0.046324
2572	-0.057458
2568	-0.027346
2564	0.044584
2560	0.110125
2556	0.112199
2552	0.078630
2548	0.060296
2544	0.053334
2540	0.001955
2536	-0.071144
2532	-0.070953
2528	-0.026369
2524	0.005531
2520	0.013661
2516	-0.016760
2512	-0.028800
2508	0.031495
2504	0.065326
2500	0.013113
2496	-0.022435
2492	0.011420
2488	0.071835
2484	0.073933
2480	0.047302
2476	0.103354
2472	0.185632
2468	0.196957
2464	0.128674
2460	0.082397
2456	0.149202
2452	0.218152
2448	0.187873
2444	0.130891
2440	0.106811
2436	0.062656
2432	-0.022220
2428	-0.090384
2424	-0.093150
2420	0.027322
2416	0.175571
2412	0.200867
2408	0.218486
2404	0.285744
2400	0.294232
2396	0.288534
2392	0.330567
2388	0.373649
2384	0.401329
2380	0.444602
2376	0.486183
2372	0.497961
2368	0.539827
2364	0.599670
2360	0.611114
2356	0.633549
2352	0.708723
2348	0.759983
2344	0.803017
2340	0.930738
2336	1.071071
2332	1.157736
2328	1.199531
2324	1.214599
2320	1.285362
2316	1.438403
2312	1.617479
2308	1.775431
2304	1.912617
2300	2.040290
2296	2.189636
2292	2.345490
2288	2.474045
2284	2.640223
2280	2.853274
2276	3.061294
2272	3.277420
2268	3.512597
2264	3.730392
2260	3.923797
2256	4.142522
2252	4.423642
2248	4.726696
2244	5.004358
2240	5.297875
2236	5.646133
2232	6.036090
2228	6.417584
2224	6.780791
2220	7.196640
2216	7.638859
2212	8.045005
2208	8.450961
2204	8.870339
2200	9.303164
2196	9.804463
2192	10.3426
2188	10.8163
2184	11.2698
2180	11.7662
2176	12.2873
2172	12.8199
2168	13.347
2164	13.8955
2160	14.4535
2156	14.996
2152	15.5734
2148	16.1741
2144	16.7245
2140	17.2078
2136	17.6923
2132	18.209
2128	18.7589
2124	19.3646
2120	19.9693
2116	20.5176
2112	21.0352
2108	21.5593
2104	22.0922
2100	22.6328
2096	23.1625
2092	23.6412
2088	24.1145
2084	24.6367
2080	25.2131
2076	25.7623
2072	26.195
2068	26.5649
2064	26.914
2060	27.2975
2056	27.7972
2052	28.3458
2048	28.8112
2044	29.2224
2040	29.6326
2036	29.9857
2032	30.2995
2028	30.6207
2024	30.9391
2020	31.2586
2016	31.6287
2012	32.0232
2008	32.365
2004	32.6431
2000	32.8583
1996	33.0939
1992	33.4329
1988	33.7731
1984	34.028
1980	34.2565
1976	34.495
1972	34.7117
1968	34.9174
1964	35.1363
1960	35.3416
1956	35.5408
1952	35.752
1948	35.9753
1944	36.1779
1940	36.3595
1936	36.5793
1932	36.8176
1928	37.0043
1924	37.107
1920	37.1888
1916	37.3292
1912	37.4832
1908	37.6013
1904	37.7232
1900	37.8683
1896	37.9908
1892	38.0722
1888	38.1385
1884	38.2126
1880	38.3437
1876	38.5308
1872	38.6605
1868	38.7184
1864	38.7956
1860	38.8866
1856	38.9498
1852	39.0345
1848	39.1764
1844	39.2918
1840	39.3505
1836	39.412
1832	39.4765
1828	39.5367
1824	39.5956
1820	39.6203
1816	39.642
1812	39.7401
1808	39.8096
1804	39.7605
1800	39.7622
1796	39.8838
1792	40.0019
1788	40.014
1784	39.9518
1780	39.9847
1776	40.0816
1772	40.0927
1768	40.0908
1764	40.1322
1760	40.1393
1756	40.1109
1752	40.1322
1748	40.2038
1744	40.2405
1740	40.2364
1736	40.2586
1732	40.2843
1728	40.2611
1724	40.2717
1720	40.321
1716	40.3045
1712	40.254
1708	40.2257
1704	40.2335
1700	40.3105
1696	40.3616
1692	40.3355
1688	40.343
1684	40.3866
1680	40.4193
1676	40.4418
1672	40.4107
1668	40.3671
1664	40.4189
1660	40.4823
1656	40.4427
1652	40.3821
1648	40.3716
1644	40.3407
1640	40.2798
1636	40.2696
1632	40.281
1628	40.2578
1624	40.2587
1620	40.3063
1616	40.3594
1612	40.4177
1608	40.4403
1604	40.3766
1600	40.2914
1596	40.2959
1592	40.382
1588	40.4122
1584	40.34
1580	40.2255
1576	40.162
1572	40.1802
1568	40.2352
1564	40.26
1560	40.2054
1556	40.1767
1552	40.2316
1548	40.2749
1544	40.2349
1540	40.1371
1536	40.1051
1532	40.1895
1528	40.2434
1524	40.1628
1520	40.0751
1516	40.075
1512	40.1028
1508	40.1285
1504	40.1391
1500	40.1347
1496	40.1405
1492	40.1247
1488	40.0945
1484	40.0842
1480	40.0737
1476	40.0565
1472	40.0608
1468	40.0645
1464	39.9737
1460	39.8557
1456	39.8481
1452	39.8698
1448	39.8728
1444	39.9398
1440	40.0325
1436	40.0392
1432	39.9677
1428	39.9169
1424	39.8747
1420	39.7797
1416	39.687
1412	39.6692
1408	39.688
1404	39.6744
1400	39.6529
1396	39.6674
1392	39.6795
1388	39.6909
1384	39.7256
1380	39.7089
1376	39.6825
1372	39.6757
1368	39.6035
1364	39.5123
1360	39.4734
1356	39.4903
1352	39.5049
1348	39.4803
1344	39.5011
1340	39.5156
1336	39.4712
1332	39.5122
1328	39.6302
1324	39.7156
1320	39.72
1316	39.643
1312	39.5629
1308	39.518
1304	39.4936
1300	39.4883
1296	39.4955
1292	39.4629
1288	39.3511
1284	39.2431
1280	39.2811
1276	39.3733
1272	39.3383
1268	39.2713
1264	39.2616
1260	39.2406
1256	39.2537
1252	39.3934
1248	39.4914
1244	39.39
1240	39.2751
1236	39.2405
1232	39.2019
1228	39.1464
1224	39.0829
1220	39.0284
1216	38.9758
1212	38.9398
1208	38.9301
1204	38.8804
1200	38.8079
1196	38.8045
1192	38.8573
1188	38.9079
1184	38.9341
1180	38.958
1176	39.0283
1172	39.1085
1168	39.1443
1164	39.1065
1160	38.9918
1156	38.8751
1152	38.8038
1148	38.7904
1144	38.8112
1140	38.7267
1136	38.5303
1132	38.421
1128	38.4644
1124	38.5603
1120	38.6501
1116	38.7368
1112	38.7896
1108	38.8732
1104	39.0457
1100	39.0955
1096	38.946
1092	38.7756
1088	38.6439
1084	38.4607
1080	38.2384
1076	38.1874
1072	38.3193
1068	38.3746
1064	38.3354
1060	38.3787
1056	38.4129
1052	38.3588
1048	38.368
1044	38.4337
1040	38.4391
1036	38.3966
1032	38.3921
1028	38.4589
1024	38.4788
1020	38.3043
1016	38.0423
1012	37.8947
1008	37.8394
1004	37.847
1000	37.9226
996	 37.9316
992	 37.8672
988	 37.9172
984	 38.0694
980	 38.1491
976	 38.0891
972	 37.9992
968	 38.009
964	 38.0441
960	 38.0585
956	 38.093
952	 38.1099
948	 38.0283
944	 37.8258
940	 37.6488
936	 37.5158
932	 37.4007
928	 37.4025
924	 37.4657
920	 37.4829
916	 37.4605
912	 37.4763
908	 37.5266
904	 37.559
900	 37.5809
896	 37.5916
892	 37.5992
888	 37.5463
884	 37.4132
880	 37.3654
876	 37.4533
872	 37.398
868	 37.1043
864	 36.8514
860	 36.7715
856	 36.7176
852	 36.679
848	 36.7372
844	 36.7498
840	 36.6509
836	 36.5652
832	 36.643
828	 36.8216
824	 36.8468
820	 36.8408
816	 36.9496
812	 37.0228
808	 36.9855
804	 36.8191
800	 36.6074
796	 36.3876
792	 36.219
788	 36.1576
784	 36.113
780	 36.1086
776	 36.1272
772	 36.0973
768	 36.0354
764	 36.0155
760	 36.1161
756	 36.3007
752	 36.5046
748	 36.5444
744	 36.2659
740	 35.9224
736	 35.7823
732	 35.7265
728	 35.6129
724	 35.5174
720	 35.4451
716	 35.2818
712	 35.0272
708	 34.7953
704	 34.7047
700	 34.667
696	 34.6042
692	 34.7709
688	 35.1038
684	 35.2335
680	 35.2944
676	 35.4671
672	 35.5392
668	 35.3887
664	 35.1538
660	 34.9135
656	 34.7134
652	 34.6665
648	 34.7199
644	 34.7002
640	 34.4546
636	 33.9784
632	 33.6023
628	 33.6518
624	 33.9505
620	 34.1465
616	 34.1751
612	 34.0834
608	 33.9892
604	 33.9766
600	 34.027
596	 34.1839
592	 34.2697
588	 34.0346
584	 33.6877
580	 33.4858
576	 33.3752
572	 33.3739
568	 33.4765
564	 33.4285
560	 33.1698
556	 32.9642
552	 32.9444
548	 33.0286
544	 33.0015
540	 32.8696
536	 32.736
532	 32.2773
528	 31.67
524	 31.6772
520	 32.4241
516	 32.8413
512	 32.6123
508	 32.6509
504	 32.3745
500	 31.1267
496	 30.1457
492	 30.497
488	 31.0386
484	 30.7021
480	 30.4267
476	 30.2354
472	 30.0826
468	 30.8672
464	 31.5671
460	 31.3714
456	 30.4967
452	 29.4114
448	 29.1417
444	 29.6396
440	 30.4848
436	 30.9991
432	 30.5508
428	 28.8323
424	 27.6886
420	 28.5592
416	 27.3641
412	 23.1179
408	 20.855
404	 16.3982
400	 6.184792
396	 3.108215
392	 10.4368
388	 15.3249
384	 8.265614
380	 -3.466439
376	 -1.641964
372	 11.6964
370	 17.7553