File: Bakgrunnsmateriale/MATLAB/FTIR/ftir_data/LPE454/Mapping_121/LPE454_t21_cm-1.asc
PE IR       SPECTRUM    SPECTRUM    ASCII       PEDS        1.60
  -1
LP5831~1.ASC
17/05/19
16:02:10.00
17/05/19
16:02:10.00
tln
$LPE454_t0021$<tbV0>[-10.4,-10.4,8.0,0.0,27,1,0]
370
64

2002,4.07
MIRTGS : RIGHTBACK : INTERNAL 2
MIR : ON : INTERNAL 2
OPTKBR

0.200000
8
8.000000
FILLER
RATIO
SPECTRUM
UNLOCKED 256

DOUBLE
64
COMBINED
1
0
0

1.000000
RATIO

1
0
TRUE
51149
0
LEFT NOT FITTED RIGHT NOT FITTED 0
NONE
NONE
15600
12
4.427000
51148
TRUE
1 0 8 72 0 0 0 0

15798

#HDR
-1
-1
#GR
CM-1
%T
2.38419e-05
0.0
5000
-1.000000
4631
8
38.931
-3.827452
#DATA
5000	0.611066
4996	0.266957
4992	0.092029
4988	0.235605
4984	0.367808
4980	0.579023
4976	0.438404
4972	-0.114774
4968	-0.149846
4964	0.201439
4960	0.290060
4956	0.311040
4952	0.443696
4948	0.644922
4944	0.809979
4940	0.511455
4936	0.006318
4932	0.073099
4928	0.253772
4924	0.205540
4920	0.314068
4916	0.223565
4912	-0.161027
4908	-0.399041
4904	-0.447726
4900	-0.368595
4896	-0.237441
4892	-0.186371
4888	0.089788
4884	0.614023
4880	0.739336
4876	0.644087
4872	0.520181
4868	0.225543
4864	-0.001001
4860	-0.022292
4856	0.090265
4852	0.219702
4848	0.328207
4844	0.398039
4840	0.249767
4836	-0.039219
4832	-0.247716
4828	-0.312542
4824	-0.387883
4820	-0.338029
4816	-0.190210
4812	-0.200462
4808	-0.069642
4804	0.262737
4800	0.376200
4796	0.222229
4792	0.015521
4788	-0.115132
4784	-0.050759
4780	0.144100
4776	0.292253
4772	0.287485
4768	0.252461
4764	0.376939
4760	0.523900
4756	0.503277
4752	0.378823
4748	0.237298
4744	0.043773
4740	-0.101852
4736	-0.119972
4732	-0.080800
4728	0.078630
4724	0.444173
4720	0.801920
4716	0.829625
4712	0.674581
4708	0.479340
4704	0.274062
4700	0.219559
4696	0.096702
4692	-0.079679
4688	0.035214
4684	0.168538
4680	-0.052785
4676	-0.107383
4672	0.315427
4668	0.592088
4664	0.580787
4660	0.475525
4656	0.331878
4652	0.310206
4648	0.178837
4644	-0.081682
4640	-0.314378
4636	-0.409793
4632	-0.473833
4628	-0.907063
4624	-1.197648
4620	-0.834441
4616	-0.904941
4612	-0.804424
4608	0.204062
4604	0.870466
4600	0.816702
4596	0.181698
4592	-0.637793
4588	-0.758934
4584	-0.538563
4580	-0.634717
4576	-0.171923
4572	0.311112
4568	-0.277042
4564	-0.701570
4560	-0.133728
4556	0.573611
4552	0.586223
4548	-0.073003
4544	-1.085805
4540	-1.748299
4536	-1.495838
4532	-0.570774
4528	0.526928
4524	2.540636
4520	4.285216
4516	2.983784
4512	3.872799
4508	7.885289
4504	5.909848
4500	-1.332116
4496	-3.526473
4492	0.661849
4488	1.921749
4484	0.030708
4480	-0.397133
4476	-0.258159
4472	-0.437569
4468	-0.734090
4464	-0.656795
4460	-0.126767
4456	0.373530
4452	0.466513
4448	0.145792
4444	-0.512981
4440	-0.803613
4436	-0.901651
4432	-0.951504
4428	-0.767326
4424	-0.494551
4420	0.024199
4416	0.521016
4412	0.453400
4408	0.144767
4404	0.216794
4400	0.546026
4396	0.558686
4392	0.561213
4388	0.599884
4384	0.340056
4380	0.085043
4376	0.033569
4372	0.158238
4368	0.296640
4364	0.112557
4360	-0.239920
4356	-0.323700
4352	-0.133824
4348	-0.136804
4344	-0.301933
4340	-0.170040
4336	0.098228
4332	0.124073
4328	-0.054430
4324	-0.099492
4320	-0.024986
4316	-0.092697
4312	-0.148558
4308	-0.035691
4304	0.107002
4300	0.066471
4296	0.041937
4292	0.267219
4288	0.409889
4284	0.243067
4280	-0.062251
4276	-0.162601
4272	-0.069546
4268	0.071001
4264	0.208425
4260	-0.009107
4256	-0.351309
4252	-0.349402
4248	-0.148606
4244	0.029706
4240	0.072669
4236	-0.045204
4232	-0.114369
4228	-0.005340
4224	0.129127
4220	0.120210
4216	0.002741
4212	-0.012373
4208	0.094914
4204	0.183463
4200	0.116491
4196	-0.084781
4192	-0.066304
4188	0.157499
4184	0.060534
4180	-0.188350
4176	0.011968
4172	0.349378
4168	0.188255
4164	-0.043892
4160	0.235366
4156	0.342535
4152	-0.001978
4148	-0.093889
4144	0.019240
4140	-0.010704
4136	0.011944
4132	0.098156
4128	0.096344
4124	0.140094
4120	0.178217
4116	0.094771
4112	0.004482
4108	-0.065255
4104	-0.119876
4100	-0.046110
4096	0.121331
4092	0.145244
4088	0.040125
4084	0.049734
4080	0.179910
4076	0.236248
4072	0.179743
4068	0.122427
4064	0.023984
4060	-0.087475
4056	-0.098729
4052	-0.098657
4048	-0.059294
4044	0.024557
4040	0.063419
4036	0.140309
4032	0.225615
4028	0.205445
4024	0.182127
4020	0.209164
4016	0.201725
4012	0.128960
4008	0.119352
4004	0.312876
4000	0.368261
3996	0.177884
3992	0.074553
3988	-0.048732
3984	-0.217533
3980	-0.194931
3976	-0.055909
3972	0.019717
3968	0.046491
3964	0.076842
3960	0.040435
3956	-0.047898
3952	-0.135970
3948	-0.156974
3944	-0.050115
3940	0.020146
3936	-0.012373
3932	-0.014948
3928	0.096416
3924	0.162482
3920	0.050830
3916	-0.144028
3912	-0.230312
3908	-0.093483
3904	0.063180
3900	0.078916
3896	0.047731
3892	0.063776
3888	0.062417
3884	0.017619
3880	0.015115
3876	0.044631
3872	0.025296
3868	-0.008368
3864	0.003242
3860	0.004220
3856	0.008630
3852	0.063920
3848	0.083088
3844	0.010347
3840	-0.039887
3836	0.036144
3832	0.147795
3828	0.136518
3824	0.047516
3820	0.094342
3816	0.216293
3812	0.202751
3808	0.085592
3804	-0.046777
3800	-0.170445
3796	-0.250768
3792	-0.145530
3788	0.055050
3784	0.136661
3780	0.182199
3776	0.146698
3772	0.038552
3768	0.087809
3764	0.206780
3760	0.153374
3756	-0.012469
3752	-0.117111
3748	-0.125336
3744	-0.100708
3740	-0.109481
3736	-0.140595
3732	-0.059342
3728	0.042867
3724	-0.003480
3720	-0.063610
3716	-0.026845
3712	0.032901
3708	0.044059
3704	0.033450
3700	0.050497
3696	0.075435
3692	0.087976
3688	0.085258
3684	0.084877
3680	0.156784
3676	0.207924
3672	0.115418
3668	-0.002312
3664	-0.039935
3660	-0.001311
3656	0.071239
3652	0.112557
3648	0.114274
3644	0.069928
3640	0.037312
3636	0.064325
3632	0.024366
3628	-0.067377
3624	-0.059866
3620	0.042724
3616	0.157880
3612	0.216412
3608	0.144100
3604	0.021624
3600	-0.032615
3596	-0.024318
3592	0.083518
3588	0.176477
3584	0.146484
3580	0.065946
3576	-0.035905
3572	-0.059032
3568	0.057339
3564	0.165867
3560	0.158500
3556	0.122523
3552	0.071740
3548	-0.025916
3544	-0.040936
3540	0.034856
3536	0.121736
3532	0.147485
3528	0.082206
3524	0.028681
3520	0.045728
3516	0.046110
3512	-0.030231
3508	-0.047922
3504	0.019335
3500	0.071883
3496	0.116062
3492	0.087428
3488	-0.018835
3484	-0.096225
3480	-0.071883
3476	0.144457
3472	0.354933
3468	0.239896
3464	-0.014758
3460	-0.038909
3456	0.058794
3452	0.074458
3448	0.110435
3444	0.130414
3440	0.072193
3436	0.063467
3432	0.079584
3428	0.060391
3424	0.069499
3420	0.103473
3416	0.054192
3412	-0.058293
3408	-0.052976
3404	0.046873
3400	0.090265
3396	0.079441
3392	0.080561
3388	0.080895
3384	0.019073
3380	-0.021719
3376	0.038552
3372	0.093817
3368	0.064635
3364	-0.006842
3360	-0.042366
3356	0.027108
3352	0.097203
3348	0.069451
3344	0.080490
3340	0.114274
3336	0.049233
3332	-0.044226
3328	-0.053358
3324	0.037336
3320	0.085115
3316	0.001502
3312	-0.050640
3308	0.032424
3304	0.127530
3300	0.177931
3296	0.116682
3292	-0.032114
3288	-0.039529
3284	0.059580
3280	0.077056
3276	0.053906
3272	0.013279
3268	-0.053882
3264	-0.040006
3260	0.034904
3256	0.050187
3252	0.020289
3248	0.011563
3244	0.064492
3240	0.119066
3236	0.055027
3232	-0.030684
3228	0.000596
3224	0.116014
3220	0.238108
3216	0.242114
3212	0.102782
3208	0.015830
3204	0.027418
3200	0.003457
3196	0.037074
3192	0.141787
3188	0.142359
3184	0.097870
3180	0.088787
3176	0.021028
3172	-0.071501
3168	-0.000143
3164	0.160598
3160	0.179100
3156	0.087428
3152	0.038337
3148	0.054669
3144	0.111126
3140	0.183010
3136	0.276517
3132	0.386643
3128	0.265932
3124	-0.029206
3120	-0.154876
3116	-0.179314
3112	-0.192499
3108	-0.139284
3104	-0.058650
3100	-0.020670
3096	0.024080
3092	0.130677
3088	0.138974
3084	0.036048
3080	-0.003981
3076	0.015592
3072	0.030589
3068	0.021338
3064	0.023078
3060	0.047063
3056	0.018477
3052	-0.018858
3048	0.020599
3044	0.086832
3040	0.099706
3036	0.038552
3032	0.002503
3028	0.052380
3024	0.100135
3020	0.121688
3016	0.131916
3012	0.127077
3008	0.130152
3004	0.078248
3000	-0.025463
2996	-0.034904
2992	0.010704
2988	-0.016474
2984	-0.037050
2980	-0.003957
2976	-0.012588
2972	-0.036025
2968	-0.025463
2964	-0.051236
2960	-0.080347
2956	-0.003409
2952	0.070095
2948	0.054359
2944	0.055456
2940	0.086212
2936	0.106167
2932	0.047516
2928	-0.031232
2924	-0.114703
2920	-0.196933
2916	-0.105023
2912	0.026345
2908	0.070238
2904	0.086545
2900	0.050354
2896	0.010251
2892	0.064587
2888	0.120115
2884	0.089955
2880	0.054240
2876	0.082826
2872	0.169992
2868	0.141072
2864	-0.038933
2860	-0.141787
2856	-0.105476
2852	-0.018787
2848	-0.010848
2844	-0.014591
2840	0.087141
2836	0.145649
2832	0.073623
2828	-0.045871
2824	-0.084018
2820	-0.021004
2816	0.033664
2812	0.066089
2808	0.087690
2804	0.093054
2800	0.117349
2796	0.112318
2792	0.044488
2788	-0.014996
2784	-0.022649
2780	0.007963
2776	0.054645
2772	0.078654
2768	0.066161
2764	0.066041
2760	0.100469
2756	0.147104
2752	0.159573
2748	0.119328
2744	0.034379
2740	-0.066089
2736	-0.074863
2732	0.003004
2728	0.063800
2724	0.078964
2720	0.088214
2716	0.068211
2712	-0.013256
2708	-0.053930
2704	-0.034952
2700	0.016212
2696	0.061678
2692	0.058388
2688	0.030708
2684	0.014138
2680	0.018477
2676	0.004148
2672	-0.031018
2668	-0.049400
2664	-0.015115
2660	0.026512
2656	0.025844
2652	0.034022
2648	0.009536
2644	-0.035715
2640	-0.036907
2636	-0.031304
2632	0.010824
2628	0.086951
2624	0.119256
2620	0.106620
2616	0.092387
2612	0.051999
2608	-0.020480
2604	-0.044536
2600	-0.012326
2596	0.039815
2592	0.068807
2588	0.029373
2584	0.019955
2580	-0.001692
2576	-0.042533
2572	-0.023984
2568	0.018763
2564	0.036334
2560	0.039148
2556	0.042319
2552	0.025892
2548	0.026130
2544	0.069117
2540	0.102043
2536	0.109338
2532	0.102353
2528	0.032258
2524	-0.006222
2520	0.031447
2516	-0.012636
2512	-0.105595
2508	-0.112581
2504	0.003314
2500	0.195407
2496	0.292062
2492	0.185036
2488	-0.003123
2484	-0.072574
2480	-0.051903
2476	-0.095653
2472	-0.141263
2468	-0.113081
2464	-0.078535
2460	-0.036597
2456	0.040888
2452	0.046753
2448	-0.079083
2444	-0.213980
2440	-0.181531
2436	0.040912
2432	0.243520
2428	0.216436
2424	0.095939
2420	0.011420
2416	-0.189185
2412	-0.307607
2408	-0.150012
2404	0.027346
2400	0.095248
2396	0.091385
2392	0.082969
2388	0.066781
2384	-0.003457
2380	-0.017237
2376	0.045609
2372	0.062370
2368	0.047612
2364	0.087261
2360	0.140237
2356	0.169682
2352	0.154876
2348	0.079131
2344	0.049662
2340	0.070071
2336	0.089263
2332	0.137257
2328	0.169038
2324	0.205039
2320	0.284504
2316	0.338220
2312	0.335812
2308	0.345754
2304	0.383877
2300	0.400972
2296	0.431561
2292	0.490927
2288	0.555109
2284	0.653457
2280	0.750756
2276	0.756931
2272	0.737714
2268	0.808835
2264	0.924611
2260	0.990867
2256	1.009202
2252	1.047658
2248	1.148104
2244	1.286268
2240	1.394987
2236	1.491165
2232	1.653504
2228	1.835584
2224	1.987552
2220	2.109646
2216	2.205920
2212	2.347517
2208	2.532696
2204	2.716922
2200	2.920961
2196	3.110480
2192	3.246474
2188	3.418850
2184	3.637552
2180	3.810405
2176	4.012775
2172	4.294466
2168	4.532194
2164	4.681968
2160	4.864430
2156	5.179977
2152	5.497026
2148	5.633974
2144	5.757570
2140	6.042647
2136	6.350374
2132	6.646728
2128	6.964969
2124	7.220149
2120	7.461380
2116	7.743430
2112	7.987761
2108	8.199310
2104	8.437824
2100	8.643507
2096	8.814358
2092	9.115910
2088	9.520006
2084	9.772014
2080	9.797883
2076	9.920668
2072	10.4031
2068	10.9032
2064	10.988
2060	10.9405
2056	11.1147
2052	11.3642
2048	11.6539
2044	11.9375
2040	12.1019
2036	12.2361
2032	12.3975
2028	12.5561
2024	12.7056
2020	12.907
2016	13.1199
2012	13.2595
2008	13.4082
2004	13.6034
2000	13.7659
1996	13.8809
1992	14.0173
1988	14.1862
1984	14.3276
1980	14.4813
1976	14.6611
1972	14.816
1968	14.9668
1964	15.106
1960	15.1883
1956	15.2399
1952	15.3328
1948	15.4949
1944	15.6693
1940	15.7715
1936	15.8119
1932	15.8778
1928	15.9336
1924	15.9574
1920	16.0225
1916	16.0995
1912	16.17
1908	16.2849
1904	16.4135
1900	16.505
1896	16.6049
1892	16.7129
1888	16.7646
1884	16.7665
1880	16.8038
1876	16.9196
1872	17.0085
1868	17.016
1864	17.0417
1860	17.1371
1856	17.2552
1852	17.3418
1848	17.3989
1844	17.4564
1840	17.5384
1836	17.6171
1832	17.656
1828	17.6731
1824	17.7023
1820	17.7423
1816	17.7966
1812	17.8802
1808	17.9268
1804	17.9363
1800	18.0216
1796	18.1659
1792	18.2294
1788	18.1923
1784	18.1709
1780	18.2019
1776	18.2558
1772	18.3231
1768	18.3495
1764	18.3553
1760	18.3947
1756	18.3806
1752	18.3289
1748	18.3495
1744	18.4492
1740	18.568
1736	18.6024
1732	18.5862
1728	18.631
1724	18.7105
1720	18.783
1716	18.835
1712	18.8441
1708	18.8083
1704	18.7551
1700	18.7721
1696	18.8177
1692	18.7987
1688	18.8227
1684	18.9019
1680	18.9386
1676	18.985
1672	19.0684
1668	19.1226
1664	19.1658
1660	19.1614
1656	19.1064
1652	19.0814
1648	19.0828
1644	19.117
1640	19.1311
1636	19.1024
1632	19.1272
1628	19.2063
1624	19.2718
1620	19.2857
1616	19.2487
1612	19.1947
1608	19.1663
1604	19.1726
1600	19.1783
1596	19.1823
1592	19.1942
1588	19.2281
1584	19.2932
1580	19.3661
1576	19.4311
1572	19.4604
1568	19.448
1564	19.4839
1560	19.5261
1556	19.4615
1552	19.4607
1548	19.5471
1544	19.5451
1540	19.5342
1536	19.5462
1532	19.5106
1528	19.527
1524	19.6112
1520	19.6407
1516	19.5922
1512	19.5418
1508	19.5489
1504	19.5858
1500	19.6362
1496	19.7044
1492	19.7043
1488	19.6452
1484	19.6325
1480	19.6467
1476	19.669
1472	19.6646
1468	19.6347
1464	19.6507
1460	19.6206
1456	19.5761
1452	19.7129
1448	19.8848
1444	19.8628
1440	19.7695
1436	19.7797
1432	19.8431
1428	19.8567
1424	19.8056
1420	19.7413
1416	19.6809
1412	19.6405
1408	19.6903
1404	19.7808
1400	19.8055
1396	19.7806
1392	19.7759
1388	19.8208
1384	19.8358
1380	19.8101
1376	19.8288
1372	19.8275
1368	19.7683
1364	19.7396
1360	19.7729
1356	19.8277
1352	19.8883
1348	19.9603
1344	20.008
1340	20.028
1336	20.0279
1332	20.0091
1328	20.0015
1324	19.9847
1320	19.9594
1316	19.9346
1312	19.9134
1308	19.929
1304	19.9174
1300	19.8652
1296	19.8542
1292	19.8674
1288	19.9029
1284	19.9829
1280	20.0107
1276	19.9801
1272	19.9766
1268	19.9919
1264	20.0434
1260	20.0975
1256	20.0691
1252	20.0322
1248	20.055
1244	20.0405
1240	19.9241
1236	19.8307
1232	19.8736
1228	20.0007
1224	20.1411
1220	20.2363
1216	20.2234
1212	20.1757
1208	20.13
1204	20.033
1200	19.9896
1196	20.0543
1192	20.074
1188	20.0318
1184	20.0084
1180	19.9741
1176	19.9579
1172	20.0026
1168	20.0639
1164	20.1177
1160	20.1209
1156	20.0897
1152	20.1216
1148	20.1697
1144	20.181
1140	20.1679
1136	20.0761
1132	20.0094
1128	20.098
1124	20.1826
1120	20.1812
1116	20.1564
1112	20.1598
1108	20.2504
1104	20.2565
1100	20.2125
1096	20.3521
1092	20.4237
1088	20.3085
1084	20.1525
1080	19.9038
1076	19.7203
1072	19.7881
1068	19.9157
1064	19.9793
1060	20.0212
1056	19.9935
1052	19.9712
1048	20.0205
1044	20.0205
1040	20.0039
1036	20.0603
1032	20.1373
1028	20.1903
1024	20.2223
1020	20.1953
1016	20.1367
1012	20.1221
1008	20.0609
1004	19.9567
1000	19.8955
996	 19.852
992	 19.8563
988	 19.908
984	 20.0361
980	 20.198
976	 20.1959
972	 20.09
968	 20.0077
964	 19.927
960	 19.9203
956	 19.9476
952	 19.8261
948	 19.6501
944	 19.6332
940	 19.7803
936	 19.8973
932	 19.8554
928	 19.7836
924	 19.7452
920	 19.7246
916	 19.774
912	 19.787
908	 19.664
904	 19.4953
900	 19.408
896	 19.4778
892	 19.5453
888	 19.4964
884	 19.4649
880	 19.4246
876	 19.2909
872	 19.2337
868	 19.3006
864	 19.3194
860	 19.3615
856	 19.5194
852	 19.6732
848	 19.7174
844	 19.5569
840	 19.3064
836	 19.1713
832	 19.1264
828	 19.1172
824	 19.0928
820	 19.0767
816	 19.227
812	 19.367
808	 19.2929
804	 19.2362
800	 19.2309
796	 19.1171
792	 19.0979
788	 19.1786
784	 19.0578
780	 18.8525
776	 18.745
772	 18.6384
768	 18.5328
764	 18.3897
760	 18.4349
756	 18.7579
752	 18.6949
748	 18.5041
744	 18.815
740	 19.0867
736	 18.8938
732	 18.4365
728	 18.0579
724	 17.9512
720	 18.0288
716	 18.0063
712	 17.7836
708	 17.7089
704	 17.8644
700	 18.0709
696	 18.2429
692	 18.1875
688	 17.9912
684	 17.9481
680	 18.0081
676	 17.9077
672	 17.5956
668	 17.3759
664	 17.2757
660	 17.1728
656	 17.2125
652	 17.2404
648	 17.2036
644	 17.2392
640	 17.0847
636	 16.8732
632	 17.1367
628	 17.475
624	 17.2575
620	 16.9035
616	 16.8151
612	 16.8973
608	 16.92
604	 16.6904
600	 16.3141
596	 15.9478
592	 15.7263
588	 15.662
584	 15.6995
580	 15.7161
576	 15.7762
572	 15.9377
568	 15.9077
564	 15.7681
560	 15.5524
556	 15.0429
552	 14.637
548	 14.9145
544	 15.5325
540	 15.5425
536	 14.9001
532	 14.4394
528	 14.4384
524	 14.5647
520	 14.457
516	 13.8969
512	 13.0653
508	 12.8314
504	 13.49
500	 14.0123
496	 13.7987
492	 13.4154
488	 13.3466
484	 13.5422
480	 13.5357
476	 13.2615
472	 13.6916
468	 14.4752
464	 14.2407
460	 14.0543
456	 14.8038
452	 14.2607
448	 12.0743
444	 11.2392
440	 11.7901
436	 12.0461
432	 12.3681
428	 11.9166
424	 9.777975
420	 8.221411
416	 9.194064
412	 12.2102
408	 14.0384
404	 10.2922
400	 7.505273
396	 15.9154
392	 32.2419
388	 38.4381
384	 26.0364
380	 17.7024
376	 7.995462
372	 19.032
370	 34.6442