File: Bakgrunnsmateriale/MATLAB/FTIR/ftir_data/LPE454/Mapping_121/LPE454_t06.asc
PE IR       SPECTRUM    SPECTRUM    ASCII       PEDS        1.60
  -1
LPD394~1.ASC
17/05/19
14:52:24.00
17/05/19
14:52:50.00
tln
$LPE454_t0006$<tbV0>[0.0,-13.0,8.0,0.0,27,1,0]
27.028
64

2002,4.07
MIRTGS : RIGHTBACK : INTERNAL 2
MIR : ON : INTERNAL 2
OPTKBR

0.200000
8
8.000000
FILLER
RATIO
SPECTRUM
UNLOCKED 256

DOUBLE
64
COMBINED
1
0
0

0.002000
RATIO

1
0
TRUE
51149
0
LEFT NOT FITTED RIGHT NOT FITTED 0
NONE
NONE
15600
12
4.427000
51148
TRUE
1 0 8 72 0 0 0 0

15798

#HDR
-1
-1
#GR
µM
%T
2.38419e-05
0.0
2.000000
0.002000
12515
8
69.0902
-1.899682
#DATA
2.000000	 0.023913
2.018000	 -0.013554
2.036000	 0.265458
2.054000	 0.978634
2.072000	 0.382530
2.090000	 0.060466
2.108000	 0.746787
2.126000	 0.069815
2.144000	 0.215119
2.162000	 0.552846
2.180000	 0.253223
2.198000	 0.376588
2.216000	 -1.111813
2.234000	 3.549788
2.252000	 0.835665
2.270000	 -0.564247
2.288000	 -0.110668
2.306000	 0.358793
2.324000	 0.217679
2.342000	 0.346663
2.360000	 -0.076397
2.378000	 -0.011088
2.396000	 0.819115
2.414000	 0.547203
2.432000	 0.031998
2.450000	 0.097911
2.468000	 0.028205
2.486000	 -0.040145
2.504000	 0.078676
2.522000	 -0.012523
2.540000	 0.170169
2.558000	 0.026166
2.576000	 -0.014088
2.594000	 0.155054
2.612000	 -0.122678
2.630000	 0.026454
2.648000	 0.002540
2.666000	 0.155535
2.684000	 0.068891
2.702000	 0.146577
2.720000	 0.082650
2.738000	 0.141749
2.756000	 0.066381
2.774000	 0.065494
2.792000	 0.097555
2.810000	 -0.094106
2.828000	 0.085222
2.846000	 0.208191
2.864000	 0.160384
2.882000	 0.043394
2.900000	 0.102718
2.918000	 0.046834
2.936000	 0.148763
2.954000	 0.150278
2.972000	 -0.071755
2.990000	 0.058394
3.008000	 0.149825
3.026000	 0.171328
3.044000	 0.049472
3.062000	 0.116287
3.080000	 0.142721
3.098000	 0.060669
3.116000	 0.047677
3.134000	 0.113085
3.152000	 0.005186
3.170000	 0.070947
3.188000	 -0.049185
3.206000	 0.223011
3.224000	 -0.122624
3.242000	 0.093407
3.260000	 -0.062597
3.278000	 0.081881
3.296000	 -0.078336
3.314000	 0.098115
3.332000	 -0.001507
3.350000	 0.156802
3.368000	 0.092490
3.386000	 0.041991
3.404000	 -0.010616
3.422000	 -0.109422
3.440000	 0.039439
3.458000	 0.121955
3.476000	 0.152959
3.494000	 0.012732
3.512000	 -0.089413
3.530000	 -0.108221
3.548000	 -0.085649
3.566000	 -0.016838
3.584000	 -0.026493
3.602000	 -0.017704
3.620000	 0.143642
3.638000	 -0.033915
3.656000	 0.080998
3.674000	 0.010360
3.692000	 -0.003271
3.710000	 0.012053
3.728000	 0.102212
3.746000	 0.044145
3.764000	 0.117015
3.782000	 0.022581
3.800000	 0.067820
3.818000	 -0.056929
3.836000	 0.027553
3.854000	 -0.047767
3.872000	 0.017221
3.890000	 -0.032443
3.908000	 -0.073033
3.926000	 -0.022091
3.944000	 0.022991
3.962000	 0.027908
3.980000	 0.141929
3.998000	 0.119294
4.016000	 0.019494
4.034000	 -0.003653
4.052000	 -0.001832
4.070000	 -0.004167
4.088000	 0.143501
4.106000	 0.067737
4.124000	 -0.015668
4.141999	 -0.050268
4.160000	 0.199043
4.178000	 0.144193
4.196000	 0.058291
4.214000	 -0.010022
4.232000	 0.183930
4.250000	 0.217794
4.268000	 0.198070
4.286000	 0.295150
4.304000	 0.308942
4.322000	 0.323600
4.340000	 0.536811
4.358000	 0.704056
4.375999	 0.751196
4.394000	 0.903208
4.412000	 1.126736
4.430000	 1.464331
4.448000	 1.915254
4.466000	 2.346421
4.484000	 2.604259
4.502000	 3.102344
4.520000	 3.656609
4.538000	 4.315944
4.556000	 4.931186
4.574000	 5.740008
4.592000	 6.454876
4.609999	 7.320199
4.628000	 8.322498
4.646000	 9.128780
4.664000	 10.2355
4.682000	 10.9401
4.700000	 11.8436
4.718000	 13.0671
4.736000	 13.9901
4.754000	 14.9703
4.772000	 15.8225
4.790000	 16.7619
4.808000	 17.6112
4.826000	 18.6413
4.843999	 19.3676
4.862000	 20.1034
4.880000	 21.0433
4.898000	 21.8021
4.916000	 22.5198
4.934000	 23.278
4.952000	 23.7998
4.970000	 24.4129
4.988000	 25.046
5.006000	 25.5755
5.024000	 26.0624
5.042000	 26.5451
5.060000	 27.0054
5.077999	 27.4076
5.096000	 27.7012
5.114000	 28.0553
5.132000	 28.4709
5.150000	 28.7646
5.168000	 29.0343
5.186000	 29.3804
5.204000	 29.6756
5.222000	 29.9245
5.240000	 30.2401
5.258000	 30.4442
5.276000	 30.6265
5.294000	 30.7734
5.312000	 30.9319
5.330000	 31.0803
5.348000	 31.1912
5.366000	 31.3755
5.384000	 31.4729
5.402000	 31.5861
5.420000	 31.7507
5.438000	 31.8581
5.456000	 31.9878
5.474000	 32.0418
5.492000	 32.1369
5.510000	 32.2997
5.528000	 32.3466
5.546000	 32.3761
5.564000	 32.4588
5.582000	 32.5491
5.600000	 32.643
5.618000	 32.6841
5.636000	 32.6657
5.654000	 32.7235
5.672000	 32.7242
5.690000	 32.7717
5.708000	 32.8181
5.726000	 32.8116
5.744000	 32.8534
5.762000	 32.9371
5.780000	 33.0924
5.798000	 33.1534
5.816000	 33.1876
5.834000	 33.0556
5.852000	 32.7424
5.870000	 32.9423
5.888000	 33.1618
5.906000	 33.0778
5.923999	 33.0932
5.942000	 33.0851
5.960000	 33.0782
5.978000	 33.1871
5.996000	 33.1543
6.014000	 33.0761
6.032000	 33.091
6.050000	 33.2052
6.068000	 33.2045
6.086000	 33.1251
6.104000	 33.0892
6.122000	 33.1614
6.140000	 33.2654
6.158000	 33.2825
6.176000	 33.2667
6.194000	 33.2273
6.212000	 33.1427
6.230000	 33.0979
6.248000	 33.1152
6.266000	 33.1372
6.284000	 33.1407
6.302000	 33.0869
6.320000	 33.1497
6.338000	 33.2707
6.356000	 33.2743
6.374000	 33.2407
6.392000	 33.2427
6.410000	 33.3552
6.428000	 33.3757
6.446000	 33.2818
6.464000	 33.2906
6.482000	 33.3231
6.500000	 33.2379
6.518000	 33.1627
6.536000	 33.209
6.554000	 33.2578
6.572000	 33.2521
6.590000	 33.2351
6.608000	 33.2338
6.626000	 33.2714
6.644000	 33.2913
6.662000	 33.2414
6.680000	 33.226
6.698000	 33.2272
6.716000	 33.1653
6.734000	 33.1375
6.752000	 33.1849
6.770000	 33.2516
6.788000	 33.2374
6.806000	 33.1563
6.824000	 33.144
6.842000	 33.1649
6.860000	 33.1211
6.878000	 33.0807
6.896000	 33.0558
6.914000	 32.9794
6.932000	 32.9838
6.950000	 33.0858
6.968000	 33.0744
6.986000	 32.9713
7.004000	 32.9271
7.022000	 32.9747
7.040000	 33.0794
7.058000	 33.1126
7.076000	 33.0304
7.094000	 32.9599
7.112000	 32.9835
7.130000	 33.0443
7.148000	 33.0398
7.166000	 32.983
7.184000	 32.9732
7.202000	 33.0079
7.220000	 33.0317
7.238000	 33.0229
7.256000	 32.949
7.274000	 32.8545
7.292000	 32.8396
7.310000	 32.8531
7.328000	 32.8067
7.346000	 32.7601
7.364000	 32.763
7.382000	 32.7809
7.400000	 32.8014
7.418000	 32.8261
7.436000	 32.8548
7.454000	 32.9069
7.472000	 32.9466
7.490000	 32.8936
7.508000	 32.7717
7.526000	 32.6926
7.544000	 32.6976
7.562000	 32.7382
7.580000	 32.7554
7.598000	 32.7273
7.616000	 32.6838
7.634000	 32.6508
7.652000	 32.6096
7.670000	 32.5649
7.688000	 32.5652
7.706000	 32.6093
7.724000	 32.6455
7.742000	 32.6595
7.760000	 32.6734
7.778000	 32.6828
7.796000	 32.6635
7.814000	 32.6132
7.832000	 32.5509
7.850000	 32.4965
7.868000	 32.4642
7.886000	 32.458
7.904000	 32.4628
7.922000	 32.4598
7.940000	 32.4462
7.958000	 32.4263
7.976000	 32.4086
7.994000	 32.4176
8.012000	 32.4675
8.030000	 32.5294
8.048000	 32.5716
8.065999	 32.5996
8.084000	 32.6226
8.102000	 32.6266
8.120000	 32.61
8.138000	 32.5886
8.155999	 32.5594
8.173999	 32.512
8.192000	 32.466
8.210000	 32.4454
8.228000	 32.4441
8.246000	 32.4463
8.263999	 32.4496
8.282000	 32.4391
8.300000	 32.3819
8.318000	 32.281
8.336000	 32.2026
8.353999	 32.2004
8.372000	 32.249
8.390000	 32.2839
8.408000	 32.2796
8.426000	 32.2626
8.443999	 32.2697
8.462000	 32.3133
8.480000	 32.3735
8.498000	 32.414
8.516000	 32.4195
8.533999	 32.4065
8.552000	 32.3887
8.570000	 32.353
8.588000	 32.2887
8.606000	 32.2128
8.624000	 32.1527
8.641999	 32.1203
8.660000	 32.1134
8.678000	 32.1315
8.696000	 32.1682
8.714000	 32.1908
8.731999	 32.1565
8.750000	 32.0653
8.768000	 31.9711
8.786000	 31.9271
8.804000	 31.9358
8.821999	 31.9638
8.840000	 31.9844
8.858000	 31.9984
8.876000	 32.0196
8.894000	 32.0535
8.911999	 32.0923
8.930000	 32.1254
8.948000	 32.145
8.966000	 32.1453
8.984000	 32.1263
9.001999	 32.1012
9.020000	 32.0942
9.038000	 32.1207
9.056000	 32.164
9.074000	 32.1766
9.092000	 32.1144
9.109999	 31.9796
9.128000	 31.8302
9.146000	 31.7386
9.164000	 31.733
9.182000	 31.7743
9.199999	 31.7944
9.218000	 31.7543
9.236000	 31.6684
9.254000	 31.5839
9.272000	 31.5427
9.289999	 31.5609
9.308000	 31.6292
9.326000	 31.7188
9.344000	 31.796
9.362000	 31.8369
9.379999	 31.841
9.398000	 31.8277
9.416000	 31.819
9.434000	 31.8246
9.452000	 31.8422
9.469999	 31.871
9.488000	 31.9157
9.506000	 31.9688
9.524000	 31.997
9.542000	 31.9567
9.560000	 31.8324
9.577999	 31.6577
9.596000	 31.4959
9.614000	 31.3987
9.632000	 31.3749
9.650000	 31.396
9.667999	 31.4235
9.686000	 31.4374
9.704000	 31.441
9.722000	 31.4447
9.740000	 31.4489
9.757999	 31.4435
9.776000	 31.4215
9.794000	 31.3911
9.812000	 31.3736
9.830000	 31.3861
9.847999	 31.4256
9.866000	 31.4679
9.884000	 31.484
9.902000	 31.461
9.920000	 31.413
9.937999	 31.3734
9.956000	 31.372
9.974000	 31.4164
9.992000	 31.4899
10.01	31.5644
10.028	31.6185
10.046	31.6457
10.064	31.6503
10.082	31.6358
10.1	31.5995
10.118	31.5368
10.136	31.45
10.154	31.353
10.172	31.2661
10.19	31.2054
10.208	31.1759
10.226	31.1726
10.244	31.1864
10.262	31.2072
10.28	31.2247
10.298	31.2267
10.316	31.2002
10.334	31.1366
10.352	31.0379
10.37	30.9181
10.388	30.8008
10.406	30.7102
10.424	30.6652
10.442	30.6727
10.46	30.728
10.478	30.8172
10.496	30.9204
10.514	31.0178
10.532	31.0919
10.55	31.133
10.568	31.1391
10.586	31.1149
10.604	31.068
10.622	31.0075
10.64	30.9434
10.658	30.8864
10.676	30.8486
10.694	30.8386
10.712	30.8565
10.73	30.8898
10.748	30.9171
10.766	30.9158
10.784	30.8726
10.802	30.7881
10.82	30.6735
10.838	30.5472
10.856	30.4277
10.874	30.332
10.892	30.2705
10.91	30.2464
10.928	30.2529
10.946	30.2739
10.964	30.29
10.982	30.2864
11	30.2608
11.018	30.2243
11.036	30.1936
11.054	30.1822
11.072	30.1934
11.09	30.2227
11.108	30.2633
11.126	30.3109
11.144	30.3642
11.162	30.4212
11.18	30.477
11.198	30.5233
11.216	30.5527
11.234	30.5626
11.252	30.5578
11.27	30.5469
11.288	30.5375
11.306	30.5313
11.324	30.5239
11.342	30.5095
11.36	30.4856
11.378	30.4568
11.396	30.432
11.414	30.4195
11.432	30.4209
11.45	30.4296
11.468	30.4324
11.486	30.4161
11.504	30.3738
11.522	30.3077
11.54	30.2276
11.558	30.1465
11.576	30.0757
11.594	30.0202
11.612	29.9793
11.63	29.9482
11.648	29.9213
11.666	29.8934
11.684	29.8613
11.702	29.8231
11.72	29.7786
11.738	29.7291
11.756	29.6779
11.774	29.6315
11.792	29.5996
11.81	29.5916
11.828	29.6137
11.846	29.6666
11.864	29.7438
11.882	29.8333
11.9	29.9211
11.918	29.9947
11.936	30.0466
11.954	30.0749
11.972	30.0825
11.99	30.0753
12.008	30.0603
12.026	30.0445
12.044	30.0351
12.062	30.0388
12.08	30.0605
12.098	30.1013
12.116	30.1562
12.134	30.213
12.152	30.2548
12.17	30.2656
12.188	30.2343
12.206	30.16
12.224	30.0531
12.242	29.9313
12.26	29.8141
12.278	29.7181
12.296	29.652
12.314	29.615
12.332	29.5988
12.35	29.5911
12.368	29.5793
12.386	29.5536
12.404	29.5094
12.422	29.447
12.44	29.3702
12.458	29.2845
12.476	29.1956
12.494	29.1085
12.512	29.0274
12.53	28.956
12.548	28.8976
12.566	28.8548
12.584	28.8284
12.602	28.8173
12.62	28.8175
12.638	28.8236
12.656	28.8303
12.674	28.8335
12.692	28.8319
12.71	28.8263
12.728	28.82
12.746	28.8175
12.764	28.8232
12.782	28.8406
12.8	28.8712
12.818	28.9148
12.836	28.9688
12.854	29.029
12.872	29.0901
12.89	29.1462
12.908	29.1929
12.926	29.2271
12.944	29.2478
12.962	29.2561
12.98	29.2547
12.998	29.2474
13.016	29.2377
13.034	29.2287
13.052	29.2222
13.07	29.2184
13.088	29.2162
13.106	29.2127
13.124	29.2052
13.142	29.1911
13.16	29.1688
13.178	29.1375
13.196	29.0975
13.214	29.0502
13.232	28.9972
13.25	28.9399
13.268	28.8797
13.286	28.8174
13.304	28.7531
13.322	28.6869
13.34	28.6191
13.358	28.5502
13.376	28.481
13.394	28.4121
13.412	28.3438
13.43	28.2755
13.448	28.2065
13.466	28.1358
13.484	28.0636
13.502	27.9922
13.52	27.9267
13.538	27.8741
13.556	27.8425
13.574	27.839
13.592	27.8681
13.61	27.9294
13.628	28.0173
13.646	28.122
13.664	28.2308
13.682	28.3302
13.7	28.4094
13.718	28.462
13.736	28.4874
13.754	28.49
13.772	28.4785
13.79	28.4633
13.808	28.4534
13.826	28.4552
13.844	28.4706
13.862	28.4974
13.88	28.5299
13.898	28.5613
13.916	28.5848
13.934	28.5954
13.952	28.591
13.97	28.5724
13.988	28.5429
14.006	28.5074
14.024	28.4705
14.042	28.4358
14.06	28.4051
14.078	28.3781
14.096	28.3525
14.114	28.3254
14.132	28.2938
14.15	28.2555
14.168	28.2097
14.186	28.1569
14.204	28.0988
14.222	28.0375
14.24	27.9758
14.258	27.9153
14.276	27.8568
14.294	27.7996
14.312	27.7422
14.33	27.6824
14.348	27.6183
14.366	27.5483
14.384	27.4725
14.402	27.3921
14.42	27.3098
14.438	27.2293
14.456	27.1547
14.474	27.0903
14.492	27.04
14.51	27.0064
14.528	26.9902
14.546	26.9907
14.564	27.0058
14.582	27.0323
14.6	27.0662
14.618	27.1033
14.636	27.1393
14.654	27.1705
14.672	27.1941
14.69	27.2077
14.708	27.2094
14.726	27.1972
14.744	27.17
14.762	27.1269
14.78	27.0685
14.798	26.9968
14.816	26.915
14.834	26.8287
14.852	26.7453
14.87	26.673
14.888	26.6197
14.906	26.5923
14.924	26.596
14.942	26.633
14.96	26.7008
14.978	26.7933
14.996	26.9022
15.014	27.0171
15.032	27.1253
15.05	27.2166
15.068	27.2837
15.086	27.322
15.104	27.3306
15.122	27.3129
15.14	27.2758
15.158	27.2268
15.176	27.1738
15.194	27.1247
15.212	27.0853
15.23	27.0584
15.248	27.0444
15.266	27.042
15.284	27.0479
15.302	27.0577
15.32	27.0679
15.338	27.0757
15.356	27.078
15.374	27.0736
15.392	27.0622
15.41	27.0435
15.428	27.0173
15.446	26.9837
15.464	26.9421
15.482	26.8918
15.5	26.8326
15.518	26.7646
15.536	26.6893
15.554	26.6091
15.572	26.5275
15.59	26.4504
15.608	26.383
15.626	26.3299
15.644	26.2963
15.662	26.2853
15.68	26.2972
15.698	26.3312
15.716	26.3836
15.734	26.4481
15.752	26.5188
15.77	26.5888
15.788	26.6497
15.806	26.6963
15.824	26.7248
15.842	26.7324
15.86	26.7196
15.878	26.6886
15.896	26.6425
15.914	26.5868
15.932	26.527
15.95	26.4673
15.968	26.4126
15.986	26.3662
16.004	26.329
16.022	26.3013
16.04	26.2818
16.058	26.2678
16.076	26.2572
16.094	26.2465
16.112	26.2331
16.13	26.2154
16.148	26.1918
16.166	26.1622
16.184	26.1273
16.202	26.0877
16.22	26.046
16.238	26.0034
16.256	25.9616
16.274	25.9226
16.292	25.8873
16.31	25.8562
16.328	25.8298
16.346	25.808
16.364	25.7905
16.382	25.7773
16.4	25.7682
16.418	25.7633
16.436	25.7632
16.454	25.7688
16.472	25.7806
16.49	25.8
16.508	25.8275
16.526	25.8638
16.544	25.909
16.562	25.9623
16.58	26.0229
16.598	26.0885
16.616	26.1563
16.634	26.2242
16.652	26.2874
16.67	26.3432
16.688	26.3885
16.706	26.4192
16.724	26.4342
16.742	26.4314
16.76	26.4106
16.778	26.3722
16.796	26.3176
16.814	26.25
16.832	26.1714
16.85	26.0865
16.868	25.9989
16.886	25.9118
16.904	25.8299
16.922	25.755
16.94	25.6899
16.958	25.6359
16.976	25.5931
16.994	25.5614
17.012	25.5391
17.03	25.5251
17.048	25.5161
17.066	25.5105
17.084	25.5056
17.102	25.4989
17.12	25.4896
17.138	25.476
17.156	25.4583
17.174	25.4362
17.192	25.4114
17.21	25.3846
17.228	25.358
17.246	25.3335
17.264	25.3125
17.282	25.2974
17.3	25.2887
17.318	25.2879
17.336	25.2947
17.354	25.3091
17.372	25.3298
17.39	25.3559
17.408	25.3849
17.426	25.4148
17.444	25.4441
17.462	25.4692
17.48	25.4892
17.498	25.5012
17.516	25.5039
17.534	25.4963
17.552	25.477
17.57	25.4461
17.588	25.4034
17.606	25.3498
17.624	25.2859
17.642	25.2141
17.66	25.1351
17.678	25.0523
17.696	24.9668
17.714	24.8823
17.732	24.8008
17.75	24.7245
17.768	24.6566
17.786	24.5981
17.804	24.5517
17.822	24.5178
17.84	24.4979
17.858	24.4913
17.876	24.4982
17.894	24.5167
17.912	24.5464
17.93	24.5839
17.948	24.6283
17.966	24.6752
17.984	24.7235
18.002	24.769
18.02	24.8099
18.038	24.8439
18.056	24.869
18.074	24.8842
18.092	24.889
18.11	24.8835
18.128	24.8687
18.146	24.8454
18.164	24.8161
18.182	24.7822
18.2	24.7463
18.218	24.7107
18.236	24.6772
18.254	24.6483
18.272	24.6248
18.29	24.6084
18.308	24.5992
18.326	24.597
18.344	24.6016
18.362	24.6118
18.38	24.6269
18.398	24.6447
18.416	24.6642
18.434	24.6836
18.452	24.7013
18.47	24.7161
18.488	24.727
18.506	24.7334
18.524	24.7347
18.542	24.7308
18.56	24.7218
18.578	24.7077
18.596	24.689
18.614	24.6657
18.632	24.6382
18.65	24.6066
18.668	24.5713
18.686	24.5325
18.704	24.4905
18.722	24.4454
18.74	24.3982
18.758	24.3492
18.776	24.2997
18.794	24.2506
18.812	24.2038
18.83	24.1604
18.848	24.1233
18.866	24.0935
18.884	24.0735
18.902	24.0638
18.92	24.0663
18.938	24.0805
18.956	24.1071
18.974	24.1446
18.992	24.1921
19.01	24.2471
19.028	24.307
19.046	24.3692
19.064	24.4294
19.082	24.4856
19.1	24.5328
19.118	24.5698
19.136	24.5919
19.154	24.5991
19.172	24.5881
19.19	24.5598
19.208	24.5132
19.226	24.4494
19.244	24.3702
19.262	24.2765
19.28	24.1724
19.298	24.0582
19.316	23.9396
19.334	23.8167
19.352	23.6949
19.37	23.5741
19.388	23.4588
19.406	23.3488
19.424	23.2466
19.442	23.1523
19.46	23.0662
19.478	22.9886
19.496	22.9185
19.514	22.8558
19.532	22.7993
19.55	22.7484
19.568	22.7024
19.586	22.6607
19.604	22.6231
19.622	22.5887
19.64	22.5581
19.658	22.5316
19.676	22.5094
19.694	22.4927
19.712	22.4814
19.73	22.4776
19.748	22.4813
19.766	22.494
19.784	22.5159
19.802	22.5477
19.82	22.59
19.838	22.6423
19.856	22.7043
19.874	22.7757
19.892	22.8548
19.91	22.9418
19.928	23.0332
19.946	23.1297
19.964	23.2275
19.982	23.3266
20	23.424
20.018	23.5182
20.036	23.6083
20.054	23.6919
20.072	23.7692
20.09	23.8381
20.108	23.899
20.126	23.9506
20.144	23.993
20.162	24.0261
20.18	24.0494
20.198	24.0633
20.216	24.0678
20.234	24.0629
20.252	24.0487
20.27	24.0252
20.288	23.9925
20.306	23.9507
20.324	23.8997
20.342	23.8398
20.36	23.7711
20.378	23.6938
20.396	23.6081
20.414	23.5155
20.432	23.4156
20.45	23.3112
20.468	23.2026
20.486	23.0919
20.504	22.9826
20.522	22.8741
20.54	22.7724
20.558	22.6763
20.576	22.5907
20.594	22.5174
20.612	22.4573
20.63	22.4148
20.648	22.3889
20.666	22.3822
20.684	22.3951
20.702	22.4267
20.72	22.4775
20.738	22.5463
20.756	22.6299
20.774	22.7293
20.792	22.8382
20.81	22.9569
20.828	23.0815
20.846	23.2066
20.864	23.3334
20.882	23.454
20.9	23.5692
20.918	23.6751
20.936	23.768
20.954	23.8488
20.972	23.9138
20.99	23.9634
21.008	23.997
21.026	24.0138
21.044	24.0145
21.062	24.0002
21.08	23.9705
21.098	23.9277
21.116	23.872
21.134	23.8043
21.152	23.727
21.17	23.6394
21.188	23.5439
21.206	23.4407
21.224	23.3306
21.242	23.2152
21.26	23.094
21.278	22.9686
21.296	22.839
21.314	22.7059
21.332	22.5706
21.35	22.4326
21.368	22.2948
21.386	22.1571
21.404	22.0209
21.422	21.89
21.44	21.763
21.458	21.6443
21.476	21.5355
21.494	21.4367
21.512	21.353
21.53	21.2831
21.548	21.2301
21.566	21.1966
21.584	21.1815
21.602	21.1869
21.62	21.2135
21.638	21.2598
21.656	21.325
21.674	21.4096
21.692	21.5089
21.71	21.6231
21.728	21.7499
21.746	21.882
21.764	22.0221
21.782	22.1637
21.8	22.3018
21.818	22.4385
21.836	22.5654
21.854	22.6821
21.872	22.7876
21.89	22.8768
21.908	22.951
21.926	23.0088
21.944	23.0482
21.962	23.0703
21.98	23.0772
21.998	23.0676
22.016	23.0443
22.034	23.0123
22.052	22.9691
22.07	22.9204
22.088	22.8705
22.106	22.8173
22.124	22.7677
22.142	22.723
22.16	22.683
22.178	22.6525
22.196	22.6311
22.214	22.619
22.232	22.6179
22.25	22.6276
22.268	22.6462
22.286	22.6731
22.304	22.7085
22.322	22.7477
22.34	22.7911
22.358	22.8372
22.376	22.8798
22.394	22.9208
22.412	22.957
22.43	22.9833
22.448	23.0016
22.466	23.0093
22.484	23.0035
22.502	22.9855
22.52	22.9547
22.538	22.9102
22.556	22.8526
22.574	22.784
22.592	22.7038
22.61	22.6129
22.628	22.5151
22.646	22.4094
22.664	22.2974
22.682	22.1831
22.7	22.0651
22.718	21.9454
22.736	21.8265
22.754	21.7075
22.772	21.5896
22.79	21.4742
22.808	21.3607
22.826	21.2492
22.844	21.14
22.862	21.033
22.88	20.9263
22.898	20.8191
22.916	20.712
22.934	20.6027
22.952	20.4907
22.97	20.3763
22.988	20.2582
23.006	20.1352
23.024	20.0084
23.042	19.8791
23.06	19.7462
23.078	19.611
23.096	19.4779
23.114	19.3453
23.132	19.2151
23.15	19.0946
23.168	18.9824
23.186	18.88
23.204	18.7945
23.222	18.7244
23.24	18.6712
23.258	18.6416
23.276	18.635
23.294	18.6515
23.312	18.695
23.33	18.7658
23.348	18.8629
23.366	18.9865
23.384	19.1378
23.402	19.315
23.42	19.5144
23.438	19.738
23.456	19.9837
23.474	20.2432
23.492	20.5177
23.51	20.8064
23.528	21.0982
23.546	21.3921
23.564	21.6897
23.582	21.9785
23.6	22.2549
23.618	22.5229
23.636	22.7715
23.654	22.9954
23.672	23.1995
23.69	23.3758
23.708	23.5189
23.726	23.6326
23.744	23.7134
23.762	23.7573
23.78	23.7658
23.798	23.7398
23.816	23.6793
23.834	23.5824
23.852	23.4533
23.87	23.297
23.888	23.1117
23.906	22.8991
23.924	22.6647
23.942	22.4078
23.96	22.1285
23.978	21.8322
23.996	21.5197
24.014	21.1895
24.032	20.8479
24.05	20.4983
24.068	20.1366
24.086	19.7704
24.104	19.4061
24.122	19.0376
24.14	18.6729
24.158	18.323
24.176	17.9827
24.194	17.6559
24.212	17.355
24.23	17.0795
24.248	16.8271
24.266	16.6135
24.284	16.4474
24.302	16.3204
24.32	16.2415
24.338	16.2201
24.356	16.2534
24.374	16.3396
24.392	16.4789
24.41	16.6762
24.428	16.9261
24.446	17.217
24.464	17.549
24.482	17.9279
24.5	18.3284
24.518	18.7309
24.536	19.1541
24.554	19.5773
24.572	19.9712
24.59	20.344
24.608	20.6943
24.626	20.9967
24.644	21.239
24.662	21.4342
24.68	21.5705
24.698	21.6357
24.716	21.6322
24.734	21.5645
24.752	21.4352
24.77	21.2386
24.788	20.9778
24.806	20.6709
24.824	20.3276
24.842	19.9328
24.86	19.5091
24.878	19.0834
24.896	18.6433
24.914	18.1937
24.932	17.7644
24.95	17.3703
24.968	16.9935
24.986	16.6534
25.004	16.3712
25.022	16.1395
25.04	15.9586
25.058	15.8398
25.076	15.7904
25.094	15.8051
25.112	15.8807
25.13	16.0147
25.148	16.2132
25.166	16.4694
25.184	16.7707
25.202	17.114
25.22	17.5079
25.238	17.9349
25.256	18.3767
25.274	18.8409
25.292	19.326
25.31	19.8185
25.328	20.3093
25.346	20.805
25.364	21.305
25.382	21.8079
25.4	22.3119
25.418	22.8187
25.436	23.3314
25.454	23.8516
25.472	24.3763
25.49	24.909
25.508	25.4547
25.526	26.0103
25.544	26.5739
25.562	27.1592
25.58	27.7788
25.598	28.4219
25.616	29.0944
25.634	29.8129
25.652	30.5871
25.67	31.4048
25.688	32.2757
25.706	33.2118
25.724	34.2156
25.742	35.2813
25.76	36.411
25.778	37.6071
25.796	38.8753
25.814	40.2074
25.832	41.5911
25.85	43.0215
25.868	44.514
25.886	46.0464
25.904	47.5915
25.922	49.1474
25.94	50.729
25.958	52.3084
25.976	53.8574
25.994	55.3925
26.012	56.9118
26.03	58.383
26.048	59.7788
26.066	61.1251
26.084	62.4084
26.102	63.599
26.12	64.6795
26.138	65.6752
26.156	66.5663
26.174	67.3269
26.192	67.9476
26.21	68.4456
26.228	68.8089
26.246	69.0243
26.264	69.0902
26.282	69.0138
26.3	68.7919
26.318	68.4217
26.336	67.9029
26.354	67.238
26.372	66.4296
26.39	65.4793
26.408	64.3778
26.426	63.1349
26.444	61.7675
26.462	60.2883
26.48	58.6771
26.498	56.9506
26.516	55.1358
26.534	53.2493
26.552	51.2581
26.57	49.1931
26.588	47.0978
26.606	44.9936
26.624	42.8336
26.642	40.6637
26.66	38.542
26.678	36.4959
26.696	34.4712
26.714	32.5153
26.732	30.6861
26.75	29.0065
26.768	27.4235
26.786	25.9858
26.804	24.7501
26.822	23.746
26.84	22.9323
26.858	22.3249
26.876	21.9447
26.894	21.8076
26.912	21.9041
26.93	22.2203
26.948	22.7427
26.966	23.549
26.984	24.7733
27.002	26.0915
27.02	27.1508
27.028	27.4182