File: Bakgrunnsmateriale/MATLAB/FTIR/ftir_data/LPE454/Mapping_121/LPE454_t108.asc
PE IR       SPECTRUM    SPECTRUM    ASCII       PEDS        1.60
  -1
LP9318~1.ASC
17/05/19
23:13:01.00
17/05/19
23:13:27.00
tln
$LPE454_t0108$<tbV0>[-7.8,10.4,8.0,0.0,27,1,0]
27.028
64

2002,4.07
MIRTGS : RIGHTBACK : INTERNAL 2
MIR : ON : INTERNAL 2
OPTKBR

0.200000
8
8.000000
FILLER
RATIO
SPECTRUM
UNLOCKED 256

DOUBLE
64
COMBINED
1
0
0

0.002000
RATIO

1
0
TRUE
51149
0
LEFT NOT FITTED RIGHT NOT FITTED 0
NONE
NONE
15600
12
4.427000
51148
TRUE
1 0 8 72 0 0 0 0

15798

#HDR
-1
-1
#GR
µM
%T
2.38419e-05
0.0
2.000000
0.002000
12515
8
40.1328
-2.043300
#DATA
2.000000	 0.046753
2.018000	 0.234521
2.036000	 0.519360
2.054000	 -0.252929
2.072000	 -0.133773
2.090000	 0.290969
2.108000	 0.215924
2.126000	 0.582307
2.144000	 0.009631
2.162000	 -0.675838
2.180000	 -0.439125
2.198000	 0.811130
2.216000	 0.575083
2.234000	 0.235690
2.252000	 0.033113
2.270000	 0.115467
2.288000	 0.136454
2.306000	 0.294185
2.324000	 0.184800
2.342000	 -0.078538
2.360000	 0.132950
2.378000	 0.291251
2.396000	 -0.075800
2.414000	 -0.151723
2.432000	 0.411254
2.450000	 0.631655
2.468000	 0.598500
2.486000	 -0.166952
2.504000	 -0.352358
2.522000	 -0.007007
2.540000	 0.166421
2.558000	 0.018939
2.576000	 0.093251
2.594000	 0.172200
2.612000	 0.193968
2.630000	 -0.055566
2.648000	 0.073090
2.666000	 -0.013867
2.684000	 -0.044654
2.702000	 -0.026049
2.720000	 0.074689
2.738000	 -0.099316
2.756000	 0.126651
2.774000	 -0.077814
2.792000	 -0.028781
2.810000	 0.042243
2.828000	 -0.091333
2.846000	 0.028264
2.864000	 -0.178650
2.882000	 0.167408
2.900000	 0.087617
2.918000	 0.062165
2.936000	 -0.011191
2.954000	 0.078961
2.972000	 0.021079
2.990000	 -0.041664
3.008000	 0.066911
3.026000	 0.012479
3.044000	 -0.048660
3.062000	 -0.004846
3.080000	 -0.019626
3.098000	 -0.122422
3.116000	 -0.144454
3.134000	 0.050896
3.152000	 0.085192
3.170000	 0.103841
3.188000	 0.029779
3.206000	 0.229839
3.224000	 0.019519
3.242000	 0.130869
3.260000	 0.029405
3.278000	 -0.002353
3.296000	 -0.121783
3.314000	 0.026569
3.332000	 0.100148
3.350000	 0.023205
3.368000	 0.117140
3.386000	 -0.018788
3.404000	 0.003037
3.422000	 -0.057767
3.440000	 0.145140
3.458000	 -0.046413
3.476000	 0.006545
3.494000	 0.028898
3.512000	 0.024546
3.530000	 -0.000023
3.548000	 0.161903
3.566000	 -0.090664
3.584000	 0.025328
3.602000	 -0.032257
3.620000	 0.002150
3.638000	 0.003554
3.656000	 -0.037519
3.674000	 -0.066255
3.692000	 -0.046086
3.710000	 0.058053
3.728000	 0.040289
3.746000	 0.039738
3.764000	 0.024895
3.782000	 0.038825
3.800000	 0.076567
3.818000	 -0.024021
3.836000	 0.111889
3.854000	 -0.101577
3.872000	 -0.077034
3.890000	 0.052530
3.908000	 0.022043
3.926000	 -0.062237
3.944000	 0.006597
3.962000	 0.058196
3.980000	 0.066370
3.998000	 -0.122138
4.016000	 0.016834
4.034000	 0.014706
4.052000	 -0.000249
4.070000	 0.147222
4.088000	 0.097780
4.106000	 0.155372
4.124000	 -0.113683
4.141999	 -0.098250
4.160000	 0.012757
4.178000	 0.205438
4.196000	 0.250623
4.214000	 0.317651
4.232000	 0.415008
4.250000	 0.447061
4.268000	 0.494367
4.286000	 0.688915
4.304000	 0.857724
4.322000	 1.114116
4.340000	 1.288100
4.358000	 1.420010
4.375999	 1.833691
4.394000	 2.170769
4.412000	 2.420354
4.430000	 2.862693
4.448000	 3.474837
4.466000	 3.853645
4.484000	 4.499098
4.502000	 5.191844
4.520000	 5.870800
4.538000	 6.597615
4.556000	 7.325850
4.574000	 8.162397
4.592000	 9.017057
4.609999	 9.917440
4.628000	 10.7927
4.646000	 11.7215
4.664000	 12.8039
4.682000	 13.762
4.700000	 14.6398
4.718000	 15.3803
4.736000	 16.3187
4.754000	 17.2107
4.772000	 18.096
4.790000	 18.9252
4.808000	 19.7354
4.826000	 20.3632
4.843999	 21.0535
4.862000	 21.7734
4.880000	 22.3711
4.898000	 22.9951
4.916000	 23.4958
4.934000	 24.1037
4.952000	 24.8547
4.970000	 25.2344
4.988000	 25.557
5.006000	 25.8132
5.024000	 26.1511
5.042000	 26.539
5.060000	 27.0087
5.077999	 27.3885
5.096000	 27.6798
5.114000	 28.0378
5.132000	 28.231
5.150000	 28.422
5.168000	 28.4749
5.186000	 28.5869
5.204000	 28.7005
5.222000	 28.9889
5.240000	 29.289
5.258000	 29.5543
5.276000	 29.728
5.294000	 29.8052
5.312000	 29.8438
5.330000	 29.8209
5.348000	 29.7875
5.366000	 29.8844
5.384000	 29.9563
5.402000	 30.1062
5.420000	 30.2887
5.438000	 30.4627
5.456000	 30.6087
5.474000	 30.6764
5.492000	 30.681
5.510000	 30.6597
5.528000	 30.4886
5.546000	 30.3362
5.564000	 30.4269
5.582000	 30.5806
5.600000	 30.7229
5.618000	 30.8666
5.636000	 30.9926
5.654000	 31.1277
5.672000	 31.109
5.690000	 31.0396
5.708000	 30.9251
5.726000	 30.7786
5.744000	 30.6727
5.762000	 30.7379
5.780000	 30.8508
5.798000	 30.9358
5.816000	 30.9339
5.834000	 31.048
5.852000	 31.2474
5.870000	 31.3242
5.888000	 31.3368
5.906000	 31.2419
5.923999	 31.134
5.942000	 30.9925
5.960000	 30.8648
5.978000	 30.8003
5.996000	 30.7932
6.014000	 30.8114
6.032000	 30.8529
6.050000	 30.9991
6.068000	 31.1495
6.086000	 31.2348
6.104000	 31.336
6.122000	 31.3904
6.140000	 31.305
6.158000	 31.1724
6.176000	 30.9946
6.194000	 30.8037
6.212000	 30.7329
6.230000	 30.7197
6.248000	 30.7254
6.266000	 30.7847
6.284000	 30.8923
6.302000	 31.0425
6.320000	 31.1671
6.338000	 31.254
6.356000	 31.2718
6.374000	 31.2565
6.392000	 31.2452
6.410000	 31.1863
6.428000	 31.0698
6.446000	 30.9492
6.464000	 30.8051
6.482000	 30.6464
6.500000	 30.5744
6.518000	 30.6155
6.536000	 30.7159
6.554000	 30.8245
6.572000	 30.9148
6.590000	 31.0175
6.608000	 31.169
6.626000	 31.2917
6.644000	 31.2768
6.662000	 31.2104
6.680000	 31.1456
6.698000	 30.9998
6.716000	 30.8087
6.734000	 30.7023
6.752000	 30.6495
6.770000	 30.5184
6.788000	 30.4086
6.806000	 30.4639
6.824000	 30.5767
6.842000	 30.6607
6.860000	 30.7161
6.878000	 30.7539
6.896000	 30.8544
6.914000	 30.983
6.932000	 31.069
6.950000	 31.1136
6.968000	 31.0788
6.986000	 30.9719
7.004000	 30.882
7.022000	 30.8856
7.040000	 30.8812
7.058000	 30.7055
7.076000	 30.4616
7.094000	 30.3112
7.112000	 30.242
7.130000	 30.2638
7.148000	 30.3672
7.166000	 30.4573
7.184000	 30.5336
7.202000	 30.6491
7.220000	 30.7954
7.238000	 30.9475
7.256000	 31.062
7.274000	 31.0636
7.292000	 30.9507
7.310000	 30.8196
7.328000	 30.7379
7.346000	 30.6788
7.364000	 30.6008
7.382000	 30.5169
7.400000	 30.4442
7.418000	 30.3546
7.436000	 30.2329
7.454000	 30.1125
7.472000	 30.0431
7.490000	 30.0652
7.508000	 30.1765
7.526000	 30.3176
7.544000	 30.444
7.562000	 30.5736
7.580000	 30.7143
7.598000	 30.8133
7.616000	 30.836
7.634000	 30.8277
7.652000	 30.8353
7.670000	 30.841
7.688000	 30.8045
7.706000	 30.7156
7.724000	 30.6028
7.742000	 30.4996
7.760000	 30.4041
7.778000	 30.2998
7.796000	 30.1987
7.814000	 30.1171
7.832000	 30.0404
7.850000	 29.9658
7.868000	 29.9291
7.886000	 29.9521
7.904000	 30.0134
7.922000	 30.0905
7.940000	 30.1737
7.958000	 30.249
7.976000	 30.3154
7.994000	 30.3904
8.012000	 30.4757
8.030000	 30.5503
8.048000	 30.605
8.065999	 30.6431
8.084000	 30.6549
8.102000	 30.6207
8.120000	 30.534
8.138000	 30.4057
8.155999	 30.2561
8.173999	 30.111
8.192000	 29.996
8.210000	 29.9194
8.228000	 29.8592
8.246000	 29.7791
8.263999	 29.6722
8.282000	 29.5793
8.300000	 29.546
8.318000	 29.5712
8.336000	 29.6181
8.353999	 29.6662
8.372000	 29.7281
8.390000	 29.8195
8.408000	 29.9327
8.426000	 30.0429
8.443999	 30.1291
8.462000	 30.1888
8.480000	 30.2381
8.498000	 30.2969
8.516000	 30.3682
8.533999	 30.4275
8.552000	 30.4363
8.570000	 30.3729
8.588000	 30.2539
8.606000	 30.1234
8.624000	 30.0148
8.641999	 29.9292
8.660000	 29.8489
8.678000	 29.7633
8.696000	 29.6743
8.714000	 29.5798
8.731999	 29.468
8.750000	 29.3364
8.768000	 29.2074
8.786000	 29.1147
8.804000	 29.0765
8.821999	 29.0874
8.840000	 29.1334
8.858000	 29.2053
8.876000	 29.2959
8.894000	 29.3943
8.911999	 29.4892
8.930000	 29.5746
8.948000	 29.6502
8.966000	 29.7181
8.984000	 29.7791
9.001999	 29.8317
9.020000	 29.8742
9.038000	 29.9055
9.056000	 29.9246
9.074000	 29.9272
9.092000	 29.9059
9.109999	 29.8563
9.128000	 29.784
9.146000	 29.7029
9.164000	 29.6232
9.182000	 29.5439
9.199999	 29.4553
9.218000	 29.3518
9.236000	 29.2382
9.254000	 29.1233
9.272000	 29.0129
9.289999	 28.9089
9.308000	 28.819
9.326000	 28.7588
9.344000	 28.7438
9.362000	 28.7751
9.379999	 28.8387
9.398000	 28.9163
9.416000	 28.9999
9.434000	 29.0924
9.452000	 29.1975
9.469999	 29.3084
9.488000	 29.4082
9.506000	 29.4824
9.524000	 29.5292
9.542000	 29.5575
9.560000	 29.5772
9.577999	 29.5915
9.596000	 29.5986
9.614000	 29.5968
9.632000	 29.5866
9.650000	 29.57
9.667999	 29.5472
9.686000	 29.5155
9.704000	 29.4684
9.722000	 29.3983
9.740000	 29.3015
9.757999	 29.1843
9.776000	 29.0638
9.794000	 28.9585
9.812000	 28.8763
9.830000	 28.8086
9.847999	 28.7389
9.866000	 28.6581
9.884000	 28.5718
9.902000	 28.4941
9.920000	 28.4345
9.937999	 28.3924
9.956000	 28.3637
9.974000	 28.3504
9.992000	 28.361
10.01	28.402
10.028	28.4692
10.046	28.5497
10.064	28.631
10.082	28.7105
10.1	28.7924
10.118	28.879
10.136	28.965
10.154	29.0399
10.172	29.0954
10.19	29.1306
10.208	29.1505
10.226	29.1612
10.244	29.1653
10.262	29.1618
10.28	29.1483
10.298	29.1246
10.316	29.094
10.334	29.0635
10.352	29.0412
10.37	29.0301
10.388	29.0239
10.406	29.0072
10.424	28.9633
10.442	28.885
10.46	28.7788
10.478	28.6618
10.496	28.5511
10.514	28.4548
10.532	28.3706
10.55	28.2914
10.568	28.2126
10.586	28.134
10.604	28.0575
10.622	27.9836
10.64	27.9116
10.658	27.843
10.676	27.7832
10.694	27.7399
10.712	27.7195
10.73	27.7219
10.748	27.7417
10.766	27.7709
10.784	27.8046
10.802	27.8429
10.82	27.889
10.838	27.9451
10.856	28.0098
10.874	28.0783
10.892	28.1453
10.91	28.2072
10.928	28.263
10.946	28.3132
10.964	28.3579
10.982	28.3953
11	28.4229
11.018	28.4389
11.036	28.444
11.054	28.4419
11.072	28.4369
11.09	28.4324
11.108	28.4278
11.126	28.4188
11.144	28.3983
11.162	28.3583
11.18	28.2944
11.198	28.2064
11.216	28.0994
11.234	27.9817
11.252	27.8621
11.27	27.7468
11.288	27.6394
11.306	27.5399
11.324	27.4467
11.342	27.3581
11.36	27.2752
11.378	27.2021
11.396	27.1454
11.414	27.1114
11.432	27.1029
11.45	27.1176
11.468	27.1474
11.486	27.1819
11.504	27.2116
11.522	27.2295
11.54	27.2329
11.558	27.2234
11.576	27.2046
11.594	27.1812
11.612	27.1592
11.63	27.1445
11.648	27.1416
11.666	27.1543
11.684	27.1827
11.702	27.2232
11.72	27.2691
11.738	27.312
11.756	27.3452
11.774	27.365
11.792	27.373
11.81	27.3745
11.828	27.3764
11.846	27.3862
11.864	27.4079
11.882	27.442
11.9	27.4856
11.918	27.5336
11.936	27.58
11.954	27.6209
11.972	27.6539
11.99	27.6777
12.008	27.6924
12.026	27.6974
12.044	27.6912
12.062	27.671
12.08	27.6338
12.098	27.5776
12.116	27.5022
12.134	27.4105
12.152	27.3073
12.17	27.1984
12.188	27.0894
12.206	26.9844
12.224	26.8857
12.242	26.7944
12.26	26.711
12.278	26.6351
12.296	26.5659
12.314	26.502
12.332	26.441
12.35	26.3806
12.368	26.3187
12.386	26.2544
12.404	26.188
12.422	26.1215
12.44	26.0575
12.458	25.9995
12.476	25.9505
12.494	25.9131
12.512	25.8891
12.53	25.879
12.548	25.8825
12.566	25.8984
12.584	25.9251
12.602	25.9604
12.62	26.0022
12.638	26.0483
12.656	26.0969
12.674	26.1461
12.692	26.195
12.71	26.243
12.728	26.2897
12.746	26.3355
12.764	26.3811
12.782	26.4274
12.8	26.4758
12.818	26.5272
12.836	26.5822
12.854	26.6402
12.872	26.6997
12.89	26.7576
12.908	26.8103
12.926	26.8533
12.944	26.8825
12.962	26.895
12.98	26.8896
12.998	26.8671
13.016	26.8299
13.034	26.7818
13.052	26.727
13.07	26.6691
13.088	26.611
13.106	26.5542
13.124	26.4994
13.142	26.4454
13.16	26.3911
13.178	26.3345
13.196	26.2738
13.214	26.2072
13.232	26.1344
13.25	26.0554
13.268	25.9714
13.286	25.8841
13.304	25.7958
13.322	25.7084
13.34	25.6238
13.358	25.5429
13.376	25.4658
13.394	25.392
13.412	25.3204
13.43	25.2501
13.448	25.1809
13.466	25.1132
13.484	25.0491
13.502	24.9915
13.52	24.9443
13.538	24.9112
13.556	24.8951
13.574	24.8974
13.592	24.9173
13.61	24.952
13.628	24.9964
13.646	25.0437
13.664	25.0869
13.682	25.1199
13.7	25.1389
13.718	25.1423
13.736	25.1319
13.754	25.1121
13.772	25.0896
13.79	25.0714
13.808	25.0639
13.826	25.0719
13.844	25.0977
13.862	25.1413
13.88	25.2
13.898	25.2694
13.916	25.3442
13.934	25.4184
13.952	25.4863
13.97	25.5428
13.988	25.5841
14.006	25.6078
14.024	25.6131
14.042	25.6013
14.06	25.5755
14.078	25.5411
14.096	25.5046
14.114	25.4735
14.132	25.4547
14.15	25.4538
14.168	25.4743
14.186	25.5164
14.204	25.577
14.222	25.6496
14.24	25.7261
14.258	25.7977
14.276	25.8564
14.294	25.8954
14.312	25.9107
14.33	25.9011
14.348	25.8677
14.366	25.8139
14.384	25.7442
14.402	25.6632
14.42	25.5754
14.438	25.4842
14.456	25.3922
14.474	25.3015
14.492	25.2135
14.51	25.1295
14.528	25.0506
14.546	24.978
14.564	24.9128
14.582	24.8556
14.6	24.8065
14.618	24.7649
14.636	24.7296
14.654	24.6987
14.672	24.6704
14.69	24.6425
14.708	24.6133
14.726	24.5809
14.744	24.5439
14.762	24.5015
14.78	24.4535
14.798	24.4001
14.816	24.3417
14.834	24.2793
14.852	24.2142
14.87	24.1482
14.888	24.0828
14.906	24.0199
14.924	23.961
14.942	23.9078
14.96	23.8613
14.978	23.8219
14.996	23.7901
15.014	23.7656
15.032	23.7478
15.05	23.7362
15.068	23.73
15.086	23.7286
15.104	23.7318
15.122	23.7394
15.14	23.7513
15.158	23.7673
15.176	23.787
15.194	23.8101
15.212	23.8361
15.23	23.8646
15.248	23.8952
15.266	23.9278
15.284	23.9627
15.302	24.0002
15.32	24.0407
15.338	24.0846
15.356	24.1319
15.374	24.1821
15.392	24.234
15.41	24.2862
15.428	24.337
15.446	24.3839
15.464	24.4251
15.482	24.459
15.5	24.484
15.518	24.4999
15.536	24.507
15.554	24.5058
15.572	24.498
15.59	24.4849
15.608	24.4677
15.626	24.4472
15.644	24.4239
15.662	24.3977
15.68	24.3684
15.698	24.3359
15.716	24.3003
15.734	24.2624
15.752	24.2232
15.77	24.1839
15.788	24.1468
15.806	24.1138
15.824	24.086
15.842	24.0651
15.86	24.0511
15.878	24.0432
15.896	24.0405
15.914	24.0403
15.932	24.0399
15.95	24.0371
15.968	24.0287
15.986	24.0122
16.004	23.9862
16.022	23.9495
16.04	23.9014
16.058	23.8425
16.076	23.7734
16.094	23.6951
16.112	23.6095
16.13	23.518
16.148	23.4223
16.166	23.3247
16.184	23.2272
16.202	23.1319
16.22	23.0415
16.238	22.9577
16.256	22.8827
16.274	22.8179
16.292	22.7633
16.31	22.7189
16.328	22.683
16.346	22.6529
16.364	22.6263
16.382	22.5989
16.4	22.5676
16.418	22.53
16.436	22.4835
16.454	22.428
16.472	22.3637
16.49	22.2934
16.508	22.2211
16.526	22.1497
16.544	22.086
16.562	22.0343
16.58	21.9982
16.598	21.982
16.616	21.9863
16.634	22.0117
16.652	22.0558
16.67	22.1151
16.688	22.1863
16.706	22.2624
16.724	22.3397
16.742	22.413
16.76	22.4774
16.778	22.5313
16.796	22.5722
16.814	22.6003
16.832	22.6159
16.85	22.6215
16.868	22.6193
16.886	22.6113
16.904	22.6018
16.922	22.5925
16.94	22.586
16.958	22.5846
16.976	22.5891
16.994	22.6007
17.012	22.6191
17.03	22.6442
17.048	22.6749
17.066	22.7103
17.084	22.7489
17.102	22.7888
17.12	22.8291
17.138	22.8675
17.156	22.903
17.174	22.9343
17.192	22.9603
17.21	22.9807
17.228	22.9952
17.246	23.004
17.264	23.0075
17.282	23.0065
17.3	23.0016
17.318	22.9941
17.336	22.9849
17.354	22.9746
17.372	22.964
17.39	22.9532
17.408	22.9422
17.426	22.9304
17.444	22.9177
17.462	22.903
17.48	22.8858
17.498	22.8656
17.516	22.8421
17.534	22.815
17.552	22.7855
17.57	22.7538
17.588	22.7213
17.606	22.689
17.624	22.6585
17.642	22.6306
17.66	22.606
17.678	22.5849
17.696	22.5671
17.714	22.5514
17.732	22.5362
17.75	22.5198
17.768	22.499
17.786	22.4727
17.804	22.4372
17.822	22.3919
17.84	22.3345
17.858	22.2653
17.876	22.1836
17.894	22.0919
17.912	21.9907
17.93	21.8855
17.948	21.7774
17.966	21.6733
17.984	21.5751
18.002	21.4888
18.02	21.4166
18.038	21.362
18.056	21.3265
18.074	21.311
18.092	21.3149
18.11	21.3379
18.128	21.3766
18.146	21.4297
18.164	21.4923
18.182	21.5615
18.2	21.6331
18.218	21.7031
18.236	21.769
18.254	21.8272
18.272	21.8768
18.29	21.9155
18.308	21.9432
18.326	21.9599
18.344	21.9661
18.362	21.9637
18.38	21.9538
18.398	21.9391
18.416	21.9208
18.434	21.9011
18.452	21.8814
18.47	21.863
18.488	21.8468
18.506	21.8331
18.524	21.8223
18.542	21.8145
18.56	21.8093
18.578	21.8065
18.596	21.8066
18.614	21.8094
18.632	21.8162
18.65	21.827
18.668	21.8445
18.686	21.869
18.704	21.9041
18.722	21.95
18.74	22.0101
18.758	22.0844
18.776	22.1754
18.794	22.2821
18.812	22.4045
18.83	22.5403
18.848	22.6871
18.866	22.8413
18.884	22.9973
18.902	23.1507
18.92	23.2944
18.938	23.4241
18.956	23.5316
18.974	23.614
18.992	23.6641
19.01	23.6811
19.028	23.6604
19.046	23.6033
19.064	23.5087
19.082	23.3803
19.1	23.2212
19.118	23.0359
19.136	22.8316
19.154	22.612
19.172	22.3869
19.19	22.1583
19.208	21.9364
19.226	21.7215
19.244	21.5218
19.262	21.3366
19.28	21.1701
19.298	21.0215
19.316	20.8908
19.334	20.7776
19.352	20.6785
19.37	20.5937
19.388	20.5182
19.406	20.4522
19.424	20.392
19.442	20.3371
19.46	20.2864
19.478	20.239
19.496	20.1961
19.514	20.1574
19.532	20.1246
19.55	20.0983
19.568	20.0796
19.586	20.0701
19.604	20.0694
19.622	20.0784
19.64	20.0961
19.658	20.1213
19.676	20.1534
19.694	20.1872
19.712	20.2235
19.73	20.255
19.748	20.2823
19.766	20.2988
19.784	20.3034
19.802	20.2929
19.82	20.2645
19.838	20.2186
19.856	20.1533
19.874	20.0699
19.892	19.9703
19.91	19.8546
19.928	19.7294
19.946	19.5936
19.964	19.4557
19.982	19.3158
20	19.1804
20.018	19.0526
20.036	18.9349
20.054	18.8331
20.072	18.7466
20.09	18.68
20.108	18.6328
20.126	18.6058
20.144	18.5995
20.162	18.6112
20.18	18.6408
20.198	18.6854
20.216	18.7415
20.234	18.8089
20.252	18.8809
20.27	18.9586
20.288	19.0354
20.306	19.1111
20.324	19.1825
20.342	19.2469
20.36	19.3044
20.378	19.352
20.396	19.3903
20.414	19.4189
20.432	19.4375
20.45	19.4477
20.468	19.4496
20.486	19.4445
20.504	19.4348
20.522	19.42
20.54	19.4029
20.558	19.383
20.576	19.3621
20.594	19.3407
20.612	19.319
20.63	19.2976
20.648	19.2764
20.666	19.2554
20.684	19.2346
20.702	19.2138
20.72	19.193
20.738	19.1722
20.756	19.1514
20.774	19.1304
20.792	19.1103
20.81	19.091
20.828	19.0733
20.846	19.0582
20.864	19.0455
20.882	19.0372
20.9	19.0331
20.918	19.0342
20.936	19.0414
20.954	19.0543
20.972	19.0736
20.99	19.0995
21.008	19.1307
21.026	19.1674
21.044	19.2087
21.062	19.2517
21.08	19.2976
21.098	19.3424
21.116	19.3857
21.134	19.4261
21.152	19.4601
21.17	19.4887
21.188	19.5081
21.206	19.5177
21.224	19.517
21.242	19.5034
21.26	19.4775
21.278	19.439
21.296	19.3871
21.314	19.323
21.332	19.2478
21.35	19.161
21.368	19.0658
21.386	18.9625
21.404	18.8524
21.422	18.7396
21.44	18.6227
21.458	18.5059
21.476	18.3908
21.494	18.2775
21.512	18.1702
21.53	18.0678
21.548	17.9728
21.566	17.8873
21.584	17.8105
21.602	17.7442
21.62	17.6886
21.638	17.6433
21.656	17.6088
21.674	17.5849
21.692	17.5699
21.71	17.5638
21.728	17.5659
21.746	17.5736
21.764	17.588
21.782	17.6062
21.8	17.6266
21.818	17.6497
21.836	17.6715
21.854	17.6919
21.872	17.7101
21.89	17.7229
21.908	17.7314
21.926	17.7338
21.944	17.7286
21.962	17.7167
21.98	17.6975
21.998	17.6707
22.016	17.637
22.034	17.5969
22.052	17.5498
22.07	17.4979
22.088	17.4429
22.106	17.3838
22.124	17.3246
22.142	17.2651
22.16	17.2062
22.178	17.1525
22.196	17.1027
22.214	17.0593
22.232	17.0255
22.25	16.9999
22.268	16.9855
22.286	16.9844
22.304	16.9954
22.322	17.021
22.34	17.0616
22.358	17.1168
22.376	17.1873
22.394	17.2736
22.412	17.3743
22.43	17.4885
22.448	17.6171
22.466	17.7573
22.484	17.9072
22.502	18.0682
22.52	18.2353
22.538	18.4073
22.556	18.5847
22.574	18.7608
22.592	18.936
22.61	19.1089
22.628	19.2725
22.646	19.4282
22.664	19.5738
22.682	19.703
22.7	19.8181
22.718	19.9163
22.736	19.9932
22.754	20.0508
22.772	20.087
22.79	20.0995
22.808	20.0894
22.826	20.0564
22.844	19.9997
22.862	19.9196
22.88	19.8189
22.898	19.6979
22.916	19.5563
22.934	19.3989
22.952	19.2262
22.97	19.038
22.988	18.8415
23.006	18.6373
23.024	18.4252
23.042	18.2124
23.06	17.999
23.078	17.785
23.096	17.5761
23.114	17.3724
23.132	17.1737
23.15	16.9834
23.168	16.8015
23.186	16.6279
23.204	16.4643
23.222	16.3111
23.24	16.1677
23.258	16.0338
23.276	15.9102
23.294	15.7959
23.312	15.6892
23.33	15.5904
23.348	15.4991
23.366	15.4135
23.384	15.3338
23.402	15.2598
23.42	15.1907
23.438	15.126
23.456	15.0661
23.474	15.0114
23.492	14.9616
23.51	14.917
23.528	14.8786
23.546	14.8466
23.564	14.8206
23.582	14.8027
23.6	14.7934
23.618	14.7921
23.636	14.7999
23.654	14.8177
23.672	14.8448
23.69	14.8813
23.708	14.9275
23.726	14.9835
23.744	15.0477
23.762	15.1185
23.78	15.1979
23.798	15.2824
23.816	15.3689
23.834	15.4601
23.852	15.5523
23.87	15.6404
23.888	15.7268
23.906	15.8093
23.924	15.8815
23.942	15.9442
23.96	15.9975
23.978	16.0353
23.996	16.0559
24.014	16.0615
24.032	16.0475
24.05	16.0105
24.068	15.9533
24.086	15.8734
24.104	15.7687
24.122	15.64
24.14	15.4874
24.158	15.3107
24.176	15.1086
24.194	14.8831
24.212	14.6373
24.23	14.3706
24.248	14.083
24.266	13.7796
24.284	13.4625
24.302	13.1282
24.32	12.7845
24.338	12.4382
24.356	12.0834
24.374	11.7266
24.392	11.3779
24.41	11.0335
24.428	10.6952
24.446	10.3749
24.464	10.0765
24.482	9.794098
24.5	9.538633
24.518	9.319049
24.536	9.128122
24.554	8.972134
24.572	8.860685
24.59	8.792336
24.608	8.765975
24.626	8.786552
24.644	8.856953
24.662	8.974623
24.68	9.139434
24.698	9.351688
24.716	9.612812
24.734	9.919640
24.752	10.268
24.77	10.6602
24.788	11.0954
24.806	11.5643
24.824	12.0615
24.842	12.595
24.86	13.1529
24.878	13.721
24.896	14.3059
24.914	14.9049
24.932	15.5017
24.95	16.0891
24.968	16.6775
24.986	17.2523
25.004	17.798
25.022	18.3215
25.04	18.8207
25.058	19.2839
25.076	19.7051
25.094	20.091
25.112	20.4372
25.13	20.7391
25.148	20.9967
25.166	21.2124
25.184	21.388
25.202	21.523
25.22	21.6156
25.238	21.6729
25.256	21.7022
25.274	21.6985
25.292	21.6648
25.31	21.6105
25.328	21.5406
25.346	21.4484
25.364	21.3414
25.382	21.2281
25.4	21.1072
25.418	20.9772
25.436	20.8435
25.454	20.7104
25.472	20.5755
25.49	20.4388
25.508	20.3012
25.526	20.163
25.544	20.0235
25.562	19.8838
25.58	19.7445
25.598	19.605
25.616	19.4657
25.634	19.3278
25.652	19.192
25.67	19.0575
25.688	18.9251
25.706	18.7956
25.724	18.6693
25.742	18.5457
25.76	18.4254
25.778	18.3088
25.796	18.1964
25.814	18.0874
25.832	17.9809
25.85	17.8764
25.868	17.7748
25.886	17.6751
25.904	17.5758
25.922	17.4783
25.94	17.3837
25.958	17.286
25.976	17.1797
25.994	17.0664
26.012	16.947
26.03	16.818
26.048	16.6761
26.066	16.5226
26.084	16.3583
26.102	16.1829
26.12	15.9949
26.138	15.7915
26.156	15.5796
26.174	15.3672
26.192	15.1535
26.21	14.9318
26.228	14.7173
26.246	14.5255
26.264	14.3517
26.282	14.1903
26.3	14.0619
26.318	13.9861
26.336	13.9513
26.354	13.9577
26.372	14.0257
26.39	14.1741
26.408	14.3911
26.426	14.6778
26.444	15.0458
26.462	15.5054
26.48	16.0505
26.498	16.68
26.516	17.3957
26.534	18.2014
26.552	19.1034
26.57	20.0881
26.588	21.1394
26.606	22.2511
26.624	23.4462
26.642	24.6961
26.66	25.9665
26.678	27.243
26.696	28.5608
26.714	29.8833
26.732	31.1674
26.75	32.3956
26.768	33.6075
26.786	34.7661
26.804	35.8284
26.822	36.7753
26.84	37.6421
26.858	38.4038
26.876	39.031
26.894	39.5072
26.912	39.8533
26.93	40.0643
26.948	40.1328
26.966	40.0132
26.984	39.6503
27.002	39.1986
27.02	38.8253
27.028	38.7368