File: Bakgrunnsmateriale/MATLAB/FTIR/ftir_data/LPE454/Mapping_121/LPE454_t108_cm-1.asc
PE IR       SPECTRUM    SPECTRUM    ASCII       PEDS        1.60
  -1
LP0BDC~1.ASC
17/05/19
23:13:01.00
17/05/19
23:13:01.00
tln
$LPE454_t0108$<tbV0>[-7.8,10.4,8.0,0.0,27,1,0]
370
64

2002,4.07
MIRTGS : RIGHTBACK : INTERNAL 2
MIR : ON : INTERNAL 2
OPTKBR

0.200000
8
8.000000
FILLER
RATIO
SPECTRUM
UNLOCKED 256

DOUBLE
64
COMBINED
1
0
0

1.000000
RATIO

1
0
TRUE
51149
0
LEFT NOT FITTED RIGHT NOT FITTED 0
NONE
NONE
15600
12
4.427000
51148
TRUE
1 0 8 72 0 0 0 0

15798

#HDR
-1
-1
#GR
CM-1
%T
2.38419e-05
0.0
5000
-1.000000
4631
8
40.1222
-2.060389
#DATA
5000	0.046753
4996	0.181031
4992	0.213170
4988	0.037837
4984	-0.130867
4980	-0.242805
4976	-0.219726
4972	0.015687
4968	0.289773
4964	0.418686
4960	0.308895
4956	0.226521
4952	0.312018
4948	0.199365
4944	-0.061154
4940	-0.060200
4936	-0.027370
4932	-0.105977
4928	-0.007510
4924	0.031018
4920	0.026607
4916	0.314569
4912	0.517797
4908	0.454807
4904	0.334453
4900	0.131082
4896	0.132083
4892	0.252032
4888	-0.026988
4884	-0.454616
4880	-0.479865
4876	-0.278496
4872	-0.257658
4868	-0.238943
4864	-0.059700
4860	0.037121
4856	0.017046
4852	0.134849
4848	0.273036
4844	0.274968
4840	0.190782
4836	-0.046706
4832	-0.259256
4828	-0.230216
4824	0.067782
4820	0.510263
4816	0.622487
4812	0.323128
4808	0.143480
4804	0.164151
4800	0.133204
4796	0.194668
4792	0.327730
4788	0.325083
4784	0.287532
4780	0.278544
4776	0.297927
4772	0.335144
4768	0.234651
4764	0.129699
4760	0.200533
4756	0.266575
4752	0.224208
4748	0.152754
4744	0.210499
4740	0.335431
4736	0.329160
4732	0.229883
4728	0.213980
4724	0.293397
4720	0.182962
4716	-0.085282
4712	-0.085926
4708	0.226068
4704	0.562047
4700	0.671362
4696	0.457477
4692	0.153517
4688	0.154137
4684	0.439906
4680	0.678348
4676	0.607776
4672	0.182294
4668	-0.105786
4664	0.015735
4660	-0.042867
4656	-0.235295
4652	-0.005722
4648	0.347304
4644	0.393271
4640	0.337409
4636	0.263237
4632	-0.020670
4628	-0.376534
4624	-0.826072
4620	-0.963521
4616	-0.563406
4612	-0.236487
4608	-0.414180
4604	-0.866127
4600	-1.556587
4596	-2.060389
4592	-1.475358
4588	-0.774478
4584	1.913475
4580	4.030609
4576	3.164768
4572	2.464151
4568	2.345871
4564	2.097463
4560	1.791167
4556	1.270747
4552	0.803112
4548	0.920605
4544	1.251292
4540	1.354289
4536	1.189255
4532	0.775933
4528	0.451135
4524	0.541234
4520	0.766730
4516	0.713706
4512	0.549912
4508	0.368595
4504	0.158524
4500	0.065827
4496	0.178623
4492	0.381588
4488	0.407075
4484	0.348186
4480	0.348472
4476	0.220131
4472	-0.027704
4468	-0.083541
4464	0.017166
4460	0.050449
4456	0.051021
4452	0.094652
4448	0.150299
4444	0.088906
4440	0.035095
4436	0.112152
4432	0.075531
4428	-0.115942
4424	-0.167989
4420	-0.150871
4416	-0.157999
4412	0.005602
4408	0.140428
4404	0.098991
4400	0.132369
4396	0.199222
4392	0.211524
4388	0.210523
4384	0.086665
4380	-0.052952
4376	-0.029969
4372	0.085020
4368	0.235867
4364	0.303363
4360	0.304222
4356	0.343656
4352	0.234651
4348	0.033497
4344	0.062823
4340	0.227594
4336	0.299239
4332	0.320029
4328	0.243520
4324	0.180053
4320	0.236439
4316	0.186729
4312	0.139212
4308	0.181293
4304	0.184154
4300	0.197696
4296	0.177383
4292	0.102162
4288	0.063920
4284	-0.015735
4280	-0.231623
4276	-0.372672
4272	-0.213646
4268	-0.001144
4264	-0.002694
4260	0.003886
4256	0.126481
4252	0.220394
4248	0.268816
4244	0.256061
4240	0.200867
4236	0.093364
4232	0.022935
4228	0.107884
4224	0.162935
4220	0.080800
4216	0.055599
4212	0.114512
4208	0.196838
4204	0.329065
4200	0.358939
4196	0.264239
4192	0.147914
4188	0.072503
4184	0.113272
4180	0.164365
4176	0.028014
4172	-0.115537
4168	-0.094699
4164	0.072216
4160	0.297117
4156	0.242662
4152	-0.003743
4148	-0.148606
4144	-0.171947
4140	-0.116753
4136	-0.136017
4132	-0.078248
4128	0.149750
4124	0.377893
4120	0.533342
4116	0.478506
4112	0.409650
4108	0.525593
4104	0.520229
4100	0.226092
4096	0.438499
4092	1.534819
4088	1.921105
4084	1.093482
4080	0.442981
4076	0.122356
4072	-0.364732
4068	-0.791311
4064	-0.978040
4060	-0.627422
4056	0.164723
4052	0.595617
4048	0.491046
4044	0.307750
4040	0.108981
4036	0.064229
4032	0.181150
4028	0.076794
4024	-0.135493
4020	-0.129222
4016	0.090932
4012	0.269293
4008	0.208187
4004	-0.103020
4000	-0.310707
3996	-0.371265
3992	-0.302624
3988	-0.118827
3984	-0.054121
3980	-0.030732
3976	0.088810
3972	0.142288
3968	0.064086
3964	-0.024628
3960	-0.026059
3956	0.001859
3952	-0.035095
3948	-0.077152
3944	0.004649
3940	0.143384
3936	0.155448
3932	0.070762
3928	-0.032019
3924	-0.085735
3920	-0.003671
3916	0.048494
3912	0.008368
3908	0.043463
3904	0.141882
3900	0.161266
3896	0.091648
3892	0.026440
3888	0.021266
3884	0.062870
3880	0.124907
3876	0.157022
3872	0.111913
3868	0.086879
3864	0.137233
3860	0.175619
3856	0.178003
3852	0.132107
3848	0.059080
3844	0.018525
3840	-0.012540
3836	-0.014877
3832	0.086593
3828	0.203919
3824	0.218439
3820	0.108098
3816	-0.064635
3812	-0.155234
3808	-0.126361
3804	-0.070905
3800	-0.039863
3796	0.007176
3792	0.085878
3788	0.134491
3784	0.137996
3780	0.102162
3776	0.072121
3772	0.086331
3768	0.080728
3764	-0.001215
3760	-0.105428
3756	-0.129556
3752	-0.043606
3748	0.055646
3744	0.120854
3740	0.161814
3736	0.116133
3732	0.008869
3728	-0.047087
3724	-0.033521
3720	-0.003266
3716	0.007748
3712	-0.004744
3708	-0.020289
3704	-0.046229
3700	-0.006961
3696	0.091648
3692	0.104451
3688	0.024747
3684	-0.003075
3680	0.041222
3676	0.076460
3672	0.055122
3668	0.001382
3664	0.012135
3660	0.039339
3656	-0.027036
3652	-0.101208
3648	-0.043249
3644	0.100827
3640	0.174999
3636	0.223660
3632	0.246524
3628	0.107383
3624	0.000143
3620	0.004649
3616	-0.034809
3612	-0.118422
3608	-0.134873
3604	-0.054359
3600	0.067758
3596	0.174665
3592	0.102519
3588	-0.051355
3584	-0.057721
3580	-0.016617
3576	-0.003504
3572	0.025868
3568	0.022244
3564	0.006842
3560	0.027084
3556	0.108432
3552	0.273895
3548	0.336885
3544	0.247836
3540	0.097870
3536	-0.094509
3532	-0.224375
3528	-0.169992
3524	-0.021982
3520	0.036883
3516	0.030708
3512	0.027441
3508	0.031495
3504	0.048613
3500	0.029277
3496	-0.092291
3492	-0.180053
3488	-0.082421
3484	0.067281
3480	0.132083
3476	0.152659
3472	0.175404
3468	0.137019
3464	0.018405
3460	-0.038957
3456	0.000309
3452	0.037050
3448	0.092196
3444	0.138497
3440	0.132513
3436	0.104713
3432	0.058436
3428	0.057840
3424	0.052952
3420	-0.010037
3416	-0.022506
3412	0.001525
3408	-0.018882
3404	0.025224
3400	0.095176
3396	0.025606
3392	-0.062537
3388	-0.023698
3384	0.129032
3380	0.187778
3376	0.066280
3372	-0.019526
3368	-0.011205
3364	0.027990
3360	0.037932
3356	0.015616
3352	-0.003862
3348	-0.029230
3344	-0.042843
3340	-0.052714
3336	-0.031733
3332	0.037550
3328	0.091552
3324	0.057554
3320	-0.048065
3316	-0.090909
3312	-0.031852
3308	0.012016
3304	0.013232
3300	0.044703
3296	0.079751
3292	0.041627
3288	-0.032186
3284	-0.043725
3280	-0.008344
3276	-0.007057
3272	-0.050830
3268	-0.044393
3264	0.036025
3260	0.097608
3256	0.073909
3252	-0.002002
3248	-0.021910
3244	-0.020956
3240	-0.031852
3236	-0.048065
3232	-0.112318
3228	-0.124168
3224	-0.016450
3220	0.056815
3216	0.036478
3212	-0.068545
3208	-0.155138
3204	-0.079512
3200	0.003051
3196	0.017499
3192	0.042033
3188	0.064229
3184	0.077724
3180	0.108575
3176	0.105667
3172	0.084614
3168	0.101685
3164	0.098466
3160	0.096392
3156	0.109839
3152	0.073909
3148	0.014495
3144	-0.009202
3140	0.003051
3136	0.039362
3132	0.105810
3128	0.158786
3124	0.201606
3120	0.234150
3116	0.164127
3112	0.041460
3108	0.010633
3104	0.025749
3100	0.015497
3096	0.041222
3092	0.083494
3088	0.118398
3084	0.130033
3080	0.125980
3076	0.143909
3072	0.094866
3068	0.030636
3064	0.060081
3060	0.086188
3056	0.031423
3052	-0.005960
3048	0.009369
3044	-0.009131
3040	-0.065851
3036	-0.124239
3032	-0.086092
3028	0.018215
3024	0.038218
3020	0.021171
3016	0.030517
3012	0.008797
3008	-0.034642
3004	0.012302
3000	0.136780
2996	0.181555
2992	0.102210
2988	0.045561
2984	0.005054
2980	-0.094747
2976	-0.086045
2972	0.045490
2968	0.131058
2964	0.117564
2960	0.047135
2956	-0.004482
2952	-0.020194
2948	0.008726
2944	0.054097
2940	0.031685
2936	-0.011420
2932	-0.014853
2928	-0.016212
2924	-0.046205
2920	-0.053977
2916	0.012516
2912	0.093388
2908	0.142741
2904	0.118875
2900	0.034713
2896	-0.014495
2892	-0.044608
2888	-0.078511
2884	-0.015068
2880	0.033497
2876	0.001835
2872	0.043344
2868	0.089001
2864	0.053381
2860	0.010347
2856	0.005960
2852	0.015687
2848	0.022339
2844	0.043272
2840	0.059795
2836	0.029635
2832	-0.003862
2828	0.019645
2824	0.116729
2820	0.175380
2816	0.106048
2812	-0.000476
2808	-0.072908
2804	-0.089430
2800	-0.044345
2796	-0.011873
2792	0.007462
2788	0.045919
2784	0.041103
2780	-0.003504
2776	-0.033545
2772	-0.049209
2768	-0.043725
2764	-0.011682
2760	0.015020
2756	0.005722
2752	-0.004625
2748	0.006961
2744	0.028395
2740	0.021290
2736	-0.029206
2732	-0.052022
2728	-0.051927
2724	-0.062799
2720	-0.066971
2716	-0.072097
2712	-0.076723
2708	-0.036907
2704	0.043535
2700	0.088095
2696	0.064969
2692	0.011730
2688	-0.022697
2684	0.013494
2680	0.068545
2676	0.049400
2672	0.017523
2668	0.067710
2664	0.129437
2660	0.090718
2656	0.014781
2652	0.009608
2648	0.023484
2644	0.039863
2640	0.096702
2636	0.112748
2632	0.079727
2628	0.058245
2624	0.033950
2620	-0.013685
2616	-0.045204
2612	0.001120
2608	0.093507
2604	0.118684
2600	0.026774
2596	-0.083780
2592	-0.108003
2588	-0.092720
2584	-0.084710
2580	-0.047254
2576	0.017642
2572	0.051593
2568	0.049257
2564	0.050544
2560	0.034761
2556	-0.018644
2552	-0.059151
2548	-0.063467
2544	-0.054001
2540	-0.028967
2536	0.002956
2532	0.032234
2528	0.061821
2524	0.058341
2520	0.030970
2516	0.045633
2512	0.066566
2508	0.029325
2504	-0.067663
2500	-0.125527
2496	-0.035381
2492	0.038003
2488	-0.023722
2484	-0.047659
2480	0.004887
2476	0.024056
2472	0.029134
2468	0.000882
2464	-0.029182
2460	0.072860
2456	0.151705
2452	0.096678
2448	0.080800
2444	0.116682
2440	0.133275
2436	0.154662
2432	0.110244
2428	-0.039291
2424	-0.116682
2420	-0.091719
2416	-0.104308
2412	-0.051569
2408	0.047302
2404	0.015234
2400	0.003743
2396	0.126981
2392	0.236177
2388	0.267791
2384	0.256609
2380	0.223231
2376	0.241780
2372	0.349664
2368	0.434923
2364	0.425314
2360	0.395774
2356	0.415349
2352	0.455212
2348	0.472855
2344	0.485038
2340	0.548911
2336	0.644779
2332	0.701689
2328	0.751209
2324	0.840735
2320	0.970625
2316	1.079249
2312	1.137089
2308	1.208496
2304	1.290941
2300	1.359438
2296	1.404571
2292	1.474785
2288	1.662015
2284	1.900672
2280	2.065467
2276	2.166962
2272	2.255725
2268	2.366948
2264	2.528786
2260	2.718806
2256	2.944850
2252	3.226089
2248	3.485679
2244	3.651666
2240	3.809523
2236	4.047012
2232	4.344320
2228	4.686474
2224	5.005311
2220	5.275082
2216	5.575752
2212	5.902862
2208	6.237673
2204	6.567144
2200	6.882905
2196	7.227468
2192	7.592749
2188	7.986474
2184	8.386993
2180	8.775663
2176	9.203624
2172	9.631061
2168	10.0426
2164	10.4722
2160	10.8625
2156	11.2529
2152	11.7778
2148	12.3455
2144	12.8128
2140	13.2529
2136	13.742
2132	14.2215
2128	14.6111
2124	14.9389
2120	15.329
2116	15.8028
2112	16.2638
2108	16.6843
2104	17.1484
2100	17.6238
2096	18.0491
2092	18.4826
2088	18.8944
2084	19.289
2080	19.7211
2076	20.1028
2072	20.3699
2068	20.668
2064	21.1006
2060	21.5191
2056	21.8267
2052	22.1199
2048	22.4827
2044	22.8289
2040	23.1044
2036	23.3732
2032	23.6449
2028	23.9774
2024	24.4047
2020	24.8047
2016	25.0672
2012	25.2374
2008	25.4142
2004	25.5898
2000	25.7295
1996	25.8776
1992	26.07
1988	26.2799
1984	26.4998
1980	26.7542
1976	27.0274
1972	27.2613
1968	27.4423
1964	27.6049
1960	27.7979
1956	28.0114
1952	28.1511
1948	28.2458
1944	28.3683
1940	28.4435
1936	28.464
1932	28.5273
1928	28.5897
1924	28.6362
1920	28.7626
1916	28.9435
1912	29.1187
1908	29.3083
1904	29.4842
1900	29.6062
1896	29.7125
1892	29.7891
1888	29.8069
1884	29.83
1880	29.8559
1876	29.8183
1872	29.7772
1868	29.8134
1864	29.879
1860	29.9221
1856	29.9811
1852	30.0818
1848	30.2011
1844	30.3181
1840	30.4324
1836	30.5387
1832	30.6245
1828	30.6719
1824	30.6779
1820	30.6824
1816	30.6727
1812	30.5961
1808	30.4512
1804	30.3431
1800	30.3625
1796	30.4618
1792	30.5679
1788	30.6631
1784	30.7703
1780	30.8665
1776	30.9484
1772	31.059
1768	31.1333
1764	31.1187
1760	31.0755
1756	31.0127
1752	30.9267
1748	30.8261
1744	30.7111
1740	30.6748
1736	30.7289
1732	30.8086
1728	30.8948
1724	30.9388
1720	30.9333
1716	30.9817
1712	31.1364
1708	31.2662
1704	31.3202
1700	31.3441
1696	31.3027
1692	31.2158
1688	31.1329
1684	31.0251
1680	30.9103
1676	30.8351
1672	30.7951
1668	30.7925
1664	30.8079
1660	30.8244
1656	30.8957
1652	31.031
1648	31.1492
1644	31.2203
1640	31.2965
1636	31.3782
1632	31.3766
1628	31.2875
1624	31.1754
1620	31.0305
1616	30.8572
1612	30.7507
1608	30.7278
1604	30.7169
1600	30.7296
1596	30.7832
1592	30.8729
1588	31.003
1584	31.124
1580	31.2174
1576	31.27
1572	31.2672
1568	31.2548
1564	31.2423
1560	31.1849
1556	31.0785
1552	30.9675
1548	30.8414
1544	30.6888
1540	30.5856
1536	30.5876
1532	30.664
1528	30.769
1524	30.8646
1520	30.95
1516	31.0655
1512	31.219
1508	31.3014
1504	31.2576
1500	31.1964
1496	31.1189
1492	30.9518
1488	30.7716
1484	30.6902
1480	30.6239
1476	30.4753
1472	30.4088
1468	30.5029
1464	30.6104
1460	30.6878
1456	30.7305
1452	30.7946
1448	30.93
1444	31.0413
1440	31.106
1436	31.0956
1432	30.99
1428	30.8853
1424	30.8865
1420	30.8696
1416	30.6468
1412	30.3981
1408	30.271
1404	30.2411
1400	30.3352
1396	30.4463
1392	30.5331
1388	30.6691
1384	30.8417
1380	31.0102
1376	31.0789
1372	30.9766
1368	30.82
1364	30.7269
1360	30.6515
1356	30.5498
1352	30.4586
1348	30.3522
1344	30.2008
1340	30.0696
1336	30.0489
1332	30.1728
1328	30.348
1324	30.5054
1320	30.6823
1316	30.8158
1312	30.8333
1308	30.8305
1304	30.8416
1300	30.7874
1296	30.6528
1292	30.5106
1288	30.382
1284	30.2407
1280	30.1234
1276	30.0185
1272	29.9354
1268	29.9532
1264	30.0438
1260	30.1577
1256	30.2633
1252	30.3603
1248	30.4795
1244	30.5787
1240	30.6407
1236	30.6485
1232	30.5525
1228	30.3626
1224	30.1419
1220	29.9725
1216	29.8743
1212	29.7522
1208	29.5952
1204	29.5492
1200	29.611
1196	29.6881
1192	29.8152
1188	29.9929
1184	30.1367
1180	30.223
1176	30.3176
1172	30.4238
1168	30.4111
1164	30.2313
1160	30.0326
1156	29.8916
1152	29.7508
1148	29.5975
1144	29.4019
1140	29.183
1136	29.0773
1132	29.1146
1128	29.24
1124	29.4095
1120	29.5682
1116	29.6984
1112	29.806
1108	29.8845
1104	29.9258
1100	29.908
1096	29.801
1092	29.6516
1088	29.5005
1084	29.3078
1080	29.0905
1076	28.889
1072	28.7541
1068	28.7788
1064	28.9186
1060	29.0922
1056	29.3066
1052	29.4814
1048	29.5575
1044	29.5918
1040	29.5964
1036	29.5672
1032	29.5068
1028	29.3709
1024	29.1324
1020	28.9105
1016	28.7611
1012	28.5839
1008	28.4328
1004	28.3591
1000	28.3755
996	 28.5231
992	 28.7045
988	 28.8958
984	 29.0691
980	 29.1471
976	 29.1653
972	 29.1388
968	 29.0689
964	 29.0289
960	 28.9853
956	 28.7772
952	 28.5053
948	 28.2979
944	 28.103
940	 27.9183
936	 27.7621
932	 27.7217
928	 27.7889
924	 27.8962
920	 28.0614
916	 28.2297
912	 28.36
908	 28.4358
904	 28.4398
900	 28.4267
896	 28.362
892	 28.132
888	 27.8019
884	 27.5071
880	 27.2595
876	 27.1096
872	 27.1472
868	 27.2287
864	 27.2069
860	 27.1457
856	 27.1793
852	 27.31
848	 27.3731
844	 27.3883
840	 27.4981
836	 27.6361
832	 27.6967
828	 27.6406
824	 27.4
820	 27.0472
816	 26.7338
812	 26.4976
808	 26.2895
804	 26.065
800	 25.9036
796	 25.8948
792	 26.0178
788	 26.1906
784	 26.3586
780	 26.5346
776	 26.747
772	 26.8913
768	 26.818
764	 26.6078
760	 26.3976
756	 26.1531
752	 25.8258
748	 25.4955
744	 25.2082
740	 24.9598
736	 24.9101
732	 25.0808
728	 25.1317
724	 25.0643
720	 25.2332
716	 25.5329
712	 25.598
708	 25.4607
704	 25.579
700	 25.8803
696	 25.8076
692	 25.4184
688	 25.0221
684	 24.7609
680	 24.617
676	 24.4158
672	 24.1082
668	 23.8384
664	 23.732
660	 23.7611
656	 23.888
652	 24.0832
648	 24.348
644	 24.5049
640	 24.4484
636	 24.2853
632	 24.0877
628	 24.0403
624	 23.9407
620	 23.523
616	 22.9766
612	 22.6627
608	 22.4495
604	 22.0489
600	 22.1033
596	 22.5327
592	 22.6084
588	 22.6131
584	 22.8362
580	 23.0023
576	 22.9704
572	 22.8832
568	 22.6896
564	 22.5375
560	 22.2689
556	 21.567
552	 21.3488
548	 21.8094
544	 21.9522
540	 21.8252
536	 21.8328
532	 22.3013
528	 23.433
524	 23.3646
520	 21.6672
516	 20.5513
512	 20.1258
508	 20.1701
504	 20.2082
500	 19.1804
496	 18.6104
492	 19.187
488	 19.442
484	 19.261
480	 19.0686
476	 19.1314
472	 19.5068
468	 19.0685
464	 17.9544
460	 17.57
456	 17.7333
452	 17.3249
448	 17.0199
444	 18.2589
440	 19.9585
436	 19.3827
432	 17.0025
428	 15.4205
424	 14.8007
420	 15.3375
416	 16.0367
412	 13.6786
408	 9.414911
404	 10.2777
400	 17.6795
396	 21.6986
392	 20.2844
388	 18.3395
384	 16.7275
380	 13.9923
376	 21.6081
372	 39.1974
370	 38.7368