File: Bakgrunnsmateriale/MATLAB/FTIR/ftir_data/LPE454/Mapping_121/LPE454_t112_cm-1.asc
PE IR       SPECTRUM    SPECTRUM    ASCII       PEDS        1.60
  -1
LP0558~1.ASC
17/05/19
23:37:40.00
17/05/19
23:37:40.00
tln
$LPE454_t0112$<tbV0>[10.4,13.0,8.0,0.0,27,1,0]
370
64

2002,4.07
MIRTGS : RIGHTBACK : INTERNAL 2
MIR : ON : INTERNAL 2
OPTKBR

0.200000
8
8.000000
FILLER
RATIO
SPECTRUM
UNLOCKED 256

DOUBLE
64
COMBINED
1
0
0

1.000000
RATIO

1
0
TRUE
51149
0
LEFT NOT FITTED RIGHT NOT FITTED 0
NONE
NONE
15600
12
4.427000
51148
TRUE
1 0 8 72 0 0 0 0

15798

#HDR
-1
-1
#GR
CM-1
%T
2.38419e-05
0.0
5000
-1.000000
4631
8
38.8806
-4.651737
#DATA
5000	-0.135278
4996	-0.067973
4992	-0.109338
4988	0.107359
4984	0.285840
4980	0.222730
4976	0.245952
4972	0.287938
4968	0.221347
4964	0.212311
4960	0.334668
4956	0.318002
4952	0.031256
4948	-0.046730
4944	0.222420
4940	0.409531
4936	0.366330
4932	0.220394
4928	0.122976
4924	0.037598
4920	-0.098562
4916	-0.210499
4912	-0.177764
4908	-0.021553
4904	0.041985
4900	0.204801
4896	0.573277
4892	0.617313
4888	0.205612
4884	-0.139451
4880	-0.053691
4876	0.271940
4872	0.425243
4868	0.256872
4864	0.056266
4860	0.113105
4856	0.120115
4852	-0.087261
4848	-0.211143
4844	-0.143408
4840	0.062131
4836	0.193905
4832	0.145196
4828	0.166416
4824	0.294923
4820	0.276827
4816	0.190806
4812	0.271463
4808	0.401854
4804	0.447297
4800	0.401234
4796	0.418615
4792	0.461363
4788	0.257205
4784	0.071787
4780	0.238704
4776	0.438237
4772	0.376605
4768	0.396156
4764	0.567197
4760	0.593137
4756	0.566267
4752	0.487709
4748	0.262713
4744	0.232863
4740	0.289344
4736	0.238013
4732	0.248837
4728	0.208830
4724	0.076103
4720	-0.027251
4716	0.015687
4712	0.236821
4708	0.231742
4704	-0.067186
4700	-0.368475
4696	-0.555992
4692	-0.501132
4688	-0.302696
4684	-0.193405
4680	-0.280833
4676	-0.321507
4672	-0.256085
4668	-0.227761
4664	-0.171709
4660	-0.104594
4656	0.002193
4652	0.158023
4648	0.406217
4644	0.674271
4640	0.686621
4636	0.641226
4632	0.712299
4628	0.536584
4624	0.142598
4620	0.323104
4616	0.693535
4612	0.948381
4608	1.639223
4604	2.198171
4600	3.236103
4596	5.804276
4592	13.429
4588	22.5488
4584	16.6978
4580	2.317023
4576	-4.507160
4572	-2.342319
4568	0.899219
4564	0.242090
4560	-1.001405
4556	-0.912213
4552	-0.754213
4548	-0.577354
4544	-0.155282
4540	-0.039935
4536	-0.080895
4532	-0.371623
4528	-0.763154
4524	-0.948071
4520	-1.058173
4516	-0.723218
4512	-0.219678
4508	-0.160884
4504	-0.131750
4500	0.085711
4496	0.265669
4492	0.331354
4488	0.236606
4484	0.046062
4480	-0.044965
4476	0.098323
4472	0.214600
4468	0.190305
4464	0.177168
4460	0.054955
4456	-0.056934
4452	0.077390
4448	0.047564
4444	-0.218963
4440	-0.336194
4436	-0.178694
4432	0.036954
4428	0.058054
4424	-0.061202
4420	-0.089669
4416	0.046491
4412	0.301337
4408	0.341296
4404	0.090742
4400	-0.017142
4396	-0.012683
4392	-0.044226
4388	0.052595
4384	0.258612
4380	0.442409
4376	0.537824
4372	0.561237
4368	0.474095
4364	0.317001
4360	0.254726
4356	0.225687
4352	0.188279
4348	0.144028
4344	0.027370
4340	-0.085711
4336	-0.107240
4332	0.030851
4328	0.276517
4324	0.263977
4320	0.088191
4316	0.057196
4312	0.010442
4308	-0.002503
4304	0.157856
4300	0.277686
4296	0.246500
4292	0.209331
4288	0.212693
4284	0.187873
4280	0.170612
4276	0.158905
4272	0.044584
4268	-0.090289
4264	-0.050306
4260	0.084805
4256	0.142121
4252	0.111413
4248	0.088572
4244	0.151848
4240	0.137400
4236	0.102996
4232	0.167918
4228	0.069928
4224	-0.112462
4220	-0.022959
4216	0.196123
4212	0.355553
4208	0.361824
4204	0.156402
4200	-0.045824
4196	-0.113558
4192	0.050258
4188	0.336432
4184	0.382924
4180	0.151610
4176	0.036406
4172	0.155544
4168	0.182318
4164	0.065922
4160	-0.250935
4156	-0.588274
4152	-0.405931
4148	0.085830
4144	0.271511
4140	0.306224
4136	0.318074
4132	0.327944
4128	0.515818
4124	0.481081
4120	0.572991
4116	1.043653
4112	0.990009
4108	0.420069
4104	0.288057
4100	0.736856
4096	0.675058
4092	0.236463
4088	0.236201
4084	0.669431
4080	1.221227
4076	1.108098
4072	0.427341
4068	-0.049209
4064	0.136590
4060	0.625896
4056	0.613737
4052	0.286936
4048	0.192761
4044	0.264310
4040	0.256919
4036	0.260519
4032	0.334072
4028	0.213122
4024	-0.052881
4020	-0.101613
4016	-0.008988
4012	0.022721
4008	0.016665
4004	-0.080966
4000	-0.125384
3996	-0.042581
3992	-0.018095
3988	-0.027441
3984	-0.011229
3980	-0.001883
3976	0.049853
3972	0.054574
3968	-0.008773
3964	0.027441
3960	0.092506
3956	0.111007
3952	0.106501
3948	0.066781
3944	-0.010967
3940	-0.055527
3936	-0.066542
3932	-0.045084
3928	0.056672
3924	0.130963
3920	0.125360
3916	0.080132
3912	0.036478
3908	0.022339
3904	0.029349
3900	0.035619
3896	0.057411
3892	0.068092
3888	0.037813
3884	0.025463
3880	0.086712
3876	0.102019
3872	0.131845
3868	0.137591
3864	0.071787
3860	-0.010943
3856	-0.053906
3852	0.046014
3848	0.188469
3844	0.174498
3840	0.093770
3836	0.048375
3832	-0.002932
3828	-0.040721
3824	-0.014376
3820	0.047826
3816	0.093746
3812	0.067353
3808	-0.036311
3804	-0.120520
3800	-0.100350
3796	-0.011110
3792	0.031256
3788	0.060081
3784	0.099635
3780	0.074172
3776	0.000596
3772	-0.062966
3768	-0.056910
3764	-0.054240
3760	-0.102066
3756	-0.046873
3752	0.125765
3748	0.207591
3744	0.144290
3740	0.106596
3736	0.144100
3732	0.173544
3728	0.121641
3724	0.051736
3720	0.051188
3716	0.034570
3712	-0.050354
3708	-0.079417
3704	0.036239
3700	0.137209
3696	0.070381
3692	-0.020408
3688	-0.024366
3684	-0.020813
3680	0.016689
3676	0.070428
3672	0.076270
3668	0.103902
3664	0.085520
3660	0.000238
3656	0.011658
3652	0.048470
3648	-0.001716
3644	0.008821
3640	0.119233
3636	0.219726
3632	0.188970
3628	0.045323
3624	-0.018835
3620	0.001955
3616	0.065469
3612	0.163364
3608	0.179886
3604	0.091719
3600	0.000858
3596	0.020289
3592	0.103592
3588	0.093698
3584	0.022292
3580	0.017547
3576	0.027394
3572	-0.011801
3568	0.028157
3564	0.121974
3560	0.113534
3556	0.033354
3552	-0.037622
3548	-0.082564
3544	-0.092172
3540	-0.067567
3536	0.013899
3532	0.108313
3528	0.044298
3524	-0.086450
3520	-0.069761
3516	0.025439
3512	0.115227
3508	0.138044
3504	0.101065
3500	0.095868
3496	0.063562
3492	0.040817
3488	0.068569
3484	0.028610
3480	-0.012946
3476	0.031757
3472	0.047659
3468	-0.010085
3464	-0.055027
3460	-0.073146
3456	-0.083184
3452	-0.041985
3448	0.016593
3444	0.005626
3440	-0.000643
3436	0.036621
3432	0.071191
3428	0.067710
3424	0.006294
3420	-0.008273
3416	0.117468
3412	0.208020
3408	0.103020
3404	0.002360
3400	0.038886
3396	0.035858
3392	-0.032329
3388	-0.008559
3384	0.134205
3380	0.239133
3376	0.215363
3372	0.145316
3368	0.089406
3364	0.029921
3360	0.010204
3356	0.062608
3352	0.081443
3348	0.062227
3344	0.056195
3340	0.040912
3336	0.033664
3332	0.044751
3328	0.074672
3324	0.071787
3320	0.007748
3316	-0.045490
3312	-0.020980
3308	-0.012397
3304	-0.074052
3300	-0.058150
3296	0.014853
3292	-0.018954
3288	-0.084590
3284	-0.027680
3280	0.062417
3276	0.088143
3272	0.077247
3268	0.070548
3264	0.092792
3260	0.102472
3256	0.053548
3252	0.021266
3248	0.043845
3244	0.085616
3240	0.116801
3236	0.066494
3232	0.010633
3228	0.062918
3224	0.086021
3220	0.016283
3216	-0.056481
3212	-0.059533
3208	0.020909
3204	0.028848
3200	-0.054001
3196	-0.063157
3192	-0.034213
3188	-0.048303
3184	-0.066494
3180	-0.052547
3176	0.045084
3172	0.156879
3168	0.132369
3164	0.008869
3160	-0.034451
3156	0.024056
3152	0.061798
3148	0.104570
3144	0.175642
3140	0.214767
3136	0.213766
3132	0.149607
3128	0.090217
3124	0.065231
3120	-0.022482
3116	-0.096297
3112	-0.030541
3108	0.075125
3104	0.085759
3100	0.029444
3096	-0.032567
3092	-0.022482
3088	0.060391
3084	0.088572
3080	0.076842
3076	0.085592
3072	0.059652
3068	0.030875
3064	0.006246
3060	-0.056505
3056	-0.082468
3052	-0.079703
3048	-0.081896
3044	-0.064969
3040	-0.035190
3036	-0.006675
3032	0.014567
3028	0.057077
3024	0.089287
3020	0.035762
3016	0.001287
3012	0.023484
3008	0.020885
3004	0.028562
3000	0.047230
2996	0.012755
2992	0.010418
2988	0.063061
2984	0.080752
2980	0.081729
2976	0.058627
2972	-0.009346
2968	-0.045418
2964	-0.015687
2960	0.048303
2956	0.078630
2952	0.074553
2948	0.095725
2944	0.110483
2940	0.101518
2936	0.099945
2932	0.044631
2928	-0.064802
2924	-0.083971
2920	-0.047659
2916	-0.044703
2912	-0.048041
2908	-0.038194
2904	0.017428
2900	0.061583
2896	0.048303
2892	0.038838
2888	0.049495
2884	0.063490
2880	0.068998
2876	0.088191
2872	0.142765
2868	0.150632
2864	0.082778
2860	0.040674
2856	0.071382
2852	0.096797
2848	0.055575
2844	0.045275
2840	0.086808
2836	0.087666
2832	0.069022
2828	0.060892
2824	0.039911
2820	0.012993
2816	-0.001883
2812	-0.032186
2808	-0.069999
2804	-0.036692
2800	0.004434
2796	0.003957
2792	0.039720
2788	0.089979
2784	0.119042
2780	0.110673
2776	0.032448
2772	-0.050902
2768	-0.055694
2764	-0.011587
2760	0.064992
2756	0.120425
2752	0.084877
2748	0.030207
2744	0.009870
2740	0.021123
2736	0.050878
2732	0.065016
2728	0.065875
2724	0.052881
2720	0.018215
2716	0.004172
2712	0.008940
2708	0.028991
2704	0.054168
2700	0.006508
2696	-0.055575
2692	-0.007820
2688	0.069069
2684	0.039076
2680	-0.020813
2676	-0.033116
2672	-0.003671
2668	0.089478
2664	0.135016
2660	0.056028
2656	-0.055980
2652	-0.079751
2648	-0.008130
2644	0.008368
2640	-0.034427
2636	0.004267
2632	0.059103
2628	0.018262
2624	-0.013184
2620	0.026154
2616	0.038290
2612	-0.002002
2608	0.000977
2604	0.040435
2600	0.018143
2596	-0.018858
2592	-0.013756
2588	-0.019335
2584	-0.041770
2580	-0.039196
2576	0.007367
2572	0.072574
2568	0.106406
2564	0.109648
2560	0.094199
2556	0.039458
2552	0.002598
2548	0.021672
2544	0.059223
2540	0.060153
2536	0.039839
2532	0.076174
2528	0.138497
2524	0.153493
2520	0.119233
2516	0.081467
2512	0.037240
2508	0.014948
2504	0.049400
2500	0.077891
2496	0.071859
2492	-0.004124
2488	-0.087571
2484	-0.045108
2480	0.034189
2476	0.028038
2472	0.011706
2468	0.033402
2464	0.041937
2460	0.082778
2456	0.142049
2452	0.102496
2448	0.028896
2444	0.025677
2440	0.082039
2436	0.180840
2432	0.244522
2428	0.200152
2424	0.147938
2420	0.219297
2416	0.270748
2412	0.190234
2408	0.158166
2404	0.214123
2400	0.227594
2396	0.220346
2392	0.241374
2388	0.260090
2384	0.308299
2380	0.363039
2376	0.360751
2372	0.370717
2368	0.453877
2364	0.565695
2360	0.621485
2356	0.593900
2352	0.569939
2348	0.583767
2344	0.624227
2340	0.706315
2336	0.801515
2332	0.896620
2328	0.989151
2324	1.069283
2320	1.143169
2316	1.224684
2312	1.319909
2308	1.417613
2304	1.515817
2300	1.603603
2296	1.734089
2292	1.937961
2288	2.090167
2284	2.190732
2280	2.376365
2276	2.593374
2272	2.743983
2268	2.899789
2264	3.119301
2260	3.362083
2256	3.623509
2252	3.920483
2248	4.201626
2244	4.457473
2240	4.745125
2236	5.054664
2232	5.370259
2228	5.704665
2224	6.018114
2220	6.323051
2216	6.687784
2212	7.105112
2208	7.509827
2204	7.911372
2200	8.371090
2196	8.831477
2192	9.248280
2188	9.686398
2184	10.1643
2180	10.6496
2176	11.1417
2172	11.65
2168	12.1533
2164	12.6415
2160	13.1442
2156	13.6425
2152	14.086
2148	14.5612
2144	15.1427
2140	15.722
2136	16.2109
2132	16.6557
2128	17.1474
2124	17.6952
2120	18.2159
2116	18.7079
2112	19.2588
2108	19.8356
2104	20.3222
2100	20.7229
2096	21.1084
2092	21.545
2088	22.0581
2084	22.5547
2080	22.9954
2076	23.4272
2072	23.8537
2068	24.269
2064	24.7048
2060	25.1763
2056	25.61
2052	25.9437
2048	26.2789
2044	26.7215
2040	27.1434
2036	27.455
2032	27.7194
2028	27.9948
2024	28.3488
2020	28.7071
2016	28.9966
2012	29.2935
2008	29.5921
2004	29.8488
2000	30.1362
1996	30.4565
1992	30.7112
1988	30.9284
1984	31.146
1980	31.3736
1976	31.6412
1972	31.904
1968	32.1213
1964	32.327
1960	32.5435
1956	32.7373
1952	32.911
1948	33.1236
1944	33.3646
1940	33.5535
1936	33.694
1932	33.865
1928	34.0804
1924	34.2978
1920	34.4791
1916	34.6149
1912	34.7177
1908	34.8011
1904	34.9457
1900	35.1726
1896	35.3532
1892	35.4467
1888	35.5265
1884	35.6389
1880	35.7569
1876	35.8561
1872	35.9654
1868	36.0668
1864	36.1342
1860	36.216
1856	36.3387
1852	36.4813
1848	36.6235
1844	36.7264
1840	36.7877
1836	36.8323
1832	36.8885
1828	36.9867
1824	37.0677
1820	37.1106
1816	37.1696
1812	37.2133
1808	37.2511
1804	37.3397
1800	37.4661
1796	37.592
1792	37.6613
1788	37.6549
1784	37.6426
1780	37.6921
1776	37.7273
1772	37.723
1768	37.767
1764	37.8037
1760	37.8037
1756	37.8366
1752	37.9333
1748	38.049
1744	38.0867
1740	38.073
1736	38.0849
1732	38.1413
1728	38.1932
1724	38.228
1720	38.3101
1716	38.3516
1712	38.3096
1708	38.279
1704	38.287
1700	38.3429
1696	38.3747
1692	38.3557
1688	38.4071
1684	38.5175
1680	38.574
1676	38.5856
1672	38.5976
1668	38.665
1664	38.7774
1660	38.8076
1656	38.781
1652	38.7581
1648	38.7418
1644	38.7599
1640	38.7609
1636	38.7369
1632	38.7232
1628	38.7021
1624	38.7117
1620	38.783
1616	38.8568
1612	38.8798
1608	38.8383
1604	38.8003
1600	38.8126
1596	38.8075
1592	38.7644
1588	38.6935
1584	38.6167
1580	38.5957
1576	38.6571
1572	38.726
1568	38.7407
1564	38.747
1560	38.7297
1556	38.6835
1552	38.6763
1548	38.679
1544	38.6407
1540	38.5845
1536	38.5621
1532	38.57
1528	38.57
1524	38.5466
1520	38.4879
1516	38.4504
1512	38.4472
1508	38.4203
1504	38.3967
1500	38.4238
1496	38.4931
1492	38.5271
1488	38.5128
1484	38.5189
1480	38.5263
1476	38.4848
1472	38.442
1468	38.4168
1464	38.3422
1460	38.2945
1456	38.3175
1452	38.3239
1448	38.3457
1444	38.3738
1440	38.321
1436	38.2283
1432	38.183
1428	38.2019
1424	38.2451
1420	38.2893
1416	38.2981
1412	38.2463
1408	38.1666
1404	38.1095
1400	38.1508
1396	38.2212
1392	38.1833
1388	38.0925
1384	38.0558
1380	38.0577
1376	38.0574
1372	38.0348
1368	38.0022
1364	37.978
1360	37.9504
1356	37.9545
1352	37.9978
1348	38.0264
1344	38.0548
1340	38.0409
1336	37.9268
1332	37.8562
1328	37.8649
1324	37.8563
1320	37.8251
1316	37.7536
1312	37.6735
1308	37.6431
1304	37.6751
1300	37.7048
1296	37.6892
1292	37.6501
1288	37.5656
1284	37.5172
1280	37.5435
1276	37.5589
1272	37.5272
1268	37.448
1264	37.367
1260	37.3539
1256	37.3846
1252	37.3786
1248	37.3625
1244	37.3449
1240	37.2735
1236	37.2084
1232	37.21
1228	37.242
1224	37.2785
1220	37.2798
1216	37.2632
1212	37.2669
1208	37.2305
1204	37.1917
1200	37.1786
1196	37.1514
1192	37.1437
1188	37.1332
1184	37.0891
1180	37.042
1176	37.0232
1172	37.0051
1168	36.9635
1164	36.9525
1160	36.9669
1156	36.9572
1152	36.932
1148	36.9084
1144	36.9148
1140	36.9607
1136	36.9464
1132	36.9017
1128	36.9246
1124	36.9031
1120	36.7675
1116	36.6884
1112	36.7712
1108	36.8205
1104	36.7396
1100	36.6398
1096	36.6168
1092	36.6233
1088	36.614
1084	36.6413
1080	36.6772
1076	36.6931
1072	36.672
1068	36.6098
1064	36.4867
1060	36.4003
1056	36.4566
1052	36.5122
1048	36.4253
1044	36.2657
1040	36.191
1036	36.1936
1032	36.2211
1028	36.2844
1024	36.3261
1020	36.2627
1016	36.0624
1012	35.899
1008	35.8895
1004	35.9192
1000	35.9256
996	 35.9164
992	 35.927
988	 35.9541
984	 35.9556
980	 35.9143
976	 35.8297
972	 35.7459
968	 35.7044
964	 35.7021
960	 35.6877
956	 35.6047
952	 35.4605
948	 35.3739
944	 35.4469
940	 35.5421
936	 35.527
932	 35.4678
928	 35.4255
924	 35.3788
920	 35.3461
916	 35.3563
912	 35.3455
908	 35.3392
904	 35.3987
900	 35.3897
896	 35.2312
892	 35.0805
888	 35.0133
884	 35.0174
880	 35.084
876	 35.0893
872	 34.8894
868	 34.632
864	 34.6341
860	 34.8614
856	 35.0151
852	 34.944
848	 34.763
844	 34.6431
840	 34.615
836	 34.6108
832	 34.5219
828	 34.3734
824	 34.2737
820	 34.2453
816	 34.2149
812	 34.2226
808	 34.3337
804	 34.3248
800	 34.1729
796	 34.0914
792	 34.0227
788	 33.8679
784	 33.7089
780	 33.669
776	 33.7801
772	 33.9179
768	 33.8882
764	 33.6966
760	 33.4725
756	 33.2475
752	 33.1644
748	 33.3918
744	 33.6332
740	 33.582
736	 33.4291
732	 33.3157
728	 33.2745
724	 33.3377
720	 33.3313
716	 33.2044
712	 32.9991
708	 32.8638
704	 33.0372
700	 33.1669
696	 32.9573
692	 32.8062
688	 32.8742
684	 32.8486
680	 32.7541
676	 32.8138
672	 32.8784
668	 32.8548
664	 32.8719
660	 32.7792
656	 32.5227
652	 32.3783
648	 32.3324
644	 32.2283
640	 32.1351
636	 32.1456
632	 32.0824
628	 31.7889
624	 31.5182
620	 31.5524
616	 31.7543
612	 31.7885
608	 31.6463
604	 31.7147
600	 32.0079
596	 32.0279
592	 31.7358
588	 31.4517
584	 31.1495
580	 30.8556
576	 30.6614
572	 30.5537
568	 30.5326
564	 30.478
560	 30.5617
556	 30.8002
552	 30.7266
548	 30.4155
544	 30.2924
540	 30.2291
536	 30.0641
532	 29.8801
528	 29.5564
524	 29.3195
520	 29.6876
516	 30.0389
512	 30.0501
508	 30.3149
504	 30.2925
500	 29.8503
496	 29.3498
492	 28.724
488	 28.2302
484	 28.0249
480	 27.9676
476	 27.7114
472	 28.3944
468	 30.1442
464	 30.3488
460	 28.9636
456	 27.2495
452	 26.0075
448	 26.2247
444	 26.9022
440	 27.6481
436	 28.2626
432	 27.6211
428	 27.1854
424	 27.8953
420	 28.3254
416	 28.1167
412	 27.0691
408	 23.8865
404	 23.0209
400	 27.8781
396	 29.5456
392	 26.2186
388	 23.2486
384	 17.6711
380	 22.6123
376	 28.6011
372	 15.8433
370	 0.591802