File: Bakgrunnsmateriale/MATLAB/FTIR/ftir_data/LPE454/Mapping_121/LPE454_t02_cm-1.asc
PE IR       SPECTRUM    SPECTRUM    ASCII       PEDS        1.60
  -1
LP57B0~1.ASC
17/05/19
14:33:57.00
17/05/19
14:33:57.00
tln
$LPE454_t0002$<tbV0>[10.4,-13.0,8.0,0.0,27,1,0]
370
64

2002,4.07
MIRTGS : RIGHTBACK : INTERNAL 2
MIR : ON : INTERNAL 2
OPTKBR

0.200000
8
8.000000
FILLER
RATIO
SPECTRUM
UNLOCKED 256

DOUBLE
64
COMBINED
1
0
0

1.000000
RATIO

1
0
TRUE
51149
0
LEFT NOT FITTED RIGHT NOT FITTED 0
NONE
NONE
15600
12
4.427000
51148
TRUE
1 0 8 72 0 0 0 0

15798

#HDR
-1
-1
#GR
CM-1
%T
2.38419e-05
0.0
5000
-1.000000
4631
8
61.9991
-12.9564
#DATA
5000	0.196385
4996	0.666499
4992	0.759363
4988	0.665855
4984	0.505828
4980	0.295853
4976	0.142645
4972	0.145053
4968	0.184750
4964	-0.070619
4960	-0.134611
4956	0.155973
4952	0.186038
4948	0.059533
4944	-0.065970
4940	0.030612
4936	0.504112
4932	0.742936
4928	0.310850
4924	0.250291
4920	0.824213
4916	0.900983
4912	0.565338
4908	0.275421
4904	0.123262
4900	0.450730
4896	1.166057
4892	1.309275
4888	0.871896
4884	1.308989
4880	1.978325
4876	1.811385
4872	1.632332
4868	1.552724
4864	1.364970
4860	1.222491
4856	1.034665
4852	0.615692
4848	0.149345
4844	-0.707435
4840	-1.860833
4836	-1.518368
4832	-0.660657
4828	-0.757169
4824	-0.744247
4820	-0.442814
4816	0.319910
4812	1.122426
4808	1.086211
4804	0.815892
4800	0.739741
4796	0.432920
4792	0.034689
4788	0.001716
4784	-0.089287
4780	-0.288820
4776	-0.356984
4772	-0.393843
4768	-0.087547
4764	0.473308
4760	0.528097
4756	0.273966
4752	0.399184
4748	0.518751
4744	0.391077
4740	0.292992
4736	0.083541
4732	-0.069117
4728	0.005102
4724	-0.018930
4720	-0.108742
4716	0.012636
4712	0.196456
4708	0.199675
4704	0.158548
4700	0.122523
4696	0.001811
4692	0.055122
4688	0.397968
4684	0.633049
4680	0.325655
4676	-0.181365
4672	-0.251150
4668	-0.070452
4664	0.010585
4660	0.000452
4656	-0.007033
4652	0.036334
4648	0.090122
4644	0.170707
4640	0.190186
4636	0.077390
4632	-0.018286
4628	-0.064563
4624	-0.014448
4620	0.244307
4616	0.646567
4612	0.796318
4608	0.582146
4604	0.324249
4600	0.191807
4596	0.254821
4592	0.313162
4588	0.199556
4584	0.104212
4580	0.202798
4576	0.394129
4572	0.463461
4568	0.400042
4564	0.315904
4560	0.421237
4556	0.585484
4552	0.582242
4548	0.515913
4544	0.235247
4540	-0.179147
4536	-0.335216
4532	-0.628280
4528	-0.855255
4524	-0.647926
4520	-0.580430
4516	-0.458025
4512	-0.659561
4508	-1.208972
4504	-0.964236
4500	-0.575089
4496	-0.483632
4492	-0.026726
4488	0.298023
4484	0.123429
4480	0.091910
4476	-0.145244
4472	0.748753
4468	5.853629
4464	15.8177
4460	21.8407
4456	14.1149
4452	3.463768
4448	-0.596880
4444	-1.106309
4440	-0.651049
4436	-0.503683
4432	-0.764107
4428	-0.910592
4424	-0.934815
4420	-0.710916
4416	-0.344610
4412	-0.536489
4408	-1.039409
4404	-1.076650
4400	-0.813746
4396	-0.714206
4392	-0.682878
4388	-0.411391
4384	0.008249
4380	0.168180
4376	0.052571
4372	-0.171375
4368	-0.288367
4364	-0.181126
4360	-0.174188
4356	-0.282764
4352	-0.282144
4348	-0.124478
4344	0.032806
4340	0.152873
4336	0.225234
4332	0.330924
4328	0.468730
4324	0.334477
4320	0.106692
4316	0.036120
4312	0.070095
4308	0.211381
4304	0.358414
4300	0.265932
4296	0.137567
4292	0.112295
4288	-0.048136
4284	-0.222849
4280	-0.194573
4276	-0.104618
4272	-0.036931
4268	0.054764
4264	-0.059652
4260	-0.274372
4256	-0.229716
4252	-0.119400
4248	0.014901
4244	0.290727
4240	0.446343
4236	0.407171
4232	0.293755
4228	0.111603
4224	0.038576
4220	0.123286
4216	0.138425
4212	0.082349
4208	0.005674
4204	-0.096249
4200	0.025129
4196	0.400042
4192	0.779247
4188	1.094508
4184	1.102304
4180	0.636672
4176	0.048017
4172	-0.268101
4168	-0.293111
4164	-0.033020
4160	0.340652
4156	0.376749
4152	0.181460
4148	0.132107
4144	0.251436
4140	0.281000
4136	0.189828
4132	0.230002
4128	0.331735
4124	0.271344
4120	0.139617
4116	0.165224
4112	0.151777
4108	-0.004935
4104	-0.028014
4100	0.015950
4096	-0.003004
4092	-0.003194
4088	0.071549
4084	0.211715
4080	0.233530
4076	0.103640
4072	0.090575
4068	0.186777
4064	0.300621
4060	0.370597
4056	0.200700
4052	0.014114
4048	0.059795
4044	0.148153
4040	0.093674
4036	-0.086569
4032	-0.199317
4028	-0.157642
4024	-0.067138
4020	0.096225
4016	0.261950
4012	0.266098
4008	0.261068
4004	0.268006
4000	0.146770
3996	0.075912
3992	0.112533
3988	0.139260
3984	0.110602
3980	0.058364
3976	0.068116
3972	0.124907
3968	0.219988
3964	0.241208
3960	0.098347
3956	-0.069689
3952	-0.126409
3948	-0.082087
3944	0.020265
3940	0.153112
3936	0.122618
3932	-0.041317
3928	-0.067758
3924	0.025224
3920	0.131082
3916	0.097584
3912	-0.065517
3908	-0.134491
3904	-0.115203
3900	0.000071
3896	0.202608
3892	0.280308
3888	0.184011
3884	0.119590
3880	0.156092
3876	0.202608
3872	0.194358
3868	0.113034
3864	0.030350
3860	0.009989
3856	0.092244
3852	0.146150
3848	0.079298
3844	0.026988
3840	0.045919
3836	0.174713
3832	0.252628
3828	0.113010
3824	-0.055694
3820	-0.066375
3816	0.048542
3812	0.069212
3808	-0.046944
3804	-0.105524
3800	-0.029850
3796	0.058460
3792	0.000429
3788	-0.028896
3784	0.075840
3780	0.109457
3776	0.119948
3772	0.149321
3768	0.126695
3764	0.080657
3760	0.019431
3756	0.007128
3752	0.031518
3748	0.027155
3744	-0.029015
3740	-0.064730
3736	0.055575
3732	0.117444
3728	0.018215
3724	-0.048565
3720	-0.091028
3716	-0.105309
3712	-0.058293
3708	0.039315
3704	0.177288
3700	0.211620
3696	0.080966
3692	-0.068783
3688	-0.054097
3684	0.033283
3680	0.037312
3676	0.022006
3672	0.065350
3668	0.130605
3664	0.165081
3660	0.174951
3656	0.177216
3652	0.129508
3648	0.032305
3644	-0.020265
3640	-0.010752
3636	0.049853
3632	0.079488
3628	0.010776
3624	-0.039291
3620	-0.070834
3616	-0.101852
3612	-0.036191
3608	0.109481
3604	0.151753
3600	0.064039
3596	-0.003027
3592	-0.013995
3588	-0.019216
3584	-0.059103
3580	-0.047874
3576	0.064587
3572	0.102615
3568	0.008440
3564	-0.059819
3560	0.025486
3556	0.159478
3552	0.210475
3548	0.163173
3544	0.010323
3540	-0.054979
3536	0.034451
3532	0.097346
3528	0.083184
3524	0.058269
3520	0.101256
3516	0.105142
3512	0.073075
3508	0.129294
3504	0.167131
3500	0.165414
3496	0.163149
3492	0.146174
3488	0.133275
3484	0.128579
3480	0.140714
3476	0.101089
3472	0.019884
3468	-0.065922
3464	-0.077652
3460	0.105571
3456	0.191187
3452	0.075221
3448	0.057959
3444	0.150036
3440	0.204133
3436	0.139784
3432	0.054860
3428	0.036048
3424	-0.037860
3420	-0.122642
3416	-0.062513
3412	0.016999
3408	0.028014
3404	0.097775
3400	0.125455
3396	0.046896
3392	0.001144
3388	0.032019
3384	0.128388
3380	0.211763
3376	0.183439
3372	0.088429
3368	0.040769
3364	0.025439
3360	-0.009775
3356	-0.019836
3352	-0.006794
3348	0.013828
3344	0.031852
3340	-0.032949
3336	-0.128340
3332	-0.145816
3328	-0.125408
3324	-0.075626
3320	-0.021386
3316	-0.032734
3312	-0.064277
3308	-0.073838
3304	-0.025367
3300	0.067615
3296	0.109243
3292	0.126481
3288	0.130605
3284	0.063538
3280	-0.039935
3276	-0.105071
3272	-0.097298
3268	-0.057482
3264	-0.010752
3260	0.058603
3256	0.139689
3252	0.160002
3248	0.117492
3244	0.083184
3240	0.103688
3236	0.179672
3232	0.219655
3228	0.184321
3224	0.122261
3220	0.094747
3216	0.097441
3212	0.088548
3208	0.101947
3204	0.153756
3200	0.185704
3196	0.143742
3192	0.100016
3188	0.127792
3184	0.121331
3180	0.079369
3176	0.108456
3172	0.160241
3168	0.164699
3164	0.077915
3160	-0.046086
3156	-0.055050
3152	0.025105
3148	0.031042
3144	-0.060462
3140	-0.124692
3136	-0.107479
3132	-0.058555
3128	-0.013399
3124	0.049567
3120	0.097489
3116	0.103092
3112	0.099396
3108	0.074529
3104	0.086712
3100	0.152397
3096	0.135898
3092	0.020384
3088	-0.045371
3084	0.010061
3080	0.092411
3076	0.033760
3072	-0.078248
3068	-0.082659
3064	-0.053644
3060	0.005340
3056	0.052428
3052	0.066161
3048	0.129699
3044	0.129461
3040	0.006937
3036	-0.100350
3032	-0.076985
3028	0.042295
3024	0.131225
3020	0.122117
3016	0.056529
3012	0.021433
3008	0.051879
3004	0.115704
3000	0.132966
2996	0.079298
2992	0.001025
2988	-0.054192
2984	-0.045251
2980	0.018048
2976	0.087547
2972	0.105047
2968	0.078797
2964	0.031995
2960	-0.031733
2956	-0.030279
2952	0.041866
2948	0.107216
2944	0.139904
2940	0.104689
2936	0.017428
2932	-0.004529
2928	0.040912
2924	0.073146
2920	0.056886
2916	0.054216
2912	0.143456
2908	0.186324
2904	0.134420
2900	0.104284
2896	0.048470
2892	0.003576
2888	0.063180
2884	0.136804
2880	0.114345
2876	0.025939
2872	0.016188
2868	0.108551
2864	0.168514
2860	0.208330
2856	0.287795
2852	0.292086
2848	0.220251
2844	0.131344
2840	0.034046
2836	-0.009322
2832	-0.011014
2828	-0.018620
2824	-0.005149
2820	0.051498
2816	0.074672
2812	0.023508
2808	-0.014042
2804	-0.009846
2800	-0.026798
2796	-0.087785
2792	-0.076341
2788	0.034999
2784	0.111150
2780	0.110864
2776	0.042295
2772	-0.017404
2768	-0.053215
2764	-0.080680
2760	-0.059723
2756	-0.051903
2752	-0.029420
2748	0.020790
2744	0.046324
2740	0.059652
2736	0.037050
2732	-0.025248
2728	-0.087094
2724	-0.127387
2720	-0.106120
2716	-0.028586
2712	0.082612
2708	0.183749
2704	0.190305
2700	0.128078
2696	0.036311
2692	-0.032091
2688	-0.002813
2684	0.038170
2680	0.040125
2676	0.049281
2672	0.065732
2668	0.085520
2664	0.125026
2660	0.108981
2656	-0.005412
2652	-0.050520
2648	-0.039410
2644	-0.076365
2640	-0.055956
2636	0.001215
2632	0.019907
2628	0.036597
2624	0.071120
2620	0.084090
2616	0.050544
2612	-0.012016
2608	-0.065684
2604	-0.063920
2600	-0.006842
2596	0.101304
2592	0.174117
2588	0.140905
2584	0.093746
2580	0.064706
2576	0.023961
2572	0.009179
2568	0.016856
2564	-0.006413
2560	-0.022673
2556	-0.012040
2552	-0.032639
2548	-0.055503
2544	-0.022101
2540	-0.007271
2536	-0.054311
2532	-0.049686
2528	0.016951
2524	0.031399
2520	-0.023317
2516	-0.074553
2512	-0.123548
2508	-0.127696
2504	-0.003314
2500	0.109124
2496	0.091171
2492	0.101447
2488	0.164747
2484	0.176954
2480	0.170660
2476	0.116324
2472	0.060510
2468	0.126838
2464	0.218629
2460	0.206780
2456	0.166416
2452	0.157690
2448	0.122809
2444	0.077557
2440	0.050473
2436	0.092029
2432	0.197529
2428	0.172472
2424	0.059270
2420	0.006484
2416	0.016689
2412	0.100088
2408	0.102567
2404	0.037717
2400	0.030565
2396	0.038671
2392	0.042533
2388	0.049853
2384	0.056743
2380	0.045919
2376	0.063300
2372	0.101876
2368	0.137615
2364	0.167775
2360	0.203680
2356	0.256896
2352	0.247454
2348	0.214052
2344	0.240445
2340	0.310039
2336	0.382566
2332	0.422620
2328	0.433778
2324	0.425457
2320	0.432705
2316	0.521564
2312	0.652122
2308	0.723648
2304	0.770092
2300	0.851106
2296	0.964617
2292	1.110196
2288	1.245856
2284	1.323342
2280	1.364827
2276	1.414370
2272	1.492190
2268	1.575565
2264	1.656937
2260	1.837325
2256	2.093935
2252	2.293157
2248	2.459597
2244	2.677869
2240	2.914094
2236	3.087806
2232	3.258061
2228	3.441405
2224	3.646802
2220	3.937888
2216	4.226374
2212	4.496622
2208	4.821252
2204	5.179238
2200	5.540037
2196	5.859112
2192	6.114983
2188	6.420350
2184	6.818819
2180	7.222437
2176	7.626247
2172	8.041834
2168	8.421111
2164	8.750605
2160	9.148478
2156	9.626364
2152	10.065
2148	10.4391
2144	10.781
2140	11.2014
2136	11.6775
2132	12.1483
2128	12.6325
2124	13.0635
2120	13.532
2116	14.1087
2112	14.6171
2108	14.979
2104	15.2758
2100	15.6385
2096	16.1319
2092	16.6651
2088	17.1686
2084	17.5918
2080	17.8406
2076	18.0773
2072	18.4384
2068	18.7811
2064	19.1815
2060	19.7109
2056	20.1679
2052	20.5084
2048	20.8552
2044	21.2143
2040	21.5382
2036	21.8246
2032	22.1229
2028	22.421
2024	22.6709
2020	22.9486
2016	23.2394
2012	23.5325
2008	23.8759
2004	24.1799
2000	24.4414
1996	24.721
1992	24.9723
1988	25.2111
1984	25.4703
1980	25.6888
1976	25.8865
1972	26.0875
1968	26.2767
1964	26.4753
1960	26.6723
1956	26.844
1952	26.9901
1948	27.1719
1944	27.3637
1940	27.5019
1936	27.6871
1932	27.8911
1928	28.0019
1924	28.1118
1920	28.2849
1916	28.4498
1912	28.6324
1908	28.8205
1904	28.984
1900	29.1561
1896	29.2583
1892	29.2934
1888	29.3573
1884	29.4697
1880	29.6216
1876	29.7845
1872	29.9253
1868	30.0182
1864	30.0819
1860	30.1857
1856	30.3023
1852	30.3686
1848	30.4343
1844	30.5275
1840	30.619
1836	30.7194
1832	30.8484
1828	30.9381
1824	30.9824
1820	31.0305
1816	31.0885
1812	31.1816
1808	31.2582
1804	31.3064
1800	31.3828
1796	31.4856
1792	31.6034
1788	31.6694
1784	31.7088
1780	31.7875
1776	31.8201
1772	31.8224
1768	31.8824
1764	31.9458
1760	31.9149
1756	31.9013
1752	31.9916
1748	32.0204
1744	32.0056
1740	32.1004
1736	32.2441
1732	32.3346
1728	32.3825
1724	32.3405
1720	32.2756
1716	32.3418
1712	32.4396
1708	32.4924
1704	32.5611
1700	32.6335
1696	32.6471
1692	32.6786
1688	32.8164
1684	32.905
1680	32.8632
1676	32.8095
1672	32.8514
1668	32.9487
1664	32.9614
1660	32.9717
1656	33.047
1652	33.0656
1648	33.0241
1644	32.9903
1640	33.0149
1636	33.0691
1632	33.1026
1628	33.1635
1624	33.2148
1620	33.2468
1616	33.2731
1612	33.2144
1608	33.138
1604	33.1547
1600	33.221
1596	33.2621
1592	33.267
1588	33.2025
1584	33.1002
1580	33.0875
1576	33.1739
1572	33.289
1568	33.4065
1564	33.5323
1560	33.6368
1556	33.6483
1552	33.5748
1548	33.5032
1544	33.537
1540	33.6068
1536	33.5238
1532	33.3933
1528	33.4326
1524	33.5578
1520	33.5755
1516	33.5335
1512	33.5548
1508	33.6257
1504	33.6558
1500	33.6724
1496	33.7729
1492	33.8302
1488	33.7731
1484	33.742
1480	33.701
1476	33.6303
1472	33.5799
1468	33.5478
1464	33.6436
1460	33.8156
1456	33.8125
1452	33.6406
1448	33.5162
1444	33.5636
1440	33.6905
1436	33.7339
1432	33.7441
1428	33.7821
1424	33.7578
1420	33.7222
1416	33.7424
1412	33.7371
1408	33.6492
1404	33.5541
1400	33.5709
1396	33.6197
1392	33.5883
1388	33.6223
1384	33.7496
1380	33.8143
1376	33.8485
1372	33.8701
1368	33.7783
1364	33.6043
1360	33.537
1356	33.6113
1352	33.6784
1348	33.66
1344	33.609
1340	33.6087
1336	33.6285
1332	33.6546
1328	33.6879
1324	33.6706
1320	33.6459
1316	33.6894
1312	33.7388
1308	33.7259
1304	33.6707
1300	33.5647
1296	33.4665
1292	33.4526
1288	33.4443
1284	33.452
1280	33.5467
1276	33.5902
1272	33.5294
1268	33.5057
1264	33.5227
1260	33.5251
1256	33.5902
1252	33.6706
1248	33.6719
1244	33.6138
1240	33.4717
1236	33.3205
1232	33.2789
1228	33.3043
1224	33.3239
1220	33.3524
1216	33.4031
1212	33.4809
1208	33.5534
1204	33.5054
1200	33.409
1196	33.3961
1192	33.3966
1188	33.3585
1184	33.3434
1180	33.3714
1176	33.3758
1172	33.3074
1168	33.2311
1164	33.2229
1160	33.2374
1156	33.2419
1152	33.2926
1148	33.3607
1144	33.4014
1140	33.4382
1136	33.4055
1132	33.2871
1128	33.2433
1124	33.2405
1120	33.1445
1116	33.0549
1112	33.0467
1108	33.007
1104	32.9314
1100	32.8285
1096	32.689
1092	32.6711
1088	32.7915
1084	32.9341
1080	32.9793
1076	32.936
1072	32.9913
1068	33.0425
1064	32.986
1060	32.9443
1056	32.8248
1052	32.6287
1048	32.585
1044	32.6045
1040	32.5528
1036	32.4973
1032	32.4608
1028	32.5116
1024	32.736
1020	32.9667
1016	32.9135
1012	32.7724
1008	32.7339
1004	32.5843
1000	32.3993
996	 32.3875
992	 32.501
988	 32.5273
984	 32.3354
980	 32.1102
976	 32.1031
972	 32.2128
968	 32.2493
964	 32.263
960	 32.2824
956	 32.2189
952	 32.0859
948	 32.0236
944	 32.0724
940	 32.1488
936	 32.1725
932	 32.1651
928	 32.1075
924	 31.9799
920	 31.8626
916	 31.758
912	 31.7263
908	 31.7461
904	 31.723
900	 31.7554
896	 31.8867
892	 31.9354
888	 31.8466
884	 31.7792
880	 31.6684
876	 31.4546
872	 31.3011
868	 31.3211
864	 31.3894
860	 31.3087
856	 31.2184
852	 31.1579
848	 30.9269
844	 30.7518
840	 30.7865
836	 30.7961
832	 30.8729
828	 31.0403
824	 31.0095
820	 30.9448
816	 30.983
812	 30.9244
808	 30.7377
804	 30.5473
800	 30.5106
796	 30.5594
792	 30.4756
788	 30.3507
784	 30.3636
780	 30.3524
776	 30.3288
772	 30.3603
768	 30.3096
764	 30.3684
760	 30.6443
756	 30.8478
752	 30.8693
748	 30.7932
744	 30.6018
740	 30.3236
736	 30.0976
732	 29.8569
728	 29.5893
724	 29.5059
720	 29.5301
716	 29.592
712	 29.7159
708	 29.7256
704	 29.6094
700	 29.5242
696	 29.5227
692	 29.5718
688	 29.5072
684	 29.2001
680	 28.9008
676	 28.8313
672	 28.719
668	 28.3253
664	 27.9506
660	 27.9934
656	 28.2243
652	 28.2536
648	 28.2218
644	 28.2508
640	 28.3546
636	 28.478
632	 28.3529
628	 28.0996
624	 28.0313
620	 28.045
616	 27.9484
612	 27.7691
608	 27.6817
604	 27.669
600	 27.4126
596	 26.9534
592	 26.7528
588	 26.8313
584	 26.8548
580	 26.9423
576	 27.2079
572	 27.2917
568	 27.0537
564	 26.9212
560	 26.9988
556	 26.6957
552	 25.9593
548	 25.5055
544	 25.7024
540	 26.1857
536	 26.1995
532	 25.8247
528	 25.9197
524	 26.2013
520	 26.3521
516	 26.863
512	 26.9442
508	 26.217
504	 25.6964
500	 25.4672
496	 25.0344
492	 24.6068
488	 24.5577
484	 24.2374
480	 23.49
476	 23.342
472	 23.6736
468	 24.3218
464	 25.3342
460	 24.8627
456	 22.826
452	 22.6178
448	 24.1728
444	 24.1712
440	 22.2444
436	 19.369
432	 17.0814
428	 17.8296
424	 19.8993
420	 20.3182
416	 19.8853
412	 19.8146
408	 21.0578
404	 26.9056
400	 41.1179
396	 54.2575
392	 60.5321
388	 59.9837
384	 37.1265
380	 6.458902
376	 -12.7665
372	 8.733630
370	 35.3394