File: Bakgrunnsmateriale/MATLAB/FTIR/ftir_data/LPE454/Mapping_121/LPE454_t01_cm-1.asc
PE IR       SPECTRUM    SPECTRUM    ASCII       PEDS        1.60
  -1
LPE454~3.ASC
17/05/19
14:29:21.00
17/05/19
14:29:21.00
tln
$LPE454_t0001$<tbV0>[13.0,-13.0,8.0,0.0,27,1,0]
370
64

2002,4.07
MIRTGS : RIGHTBACK : INTERNAL 2
MIR : ON : INTERNAL 2
OPTKBR

0.200000
8
8.000000
FILLER
RATIO
SPECTRUM
UNLOCKED 256

DOUBLE
64
COMBINED
1
0
0

1.000000
RATIO

1
0
TRUE
51149
0
LEFT NOT FITTED RIGHT NOT FITTED 0
NONE
NONE
15600
12
4.427000
51148
TRUE
1 0 8 72 0 0 0 0

15798

#HDR
-1
-1
#GR
CM-1
%T
2.38419e-05
0.0
5000
-1.000000
4631
8
46.0055
-35.7271
#DATA
5000	0.215363
4996	0.147962
4992	-0.086212
4988	-0.210404
4984	-0.215673
4980	-0.007414
4976	0.373291
4972	0.718355
4968	0.686001
4964	0.335121
4960	0.149416
4956	0.143241
4952	-0.095415
4948	-0.387096
4944	-0.204491
4940	0.201678
4936	0.264692
4932	-0.035691
4928	-0.007796
4924	0.347399
4920	0.350499
4916	0.169634
4912	-0.213956
4908	-0.714778
4904	-0.849223
4900	-0.393867
4896	0.563526
4892	1.259112
4888	1.139163
4884	0.357222
4880	-0.147509
4876	-0.170707
4872	-0.472664
4868	0.640249
4864	3.143453
4860	3.952622
4856	2.865767
4852	1.254558
4848	0.669503
4844	0.623250
4840	-0.280904
4836	-0.932836
4832	-0.703978
4828	0.477480
4824	1.587796
4820	1.289224
4816	0.397825
4812	-0.023603
4808	-0.066089
4804	0.084900
4800	0.447416
4796	0.591921
4792	0.444436
4788	0.318813
4784	0.385165
4780	0.494170
4776	0.394177
4772	0.258111
4768	0.152826
4764	0.061154
4760	0.112175
4756	0.321388
4752	0.456547
4748	0.262689
4744	-0.174880
4740	-0.438117
4736	-0.389266
4732	-0.179314
4728	0.159263
4724	0.316810
4720	0.232672
4716	0.225234
4712	0.297212
4708	0.204062
4704	0.100684
4700	0.166821
4696	0.156617
4692	0.102972
4688	0.147914
4684	0.097250
4680	-0.149989
4676	-0.177145
4672	0.067591
4668	0.096201
4664	-0.057458
4660	-0.022411
4656	0.154662
4652	0.223612
4648	0.243663
4644	0.322937
4640	0.372242
4636	0.335979
4632	0.186014
4628	-0.034785
4624	-0.192475
4620	-0.057864
4616	0.333714
4612	0.352001
4608	0.041127
4604	0.044298
4600	0.255560
4596	0.137329
4592	-0.200605
4588	-0.280809
4584	-0.093889
4580	0.049352
4576	0.009584
4572	0.037598
4568	-0.054216
4564	-0.314021
4560	-0.316739
4556	-0.136017
4552	-0.211358
4548	-0.268816
4544	-0.089716
4540	-0.008058
4536	-0.049185
4532	-0.072360
4528	-0.144481
4524	-0.164270
4520	0.004124
4516	0.150561
4512	0.179386
4508	0.027394
4504	-0.251483
4500	-0.402903
4496	-0.517797
4492	-0.787425
4488	-0.817275
4484	-0.732016
4480	-0.291609
4476	0.378465
4472	2.090668
4468	6.917142
4464	13.8029
4460	18.8009
4456	13.9663
4452	4.300642
4448	0.922656
4444	1.067304
4440	0.934624
4436	0.645208
4432	-0.100016
4428	-0.475001
4424	-0.614070
4420	-0.642871
4416	-0.466418
4412	-0.220346
4408	-0.240325
4404	-0.480151
4400	-0.603127
4396	-0.448846
4392	-0.166249
4388	-0.175905
4384	-0.326538
4380	-0.413584
4376	-0.451135
4372	-0.426840
4368	-0.367975
4364	-0.181579
4360	0.016474
4356	0.154662
4352	0.296425
4348	0.374913
4344	0.369215
4340	0.364780
4336	0.529432
4332	0.590324
4328	0.379991
4324	0.141811
4320	0.052213
4316	0.127339
4312	0.292968
4308	0.386285
4304	0.278973
4300	0.085687
4296	0.055003
4292	0.097584
4288	0.091004
4284	0.128698
4280	0.206661
4276	0.214457
4272	0.191807
4268	0.158119
4264	0.050878
4260	-0.080704
4256	-0.121784
4252	-0.100111
4248	-0.002098
4244	0.142574
4240	0.129342
4236	0.011610
4232	0.016975
4228	0.113320
4224	0.232887
4220	0.246381
4216	0.092506
4212	-0.018954
4208	0.012683
4204	0.065255
4200	0.049018
4196	-0.072503
4192	-0.168037
4188	-0.168156
4184	-0.299906
4180	-0.314569
4176	0.048828
4172	0.367593
4168	0.252246
4164	0.040912
4160	0.081682
4156	0.119662
4152	0.150728
4148	0.358247
4144	0.438761
4140	0.302696
4136	0.228381
4132	0.222468
4128	0.191593
4124	0.117588
4120	0.165939
4116	0.335431
4112	0.392770
4108	0.322341
4104	0.216317
4100	0.211215
4096	0.227022
4092	0.163888
4088	0.116658
4084	0.088524
4080	0.090742
4076	0.041031
4072	-0.072312
4068	-0.060129
4064	0.060415
4060	0.126004
4056	0.065374
4052	-0.085306
4048	-0.172996
4044	-0.128626
4040	0.009274
4036	0.094747
4032	-0.026845
4028	-0.127005
4024	-0.020003
4020	0.119853
4016	0.103330
4012	-0.001239
4008	0.020766
4004	0.138974
4000	0.144290
3996	0.078868
3992	-0.021886
3988	-0.092506
3984	-0.025224
3980	0.011849
3976	-0.035238
3972	-0.068116
3968	0.020051
3964	0.145578
3960	0.204372
3956	0.201582
3952	0.103020
3948	0.042581
3944	0.035405
3940	0.038385
3936	0.070357
3932	0.115919
3928	0.153565
3924	0.090241
3920	0.014448
3916	-0.018405
3912	-0.091743
3908	-0.107669
3904	-0.064778
3900	0.018644
3896	0.217223
3892	0.364232
3888	0.258612
3884	0.041079
3880	-0.023221
3876	0.027298
3872	0.074505
3868	0.116086
3864	0.130915
3860	0.062751
3856	-0.000667
3852	0.082039
3848	0.146603
3844	0.050616
3840	-0.042271
3836	-0.032138
3832	0.013971
3828	0.071907
3824	0.077581
3820	-0.032377
3816	-0.108909
3812	-0.036311
3808	0.002193
3804	-0.031447
3800	0.004625
3796	0.092124
3792	0.138640
3788	0.086808
3784	0.048375
3780	0.048255
3776	0.008678
3772	0.039386
3768	0.155210
3764	0.213408
3760	0.183844
3756	0.087642
3752	-0.026631
3748	-0.082492
3744	-0.108933
3740	-0.135135
3736	-0.087642
3732	0.039124
3728	0.134181
3724	0.168609
3720	0.178909
3716	0.231337
3712	0.314903
3708	0.303578
3704	0.282001
3700	0.302243
3696	0.275087
3692	0.201129
3688	0.076699
3684	-0.026249
3680	-0.045585
3676	-0.024867
3672	-0.035238
3668	-0.097131
3664	-0.075602
3660	0.032377
3656	0.073194
3652	0.086164
3648	0.129270
3644	0.072216
3640	-0.010085
3636	0.037813
3632	0.072073
3628	0.037693
3624	-0.003194
3620	-0.038290
3616	-0.042629
3612	-0.061988
3608	-0.031590
3604	0.145316
3600	0.262975
3596	0.141644
3592	-0.033283
3588	-0.066661
3584	0.006842
3580	0.041151
3576	-0.030493
3572	-0.091361
3568	-0.057268
3564	0.024557
3560	0.087785
3556	0.089836
3552	0.092196
3548	0.089168
3544	0.026726
3540	-0.017905
3536	0.013351
3532	0.045490
3528	-0.042700
3524	-0.169420
3520	-0.136041
3516	0.003838
3512	0.069403
3508	0.068092
3504	0.108575
3500	0.193309
3496	0.176000
3492	0.094795
3488	0.109696
3484	0.038123
3480	-0.043535
3476	0.089550
3472	0.151586
3468	0.022983
3464	-0.096368
3460	-0.093770
3456	-0.012207
3452	0.013327
3448	-0.006771
3444	-0.048613
3440	-0.078964
3436	0.009012
3432	0.176596
3428	0.212478
3424	0.106787
3420	0.048327
3416	0.020599
3412	-0.042819
3408	0.007510
3404	0.163960
3400	0.186681
3396	0.100517
3392	0.026178
3388	-0.046753
3384	-0.071859
3380	-0.043058
3376	0.027179
3372	0.094389
3368	0.065374
3364	0.014233
3360	0.067067
3356	0.162196
3352	0.172400
3348	0.118374
3344	0.086379
3340	0.054216
3336	0.011515
3332	-0.018596
3328	0.004148
3324	0.104570
3320	0.114393
3316	-0.016093
3312	-0.113630
3308	-0.081562
3304	0.037884
3300	0.093460
3296	0.066232
3292	0.100851
3288	0.159645
3284	0.083518
3280	-0.037217
3276	-0.046253
3272	0.001144
3268	0.046610
3264	0.027298
3260	-0.006914
3256	-0.029087
3252	-0.056457
3248	-0.062155
3244	-0.061583
3240	-0.058269
3236	-0.036096
3232	0.021457
3228	0.041198
3224	-0.035977
3220	-0.068235
3216	0.007033
3212	0.126862
3208	0.222420
3204	0.164413
3200	0.025677
3196	-0.010418
3192	0.053238
3188	0.130915
3184	0.180888
3180	0.160408
3176	0.083303
3172	0.006198
3168	0.006961
3164	0.070095
3160	0.095343
3156	0.032472
3152	-0.015306
3148	-0.018143
3144	-0.047230
3140	0.005602
3136	0.132560
3132	0.132465
3128	0.056457
3124	0.083303
3120	0.196814
3116	0.247764
3112	0.117135
3108	0.007748
3104	0.031590
3100	0.051808
3096	0.084400
3092	0.061130
3088	-0.033640
3084	-0.072789
3080	-0.038433
3076	0.046730
3072	0.074505
3068	-0.037646
3064	-0.126886
3060	-0.033402
3056	0.124192
3052	0.184059
3048	0.154352
3044	0.077843
3040	-0.016546
3036	-0.051164
3032	-0.016093
3028	0.003838
3024	0.030016
3020	0.090050
3016	0.071024
3012	-0.028657
3008	-0.046467
3004	0.025033
3000	0.070142
2996	0.053334
2992	0.002861
2988	-0.015950
2984	0.008678
2980	0.053095
2976	0.076484
2972	0.045442
2968	-0.026655
2964	-0.138926
2960	-0.170183
2956	-0.115489
2952	-0.106334
2948	-0.097703
2944	-0.005483
2940	0.099420
2936	0.129389
2932	0.049352
2928	-0.061631
2924	-0.084638
2920	-0.084471
2916	-0.100660
2912	-0.093913
2908	-0.043106
2904	0.013518
2900	0.015139
2896	0.013518
2892	0.052404
2888	0.066089
2884	0.019526
2880	0.006771
2876	-0.014758
2872	-0.066900
2868	-0.019168
2864	0.108885
2860	0.172734
2856	0.125002
2852	0.108742
2848	0.188589
2844	0.187635
2840	0.093030
2836	0.034785
2832	0.018405
2828	0.023031
2824	0.042414
2820	0.055575
2816	0.049042
2812	0.037503
2808	0.058627
2804	0.086688
2800	0.063276
2796	0.023007
2792	0.023508
2788	0.050926
2784	0.064873
2780	0.075674
2776	0.064492
2772	0.020480
2768	0.001716
2764	0.007891
2760	-0.006031
2756	-0.017905
2752	0.020337
2748	0.052952
2744	0.026559
2740	-0.013542
2736	-0.026249
2732	-0.002217
2728	0.063848
2724	0.125050
2720	0.104880
2716	0.034403
2712	-0.034499
2708	-0.074481
2704	-0.026273
2700	0.061082
2696	0.056552
2692	-0.010395
2688	-0.040459
2684	-0.047516
2680	0.001692
2676	0.107622
2672	0.152993
2668	0.128912
2664	0.109362
2660	0.097250
2656	0.088143
2652	0.057911
2648	0.001120
2644	-0.018453
2640	-0.001788
2636	0.032806
2632	0.080394
2628	0.116443
2624	0.112605
2620	0.085353
2616	0.060462
2612	0.041842
2608	0.044536
2604	0.057482
2600	0.055742
2596	0.011110
2592	-0.047588
2588	-0.070881
2584	-0.055503
2580	-0.002813
2576	0.069642
2572	0.085854
2568	0.034332
2564	0.019359
2560	0.033569
2556	-0.022912
2552	-0.040698
2548	0.018572
2544	0.013780
2540	0.001478
2536	0.002837
2532	-0.071978
2528	-0.121593
2524	-0.064945
2520	-0.030755
2516	-0.039982
2512	0.050282
2508	0.193548
2504	0.273919
2500	0.280213
2496	0.208139
2492	0.176501
2488	0.226712
2484	0.226378
2480	0.139331
2476	0.052356
2472	0.016427
2468	-0.019145
2464	-0.023555
2460	0.016880
2456	-0.016498
2452	-0.067877
2448	-0.063180
2444	-0.044035
2440	0.000309
2436	0.047326
2432	0.026297
2428	-0.069737
2424	-0.047349
2420	0.112581
2416	0.146222
2412	0.140523
2408	0.152754
2404	0.076794
2400	0.049567
2396	-0.033044
2392	-0.165033
2388	-0.123286
2384	0.007462
2380	0.085258
2376	0.061321
2372	0.044679
2368	0.061321
2364	0.018525
2360	-0.014448
2356	-0.013208
2352	0.004172
2348	0.023269
2344	0.024366
2340	0.041437
2336	0.051403
2332	0.050687
2328	0.078296
2324	0.095558
2320	0.062251
2316	0.054287
2312	0.080990
2308	0.072741
2304	0.045895
2300	0.038886
2296	0.053405
2292	0.102710
2288	0.152349
2284	0.176429
2280	0.170683
2276	0.101065
2272	0.076866
2268	0.139188
2264	0.173783
2260	0.175309
2256	0.155973
2252	0.125241
2248	0.125503
2244	0.160241
2240	0.208902
2236	0.253939
2232	0.309944
2228	0.395059
2224	0.466585
2220	0.506401
2216	0.551509
2212	0.591039
2208	0.613141
2204	0.662684
2200	0.689005
2196	0.690841
2192	0.768756
2188	0.863099
2184	0.937771
2180	1.032495
2176	1.105260
2172	1.094222
2168	1.094412
2164	1.219677
2160	1.367878
2156	1.506447
2152	1.597762
2148	1.544022
2144	1.547122
2140	1.713085
2136	1.862287
2132	1.967883
2128	2.099108
2124	2.212309
2120	2.285385
2116	2.377939
2112	2.477598
2108	2.584052
2104	2.723503
2100	2.840900
2096	2.926492
2092	3.087329
2088	3.353738
2084	3.555083
2080	3.557205
2076	3.443074
2072	3.471326
2068	3.709650
2064	3.856420
2060	3.825306
2056	3.851103
2052	3.969764
2048	4.083871
2044	4.166030
2040	4.242086
2036	4.339456
2032	4.440069
2028	4.566144
2024	4.691529
2020	4.751968
2016	4.807281
2012	4.915738
2008	5.000352
2004	5.054807
2000	5.128240
1996	5.219674
1992	5.305218
1988	5.377507
1984	5.479693
1980	5.572986
1976	5.631923
1972	5.650043
1968	5.632638
1964	5.695486
1960	5.816030
1956	5.862736
1952	5.857825
1948	5.908226
1944	6.024694
1940	6.104874
1936	6.108808
1932	6.133985
1928	6.192612
1924	6.194067
1920	6.222796
1916	6.315636
1912	6.366419
1908	6.412529
1904	6.484127
1900	6.505465
1896	6.485629
1892	6.519079
1888	6.593346
1884	6.612014
1880	6.594777
1876	6.619787
1872	6.642293
1868	6.652855
1864	6.717991
1860	6.774044
1856	6.771516
1852	6.758713
1848	6.764197
1844	6.759810
1840	6.732869
1836	6.753206
1832	6.823110
1828	6.852459
1824	6.838250
1820	6.835484
1816	6.829738
1812	6.810021
1808	6.809163
1804	6.828951
1800	6.869649
1796	6.938385
1792	6.980395
1788	6.966829
1784	6.959652
1780	6.992959
1776	7.005095
1772	6.972527
1768	6.991696
1764	7.052826
1760	7.055091
1756	7.082176
1752	7.164812
1748	7.162737
1744	7.103800
1740	7.090449
1736	7.091569
1732	7.084560
1728	7.154941
1724	7.232713
1720	7.188534
1716	7.139086
1712	7.179331
1708	7.283568
1704	7.349967
1700	7.310819
1696	7.247781
1692	7.209467
1688	7.253980
1684	7.347416
1680	7.362985
1676	7.345652
1672	7.323336
1668	7.270550
1664	7.273721
1660	7.355451
1656	7.404994
1652	7.366585
1648	7.305312
1644	7.262587
1640	7.251286
1636	7.285046
1632	7.339930
1628	7.389187
1624	7.390570
1620	7.349205
1616	7.303237
1612	7.253146
1608	7.244968
1604	7.298064
1600	7.355952
1596	7.377600
1592	7.347130
1588	7.313919
1584	7.313370
1580	7.321143
1576	7.355952
1572	7.400369
1568	7.423162
1564	7.441568
1560	7.428193
1556	7.404398
1552	7.405018
1548	7.386088
1544	7.394123
1540	7.440829
1536	7.404494
1532	7.300162
1528	7.255578
1524	7.304787
1520	7.347464
1516	7.347846
1512	7.408571
1508	7.475399
1504	7.468295
1500	7.470560
1496	7.455039
1492	7.352876
1488	7.245826
1484	7.254934
1480	7.403135
1476	7.523775
1472	7.512450
1468	7.422876
1464	7.325959
1460	7.350564
1456	7.502055
1452	7.576560
1448	7.508802
1444	7.469105
1440	7.526159
1436	7.558965
1432	7.518792
1428	7.461476
1424	7.443428
1420	7.470965
1416	7.474350
1412	7.471966
1408	7.501578
1404	7.503509
1400	7.484054
1396	7.483506
1392	7.497882
1388	7.514858
1384	7.471108
1380	7.385349
1376	7.394766
1372	7.471799
1368	7.507777
1364	7.538723
1360	7.566189
1356	7.501316
1352	7.437086
1348	7.484054
1344	7.501435
1340	7.440996
1336	7.438850
1332	7.490420
1328	7.455420
1324	7.355690
1320	7.357835
1316	7.440614
1312	7.436203
1308	7.372808
1304	7.390403
1300	7.472753
1296	7.507729
1292	7.437086
1288	7.339119
1284	7.305455
1280	7.363152
1276	7.438158
1272	7.447433
1268	7.445454
1264	7.438182
1260	7.416629
1256	7.411313
1252	7.391238
1248	7.359814
1244	7.365989
1240	7.409143
1236	7.429599
1232	7.395696
1228	7.335400
1224	7.270026
1220	7.281231
1216	7.382893
1212	7.420802
1208	7.392740
1204	7.415580
1200	7.520437
1196	7.650279
1192	7.696461
1188	7.592129
1184	7.471847
1180	7.454586
1176	7.465767
1172	7.486200
1168	7.483363
1164	7.426714
1160	7.355952
1156	7.334208
1152	7.378864
1148	7.443428
1144	7.470440
1140	7.424306
1136	7.416725
1132	7.426571
1128	7.395005
1124	7.430338
1120	7.473707
1116	7.485628
1112	7.452750
1108	7.286477
1104	7.160377
1100	7.229232
1096	7.288837
1092	7.244944
1088	7.207727
1084	7.181358
1080	7.176756
1076	7.193183
1072	7.271409
1068	7.372951
1064	7.402467
1060	7.385969
1056	7.399082
1052	7.458996
1048	7.441282
1044	7.355833
1040	7.266855
1036	7.233881
1032	7.246112
1028	7.199931
1024	7.190847
1020	7.274460
1016	7.327485
1012	7.267642
1008	7.208204
1004	7.249069
1000	7.279658
996	 7.313990
992	 7.309842
988	 7.182741
984	 7.094812
980	 7.051610
976	 7.022571
972	 7.085490
968	 7.173204
964	 7.176661
960	 7.191205
956	 7.236981
952	 7.140016
948	 6.987786
944	 6.966209
940	 7.043123
936	 7.115101
932	 7.109022
928	 7.096076
924	 7.150864
920	 7.145547
916	 7.038021
912	 6.970667
908	 6.952023
904	 6.901454
900	 6.895494
896	 7.007050
892	 7.064151
888	 6.933450
884	 6.876301
880	 6.972694
876	 7.033276
872	 7.085990
868	 7.060480
864	 6.957292
860	 6.914615
856	 6.898689
852	 6.878471
848	 6.891298
844	 6.916499
840	 6.910014
836	 6.884384
832	 6.816101
828	 6.704521
824	 6.694912
820	 6.851124
816	 6.951522
812	 6.782555
808	 6.591963
804	 6.617879
800	 6.666874
796	 6.781983
792	 6.946229
788	 6.871581
784	 6.723284
780	 6.726622
776	 6.725645
772	 6.674695
768	 6.641721
764	 6.597733
760	 6.531763
756	 6.425547
752	 6.326723
748	 6.255316
744	 6.296849
740	 6.555175
736	 6.728935
732	 6.640028
728	 6.608676
724	 6.715321
720	 6.721925
716	 6.486177
712	 6.221961
708	 6.182456
704	 6.144332
700	 5.982017
696	 5.936431
692	 6.106519
688	 6.257557
684	 6.242609
680	 6.259679
676	 6.287670
672	 6.264042
668	 6.444883
664	 6.660413
660	 6.440758
656	 5.974531
652	 5.777478
648	 5.826163
644	 5.910587
640	 5.924987
636	 5.715060
632	 5.569720
628	 5.870866
624	 6.274747
620	 6.305265
616	 6.062054
612	 5.869245
608	 5.952310
604	 6.180882
600	 6.149148
596	 5.967664
592	 5.796313
588	 5.608987
584	 5.631041
580	 5.563187
576	 5.239486
572	 5.141568
568	 5.190992
564	 5.103135
560	 5.071997
556	 5.045890
552	 4.916143
548	 5.128288
544	 5.580115
540	 5.619549
536	 5.347514
532	 5.346775
528	 5.517458
524	 5.540680
520	 5.551481
516	 5.522561
512	 5.254006
508	 4.957246
504	 5.040335
500	 5.025720
496	 4.619121
492	 4.296779
488	 4.478716
484	 5.338883
480	 5.727958
476	 4.941201
472	 4.425263
468	 5.032992
464	 5.482888
460	 5.518293
456	 5.832672
452	 5.603718
448	 5.029511
444	 6.014752
440	 7.486915
436	 7.101011
432	 6.670880
428	 6.762266
424	 5.786490
420	 4.490423
416	 4.650020
412	 7.122015
408	 14.34
404	 23.8724
400	 18.4946
396	 -1.231598
392	 -16.068
388	 -6.228494
384	 30.5133
380	 45.0622
376	 12.0968
372	 -35.7271
370	 -14.7108