File: Bakgrunnsmateriale/MATLAB/FTIR/ftir_data/LPE454/Mapping_121/LPE454_t13_cm-1.asc
PE IR       SPECTRUM    SPECTRUM    ASCII       PEDS        1.60
  -1
LPD730~1.ASC
17/05/19
15:25:18.00
17/05/19
15:25:18.00
tln
$LPE454_t0013$<tbV0>[10.4,-10.4,8.0,0.0,27,1,0]
370
64

2002,4.07
MIRTGS : RIGHTBACK : INTERNAL 2
MIR : ON : INTERNAL 2
OPTKBR

0.200000
8
8.000000
FILLER
RATIO
SPECTRUM
UNLOCKED 256

DOUBLE
64
COMBINED
1
0
0

1.000000
RATIO

1
0
TRUE
51149
0
LEFT NOT FITTED RIGHT NOT FITTED 0
NONE
NONE
15600
12
4.427000
51148
TRUE
1 0 8 72 0 0 0 0

15798

#HDR
-1
-1
#GR
CM-1
%T
2.38419e-05
0.0
5000
-1.000000
4631
8
121.224
-3.732895
#DATA
5000	0.424432
4996	0.557923
4992	0.402951
4988	0.094079
4984	0.037622
4980	0.306868
4976	0.686073
4972	0.693130
4968	0.088334
4964	-0.408697
4960	-0.163435
4956	0.327444
4952	0.589060
4948	0.510692
4944	0.138950
4940	0.011682
4936	0.227618
4932	0.263619
4928	0.142621
4924	0.179982
4920	0.285625
4916	0.274062
4912	0.307726
4908	0.432658
4904	0.341486
4900	0.264906
4896	0.371098
4892	0.431466
4888	0.446557
4884	0.479960
4880	0.572156
4876	0.582575
4872	0.389766
4868	0.155901
4864	0.119447
4860	0.290131
4856	0.315380
4852	0.078344
4848	-0.024867
4844	0.076746
4840	0.100588
4836	0.063467
4832	0.044250
4828	0.170803
4824	0.416707
4820	0.461888
4816	0.239467
4812	-0.001978
4808	-0.183033
4804	-0.372529
4800	-0.362563
4796	-0.219798
4792	0.007200
4788	0.724196
4784	1.093149
4780	0.328302
4776	-0.674533
4772	-0.972223
4768	-0.566768
4764	0.099349
4760	1.378202
4756	2.307605
4752	1.413869
4748	0.504827
4744	1.178526
4740	1.886010
4736	1.685690
4732	1.209640
4728	0.605678
4724	0.275945
4720	0.238633
4716	0.322461
4712	0.377154
4708	0.026011
4704	-0.153446
4700	-0.017452
4696	0.106406
4692	0.287199
4688	0.187182
4684	-0.162672
4680	-0.211119
4676	0.030159
4672	0.353527
4668	0.338101
4664	0.080728
4660	0.162839
4656	0.234866
4652	0.114941
4648	0.219106
4644	0.270938
4640	0.275635
4636	0.570249
4632	0.787425
4628	0.713801
4624	0.595068
4620	0.453567
4616	0.271582
4612	0.267386
4608	0.331258
4604	0.235438
4600	0.218677
4596	0.380778
4592	0.380969
4588	0.168561
4584	0.045275
4580	0.176429
4576	0.364780
4572	0.340008
4568	0.371789
4564	0.442910
4560	0.388669
4556	0.251650
4552	0.248742
4548	0.171923
4544	-0.173544
4540	-0.399494
4536	-0.474858
4532	-0.575876
4528	-0.468564
4524	-0.499129
4520	-1.027131
4516	-1.397442
4512	-1.341104
4508	-1.365017
4504	-1.495385
4500	-1.586031
4496	-1.124596
4492	0.567269
4488	4.152584
4484	8.418846
4480	13.159
4476	17.6286
4472	12.5233
4468	2.324628
4464	0.203204
4460	1.936149
4456	1.613044
4452	0.259804
4448	-0.664710
4444	-0.882339
4440	-0.861501
4436	-0.711441
4432	-0.692272
4428	-0.537848
4424	-0.407123
4420	-0.381159
4416	-0.222301
4412	0.033593
4408	0.200986
4404	0.122308
4400	-0.019741
4396	0.009584
4392	0.186705
4388	0.283098
4384	0.366091
4380	0.376749
4376	0.140762
4372	-0.006985
4368	0.108337
4364	0.385642
4360	0.718522
4356	0.807952
4352	0.600647
4348	0.441694
4344	0.392794
4340	0.318765
4336	0.322842
4332	0.413990
4328	0.410866
4324	0.261139
4320	0.094223
4316	0.034642
4312	0.012493
4308	0.040078
4304	0.173568
4300	0.252699
4296	0.253367
4292	0.200200
4288	0.198149
4284	0.334095
4280	0.435495
4276	0.471615
4272	0.451517
4268	0.218701
4264	-0.086760
4260	-0.075244
4256	0.174999
4252	0.265550
4248	0.105357
4244	-0.089168
4240	-0.116729
4236	-0.094270
4232	-0.081729
4228	0.006246
4224	-0.010013
4220	-0.164055
4216	-0.166177
4212	-0.029468
4208	0.083947
4204	0.186085
4200	0.209856
4196	0.299930
4192	0.351047
4188	0.078892
4184	0.102400
4180	0.630712
4176	0.747060
4172	0.434923
4168	0.276780
4164	0.193905
4160	0.054216
4156	0.015759
4152	0.151181
4148	0.187587
4144	0.064277
4140	0.048184
4136	0.151753
4132	0.191259
4128	0.160765
4124	0.174522
4120	0.202798
4116	0.142812
4112	0.015020
4108	-0.051259
4104	-0.052022
4100	0.042939
4096	0.133109
4092	0.095462
4088	0.084543
4084	0.115418
4080	0.055456
4076	-0.035572
4072	0.013232
4068	0.100922
4064	0.069689
4060	0.028061
4056	0.081443
4052	0.108742
4048	0.003385
4044	-0.109910
4040	-0.086498
4036	0.072336
4032	0.229930
4028	0.160956
4024	-0.011038
4020	-0.029873
4016	-0.021982
4012	-0.101733
4008	-0.235486
4004	-0.263094
4000	-0.086283
3996	0.016856
3992	-0.023603
3988	0.126886
3984	0.314974
3980	0.251388
3976	0.135421
3972	0.080108
3968	0.060486
3964	0.068211
3960	0.057911
3956	0.065350
3952	0.109457
3948	0.170421
3944	0.211524
3940	0.234365
3936	0.169229
3932	0.038909
3928	0.052952
3924	0.100898
3920	0.034618
3916	0.027990
3912	0.092458
3908	0.070762
3904	0.035023
3900	0.091576
3896	0.136947
3892	0.126338
3888	0.126218
3884	0.170397
3880	0.227046
3876	0.186514
3872	0.084042
3868	0.045180
3864	0.013351
3860	-0.078606
3856	-0.138115
3852	-0.077295
3848	-0.002145
3844	-0.015473
3840	-0.064539
3836	-0.014996
3832	0.229668
3828	0.427770
3824	0.302410
3820	0.047039
3816	-0.034236
3812	0.017046
3808	0.071549
3804	0.139617
3800	0.195145
3796	0.184130
3792	0.079154
3788	0.003910
3784	0.038051
3780	0.070691
3776	0.061225
3772	0.021624
3768	0.032734
3764	0.128746
3760	0.136971
3756	0.025796
3752	-0.052857
3748	-0.113320
3744	-0.132369
3740	-0.026369
3736	0.081467
3732	0.105023
3728	0.153875
3724	0.180315
3720	0.121712
3716	0.106668
3712	0.095868
3708	0.084948
3704	0.128364
3700	0.074005
3696	-0.002717
3692	0.107049
3688	0.219821
3684	0.149250
3680	0.064754
3676	0.083494
3672	0.119900
3668	0.109267
3664	0.041079
3660	-0.006604
3656	0.007605
3652	0.004267
3648	0.011730
3644	0.094389
3640	0.093150
3636	-0.030922
3632	-0.071120
3628	-0.026106
3624	0.012898
3620	0.007534
3616	-0.043082
3612	-0.066828
3608	-0.010013
3604	0.123929
3600	0.247144
3596	0.261354
3592	0.178837
3588	0.112986
3584	0.102066
3580	0.129175
3576	0.144910
3572	0.040674
3568	-0.048422
3564	-0.042080
3560	-0.020766
3556	0.021290
3552	0.091528
3548	0.143170
3544	0.134110
3540	0.079107
3536	0.052738
3532	0.067305
3528	0.046038
3524	0.023627
3520	0.022363
3516	-0.003862
3512	-0.037002
3508	0.009536
3504	0.153231
3500	0.194764
3496	0.116753
3492	0.105500
3488	0.142002
3484	0.118565
3480	0.060939
3476	-0.025439
3472	-0.160098
3468	-0.159215
3464	-0.024843
3460	0.008773
3456	-0.037145
3452	0.009131
3448	0.097393
3444	0.076913
3440	0.085377
3436	0.125432
3432	0.064706
3428	-0.016212
3424	-0.095295
3420	-0.096821
3416	-0.027418
3412	0.032162
3408	0.056886
3404	0.038456
3400	-0.023555
3396	-0.069952
3392	0.003361
3388	0.142598
3384	0.187635
3380	0.061488
3376	-0.171732
3372	-0.278544
3368	-0.141215
3364	0.054121
3360	0.154495
3356	0.168800
3352	0.155711
3348	0.098776
3344	0.024390
3340	0.012493
3336	0.049209
3332	0.117492
3328	0.162649
3324	0.154542
3320	0.134181
3316	0.054550
3312	-0.045466
3308	-0.061464
3304	-0.039720
3300	0.008654
3296	0.046777
3292	0.045514
3288	0.138640
3284	0.262784
3280	0.232267
3276	0.126910
3272	0.076556
3268	0.047659
3264	-0.004601
3260	-0.027918
3256	0.002980
3252	0.016355
3248	0.019335
3244	0.081157
3240	0.163745
3236	0.148582
3232	0.066232
3228	0.093579
3224	0.168871
3220	0.129938
3216	0.064706
3212	0.064992
3208	0.100159
3204	0.133848
3200	0.118994
3196	0.138568
3192	0.191664
3188	0.095701
3184	-0.017285
3180	0.032591
3176	0.079751
3172	0.014805
3168	-0.061583
3164	-0.068831
3160	-0.015735
3156	0.038313
3152	0.013041
3148	-0.049376
3144	0.005865
3140	0.152564
3136	0.163650
3132	0.068163
3128	0.063133
3124	0.069236
3120	0.045728
3116	0.072097
3112	0.046777
3108	-0.003790
3104	0.036191
3100	0.066375
3096	0.027441
3092	0.019717
3088	0.066661
3084	0.078845
3080	0.039529
3076	0.064587
3072	0.114703
3068	0.041794
3064	-0.062298
3060	-0.048494
3056	0.038218
3052	0.132393
3048	0.160479
3044	0.080275
3040	0.007462
3036	-0.020480
3032	-0.035071
3028	-0.019931
3024	0.003981
3020	0.021886
3016	0.014472
3012	-0.016045
3008	-0.003147
3004	0.034046
3000	0.048708
2996	0.073933
2992	0.115132
2988	0.121831
2984	0.098466
2980	0.103092
2976	0.069618
2972	0.025486
2968	0.069355
2964	0.075364
2960	0.031685
2956	0.015115
2952	-0.017929
2948	-0.084662
2944	-0.143861
2940	-0.100064
2936	0.072741
2932	0.172877
2928	0.102853
2924	0.021481
2920	-0.032377
2916	-0.046491
2912	0.057911
2908	0.141763
2904	0.120139
2900	0.082874
2896	0.009393
2892	-0.101709
2888	-0.152564
2884	-0.079178
2880	0.008654
2876	-0.006604
2872	-0.040102
2868	-0.008487
2864	0.045704
2860	0.053524
2856	0.028681
2852	0.086116
2848	0.148582
2844	0.076961
2840	-0.000977
2836	0.040698
2832	0.072884
2828	0.045585
2824	0.023484
2820	0.017356
2816	0.051999
2812	0.078749
2808	0.075554
2804	0.103807
2800	0.135731
2796	0.105023
2792	0.047802
2788	0.003623
2784	-0.007247
2780	0.040054
2776	0.071692
2772	0.085282
2768	0.124263
2764	0.146031
2760	0.111031
2756	0.040078
2752	0.033164
2748	0.032234
2744	-0.054860
2740	-0.096464
2736	-0.033760
2732	0.025033
2728	0.039625
2724	0.051379
2720	0.042343
2716	0.003337
2712	0.010728
2708	0.059032
2704	0.050592
2700	0.013661
2696	0.010919
2692	0.012493
2688	-0.005602
2684	0.008392
2680	0.073385
2676	0.099110
2672	0.087881
2668	0.067639
2664	0.038266
2660	0.004816
2656	-0.005125
2652	0.058674
2648	0.102210
2644	0.089478
2640	0.041055
2636	-0.047540
2632	-0.102806
2628	-0.113415
2624	-0.087094
2620	-0.022912
2616	-0.015664
2612	-0.066542
2608	-0.048708
2604	-0.003600
2600	0.010156
2596	0.031375
2592	0.027275
2588	0.008440
2584	0.032234
2580	0.096487
2576	0.148296
2572	0.121951
2568	0.043392
2564	-0.021243
2560	-0.078129
2556	-0.120401
2552	-0.053882
2548	0.082659
2544	0.124096
2540	0.098013
2536	0.072908
2532	0.014305
2528	-0.049638
2524	-0.079154
2520	-0.085449
2516	-0.089955
2512	-0.123858
2508	-0.070691
2504	0.115776
2500	0.195145
2496	0.173592
2492	0.156235
2488	0.093054
2484	0.054883
2480	0.051259
2476	-0.009298
2472	-0.077772
2468	-0.044393
2464	0.060462
2460	0.146460
2456	0.160646
2452	0.079298
2448	0.004601
2444	-0.031805
2440	-0.022888
2436	0.029468
2432	-0.077652
2428	-0.274348
2424	-0.268435
2420	-0.087690
2416	0.084614
2412	0.050616
2408	-0.158953
2404	-0.182771
2400	0.010943
2396	0.082850
2392	0.041675
2388	0.034236
2384	0.023055
2380	0.062680
2376	0.153970
2372	0.174021
2368	0.140738
2364	0.114750
2360	0.070714
2356	0.020122
2352	0.005578
2348	-0.001001
2344	-0.009846
2340	0.023651
2336	0.095105
2332	0.156712
2328	0.175166
2324	0.157523
2320	0.205445
2316	0.321698
2312	0.356340
2308	0.297808
2304	0.242090
2300	0.260734
2296	0.335693
2292	0.401258
2288	0.472760
2284	0.580286
2280	0.671434
2276	0.711441
2272	0.794243
2268	0.954723
2264	1.132273
2260	1.256060
2256	1.310181
2252	1.390790
2248	1.528620
2244	1.680254
2240	1.842689
2236	2.016162
2232	2.182912
2228	2.365398
2224	2.583050
2220	2.790760
2216	2.996230
2212	3.248739
2208	3.544402
2204	3.833365
2200	4.069280
2196	4.291439
2192	4.530572
2188	4.779815
2184	5.067205
2180	5.413579
2176	5.809617
2172	6.196308
2168	6.562280
2164	6.925463
2160	7.318854
2156	7.764554
2152	8.196353
2148	8.634996
2144	9.018611
2140	9.290170
2136	9.683299
2132	10.2383
2128	10.6759
2124	10.9725
2120	11.3812
2116	11.8768
2112	12.2951
2108	12.7211
2104	13.1919
2100	13.6346
2096	14.0918
2092	14.5221
2088	14.9153
2084	15.4365
2080	16.0255
2076	16.467
2072	16.7264
2068	16.9604
2064	17.3636
2060	17.8933
2056	18.3084
2052	18.5935
2048	18.8952
2044	19.2258
2040	19.5689
2036	19.9182
2032	20.3099
2028	20.7656
2024	21.117
2020	21.306
2016	21.554
2012	21.8959
2008	22.194
2004	22.4879
2000	22.8197
1996	23.1399
1992	23.4141
1988	23.6405
1984	23.8815
1980	24.163
1976	24.3984
1972	24.6298
1968	24.9162
1964	25.1352
1960	25.2838
1956	25.484
1952	25.7426
1948	25.9918
1944	26.1964
1940	26.3303
1936	26.4191
1932	26.5561
1928	26.7956
1924	27.0536
1920	27.2283
1916	27.3556
1912	27.5262
1908	27.7255
1904	27.868
1900	27.9492
1896	28.0488
1892	28.1789
1888	28.3262
1884	28.4575
1880	28.5362
1876	28.6646
1872	28.8548
1868	28.9818
1864	29.0687
1860	29.1761
1856	29.2755
1852	29.3898
1848	29.5151
1844	29.5895
1840	29.6893
1836	29.8642
1832	29.9551
1828	29.9209
1824	29.9225
1820	30.021
1816	30.1792
1812	30.3141
1808	30.3354
1804	30.3226
1800	30.4098
1796	30.5434
1792	30.621
1788	30.6604
1784	30.6776
1780	30.6986
1776	30.7878
1772	30.8635
1768	30.8624
1764	30.8754
1760	30.9176
1756	30.9506
1752	30.9976
1748	31.0382
1744	31.0508
1740	31.1576
1736	31.3328
1732	31.2953
1728	31.1296
1724	31.1103
1720	31.15
1716	31.2164
1712	31.3548
1708	31.4503
1704	31.5031
1700	31.5549
1696	31.505
1692	31.4181
1688	31.4692
1684	31.5402
1680	31.5151
1676	31.458
1672	31.3971
1668	31.3581
1664	31.402
1660	31.5562
1656	31.7135
1652	31.7584
1648	31.7474
1644	31.718
1640	31.6904
1636	31.7142
1632	31.7389
1628	31.7355
1624	31.6989
1620	31.656
1616	31.6481
1612	31.6578
1608	31.7096
1604	31.7221
1600	31.6385
1596	31.58
1592	31.5596
1588	31.5732
1584	31.6547
1580	31.7221
1576	31.6937
1572	31.6382
1568	31.6515
1564	31.7091
1560	31.7581
1556	31.7577
1552	31.7475
1548	31.784
1544	31.8671
1540	31.9195
1536	31.8296
1532	31.725
1528	31.7682
1524	31.8791
1520	31.873
1516	31.7437
1512	31.6913
1508	31.7061
1504	31.662
1500	31.6023
1496	31.5403
1492	31.5256
1488	31.5735
1484	31.5566
1480	31.5398
1476	31.603
1472	31.6571
1468	31.6122
1464	31.5521
1460	31.5756
1456	31.5921
1452	31.5582
1448	31.5083
1444	31.4811
1440	31.522
1436	31.5689
1432	31.6089
1428	31.6437
1424	31.6219
1420	31.5861
1416	31.5848
1412	31.5866
1408	31.5284
1404	31.4647
1400	31.4965
1396	31.5565
1392	31.5371
1388	31.4975
1384	31.5479
1380	31.6593
1376	31.7077
1372	31.599
1368	31.4112
1364	31.3392
1360	31.3982
1356	31.4147
1352	31.3807
1348	31.3924
1344	31.423
1340	31.4279
1336	31.3983
1332	31.3626
1328	31.3757
1324	31.4127
1320	31.4566
1316	31.5043
1312	31.4464
1308	31.2987
1304	31.2174
1300	31.2412
1296	31.2753
1292	31.2665
1288	31.2248
1284	31.2076
1280	31.2986
1276	31.4123
1272	31.3863
1268	31.24
1264	31.1334
1260	31.1155
1256	31.1247
1252	31.1426
1248	31.1412
1244	31.1448
1240	31.1497
1236	31.09
1232	31.0597
1228	31.1102
1224	31.1528
1220	31.1724
1216	31.1773
1212	31.1515
1208	31.1189
1204	31.1088
1200	31.078
1196	31.0215
1192	30.952
1188	30.8683
1184	30.8558
1180	30.9177
1176	30.9247
1172	30.8899
1168	30.947
1164	31.0556
1160	31.0222
1156	30.8835
1152	30.8758
1148	30.9464
1144	30.9023
1140	30.7656
1136	30.7013
1132	30.7338
1128	30.6962
1124	30.6118
1120	30.571
1116	30.5596
1112	30.6749
1108	30.8831
1104	30.8949
1100	30.6298
1096	30.4108
1092	30.4318
1088	30.5248
1084	30.5383
1080	30.4296
1076	30.2661
1072	30.2459
1068	30.3524
1064	30.3555
1060	30.2488
1056	30.164
1052	30.129
1048	30.1095
1044	30.0799
1040	30.116
1036	30.1623
1032	30.0978
1028	30.0192
1024	29.9506
1020	29.799
1016	29.6634
1012	29.7176
1008	29.8949
1004	30.0027
1000	29.9022
996	 29.6918
992	 29.6295
988	 29.7281
984	 29.8513
980	 29.8914
976	 29.8154
972	 29.6963
968	 29.5584
964	 29.4426
960	 29.4616
956	 29.4355
952	 29.298
948	 29.3443
944	 29.5052
940	 29.5443
936	 29.4705
932	 29.3787
928	 29.3217
924	 29.2589
920	 29.1168
916	 28.9461
912	 28.8776
908	 28.9186
904	 29.0318
900	 29.1097
896	 29.0611
892	 28.9893
888	 28.9768
884	 28.9717
880	 28.8672
876	 28.7283
872	 28.6773
868	 28.5816
864	 28.3843
860	 28.2569
856	 28.2425
852	 28.246
848	 28.3387
844	 28.5336
840	 28.5338
836	 28.2969
832	 28.1756
828	 28.1284
824	 27.9643
820	 27.97
816	 28.1321
812	 28.1229
808	 27.9239
804	 27.7042
800	 27.5473
796	 27.379
792	 27.2186
788	 27.2291
784	 27.397
780	 27.4172
776	 27.2968
772	 27.2398
768	 27.1053
764	 26.8021
760	 26.6207
756	 26.7501
752	 26.9549
748	 27.0548
744	 26.8926
740	 26.5941
736	 26.553
732	 26.6314
728	 26.6273
724	 26.6738
720	 26.7275
716	 26.5644
712	 26.2308
708	 25.9967
704	 25.8466
700	 25.6683
696	 25.6388
692	 25.8399
688	 25.9056
684	 25.6672
680	 25.5062
676	 25.4747
672	 25.4396
668	 25.5401
664	 25.6323
660	 25.483
656	 25.1679
652	 24.9532
648	 24.9724
644	 24.9188
640	 24.6597
636	 24.4397
632	 24.3927
628	 24.3894
624	 24.3814
620	 24.4641
616	 24.5975
612	 24.5727
608	 24.348
604	 24.0653
600	 23.7596
596	 23.7108
592	 23.807
588	 23.6315
584	 23.418
580	 23.4561
576	 23.5831
572	 23.4766
568	 23.0826
564	 22.7451
560	 22.663
556	 22.8774
552	 23.1763
548	 23.0219
544	 22.5453
540	 22.4443
536	 22.5481
532	 22.2596
528	 21.8427
524	 21.7137
520	 21.8369
516	 22.0276
512	 22.0919
508	 22.1382
504	 22.1108
500	 21.8122
496	 21.4329
492	 21.1241
488	 20.9503
484	 20.84
480	 20.6302
476	 20.3265
472	 20.2868
468	 20.4083
464	 19.7581
460	 18.748
456	 18.2967
452	 18.1163
448	 18.482
444	 19.0693
440	 19.1451
436	 19.4348
432	 19.777
428	 20.154
424	 20.7382
420	 19.2514
416	 16.598
412	 18.0613
408	 25.0413
404	 29.9032
400	 19.4936
396	 1.659941
392	 -3.568387
388	 1.280188
384	 1.121044
380	 1.064229
376	 3.992652
372	 68.9436
370	 121.224