File: Bakgrunnsmateriale/MATLAB/FTIR/ftir_data/LPE454/Mapping_121/LPE454_t16_cm-1.asc
PE IR       SPECTRUM    SPECTRUM    ASCII       PEDS        1.60
  -1
LPE7BA~1.ASC
17/05/19
15:39:07.00
17/05/19
15:39:07.00
tln
$LPE454_t0016$<tbV0>[2.6,-10.4,8.0,0.0,27,1,0]
370
64

2002,4.07
MIRTGS : RIGHTBACK : INTERNAL 2
MIR : ON : INTERNAL 2
OPTKBR

0.200000
8
8.000000
FILLER
RATIO
SPECTRUM
UNLOCKED 256

DOUBLE
64
COMBINED
1
0
0

1.000000
RATIO

1
0
TRUE
51149
0
LEFT NOT FITTED RIGHT NOT FITTED 0
NONE
NONE
15600
12
4.427000
51148
TRUE
1 0 8 72 0 0 0 0

15798

#HDR
-1
-1
#GR
CM-1
%T
2.38419e-05
0.0
5000
-1.000000
4631
8
34.836
-8.128237
#DATA
5000	0.418424
4996	0.378274
4992	0.081920
4988	0.018477
4984	0.188946
4980	0.086688
4976	0.181317
4972	0.429201
4968	0.245833
4964	0.081682
4960	0.200057
4956	0.028848
4952	-0.422739
4948	-0.450873
4944	-0.173854
4940	-0.193619
4936	-0.361680
4932	-0.452494
4928	-0.361633
4924	-0.106453
4920	0.116634
4916	0.268363
4912	0.202536
4908	0.056862
4904	0.022292
4900	-0.093722
4896	-0.128006
4892	0.211143
4888	0.600528
4884	0.558567
4880	0.234413
4876	0.020289
4872	-0.065827
4868	-0.042796
4864	0.020503
4860	-0.032019
4856	-0.030565
4852	0.270199
4848	0.488090
4844	0.375866
4840	0.371122
4836	0.445413
4832	0.258612
4828	0.082349
4824	0.218677
4820	0.355362
4816	0.205159
4812	0.051021
4808	0.060296
4804	0.106263
4800	0.151228
4796	0.104904
4792	-0.061988
4788	-0.147318
4784	-0.109195
4780	-0.149226
4776	-0.228404
4772	-0.019192
4768	0.290632
4764	0.190305
4760	-0.043296
4756	-0.124979
4752	-0.102138
4748	-0.078964
4744	-0.201773
4740	-0.085115
4736	0.156903
4732	-0.010752
4728	-0.316953
4724	-0.693154
4720	-0.806498
4716	-0.001192
4712	1.056432
4708	1.420879
4704	0.503182
4700	-1.110720
4696	-1.754260
4692	-1.273488
4688	-0.026369
4684	1.368498
4680	1.836991
4676	2.134299
4672	3.111290
4668	3.181195
4664	1.511502
4660	0.198054
4656	0.323295
4652	0.650477
4648	0.807237
4644	0.939798
4640	0.220036
4636	-0.823044
4632	-0.918388
4628	-0.623393
4624	-0.296783
4620	0.007510
4616	-0.087594
4612	-0.169730
4608	-0.017642
4604	-0.006413
4600	0.006437
4596	0.310754
4592	0.623130
4588	0.798273
4584	0.726723
4580	0.421237
4576	0.262784
4572	0.384449
4568	0.509428
4564	0.328063
4560	-0.007390
4556	-0.182008
4552	0.122570
4548	0.217366
4544	-0.081610
4540	-0.137209
4536	0.077152
4532	0.449156
4528	0.591278
4524	0.525522
4520	0.440168
4516	0.725388
4512	1.259160
4508	1.593470
4504	1.500463
4500	1.962113
4496	-2.155160
4492	-8.128237
4488	-2.559566
4484	6.600689
4480	7.835197
4476	4.018759
4472	0.528740
4468	-0.522518
4464	-1.015806
4460	-0.764107
4456	0.053334
4452	0.405311
4448	0.376677
4444	0.320363
4440	0.273513
4436	0.065040
4432	-0.068092
4428	-0.089955
4424	0.032043
4420	0.148177
4416	0.091719
4412	-0.038003
4408	-0.113534
4404	-0.138282
4400	-0.276017
4396	-0.394606
4392	-0.346374
4388	-0.228476
4384	-0.059843
4380	0.095415
4376	0.218701
4372	0.195860
4368	-0.011277
4364	-0.186038
4360	-0.300526
4356	-0.278377
4352	-0.061202
4348	0.111031
4344	0.200033
4340	0.408434
4336	0.551223
4332	0.280141
4328	-0.015902
4324	0.081348
4320	0.191760
4316	0.081539
4312	0.054526
4308	0.198888
4304	0.318050
4300	0.459957
4296	0.579881
4292	0.276851
4288	-0.117444
4284	0.040912
4280	0.423383
4276	0.511932
4272	0.360941
4268	0.156164
4264	0.060963
4260	0.134849
4256	0.148248
4252	0.061941
4248	0.024032
4244	0.035691
4240	-0.010395
4236	-0.055623
4232	0.006628
4228	0.012111
4224	-0.097918
4220	-0.196909
4216	-0.199341
4212	-0.108432
4208	0.049901
4204	0.221014
4200	0.220894
4196	0.201368
4192	0.368833
4188	0.320625
4184	-0.029873
4180	-0.285029
4176	-0.219821
4172	0.108122
4168	0.298476
4164	0.081515
4160	-0.183010
4156	-0.084638
4152	0.114178
4148	-0.007152
4144	-0.210332
4140	-0.157356
4136	0.049948
4132	0.175976
4128	0.205373
4124	0.203347
4120	0.217151
4116	0.291991
4112	0.278544
4108	0.207281
4104	0.141835
4100	0.072240
4096	0.078177
4092	0.042104
4088	0.024151
4084	0.113892
4080	0.077581
4076	-0.118207
4072	-0.224399
4068	-0.188350
4064	-0.184416
4060	-0.174474
4056	-0.065565
4052	0.067305
4048	0.176453
4044	0.156021
4040	0.012111
4036	-0.060462
4032	-0.005340
4028	0.016498
4024	0.032234
4020	0.165820
4016	0.148510
4012	0.021409
4008	0.030303
4004	-0.016283
4000	-0.166988
3996	-0.234389
3992	-0.075697
3988	0.125193
3984	0.115752
3980	0.009942
3976	0.015234
3972	0.068497
3968	0.004553
3964	-0.083780
3960	0.008583
3956	0.173187
3952	0.256872
3948	0.257682
3944	0.125837
3940	-0.006341
3936	0.039434
3932	0.174427
3928	0.242304
3924	0.194811
3920	0.075626
3916	-0.012707
3912	0.006222
3908	0.114893
3904	0.210428
3900	0.183939
3896	0.074124
3892	0.005912
3888	0.017786
3884	0.076317
3880	0.117301
3876	0.081491
3872	0.049614
3868	0.099062
3864	0.147962
3860	0.133824
3856	0.091361
3852	0.069284
3848	0.063753
3844	0.112652
3840	0.195789
3836	0.220513
3832	0.224018
3828	0.228643
3824	0.217866
3820	0.139594
3816	-0.013756
3812	-0.116801
3808	-0.111484
3804	0.004291
3800	0.111770
3796	0.064682
3792	-0.012636
3788	-0.044059
3784	-0.129342
3780	-0.190711
3776	-0.099945
3772	0.064659
3768	0.141549
3764	0.066113
3760	-0.065088
3756	-0.100898
3752	-0.030493
3748	0.037717
3744	0.032854
3740	-0.016021
3736	-0.043964
3732	-0.025153
3728	0.025653
3724	0.044178
3720	0.037646
3716	0.038814
3712	0.036597
3708	0.058722
3704	0.071454
3700	0.031876
3696	0.018692
3692	0.069952
3688	0.092124
3684	0.062012
3680	0.057148
3676	0.057482
3672	-0.004696
3668	-0.049448
3664	-0.006818
3660	0.036358
3656	0.018143
3652	0.012254
3648	0.055694
3644	0.040817
3640	0.003862
3636	0.065493
3632	0.130414
3628	0.096344
3624	0.056195
3620	0.108909
3616	0.191593
3612	0.197505
3608	0.099802
3604	0.030732
3600	0.047922
3596	0.030422
3592	0.022482
3588	0.034594
3584	-0.042366
3580	-0.065112
3576	0.018382
3572	0.004839
3568	-0.002193
3564	0.092387
3560	0.139045
3556	0.173711
3552	0.161910
3548	0.057911
3544	0.008058
3540	0.015234
3536	0.031852
3532	0.050520
3528	0.023174
3524	-0.018000
3520	-0.022935
3516	-0.009036
3512	0.031280
3508	0.067019
3504	0.118851
3500	0.228714
3496	0.234651
3492	0.116419
3488	0.063800
3484	0.074219
3480	0.079751
3476	0.147581
3472	0.268983
3468	0.304961
3464	0.179338
3460	-0.011706
3456	-0.094652
3452	-0.010013
3448	0.131273
3444	0.171685
3440	0.164580
3436	0.196790
3432	0.189900
3428	0.098133
3424	0.000619
3420	-0.015974
3416	0.040245
3412	0.102257
3408	0.078606
3404	0.055456
3400	0.111079
3396	0.130128
3392	0.070261
3388	0.018167
3384	0.034189
3380	0.084590
3376	0.117135
3372	0.085234
3368	0.044441
3364	0.095391
3360	0.160670
3356	0.087904
3352	-0.039482
3348	-0.024533
3344	0.042653
3340	-0.000333
3336	-0.068855
3332	-0.104784
3328	-0.089550
3324	0.030589
3320	0.161409
3316	0.193810
3312	0.121927
3308	0.036621
3304	0.013256
3300	0.001287
3296	-0.036478
3292	-0.075483
3288	-0.078010
3284	-0.007915
3280	0.095915
3276	0.109124
3272	0.031304
3268	-0.008606
3264	-0.004029
3260	0.001049
3256	0.004386
3252	-0.007271
3248	-0.019049
3244	0.008344
3240	0.024247
3236	-0.009226
3232	0.003623
3228	0.037050
3224	0.018215
3220	-0.027704
3216	-0.074505
3212	-0.054907
3208	-0.046849
3204	-0.094723
3200	-0.049567
3196	0.022482
3192	0.026178
3188	0.058293
3184	0.140261
3180	0.185990
3176	0.163865
3172	0.160717
3168	0.153541
3164	0.088477
3160	0.010085
3156	-0.061345
3152	-0.055551
3148	0.051236
3144	0.193309
3140	0.248360
3136	0.106143
3132	-0.091242
3128	-0.087022
3124	0.039362
3120	0.032401
3116	-0.056219
3112	-0.053977
3108	0.029444
3104	0.104570
3100	0.109148
3096	0.058007
3092	0.049281
3088	0.071501
3084	0.028252
3080	-0.021553
3076	0.006365
3072	0.073957
3068	0.104260
3064	0.049805
3060	0.012040
3056	0.092387
3052	0.175380
3048	0.134778
3044	0.017666
3040	-0.005745
3036	0.107431
3032	0.199985
3028	0.197553
3024	0.157785
3020	0.114154
3016	0.088810
3012	0.089573
3008	0.076961
3004	0.101232
3000	0.166273
2996	0.146436
2992	0.064706
2988	0.007271
2984	-0.017619
2980	0.015115
2976	0.023603
2972	-0.042414
2968	-0.048112
2964	-0.004005
2960	-0.000619
2956	0.002384
2952	0.002169
2948	-0.037693
2944	-0.089669
2940	-0.092649
2936	0.010156
2932	0.107932
2928	0.110292
2924	0.093388
2920	0.034332
2916	-0.016117
2912	0.007462
2908	0.020360
2904	0.011253
2900	0.032091
2896	0.048470
2892	0.054883
2888	0.046944
2884	0.009799
2880	0.005674
2876	0.027060
2872	0.013995
2868	0.077557
2864	0.172162
2860	0.103139
2856	-0.044178
2852	-0.090861
2848	-0.065994
2844	-0.008249
2840	0.051736
2836	0.062513
2832	0.067925
2828	0.085592
2824	0.067996
2820	0.021743
2816	0.012111
2812	0.044322
2808	0.053811
2804	0.006413
2800	-0.046086
2796	-0.054335
2792	0.009369
2788	0.135970
2784	0.214576
2780	0.191807
2776	0.116348
2772	0.047373
2768	0.032782
2764	0.010228
2760	-0.042796
2756	-0.026249
2752	0.045037
2748	0.084877
2744	0.062274
2740	-0.002360
2736	-0.019240
2732	0.030136
2728	0.089621
2724	0.085783
2720	0.033092
2716	-0.004267
2712	-0.049495
2708	-0.112652
2704	-0.125932
2700	-0.051093
2696	0.000238
2692	-0.026869
2688	-0.031352
2684	0.010561
2680	0.040006
2676	0.022482
2672	-0.019979
2668	-0.022792
2664	0.010204
2660	0.026297
2656	0.029754
2652	0.030779
2648	0.057864
2644	0.090861
2640	0.083446
2636	0.075483
2632	0.066781
2628	0.044250
2624	0.038290
2620	0.026702
2616	0.001120
2612	0.015354
2608	0.039410
2604	-0.000309
2600	-0.032305
2596	0.033283
2592	0.074172
2588	0.011777
2584	-0.033426
2580	-0.010013
2576	0.039672
2572	0.041842
2568	0.002288
2564	-0.004935
2560	0.010371
2556	-0.010085
2552	-0.067567
2548	-0.095295
2544	-0.089335
2540	-0.082302
2536	-0.054812
2532	-0.017690
2528	0.020909
2524	0.083613
2520	0.127911
2516	0.119781
2512	0.082421
2508	0.056290
2504	0.055003
2500	0.080943
2496	0.142645
2492	0.103807
2488	-0.068974
2484	-0.151824
2480	-0.074720
2476	0.024700
2472	0.031900
2468	-0.021362
2464	-0.051879
2460	-0.042939
2456	0.000953
2452	0.009441
2448	-0.038790
2444	-0.004267
2440	0.143694
2436	0.171804
2432	0.095701
2428	0.171947
2424	0.205206
2420	0.034785
2416	-0.046253
2412	-0.044298
2408	-0.129675
2404	-0.134563
2400	-0.028133
2396	0.034976
2392	0.034523
2388	0.020503
2384	0.020194
2380	-0.008177
2376	-0.039696
2372	-0.004363
2368	0.050902
2364	0.053882
2360	0.035738
2356	0.004053
2352	-0.033473
2348	0.000452
2344	0.064826
2340	0.046873
2336	-0.012660
2332	-0.012588
2328	0.023603
2324	0.063610
2320	0.088500
2316	0.117373
2312	0.149941
2308	0.117731
2304	0.109219
2300	0.176787
2296	0.239801
2292	0.261473
2288	0.274348
2284	0.325679
2280	0.387907
2276	0.458312
2272	0.567150
2268	0.664067
2264	0.717830
2260	0.773835
2256	0.840806
2252	0.914883
2248	1.006841
2244	1.117825
2240	1.248478
2236	1.375508
2232	1.495194
2228	1.657795
2224	1.848053
2220	2.013063
2216	2.213406
2212	2.463603
2208	2.695155
2204	2.881383
2200	3.040480
2196	3.234529
2192	3.521800
2188	3.862023
2184	4.130291
2180	4.386949
2176	4.747867
2172	5.123376
2168	5.472040
2164	5.841279
2160	6.247711
2156	6.643390
2152	6.990838
2148	7.347917
2144	7.718420
2140	8.075165
2136	8.467793
2132	8.917117
2128	9.401512
2124	9.869289
2120	10.2935
2116	10.7393
2112	11.2005
2108	11.6408
2104	12.0902
2100	12.5616
2096	13.0364
2092	13.496
2088	13.9447
2084	14.413
2080	14.9009
2076	15.2626
2072	15.5244
2068	15.924
2064	16.4009
2060	16.8267
2056	17.2775
2052	17.7666
2048	18.2034
2044	18.5674
2040	18.9027
2036	19.232
2032	19.5679
2028	19.914
2024	20.2787
2020	20.6349
2016	20.9933
2012	21.4057
2008	21.8195
2004	22.1641
2000	22.4224
1996	22.6545
1992	22.9394
1988	23.2406
1984	23.5207
1980	23.7593
1976	23.9808
1972	24.2542
1968	24.5209
1964	24.7523
1960	24.9664
1956	25.1518
1952	25.367
1948	25.6294
1944	25.8764
1940	26.0376
1936	26.1622
1932	26.3487
1928	26.5668
1924	26.7491
1920	26.9115
1916	27.0533
1912	27.1413
1908	27.2562
1904	27.4374
1900	27.6143
1896	27.7402
1892	27.8495
1888	27.9638
1884	28.0739
1880	28.1988
1876	28.3216
1872	28.4433
1868	28.545
1864	28.5969
1860	28.6842
1856	28.8086
1852	28.8888
1848	28.9204
1844	28.9709
1840	29.13
1836	29.2967
1832	29.3524
1828	29.3875
1824	29.4796
1820	29.5698
1816	29.6041
1812	29.6189
1808	29.633
1804	29.6477
1800	29.7306
1796	29.8877
1792	29.9922
1788	30.0083
1784	30.0251
1780	30.0532
1776	30.1111
1772	30.1907
1768	30.1724
1764	30.1079
1760	30.1028
1756	30.1268
1752	30.1517
1748	30.1987
1744	30.2926
1740	30.3975
1736	30.4482
1732	30.4131
1728	30.3817
1724	30.407
1720	30.4278
1716	30.4279
1712	30.4532
1708	30.5516
1704	30.6537
1700	30.6615
1696	30.5957
1692	30.5835
1688	30.6629
1684	30.671
1680	30.6124
1676	30.6459
1672	30.6893
1668	30.6167
1664	30.5439
1660	30.6179
1656	30.7729
1652	30.8327
1648	30.7613
1644	30.6681
1640	30.6678
1636	30.7001
1632	30.6665
1628	30.6488
1624	30.6738
1620	30.7292
1616	30.7537
1612	30.6728
1608	30.6034
1604	30.6527
1600	30.7476
1596	30.7757
1592	30.746
1588	30.7003
1584	30.6557
1580	30.6374
1576	30.6379
1572	30.6416
1568	30.6891
1564	30.8235
1560	30.9258
1556	30.8746
1552	30.7697
1548	30.759
1544	30.8379
1540	30.8765
1536	30.8052
1532	30.7286
1528	30.7178
1524	30.7294
1520	30.7089
1516	30.6995
1512	30.7562
1508	30.7674
1504	30.6896
1500	30.6333
1496	30.5987
1492	30.5658
1488	30.5614
1484	30.6046
1480	30.6587
1476	30.6514
1472	30.634
1468	30.6077
1464	30.5623
1460	30.5909
1456	30.6005
1452	30.5309
1448	30.5289
1444	30.587
1440	30.6132
1436	30.6018
1432	30.6066
1428	30.5953
1424	30.5268
1420	30.5051
1416	30.5251
1412	30.5409
1408	30.5386
1404	30.4976
1400	30.4601
1396	30.4229
1392	30.3771
1388	30.3595
1384	30.3519
1380	30.3087
1376	30.2783
1372	30.2763
1368	30.2798
1364	30.2683
1360	30.2117
1356	30.1951
1352	30.2444
1348	30.2588
1344	30.228
1340	30.2276
1336	30.2631
1332	30.2674
1328	30.2187
1324	30.1376
1320	30.124
1316	30.1874
1312	30.2092
1308	30.2286
1304	30.2437
1300	30.1652
1296	30.0838
1292	30.0769
1288	30.0736
1284	30.0597
1280	30.088
1276	30.1153
1272	30.0764
1268	30.0651
1264	30.1453
1260	30.2
1256	30.176
1252	30.1488
1248	30.1311
1244	30.0689
1240	29.9651
1236	29.9014
1232	29.9092
1228	29.912
1224	29.917
1220	29.9896
1216	30.0102
1212	29.9168
1208	29.8469
1204	29.8218
1200	29.743
1196	29.6679
1192	29.6533
1188	29.6041
1184	29.5867
1180	29.6929
1176	29.7642
1172	29.6937
1168	29.6166
1164	29.6435
1160	29.622
1156	29.4963
1152	29.44
1148	29.4399
1144	29.3763
1140	29.316
1136	29.3852
1132	29.4845
1128	29.464
1124	29.3865
1120	29.3167
1116	29.2809
1112	29.3194
1108	29.3001
1104	29.2086
1100	29.1891
1096	29.2549
1092	29.3133
1088	29.2773
1084	29.1963
1080	29.1171
1076	29.0237
1072	29.011
1068	29.0615
1064	29.0027
1060	28.8628
1056	28.8332
1052	28.9292
1048	28.9307
1044	28.8669
1040	28.9163
1036	28.9721
1032	28.9361
1028	28.869
1024	28.8358
1020	28.8713
1016	28.925
1012	28.8398
1008	28.6417
1004	28.521
1000	28.5733
996	 28.6048
992	 28.4846
988	 28.4199
984	 28.4242
980	 28.3824
976	 28.3524
972	 28.3982
968	 28.4387
964	 28.3005
960	 28.0242
956	 27.8511
952	 27.8009
948	 27.7932
944	 27.8735
940	 27.9808
936	 28.0442
932	 28.037
928	 27.9243
924	 27.7724
920	 27.6208
916	 27.5579
912	 27.6148
908	 27.6115
904	 27.4965
900	 27.3748
896	 27.3553
892	 27.3989
888	 27.3446
884	 27.2435
880	 27.1996
876	 27.1753
872	 27.1262
868	 27.0122
864	 26.9068
860	 26.8664
856	 26.7645
852	 26.6299
848	 26.6001
844	 26.6609
840	 26.7459
836	 26.786
832	 26.7598
828	 26.7026
824	 26.6157
820	 26.5456
816	 26.5318
812	 26.4336
808	 26.2186
804	 25.9923
800	 25.8034
796	 25.7287
792	 25.7763
788	 25.8359
784	 25.8008
780	 25.7411
776	 25.763
772	 25.7647
768	 25.7109
764	 25.6792
760	 25.647
756	 25.5447
752	 25.2862
748	 24.914
744	 24.6821
740	 24.7876
736	 25.1297
732	 25.2604
728	 24.9443
724	 24.6443
720	 24.6361
716	 24.5264
712	 24.2599
708	 24.1661
704	 24.1748
700	 24.0901
696	 23.976
692	 23.9969
688	 24.1343
684	 24.2177
680	 24.2302
676	 24.2185
672	 24.0006
668	 23.5732
664	 23.271
660	 23.0802
656	 22.832
652	 22.6764
648	 22.7455
644	 22.9576
640	 22.9438
636	 22.5878
632	 22.4167
628	 22.5368
624	 22.5806
620	 22.4995
616	 22.4198
612	 22.3778
608	 22.1714
604	 21.6693
600	 21.2775
596	 21.3793
592	 21.6629
588	 21.6533
584	 21.4227
580	 21.6026
576	 22.2273
572	 22.3504
568	 21.8779
564	 21.4746
560	 21.2448
556	 21.0401
552	 20.969
548	 20.9732
544	 20.6609
540	 20.4129
536	 20.5927
532	 20.8111
528	 20.8193
524	 20.5412
520	 20.2302
516	 19.9687
512	 19.6435
508	 19.5763
504	 19.7001
500	 19.8907
496	 20.0208
492	 19.4008
488	 18.5047
484	 18.5515
480	 18.7321
476	 18.1294
472	 18.0896
468	 19.1003
464	 19.4093
460	 18.0576
456	 16.5356
452	 16.8477
448	 18.1247
444	 18.3504
440	 18.2278
436	 18.5348
432	 18.7038
428	 18.9147
424	 18.915
420	 17.4121
416	 15.0368
412	 14.8489
408	 17.9924
404	 18.8534
400	 11.8835
396	 3.306889
392	 0.772714
388	 1.820993
384	 2.396512
380	 7.494664
376	 24.1665
372	 34.6479
370	 34.7626