File: Bakgrunnsmateriale/MATLAB/FTIR/ftir_data/LPE454/Mapping_121/LPE454_t103_cm-1.asc
PE IR       SPECTRUM    SPECTRUM    ASCII       PEDS        1.60
  -1
LP06DC~1.ASC
17/05/19
22:49:58.00
17/05/19
22:49:58.00
tln
$LPE454_t0103$<tbV0>[5.2,10.4,8.0,0.0,27,1,0]
370
64

2002,4.07
MIRTGS : RIGHTBACK : INTERNAL 2
MIR : ON : INTERNAL 2
OPTKBR

0.200000
8
8.000000
FILLER
RATIO
SPECTRUM
UNLOCKED 256

DOUBLE
64
COMBINED
1
0
0

1.000000
RATIO

1
0
TRUE
51149
0
LEFT NOT FITTED RIGHT NOT FITTED 0
NONE
NONE
15600
12
4.427000
51148
TRUE
1 0 8 72 0 0 0 0

15798

#HDR
-1
-1
#GR
CM-1
%T
2.38419e-05
0.0
5000
-1.000000
4631
8
65.6968
-3.761553
#DATA
5000	0.240135
4996	0.234651
4992	0.145077
4988	0.139141
4984	0.106549
4980	-0.106787
4976	-0.125026
4972	0.230574
4968	0.504350
4964	0.487041
4960	0.354170
4956	0.314927
4952	0.333356
4948	0.240945
4944	0.103712
4940	-0.009036
4936	-0.043296
4932	0.054049
4928	0.165939
4924	0.144124
4920	-0.012326
4916	-0.145769
4912	-0.101208
4908	0.054264
4904	0.186181
4900	0.252032
4896	0.231957
4892	0.189352
4888	0.290322
4884	0.332832
4880	0.162482
4876	0.215339
4872	0.446891
4868	0.584793
4864	0.770926
4860	0.853061
4856	0.632691
4852	0.321435
4848	0.123524
4844	-0.057959
4840	-0.210189
4836	-0.065159
4832	0.105953
4828	-0.051951
4824	-0.216341
4820	-0.062322
4816	0.124764
4812	0.046753
4808	0.021195
4804	0.176048
4800	0.171899
4796	-0.040984
4792	-0.164651
4788	-0.118899
4784	-0.015330
4780	0.093674
4776	0.158858
4772	0.222110
4768	0.156021
4764	0.051283
4760	0.177264
4756	0.271272
4752	0.196886
4748	0.057315
4744	0.067067
4740	0.190234
4736	0.137352
4732	0.103998
4728	0.253343
4724	0.414490
4720	0.443553
4716	0.408220
4712	0.444316
4708	0.387477
4704	0.164103
4700	-0.014710
4696	-0.074744
4692	-0.092697
4688	-0.062990
4684	0.045394
4680	0.088500
4676	0.075149
4672	0.085783
4668	0.023794
4664	-0.070095
4660	-0.119495
4656	0.002312
4652	0.187802
4648	0.289034
4644	0.407171
4640	0.255107
4636	0.265645
4632	0.620555
4628	0.852870
4624	0.910043
4620	0.263166
4616	-0.630879
4612	-0.618219
4608	0.019931
4604	1.555109
4600	6.537938
4596	14.1946
4592	19.4703
4588	16.089
4584	2.527618
4580	-3.761553
4576	-2.026820
4572	-1.445007
4568	-1.201915
4564	-1.593852
4560	-1.585960
4556	-0.741934
4552	-0.038003
4548	-0.232815
4544	-0.680875
4540	-0.644421
4536	-0.457167
4532	-0.370860
4528	-0.282621
4524	-0.208687
4520	-0.128293
4516	-0.119638
4512	-0.251936
4508	-0.286221
4504	-0.125098
4500	0.038790
4496	0.092124
4492	0.085878
4488	0.108718
4484	0.151872
4480	0.169181
4476	0.219941
4472	0.157809
4468	0.083208
4464	0.163125
4460	0.171303
4456	0.039410
4452	0.004053
4448	0.246953
4444	0.424838
4440	0.184893
4436	0.012516
4432	0.196290
4428	0.370597
4424	0.359129
4420	0.272107
4416	0.185346
4412	0.207257
4408	0.311756
4404	0.350284
4400	0.286388
4396	0.269889
4392	0.364828
4388	0.362396
4384	0.251126
4380	0.203490
4376	0.161433
4372	0.203347
4368	0.352096
4364	0.345587
4360	0.222277
4356	0.174403
4352	0.174403
4348	0.140261
4344	0.076699
4340	0.090551
4336	0.346350
4332	0.535631
4328	0.390720
4324	0.270462
4320	0.255680
4316	0.153136
4312	0.065898
4308	0.065445
4304	0.057983
4300	0.058245
4296	0.088453
4292	0.158929
4288	0.210690
4284	0.165104
4280	0.100874
4276	0.002789
4272	-0.051856
4268	0.034999
4264	0.133061
4260	0.209951
4256	0.280499
4252	0.327062
4248	0.349497
4244	0.335645
4240	0.232386
4236	0.099420
4232	0.140213
4228	0.216889
4224	0.220060
4220	0.277566
4216	0.256657
4212	0.165438
4208	0.125408
4204	0.091052
4200	0.111913
4196	0.004434
4192	-0.308847
4188	-0.433206
4184	-0.513100
4180	-0.531387
4176	-0.376248
4172	-0.364017
4168	-0.279736
4164	0.085806
4160	0.192975
4156	0.001597
4152	-0.113105
4148	-0.095748
4144	-0.053811
4140	-0.155448
4136	-0.344920
4132	-0.377106
4128	-0.255346
4124	-0.159716
4120	-0.193262
4116	-0.164246
4112	0.074458
4108	0.325822
4104	0.369215
4100	0.167989
4096	0.227832
4092	0.494194
4088	0.317335
4084	0.185060
4080	0.603437
4076	0.953745
4072	0.479602
4068	0.053215
4064	0.721192
4060	1.614928
4056	2.234220
4052	2.440762
4048	1.691150
4044	0.771403
4040	0.429725
4036	0.372958
4032	0.335669
4028	0.062227
4024	-0.180697
4020	-0.024533
4016	0.131845
4012	0.118327
4008	0.201606
4004	0.175523
4000	-0.064444
3996	-0.303220
3992	-0.355029
3988	-0.259327
3984	-0.307464
3980	-0.406837
3976	-0.284910
3972	-0.008702
3968	0.190305
3964	0.205087
3960	-0.015616
3956	-0.238466
3952	-0.254607
3948	-0.102519
3944	0.044035
3940	0.024366
3936	0.009584
3932	0.056934
3928	0.055837
3924	0.062108
3920	0.158095
3916	0.202226
3912	0.146460
3908	0.105977
3904	0.041699
3900	-0.081300
3896	-0.158858
3892	-0.165009
3888	-0.105547
3884	-0.109386
3880	-0.125026
3876	-0.055527
3872	0.018787
3868	0.042724
3864	0.089883
3860	0.134253
3856	0.026130
3852	-0.121736
3848	-0.120210
3844	-0.065708
3840	-0.014686
3836	0.068783
3832	0.153136
3828	0.250577
3824	0.256967
3820	0.155758
3816	0.095582
3812	0.084924
3808	0.096297
3804	0.169062
3800	0.190281
3796	0.072526
3792	0.026988
3788	0.096917
3784	0.104117
3780	0.030398
3776	-0.072264
3772	-0.151562
3768	-0.187373
3764	-0.185036
3760	-0.102591
3756	0.035810
3752	0.114989
3748	0.118589
3744	0.131368
3740	0.097012
3736	0.011301
3732	0.034022
3728	0.097155
3724	0.065875
3720	0.013780
3716	-0.013184
3712	-0.019717
3708	-0.021243
3704	-0.035619
3700	-0.034332
3696	-0.021362
3692	-0.010633
3688	0.037121
3684	0.092101
3680	0.087952
3676	0.095343
3672	0.126600
3668	0.114774
3664	0.051760
3660	-0.023770
3656	-0.017261
3652	0.052905
3648	0.059700
3644	0.009131
3640	-0.008749
3636	0.020170
3632	0.101852
3628	0.167489
3624	0.151467
3620	0.094270
3616	-0.027775
3612	-0.109028
3608	-0.039649
3604	0.007271
3600	-0.070810
3596	-0.146245
3592	-0.125193
3588	-0.043606
3584	0.020241
3580	0.026607
3576	0.015878
3572	-0.040197
3568	-0.060772
3564	-0.015091
3560	0.021004
3556	0.116872
3552	0.176239
3548	0.093007
3544	0.092434
3540	0.188851
3536	0.218987
3532	0.175166
3528	0.054240
3524	-0.032067
3520	0.009417
3516	0.105571
3512	0.124788
3508	0.054693
3504	0.038242
3500	0.104570
3496	0.135374
3492	0.077652
3488	-0.046992
3484	-0.145769
3480	-0.106668
3476	-0.003623
3472	0.053429
3468	0.061058
3464	0.019335
3460	-0.019145
3456	-0.003671
3452	0.025248
3448	0.071382
3444	0.072717
3440	0.044488
3436	0.089526
3432	0.105595
3428	-0.006604
3424	-0.138044
3420	-0.122046
3416	0.006842
3412	0.079154
3408	0.061559
3404	0.080704
3400	0.131392
3396	0.084948
3392	0.013899
3388	0.004124
3384	-0.002002
3380	-0.003218
3376	0.015377
3372	0.025773
3368	0.057673
3364	0.061869
3360	-0.041747
3356	-0.090217
3352	0.010561
3348	0.127172
3344	0.180339
3340	0.168013
3336	0.147461
3332	0.140476
3328	0.121450
3324	0.084638
3320	0.038671
3316	0.050735
3312	0.099396
3308	0.101447
3304	0.078153
3300	0.072240
3296	0.102686
3292	0.120019
3288	0.057435
3284	0.010228
3280	0.011396
3276	-0.018882
3272	-0.023531
3268	0.011086
3264	0.018072
3260	0.001955
3256	0.021576
3252	0.114750
3248	0.167083
3244	0.075435
3240	-0.015449
3236	-0.018477
3232	-0.025320
3228	-0.019741
3224	0.017690
3220	0.050568
3216	0.056743
3212	0.040864
3208	0.020456
3204	0.010681
3200	0.054574
3196	0.068640
3192	0.056815
3188	0.016427
3184	-0.044965
3180	0.036787
3176	0.153613
3172	0.124478
3168	0.058817
3164	0.024342
3160	0.016641
3156	0.027823
3152	0.013327
3148	0.032758
3144	0.096440
3140	0.125050
3136	0.075054
3132	0.012207
3128	0.060868
3124	0.181627
3120	0.184345
3116	0.090336
3112	0.077104
3108	0.084900
3104	0.031685
3100	-0.032806
3096	-0.089597
3092	-0.066161
3088	0.019049
3084	0.027489
3080	0.012969
3076	0.014305
3072	-0.046777
3068	-0.109457
3064	-0.049185
3060	0.095224
3056	0.143361
3052	0.099015
3048	0.052952
3044	0.005888
3040	0.029230
3036	0.062274
3032	0.046372
3028	0.093007
3024	0.160455
3020	0.165128
3016	0.138068
3012	0.119853
3008	0.084972
3004	0.055217
3000	0.048375
2996	-0.013184
2992	-0.035119
2988	0.025796
2984	0.034976
2980	0.006318
2976	-0.017571
2972	-0.047540
2968	-0.034427
2964	0.013136
2960	0.031232
2956	-0.000047
2952	-0.036621
2948	0.015926
2944	0.138545
2940	0.140523
2936	-0.020456
2932	-0.119900
2928	-0.115156
2924	-0.094103
2920	-0.048470
2916	-0.049591
2912	-0.072193
2908	-0.023460
2904	0.058913
2900	0.124144
2896	0.168895
2892	0.161242
2888	0.100016
2884	0.046300
2880	-0.002670
2876	-0.059342
2872	-0.021958
2868	0.063443
2864	0.071048
2860	0.037670
2856	0.064659
2852	0.134730
2848	0.116348
2844	0.042366
2840	0.014758
2836	-0.006461
2832	-0.024127
2828	-0.034379
2824	-0.045943
2820	-0.023293
2816	-0.001430
2812	0.006961
2808	0.003409
2804	-0.012183
2800	0.013422
2796	0.042033
2792	0.042533
2788	0.040888
2784	0.023126
2780	-0.005173
2776	0.006937
2772	0.020289
2768	-0.025653
2764	-0.037527
2760	0.043225
2756	0.111794
2752	0.123000
2748	0.143027
2744	0.127243
2740	0.048327
2736	-0.008153
2732	-0.010776
2728	0.012922
2724	0.068593
2720	0.120329
2716	0.102496
2712	0.044775
2708	0.031852
2704	0.071716
2700	0.097322
2696	0.099992
2692	0.077295
2688	0.030946
2684	0.028944
2680	0.052452
2676	0.047874
2672	0.080490
2668	0.147414
2664	0.138998
2660	0.097465
2656	0.071001
2652	0.002956
2648	-0.074958
2644	-0.092029
2640	-0.044345
2636	0.009012
2632	0.022292
2628	0.004649
2624	-0.010275
2620	0.016784
2616	0.104594
2612	0.120472
2608	0.041556
2604	0.039839
2600	0.069165
2596	0.072598
2592	0.109362
2588	0.123476
2584	0.092005
2580	0.043606
2576	0.008583
2572	0.030493
2568	0.018095
2564	-0.052618
2560	-0.050759
2556	0.010681
2552	0.041365
2548	0.039291
2544	0.018548
2540	-0.004911
2536	-0.002121
2532	-0.021719
2528	-0.076389
2524	-0.055932
2520	0.051474
2516	0.118637
2512	0.078964
2508	-0.019669
2504	-0.132679
2500	-0.150227
2496	-0.014352
2492	0.057768
2488	-0.048422
2484	-0.152945
2480	-0.142407
2476	-0.040698
2472	0.083589
2468	0.134658
2464	0.086522
2460	0.028848
2456	0.051903
2452	0.084733
2448	0.076603
2444	0.065159
2440	0.058436
2436	0.068020
2432	0.098752
2428	0.165843
2424	0.207877
2420	0.112771
2416	-0.033283
2412	-0.048518
2408	0.060653
2404	0.155973
2400	0.150394
2396	0.101280
2392	0.141048
2388	0.216269
2384	0.236272
2380	0.260305
2376	0.270152
2372	0.246000
2368	0.267410
2364	0.354194
2360	0.439548
2356	0.484037
2352	0.546097
2348	0.639986
2344	0.669836
2340	0.641155
2336	0.677633
2332	0.793075
2328	0.860285
2324	0.847339
2320	0.869965
2316	0.945115
2312	1.032638
2308	1.157951
2304	1.294016
2300	1.406669
2296	1.515483
2292	1.601314
2288	1.703929
2284	1.917386
2280	2.165007
2276	2.329134
2272	2.438664
2268	2.565979
2264	2.730298
2260	2.920627
2256	3.128004
2252	3.361225
2248	3.648638
2244	3.953289
2240	4.206538
2236	4.440736
2232	4.738235
2228	5.084681
2224	5.441522
2220	5.805110
2216	6.150054
2212	6.491351
2208	6.856584
2204	7.209897
2200	7.562017
2196	8.000206
2192	8.510470
2188	8.994436
2184	9.430885
2180	9.877681
2176	10.3652
2172	10.8477
2168	11.3121
2164	11.8222
2160	12.3958
2156	12.9852
2152	13.5108
2148	13.9494
2144	14.4394
2140	15.048
2136	15.6824
2132	16.2525
2128	16.7215
2124	17.1269
2120	17.5697
2116	18.117
2112	18.697
2108	19.2453
2104	19.7968
2100	20.3237
2096	20.8328
2092	21.3385
2088	21.8348
2084	22.3613
2080	22.8083
2076	23.1917
2072	23.7314
2068	24.2626
2064	24.6133
2060	24.9942
2056	25.4387
2052	25.8629
2048	26.2875
2044	26.6899
2040	27.0594
2036	27.4304
2032	27.7998
2028	28.1977
2024	28.6296
2020	28.9792
2016	29.2548
2012	29.5435
2008	29.82
2004	30.1188
2000	30.456
1996	30.707
1992	30.8911
1988	31.1208
1984	31.3331
1980	31.539
1976	31.8603
1972	32.2243
1968	32.5227
1964	32.7809
1960	33.0253
1956	33.2027
1952	33.3035
1948	33.4434
1944	33.6497
1940	33.7847
1936	33.8102
1932	33.8799
1928	34.0714
1924	34.2793
1920	34.4188
1916	34.5503
1912	34.7267
1908	34.9175
1904	35.0864
1900	35.2037
1896	35.2953
1892	35.3884
1888	35.4617
1884	35.5201
1880	35.592
1876	35.6774
1872	35.7626
1868	35.8578
1864	35.9477
1860	36.0118
1856	36.128
1852	36.3139
1848	36.4269
1844	36.4531
1840	36.5534
1836	36.7196
1832	36.7769
1828	36.7329
1824	36.7247
1820	36.7313
1816	36.7099
1812	36.7105
1808	36.729
1804	36.7476
1800	36.8181
1796	36.9352
1792	37.0353
1788	37.146
1784	37.2707
1780	37.3474
1776	37.343
1772	37.3121
1768	37.3335
1764	37.3447
1760	37.2987
1756	37.2885
1752	37.3528
1748	37.354
1744	37.2722
1740	37.3097
1736	37.4787
1732	37.5611
1728	37.5246
1724	37.5312
1720	37.611
1716	37.7182
1712	37.8157
1708	37.8435
1704	37.8157
1700	37.7571
1696	37.674
1692	37.5986
1688	37.5601
1684	37.5663
1680	37.5886
1676	37.5756
1672	37.5842
1668	37.708
1664	37.8594
1660	37.9163
1656	37.9399
1652	38.02
1648	38.0967
1644	38.1337
1640	38.0854
1636	37.9101
1632	37.7138
1628	37.5968
1624	37.5524
1620	37.5436
1616	37.5752
1612	37.6383
1608	37.7516
1604	37.903
1600	37.9724
1596	37.9989
1592	38.1014
1588	38.1826
1584	38.1458
1580	38.0744
1576	38.0136
1572	37.9673
1568	37.9299
1564	37.8592
1560	37.782
1556	37.7324
1552	37.7125
1548	37.7601
1544	37.8853
1540	38.0239
1536	38.1129
1532	38.1717
1528	38.2509
1524	38.279
1520	38.2158
1516	38.1677
1512	38.1306
1508	38.0251
1504	37.8887
1500	37.8069
1496	37.7707
1492	37.7589
1488	37.7923
1484	37.8428
1480	37.9267
1476	38.0785
1472	38.2514
1468	38.3535
1464	38.3566
1460	38.3351
1456	38.3657
1452	38.3821
1448	38.2333
1444	37.9477
1440	37.7252
1436	37.7292
1432	37.8135
1428	37.7852
1424	37.7643
1420	37.8086
1416	37.8296
1412	37.8776
1408	38.0441
1404	38.227
1400	38.3351
1396	38.3604
1392	38.2725
1388	38.1824
1384	38.1591
1380	38.1209
1376	38.0554
1372	37.9451
1368	37.7833
1364	37.704
1360	37.742
1356	37.8098
1352	37.8611
1348	37.8937
1344	37.9846
1340	38.1199
1336	38.216
1332	38.2828
1328	38.3061
1324	38.2445
1320	38.1353
1316	38.0176
1312	37.8673
1308	37.7166
1304	37.6513
1300	37.6648
1296	37.6981
1292	37.7508
1288	37.7954
1284	37.8274
1280	37.9514
1276	38.1516
1272	38.2875
1268	38.2914
1264	38.199
1260	38.0732
1256	37.9794
1252	37.9451
1248	37.8684
1244	37.6966
1240	37.5451
1236	37.4797
1232	37.4919
1228	37.549
1224	37.5864
1220	37.7009
1216	37.9213
1212	38.0599
1208	38.0666
1204	38.0883
1200	38.1578
1196	38.147
1192	38.0364
1188	37.87
1184	37.6646
1180	37.4851
1176	37.2983
1172	37.1194
1168	37.1265
1164	37.2635
1160	37.3694
1156	37.4603
1152	37.597
1148	37.7333
1144	37.8149
1140	37.8886
1136	37.9275
1132	37.8856
1128	37.7869
1124	37.6487
1120	37.5586
1116	37.4857
1112	37.3303
1108	37.1863
1104	37.1397
1100	37.104
1096	37.0654
1092	37.1487
1088	37.2671
1084	37.3445
1080	37.4799
1076	37.6663
1072	37.7824
1068	37.7252
1064	37.5883
1060	37.498
1056	37.3507
1052	37.0506
1048	36.7731
1044	36.682
1040	36.7199
1036	36.7719
1032	36.8219
1028	36.8989
1024	37.0006
1020	37.2029
1016	37.4463
1012	37.5705
1008	37.5435
1004	37.4196
1000	37.3034
996	 37.2027
992	 37.0112
988	 36.752
984	 36.5345
980	 36.3829
976	 36.2948
972	 36.2377
968	 36.2752
964	 36.4503
960	 36.6059
956	 36.6752
952	 36.7445
948	 36.9268
944	 37.1424
940	 37.1629
936	 37.0173
932	 36.8938
928	 36.7798
924	 36.5201
920	 36.1813
916	 35.9549
912	 35.8423
908	 35.7774
904	 35.7204
900	 35.7171
896	 35.9297
892	 36.3014
888	 36.5812
884	 36.691
880	 36.691
876	 36.601
872	 36.4033
868	 36.2467
864	 36.1346
860	 35.8491
856	 35.5391
852	 35.3935
848	 35.222
844	 35.0048
840	 34.9758
836	 35.1295
832	 35.3342
828	 35.5748
824	 35.8124
820	 35.9138
816	 35.903
812	 35.9276
808	 35.8901
804	 35.7061
800	 35.4812
796	 35.1963
792	 34.8241
788	 34.5085
784	 34.3408
780	 34.3065
776	 34.4297
772	 34.5688
768	 34.605
764	 34.712
760	 34.8942
756	 35.1187
752	 35.3707
748	 35.3592
744	 34.9858
740	 34.6312
736	 34.4883
732	 34.3247
728	 34.1475
724	 34.0153
720	 33.8024
716	 33.6331
712	 33.462
708	 33.2637
704	 33.3888
700	 33.6322
696	 33.733
692	 33.9382
688	 34.1673
684	 34.1744
680	 34.0923
676	 34.0116
672	 33.7756
668	 33.4563
664	 33.234
660	 32.9462
656	 32.5362
652	 32.2789
648	 32.1956
644	 32.2966
640	 32.5432
636	 32.5892
632	 32.52
628	 32.5875
624	 32.8237
620	 33.067
616	 33.0577
612	 32.7547
608	 32.3977
604	 32.3149
600	 32.2196
596	 31.8047
592	 31.4513
588	 31.2887
584	 31.1817
580	 31.082
576	 31.0249
572	 31.1544
568	 31.1757
564	 30.895
560	 30.7123
556	 30.8868
552	 30.9521
548	 30.8532
544	 31.4316
540	 31.8808
536	 31.3788
532	 30.6379
528	 29.4042
524	 27.7375
520	 27.2132
516	 28.7219
512	 30.8148
508	 31.0319
504	 29.395
500	 28.4538
496	 29.0352
492	 29.5392
488	 29.3666
484	 29.2012
480	 28.9698
476	 28.4955
472	 28.0703
468	 27.5524
464	 27.2906
460	 27.3974
456	 27.2584
452	 27.5275
448	 28.8234
444	 29.4858
440	 28.4826
436	 27.7176
432	 27.1343
428	 25.2529
424	 24.5559
420	 25.1532
416	 24.241
412	 24.4388
408	 27.4948
404	 31.853
400	 34.8526
396	 30.425
392	 23.4245
388	 23.7944
384	 24.6031
380	 16.1058
376	 24.1648
372	 62.0418
370	 64.0659