File: Bakgrunnsmateriale/MATLAB/FTIR/ftir_data/LPE454/Mapping_121/LPE454_t02.asc
PE IR       SPECTRUM    SPECTRUM    ASCII       PEDS        1.60
  -1
LPC394~1.ASC
17/05/19
14:33:57.00
17/05/19
14:34:23.00
tln
$LPE454_t0002$<tbV0>[10.4,-13.0,8.0,0.0,27,1,0]
27.028
64

2002,4.07
MIRTGS : RIGHTBACK : INTERNAL 2
MIR : ON : INTERNAL 2
OPTKBR

0.200000
8
8.000000
FILLER
RATIO
SPECTRUM
UNLOCKED 256

DOUBLE
64
COMBINED
1
0
0

0.002000
RATIO

1
0
TRUE
51149
0
LEFT NOT FITTED RIGHT NOT FITTED 0
NONE
NONE
15600
12
4.427000
51148
TRUE
1 0 8 72 0 0 0 0

15798

#HDR
-1
-1
#GR
µM
%T
2.38419e-05
0.0
2.000000
0.002000
12515
8
62.0076
-13.2615
#DATA
2.000000	 0.196385
2.018000	 0.183171
2.036000	 0.532283
2.054000	 1.572358
2.072000	 -0.806204
2.090000	 -0.053905
2.108000	 0.386047
2.126000	 0.157508
2.144000	 0.009522
2.162000	 -0.049830
2.180000	 0.168621
2.198000	 0.550693
2.216000	 -0.576201
2.234000	 -0.132224
2.252000	 -0.709784
2.270000	 -1.125148
2.288000	 -0.239762
2.306000	 0.218073
2.324000	 0.358412
2.342000	 0.019894
2.360000	 0.430793
2.378000	 -0.074402
2.396000	 -0.180757
2.414000	 0.285864
2.432000	 0.146879
2.450000	 0.251453
2.468000	 0.011927
2.486000	 -0.018294
2.504000	 0.093601
2.522000	 0.252576
2.540000	 0.152935
2.558000	 -0.126266
2.576000	 0.130803
2.594000	 0.115976
2.612000	 0.137000
2.630000	 -0.086837
2.648000	 0.116287
2.666000	 0.034226
2.684000	 -0.026855
2.702000	 0.220050
2.720000	 0.021109
2.738000	 0.135695
2.756000	 0.019587
2.774000	 0.157657
2.792000	 -0.067759
2.810000	 0.072753
2.828000	 0.032750
2.846000	 0.078864
2.864000	 0.144723
2.882000	 -0.026287
2.900000	 0.053911
2.918000	 0.026786
2.936000	 0.055105
2.954000	 0.094249
2.972000	 0.029724
2.990000	 0.032714
3.008000	 -0.083374
3.026000	 -0.039279
3.044000	 0.089748
3.062000	 -0.033879
3.080000	 0.103329
3.098000	 0.182668
3.116000	 0.092760
3.134000	 0.103058
3.152000	 0.154477
3.170000	 -0.028063
3.188000	 -0.115333
3.206000	 0.100903
3.224000	 0.124714
3.242000	 -0.002292
3.260000	 -0.079069
3.278000	 0.083516
3.296000	 -0.106570
3.314000	 0.081792
3.332000	 0.136227
3.350000	 -0.054463
3.368000	 0.087810
3.386000	 0.015392
3.404000	 0.053849
3.422000	 0.071579
3.440000	 0.176537
3.458000	 0.003959
3.476000	 0.043505
3.494000	 0.182472
3.512000	 0.207710
3.530000	 -0.010797
3.548000	 0.069699
3.566000	 -0.010293
3.584000	 -0.029731
3.602000	 0.047039
3.620000	 -0.075904
3.638000	 0.012595
3.656000	 0.026889
3.674000	 -0.124925
3.692000	 0.174089
3.710000	 0.022190
3.728000	 0.041056
3.746000	 0.076056
3.764000	 0.016426
3.782000	 -0.075687
3.800000	 0.020893
3.818000	 0.080691
3.836000	 -0.071460
3.854000	 0.135424
3.872000	 0.084233
3.890000	 0.012472
3.908000	 -0.019881
3.926000	 -0.052672
3.944000	 -0.058872
3.962000	 0.031232
3.980000	 -0.116691
3.998000	 0.088820
4.016000	 0.135142
4.034000	 0.162879
4.052000	 0.129131
4.070000	 0.172705
4.088000	 0.100788
4.106000	 0.105920
4.124000	 0.079366
4.141999	 0.049286
4.160000	 0.036287
4.178000	 0.040968
4.196000	 0.055341
4.214000	 0.092126
4.232000	 0.174596
4.250000	 0.256240
4.268000	 0.254992
4.286000	 0.414516
4.304000	 0.423908
4.322000	 0.598205
4.340000	 0.767849
4.358000	 1.011594
4.375999	 1.306203
4.394000	 1.417055
4.412000	 1.601304
4.430000	 2.009892
4.448000	 2.450401
4.466000	 2.956652
4.484000	 3.344030
4.502000	 3.842346
4.520000	 4.468423
4.538000	 5.214321
4.556000	 5.932579
4.574000	 6.586233
4.592000	 7.452283
4.609999	 8.314817
4.628000	 9.063332
4.646000	 10.0252
4.664000	 10.7735
4.682000	 11.6964
4.700000	 12.6717
4.718000	 13.5945
4.736000	 14.6709
4.754000	 15.3154
4.772000	 16.1912
4.790000	 17.2067
4.808000	 17.8471
4.826000	 18.4283
4.843999	 19.1328
4.862000	 20.0926
4.880000	 20.7491
4.898000	 21.4103
4.916000	 21.9565
4.934000	 22.502
4.952000	 22.9945
4.970000	 23.5267
4.988000	 24.1244
5.006000	 24.6086
5.024000	 25.0623
5.042000	 25.5102
5.060000	 25.872
5.077999	 26.2161
5.096000	 26.5596
5.114000	 26.8659
5.132000	 27.1434
5.150000	 27.4434
5.168000	 27.7435
5.186000	 27.9962
5.204000	 28.2133
5.222000	 28.4929
5.240000	 28.8035
5.258000	 29.0777
5.276000	 29.2654
5.294000	 29.338
5.312000	 29.522
5.330000	 29.7777
5.348000	 29.9818
5.366000	 30.0901
5.384000	 30.2675
5.402000	 30.3799
5.420000	 30.5028
5.438000	 30.6435
5.456000	 30.8216
5.474000	 30.9528
5.492000	 31.0203
5.510000	 31.1114
5.528000	 31.2443
5.546000	 31.3205
5.564000	 31.4502
5.582000	 31.6165
5.600000	 31.6874
5.618000	 31.7876
5.636000	 31.8178
5.654000	 31.8689
5.672000	 31.9471
5.690000	 31.8919
5.708000	 31.9931
5.726000	 32.0086
5.744000	 32.0678
5.762000	 32.2583
5.780000	 32.3638
5.798000	 32.3555
5.816000	 32.2767
5.834000	 32.3945
5.852000	 32.4822
5.870000	 32.5699
5.888000	 32.6463
5.906000	 32.6577
5.923999	 32.8146
5.942000	 32.9033
5.960000	 32.8273
5.978000	 32.834
5.996000	 32.9521
6.014000	 32.9565
6.032000	 33.012
6.050000	 33.0691
6.068000	 33.024
6.086000	 32.9896
6.104000	 33.0402
6.122000	 33.0899
6.140000	 33.1518
6.158000	 33.2156
6.176000	 33.2551
6.194000	 33.2618
6.212000	 33.1643
6.230000	 33.1405
6.248000	 33.2132
6.266000	 33.2626
6.284000	 33.2622
6.302000	 33.1699
6.320000	 33.0792
6.338000	 33.128
6.356000	 33.2507
6.374000	 33.3803
6.392000	 33.5178
6.410000	 33.6358
6.428000	 33.6449
6.446000	 33.5601
6.464000	 33.4995
6.482000	 33.5659
6.500000	 33.5958
6.518000	 33.4542
6.536000	 33.389
6.554000	 33.5072
6.572000	 33.5839
6.590000	 33.5456
6.608000	 33.5387
6.626000	 33.605
6.644000	 33.6537
6.662000	 33.6613
6.680000	 33.7429
6.698000	 33.8301
6.716000	 33.7889
6.734000	 33.7462
6.752000	 33.7171
6.770000	 33.6482
6.788000	 33.5941
6.806000	 33.5509
6.824000	 33.5901
6.842000	 33.7571
6.860000	 33.8434
6.878000	 33.7309
6.896000	 33.5639
6.914000	 33.5154
6.932000	 33.6098
6.950000	 33.7142
6.968000	 33.7337
6.986000	 33.7494
7.004000	 33.783
7.022000	 33.759
7.040000	 33.723
7.058000	 33.7366
7.076000	 33.7471
7.094000	 33.6937
7.112000	 33.5949
7.130000	 33.5458
7.148000	 33.5881
7.166000	 33.6193
7.184000	 33.5881
7.202000	 33.6099
7.220000	 33.7182
7.238000	 33.7981
7.256000	 33.8283
7.274000	 33.8609
7.292000	 33.8651
7.310000	 33.7779
7.328000	 33.6295
7.346000	 33.5388
7.364000	 33.5659
7.382000	 33.6414
7.400000	 33.6813
7.418000	 33.6609
7.436000	 33.6166
7.454000	 33.6026
7.472000	 33.6178
7.490000	 33.6324
7.508000	 33.6554
7.526000	 33.6844
7.544000	 33.6838
7.562000	 33.6553
7.580000	 33.6487
7.598000	 33.6872
7.616000	 33.7314
7.634000	 33.7391
7.652000	 33.7139
7.670000	 33.6663
7.688000	 33.5871
7.706000	 33.4988
7.724000	 33.454
7.742000	 33.4531
7.760000	 33.4477
7.778000	 33.4384
7.796000	 33.476
7.814000	 33.5527
7.832000	 33.5926
7.850000	 33.5627
7.868000	 33.5153
7.886000	 33.5055
7.904000	 33.5197
7.922000	 33.5222
7.940000	 33.5289
7.958000	 33.5759
7.976000	 33.6429
7.994000	 33.6784
8.012000	 33.6728
8.030000	 33.6409
8.048000	 33.5722
8.065999	 33.4618
8.084000	 33.3507
8.102000	 33.288
8.120000	 33.2804
8.138000	 33.2986
8.155999	 33.315
8.173999	 33.3267
8.192000	 33.3456
8.210000	 33.375
8.228000	 33.4132
8.246000	 33.4648
8.263999	 33.5243
8.282000	 33.5554
8.300000	 33.5254
8.318000	 33.4564
8.336000	 33.4039
8.353999	 33.3931
8.372000	 33.4011
8.390000	 33.396
8.408000	 33.3724
8.426000	 33.3487
8.443999	 33.3427
8.462000	 33.3567
8.480000	 33.3767
8.498000	 33.3804
8.516000	 33.3536
8.533999	 33.3025
8.552000	 33.2504
8.570000	 33.2214
8.588000	 33.2211
8.606000	 33.2329
8.624000	 33.2374
8.641999	 33.2378
8.660000	 33.2519
8.678000	 33.2866
8.696000	 33.33
8.714000	 33.3662
8.731999	 33.3906
8.750000	 33.4122
8.768000	 33.4347
8.786000	 33.4388
8.804000	 33.4018
8.821999	 33.3322
8.840000	 33.2691
8.858000	 33.2435
8.876000	 33.2473
8.894000	 33.2439
8.911999	 33.2052
8.930000	 33.139
8.948000	 33.0787
8.966000	 33.0499
8.984000	 33.0471
9.001999	 33.0425
9.020000	 33.0177
9.038000	 32.9781
9.056000	 32.9361
9.074000	 32.8892
9.092000	 32.824
9.109999	 32.7438
9.128000	 32.6777
9.146000	 32.6568
9.164000	 32.6872
9.182000	 32.752
9.199999	 32.8311
9.218000	 32.9082
9.236000	 32.9646
9.254000	 32.982
9.272000	 32.9627
9.289999	 32.9381
9.308000	 32.944
9.326000	 32.9848
9.344000	 33.0293
9.362000	 33.0431
9.379999	 33.021
9.398000	 32.9869
9.416000	 32.9629
9.434000	 32.9443
9.452000	 32.9037
9.469999	 32.8232
9.488000	 32.718
9.506000	 32.6276
9.524000	 32.5836
9.542000	 32.585
9.560000	 32.6021
9.577999	 32.6048
9.596000	 32.5854
9.614000	 32.5551
9.632000	 32.5258
9.650000	 32.5006
9.667999	 32.4784
9.686000	 32.4625
9.704000	 32.4629
9.722000	 32.4937
9.740000	 32.5664
9.757999	 32.6798
9.776000	 32.8135
9.794000	 32.9277
9.812000	 32.9816
9.830000	 32.9605
9.847999	 32.889
9.866000	 32.8135
9.884000	 32.7681
9.902000	 32.7516
9.920000	 32.7349
9.937999	 32.6884
9.956000	 32.6065
9.974000	 32.5092
9.992000	 32.4259
10.01	32.3776
10.028	32.3711
10.046	32.4002
10.064	32.4512
10.082	32.5046
10.1	32.5383
10.118	32.5336
10.136	32.4818
10.154	32.389
10.172	32.2751
10.19	32.1694
10.208	32.0988
10.226	32.0767
10.244	32.099
10.262	32.1461
10.28	32.1951
10.298	32.2294
10.316	32.2451
10.334	32.2498
10.352	32.253
10.37	32.261
10.388	32.2726
10.406	32.2818
10.424	32.2797
10.442	32.2595
10.46	32.2195
10.478	32.1657
10.496	32.1093
10.514	32.0618
10.532	32.0322
10.55	32.0237
10.568	32.0346
10.586	32.0597
10.604	32.0924
10.622	32.1249
10.64	32.1508
10.658	32.1664
10.676	32.1722
10.694	32.172
10.712	32.1697
10.73	32.1649
10.748	32.1528
10.766	32.1276
10.784	32.088
10.802	32.0387
10.82	31.9869
10.838	31.9385
10.856	31.8945
10.874	31.8523
10.892	31.8103
10.91	31.7712
10.928	31.7411
10.946	31.7259
10.964	31.726
10.982	31.735
11	31.744
11.018	31.7455
11.036	31.7382
11.054	31.7271
11.072	31.7201
11.09	31.726
11.108	31.7495
11.126	31.7899
11.144	31.8405
11.162	31.8899
11.18	31.9261
11.198	31.9402
11.216	31.9301
11.234	31.9013
11.252	31.8649
11.27	31.8312
11.288	31.8057
11.306	31.7861
11.324	31.7642
11.342	31.7308
11.36	31.6806
11.378	31.6146
11.396	31.5385
11.414	31.4609
11.432	31.3909
11.45	31.3358
11.468	31.301
11.486	31.2888
11.504	31.2982
11.522	31.3232
11.54	31.3547
11.558	31.3803
11.576	31.3894
11.594	31.3769
11.612	31.3453
11.63	31.3038
11.648	31.2636
11.666	31.2341
11.684	31.2171
11.702	31.2063
11.72	31.1899
11.738	31.1556
11.756	31.0973
11.774	31.0179
11.792	30.9291
11.81	30.8469
11.828	30.7858
11.846	30.7538
11.864	30.7491
11.882	30.7629
11.9	30.782
11.918	30.7956
11.936	30.7994
11.954	30.7968
11.972	30.7972
11.99	30.8107
12.008	30.8432
12.026	30.8935
12.044	30.9528
12.062	31.0074
12.08	31.0443
12.098	31.0559
12.116	31.0426
12.134	31.013
12.152	30.9798
12.17	30.9546
12.188	30.9445
12.206	30.9494
12.224	30.9632
12.242	30.9771
12.26	30.9838
12.278	30.9786
12.296	30.9596
12.314	30.9272
12.332	30.8827
12.35	30.8283
12.368	30.767
12.386	30.7028
12.404	30.6406
12.422	30.5858
12.44	30.5429
12.458	30.5152
12.476	30.5037
12.494	30.507
12.512	30.5208
12.53	30.5388
12.548	30.5539
12.566	30.5594
12.584	30.5508
12.602	30.5268
12.62	30.4902
12.638	30.447
12.656	30.4046
12.674	30.3704
12.692	30.3494
12.71	30.3428
12.728	30.3477
12.746	30.3582
12.764	30.3677
12.782	30.3709
12.8	30.3659
12.818	30.3543
12.836	30.3406
12.854	30.3298
12.872	30.3259
12.89	30.3302
12.908	30.3404
12.926	30.352
12.944	30.3595
12.962	30.3587
12.98	30.3486
12.998	30.3317
13.016	30.3136
13.034	30.302
13.052	30.3041
13.07	30.3247
13.088	30.3655
13.106	30.4247
13.124	30.4972
13.142	30.5756
13.16	30.653
13.178	30.7229
13.196	30.7808
13.214	30.8245
13.232	30.8538
13.25	30.8703
13.268	30.8763
13.286	30.8741
13.304	30.8659
13.322	30.8526
13.34	30.8345
13.358	30.8108
13.376	30.7804
13.394	30.7419
13.412	30.6948
13.43	30.6392
13.448	30.576
13.466	30.5074
13.484	30.4365
13.502	30.3666
13.52	30.3003
13.538	30.2394
13.556	30.1842
13.574	30.1331
13.592	30.0836
13.61	30.0321
13.628	29.976
13.646	29.9138
13.664	29.8462
13.682	29.7756
13.7	29.7062
13.718	29.6429
13.736	29.59
13.754	29.55
13.772	29.5238
13.79	29.5099
13.808	29.5059
13.826	29.5081
13.844	29.5136
13.862	29.52
13.88	29.5266
13.898	29.5338
13.916	29.543
13.934	29.5558
13.952	29.5736
13.97	29.597
13.988	29.6249
14.006	29.6556
14.024	29.6857
14.042	29.7122
14.06	29.7319
14.078	29.7427
14.096	29.7436
14.114	29.7346
14.132	29.7173
14.15	29.6939
14.168	29.6667
14.186	29.6381
14.204	29.6102
14.222	29.5846
14.24	29.5625
14.258	29.5442
14.276	29.5301
14.294	29.5201
14.312	29.5144
14.33	29.5128
14.348	29.5155
14.366	29.5219
14.384	29.5312
14.402	29.5427
14.42	29.5549
14.438	29.5658
14.456	29.5734
14.474	29.5752
14.492	29.5685
14.51	29.5513
14.528	29.5218
14.546	29.4794
14.564	29.4247
14.582	29.3593
14.6	29.2859
14.618	29.2082
14.636	29.1307
14.654	29.0577
14.672	28.9927
14.69	28.9385
14.708	28.8965
14.726	28.8671
14.744	28.8488
14.762	28.8389
14.78	28.8339
14.798	28.83
14.816	28.8231
14.834	28.8091
14.852	28.7848
14.87	28.7479
14.888	28.6975
14.906	28.6335
14.924	28.5571
14.942	28.4707
14.96	28.3782
14.978	28.2837
14.996	28.1915
15.014	28.1064
15.032	28.0331
15.05	27.9755
15.068	27.9361
15.086	27.9163
15.104	27.9162
15.122	27.9341
15.14	27.9666
15.158	28.0099
15.176	28.0596
15.194	28.1107
15.212	28.1583
15.23	28.199
15.248	28.2306
15.266	28.2517
15.284	28.2626
15.302	28.2652
15.32	28.2613
15.338	28.2533
15.356	28.2437
15.374	28.2347
15.392	28.2276
15.41	28.2232
15.428	28.2217
15.446	28.2228
15.464	28.2259
15.482	28.2308
15.5	28.2372
15.518	28.2454
15.536	28.2557
15.554	28.2688
15.572	28.2853
15.59	28.3055
15.608	28.3293
15.626	28.3562
15.644	28.3849
15.662	28.4133
15.68	28.4393
15.698	28.4608
15.716	28.4749
15.734	28.4796
15.752	28.4739
15.77	28.4571
15.788	28.4297
15.806	28.3934
15.824	28.3498
15.842	28.3015
15.86	28.2517
15.878	28.2028
15.896	28.1573
15.914	28.1178
15.932	28.0854
15.95	28.0608
15.968	28.0439
15.986	28.0339
16.004	28.03
16.022	28.0309
16.04	28.0345
16.058	28.0394
16.076	28.0443
16.094	28.0473
16.112	28.0477
16.13	28.0447
16.148	28.0377
16.166	28.0265
16.184	28.0111
16.202	27.9916
16.22	27.9684
16.238	27.942
16.256	27.9128
16.274	27.8819
16.292	27.8501
16.31	27.8183
16.328	27.7879
16.346	27.76
16.364	27.7354
16.382	27.7152
16.4	27.6998
16.418	27.6893
16.436	27.6834
16.454	27.6813
16.472	27.6821
16.49	27.6839
16.508	27.6848
16.526	27.6834
16.544	27.6769
16.562	27.664
16.58	27.6433
16.598	27.6133
16.616	27.5737
16.634	27.5244
16.652	27.466
16.67	27.3999
16.688	27.3273
16.706	27.2511
16.724	27.1731
16.742	27.0959
16.76	27.0228
16.778	26.9552
16.796	26.8959
16.814	26.8462
16.832	26.8069
16.85	26.7787
16.868	26.761
16.886	26.7535
16.904	26.7542
16.922	26.7619
16.94	26.7746
16.958	26.7898
16.976	26.8063
16.994	26.8216
17.012	26.8347
17.03	26.8448
17.048	26.8514
17.066	26.855
17.084	26.8559
17.102	26.8556
17.12	26.8547
17.138	26.8553
17.156	26.8586
17.174	26.8658
17.192	26.8783
17.21	26.8964
17.228	26.9207
17.246	26.9505
17.264	26.9857
17.282	27.0247
17.3	27.0667
17.318	27.1099
17.336	27.1524
17.354	27.193
17.372	27.2292
17.39	27.2602
17.408	27.2839
17.426	27.2997
17.444	27.3067
17.462	27.3047
17.48	27.2939
17.498	27.2745
17.516	27.2477
17.534	27.2141
17.552	27.1763
17.57	27.1352
17.588	27.0936
17.606	27.053
17.624	27.0154
17.642	26.9827
17.66	26.9556
17.678	26.936
17.696	26.9238
17.714	26.9193
17.732	26.9216
17.75	26.9303
17.768	26.9428
17.786	26.9585
17.804	26.9737
17.822	26.9877
17.84	26.9965
17.858	26.9987
17.876	26.9921
17.894	26.9746
17.912	26.9454
17.93	26.9035
17.948	26.8487
17.966	26.7817
17.984	26.7032
18.002	26.6147
18.02	26.5182
18.038	26.4152
18.056	26.3093
18.074	26.2012
18.092	26.0953
18.11	25.992
18.128	25.8952
18.146	25.8053
18.164	25.7253
18.182	25.6557
18.2	25.5979
18.218	25.5526
18.236	25.5201
18.254	25.5007
18.272	25.4944
18.29	25.5005
18.308	25.5189
18.326	25.5484
18.344	25.5886
18.362	25.6376
18.38	25.6946
18.398	25.7575
18.416	25.8248
18.434	25.8944
18.452	25.9638
18.47	26.0314
18.488	26.0943
18.506	26.1512
18.524	26.1992
18.542	26.2378
18.56	26.2646
18.578	26.2792
18.596	26.2811
18.614	26.2703
18.632	26.2478
18.65	26.2141
18.668	26.1722
18.686	26.1225
18.704	26.0695
18.722	26.0139
18.74	25.9603
18.758	25.9094
18.776	25.8657
18.794	25.8296
18.812	25.8041
18.83	25.7891
18.848	25.786
18.866	25.7939
18.884	25.8125
18.902	25.8403
18.92	25.8756
18.938	25.9165
18.956	25.9602
18.974	26.0052
18.992	26.0483
19.01	26.0889
19.028	26.1243
19.046	26.155
19.064	26.1796
19.082	26.1994
19.1	26.2147
19.118	26.227
19.136	26.2384
19.154	26.2501
19.172	26.2652
19.19	26.2841
19.208	26.3098
19.226	26.3421
19.244	26.3831
19.262	26.432
19.28	26.4884
19.298	26.5517
19.316	26.619
19.334	26.6902
19.352	26.7599
19.37	26.8285
19.388	26.8899
19.406	26.9447
19.424	26.9874
19.442	27.0179
19.46	27.0337
19.478	27.034
19.496	27.0189
19.514	26.9876
19.532	26.942
19.55	26.8823
19.568	26.811
19.586	26.73
19.604	26.641
19.622	26.5482
19.64	26.4517
19.658	26.3566
19.676	26.2624
19.694	26.1733
19.712	26.0891
19.73	26.0119
19.748	25.942
19.766	25.8796
19.784	25.8252
19.802	25.7778
19.82	25.7372
19.838	25.7023
19.856	25.672
19.874	25.6458
19.892	25.6213
19.91	25.5988
19.928	25.5756
19.946	25.5522
19.964	25.5265
19.982	25.4984
20	25.4672
20.018	25.4323
20.036	25.3938
20.054	25.3514
20.072	25.3052
20.09	25.2556
20.108	25.2027
20.126	25.1476
20.144	25.0902
20.162	25.0321
20.18	24.9737
20.198	24.9158
20.216	24.8602
20.234	24.8067
20.252	24.7573
20.27	24.7118
20.288	24.6716
20.306	24.6372
20.324	24.6084
20.342	24.586
20.36	24.5694
20.378	24.5582
20.396	24.5525
20.414	24.5501
20.432	24.5517
20.45	24.5542
20.468	24.5568
20.486	24.5583
20.504	24.5555
20.522	24.549
20.54	24.5355
20.558	24.5152
20.576	24.487
20.594	24.4499
20.612	24.4045
20.63	24.3503
20.648	24.2875
20.666	24.2182
20.684	24.1419
20.702	24.0613
20.72	23.9777
20.738	23.8919
20.756	23.8079
20.774	23.7247
20.792	23.6466
20.81	23.5739
20.828	23.5077
20.846	23.4508
20.864	23.4023
20.882	23.3635
20.9	23.3346
20.918	23.3149
20.936	23.3047
20.954	23.3034
20.972	23.3092
20.99	23.3226
21.008	23.3415
21.026	23.3653
21.044	23.3933
21.062	23.4236
21.08	23.4564
21.098	23.4907
21.116	23.5258
21.134	23.5621
21.152	23.5993
21.17	23.6372
21.188	23.6772
21.206	23.7192
21.224	23.7641
21.242	23.8137
21.26	23.8674
21.278	23.9271
21.296	23.9933
21.314	24.0658
21.332	24.1454
21.35	24.2318
21.368	24.3243
21.386	24.4235
21.404	24.5279
21.422	24.6348
21.44	24.7454
21.458	24.8549
21.476	24.9622
21.494	25.0666
21.512	25.161
21.53	25.2476
21.548	25.3213
21.566	25.3784
21.584	25.4202
21.602	25.441
21.62	25.4411
21.638	25.4194
21.656	25.3732
21.674	25.3033
21.692	25.2108
21.71	25.0946
21.728	24.9567
21.746	24.8012
21.764	24.6258
21.782	24.4371
21.8	24.2391
21.818	24.0304
21.836	23.8216
21.854	23.612
21.872	23.4053
21.89	23.2114
21.908	23.0267
21.926	22.8586
21.944	22.7123
21.962	22.5853
21.98	22.4838
21.998	22.4088
22.016	22.3596
22.034	22.3383
22.052	22.3454
22.07	22.378
22.088	22.4352
22.106	22.5176
22.124	22.6185
22.142	22.7379
22.16	22.8741
22.178	23.0179
22.196	23.1722
22.214	23.3312
22.232	23.4873
22.25	23.6441
22.268	23.7941
22.286	23.9327
22.304	24.0623
22.322	24.1761
22.34	24.273
22.358	24.3535
22.376	24.4138
22.394	24.4542
22.412	24.4747
22.43	24.4747
22.448	24.454
22.466	24.4141
22.484	24.3559
22.502	24.2788
22.52	24.1854
22.538	24.0768
22.556	23.9524
22.574	23.8157
22.592	23.6668
22.61	23.5061
22.628	23.336
22.646	23.1563
22.664	22.9676
22.682	22.7714
22.7	22.5674
22.718	22.3559
22.736	22.1377
22.754	21.9123
22.772	21.6806
22.79	21.4429
22.808	21.1988
22.826	20.95
22.844	20.6971
22.862	20.4395
22.88	20.1798
22.898	19.9186
22.916	19.6553
22.934	19.3944
22.952	19.1365
22.97	18.881
22.988	18.6344
23.006	18.3966
23.024	18.1677
23.042	17.955
23.06	17.7587
23.078	17.5786
23.096	17.4198
23.114	17.282
23.132	17.1652
23.15	17.0731
23.168	17.0056
23.186	16.9623
23.204	16.9451
23.222	16.9547
23.24	16.9896
23.258	17.0487
23.276	17.134
23.294	17.2426
23.312	17.3682
23.33	17.5128
23.348	17.6741
23.366	17.8441
23.384	18.0244
23.402	18.2134
23.42	18.4029
23.438	18.5936
23.456	18.7851
23.474	18.9702
23.492	19.1485
23.51	19.3207
23.528	19.4809
23.546	19.6273
23.564	19.7616
23.582	19.8815
23.6	19.9853
23.618	20.0742
23.636	20.1495
23.654	20.2116
23.672	20.2599
23.69	20.2969
23.708	20.3243
23.726	20.3407
23.744	20.3485
23.762	20.3495
23.78	20.3424
23.798	20.329
23.816	20.3114
23.834	20.2887
23.852	20.2617
23.87	20.2319
23.888	20.1984
23.906	20.1621
23.924	20.1247
23.942	20.0858
23.96	20.0456
23.978	20.0063
23.996	19.9686
24.014	19.9318
24.032	19.897
24.05	19.8652
24.068	19.8355
24.086	19.8089
24.104	19.7857
24.122	19.7654
24.14	19.7489
24.158	19.7378
24.176	19.7308
24.194	19.729
24.212	19.7351
24.23	19.7503
24.248	19.7733
24.266	19.8034
24.284	19.8401
24.302	19.8835
24.32	19.934
24.338	19.9916
24.356	20.0556
24.374	20.1273
24.392	20.209
24.41	20.298
24.428	20.3965
24.446	20.5107
24.464	20.6425
24.482	20.789
24.5	20.956
24.518	21.148
24.536	21.3596
24.554	21.5974
24.572	21.8702
24.59	22.1745
24.608	22.5116
24.626	22.891
24.644	23.3165
24.662	23.7828
24.68	24.2971
24.698	24.866
24.716	25.4867
24.734	26.1591
24.752	26.8857
24.77	27.6685
24.788	28.5052
24.806	29.3917
24.824	30.3267
24.842	31.3159
24.86	32.3469
24.878	33.4057
24.896	34.4997
24.914	35.6251
24.932	36.7635
24.95	37.9068
24.968	39.0664
24.986	40.2266
25.004	41.3704
25.022	42.5067
25.04	43.6315
25.058	44.7298
25.076	45.795
25.094	46.8357
25.112	47.8429
25.13	48.8069
25.148	49.7309
25.166	50.6155
25.184	51.457
25.202	52.2526
25.22	53.0042
25.238	53.7138
25.256	54.3837
25.274	55.0109
25.292	55.598
25.31	56.1513
25.328	56.6736
25.346	57.1606
25.364	57.6181
25.382	58.0523
25.4	58.4618
25.418	58.846
25.436	59.2101
25.454	59.5584
25.472	59.8879
25.49	60.1999
25.508	60.4967
25.526	60.7844
25.544	61.0614
25.562	61.3135
25.58	61.5282
25.598	61.7219
25.616	61.8823
25.634	61.9823
25.652	62.0076
25.67	61.9806
25.688	61.8781
25.706	61.6719
25.724	61.363
25.742	60.9623
25.76	60.4472
25.778	59.7961
25.796	59.0149
25.814	58.109
25.832	57.0765
25.85	55.9136
25.868	54.6161
25.886	53.1983
25.904	51.6762
25.922	50.0476
25.94	48.3039
25.958	46.4724
25.976	44.5801
25.994	42.6115
26.012	40.5689
26.03	38.4846
26.048	36.3859
26.066	34.2478
26.084	32.0837
26.102	29.9228
26.12	27.7831
26.138	25.6412
26.156	23.5145
26.174	21.4261
26.192	19.3868
26.21	17.383
26.228	15.4184
26.246	13.4975
26.264	11.6195
26.282	9.782519
26.3	7.990537
26.318	6.247578
26.336	4.552111
26.354	2.903266
26.372	1.303189
26.39	-0.246863
26.408	-1.757816
26.426	-3.219996
26.444	-4.615757
26.462	-5.932522
26.48	-7.195803
26.498	-8.384756
26.516	-9.465443
26.534	-10.4162
26.552	-11.2748
26.57	-12.0112
26.588	-12.5823
26.606	-12.9642
26.624	-13.2004
26.642	-13.256
26.66	-13.0858
26.678	-12.6634
26.696	-12.0233
26.714	-11.1511
26.732	-10.0268
26.75	-8.633516
26.768	-6.978730
26.786	-5.080512
26.804	-2.956725
26.822	-0.602877
26.84	2.009482
26.858	4.823153
26.876	7.776031
26.894	10.8563
26.912	14.1341
26.93	17.5143
26.948	20.8907
26.966	24.3411
26.984	28.146
27.002	31.7598
27.02	34.5817
27.028	35.3394