File: Bakgrunnsmateriale/MATLAB/FTIR/ftir_data/LPE454/Mapping_121/LPE454_t104_cm-1.asc
PE IR       SPECTRUM    SPECTRUM    ASCII       PEDS        1.60
  -1
LP07DC~1.ASC
17/05/19
22:54:34.00
17/05/19
22:54:34.00
tln
$LPE454_t0104$<tbV0>[2.6,10.4,8.0,0.0,27,1,0]
370
64

2002,4.07
MIRTGS : RIGHTBACK : INTERNAL 2
MIR : ON : INTERNAL 2
OPTKBR

0.200000
8
8.000000
FILLER
RATIO
SPECTRUM
UNLOCKED 256

DOUBLE
64
COMBINED
1
0
0

1.000000
RATIO

1
0
TRUE
51149
0
LEFT NOT FITTED RIGHT NOT FITTED 0
NONE
NONE
15600
12
4.427000
51148
TRUE
1 0 8 72 0 0 0 0

15798

#HDR
-1
-1
#GR
CM-1
%T
2.38419e-05
0.0
5000
-1.000000
4631
8
40.5443
-53.4773
#DATA
5000	0.268959
4996	0.380539
4992	0.257611
4988	0.007295
4984	-0.144529
4980	-0.200986
4976	-0.201678
4972	-0.038409
4968	0.103735
4964	0.118160
4960	0.154662
4956	0.128173
4952	0.027132
4948	0.102543
4944	0.259542
4940	0.237846
4936	0.255608
4932	0.312256
4928	0.075316
4924	-0.164937
4920	-0.098609
4916	0.053572
4912	0.067210
4908	-0.031971
4904	-0.100564
4900	-0.015807
4896	0.094127
4892	0.080895
4888	0.034523
4884	0.007867
4880	-0.016069
4876	-0.001049
4872	0.098729
4868	0.183963
4864	0.092077
4860	0.019693
4856	0.189089
4852	0.322222
4848	0.186276
4844	-0.065994
4840	-0.087165
4836	0.157332
4832	0.331234
4828	0.315737
4824	0.198149
4820	0.073719
4816	0.004839
4812	0.089478
4808	0.298547
4804	0.486421
4800	0.519633
4796	0.433850
4792	0.439667
4788	0.504183
4784	0.428128
4780	0.228500
4776	0.126719
4772	0.185251
4768	0.374794
4764	0.470066
4760	0.209712
4756	-0.118494
4752	-0.180077
4748	-0.156641
4744	-0.103616
4740	0.133991
4736	0.169229
4732	0.125741
4728	0.153207
4724	-0.017404
4720	-0.244522
4716	-0.335836
4712	-0.318264
4708	-0.104880
4704	0.055098
4700	-0.017976
4696	-0.117540
4692	-0.157904
4688	-0.015783
4684	0.244164
4680	0.321483
4676	0.215554
4672	0.077676
4668	-0.043225
4664	0.037646
4660	0.233864
4656	0.239419
4652	0.189566
4648	0.253105
4644	0.213718
4640	0.044775
4636	-0.076413
4632	-0.061440
4628	0.271129
4624	0.524234
4620	0.399231
4616	0.335979
4612	0.461149
4608	0.680780
4604	0.394654
4600	-1.957845
4596	0.529623
4592	15.3767
4588	30.9947
4584	17.0984
4580	-2.152037
4576	-4.099965
4572	-3.268837
4568	-2.434086
4564	-2.152085
4560	-1.700425
4556	-1.363635
4552	-1.009202
4548	-1.008892
4544	-1.069378
4540	-0.543332
4536	0.171685
4532	0.166749
4528	-0.358653
4524	-0.407910
4520	-0.061559
4516	0.292682
4512	0.609779
4508	0.525045
4504	0.320839
4500	0.471806
4496	0.565767
4492	0.392603
4488	0.328636
4484	0.367140
4480	0.361919
4476	0.369668
4472	0.299978
4468	0.092315
4464	-0.128817
4460	-0.280332
4456	-0.203418
4452	0.058293
4448	0.184226
4444	0.000023
4440	-0.217843
4436	-0.235676
4432	-0.212168
4428	-0.093460
4424	0.066566
4420	0.072288
4416	-0.021576
4412	-0.168561
4408	-0.110268
4404	0.123858
4400	0.320696
4396	0.324320
4392	0.089001
4388	-0.062704
4384	-0.028443
4380	0.043487
4376	0.077581
4372	0.128650
4368	0.294208
4364	0.367331
4360	0.227737
4356	0.185847
4352	0.189566
4348	0.112128
4344	0.047469
4340	-0.078773
4336	-0.098681
4332	0.108671
4328	0.224447
4324	0.230646
4320	0.271964
4316	0.204968
4312	0.051617
4308	-0.047874
4304	-0.089097
4300	-0.064539
4296	0.071406
4292	0.228452
4288	0.213861
4284	0.119423
4280	0.122189
4276	0.142121
4272	0.029778
4268	-0.149440
4264	-0.100159
4260	0.190758
4256	0.362801
4252	0.272393
4248	0.094199
4244	-0.013566
4240	0.014972
4236	0.172185
4232	0.281620
4228	0.283169
4224	0.296664
4220	0.203180
4216	-0.010085
4212	-0.139784
4208	-0.082039
4204	0.127339
4200	0.275373
4196	0.247907
4192	0.239825
4188	0.214266
4184	0.179171
4180	0.376915
4176	0.491666
4172	0.321364
4168	0.175309
4164	0.051975
4160	0.067925
4156	0.159597
4152	-0.013899
4148	-0.208854
4144	-0.265812
4140	-0.366520
4136	-0.326323
4132	-0.025439
4128	0.239396
4124	0.183343
4120	-0.162339
4116	-0.449347
4112	-0.424647
4108	0.104165
4104	0.600290
4100	0.373315
4096	0.259017
4092	0.510430
4088	0.336956
4084	-0.110983
4080	-0.500726
4076	-0.638914
4072	-0.284028
4068	0.377130
4064	0.829386
4060	0.729966
4056	0.174713
4052	-0.115561
4048	0.101995
4044	0.333046
4040	0.383853
4036	0.285458
4032	0.141501
4028	0.063896
4024	0.096607
4020	0.090765
4016	0.209569
4012	0.517964
4008	0.568890
4004	0.312995
4000	0.131320
3996	0.183916
3992	0.191807
3988	0.074291
3984	-0.014996
3980	0.016021
3976	0.114011
3972	0.125288
3968	0.133967
3964	0.212335
3960	0.235557
3956	0.134253
3952	0.076913
3948	0.054907
3944	-0.052857
3940	-0.105571
3936	-0.132513
3932	-0.139427
3928	-0.026774
3924	0.110149
3920	0.120282
3916	0.006699
3912	-0.016188
3908	0.024175
3904	-0.009369
3900	-0.067257
3896	-0.078701
3892	-0.003170
3888	0.077509
3884	0.038027
3880	-0.035953
3876	-0.041365
3872	-0.010943
3868	0.039005
3864	0.043678
3860	-0.058817
3856	-0.150322
3852	-0.054430
3848	0.093293
3844	0.134682
3840	0.184917
3836	0.259900
3832	0.231313
3828	0.084447
3824	-0.024437
3820	-0.000810
3816	0.067448
3812	0.098562
3808	0.043416
3804	-0.055789
3800	-0.046253
3796	0.023388
3792	0.000882
3788	-0.045871
3784	0.014805
3780	0.160622
3776	0.253653
3772	0.185656
3768	0.065803
3764	0.079560
3760	0.179624
3756	0.242114
3752	0.247406
3748	0.159215
3744	0.062203
3740	0.074481
3736	0.078248
3732	0.019335
3728	-0.039482
3724	-0.062894
3720	-0.035357
3716	0.004339
3712	0.051569
3708	0.108933
3704	0.151228
3700	0.135135
3696	0.038528
3692	-0.046086
3688	0.002026
3684	0.100302
3680	0.104641
3676	0.084900
3672	0.116086
3668	0.170874
3664	0.153279
3660	0.072836
3656	0.057148
3652	0.065684
3648	0.055456
3644	0.094175
3640	0.171184
3636	0.241637
3632	0.237417
3628	0.122594
3624	0.043797
3620	0.034594
3616	0.004410
3612	-0.033402
3608	-0.006580
3604	0.106358
3600	0.154566
3596	0.048089
3592	-0.033426
3588	0.003194
3584	0.066399
3580	0.142908
3576	0.180482
3572	0.099682
3568	0.021886
3564	0.052237
3560	0.096178
3556	0.075674
3552	0.009679
3548	-0.017070
3544	0.039291
3540	0.054836
3536	-0.007009
3532	-0.009775
3528	0.085711
3524	0.188136
3520	0.193309
3516	0.096297
3512	-0.008487
3508	-0.038528
3504	-0.011992
3500	-0.001621
3496	0.045466
3492	0.112748
3488	0.126314
3484	0.128054
3480	0.046133
3476	-0.079822
3472	-0.120568
3468	-0.127863
3464	-0.058937
3460	0.087141
3456	0.150680
3452	0.111603
3448	0.037860
3444	-0.025320
3440	-0.000596
3436	0.067377
3432	0.072741
3428	0.077557
3424	0.117659
3420	0.119972
3416	0.126743
3412	0.164937
3408	0.148701
3404	0.102043
3400	0.038695
3396	-0.066208
3392	-0.092768
3388	-0.014996
3384	0.008845
3380	-0.054240
3376	-0.066018
3372	-0.010514
3368	-0.003242
3364	-0.019216
3360	0.042843
3356	0.173306
3352	0.227808
3348	0.137042
3344	0.063371
3340	0.075006
3336	0.102233
3332	0.114464
3328	0.072646
3324	-0.024628
3320	-0.129818
3316	-0.119805
3312	-0.004506
3308	0.092339
3304	0.133728
3300	0.081753
3296	0.014567
3292	0.011062
3288	0.031328
3284	0.072097
3280	0.122356
3276	0.122046
3272	0.073671
3268	0.078535
3264	0.115442
3260	0.044345
3256	-0.065994
3252	-0.135064
3248	-0.145125
3244	-0.034856
3240	0.045871
3236	0.016283
3232	0.041460
3228	0.126361
3224	0.138521
3220	0.095939
3216	0.096631
3212	0.160741
3208	0.202155
3204	0.136256
3200	0.044584
3196	0.041222
3192	0.089550
3188	0.072169
3184	0.022029
3180	0.064134
3176	0.179338
3172	0.233149
3168	0.169610
3164	0.096678
3160	0.069117
3156	0.039339
3152	-0.009226
3148	-0.045633
3144	-0.048160
3140	-0.025391
3136	0.020670
3132	0.059437
3128	0.091052
3124	-0.001955
3120	-0.161981
3116	-0.161647
3112	-0.095009
3108	-0.048017
3104	0.010037
3100	0.057792
3096	0.088691
3092	0.063586
3088	0.023961
3084	0.012946
3080	-0.009536
3076	-0.028467
3072	-0.017905
3068	0.002694
3064	-0.001645
3060	0.007271
3056	0.055646
3052	0.119328
3048	0.135278
3044	0.077605
3040	0.052070
3036	0.073003
3032	0.057625
3028	-0.035643
3024	-0.139188
3020	-0.114893
3016	-0.009417
3012	0.029492
3008	0.031018
3004	0.044941
3000	0.021743
2996	-0.043821
2992	-0.105881
2988	-0.144958
2984	-0.095844
2980	0.029015
2976	0.116753
2972	0.091147
2968	-0.019764
2964	-0.067448
2960	-0.038433
2956	-0.041174
2952	-0.041341
2948	0.024437
2944	0.098943
2940	0.093197
2936	0.043153
2932	0.047063
2928	0.091195
2924	0.086331
2920	0.063967
2916	0.073575
2912	0.031733
2908	-0.021338
2904	0.032615
2900	0.111627
2896	0.112390
2892	0.078749
2888	0.054144
2884	0.045228
2880	0.044465
2876	0.028371
2872	-0.018167
2868	-0.075173
2864	-0.070118
2860	-0.018095
2856	0.019955
2852	0.014209
2848	-0.036644
2844	0.009465
2840	0.120282
2836	0.081634
2832	-0.023508
2828	-0.050425
2824	-0.037288
2820	0.034737
2816	0.133252
2812	0.155782
2808	0.119066
2804	0.050568
2800	0.001621
2796	0.021648
2792	0.015377
2788	-0.039577
2784	-0.000309
2780	0.069546
2776	0.023484
2772	-0.042724
2768	-0.047922
2764	-0.005674
2760	0.015640
2756	-0.050902
2752	-0.072693
2748	0.016379
2744	0.069236
2740	0.056767
2736	0.061416
2732	0.086975
2728	0.114989
2724	0.097632
2720	0.001835
2716	-0.077629
2712	-0.124979
2708	-0.134730
2704	-0.077962
2700	-0.030207
2696	-0.006508
2692	0.032353
2688	0.055861
2684	0.046777
2680	0.017929
2676	0.029659
2672	0.128746
2668	0.201129
2664	0.155019
2660	0.097227
2656	0.109100
2652	0.100469
2648	0.063061
2644	0.069880
2640	0.082826
2636	0.071191
2632	0.037384
2628	-0.010275
2624	-0.057077
2620	-0.081753
2616	-0.092673
2612	-0.080776
2608	0.020432
2604	0.111174
2600	0.079059
2596	0.014877
2592	-0.025367
2588	-0.028562
2584	0.027036
2580	0.053405
2576	0.020170
2572	-0.021219
2568	-0.034284
2564	0.020265
2560	0.058913
2556	0.038719
2552	0.025248
2548	0.042033
2544	0.099229
2540	0.129628
2536	0.095152
2532	0.046467
2528	-0.002717
2524	-0.033855
2520	-0.022268
2516	0.015521
2512	0.064086
2508	0.095653
2504	0.090241
2500	0.117802
2496	0.161600
2492	0.149703
2488	0.139808
2484	0.145745
2480	0.109076
2476	0.038599
2472	0.006890
2468	0.047063
2464	0.140142
2460	0.209093
2456	0.190782
2452	0.113558
2448	0.003051
2444	-0.039267
2440	0.012040
2436	0.019168
2432	0.014519
2428	0.043034
2424	0.028133
2420	-0.033187
2416	-0.048565
2412	0.051569
2408	0.227165
2404	0.372076
2400	0.334835
2396	0.174927
2392	0.126981
2388	0.170207
2384	0.194811
2380	0.210618
2376	0.246787
2372	0.294232
2368	0.297021
2364	0.247907
2360	0.233387
2356	0.302219
2352	0.362658
2348	0.379085
2344	0.383043
2340	0.373530
2336	0.382161
2332	0.422334
2328	0.538682
2324	0.692701
2320	0.757694
2316	0.788331
2312	0.879240
2308	0.943565
2304	0.949716
2300	1.039552
2296	1.204895
2292	1.298809
2288	1.361703
2284	1.513004
2280	1.691293
2276	1.808071
2272	1.891183
2268	2.043557
2264	2.303552
2260	2.534246
2256	2.700686
2252	2.924203
2248	3.162741
2244	3.337526
2240	3.531670
2236	3.795719
2232	4.081106
2228	4.367566
2224	4.655480
2220	4.959321
2216	5.327963
2212	5.726289
2208	6.107115
2204	6.499791
2200	6.860041
2196	7.185459
2192	7.567644
2188	7.996153
2184	8.440804
2180	8.908295
2176	9.381580
2172	9.857892
2168	10.3806
2164	10.9607
2160	11.4953
2156	11.9765
2152	12.4298
2148	12.7948
2144	13.2082
2140	13.7474
2136	14.2781
2132	14.8081
2128	15.3378
2124	15.8075
2120	16.2848
2116	16.7806
2112	17.2848
2108	17.8369
2104	18.3745
2100	18.8884
2096	19.4667
2092	20.0627
2088	20.5096
2084	20.8367
2080	21.2784
2076	21.8047
2072	22.2693
2068	22.749
2064	23.2458
2060	23.6719
2056	24.0086
2052	24.2974
2048	24.7044
2044	25.2061
2040	25.614
2036	25.9392
2032	26.263
2028	26.6003
2024	26.9442
2020	27.3027
2016	27.6162
2012	27.9016
2008	28.2398
2004	28.5743
2000	28.8589
1996	29.1485
1992	29.452
1988	29.6963
1984	29.9014
1980	30.1087
1976	30.3175
1972	30.5696
1968	30.8389
1964	31.0061
1960	31.0988
1956	31.2584
1952	31.5081
1948	31.7906
1944	32.0096
1940	32.1431
1936	32.2945
1932	32.5142
1928	32.7408
1924	32.8887
1920	32.9663
1916	33.0491
1912	33.1651
1908	33.2988
1904	33.4306
1900	33.5507
1896	33.69
1892	33.8487
1888	33.9474
1884	34.0042
1880	34.0966
1876	34.2232
1872	34.3506
1868	34.4421
1864	34.5048
1860	34.5793
1856	34.653
1852	34.6966
1848	34.7339
1844	34.7839
1840	34.8151
1836	34.8231
1832	34.9036
1828	35.074
1824	35.1938
1820	35.2015
1816	35.1608
1812	35.1568
1808	35.2219
1804	35.3197
1800	35.4219
1796	35.5034
1792	35.5167
1788	35.4701
1784	35.4605
1780	35.5125
1776	35.5455
1772	35.5539
1768	35.6041
1764	35.6988
1760	35.7716
1756	35.8155
1752	35.8542
1748	35.8687
1744	35.8868
1740	35.9194
1736	35.9514
1732	35.9961
1728	36.0649
1724	36.1508
1720	36.1588
1716	36.1152
1712	36.0915
1708	36.0614
1704	36.1027
1700	36.184
1696	36.2212
1692	36.27
1688	36.3558
1684	36.3956
1680	36.3345
1676	36.2363
1672	36.1633
1668	36.1623
1664	36.2119
1660	36.2554
1656	36.2859
1652	36.2719
1648	36.2522
1644	36.2918
1640	36.3424
1636	36.3934
1632	36.4403
1628	36.4596
1624	36.4737
1620	36.4494
1616	36.4069
1612	36.3872
1608	36.3472
1604	36.3188
1600	36.3372
1596	36.3545
1592	36.3535
1588	36.3429
1584	36.3497
1580	36.401
1576	36.4435
1572	36.4591
1568	36.4925
1564	36.5328
1560	36.5218
1556	36.425
1552	36.332
1548	36.3378
1544	36.3953
1540	36.434
1536	36.4321
1532	36.392
1528	36.411
1524	36.5109
1520	36.5725
1516	36.6024
1512	36.5971
1508	36.5374
1504	36.5271
1500	36.5564
1496	36.5206
1492	36.434
1488	36.4149
1484	36.429
1480	36.3919
1476	36.3917
1472	36.4576
1468	36.5335
1464	36.5587
1460	36.4707
1456	36.3729
1452	36.3518
1448	36.3724
1444	36.4293
1440	36.4921
1436	36.517
1432	36.539
1428	36.5371
1424	36.4738
1420	36.4282
1416	36.4107
1412	36.3685
1408	36.3271
1404	36.3012
1400	36.2641
1396	36.2673
1392	36.3832
1388	36.5377
1384	36.5935
1380	36.5497
1376	36.4933
1372	36.4604
1368	36.46
1364	36.444
1360	36.3519
1356	36.2613
1352	36.2386
1348	36.239
1344	36.2739
1340	36.3487
1336	36.4415
1332	36.517
1328	36.524
1324	36.5247
1320	36.5351
1316	36.4737
1312	36.3452
1308	36.267
1304	36.3256
1300	36.4074
1296	36.3355
1292	36.2245
1288	36.2416
1284	36.2523
1280	36.2288
1276	36.2958
1272	36.3906
1268	36.4299
1264	36.4334
1260	36.4551
1256	36.5322
1252	36.5607
1248	36.4445
1244	36.2528
1240	36.1216
1236	36.1014
1232	36.1124
1228	36.0961
1224	36.0795
1220	36.1255
1216	36.2039
1212	36.2151
1208	36.2125
1204	36.2817
1200	36.3321
1196	36.3484
1192	36.3723
1188	36.3179
1184	36.169
1180	36.0232
1176	35.9491
1172	35.9097
1168	35.9209
1164	36.0065
1160	36.0435
1156	35.9771
1152	35.9358
1148	36.0332
1144	36.142
1140	36.1038
1136	36.0633
1132	36.1402
1128	36.1422
1124	36.0191
1120	35.9668
1116	35.991
1112	35.9755
1108	35.9288
1104	35.9417
1100	35.988
1096	35.9757
1092	35.9069
1088	35.8524
1084	35.86
1080	35.9498
1076	36.1077
1072	36.1794
1068	36.091
1064	35.957
1060	35.856
1056	35.7457
1052	35.5847
1048	35.3803
1044	35.235
1040	35.2923
1036	35.4205
1032	35.4844
1028	35.5881
1024	35.6976
1020	35.7422
1016	35.709
1012	35.6626
1008	35.7327
1004	35.7171
1000	35.4954
996	 35.2989
992	 35.2103
988	 35.1219
984	 34.9853
980	 34.9344
976	 34.9834
972	 34.9842
968	 35.0432
964	 35.2186
960	 35.2347
956	 35.0652
952	 35.0513
948	 35.2465
944	 35.3082
940	 35.1436
936	 35.0109
932	 34.9328
928	 34.7995
924	 34.6595
920	 34.616
916	 34.5834
912	 34.4091
908	 34.2746
904	 34.3947
900	 34.7045
896	 34.9234
892	 34.8687
888	 34.6564
884	 34.5097
880	 34.4401
876	 34.252
872	 34.008
868	 33.9241
864	 33.9487
860	 33.8305
856	 33.5889
852	 33.4946
848	 33.5689
844	 33.6744
840	 33.7978
836	 33.9406
832	 34.0558
828	 34.0998
824	 33.9858
820	 33.8418
816	 33.7428
812	 33.62
808	 33.5048
804	 33.2969
800	 32.9919
796	 32.7339
792	 32.6921
788	 32.7797
784	 32.815
780	 32.9126
776	 33.1345
772	 33.4023
768	 33.5351
764	 33.3863
760	 33.1322
756	 32.9903
752	 32.9537
748	 32.8867
744	 32.5476
740	 32.0797
736	 31.8569
732	 31.6742
728	 31.4564
724	 31.5259
720	 31.783
716	 32.0655
712	 32.3035
708	 32.3311
704	 32.3073
700	 32.306
696	 32.1627
692	 31.8684
688	 31.622
684	 31.4533
680	 31.2989
676	 31.2848
672	 31.2356
668	 31.0073
664	 30.7338
660	 30.628
656	 30.8507
652	 31.1236
648	 31.0943
644	 30.9536
640	 31.0088
636	 31.0172
632	 30.7702
628	 30.5403
624	 30.3838
620	 30.0937
616	 29.8815
612	 29.9172
608	 29.8595
604	 29.6742
600	 29.5327
596	 29.5519
592	 29.899
588	 29.8488
584	 29.1864
580	 29.1718
576	 29.9168
572	 29.9932
568	 29.1127
564	 28.4188
560	 28.4662
556	 28.6427
552	 28.0825
548	 27.3051
544	 27.3744
540	 28.0102
536	 28.7363
532	 28.9933
528	 28.8752
524	 29.0366
520	 28.4792
516	 27.3561
512	 27.1486
508	 27.1585
504	 26.3096
500	 25.7128
496	 26.0254
492	 25.7643
488	 25.2931
484	 25.9123
480	 26.6692
476	 26.6861
472	 26.4712
468	 26.4173
464	 26.7869
460	 27.4738
456	 27.3126
452	 26.6977
448	 26.8475
444	 26.8507
440	 25.937
436	 25.0058
432	 24.8129
428	 25.0282
424	 24.9456
420	 24.3912
416	 24.3817
412	 26.683
408	 30.0808
404	 30.4475
400	 29.0008
396	 32.7566
392	 40.0089
388	 35.5915
384	 22.232
380	 14.2781
376	 19.6503
372	 -24.7583
370	 -53.4773