File: Bakgrunnsmateriale/MATLAB/FTIR/ftir_data/LPE454/Mapping_121/LPE454_t04.asc
PE IR       SPECTRUM    SPECTRUM    ASCII       PEDS        1.60
  -1
LPD39C~1.ASC
17/05/19
14:43:11.00
17/05/19
14:43:37.00
tln
$LPE454_t0004$<tbV0>[5.2,-13.0,8.0,0.0,27,1,0]
27.028
64

2002,4.07
MIRTGS : RIGHTBACK : INTERNAL 2
MIR : ON : INTERNAL 2
OPTKBR

0.200000
8
8.000000
FILLER
RATIO
SPECTRUM
UNLOCKED 256

DOUBLE
64
COMBINED
1
0
0

0.002000
RATIO

1
0
TRUE
51149
0
LEFT NOT FITTED RIGHT NOT FITTED 0
NONE
NONE
15600
12
4.427000
51148
TRUE
1 0 8 72 0 0 0 0

15798

#HDR
-1
-1
#GR
µM
%T
2.38419e-05
0.0
2.000000
0.002000
12515
8
89.6533
-6.327318
#DATA
2.000000	 0.100278
2.018000	 0.787403
2.036000	 0.400923
2.054000	 1.267867
2.072000	 -0.072261
2.090000	 1.139792
2.108000	 0.080560
2.126000	 0.154902
2.144000	 0.077979
2.162000	 -0.100847
2.180000	 0.162983
2.198000	 0.310340
2.216000	 0.055877
2.234000	 3.223961
2.252000	 1.282555
2.270000	 -0.282303
2.288000	 -0.040613
2.306000	 0.306455
2.324000	 0.032637
2.342000	 0.437421
2.360000	 -0.048018
2.378000	 -0.128785
2.396000	 0.905853
2.414000	 0.074982
2.432000	 -0.651000
2.450000	 -0.138327
2.468000	 0.013571
2.486000	 0.119415
2.504000	 0.041542
2.522000	 -0.265344
2.540000	 0.209974
2.558000	 0.143712
2.576000	 0.030165
2.594000	 0.053221
2.612000	 -0.181018
2.630000	 0.090358
2.648000	 0.182580
2.666000	 -0.122219
2.684000	 0.097000
2.702000	 0.125499
2.720000	 0.018949
2.738000	 -0.086503
2.756000	 0.020182
2.774000	 0.151425
2.792000	 -0.095006
2.810000	 -0.069327
2.828000	 0.144889
2.846000	 -0.056912
2.864000	 0.169593
2.882000	 0.162391
2.900000	 0.009564
2.918000	 -0.074153
2.936000	 0.061234
2.954000	 0.050126
2.972000	 0.124969
2.990000	 0.051916
3.008000	 0.287676
3.026000	 0.144833
3.044000	 0.034538
3.062000	 0.106300
3.080000	 0.046378
3.098000	 -0.020539
3.116000	 0.125114
3.134000	 0.022162
3.152000	 -0.023689
3.170000	 0.011426
3.188000	 0.032353
3.206000	 0.040276
3.224000	 0.142970
3.242000	 -0.001465
3.260000	 -0.084902
3.278000	 0.030185
3.296000	 0.221027
3.314000	 0.015254
3.332000	 0.003835
3.350000	 0.025346
3.368000	 0.136337
3.386000	 -0.092501
3.404000	 0.005871
3.422000	 0.024777
3.440000	 0.006052
3.458000	 0.083413
3.476000	 0.024056
3.494000	 -0.027086
3.512000	 -0.252922
3.530000	 0.035600
3.548000	 0.246269
3.566000	 0.147589
3.584000	 -0.026617
3.602000	 -0.013839
3.620000	 -0.033080
3.638000	 -0.019784
3.656000	 0.066370
3.674000	 -0.041771
3.692000	 0.053248
3.710000	 -0.074087
3.728000	 0.128777
3.746000	 0.026353
3.764000	 -0.060240
3.782000	 0.036947
3.800000	 -0.038992
3.818000	 0.061128
3.836000	 0.073587
3.854000	 0.141362
3.872000	 -0.042527
3.890000	 -0.023998
3.908000	 -0.035615
3.926000	 0.006498
3.944000	 0.076167
3.962000	 -0.008251
3.980000	 -0.090935
3.998000	 0.008493
4.016000	 -0.078758
4.034000	 0.064040
4.052000	 0.049415
4.070000	 0.050726
4.088000	 0.091135
4.106000	 0.184225
4.124000	 -0.041046
4.141999	 0.237541
4.160000	 0.020624
4.178000	 0.024409
4.196000	 -0.009673
4.214000	 0.135196
4.232000	 0.206397
4.250000	 0.278878
4.268000	 0.306008
4.286000	 0.424982
4.304000	 0.582568
4.322000	 0.686506
4.340000	 0.845733
4.358000	 1.128573
4.375999	 1.284677
4.394000	 1.527041
4.412000	 1.843859
4.430000	 2.187450
4.448000	 2.626608
4.466000	 3.210016
4.484000	 3.764722
4.502000	 4.279958
4.520000	 4.989394
4.538000	 5.754187
4.556000	 6.462003
4.574000	 7.267720
4.592000	 8.256056
4.609999	 9.222513
4.628000	 10.2503
4.646000	 11.2672
4.664000	 12.4219
4.682000	 13.4882
4.700000	 14.4063
4.718000	 15.3394
4.736000	 16.3085
4.754000	 17.1977
4.772000	 18.2787
4.790000	 19.4442
4.808000	 20.5009
4.826000	 21.4732
4.843999	 22.3764
4.862000	 23.0178
4.880000	 23.7852
4.898000	 24.5608
4.916000	 25.3104
4.934000	 26.0469
4.952000	 26.6314
4.970000	 27.1754
4.988000	 27.7369
5.006000	 28.2922
5.024000	 28.7646
5.042000	 29.3014
5.060000	 29.8269
5.077999	 30.2862
5.096000	 30.6047
5.114000	 30.9771
5.132000	 31.1762
5.150000	 31.2926
5.168000	 31.6142
5.186000	 32.0556
5.204000	 32.4927
5.222000	 32.7826
5.240000	 33.0165
5.258000	 33.1624
5.276000	 33.1739
5.294000	 33.2433
5.312000	 33.4126
5.330000	 33.5839
5.348000	 33.7611
5.366000	 34.0337
5.384000	 34.2745
5.402000	 34.3629
5.420000	 34.4629
5.438000	 34.489
5.456000	 34.4988
5.474000	 34.5034
5.492000	 34.5308
5.510000	 34.6468
5.528000	 34.9821
5.546000	 35.2955
5.564000	 35.3662
5.582000	 35.406
5.600000	 35.3146
5.618000	 35.2484
5.636000	 35.256
5.654000	 35.22
5.672000	 35.1472
5.690000	 35.1313
5.708000	 35.2777
5.726000	 35.4804
5.744000	 35.6594
5.762000	 35.7082
5.780000	 35.4986
5.798000	 35.413
5.816000	 35.6629
5.834000	 35.7573
5.852000	 35.6118
5.870000	 35.6564
5.888000	 35.7942
5.906000	 35.8019
5.923999	 35.9132
5.942000	 36.057
5.960000	 36.0855
5.978000	 36.0466
5.996000	 35.8761
6.014000	 35.6899
6.032000	 35.5969
6.050000	 35.6744
6.068000	 35.5958
6.086000	 35.4881
6.104000	 35.6421
6.122000	 35.8018
6.140000	 35.8639
6.158000	 35.9719
6.176000	 36.0784
6.194000	 36.0762
6.212000	 35.9464
6.230000	 35.7844
6.248000	 35.605
6.266000	 35.4898
6.284000	 35.4707
6.302000	 35.4695
6.320000	 35.4513
6.338000	 35.5549
6.356000	 35.6977
6.374000	 35.8398
6.392000	 35.9914
6.410000	 36.1389
6.428000	 36.122
6.446000	 35.9192
6.464000	 35.804
6.482000	 35.8066
6.500000	 35.7341
6.518000	 35.5408
6.536000	 35.4035
6.554000	 35.4658
6.572000	 35.6116
6.590000	 35.6877
6.608000	 35.821
6.626000	 36.0136
6.644000	 36.0652
6.662000	 36.034
6.680000	 36.0501
6.698000	 35.9916
6.716000	 35.8335
6.734000	 35.6934
6.752000	 35.6122
6.770000	 35.541
6.788000	 35.4367
6.806000	 35.3474
6.824000	 35.3467
6.842000	 35.4661
6.860000	 35.5946
6.878000	 35.5975
6.896000	 35.5768
6.914000	 35.6525
6.932000	 35.7825
6.950000	 35.8987
6.968000	 35.9176
6.986000	 35.8481
7.004000	 35.7172
7.022000	 35.535
7.040000	 35.4067
7.058000	 35.35
7.076000	 35.2637
7.094000	 35.1123
7.112000	 34.9807
7.130000	 34.997
7.148000	 35.1334
7.166000	 35.243
7.184000	 35.3233
7.202000	 35.4715
7.220000	 35.6808
7.238000	 35.864
7.256000	 35.9639
7.274000	 35.9446
7.292000	 35.8304
7.310000	 35.7091
7.328000	 35.6099
7.346000	 35.4929
7.364000	 35.3419
7.382000	 35.1874
7.400000	 35.0746
7.418000	 35.0084
7.436000	 34.9754
7.454000	 34.9887
7.472000	 35.0434
7.490000	 35.1169
7.508000	 35.2298
7.526000	 35.3874
7.544000	 35.5438
7.562000	 35.6613
7.580000	 35.7289
7.598000	 35.7441
7.616000	 35.7126
7.634000	 35.6428
7.652000	 35.5567
7.670000	 35.4614
7.688000	 35.3259
7.706000	 35.1533
7.724000	 35.0121
7.742000	 34.9518
7.760000	 34.9505
7.778000	 34.9532
7.796000	 34.9228
7.814000	 34.883
7.832000	 34.8984
7.850000	 34.9992
7.868000	 35.1464
7.886000	 35.2667
7.904000	 35.3184
7.922000	 35.3243
7.940000	 35.3424
7.958000	 35.4005
7.976000	 35.4663
7.994000	 35.4836
8.012000	 35.4321
8.030000	 35.3373
8.048000	 35.2185
8.065999	 35.0774
8.084000	 34.9373
8.102000	 34.8306
8.120000	 34.7591
8.138000	 34.7142
8.155999	 34.7088
8.173999	 34.7492
8.192000	 34.8044
8.210000	 34.8405
8.228000	 34.8659
8.246000	 34.9228
8.263999	 35.0376
8.282000	 35.1895
8.300000	 35.3337
8.318000	 35.4449
8.336000	 35.5266
8.353999	 35.5875
8.372000	 35.6226
8.390000	 35.6145
8.408000	 35.542
8.426000	 35.3997
8.443999	 35.2191
8.462000	 35.051
8.480000	 34.9189
8.498000	 34.8057
8.516000	 34.689
8.533999	 34.5718
8.552000	 34.478
8.570000	 34.4266
8.588000	 34.4126
8.606000	 34.4112
8.624000	 34.4059
8.641999	 34.4149
8.660000	 34.4755
8.678000	 34.6015
8.696000	 34.7656
8.714000	 34.9181
8.731999	 35.0205
8.750000	 35.0751
8.768000	 35.1092
8.786000	 35.1349
8.804000	 35.1409
8.821999	 35.1214
8.840000	 35.0879
8.858000	 35.0491
8.876000	 34.9961
8.894000	 34.9127
8.911999	 34.7966
8.930000	 34.6612
8.948000	 34.5225
8.966000	 34.3913
8.984000	 34.2749
9.001999	 34.1808
9.020000	 34.1154
9.038000	 34.0795
9.056000	 34.0639
9.074000	 34.056
9.092000	 34.0504
9.109999	 34.0555
9.128000	 34.0857
9.146000	 34.1478
9.164000	 34.2361
9.182000	 34.34
9.199999	 34.45
9.218000	 34.5549
9.236000	 34.6445
9.254000	 34.7193
9.272000	 34.7894
9.289999	 34.8605
9.308000	 34.9239
9.326000	 34.961
9.344000	 34.9615
9.362000	 34.9311
9.379999	 34.8827
9.398000	 34.8238
9.416000	 34.7523
9.434000	 34.6601
9.452000	 34.5378
9.469999	 34.3804
9.488000	 34.1943
9.506000	 33.9982
9.524000	 33.8165
9.542000	 33.6703
9.560000	 33.5713
9.577999	 33.5214
9.596000	 33.5147
9.614000	 33.5384
9.632000	 33.5747
9.650000	 33.6071
9.667999	 33.6284
9.686000	 33.642
9.704000	 33.6594
9.722000	 33.6991
9.740000	 33.7811
9.757999	 33.9127
9.776000	 34.0769
9.794000	 34.2342
9.812000	 34.3445
9.830000	 34.393
9.847999	 34.3984
9.866000	 34.3985
9.884000	 34.4229
9.902000	 34.4761
9.920000	 34.5377
9.937999	 34.5774
9.956000	 34.5718
9.974000	 34.5147
9.992000	 34.4163
10.01	34.2968
10.028	34.174
10.046	34.0567
10.064	33.9454
10.082	33.8379
10.1	33.7352
10.118	33.6399
10.136	33.5527
10.154	33.4708
10.172	33.3914
10.19	33.3194
10.208	33.2698
10.226	33.2598
10.244	33.2979
10.262	33.3745
10.28	33.4653
10.298	33.5438
10.316	33.5941
10.334	33.6171
10.352	33.6248
10.37	33.6308
10.388	33.6424
10.406	33.659
10.424	33.6771
10.442	33.6944
10.46	33.7138
10.478	33.7415
10.496	33.7824
10.514	33.8362
10.532	33.8946
10.55	33.9441
10.568	33.9702
10.586	33.9639
10.604	33.9262
10.622	33.8668
10.64	33.7985
10.658	33.7308
10.676	33.6673
10.694	33.6054
10.712	33.5392
10.73	33.462
10.748	33.3693
10.766	33.2612
10.784	33.1431
10.802	33.0253
10.82	32.918
10.838	32.8284
10.856	32.7572
10.874	32.7
10.892	32.6543
10.91	32.6248
10.928	32.622
10.946	32.6567
10.964	32.7303
10.982	32.8317
11	32.9418
11.018	33.0415
11.036	33.1205
11.054	33.179
11.072	33.2247
11.09	33.2675
11.108	33.3137
11.126	33.3656
11.144	33.4222
11.162	33.4806
11.18	33.5371
11.198	33.5861
11.216	33.6218
11.234	33.6409
11.252	33.6438
11.27	33.6331
11.288	33.6112
11.306	33.5781
11.324	33.5313
11.342	33.4692
11.36	33.3944
11.378	33.3146
11.396	33.2395
11.414	33.177
11.432	33.1289
11.45	33.09
11.468	33.049
11.486	32.9955
11.504	32.9235
11.522	32.8329
11.54	32.7283
11.558	32.6166
11.576	32.5054
11.594	32.4013
11.612	32.311
11.63	32.2396
11.648	32.1912
11.666	32.1678
11.684	32.1699
11.702	32.1957
11.72	32.2408
11.738	32.2979
11.756	32.3575
11.774	32.4088
11.792	32.4429
11.81	32.456
11.828	32.4511
11.846	32.4381
11.864	32.4313
11.882	32.4436
11.9	32.4839
11.918	32.5527
11.936	32.6426
11.954	32.7416
11.972	32.8373
11.99	32.9204
12.008	32.9874
12.026	33.0393
12.044	33.0792
12.062	33.1093
12.08	33.1284
12.098	33.1323
12.116	33.1145
12.134	33.0691
12.152	32.993
12.17	32.8878
12.188	32.7595
12.206	32.6174
12.224	32.4726
12.242	32.3353
12.26	32.2138
12.278	32.1127
12.296	32.0326
12.314	31.97
12.332	31.9186
12.35	31.8708
12.368	31.8196
12.386	31.7604
12.404	31.6917
12.422	31.6159
12.44	31.5378
12.458	31.4641
12.476	31.4008
12.494	31.3521
12.512	31.3185
12.53	31.2966
12.548	31.2807
12.566	31.2645
12.584	31.2437
12.602	31.217
12.62	31.1881
12.638	31.1631
12.656	31.1487
12.674	31.1496
12.692	31.1671
12.71	31.1979
12.728	31.236
12.746	31.2749
12.764	31.3108
12.782	31.3441
12.8	31.3801
12.818	31.4268
12.836	31.4926
12.854	31.5828
12.872	31.6966
12.89	31.8278
12.908	31.9658
12.926	32.0975
12.944	32.2107
12.962	32.2975
12.98	32.3557
12.998	32.3882
13.016	32.4023
13.034	32.4074
13.052	32.4122
13.07	32.4226
13.088	32.4407
13.106	32.4639
13.124	32.4866
13.142	32.5007
13.16	32.4989
13.178	32.475
13.196	32.4263
13.214	32.3538
13.232	32.2621
13.25	32.1576
13.268	32.048
13.286	31.9397
13.304	31.8368
13.322	31.7398
13.34	31.6462
13.358	31.5508
13.376	31.4475
13.394	31.331
13.412	31.1986
13.43	31.0513
13.448	30.8943
13.466	30.7357
13.484	30.5852
13.502	30.4523
13.52	30.3446
13.538	30.2661
13.556	30.2169
13.574	30.1933
13.592	30.1893
13.61	30.1976
13.628	30.2115
13.646	30.2256
13.664	30.2372
13.682	30.2449
13.7	30.2498
13.718	30.2528
13.736	30.2556
13.754	30.2589
13.772	30.2633
13.79	30.2687
13.808	30.2753
13.826	30.2834
13.844	30.2945
13.862	30.3098
13.88	30.3312
13.898	30.3604
13.916	30.399
13.934	30.4479
13.952	30.5071
13.97	30.5762
13.988	30.654
14.006	30.7385
14.024	30.8268
14.042	30.9154
14.06	31.0003
14.078	31.077
14.096	31.141
14.114	31.1888
14.132	31.218
14.15	31.2277
14.168	31.2193
14.186	31.1953
14.204	31.1607
14.222	31.1203
14.24	31.0796
14.258	31.0418
14.276	31.0089
14.294	30.9809
14.312	30.9558
14.33	30.9307
14.348	30.9019
14.366	30.8667
14.384	30.8231
14.402	30.7714
14.42	30.7132
14.438	30.6514
14.456	30.5895
14.474	30.5308
14.492	30.4781
14.51	30.4327
14.528	30.3938
14.546	30.3593
14.564	30.3263
14.582	30.2914
14.6	30.2513
14.618	30.2032
14.636	30.1461
14.654	30.0808
14.672	30.0095
14.69	29.9353
14.708	29.8619
14.726	29.7933
14.744	29.7338
14.762	29.6862
14.78	29.6521
14.798	29.6321
14.816	29.6257
14.834	29.6316
14.852	29.6473
14.87	29.6705
14.888	29.6986
14.906	29.7292
14.924	29.7601
14.942	29.7893
14.96	29.8158
14.978	29.8386
14.996	29.8571
15.014	29.8711
15.032	29.8804
15.05	29.885
15.068	29.8849
15.086	29.8801
15.104	29.8705
15.122	29.8562
15.14	29.8374
15.158	29.8143
15.176	29.7874
15.194	29.7575
15.212	29.7258
15.23	29.6933
15.248	29.6614
15.266	29.6316
15.284	29.6052
15.302	29.5838
15.32	29.5686
15.338	29.561
15.356	29.5625
15.374	29.574
15.392	29.5961
15.41	29.6291
15.428	29.6727
15.446	29.7257
15.464	29.7865
15.482	29.853
15.5	29.9224
15.518	29.9913
15.536	30.0564
15.554	30.115
15.572	30.1644
15.59	30.2021
15.608	30.2271
15.626	30.2389
15.644	30.2373
15.662	30.2234
15.68	30.1981
15.698	30.1625
15.716	30.1182
15.734	30.0662
15.752	30.0074
15.77	29.9427
15.788	29.8727
15.806	29.7983
15.824	29.7201
15.842	29.6392
15.86	29.5571
15.878	29.4749
15.896	29.3938
15.914	29.3154
15.932	29.2409
15.95	29.1712
15.968	29.1071
15.986	29.0491
16.004	28.9973
16.022	28.9518
16.04	28.9124
16.058	28.8789
16.076	28.8514
16.094	28.8294
16.112	28.8132
16.13	28.8027
16.148	28.7975
16.166	28.7975
16.184	28.8024
16.202	28.8116
16.22	28.824
16.238	28.8387
16.256	28.8545
16.274	28.8696
16.292	28.8827
16.31	28.8929
16.328	28.8985
16.346	28.8988
16.364	28.8933
16.382	28.8815
16.4	28.8632
16.418	28.8387
16.436	28.8084
16.454	28.773
16.472	28.7331
16.49	28.6902
16.508	28.6455
16.526	28.6004
16.544	28.557
16.562	28.5172
16.58	28.4823
16.598	28.4546
16.616	28.435
16.634	28.4244
16.652	28.4232
16.67	28.4312
16.688	28.4479
16.706	28.4717
16.724	28.5013
16.742	28.535
16.76	28.5702
16.778	28.6056
16.796	28.6388
16.814	28.668
16.832	28.6924
16.85	28.7101
16.868	28.7211
16.886	28.7248
16.904	28.7214
16.922	28.7115
16.94	28.6956
16.958	28.675
16.976	28.6505
16.994	28.6237
17.012	28.5959
17.03	28.568
17.048	28.5419
17.066	28.5181
17.084	28.4977
17.102	28.4814
17.12	28.4693
17.138	28.4615
17.156	28.4578
17.174	28.458
17.192	28.461
17.21	28.4664
17.228	28.4728
17.246	28.4791
17.264	28.4849
17.282	28.4886
17.3	28.4899
17.318	28.4883
17.336	28.4834
17.354	28.4751
17.372	28.4632
17.39	28.4478
17.408	28.4287
17.426	28.4059
17.444	28.3796
17.462	28.3494
17.48	28.3155
17.498	28.2774
17.516	28.2352
17.534	28.1887
17.552	28.1384
17.57	28.0844
17.588	28.0277
17.606	27.9693
17.624	27.9103
17.642	27.8528
17.66	27.7975
17.678	27.7475
17.696	27.7032
17.714	27.667
17.732	27.6393
17.75	27.6211
17.768	27.612
17.786	27.612
17.804	27.6191
17.822	27.6324
17.84	27.6487
17.858	27.6656
17.876	27.6804
17.894	27.6893
17.912	27.6908
17.93	27.6813
17.948	27.6603
17.966	27.6259
17.984	27.5787
18.002	27.5187
18.02	27.4482
18.038	27.3685
18.056	27.2842
18.074	27.1964
18.092	27.1111
18.11	27.0294
18.128	26.957
18.146	26.8946
18.164	26.8462
18.182	26.812
18.2	26.7936
18.218	26.7904
18.236	26.8026
18.254	26.8277
18.272	26.8655
18.29	26.912
18.308	26.9665
18.326	27.0248
18.344	27.0861
18.362	27.1466
18.38	27.2056
18.398	27.2608
18.416	27.3116
18.434	27.3564
18.452	27.3953
18.47	27.428
18.488	27.4551
18.506	27.4766
18.524	27.4941
18.542	27.5078
18.56	27.5193
18.578	27.5288
18.596	27.5381
18.614	27.5474
18.632	27.5581
18.65	27.5702
18.668	27.5849
18.686	27.602
18.704	27.6222
18.722	27.6456
18.74	27.6722
18.758	27.7018
18.776	27.7346
18.794	27.7701
18.812	27.8082
18.83	27.8485
18.848	27.8907
18.866	27.9345
18.884	27.9793
18.902	28.0247
18.92	28.0702
18.938	28.1153
18.956	28.1592
18.974	28.2016
18.992	28.2416
19.01	28.2786
19.028	28.3119
19.046	28.3408
19.064	28.3645
19.082	28.3825
19.1	28.3939
19.118	28.3984
19.136	28.3953
19.154	28.3845
19.172	28.3657
19.19	28.3391
19.208	28.3047
19.226	28.2629
19.244	28.2144
19.262	28.1595
19.28	28.0991
19.298	28.0335
19.316	27.9642
19.334	27.8912
19.352	27.8159
19.37	27.7383
19.388	27.6598
19.406	27.5803
19.424	27.5007
19.442	27.421
19.46	27.3419
19.478	27.2633
19.496	27.1858
19.514	27.1093
19.532	27.0342
19.55	26.9606
19.568	26.8889
19.586	26.8196
19.604	26.7528
19.622	26.6894
19.64	26.6293
19.658	26.5737
19.676	26.5226
19.694	26.4769
19.712	26.4365
19.73	26.4021
19.748	26.3739
19.766	26.3516
19.784	26.3355
19.802	26.325
19.82	26.3201
19.838	26.3203
19.856	26.3248
19.874	26.3334
19.892	26.3449
19.91	26.3595
19.928	26.3756
19.946	26.3934
19.964	26.4115
19.982	26.43
20	26.448
20.018	26.465
20.036	26.4806
20.054	26.4936
20.072	26.504
20.09	26.5099
20.108	26.5118
20.126	26.5071
20.144	26.4961
20.162	26.4768
20.18	26.4486
20.198	26.4109
20.216	26.362
20.234	26.3024
20.252	26.2314
20.27	26.1492
20.288	26.0571
20.306	25.9544
20.324	25.844
20.342	25.7271
20.36	25.6051
20.378	25.4825
20.396	25.3585
20.414	25.2399
20.432	25.1257
20.45	25.0213
20.468	24.9287
20.486	24.849
20.504	24.7867
20.522	24.7407
20.54	24.7137
20.558	24.7058
20.576	24.7162
20.594	24.7456
20.612	24.7922
20.63	24.8533
20.648	24.9294
20.666	25.0149
20.684	25.1108
20.702	25.2121
20.72	25.3158
20.738	25.4217
20.756	25.5243
20.774	25.6248
20.792	25.7191
20.81	25.8062
20.828	25.8861
20.846	25.9574
20.864	26.0205
20.882	26.0764
20.9	26.1244
20.918	26.1669
20.936	26.2051
20.954	26.2393
20.972	26.2727
20.99	26.3047
21.008	26.3379
21.026	26.3736
21.044	26.4117
21.062	26.4542
21.08	26.5007
21.098	26.5512
21.116	26.6063
21.134	26.6651
21.152	26.7262
21.17	26.7903
21.188	26.8541
21.206	26.9176
21.224	26.9793
21.242	27.0358
21.26	27.0883
21.278	27.1333
21.296	27.1704
21.314	27.1991
21.332	27.2175
21.35	27.2262
21.368	27.2248
21.386	27.2127
21.404	27.1908
21.422	27.1603
21.44	27.1203
21.458	27.074
21.476	27.0222
21.494	26.9652
21.512	26.9075
21.53	26.8477
21.548	26.7889
21.566	26.7334
21.584	26.6803
21.602	26.6328
21.62	26.5907
21.638	26.5546
21.656	26.5261
21.674	26.5048
21.692	26.4904
21.71	26.4834
21.728	26.483
21.746	26.4882
21.764	26.4998
21.782	26.5155
21.8	26.5341
21.818	26.556
21.836	26.5784
21.854	26.6016
21.872	26.6246
21.89	26.6445
21.908	26.6622
21.926	26.6759
21.944	26.6843
21.962	26.6879
21.98	26.6845
21.998	26.6742
22.016	26.6565
22.034	26.6297
22.052	26.5945
22.07	26.5501
22.088	26.4961
22.106	26.4326
22.124	26.3601
22.142	26.2784
22.16	26.188
22.178	26.0902
22.196	25.9844
22.214	25.872
22.232	25.7546
22.25	25.6311
22.268	25.5046
22.286	25.3763
22.304	25.2456
22.322	25.1169
22.34	24.9899
22.358	24.8656
22.376	24.7486
22.394	24.6373
22.412	24.5342
22.43	24.4429
22.448	24.3617
22.466	24.2935
22.484	24.2406
22.502	24.2018
22.52	24.1793
22.538	24.1746
22.556	24.1866
22.574	24.2165
22.592	24.2648
22.61	24.3308
22.628	24.4141
22.646	24.5151
22.664	24.6328
22.682	24.7654
22.7	24.9141
22.718	25.0766
22.736	25.2505
22.754	25.4375
22.772	25.6341
22.79	25.8377
22.808	26.0501
22.826	26.2669
22.844	26.4853
22.862	26.7074
22.88	26.9278
22.898	27.1448
22.916	27.3596
22.934	27.5669
22.952	27.7654
22.97	27.9561
22.988	28.1336
23.006	28.2971
23.024	28.4473
23.042	28.5795
23.06	28.6933
23.078	28.7893
23.096	28.8656
23.114	28.922
23.132	28.9591
23.15	28.9763
23.168	28.9733
23.186	28.9508
23.204	28.9108
23.222	28.8525
23.24	28.7768
23.258	28.6863
23.276	28.5798
23.294	28.4587
23.312	28.3273
23.33	28.1849
23.348	28.0321
23.366	27.8724
23.384	27.7056
23.402	27.5318
23.42	27.3535
23.438	27.1706
23.456	26.983
23.474	26.7928
23.492	26.5997
23.51	26.4039
23.528	26.2073
23.546	26.0102
23.564	25.8122
23.582	25.6158
23.6	25.4216
23.618	25.2287
23.636	25.0407
23.654	24.8591
23.672	24.6822
23.69	24.5136
23.708	24.3554
23.726	24.2057
23.744	24.0671
23.762	23.9417
23.78	23.828
23.798	23.7278
23.816	23.6436
23.834	23.574
23.852	23.5199
23.87	23.4831
23.888	23.4635
23.906	23.4606
23.924	23.4738
23.942	23.504
23.96	23.5505
23.978	23.6103
23.996	23.6833
24.014	23.7701
24.032	23.8669
24.05	23.9715
24.068	24.0865
24.086	24.2073
24.104	24.3302
24.122	24.4581
24.14	24.5875
24.158	24.7135
24.176	24.8382
24.194	24.9601
24.212	25.074
24.23	25.1793
24.248	25.2773
24.266	25.3644
24.284	25.4385
24.302	25.5017
24.32	25.5516
24.338	25.5858
24.356	25.6057
24.374	25.6105
24.392	25.5986
24.41	25.5704
24.428	25.5258
24.446	25.4632
24.464	25.3811
24.482	25.2804
24.5	25.1628
24.518	25.0296
24.536	24.8803
24.554	24.7151
24.572	24.5347
24.59	24.3399
24.608	24.1298
24.626	23.903
24.644	23.6593
24.662	23.3999
24.68	23.1217
24.698	22.8219
24.716	22.502
24.734	22.1615
24.752	21.7986
24.77	21.4132
24.788	21.006
24.806	20.5759
24.824	20.1221
24.842	19.6451
24.86	19.1452
24.878	18.6222
24.896	18.0742
24.914	17.5035
24.932	16.9141
24.95	16.3074
24.968	15.6802
24.986	15.0393
25.004	14.3912
25.022	13.7291
25.04	13.0588
25.058	12.3933
25.076	11.736
25.094	11.0784
25.112	10.4374
25.13	9.830098
25.148	9.245604
25.166	8.689564
25.184	8.179534
25.202	7.723852
25.22	7.312176
25.238	6.953205
25.256	6.656320
25.274	6.416236
25.292	6.234522
25.31	6.119938
25.328	6.077579
25.346	6.101608
25.364	6.195725
25.382	6.364606
25.4	6.607295
25.418	6.922509
25.436	7.312549
25.454	7.779388
25.472	8.322059
25.49	8.939178
25.508	9.629569
25.526	10.3984
25.544	11.2453
25.562	12.1535
25.58	13.1078
25.598	14.1258
25.616	15.1942
25.634	16.2839
25.652	17.3801
25.67	18.5085
25.688	19.6385
25.706	20.7336
25.724	21.7961
25.742	22.8393
25.76	23.8302
25.778	24.7386
25.796	25.5815
25.814	26.3556
25.832	27.0411
25.85	27.623
25.868	28.1115
25.886	28.5082
25.904	28.8123
25.922	29.0139
25.94	29.1131
25.958	29.1378
25.976	29.1158
25.994	29.0253
26.012	28.873
26.03	28.7024
26.048	28.5505
26.066	28.3854
26.084	28.2225
26.102	28.0977
26.12	28.0327
26.138	27.9989
26.156	28.0173
26.174	28.1162
26.192	28.3121
26.21	28.5895
26.228	28.9429
26.246	29.3671
26.264	29.8654
26.282	30.4383
26.3	31.0753
26.318	31.7658
26.336	32.5077
26.354	33.3062
26.372	34.1647
26.39	35.0862
26.408	36.066
26.426	37.1065
26.444	38.2137
26.462	39.3893
26.48	40.6074
26.498	41.8973
26.516	43.3014
26.534	44.8529
26.552	46.5258
26.57	48.3225
26.588	50.2539
26.606	52.3335
26.624	54.5673
26.642	56.9278
26.66	59.385
26.678	61.937
26.696	64.6319
26.714	67.3938
26.732	70.1366
26.75	72.8425
26.768	75.6123
26.786	78.3094
26.804	80.7809
26.822	82.9671
26.84	85.003
26.858	86.7691
26.876	88.1275
26.894	89.0133
26.912	89.5371
26.93	89.6326
26.948	89.2194
26.966	88.068
26.984	85.9665
27.002	83.5883
27.02	81.6577
27.028	81.1811