File: Bakgrunnsmateriale/MATLAB/FTIR/ftir_data/LPE454/Mapping_121/LPE454_t105_cm-1.asc
PE IR       SPECTRUM    SPECTRUM    ASCII       PEDS        1.60
  -1
LP08DC~1.ASC
17/05/19
22:59:11.00
17/05/19
22:59:11.00
tln
$LPE454_t0105$<tbV0>[0.0,10.4,8.0,0.0,27,1,0]
370
64

2002,4.07
MIRTGS : RIGHTBACK : INTERNAL 2
MIR : ON : INTERNAL 2
OPTKBR

0.200000
8
8.000000
FILLER
RATIO
SPECTRUM
UNLOCKED 256

DOUBLE
64
COMBINED
1
0
0

1.000000
RATIO

1
0
TRUE
51149
0
LEFT NOT FITTED RIGHT NOT FITTED 0
NONE
NONE
15600
12
4.427000
51148
TRUE
1 0 8 72 0 0 0 0

15798

#HDR
-1
-1
#GR
CM-1
%T
2.38419e-05
0.0
5000
-1.000000
4631
8
37.2225
-1.558661
#DATA
5000	0.302457
4996	0.471043
4992	0.540876
4988	0.423097
4984	0.357604
4980	0.342917
4976	0.264692
4972	0.179624
4968	0.134897
4964	0.170516
4960	0.291037
4956	0.349211
4952	0.146102
4948	0.057935
4944	0.280213
4940	0.352621
4936	0.169491
4932	-0.038385
4928	-0.157499
4924	-0.221109
4920	-0.256919
4916	-0.361371
4912	-0.383901
4908	-0.051927
4904	0.224137
4900	0.144314
4896	0.079345
4892	0.170874
4888	0.238275
4884	0.210309
4880	0.129914
4876	0.176072
4872	0.402617
4868	0.589346
4864	0.578927
4860	0.299811
4856	-0.033617
4852	-0.073671
4848	0.018644
4844	0.208640
4840	0.566983
4836	0.652742
4832	0.383591
4828	0.233650
4824	0.443673
4820	0.639724
4816	0.579333
4812	0.471925
4808	0.338459
4804	0.238609
4800	0.194549
4796	0.047636
4792	-0.101494
4788	-0.170969
4784	-0.177836
4780	0.011849
4776	0.110220
4772	-0.070595
4768	-0.045561
4764	0.223398
4760	0.416374
4756	0.401115
4752	0.355076
4748	0.537776
4744	0.548219
4740	0.385570
4736	0.592541
4732	0.906634
4728	1.035213
4724	0.986695
4720	0.682282
4716	0.340008
4712	0.099658
4708	-0.023245
4704	0.070261
4700	0.273776
4696	0.377368
4692	0.339436
4688	0.175356
4684	0.032520
4680	0.028896
4676	0.200939
4672	0.309777
4668	0.179767
4664	0.048208
4660	-0.059795
4656	-0.220870
4652	-0.303006
4648	-0.196099
4644	0.010752
4640	-0.077748
4636	-0.308609
4632	-0.214076
4628	0.103139
4624	0.134491
4620	-0.301599
4616	-0.756359
4612	-0.795888
4608	-0.346040
4604	-0.178289
4600	2.498769
4596	13.1723
4592	27.9456
4588	31.5197
4584	13.1342
4580	-0.430512
4576	-1.216101
4572	-1.125502
4568	0.050997
4564	0.037646
4560	-0.894880
4556	-1.558661
4552	-1.022601
4548	-0.610566
4544	-0.950765
4540	-1.155638
4536	-1.217055
4532	-1.249337
4528	-1.267528
4524	-1.222515
4520	-0.950169
4516	-0.465488
4512	-0.056505
4508	0.060033
4504	0.140380
4500	0.115537
4496	-0.070714
4492	-0.048065
4488	0.004458
4484	0.008630
4480	0.144672
4476	0.309634
4472	0.469803
4468	0.547719
4464	0.611853
4460	0.758552
4456	0.919461
4452	1.029896
4448	0.935745
4444	0.685930
4440	0.538349
4436	0.508165
4432	0.488519
4428	0.488567
4424	0.453925
4420	0.386643
4416	0.346469
4412	0.254940
4408	0.138807
4404	0.192666
4400	0.360918
4396	0.492167
4392	0.464177
4388	0.264644
4384	0.117421
4380	-0.045204
4376	-0.124430
4372	0.056195
4368	0.134754
4364	0.057601
4360	0.099563
4356	0.221014
4352	0.178599
4348	-0.057625
4344	-0.204133
4340	-0.141620
4336	-0.059437
4332	-0.030088
4328	-0.126576
4324	-0.299310
4320	-0.264859
4316	-0.036954
4312	0.135159
4308	0.199604
4304	0.310778
4300	0.501704
4296	0.513601
4292	0.327801
4288	0.168251
4284	0.103783
4280	0.138235
4276	0.184869
4272	0.192236
4268	0.278449
4264	0.396800
4260	0.411057
4256	0.346398
4252	0.213575
4248	0.078201
4244	0.070929
4240	0.041604
4236	-0.097703
4232	-0.081467
4228	0.063323
4224	0.134754
4220	0.075316
4216	0.003790
4212	0.086021
4208	0.063872
4204	-0.136661
4200	-0.181388
4196	0.014281
4192	0.237607
4188	0.191259
4184	0.070214
4180	0.208282
4176	0.373768
4172	0.331473
4168	0.183987
4164	0.210738
4160	0.296950
4156	0.248599
4152	0.210642
4148	0.155234
4144	-0.021004
4140	-0.181102
4136	0.023150
4132	0.331592
4128	0.412321
4124	0.358819
4120	0.238943
4116	0.043296
4112	-0.290513
4108	-0.426745
4104	-0.121784
4100	0.188899
4096	0.004220
4092	-0.447130
4088	-0.232243
4084	0.054907
4080	-0.279951
4076	-0.073099
4072	0.067567
4068	-0.430560
4064	0.126624
4060	1.082348
4056	1.521015
4052	1.678466
4048	0.992679
4044	0.107121
4040	-0.082921
4036	-0.086951
4032	-0.003647
4028	0.223946
4024	0.300455
4020	0.192546
4016	0.031805
4012	-0.045871
4008	0.050878
4004	0.290131
4000	0.418686
3996	0.255942
3992	0.027394
3988	0.057554
3984	0.181150
3980	0.185561
3976	0.182938
3972	0.264525
3968	0.284624
3964	0.252509
3960	0.231814
3956	0.171756
3952	0.136756
3948	0.161099
3944	0.212597
3940	0.257325
3936	0.210475
3932	0.033116
3928	-0.111770
3924	-0.088715
3920	-0.037097
3916	-0.027751
3912	0.015282
3908	0.106310
3904	0.116395
3900	0.002813
3896	0.018143
3892	0.099515
3888	0.054502
3884	0.020098
3880	-0.056743
3876	-0.151062
3872	-0.104832
3868	-0.016403
3864	0.077939
3860	0.160980
3856	0.190138
3852	0.201535
3848	0.203394
3844	0.175213
3840	0.089550
3836	0.049519
3832	0.052595
3828	-0.013184
3824	-0.067424
3820	-0.077295
3816	-0.058197
3812	-0.030708
3808	-0.017428
3804	0.043892
3800	0.120258
3796	0.168991
3792	0.248670
3788	0.286698
3784	0.188446
3780	0.085544
3776	0.086283
3772	0.105333
3768	0.108671
3764	0.098133
3760	0.041723
3756	-0.072431
3752	-0.215935
3748	-0.231218
3744	-0.070238
3740	0.076460
3736	0.082969
3732	0.061631
3728	0.127482
3724	0.164771
3720	0.102353
3716	0.050759
3712	0.081443
3708	0.086665
3704	0.030660
3700	0.045680
3696	0.081086
3692	0.027847
3688	-0.034832
3684	-0.005364
3680	0.061130
3676	0.091910
3672	0.106167
3668	0.078630
3664	-0.000119
3660	-0.014638
3656	0.028014
3652	0.037074
3648	0.030660
3644	0.026011
3640	0.034642
3636	0.005245
3632	-0.037074
3628	-0.055527
3624	-0.059723
3620	-0.034093
3616	-0.006556
3612	0.032091
3608	0.045561
3604	0.009369
3600	-0.046443
3596	-0.082230
3592	-0.071001
3588	-0.108003
3584	-0.096058
3580	0.044107
3576	0.105690
3572	0.107717
3568	0.148296
3564	0.188732
3560	0.194764
3556	0.135803
3552	0.064063
3548	0.047183
3544	0.076723
3540	0.107455
3536	0.115323
3532	0.115966
3528	0.108718
3524	0.113582
3520	0.163912
3516	0.195765
3512	0.137448
3508	0.105929
3504	0.177454
3500	0.199675
3496	0.105357
3492	0.007867
3488	-0.004053
3484	0.027775
3480	0.059270
3476	0.131773
3472	0.191640
3468	0.161170
3464	0.126767
3460	0.136494
3456	0.071048
3452	-0.047755
3448	-0.073146
3444	-0.009274
3440	0.096416
3436	0.158977
3432	0.180983
3428	0.256490
3424	0.282168
3420	0.155305
3416	0.035643
3412	0.042676
3408	0.041842
3404	0.028562
3400	0.080132
3396	0.024414
3392	-0.100564
3388	-0.046563
3384	0.041031
3380	0.031304
3376	0.045299
3372	0.062298
3368	0.027465
3364	-0.017476
3360	0.004816
3356	0.064182
3352	0.115227
3348	0.144028
3344	0.084781
3340	0.050473
3336	0.089669
3332	0.078392
3328	0.044035
3324	0.060939
3320	0.108337
3316	0.080108
3312	-0.029659
3308	-0.054407
3304	0.039744
3300	0.084161
3296	0.043249
3292	0.040984
3288	0.047159
3284	0.063419
3280	0.097489
3276	0.108909
3272	0.101780
3268	0.047349
3264	0.039148
3260	0.100755
3256	0.107097
3252	0.012993
3248	-0.038075
3244	0.028300
3240	0.115704
3236	0.111627
3232	0.025820
3228	0.039291
3224	0.087523
3220	0.005340
3216	-0.036668
3212	0.058054
3208	0.129795
3204	0.031328
3200	-0.051045
3196	0.039911
3192	0.082826
3188	-0.003337
3184	-0.037145
3180	0.040173
3176	0.098657
3172	0.093889
3168	0.068020
3164	0.103497
3160	0.149488
3156	0.113105
3152	0.048589
3148	-0.013422
3144	-0.019121
3140	0.022172
3136	0.060105
3132	0.085306
3128	0.027489
3124	-0.050806
3120	-0.033521
3116	-0.026750
3112	-0.010895
3108	0.064277
3104	0.056123
3100	0.009751
3096	0.025343
3092	0.061058
3088	0.071525
3084	0.102519
3080	0.127029
3076	0.123739
3072	0.140833
3068	0.102925
3064	-0.028562
3060	-0.108575
3056	-0.083923
3052	-0.061035
3048	0.025820
3044	0.177836
3040	0.217914
3036	0.166654
3032	0.125336
3028	0.111198
3024	0.146436
3020	0.162768
3016	0.068497
3012	-0.019097
3008	0.033807
3004	0.123238
3000	0.110840
2996	0.031113
2992	-0.017046
2988	0.017523
2984	0.042104
2980	-0.002288
2976	-0.015234
2972	-0.009369
2968	-0.010490
2964	0.046014
2960	0.121045
2956	0.152730
2952	0.172805
2948	0.160884
2944	0.089716
2940	0.054764
2936	0.048613
2932	0.049209
2928	0.100827
2924	0.143408
2920	0.126600
2916	0.089049
2912	0.087165
2908	0.111627
2904	0.116229
2900	0.068902
2896	0.005292
2892	-0.002932
2888	0.046086
2884	0.117921
2880	0.132584
2876	0.074791
2872	0.040745
2868	0.022912
2864	-0.012564
2860	-0.014781
2856	0.027871
2852	0.075888
2848	0.097298
2844	0.127077
2840	0.143146
2836	0.051379
2832	-0.040626
2828	-0.032520
2824	-0.045061
2820	-0.053834
2816	0.037670
2812	0.080513
2808	0.045561
2804	0.068831
2800	0.083231
2796	0.032854
2792	0.004625
2788	0.012874
2784	0.044655
2780	0.084352
2776	0.041222
2772	-0.052571
2768	-0.082492
2764	-0.019598
2760	0.078392
2756	0.125026
2752	0.101399
2748	0.055646
2744	0.056076
2740	0.079417
2736	0.080943
2732	0.068020
2728	0.075149
2724	0.104188
2720	0.114202
2716	0.086903
2712	0.013160
2708	-0.055432
2704	-0.033473
2700	0.052261
2696	0.061774
2692	0.016474
2688	0.067305
2684	0.123143
2680	0.095200
2676	0.052642
2672	-0.012874
2668	-0.079464
2664	-0.044441
2660	0.074720
2656	0.131249
2652	0.093221
2648	0.048995
2644	0.012016
2640	-0.028610
2636	-0.039100
2632	0.008964
2628	0.114703
2624	0.170230
2620	0.130581
2616	0.049090
2612	-0.062656
2608	-0.082254
2604	0.010919
2600	0.072598
2596	0.090551
2592	0.105690
2588	0.071430
2584	-0.019526
2580	-0.092601
2576	-0.098419
2572	-0.087714
2568	-0.069570
2564	-0.004196
2560	0.088047
2556	0.122952
2552	0.090742
2548	0.095248
2544	0.124716
2540	0.106239
2536	0.081706
2532	0.072860
2528	0.047779
2524	0.017571
2520	0.056982
2516	0.092220
2512	0.060296
2508	0.086474
2504	0.074696
2500	0.003743
2496	0.046157
2492	0.105547
2488	0.074267
2484	0.049901
2480	0.067830
2476	0.052976
2472	0.016856
2468	-0.001025
2464	-0.002503
2460	0.028061
2456	0.077891
2452	0.137853
2448	0.164508
2444	0.112009
2440	0.052261
2436	0.016188
2432	0.003170
2428	0.054287
2424	0.166559
2420	0.265550
2416	0.251913
2412	0.189375
2408	0.163245
2404	0.116443
2400	0.078105
2396	0.091361
2392	0.116896
2388	0.127434
2384	0.134611
2380	0.148224
2376	0.193119
2372	0.280833
2368	0.315213
2364	0.289678
2360	0.295281
2356	0.355625
2352	0.438213
2348	0.475955
2344	0.475335
2340	0.506043
2336	0.560617
2332	0.592207
2328	0.597763
2324	0.642895
2320	0.748252
2316	0.842046
2312	0.897336
2308	0.954341
2304	1.044440
2300	1.149177
2296	1.252317
2292	1.374363
2288	1.515817
2284	1.650238
2280	1.810836
2276	1.981830
2272	2.103257
2268	2.264475
2264	2.482247
2260	2.682185
2256	2.898883
2252	3.136777
2248	3.379082
2244	3.611588
2240	3.820490
2236	4.051423
2232	4.347896
2228	4.714941
2224	5.094289
2220	5.426526
2216	5.757379
2212	6.106162
2208	6.435132
2204	6.791162
2200	7.197785
2196	7.612276
2192	8.029246
2188	8.481693
2184	8.957028
2180	9.376239
2176	9.766483
2172	10.2214
2168	10.7294
2164	11.2468
2160	11.7471
2156	12.2451
2152	12.7567
2148	13.2562
2144	13.7503
2140	14.2819
2136	14.7893
2132	15.227
2128	15.7209
2124	16.2673
2120	16.812
2116	17.3793
2112	17.9445
2108	18.4729
2104	18.9484
2100	19.4463
2096	19.9825
2092	20.4724
2088	20.908
2084	21.3383
2080	21.7579
2076	22.154
2072	22.5549
2068	22.9298
2064	23.3379
2060	23.8255
2056	24.317
2052	24.7849
2048	25.2201
2044	25.6148
2040	25.984
2036	26.3378
2032	26.6634
2028	27.0009
2024	27.3377
2020	27.5798
2016	27.7595
2012	28.0203
2008	28.4111
2004	28.828
2000	29.1967
1996	29.5405
1992	29.8969
1988	30.2496
1984	30.5007
1980	30.651
1976	30.7891
1972	30.9329
1968	31.0642
1964	31.1544
1960	31.2507
1956	31.4503
1952	31.7487
1948	32.0606
1944	32.3511
1940	32.6127
1936	32.8518
1932	33.0791
1928	33.2226
1924	33.2838
1920	33.3151
1916	33.3468
1912	33.3822
1908	33.4014
1904	33.4383
1900	33.5401
1896	33.7379
1892	33.9369
1888	34.0901
1884	34.3052
1880	34.5779
1876	34.7837
1872	34.8991
1868	34.9829
1864	34.9927
1860	34.9116
1856	34.8513
1852	34.8563
1848	34.8552
1844	34.8423
1840	34.9096
1836	35.0624
1832	35.261
1828	35.484
1824	35.6442
1820	35.6967
1816	35.7126
1812	35.7758
1808	35.8319
1804	35.7553
1800	35.6112
1796	35.5556
1792	35.5587
1788	35.546
1784	35.5541
1780	35.6406
1776	35.7867
1772	35.9206
1768	36.0275
1764	36.1688
1760	36.3763
1756	36.5078
1752	36.4872
1748	36.406
1744	36.2869
1740	36.143
1736	36.0233
1732	35.944
1728	35.9037
1724	35.9209
1720	35.9991
1716	36.1363
1712	36.3188
1708	36.4626
1704	36.5392
1700	36.6468
1696	36.7985
1692	36.8325
1688	36.7036
1684	36.5269
1680	36.4037
1676	36.3435
1672	36.2841
1668	36.2054
1664	36.1562
1660	36.2151
1656	36.3771
1652	36.5612
1648	36.7372
1644	36.919
1640	37.0599
1636	37.0838
1632	37.0045
1628	36.8773
1624	36.7185
1620	36.5377
1616	36.3432
1612	36.1775
1608	36.1224
1604	36.1758
1600	36.2919
1596	36.4279
1592	36.5873
1588	36.7688
1584	36.8901
1580	36.9598
1576	37.029
1572	37.0343
1568	36.9177
1564	36.7594
1560	36.6423
1556	36.5207
1552	36.3549
1548	36.2369
1544	36.2769
1540	36.4225
1536	36.53
1532	36.6114
1528	36.7974
1524	37.0377
1520	37.1517
1516	37.15
1512	37.1069
1508	37.0126
1504	36.9129
1500	36.7987
1496	36.5889
1492	36.3428
1488	36.217
1484	36.2204
1480	36.2969
1476	36.4419
1472	36.6154
1468	36.8055
1464	36.9894
1460	37.1158
1456	37.1677
1452	37.1441
1448	37.0928
1444	36.9668
1440	36.7439
1436	36.5265
1432	36.3652
1428	36.2696
1424	36.2685
1420	36.3205
1416	36.4032
1412	36.5492
1408	36.7332
1404	36.9355
1400	37.0747
1396	37.123
1392	37.1275
1388	37.0483
1384	36.9346
1380	36.7852
1376	36.5565
1372	36.3518
1368	36.2087
1364	36.1145
1360	36.1163
1356	36.224
1352	36.398
1348	36.5859
1344	36.7784
1340	36.9809
1336	37.1546
1332	37.2225
1328	37.1421
1324	36.9977
1320	36.8584
1316	36.6739
1312	36.4611
1308	36.2988
1304	36.1959
1300	36.1085
1296	36.0667
1292	36.1693
1288	36.3424
1284	36.5059
1280	36.7305
1276	36.9837
1272	37.129
1268	37.0852
1264	36.9491
1260	36.8524
1256	36.6989
1252	36.438
1248	36.1747
1244	35.9549
1240	35.84
1236	35.9008
1232	36.0942
1228	36.3091
1224	36.5022
1220	36.6919
1216	36.8404
1212	36.9322
1208	36.9889
1204	36.9754
1200	36.8568
1196	36.6283
1192	36.3212
1188	36.0363
1184	35.8371
1180	35.7265
1176	35.7028
1172	35.787
1168	36.0177
1164	36.2852
1160	36.4707
1156	36.6157
1152	36.757
1148	36.8189
1144	36.7499
1140	36.6121
1136	36.4391
1132	36.2239
1128	35.9483
1124	35.6833
1120	35.5009
1116	35.4199
1112	35.4841
1108	35.603
1104	35.7959
1100	36.0734
1096	36.2777
1092	36.4451
1088	36.5739
1084	36.6699
1080	36.7801
1076	36.7026
1072	36.3338
1068	35.8601
1064	35.4903
1060	35.2895
1056	35.2183
1052	35.2231
1048	35.307
1044	35.4043
1040	35.5008
1036	35.7086
1032	35.9756
1028	36.1697
1024	36.2468
1020	36.2717
1016	36.196
1012	35.9037
1008	35.5526
1004	35.3354
1000	35.1519
996	 34.9441
992	 34.8404
988	 34.7764
984	 34.6793
980	 34.7998
976	 35.2029
972	 35.5731
968	 35.7869
964	 35.9605
960	 35.9916
956	 35.776
952	 35.5427
948	 35.3327
944	 35.0094
940	 34.6678
936	 34.4638
932	 34.3333
928	 34.1894
924	 34.1555
920	 34.3027
916	 34.5928
912	 34.9206
908	 35.0963
904	 35.1146
900	 35.1527
896	 35.1712
892	 35.0454
888	 34.8578
884	 34.6478
880	 34.3786
876	 34.0896
872	 33.8267
868	 33.6778
864	 33.7012
860	 33.824
856	 33.964
852	 34.115
848	 34.3009
844	 34.5023
840	 34.6208
836	 34.6195
832	 34.573
828	 34.4955
824	 34.3404
820	 34.0358
816	 33.5303
812	 33.0701
808	 32.8988
804	 32.8707
800	 32.873
796	 32.9187
792	 33.0258
788	 33.2274
784	 33.4471
780	 33.6318
776	 33.7701
772	 33.7986
768	 33.7067
764	 33.5977
760	 33.3941
756	 33.0333
752	 32.7412
748	 32.4555
744	 32.0568
740	 31.7818
736	 31.7601
732	 31.994
728	 32.3281
724	 32.5567
720	 32.7683
716	 33.0219
712	 33.0554
708	 32.8444
704	 32.6516
700	 32.4444
696	 32.1214
692	 31.7644
688	 31.4646
684	 31.1614
680	 30.9507
676	 30.96
672	 31.0243
668	 31.1218
664	 31.3005
660	 31.3801
656	 31.3608
652	 31.4006
648	 31.3991
644	 31.4219
640	 31.5447
636	 31.4301
632	 31.1008
628	 30.7753
624	 30.4827
620	 30.226
616	 30.0301
612	 29.9026
608	 29.7314
604	 29.6742
600	 30.0294
596	 30.4932
592	 30.6314
588	 30.7208
584	 30.7068
580	 30.3654
576	 29.9242
572	 29.3281
568	 28.6142
564	 28.3087
560	 28.5497
556	 28.8831
552	 29.0932
548	 29.0699
544	 29.6545
540	 30.7063
536	 30.5098
532	 29.2852
528	 28.4798
524	 29.0193
520	 29.7348
516	 29.0251
512	 28.0571
508	 27.9815
504	 27.9958
500	 27.8069
496	 27.3549
492	 26.7037
488	 26.9482
484	 27.3272
480	 27.1301
476	 26.9769
472	 26.8618
468	 26.6151
464	 26.6335
460	 27.0111
456	 26.5533
452	 25.9109
448	 25.7268
444	 25.0932
440	 24.3885
436	 24.2671
432	 25.3454
428	 26.7015
424	 26.8905
420	 26.6966
416	 26.2641
412	 25.0491
408	 23.9132
404	 24.1433
400	 25.8086
396	 23.6969
392	 19.414
388	 19.1097
384	 16.5884
380	 15.1264
376	 17.1899
372	 8.775901
370	 5.231332