File: Bakgrunnsmateriale/MATLAB/FTIR/ftir_data/LPE454/Mapping_121/LPE454_e127.asc
PE IR       SPECTRUM    SPECTRUM    ASCII       PEDS        1.60
  -1
LP8F05~1.ASC
17/05/19
23:27:42.00
17/05/19
23:28:08.00
tln
$LPE454_e0127$<ebV0>[-23.3,12.1,10.0,0.0,27,1,0]
27.028
64

2002,4.07
MIRTGS : RIGHTBACK : INTERNAL 2
MIR : ON : INTERNAL 2
OPTKBR

0.200000
8
8.000000
FILLER
SINGLE
SPECTRUM
UNLOCKED 256

DOUBLE

COMBINED
1
0
0

0.002000
BACKG

1
0
TRUE
51149
0
LEFT NOT FITTED RIGHT NOT FITTED 0
NONE
NONE
15600
12
4.427000
51148
TRUE
1 0 8 72 0 0 0 0

15798

#HDR
-1
-1
#GR
µM
EGY
2.38419e-05
0.0
2.000000
0.002000
12515
8
2.428809
0.008010
#DATA
2.000000	 0.770783
2.018000	 0.789149
2.036000	 0.802797
2.054000	 0.827199
2.072000	 0.853345
2.090000	 0.877187
2.108000	 0.896838
2.126000	 0.903119
2.144000	 0.913150
2.162000	 0.917953
2.180000	 0.777619
2.198000	 0.983392
2.216000	 0.993245
2.234000	 1.006034
2.252000	 1.012610
2.270000	 1.018769
2.288000	 1.034559
2.306000	 1.066011
2.324000	 1.108917
2.342000	 1.146759
2.360000	 1.171982
2.378000	 1.193283
2.396000	 1.204593
2.414000	 1.223853
2.432000	 1.254999
2.450000	 1.279474
2.468000	 1.325945
2.486000	 1.365230
2.504000	 1.393666
2.522000	 1.409246
2.540000	 1.415081
2.558000	 1.421195
2.576000	 1.430813
2.594000	 1.439132
2.612000	 1.473665
2.630000	 1.501324
2.648000	 1.539823
2.666000	 1.532853
2.684000	 1.562831
2.702000	 1.568595
2.720000	 1.554384
2.738000	 1.558210
2.756000	 1.564498
2.774000	 1.581994
2.792000	 1.592485
2.810000	 1.604708
2.828000	 1.613855
2.846000	 1.619334
2.864000	 1.610997
2.882000	 1.597279
2.900000	 1.587856
2.918000	 1.574682
2.936000	 1.583629
2.954000	 1.594854
2.972000	 1.615500
2.990000	 1.646573
3.008000	 1.675408
3.026000	 1.700722
3.044000	 1.726404
3.062000	 1.749839
3.080000	 1.764221
3.098000	 1.770966
3.116000	 1.777630
3.134000	 1.778109
3.152000	 1.785553
3.170000	 1.792928
3.188000	 1.811832
3.206000	 1.828510
3.224000	 1.856882
3.242000	 1.892043
3.260000	 1.915647
3.278000	 1.944929
3.296000	 1.961614
3.314000	 1.947649
3.332000	 2.006652
3.350000	 2.015113
3.368000	 1.951558
3.386000	 1.910663
3.404000	 1.817274
3.422000	 1.766693
3.440000	 1.919439
3.458000	 1.971577
3.476000	 1.986782
3.494000	 1.891770
3.512000	 1.993227
3.530000	 2.083614
3.548000	 2.125429
3.566000	 2.158135
3.584000	 2.179635
3.602000	 2.208311
3.620000	 2.224517
3.638000	 2.234838
3.656000	 2.237480
3.674000	 2.240011
3.692000	 2.232689
3.710000	 2.228275
3.728000	 2.219776
3.746000	 2.212567
3.764000	 2.202789
3.782000	 2.200298
3.800000	 2.199744
3.818000	 2.202982
3.836000	 2.205461
3.854000	 2.209696
3.872000	 2.221027
3.890000	 2.241603
3.908000	 2.256182
3.926000	 2.270602
3.944000	 2.283565
3.962000	 2.295362
3.980000	 2.298190
3.998000	 2.305532
4.016000	 2.308194
4.034000	 2.300726
4.052000	 2.294639
4.070000	 2.284171
4.088000	 2.274808
4.106000	 2.264164
4.124000	 2.246548
4.141999	 2.242552
4.160000	 2.235346
4.178000	 2.229252
4.196000	 2.225378
4.214000	 2.214900
4.232000	 2.211255
4.250000	 2.227912
4.268000	 2.238169
4.286000	 2.251305
4.304000	 2.270684
4.322000	 2.289226
4.340000	 2.307001
4.358000	 2.321636
4.375999	 2.334421
4.394000	 2.341469
4.412000	 2.348585
4.430000	 2.353575
4.448000	 2.353864
4.466000	 2.355559
4.484000	 2.353935
4.502000	 2.350097
4.520000	 2.342676
4.538000	 2.335516
4.556000	 2.328774
4.574000	 2.322846
4.592000	 2.316198
4.609999	 2.307117
4.628000	 2.309054
4.646000	 2.309517
4.664000	 2.308478
4.682000	 2.306559
4.700000	 2.306327
4.718000	 2.307008
4.736000	 2.309348
4.754000	 2.311710
4.772000	 2.309250
4.790000	 2.309544
4.808000	 2.315156
4.826000	 2.329494
4.843999	 2.346468
4.862000	 2.359745
4.880000	 2.374532
4.898000	 2.389240
4.916000	 2.401855
4.934000	 2.411612
4.952000	 2.416559
4.970000	 2.421582
4.988000	 2.425995
5.006000	 2.428794
5.024000	 2.425712
5.042000	 2.422466
5.060000	 2.416293
5.077999	 2.411783
5.096000	 2.403744
5.114000	 2.397105
5.132000	 2.389924
5.150000	 2.385452
5.168000	 2.380713
5.186000	 2.372993
5.204000	 2.363223
5.222000	 2.357846
5.240000	 2.351345
5.258000	 2.346342
5.276000	 2.340757
5.294000	 2.340659
5.312000	 2.343723
5.330000	 2.344783
5.348000	 2.345303
5.366000	 2.351814
5.384000	 2.357235
5.402000	 2.360028
5.420000	 2.357143
5.438000	 2.366672
5.456000	 2.373703
5.474000	 2.376140
5.492000	 2.384734
5.510000	 2.392144
5.528000	 2.395332
5.546000	 2.397234
5.564000	 2.395194
5.582000	 2.391115
5.600000	 2.395623
5.618000	 2.394189
5.636000	 2.381617
5.654000	 2.378037
5.672000	 2.379468
5.690000	 2.371321
5.708000	 2.352939
5.726000	 2.337820
5.744000	 2.318335
5.762000	 2.292240
5.780000	 2.290608
5.798000	 2.292583
5.816000	 2.273078
5.834000	 2.267258
5.852000	 2.266019
5.870000	 2.239918
5.888000	 2.217212
5.906000	 2.225777
5.923999	 2.219178
5.942000	 2.204911
5.960000	 2.205234
5.978000	 2.195014
5.996000	 2.187669
6.014000	 2.179215
6.032000	 2.156867
6.050000	 2.128012
6.068000	 2.126255
6.086000	 2.129345
6.104000	 2.116083
6.122000	 2.103422
6.140000	 2.096168
6.158000	 2.074959
6.176000	 2.038223
6.194000	 1.991287
6.212000	 1.951593
6.230000	 1.944629
6.248000	 1.963762
6.266000	 1.979985
6.284000	 1.985683
6.302000	 1.982062
6.320000	 1.970250
6.338000	 1.955056
6.356000	 1.948213
6.374000	 1.944800
6.392000	 1.925357
6.410000	 1.897964
6.428000	 1.902383
6.446000	 1.926275
6.464000	 1.930298
6.482000	 1.929823
6.500000	 1.966469
6.518000	 2.025889
6.536000	 2.065635
6.554000	 2.078182
6.572000	 2.076837
6.590000	 2.073292
6.608000	 2.064118
6.626000	 2.040450
6.644000	 1.989129
6.662000	 1.868516
6.680000	 1.707320
6.698000	 1.648665
6.716000	 1.732716
6.734000	 1.851020
6.752000	 1.922314
6.770000	 1.944218
6.788000	 1.945165
6.806000	 1.940013
6.824000	 1.922142
6.842000	 1.879497
6.860000	 1.811628
6.878000	 1.750353
6.896000	 1.739256
6.914000	 1.777384
6.932000	 1.817910
6.950000	 1.834770
6.968000	 1.841128
6.986000	 1.845627
7.004000	 1.844619
7.022000	 1.838065
7.040000	 1.829477
7.058000	 1.820640
7.076000	 1.803079
7.094000	 1.766441
7.112000	 1.723039
7.130000	 1.702218
7.148000	 1.714493
7.166000	 1.742548
7.184000	 1.762300
7.202000	 1.763874
7.220000	 1.759744
7.238000	 1.765804
7.256000	 1.777972
7.274000	 1.785870
7.292000	 1.789487
7.310000	 1.791361
7.328000	 1.791948
7.346000	 1.792455
7.364000	 1.792713
7.382000	 1.791822
7.400000	 1.790380
7.418000	 1.788729
7.436000	 1.787078
7.454000	 1.788095
7.472000	 1.794717
7.490000	 1.805282
7.508000	 1.814718
7.526000	 1.820337
7.544000	 1.823113
7.562000	 1.824852
7.580000	 1.826130
7.598000	 1.827464
7.616000	 1.828897
7.634000	 1.829898
7.652000	 1.829834
7.670000	 1.829072
7.688000	 1.828570
7.706000	 1.828450
7.724000	 1.828376
7.742000	 1.828310
7.760000	 1.828365
7.778000	 1.827881
7.796000	 1.825363
7.814000	 1.819852
7.832000	 1.810525
7.850000	 1.795232
7.868000	 1.771019
7.886000	 1.738652
7.904000	 1.707316
7.922000	 1.691487
7.940000	 1.699441
7.958000	 1.725975
7.976000	 1.757110
7.994000	 1.781635
8.012000	 1.796725
8.030000	 1.804826
8.048000	 1.808938
8.065999	 1.810857
8.084000	 1.811243
8.102000	 1.810309
8.120000	 1.807810
8.138000	 1.803609
8.155999	 1.797577
8.173999	 1.789658
8.192000	 1.779745
8.210000	 1.767834
8.228000	 1.754584
8.246000	 1.741646
8.263999	 1.731390
8.282000	 1.725460
8.300000	 1.723537
8.318000	 1.723918
8.336000	 1.724554
8.353999	 1.724068
8.372000	 1.721847
8.390000	 1.718259
8.408000	 1.713885
8.426000	 1.708932
8.443999	 1.703330
8.462000	 1.697122
8.480000	 1.690353
8.498000	 1.682726
8.516000	 1.673936
8.533999	 1.663856
8.552000	 1.652802
8.570000	 1.641200
8.588000	 1.629278
8.606000	 1.617747
8.624000	 1.607877
8.641999	 1.600562
8.660000	 1.595861
8.678000	 1.592726
8.696000	 1.589807
8.714000	 1.585970
8.731999	 1.580989
8.750000	 1.575310
8.768000	 1.569481
8.786000	 1.563429
8.804000	 1.556547
8.821999	 1.548299
8.840000	 1.538566
8.858000	 1.527742
8.876000	 1.516211
8.894000	 1.504450
8.911999	 1.492803
8.930000	 1.481260
8.948000	 1.469591
8.966000	 1.457833
8.984000	 1.446379
9.001999	 1.436030
9.020000	 1.427443
9.038000	 1.420855
9.056000	 1.416182
9.074000	 1.413137
9.092000	 1.411233
9.109999	 1.410112
9.128000	 1.409376
9.146000	 1.408944
9.164000	 1.408968
9.182000	 1.409587
9.199999	 1.410749
9.218000	 1.411965
9.236000	 1.412611
9.254000	 1.412729
9.272000	 1.412635
9.289999	 1.413162
9.308000	 1.414639
9.326000	 1.416911
9.344000	 1.419322
9.362000	 1.421253
9.379999	 1.422029
9.398000	 1.420793
9.416000	 1.415650
9.434000	 1.403869
9.452000	 1.382870
9.469999	 1.353321
9.488000	 1.320868
9.506000	 1.294984
9.524000	 1.283955
9.542000	 1.290332
9.560000	 1.309398
9.577999	 1.332409
9.596000	 1.351603
9.614000	 1.363504
9.632000	 1.368471
9.650000	 1.368774
9.667999	 1.366458
9.686000	 1.362841
9.704000	 1.358557
9.722000	 1.354098
9.740000	 1.349870
9.757999	 1.346283
9.776000	 1.343940
9.794000	 1.343314
9.812000	 1.344710
9.830000	 1.347980
9.847999	 1.352620
9.866000	 1.357936
9.884000	 1.363355
9.902000	 1.368232
9.920000	 1.372463
9.937999	 1.376042
9.956000	 1.378926
9.974000	 1.381069
9.992000	 1.382389
10.01	1.382875
10.028	1.382550
10.046	1.381612
10.064	1.380260
10.082	1.378512
10.1	1.376383
10.118	1.373683
10.136	1.370446
10.154	1.366783
10.172	1.363063
10.19	1.359480
10.208	1.356300
10.226	1.353454
10.244	1.350495
10.262	1.347126
10.28	1.343001
10.298	1.338077
10.316	1.332605
10.334	1.326931
10.352	1.321257
10.37	1.315628
10.388	1.309999
10.406	1.304284
10.424	1.298451
10.442	1.292635
10.46	1.286824
10.478	1.281231
10.496	1.275950
10.514	1.270983
10.532	1.266360
10.55	1.262011
10.568	1.258017
10.586	1.254339
10.604	1.250898
10.622	1.247682
10.64	1.244480
10.658	1.241244
10.676	1.237994
10.694	1.234723
10.712	1.231436
10.73	1.228216
10.748	1.225080
10.766	1.221897
10.784	1.218720
10.802	1.215514
10.82	1.212189
10.838	1.208730
10.856	1.205017
10.874	1.200883
10.892	1.196229
10.91	1.190980
10.928	1.185280
10.946	1.179209
10.964	1.173067
10.982	1.167020
11	1.161380
11.018	1.156235
11.036	1.151701
11.054	1.147839
11.072	1.144655
11.09	1.142118
11.108	1.140110
11.126	1.138465
11.144	1.136902
11.162	1.135191
11.18	1.132971
11.198	1.129836
11.216	1.125538
11.234	1.119644
11.252	1.112025
11.27	1.102641
11.288	1.091551
11.306	1.079189
11.324	1.065990
11.342	1.052790
11.36	1.040470
11.378	1.029937
11.396	1.022123
11.414	1.017703
11.432	1.016980
11.45	1.019824
11.468	1.025671
11.486	1.033645
11.504	1.042743
11.522	1.051906
11.54	1.060367
11.558	1.067557
11.576	1.073137
11.594	1.077046
11.612	1.079382
11.63	1.080297
11.648	1.080144
11.666	1.079236
11.684	1.077838
11.702	1.076242
11.72	1.074647
11.738	1.073119
11.756	1.071751
11.774	1.070487
11.792	1.069221
11.81	1.067781
11.828	1.066031
11.846	1.063746
11.864	1.060673
11.882	1.056564
11.9	1.051012
11.918	1.043718
11.936	1.034114
11.954	1.021905
11.972	1.006706
11.99	0.988361
12.008	0.967061
12.026	0.943461
12.044	0.918702
12.062	0.894364
12.08	0.872414
12.098	0.854659
12.116	0.842623
12.134	0.837197
12.152	0.838462
12.17	0.845537
12.188	0.856964
12.206	0.870914
12.224	0.885552
12.242	0.899276
12.26	0.911139
12.278	0.920573
12.296	0.927498
12.314	0.932173
12.332	0.935002
12.35	0.936462
12.368	0.936839
12.386	0.936600
12.404	0.936044
12.422	0.935352
12.44	0.934781
12.458	0.934456
12.476	0.934483
12.494	0.934920
12.512	0.935841
12.53	0.937158
12.548	0.938872
12.566	0.940953
12.584	0.943372
12.602	0.946085
12.62	0.948953
12.638	0.951957
12.656	0.954993
12.674	0.957994
12.692	0.960735
12.71	0.963237
12.728	0.965372
12.746	0.967195
12.764	0.968596
12.782	0.969582
12.8	0.970199
12.818	0.970468
12.836	0.970468
12.854	0.970135
12.872	0.969574
12.89	0.968755
12.908	0.967679
12.926	0.966444
12.944	0.965060
12.962	0.963616
12.98	0.962222
12.998	0.960950
13.016	0.959812
13.034	0.958893
13.052	0.958202
13.07	0.957657
13.088	0.957246
13.106	0.956943
13.124	0.956618
13.142	0.956241
13.16	0.955787
13.178	0.955249
13.196	0.954561
13.214	0.953735
13.232	0.952720
13.25	0.951575
13.268	0.950261
13.286	0.948797
13.304	0.947158
13.322	0.945384
13.34	0.943528
13.358	0.941576
13.376	0.939604
13.394	0.937631
13.412	0.935648
13.43	0.933663
13.448	0.931651
13.466	0.929586
13.484	0.927462
13.502	0.925306
13.52	0.923132
13.538	0.920963
13.556	0.918841
13.574	0.916773
13.592	0.914821
13.61	0.912923
13.628	0.911036
13.646	0.909175
13.664	0.907173
13.682	0.905037
13.7	0.902679
13.718	0.900085
13.736	0.897213
13.754	0.894086
13.772	0.890770
13.79	0.887324
13.808	0.883851
13.826	0.880415
13.844	0.877095
13.862	0.873938
13.88	0.870985
13.898	0.868253
13.916	0.865717
13.934	0.863338
13.952	0.861068
13.97	0.858853
13.988	0.856655
14.006	0.854417
14.024	0.852082
14.042	0.849655
14.06	0.847097
14.078	0.844423
14.096	0.841640
14.114	0.838737
14.132	0.835688
14.15	0.832532
14.168	0.829340
14.186	0.826038
14.204	0.822670
14.222	0.819277
14.24	0.815818
14.258	0.812300
14.276	0.808668
14.294	0.804869
14.312	0.800844
14.33	0.796502
14.348	0.791732
14.366	0.786438
14.384	0.780611
14.402	0.774274
14.42	0.767551
14.438	0.760601
14.456	0.753620
14.474	0.746848
14.492	0.740559
14.51	0.735021
14.528	0.730412
14.546	0.726831
14.564	0.724315
14.582	0.722821
14.6	0.722217
14.618	0.722302
14.636	0.722844
14.654	0.723608
14.672	0.724415
14.69	0.725099
14.708	0.725514
14.726	0.725589
14.744	0.725302
14.762	0.724652
14.78	0.723662
14.798	0.722375
14.816	0.720847
14.834	0.719133
14.852	0.717293
14.87	0.715349
14.888	0.713355
14.906	0.711361
14.924	0.709374
14.942	0.707406
14.96	0.705469
14.978	0.703587
14.996	0.701769
15.014	0.699999
15.032	0.698295
15.05	0.696658
15.068	0.695075
15.086	0.693544
15.104	0.692078
15.122	0.690647
15.14	0.689226
15.158	0.687795
15.176	0.686330
15.194	0.684808
15.212	0.683234
15.23	0.681588
15.248	0.679849
15.266	0.677995
15.284	0.676042
15.302	0.674051
15.32	0.671980
15.338	0.669791
15.356	0.667610
15.374	0.665377
15.392	0.663115
15.41	0.660852
15.428	0.658597
15.446	0.656330
15.464	0.654073
15.482	0.651834
15.5	0.649596
15.518	0.647389
15.536	0.645224
15.554	0.643101
15.572	0.641006
15.59	0.638970
15.608	0.636983
15.626	0.635040
15.644	0.633159
15.662	0.631306
15.68	0.629490
15.698	0.627717
15.716	0.625992
15.734	0.624279
15.752	0.622558
15.77	0.620812
15.788	0.619047
15.806	0.617252
15.824	0.615425
15.842	0.613577
15.86	0.611722
15.878	0.609858
15.896	0.607987
15.914	0.606104
15.932	0.604230
15.95	0.602378
15.968	0.600575
15.986	0.598777
16.004	0.596982
16.022	0.595191
16.04	0.593422
16.058	0.591641
16.076	0.589824
16.094	0.587966
16.112	0.586051
16.13	0.584063
16.148	0.581971
16.166	0.579782
16.184	0.577497
16.202	0.575122
16.22	0.572594
16.238	0.569918
16.256	0.567106
16.274	0.564141
16.292	0.561041
16.31	0.557817
16.328	0.554485
16.346	0.551088
16.364	0.547664
16.382	0.544264
16.4	0.540946
16.418	0.537753
16.436	0.534719
16.454	0.531912
16.472	0.529375
16.49	0.527126
16.508	0.525186
16.526	0.523565
16.544	0.522227
16.562	0.521160
16.58	0.520352
16.598	0.519721
16.616	0.519225
16.634	0.518824
16.652	0.518505
16.67	0.518217
16.688	0.517899
16.706	0.517533
16.724	0.517114
16.742	0.516638
16.76	0.516084
16.778	0.515455
16.796	0.514782
16.814	0.514076
16.832	0.513345
16.85	0.512580
16.868	0.511809
16.886	0.511052
16.904	0.510330
16.922	0.509632
16.94	0.508938
16.958	0.508273
16.976	0.507637
16.994	0.506993
17.012	0.506368
17.03	0.505780
17.048	0.505181
17.066	0.504573
17.084	0.503959
17.102	0.503329
17.12	0.502681
17.138	0.502026
17.156	0.501367
17.174	0.500708
17.192	0.500069
17.21	0.499449
17.228	0.498835
17.246	0.498241
17.264	0.497677
17.282	0.497142
17.3	0.496631
17.318	0.496126
17.336	0.495631
17.354	0.495146
17.372	0.494677
17.39	0.494206
17.408	0.493668
17.426	0.493103
17.444	0.492536
17.462	0.491891
17.48	0.491172
17.498	0.490434
17.516	0.489655
17.534	0.488823
17.552	0.487956
17.57	0.487061
17.588	0.486163
17.606	0.485258
17.624	0.484327
17.642	0.483416
17.66	0.482548
17.678	0.481703
17.696	0.480885
17.714	0.480105
17.732	0.479348
17.75	0.478598
17.768	0.477851
17.786	0.477107
17.804	0.476352
17.822	0.475579
17.84	0.474745
17.858	0.473861
17.876	0.472937
17.894	0.471965
17.912	0.470941
17.93	0.469857
17.948	0.468714
17.966	0.467554
17.984	0.466380
18.002	0.465198
18.02	0.464026
18.038	0.462882
18.056	0.461767
18.074	0.460682
18.092	0.459648
18.11	0.458668
18.128	0.457761
18.146	0.456915
18.164	0.456107
18.182	0.455323
18.2	0.454546
18.218	0.453768
18.236	0.452985
18.254	0.452186
18.272	0.451369
18.29	0.450512
18.308	0.449614
18.326	0.448666
18.344	0.447673
18.362	0.446667
18.38	0.445644
18.398	0.444595
18.416	0.443541
18.434	0.442510
18.452	0.441497
18.47	0.440507
18.488	0.439542
18.506	0.438601
18.524	0.437711
18.542	0.436885
18.56	0.436086
18.578	0.435309
18.596	0.434580
18.614	0.433900
18.632	0.433261
18.65	0.432660
18.668	0.432087
18.686	0.431538
18.704	0.431002
18.722	0.430478
18.74	0.429963
18.758	0.429452
18.776	0.428927
18.794	0.428387
18.812	0.427826
18.83	0.427233
18.848	0.426593
18.866	0.425895
18.884	0.425114
18.902	0.424251
18.92	0.423300
18.938	0.422253
18.956	0.421094
18.974	0.419833
18.992	0.418471
19.01	0.417015
19.028	0.415472
19.046	0.413852
19.064	0.412170
19.082	0.410437
19.1	0.408670
19.118	0.406887
19.136	0.405123
19.154	0.403385
19.172	0.401709
19.19	0.400092
19.208	0.398546
19.226	0.397076
19.244	0.395715
19.262	0.394451
19.28	0.393258
19.298	0.392138
19.316	0.391097
19.334	0.390132
19.352	0.389200
19.37	0.388303
19.388	0.387402
19.406	0.386498
19.424	0.385558
19.442	0.384581
19.46	0.383553
19.478	0.382473
19.496	0.381334
19.514	0.380131
19.532	0.378864
19.55	0.377521
19.568	0.376125
19.586	0.374691
19.604	0.373225
19.622	0.371740
19.64	0.370242
19.658	0.368754
19.676	0.367276
19.694	0.365829
19.712	0.364415
19.73	0.363017
19.748	0.361634
19.766	0.360277
19.784	0.358959
19.802	0.357650
19.82	0.356330
19.838	0.355007
19.856	0.353687
19.874	0.352361
19.892	0.351002
19.91	0.349615
19.928	0.348195
19.946	0.346739
19.964	0.345265
19.982	0.343776
20	0.342273
20.018	0.340756
20.036	0.339232
20.054	0.337713
20.072	0.336198
20.09	0.334695
20.108	0.333202
20.126	0.331740
20.144	0.330317
20.162	0.328914
20.18	0.327527
20.198	0.326153
20.216	0.324784
20.234	0.323422
20.252	0.322059
20.27	0.320697
20.288	0.319310
20.306	0.317895
20.324	0.316454
20.342	0.314992
20.36	0.313503
20.378	0.311975
20.396	0.310412
20.414	0.308836
20.432	0.307247
20.45	0.305643
20.468	0.304018
20.486	0.302385
20.504	0.300763
20.522	0.299149
20.54	0.297555
20.558	0.295983
20.576	0.294434
20.594	0.292909
20.612	0.291409
20.63	0.289938
20.648	0.288493
20.666	0.287087
20.684	0.285721
20.702	0.284385
20.72	0.283068
20.738	0.281775
20.756	0.280499
20.774	0.279240
20.792	0.278004
20.81	0.276798
20.828	0.275608
20.846	0.274412
20.864	0.273217
20.882	0.272029
20.9	0.270853
20.918	0.269673
20.936	0.268481
20.954	0.267278
20.972	0.266051
20.99	0.264797
21.008	0.263528
21.026	0.262252
21.044	0.260960
21.062	0.259634
21.08	0.258276
21.098	0.256893
21.116	0.255487
21.134	0.254056
21.152	0.252592
21.17	0.251096
21.188	0.249589
21.206	0.248078
21.224	0.246558
21.242	0.245027
21.26	0.243484
21.278	0.241946
21.296	0.240422
21.314	0.238901
21.332	0.237373
21.35	0.235837
21.368	0.234325
21.386	0.232853
21.404	0.231407
21.422	0.229979
21.44	0.228570
21.458	0.227186
21.476	0.225835
21.494	0.224511
21.512	0.223205
21.53	0.221916
21.548	0.220651
21.566	0.219419
21.584	0.218214
21.602	0.217025
21.62	0.215848
21.638	0.214689
21.656	0.213552
21.674	0.212437
21.692	0.211332
21.71	0.210232
21.728	0.209141
21.746	0.208064
21.764	0.207004
21.782	0.205948
21.8	0.204886
21.818	0.203823
21.836	0.202754
21.854	0.201680
21.872	0.200601
21.89	0.199517
21.908	0.198432
21.926	0.197336
21.944	0.196220
21.962	0.195089
21.98	0.193946
21.998	0.192792
22.016	0.191627
22.034	0.190455
22.052	0.189275
22.07	0.188088
22.088	0.186896
22.106	0.185698
22.124	0.184505
22.142	0.183320
22.16	0.182141
22.178	0.180962
22.196	0.179781
22.214	0.178606
22.232	0.177447
22.25	0.176302
22.268	0.175163
22.286	0.174020
22.304	0.172878
22.322	0.171744
22.34	0.170623
22.358	0.169509
22.376	0.168392
22.394	0.167271
22.412	0.166150
22.43	0.165032
22.448	0.163921
22.466	0.162804
22.484	0.161672
22.502	0.160527
22.52	0.159377
22.538	0.158225
22.556	0.157070
22.574	0.155908
22.592	0.154735
22.61	0.153555
22.628	0.152379
22.646	0.151205
22.664	0.150034
22.682	0.148869
22.7	0.147708
22.718	0.146553
22.736	0.145401
22.754	0.144248
22.772	0.143108
22.79	0.141993
22.808	0.140896
22.826	0.139820
22.844	0.138768
22.862	0.137738
22.88	0.136726
22.898	0.135726
22.916	0.134742
22.934	0.133775
22.952	0.132830
22.97	0.131904
22.988	0.130988
23.006	0.130077
23.024	0.129175
23.042	0.128291
23.06	0.127432
23.078	0.126590
23.096	0.125752
23.114	0.124912
23.132	0.124077
23.15	0.123249
23.168	0.122432
23.186	0.121620
23.204	0.120804
23.222	0.119982
23.24	0.119156
23.258	0.118320
23.276	0.117473
23.294	0.116617
23.312	0.115752
23.33	0.114882
23.348	0.114003
23.366	0.113100
23.384	0.112171
23.402	0.111221
23.42	0.110248
23.438	0.109255
23.456	0.108240
23.474	0.107203
23.492	0.106145
23.51	0.105066
23.528	0.103966
23.546	0.102841
23.564	0.101695
23.582	0.100537
23.6	0.099372
23.618	0.098195
23.636	0.097010
23.654	0.095815
23.672	0.094608
23.69	0.093403
23.708	0.092210
23.726	0.091023
23.744	0.089845
23.762	0.088680
23.78	0.087523
23.798	0.086382
23.816	0.085264
23.834	0.084164
23.852	0.083089
23.87	0.082045
23.888	0.081036
23.906	0.080057
23.924	0.079102
23.942	0.078169
23.96	0.077262
23.978	0.076381
23.996	0.075529
24.014	0.074704
24.032	0.073905
24.05	0.073130
24.068	0.072384
24.086	0.071655
24.104	0.070935
24.122	0.070224
24.14	0.069526
24.158	0.068847
24.176	0.068192
24.194	0.067553
24.212	0.066914
24.23	0.066269
24.248	0.065624
24.266	0.064984
24.284	0.064352
24.302	0.063728
24.32	0.063106
24.338	0.062480
24.356	0.061852
24.374	0.061222
24.392	0.060592
24.41	0.059960
24.428	0.059326
24.446	0.058692
24.464	0.058057
24.482	0.057423
24.5	0.056784
24.518	0.056138
24.536	0.055483
24.554	0.054824
24.572	0.054168
24.59	0.053516
24.608	0.052866
24.626	0.052212
24.644	0.051552
24.662	0.050885
24.68	0.050221
24.698	0.049564
24.716	0.048915
24.734	0.048270
24.752	0.047629
24.77	0.046988
24.788	0.046349
24.806	0.045717
24.824	0.045093
24.842	0.044477
24.86	0.043867
24.878	0.043265
24.896	0.042668
24.914	0.042077
24.932	0.041497
24.95	0.040930
24.968	0.040373
24.986	0.039827
25.004	0.039292
25.022	0.038766
25.04	0.038250
25.058	0.037749
25.076	0.037265
25.094	0.036798
25.112	0.036341
25.13	0.035892
25.148	0.035451
25.166	0.035017
25.184	0.034590
25.202	0.034169
25.22	0.033754
25.238	0.033346
25.256	0.032943
25.274	0.032549
25.292	0.032161
25.31	0.031776
25.328	0.031392
25.346	0.031010
25.364	0.030631
25.382	0.030251
25.4	0.029874
25.418	0.029497
25.436	0.029117
25.454	0.028733
25.472	0.028346
25.49	0.027955
25.508	0.027561
25.526	0.027164
25.544	0.026763
25.562	0.026360
25.58	0.025957
25.598	0.025553
25.616	0.025148
25.634	0.024741
25.652	0.024328
25.67	0.023911
25.688	0.023492
25.706	0.023076
25.724	0.022665
25.742	0.022257
25.76	0.021851
25.778	0.021444
25.796	0.021037
25.814	0.020631
25.832	0.020226
25.85	0.019820
25.868	0.019413
25.886	0.019008
25.904	0.018608
25.922	0.018218
25.94	0.017834
25.958	0.017455
25.976	0.017076
25.994	0.016697
26.012	0.016319
26.03	0.015947
26.048	0.015584
26.066	0.015226
26.084	0.014876
26.102	0.014538
26.12	0.014218
26.138	0.013913
26.156	0.013621
26.174	0.013340
26.192	0.013071
26.21	0.012813
26.228	0.012567
26.246	0.012335
26.264	0.012115
26.282	0.011907
26.3	0.011715
26.318	0.011543
26.336	0.011393
26.354	0.011263
26.372	0.011145
26.39	0.011033
26.408	0.010927
26.426	0.010831
26.444	0.010747
26.462	0.010681
26.48	0.010636
26.498	0.010603
26.516	0.010576
26.534	0.010547
26.552	0.010522
26.57	0.010499
26.588	0.010476
26.606	0.010453
26.624	0.010431
26.642	0.010409
26.66	0.010382
26.678	0.010350
26.696	0.010315
26.714	0.010275
26.732	0.010224
26.75	0.010159
26.768	0.010083
26.786	0.009997
26.804	0.009902
26.822	0.009799
26.84	0.009688
26.858	0.009567
26.876	0.009437
26.894	0.009295
26.912	0.009140
26.93	0.008977
26.948	0.008808
26.966	0.008626
26.984	0.008417
27.002	0.008213
27.02	0.008053
27.028	0.008010