File: Bakgrunnsmateriale/MATLAB/FTIR/ftir_data/LPE454/Mapping_121/LPE454_t101_cm-1.asc
PE IR       SPECTRUM    SPECTRUM    ASCII       PEDS        1.60
  -1
LP04DC~1.ASC
17/05/19
22:40:45.00
17/05/19
22:40:45.00
tln
$LPE454_t0101$<tbV0>[10.4,10.4,8.0,0.0,27,1,0]
370
64

2002,4.07
MIRTGS : RIGHTBACK : INTERNAL 2
MIR : ON : INTERNAL 2
OPTKBR

0.200000
8
8.000000
FILLER
RATIO
SPECTRUM
UNLOCKED 256

DOUBLE
64
COMBINED
1
0
0

1.000000
RATIO

1
0
TRUE
51149
0
LEFT NOT FITTED RIGHT NOT FITTED 0
NONE
NONE
15600
12
4.427000
51148
TRUE
1 0 8 72 0 0 0 0

15798

#HDR
-1
-1
#GR
CM-1
%T
2.38419e-05
0.0
5000
-1.000000
4631
8
58.2957
-2.809405
#DATA
5000	0.335025
4996	0.365400
4992	0.263357
4988	0.083780
4984	-0.101375
4980	-0.142908
4976	-0.149965
4972	-0.123310
4968	0.022554
4964	0.017404
4960	-0.122594
4956	-0.149178
4952	0.044083
4948	0.310802
4944	0.301551
4940	0.122880
4936	0.068640
4932	0.170731
4928	0.295543
4924	0.209641
4920	-0.035715
4916	-0.203037
4912	-0.244021
4908	-0.165343
4904	-0.017738
4900	0.187015
4896	0.381374
4892	0.529146
4888	0.704121
4884	0.778079
4880	0.565099
4876	0.107192
4872	-0.152540
4868	-0.053787
4864	0.039839
4860	-0.035452
4856	-0.167322
4852	-0.228476
4848	-0.191903
4844	0.006580
4840	0.152420
4836	0.064277
4832	0.027799
4828	0.064325
4824	-0.017380
4820	0.006413
4816	0.209927
4812	0.233888
4808	-0.005412
4804	-0.130629
4800	-0.027751
4796	0.063657
4792	0.101327
4788	0.247859
4784	0.459623
4780	0.462698
4776	0.258469
4772	0.161147
4768	0.241446
4764	0.338244
4760	0.352120
4756	0.340557
4752	0.265121
4748	-0.026512
4744	-0.245761
4740	-0.178575
4736	0.011658
4732	0.213074
4728	0.250673
4724	-0.000166
4720	-0.245809
4716	-0.184202
4712	-0.060129
4708	0.032997
4704	0.300765
4700	0.444507
4696	0.258946
4692	0.118017
4688	0.218415
4684	0.251483
4680	0.233459
4676	0.410127
4672	0.496196
4668	0.363802
4664	0.328493
4660	0.301647
4656	0.330758
4652	0.500631
4648	0.320196
4644	-0.122523
4640	0.007224
4636	0.700235
4632	1.136827
4628	1.307153
4624	0.759720
4620	0.173807
4616	0.748443
4612	1.397943
4608	0.725269
4604	0.528573
4600	-0.790572
4596	-2.809405
4592	-1.062035
4588	3.303575
4584	6.488013
4580	5.249857
4576	3.052639
4572	1.902127
4568	0.929403
4564	0.722527
4560	0.790500
4556	0.635623
4552	0.632667
4548	0.585842
4544	0.179743
4540	-0.124239
4536	-0.060915
4532	0.037384
4528	0.214457
4524	0.590968
4520	0.749826
4516	0.673532
4512	0.580167
4508	0.404763
4504	0.226974
4500	0.150489
4496	0.054168
4492	0.007963
4488	-0.003099
4484	-0.145649
4480	-0.181770
4476	-0.145554
4472	-0.196576
4468	-0.097846
4464	0.155735
4460	0.477385
4456	0.627064
4452	0.395846
4448	0.119161
4444	-0.034165
4440	-0.095391
4436	0.087237
4432	0.290560
4428	0.159835
4424	-0.147128
4420	-0.286984
4416	-0.165557
4412	0.020241
4408	0.082063
4404	0.013732
4400	-0.078010
4396	-0.010848
4392	0.181078
4388	0.230932
4384	0.070285
4380	-0.034689
4376	-0.074458
4372	-0.181341
4368	-0.141763
4364	0.083136
4360	0.291419
4356	0.390720
4352	0.371193
4348	0.200796
4344	0.017738
4340	-0.088524
4336	-0.167083
4332	-0.017237
4328	0.239062
4324	0.168371
4320	-0.017499
4316	0.012946
4312	0.118231
4308	0.056266
4304	-0.056815
4300	0.056028
4296	0.166058
4292	0.034976
4288	-0.058293
4284	0.001358
4280	-0.028204
4276	-0.117206
4272	0.050234
4268	0.388312
4264	0.482225
4260	0.372052
4256	0.322318
4252	0.276017
4248	0.219988
4244	0.218558
4240	0.215888
4236	0.254845
4232	0.311303
4228	0.211238
4224	0.049209
4220	0.046277
4216	0.088071
4212	0.009155
4208	-0.085139
4204	-0.057387
4200	0.112485
4196	0.299286
4192	0.297689
4188	0.105667
4184	-0.072026
4180	-0.103116
4176	-0.090932
4172	-0.222659
4168	-0.326347
4164	-0.194430
4160	-0.053548
4156	-0.054621
4152	-0.095629
4148	-0.154709
4144	-0.197386
4140	-0.137233
4136	-0.044560
4132	0.017452
4128	-0.008606
4124	0.011396
4120	0.177478
4116	0.196003
4112	0.171160
4108	0.337886
4104	0.590610
4100	0.732731
4096	0.677967
4092	0.516557
4088	0.227689
4084	0.026345
4080	0.297617
4076	0.736904
4072	0.914788
4068	0.611352
4064	-0.160551
4060	-0.483083
4056	-0.205874
4052	0.198793
4048	0.678348
4044	0.622010
4040	0.154709
4036	0.051474
4032	0.055956
4028	0.059294
4024	0.256490
4020	0.348210
4016	0.211143
4012	-0.048995
4008	-0.287628
4004	-0.378727
4000	-0.150799
3996	0.131916
3992	0.104641
3988	0.076174
3984	0.140428
3980	0.058603
3976	0.023865
3972	0.096654
3968	0.129747
3964	0.099277
3960	0.085139
3956	0.108456
3952	0.121283
3948	0.174832
3944	0.209069
3940	0.201869
3936	0.213956
3932	0.201845
3928	0.116181
3924	0.007438
3920	-0.083947
3916	-0.132751
3912	-0.148916
3908	-0.176596
3904	-0.089192
3900	-0.027775
3896	-0.139880
3892	-0.069999
3888	0.152754
3884	0.211477
3880	0.187993
3876	0.163960
3872	0.123357
3868	0.094461
3864	0.079298
3860	0.083374
3856	0.073075
3852	-0.010538
3848	-0.069069
3844	-0.115323
3840	-0.115990
3836	0.034141
3832	0.129294
3828	0.102114
3824	0.110483
3820	0.148963
3816	0.172305
3812	0.105762
3808	-0.062108
3804	-0.110602
3800	-0.034093
3796	0.020718
3792	0.063920
3788	0.085115
3784	0.042295
3780	-0.057768
3776	-0.097799
3772	-0.042128
3768	0.030112
3764	0.041627
3760	-0.009679
3756	0.025582
3752	0.118160
3748	0.150609
3744	0.108075
3740	0.019502
3736	-0.051116
3732	-0.027108
3728	0.065946
3724	0.048708
3720	0.001692
3716	0.065732
3712	0.095987
3708	0.047421
3704	0.012254
3700	0.049853
3696	0.110316
3692	0.072240
3688	-0.005459
3684	-0.056099
3680	-0.096607
3676	-0.072336
3672	0.010418
3668	0.057506
3664	0.029039
3660	-0.006103
3656	-0.001835
3652	0.003671
3648	0.036740
3644	0.092387
3640	0.102400
3636	0.058603
3632	0.023269
3628	0.093412
3624	0.200414
3620	0.194358
3616	0.101208
3612	0.027847
3608	0.017714
3604	0.029444
3600	0.040388
3596	0.039458
3592	-0.020718
3588	-0.068116
3584	-0.053596
3580	-0.029683
3576	-0.007271
3572	0.013613
3568	0.041699
3564	0.092196
3560	0.160408
3556	0.177073
3552	0.145816
3548	0.102066
3544	0.021409
3540	-0.022244
3536	0.034308
3532	0.142526
3528	0.181865
3524	0.117564
3520	0.037336
3516	-0.025105
3512	-0.017857
3508	0.069856
3504	0.131607
3500	0.079035
3496	-0.028562
3492	-0.077986
3488	-0.079369
3484	-0.060153
3480	-0.006866
3476	0.111269
3472	0.213360
3468	0.141358
3464	-0.008845
3460	-0.047636
3456	-0.012326
3452	0.011610
3448	-0.012874
3444	-0.063395
3440	-0.026512
3436	0.039911
3432	0.047993
3428	0.048756
3424	0.025534
3420	0.072407
3416	0.176525
3412	0.149893
3408	0.069189
3404	0.070714
3400	0.118446
3396	0.132632
3392	0.135731
3388	0.121021
3384	0.029587
3380	-0.053739
3376	-0.047373
3372	0.027251
3368	0.079798
3364	0.040173
3360	0.032544
3356	0.130534
3352	0.146389
3348	0.065779
3344	0.051259
3340	0.068998
3336	0.059747
3332	0.031471
3328	-0.009131
3324	-0.023317
3320	-0.002217
3316	0.036835
3312	0.024700
3308	-0.067710
3304	-0.116467
3300	-0.084066
3296	-0.022673
3292	0.019717
3288	0.023388
3284	0.046968
3280	0.071835
3276	0.016498
3272	-0.047755
3268	-0.059103
3264	-0.058126
3260	0.001549
3256	0.097227
3252	0.110578
3248	0.057053
3244	0.039100
3240	0.069427
3236	0.040602
3232	-0.034451
3228	0.002241
3224	0.062608
3220	0.010228
3216	-0.050616
3212	-0.049614
3208	0.012254
3204	0.108194
3200	0.121879
3196	0.053429
3192	0.044274
3188	0.097966
3184	0.126314
3180	0.113463
3176	0.085663
3172	0.070810
3168	0.049686
3164	0.003981
3160	-0.027203
3156	0.004434
3152	0.043869
3148	0.044751
3144	0.074315
3140	0.108361
3136	0.079917
3132	0.084352
3128	0.123476
3124	0.103449
3120	0.085473
3116	0.091671
3112	0.066709
3108	0.039148
3104	0.081372
3100	0.171041
3096	0.150513
3092	0.019264
3088	-0.029850
3084	0.029563
3080	0.029087
3076	-0.070691
3072	-0.082945
3068	0.016117
3064	0.073146
3060	0.102019
3056	0.126409
3052	0.096440
3048	0.056672
3044	0.051689
3040	0.025677
3036	-0.041222
3032	-0.089359
3028	-0.076603
3024	-0.012445
3020	0.006747
3016	-0.037956
3012	-0.047349
3008	-0.021648
3004	0.006866
3000	0.002527
2996	-0.028300
2992	-0.016140
2988	-0.000262
2984	-0.006294
2980	0.007534
2976	0.073599
2972	0.156569
2968	0.135922
2964	0.064921
2960	0.048756
2956	0.050878
2952	0.028562
2948	0.011849
2944	0.082826
2940	0.083947
2936	-0.012564
2932	-0.022339
2928	-0.012278
2924	-0.009679
2920	0.007128
2916	0.005888
2912	-0.027394
2908	-0.043225
2904	0.026655
2900	0.084352
2896	0.065207
2892	0.022721
2888	-0.007748
2884	0.011515
2880	0.054502
2876	0.043535
2872	0.051379
2868	0.094294
2864	0.071740
2860	0.065517
2856	0.097584
2852	0.057768
2848	0.000524
2844	-0.010871
2840	-0.036525
2836	-0.105381
2832	-0.100231
2828	-0.006532
2824	0.042152
2820	0.050854
2816	0.059247
2812	0.046491
2808	-0.001978
2804	-0.063371
2800	-0.023794
2796	0.061464
2792	0.068950
2788	0.066637
2784	0.040984
2780	0.029969
2776	0.093221
2772	0.107884
2768	0.093936
2764	0.119018
2760	0.120735
2756	0.094580
2752	0.104570
2748	0.154399
2744	0.149917
2740	0.086593
2736	0.084614
2732	0.115060
2728	0.074696
2724	0.008821
2720	-0.008559
2716	0.040626
2712	0.087285
2708	0.040054
2704	-0.017786
2700	-0.021123
2696	-0.019264
2692	-0.043559
2688	-0.061535
2684	-0.038886
2680	-0.011634
2676	0.001358
2672	0.021576
2668	0.077199
2664	0.124239
2660	0.085735
2656	0.004601
2652	-0.022482
2648	0.016474
2644	0.066494
2640	0.113320
2636	0.154805
2632	0.170969
2628	0.143861
2624	0.069332
2620	0.028800
2616	0.058650
2612	0.092411
2608	0.069046
2604	0.036239
2600	0.051975
2596	0.056481
2592	0.020456
2588	-0.030970
2584	-0.060749
2580	-0.069928
2576	-0.087833
2572	-0.083708
2568	-0.055456
2564	-0.012302
2560	0.003194
2556	-0.016593
2552	-0.028443
2548	-0.069594
2544	-0.091886
2540	-0.046849
2536	-0.014734
2532	-0.000762
2528	0.020337
2524	0.028705
2520	0.034165
2516	0.069975
2512	0.113320
2508	0.065898
2504	-0.014901
2500	-0.030660
2496	-0.040888
2492	-0.025820
2488	0.003147
2484	-0.025939
2480	-0.061345
2476	-0.059032
2472	-0.054788
2468	-0.030064
2464	0.017881
2460	0.006937
2456	-0.017690
2452	0.001239
2448	0.013256
2444	0.008821
2440	-0.005674
2436	-0.037264
2432	-0.048160
2428	-0.056982
2424	-0.094389
2420	-0.085687
2416	-0.038790
2412	0.014185
2408	0.123620
2404	0.185227
2400	0.133013
2396	0.081586
2392	0.082302
2388	0.089144
2384	0.069928
2380	0.065279
2376	0.069522
2372	0.057983
2368	0.056815
2364	0.103402
2360	0.184011
2356	0.261044
2352	0.305247
2348	0.301527
2344	0.334072
2340	0.408220
2336	0.454974
2332	0.453686
2328	0.439524
2324	0.505805
2320	0.619196
2316	0.672364
2312	0.700664
2308	0.771808
2304	0.864148
2300	0.982999
2296	1.130604
2292	1.267623
2288	1.386094
2284	1.489281
2280	1.589345
2276	1.694846
2272	1.800537
2268	1.916432
2264	2.065157
2260	2.246451
2256	2.409553
2252	2.572417
2248	2.787899
2244	3.017091
2240	3.236246
2236	3.465557
2232	3.721261
2228	3.997707
2224	4.287767
2220	4.602146
2216	4.956483
2212	5.346179
2208	5.701351
2204	6.013369
2200	6.353783
2196	6.769275
2192	7.218885
2188	7.590746
2184	7.929134
2180	8.357834
2176	8.857631
2172	9.376645
2168	9.891605
2164	10.3622
2160	10.8005
2156	11.2595
2152	11.7402
2148	12.2489
2144	12.785
2140	13.2805
2136	13.7519
2132	14.2662
2128	14.7847
2124	15.3052
2120	15.8558
2116	16.3967
2112	16.9268
2108	17.4521
2104	17.9434
2100	18.3993
2096	18.8938
2092	19.4126
2088	19.8632
2084	20.3174
2080	20.8344
2076	21.2846
2072	21.7233
2068	22.2258
2064	22.6719
2060	23.1303
2056	23.5784
2052	23.9524
2048	24.3814
2044	24.8391
2040	25.2191
2036	25.5603
2032	25.9553
2028	26.3778
2024	26.7656
2020	27.1118
2016	27.4235
2012	27.7432
2008	28.0879
2004	28.4132
2000	28.7266
1996	29.054
1992	29.3359
1988	29.5838
1984	29.8441
1980	30.1254
1976	30.4236
1972	30.6465
1968	30.8326
1964	31.0983
1960	31.3547
1956	31.5448
1952	31.7814
1948	32.0557
1944	32.2574
1940	32.4093
1936	32.5918
1932	32.8158
1928	33.0412
1924	33.2152
1920	33.3312
1916	33.4893
1912	33.6769
1908	33.8276
1904	33.9743
1900	34.0774
1896	34.1559
1892	34.2707
1888	34.3757
1884	34.4252
1880	34.4774
1876	34.5996
1872	34.7429
1868	34.8796
1864	35.0245
1860	35.1408
1856	35.177
1852	35.1861
1848	35.25
1844	35.3349
1840	35.428
1836	35.5247
1832	35.601
1828	35.6836
1824	35.793
1820	35.9048
1816	35.9541
1812	35.9501
1808	35.9509
1804	35.9685
1800	35.9792
1796	35.996
1792	36.0735
1788	36.1573
1784	36.1786
1780	36.1864
1776	36.2272
1772	36.2816
1768	36.3062
1764	36.2924
1760	36.3126
1756	36.3768
1752	36.4161
1748	36.4074
1744	36.3594
1740	36.3333
1736	36.3762
1732	36.4402
1728	36.4748
1724	36.4917
1720	36.4981
1716	36.51
1712	36.5335
1708	36.5096
1704	36.5097
1700	36.6133
1696	36.698
1692	36.6991
1688	36.6612
1684	36.6138
1680	36.5569
1676	36.4935
1672	36.4843
1668	36.5335
1664	36.5774
1660	36.5971
1656	36.6044
1652	36.5962
1648	36.577
1644	36.5724
1640	36.578
1636	36.6043
1632	36.6354
1628	36.6372
1624	36.6077
1620	36.5529
1616	36.5512
1612	36.6119
1608	36.6365
1604	36.6635
1600	36.694
1596	36.6496
1592	36.6225
1588	36.6186
1584	36.5771
1580	36.5749
1576	36.5906
1572	36.5778
1568	36.5802
1564	36.6086
1560	36.6259
1556	36.5506
1552	36.4595
1548	36.4861
1544	36.5432
1540	36.5374
1536	36.4935
1532	36.4656
1528	36.4816
1524	36.4843
1520	36.4281
1516	36.3646
1512	36.3545
1508	36.4049
1504	36.4856
1500	36.559
1496	36.5997
1492	36.5173
1488	36.3426
1484	36.2722
1480	36.3018
1476	36.3444
1472	36.378
1468	36.3804
1464	36.3487
1460	36.2484
1456	36.1326
1452	36.1602
1448	36.2611
1444	36.2931
1440	36.2865
1436	36.3009
1432	36.2968
1428	36.2543
1424	36.2765
1420	36.319
1416	36.3093
1412	36.2905
1408	36.2389
1404	36.1711
1400	36.1613
1396	36.2122
1392	36.1983
1388	36.0909
1384	36.0582
1380	36.1155
1376	36.1493
1372	36.133
1368	36.1323
1364	36.1715
1360	36.1824
1356	36.1431
1352	36.0727
1348	36.0014
1344	35.934
1340	35.8805
1336	35.8759
1332	35.9216
1328	35.9915
1324	36.0082
1320	35.9469
1316	35.9203
1312	35.9343
1308	35.8759
1304	35.832
1300	35.897
1296	35.9571
1292	35.9149
1288	35.8283
1284	35.8193
1280	35.8465
1276	35.7991
1272	35.7861
1268	35.8553
1264	35.8715
1260	35.8381
1256	35.8184
1252	35.8052
1248	35.7858
1244	35.7699
1240	35.7143
1236	35.6282
1232	35.6109
1228	35.6418
1224	35.6427
1220	35.6182
1216	35.5849
1212	35.5634
1208	35.5327
1204	35.473
1200	35.4661
1196	35.505
1192	35.5144
1188	35.4792
1184	35.4306
1180	35.4215
1176	35.4371
1172	35.4124
1168	35.4033
1164	35.4323
1160	35.3974
1156	35.3312
1152	35.2936
1148	35.2415
1144	35.1632
1140	35.0867
1136	35.0708
1132	35.1453
1128	35.2299
1124	35.2448
1120	35.1995
1116	35.1327
1112	35.0706
1108	34.9914
1104	34.9176
1100	34.9733
1096	35.0637
1092	35.0275
1088	34.9551
1084	34.9388
1080	34.9658
1076	34.9889
1072	34.9379
1068	34.8416
1064	34.8046
1060	34.8075
1056	34.7613
1052	34.6933
1048	34.7335
1044	34.8515
1040	34.8343
1036	34.706
1032	34.7145
1028	34.7872
1024	34.7483
1020	34.7176
1016	34.7021
1012	34.6086
1008	34.5367
1004	34.5723
1000	34.5642
996	 34.4579
992	 34.3381
988	 34.207
984	 34.2021
980	 34.3587
976	 34.4322
972	 34.3143
968	 34.1831
964	 34.2041
960	 34.2565
956	 34.2245
952	 34.1382
948	 34.0394
944	 34.0084
940	 33.9918
936	 33.928
932	 33.8889
928	 33.8594
924	 33.8572
920	 33.9506
916	 33.9839
912	 33.8614
908	 33.7588
904	 33.7759
900	 33.8263
896	 33.8024
892	 33.6415
888	 33.3828
884	 33.2089
880	 33.2232
876	 33.2077
872	 32.9849
868	 32.8883
864	 33.0257
860	 33.13
856	 33.204
852	 33.2181
848	 33.1027
844	 32.9821
840	 32.8781
836	 32.7334
832	 32.5802
828	 32.533
824	 32.6218
820	 32.6267
816	 32.4782
812	 32.3667
808	 32.3233
804	 32.321
800	 32.3494
796	 32.3644
792	 32.3884
788	 32.394
784	 32.3515
780	 32.2266
776	 32.0478
772	 31.9876
768	 31.971
764	 31.8779
760	 31.8079
756	 31.8332
752	 31.8273
748	 31.6465
744	 31.4485
740	 31.4036
736	 31.4284
732	 31.4368
728	 31.368
724	 31.2892
720	 31.2942
716	 31.2265
712	 31.0746
708	 31.0118
704	 30.969
700	 30.748
696	 30.5058
692	 30.5132
688	 30.6769
684	 30.7712
680	 30.721
676	 30.6446
672	 30.6031
668	 30.5972
664	 30.479
660	 30.1147
656	 29.9889
652	 30.1841
648	 30.1456
644	 29.8781
640	 29.7289
636	 29.6533
632	 29.5863
628	 29.6895
624	 29.7404
620	 29.4638
616	 29.0997
612	 28.8922
608	 28.9724
604	 29.2074
600	 29.0318
596	 28.6158
592	 28.4628
588	 28.4817
584	 28.5431
580	 28.9459
576	 29.4908
572	 29.12
568	 28.2619
564	 27.5469
560	 26.8591
556	 26.9083
552	 27.6221
548	 28.0854
544	 27.5118
540	 26.01
536	 24.946
532	 25.0233
528	 25.984
524	 26.7194
520	 26.2895
516	 26.0237
512	 26.8704
508	 27.5864
504	 27.4619
500	 27.1359
496	 27.3033
492	 27.4194
488	 26.8058
484	 26.0554
480	 25.4567
476	 25.3509
472	 25.7355
468	 25.3032
464	 24.3377
460	 24.2138
456	 24.716
452	 25.2131
448	 25.4472
444	 24.9173
440	 23.933
436	 23.6457
432	 24.2081
428	 24.445
424	 24.8301
420	 25.1506
416	 23.4792
412	 21.4012
408	 17.8488
404	 11.3367
400	 6.819748
396	 5.999779
392	 8.337879
388	 12.903
384	 18.9576
380	 28.7857
376	 42.5338
372	 56.1682
370	 58.2957