File: Bakgrunnsmateriale/MATLAB/FTIR/ftir_data/LPE454/Mapping_121/LPE454_t117_cm-1.asc
PE IR       SPECTRUM    SPECTRUM    ASCII       PEDS        1.60
  -1
LP0A58~1.ASC
17/05/20
00:15:12.00
17/05/20
00:15:12.00
tln
$LPE454_t0117$<tbV0>[-2.6,13.0,8.0,0.0,27,1,0]
370
64

2002,4.07
MIRTGS : RIGHTBACK : INTERNAL 2
MIR : ON : INTERNAL 2
OPTKBR

0.200000
8
8.000000
FILLER
RATIO
SPECTRUM
UNLOCKED 256

DOUBLE
64
COMBINED
1
0
0

1.000000
RATIO

1
0
TRUE
51149
0
LEFT NOT FITTED RIGHT NOT FITTED 0
NONE
NONE
15600
12
4.427000
51148
TRUE
1 0 8 72 0 0 0 0

15798

#HDR
-1
-1
#GR
CM-1
%T
2.38419e-05
0.0
5000
-1.000000
4631
8
45.1282
-3.170537
#DATA
5000	0.232458
4996	0.133252
4992	-0.058269
4988	-0.142216
4984	-0.074839
4980	0.156116
4976	0.409531
4972	0.234413
4968	-0.265192
4964	-0.430822
4960	-0.250840
4956	0.075197
4952	0.438356
4948	0.566101
4944	0.456523
4940	0.325822
4936	0.359225
4932	0.530028
4928	0.574946
4924	0.325417
4920	0.105047
4916	0.161910
4912	0.209450
4908	0.096368
4904	-0.039386
4900	-0.058412
4896	0.090789
4892	0.304865
4888	0.324487
4884	0.010752
4880	-0.069642
4876	0.423574
4872	0.689506
4868	0.543260
4864	0.385308
4860	0.217866
4856	0.284266
4852	0.489449
4848	0.416994
4844	0.230860
4840	0.153136
4836	0.172638
4832	0.204515
4828	0.203108
4824	0.125193
4820	0.065016
4816	0.207090
4812	0.298643
4808	0.170969
4804	0.100827
4800	0.130867
4796	0.044918
4792	-0.083589
4788	-0.140643
4784	-0.164723
4780	-0.164532
4776	-0.213336
4772	-0.199246
4768	0.055336
4764	0.288987
4760	0.382995
4756	0.540137
4752	0.606250
4748	0.533533
4744	0.523018
4740	0.552010
4736	0.433421
4732	0.332355
4728	0.353455
4724	0.333547
4720	0.198698
4716	0.194549
4712	0.294327
4708	0.371885
4704	0.584888
4700	0.729036
4696	0.549459
4692	0.440263
4688	0.516128
4684	0.431942
4680	0.352764
4676	0.410199
4672	0.462079
4668	0.437951
4664	0.434303
4660	0.423502
4656	0.375556
4652	0.423216
4648	0.392699
4644	0.108695
4640	-0.142121
4636	-0.242185
4632	-0.396299
4628	-0.745105
4624	-1.114106
4620	-1.150202
4616	-0.565457
4612	-0.317025
4608	-1.105856
4604	-1.654863
4600	-1.745200
4596	-1.689147
4592	-3.081178
4588	1.204824
4584	19.0313
4580	29.3125
4576	18.5513
4572	5.167388
4568	0.644230
4564	-0.312495
4560	-0.176668
4556	-0.271773
4552	-1.195621
4548	-1.675820
4544	-1.212430
4540	-0.803518
4536	-0.477194
4532	-0.038456
4528	0.088572
4524	-0.208187
4520	-0.496315
4516	-0.480461
4512	-0.457835
4508	-0.464010
4504	-0.328540
4500	-0.169420
4496	-0.192570
4492	-0.183939
4488	0.048685
4484	0.094699
4480	0.009417
4476	0.124645
4472	0.295543
4468	0.383162
4464	0.483345
4460	0.663685
4456	0.764751
4452	0.776457
4448	0.670266
4444	0.557804
4440	0.549054
4436	0.530362
4432	0.371623
4428	0.317430
4424	0.566029
4420	0.535440
4416	0.170397
4412	-0.058197
4408	-0.108766
4404	0.035929
4400	0.274729
4396	0.410985
4392	0.377178
4388	0.312685
4384	0.273513
4380	0.191116
4376	0.173377
4372	0.098323
4368	0.022935
4364	0.056004
4360	-0.038313
4356	-0.138854
4352	-0.149035
4348	-0.152540
4344	-0.152826
4340	-0.045251
4336	0.146913
4332	0.220704
4328	0.211501
4324	0.237345
4320	0.186419
4316	0.074434
4312	0.061988
4308	0.155520
4304	0.276184
4300	0.324654
4296	0.152111
4292	-0.165271
4288	-0.160861
4284	0.126600
4280	0.225758
4276	0.217175
4272	0.144886
4268	0.026559
4264	-0.006604
4260	-0.122833
4256	-0.146102
4252	0.165390
4248	0.307869
4244	0.105500
4240	0.026631
4236	0.145483
4232	0.208640
4228	0.246095
4224	0.226902
4220	0.113868
4216	0.164961
4212	0.233316
4208	0.280475
4204	0.380778
4200	0.272417
4196	0.158238
4192	0.203061
4188	0.179266
4184	0.213694
4180	0.333809
4176	0.325822
4172	0.234699
4168	0.259184
4164	0.456404
4160	0.844597
4156	1.119780
4152	0.942492
4148	0.522184
4144	0.219225
4140	0.159430
4136	0.290989
4132	0.394225
4128	0.084567
4124	-0.197672
4120	0.099372
4116	0.407719
4112	0.439739
4108	0.167489
4104	-0.132441
4100	-0.318217
4096	-0.811457
4092	-0.793004
4088	0.232887
4084	0.901508
4080	0.576615
4076	0.240421
4072	0.376892
4068	0.500679
4064	0.418567
4060	0.271368
4056	0.167083
4052	0.257682
4048	0.365447
4044	0.237751
4040	0.020360
4036	-0.082111
4032	-0.036621
4028	0.039839
4024	0.100326
4020	0.143527
4016	0.077748
4012	0.066804
4008	0.207948
4004	0.288867
4000	0.251746
3996	0.149655
3992	0.062656
3988	0.103402
3984	0.227141
3980	0.266575
3976	0.303959
3972	0.388288
3968	0.288081
3964	0.041270
3960	-0.058126
3956	0.049543
3952	0.191879
3948	0.223708
3944	0.136399
3940	0.005936
3936	-0.127172
3932	-0.156974
3928	-0.032782
3924	0.122404
3920	0.160288
3916	0.100660
3912	0.008153
3908	-0.026178
3904	0.011515
3900	-0.030350
3896	-0.083994
3892	-0.062584
3888	-0.013160
3884	0.042343
3880	-0.006246
3876	-0.063443
3872	0.041508
3868	0.146198
3864	0.151872
3860	0.116443
3856	0.090527
3852	0.122070
3848	0.075411
3844	0.017714
3840	0.081992
3836	0.142073
3832	0.221920
3828	0.309848
3824	0.249505
3820	0.160551
3816	0.130629
3812	0.116729
3808	0.157117
3804	0.194883
3800	0.180745
3796	0.150609
3792	0.137877
3788	0.170326
3784	0.168991
3780	0.139498
3776	0.169849
3772	0.164914
3768	0.111913
3764	0.081562
3760	0.064158
3756	0.133657
3752	0.203466
3748	0.167965
3744	0.127959
3740	0.089573
3736	0.052309
3732	0.014948
3728	-0.023913
3724	0.002217
3720	0.069499
3716	0.133013
3712	0.152969
3708	0.099945
3704	0.045514
3700	0.027251
3696	0.048041
3692	0.104618
3688	0.074434
3684	-0.012683
3680	0.052380
3676	0.226378
3672	0.291371
3668	0.207972
3664	0.067353
3660	-0.072336
3656	-0.125885
3652	-0.056052
3648	0.030279
3644	0.065183
3640	0.088453
3636	0.051927
3632	-0.017046
3628	0.035881
3624	0.157904
3620	0.251889
3616	0.228905
3612	0.066018
3608	-0.062012
3604	-0.062894
3600	0.044035
3596	0.160622
3592	0.114846
3588	-0.035881
3584	-0.021433
3580	0.135040
3576	0.191974
3572	0.188803
3568	0.210118
3564	0.191903
3560	0.167608
3556	0.160264
3552	0.100636
3548	0.045680
3544	0.070524
3540	0.112676
3536	0.122690
3532	0.067210
3528	-0.012302
3524	0.001692
3520	0.060987
3516	0.093293
3512	0.119304
3508	0.081849
3504	0.030398
3500	0.089883
3496	0.177192
3492	0.147771
3488	0.004434
3484	-0.087523
3480	-0.048089
3476	-0.013875
3472	-0.030326
3468	0.015926
3464	0.061178
3460	0.053954
3456	0.093650
3452	0.066852
3448	-0.013542
3444	0.035834
3440	0.078630
3436	0.050902
3432	0.080657
3428	0.109124
3424	0.116252
3420	0.186204
3416	0.246357
3412	0.219774
3408	0.184679
3404	0.149655
3400	0.074768
3396	0.046157
3392	0.099515
3388	0.146675
3384	0.137019
3380	0.085496
3376	0.046634
3372	0.036525
3368	0.016617
3364	0.015306
3360	0.014448
3356	0.000023
3352	0.041818
3348	0.091767
3344	0.073623
3340	-0.009179
3336	-0.113654
3332	-0.146436
3328	-0.072360
3324	0.053310
3320	0.084686
3316	-0.002431
3312	0.004601
3308	0.063657
3304	0.031113
3300	0.044775
3296	0.111746
3292	0.068807
3288	-0.021815
3284	-0.004982
3280	0.056457
3276	0.062537
3272	0.058817
3268	0.070071
3264	0.068020
3260	0.064492
3256	0.034642
3252	-0.003075
3248	-0.006103
3244	-0.000166
3240	0.052547
3236	0.143218
3232	0.145697
3228	0.023388
3224	-0.052213
3220	-0.029611
3216	-0.065755
3212	-0.101137
3208	-0.010180
3204	0.062727
3200	0.045680
3196	0.097727
3192	0.207614
3188	0.197672
3184	0.101709
3180	0.051116
3176	0.052881
3172	0.049495
3168	0.041031
3164	0.041794
3160	0.044345
3156	0.054454
3152	0.046730
3148	0.011396
3144	0.001311
3140	0.000190
3136	-0.022673
3132	0.019216
3128	0.131511
3124	0.196576
3120	0.177574
3116	0.107526
3112	0.068831
3108	0.148344
3104	0.201869
3100	0.120019
3096	0.047087
3092	0.042581
3088	0.056719
3084	0.073838
3080	0.102496
3076	0.110030
3072	0.078129
3068	0.083947
3064	0.093770
3060	0.048685
3056	0.039720
3052	0.077414
3048	0.075292
3044	0.064396
3040	0.091910
3036	0.159072
3032	0.223612
3028	0.170373
3024	0.057959
3020	0.005197
3016	-0.003981
3012	0.055241
3008	0.072169
3004	-0.019097
3000	-0.031685
2996	0.023937
2992	0.057864
2988	0.070095
2984	0.017619
2980	-0.052165
2976	-0.063180
2972	-0.018000
2968	0.049114
2964	0.107145
2960	0.157952
2956	0.165200
2952	0.067782
2948	-0.008034
2944	0.056624
2940	0.136232
2936	0.169825
2932	0.130605
2928	-0.026059
2924	-0.123524
2920	-0.062918
2916	0.041413
2912	0.130248
2908	0.173497
2904	0.162720
2900	0.083303
2896	-0.018572
2892	-0.015902
2888	0.036406
2884	0.039005
2880	0.010895
2876	0.001358
2872	0.019550
2868	0.025725
2864	-0.005888
2860	-0.018382
2856	0.021886
2852	0.037169
2848	0.043463
2844	0.056505
2840	0.045037
2836	0.045323
2832	0.039887
2828	0.002956
2824	-0.037217
2820	-0.044536
2816	-0.014162
2812	0.004506
2808	-0.006008
2804	-0.001001
2800	0.041937
2796	0.075864
2792	0.052404
2788	0.010395
2784	0.011515
2780	0.041723
2776	0.030827
2772	0.018405
2768	0.043272
2764	0.054097
2760	0.051093
2756	0.041007
2752	0.012731
2748	-0.005817
2744	0.043654
2740	0.123119
2736	0.144386
2732	0.132441
2728	0.114512
2724	0.080442
2720	0.076532
2716	0.083708
2712	0.040769
2708	-0.002837
2704	-0.027608
2700	-0.072026
2696	-0.084924
2692	-0.030994
2688	0.067424
2684	0.136137
2680	0.104117
2676	0.065183
2672	0.036525
2668	-0.008249
2664	0.011205
2660	0.060915
2656	0.107049
2652	0.160932
2648	0.170683
2644	0.128579
2640	0.077080
2636	0.038123
2632	0.004625
2628	0.014781
2624	0.106787
2620	0.172829
2616	0.123834
2612	0.045561
2608	-0.002598
2604	-0.010800
2600	0.009226
2596	0.024914
2592	0.049376
2588	0.065350
2584	0.070929
2580	0.019788
2576	-0.034952
2572	0.023341
2568	0.104951
2564	0.073242
2560	0.017571
2556	0.029182
2552	0.037312
2548	0.039362
2544	0.051283
2540	0.075149
2536	0.106143
2532	0.044274
2528	-0.052618
2524	-0.052881
2520	0.013041
2516	0.058221
2512	0.011897
2508	-0.022983
2504	0.063848
2500	0.139904
2496	0.099349
2492	0.026106
2488	0.021171
2484	0.049924
2480	0.052571
2476	0.043296
2472	0.065302
2468	0.130271
2464	0.156593
2460	0.140833
2456	0.094985
2452	-0.000214
2448	-0.018286
2444	0.025868
2440	-0.015974
2436	-0.070381
2432	-0.032043
2428	0.021624
2424	0.027108
2420	0.076746
2416	0.200510
2412	0.256562
2408	0.174331
2404	0.061440
2400	0.029754
2396	0.063872
2392	0.076079
2388	0.035095
2384	0.016808
2380	0.081157
2376	0.162959
2372	0.168371
2368	0.148820
2364	0.193762
2360	0.258088
2356	0.276494
2352	0.267982
2348	0.313854
2344	0.401377
2340	0.450634
2336	0.480294
2332	0.495600
2328	0.472998
2324	0.468707
2320	0.516700
2316	0.620746
2312	0.751709
2308	0.819516
2304	0.844073
2300	0.864434
2296	0.886964
2292	0.992774
2288	1.178574
2284	1.313352
2280	1.366162
2276	1.447868
2272	1.581335
2268	1.718425
2264	1.855778
2260	2.011156
2256	2.193427
2252	2.343106
2248	2.454400
2244	2.604293
2240	2.768421
2236	2.917170
2232	3.126549
2228	3.417181
2224	3.720712
2220	3.997731
2216	4.272317
2212	4.547810
2208	4.807376
2204	5.083703
2200	5.403637
2196	5.744695
2192	6.095099
2188	6.434607
2184	6.718301
2180	7.035613
2176	7.448601
2172	7.846498
2168	8.216762
2164	8.602547
2160	8.975553
2156	9.367299
2152	9.799814
2148	10.1697
2144	10.4925
2140	10.9284
2136	11.4383
2132	11.906
2128	12.3475
2124	12.7796
2120	13.2175
2116	13.6514
2112	14.0268
2108	14.3652
2104	14.7402
2100	15.1226
2096	15.4591
2092	15.8379
2088	16.276
2084	16.6903
2080	17.0655
2076	17.4268
2072	17.7979
2068	18.1802
2064	18.5934
2060	18.9948
2056	19.3122
2052	19.6021
2048	19.8956
2044	20.1664
2040	20.4272
2036	20.675
2032	20.9268
2028	21.2327
2024	21.5924
2020	21.9459
2016	22.2419
2012	22.4808
2008	22.6953
2004	22.9033
2000	23.126
1996	23.3944
1992	23.6703
1988	23.9043
1984	24.1255
1980	24.364
1976	24.6243
1972	24.866
1968	25.0324
1964	25.1653
1960	25.3129
1956	25.4577
1952	25.6087
1948	25.7751
1944	25.9253
1940	26.0702
1936	26.2382
1932	26.4188
1928	26.601
1924	26.7688
1920	26.9243
1916	27.0699
1912	27.2016
1908	27.3288
1904	27.4519
1900	27.5671
1896	27.6509
1892	27.6937
1888	27.7279
1884	27.8191
1880	27.9841
1876	28.1373
1872	28.244
1868	28.3356
1864	28.4473
1860	28.6171
1856	28.7817
1852	28.87
1848	28.9302
1844	29.0024
1840	29.075
1836	29.1253
1832	29.1088
1828	29.0958
1824	29.1762
1820	29.2722
1816	29.3377
1812	29.4251
1808	29.5297
1804	29.607
1800	29.7171
1796	29.8995
1792	30.0292
1788	30.0238
1784	29.968
1780	29.9662
1776	30.0028
1772	30.0148
1768	30.0255
1764	30.0449
1760	30.0448
1756	30.103
1752	30.2439
1748	30.3738
1744	30.4765
1740	30.5738
1736	30.6507
1732	30.678
1728	30.6497
1724	30.6123
1720	30.6351
1716	30.6779
1712	30.6288
1708	30.5558
1704	30.5695
1700	30.6409
1696	30.716
1692	30.7771
1688	30.833
1684	30.9173
1680	31.0235
1676	31.093
1672	31.1088
1668	31.1409
1664	31.1868
1660	31.1489
1656	31.0736
1652	31.0274
1648	30.9739
1644	30.9782
1640	31.0875
1636	31.1588
1632	31.1597
1628	31.236
1624	31.3695
1620	31.4527
1616	31.5112
1612	31.5495
1608	31.4895
1604	31.3705
1600	31.2826
1596	31.2368
1592	31.2468
1588	31.2979
1584	31.3284
1580	31.3704
1576	31.4513
1572	31.5091
1568	31.5674
1564	31.6468
1560	31.6755
1556	31.6506
1552	31.6161
1548	31.5603
1544	31.5103
1540	31.4729
1536	31.4389
1532	31.4114
1528	31.3574
1524	31.3411
1520	31.4024
1516	31.4843
1512	31.5451
1508	31.5615
1504	31.5519
1500	31.5359
1496	31.5284
1492	31.5672
1488	31.598
1484	31.5898
1480	31.5672
1476	31.4766
1472	31.3335
1468	31.2529
1464	31.2938
1460	31.4263
1456	31.5267
1452	31.4758
1448	31.4115
1444	31.4898
1440	31.6091
1436	31.6708
1432	31.6955
1428	31.726
1424	31.7032
1420	31.5838
1416	31.4681
1412	31.3818
1408	31.3082
1404	31.2756
1400	31.3368
1396	31.4946
1392	31.6007
1388	31.6462
1384	31.7005
1380	31.7144
1376	31.7101
1372	31.7109
1368	31.6936
1364	31.6365
1360	31.5111
1356	31.4001
1352	31.3565
1348	31.3475
1344	31.3603
1340	31.3413
1336	31.365
1332	31.4968
1328	31.6191
1324	31.7114
1320	31.7805
1316	31.7678
1312	31.6961
1308	31.6363
1304	31.5918
1300	31.5205
1296	31.4269
1292	31.3095
1288	31.1842
1284	31.1472
1280	31.2184
1276	31.2803
1272	31.2971
1268	31.3775
1264	31.4953
1260	31.5558
1256	31.6118
1252	31.6653
1248	31.6313
1244	31.5206
1240	31.4202
1236	31.3314
1232	31.1811
1228	31.046
1224	31.0647
1220	31.1528
1216	31.2007
1212	31.2456
1208	31.2767
1204	31.3043
1200	31.3591
1196	31.3988
1192	31.4201
1188	31.4212
1184	31.3818
1180	31.2903
1176	31.186
1172	31.1434
1168	31.1244
1164	31.0454
1160	30.9527
1156	30.9451
1152	31.0087
1148	31.0828
1144	31.1515
1140	31.1965
1136	31.2232
1132	31.2257
1128	31.204
1124	31.2086
1120	31.1256
1116	30.938
1112	30.8437
1108	30.8224
1104	30.8453
1100	30.8613
1096	30.7876
1092	30.8088
1088	30.8936
1084	30.8964
1080	30.9252
1076	31.0379
1072	31.1807
1068	31.2312
1064	31.1849
1060	31.1106
1056	30.9586
1052	30.7631
1048	30.584
1044	30.4201
1040	30.343
1036	30.4099
1032	30.5034
1028	30.5143
1024	30.5367
1020	30.7199
1016	30.9852
1012	31.0858
1008	31.0066
1004	30.9159
1000	30.9082
996	 30.882
992	 30.7024
988	 30.4826
984	 30.3346
980	 30.2512
976	 30.2476
972	 30.2686
968	 30.261
964	 30.2737
960	 30.3655
956	 30.5018
952	 30.6102
948	 30.6954
944	 30.7115
940	 30.6231
936	 30.4746
932	 30.2862
928	 30.1134
924	 29.9733
920	 29.8495
916	 29.7757
912	 29.7641
908	 29.8297
904	 30.0166
900	 30.2375
896	 30.2914
892	 30.2622
888	 30.3218
884	 30.3421
880	 30.233
876	 30.0666
872	 29.9119
868	 29.7911
864	 29.6872
860	 29.6137
856	 29.5256
852	 29.3886
848	 29.3244
844	 29.471
840	 29.6677
836	 29.6447
832	 29.5474
828	 29.6341
824	 29.7255
820	 29.6227
816	 29.53
812	 29.5064
808	 29.4449
804	 29.2933
800	 29.0626
796	 28.8686
792	 28.7754
788	 28.8015
784	 28.9358
780	 29.135
776	 29.3113
772	 29.3814
768	 29.3671
764	 29.34
760	 29.2589
756	 29.0959
752	 29.023
748	 29.0004
744	 28.7869
740	 28.4842
736	 28.263
732	 28.0922
728	 28.0905
724	 28.3261
720	 28.5438
716	 28.5219
712	 28.4138
708	 28.397
704	 28.3904
700	 28.2777
696	 28.0662
692	 27.9086
688	 27.9479
684	 28.1002
680	 28.0326
676	 27.7401
672	 27.6144
668	 27.6431
664	 27.5964
660	 27.5881
656	 27.6636
652	 27.6927
648	 27.6963
644	 27.8145
640	 28.014
636	 28.0811
632	 27.9225
628	 27.5346
624	 27.0594
620	 26.7265
616	 26.6136
612	 26.7195
608	 26.7284
604	 26.4037
600	 26.2133
596	 26.2161
592	 26.1491
588	 26.2692
584	 26.5516
580	 26.8301
576	 27.0066
572	 27.0056
568	 26.9572
564	 26.8701
560	 26.5984
556	 26.1329
552	 25.6128
548	 25.1902
544	 24.9969
540	 24.9585
536	 24.9497
532	 24.8937
528	 25.0349
524	 25.7256
520	 26.3901
516	 26.1304
512	 25.401
508	 25.2201
504	 26.1527
500	 27.1924
496	 26.334
492	 24.6644
488	 23.8966
484	 23.1091
480	 22
476	 22.0085
472	 23.8085
468	 25.1876
464	 24.3917
460	 23.6603
456	 24.2463
452	 24.7497
448	 24.9929
444	 25.1335
440	 25.4101
436	 24.6254
432	 21.2433
428	 18.9003
424	 19.3609
420	 18.787
416	 17.4817
412	 17.9284
408	 16.1371
404	 12.8694
400	 15.5431
396	 23.879
392	 31.8435
388	 34.7223
384	 39.1989
380	 45.1282
376	 30.5602
372	 13.1879
370	 15.8589