File: Bakgrunnsmateriale/MATLAB/FTIR/ftir_data/LPE454/Mapping_121/LPE454_t121.asc
PE IR       SPECTRUM    SPECTRUM    ASCII       PEDS        1.60
  -1
LP97F3~1.ASC
17/05/20
00:33:39.00
17/05/20
00:34:05.00
tln
$LPE454_t0121$<tbV0>[-13.0,13.0,8.0,0.0,27,1,0]
27.028
64

2002,4.07
MIRTGS : RIGHTBACK : INTERNAL 2
MIR : ON : INTERNAL 2
OPTKBR

0.200000
8
8.000000
FILLER
RATIO
SPECTRUM
UNLOCKED 256

DOUBLE
64
COMBINED
1
0
0

0.002000
RATIO

1
0
TRUE
51149
0
LEFT NOT FITTED RIGHT NOT FITTED 0
NONE
NONE
15600
12
4.427000
51148
TRUE
1 0 8 72 0 0 0 0

15798

#HDR
-1
-1
#GR
µM
%T
2.38419e-05
0.0
2.000000
0.002000
12515
8
45.6232
-3.460279
#DATA
2.000000	 0.707340
2.018000	 -0.015400
2.036000	 0.397998
2.054000	 0.160532
2.072000	 0.058109
2.090000	 0.264495
2.108000	 0.610215
2.126000	 0.493872
2.144000	 -0.016147
2.162000	 -1.690083
2.180000	 4.704093
2.198000	 -3.460279
2.216000	 -0.734593
2.234000	 0.363485
2.252000	 0.414980
2.270000	 0.564941
2.288000	 0.338686
2.306000	 0.337312
2.324000	 0.445272
2.342000	 0.471494
2.360000	 0.161722
2.378000	 0.540823
2.396000	 -0.256728
2.414000	 0.442938
2.432000	 -0.349197
2.450000	 0.722558
2.468000	 0.102376
2.486000	 -0.055030
2.504000	 0.180065
2.522000	 -0.002767
2.540000	 0.220252
2.558000	 -0.056094
2.576000	 -0.073286
2.594000	 -0.038269
2.612000	 0.196955
2.630000	 0.035548
2.648000	 0.046995
2.666000	 0.023059
2.684000	 0.050339
2.702000	 0.244644
2.720000	 0.042336
2.738000	 0.091565
2.756000	 0.058344
2.774000	 0.046479
2.792000	 -0.070299
2.810000	 0.000802
2.828000	 0.024157
2.846000	 0.125748
2.864000	 0.112484
2.882000	 -0.053759
2.900000	 0.081961
2.918000	 0.012631
2.936000	 0.231071
2.954000	 0.097620
2.972000	 0.066043
2.990000	 -0.062913
3.008000	 0.012169
3.026000	 0.027696
3.044000	 0.004343
3.062000	 -0.086395
3.080000	 0.126299
3.098000	 -0.018610
3.116000	 0.005737
3.134000	 0.199851
3.152000	 0.056064
3.170000	 -0.055879
3.188000	 0.055384
3.206000	 0.045931
3.224000	 0.149117
3.242000	 0.187818
3.260000	 0.031892
3.278000	 0.122882
3.296000	 0.010152
3.314000	 0.002461
3.332000	 -0.000023
3.350000	 0.061674
3.368000	 -0.001975
3.386000	 0.052197
3.404000	 -0.009697
3.422000	 0.050045
3.440000	 -0.034020
3.458000	 0.095421
3.476000	 0.039041
3.494000	 0.029759
3.512000	 0.120289
3.530000	 -0.076042
3.548000	 0.066132
3.566000	 0.121553
3.584000	 0.058232
3.602000	 0.079537
3.620000	 0.049972
3.638000	 0.148511
3.656000	 0.090105
3.674000	 0.140325
3.692000	 0.064127
3.710000	 0.015816
3.728000	 -0.027861
3.746000	 0.114681
3.764000	 0.100621
3.782000	 0.024251
3.800000	 0.053006
3.818000	 0.053666
3.836000	 -0.082346
3.854000	 -0.032656
3.872000	 0.084545
3.890000	 0.056598
3.908000	 -0.054874
3.926000	 -0.084606
3.944000	 0.046456
3.962000	 -0.031587
3.980000	 0.030882
3.998000	 -0.007698
4.016000	 0.115115
4.034000	 0.059607
4.052000	 0.053202
4.070000	 0.018818
4.088000	 0.075319
4.106000	 0.152420
4.124000	 0.095407
4.141999	 0.094465
4.160000	 0.077355
4.178000	 0.060265
4.196000	 0.115344
4.214000	 0.071943
4.232000	 0.053146
4.250000	 0.160077
4.268000	 0.214348
4.286000	 0.350235
4.304000	 0.340526
4.322000	 0.421025
4.340000	 0.565778
4.358000	 0.695139
4.375999	 0.960426
4.394000	 1.135181
4.412000	 1.260641
4.430000	 1.553356
4.448000	 1.948399
4.466000	 2.261621
4.484000	 2.772442
4.502000	 3.143538
4.520000	 3.643478
4.538000	 4.332822
4.556000	 4.858758
4.574000	 5.466334
4.592000	 6.065864
4.609999	 6.802976
4.628000	 7.534531
4.646000	 8.433643
4.664000	 9.170941
4.682000	 9.979477
4.700000	 10.7204
4.718000	 11.5469
4.736000	 12.396
4.754000	 13.0909
4.772000	 13.9349
4.790000	 14.551
4.808000	 15.3001
4.826000	 16.0941
4.843999	 16.751
4.862000	 17.4925
4.880000	 18.0969
4.898000	 18.6546
4.916000	 19.2757
4.934000	 19.7179
4.952000	 20.1524
4.970000	 20.635
4.988000	 21.1747
5.006000	 21.5764
5.024000	 22.0463
5.042000	 22.4926
5.060000	 22.8142
5.077999	 23.1342
5.096000	 23.4299
5.114000	 23.7379
5.132000	 24.0734
5.150000	 24.3624
5.168000	 24.5949
5.186000	 24.8583
5.204000	 25.0187
5.222000	 25.1523
5.240000	 25.3128
5.258000	 25.4248
5.276000	 25.6247
5.294000	 25.8312
5.312000	 25.9921
5.330000	 26.0982
5.348000	 26.188
5.366000	 26.3025
5.384000	 26.5118
5.402000	 26.6443
5.420000	 26.6785
5.438000	 26.796
5.456000	 26.8196
5.474000	 26.9069
5.492000	 27.0642
5.510000	 27.1234
5.528000	 27.1303
5.546000	 27.1425
5.564000	 27.1522
5.582000	 27.2721
5.600000	 27.2537
5.618000	 27.2406
5.636000	 27.3464
5.654000	 27.4552
5.672000	 27.5365
5.690000	 27.5869
5.708000	 27.5936
5.726000	 27.5319
5.744000	 27.4612
5.762000	 27.5313
5.780000	 27.6606
5.798000	 27.6984
5.816000	 27.6681
5.834000	 27.7469
5.852000	 27.8006
5.870000	 27.839
5.888000	 27.8925
5.906000	 27.8504
5.923999	 27.8244
5.942000	 27.8447
5.960000	 27.8284
5.978000	 27.8077
5.996000	 27.7695
6.014000	 27.8079
6.032000	 27.869
6.050000	 27.9336
6.068000	 28.0228
6.086000	 28.0326
6.104000	 27.9875
6.122000	 27.9913
6.140000	 27.9296
6.158000	 27.8214
6.176000	 27.7966
6.194000	 27.8229
6.212000	 27.8698
6.230000	 27.8973
6.248000	 27.9347
6.266000	 28.0786
6.284000	 28.1715
6.302000	 28.1177
6.320000	 28.0629
6.338000	 28.0919
6.356000	 28.174
6.374000	 28.1392
6.392000	 28.0189
6.410000	 27.9136
6.428000	 27.8028
6.446000	 27.7843
6.464000	 27.9405
6.482000	 28.0746
6.500000	 28.0603
6.518000	 28.077
6.536000	 28.1584
6.554000	 28.2139
6.572000	 28.2213
6.590000	 28.1692
6.608000	 28.1016
6.626000	 28.1117
6.644000	 28.0947
6.662000	 27.9994
6.680000	 27.9659
6.698000	 28.0002
6.716000	 28.0654
6.734000	 28.1354
6.752000	 28.161
6.770000	 28.1908
6.788000	 28.2244
6.806000	 28.1927
6.824000	 28.1374
6.842000	 28.1162
6.860000	 28.0852
6.878000	 28.0388
6.896000	 28.0375
6.914000	 28.0512
6.932000	 28.0044
6.950000	 27.8892
6.968000	 27.7848
6.986000	 27.802
7.004000	 27.9632
7.022000	 28.1325
7.040000	 28.162
7.058000	 28.152
7.076000	 28.2316
7.094000	 28.2842
7.112000	 28.2337
7.130000	 28.1791
7.148000	 28.1625
7.166000	 28.1543
7.184000	 28.1451
7.202000	 28.1098
7.220000	 28.0245
7.238000	 27.9368
7.256000	 27.9232
7.274000	 27.9733
7.292000	 28.0127
7.310000	 28.0277
7.328000	 28.0613
7.346000	 28.1266
7.364000	 28.1935
7.382000	 28.231
7.400000	 28.2487
7.418000	 28.2807
7.436000	 28.3159
7.454000	 28.314
7.472000	 28.2658
7.490000	 28.1938
7.508000	 28.1436
7.526000	 28.1417
7.544000	 28.1414
7.562000	 28.1086
7.580000	 28.0909
7.598000	 28.1137
7.616000	 28.132
7.634000	 28.1182
7.652000	 28.1084
7.670000	 28.1535
7.688000	 28.2434
7.706000	 28.3018
7.724000	 28.2921
7.742000	 28.2692
7.760000	 28.2894
7.778000	 28.3356
7.796000	 28.3552
7.814000	 28.319
7.832000	 28.2389
7.850000	 28.1533
7.868000	 28.0924
7.886000	 28.0617
7.904000	 28.0485
7.922000	 28.0363
7.940000	 28.0219
7.958000	 28.0207
7.976000	 28.0415
7.994000	 28.0789
8.012000	 28.1331
8.030000	 28.2042
8.048000	 28.2688
8.065999	 28.2977
8.084000	 28.2957
8.102000	 28.2995
8.120000	 28.3365
8.138000	 28.3921
8.155999	 28.4144
8.173999	 28.3583
8.192000	 28.2339
8.210000	 28.1014
8.228000	 28.0205
8.246000	 28.011
8.263999	 28.0487
8.282000	 28.0807
8.300000	 28.0637
8.318000	 28.0026
8.336000	 27.9445
8.353999	 27.926
8.372000	 27.9429
8.390000	 27.9746
8.408000	 28.0162
8.426000	 28.0747
8.443999	 28.146
8.462000	 28.2128
8.480000	 28.2593
8.498000	 28.2784
8.516000	 28.2745
8.533999	 28.2609
8.552000	 28.2499
8.570000	 28.2404
8.588000	 28.2213
8.606000	 28.1902
8.624000	 28.1536
8.641999	 28.111
8.660000	 28.0539
8.678000	 27.9827
8.696000	 27.91
8.714000	 27.8481
8.731999	 27.8053
8.750000	 27.7897
8.768000	 27.8044
8.786000	 27.8334
8.804000	 27.8497
8.821999	 27.8435
8.840000	 27.8337
8.858000	 27.8409
8.876000	 27.8596
8.894000	 27.8681
8.911999	 27.8635
8.930000	 27.871
8.948000	 27.913
8.966000	 27.9825
8.984000	 28.0523
9.001999	 28.1018
9.020000	 28.1212
9.038000	 28.1026
9.056000	 28.0428
9.074000	 27.9578
9.092000	 27.8795
9.109999	 27.8315
9.128000	 27.8086
9.146000	 27.7854
9.164000	 27.7419
9.182000	 27.678
9.199999	 27.6064
9.218000	 27.5388
9.236000	 27.484
9.254000	 27.4509
9.272000	 27.4505
9.289999	 27.4868
9.308000	 27.5481
9.326000	 27.608
9.344000	 27.6386
9.362000	 27.6298
9.379999	 27.5988
9.398000	 27.5823
9.416000	 27.6127
9.434000	 27.6934
9.452000	 27.7936
9.469999	 27.8641
9.488000	 27.8665
9.506000	 27.7988
9.524000	 27.697
9.542000	 27.6096
9.560000	 27.5662
9.577999	 27.5657
9.596000	 27.5872
9.614000	 27.6062
9.632000	 27.6033
9.650000	 27.5674
9.667999	 27.499
9.686000	 27.411
9.704000	 27.3246
9.722000	 27.2594
9.740000	 27.222
9.757999	 27.2028
9.776000	 27.182
9.794000	 27.1419
9.812000	 27.0783
9.830000	 27.0024
9.847999	 26.9366
9.866000	 26.9033
9.884000	 26.9161
9.902000	 26.9741
9.920000	 27.0627
9.937999	 27.1599
9.956000	 27.247
9.974000	 27.3122
9.992000	 27.3515
10.01	27.3672
10.028	27.3652
10.046	27.3543
10.064	27.3421
10.082	27.3326
10.1	27.329
10.118	27.3352
10.136	27.3554
10.154	27.3893
10.172	27.4247
10.19	27.4364
10.208	27.4
10.226	27.3089
10.244	27.1824
10.262	27.059
10.28	26.9725
10.298	26.9355
10.316	26.9336
10.334	26.9367
10.352	26.918
10.37	26.866
10.388	26.7895
10.406	26.7087
10.424	26.6452
10.442	26.6124
10.46	26.6126
10.478	26.6384
10.496	26.6777
10.514	26.7201
10.532	26.7589
10.55	26.7924
10.568	26.8204
10.586	26.8415
10.604	26.8522
10.622	26.849
10.64	26.8305
10.658	26.7999
10.676	26.7651
10.694	26.7348
10.712	26.7162
10.73	26.7115
10.748	26.719
10.766	26.7343
10.784	26.7526
10.802	26.7681
10.82	26.7736
10.838	26.7603
10.856	26.7229
10.874	26.6609
10.892	26.5806
10.91	26.4927
10.928	26.4073
10.946	26.3325
10.964	26.2737
10.982	26.2351
11	26.2212
11.018	26.2343
11.036	26.27
11.054	26.3137
11.072	26.3449
11.09	26.3441
11.108	26.3039
11.126	26.2326
11.144	26.1498
11.162	26.0789
11.18	26.0347
11.198	26.0194
11.216	26.0231
11.234	26.0311
11.252	26.0312
11.27	26.02
11.288	26.0024
11.306	25.9877
11.324	25.9852
11.342	25.9986
11.36	26.0251
11.378	26.055
11.396	26.0765
11.414	26.0792
11.432	26.059
11.45	26.0197
11.468	25.9715
11.486	25.9268
11.504	25.8951
11.522	25.8815
11.54	25.8858
11.558	25.9044
11.576	25.9325
11.594	25.9663
11.612	26.0025
11.63	26.0375
11.648	26.0662
11.666	26.0818
11.684	26.0772
11.702	26.0475
11.72	25.9922
11.738	25.9162
11.756	25.8286
11.774	25.7399
11.792	25.6584
11.81	25.588
11.828	25.5278
11.846	25.4732
11.864	25.4186
11.882	25.3612
11.9	25.3012
11.918	25.2431
11.936	25.1936
11.954	25.1594
11.972	25.1451
11.99	25.1511
12.008	25.1725
12.026	25.2
12.044	25.2216
12.062	25.2253
12.08	25.2036
12.098	25.1556
12.116	25.089
12.134	25.0192
12.152	24.9649
12.17	24.9426
12.188	24.9618
12.206	25.0211
12.224	25.1083
12.242	25.2042
12.26	25.2888
12.278	25.3455
12.296	25.3658
12.314	25.3507
12.332	25.3089
12.35	25.2533
12.368	25.1973
12.386	25.151
12.404	25.1188
12.422	25.1
12.44	25.0904
12.458	25.0855
12.476	25.0835
12.494	25.0855
12.512	25.0941
12.53	25.1114
12.548	25.1362
12.566	25.1627
12.584	25.1817
12.602	25.183
12.62	25.1584
12.638	25.105
12.656	25.0254
12.674	24.9277
12.692	24.823
12.71	24.7223
12.728	24.6341
12.746	24.5626
12.764	24.5075
12.782	24.4651
12.8	24.4299
12.818	24.3965
12.836	24.3611
12.854	24.3228
12.872	24.2825
12.89	24.2438
12.908	24.2102
12.926	24.1854
12.944	24.1716
12.962	24.1695
12.98	24.1777
12.998	24.1933
13.016	24.2129
13.034	24.2335
13.052	24.2533
13.07	24.2722
13.088	24.2921
13.106	24.3158
13.124	24.3462
13.142	24.3844
13.16	24.4295
13.178	24.4776
13.196	24.5223
13.214	24.5566
13.232	24.5743
13.25	24.5722
13.268	24.551
13.286	24.516
13.304	24.4751
13.322	24.4377
13.34	24.4124
13.358	24.4048
13.376	24.4164
13.394	24.4442
13.412	24.4815
13.43	24.5199
13.448	24.5507
13.466	24.5673
13.484	24.5657
13.502	24.5451
13.52	24.5077
13.538	24.4572
13.556	24.3978
13.574	24.3334
13.592	24.2664
13.61	24.1979
13.628	24.128
13.646	24.0561
13.664	23.9819
13.682	23.9059
13.7	23.8302
13.718	23.7578
13.736	23.6927
13.754	23.6387
13.772	23.5986
13.79	23.5738
13.808	23.5632
13.826	23.5637
13.844	23.5703
13.862	23.5769
13.88	23.5779
13.898	23.5686
13.916	23.5464
13.934	23.5108
13.952	23.4636
13.97	23.4085
13.988	23.3502
14.006	23.294
14.024	23.2446
14.042	23.2053
14.06	23.178
14.078	23.1632
14.096	23.1604
14.114	23.1683
14.132	23.1854
14.15	23.2098
14.168	23.2397
14.186	23.2732
14.204	23.3081
14.222	23.3422
14.24	23.3727
14.258	23.3969
14.276	23.4121
14.294	23.4166
14.312	23.4092
14.33	23.3904
14.348	23.362
14.366	23.3275
14.384	23.2918
14.402	23.2601
14.42	23.2374
14.438	23.2278
14.456	23.2336
14.474	23.2554
14.492	23.2915
14.51	23.3381
14.528	23.3894
14.546	23.4394
14.564	23.4824
14.582	23.5136
14.6	23.53
14.618	23.53
14.636	23.5149
14.654	23.4872
14.672	23.4508
14.69	23.4098
14.708	23.368
14.726	23.3288
14.744	23.2937
14.762	23.263
14.78	23.2358
14.798	23.2104
14.816	23.1846
14.834	23.1561
14.852	23.1233
14.87	23.0859
14.888	23.0445
14.906	23.0005
14.924	22.956
14.942	22.9136
14.96	22.8751
14.978	22.8412
14.996	22.8116
15.014	22.7851
15.032	22.7591
15.05	22.7306
15.068	22.697
15.086	22.6565
15.104	22.6079
15.122	22.5517
15.14	22.4898
15.158	22.4252
15.176	22.3609
15.194	22.3004
15.212	22.2469
15.23	22.2025
15.248	22.1686
15.266	22.146
15.284	22.1343
15.302	22.1327
15.32	22.1399
15.338	22.1548
15.356	22.1763
15.374	22.2033
15.392	22.2351
15.41	22.271
15.428	22.3099
15.446	22.3505
15.464	22.3911
15.482	22.43
15.5	22.4653
15.518	22.4949
15.536	22.5171
15.554	22.5308
15.572	22.5354
15.59	22.5308
15.608	22.5179
15.626	22.4978
15.644	22.4722
15.662	22.4432
15.68	22.4124
15.698	22.3813
15.716	22.3513
15.734	22.3232
15.752	22.297
15.77	22.2731
15.788	22.2505
15.806	22.2281
15.824	22.2049
15.842	22.1796
15.86	22.151
15.878	22.1186
15.896	22.0824
15.914	22.0428
15.932	22.0013
15.95	21.9594
15.968	21.9192
15.986	21.8835
16.004	21.8541
16.022	21.8329
16.04	21.8215
16.058	21.82
16.076	21.8279
16.094	21.844
16.112	21.8654
16.13	21.8895
16.148	21.9128
16.166	21.931
16.184	21.9413
16.202	21.9407
16.22	21.9267
16.238	21.8984
16.256	21.8555
16.274	21.799
16.292	21.7311
16.31	21.6538
16.328	21.5712
16.346	21.4867
16.364	21.4033
16.382	21.3254
16.4	21.2555
16.418	21.1955
16.436	21.1478
16.454	21.1128
16.472	21.0909
16.49	21.0814
16.508	21.0824
16.526	21.0927
16.544	21.1092
16.562	21.1295
16.58	21.1515
16.598	21.1714
16.616	21.1874
16.634	21.1975
16.652	21.1995
16.67	21.1929
16.688	21.1769
16.706	21.1521
16.724	21.1194
16.742	21.0798
16.76	21.0361
16.778	20.9899
16.796	20.9439
16.814	20.9005
16.832	20.8612
16.85	20.8282
16.868	20.8021
16.886	20.7839
16.904	20.7734
16.922	20.77
16.94	20.7728
16.958	20.7802
16.976	20.7911
16.994	20.8035
17.012	20.8162
17.03	20.8283
17.048	20.8388
17.066	20.8477
17.084	20.8549
17.102	20.8609
17.12	20.866
17.138	20.8716
17.156	20.8783
17.174	20.887
17.192	20.8987
17.21	20.9136
17.228	20.932
17.246	20.9536
17.264	20.9783
17.282	21.0047
17.3	21.0324
17.318	21.0598
17.336	21.0859
17.354	21.1096
17.372	21.1295
17.39	21.145
17.408	21.155
17.426	21.1592
17.444	21.1572
17.462	21.1489
17.48	21.1345
17.498	21.1148
17.516	21.0907
17.534	21.063
17.552	21.0335
17.57	21.0027
17.588	20.9728
17.606	20.9445
17.624	20.9192
17.642	20.8979
17.66	20.8813
17.678	20.8702
17.696	20.8646
17.714	20.8647
17.732	20.8701
17.75	20.8804
17.768	20.8944
17.786	20.9115
17.804	20.93
17.822	20.949
17.84	20.9665
17.858	20.9812
17.876	20.9917
17.894	20.9961
17.912	20.9937
17.93	20.9829
17.948	20.9635
17.966	20.9347
17.984	20.8968
18.002	20.8499
18.02	20.795
18.038	20.733
18.056	20.666
18.074	20.5948
18.092	20.5223
18.11	20.4492
18.128	20.3782
18.146	20.3097
18.164	20.2456
18.182	20.1859
18.2	20.1315
18.218	20.0816
18.236	20.0362
18.254	19.9937
18.272	19.9538
18.29	19.9138
18.308	19.8736
18.326	19.8308
18.344	19.7855
18.362	19.7364
18.38	19.6841
18.398	19.6288
18.416	19.5717
18.434	19.5139
18.452	19.4573
18.47	19.4035
18.488	19.3545
18.506	19.3116
18.524	19.2763
18.542	19.2494
18.56	19.2309
18.578	19.2211
18.596	19.2184
18.614	19.2228
18.632	19.2311
18.65	19.2431
18.668	19.2553
18.686	19.2675
18.704	19.2762
18.722	19.2816
18.74	19.2819
18.758	19.2774
18.776	19.2679
18.794	19.2543
18.812	19.2382
18.83	19.2209
18.848	19.2048
18.866	19.1914
18.884	19.1837
18.902	19.1828
18.92	19.1915
18.938	19.2101
18.956	19.2407
18.974	19.2826
18.992	19.3363
19.01	19.4002
19.028	19.4733
19.046	19.5533
19.064	19.6377
19.082	19.724
19.1	19.8084
19.118	19.8892
19.136	19.9617
19.154	20.0252
19.172	20.0754
19.19	20.1123
19.208	20.133
19.226	20.1381
19.244	20.1269
19.262	20.1
19.28	20.0595
19.298	20.0057
19.316	19.943
19.334	19.8715
19.352	19.7969
19.37	19.7191
19.388	19.6443
19.406	19.5722
19.424	19.5078
19.442	19.4512
19.46	19.4051
19.478	19.3703
19.496	19.3466
19.514	19.3346
19.532	19.3327
19.55	19.3407
19.568	19.3562
19.586	19.377
19.604	19.4018
19.622	19.4266
19.64	19.4512
19.658	19.4709
19.676	19.486
19.694	19.4927
19.712	19.4911
19.73	19.4797
19.748	19.4582
19.766	19.4275
19.784	19.387
19.802	19.3391
19.82	19.2845
19.838	19.2249
19.856	19.1628
19.874	19.0987
19.892	19.0365
19.91	18.9758
19.928	18.9203
19.946	18.8696
19.964	18.8256
19.982	18.7887
20	18.7586
20.018	18.7357
20.036	18.7189
20.054	18.7073
20.072	18.7006
20.09	18.6959
20.108	18.6938
20.126	18.6909
20.144	18.6873
20.162	18.6807
20.18	18.6701
20.198	18.6548
20.216	18.6328
20.234	18.6045
20.252	18.5686
20.27	18.5253
20.288	18.4744
20.306	18.4157
20.324	18.3502
20.342	18.2781
20.36	18.2002
20.378	18.1181
20.396	18.0316
20.414	17.9437
20.432	17.8541
20.45	17.7653
20.468	17.6784
20.486	17.594
20.504	17.5149
20.522	17.4405
20.54	17.3734
20.558	17.3134
20.576	17.2614
20.594	17.2182
20.612	17.1833
20.63	17.1573
20.648	17.14
20.666	17.1299
20.684	17.1276
20.702	17.1308
20.72	17.1384
20.738	17.15
20.756	17.162
20.774	17.1754
20.792	17.1865
20.81	17.1952
20.828	17.2
20.846	17.1988
20.864	17.1922
20.882	17.178
20.9	17.1564
20.918	17.1272
20.936	17.0899
20.954	17.045
20.972	16.9933
20.99	16.9345
21.008	16.8704
21.026	16.8013
21.044	16.7278
21.062	16.652
21.08	16.5734
21.098	16.4939
21.116	16.4141
21.134	16.3343
21.152	16.2562
21.17	16.1792
21.188	16.105
21.206	16.0337
21.224	15.9659
21.242	15.9026
21.26	15.8436
21.278	15.7905
21.296	15.7436
21.314	15.7034
21.332	15.6715
21.35	15.6475
21.368	15.6325
21.386	15.627
21.404	15.6308
21.422	15.6442
21.44	15.6674
21.458	15.6995
21.476	15.7405
21.494	15.7899
21.512	15.8456
21.53	15.9087
21.548	15.976
21.566	16.0457
21.584	16.1182
21.602	16.1891
21.62	16.259
21.638	16.3256
21.656	16.3852
21.674	16.4391
21.692	16.4845
21.71	16.5203
21.728	16.5469
21.746	16.5631
21.764	16.5686
21.782	16.565
21.8	16.5527
21.818	16.5316
21.836	16.5056
21.854	16.4738
21.872	16.4385
21.89	16.4043
21.908	16.3692
21.926	16.3375
21.944	16.3119
21.962	16.2912
21.98	16.2796
21.998	16.2772
22.016	16.2845
22.034	16.3036
22.052	16.3345
22.07	16.3763
22.088	16.4292
22.106	16.4932
22.124	16.565
22.142	16.6449
22.16	16.7316
22.178	16.82
22.196	16.9118
22.214	17.0036
22.232	17.0914
22.25	17.1774
22.268	17.2565
22.286	17.3261
22.304	17.3876
22.322	17.4365
22.34	17.4718
22.358	17.494
22.376	17.5008
22.394	17.4919
22.412	17.4683
22.43	17.4303
22.448	17.3769
22.466	17.3114
22.484	17.2358
22.502	17.1486
22.52	17.0558
22.538	16.9591
22.556	16.8576
22.574	16.76
22.592	16.666
22.61	16.5768
22.628	16.5007
22.646	16.4359
22.664	16.385
22.682	16.3547
22.7	16.3431
22.718	16.352
22.736	16.3844
22.754	16.4397
22.772	16.5169
22.79	16.6166
22.808	16.7394
22.826	16.8802
22.844	17.0368
22.862	17.2112
22.88	17.3946
22.898	17.5841
22.916	17.782
22.934	17.9767
22.952	18.1661
22.97	18.3517
22.988	18.5215
23.006	18.6737
23.024	18.8095
23.042	18.9199
23.06	19.0035
23.078	19.0617
23.096	19.09
23.114	19.0866
23.132	19.054
23.15	18.994
23.168	18.9044
23.186	18.7884
23.204	18.6526
23.222	18.494
23.24	18.3166
23.258	18.1321
23.276	17.9374
23.294	17.736
23.312	17.541
23.33	17.3495
23.348	17.1644
23.366	16.9986
23.384	16.8508
23.402	16.7217
23.42	16.6213
23.438	16.5501
23.456	16.5068
23.474	16.4973
23.492	16.523
23.51	16.5821
23.528	16.6744
23.546	16.8014
23.564	16.9617
23.582	17.1513
23.6	17.3696
23.618	17.6174
23.636	17.888
23.654	18.1789
23.672	18.4929
23.69	18.8215
23.708	19.1594
23.726	19.5115
23.744	19.8692
23.762	20.2254
23.78	20.5852
23.798	20.9422
23.816	21.2886
23.834	21.6285
23.852	21.9583
23.87	22.2713
23.888	22.5695
23.906	22.8518
23.924	23.1133
23.942	23.354
23.96	23.5745
23.978	23.7719
23.996	23.9449
24.014	24.0948
24.032	24.2213
24.05	24.3239
24.068	24.4027
24.086	24.4589
24.104	24.4936
24.122	24.5055
24.14	24.4966
24.158	24.4698
24.176	24.4237
24.194	24.3595
24.212	24.28
24.23	24.1852
24.248	24.0746
24.266	23.9519
24.284	23.819
24.302	23.6741
24.32	23.5195
24.338	23.3572
24.356	23.1857
24.374	23.0066
24.392	22.8225
24.41	22.633
24.428	22.4382
24.446	22.2393
24.464	22.0374
24.482	21.8318
24.5	21.6222
24.518	21.4085
24.536	21.1908
24.554	20.969
24.572	20.743
24.59	20.5125
24.608	20.2779
24.626	20.0402
24.644	19.799
24.662	19.5538
24.68	19.3077
24.698	19.0634
24.716	18.818
24.734	18.5747
24.752	18.3387
24.77	18.1088
24.788	17.8844
24.806	17.6732
24.824	17.4805
24.842	17.3011
24.86	17.1398
24.878	17.0028
24.896	16.887
24.914	16.7936
24.932	16.7296
24.95	16.6983
24.968	16.6952
24.986	16.7256
25.004	16.7949
25.022	16.9009
25.04	17.0438
25.058	17.2269
25.076	17.4526
25.094	17.7194
25.112	18.0251
25.13	18.3681
25.148	18.7507
25.166	19.1703
25.184	19.6222
25.202	20.105
25.22	20.6219
25.238	21.1662
25.256	21.731
25.274	22.3216
25.292	22.9347
25.31	23.5603
25.328	24.1936
25.346	24.8423
25.364	25.4964
25.382	26.1449
25.4	26.7919
25.418	27.4376
25.436	28.0701
25.454	28.6809
25.472	29.2791
25.49	29.8574
25.508	30.4054
25.526	30.9202
25.544	31.4071
25.562	31.8619
25.58	32.2802
25.598	32.6623
25.616	33.0104
25.634	33.3254
25.652	33.6066
25.67	33.8506
25.688	34.0658
25.706	34.2618
25.724	34.4368
25.742	34.5878
25.76	34.7268
25.778	34.8646
25.796	34.9952
25.814	35.12
25.832	35.246
25.85	35.3791
25.868	35.5162
25.886	35.6556
25.904	35.796
25.922	35.9411
25.94	36.0918
25.958	36.2365
25.976	36.3638
25.994	36.4828
26.012	36.591
26.03	36.6702
26.048	36.7051
26.066	36.7098
26.084	36.6772
26.102	36.5918
26.12	36.4434
26.138	36.2438
26.156	35.9864
26.174	35.662
26.192	35.265
26.21	34.8002
26.228	34.2713
26.246	33.6815
26.264	33.0248
26.282	32.3022
26.3	31.5292
26.318	30.7211
26.336	29.8677
26.354	28.9708
26.372	28.0488
26.39	27.1181
26.408	26.1588
26.426	25.1821
26.444	24.216
26.462	23.2829
26.48	22.3596
26.498	21.4576
26.516	20.6005
26.534	19.8038
26.552	19.0417
26.57	18.3345
26.588	17.7112
26.606	17.188
26.624	16.7363
26.642	16.3789
26.66	16.1456
26.678	16.0513
26.696	16.069
26.714	16.2191
26.732	16.5268
26.75	17.0032
26.768	17.6259
26.786	18.4117
26.804	19.3809
26.822	20.5467
26.84	21.8971
26.858	23.4272
26.876	25.133
26.894	27.0193
26.912	29.0968
26.93	31.3381
26.948	33.7133
26.966	36.3502
26.984	39.4828
27.002	42.5606
27.02	44.9838
27.028	45.6232