File: Bakgrunnsmateriale/MATLAB/FTIR/ftir_data/LPE454/Mapping_121/LPE454_t12_cm-1.asc
PE IR       SPECTRUM    SPECTRUM    ASCII       PEDS        1.60
  -1
LPD7B0~1.ASC
17/05/19
15:20:41.00
17/05/19
15:20:41.00
tln
$LPE454_t0012$<tbV0>[13.0,-10.4,8.0,0.0,27,1,0]
370
64

2002,4.07
MIRTGS : RIGHTBACK : INTERNAL 2
MIR : ON : INTERNAL 2
OPTKBR

0.200000
8
8.000000
FILLER
RATIO
SPECTRUM
UNLOCKED 256

DOUBLE
64
COMBINED
1
0
0

1.000000
RATIO

1
0
TRUE
51149
0
LEFT NOT FITTED RIGHT NOT FITTED 0
NONE
NONE
15600
12
4.427000
51148
TRUE
1 0 8 72 0 0 0 0

15798

#HDR
-1
-1
#GR
CM-1
%T
2.38419e-05
0.0
5000
-1.000000
4631
8
106.388
-6.268930
#DATA
5000	-0.274085
4996	0.128865
4992	0.360226
4988	0.353574
4984	0.312781
4980	0.011944
4976	-0.226426
4972	0.120568
4968	0.692629
4964	0.686216
4960	0.103306
4956	-0.057244
4952	0.224804
4948	0.422048
4944	0.630474
4940	0.636959
4936	0.257301
4932	-0.035214
4928	-0.030922
4924	0.059223
4920	0.195693
4916	0.095605
4912	-0.014328
4908	0.265765
4904	0.485920
4900	0.463438
4896	0.356888
4892	0.152349
4888	0.031566
4884	-0.047445
4880	-0.095391
4876	0.079369
4872	0.211477
4868	0.107598
4864	-0.036978
4860	0.081920
4856	0.338816
4852	0.376725
4848	0.304150
4844	0.362586
4840	0.436305
4836	0.374078
4832	0.141167
4828	-0.272417
4824	-0.219082
4820	0.472164
4816	0.672101
4812	0.375103
4808	0.270104
4804	-0.018095
4800	0.033211
4796	0.899553
4792	1.081824
4788	0.713300
4784	0.669312
4780	0.138998
4776	-0.265622
4772	0.488090
4768	1.496410
4764	1.482319
4760	0.878453
4756	0.664544
4752	0.953555
4748	1.010513
4744	0.152778
4740	-0.458145
4736	-0.266432
4732	-0.256514
4728	-0.256991
4724	0.142383
4720	0.720095
4716	1.151561
4712	0.936675
4708	0.302433
4704	0.117874
4700	0.213479
4696	0.138354
4692	0.012159
4688	0.072169
4684	0.250935
4680	0.310993
4676	0.214672
4672	0.023102
4668	-0.024604
4664	0.151586
4660	0.474357
4656	0.683712
4652	0.648975
4648	0.589466
4644	0.436830
4640	0.392413
4636	0.540256
4632	0.454664
4628	0.319600
4624	0.217890
4620	0.118041
4616	0.304150
4612	0.558066
4608	0.581288
4604	0.525569
4600	0.570559
4596	0.646281
4592	0.687265
4588	0.585341
4584	0.282740
4580	0.089693
4576	0.079631
4572	0.145387
4568	0.116491
4564	0.099110
4560	0.203013
4556	0.302648
4552	0.402092
4548	0.442004
4544	0.320124
4540	0.141596
4536	0.152850
4532	0.142168
4528	0.204396
4524	0.572609
4520	1.072096
4516	0.946187
4512	0.672721
4508	0.486445
4504	-0.010466
4500	-0.685787
4496	-0.756382
4492	0.211286
4488	1.192474
4484	-2.496552
4480	-5.932164
4476	7.210350
4472	17.3265
4468	5.674743
4464	-3.485822
4460	-2.145814
4456	-0.620651
4452	-0.259542
4448	-0.417828
4444	-0.062513
4440	0.246095
4436	-0.031566
4432	-0.188422
4428	-0.052118
4424	0.052499
4420	-0.019359
4416	-0.102829
4412	0.007128
4408	0.250458
4404	0.302696
4400	0.345873
4396	0.409626
4392	0.234031
4388	0.098085
4384	0.243330
4380	0.365424
4376	0.265169
4372	0.058460
4368	-0.061416
4364	0.009775
4360	0.132727
4356	0.196695
4352	0.140523
4348	0.077819
4344	0.168108
4340	0.221395
4336	0.131487
4332	0.024700
4328	-0.085234
4324	-0.065708
4320	0.166130
4316	0.240612
4312	0.175070
4308	0.237488
4304	0.265693
4300	0.192379
4296	0.209498
4292	0.334882
4288	0.357079
4284	0.230526
4280	0.130820
4276	0.204062
4272	0.363683
4268	0.382781
4264	0.208330
4260	0.052714
4256	-0.003385
4252	-0.108265
4248	-0.149774
4244	-0.212740
4240	-0.427007
4236	-0.485134
4232	-0.342059
4228	-0.136494
4224	0.017309
4220	0.130653
4216	0.195193
4212	0.165843
4208	0.136446
4204	0.037145
4200	-0.033068
4196	0.074410
4192	0.094127
4188	0.032687
4184	0.340604
4180	0.742936
4176	0.763320
4172	0.621461
4168	0.462865
4164	0.144457
4160	-0.087738
4156	-0.039839
4152	0.062251
4148	0.158905
4144	0.209832
4140	0.156235
4136	0.127720
4132	0.119352
4128	0.034809
4124	0.013947
4120	0.105810
4116	0.114917
4112	0.052785
4108	0.089955
4104	0.224041
4100	0.330471
4096	0.289821
4092	0.152349
4088	0.073456
4084	0.042915
4080	0.050139
4076	0.076222
4072	0.024485
4068	-0.018453
4064	-0.022172
4060	-0.002741
4056	0.130963
4052	0.229930
4048	0.179100
4044	0.120019
4040	0.145339
4036	0.185847
4032	0.166249
4028	0.126457
4024	0.066852
4020	0.070333
4016	0.165963
4012	0.108289
4008	-0.036740
4004	-0.114154
4000	-0.175189
3996	-0.231742
3992	-0.194716
3988	-0.075054
3984	-0.041031
3980	-0.097894
3976	-0.140500
3972	-0.119924
3968	-0.030517
3964	-0.000476
3960	-0.010752
3956	0.075864
3952	0.247979
3948	0.325894
3944	0.206303
3940	0.084352
3936	0.077152
3932	0.017952
3928	-0.067090
3924	-0.021266
3920	0.037670
3916	0.052690
3912	-0.003242
3908	-0.129604
3904	-0.115752
3900	0.000023
3896	0.007390
3892	-0.050425
3888	-0.066876
3884	-0.100302
3880	-0.068283
3876	0.095629
3872	0.191569
3868	0.216078
3864	0.295376
3860	0.262618
3856	0.086259
3852	0.022435
3848	0.098848
3844	0.128865
3840	0.105452
3836	0.129318
3832	0.211477
3828	0.230765
3824	0.101184
3820	0.025892
3816	0.090360
3812	0.113129
3808	0.059247
3804	-0.021958
3800	-0.016474
3796	0.147533
3792	0.264191
3788	0.245213
3784	0.255584
3780	0.253033
3776	0.090503
3772	-0.066471
3768	-0.043249
3764	0.045800
3760	0.103044
3756	0.121665
3752	0.102949
3748	0.116825
3744	0.153231
3740	0.198316
3736	0.217294
3732	0.133466
3728	0.007748
3724	-0.067090
3720	-0.012612
3716	0.107693
3712	0.145006
3708	0.121784
3704	0.076508
3700	0.015664
3696	-0.067949
3692	-0.154232
3688	-0.162339
3684	-0.069093
3680	0.034785
3676	0.065732
3672	-0.010538
3668	-0.113344
3664	-0.091075
3660	0.027203
3656	0.076150
3652	0.067353
3648	0.092029
3644	0.058460
3640	-0.031781
3636	-0.065922
3632	-0.059342
3628	-0.033116
3624	0.043892
3620	0.130534
3616	0.172352
3612	0.164413
3608	0.085377
3604	0.038552
3600	0.102043
3596	0.158619
3592	0.119614
3588	0.069499
3584	0.107264
3580	0.107622
3576	0.000739
3572	-0.066685
3568	-0.043082
3564	0.041890
3560	0.129199
3556	0.167798
3552	0.148606
3548	0.023984
3544	-0.108551
3540	-0.134897
3536	-0.046420
3532	0.090813
3528	0.159049
3524	0.160813
3520	0.172185
3516	0.201749
3512	0.193786
3508	0.125360
3504	0.054121
3500	-0.013589
3496	-0.085878
3492	-0.059318
3488	-0.015473
3484	-0.011396
3480	0.087475
3476	0.159811
3472	0.120401
3468	0.153017
3464	0.236082
3460	0.179815
3456	0.087165
3452	0.047016
3448	-0.019574
3444	-0.016999
3440	0.026011
3436	0.006675
3432	-0.053977
3428	-0.081539
3424	0.021004
3420	0.132322
3416	0.074386
3412	-0.001239
3408	0.058197
3404	0.141024
3400	0.126814
3396	0.021076
3392	-0.098371
3388	-0.090289
3384	0.060582
3380	0.148391
3376	0.051856
3372	-0.044417
3368	-0.022268
3364	-0.012445
3360	-0.017571
3356	0.004696
3352	-0.029230
3348	-0.122547
3344	-0.170373
3340	-0.085830
3336	0.061058
3332	0.103759
3328	0.056457
3324	0.063753
3320	0.148248
3316	0.151658
3312	-0.005936
3308	-0.116801
3304	-0.047802
3300	0.057768
3296	0.109291
3292	0.092124
3288	0.043535
3284	0.017261
3280	-0.010585
3276	0.011467
3272	0.094318
3268	0.128364
3264	0.069475
3260	-0.017762
3256	-0.084209
3252	-0.113511
3248	-0.061345
3244	0.054407
3240	0.144505
3236	0.148868
3232	0.085854
3228	0.047469
3224	0.059676
3220	0.049948
3216	0.009202
3212	0.042247
3208	0.158190
3204	0.204730
3200	0.129508
3196	0.067925
3192	0.046229
3188	-0.011444
3184	-0.017642
3180	0.005531
3176	-0.061416
3172	-0.053167
3168	0.080943
3164	0.065970
3160	-0.060534
3156	-0.058507
3152	-0.006151
3148	-0.020480
3144	-0.071811
3140	-0.119900
3136	-0.118374
3132	-0.061893
3128	0.034570
3124	0.137805
3120	0.148415
3116	0.061821
3112	-0.080490
3108	-0.164031
3104	-0.108671
3100	-0.046181
3096	0.017333
3092	0.118398
3088	0.146865
3084	0.085878
3080	0.039863
3076	0.064778
3072	0.108313
3068	0.150299
3064	0.173878
3060	0.111126
3056	0.026106
3052	0.003194
3048	0.023627
3044	0.001859
3040	-0.077819
3036	-0.087285
3032	-0.020885
3028	-0.019907
3024	-0.076627
3020	-0.056838
3016	0.019407
3012	0.053048
3008	0.065732
3004	0.087070
3000	0.118541
2996	0.141930
2992	0.121569
2988	0.080323
2984	0.062489
2980	0.081825
2976	0.074267
2972	0.026631
2968	0.025391
2964	0.048780
2960	0.050973
2956	0.030350
2952	-0.038504
2948	-0.089287
2944	-0.052595
2940	-0.002408
2936	-0.008678
2932	-0.020956
2928	-0.037407
2924	-0.075817
2920	-0.027799
2916	0.061297
2912	0.066471
2908	0.072836
2904	0.147938
2900	0.170493
2896	0.126338
2892	0.083422
2888	0.011205
2884	-0.058341
2880	-0.125074
2876	-0.169157
2872	-0.105881
2868	-0.022745
2864	-0.031876
2860	-0.065016
2856	-0.055217
2852	-0.000309
2848	0.079011
2844	0.109338
2840	0.083160
2836	0.043725
2832	0.018763
2828	-0.011968
2824	-0.022149
2820	0.010728
2816	-0.021958
2812	-0.083947
2808	-0.094366
2804	-0.085401
2800	-0.030112
2796	0.046706
2792	0.086998
2788	0.078296
2784	0.016784
2780	-0.002002
2776	0.039267
2772	0.047063
2768	0.057888
2764	0.060772
2760	-0.005125
2756	-0.021553
2752	0.058174
2748	0.090861
2744	0.028944
2740	-0.053262
2736	-0.067949
2732	0.044584
2728	0.168585
2724	0.150179
2720	0.000572
2716	-0.117874
2712	-0.059604
2708	0.087499
2704	0.173306
2700	0.157523
2696	0.096297
2692	0.091028
2688	0.129890
2684	0.131988
2680	0.097823
2676	0.049161
2672	0.014591
2668	0.044798
2664	0.092625
2660	0.088524
2656	0.042247
2652	-0.025224
2648	-0.047802
2644	-0.014400
2640	-0.013923
2636	-0.034570
2632	0.028181
2628	0.146198
2624	0.168490
2620	0.103664
2616	0.070476
2612	0.051975
2608	0.009012
2604	0.006294
2600	0.055313
2596	0.089049
2592	0.066828
2588	0.016570
2584	0.006055
2580	0.002336
2576	-0.043678
2572	-0.038695
2568	0.038814
2564	0.089430
2560	0.086116
2556	0.032520
2552	0.004982
2548	0.063252
2544	0.065422
2540	-0.017309
2536	-0.044894
2532	-0.005030
2528	0.031709
2524	0.015139
2520	-0.012850
2516	-0.019431
2512	-0.005006
2508	0.066971
2504	0.125980
2500	0.168228
2496	0.188183
2492	0.085878
2488	-0.024557
2484	-0.029993
2480	-0.005984
2476	-0.000524
2472	-0.009226
2468	-0.016283
2464	0.032472
2460	0.118660
2456	0.169944
2452	0.160551
2448	0.084614
2444	0.014305
2440	0.047945
2436	0.134539
2432	0.126171
2428	0.130748
2424	0.232815
2420	0.251221
2416	0.216841
2412	0.208854
2408	0.204515
2404	0.246357
2400	0.307559
2396	0.279736
2392	0.171971
2388	0.079560
2384	0.067567
2380	0.134563
2376	0.124692
2372	0.015616
2368	-0.022459
2364	0.021862
2360	0.036859
2356	0.010824
2352	-0.005173
2348	-0.008726
2344	0.033187
2340	0.088524
2336	0.092864
2332	0.096058
2328	0.119638
2324	0.150418
2320	0.145554
2316	0.072145
2312	0.019884
2308	0.055170
2304	0.101089
2300	0.119805
2296	0.150799
2292	0.170469
2288	0.178146
2284	0.205707
2280	0.265240
2276	0.334596
2272	0.365614
2268	0.396704
2264	0.484800
2260	0.593376
2256	0.678515
2252	0.722479
2248	0.752806
2244	0.838685
2240	0.974655
2236	1.121044
2232	1.226830
2228	1.298427
2224	1.359176
2220	1.454234
2216	1.667451
2212	1.899003
2208	2.048063
2204	2.135968
2200	2.236580
2196	2.447438
2192	2.698969
2188	2.860856
2184	2.991127
2180	3.210425
2176	3.521180
2172	3.820514
2168	4.013371
2164	4.174542
2160	4.427957
2156	4.714417
2152	4.964613
2148	5.269074
2144	5.656766
2140	5.993580
2136	6.272816
2132	6.608319
2128	6.957173
2124	7.262182
2120	7.548427
2116	7.806587
2112	8.117437
2108	8.533787
2104	8.920478
2100	9.198451
2096	9.453153
2092	9.748959
2088	10.078
2084	10.47
2080	10.9552
2076	11.4484
2072	11.7592
2068	12.0059
2064	12.3553
2060	12.6661
2056	12.9183
2052	13.1544
2048	13.3837
2044	13.6545
2040	13.9605
2036	14.2495
2032	14.4935
2028	14.7382
2024	15.0251
2020	15.297
2016	15.5622
2012	15.8706
2008	16.1634
2004	16.4069
2000	16.6592
1996	16.9088
1992	17.1088
1988	17.3087
1984	17.5519
1980	17.8106
1976	18.0288
1972	18.2297
1968	18.4344
1964	18.6082
1960	18.7881
1956	18.9747
1952	19.115
1948	19.2666
1944	19.46
1940	19.5687
1936	19.6062
1932	19.7337
1928	19.9448
1924	20.1488
1920	20.3082
1916	20.4206
1912	20.535
1908	20.6324
1904	20.7254
1900	20.9128
1896	21.1395
1892	21.2632
1888	21.2879
1884	21.3504
1880	21.4748
1876	21.5914
1872	21.7362
1868	21.9039
1864	22.0164
1860	22.0783
1856	22.1337
1852	22.2164
1848	22.2782
1844	22.3133
1840	22.3937
1836	22.4957
1832	22.5967
1828	22.6939
1824	22.7619
1820	22.822
1816	22.8878
1812	22.9482
1808	22.9886
1804	22.9937
1800	23.0306
1796	23.1066
1792	23.169
1788	23.2359
1784	23.3182
1780	23.419
1776	23.5435
1772	23.6426
1768	23.6534
1764	23.6341
1760	23.6489
1756	23.7127
1752	23.8438
1748	23.9324
1744	23.9522
1740	24.0314
1736	24.1537
1732	24.1816
1728	24.1381
1724	24.1836
1720	24.305
1716	24.3448
1712	24.3133
1708	24.2833
1704	24.2486
1700	24.2714
1696	24.3158
1692	24.2904
1688	24.326
1684	24.4202
1680	24.4457
1676	24.4928
1672	24.5641
1668	24.5744
1664	24.5952
1660	24.6781
1656	24.7617
1652	24.8042
1648	24.8114
1644	24.7937
1640	24.7929
1636	24.8098
1632	24.7974
1628	24.7492
1624	24.7518
1620	24.8505
1616	24.9047
1612	24.8693
1608	24.8563
1604	24.9156
1600	24.9908
1596	25.0311
1592	25.0608
1588	25.0947
1584	25.1659
1580	25.2512
1576	25.2729
1572	25.234
1568	25.169
1564	25.1848
1560	25.3193
1556	25.4192
1552	25.4154
1548	25.3573
1544	25.3392
1540	25.3852
1536	25.4197
1532	25.4333
1528	25.4638
1524	25.4838
1520	25.4272
1516	25.3564
1512	25.3748
1508	25.4438
1504	25.439
1500	25.3423
1496	25.2512
1492	25.2887
1488	25.3846
1484	25.4121
1480	25.4385
1476	25.4956
1472	25.5339
1468	25.5166
1464	25.4871
1460	25.5442
1456	25.5835
1452	25.447
1448	25.4209
1444	25.6214
1440	25.6893
1436	25.568
1432	25.497
1428	25.487
1424	25.4442
1420	25.4587
1416	25.5267
1412	25.5719
1408	25.6022
1404	25.5872
1400	25.5976
1396	25.6752
1392	25.7081
1388	25.6481
1384	25.5235
1380	25.447
1376	25.5152
1372	25.594
1368	25.5882
1364	25.5824
1360	25.5713
1356	25.5869
1352	25.6577
1348	25.6696
1344	25.6951
1340	25.7744
1336	25.7247
1332	25.6407
1328	25.6726
1324	25.6565
1320	25.5822
1316	25.5875
1312	25.6456
1308	25.7065
1304	25.6825
1300	25.5768
1296	25.5549
1292	25.6262
1288	25.6611
1284	25.6364
1280	25.6443
1276	25.6882
1272	25.6774
1268	25.6599
1264	25.6796
1260	25.6478
1256	25.5918
1252	25.5999
1248	25.6455
1244	25.6613
1240	25.5956
1236	25.5416
1232	25.6198
1228	25.7103
1224	25.7243
1220	25.7123
1216	25.6868
1212	25.6702
1208	25.6765
1204	25.6917
1200	25.6918
1196	25.6568
1192	25.6208
1188	25.6125
1184	25.6557
1180	25.732
1176	25.6857
1172	25.572
1168	25.5414
1164	25.4828
1160	25.3884
1156	25.3572
1152	25.3676
1148	25.3859
1144	25.4103
1140	25.419
1136	25.3835
1132	25.3802
1128	25.4678
1124	25.561
1120	25.5743
1116	25.5107
1112	25.4609
1108	25.4633
1104	25.3903
1100	25.1977
1096	25.0829
1092	25.1422
1088	25.2368
1084	25.2898
1080	25.382
1076	25.462
1072	25.3471
1068	25.1544
1064	25.0827
1060	25.1186
1056	25.2567
1052	25.3873
1048	25.2917
1044	25.126
1040	25.1796
1036	25.2862
1032	25.2748
1028	25.1678
1024	24.9294
1020	24.7456
1016	24.7043
1012	24.569
1008	24.4584
1004	24.5674
1000	24.6831
996	 24.692
992	 24.7458
988	 24.8598
984	 24.9324
980	 24.9375
976	 24.8067
972	 24.6177
968	 24.4887
964	 24.4269
960	 24.4709
956	 24.4591
952	 24.3279
948	 24.2941
944	 24.4289
940	 24.5683
936	 24.5981
932	 24.5325
928	 24.393
924	 24.2305
920	 24.0175
916	 23.8505
912	 23.9114
908	 24.0756
904	 24.2499
900	 24.3322
896	 24.187
892	 23.9835
888	 23.8204
884	 23.7513
880	 23.7839
876	 23.6464
872	 23.4017
868	 23.3069
864	 23.2708
860	 23.2522
856	 23.3655
852	 23.444
848	 23.3621
844	 23.389
840	 23.5261
836	 23.4768
832	 23.2267
828	 23.0264
824	 22.9605
820	 22.9257
816	 22.9239
812	 23.0291
808	 23.1399
804	 23.0937
800	 22.9844
796	 22.8827
792	 22.7534
788	 22.6119
784	 22.4659
780	 22.3364
776	 22.2288
772	 22.0396
768	 21.8927
764	 22.0059
760	 22.1183
756	 22.0217
752	 21.8878
748	 21.8033
744	 21.8433
740	 22.0163
736	 22.0917
732	 21.9331
728	 21.6971
724	 21.5394
720	 21.4764
716	 21.4882
712	 21.426
708	 21.2738
704	 21.1981
700	 21.2077
696	 21.2609
692	 21.3009
688	 21.2119
684	 21.0809
680	 21.0309
676	 20.9574
672	 20.8448
668	 20.7271
664	 20.6434
660	 20.6366
656	 20.5498
652	 20.4202
648	 20.3741
644	 20.1982
640	 19.8487
636	 19.4613
632	 19.1152
628	 19.0983
624	 19.4531
620	 19.742
616	 19.751
612	 19.575
608	 19.4452
604	 19.6779
600	 19.851
596	 19.5178
592	 19.1339
588	 18.9734
584	 18.9961
580	 19.0007
576	 18.6432
572	 18.3183
568	 18.502
564	 18.7093
560	 18.572
556	 18.2788
552	 18.0484
548	 18.0825
544	 18.2032
540	 18.1102
536	 17.7744
532	 17.4469
528	 17.4104
524	 17.6371
520	 17.8202
516	 17.7131
512	 17.5407
508	 17.3796
504	 17.172
500	 17.0854
496	 16.7404
492	 16.0493
488	 15.7323
484	 16.128
480	 16.665
476	 16.8316
472	 16.9941
468	 17.4861
464	 17.9866
460	 18.3997
456	 18.8164
452	 18.5789
448	 17.6508
444	 16.6462
440	 15.7172
436	 15.5809
432	 15.6994
428	 14.9896
424	 14.4052
420	 13.6743
416	 13.7256
412	 18.085
408	 29.3318
404	 38.3144
400	 33.9258
396	 26.5696
392	 19.4988
388	 14.2942
384	 24.4178
380	 43.1494
376	 50.2352
372	 93.3857
370	 106.388