File: Bakgrunnsmateriale/MATLAB/FTIR/ftir_data/LPE454/Mapping_121/LPE454_t110.asc
PE IR       SPECTRUM    SPECTRUM    ASCII       PEDS        1.60
  -1
LP93FD~1.ASC
17/05/19
23:22:14.00
17/05/19
23:22:40.00
tln
$LPE454_t0110$<tbV0>[-13.0,10.4,8.0,0.0,27,1,0]
27.028
64

2002,4.07
MIRTGS : RIGHTBACK : INTERNAL 2
MIR : ON : INTERNAL 2
OPTKBR

0.200000
8
8.000000
FILLER
RATIO
SPECTRUM
UNLOCKED 256

DOUBLE
64
COMBINED
1
0
0

0.002000
RATIO

1
0
TRUE
51149
0
LEFT NOT FITTED RIGHT NOT FITTED 0
NONE
NONE
15600
12
4.427000
51148
TRUE
1 0 8 72 0 0 0 0

15798

#HDR
-1
-1
#GR
µM
%T
2.38419e-05
0.0
2.000000
0.002000
12515
8
40.554
-4.410927
#DATA
2.000000	 0.317454
2.018000	 0.071603
2.036000	 0.135781
2.054000	 -0.076746
2.072000	 0.382585
2.090000	 0.247647
2.108000	 0.079806
2.126000	 -0.372388
2.144000	 -0.573430
2.162000	 -0.306267
2.180000	 28.3748
2.198000	 -2.704690
2.216000	 -0.012093
2.234000	 0.127329
2.252000	 0.209206
2.270000	 -0.069195
2.288000	 0.109201
2.306000	 0.064591
2.324000	 0.210216
2.342000	 0.251020
2.360000	 0.238917
2.378000	 0.015755
2.396000	 0.082687
2.414000	 0.040423
2.432000	 0.356917
2.450000	 0.620082
2.468000	 0.415468
2.486000	 -0.572660
2.504000	 0.087856
2.522000	 -0.084113
2.540000	 -0.028536
2.558000	 0.104874
2.576000	 0.023388
2.594000	 0.044872
2.612000	 0.161320
2.630000	 -0.059133
2.648000	 -0.100887
2.666000	 0.035140
2.684000	 -0.023530
2.702000	 0.105874
2.720000	 0.027652
2.738000	 -0.065136
2.756000	 0.126824
2.774000	 0.056369
2.792000	 0.075647
2.810000	 -0.067226
2.828000	 0.168960
2.846000	 0.020250
2.864000	 0.038527
2.882000	 0.232545
2.900000	 0.020934
2.918000	 0.037694
2.936000	 0.148304
2.954000	 0.192290
2.972000	 -0.010594
2.990000	 -0.024421
3.008000	 -0.002780
3.026000	 0.056048
3.044000	 0.042904
3.062000	 -0.009529
3.080000	 0.115577
3.098000	 0.041416
3.116000	 -0.113592
3.134000	 0.033255
3.152000	 0.134520
3.170000	 0.041541
3.188000	 -0.085125
3.206000	 0.092694
3.224000	 0.133475
3.242000	 -0.006999
3.260000	 0.083042
3.278000	 0.112611
3.296000	 0.151610
3.314000	 0.058816
3.332000	 0.016633
3.350000	 0.110858
3.368000	 -0.023660
3.386000	 -0.006009
3.404000	 -0.011550
3.422000	 -0.085806
3.440000	 -0.039423
3.458000	 0.046734
3.476000	 0.154842
3.494000	 -0.017921
3.512000	 0.119738
3.530000	 0.073672
3.548000	 0.060047
3.566000	 0.090182
3.584000	 0.019686
3.602000	 -0.111614
3.620000	 0.034143
3.638000	 0.084003
3.656000	 0.041578
3.674000	 0.070946
3.692000	 0.170859
3.710000	 -0.101710
3.728000	 0.054779
3.746000	 -0.003394
3.764000	 0.030550
3.782000	 -0.032812
3.800000	 0.013144
3.818000	 -0.038218
3.836000	 0.043527
3.854000	 0.142685
3.872000	 -0.110914
3.890000	 0.001857
3.908000	 -0.004524
3.926000	 0.053868
3.944000	 0.002644
3.962000	 0.101622
3.980000	 0.051425
3.998000	 0.122350
4.016000	 -0.038305
4.034000	 0.020505
4.052000	 -0.085582
4.070000	 -0.049183
4.088000	 0.002583
4.106000	 -0.003494
4.124000	 -0.022446
4.141999	 0.153814
4.160000	 -0.041345
4.178000	 -0.055436
4.196000	 0.120001
4.214000	 0.246765
4.232000	 0.151674
4.250000	 0.238978
4.268000	 0.233577
4.286000	 0.306137
4.304000	 0.305148
4.322000	 0.548513
4.340000	 0.632112
4.358000	 0.690684
4.375999	 0.887923
4.394000	 1.023927
4.412000	 1.301699
4.430000	 1.646255
4.448000	 2.001394
4.466000	 2.314496
4.484000	 2.706618
4.502000	 3.076518
4.520000	 3.595455
4.538000	 4.146984
4.556000	 4.668991
4.574000	 5.329849
4.592000	 5.949409
4.609999	 6.593837
4.628000	 7.495535
4.646000	 8.177979
4.664000	 8.848410
4.682000	 9.613160
4.700000	 10.4439
4.718000	 11.1227
4.736000	 11.9215
4.754000	 12.6583
4.772000	 13.3892
4.790000	 14.1453
4.808000	 14.8814
4.826000	 15.6369
4.843999	 15.9643
4.862000	 16.702
4.880000	 17.4765
4.898000	 18.0493
4.916000	 18.5819
4.934000	 19.1706
4.952000	 19.5457
4.970000	 20.0275
4.988000	 20.406
5.006000	 20.891
5.024000	 21.3141
5.042000	 21.6166
5.060000	 22.0577
5.077999	 22.4008
5.096000	 22.609
5.114000	 22.9084
5.132000	 23.1852
5.150000	 23.4505
5.168000	 23.7377
5.186000	 23.9959
5.204000	 24.1384
5.222000	 24.3452
5.240000	 24.5458
5.258000	 24.7341
5.276000	 24.8895
5.294000	 25.0093
5.312000	 25.0919
5.330000	 25.1109
5.348000	 25.2248
5.366000	 25.4431
5.384000	 25.5642
5.402000	 25.6827
5.420000	 25.877
5.438000	 25.9334
5.456000	 25.9207
5.474000	 26.0036
5.492000	 26.0742
5.510000	 26.1047
5.528000	 26.1837
5.546000	 26.2276
5.564000	 26.2797
5.582000	 26.3581
5.600000	 26.407
5.618000	 26.458
5.636000	 26.4873
5.654000	 26.4546
5.672000	 26.4725
5.690000	 26.5384
5.708000	 26.5775
5.726000	 26.5873
5.744000	 26.6893
5.762000	 26.6706
5.780000	 26.7012
5.798000	 26.8147
5.816000	 26.8559
5.834000	 26.7743
5.852000	 26.7121
5.870000	 26.7779
5.888000	 26.7676
5.906000	 26.679
5.923999	 26.7345
5.942000	 26.8578
5.960000	 26.9033
5.978000	 26.8469
5.996000	 26.8771
6.014000	 26.8958
6.032000	 26.848
6.050000	 26.8378
6.068000	 26.881
6.086000	 26.9397
6.104000	 26.932
6.122000	 26.8943
6.140000	 26.8753
6.158000	 26.9184
6.176000	 26.9017
6.194000	 26.8505
6.212000	 26.8331
6.230000	 26.7828
6.248000	 26.8006
6.266000	 26.8351
6.284000	 26.8296
6.302000	 26.8584
6.320000	 26.8381
6.338000	 26.8264
6.356000	 26.8688
6.374000	 26.8809
6.392000	 26.9265
6.410000	 26.9775
6.428000	 26.9654
6.446000	 26.9143
6.464000	 26.8982
6.482000	 26.945
6.500000	 26.9413
6.518000	 26.8773
6.536000	 26.8571
6.554000	 26.8927
6.572000	 26.8987
6.590000	 26.8648
6.608000	 26.802
6.626000	 26.7579
6.644000	 26.8172
6.662000	 26.9037
6.680000	 26.9447
6.698000	 26.9038
6.716000	 26.8036
6.734000	 26.7667
6.752000	 26.783
6.770000	 26.786
6.788000	 26.7797
6.806000	 26.7735
6.824000	 26.7715
6.842000	 26.7992
6.860000	 26.8087
6.878000	 26.7497
6.896000	 26.7028
6.914000	 26.7279
6.932000	 26.7856
6.950000	 26.8321
6.968000	 26.8555
6.986000	 26.8749
7.004000	 26.8452
7.022000	 26.7428
7.040000	 26.667
7.058000	 26.6541
7.076000	 26.6461
7.094000	 26.6289
7.112000	 26.5903
7.130000	 26.5012
7.148000	 26.4407
7.166000	 26.4753
7.184000	 26.5133
7.202000	 26.5185
7.220000	 26.5723
7.238000	 26.6558
7.256000	 26.6768
7.274000	 26.6544
7.292000	 26.6585
7.310000	 26.6613
7.328000	 26.6115
7.346000	 26.5483
7.364000	 26.5214
7.382000	 26.5109
7.400000	 26.4968
7.418000	 26.4973
7.436000	 26.5002
7.454000	 26.469
7.472000	 26.4279
7.490000	 26.4259
7.508000	 26.4439
7.526000	 26.4501
7.544000	 26.4722
7.562000	 26.5422
7.580000	 26.6219
7.598000	 26.6384
7.616000	 26.5816
7.634000	 26.5218
7.652000	 26.5085
7.670000	 26.5172
7.688000	 26.506
7.706000	 26.4711
7.724000	 26.4427
7.742000	 26.445
7.760000	 26.458
7.778000	 26.4406
7.796000	 26.3916
7.814000	 26.3475
7.832000	 26.3289
7.850000	 26.3308
7.868000	 26.3451
7.886000	 26.3544
7.904000	 26.3323
7.922000	 26.2955
7.940000	 26.3057
7.958000	 26.3766
7.976000	 26.4404
7.994000	 26.435
8.012000	 26.3761
8.030000	 26.3193
8.048000	 26.2888
8.065999	 26.2683
8.084000	 26.2421
8.102000	 26.2207
8.120000	 26.2213
8.138000	 26.2362
8.155999	 26.2367
8.173999	 26.2092
8.192000	 26.1696
8.210000	 26.1401
8.228000	 26.1291
8.246000	 26.1277
8.263999	 26.1167
8.282000	 26.0844
8.300000	 26.0483
8.318000	 26.0382
8.336000	 26.0523
8.353999	 26.0585
8.372000	 26.0408
8.390000	 26.0146
8.408000	 25.9948
8.426000	 25.9781
8.443999	 25.9596
8.462000	 25.9379
8.480000	 25.9061
8.498000	 25.8593
8.516000	 25.8075
8.533999	 25.7665
8.552000	 25.7426
8.570000	 25.735
8.588000	 25.7419
8.606000	 25.7516
8.624000	 25.7486
8.641999	 25.7356
8.660000	 25.731
8.678000	 25.7389
8.696000	 25.7415
8.714000	 25.7276
8.731999	 25.7123
8.750000	 25.7146
8.768000	 25.7316
8.786000	 25.745
8.804000	 25.7401
8.821999	 25.7128
8.840000	 25.6717
8.858000	 25.6385
8.876000	 25.6346
8.894000	 25.6618
8.911999	 25.6959
8.930000	 25.7077
8.948000	 25.6834
8.966000	 25.6243
8.984000	 25.5416
9.001999	 25.4581
9.020000	 25.4014
9.038000	 25.3837
9.056000	 25.3879
9.074000	 25.3804
9.092000	 25.3421
9.109999	 25.2825
9.128000	 25.2274
9.146000	 25.199
9.164000	 25.2067
9.182000	 25.2493
9.199999	 25.314
9.218000	 25.3771
9.236000	 25.4117
9.254000	 25.4033
9.272000	 25.3602
9.289999	 25.3104
9.308000	 25.2834
9.326000	 25.293
9.344000	 25.3296
9.362000	 25.3678
9.379999	 25.3821
9.398000	 25.3647
9.416000	 25.3286
9.434000	 25.2941
9.452000	 25.269
9.469999	 25.2425
9.488000	 25.1989
9.506000	 25.1394
9.524000	 25.0843
9.542000	 25.0524
9.560000	 25.0412
9.577999	 25.0316
9.596000	 25.0107
9.614000	 24.9837
9.632000	 24.9646
9.650000	 24.9612
9.667999	 24.971
9.686000	 24.9887
9.704000	 25.0119
9.722000	 25.0383
9.740000	 25.0604
9.757999	 25.0654
9.776000	 25.045
9.794000	 25.0041
9.812000	 24.96
9.830000	 24.9312
9.847999	 24.9251
9.866000	 24.9341
9.884000	 24.9418
9.902000	 24.9331
9.920000	 24.9027
9.937999	 24.8561
9.956000	 24.8061
9.974000	 24.7644
9.992000	 24.734
10.01	24.7085
10.028	24.6772
10.046	24.6329
10.064	24.5786
10.082	24.5255
10.1	24.4869
10.118	24.4698
10.136	24.4717
10.154	24.482
10.172	24.4883
10.19	24.4816
10.208	24.46
10.226	24.4289
10.244	24.3981
10.262	24.3757
10.28	24.3648
10.298	24.3634
10.316	24.3665
10.334	24.3707
10.352	24.3743
10.37	24.3763
10.388	24.3732
10.406	24.3594
10.424	24.3295
10.442	24.2826
10.46	24.2241
10.478	24.1651
10.496	24.1198
10.514	24.1018
10.532	24.1199
10.55	24.1732
10.568	24.2505
10.586	24.3306
10.604	24.3915
10.622	24.4169
10.64	24.4031
10.658	24.3585
10.676	24.2981
10.694	24.2334
10.712	24.1703
10.73	24.1065
10.748	24.0384
10.766	23.9645
10.784	23.888
10.802	23.8151
10.82	23.7515
10.838	23.6997
10.856	23.658
10.874	23.6222
10.892	23.5894
10.91	23.5606
10.928	23.5401
10.946	23.5353
10.964	23.5521
10.982	23.5916
11	23.6493
11.018	23.7149
11.036	23.7758
11.054	23.82
11.072	23.8408
11.09	23.8386
11.108	23.8212
11.126	23.8007
11.144	23.7881
11.162	23.7905
11.18	23.8074
11.198	23.8316
11.216	23.8525
11.234	23.8591
11.252	23.8443
11.27	23.8082
11.288	23.7571
11.306	23.7013
11.324	23.6508
11.342	23.6104
11.36	23.5776
11.378	23.5437
11.396	23.4987
11.414	23.4358
11.432	23.3568
11.45	23.2714
11.468	23.1944
11.486	23.1385
11.504	23.1097
11.522	23.106
11.54	23.1198
11.558	23.1416
11.576	23.1638
11.594	23.1825
11.612	23.1964
11.63	23.2049
11.648	23.2066
11.666	23.1987
11.684	23.1776
11.702	23.1417
11.72	23.0929
11.738	23.0367
11.756	22.9812
11.774	22.9354
11.792	22.9068
11.81	22.8986
11.828	22.9096
11.846	22.9354
11.864	22.9695
11.882	23.0055
11.9	23.0384
11.918	23.0656
11.936	23.0864
11.954	23.1009
11.972	23.1094
11.99	23.1108
12.008	23.1039
12.026	23.0871
12.044	23.06
12.062	23.0252
12.08	22.9876
12.098	22.9537
12.116	22.9294
12.134	22.9172
12.152	22.9148
12.17	22.9163
12.188	22.9134
12.206	22.8983
12.224	22.8665
12.242	22.8178
12.26	22.7556
12.278	22.6869
12.296	22.6198
12.314	22.5609
12.332	22.5143
12.35	22.4803
12.368	22.4563
12.386	22.4377
12.404	22.42
12.422	22.4009
12.44	22.38
12.458	22.3589
12.476	22.3394
12.494	22.3228
12.512	22.3086
12.53	22.2949
12.548	22.2791
12.566	22.2598
12.584	22.2366
12.602	22.2109
12.62	22.1856
12.638	22.1639
12.656	22.1484
12.674	22.1399
12.692	22.1379
12.71	22.1407
12.728	22.1463
12.746	22.1526
12.764	22.1583
12.782	22.1623
12.8	22.1638
12.818	22.1624
12.836	22.1582
12.854	22.1524
12.872	22.1467
12.89	22.1437
12.908	22.146
12.926	22.1561
12.944	22.1752
12.962	22.203
12.98	22.2382
12.998	22.278
13.016	22.3195
13.034	22.3594
13.052	22.3949
13.07	22.4236
13.088	22.4437
13.106	22.4533
13.124	22.4513
13.142	22.4362
13.16	22.408
13.178	22.3672
13.196	22.3156
13.214	22.2557
13.232	22.1907
13.25	22.1234
13.268	22.0561
13.286	21.9898
13.304	21.9254
13.322	21.8631
13.34	21.8033
13.358	21.7471
13.376	21.6967
13.394	21.6546
13.412	21.6237
13.43	21.6059
13.448	21.6018
13.466	21.6101
13.484	21.6277
13.502	21.6503
13.52	21.673
13.538	21.6912
13.556	21.7013
13.574	21.7011
13.592	21.6899
13.61	21.6682
13.628	21.6374
13.646	21.5993
13.664	21.5559
13.682	21.5091
13.7	21.4606
13.718	21.4118
13.736	21.3632
13.754	21.3157
13.772	21.2695
13.79	21.2246
13.808	21.181
13.826	21.139
13.844	21.0997
13.862	21.0645
13.88	21.0357
13.898	21.0157
13.916	21.0069
13.934	21.0106
13.952	21.0269
13.97	21.0536
13.988	21.0873
14.006	21.1231
14.024	21.1561
14.042	21.1817
14.06	21.1971
14.078	21.2015
14.096	21.1961
14.114	21.1843
14.132	21.17
14.15	21.1576
14.168	21.1504
14.186	21.1503
14.204	21.1577
14.222	21.1706
14.24	21.186
14.258	21.2002
14.276	21.2099
14.294	21.2126
14.312	21.2073
14.33	21.1943
14.348	21.1751
14.366	21.152
14.384	21.1279
14.402	21.1049
14.42	21.0843
14.438	21.0661
14.456	21.0496
14.474	21.0322
14.492	21.0109
14.51	20.982
14.528	20.9426
14.546	20.8911
14.564	20.8276
14.582	20.7537
14.6	20.6728
14.618	20.5897
14.636	20.5106
14.654	20.4412
14.672	20.3859
14.69	20.348
14.708	20.3287
14.726	20.3274
14.744	20.3413
14.762	20.3657
14.78	20.3953
14.798	20.4246
14.816	20.4482
14.834	20.4614
14.852	20.4608
14.87	20.445
14.888	20.4144
14.906	20.3705
14.924	20.3166
14.942	20.257
14.96	20.1969
14.978	20.1409
14.996	20.0938
15.014	20.0598
15.032	20.0426
15.05	20.0439
15.068	20.0642
15.086	20.1025
15.104	20.1569
15.122	20.2235
15.14	20.2975
15.158	20.3741
15.176	20.4482
15.194	20.5146
15.212	20.5683
15.23	20.606
15.248	20.6258
15.266	20.6265
15.284	20.6087
15.302	20.5745
15.32	20.527
15.338	20.4699
15.356	20.4076
15.374	20.3452
15.392	20.2862
15.41	20.2333
15.428	20.1892
15.446	20.1545
15.464	20.1284
15.482	20.1095
15.5	20.0959
15.518	20.0848
15.536	20.0742
15.554	20.0626
15.572	20.0486
15.59	20.0322
15.608	20.0143
15.626	19.9963
15.644	19.9801
15.662	19.968
15.68	19.9613
15.698	19.9609
15.716	19.967
15.734	19.9781
15.752	19.9928
15.77	20.0089
15.788	20.0232
15.806	20.033
15.824	20.0359
15.842	20.03
15.86	20.0142
15.878	19.9883
15.896	19.9528
15.914	19.9089
15.932	19.858
15.95	19.8015
15.968	19.741
15.986	19.6784
16.004	19.615
16.022	19.5516
16.04	19.4896
16.058	19.4292
16.076	19.3706
16.094	19.3143
16.112	19.2603
16.13	19.2085
16.148	19.1587
16.166	19.1109
16.184	19.0649
16.202	19.0206
16.22	18.9779
16.238	18.9369
16.256	18.8977
16.274	18.8609
16.292	18.8272
16.31	18.7971
16.328	18.7722
16.346	18.7537
16.364	18.7424
16.382	18.7402
16.4	18.748
16.418	18.7665
16.436	18.7965
16.454	18.8379
16.472	18.8904
16.49	18.9527
16.508	19.0232
16.526	19.1001
16.544	19.1803
16.562	19.2609
16.58	19.3395
16.598	19.4117
16.616	19.4746
16.634	19.5255
16.652	19.5609
16.67	19.5793
16.688	19.579
16.706	19.5591
16.724	19.52
16.742	19.4621
16.76	19.3882
16.778	19.3002
16.796	19.2017
16.814	19.0973
16.832	18.9896
16.85	18.884
16.868	18.7837
16.886	18.6917
16.904	18.6116
16.922	18.5442
16.94	18.4911
16.958	18.4518
16.976	18.4256
16.994	18.4108
17.012	18.4052
17.03	18.4074
17.048	18.414
17.066	18.4238
17.084	18.435
17.102	18.4464
17.12	18.4575
17.138	18.4683
17.156	18.4793
17.174	18.4909
17.192	18.5044
17.21	18.5201
17.228	18.539
17.246	18.5608
17.264	18.5857
17.282	18.6127
17.3	18.6412
17.318	18.6696
17.336	18.6964
17.354	18.7205
17.372	18.7403
17.39	18.7555
17.408	18.7652
17.426	18.77
17.444	18.7698
17.462	18.7658
17.48	18.7583
17.498	18.7492
17.516	18.7394
17.534	18.7296
17.552	18.7205
17.57	18.7122
17.588	18.7042
17.606	18.6957
17.624	18.6862
17.642	18.6742
17.66	18.6589
17.678	18.639
17.696	18.6142
17.714	18.5837
17.732	18.5479
17.75	18.5068
17.768	18.4617
17.786	18.4129
17.804	18.3629
17.822	18.3122
17.84	18.2631
17.858	18.2166
17.876	18.1741
17.894	18.1365
17.912	18.1044
17.93	18.0781
17.948	18.0575
17.966	18.0422
17.984	18.0318
18.002	18.0254
18.02	18.0224
18.038	18.0222
18.056	18.0239
18.074	18.0271
18.092	18.0311
18.11	18.0358
18.128	18.0401
18.146	18.044
18.164	18.0468
18.182	18.0479
18.2	18.0468
18.218	18.042
18.236	18.0329
18.254	18.0173
18.272	17.9946
18.29	17.9625
18.308	17.9209
18.326	17.868
18.344	17.8039
18.362	17.7279
18.38	17.6407
18.398	17.543
18.416	17.4365
18.434	17.3229
18.452	17.2053
18.47	17.0855
18.488	16.9679
18.506	16.8539
18.524	16.748
18.542	16.651
18.56	16.5666
18.578	16.4953
18.596	16.4384
18.614	16.396
18.632	16.3669
18.65	16.3509
18.668	16.3444
18.686	16.3469
18.704	16.3532
18.722	16.3628
18.74	16.3705
18.758	16.3761
18.776	16.3755
18.794	16.3688
18.812	16.3539
18.83	16.3313
18.848	16.3006
18.866	16.2631
18.884	16.2203
18.902	16.1741
18.92	16.1269
18.938	16.0806
18.956	16.0387
18.974	16.0026
18.992	15.9753
19.01	15.9579
19.028	15.9529
19.046	15.9606
19.064	15.9826
19.082	16.0186
19.1	16.0692
19.118	16.1335
19.136	16.2111
19.154	16.3009
19.172	16.4011
19.19	16.5109
19.208	16.6276
19.226	16.7505
19.244	16.8761
19.262	17.0039
19.28	17.1303
19.298	17.2551
19.316	17.3745
19.334	17.4886
19.352	17.5943
19.37	17.6916
19.388	17.7787
19.406	17.8554
19.424	17.9212
19.442	17.9756
19.46	18.0197
19.478	18.0535
19.496	18.0781
19.514	18.0934
19.532	18.1015
19.55	18.1035
19.568	18.1
19.586	18.0919
19.604	18.0793
19.622	18.063
19.64	18.0423
19.658	18.0163
19.676	17.9849
19.694	17.9462
19.712	17.9004
19.73	17.8447
19.748	17.7792
19.766	17.7024
19.784	17.6135
19.802	17.513
19.82	17.3999
19.838	17.2759
19.856	17.1421
19.874	16.9995
19.892	16.8521
19.91	16.6996
19.928	16.5486
19.946	16.3981
19.964	16.2547
19.982	16.1186
20	15.9938
20.018	15.8825
20.036	15.7856
20.054	15.7063
20.072	15.6438
20.09	15.5997
20.108	15.5736
20.126	15.564
20.144	15.5714
20.162	15.5924
20.18	15.6265
20.198	15.6712
20.216	15.723
20.234	15.7818
20.252	15.8424
20.27	15.9057
20.288	15.9664
20.306	16.0245
20.324	16.0777
20.342	16.124
20.36	16.1635
20.378	16.1942
20.396	16.2166
20.414	16.2306
20.432	16.2361
20.45	16.2342
20.468	16.2247
20.486	16.2087
20.504	16.1879
20.522	16.1621
20.54	16.1341
20.558	16.1034
20.576	16.0724
20.594	16.0419
20.612	16.0123
20.63	15.9859
20.648	15.9621
20.666	15.9424
20.684	15.9269
20.702	15.9158
20.72	15.9095
20.738	15.9078
20.756	15.9101
20.774	15.9165
20.792	15.9261
20.81	15.9389
20.828	15.954
20.846	15.9701
20.864	15.9877
20.882	16.0047
20.9	16.0214
20.918	16.0366
20.936	16.0494
20.954	16.06
20.972	16.0669
20.99	16.0704
21.008	16.07
21.026	16.0653
21.044	16.0564
21.062	16.0432
21.08	16.0257
21.098	16.0043
21.116	15.979
21.134	15.9501
21.152	15.9181
21.17	15.883
21.188	15.8456
21.206	15.8061
21.224	15.7648
21.242	15.7228
21.26	15.6796
21.278	15.6365
21.296	15.5935
21.314	15.551
21.332	15.51
21.35	15.47
21.368	15.4319
21.386	15.3958
21.404	15.3616
21.422	15.3296
21.44	15.2998
21.458	15.272
21.476	15.2463
21.494	15.2225
21.512	15.2003
21.53	15.1799
21.548	15.1606
21.566	15.1418
21.584	15.1237
21.602	15.1058
21.62	15.0881
21.638	15.0703
21.656	15.052
21.674	15.0331
21.692	15.0142
21.71	14.9953
21.728	14.9765
21.746	14.959
21.764	14.9421
21.782	14.9276
21.8	14.9163
21.818	14.9081
21.836	14.9053
21.854	14.9079
21.872	14.9166
21.89	14.9334
21.908	14.9578
21.926	14.9906
21.944	15.0329
21.962	15.0842
21.98	15.1439
21.998	15.2126
22.016	15.289
22.034	15.3712
22.052	15.4604
22.07	15.5529
22.088	15.6465
22.106	15.7423
22.124	15.8348
22.142	15.9236
22.16	16.008
22.178	16.0819
22.196	16.1469
22.214	16.2003
22.232	16.238
22.25	16.2618
22.268	16.2691
22.286	16.258
22.304	16.2296
22.322	16.1835
22.34	16.1189
22.358	16.037
22.376	15.9402
22.394	15.8269
22.412	15.7003
22.43	15.5642
22.448	15.4163
22.466	15.2617
22.484	15.1042
22.502	14.9416
22.52	14.78
22.538	14.6218
22.556	14.4657
22.574	14.3176
22.592	14.1781
22.61	14.047
22.628	13.9286
22.646	13.8224
22.664	13.7288
22.682	13.6496
22.7	13.5844
22.718	13.533
22.736	13.4954
22.754	13.4718
22.772	13.4607
22.79	13.4609
22.808	13.4732
22.826	13.4953
22.844	13.5257
22.862	13.5654
22.88	13.6118
22.898	13.6638
22.916	13.722
22.934	13.7846
22.952	13.8511
22.97	13.9219
22.988	13.9951
23.006	14.0704
23.024	14.1482
23.042	14.2276
23.06	14.3084
23.078	14.3909
23.096	14.4747
23.114	14.56
23.132	14.6466
23.15	14.7343
23.168	14.8232
23.186	14.913
23.204	15.0031
23.222	15.0942
23.24	15.1853
23.258	15.2747
23.276	15.3632
23.294	15.4497
23.312	15.5311
23.33	15.6083
23.348	15.6803
23.366	15.7433
23.384	15.7978
23.402	15.8434
23.42	15.8767
23.438	15.8977
23.456	15.9065
23.474	15.901
23.492	15.8804
23.51	15.8456
23.528	15.7964
23.546	15.7323
23.564	15.6537
23.582	15.5628
23.6	15.4595
23.618	15.3437
23.636	15.2192
23.654	15.0879
23.672	14.9477
23.69	14.8038
23.708	14.6592
23.726	14.5113
23.744	14.3646
23.762	14.2233
23.78	14.0847
23.798	13.9519
23.816	13.8288
23.834	13.7137
23.852	13.6079
23.87	13.5139
23.888	13.4314
23.906	13.3601
23.924	13.301
23.942	13.2544
23.96	13.2198
23.978	13.1961
23.996	13.1832
24.014	13.1815
24.032	13.189
24.05	13.2047
24.068	13.2298
24.086	13.262
24.104	13.2989
24.122	13.3423
24.14	13.3904
24.158	13.4405
24.176	13.494
24.194	13.5498
24.212	13.6049
24.23	13.6594
24.248	13.7138
24.266	13.7649
24.284	13.8112
24.302	13.8545
24.32	13.8919
24.338	13.9208
24.356	13.9438
24.374	13.9579
24.392	13.959
24.41	13.948
24.428	13.9248
24.446	13.8863
24.464	13.8307
24.482	13.7598
24.5	13.6725
24.518	13.5674
24.536	13.4443
24.554	13.305
24.572	13.1518
24.59	12.9831
24.608	12.8001
24.626	12.6067
24.644	12.4035
24.662	12.1883
24.68	11.9678
24.698	11.7481
24.716	11.523
24.734	11.2989
24.752	11.0862
24.77	10.8842
24.788	10.6908
24.806	10.5161
24.824	10.3666
24.842	10.2356
24.86	10.1297
24.878	10.0573
24.896	10.0176
24.914	10.0087
24.932	10.0334
24.95	10.0945
24.968	10.1918
24.986	10.3195
25.004	10.472
25.022	10.655
25.04	10.8636
25.058	11.087
25.076	11.3218
25.094	11.575
25.112	11.834
25.13	12.0866
25.148	12.3399
25.166	12.5904
25.184	12.8267
25.202	13.043
25.22	13.246
25.238	13.4305
25.256	13.5905
25.274	13.7277
25.292	13.8427
25.31	13.9336
25.328	13.9985
25.346	14.038
25.364	14.0541
25.382	14.0487
25.4	14.0204
25.418	13.9699
25.436	13.901
25.454	13.8165
25.472	13.7136
25.49	13.5947
25.508	13.4635
25.526	13.3186
25.544	13.1585
25.562	12.9917
25.58	12.8262
25.598	12.6552
25.616	12.4827
25.634	12.3189
25.652	12.1695
25.67	12.0266
25.688	11.8978
25.706	11.7924
25.724	11.7111
25.742	11.6501
25.76	11.6143
25.778	11.609
25.796	11.6367
25.814	11.6917
25.832	11.7669
25.85	11.859
25.868	11.9757
25.886	12.107
25.904	12.2407
25.922	12.3789
25.94	12.5287
25.958	12.669
25.976	12.7785
25.994	12.8636
26.012	12.9275
26.03	12.9573
26.048	12.9406
26.066	12.8772
26.084	12.7759
26.102	12.6449
26.12	12.4861
26.138	12.2853
26.156	12.0648
26.174	11.8507
26.192	11.6408
26.21	11.4127
26.228	11.2163
26.246	11.1037
26.264	11.0684
26.282	11.0899
26.3	11.2128
26.318	11.4808
26.336	11.8834
26.354	12.41
26.372	13.0769
26.39	13.9007
26.408	14.8881
26.426	16.0223
26.444	17.283
26.462	18.658
26.48	20.1888
26.498	21.8327
26.516	23.5253
26.534	25.2252
26.552	27.0015
26.57	28.7979
26.588	30.5334
26.606	32.1612
26.624	33.7561
26.642	35.2618
26.66	36.6033
26.678	37.7391
26.696	38.7287
26.714	39.5381
26.732	40.1228
26.75	40.453
26.768	40.554
26.786	40.4345
26.804	40.1007
26.822	39.5449
26.84	38.7507
26.858	37.7605
26.876	36.6202
26.894	35.3393
26.912	33.868
26.93	32.2727
26.948	30.6277
26.966	28.8948
26.984	26.9022
27.002	24.971
27.02	23.4555
27.028	23.0528