File: Bakgrunnsmateriale/MATLAB/FTIR/ftir_data/LPE454/Mapping_121/LPE454_t113_cm-1.asc
PE IR       SPECTRUM    SPECTRUM    ASCII       PEDS        1.60
  -1
LP0658~1.ASC
17/05/19
23:42:17.00
17/05/19
23:42:17.00
tln
$LPE454_t0113$<tbV0>[7.8,13.0,8.0,0.0,27,1,0]
370
64

2002,4.07
MIRTGS : RIGHTBACK : INTERNAL 2
MIR : ON : INTERNAL 2
OPTKBR

0.200000
8
8.000000
FILLER
RATIO
SPECTRUM
UNLOCKED 256

DOUBLE
64
COMBINED
1
0
0

1.000000
RATIO

1
0
TRUE
51149
0
LEFT NOT FITTED RIGHT NOT FITTED 0
NONE
NONE
15600
12
4.427000
51148
TRUE
1 0 8 72 0 0 0 0

15798

#HDR
-1
-1
#GR
CM-1
%T
2.38419e-05
0.0
5000
-1.000000
4631
8
42.0906
-15.193
#DATA
5000	0.025653
4996	-0.014758
4992	0.033235
4988	0.145149
4984	0.315761
4980	0.323677
4976	0.207543
4972	0.216889
4968	0.298142
4964	0.284695
4960	0.055384
4956	-0.185012
4952	-0.191736
4948	-0.120472
4944	-0.158166
4940	-0.261259
4936	-0.189256
4932	-0.033020
4928	0.073385
4924	0.399661
4920	0.689888
4916	0.545549
4912	0.363802
4908	0.519752
4904	0.675368
4900	0.652074
4896	0.722455
4892	0.854253
4888	0.729274
4884	0.515413
4880	0.504636
4876	0.561404
4872	0.694155
4868	0.619888
4864	0.153684
4860	-0.111174
4856	0.041246
4852	0.188589
4848	0.112557
4844	-0.177454
4840	-0.518202
4836	-0.571846
4832	-0.217795
4828	0.210762
4824	0.362777
4820	0.359320
4816	0.322294
4812	0.203943
4808	0.168132
4804	0.225758
4800	0.171327
4796	0.148177
4792	0.171923
4788	0.078320
4784	-0.066256
4780	-0.109577
4776	0.180172
4772	0.565934
4768	0.611901
4764	0.509309
4760	0.484323
4756	0.391221
4752	0.250363
4748	0.197863
4744	0.356292
4740	0.606226
4736	0.724458
4732	0.701880
4728	0.556421
4724	0.409960
4720	0.285577
4716	0.149369
4712	0.275874
4708	0.553107
4704	0.627398
4700	0.705480
4696	0.851058
4692	0.809431
4688	0.679993
4684	0.649762
4680	0.693297
4676	0.899243
4672	0.967717
4668	0.701189
4664	0.541710
4660	0.526452
4656	0.588274
4652	0.717425
4648	0.617790
4644	0.268459
4640	0.026583
4636	0.196480
4632	0.298428
4628	0.122618
4624	0.238394
4620	0.680017
4616	0.467324
4612	-0.305056
4608	-0.672197
4604	-0.791478
4600	-1.561903
4596	-1.677751
4592	-1.186704
4588	12.3124
4584	31.2934
4580	24.5921
4576	2.554059
4572	-4.731130
4568	-1.107025
4564	-0.169968
4560	-0.826668
4556	-0.892043
4552	-0.612401
4548	-0.250053
4544	0.266265
4540	0.213217
4536	-0.162291
4532	-0.313019
4528	-0.297069
4524	-0.128197
4520	-0.022745
4516	-0.126171
4512	-0.194740
4508	0.072741
4504	0.405883
4500	0.361418
4496	0.293612
4492	0.429654
4488	0.522041
4484	0.618052
4480	0.794506
4476	0.754737
4472	0.665783
4468	0.860667
4464	0.950193
4460	0.781440
4456	0.641155
4452	0.559163
4448	0.539875
4444	0.474905
4440	0.358128
4436	0.449919
4432	0.589990
4428	0.466609
4424	0.269794
4420	0.202322
4416	0.251793
4412	0.384521
4408	0.462603
4404	0.390386
4400	0.255417
4396	0.089859
4392	0.051641
4388	0.207924
4384	0.251436
4380	0.087976
4376	-0.056147
4372	-0.050830
4368	-0.001192
4364	-0.042414
4360	-0.118327
4356	0.034737
4352	0.290679
4348	0.277566
4344	0.175976
4340	0.259590
4336	0.357294
4332	0.285720
4328	0.130987
4324	0.079870
4320	0.223064
4316	0.435614
4312	0.496554
4308	0.276994
4304	0.035810
4300	-0.052928
4296	-0.125098
4292	-0.086236
4288	0.123786
4284	0.197029
4280	0.093078
4276	0.071144
4272	0.161337
4268	0.311112
4264	0.424146
4260	0.367665
4256	0.164651
4252	-0.045251
4248	-0.163793
4244	-0.157141
4240	-0.023818
4236	0.180053
4232	0.434255
4228	0.560879
4224	0.367736
4220	0.130343
4216	0.088143
4212	0.096344
4208	0.065135
4204	0.025606
4200	-0.019907
4196	0.113487
4192	0.367093
4188	0.317502
4184	0.100374
4180	-0.105929
4176	-0.321221
4172	-0.289154
4168	-0.249838
4164	-0.315737
4160	-0.068092
4156	0.396466
4152	0.614976
4148	0.285744
4144	-0.017619
4140	0.357031
4136	0.883984
4132	0.840854
4128	0.392079
4124	0.376343
4120	0.663614
4116	0.500392
4112	0.075149
4108	0.024485
4104	0.370311
4100	0.557279
4096	0.648069
4092	0.641608
4088	-0.141239
4084	-0.826764
4080	-0.630545
4076	-0.544452
4072	-0.570178
4068	-0.316381
4064	-0.102853
4060	0.095868
4056	0.244283
4052	0.181388
4048	0.129628
4044	0.172090
4040	0.159263
4036	0.119757
4032	0.113821
4028	0.067162
4024	-0.054335
4020	-0.121021
4016	-0.024318
4012	0.152134
4008	0.199294
4004	0.205469
4000	0.315713
3996	0.323295
3992	0.268912
3988	0.304579
3984	0.262641
3980	0.149321
3976	0.110340
3972	0.040054
3968	-0.083041
3964	-0.097775
3960	0.009822
3956	0.091075
3952	0.150179
3948	0.217771
3944	0.129532
3940	-0.053596
3936	-0.137114
3932	-0.137615
3928	-0.103449
3924	-0.031256
3920	0.087904
3916	0.203156
3912	0.185298
3908	0.087690
3904	0.063323
3900	0.060844
3896	0.020694
3892	0.090050
3888	0.225329
3884	0.159120
3880	0.049591
3876	0.077533
3872	0.153517
3868	0.247979
3864	0.274085
3860	0.149583
3856	0.047564
3852	0.117897
3848	0.192117
3844	0.198125
3840	0.196671
3836	0.094342
3832	-0.039172
3828	-0.026512
3824	0.106525
3820	0.160646
3816	0.088071
3812	0.107359
3808	0.197792
3804	0.155997
3800	0.081253
3796	0.076556
3792	0.031638
3788	-0.028991
3784	-0.022292
3780	0.021862
3776	0.072383
3772	0.139260
3768	0.173306
3764	0.101947
3760	0.049233
3756	0.094294
3752	0.065851
3748	-0.036096
3744	-0.010681
3740	0.059127
3736	0.011754
3732	-0.011873
3728	0.054621
3724	0.106406
3720	0.129675
3716	0.090026
3712	-0.002837
3708	-0.055408
3704	-0.016856
3700	0.070595
3696	0.092816
3692	-0.011968
3688	-0.140786
3684	-0.107932
3680	0.023150
3676	0.110173
3672	0.125098
3668	0.093293
3664	0.131511
3660	0.177431
3656	0.122594
3652	0.078606
3648	0.051999
3644	0.059747
3640	0.119304
3636	0.069618
3632	0.036478
3628	0.059390
3624	0.022864
3620	-0.005674
3616	0.002408
3612	0.128030
3608	0.235676
3604	0.119352
3600	-0.016570
3596	0.006079
3592	0.106215
3588	0.196838
3584	0.148677
3580	-0.052118
3576	-0.148868
3572	-0.106644
3568	-0.039243
3564	0.048756
3560	0.050401
3556	0.004410
3552	0.054192
3548	0.142121
3544	0.191831
3540	0.154089
3536	0.077152
3532	0.073790
3528	0.062060
3524	0.014615
3520	0.002598
3516	0.020551
3512	0.066399
3508	0.110507
3504	0.059700
3500	-0.018978
3496	0.033640
3492	0.126409
3488	0.161218
3484	0.171923
3480	0.125765
3476	0.012445
3472	-0.040602
3468	0.060963
3464	0.176262
3460	0.149726
3456	0.049638
3452	0.014901
3448	0.005578
3444	-0.027751
3440	-0.001978
3436	-0.027632
3432	-0.101947
3428	-0.073409
3424	0.012779
3420	0.082373
3416	0.091648
3412	0.071167
3408	0.101065
3404	0.101375
3400	0.009083
3396	-0.065398
3392	-0.073075
3388	-0.009131
3384	0.013208
3380	-0.049281
3376	-0.046801
3372	0.000905
3368	-0.005984
3364	-0.014138
3360	0.021171
3356	0.042939
3352	0.060582
3348	0.081062
3344	0.084233
3340	0.093531
3336	0.079107
3332	0.022363
3328	-0.010371
3324	0.045824
3320	0.131893
3316	0.134372
3312	0.085353
3308	0.078177
3304	0.095033
3300	0.089716
3296	0.036621
3292	0.002360
3288	0.082540
3284	0.197982
3280	0.243306
3276	0.195765
3272	0.084447
3268	0.022077
3264	0.071692
3260	0.133490
3256	0.142526
3252	0.134992
3248	0.073981
3244	-0.075626
3240	-0.165247
3236	-0.134778
3232	-0.093007
3228	-0.058984
3224	-0.031900
3220	-0.017046
3216	0.026226
3212	0.034284
3208	0.069212
3204	0.181388
3200	0.180768
3196	0.066828
3192	-0.003290
3188	0.016546
3184	0.068879
3180	0.095725
3176	0.113987
3172	0.163292
3168	0.221061
3164	0.242733
3160	0.156569
3156	-0.014877
3152	-0.057983
3148	0.052356
3144	0.121855
3140	0.066137
3136	-0.046253
3132	-0.123238
3128	-0.063300
3124	0.071001
3120	0.025200
3116	-0.076985
3112	-0.009512
3108	0.063490
3104	0.018620
3100	-0.018620
3096	0.020217
3092	0.028920
3088	0.025272
3084	0.086474
3080	0.115537
3076	0.079154
3072	0.017356
3068	-0.065541
3064	-0.084209
3060	-0.051665
3056	-0.012493
3052	0.095987
3048	0.178027
3044	0.125551
3040	0.012731
3036	-0.072932
3032	-0.137639
3028	-0.158643
3024	-0.082254
3020	-0.004267
3016	0.011730
3012	-0.003671
3008	0.009036
3004	0.051975
3000	0.027394
2996	-0.024580
2992	0.046277
2988	0.133919
2984	0.121402
2980	0.090765
2976	0.061178
2972	0.047802
2968	0.086951
2964	0.118756
2960	0.102448
2956	0.043654
2952	-0.058317
2948	-0.075125
2944	0.044894
2940	0.137424
2936	0.144290
2932	0.112843
2928	0.087141
2924	0.108766
2920	0.110721
2916	0.024104
2912	-0.037884
2908	0.003027
2904	0.045061
2900	0.067782
2896	0.130033
2892	0.139045
2888	0.049352
2884	-0.012111
2880	-0.047349
2876	-0.051307
2872	0.050950
2868	0.132179
2864	0.088167
2860	0.030755
2856	0.008130
2852	0.001907
2848	0.031495
2844	0.037884
2840	-0.026416
2836	-0.102376
2832	-0.116086
2828	-0.053095
2824	0.042057
2820	0.115776
2816	0.111532
2812	0.074338
2808	0.076842
2804	0.082278
2800	0.087523
2796	0.082325
2792	0.064516
2788	0.105166
2784	0.153636
2780	0.135850
2776	0.093269
2772	0.065374
2768	0.073719
2764	0.102686
2760	0.094866
2756	0.051808
2752	0.019168
2748	-0.005817
2744	-0.032258
2740	-0.020647
2736	0.039076
2732	0.069451
2728	0.036239
2724	0.027418
2720	0.096368
2716	0.169563
2712	0.176525
2708	0.113701
2704	0.018262
2700	0.011253
2696	0.118803
2692	0.161361
2688	0.123572
2684	0.084280
2680	0.013279
2676	0.021576
2672	0.120234
2668	0.147485
2664	0.149679
2660	0.171470
2656	0.165200
2652	0.172567
2648	0.180053
2644	0.156617
2640	0.158452
2636	0.152230
2632	0.075340
2628	-0.034284
2624	-0.103545
2620	-0.073981
2616	-0.069594
2612	-0.098299
2608	-0.026988
2604	-0.002312
2600	-0.039219
2596	0.009703
2592	0.046062
2588	0.043249
2584	0.032997
2580	0.025367
2576	0.046181
2572	0.075578
2568	0.108909
2564	0.125956
2560	0.068306
2556	0.004243
2552	0.011205
2548	0.062084
2544	0.112056
2540	0.094652
2536	0.018453
2532	-0.007128
2528	0.023221
2524	0.056672
2520	0.088381
2516	0.098323
2512	0.087237
2508	0.080394
2504	0.075912
2500	0.051236
2496	-0.014972
2492	-0.068616
2488	-0.043368
2484	0.014066
2480	0.073432
2476	0.139188
2472	0.169491
2468	0.162839
2464	0.141119
2460	0.122237
2456	0.112295
2452	0.102949
2448	0.142669
2444	0.237679
2440	0.286579
2436	0.267744
2432	0.255012
2428	0.248813
2424	0.235247
2420	0.309824
2416	0.485324
2412	0.608253
2408	0.596332
2404	0.508284
2400	0.436401
2396	0.405311
2392	0.431418
2388	0.513958
2384	0.591969
2380	0.666284
2376	0.747847
2372	0.827169
2368	0.906872
2364	0.976395
2360	1.035094
2356	1.080822
2352	1.134824
2348	1.210618
2344	1.286101
2340	1.359224
2336	1.440739
2332	1.532316
2328	1.657962
2324	1.807665
2320	1.920652
2316	1.994085
2312	2.097797
2308	2.287602
2304	2.500653
2300	2.698135
2296	2.881217
2292	3.013157
2288	3.188419
2284	3.451824
2280	3.691864
2276	3.882718
2272	4.078769
2268	4.305076
2264	4.561948
2260	4.866051
2256	5.213928
2252	5.565190
2248	5.893731
2244	6.195139
2240	6.534647
2236	6.945991
2232	7.338428
2228	7.710194
2224	8.116436
2220	8.519887
2216	8.928942
2212	9.390473
2208	9.909439
2204	10.4388
2200	10.9051
2196	11.3551
2192	11.8416
2188	12.3691
2184	12.9487
2180	13.4597
2176	13.8898
2172	14.4009
2168	14.994
2164	15.5751
2160	16.1188
2156	16.6321
2152	17.157
2148	17.7278
2144	18.3032
2140	18.8325
2136	19.3536
2132	19.9001
2128	20.4753
2124	21.1031
2120	21.7057
2116	22.2535
2112	22.803
2108	23.3006
2104	23.7274
2100	24.1733
2096	24.6304
2092	25.0649
2088	25.5747
2084	26.1471
2080	26.6576
2076	27.1306
2072	27.5988
2068	28.0057
2064	28.41
2060	28.8692
2056	29.2595
2052	29.5821
2048	29.9713
2044	30.3664
2040	30.6882
2036	31
2032	31.3622
2028	31.7488
2024	32.103
2020	32.3987
2016	32.6594
2012	32.9492
2008	33.2753
2004	33.5782
2000	33.819
1996	34.0411
1992	34.2906
1988	34.5604
1984	34.8593
1980	35.1685
1976	35.4015
1972	35.5695
1968	35.7741
1964	36.0424
1960	36.3088
1956	36.5066
1952	36.7106
1948	36.9554
1944	37.1333
1940	37.2761
1936	37.4564
1932	37.6368
1928	37.8131
1924	37.9831
1920	38.0991
1916	38.195
1912	38.3296
1908	38.4548
1904	38.5602
1900	38.716
1896	38.886
1892	38.9911
1888	39.0773
1884	39.185
1880	39.3221
1876	39.4795
1872	39.5571
1868	39.5877
1864	39.7135
1860	39.8894
1856	40.0065
1852	40.0987
1848	40.2291
1844	40.352
1840	40.4002
1836	40.3909
1832	40.4026
1828	40.4605
1824	40.553
1820	40.677
1816	40.7904
1812	40.8515
1808	40.8823
1804	40.9429
1800	41.0135
1796	41.0803
1792	41.167
1788	41.2424
1784	41.3044
1780	41.3664
1776	41.3917
1772	41.3671
1768	41.3368
1764	41.3486
1760	41.4027
1756	41.433
1752	41.4366
1748	41.4557
1744	41.4824
1740	41.5384
1736	41.6117
1732	41.7032
1728	41.7893
1724	41.7661
1720	41.7269
1716	41.7917
1712	41.8173
1708	41.7476
1704	41.7561
1700	41.8328
1696	41.8044
1692	41.7217
1688	41.7418
1684	41.849
1680	41.9106
1676	41.8898
1672	41.8639
1668	41.8742
1664	41.9236
1660	41.9876
1656	42.0117
1652	42.005
1648	42.0262
1644	42.0718
1640	42.0904
1636	42.0595
1632	42.0149
1628	41.9821
1624	41.9479
1620	41.9472
1616	41.9528
1612	41.9172
1608	41.8702
1604	41.8117
1600	41.8147
1596	41.9255
1592	42.0317
1588	42.0368
1584	42.0049
1580	42.0191
1576	42.0523
1572	42.0751
1568	42.0514
1564	41.9861
1560	41.9148
1556	41.8205
1552	41.7306
1548	41.676
1544	41.6603
1540	41.6927
1536	41.7228
1532	41.7166
1528	41.7167
1524	41.7444
1520	41.7565
1516	41.7395
1512	41.7571
1508	41.7968
1504	41.7843
1500	41.743
1496	41.7371
1492	41.7683
1488	41.8038
1484	41.8293
1480	41.8119
1476	41.7707
1472	41.7202
1468	41.6552
1464	41.5876
1460	41.5219
1456	41.5129
1452	41.585
1448	41.6866
1444	41.7019
1440	41.6117
1436	41.5289
1432	41.5282
1428	41.5823
1424	41.5618
1420	41.467
1416	41.4366
1412	41.4733
1408	41.4884
1404	41.4573
1400	41.3971
1396	41.3151
1392	41.24
1388	41.2302
1384	41.2284
1380	41.1889
1376	41.2105
1372	41.2728
1368	41.2873
1364	41.2786
1360	41.299
1356	41.3147
1352	41.2612
1348	41.2091
1344	41.2271
1340	41.2044
1336	41.1198
1332	41.118
1328	41.1924
1324	41.2091
1320	41.143
1316	41.0713
1312	41.0239
1308	40.9958
1304	41.0173
1300	41.0597
1296	41.0591
1292	41.0112
1288	40.9798
1284	41.0351
1280	41.1459
1276	41.2045
1272	41.1557
1268	41.036
1264	40.9355
1260	40.9039
1256	40.8664
1252	40.8025
1248	40.8407
1244	40.9306
1240	40.9097
1236	40.8538
1232	40.8277
1228	40.7755
1224	40.731
1220	40.6959
1216	40.6623
1212	40.6842
1208	40.7352
1204	40.7582
1200	40.7455
1196	40.748
1192	40.8102
1188	40.8091
1184	40.7273
1180	40.6997
1176	40.7154
1172	40.7014
1168	40.6402
1164	40.5905
1160	40.5243
1156	40.4211
1152	40.3976
1148	40.4855
1144	40.5816
1140	40.5449
1136	40.4469
1132	40.4181
1128	40.4011
1124	40.3759
1120	40.3359
1116	40.2993
1112	40.3025
1108	40.3193
1104	40.3595
1100	40.3719
1096	40.3857
1092	40.4284
1088	40.3585
1084	40.209
1080	40.0524
1076	39.929
1072	39.9377
1068	39.9637
1064	39.9219
1060	39.9436
1056	40.0268
1052	40.0568
1048	40.0337
1044	40.0129
1040	40.0134
1036	40.0052
1032	39.9432
1028	39.903
1024	39.9524
1020	39.9481
1016	39.8169
1012	39.7371
1008	39.7827
1004	39.777
1000	39.7187
996	 39.6984
992	 39.5954
988	 39.5205
984	 39.6449
980	 39.7413
976	 39.6543
972	 39.6049
968	 39.6101
964	 39.4701
960	 39.3697
956	 39.4199
952	 39.4281
948	 39.4372
944	 39.516
940	 39.5768
936	 39.5614
932	 39.4816
928	 39.4303
924	 39.3574
920	 39.2372
916	 39.2055
912	 39.1485
908	 39.0694
904	 39.1071
900	 39.0725
896	 38.9967
892	 39.037
888	 39.0648
884	 39.1048
880	 39.2541
876	 39.2997
872	 39.2104
868	 39.2052
864	 39.1892
860	 39.116
856	 39.1129
852	 39.0406
848	 38.8028
844	 38.585
840	 38.419
836	 38.2398
832	 38.2112
828	 38.3545
824	 38.3783
820	 38.2243
816	 38.159
812	 38.3466
808	 38.5898
804	 38.6391
800	 38.6127
796	 38.7029
792	 38.7406
788	 38.586
784	 38.474
780	 38.4383
776	 38.3938
772	 38.4077
768	 38.3267
764	 38.0569
760	 37.7662
756	 37.6074
752	 37.6639
748	 37.775
744	 37.6316
740	 37.379
736	 37.3951
732	 37.6074
728	 37.7543
724	 37.8043
720	 37.899
716	 38.0758
712	 38.1003
708	 37.8424
704	 37.6493
700	 37.6507
696	 37.5217
692	 37.273
688	 37.0193
684	 36.9016
680	 36.9694
676	 36.9194
672	 36.7908
668	 36.7854
664	 36.8108
660	 36.7468
656	 36.71
652	 36.8149
648	 36.9675
644	 37.0487
640	 37.0482
636	 37.034
632	 37.0327
628	 37.0715
624	 36.9251
620	 36.5616
616	 36.2515
612	 35.8877
608	 35.472
604	 35.1771
600	 35.114
596	 35.2612
592	 35.3586
588	 35.4088
584	 35.4904
580	 35.6261
576	 35.6868
572	 35.5981
568	 35.8112
564	 36.1915
560	 36.2572
556	 36.4113
552	 36.5703
548	 36.052
544	 35.508
540	 35.2361
536	 34.5226
532	 33.6071
528	 33.3355
524	 33.7912
520	 33.9314
516	 33.4477
512	 33.4003
508	 33.8078
504	 35.1155
500	 37.3493
496	 37.4196
492	 35.7083
488	 35.0931
484	 34.934
480	 34.6275
476	 34.3859
472	 34.5477
468	 34.9022
464	 33.9162
460	 31.6128
456	 30.4463
452	 31.485
448	 31.9459
444	 31.285
440	 32.0375
436	 33.474
432	 34.0165
428	 33.2341
424	 31.5893
420	 31.6147
416	 32.738
412	 32.1078
408	 31.4783
404	 32.083
400	 29.6558
396	 26.4855
392	 28.7828
388	 27.5962
384	 22.1011
380	 24.9345
376	 20.9328
372	 2.054476
370	 -15.193