File: Bakgrunnsmateriale/MATLAB/FTIR/ftir_data/LPE454/Mapping_121/LPE454_t19_cm-1.asc
PE IR       SPECTRUM    SPECTRUM    ASCII       PEDS        1.60
  -1
LPE73D~1.ASC
17/05/19
15:52:57.00
17/05/19
15:52:57.00
tln
$LPE454_t0019$<tbV0>[-5.2,-10.4,8.0,0.0,27,1,0]
370
64

2002,4.07
MIRTGS : RIGHTBACK : INTERNAL 2
MIR : ON : INTERNAL 2
OPTKBR

0.200000
8
8.000000
FILLER
RATIO
SPECTRUM
UNLOCKED 256

DOUBLE
64
COMBINED
1
0
0

1.000000
RATIO

1
0
TRUE
51149
0
LEFT NOT FITTED RIGHT NOT FITTED 0
NONE
NONE
15600
12
4.427000
51148
TRUE
1 0 8 72 0 0 0 0

15798

#HDR
-1
-1
#GR
CM-1
%T
2.38419e-05
0.0
5000
-1.000000
4631
8
32.4759
-15.0114
#DATA
5000	0.212788
4996	0.107526
4992	0.109100
4988	0.061202
4984	-0.099706
4980	-0.151395
4976	0.053286
4972	0.369358
4968	0.534939
4964	0.522470
4960	0.554633
4956	0.574994
4952	0.326800
4948	-0.026822
4944	-0.141334
4940	-0.113511
4936	-0.090074
4932	0.001645
4928	0.113940
4924	0.036025
4920	-0.156688
4916	-0.150799
4912	-0.047278
4908	-0.015521
4904	0.061440
4900	0.182652
4896	0.341868
4892	0.507736
4888	0.396180
4884	0.210309
4880	0.336337
4876	0.547957
4872	0.576233
4868	0.396513
4864	0.220966
4860	0.143790
4856	0.040197
4852	-0.036597
4848	-0.108909
4844	-0.054788
4840	0.257229
4836	0.500154
4832	0.542902
4828	0.434470
4824	0.169062
4820	-0.097894
4816	-0.095176
4812	0.090098
4808	-0.061154
4804	-0.460839
4800	-0.494575
4796	-0.048422
4792	0.422763
4788	0.600743
4784	0.646281
4780	0.578093
4776	0.341105
4772	0.289654
4768	0.464367
4764	0.482583
4760	0.379276
4756	0.431585
4752	0.562596
4748	0.531697
4744	0.342845
4740	0.096130
4736	0.027680
4732	0.174117
4728	0.121760
4724	-0.122046
4720	-0.232338
4716	-0.021362
4712	0.279521
4708	0.358414
4704	0.146055
4700	-0.074791
4696	0.032424
4692	0.030708
4688	-0.005817
4684	0.336003
4680	0.565290
4676	0.224351
4672	-0.147581
4668	0.052738
4664	0.799536
4660	1.692914
4656	2.053332
4652	1.639628
4648	0.659990
4644	-0.315022
4640	-0.664281
4636	-0.596523
4632	-0.734448
4628	-1.112699
4624	-1.069188
4620	-0.445747
4616	0.400400
4612	1.397991
4608	1.725268
4604	1.475358
4600	1.623988
4596	1.468920
4592	0.859808
4588	0.614285
4584	0.640678
4580	0.556159
4576	0.311899
4572	-0.140571
4568	-0.604796
4564	-0.230574
4560	0.389957
4556	0.417208
4552	0.348281
4548	0.451779
4544	0.362086
4540	-0.382900
4536	-0.389957
4532	0.584173
4528	0.430870
4524	-0.541734
4520	-0.399041
4516	1.683878
4512	4.416275
4508	3.325152
4504	5.550193
4500	14.2694
4496	11.5039
4492	0.134348
4488	-3.404498
4484	-2.169108
4480	-1.054382
4476	-0.615143
4472	-0.859332
4468	-0.874996
4464	-0.672411
4460	-0.473666
4456	-0.473880
4452	-0.484275
4448	-0.552797
4444	-0.491619
4440	-0.003623
4436	0.381994
4432	0.461387
4428	0.528907
4424	0.565695
4420	0.479602
4416	0.430536
4412	0.552248
4408	0.478816
4404	0.139045
4400	0.156331
4396	0.515913
4392	0.686764
4388	0.483655
4384	0.301051
4380	0.397396
4376	0.460028
4372	0.407695
4368	0.392651
4364	0.608873
4360	0.934863
4356	0.972461
4352	0.672745
4348	0.380563
4344	0.314116
4340	0.274229
4336	0.245475
4332	0.325441
4328	0.311303
4324	0.121593
4320	0.017809
4316	0.139021
4312	0.278854
4308	0.341773
4304	0.436830
4300	0.437736
4296	0.282144
4292	0.228285
4288	0.194787
4284	0.012350
4280	-0.116968
4276	-0.187277
4272	-0.234079
4268	-0.212883
4264	-0.100588
4260	0.029706
4256	-0.093698
4252	-0.333547
4248	-0.353956
4244	-0.251650
4240	-0.127792
4236	0.070476
4232	0.225591
4228	0.356006
4224	0.426006
4220	0.304794
4216	0.214314
4212	0.238275
4208	0.267553
4204	0.307106
4200	0.399470
4196	0.401639
4192	0.042939
4188	-0.568032
4184	-0.999426
4180	-0.603032
4176	0.545334
4172	1.188731
4168	0.659751
4164	-0.085568
4160	-0.163507
4156	0.039458
4152	0.092387
4148	0.121068
4144	0.160789
4140	0.176906
4136	0.211095
4132	0.186753
4128	0.033450
4124	-0.086927
4120	-0.034952
4116	0.093317
4112	0.142407
4108	0.224924
4104	0.359630
4100	0.291752
4096	0.155472
4092	0.088739
4088	-0.000119
4084	-0.038313
4080	0.036740
4076	0.213909
4072	0.377583
4068	0.434470
4064	0.426554
4060	0.385403
4056	0.325250
4052	0.265312
4048	0.220942
4044	0.167441
4040	0.078296
4036	-0.035357
4032	-0.112318
4028	-0.060629
4024	-0.056481
4020	-0.169801
4016	-0.132751
4012	0.009322
4008	0.150513
4004	0.275921
4000	0.176858
3996	-0.020527
3992	-0.126171
3988	-0.141572
3984	-0.029087
3980	0.058889
3976	0.071072
3972	0.032877
3968	-0.010490
3964	0.016045
3960	0.081229
3956	0.104784
3952	0.055837
3948	-0.013446
3944	-0.024175
3940	0.048279
3936	0.019001
3932	-0.133609
3928	-0.166511
3924	-0.041246
3920	0.009036
3916	-0.097823
3912	-0.107622
3908	0.048732
3904	0.159597
3900	0.189161
3896	0.165414
3892	0.078272
3888	0.000143
3884	0.006294
3880	0.047659
3876	0.033497
3872	0.026416
3868	0.069928
3864	0.066542
3860	-0.007462
3856	-0.054788
3852	-0.075507
3848	-0.082182
3844	-0.040578
3840	0.007605
3836	0.001215
3832	-0.032377
3828	-0.005435
3824	0.141906
3820	0.320005
3816	0.243544
3812	0.041747
3808	0.046300
3804	0.106120
3800	0.084996
3796	0.080204
3792	0.127649
3788	0.121927
3784	0.026774
3780	0.022888
3776	0.078129
3772	0.049591
3768	0.004601
3764	-0.005388
3760	-0.010538
3756	-0.004792
3752	-0.017213
3748	-0.093293
3744	-0.124359
3740	-0.098276
3736	-0.067496
3732	0.026655
3728	0.070023
3724	-0.000357
3720	-0.032782
3716	-0.000071
3712	0.040793
3708	0.104308
3704	0.184106
3700	0.179696
3696	0.111532
3692	0.085639
3688	0.083899
3684	0.078344
3680	0.020861
3676	-0.054931
3672	0.020813
3668	0.147461
3664	0.117540
3660	0.074934
3656	0.117588
3652	0.092458
3648	0.041604
3644	0.047445
3640	0.062799
3636	0.101542
3632	0.108265
3628	0.090718
3624	0.100660
3620	0.093269
3616	0.116777
3612	0.193762
3608	0.227141
3604	0.130224
3600	-0.003218
3596	-0.025129
3592	-0.031733
3588	-0.075650
3584	-0.111603
3580	-0.118494
3576	-0.023412
3572	0.110054
3568	0.169420
3564	0.158119
3560	0.120210
3556	0.073742
3552	0.059151
3548	0.171208
3544	0.260424
3540	0.114655
3536	-0.023961
3532	0.027227
3528	0.109338
3524	0.140166
3520	0.149607
3516	0.156497
3512	0.154232
3508	0.159645
3504	0.141048
3500	0.066184
3496	0.000739
3492	0.004148
3488	0.060105
3484	0.067329
3480	-0.042915
3476	-0.145626
3472	-0.144100
3468	-0.047421
3464	0.123405
3460	0.218915
3456	0.170135
3452	0.097513
3448	0.077867
3444	0.095987
3440	0.025367
3436	-0.094079
3432	-0.084328
3428	0.012350
3424	0.067353
3420	0.073838
3416	0.037479
3412	0.067210
3408	0.185847
3404	0.211286
3400	0.121855
3396	0.019669
3392	0.002026
3388	0.110244
3384	0.207066
3380	0.149750
3376	0.019931
3372	-0.079751
3368	-0.108885
3364	-0.033926
3360	0.030493
3356	-0.008296
3352	0.013756
3348	0.132727
3344	0.082635
3340	-0.099396
3336	-0.148320
3332	-0.089740
3328	-0.041961
3324	-0.023055
3320	-0.023937
3316	0.027203
3312	0.070333
3308	-0.035023
3304	-0.134062
3300	-0.082182
3296	-0.017666
3292	-0.007271
3288	0.036597
3284	0.146245
3280	0.198078
3276	0.144839
3272	0.100517
3268	0.088191
3264	0.061655
3260	0.057554
3256	0.060486
3252	0.053644
3248	0.040125
3244	0.017237
3240	0.024485
3236	-0.002312
3232	-0.079274
3228	-0.100588
3224	-0.031590
3220	0.009274
3216	-0.096368
3212	-0.148940
3208	-0.034260
3204	0.052523
3200	0.089979
3196	0.119066
3192	0.071740
3188	-0.000452
3184	-0.006008
3180	-0.037145
3176	-0.111269
3172	-0.058698
3168	0.049757
3164	0.017213
3160	-0.025987
3156	0.023865
3152	0.024914
3148	0.048017
3144	0.147199
3140	0.106120
3136	0.011181
3132	0.149893
3128	0.269579
3124	0.128388
3120	0.123882
3116	0.301980
3112	0.236463
3108	-0.002002
3104	-0.106644
3100	-0.126266
3096	-0.142979
3092	-0.107645
3088	-0.043630
3084	0.009989
3080	0.016260
3076	-0.040602
3072	-0.087404
3068	-0.024890
3064	0.094342
3060	0.138783
3056	0.102519
3052	0.033283
3048	-0.008940
3044	-0.013518
3040	0.006008
3036	0.043368
3032	0.043153
3028	0.012803
3024	-0.019359
3020	-0.042653
3016	-0.058746
3012	-0.071430
3008	-0.058436
3004	-0.053024
3000	-0.066208
2996	-0.065803
2992	-0.023889
2988	0.011348
2984	-0.018811
2980	-0.033950
2976	-0.005078
2972	-0.016260
2968	-0.005865
2964	0.083446
2960	0.126504
2956	0.090217
2952	0.041842
2948	-0.020027
2944	0.002026
2940	0.177001
2936	0.271081
2932	0.128841
2928	-0.027108
2924	-0.052690
2920	-0.037240
2916	-0.018715
2912	-0.011229
2908	-0.010037
2904	-0.004053
2900	0.002312
2896	0.025916
2892	0.025486
2888	-0.011134
2884	-0.006628
2880	0.032019
2876	0.028800
2872	0.041532
2868	0.111007
2864	0.135993
2860	0.066280
2856	-0.010657
2852	0.036573
2848	0.102257
2844	0.023651
2840	-0.063538
2836	-0.019121
2832	0.086998
2828	0.143599
2824	0.118136
2820	0.056481
2816	0.035643
2812	0.063252
2808	0.061273
2804	0.039410
2800	0.029516
2796	0.022172
2792	0.056171
2788	0.098443
2784	0.059056
2780	-0.003290
2776	0.010180
2772	0.027632
2768	0.009703
2764	-0.009417
2760	-0.017929
2756	0.012588
2752	0.027346
2748	0.017166
2744	0.037074
2740	0.048589
2736	-0.003242
2732	-0.075721
2728	-0.062751
2724	0.048851
2720	0.136113
2716	0.127553
2712	0.087165
2708	0.032353
2704	-0.065016
2700	-0.111436
2696	-0.008654
2692	0.160384
2688	0.183749
2684	0.044965
2680	-0.039982
2676	-0.037908
2672	-0.020456
2668	0.035643
2664	0.065946
2660	0.031280
2656	0.018644
2652	0.047183
2648	0.071001
2644	0.067472
2640	0.054073
2636	0.051259
2632	0.084447
2628	0.130486
2624	0.128817
2620	0.121116
2616	0.129389
2612	0.107574
2608	0.054788
2604	0.013184
2600	-0.026440
2596	-0.124025
2592	-0.186657
2588	-0.122618
2584	-0.027632
2580	-0.000977
2576	-0.022149
2572	-0.054335
2568	-0.072097
2564	-0.056076
2560	-0.043988
2556	-0.006413
2552	0.066661
2548	0.032591
2544	-0.029230
2540	0.032734
2536	0.102901
2532	0.087118
2528	0.044679
2524	-0.007581
2520	-0.056052
2516	0.005865
2512	0.199604
2508	0.289106
2504	0.199031
2500	0.153279
2496	0.085735
2492	-0.102043
2488	-0.200152
2484	-0.132894
2480	-0.028920
2476	0.014424
2472	-0.015211
2468	-0.016689
2464	0.077748
2460	0.114703
2456	0.050783
2452	-0.012421
2448	-0.110220
2444	-0.116920
2440	0.005578
2436	-0.003504
2432	-0.063133
2428	-0.017619
2424	-0.077986
2420	-0.130748
2416	0.044536
2412	0.067663
2408	-0.182628
2404	-0.295686
2400	-0.167274
2396	-0.015377
2392	0.024318
2388	-0.000667
2384	0.009059
2380	0.052475
2376	0.095987
2372	0.151896
2368	0.177168
2364	0.157761
2360	0.168848
2356	0.181531
2352	0.154972
2348	0.160479
2344	0.210642
2340	0.275897
2336	0.329756
2332	0.334954
2328	0.323247
2324	0.338363
2320	0.381636
2316	0.447559
2312	0.480079
2308	0.464367
2304	0.451159
2300	0.475144
2296	0.561261
2292	0.672888
2288	0.753855
2284	0.837779
2280	0.969600
2276	1.067185
2272	1.111316
2268	1.191306
2264	1.317119
2260	1.503682
2256	1.728248
2252	1.895928
2248	2.014970
2244	2.136278
2240	2.268767
2236	2.431607
2232	2.615642
2228	2.810287
2224	3.005528
2220	3.203392
2216	3.438305
2212	3.690934
2208	3.945112
2204	4.204511
2200	4.497766
2196	4.846286
2192	5.190491
2188	5.515980
2184	5.840754
2180	6.127262
2176	6.382679
2172	6.700301
2168	7.140636
2164	7.641506
2160	8.042025
2156	8.333277
2152	8.759760
2148	9.302186
2144	9.709382
2140	10.0294
2136	10.4328
2132	10.8719
2128	11.2523
2124	11.6429
2120	12.0888
2116	12.5209
2112	12.9091
2108	13.3367
2104	13.8023
2100	14.2021
2096	14.5597
2092	14.9714
2088	15.4647
2084	15.9174
2080	16.2931
2076	16.6718
2072	17.0051
2068	17.3801
2064	17.8616
2060	18.3063
2056	18.7162
2052	19.0905
2048	19.4495
2044	19.8479
2040	20.1866
2036	20.4648
2032	20.7285
2028	21.0099
2024	21.3601
2020	21.7825
2016	22.1994
2012	22.5007
2008	22.7273
2004	22.9881
2000	23.2915
1996	23.5592
1992	23.7318
1988	23.9067
1984	24.1671
1980	24.3821
1976	24.5291
1972	24.7433
1968	25.009
1964	25.2568
1960	25.5203
1956	25.8054
1952	26.0429
1948	26.2298
1944	26.3747
1940	26.4977
1936	26.6047
1932	26.6305
1928	26.6486
1924	26.7494
1920	26.9497
1916	27.2144
1912	27.4756
1908	27.7061
1904	27.8751
1900	28.0097
1896	28.1491
1892	28.2537
1888	28.2993
1884	28.3196
1880	28.3196
1876	28.3012
1872	28.3312
1868	28.4079
1864	28.533
1860	28.7255
1856	28.9243
1852	29.0828
1848	29.2116
1844	29.3388
1840	29.4662
1836	29.5373
1832	29.5124
1828	29.4344
1824	29.393
1820	29.4145
1816	29.4044
1812	29.3965
1808	29.5231
1804	29.7271
1800	29.8681
1796	29.9677
1792	30.1224
1788	30.2974
1784	30.371
1780	30.3036
1776	30.2317
1772	30.2424
1768	30.2215
1764	30.1121
1760	30.0213
1756	30.0711
1752	30.2372
1748	30.3806
1744	30.5167
1740	30.7168
1736	30.8782
1732	30.8655
1728	30.7662
1724	30.7956
1720	30.8714
1716	30.7166
1712	30.3752
1708	30.1825
1704	30.2992
1700	30.5409
1696	30.6385
1692	30.6465
1688	30.7976
1684	31.0321
1680	31.1567
1676	31.2176
1672	31.2659
1668	31.2151
1664	31.0715
1660	30.9284
1656	30.9137
1652	30.9481
1648	30.8537
1644	30.7383
1640	30.7727
1636	30.9304
1632	31.1046
1628	31.2827
1624	31.4357
1620	31.5015
1616	31.463
1612	31.3871
1608	31.2886
1604	31.1022
1600	30.9681
1596	30.9618
1592	30.9458
1588	30.9119
1584	30.9361
1580	31.0543
1576	31.2457
1572	31.4204
1568	31.5334
1564	31.6576
1560	31.7944
1556	31.7982
1552	31.6645
1548	31.5133
1544	31.4187
1540	31.3182
1536	31.1539
1532	31.0037
1528	30.9656
1524	31.0508
1520	31.1879
1516	31.3777
1512	31.6311
1508	31.8568
1504	31.935
1500	31.9312
1496	31.9178
1492	31.7888
1488	31.6089
1484	31.4326
1480	31.2634
1476	31.1876
1472	31.1423
1468	31.1361
1464	31.2834
1460	31.4767
1456	31.5412
1452	31.545
1448	31.7317
1444	32.0526
1440	32.16
1436	31.9518
1432	31.6864
1428	31.5129
1424	31.3771
1420	31.2915
1416	31.2452
1412	31.2437
1408	31.3398
1404	31.4676
1400	31.6225
1396	31.8624
1392	32.0795
1388	32.1967
1384	32.234
1380	32.187
1376	32.0387
1372	31.7842
1368	31.517
1364	31.3329
1360	31.2112
1356	31.1731
1352	31.2791
1348	31.445
1344	31.6156
1340	31.8448
1336	32.0559
1332	32.1778
1328	32.2465
1324	32.2223
1320	32.0647
1316	31.8594
1312	31.7079
1308	31.5877
1304	31.4419
1300	31.3319
1296	31.2834
1292	31.3006
1288	31.4583
1284	31.6899
1280	31.9309
1276	32.1504
1272	32.2079
1268	32.1709
1264	32.1518
1260	31.9857
1256	31.6829
1252	31.4981
1248	31.5073
1244	31.5664
1240	31.5433
1236	31.5351
1232	31.6039
1228	31.7012
1224	31.8971
1220	32.1327
1216	32.2968
1212	32.398
1208	32.4043
1204	32.3523
1200	32.2495
1196	32.0158
1192	31.7107
1188	31.4862
1184	31.3667
1180	31.3658
1176	31.4944
1172	31.628
1168	31.7692
1164	31.9375
1160	32.0587
1156	32.1758
1152	32.2953
1148	32.3394
1144	32.2792
1140	32.0726
1136	31.8043
1132	31.6232
1128	31.4952
1124	31.3509
1120	31.2628
1116	31.37
1112	31.6422
1108	31.8537
1104	31.9513
1100	32.0727
1096	32.2903
1092	32.4655
1088	32.4117
1084	32.2045
1080	32.0322
1076	31.8846
1072	31.617
1068	31.3253
1064	31.2021
1060	31.2908
1056	31.5083
1052	31.6846
1048	31.6655
1044	31.5371
1040	31.711
1036	32.1214
1032	32.2656
1028	32.0936
1024	31.8511
1020	31.6356
1016	31.4776
1012	31.3873
1008	31.28
1004	31.1601
1000	31.1578
996	 31.2896
992	 31.4778
988	 31.6216
984	 31.7397
980	 31.9903
976	 32.2266
972	 32.2017
968	 32.0108
964	 31.7983
960	 31.5573
956	 31.2209
952	 30.8878
948	 30.7518
944	 30.7713
940	 30.8074
936	 30.8693
932	 31.0778
928	 31.4216
924	 31.6328
920	 31.6175
916	 31.5751
912	 31.5517
908	 31.4447
904	 31.3148
900	 31.1867
896	 30.9368
892	 30.6341
888	 30.3946
884	 30.3107
880	 30.3919
876	 30.4786
872	 30.6787
868	 30.9895
864	 31.201
860	 31.3372
856	 31.3503
852	 31.1332
848	 30.7661
844	 30.4719
840	 30.4703
836	 30.527
832	 30.3012
828	 29.962
824	 29.8312
820	 29.9271
816	 30.0402
812	 30.1075
808	 30.191
804	 30.407
800	 30.703
796	 30.8141
792	 30.6727
788	 30.4581
784	 30.3129
780	 30.1254
776	 29.7191
772	 29.2862
768	 29.1102
764	 29.1875
760	 29.2562
756	 29.0813
752	 29.1004
748	 29.5025
744	 29.8357
740	 30.1511
736	 30.3387
732	 29.9455
728	 29.3724
724	 28.9633
720	 28.5039
716	 28.2083
712	 28.2068
708	 28.2531
704	 28.3039
700	 28.3133
696	 28.2575
692	 28.4213
688	 28.707
684	 28.7503
680	 28.7905
676	 28.9745
672	 29.0225
668	 28.8536
664	 28.5137
660	 27.9782
656	 27.4331
652	 27.1489
648	 27.1578
644	 27.203
640	 27.0967
636	 27.1603
632	 27.2925
628	 27.2311
624	 27.2634
620	 27.5001
616	 27.7146
612	 27.5862
608	 27.166
604	 26.8841
600	 26.7312
596	 26.4168
592	 26.1187
588	 26.0133
584	 25.8997
580	 25.7787
576	 25.7776
572	 26.0635
568	 26.5088
564	 26.5552
560	 26.3849
556	 26.2426
552	 25.8392
548	 25.4213
544	 25.259
540	 25.2985
536	 25.1161
532	 24.6325
528	 24.535
524	 24.7902
520	 25.0862
516	 25.5268
512	 25.6146
508	 25.124
504	 24.9217
500	 25.1387
496	 25.1493
492	 24.9863
488	 24.5966
484	 24.1965
480	 24.378
476	 24.6308
472	 24.4313
468	 24.4453
464	 24.7112
460	 24.5929
456	 24.188
452	 23.8489
448	 23.7099
444	 23.3623
440	 22.9559
436	 22.9394
432	 22.0659
428	 19.879
424	 18.9389
420	 20.3075
416	 20.646
412	 18.1385
408	 18.2932
404	 25.5321
400	 28.383
396	 25.2584
392	 22.2586
388	 10.2719
384	 -10.2129
380	 -13.0084
376	 3.624057
372	 24.2482
370	 10.2085