File: Bakgrunnsmateriale/MATLAB/FTIR/ftir_data/LPE454/Mapping_121/LPE454_t117.asc
PE IR       SPECTRUM    SPECTRUM    ASCII       PEDS        1.60
  -1
LP9F0E~1.ASC
17/05/20
00:15:12.00
17/05/20
00:15:38.00
tln
$LPE454_t0117$<tbV0>[-2.6,13.0,8.0,0.0,27,1,0]
27.028
64

2002,4.07
MIRTGS : RIGHTBACK : INTERNAL 2
MIR : ON : INTERNAL 2
OPTKBR

0.200000
8
8.000000
FILLER
RATIO
SPECTRUM
UNLOCKED 256

DOUBLE
64
COMBINED
1
0
0

0.002000
RATIO

1
0
TRUE
51149
0
LEFT NOT FITTED RIGHT NOT FITTED 0
NONE
NONE
15600
12
4.427000
51148
TRUE
1 0 8 72 0 0 0 0

15798

#HDR
-1
-1
#GR
µM
%T
2.38419e-05
0.0
2.000000
0.002000
12515
8
45.1961
-3.195400
#DATA
2.000000	 0.232458
2.018000	 0.133630
2.036000	 0.204241
2.054000	 0.567909
2.072000	 0.180626
2.090000	 -0.162929
2.108000	 0.525153
2.126000	 0.605790
2.144000	 0.433577
2.162000	 -1.000890
2.180000	 4.119523
2.198000	 -1.610489
2.216000	 -0.454453
2.234000	 0.112365
2.252000	 0.547155
2.270000	 -0.030735
2.288000	 0.056932
2.306000	 0.125442
2.324000	 0.301981
2.342000	 0.071931
2.360000	 0.104007
2.378000	 0.362351
2.396000	 0.265839
2.414000	 0.169197
2.432000	 0.434940
2.450000	 0.780524
2.468000	 0.263168
2.486000	 0.124289
2.504000	 0.087913
2.522000	 0.106323
2.540000	 -0.097767
2.558000	 -0.027827
2.576000	 0.033668
2.594000	 0.095943
2.612000	 0.305726
2.630000	 0.193321
2.648000	 0.165728
2.666000	 0.201521
2.684000	 -0.018395
2.702000	 0.029149
2.720000	 0.208123
2.738000	 -0.063599
2.756000	 0.024033
2.774000	 -0.073243
2.792000	 0.071119
2.810000	 0.166779
2.828000	 0.122980
2.846000	 0.111323
2.864000	 0.137338
2.882000	 -0.014420
2.900000	 -0.011507
2.918000	 0.108910
2.936000	 0.172093
2.954000	 0.146049
2.972000	 0.013542
2.990000	 0.079578
3.008000	 0.040135
3.026000	 0.038764
3.044000	 -0.021142
3.062000	 0.070095
3.080000	 -0.005296
3.098000	 0.019762
3.116000	 -0.046671
3.134000	 0.220898
3.152000	 0.051026
3.170000	 0.055980
3.188000	 -0.020026
3.206000	 0.165602
3.224000	 0.165259
3.242000	 0.071081
3.260000	 0.087544
3.278000	 0.082491
3.296000	 0.199751
3.314000	 -0.006905
3.332000	 -0.041464
3.350000	 0.037591
3.368000	 0.030343
3.386000	 0.108589
3.404000	 0.159678
3.422000	 -0.111165
3.440000	 0.175705
3.458000	 -0.013888
3.476000	 0.000357
3.494000	 -0.019939
3.512000	 0.046417
3.530000	 0.043887
3.548000	 -0.035528
3.566000	 -0.002587
3.584000	 0.031213
3.602000	 0.032437
3.620000	 0.053391
3.638000	 -0.006190
3.656000	 0.142608
3.674000	 0.072535
3.692000	 0.001116
3.710000	 -0.080902
3.728000	 0.132806
3.746000	 0.005082
3.764000	 0.097152
3.782000	 0.129971
3.800000	 0.002336
3.818000	 0.171114
3.836000	 -0.009530
3.854000	 0.032356
3.872000	 0.061411
3.890000	 0.057039
3.908000	 0.015901
3.926000	 0.041751
3.944000	 0.104997
3.962000	 -0.052630
3.980000	 0.022209
3.998000	 0.127893
4.016000	 0.014221
4.034000	 0.049851
4.052000	 0.131470
4.070000	 0.112666
4.088000	 0.005482
4.106000	 -0.070543
4.124000	 0.026689
4.141999	 0.241450
4.160000	 0.058400
4.178000	 0.078624
4.196000	 0.023007
4.214000	 0.174348
4.232000	 0.212473
4.250000	 0.267863
4.268000	 0.418057
4.286000	 0.495329
4.304000	 0.472521
4.322000	 0.697652
4.340000	 0.843183
4.358000	 0.910083
4.375999	 1.284478
4.394000	 1.452827
4.412000	 1.767687
4.430000	 2.132224
4.448000	 2.448302
4.466000	 2.799956
4.484000	 3.254208
4.502000	 3.914230
4.520000	 4.521748
4.538000	 5.112771
4.556000	 5.839276
4.574000	 6.562711
4.592000	 7.267324
4.609999	 8.104395
4.628000	 8.905455
4.646000	 9.758602
4.664000	 10.4851
4.682000	 11.4582
4.700000	 12.3847
4.718000	 13.2684
4.736000	 14.0706
4.754000	 14.7904
4.772000	 15.497
4.790000	 16.3105
4.808000	 17.0775
4.826000	 17.7876
4.843999	 18.5499
4.862000	 19.2564
4.880000	 19.8109
4.898000	 20.3204
4.916000	 20.7863
4.934000	 21.3412
4.952000	 21.9957
4.970000	 22.4768
4.988000	 22.8611
5.006000	 23.2819
5.024000	 23.7659
5.042000	 24.1634
5.060000	 24.6056
5.077999	 24.9868
5.096000	 25.2259
5.114000	 25.4785
5.132000	 25.7522
5.150000	 26.0048
5.168000	 26.2833
5.186000	 26.5891
5.204000	 26.8629
5.222000	 27.1046
5.240000	 27.3164
5.258000	 27.5154
5.276000	 27.6599
5.294000	 27.7176
5.312000	 27.8745
5.330000	 28.1318
5.348000	 28.2933
5.366000	 28.4622
5.384000	 28.7335
5.402000	 28.8822
5.420000	 28.9835
5.438000	 29.0931
5.456000	 29.1167
5.474000	 29.1108
5.492000	 29.2555
5.510000	 29.3581
5.528000	 29.5061
5.546000	 29.6251
5.564000	 29.8396
5.582000	 30.0358
5.600000	 29.9894
5.618000	 29.9663
5.636000	 30.0115
5.654000	 30.0222
5.672000	 30.0455
5.690000	 30.0691
5.708000	 30.2466
5.726000	 30.4158
5.744000	 30.5516
5.762000	 30.6573
5.780000	 30.67
5.798000	 30.6162
5.816000	 30.6437
5.834000	 30.6668
5.852000	 30.5652
5.870000	 30.5756
5.888000	 30.6726
5.906000	 30.7605
5.923999	 30.8322
5.942000	 30.9455
5.960000	 31.0687
5.978000	 31.1071
5.996000	 31.144
6.014000	 31.186
6.032000	 31.1049
6.050000	 31.0374
6.068000	 30.9738
6.086000	 30.9962
6.104000	 31.1317
6.122000	 31.1579
6.140000	 31.2158
6.158000	 31.3723
6.176000	 31.4646
6.194000	 31.5328
6.212000	 31.5298
6.230000	 31.4036
6.248000	 31.2914
6.266000	 31.2364
6.284000	 31.2541
6.302000	 31.3103
6.320000	 31.3403
6.338000	 31.4146
6.356000	 31.4935
6.374000	 31.5515
6.392000	 31.6389
6.410000	 31.6756
6.428000	 31.6482
6.446000	 31.6086
6.464000	 31.5459
6.482000	 31.4986
6.500000	 31.4581
6.518000	 31.4284
6.536000	 31.3862
6.554000	 31.3377
6.572000	 31.3716
6.590000	 31.4555
6.608000	 31.5293
6.626000	 31.561
6.644000	 31.5552
6.662000	 31.5409
6.680000	 31.5265
6.698000	 31.5549
6.716000	 31.5952
6.734000	 31.593
6.752000	 31.577
6.770000	 31.5106
6.788000	 31.3747
6.806000	 31.2665
6.824000	 31.2656
6.842000	 31.3693
6.860000	 31.4985
6.878000	 31.5171
6.896000	 31.4315
6.914000	 31.4285
6.932000	 31.5353
6.950000	 31.6335
6.968000	 31.6771
6.986000	 31.6994
7.004000	 31.7273
7.022000	 31.705
7.040000	 31.5992
7.058000	 31.4885
7.076000	 31.4074
7.094000	 31.3354
7.112000	 31.2851
7.130000	 31.2836
7.148000	 31.3719
7.166000	 31.5142
7.184000	 31.6009
7.202000	 31.64
7.220000	 31.688
7.238000	 31.7148
7.256000	 31.711
7.274000	 31.7111
7.292000	 31.7096
7.310000	 31.6935
7.328000	 31.6501
7.346000	 31.5559
7.364000	 31.4456
7.382000	 31.3795
7.400000	 31.353
7.418000	 31.3473
7.436000	 31.3588
7.454000	 31.3522
7.472000	 31.3369
7.490000	 31.3878
7.508000	 31.4999
7.526000	 31.6006
7.544000	 31.6761
7.562000	 31.7454
7.580000	 31.7853
7.598000	 31.7696
7.616000	 31.7156
7.634000	 31.6611
7.652000	 31.624
7.670000	 31.5888
7.688000	 31.5358
7.706000	 31.4682
7.724000	 31.3914
7.742000	 31.2981
7.760000	 31.2017
7.778000	 31.1467
7.796000	 31.1624
7.814000	 31.2238
7.832000	 31.2734
7.850000	 31.2884
7.868000	 31.3086
7.886000	 31.3754
7.904000	 31.4649
7.922000	 31.5273
7.940000	 31.5621
7.958000	 31.6018
7.976000	 31.6481
7.994000	 31.6669
8.012000	 31.6339
8.030000	 31.5603
8.048000	 31.4796
8.065999	 31.4155
8.084000	 31.3577
8.102000	 31.2744
8.120000	 31.1608
8.138000	 31.0629
8.155999	 31.0354
8.173999	 31.0782
8.192000	 31.1396
8.210000	 31.1802
8.228000	 31.2071
8.246000	 31.2373
8.263999	 31.2643
8.282000	 31.2793
8.300000	 31.296
8.318000	 31.3275
8.336000	 31.3642
8.353999	 31.3912
8.372000	 31.4084
8.390000	 31.4204
8.408000	 31.4244
8.426000	 31.4144
8.443999	 31.3861
8.462000	 31.3363
8.480000	 31.2689
8.498000	 31.2023
8.516000	 31.1587
8.533999	 31.1427
8.552000	 31.1348
8.570000	 31.1089
8.588000	 31.0562
8.606000	 30.9927
8.624000	 30.9467
8.641999	 30.937
8.660000	 30.961
8.678000	 31.0023
8.696000	 31.0468
8.714000	 31.0905
8.731999	 31.1323
8.750000	 31.1674
8.768000	 31.1922
8.786000	 31.2099
8.804000	 31.224
8.821999	 31.2298
8.840000	 31.2213
8.858000	 31.2072
8.876000	 31.2041
8.894000	 31.209
8.911999	 31.1896
8.930000	 31.1181
8.948000	 31.0098
8.966000	 30.9124
8.984000	 30.8572
9.001999	 30.8347
9.020000	 30.824
9.038000	 30.824
9.056000	 30.8425
9.074000	 30.8648
9.092000	 30.8599
9.109999	 30.8207
9.128000	 30.7816
9.146000	 30.7835
9.164000	 30.8278
9.182000	 30.8777
9.199999	 30.9008
9.218000	 30.8988
9.236000	 30.8968
9.254000	 30.9151
9.272000	 30.9585
9.289999	 31.0228
9.308000	 31.0998
9.326000	 31.1726
9.344000	 31.2203
9.362000	 31.2316
9.379999	 31.2143
9.398000	 31.1857
9.416000	 31.1537
9.434000	 31.1105
9.452000	 31.045
9.469999	 30.957
9.488000	 30.8584
9.506000	 30.7615
9.524000	 30.6709
9.542000	 30.5839
9.560000	 30.499
9.577999	 30.4222
9.596000	 30.3659
9.614000	 30.3431
9.632000	 30.3583
9.650000	 30.4025
9.667999	 30.4559
9.686000	 30.4973
9.704000	 30.5163
9.722000	 30.5162
9.740000	 30.5116
9.757999	 30.5226
9.776000	 30.5678
9.794000	 30.6557
9.812000	 30.7773
9.830000	 30.907
9.847999	 31.0135
9.866000	 31.0741
9.884000	 31.0845
9.902000	 31.0563
9.920000	 31.0083
9.937999	 30.959
9.956000	 30.9219
9.974000	 30.9044
9.992000	 30.905
10.01	30.9114
10.028	30.9039
10.046	30.8656
10.064	30.7923
10.082	30.6947
10.1	30.5915
10.118	30.4986
10.136	30.4221
10.154	30.3601
10.172	30.3096
10.19	30.271
10.208	30.2475
10.226	30.2404
10.244	30.2465
10.262	30.2579
10.28	30.2668
10.298	30.269
10.316	30.2652
10.334	30.2602
10.352	30.26
10.37	30.2702
10.388	30.295
10.406	30.3354
10.424	30.388
10.442	30.4457
10.46	30.5011
10.478	30.5498
10.496	30.5922
10.514	30.631
10.532	30.6672
10.55	30.6975
10.568	30.7159
10.586	30.7166
10.604	30.6984
10.622	30.6641
10.64	30.6185
10.658	30.5647
10.676	30.5034
10.694	30.4347
10.712	30.3604
10.73	30.2846
10.748	30.2121
10.766	30.1464
10.784	30.0874
10.802	30.0329
10.82	29.9805
10.838	29.9295
10.856	29.8817
10.874	29.84
10.892	29.8066
10.91	29.7826
10.928	29.7677
10.946	29.7613
10.964	29.7637
10.982	29.7761
11	29.8012
11.018	29.8425
11.036	29.902
11.054	29.9787
11.072	30.0665
11.09	30.1537
11.108	30.2271
11.126	30.2755
11.144	30.2948
11.162	30.2906
11.18	30.2752
11.198	30.263
11.216	30.2643
11.234	30.2811
11.252	30.3076
11.27	30.3337
11.288	30.3489
11.306	30.3471
11.324	30.3269
11.342	30.291
11.36	30.2435
11.378	30.1889
11.396	30.1306
11.414	30.0715
11.432	30.0141
11.45	29.9604
11.468	29.9116
11.486	29.8677
11.504	29.8271
11.522	29.7884
11.54	29.7511
11.558	29.7158
11.576	29.684
11.594	29.6566
11.612	29.6331
11.63	29.6111
11.648	29.587
11.666	29.5579
11.684	29.5217
11.702	29.4788
11.72	29.432
11.738	29.3864
11.756	29.3487
11.774	29.3258
11.792	29.3242
11.81	29.3473
11.828	29.3951
11.846	29.4616
11.864	29.536
11.882	29.6057
11.9	29.658
11.918	29.6845
11.936	29.6837
11.954	29.6597
11.972	29.6223
11.99	29.5836
12.008	29.5556
12.026	29.5469
12.044	29.5613
12.062	29.5957
12.08	29.6411
12.098	29.6854
12.116	29.7163
12.134	29.7258
12.152	29.7126
12.17	29.6809
12.188	29.6396
12.206	29.5982
12.224	29.5641
12.242	29.5406
12.26	29.5269
12.278	29.5196
12.296	29.5142
12.314	29.507
12.332	29.4959
12.35	29.4797
12.368	29.4574
12.386	29.4279
12.404	29.39
12.422	29.3425
12.44	29.286
12.458	29.2221
12.476	29.1539
12.494	29.0851
12.512	29.0191
12.53	28.9589
12.548	28.906
12.566	28.8613
12.584	28.8251
12.602	28.7977
12.62	28.7795
12.638	28.7708
12.656	28.7721
12.674	28.7833
12.692	28.8037
12.71	28.8325
12.728	28.8688
12.746	28.9118
12.764	28.9605
12.782	29.0138
12.8	29.07
12.818	29.1271
12.836	29.1828
12.854	29.2345
12.872	29.2801
12.89	29.3178
12.908	29.3469
12.926	29.3669
12.944	29.3784
12.962	29.3825
12.98	29.381
12.998	29.3759
13.016	29.369
13.034	29.3619
13.052	29.3552
13.07	29.3485
13.088	29.3405
13.106	29.3293
13.124	29.3122
13.142	29.2876
13.16	29.2547
13.178	29.2147
13.196	29.1706
13.214	29.1263
13.232	29.0867
13.25	29.0555
13.268	29.0349
13.286	29.0249
13.304	29.0228
13.322	29.0239
13.34	29.0224
13.358	29.0124
13.376	28.9897
13.394	28.9516
13.412	28.8981
13.43	28.8316
13.448	28.7565
13.466	28.6777
13.484	28.6002
13.502	28.5274
13.52	28.4612
13.538	28.4018
13.556	28.3478
13.574	28.2976
13.592	28.2497
13.61	28.2033
13.628	28.1594
13.646	28.1199
13.664	28.0879
13.682	28.0665
13.7	28.0586
13.718	28.0661
13.736	28.09
13.754	28.1294
13.772	28.1819
13.79	28.2438
13.808	28.3106
13.826	28.3773
13.844	28.4388
13.862	28.4908
13.88	28.5299
13.898	28.5541
13.916	28.5631
13.934	28.558
13.952	28.5414
13.97	28.5168
13.988	28.4885
14.006	28.4605
14.024	28.4358
14.042	28.4164
14.06	28.4034
14.078	28.3964
14.096	28.3943
14.114	28.3955
14.132	28.3982
14.15	28.4006
14.168	28.4011
14.186	28.3983
14.204	28.3907
14.222	28.3774
14.24	28.3577
14.258	28.3311
14.276	28.2981
14.294	28.259
14.312	28.2152
14.33	28.168
14.348	28.1193
14.366	28.0709
14.384	28.0251
14.402	27.9838
14.42	27.9489
14.438	27.9222
14.456	27.9046
14.474	27.8972
14.492	27.9004
14.51	27.9141
14.528	27.9371
14.546	27.9675
14.564	28.0024
14.582	28.0384
14.6	28.0717
14.618	28.0981
14.636	28.1135
14.654	28.1149
14.672	28.1007
14.69	28.0709
14.708	28.0268
14.726	27.9712
14.744	27.9084
14.762	27.8435
14.78	27.7811
14.798	27.7254
14.816	27.6798
14.834	27.6462
14.852	27.6252
14.87	27.6156
14.888	27.6151
14.906	27.6208
14.924	27.6293
14.942	27.6372
14.96	27.6421
14.978	27.6426
14.996	27.638
15.014	27.6289
15.032	27.6167
15.05	27.6036
15.068	27.5915
15.086	27.5822
15.104	27.5772
15.122	27.5772
15.14	27.5824
15.158	27.5921
15.176	27.6054
15.194	27.6211
15.212	27.6373
15.23	27.6528
15.248	27.6665
15.266	27.6778
15.284	27.686
15.302	27.691
15.32	27.693
15.338	27.6927
15.356	27.6911
15.374	27.6894
15.392	27.6886
15.41	27.6899
15.428	27.6946
15.446	27.7038
15.464	27.7183
15.482	27.7384
15.5	27.7644
15.518	27.7955
15.536	27.8306
15.554	27.8687
15.572	27.9081
15.59	27.9467
15.608	27.9831
15.626	28.0157
15.644	28.0429
15.662	28.0639
15.68	28.0778
15.698	28.0844
15.716	28.0835
15.734	28.0752
15.752	28.0592
15.77	28.0358
15.788	28.0046
15.806	27.9658
15.824	27.9191
15.842	27.8647
15.86	27.8028
15.878	27.734
15.896	27.6589
15.914	27.5787
15.932	27.4949
15.95	27.4088
15.968	27.322
15.986	27.2364
16.004	27.1535
16.022	27.0747
16.04	27.001
16.058	26.933
16.076	26.8711
16.094	26.8157
16.112	26.7667
16.13	26.7244
16.148	26.6885
16.166	26.6593
16.184	26.6371
16.202	26.622
16.22	26.6144
16.238	26.6143
16.256	26.6215
16.274	26.6355
16.292	26.6548
16.31	26.6784
16.328	26.7034
16.346	26.7274
16.364	26.7483
16.382	26.7626
16.4	26.768
16.418	26.7629
16.436	26.7455
16.454	26.7161
16.472	26.6752
16.49	26.6247
16.508	26.5675
16.526	26.5057
16.544	26.4442
16.562	26.3859
16.58	26.3334
16.598	26.29
16.616	26.2562
16.634	26.2328
16.652	26.2188
16.67	26.2126
16.688	26.2127
16.706	26.2156
16.724	26.2194
16.742	26.2218
16.76	26.2209
16.778	26.2163
16.796	26.2078
16.814	26.1965
16.832	26.1828
16.85	26.1696
16.868	26.1583
16.886	26.1504
16.904	26.1485
16.922	26.1531
16.94	26.165
16.958	26.1844
16.976	26.2108
16.994	26.2432
17.012	26.2803
17.03	26.3213
17.048	26.3643
17.066	26.4089
17.084	26.4539
17.102	26.4989
17.12	26.5435
17.138	26.5876
17.156	26.6313
17.174	26.6747
17.192	26.7176
17.21	26.7599
17.228	26.8008
17.246	26.8399
17.264	26.8766
17.282	26.91
17.3	26.9397
17.318	26.9651
17.336	26.9858
17.354	27.0017
17.372	27.0128
17.39	27.0195
17.408	27.0222
17.426	27.0217
17.444	27.0183
17.462	27.0132
17.48	27.0066
17.498	26.9994
17.516	26.992
17.534	26.9845
17.552	26.9773
17.57	26.9705
17.588	26.9638
17.606	26.957
17.624	26.9499
17.642	26.9418
17.66	26.9323
17.678	26.9207
17.696	26.9067
17.714	26.8893
17.732	26.8682
17.75	26.8431
17.768	26.8135
17.786	26.7792
17.804	26.7403
17.822	26.6966
17.84	26.6484
17.858	26.5958
17.876	26.5392
17.894	26.479
17.912	26.4153
17.93	26.3491
17.948	26.2807
17.966	26.2107
17.984	26.1393
18.002	26.0671
18.02	25.9944
18.038	25.9215
18.056	25.8488
18.074	25.7766
18.092	25.7055
18.11	25.6355
18.128	25.5674
18.146	25.5013
18.164	25.4379
18.182	25.3776
18.2	25.3209
18.218	25.2683
18.236	25.2201
18.254	25.1767
18.272	25.1382
18.29	25.1045
18.308	25.0755
18.326	25.0506
18.344	25.0299
18.362	25.0126
18.38	24.9986
18.398	24.9873
18.416	24.9786
18.434	24.9718
18.452	24.9667
18.47	24.9632
18.488	24.9607
18.506	24.9592
18.524	24.9583
18.542	24.9581
18.56	24.958
18.578	24.958
18.596	24.9575
18.614	24.9566
18.632	24.9545
18.65	24.9512
18.668	24.9466
18.686	24.9405
18.704	24.9333
18.722	24.9251
18.74	24.9167
18.758	24.9083
18.776	24.9007
18.794	24.8944
18.812	24.891
18.83	24.8909
18.848	24.8958
18.866	24.9064
18.884	24.9246
18.902	24.9506
18.92	24.986
18.938	25.0309
18.956	25.0863
18.974	25.1515
18.992	25.2269
19.01	25.3112
19.028	25.4037
19.046	25.5029
19.064	25.6069
19.082	25.714
19.1	25.8212
19.118	25.9269
19.136	26.0273
19.154	26.1213
19.172	26.205
19.19	26.278
19.208	26.3366
19.226	26.3811
19.244	26.409
19.262	26.4209
19.28	26.416
19.298	26.3948
19.316	26.3589
19.334	26.3084
19.352	26.2467
19.37	26.1735
19.388	26.0932
19.406	26.0055
19.424	25.915
19.442	25.8216
19.46	25.7294
19.478	25.6385
19.496	25.5522
19.514	25.4716
19.532	25.3981
19.55	25.3328
19.568	25.2768
19.586	25.2316
19.604	25.1978
19.622	25.1773
19.64	25.1701
19.658	25.1784
19.676	25.202
19.694	25.2424
19.712	25.2996
19.73	25.3737
19.748	25.4649
19.766	25.5713
19.784	25.6934
19.802	25.8274
19.82	25.9723
19.838	26.1248
19.856	26.2808
19.874	26.4388
19.892	26.5906
19.91	26.737
19.928	26.8679
19.946	26.9844
19.964	27.0783
19.982	27.1488
20	27.1924
20.018	27.2062
20.036	27.1909
20.054	27.1446
20.072	27.0686
20.09	26.9654
20.108	26.8347
20.126	26.6838
20.144	26.5118
20.162	26.3266
20.18	26.1306
20.198	25.928
20.216	25.7263
20.234	25.5248
20.252	25.3322
20.27	25.1472
20.288	24.9753
20.306	24.8172
20.324	24.6734
20.342	24.5452
20.36	24.4313
20.378	24.3309
20.396	24.2439
20.414	24.1656
20.432	24.0969
20.45	24.0334
20.468	23.9735
20.486	23.9158
20.504	23.856
20.522	23.7949
20.54	23.7284
20.558	23.6565
20.576	23.5782
20.594	23.4926
20.612	23.3999
20.63	23.2995
20.648	23.1914
20.666	23.0782
20.684	22.9595
20.702	22.8374
20.72	22.713
20.738	22.587
20.756	22.4643
20.774	22.3437
20.792	22.23
20.81	22.1232
20.828	22.026
20.846	21.9425
20.864	21.8716
20.882	21.8183
20.9	21.7818
20.918	21.7648
20.936	21.7694
20.954	21.7948
20.972	21.8429
20.99	21.9137
21.008	22.0062
21.026	22.121
21.044	22.2567
21.062	22.4105
21.08	22.5836
21.098	22.77
21.116	22.9696
21.134	23.1795
21.152	23.3927
21.17	23.6116
21.188	23.8268
21.206	24.0379
21.224	24.2415
21.242	24.43
21.26	24.6058
21.278	24.7614
21.296	24.8956
21.314	25.0078
21.332	25.0934
21.35	25.1536
21.368	25.1881
21.386	25.1957
21.404	25.1783
21.422	25.1387
21.44	25.0755
21.458	24.9949
21.476	24.8985
21.494	24.7874
21.512	24.6703
21.53	24.5445
21.548	24.4172
21.566	24.2936
21.584	24.172
21.602	24.0606
21.62	23.9588
21.638	23.8688
21.656	23.7952
21.674	23.7364
21.692	23.6937
21.71	23.6683
21.728	23.6588
21.746	23.6642
21.764	23.6854
21.782	23.7189
21.8	23.7629
21.818	23.818
21.836	23.8789
21.854	23.9459
21.872	24.0172
21.89	24.0883
21.908	24.1608
21.926	24.2318
21.944	24.2991
21.962	24.3638
21.98	24.4241
21.998	24.4796
22.016	24.5307
22.034	24.5771
22.052	24.6185
22.07	24.6561
22.088	24.6905
22.106	24.7212
22.124	24.7499
22.142	24.7766
22.16	24.8015
22.178	24.8257
22.196	24.8493
22.214	24.8721
22.232	24.8943
22.25	24.9159
22.268	24.9367
22.286	24.9566
22.304	24.9756
22.322	24.9934
22.34	25.0099
22.358	25.0251
22.376	25.0391
22.394	25.0516
22.412	25.0632
22.43	25.0743
22.448	25.0845
22.466	25.0948
22.484	25.1061
22.502	25.1179
22.52	25.1314
22.538	25.1472
22.556	25.1648
22.574	25.1851
22.592	25.2084
22.61	25.2343
22.628	25.2614
22.646	25.2908
22.664	25.3208
22.682	25.3488
22.7	25.3766
22.718	25.4008
22.736	25.4173
22.754	25.429
22.772	25.4305
22.79	25.4174
22.808	25.3928
22.826	25.3507
22.844	25.2875
22.862	25.2056
22.88	25.1012
22.898	24.9721
22.916	24.8199
22.934	24.6441
22.952	24.4434
22.97	24.2191
22.988	23.9749
23.006	23.7098
23.024	23.4251
23.042	23.1286
23.06	22.8191
23.078	22.4984
23.096	22.1765
23.114	21.852
23.132	21.5267
23.15	21.2116
23.168	20.9049
23.186	20.6084
23.204	20.3318
23.222	20.0742
23.24	19.8359
23.258	19.6235
23.276	19.437
23.294	19.2756
23.312	19.141
23.33	19.0343
23.348	18.9538
23.366	18.8964
23.384	18.8636
23.402	18.8536
23.42	18.8606
23.438	18.8861
23.456	18.9284
23.474	18.9791
23.492	19.0386
23.51	19.1067
23.528	19.1735
23.546	19.2373
23.564	19.3001
23.582	19.3536
23.6	19.3949
23.618	19.4269
23.636	19.4442
23.654	19.4439
23.672	19.428
23.69	19.3958
23.708	19.3461
23.726	19.2789
23.744	19.1968
23.762	19.1012
23.78	18.9897
23.798	18.8677
23.816	18.7406
23.834	18.6043
23.852	18.464
23.87	18.3278
23.888	18.1925
23.906	18.0606
23.924	17.9398
23.942	17.8304
23.96	17.7312
23.978	17.6468
23.996	17.5794
24.014	17.5271
24.032	17.4907
24.05	17.4715
24.068	17.4698
24.086	17.4821
24.104	17.5063
24.122	17.5457
24.14	17.5947
24.158	17.6459
24.176	17.7034
24.194	17.7636
24.212	17.8165
24.23	17.8614
24.248	17.9006
24.266	17.9251
24.284	17.9298
24.302	17.9193
24.32	17.8888
24.338	17.8332
24.356	17.7547
24.374	17.6529
24.392	17.5261
24.41	17.3724
24.428	17.1942
24.446	16.9955
24.464	16.7769
24.482	16.5365
24.5	16.2807
24.518	16.0139
24.536	15.7305
24.554	15.4381
24.572	15.1473
24.59	14.8535
24.608	14.5588
24.626	14.2758
24.644	14.009
24.662	13.7515
24.68	13.5151
24.698	13.311
24.716	13.1321
24.734	12.9827
24.752	12.8717
24.77	12.7994
24.788	12.7633
24.806	12.7689
24.824	12.8204
24.842	12.9155
24.86	13.0536
24.878	13.2348
24.896	13.4606
24.914	13.7291
24.932	14.0371
24.95	14.3838
24.968	14.7715
24.986	15.1943
25.004	15.6459
25.022	16.1304
25.04	16.6451
25.058	17.1824
25.076	17.7397
25.094	18.3214
25.112	18.9202
25.13	19.5287
25.148	20.1512
25.166	20.7854
25.184	21.4243
25.202	22.0652
25.22	22.7121
25.238	23.3598
25.256	24.0026
25.274	24.6438
25.292	25.2821
25.31	25.9115
25.328	26.5291
25.346	27.1393
25.364	27.7369
25.382	28.3162
25.4	28.8794
25.418	29.4266
25.436	29.9515
25.454	30.4495
25.472	30.9256
25.49	31.3759
25.508	31.7947
25.526	32.1799
25.544	32.5345
25.562	32.8577
25.58	33.1487
25.598	33.4053
25.616	33.6307
25.634	33.8294
25.652	34.0026
25.67	34.1445
25.688	34.2655
25.706	34.3777
25.724	34.4784
25.742	34.5642
25.76	34.6503
25.778	34.7503
25.796	34.8533
25.814	34.9647
25.832	35.1
25.85	35.2696
25.868	35.4628
25.886	35.6856
25.904	35.9465
25.922	36.2494
25.94	36.5894
25.958	36.9664
25.976	37.3802
25.994	37.8377
26.012	38.3334
26.03	38.8542
26.048	39.3895
26.066	39.9546
26.084	40.5372
26.102	41.1157
26.12	41.6788
26.138	42.2482
26.156	42.801
26.174	43.3088
26.192	43.7653
26.21	44.1909
26.228	44.5587
26.246	44.84
26.264	45.0373
26.282	45.1623
26.3	45.194
26.318	45.1115
26.336	44.9205
26.354	44.626
26.372	44.2193
26.39	43.692
26.408	43.0415
26.426	42.276
26.444	41.4046
26.462	40.4334
26.48	39.3461
26.498	38.1593
26.516	36.8978
26.534	35.577
26.552	34.167
26.57	32.6955
26.588	31.2009
26.606	29.7041
26.624	28.1665
26.642	26.622
26.66	25.1141
26.678	23.664
26.696	22.2322
26.714	20.8514
26.732	19.5619
26.75	18.3823
26.768	17.2791
26.786	16.2765
26.804	15.4033
26.822	14.6745
26.84	14.0691
26.858	13.5949
26.876	13.2623
26.894	13.0797
26.912	13.0425
26.93	13.1424
26.948	13.3709
26.966	13.7719
26.984	14.4227
27.002	15.1377
27.02	15.7145
27.028	15.8589