File: Bakgrunnsmateriale/MATLAB/FTIR/ftir_data/LPE454/Mapping_121/LPE454_t03_cm-1.asc
PE IR       SPECTRUM    SPECTRUM    ASCII       PEDS        1.60
  -1
LP5730~1.ASC
17/05/19
14:38:34.00
17/05/19
14:38:34.00
tln
$LPE454_t0003$<tbV0>[7.8,-13.0,8.0,0.0,27,1,0]
370
64

2002,4.07
MIRTGS : RIGHTBACK : INTERNAL 2
MIR : ON : INTERNAL 2
OPTKBR

0.200000
8
8.000000
FILLER
RATIO
SPECTRUM
UNLOCKED 256

DOUBLE
64
COMBINED
1
0
0

1.000000
RATIO

1
0
TRUE
51149
0
LEFT NOT FITTED RIGHT NOT FITTED 0
NONE
NONE
15600
12
4.427000
51148
TRUE
1 0 8 72 0 0 0 0

15798

#HDR
-1
-1
#GR
CM-1
%T
2.38419e-05
0.0
5000
-1.000000
4631
8
42.4808
-30.9342
#DATA
5000	-0.401926
4996	-0.283575
4992	0.045204
4988	0.403714
4984	0.326657
4980	0.048065
4976	0.150680
4972	0.508642
4968	0.431609
4964	0.073766
4960	0.080823
4956	0.395703
4952	0.592970
4948	0.339889
4944	-0.141286
4940	-0.426411
4936	-0.466084
4932	-0.433206
4928	-0.534772
4924	-0.388503
4920	0.094437
4916	0.295782
4912	0.275588
4908	0.267267
4904	0.380349
4900	0.619244
4896	0.612950
4892	0.663280
4888	1.028418
4884	1.124167
4880	1.204442
4876	1.258993
4872	1.051282
4868	1.394557
4864	1.877236
4860	1.801586
4856	1.620888
4852	1.059198
4848	0.229644
4844	0.299572
4840	0.797104
4836	0.963878
4832	1.047587
4828	0.718665
4824	0.163316
4820	0.147032
4816	0.497913
4812	1.059341
4808	1.602649
4804	1.509165
4800	0.941944
4796	0.380897
4792	0.298976
4788	0.404262
4784	0.137972
4780	0.028419
4776	0.281834
4772	0.413274
4768	0.321054
4764	0.189828
4760	0.142145
4756	0.021219
4752	-0.182580
4748	-0.038313
4744	0.320243
4740	0.283551
4736	-0.047063
4732	-0.224280
4728	-0.094175
4724	0.283336
4720	0.443744
4716	0.230002
4712	-0.003290
4708	-0.057864
4704	0.095319
4700	0.165915
4696	-0.005388
4692	-0.104355
4688	-0.045704
4684	0.122189
4680	0.349426
4676	0.380063
4672	0.176334
4668	0.020742
4664	-0.068783
4660	-0.202393
4656	-0.142335
4652	0.105762
4648	0.283432
4644	0.362443
4640	0.373315
4636	0.357389
4632	0.341343
4628	0.399374
4624	0.391626
4620	0.279808
4616	0.296139
4612	0.299453
4608	0.269484
4604	0.477957
4600	0.612139
4596	0.499105
4592	0.374865
4588	0.198268
4584	0.165915
4580	0.254797
4576	0.155663
4572	0.131201
4568	0.372266
4564	0.503993
4560	0.327682
4556	0.075244
4552	-0.033998
4548	-0.102806
4544	0.026631
4540	0.329089
4536	0.173807
4532	-0.122380
4528	-0.005054
4524	0.180339
4520	0.316762
4516	0.050687
4512	-0.597167
4508	-0.888705
4504	-0.783991
4500	-0.662994
4496	-0.551080
4492	-0.608205
4488	-0.408315
4484	0.328397
4480	0.814461
4476	1.682043
4472	3.236556
4468	5.446863
4464	11.2632
4460	15.9201
4456	11.857
4452	5.122542
4448	0.999402
4444	-0.567865
4440	-0.584149
4436	-0.606679
4432	-0.590419
4428	-0.795269
4424	-1.281452
4420	-1.073336
4416	-0.617027
4412	-0.700545
4408	-0.707483
4404	-0.496816
4400	-0.475072
4396	-0.617313
4392	-0.678062
4388	-0.736379
4384	-0.830674
4380	-0.804948
4376	-0.711321
4372	-0.460577
4368	-0.123095
4364	0.046038
4360	0.087761
4356	0.165319
4352	0.264096
4348	0.223970
4344	0.171828
4340	0.292158
4336	0.384449
4332	0.288367
4328	0.113296
4324	0.119495
4320	0.223779
4316	0.149512
4312	0.117993
4308	0.205802
4304	0.242018
4300	0.164914
4296	0.042819
4292	-0.003290
4288	0.001716
4284	-0.019812
4280	-0.044989
4276	-0.154280
4272	-0.268411
4268	-0.131893
4264	0.148105
4260	0.290083
4256	0.384664
4252	0.652742
4248	0.843811
4244	0.643754
4240	0.272440
4236	0.080442
4232	-0.034642
4228	-0.301194
4224	-0.380229
4220	-0.076246
4216	0.190901
4212	0.259447
4208	0.278639
4204	0.379776
4200	0.499200
4196	0.610351
4192	0.733160
4188	0.762224
4184	0.778412
4180	0.672316
4176	0.264167
4172	-0.114059
4168	-0.043630
4164	0.130605
4160	0.016093
4156	-0.069022
4152	0.051379
4148	0.250864
4144	0.251340
4140	0.032997
4136	0.069832
4132	0.348401
4128	0.389337
4124	0.214743
4120	0.103187
4116	-0.014686
4112	-0.087690
4108	0.036072
4104	0.193667
4100	0.248217
4096	0.180673
4092	0.109624
4088	0.108957
4084	0.101733
4080	0.190639
4076	0.348830
4072	0.301885
4068	0.175237
4064	0.266504
4060	0.402235
4056	0.320625
4052	-0.008654
4048	-0.271511
4044	-0.088024
4040	0.240778
4036	0.289368
4032	0.186538
4028	0.092458
4024	0.100398
4020	0.142884
4016	-0.018239
4012	-0.236701
4008	-0.222229
4004	-0.177764
4000	-0.214076
3996	-0.147867
3992	-0.038599
3988	0.028729
3984	0.065350
3980	0.110507
3976	0.182175
3972	0.153946
3968	0.014448
3964	-0.025749
3960	0.063085
3956	0.066018
3952	0.047397
3948	0.099778
3944	0.136518
3940	0.165009
3936	0.175762
3932	0.138068
3928	0.062227
3924	-0.019741
3920	-0.056767
3916	-0.008893
3912	0.078821
3908	0.107789
3904	0.096035
3900	0.167202
3896	0.262618
3892	0.194859
3888	0.027513
3884	-0.109720
3880	-0.138545
3876	0.007629
3872	0.139689
3868	0.092363
3864	-0.024867
3860	-0.117015
3856	-0.205039
3852	-0.174355
3848	0.040626
3844	0.218105
3840	0.255560
3836	0.253582
3832	0.180482
3828	0.017666
3824	0.117778
3820	0.329184
3816	0.255942
3812	0.108218
3808	0.020408
3804	-0.017046
3800	-0.111699
3796	-0.198006
3792	-0.111770
3788	-0.053262
3784	-0.028324
3780	0.028872
3776	0.045013
3772	0.044751
3768	0.048875
3764	0.039339
3760	0.012755
3756	0.000047
3752	0.012779
3748	0.054287
3744	0.135517
3740	0.239372
3736	0.249290
3732	0.120282
3728	-0.013399
3724	-0.119137
3720	-0.176310
3716	-0.115633
3712	-0.031542
3708	0.016236
3704	0.078725
3700	0.121235
3696	0.093007
3692	0.028610
3688	0.028634
3684	0.096726
3680	0.107884
3676	0.102877
3672	0.181698
3668	0.234007
3664	0.195693
3660	0.116610
3656	0.084328
3652	0.157046
3648	0.188517
3644	0.149917
3640	0.197029
3636	0.232243
3632	0.153112
3628	0.104928
3624	0.073075
3620	0.031399
3616	0.091624
3612	0.191974
3608	0.277972
3604	0.319075
3600	0.224065
3596	0.078296
3592	-0.013995
3588	-0.103545
3584	-0.137376
3580	-0.103020
3576	-0.087499
3572	-0.073790
3568	-0.053739
3564	-0.028181
3560	-0.021362
3556	-0.066828
3552	-0.106430
3548	-0.003457
3544	0.123071
3540	0.092172
3536	0.063252
3532	0.101113
3528	0.004959
3524	-0.174212
3520	-0.135302
3516	0.079035
3512	0.218296
3508	0.197958
3504	0.038862
3500	-0.075006
3496	-0.016450
3492	0.092458
3488	0.137376
3484	0.148844
3480	0.198292
3476	0.283455
3472	0.318098
3468	0.225067
3464	0.085854
3460	-0.006055
3456	-0.044178
3452	-0.040936
3448	-0.057697
3444	-0.073361
3440	-0.052523
3436	-0.012969
3432	0.021600
3428	0.010561
3424	-0.011563
3420	-0.038170
3416	-0.078654
3412	-0.078964
3408	-0.066924
3404	-0.028443
3400	-0.011968
3396	-0.042295
3392	0.005555
3388	0.054717
3384	0.076460
3380	0.109338
3376	0.142264
3372	0.201678
3368	0.149464
3364	-0.018072
3360	-0.071048
3356	0.018763
3352	0.092411
3348	0.069475
3344	0.028944
3340	0.040531
3336	0.061774
3332	0.066924
3328	0.095224
3324	0.110507
3320	0.053238
3316	0.002241
3312	0.015664
3308	0.063633
3304	0.097084
3300	0.083732
3296	0.054812
3292	0.063014
3288	0.035262
3284	-0.059700
3280	-0.084495
3276	-0.053668
3272	-0.054526
3268	-0.010037
3264	0.089716
3260	0.122380
3256	0.052785
3252	-0.055813
3248	-0.120997
3244	-0.101470
3240	-0.034141
3236	0.010013
3232	0.019240
3228	0.028324
3224	0.025463
3220	0.002193
3216	0.010490
3212	0.032973
3208	0.049543
3204	0.142669
3200	0.229787
3196	0.180673
3192	0.101661
3188	0.087642
3184	0.104284
3180	0.146532
3176	0.215363
3172	0.295209
3168	0.313186
3164	0.183558
3160	0.065946
3156	0.082707
3152	0.073313
3148	0.010514
3144	-0.008082
3140	0.089001
3136	0.263023
3132	0.329256
3128	0.221776
3124	0.083088
3120	0.088715
3116	0.122404
3112	0.063371
3108	-0.007963
3104	-0.056481
3100	-0.077342
3096	-0.106525
3092	-0.121545
3088	-0.062489
3084	-0.004220
3080	-0.033283
3076	-0.081133
3072	-0.061273
3068	-0.002670
3064	0.021553
3060	0.015950
3056	0.043129
3052	0.035572
3048	-0.040054
3044	-0.046992
3040	0.016856
3036	0.046253
3032	0.054430
3028	0.087714
3024	0.124192
3020	0.106310
3016	0.015735
3012	-0.059700
3008	-0.066781
3004	-0.028610
3000	0.038194
2996	0.062513
2992	0.004386
2988	-0.050997
2984	-0.009298
2980	0.041270
2976	-0.003576
2972	-0.036191
2968	0.034618
2964	0.153231
2960	0.195050
2956	0.124335
2952	0.079250
2948	0.129842
2944	0.205421
2940	0.175905
2936	0.020813
2932	-0.006031
2928	0.105905
2924	0.101542
2920	0.038933
2916	0.043058
2912	0.090789
2908	0.112175
2904	0.102877
2900	0.062608
2896	-0.013971
2892	0.023770
2888	0.114679
2884	0.071310
2880	0.006008
2876	0.047492
2872	0.096130
2868	0.078773
2864	0.031757
2860	-0.027775
2856	-0.058436
2852	0.006222
2848	0.102138
2844	0.143337
2840	0.098204
2836	-0.015354
2832	-0.062847
2828	-0.012493
2824	0.031542
2820	0.014829
2816	-0.044655
2812	-0.043106
2808	0.009942
2804	0.007891
2800	-0.029253
2796	-0.023484
2792	0.066304
2788	0.142765
2784	0.101113
2780	0.042819
2776	0.081038
2772	0.134491
2768	0.106382
2764	0.034141
2760	-0.026011
2756	-0.073575
2752	-0.129580
2748	-0.131154
2744	-0.040435
2740	0.052523
2736	0.078773
2732	0.078392
2728	0.060820
2724	0.001311
2720	-0.020217
2716	-0.010633
2712	-0.045442
2708	-0.026464
2704	0.055718
2700	0.078105
2696	0.057458
2692	0.049281
2688	0.040125
2684	0.049328
2680	0.099921
2676	0.085568
2672	-0.005149
2668	-0.023436
2664	0.014185
2660	0.021433
2656	0.022816
2652	0.045824
2648	0.017690
2644	-0.036358
2640	0.015091
2636	0.073432
2632	0.036025
2628	0.020027
2624	0.015377
2620	-0.016260
2616	0.023889
2612	0.094151
2608	0.129246
2604	0.127983
2600	0.093317
2596	0.086355
2592	0.086092
2588	0.080561
2584	0.075793
2580	0.034880
2576	0.007677
2572	0.017309
2568	0.025916
2564	0.003719
2560	-0.005245
2556	0.019574
2552	0.000095
2548	-0.035119
2544	-0.005578
2540	0.038123
2536	0.067305
2532	0.076580
2528	0.032544
2524	-0.032734
2520	-0.037097
2516	0.014162
2512	0.004863
2508	-0.013470
2504	0.070166
2500	0.142073
2496	0.064516
2492	-0.015854
2488	0.010108
2484	0.026965
2480	0.075602
2476	0.134634
2472	0.094580
2468	0.046396
2464	0.072336
2460	0.142049
2456	0.163149
2452	0.113296
2448	0.085830
2444	0.082516
2440	0.067687
2436	0.121212
2432	0.284934
2428	0.326824
2424	0.108122
2420	0.022530
2416	0.199341
2412	0.222253
2408	0.108814
2404	0.128149
2400	0.175070
2396	0.190234
2392	0.233268
2388	0.218796
2384	0.164079
2380	0.161457
2376	0.197625
2372	0.233554
2368	0.227117
2364	0.230002
2360	0.306606
2356	0.358819
2352	0.341320
2348	0.324654
2344	0.384449
2340	0.534844
2336	0.628900
2332	0.604701
2328	0.578832
2324	0.588726
2320	0.595068
2316	0.581312
2312	0.618124
2308	0.760817
2304	0.918602
2300	1.035356
2296	1.163244
2292	1.318931
2288	1.458644
2284	1.553630
2280	1.635622
2276	1.770281
2272	1.931190
2268	2.072310
2264	2.233934
2260	2.438688
2256	2.665996
2252	2.890825
2248	3.099918
2244	3.288340
2240	3.497171
2236	3.741240
2232	4.015970
2228	4.336786
2224	4.648089
2220	4.922628
2216	5.226111
2212	5.564785
2208	5.883359
2204	6.212019
2200	6.582689
2196	6.999278
2192	7.444000
2188	7.866072
2184	8.258390
2180	8.684110
2176	9.191894
2172	9.676933
2168	10.0841
2164	10.5413
2160	11.0671
2156	11.5602
2152	12.0845
2148	12.6023
2144	13.011
2140	13.4906
2136	14.06
2132	14.5068
2128	14.8979
2124	15.3969
2120	15.9566
2116	16.4839
2112	16.9463
2108	17.3703
2104	17.8229
2100	18.3205
2096	18.8303
2092	19.4039
2088	20.0461
2084	20.5871
2080	20.97
2076	21.3201
2072	21.7868
2068	22.356
2064	22.7672
2060	23.009
2056	23.3786
2052	23.9084
2048	24.3597
2044	24.6939
2040	25.0588
2036	25.4509
2032	25.86
2028	26.3127
2024	26.7315
2020	27.0465
2016	27.2781
2012	27.5189
2008	27.7742
2004	28.0319
2000	28.3167
1996	28.5931
1992	28.8893
1988	29.2366
1984	29.5707
1980	29.8749
1976	30.1902
1972	30.5019
1968	30.7837
1964	30.9918
1960	31.1357
1956	31.2688
1952	31.3813
1948	31.4912
1944	31.5977
1940	31.7079
1936	31.8738
1932	32.1001
1928	32.3416
1924	32.5907
1920	32.8559
1916	33.0749
1912	33.2743
1908	33.4828
1904	33.6421
1900	33.7425
1896	33.7738
1892	33.7502
1888	33.7226
1884	33.7279
1880	33.7925
1876	33.9161
1872	34.1117
1868	34.3242
1864	34.495
1860	34.684
1856	34.8542
1852	34.9915
1848	35.1304
1844	35.1548
1840	35.1207
1836	35.1651
1832	35.2091
1828	35.206
1824	35.1569
1820	35.0997
1816	35.1433
1812	35.2903
1808	35.4582
1804	35.5839
1800	35.7169
1796	35.9132
1792	36.0857
1788	36.1546
1784	36.1476
1780	36.112
1776	36.0597
1772	35.9609
1768	35.8128
1764	35.7282
1760	35.7752
1756	35.8488
1752	35.9107
1748	36.0071
1744	36.1282
1740	36.3329
1736	36.5633
1732	36.6408
1728	36.6352
1724	36.6682
1720	36.6868
1716	36.5889
1712	36.3696
1708	36.1571
1704	36.0502
1700	36.0315
1696	36.0363
1692	36.1064
1688	36.2883
1684	36.4204
1680	36.461
1676	36.5656
1672	36.7284
1668	36.865
1664	36.8864
1660	36.768
1656	36.6463
1652	36.5366
1648	36.3395
1644	36.1429
1640	36.1359
1636	36.2122
1632	36.1735
1628	36.1697
1624	36.3195
1620	36.5125
1616	36.6562
1612	36.7292
1608	36.7153
1604	36.6578
1600	36.6346
1596	36.6055
1592	36.53
1588	36.3551
1584	36.1161
1580	36.0669
1576	36.1737
1572	36.2315
1568	36.2598
1564	36.3487
1560	36.523
1556	36.6432
1552	36.7212
1548	36.8709
1544	36.9879
1540	36.9595
1536	36.8338
1532	36.6704
1528	36.465
1524	36.2638
1520	36.1157
1516	36.0435
1512	36.0895
1508	36.2208
1504	36.3057
1500	36.3541
1496	36.4688
1492	36.5745
1488	36.6353
1484	36.7254
1480	36.769
1476	36.688
1472	36.5018
1468	36.2911
1464	36.113
1460	35.9667
1456	35.8214
1452	35.6786
1448	35.5815
1444	35.556
1440	35.7054
1436	36.0132
1432	36.2681
1428	36.4056
1424	36.5524
1420	36.742
1416	36.7427
1412	36.5513
1408	36.401
1404	36.2374
1400	35.9736
1396	35.7566
1392	35.6848
1388	35.6864
1384	35.6765
1380	35.7085
1376	35.8627
1372	36.0624
1368	36.1856
1364	36.3117
1360	36.5137
1356	36.6068
1352	36.5058
1348	36.3031
1344	36.0643
1340	35.8686
1336	35.7146
1332	35.5421
1328	35.43
1324	35.4204
1320	35.4698
1316	35.597
1312	35.802
1308	36.0269
1304	36.1903
1300	36.2916
1296	36.3799
1292	36.4026
1288	36.3292
1284	36.2093
1280	36.004
1276	35.7102
1272	35.4536
1268	35.2798
1264	35.1637
1260	35.1336
1256	35.261
1252	35.5012
1248	35.7223
1244	35.9148
1240	36.087
1236	36.2206
1232	36.2979
1228	36.2545
1224	36.094
1220	35.9097
1216	35.6994
1212	35.406
1208	35.1647
1204	35.0667
1200	35.0393
1196	35.1078
1192	35.2068
1188	35.2537
1184	35.4323
1180	35.7978
1176	36.1147
1172	36.2405
1168	36.2447
1164	36.1516
1160	35.9307
1156	35.6914
1152	35.4907
1148	35.2467
1144	34.9218
1140	34.6493
1136	34.653
1132	34.8501
1128	35.002
1124	35.1252
1120	35.3016
1116	35.4921
1112	35.7325
1108	35.9292
1104	35.954
1100	35.8876
1096	35.7072
1092	35.3913
1088	35.1024
1084	34.8785
1080	34.6629
1076	34.5584
1072	34.6084
1068	34.6747
1064	34.722
1060	34.8515
1056	35.1165
1052	35.4542
1048	35.6432
1044	35.5945
1040	35.5066
1036	35.463
1032	35.3936
1028	35.153
1024	34.7975
1020	34.7076
1016	34.7005
1012	34.3939
1008	34.1929
1004	34.2874
1000	34.3524
996	 34.4381
992	 34.743
988	 35.0725
984	 35.1236
980	 34.992
976	 34.9297
972	 34.8878
968	 34.7307
964	 34.462
960	 34.1002
956	 33.7426
952	 33.5677
948	 33.5885
944	 33.7098
940	 33.9003
936	 34.0894
932	 34.3298
928	 34.6437
924	 34.7574
920	 34.7252
916	 34.7643
912	 34.7059
908	 34.4722
904	 34.2385
900	 34.05
896	 33.832
892	 33.5361
888	 33.1958
884	 32.9545
880	 32.9071
876	 33.1172
872	 33.5666
868	 33.9029
864	 33.9447
860	 33.9605
856	 34.0594
852	 34.1792
848	 34.1738
844	 33.9554
840	 33.7153
836	 33.4628
832	 33.1887
828	 32.9923
824	 32.774
820	 32.5577
816	 32.5306
812	 32.6738
808	 32.8425
804	 33.0167
800	 33.2268
796	 33.4184
792	 33.4789
788	 33.384
784	 33.221
780	 32.956
776	 32.6681
772	 32.5054
768	 32.2813
764	 31.987
760	 31.7116
756	 31.3614
752	 31.4048
748	 31.9032
744	 32.1101
740	 32.0838
736	 32.3271
732	 32.5745
728	 32.5046
724	 32.3328
720	 32.1823
716	 31.9952
712	 31.8261
708	 31.5705
704	 31.1565
700	 30.8521
696	 30.7554
692	 30.7355
688	 30.7908
684	 30.9217
680	 30.9754
676	 31.0011
672	 31.1424
668	 31.3614
664	 31.5424
660	 31.5176
656	 31.3686
652	 31.2292
648	 30.8063
644	 30.0956
640	 29.6673
636	 29.6229
632	 29.6117
628	 29.4639
624	 29.1789
620	 29.1197
616	 29.5253
612	 30.0082
608	 30.2152
604	 30.1205
600	 29.9634
596	 30.0138
592	 30.1108
588	 29.8341
584	 29.1345
580	 28.5063
576	 28.2041
572	 28.0757
568	 28.0756
564	 28.0353
560	 27.9263
556	 27.9663
552	 28.0114
548	 28.1418
544	 28.6625
540	 29.291
536	 29.3216
532	 28.5396
528	 27.6962
524	 27.4436
520	 27.5743
516	 27.5942
512	 27.2644
508	 26.836
504	 26.6725
500	 26.5457
496	 26.29
492	 26.205
488	 26.4223
484	 27.119
480	 27.6767
476	 27.6959
472	 28.1528
468	 28.5022
464	 27.2676
460	 25.2782
456	 24.157
452	 24.6731
448	 26.3072
444	 26.7321
440	 25.4725
436	 24.033
432	 22.9927
428	 23.1132
424	 23.4178
420	 21.5125
416	 20.5812
412	 26.5295
408	 38.1507
404	 42.0948
400	 36.1173
396	 33.68
392	 32.937
388	 29.021
384	 23.6133
380	 12.3061
376	 -15.8213
372	 -30.9342
370	 -25.7992