File: Bakgrunnsmateriale/MATLAB/FTIR/ftir_data/LPE454/Mapping_121/LPE454_t113.asc
PE IR       SPECTRUM    SPECTRUM    ASCII       PEDS        1.60
  -1
LP9FFD~1.ASC
17/05/19
23:42:17.00
17/05/19
23:42:43.00
tln
$LPE454_t0113$<tbV0>[7.8,13.0,8.0,0.0,27,1,0]
27.028
64

2002,4.07
MIRTGS : RIGHTBACK : INTERNAL 2
MIR : ON : INTERNAL 2
OPTKBR

0.200000
8
8.000000
FILLER
RATIO
SPECTRUM
UNLOCKED 256

DOUBLE
64
COMBINED
1
0
0

0.002000
RATIO

1
0
TRUE
51149
0
LEFT NOT FITTED RIGHT NOT FITTED 0
NONE
NONE
15600
12
4.427000
51148
TRUE
1 0 8 72 0 0 0 0

15798

#HDR
-1
-1
#GR
µM
%T
2.38419e-05
0.0
2.000000
0.002000
12515
8
42.0909
-15.193
#DATA
2.000000	 0.025653
2.018000	 -0.200955
2.036000	 0.365323
2.054000	 0.658868
2.072000	 0.313110
2.090000	 -0.042483
2.108000	 0.366814
2.126000	 0.628967
2.144000	 0.544153
2.162000	 0.136568
2.180000	 17.1121
2.198000	 -0.434148
2.216000	 -0.201411
2.234000	 0.764970
2.252000	 0.365201
2.270000	 0.425210
2.288000	 -0.030614
2.306000	 0.353235
2.324000	 0.001296
2.342000	 0.237080
2.360000	 0.107974
2.378000	 0.040140
2.396000	 -0.331313
2.414000	 0.048312
2.432000	 0.063106
2.450000	 -0.762272
2.468000	 0.177788
2.486000	 -0.093941
2.504000	 0.280963
2.522000	 -0.110231
2.540000	 -0.127140
2.558000	 0.116056
2.576000	 0.088783
2.594000	 0.050818
2.612000	 -0.037233
2.630000	 0.115250
2.648000	 0.066310
2.666000	 0.037079
2.684000	 0.087755
2.702000	 0.051142
2.720000	 0.103429
2.738000	 0.080262
2.756000	 0.059651
2.774000	 0.159258
2.792000	 0.034824
2.810000	 0.031463
2.828000	 0.077900
2.846000	 0.043274
2.864000	 0.131926
2.882000	 -0.000182
2.900000	 0.007784
2.918000	 -0.053410
2.936000	 0.114230
2.954000	 0.019508
2.972000	 -0.016612
2.990000	 0.083812
3.008000	 0.035253
3.026000	 0.092719
3.044000	 0.169247
3.062000	 0.038784
3.080000	 0.032804
3.098000	 -0.057957
3.116000	 0.045990
3.134000	 -0.005465
3.152000	 0.154359
3.170000	 -0.054097
3.188000	 -0.024760
3.206000	 -0.004135
3.224000	 -0.013351
3.242000	 0.077553
3.260000	 -0.073302
3.278000	 0.136026
3.296000	 -0.106698
3.314000	 0.012092
3.332000	 0.044861
3.350000	 0.130522
3.368000	 0.072968
3.386000	 -0.024669
3.404000	 0.148585
3.422000	 0.119480
3.440000	 0.017954
3.458000	 0.136814
3.476000	 -0.058955
3.494000	 0.054704
3.512000	 0.036433
3.530000	 -0.120396
3.548000	 0.124234
3.566000	 0.082212
3.584000	 0.074796
3.602000	 0.095582
3.620000	 0.106085
3.638000	 -0.000492
3.656000	 0.050032
3.674000	 0.057890
3.692000	 0.126075
3.710000	 0.132891
3.728000	 0.057417
3.746000	 0.147591
3.764000	 0.166872
3.782000	 0.157132
3.800000	 0.064390
3.818000	 -0.065578
3.836000	 -0.006849
3.854000	 0.028462
3.872000	 0.028445
3.890000	 0.085130
3.908000	 0.045073
3.926000	 0.075032
3.944000	 0.010707
3.962000	 0.056856
3.980000	 0.088888
3.998000	 0.063184
4.016000	 -0.065264
4.034000	 0.091724
4.052000	 0.162492
4.070000	 0.114947
4.088000	 0.184197
4.106000	 0.264470
4.124000	 0.234859
4.141999	 0.552917
4.160000	 0.504833
4.178000	 0.413114
4.196000	 0.605647
4.214000	 0.806301
4.232000	 0.992942
4.250000	 1.119832
4.268000	 1.303687
4.286000	 1.503321
4.304000	 1.827396
4.322000	 2.043186
4.340000	 2.493198
4.358000	 2.930660
4.375999	 3.370476
4.394000	 3.890591
4.412000	 4.394449
4.430000	 5.095297
4.448000	 5.878004
4.466000	 6.619062
4.484000	 7.507541
4.502000	 8.397275
4.520000	 9.342866
4.538000	 10.487
4.556000	 11.4848
4.574000	 12.6178
4.592000	 13.7059
4.609999	 14.8146
4.628000	 16.0183
4.646000	 17.104
4.664000	 18.2918
4.682000	 19.3751
4.700000	 20.527
4.718000	 21.7699
4.736000	 22.8717
4.754000	 23.7815
4.772000	 24.6786
4.790000	 25.6195
4.808000	 26.6735
4.826000	 27.5867
4.843999	 28.3654
4.862000	 29.1942
4.880000	 29.8494
4.898000	 30.5623
4.916000	 31.1588
4.934000	 31.8646
4.952000	 32.4394
4.970000	 32.9435
4.988000	 33.5216
5.006000	 33.9499
5.024000	 34.3933
5.042000	 34.9117
5.060000	 35.3882
5.077999	 35.7008
5.096000	 36.1601
5.114000	 36.5329
5.132000	 36.9232
5.150000	 37.2104
5.168000	 37.5038
5.186000	 37.801
5.204000	 38.0599
5.222000	 38.2262
5.240000	 38.4442
5.258000	 38.6354
5.276000	 38.9069
5.294000	 39.0554
5.312000	 39.2306
5.330000	 39.4737
5.348000	 39.5682
5.366000	 39.7318
5.384000	 39.9742
5.402000	 40.1226
5.420000	 40.3262
5.438000	 40.4002
5.456000	 40.3958
5.474000	 40.4841
5.492000	 40.6502
5.510000	 40.8135
5.528000	 40.8736
5.546000	 40.9597
5.564000	 41.0571
5.582000	 41.1784
5.600000	 41.2775
5.618000	 41.3665
5.636000	 41.3856
5.654000	 41.3399
5.672000	 41.3595
5.690000	 41.4276
5.708000	 41.4368
5.726000	 41.4648
5.744000	 41.5222
5.762000	 41.6212
5.780000	 41.7522
5.798000	 41.7778
5.816000	 41.731
5.834000	 41.82
5.852000	 41.7614
5.870000	 41.7642
5.888000	 41.8377
5.906000	 41.7407
5.923999	 41.7409
5.942000	 41.8746
5.960000	 41.9055
5.978000	 41.8665
5.996000	 41.8759
6.014000	 41.9441
6.032000	 42.0074
6.050000	 42.0058
6.068000	 42.0263
6.086000	 42.0799
6.104000	 42.0821
6.122000	 42.0295
6.140000	 41.9877
6.158000	 41.9473
6.176000	 41.9507
6.194000	 41.9425
6.212000	 41.8925
6.230000	 41.827
6.248000	 41.8075
6.266000	 41.9283
6.284000	 42.0398
6.302000	 42.0253
6.320000	 42.0054
6.338000	 42.0375
6.356000	 42.0706
6.374000	 42.0617
6.392000	 41.9939
6.410000	 41.9161
6.428000	 41.8127
6.446000	 41.7194
6.464000	 41.6678
6.482000	 41.6664
6.500000	 41.7084
6.518000	 41.7229
6.536000	 41.7128
6.554000	 41.7304
6.572000	 41.7566
6.590000	 41.7452
6.608000	 41.7452
6.626000	 41.7881
6.644000	 41.7937
6.662000	 41.7525
6.680000	 41.7336
6.698000	 41.7596
6.716000	 41.7951
6.734000	 41.8259
6.752000	 41.8206
6.770000	 41.7824
6.788000	 41.7373
6.806000	 41.6764
6.824000	 41.6124
6.842000	 41.5446
6.860000	 41.5063
6.878000	 41.542
6.896000	 41.6355
6.914000	 41.7093
6.932000	 41.6771
6.950000	 41.5824
6.968000	 41.5208
6.986000	 41.535
7.004000	 41.5843
7.022000	 41.5636
7.040000	 41.4767
7.058000	 41.4347
7.076000	 41.4609
7.094000	 41.4881
7.112000	 41.4782
7.130000	 41.4377
7.148000	 41.3785
7.166000	 41.3035
7.184000	 41.2397
7.202000	 41.2284
7.220000	 41.2342
7.238000	 41.2034
7.256000	 41.1875
7.274000	 41.231
7.292000	 41.279
7.310000	 41.2873
7.328000	 41.2787
7.346000	 41.2891
7.364000	 41.3133
7.382000	 41.3042
7.400000	 41.249
7.418000	 41.2093
7.436000	 41.2217
7.454000	 41.2254
7.472000	 41.1685
7.490000	 41.1085
7.508000	 41.1192
7.526000	 41.1797
7.544000	 41.2148
7.562000	 41.1888
7.580000	 41.128
7.598000	 41.0733
7.616000	 41.0348
7.634000	 41.005
7.652000	 40.9963
7.670000	 41.0197
7.688000	 41.0539
7.706000	 41.0667
7.724000	 41.0464
7.742000	 41.0066
7.760000	 40.9801
7.778000	 41.0003
7.796000	 41.0697
7.814000	 41.1521
7.832000	 41.201
7.850000	 41.1915
7.868000	 41.1287
7.886000	 41.0382
7.904000	 40.9579
7.922000	 40.9157
7.940000	 40.9015
7.958000	 40.8756
7.976000	 40.826
7.994000	 40.7989
8.012000	 40.8376
8.030000	 40.9085
8.048000	 40.9371
8.065999	 40.906
8.084000	 40.8638
8.102000	 40.8427
8.120000	 40.8231
8.138000	 40.7874
8.155999	 40.7506
8.173999	 40.7263
8.192000	 40.7031
8.210000	 40.6755
8.228000	 40.6613
8.246000	 40.6761
8.263999	 40.7098
8.282000	 40.7407
8.300000	 40.7567
8.318000	 40.7559
8.336000	 40.7436
8.353999	 40.7407
8.372000	 40.7687
8.390000	 40.8116
8.408000	 40.8239
8.426000	 40.7865
8.443999	 40.7322
8.462000	 40.7021
8.480000	 40.7019
8.498000	 40.7129
8.516000	 40.7163
8.533999	 40.699
8.552000	 40.662
8.570000	 40.6232
8.588000	 40.5949
8.606000	 40.5645
8.624000	 40.513
8.641999	 40.4477
8.660000	 40.4003
8.678000	 40.3947
8.696000	 40.4325
8.714000	 40.498
8.731999	 40.5618
8.750000	 40.5871
8.768000	 40.5571
8.786000	 40.4955
8.804000	 40.4445
8.821999	 40.4228
8.840000	 40.4161
8.858000	 40.4065
8.876000	 40.3926
8.894000	 40.3783
8.911999	 40.3598
8.930000	 40.3337
8.948000	 40.3089
8.966000	 40.2976
8.984000	 40.2997
9.001999	 40.3058
9.020000	 40.3151
9.038000	 40.3334
9.056000	 40.3573
9.074000	 40.3718
9.092000	 40.3717
9.109999	 40.3726
9.128000	 40.3914
9.146000	 40.4196
9.164000	 40.4265
9.182000	 40.391
9.199999	 40.3217
9.218000	 40.2408
9.236000	 40.1599
9.254000	 40.0769
9.272000	 39.996
9.289999	 39.9366
9.308000	 39.9175
9.326000	 39.9342
9.344000	 39.9591
9.362000	 39.9643
9.379999	 39.9456
9.398000	 39.9223
9.416000	 39.9188
9.434000	 39.9437
9.452000	 39.9864
9.469999	 40.0274
9.488000	 40.0518
9.506000	 40.0567
9.524000	 40.0477
9.542000	 40.0337
9.560000	 40.0211
9.577999	 40.0131
9.596000	 40.0109
9.614000	 40.0131
9.632000	 40.0147
9.650000	 40.0073
9.667999	 39.9851
9.686000	 39.951
9.704000	 39.9181
9.722000	 39.9026
9.740000	 39.9125
9.757999	 39.9402
9.776000	 39.9646
9.794000	 39.9637
9.812000	 39.9276
9.830000	 39.8647
9.847999	 39.7975
9.866000	 39.7504
9.884000	 39.7374
9.902000	 39.7547
9.920000	 39.7819
9.937999	 39.7949
9.956000	 39.7828
9.974000	 39.7539
9.992000	 39.7265
10.01	39.713
10.028	39.7073
10.046	39.6907
10.064	39.6499
10.082	39.5908
10.1	39.5378
10.118	39.5189
10.136	39.5461
10.154	39.6094
10.172	39.6816
10.19	39.731
10.208	39.7394
10.226	39.7087
10.244	39.6593
10.262	39.6186
10.28	39.6034
10.298	39.6108
10.316	39.6194
10.334	39.6047
10.352	39.556
10.37	39.4842
10.388	39.4162
10.406	39.376
10.424	39.3723
10.442	39.3937
10.46	39.4196
10.478	39.4332
10.496	39.4316
10.514	39.4243
10.532	39.4244
10.55	39.439
10.568	39.4673
10.586	39.5021
10.604	39.5355
10.622	39.5618
10.64	39.5778
10.658	39.5813
10.676	39.5704
10.694	39.5461
10.712	39.5136
10.73	39.481
10.748	39.4554
10.766	39.4382
10.784	39.4231
10.802	39.4002
10.82	39.3635
10.838	39.3154
10.856	39.2664
10.874	39.2299
10.892	39.2117
10.91	39.2066
10.928	39.2016
10.946	39.1838
10.964	39.1505
10.982	39.1106
11	39.0794
11.018	39.0689
11.036	39.0796
11.054	39.0996
11.072	39.1125
11.09	39.1057
11.108	39.0785
11.126	39.0419
11.144	39.0105
11.162	38.9964
11.18	39.0022
11.198	39.0212
11.216	39.0429
11.234	39.0582
11.252	39.0641
11.27	39.0654
11.288	39.072
11.306	39.0932
11.324	39.1331
11.342	39.1872
11.36	39.2438
11.378	39.2878
11.396	39.308
11.414	39.3013
11.432	39.274
11.45	39.239
11.468	39.2103
11.486	39.1965
11.504	39.1976
11.522	39.2058
11.54	39.2111
11.558	39.2053
11.576	39.1867
11.594	39.1598
11.612	39.133
11.63	39.1144
11.648	39.1073
11.666	39.1096
11.684	39.1129
11.702	39.1074
11.72	39.0837
11.738	39.0377
11.756	38.971
11.774	38.8901
11.792	38.8049
11.81	38.724
11.828	38.6529
11.846	38.5923
11.864	38.5389
11.882	38.4878
11.9	38.434
11.918	38.3757
11.936	38.3157
11.954	38.2601
11.972	38.2174
11.99	38.1953
12.008	38.1975
12.026	38.2233
12.044	38.2664
12.062	38.316
12.08	38.3604
12.098	38.3897
12.116	38.3971
12.134	38.3812
12.152	38.3454
12.17	38.2967
12.188	38.244
12.206	38.1971
12.224	38.1644
12.242	38.1525
12.26	38.1653
12.278	38.2038
12.296	38.2647
12.314	38.341
12.332	38.4231
12.35	38.5011
12.368	38.5661
12.386	38.6123
12.404	38.6377
12.422	38.6445
12.44	38.6378
12.458	38.625
12.476	38.6138
12.494	38.611
12.512	38.6205
12.53	38.643
12.548	38.6746
12.566	38.7086
12.584	38.7367
12.602	38.7512
12.62	38.7468
12.638	38.7225
12.656	38.682
12.674	38.6324
12.692	38.5816
12.71	38.5371
12.728	38.5035
12.746	38.4815
12.764	38.4684
12.782	38.4599
12.8	38.4514
12.818	38.4401
12.836	38.426
12.854	38.4115
12.872	38.3996
12.89	38.3932
12.908	38.3935
12.926	38.399
12.944	38.4057
12.962	38.4078
12.98	38.3999
12.998	38.3779
13.016	38.3396
13.034	38.2857
13.052	38.2187
13.07	38.1425
13.088	38.0615
13.106	37.9795
13.124	37.9
13.142	37.8258
13.16	37.7588
13.178	37.7013
13.196	37.6551
13.214	37.6223
13.232	37.6044
13.25	37.6023
13.268	37.6155
13.286	37.6416
13.304	37.6763
13.322	37.7137
13.34	37.747
13.358	37.7693
13.376	37.7747
13.394	37.7599
13.412	37.7243
13.43	37.6706
13.448	37.6042
13.466	37.5327
13.484	37.4644
13.502	37.4071
13.52	37.3669
13.538	37.3473
13.556	37.3488
13.574	37.3699
13.592	37.4067
13.61	37.4546
13.628	37.5084
13.646	37.5631
13.664	37.6151
13.682	37.6611
13.7	37.6999
13.718	37.7307
13.736	37.754
13.754	37.7707
13.772	37.7828
13.79	37.7923
13.808	37.8018
13.826	37.8138
13.844	37.8301
13.862	37.8526
13.88	37.8821
13.898	37.918
13.916	37.959
13.934	38.0024
13.952	38.0449
13.97	38.0824
13.988	38.1108
14.006	38.1259
14.024	38.1246
14.042	38.1051
14.06	38.068
14.078	38.0153
14.096	37.9514
14.114	37.8821
14.132	37.8138
14.15	37.7525
14.168	37.7033
14.186	37.669
14.204	37.6497
14.222	37.6431
14.24	37.6448
14.258	37.6496
14.276	37.652
14.294	37.6474
14.312	37.6328
14.33	37.6071
14.348	37.571
14.366	37.5265
14.384	37.4763
14.402	37.4229
14.42	37.3681
14.438	37.3127
14.456	37.2571
14.474	37.2012
14.492	37.1453
14.51	37.0902
14.528	37.038
14.546	36.9909
14.564	36.9518
14.582	36.923
14.6	36.9061
14.618	36.9015
14.636	36.9077
14.654	36.9216
14.672	36.9395
14.69	36.9571
14.708	36.9706
14.726	36.9766
14.744	36.973
14.762	36.9598
14.78	36.9385
14.798	36.9113
14.816	36.881
14.834	36.8507
14.852	36.8235
14.87	36.8013
14.888	36.7854
14.906	36.776
14.924	36.7728
14.942	36.7749
14.96	36.7809
14.978	36.7891
14.996	36.798
15.014	36.8057
15.032	36.8107
15.05	36.812
15.068	36.8088
15.086	36.8011
15.104	36.7891
15.122	36.7741
15.14	36.7575
15.158	36.741
15.176	36.7261
15.194	36.7145
15.212	36.7078
15.23	36.7067
15.248	36.7118
15.266	36.7231
15.284	36.7401
15.302	36.7619
15.32	36.7875
15.338	36.8158
15.356	36.8459
15.374	36.8764
15.392	36.9064
15.41	36.9351
15.428	36.9618
15.446	36.9857
15.464	37.0064
15.482	37.0233
15.5	37.0362
15.518	37.0453
15.536	37.0508
15.554	37.0534
15.572	37.0537
15.59	37.0525
15.608	37.0504
15.626	37.0481
15.644	37.0458
15.662	37.0434
15.68	37.0409
15.698	37.0382
15.716	37.0352
15.734	37.0323
15.752	37.0297
15.77	37.0278
15.788	37.0274
15.806	37.029
15.824	37.0331
15.842	37.0397
15.86	37.0481
15.878	37.0571
15.896	37.0656
15.914	37.0708
15.932	37.0706
15.95	37.0633
15.968	37.0468
15.986	37.0199
16.004	36.9828
16.022	36.9356
16.04	36.8802
16.058	36.8188
16.076	36.7533
16.094	36.6868
16.112	36.6214
16.13	36.5583
16.148	36.4991
16.166	36.4435
16.184	36.3909
16.202	36.3406
16.22	36.2904
16.238	36.2392
16.256	36.1858
16.274	36.1287
16.292	36.0677
16.31	36.0027
16.328	35.9342
16.346	35.8634
16.364	35.791
16.382	35.7186
16.4	35.6475
16.418	35.5782
16.436	35.5121
16.454	35.4494
16.472	35.3905
16.49	35.3359
16.508	35.2858
16.526	35.2406
16.544	35.2008
16.562	35.1671
16.58	35.1398
16.598	35.1199
16.616	35.1075
16.634	35.103
16.652	35.1062
16.67	35.1164
16.688	35.1334
16.706	35.155
16.724	35.1802
16.742	35.2074
16.76	35.2344
16.778	35.2605
16.796	35.2843
16.814	35.305
16.832	35.3224
16.85	35.3363
16.868	35.3473
16.886	35.356
16.904	35.3636
16.922	35.3705
16.94	35.3773
16.958	35.3846
16.976	35.3927
16.994	35.4018
17.012	35.4118
17.03	35.4228
17.048	35.4343
17.066	35.4465
17.084	35.4591
17.102	35.4727
17.12	35.4875
17.138	35.5039
17.156	35.522
17.174	35.5421
17.192	35.5636
17.21	35.5863
17.228	35.6094
17.246	35.6316
17.264	35.6524
17.282	35.6697
17.3	35.6831
17.318	35.691
17.336	35.6934
17.354	35.6897
17.372	35.6807
17.39	35.6672
17.408	35.6508
17.426	35.6337
17.444	35.6173
17.462	35.6052
17.48	35.5983
17.498	35.5999
17.516	35.6106
17.534	35.6319
17.552	35.6635
17.57	35.7053
17.588	35.7555
17.606	35.8124
17.624	35.8739
17.642	35.9369
17.66	36
17.678	36.0587
17.696	36.1122
17.714	36.1574
17.732	36.1942
17.75	36.2216
17.768	36.2406
17.786	36.2517
17.804	36.2572
17.822	36.258
17.84	36.2575
17.858	36.2573
17.876	36.2603
17.894	36.2683
17.912	36.2825
17.93	36.3041
17.948	36.333
17.966	36.368
17.984	36.4077
18.002	36.4497
18.02	36.4908
18.038	36.5284
18.056	36.558
18.074	36.5782
18.092	36.5845
18.11	36.5766
18.128	36.552
18.146	36.5114
18.164	36.455
18.182	36.385
18.2	36.303
18.218	36.2131
18.236	36.1174
18.254	36.0211
18.272	35.9255
18.29	35.8358
18.308	35.7525
18.326	35.6786
18.344	35.6139
18.362	35.5593
18.38	35.5136
18.398	35.475
18.416	35.4419
18.434	35.4121
18.452	35.3825
18.47	35.351
18.488	35.3143
18.506	35.2712
18.524	35.2191
18.542	35.1571
18.56	35.0842
18.578	35
18.596	34.9056
18.614	34.8011
18.632	34.6886
18.65	34.5684
18.668	34.4442
18.686	34.3165
18.704	34.1892
18.722	34.0629
18.74	33.9418
18.758	33.8264
18.776	33.7196
18.794	33.6221
18.812	33.5363
18.83	33.4629
18.848	33.4038
18.866	33.3591
18.884	33.33
18.902	33.3162
18.92	33.3178
18.938	33.3337
18.956	33.3633
18.974	33.4049
18.992	33.4567
19.01	33.5167
19.028	33.5819
19.046	33.6504
19.064	33.7186
19.082	33.7845
19.1	33.8442
19.118	33.8963
19.136	33.9371
19.154	33.9663
19.172	33.981
19.19	33.9819
19.208	33.968
19.226	33.9406
19.244	33.9011
19.262	33.8504
19.28	33.7926
19.298	33.7279
19.316	33.6623
19.334	33.5954
19.352	33.5333
19.37	33.4756
19.388	33.4268
19.406	33.3869
19.424	33.3581
19.442	33.3408
19.46	33.3341
19.478	33.3382
19.496	33.3512
19.514	33.3732
19.532	33.4015
19.55	33.4346
19.568	33.4719
19.586	33.5122
19.604	33.5558
19.622	33.6021
19.64	33.6521
19.658	33.7087
19.676	33.7717
19.694	33.8463
19.712	33.9318
19.73	34.0343
19.748	34.1537
19.766	34.2937
19.784	34.4556
19.802	34.6391
19.82	34.8457
19.838	35.0725
19.856	35.3179
19.874	35.5796
19.892	35.8491
19.91	36.127
19.928	36.3992
19.946	36.6675
19.964	36.9172
19.982	37.1475
20	37.3493
20.018	37.5168
20.036	37.6484
20.054	37.7369
20.072	37.7842
20.09	37.788
20.108	37.7486
20.126	37.6722
20.144	37.5571
20.162	37.4135
20.18	37.2435
20.198	37.0537
20.216	36.8546
20.234	36.6458
20.252	36.4416
20.27	36.2397
20.288	36.0509
20.306	35.8761
20.324	35.7181
20.342	35.5801
20.36	35.4611
20.378	35.3623
20.396	35.2833
20.414	35.2201
20.432	35.1736
20.45	35.1388
20.468	35.1142
20.486	35.0979
20.504	35.0844
20.522	35.0749
20.54	35.0646
20.558	35.0536
20.576	35.0404
20.594	35.024
20.612	35.0045
20.63	34.9814
20.648	34.9548
20.666	34.9261
20.684	34.8953
20.702	34.8631
20.72	34.83
20.738	34.7962
20.756	34.7631
20.774	34.7307
20.792	34.6987
20.81	34.6673
20.828	34.6365
20.846	34.6063
20.864	34.5768
20.882	34.548
20.9	34.5197
20.918	34.4926
20.936	34.4668
20.954	34.4425
20.972	34.4209
20.99	34.4016
21.008	34.3862
21.026	34.3752
21.044	34.3688
21.062	34.3689
21.08	34.375
21.098	34.3879
21.116	34.4082
21.134	34.4351
21.152	34.4683
21.17	34.5079
21.188	34.5515
21.206	34.5995
21.224	34.65
21.242	34.6994
21.26	34.7492
21.278	34.7942
21.296	34.8344
21.314	34.868
21.332	34.8904
21.35	34.9031
21.368	34.902
21.386	34.8859
21.404	34.8548
21.422	34.8053
21.44	34.7384
21.458	34.6531
21.476	34.5486
21.494	34.4257
21.512	34.2855
21.53	34.1274
21.548	33.9537
21.566	33.7656
21.584	33.5629
21.602	33.3508
21.62	33.128
21.638	32.8984
21.656	32.6664
21.674	32.4302
21.692	32.1971
21.71	31.9682
21.728	31.7447
21.746	31.5339
21.764	31.3336
21.782	31.1486
21.8	30.9831
21.818	30.8351
21.836	30.71
21.854	30.6082
21.872	30.5297
21.89	30.4765
21.908	30.4485
21.926	30.4443
21.944	30.4641
21.962	30.5075
21.98	30.5696
21.998	30.6519
22.016	30.7507
22.034	30.8591
22.052	30.9801
22.07	31.1066
22.088	31.2333
22.106	31.3627
22.124	31.4857
22.142	31.6006
22.16	31.7074
22.178	31.7991
22.196	31.8769
22.214	31.9392
22.232	31.9828
22.25	32.0084
22.268	32.0171
22.286	32.0085
22.304	31.9828
22.322	31.9446
22.34	31.893
22.358	31.8301
22.376	31.763
22.394	31.6893
22.412	31.6134
22.43	31.542
22.448	31.472
22.466	31.409
22.484	31.3578
22.502	31.3158
22.52	31.2876
22.538	31.2754
22.556	31.2778
22.574	31.2964
22.592	31.3322
22.61	31.384
22.628	31.4501
22.646	31.5317
22.664	31.6267
22.682	31.7313
22.7	31.8476
22.718	31.9721
22.736	32.1003
22.754	32.2348
22.772	32.3714
22.79	32.5069
22.808	32.6432
22.826	32.7769
22.844	32.9054
22.862	33.0304
22.88	33.1494
22.898	33.2612
22.916	33.3668
22.934	33.4647
22.952	33.5545
22.97	33.6367
22.988	33.7108
23.006	33.7771
23.024	33.8354
23.042	33.8857
23.06	33.9281
23.078	33.9626
23.096	33.9886
23.114	34.0064
23.132	34.0159
23.15	34.016
23.168	34.0071
23.186	33.9888
23.204	33.96
23.222	33.9208
23.24	33.8713
23.258	33.8107
23.276	33.7387
23.294	33.6558
23.312	33.5628
23.33	33.4589
23.348	33.3451
23.366	33.2237
23.384	33.0936
23.402	32.9562
23.42	32.8155
23.438	32.6706
23.456	32.5224
23.474	32.3763
23.492	32.2322
23.51	32.0899
23.528	31.9554
23.546	31.8294
23.564	31.7109
23.582	31.6049
23.6	31.5132
23.618	31.434
23.636	31.3707
23.654	31.3253
23.672	31.2963
23.69	31.2843
23.708	31.2901
23.726	31.3137
23.744	31.3529
23.762	31.4064
23.78	31.4763
23.798	31.5583
23.816	31.6479
23.834	31.7486
23.852	31.8561
23.87	31.9633
23.888	32.0732
23.906	32.1834
23.924	32.287
23.942	32.3844
23.96	32.4759
23.978	32.5567
23.996	32.6247
24.014	32.6821
24.032	32.726
24.05	32.7544
24.068	32.7685
24.086	32.7686
24.104	32.7545
24.122	32.7254
24.14	32.6834
24.158	32.631
24.176	32.5664
24.194	32.4914
24.212	32.4108
24.23	32.3244
24.248	32.2314
24.266	32.1375
24.284	32.0457
24.302	31.9527
24.32	31.8631
24.338	31.7811
24.356	31.7038
24.374	31.6337
24.392	31.5751
24.41	31.5279
24.428	31.4913
24.446	31.4666
24.464	31.4548
24.482	31.4554
24.5	31.4673
24.518	31.4903
24.536	31.5263
24.554	31.5717
24.572	31.6218
24.59	31.6791
24.608	31.7422
24.626	31.8047
24.644	31.8647
24.662	31.9257
24.68	31.9805
24.698	32.0228
24.716	32.0582
24.734	32.0814
24.752	32.0833
24.77	32.0634
24.788	32.0243
24.806	31.9602
24.824	31.8668
24.842	31.7463
24.86	31.5996
24.878	31.4267
24.896	31.2249
24.914	30.9971
24.932	30.7493
24.95	30.4836
24.968	30.1956
24.986	29.8939
25.004	29.5873
25.022	29.2689
25.04	28.9436
25.058	28.6244
25.076	28.3156
25.094	28.0089
25.112	27.7179
25.13	27.4563
25.148	27.2173
25.166	27.003
25.184	26.8235
25.202	26.684
25.22	26.5792
25.238	26.5113
25.256	26.4834
25.274	26.4979
25.292	26.5509
25.31	26.6364
25.328	26.7532
25.346	26.9072
25.364	27.0864
25.382	27.2771
25.4	27.4854
25.418	27.7107
25.436	27.9367
25.454	28.1519
25.472	28.3681
25.49	28.5762
25.508	28.7622
25.526	28.9247
25.544	29.0701
25.562	29.1869
25.58	29.2639
25.598	29.3063
25.616	29.3139
25.634	29.2803
25.652	29.2009
25.67	29.0787
25.688	28.9151
25.706	28.7112
25.724	28.4638
25.742	28.1738
25.76	27.85
25.778	27.5001
25.796	27.114
25.814	26.6994
25.832	26.2726
25.85	25.8429
25.868	25.3958
25.886	24.9461
25.904	24.5124
25.922	24.0959
25.94	23.6861
25.958	23.3029
25.976	22.9664
25.994	22.6705
26.012	22.412
26.03	22.2037
26.048	22.0566
26.066	21.9669
26.084	21.9314
26.102	21.9499
26.12	22.0246
26.138	22.1605
26.156	22.3454
26.174	22.5652
26.192	22.821
26.21	23.1247
26.228	23.4492
26.246	23.7663
26.264	24.0828
26.282	24.4085
26.3	24.7118
26.318	24.9617
26.336	25.1691
26.354	25.3387
26.372	25.4519
26.39	25.4914
26.408	25.4681
26.426	25.3809
26.444	25.2191
26.462	24.9725
26.48	24.6397
26.498	24.2307
26.516	23.7563
26.534	23.2238
26.552	22.6238
26.57	21.9632
26.588	21.2519
26.606	20.4977
26.624	19.6954
26.642	18.8443
26.66	17.9447
26.678	16.9985
26.696	16.0084
26.714	14.9682
26.732	13.871
26.75	12.7179
26.768	11.5206
26.786	10.2594
26.804	8.912140
26.822	7.467490
26.84	5.941414
26.858	4.327844
26.876	2.618852
26.894	0.806259
26.912	-1.108801
26.93	-3.113589
26.948	-5.195046
26.966	-7.461402
26.984	-10.0926
27.002	-12.6509
27.02	-14.66
27.028	-15.193