File: Bakgrunnsmateriale/MATLAB/FTIR/ftir_data/LPE454/Mapping_121/LPE454_t119.asc
PE IR       SPECTRUM    SPECTRUM    ASCII       PEDS        1.60
  -1
LP971E~1.ASC
17/05/20
00:24:25.00
17/05/20
00:24:52.00
tln
$LPE454_t0119$<tbV0>[-7.8,13.0,8.0,0.0,27,1,0]
27.028
64

2002,4.07
MIRTGS : RIGHTBACK : INTERNAL 2
MIR : ON : INTERNAL 2
OPTKBR

0.200000
8
8.000000
FILLER
RATIO
SPECTRUM
UNLOCKED 256

DOUBLE
64
COMBINED
1
0
0

0.002000
RATIO

1
0
TRUE
51149
0
LEFT NOT FITTED RIGHT NOT FITTED 0
NONE
NONE
15600
12
4.427000
51148
TRUE
1 0 8 72 0 0 0 0

15798

#HDR
-1
-1
#GR
µM
%T
2.38419e-05
0.0
2.000000
0.002000
12515
8
40.3521
-3.555420
#DATA
2.000000	 0.004339
2.018000	 0.659636
2.036000	 0.529383
2.054000	 0.380602
2.072000	 0.527679
2.090000	 0.344900
2.108000	 0.302475
2.126000	 0.760183
2.144000	 0.203683
2.162000	 -1.940707
2.180000	 0.624312
2.198000	 0.148091
2.216000	 -0.737610
2.234000	 -0.040370
2.252000	 1.003712
2.270000	 0.411066
2.288000	 0.129749
2.306000	 0.099621
2.324000	 0.007717
2.342000	 0.338345
2.360000	 -0.099957
2.378000	 0.109157
2.396000	 -0.107259
2.414000	 0.217248
2.432000	 0.037872
2.450000	 0.815413
2.468000	 0.028142
2.486000	 -0.099944
2.504000	 0.332688
2.522000	 0.162585
2.540000	 0.128105
2.558000	 0.136414
2.576000	 -0.239343
2.594000	 0.046179
2.612000	 -0.100215
2.630000	 0.191954
2.648000	 0.193995
2.666000	 0.135602
2.684000	 -0.007260
2.702000	 -0.052713
2.720000	 -0.075770
2.738000	 -0.033636
2.756000	 0.002222
2.774000	 -0.016131
2.792000	 0.100993
2.810000	 0.012744
2.828000	 0.157066
2.846000	 0.093668
2.864000	 -0.036459
2.882000	 0.103953
2.900000	 -0.033619
2.918000	 0.122691
2.936000	 -0.013888
2.954000	 0.002487
2.972000	 -0.032758
2.990000	 0.024477
3.008000	 -0.005803
3.026000	 0.131435
3.044000	 0.046729
3.062000	 -0.010305
3.080000	 0.108956
3.098000	 -0.075992
3.116000	 0.060526
3.134000	 0.028566
3.152000	 0.034503
3.170000	 -0.101767
3.188000	 0.200281
3.206000	 -0.050815
3.224000	 -0.067242
3.242000	 0.008134
3.260000	 0.110088
3.278000	 0.011628
3.296000	 0.020714
3.314000	 0.034039
3.332000	 0.072864
3.350000	 -0.110647
3.368000	 0.146440
3.386000	 0.059928
3.404000	 -0.073092
3.422000	 0.032172
3.440000	 -0.127013
3.458000	 0.008559
3.476000	 0.031775
3.494000	 0.073054
3.512000	 0.185613
3.530000	 0.037369
3.548000	 -0.060378
3.566000	 -0.037758
3.584000	 0.069067
3.602000	 0.055379
3.620000	 0.040791
3.638000	 0.009115
3.656000	 0.078625
3.674000	 0.088212
3.692000	 0.011099
3.710000	 -0.012962
3.728000	 0.073976
3.746000	 0.058382
3.764000	 0.035640
3.782000	 0.003781
3.800000	 0.033005
3.818000	 0.084205
3.836000	 -0.056163
3.854000	 0.054366
3.872000	 0.040150
3.890000	 0.064071
3.908000	 0.065625
3.926000	 0.026739
3.944000	 0.048536
3.962000	 0.058166
3.980000	 0.233472
3.998000	 0.192515
4.016000	 0.017875
4.034000	 0.036586
4.052000	 0.026148
4.070000	 -0.001958
4.088000	 0.008379
4.106000	 -0.069088
4.124000	 -0.083916
4.141999	 0.005169
4.160000	 0.168139
4.178000	 0.066115
4.196000	 0.086603
4.214000	 0.078613
4.232000	 0.263247
4.250000	 0.197975
4.268000	 0.303651
4.286000	 0.373419
4.304000	 0.462105
4.322000	 0.599092
4.340000	 0.733917
4.358000	 0.887203
4.375999	 1.151716
4.394000	 1.405870
4.412000	 1.748773
4.430000	 2.007759
4.448000	 2.437126
4.466000	 2.728001
4.484000	 3.208745
4.502000	 3.862065
4.520000	 4.431766
4.538000	 5.018789
4.556000	 5.568176
4.574000	 6.280812
4.592000	 6.990278
4.609999	 7.726549
4.628000	 8.578738
4.646000	 9.465920
4.664000	 10.2119
4.682000	 11.0712
4.700000	 11.9805
4.718000	 12.7899
4.736000	 13.7105
4.754000	 14.5265
4.772000	 15.2156
4.790000	 16.0338
4.808000	 16.9044
4.826000	 17.562
4.843999	 18.3331
4.862000	 18.9977
4.880000	 19.6588
4.898000	 20.2523
4.916000	 20.7979
4.934000	 21.3473
4.952000	 21.9948
4.970000	 22.4012
4.988000	 22.8662
5.006000	 23.2621
5.024000	 23.6504
5.042000	 24.1925
5.060000	 24.683
5.077999	 24.918
5.096000	 25.2122
5.114000	 25.4908
5.132000	 25.8106
5.150000	 26.1437
5.168000	 26.4558
5.186000	 26.7171
5.204000	 27.0235
5.222000	 27.3162
5.240000	 27.5561
5.258000	 27.7064
5.276000	 27.7941
5.294000	 27.8636
5.312000	 28.1249
5.330000	 28.2919
5.348000	 28.4563
5.366000	 28.6273
5.384000	 28.7703
5.402000	 28.9091
5.420000	 29.0707
5.438000	 29.1712
5.456000	 29.2293
5.474000	 29.3158
5.492000	 29.4294
5.510000	 29.5505
5.528000	 29.6545
5.546000	 29.7457
5.564000	 29.8245
5.582000	 29.8958
5.600000	 29.9152
5.618000	 29.951
5.636000	 30.0059
5.654000	 29.9801
5.672000	 29.9755
5.690000	 30.1067
5.708000	 30.2241
5.726000	 30.3059
5.744000	 30.2878
5.762000	 30.3132
5.780000	 30.3755
5.798000	 30.3306
5.816000	 30.3159
5.834000	 30.3299
5.852000	 30.412
5.870000	 30.5162
5.888000	 30.5528
5.906000	 30.5575
5.923999	 30.6622
5.942000	 30.7697
5.960000	 30.8134
5.978000	 30.886
5.996000	 30.8114
6.014000	 30.6731
6.032000	 30.6369
6.050000	 30.6306
6.068000	 30.6419
6.086000	 30.6892
6.104000	 30.7283
6.122000	 30.8499
6.140000	 30.9124
6.158000	 30.835
6.176000	 30.7986
6.194000	 30.8727
6.212000	 30.8989
6.230000	 30.8308
6.248000	 30.8076
6.266000	 30.7744
6.284000	 30.7249
6.302000	 30.7472
6.320000	 30.8394
6.338000	 30.9213
6.356000	 30.9706
6.374000	 31.0141
6.392000	 31.0493
6.410000	 31.0591
6.428000	 31.049
6.446000	 31.0244
6.464000	 30.9908
6.482000	 30.9538
6.500000	 30.859
6.518000	 30.8011
6.536000	 30.8554
6.554000	 30.923
6.572000	 30.9403
6.590000	 30.9838
6.608000	 31.0688
6.626000	 31.1199
6.644000	 31.1372
6.662000	 31.176
6.680000	 31.2157
6.698000	 31.197
6.716000	 31.189
6.734000	 31.194
6.752000	 31.1513
6.770000	 31.0938
6.788000	 31.0474
6.806000	 30.9996
6.824000	 30.9712
6.842000	 30.9767
6.860000	 30.9755
6.878000	 31.0157
6.896000	 31.1544
6.914000	 31.2554
6.932000	 31.2789
6.950000	 31.2531
6.968000	 31.1441
6.986000	 31.0763
7.004000	 31.1361
7.022000	 31.1999
7.040000	 31.1765
7.058000	 31.092
7.076000	 30.9999
7.094000	 30.9261
7.112000	 30.8804
7.130000	 30.9025
7.148000	 30.9817
7.166000	 31.0518
7.184000	 31.1132
7.202000	 31.1812
7.220000	 31.2287
7.238000	 31.2483
7.256000	 31.25
7.274000	 31.2543
7.292000	 31.2751
7.310000	 31.2744
7.328000	 31.225
7.346000	 31.172
7.364000	 31.1489
7.382000	 31.1067
7.400000	 31.005
7.418000	 30.9036
7.436000	 30.8698
7.454000	 30.8867
7.472000	 30.9293
7.490000	 31.0101
7.508000	 31.1137
7.526000	 31.2063
7.544000	 31.2835
7.562000	 31.3454
7.580000	 31.3814
7.598000	 31.3951
7.616000	 31.3914
7.634000	 31.3551
7.652000	 31.2752
7.670000	 31.1759
7.688000	 31.0996
7.706000	 31.0618
7.724000	 31.048
7.742000	 31.0478
7.760000	 31.0561
7.778000	 31.0589
7.796000	 31.0517
7.814000	 31.047
7.832000	 31.0627
7.850000	 31.1151
7.868000	 31.2056
7.886000	 31.3056
7.904000	 31.3764
7.922000	 31.4015
7.940000	 31.3867
7.958000	 31.3483
7.976000	 31.3057
7.994000	 31.2674
8.012000	 31.2253
8.030000	 31.1804
8.048000	 31.1482
8.065999	 31.1171
8.084000	 31.0468
8.102000	 30.9392
8.120000	 30.8576
8.138000	 30.8473
8.155999	 30.8944
8.173999	 30.9601
8.192000	 31.0152
8.210000	 31.0425
8.228000	 31.0538
8.246000	 31.0822
8.263999	 31.1332
8.282000	 31.177
8.300000	 31.2009
8.318000	 31.2285
8.336000	 31.2765
8.353999	 31.3243
8.372000	 31.3402
8.390000	 31.3114
8.408000	 31.2454
8.426000	 31.1671
8.443999	 31.1084
8.462000	 31.0836
8.480000	 31.0722
8.498000	 31.0423
8.516000	 30.9909
8.533999	 30.9402
8.552000	 30.8981
8.570000	 30.8507
8.588000	 30.7977
8.606000	 30.7725
8.624000	 30.8075
8.641999	 30.892
8.660000	 30.9816
8.678000	 31.0457
8.696000	 31.0894
8.714000	 31.1364
8.731999	 31.197
8.750000	 31.2569
8.768000	 31.2984
8.786000	 31.3227
8.804000	 31.3431
8.821999	 31.3593
8.840000	 31.3556
8.858000	 31.3253
8.876000	 31.2812
8.894000	 31.2343
8.911999	 31.174
8.930000	 31.0887
8.948000	 30.993
8.966000	 30.9154
8.984000	 30.8594
9.001999	 30.7965
9.020000	 30.7056
9.038000	 30.6071
9.056000	 30.542
9.074000	 30.5265
9.092000	 30.5385
9.109999	 30.5509
9.128000	 30.5652
9.146000	 30.6042
9.164000	 30.6776
9.182000	 30.7643
9.199999	 30.8335
9.218000	 30.8754
9.236000	 30.9121
9.254000	 30.975
9.272000	 31.0734
9.289999	 31.1814
9.308000	 31.2559
9.326000	 31.268
9.344000	 31.2229
9.362000	 31.1524
9.379999	 31.0914
9.398000	 31.0571
9.416000	 31.0443
9.434000	 31.0357
9.452000	 31.0144
9.469999	 30.9709
9.488000	 30.9042
9.506000	 30.8173
9.524000	 30.7154
9.542000	 30.6078
9.560000	 30.5082
9.577999	 30.4333
9.596000	 30.3954
9.614000	 30.3988
9.632000	 30.4395
9.650000	 30.5055
9.667999	 30.5794
9.686000	 30.643
9.704000	 30.6845
9.722000	 30.7083
9.740000	 30.7347
9.757999	 30.7878
9.776000	 30.8771
9.794000	 30.9864
9.812000	 31.08
9.830000	 31.125
9.847999	 31.1124
9.866000	 31.0641
9.884000	 31.0192
9.902000	 31.0091
9.920000	 31.0385
9.937999	 31.0839
9.956000	 31.1112
9.974000	 31.0973
9.992000	 31.0413
10.01	30.959
10.028	30.87
10.046	30.7869
10.064	30.7155
10.082	30.6583
10.1	30.616
10.118	30.5843
10.136	30.5527
10.154	30.5092
10.172	30.4475
10.19	30.373
10.208	30.3016
10.226	30.251
10.244	30.2338
10.262	30.2545
10.28	30.3098
10.298	30.391
10.316	30.4855
10.334	30.5781
10.352	30.6541
10.37	30.7035
10.388	30.7243
10.406	30.722
10.424	30.706
10.442	30.6856
10.46	30.6676
10.478	30.6562
10.496	30.6528
10.514	30.6557
10.532	30.659
10.55	30.6551
10.568	30.6383
10.586	30.609
10.604	30.5741
10.622	30.5434
10.64	30.5233
10.658	30.5123
10.676	30.503
10.694	30.4877
10.712	30.463
10.73	30.4311
10.748	30.3953
10.766	30.3544
10.784	30.3023
10.802	30.2311
10.82	30.138
10.838	30.0308
10.856	29.9246
10.874	29.8374
10.892	29.7801
10.91	29.7546
10.928	29.7546
10.946	29.7723
10.964	29.8039
10.982	29.8501
11	29.913
11.018	29.9908
11.036	30.0754
11.054	30.1533
11.072	30.2126
11.09	30.2482
11.108	30.2646
11.126	30.2743
11.144	30.2901
11.162	30.3203
11.18	30.3646
11.198	30.4145
11.216	30.4578
11.234	30.4829
11.252	30.4823
11.27	30.455
11.288	30.4062
11.306	30.3447
11.324	30.2823
11.342	30.2293
11.36	30.192
11.378	30.172
11.396	30.1644
11.414	30.1592
11.432	30.1464
11.45	30.1184
11.468	30.0729
11.486	30.0135
11.504	29.9479
11.522	29.8855
11.54	29.8335
11.558	29.7967
11.576	29.775
11.594	29.7646
11.612	29.7601
11.63	29.7566
11.648	29.751
11.666	29.7419
11.684	29.7286
11.702	29.7098
11.72	29.6832
11.738	29.646
11.756	29.5973
11.774	29.5397
11.792	29.4804
11.81	29.4291
11.828	29.3961
11.846	29.3895
11.864	29.4125
11.882	29.463
11.9	29.5353
11.918	29.621
11.936	29.7117
11.954	29.8001
11.972	29.879
11.99	29.9423
12.008	29.9856
12.026	30.0062
12.044	30.0045
12.062	29.9851
12.08	29.9559
12.098	29.9259
12.116	29.9035
12.134	29.8933
12.152	29.8952
12.17	29.9052
12.188	29.9164
12.206	29.9225
12.224	29.9188
12.242	29.9033
12.26	29.8765
12.278	29.8406
12.296	29.7983
12.314	29.7524
12.332	29.7049
12.35	29.6565
12.368	29.607
12.386	29.5553
12.404	29.5003
12.422	29.4418
12.44	29.3799
12.458	29.3158
12.476	29.2514
12.494	29.1895
12.512	29.1333
12.53	29.0866
12.548	29.0532
12.566	29.0357
12.584	29.035
12.602	29.049
12.62	29.0729
12.638	29.0993
12.656	29.1209
12.674	29.1312
12.692	29.1271
12.71	29.1092
12.728	29.0822
12.746	29.0536
12.764	29.0313
12.782	29.0216
12.8	29.0281
12.818	29.0511
12.836	29.0882
12.854	29.1352
12.872	29.1881
12.89	29.2434
12.908	29.2987
12.926	29.3521
12.944	29.402
12.962	29.446
12.98	29.4811
12.998	29.5034
13.016	29.5096
13.034	29.4972
13.052	29.4656
13.07	29.4163
13.088	29.3539
13.106	29.2849
13.124	29.2168
13.142	29.1572
13.16	29.1129
13.178	29.0889
13.196	29.0875
13.214	29.108
13.232	29.1469
13.25	29.1982
13.268	29.2544
13.286	29.3074
13.304	29.3492
13.322	29.3739
13.34	29.3775
13.358	29.3589
13.376	29.3197
13.394	29.2638
13.412	29.1963
13.43	29.1231
13.448	29.0489
13.466	28.9775
13.484	28.9105
13.502	28.8475
13.52	28.7865
13.538	28.725
13.556	28.6602
13.574	28.5903
13.592	28.5154
13.61	28.4372
13.628	28.3593
13.646	28.2868
13.664	28.225
13.682	28.179
13.7	28.1524
13.718	28.1467
13.736	28.1613
13.754	28.193
13.772	28.2376
13.79	28.2903
13.808	28.3467
13.826	28.4028
13.844	28.4562
13.862	28.5056
13.88	28.5505
13.898	28.591
13.916	28.6269
13.934	28.658
13.952	28.684
13.97	28.7046
13.988	28.7197
14.006	28.7296
14.024	28.7352
14.042	28.7385
14.06	28.7413
14.078	28.7457
14.096	28.7531
14.114	28.7642
14.132	28.7788
14.15	28.7962
14.168	28.8148
14.186	28.8328
14.204	28.849
14.222	28.8617
14.24	28.8697
14.258	28.8714
14.276	28.8655
14.294	28.8507
14.312	28.8258
14.33	28.7899
14.348	28.7426
14.366	28.6845
14.384	28.617
14.402	28.5429
14.42	28.4657
14.438	28.3888
14.456	28.3159
14.474	28.25
14.492	28.1933
14.51	28.1465
14.528	28.1089
14.546	28.0785
14.564	28.0527
14.582	28.0286
14.6	28.0031
14.618	27.9739
14.636	27.9392
14.654	27.8984
14.672	27.8521
14.69	27.8013
14.708	27.7483
14.726	27.6956
14.744	27.6463
14.762	27.6034
14.78	27.5692
14.798	27.5453
14.816	27.5325
14.834	27.5305
14.852	27.5378
14.87	27.5521
14.888	27.5709
14.906	27.5916
14.924	27.6118
14.942	27.6295
14.96	27.6439
14.978	27.6545
14.996	27.6618
15.014	27.6665
15.032	27.6697
15.05	27.6729
15.068	27.6768
15.086	27.6823
15.104	27.69
15.122	27.7004
15.14	27.7134
15.158	27.7289
15.176	27.7463
15.194	27.7656
15.212	27.7861
15.23	27.8076
15.248	27.8296
15.266	27.8518
15.284	27.8735
15.302	27.8941
15.32	27.9135
15.338	27.9314
15.356	27.9478
15.374	27.9629
15.392	27.9769
15.41	27.9903
15.428	28.0033
15.446	28.0163
15.464	28.0295
15.482	28.0427
15.5	28.0557
15.518	28.0684
15.536	28.0802
15.554	28.0909
15.572	28.1
15.59	28.1067
15.608	28.1105
15.626	28.1109
15.644	28.107
15.662	28.0981
15.68	28.0835
15.698	28.0631
15.716	28.0369
15.734	28.0054
15.752	27.9695
15.77	27.9304
15.788	27.8899
15.806	27.8497
15.824	27.8115
15.842	27.7768
15.86	27.7468
15.878	27.7218
15.896	27.7016
15.914	27.6852
15.932	27.6707
15.95	27.6566
15.968	27.6407
15.986	27.6204
16.004	27.5943
16.022	27.5612
16.04	27.5202
16.058	27.4718
16.076	27.4164
16.094	27.3557
16.112	27.2919
16.13	27.2265
16.148	27.1619
16.166	27.1004
16.184	27.0434
16.202	26.9924
16.22	26.9485
16.238	26.9119
16.256	26.8829
16.274	26.8607
16.292	26.844
16.31	26.8319
16.328	26.8221
16.346	26.8129
16.364	26.8029
16.382	26.7901
16.4	26.7737
16.418	26.7529
16.436	26.7279
16.454	26.6994
16.472	26.6683
16.49	26.6368
16.508	26.6073
16.526	26.5815
16.544	26.5627
16.562	26.5525
16.58	26.5525
16.598	26.5642
16.616	26.5875
16.634	26.6223
16.652	26.6669
16.67	26.7193
16.688	26.7775
16.706	26.8374
16.724	26.8966
16.742	26.9516
16.76	26.9991
16.778	27.0373
16.796	27.0638
16.814	27.0777
16.832	27.0786
16.85	27.067
16.868	27.0443
16.886	27.0115
16.904	26.9718
16.922	26.9272
16.94	26.8803
16.958	26.8347
16.976	26.7917
16.994	26.7547
17.012	26.7249
17.03	26.7035
17.048	26.6912
17.066	26.6878
17.084	26.693
17.102	26.7051
17.12	26.7236
17.138	26.7461
17.156	26.7709
17.174	26.7967
17.192	26.8209
17.21	26.843
17.228	26.861
17.246	26.8743
17.264	26.8822
17.282	26.8844
17.3	26.8808
17.318	26.8715
17.336	26.8568
17.354	26.837
17.372	26.8131
17.39	26.7854
17.408	26.7547
17.426	26.7221
17.444	26.6879
17.462	26.6533
17.48	26.6185
17.498	26.5847
17.516	26.552
17.534	26.5211
17.552	26.4922
17.57	26.4654
17.588	26.4407
17.606	26.4177
17.624	26.3963
17.642	26.3759
17.66	26.3562
17.678	26.336
17.696	26.3151
17.714	26.2927
17.732	26.2686
17.75	26.2423
17.768	26.214
17.786	26.1837
17.804	26.152
17.822	26.1193
17.84	26.0866
17.858	26.0547
17.876	26.0246
17.894	25.9976
17.912	25.9744
17.93	25.9564
17.948	25.9436
17.966	25.9371
17.984	25.9368
18.002	25.9428
18.02	25.9547
18.038	25.972
18.056	25.9935
18.074	26.0186
18.092	26.0453
18.11	26.0731
18.128	26.0995
18.146	26.1241
18.164	26.1446
18.182	26.1602
18.2	26.1696
18.218	26.1721
18.236	26.1668
18.254	26.1538
18.272	26.1327
18.29	26.1043
18.308	26.0686
18.326	26.0272
18.344	25.9804
18.362	25.9303
18.38	25.8777
18.398	25.8245
18.416	25.7717
18.434	25.7213
18.452	25.6743
18.47	25.6318
18.488	25.5946
18.506	25.5634
18.524	25.5381
18.542	25.5188
18.56	25.5049
18.578	25.4965
18.596	25.4921
18.614	25.4916
18.632	25.493
18.65	25.4962
18.668	25.4992
18.686	25.502
18.704	25.503
18.722	25.5022
18.74	25.4987
18.758	25.4926
18.776	25.4831
18.794	25.4706
18.812	25.455
18.83	25.4365
18.848	25.4155
18.866	25.3921
18.884	25.367
18.902	25.3404
18.92	25.3128
18.938	25.2845
18.956	25.2558
18.974	25.227
18.992	25.1982
19.01	25.1696
19.028	25.1413
19.046	25.1136
19.064	25.0866
19.082	25.0604
19.1	25.035
19.118	25.0106
19.136	24.9871
19.154	24.9645
19.172	24.9427
19.19	24.9219
19.208	24.902
19.226	24.8831
19.244	24.8652
19.262	24.8484
19.28	24.8328
19.298	24.8186
19.316	24.8062
19.334	24.7955
19.352	24.7876
19.37	24.7823
19.388	24.7804
19.406	24.7819
19.424	24.7877
19.442	24.7978
19.46	24.8126
19.478	24.8321
19.496	24.8566
19.514	24.8861
19.532	24.9203
19.55	24.959
19.568	25.0018
19.586	25.0486
19.604	25.099
19.622	25.1522
19.64	25.2082
19.658	25.2665
19.676	25.3268
19.694	25.3888
19.712	25.4523
19.73	25.5168
19.748	25.5822
19.766	25.6481
19.784	25.7147
19.802	25.7807
19.82	25.846
19.838	25.9094
19.856	25.9697
19.874	26.0265
19.892	26.0768
19.91	26.1211
19.928	26.1559
19.946	26.1818
19.964	26.1953
19.982	26.1963
20	26.1831
20.018	26.1544
20.036	26.1107
20.054	26.0512
20.072	25.9766
20.09	25.8888
20.108	25.7874
20.126	25.6773
20.144	25.5579
20.162	25.4346
20.18	25.309
20.198	25.1839
20.216	25.0646
20.234	24.9506
20.252	24.8481
20.27	24.7561
20.288	24.6786
20.306	24.6161
20.324	24.5687
20.342	24.5377
20.36	24.5217
20.378	24.5187
20.396	24.5291
20.414	24.5478
20.432	24.5756
20.45	24.6078
20.468	24.6427
20.486	24.6789
20.504	24.7123
20.522	24.7437
20.54	24.7691
20.558	24.7886
20.576	24.8016
20.594	24.8071
20.612	24.806
20.63	24.7988
20.648	24.7855
20.666	24.7687
20.684	24.7479
20.702	24.7255
20.72	24.7031
20.738	24.6805
20.756	24.6597
20.774	24.6405
20.792	24.6231
20.81	24.6082
20.828	24.5943
20.846	24.5802
20.864	24.5661
20.882	24.5481
20.9	24.5273
20.918	24.5002
20.936	24.4643
20.954	24.42
20.972	24.3627
20.99	24.2933
21.008	24.2098
21.026	24.1108
21.044	23.9973
21.062	23.8692
21.08	23.7264
21.098	23.572
21.116	23.4055
21.134	23.2295
21.152	23.0484
21.17	22.8608
21.188	22.673
21.206	22.4852
21.224	22.2997
21.242	22.1219
21.26	21.95
21.278	21.789
21.296	21.6396
21.314	21.5026
21.332	21.3817
21.35	21.2757
21.368	21.1866
21.386	21.1147
21.404	21.0602
21.422	21.0242
21.44	21.0064
21.458	21.0073
21.476	21.0269
21.494	21.0652
21.512	21.1228
21.53	21.1996
21.548	21.2953
21.566	21.4101
21.584	21.5437
21.602	21.6951
21.62	21.8651
21.638	22.0516
21.656	22.2527
21.674	22.4694
21.692	22.6968
21.71	22.9348
21.728	23.1817
21.746	23.4307
21.764	23.6843
21.782	23.9361
21.8	24.1813
21.818	24.4219
21.836	24.6491
21.854	24.8633
21.872	25.0621
21.89	25.2384
21.908	25.3945
21.926	25.5266
21.944	25.6316
21.962	25.7111
21.98	25.7624
21.998	25.7847
22.016	25.7794
22.034	25.7478
22.052	25.6888
22.07	25.6057
22.088	25.5003
22.106	25.3718
22.124	25.2261
22.142	25.0637
22.16	24.8856
22.178	24.6982
22.196	24.4997
22.214	24.2939
22.232	24.0857
22.25	23.8727
22.268	23.6602
22.286	23.4511
22.304	23.2439
22.322	23.0447
22.34	22.8535
22.358	22.6711
22.376	22.503
22.394	22.3477
22.412	22.2076
22.43	22.0869
22.448	21.9836
22.466	21.9013
22.484	21.8431
22.502	21.8071
22.52	21.7969
22.538	21.8141
22.556	21.8576
22.574	21.9287
22.592	22.0285
22.61	22.1556
22.628	22.3082
22.646	22.4881
22.664	22.6918
22.682	22.914
22.7	23.1582
22.718	23.4176
22.736	23.6848
22.754	23.9647
22.772	24.2475
22.79	24.525
22.808	24.8026
22.826	25.0694
22.844	25.3187
22.862	25.5553
22.88	25.7685
22.898	25.9531
22.916	26.1129
22.934	26.2413
22.952	26.3352
22.97	26.3971
22.988	26.4271
23.006	26.4231
23.024	26.3873
23.042	26.3262
23.06	26.238
23.078	26.125
23.096	25.9977
23.114	25.854
23.132	25.6965
23.15	25.5379
23.168	25.3758
23.186	25.2129
23.204	25.0621
23.222	24.9221
23.24	24.7939
23.258	24.6867
23.276	24.6003
23.294	24.5342
23.312	24.4929
23.33	24.4777
23.348	24.4863
23.366	24.5167
23.384	24.5706
23.402	24.6458
23.42	24.736
23.438	24.8433
23.456	24.9655
23.474	25.092
23.492	25.2232
23.51	25.3591
23.528	25.4884
23.546	25.6093
23.564	25.724
23.582	25.8221
23.6	25.8998
23.618	25.9608
23.636	25.9982
23.654	26.0082
23.672	25.9938
23.69	25.9526
23.708	25.8822
23.726	25.7836
23.744	25.6586
23.762	25.5079
23.78	25.3298
23.798	25.1288
23.816	24.9095
23.834	24.6683
23.852	24.4102
23.87	24.1427
23.888	23.8629
23.906	23.5733
23.924	23.2821
23.942	22.9885
23.96	22.6923
23.978	22.4006
23.996	22.1157
24.014	21.8351
24.032	21.5627
24.05	21.3012
24.068	21.0485
24.086	20.8066
24.104	20.5774
24.122	20.3593
24.14	20.1541
24.158	19.9644
24.176	19.7882
24.194	19.6274
24.212	19.4863
24.23	19.3652
24.248	19.263
24.266	19.1837
24.284	19.1288
24.302	19.0957
24.32	19.0891
24.338	19.1133
24.356	19.1647
24.374	19.2465
24.392	19.3645
24.41	19.5168
24.428	19.7037
24.446	19.9306
24.464	20.2001
24.482	20.5096
24.5	20.8597
24.518	21.251
24.536	21.6842
24.554	22.1568
24.572	22.6662
24.59	23.2149
24.608	23.8006
24.626	24.4164
24.644	25.0605
24.662	25.7368
24.68	26.4355
24.698	27.1483
24.716	27.8828
24.734	28.6315
24.752	29.3818
24.77	30.1352
24.788	30.8937
24.806	31.644
24.824	32.3775
24.842	33.1032
24.86	33.8118
24.878	34.4915
24.896	35.1464
24.914	35.776
24.932	36.3707
24.95	36.9256
24.968	37.4465
24.986	37.928
25.004	38.3641
25.022	38.7563
25.04	39.1056
25.058	39.4106
25.076	39.6695
25.094	39.8829
25.112	40.0545
25.13	40.1875
25.148	40.2781
25.166	40.3299
25.184	40.3508
25.202	40.343
25.22	40.3015
25.238	40.2356
25.256	40.1548
25.274	40.0531
25.292	39.9335
25.31	39.8076
25.328	39.6812
25.346	39.546
25.364	39.4116
25.382	39.2891
25.4	39.1764
25.418	39.0718
25.436	38.9822
25.454	38.9134
25.472	38.862
25.49	38.8281
25.508	38.8129
25.526	38.8189
25.544	38.8453
25.562	38.8859
25.58	38.9354
25.598	39.0014
25.616	39.0776
25.634	39.1513
25.652	39.2162
25.67	39.2841
25.688	39.3404
25.706	39.368
25.724	39.3691
25.742	39.3496
25.76	39.2913
25.778	39.1776
25.796	39.0207
25.814	38.8158
25.832	38.5463
25.85	38.2015
25.868	37.7932
25.886	37.3146
25.904	36.7565
25.922	36.115
25.94	35.3955
25.958	34.5979
25.976	33.7217
25.994	32.7613
26.012	31.7217
26.03	30.6144
26.048	29.4484
26.066	28.209
26.084	26.9092
26.102	25.5707
26.12	24.2049
26.138	22.79
26.156	21.3494
26.174	19.9123
26.192	18.4843
26.21	17.0443
26.228	15.6228
26.246	14.2523
26.264	12.9287
26.282	11.6392
26.3	10.4116
26.318	9.272607
26.336	8.212295
26.354	7.226580
26.372	6.332262
26.39	5.545039
26.408	4.858822
26.426	4.270349
26.444	3.782489
26.462	3.398850
26.48	3.124636
26.498	2.949695
26.516	2.861072
26.534	2.851181
26.552	2.936492
26.57	3.100320
26.588	3.319966
26.606	3.582734
26.624	3.910448
26.642	4.284375
26.66	4.680308
26.678	5.086743
26.696	5.525917
26.714	5.978068
26.732	6.419286
26.75	6.838217
26.768	7.254284
26.786	7.653558
26.804	8.019326
26.822	8.344610
26.84	8.643617
26.858	8.905062
26.876	9.115808
26.894	9.270377
26.912	9.380275
26.93	9.436713
26.948	9.429388
26.966	9.331351
26.984	9.119138
27.002	8.869689
27.02	8.665698
27.028	8.616161