File: Bakgrunnsmateriale/MATLAB/FTIR/ftir_data/LPE454/Mapping_121/LPE454_t109.asc
PE IR       SPECTRUM    SPECTRUM    ASCII       PEDS        1.60
  -1
LP9718~1.ASC
17/05/19
23:17:37.00
17/05/19
23:18:03.00
tln
$LPE454_t0109$<tbV0>[-10.4,10.4,8.0,0.0,27,1,0]
27.028
64

2002,4.07
MIRTGS : RIGHTBACK : INTERNAL 2
MIR : ON : INTERNAL 2
OPTKBR

0.200000
8
8.000000
FILLER
RATIO
SPECTRUM
UNLOCKED 256

DOUBLE
64
COMBINED
1
0
0

0.002000
RATIO

1
0
TRUE
51149
0
LEFT NOT FITTED RIGHT NOT FITTED 0
NONE
NONE
15600
12
4.427000
51148
TRUE
1 0 8 72 0 0 0 0

15798

#HDR
-1
-1
#GR
µM
%T
2.38419e-05
0.0
2.000000
0.002000
12515
8
56.8183
-20.7091
#DATA
2.000000	 0.645756
2.018000	 0.547380
2.036000	 0.450290
2.054000	 0.306194
2.072000	 0.356207
2.090000	 0.522024
2.108000	 0.689032
2.126000	 0.790902
2.144000	 -0.719006
2.162000	 -1.515170
2.180000	 56.8183
2.198000	 -2.392328
2.216000	 -1.534070
2.234000	 0.157240
2.252000	 0.573963
2.270000	 0.199643
2.288000	 0.151124
2.306000	 0.325311
2.324000	 0.470791
2.342000	 0.334097
2.360000	 0.386878
2.378000	 -0.037965
2.396000	 0.271212
2.414000	 0.064500
2.432000	 -0.040334
2.450000	 -0.328853
2.468000	 -0.400836
2.486000	 0.005172
2.504000	 0.246557
2.522000	 -0.009408
2.540000	 0.195989
2.558000	 0.056302
2.576000	 0.016103
2.594000	 0.047807
2.612000	 -0.112436
2.630000	 0.051751
2.648000	 0.162087
2.666000	 -0.009994
2.684000	 0.082358
2.702000	 -0.010735
2.720000	 -0.060307
2.738000	 0.187977
2.756000	 0.120510
2.774000	 0.028272
2.792000	 -0.091684
2.810000	 -0.062059
2.828000	 0.054607
2.846000	 0.054672
2.864000	 0.074439
2.882000	 -0.027728
2.900000	 0.114672
2.918000	 0.034878
2.936000	 -0.108304
2.954000	 0.115716
2.972000	 0.173543
2.990000	 -0.005400
3.008000	 -0.043956
3.026000	 0.037405
3.044000	 -0.019383
3.062000	 0.098392
3.080000	 0.166479
3.098000	 -0.033850
3.116000	 0.094456
3.134000	 0.127537
3.152000	 -0.018040
3.170000	 0.163331
3.188000	 0.118451
3.206000	 0.222456
3.224000	 0.066144
3.242000	 0.012517
3.260000	 -0.000376
3.278000	 0.016533
3.296000	 0.191712
3.314000	 0.034612
3.332000	 0.081927
3.350000	 0.025068
3.368000	 0.185488
3.386000	 -0.060489
3.404000	 0.027771
3.422000	 0.179326
3.440000	 0.014552
3.458000	 0.175150
3.476000	 0.020530
3.494000	 0.100765
3.512000	 -0.056101
3.530000	 0.041531
3.548000	 0.107260
3.566000	 -0.012231
3.584000	 0.049001
3.602000	 -0.047216
3.620000	 0.052761
3.638000	 -0.032285
3.656000	 -0.001355
3.674000	 0.041654
3.692000	 0.134910
3.710000	 0.027308
3.728000	 0.062074
3.746000	 -0.093546
3.764000	 0.039111
3.782000	 0.000526
3.800000	 0.069306
3.818000	 0.099416
3.836000	 -0.013838
3.854000	 0.020382
3.872000	 0.046657
3.890000	 -0.026721
3.908000	 0.027007
3.926000	 -0.022152
3.944000	 -0.079436
3.962000	 0.036519
3.980000	 0.031598
3.998000	 0.045022
4.016000	 0.017479
4.034000	 0.055876
4.052000	 -0.017368
4.070000	 0.183984
4.088000	 0.127236
4.106000	 0.154986
4.124000	 0.176104
4.141999	 0.078651
4.160000	 0.167794
4.178000	 0.087147
4.196000	 0.076620
4.214000	 0.181982
4.232000	 0.087342
4.250000	 0.288884
4.268000	 0.435754
4.286000	 0.582756
4.304000	 0.519751
4.322000	 0.755642
4.340000	 0.860385
4.358000	 1.082057
4.375999	 1.290783
4.394000	 1.548826
4.412000	 1.937212
4.430000	 2.359701
4.448000	 2.679951
4.466000	 3.125762
4.484000	 3.584488
4.502000	 4.179922
4.520000	 4.689260
4.538000	 5.404163
4.556000	 6.181147
4.574000	 6.875152
4.592000	 7.678522
4.609999	 8.452180
4.628000	 9.347117
4.646000	 9.996311
4.664000	 10.9123
4.682000	 11.9026
4.700000	 12.6959
4.718000	 13.6434
4.736000	 14.4887
4.754000	 15.2388
4.772000	 15.8877
4.790000	 16.7297
4.808000	 17.5892
4.826000	 18.2393
4.843999	 19.0766
4.862000	 19.821
4.880000	 20.2647
4.898000	 20.8775
4.916000	 21.3703
4.934000	 21.8919
4.952000	 22.5171
4.970000	 23.0906
4.988000	 23.5092
5.006000	 23.8798
5.024000	 24.1559
5.042000	 24.5066
5.060000	 24.8128
5.077999	 25.2247
5.096000	 25.5638
5.114000	 25.7948
5.132000	 26.1585
5.150000	 26.386
5.168000	 26.5224
5.186000	 26.6273
5.204000	 26.688
5.222000	 26.8563
5.240000	 27.0633
5.258000	 27.3391
5.276000	 27.6403
5.294000	 27.7521
5.312000	 27.8129
5.330000	 27.9293
5.348000	 27.8953
5.366000	 27.8807
5.384000	 27.9603
5.402000	 28.0132
5.420000	 28.147
5.438000	 28.369
5.456000	 28.5464
5.474000	 28.603
5.492000	 28.6216
5.510000	 28.5598
5.528000	 28.6062
5.546000	 28.5741
5.564000	 28.527
5.582000	 28.5747
5.600000	 28.7562
5.618000	 28.8976
5.636000	 28.9874
5.654000	 29.0492
5.672000	 29.0763
5.690000	 29.1088
5.708000	 29.0756
5.726000	 28.9628
5.744000	 28.7755
5.762000	 28.7148
5.780000	 28.8652
5.798000	 28.9457
5.816000	 28.939
5.834000	 29.023
5.852000	 29.1449
5.870000	 29.2285
5.888000	 29.2218
5.906000	 29.1042
5.923999	 29.035
5.942000	 29.0117
5.960000	 28.9464
5.978000	 28.9149
5.996000	 28.9291
6.014000	 28.9532
6.032000	 29.0406
6.050000	 29.139
6.068000	 29.2612
6.086000	 29.3049
6.104000	 29.2406
6.122000	 29.1982
6.140000	 29.2254
6.158000	 29.1388
6.176000	 28.8977
6.194000	 28.7765
6.212000	 28.8136
6.230000	 28.8842
6.248000	 28.8797
6.266000	 28.8843
6.284000	 28.9868
6.302000	 29.1018
6.320000	 29.2162
6.338000	 29.3433
6.356000	 29.3838
6.374000	 29.2952
6.392000	 29.1592
6.410000	 28.9893
6.428000	 28.8519
6.446000	 28.8058
6.464000	 28.8181
6.482000	 28.864
6.500000	 28.8995
6.518000	 28.9636
6.536000	 29.0686
6.554000	 29.1766
6.572000	 29.2866
6.590000	 29.3587
6.608000	 29.3392
6.626000	 29.2792
6.644000	 29.2283
6.662000	 29.1435
6.680000	 28.9931
6.698000	 28.8266
6.716000	 28.7434
6.734000	 28.7004
6.752000	 28.6435
6.770000	 28.6569
6.788000	 28.7827
6.806000	 28.9764
6.824000	 29.1614
6.842000	 29.2648
6.860000	 29.316
6.878000	 29.3547
6.896000	 29.3439
6.914000	 29.2571
6.932000	 29.1082
6.950000	 28.9301
6.968000	 28.7605
6.986000	 28.6282
7.004000	 28.5604
7.022000	 28.5295
7.040000	 28.4778
7.058000	 28.4483
7.076000	 28.5156
7.094000	 28.6528
7.112000	 28.7619
7.130000	 28.7951
7.148000	 28.814
7.166000	 28.9012
7.184000	 29.0333
7.202000	 29.1018
7.220000	 29.0684
7.238000	 28.9888
7.256000	 28.8854
7.274000	 28.7509
7.292000	 28.6193
7.310000	 28.5218
7.328000	 28.4248
7.346000	 28.2891
7.364000	 28.1516
7.382000	 28.0907
7.400000	 28.1465
7.418000	 28.2901
7.436000	 28.444
7.454000	 28.562
7.472000	 28.6705
7.490000	 28.7997
7.508000	 28.9233
7.526000	 28.9948
7.544000	 29.0141
7.562000	 29.0057
7.580000	 28.9545
7.598000	 28.8381
7.616000	 28.6951
7.634000	 28.5921
7.652000	 28.5435
7.670000	 28.5051
7.688000	 28.4283
7.706000	 28.3064
7.724000	 28.1756
7.742000	 28.0774
7.760000	 28.0278
7.778000	 28.0289
7.796000	 28.0871
7.814000	 28.1988
7.832000	 28.3375
7.850000	 28.4731
7.868000	 28.5891
7.886000	 28.6701
7.904000	 28.7003
7.922000	 28.6997
7.940000	 28.72
7.958000	 28.7718
7.976000	 28.7908
7.994000	 28.7168
8.012000	 28.5755
8.030000	 28.4472
8.048000	 28.3668
8.065999	 28.2966
8.084000	 28.1964
8.102000	 28.0853
8.120000	 28.0167
8.138000	 28.0083
8.155999	 28.0256
8.173999	 28.0404
8.192000	 28.0648
8.210000	 28.1106
8.228000	 28.1598
8.246000	 28.1984
8.263999	 28.2433
8.282000	 28.3131
8.300000	 28.3947
8.318000	 28.4589
8.336000	 28.49
8.353999	 28.492
8.372000	 28.4782
8.390000	 28.4601
8.408000	 28.4349
8.426000	 28.3843
8.443999	 28.2973
8.462000	 28.1903
8.480000	 28.0872
8.498000	 27.9882
8.516000	 27.8774
8.533999	 27.7612
8.552000	 27.6733
8.570000	 27.6363
8.588000	 27.6327
8.606000	 27.6263
8.624000	 27.6055
8.641999	 27.5899
8.660000	 27.6046
8.678000	 27.6561
8.696000	 27.7343
8.714000	 27.8263
8.731999	 27.9208
8.750000	 28.0069
8.768000	 28.0749
8.786000	 28.1231
8.804000	 28.1581
8.821999	 28.1843
8.840000	 28.1965
8.858000	 28.1854
8.876000	 28.1542
8.894000	 28.1192
8.911999	 28.0895
8.930000	 28.0513
8.948000	 27.9811
8.966000	 27.8764
8.984000	 27.7615
9.001999	 27.6599
9.020000	 27.568
9.038000	 27.4681
9.056000	 27.3622
9.074000	 27.2817
9.092000	 27.256
9.109999	 27.2803
9.128000	 27.3206
9.146000	 27.3471
9.164000	 27.3573
9.182000	 27.368
9.199999	 27.3951
9.218000	 27.4477
9.236000	 27.5319
9.254000	 27.6495
9.272000	 27.7875
9.289999	 27.9136
9.308000	 27.9908
9.326000	 28.0034
9.344000	 27.9723
9.362000	 27.9398
9.379999	 27.9347
9.398000	 27.9497
9.416000	 27.951
9.434000	 27.9116
9.452000	 27.8353
9.469999	 27.7505
9.488000	 27.6823
9.506000	 27.6329
9.524000	 27.5858
9.542000	 27.523
9.560000	 27.4366
9.577999	 27.3267
9.596000	 27.1984
9.614000	 27.065
9.632000	 26.9521
9.650000	 26.8846
9.667999	 26.8667
9.686000	 26.8741
9.704000	 26.8712
9.722000	 26.8401
9.740000	 26.7935
9.757999	 26.761
9.776000	 26.766
9.794000	 26.8133
9.812000	 26.897
9.830000	 27.0127
9.847999	 27.1586
9.866000	 27.3282
9.884000	 27.5034
9.902000	 27.657
9.920000	 27.763
9.937999	 27.8045
9.956000	 27.7776
9.974000	 27.6921
9.992000	 27.5718
10.01	27.4495
10.028	27.3588
10.046	27.3187
10.064	27.3263
10.082	27.3594
10.1	27.3873
10.118	27.3832
10.136	27.3329
10.154	27.234
10.172	27.0942
10.19	26.929
10.208	26.7576
10.226	26.5984
10.244	26.4634
10.262	26.3543
10.28	26.2651
10.298	26.1897
10.316	26.1287
10.334	26.0909
10.352	26.0867
10.37	26.1216
10.388	26.1892
10.406	26.2742
10.424	26.3584
10.442	26.428
10.46	26.4786
10.478	26.5156
10.496	26.5515
10.514	26.599
10.532	26.6674
10.55	26.753
10.568	26.8413
10.586	26.9109
10.604	26.9454
10.622	26.9399
10.64	26.9039
10.658	26.8549
10.676	26.8107
10.694	26.782
10.712	26.7707
10.73	26.7718
10.748	26.7759
10.766	26.7735
10.784	26.7568
10.802	26.7214
10.82	26.6687
10.838	26.6045
10.856	26.5342
10.874	26.4598
10.892	26.3789
10.91	26.2876
10.928	26.1866
10.946	26.0843
10.964	25.9947
10.982	25.9323
11	25.9027
11.018	25.8999
11.036	25.9072
11.054	25.9032
11.072	25.8736
11.09	25.8151
11.108	25.7372
11.126	25.6584
11.144	25.5965
11.162	25.5648
11.18	25.5672
11.198	25.6005
11.216	25.6574
11.234	25.7295
11.252	25.808
11.27	25.8854
11.288	25.9542
11.306	26.0079
11.324	26.0424
11.342	26.0579
11.36	26.059
11.378	26.0546
11.396	26.0535
11.414	26.0626
11.432	26.083
11.45	26.1106
11.468	26.1372
11.486	26.1554
11.504	26.1605
11.522	26.1529
11.54	26.1363
11.558	26.1158
11.576	26.0941
11.594	26.0696
11.612	26.0373
11.63	25.9907
11.648	25.9247
11.666	25.8381
11.684	25.7342
11.702	25.6191
11.72	25.501
11.738	25.3871
11.756	25.2831
11.774	25.1932
11.792	25.1196
11.81	25.0631
11.828	25.0224
11.846	24.9935
11.864	24.97
11.882	24.9454
11.9	24.9152
11.918	24.8789
11.936	24.841
11.954	24.8082
11.972	24.7881
11.99	24.7858
12.008	24.8015
12.026	24.8318
12.044	24.8708
12.062	24.9136
12.08	24.9576
12.098	25.0032
12.116	25.0529
12.134	25.1093
12.152	25.1737
12.17	25.245
12.188	25.3198
12.206	25.3932
12.224	25.4591
12.242	25.5107
12.26	25.5413
12.278	25.546
12.296	25.5237
12.314	25.4783
12.332	25.418
12.35	25.3547
12.368	25.301
12.386	25.2667
12.404	25.2562
12.422	25.2673
12.44	25.2919
12.458	25.3189
12.476	25.3371
12.494	25.338
12.512	25.3181
12.53	25.2791
12.548	25.2261
12.566	25.1652
12.584	25.1025
12.602	25.0421
12.62	24.9859
12.638	24.9328
12.656	24.8795
12.674	24.8219
12.692	24.7557
12.71	24.678
12.728	24.5877
12.746	24.4861
12.764	24.377
12.782	24.2664
12.8	24.1609
12.818	24.0679
12.836	23.9936
12.854	23.9426
12.872	23.9171
12.89	23.9155
12.908	23.933
12.926	23.962
12.944	23.9936
12.962	24.0191
12.98	24.0321
12.998	24.03
13.016	24.0145
13.034	23.9912
13.052	23.9683
13.07	23.9547
13.088	23.958
13.106	23.9825
13.124	24.0287
13.142	24.0927
13.16	24.1678
13.178	24.2449
13.196	24.3148
13.214	24.3696
13.232	24.4031
13.25	24.4124
13.268	24.3974
13.286	24.3615
13.304	24.3103
13.322	24.2518
13.34	24.1951
13.358	24.1493
13.376	24.1224
13.394	24.1198
13.412	24.1438
13.43	24.1922
13.448	24.2592
13.466	24.3354
13.484	24.4098
13.502	24.4713
13.52	24.5106
13.538	24.5212
13.556	24.5008
13.574	24.4507
13.592	24.3761
13.61	24.2841
13.628	24.1827
13.646	24.08
13.664	23.9821
13.682	23.894
13.7	23.818
13.718	23.7552
13.736	23.7045
13.754	23.6642
13.772	23.6312
13.79	23.6022
13.808	23.5738
13.826	23.5422
13.844	23.5048
13.862	23.4598
13.88	23.4069
13.898	23.3476
13.916	23.2844
13.934	23.2202
13.952	23.1585
13.97	23.1018
13.988	23.0522
14.006	23.0101
14.024	22.9751
14.042	22.9459
14.06	22.9212
14.078	22.9001
14.096	22.8825
14.114	22.8691
14.132	22.8613
14.15	22.8606
14.168	22.8681
14.186	22.8845
14.204	22.9092
14.222	22.9408
14.24	22.9769
14.258	23.0147
14.276	23.0517
14.294	23.086
14.312	23.1159
14.33	23.1406
14.348	23.1597
14.366	23.1733
14.384	23.1821
14.402	23.1867
14.42	23.1882
14.438	23.1876
14.456	23.1863
14.474	23.1853
14.492	23.1861
14.51	23.1894
14.528	23.1961
14.546	23.2062
14.564	23.2194
14.582	23.2348
14.6	23.251
14.618	23.2665
14.636	23.2792
14.654	23.2875
14.672	23.2902
14.69	23.2863
14.708	23.2755
14.726	23.2583
14.744	23.2353
14.762	23.2079
14.78	23.1769
14.798	23.1434
14.816	23.1082
14.834	23.0718
14.852	23.0342
14.87	22.9952
14.888	22.9545
14.906	22.9119
14.924	22.8674
14.942	22.821
14.96	22.7734
14.978	22.7252
14.996	22.6777
15.014	22.6319
15.032	22.5888
15.05	22.5488
15.068	22.5122
15.086	22.479
15.104	22.4485
15.122	22.4196
15.14	22.3914
15.158	22.3629
15.176	22.3336
15.194	22.3028
15.212	22.2707
15.23	22.2375
15.248	22.2035
15.266	22.1694
15.284	22.1355
15.302	22.1025
15.32	22.0707
15.338	22.0402
15.356	22.0112
15.374	21.9839
15.392	21.9584
15.41	21.9347
15.428	21.9129
15.446	21.8927
15.464	21.8738
15.482	21.8561
15.5	21.8391
15.518	21.8223
15.536	21.805
15.554	21.7868
15.572	21.7672
15.59	21.746
15.608	21.7228
15.626	21.6976
15.644	21.6706
15.662	21.642
15.68	21.6125
15.698	21.5825
15.716	21.553
15.734	21.5248
15.752	21.4988
15.77	21.4758
15.788	21.4568
15.806	21.4423
15.824	21.4329
15.842	21.4291
15.86	21.4311
15.878	21.439
15.896	21.4525
15.914	21.4712
15.932	21.4944
15.95	21.5216
15.968	21.5519
15.986	21.5842
16.004	21.6179
16.022	21.6523
16.04	21.6865
16.058	21.72
16.076	21.7524
16.094	21.783
16.112	21.8115
16.13	21.8375
16.148	21.8606
16.166	21.8804
16.184	21.8967
16.202	21.9098
16.22	21.9195
16.238	21.926
16.256	21.9296
16.274	21.9303
16.292	21.9283
16.31	21.9236
16.328	21.9162
16.346	21.9056
16.364	21.8918
16.382	21.874
16.4	21.8523
16.418	21.8264
16.436	21.7964
16.454	21.7628
16.472	21.726
16.49	21.6871
16.508	21.6472
16.526	21.6073
16.544	21.569
16.562	21.5333
16.58	21.501
16.598	21.4733
16.616	21.4502
16.634	21.432
16.652	21.4183
16.67	21.4085
16.688	21.402
16.706	21.3978
16.724	21.3951
16.742	21.3928
16.76	21.39
16.778	21.3861
16.796	21.3801
16.814	21.3709
16.832	21.358
16.85	21.3399
16.868	21.3158
16.886	21.2851
16.904	21.2467
16.922	21.2004
16.94	21.146
16.958	21.0837
16.976	21.014
16.994	20.9382
17.012	20.8579
17.03	20.774
17.048	20.6893
17.066	20.6049
17.084	20.5226
17.102	20.4442
17.12	20.3705
17.138	20.3028
17.156	20.2411
17.174	20.1857
17.192	20.1364
17.21	20.0929
17.228	20.0548
17.246	20.0217
17.264	19.9933
17.282	19.9695
17.3	19.9501
17.318	19.9351
17.336	19.9244
17.354	19.9181
17.372	19.916
17.39	19.9178
17.408	19.9237
17.426	19.9328
17.444	19.9448
17.462	19.9591
17.48	19.9755
17.498	19.9934
17.516	20.0127
17.534	20.0335
17.552	20.0568
17.57	20.0827
17.588	20.1128
17.606	20.1474
17.624	20.1877
17.642	20.2339
17.66	20.2863
17.678	20.3445
17.696	20.408
17.714	20.4751
17.732	20.5442
17.75	20.6136
17.768	20.6802
17.786	20.7429
17.804	20.7978
17.822	20.8444
17.84	20.8802
17.858	20.9062
17.876	20.922
17.894	20.9301
17.912	20.9311
17.93	20.929
17.948	20.9247
17.966	20.9228
17.984	20.9244
18.002	20.9329
18.02	20.9488
18.038	20.9735
18.056	21.0056
18.074	21.045
18.092	21.088
18.11	21.1338
18.128	21.1773
18.146	21.2173
18.164	21.249
18.182	21.2711
18.2	21.2808
18.218	21.2773
18.236	21.2593
18.254	21.2285
18.272	21.1849
18.29	21.1324
18.308	21.0713
18.326	21.0079
18.344	20.9432
18.362	20.8839
18.38	20.8317
18.398	20.7921
18.416	20.767
18.434	20.7604
18.452	20.7726
18.47	20.805
18.488	20.8566
18.506	20.9281
18.524	21.0141
18.542	21.1141
18.56	21.2206
18.578	21.3332
18.596	21.4406
18.614	21.5421
18.632	21.6265
18.65	21.6933
18.668	21.7311
18.686	21.7398
18.704	21.7113
18.722	21.6459
18.74	21.5387
18.758	21.3909
18.776	21.2018
18.794	20.9737
18.812	20.7097
18.83	20.4135
18.848	20.0913
18.866	19.748
18.884	19.3918
18.902	19.0279
18.92	18.6657
18.938	18.31
18.956	17.9702
18.974	17.6499
18.992	17.3575
19.01	17.095
19.028	16.8687
19.046	16.6788
19.064	16.529
19.082	16.4178
19.1	16.3458
19.118	16.3107
19.136	16.3101
19.154	16.3409
19.172	16.3975
19.19	16.4774
19.208	16.5728
19.226	16.6818
19.244	16.7945
19.262	16.9102
19.28	17.0195
19.298	17.1225
19.316	17.2104
19.334	17.2837
19.352	17.3374
19.37	17.3717
19.388	17.3844
19.406	17.3752
19.424	17.3462
19.442	17.2972
19.46	17.2324
19.478	17.1517
19.496	17.0613
19.514	16.9621
19.532	16.8596
19.55	16.7566
19.568	16.6568
19.586	16.5646
19.604	16.4813
19.622	16.4121
19.64	16.3565
19.658	16.3182
19.676	16.2967
19.694	16.2933
19.712	16.3078
19.73	16.3386
19.748	16.3861
19.766	16.4466
19.784	16.52
19.802	16.6027
19.82	16.6929
19.838	16.7886
19.856	16.8859
19.874	16.9849
19.892	17.0813
19.91	17.1757
19.928	17.2652
19.946	17.3497
19.964	17.4288
19.982	17.502
20	17.5703
20.018	17.6336
20.036	17.6931
20.054	17.7501
20.072	17.8048
20.09	17.8593
20.108	17.9133
20.126	17.9689
20.144	18.0262
20.162	18.0859
20.18	18.1485
20.198	18.2135
20.216	18.2808
20.234	18.3498
20.252	18.4184
20.27	18.4871
20.288	18.5525
20.306	18.615
20.324	18.672
20.342	18.7218
20.36	18.7643
20.378	18.7971
20.396	18.8207
20.414	18.8339
20.432	18.8365
20.45	18.8293
20.468	18.8119
20.486	18.7854
20.504	18.7512
20.522	18.7092
20.54	18.6629
20.558	18.6116
20.576	18.5585
20.594	18.5048
20.612	18.4512
20.63	18.4004
20.648	18.352
20.666	18.3084
20.684	18.2695
20.702	18.2363
20.72	18.2098
20.738	18.1896
20.756	18.1761
20.774	18.1692
20.792	18.1685
20.81	18.1744
20.828	18.1858
20.846	18.2016
20.864	18.2221
20.882	18.245
20.9	18.2708
20.918	18.2975
20.936	18.3237
20.954	18.3495
20.972	18.3722
20.99	18.3923
21.008	18.408
21.026	18.4182
21.044	18.423
21.062	18.4204
21.08	18.411
21.098	18.394
21.116	18.3691
21.134	18.3368
21.152	18.2971
21.17	18.25
21.188	18.1968
21.206	18.1375
21.224	18.0729
21.242	18.0045
21.26	17.9317
21.278	17.8565
21.296	17.7791
21.314	17.6997
21.332	17.6196
21.35	17.5385
21.368	17.4567
21.386	17.3746
21.404	17.2918
21.422	17.2081
21.44	17.1236
21.458	17.0371
21.476	16.9483
21.494	16.8571
21.512	16.7618
21.53	16.6628
21.548	16.5597
21.566	16.4518
21.584	16.3397
21.602	16.2238
21.62	16.1037
21.638	15.9806
21.656	15.8557
21.674	15.7283
21.692	15.6014
21.71	15.4752
21.728	15.3503
21.746	15.2303
21.764	15.1139
21.782	15.0037
21.8	14.9018
21.818	14.8073
21.836	14.7221
21.854	14.6466
21.872	14.5804
21.89	14.5245
21.908	14.4789
21.926	14.4424
21.944	14.4146
21.962	14.3957
21.98	14.3835
21.998	14.3785
22.016	14.3796
22.034	14.3843
22.052	14.3934
22.07	14.4055
22.088	14.4194
22.106	14.4356
22.124	14.4529
22.142	14.4707
22.16	14.4896
22.178	14.5098
22.196	14.531
22.214	14.5542
22.232	14.5806
22.25	14.6094
22.268	14.6427
22.286	14.6817
22.304	14.7256
22.322	14.7765
22.34	14.8346
22.358	14.8997
22.376	14.9732
22.394	15.0551
22.412	15.1449
22.43	15.2425
22.448	15.3484
22.466	15.4608
22.484	15.5786
22.502	15.7027
22.52	15.8292
22.538	15.9573
22.556	16.0873
22.574	16.214
22.592	16.3376
22.61	16.4573
22.628	16.5671
22.646	16.6684
22.664	16.7594
22.682	16.8357
22.7	16.8987
22.718	16.9467
22.736	16.9767
22.754	16.99
22.772	16.9853
22.79	16.9614
22.808	16.9188
22.826	16.8577
22.844	16.778
22.862	16.6795
22.88	16.5648
22.898	16.4343
22.916	16.2877
22.934	16.129
22.952	15.9586
22.97	15.7764
22.988	15.5879
23.006	15.3935
23.024	15.1931
23.042	14.9925
23.06	14.7919
23.078	14.5913
23.096	14.3959
23.114	14.2052
23.132	14.0198
23.15	13.8434
23.168	13.6757
23.186	13.5171
23.204	13.3709
23.222	13.237
23.24	13.1153
23.258	13.0077
23.276	12.9147
23.294	12.8353
23.312	12.7691
23.33	12.7163
23.348	12.6764
23.366	12.6484
23.384	12.6324
23.402	12.6281
23.42	12.6341
23.438	12.6502
23.456	12.6765
23.474	12.7122
23.492	12.7574
23.51	12.8118
23.528	12.8743
23.546	12.9444
23.564	13.0223
23.582	13.1085
23.6	13.2027
23.618	13.3049
23.636	13.4159
23.654	13.5363
23.672	13.6655
23.69	13.8044
23.708	13.9538
23.726	14.1133
23.744	14.2827
23.762	14.4622
23.78	14.6523
23.798	14.8513
23.816	15.0574
23.834	15.2728
23.852	15.4943
23.87	15.7171
23.888	15.9442
23.906	16.1727
23.924	16.3952
23.942	16.6134
23.96	16.8268
23.978	17.0263
23.996	17.2103
24.014	17.3819
24.032	17.5309
24.05	17.6515
24.068	17.7495
24.086	17.8167
24.104	17.8447
24.122	17.8386
24.14	17.7948
24.158	17.7075
24.176	17.5772
24.194	17.4053
24.212	17.1912
24.23	16.9335
24.248	16.6335
24.266	16.2953
24.284	15.9197
24.302	15.5038
24.32	15.0569
24.338	14.5868
24.356	14.0856
24.374	13.5633
24.392	13.0353
24.41	12.4954
24.428	11.9468
24.446	11.4088
24.464	10.8877
24.482	10.3744
24.5	9.885184
24.518	9.433383
24.536	9.008102
24.554	8.619222
24.572	8.281644
24.59	7.991965
24.608	7.749792
24.626	7.565680
24.644	7.444676
24.662	7.381155
24.68	7.379638
24.698	7.444851
24.716	7.576153
24.734	7.770813
24.752	8.026551
24.77	8.345244
24.788	8.725852
24.806	9.160961
24.824	9.646685
24.842	10.1896
24.86	10.7788
24.878	11.401
24.896	12.062
24.914	12.7594
24.932	13.4791
24.95	14.2145
24.968	14.9742
24.986	15.7469
25.004	16.5204
25.022	17.3006
25.04	18.0852
25.058	18.8637
25.076	19.6318
25.094	20.3955
25.112	21.1476
25.13	21.8809
25.148	22.5991
25.166	23.3008
25.184	23.9804
25.202	24.6354
25.22	25.2696
25.238	25.8787
25.256	26.4583
25.274	27.0108
25.292	27.5355
25.31	28.0282
25.328	28.4866
25.346	28.9142
25.364	29.3074
25.382	29.6615
25.4	29.9784
25.418	30.2584
25.436	30.4973
25.454	30.6921
25.472	30.846
25.49	30.9571
25.508	31.0223
25.526	31.0423
25.544	31.0187
25.562	30.9463
25.58	30.8204
25.598	30.6449
25.616	30.418
25.634	30.1343
25.652	29.7904
25.67	29.391
25.688	28.9326
25.706	28.4109
25.724	27.8251
25.742	27.1777
25.76	26.4679
25.778	25.6949
25.796	24.8543
25.814	23.952
25.832	22.9975
25.85	21.9954
25.868	20.9361
25.886	19.8318
25.904	18.6972
25.922	17.5307
25.94	16.3238
25.958	15.1004
25.976	13.8843
25.994	12.6648
26.012	11.4412
26.03	10.2354
26.048	9.066613
26.066	7.924812
26.084	6.809642
26.102	5.727504
26.12	4.683865
26.138	3.676829
26.156	2.702307
26.174	1.756411
26.192	0.843299
26.21	-0.031912
26.228	-0.889069
26.246	-1.748642
26.264	-2.609029
26.282	-3.462081
26.3	-4.323553
26.318	-5.208937
26.336	-6.117091
26.354	-7.042580
26.372	-7.986857
26.39	-8.952052
26.408	-9.947997
26.426	-10.9636
26.444	-11.9809
26.462	-12.9875
26.48	-14.0127
26.498	-15.0301
26.516	-15.9983
26.534	-16.8895
26.552	-17.7451
26.57	-18.5352
26.588	-19.2155
26.606	-19.7584
26.624	-20.2013
26.642	-20.5222
26.66	-20.6909
26.678	-20.6877
26.696	-20.5332
26.714	-20.2244
26.732	-19.7552
26.75	-19.1135
26.768	-18.293
26.786	-17.3252
26.804	-16.2437
26.822	-15.0569
26.84	-13.7302
26.858	-12.3082
26.876	-10.8402
26.894	-9.343612
26.912	-7.772058
26.93	-6.172665
26.948	-4.599138
26.966	-3.025564
26.984	-1.329765
27.002	0.262712
27.02	1.502771
27.028	1.837730