File: Bakgrunnsmateriale/MATLAB/FTIR/ftir_data/LPE454/Mapping_121/LPE454_t100.asc
PE IR       SPECTRUM    SPECTRUM    ASCII       PEDS        1.60
  -1
LP93F7~1.ASC
17/05/19
22:36:08.00
17/05/19
22:36:34.00
tln
$LPE454_t0100$<tbV0>[13.0,10.4,8.0,0.0,27,1,0]
27.028
64

2002,4.07
MIRTGS : RIGHTBACK : INTERNAL 2
MIR : ON : INTERNAL 2
OPTKBR

0.200000
8
8.000000
FILLER
RATIO
SPECTRUM
UNLOCKED 256

DOUBLE
64
COMBINED
1
0
0

0.002000
RATIO

1
0
TRUE
51149
0
LEFT NOT FITTED RIGHT NOT FITTED 0
NONE
NONE
15600
12
4.427000
51148
TRUE
1 0 8 72 0 0 0 0

15798

#HDR
-1
-1
#GR
µM
%T
2.38419e-05
0.0
2.000000
0.002000
12515
8
32.2254
-13.0816
#DATA
2.000000	 0.303506
2.018000	 0.426429
2.036000	 0.354487
2.054000	 0.212049
2.072000	 0.135325
2.090000	 0.034129
2.108000	 0.270629
2.126000	 0.270523
2.144000	 0.030926
2.162000	 -0.386551
2.180000	 15.7603
2.198000	 -0.732518
2.216000	 -0.639414
2.234000	 0.009794
2.252000	 0.278671
2.270000	 0.125183
2.288000	 0.021612
2.306000	 0.166415
2.324000	 0.067846
2.342000	 -0.027195
2.360000	 0.151621
2.378000	 -0.016517
2.396000	 0.074918
2.414000	 0.491309
2.432000	 -0.075089
2.450000	 -1.155533
2.468000	 0.435164
2.486000	 0.872786
2.504000	 0.464869
2.522000	 0.016729
2.540000	 -0.071022
2.558000	 0.403526
2.576000	 -0.129637
2.594000	 0.092636
2.612000	 0.041174
2.630000	 0.083365
2.648000	 0.106400
2.666000	 0.212665
2.684000	 -0.005010
2.702000	 0.096067
2.720000	 0.007533
2.738000	 0.021784
2.756000	 0.069546
2.774000	 0.147907
2.792000	 -0.087769
2.810000	 0.052555
2.828000	 0.075172
2.846000	 -0.043086
2.864000	 0.134959
2.882000	 -0.028781
2.900000	 0.066551
2.918000	 0.105631
2.936000	 0.104845
2.954000	 0.076568
2.972000	 0.034008
2.990000	 0.034887
3.008000	 0.006035
3.026000	 0.137170
3.044000	 0.061083
3.062000	 0.012354
3.080000	 0.005067
3.098000	 0.135518
3.116000	 0.049430
3.134000	 0.072273
3.152000	 0.132846
3.170000	 0.051552
3.188000	 0.091864
3.206000	 0.153405
3.224000	 0.111835
3.242000	 -0.037819
3.260000	 -0.061091
3.278000	 0.057570
3.296000	 -0.061540
3.314000	 0.145983
3.332000	 0.018966
3.350000	 0.091103
3.368000	 0.038112
3.386000	 0.097087
3.404000	 0.156304
3.422000	 0.072845
3.440000	 0.080368
3.458000	 0.079567
3.476000	 0.101854
3.494000	 0.024198
3.512000	 0.018997
3.530000	 0.160461
3.548000	 0.097824
3.566000	 0.036410
3.584000	 -0.014980
3.602000	 -0.048782
3.620000	 0.006229
3.638000	 0.077049
3.656000	 0.032966
3.674000	 0.066150
3.692000	 0.052798
3.710000	 0.076694
3.728000	 0.017513
3.746000	 -0.014543
3.764000	 0.036633
3.782000	 0.093824
3.800000	 0.074278
3.818000	 -0.005395
3.836000	 0.056786
3.854000	 0.038656
3.872000	 0.098917
3.890000	 0.126833
3.908000	 0.204928
3.926000	 0.057640
3.944000	 0.054783
3.962000	 0.003004
3.980000	 0.085173
3.998000	 -0.073465
4.016000	 0.006689
4.034000	 0.047644
4.052000	 0.024972
4.070000	 -0.003356
4.088000	 -0.045240
4.106000	 0.034643
4.124000	 0.064756
4.141999	 0.109392
4.160000	 0.053806
4.178000	 0.017896
4.196000	 0.064781
4.214000	 0.028110
4.232000	 0.167409
4.250000	 0.080244
4.268000	 0.208618
4.286000	 0.106004
4.304000	 0.109818
4.322000	 0.268261
4.340000	 0.258039
4.358000	 0.408939
4.375999	 0.508194
4.394000	 0.717865
4.412000	 0.916756
4.430000	 1.082688
4.448000	 1.405924
4.466000	 1.707984
4.484000	 2.097396
4.502000	 2.582781
4.520000	 3.040626
4.538000	 3.546257
4.556000	 4.089106
4.574000	 4.777838
4.592000	 5.471646
4.609999	 6.043043
4.628000	 6.951368
4.646000	 7.672675
4.664000	 8.588829
4.682000	 9.532888
4.700000	 10.3985
4.718000	 11.2137
4.736000	 12.1279
4.754000	 13.1349
4.772000	 13.7793
4.790000	 14.757
4.808000	 15.5573
4.826000	 16.3543
4.843999	 17.0918
4.862000	 17.9755
4.880000	 18.6484
4.898000	 19.4361
4.916000	 20.1963
4.934000	 20.837
4.952000	 21.4581
4.970000	 21.9594
4.988000	 22.6102
5.006000	 23.1766
5.024000	 23.7284
5.042000	 24.0837
5.060000	 24.5028
5.077999	 24.9633
5.096000	 25.3648
5.114000	 25.8761
5.132000	 26.2592
5.150000	 26.6294
5.168000	 26.9441
5.186000	 27.2811
5.204000	 27.5656
5.222000	 27.872
5.240000	 28.0888
5.258000	 28.3757
5.276000	 28.553
5.294000	 28.7025
5.312000	 28.9556
5.330000	 29.1384
5.348000	 29.3537
5.366000	 29.5701
5.384000	 29.742
5.402000	 29.9972
5.420000	 30.1487
5.438000	 30.1094
5.456000	 30.2123
5.474000	 30.4715
5.492000	 30.6994
5.510000	 30.7831
5.528000	 30.7516
5.546000	 30.8213
5.564000	 30.9285
5.582000	 31.0744
5.600000	 31.0954
5.618000	 31.1866
5.636000	 31.2649
5.654000	 31.2963
5.672000	 31.4238
5.690000	 31.5052
5.708000	 31.4405
5.726000	 31.4951
5.744000	 31.5995
5.762000	 31.7412
5.780000	 31.7416
5.798000	 31.7871
5.816000	 31.7942
5.834000	 31.8092
5.852000	 31.8456
5.870000	 31.9041
5.888000	 31.9005
5.906000	 31.823
5.923999	 31.8413
5.942000	 31.9651
5.960000	 32.0921
5.978000	 32.0744
5.996000	 32.0693
6.014000	 32.1172
6.032000	 32.1351
6.050000	 32.1158
6.068000	 32.1312
6.086000	 32.1566
6.104000	 32.1393
6.122000	 32.14
6.140000	 32.1974
6.158000	 32.2184
6.176000	 32.1573
6.194000	 32.1459
6.212000	 32.0682
6.230000	 32.0048
6.248000	 32.0795
6.266000	 32.1586
6.284000	 32.1525
6.302000	 32.1154
6.320000	 32.1452
6.338000	 32.1644
6.356000	 32.1711
6.374000	 32.1695
6.392000	 32.1126
6.410000	 32.1049
6.428000	 32.1027
6.446000	 32.0196
6.464000	 31.9972
6.482000	 32.0059
6.500000	 31.9694
6.518000	 31.9521
6.536000	 31.921
6.554000	 31.8978
6.572000	 31.929
6.590000	 31.9465
6.608000	 31.9504
6.626000	 31.9435
6.644000	 31.9189
6.662000	 31.9168
6.680000	 31.8941
6.698000	 31.8538
6.716000	 31.865
6.734000	 31.8827
6.752000	 31.8847
6.770000	 31.8747
6.788000	 31.8499
6.806000	 31.8335
6.824000	 31.8316
6.842000	 31.8132
6.860000	 31.7528
6.878000	 31.7043
6.896000	 31.7254
6.914000	 31.759
6.932000	 31.7435
6.950000	 31.6986
6.968000	 31.6941
6.986000	 31.7319
7.004000	 31.7182
7.022000	 31.6743
7.040000	 31.7035
7.058000	 31.7586
7.076000	 31.7392
7.094000	 31.6562
7.112000	 31.5818
7.130000	 31.5491
7.148000	 31.5357
7.166000	 31.5225
7.184000	 31.4958
7.202000	 31.466
7.220000	 31.4908
7.238000	 31.5568
7.256000	 31.5707
7.274000	 31.5126
7.292000	 31.4337
7.310000	 31.375
7.328000	 31.3464
7.346000	 31.3382
7.364000	 31.3584
7.382000	 31.406
7.400000	 31.4293
7.418000	 31.3942
7.436000	 31.3338
7.454000	 31.295
7.472000	 31.291
7.490000	 31.2974
7.508000	 31.2838
7.526000	 31.248
7.544000	 31.2064
7.562000	 31.1799
7.580000	 31.198
7.598000	 31.2469
7.616000	 31.2446
7.634000	 31.1652
7.652000	 31.1002
7.670000	 31.1142
7.688000	 31.1536
7.706000	 31.1604
7.724000	 31.1545
7.742000	 31.1588
7.760000	 31.145
7.778000	 31.1076
7.796000	 31.1003
7.814000	 31.1337
7.832000	 31.1386
7.850000	 31.0813
7.868000	 31.0075
7.886000	 30.9467
7.904000	 30.8905
7.922000	 30.8545
7.940000	 30.8646
7.958000	 30.9011
7.976000	 30.9258
7.994000	 30.9395
8.012000	 30.9666
8.030000	 31.0001
8.048000	 30.9931
8.065999	 30.9205
8.084000	 30.8277
8.102000	 30.7845
8.120000	 30.7947
8.138000	 30.8004
8.155999	 30.7667
8.173999	 30.7189
8.192000	 30.6906
8.210000	 30.6826
8.228000	 30.6826
8.246000	 30.6831
8.263999	 30.6751
8.282000	 30.657
8.300000	 30.6414
8.318000	 30.6358
8.336000	 30.6279
8.353999	 30.6048
8.372000	 30.5729
8.390000	 30.5512
8.408000	 30.5495
8.426000	 30.5541
8.443999	 30.5335
8.462000	 30.4714
8.480000	 30.3921
8.498000	 30.3343
8.516000	 30.3068
8.533999	 30.2921
8.552000	 30.2857
8.570000	 30.3053
8.588000	 30.3572
8.606000	 30.4147
8.624000	 30.4427
8.641999	 30.4322
8.660000	 30.4025
8.678000	 30.3759
8.696000	 30.3605
8.714000	 30.3551
8.731999	 30.3594
8.750000	 30.3703
8.768000	 30.3768
8.786000	 30.3654
8.804000	 30.3325
8.821999	 30.2887
8.840000	 30.2488
8.858000	 30.2191
8.876000	 30.1993
8.894000	 30.1891
8.911999	 30.1911
8.930000	 30.205
8.948000	 30.219
8.966000	 30.2121
8.984000	 30.1729
9.001999	 30.1145
9.020000	 30.061
9.038000	 30.0213
9.056000	 29.9813
9.074000	 29.9284
9.092000	 29.8729
9.109999	 29.8369
9.128000	 29.8267
9.146000	 29.8274
9.164000	 29.8247
9.182000	 29.8203
9.199999	 29.8227
9.218000	 29.8315
9.236000	 29.8377
9.254000	 29.8373
9.272000	 29.8353
9.289999	 29.835
9.308000	 29.831
9.326000	 29.815
9.344000	 29.7871
9.362000	 29.7573
9.379999	 29.7341
9.398000	 29.7159
9.416000	 29.6925
9.434000	 29.6588
9.452000	 29.6222
9.469999	 29.5969
9.488000	 29.5893
9.506000	 29.5878
9.524000	 29.5693
9.542000	 29.5207
9.560000	 29.4531
9.577999	 29.3952
9.596000	 29.3713
9.614000	 29.3871
9.632000	 29.4329
9.650000	 29.4936
9.667999	 29.5574
9.686000	 29.6162
9.704000	 29.663
9.722000	 29.6904
9.740000	 29.6908
9.757999	 29.6578
9.776000	 29.5888
9.794000	 29.4889
9.812000	 29.3734
9.830000	 29.2658
9.847999	 29.191
9.866000	 29.1647
9.884000	 29.188
9.902000	 29.2487
9.920000	 29.3267
9.937999	 29.3994
9.956000	 29.4459
9.974000	 29.4492
9.992000	 29.4024
10.01	29.3125
10.028	29.202
10.046	29.0989
10.064	29.0258
10.082	28.9916
10.1	28.9936
10.118	29.0235
10.136	29.0724
10.154	29.1302
10.172	29.1824
10.19	29.2112
10.208	29.2052
10.226	29.1647
10.244	29.1026
10.262	29.0357
10.28	28.9737
10.298	28.9172
10.316	28.863
10.334	28.8114
10.352	28.7682
10.37	28.7405
10.388	28.7288
10.406	28.7272
10.424	28.729
10.442	28.7334
10.46	28.7475
10.478	28.78
10.496	28.8314
10.514	28.8914
10.532	28.9408
10.55	28.9632
10.568	28.9516
10.586	28.9115
10.604	28.8558
10.622	28.7991
10.64	28.7526
10.658	28.7223
10.676	28.7098
10.694	28.7131
10.712	28.727
10.73	28.7452
10.748	28.7609
10.766	28.7696
10.784	28.7688
10.802	28.7578
10.82	28.7373
10.838	28.7076
10.856	28.6691
10.874	28.6228
10.892	28.5703
10.91	28.5139
10.928	28.4555
10.946	28.3963
10.964	28.3379
10.982	28.2832
11	28.237
11.018	28.2045
11.036	28.1885
11.054	28.1858
11.072	28.1888
11.09	28.1879
11.108	28.1772
11.126	28.1573
11.144	28.1345
11.162	28.1166
11.18	28.1068
11.198	28.1009
11.216	28.0894
11.234	28.062
11.252	28.0143
11.27	27.9506
11.288	27.8836
11.306	27.8271
11.324	27.7913
11.342	27.7788
11.36	27.7848
11.378	27.8015
11.396	27.8224
11.414	27.8442
11.432	27.866
11.45	27.887
11.468	27.9046
11.486	27.9145
11.504	27.9135
11.522	27.9003
11.54	27.8766
11.558	27.8463
11.576	27.813
11.594	27.7785
11.612	27.7429
11.63	27.7053
11.648	27.6657
11.666	27.6258
11.684	27.589
11.702	27.5585
11.72	27.5363
11.738	27.5217
11.756	27.5123
11.774	27.5057
11.792	27.5012
11.81	27.5006
11.828	27.5068
11.846	27.5218
11.864	27.5445
11.882	27.57
11.9	27.5911
11.918	27.6003
11.936	27.5935
11.954	27.5718
11.972	27.5413
11.99	27.5107
12.008	27.4875
12.026	27.4756
12.044	27.4749
12.062	27.4807
12.08	27.487
12.098	27.4887
12.116	27.4827
12.134	27.4686
12.152	27.4482
12.17	27.4247
12.188	27.4014
12.206	27.3812
12.224	27.3654
12.242	27.3535
12.26	27.3434
12.278	27.3306
12.296	27.3099
12.314	27.2762
12.332	27.2264
12.35	27.1612
12.368	27.0856
12.386	27.0074
12.404	26.9366
12.422	26.8816
12.44	26.8479
12.458	26.8364
12.476	26.8441
12.494	26.8652
12.512	26.8927
12.53	26.9203
12.548	26.9429
12.566	26.9577
12.584	26.9632
12.602	26.9593
12.62	26.947
12.638	26.9276
12.656	26.9029
12.674	26.875
12.692	26.846
12.71	26.8166
12.728	26.7863
12.746	26.7536
12.764	26.717
12.782	26.6756
12.8	26.6302
12.818	26.5835
12.836	26.54
12.854	26.5053
12.872	26.4837
12.89	26.478
12.908	26.4876
12.926	26.5095
12.944	26.5382
12.962	26.568
12.98	26.5943
12.998	26.6137
13.016	26.6253
13.034	26.6299
13.052	26.6295
13.07	26.6267
13.088	26.6248
13.106	26.6272
13.124	26.6377
13.142	26.6584
13.16	26.6897
13.178	26.729
13.196	26.7711
13.214	26.8084
13.232	26.8325
13.25	26.8359
13.268	26.8141
13.286	26.7668
13.304	26.698
13.322	26.6147
13.34	26.5256
13.358	26.4386
13.376	26.3586
13.394	26.2874
13.412	26.2233
13.43	26.1631
13.448	26.1036
13.466	26.0433
13.484	25.983
13.502	25.9257
13.52	25.8756
13.538	25.8363
13.556	25.81
13.574	25.7964
13.592	25.7933
13.61	25.7964
13.628	25.8013
13.646	25.8039
13.664	25.8017
13.682	25.7938
13.7	25.7809
13.718	25.7648
13.736	25.7472
13.754	25.7292
13.772	25.7111
13.79	25.6924
13.808	25.6722
13.826	25.6499
13.844	25.6252
13.862	25.5984
13.88	25.5707
13.898	25.5433
13.916	25.5179
13.934	25.4957
13.952	25.4775
13.97	25.4637
13.988	25.4541
14.006	25.4481
14.024	25.4448
14.042	25.4431
14.06	25.4422
14.078	25.4416
14.096	25.4409
14.114	25.4397
14.132	25.4379
14.15	25.4353
14.168	25.4312
14.186	25.425
14.204	25.4155
14.222	25.4019
14.24	25.3835
14.258	25.3603
14.276	25.3327
14.294	25.3013
14.312	25.2676
14.33	25.2332
14.348	25.1993
14.366	25.1673
14.384	25.1377
14.402	25.1103
14.42	25.0839
14.438	25.0572
14.456	25.0287
14.474	24.9971
14.492	24.9619
14.51	24.9234
14.528	24.8834
14.546	24.844
14.564	24.808
14.582	24.7778
14.6	24.7557
14.618	24.7431
14.636	24.7401
14.654	24.7452
14.672	24.756
14.69	24.7696
14.708	24.7821
14.726	24.79
14.744	24.7896
14.762	24.7785
14.78	24.7554
14.798	24.7203
14.816	24.6742
14.834	24.6196
14.852	24.5601
14.87	24.4993
14.888	24.4413
14.906	24.3895
14.924	24.347
14.942	24.3157
14.96	24.2958
14.978	24.2866
14.996	24.2867
15.014	24.2938
15.032	24.3044
15.05	24.3159
15.068	24.3261
15.086	24.3337
15.104	24.338
15.122	24.3398
15.14	24.3406
15.158	24.3422
15.176	24.3463
15.194	24.355
15.212	24.3692
15.23	24.3889
15.248	24.4132
15.266	24.4404
15.284	24.468
15.302	24.4929
15.32	24.5129
15.338	24.526
15.356	24.5303
15.374	24.5257
15.392	24.5126
15.41	24.4922
15.428	24.4663
15.446	24.4368
15.464	24.4056
15.482	24.3738
15.5	24.342
15.518	24.3094
15.536	24.2742
15.554	24.2347
15.572	24.1889
15.59	24.1345
15.608	24.0708
15.626	23.9974
15.644	23.9151
15.662	23.8268
15.68	23.7358
15.698	23.6457
15.716	23.5614
15.734	23.4872
15.752	23.4259
15.77	23.3801
15.788	23.3514
15.806	23.3399
15.824	23.3447
15.842	23.3644
15.86	23.3958
15.878	23.4363
15.896	23.4833
15.914	23.5332
15.932	23.5832
15.95	23.631
15.968	23.674
15.986	23.7099
16.004	23.7378
16.022	23.7565
16.04	23.7652
16.058	23.7644
16.076	23.7547
16.094	23.7377
16.112	23.7164
16.13	23.693
16.148	23.6712
16.166	23.6548
16.184	23.6462
16.202	23.648
16.22	23.6618
16.238	23.6873
16.256	23.7244
16.274	23.7702
16.292	23.8217
16.31	23.8759
16.328	23.9272
16.346	23.9723
16.364	24.0082
16.382	24.0311
16.4	24.0399
16.418	24.0337
16.436	24.0127
16.454	23.979
16.472	23.9341
16.49	23.8813
16.508	23.823
16.526	23.7613
16.544	23.6991
16.562	23.6379
16.58	23.5785
16.598	23.5221
16.616	23.4685
16.634	23.4176
16.652	23.3687
16.67	23.3215
16.688	23.2754
16.706	23.2299
16.724	23.185
16.742	23.141
16.76	23.0977
16.778	23.0556
16.796	23.0151
16.814	22.9775
16.832	22.9434
16.85	22.9147
16.868	22.8921
16.886	22.8764
16.904	22.8685
16.922	22.8685
16.94	22.8765
16.958	22.8919
16.976	22.9142
16.994	22.9417
17.012	22.973
17.03	23.007
17.048	23.0412
17.066	23.0747
17.084	23.1063
17.102	23.1353
17.12	23.1617
17.138	23.1858
17.156	23.2086
17.174	23.2306
17.192	23.2539
17.21	23.2789
17.228	23.307
17.246	23.3383
17.264	23.3731
17.282	23.4099
17.3	23.4479
17.318	23.4848
17.336	23.5178
17.354	23.5453
17.372	23.5634
17.39	23.5711
17.408	23.5654
17.426	23.5459
17.444	23.5119
17.462	23.4638
17.48	23.402
17.498	23.3284
17.516	23.2443
17.534	23.1509
17.552	23.0507
17.57	22.9444
17.588	22.8341
17.606	22.7202
17.624	22.604
17.642	22.4864
17.66	22.3681
17.678	22.2504
17.696	22.134
17.714	22.0213
17.732	21.9141
17.75	21.8143
17.768	21.7257
17.786	21.6498
17.804	21.5907
17.822	21.5493
17.84	21.529
17.858	21.53
17.876	21.554
17.894	21.5995
17.912	21.6669
17.93	21.7517
17.948	21.8529
17.966	21.9645
17.984	22.084
18.002	22.205
18.02	22.3235
18.038	22.4354
18.056	22.5358
18.074	22.6227
18.092	22.6925
18.11	22.745
18.128	22.7791
18.146	22.7956
18.164	22.7957
18.182	22.7813
18.2	22.7543
18.218	22.7178
18.236	22.6733
18.254	22.6242
18.272	22.5712
18.29	22.5172
18.308	22.4625
18.326	22.4084
18.344	22.3548
18.362	22.3021
18.38	22.2502
18.398	22.1983
18.416	22.1465
18.434	22.0947
18.452	22.0429
18.47	21.9908
18.488	21.9391
18.506	21.888
18.524	21.8378
18.542	21.7886
18.56	21.7409
18.578	21.6948
18.596	21.6503
18.614	21.6072
18.632	21.5639
18.65	21.5203
18.668	21.4747
18.686	21.4272
18.704	21.3759
18.722	21.3211
18.74	21.2629
18.758	21.2019
18.776	21.1393
18.794	21.0766
18.812	21.017
18.83	20.9623
18.848	20.9167
18.866	20.882
18.884	20.8623
18.902	20.8585
18.92	20.8738
18.938	20.9073
18.956	20.9602
18.974	21.0298
18.992	21.1145
19.01	21.2105
19.028	21.3135
19.046	21.4197
19.064	21.5228
19.082	21.6199
19.1	21.704
19.118	21.7736
19.136	21.8228
19.154	21.8522
19.172	21.8588
19.19	21.8444
19.208	21.8104
19.226	21.7586
19.244	21.6942
19.262	21.6183
19.28	21.5391
19.298	21.4565
19.316	21.3792
19.334	21.3066
19.352	21.2456
19.37	21.1956
19.388	21.1594
19.406	21.137
19.424	21.1277
19.442	21.1316
19.46	21.1455
19.478	21.1695
19.496	21.1999
19.514	21.2357
19.532	21.2749
19.55	21.316
19.568	21.3585
19.586	21.4008
19.604	21.4435
19.622	21.4861
19.64	21.5291
19.658	21.5731
19.676	21.6182
19.694	21.6653
19.712	21.7144
19.73	21.7656
19.748	21.8193
19.766	21.8737
19.784	21.9291
19.802	21.9832
19.82	22.0353
19.838	22.084
19.856	22.1269
19.874	22.1639
19.892	22.1921
19.91	22.2118
19.928	22.2214
19.946	22.2208
19.964	22.21
19.982	22.1887
20	22.1584
20.018	22.1195
20.036	22.073
20.054	22.0209
20.072	21.9631
20.09	21.9021
20.108	21.8377
20.126	21.7714
20.144	21.7034
20.162	21.6337
20.18	21.5624
20.198	21.4892
20.216	21.4134
20.234	21.335
20.252	21.2526
20.27	21.1662
20.288	21.0748
20.306	20.978
20.324	20.8757
20.342	20.7675
20.36	20.6539
20.378	20.5357
20.396	20.4128
20.414	20.2882
20.432	20.1612
20.45	20.0348
20.468	19.9097
20.486	19.7874
20.504	19.6713
20.522	19.5608
20.54	19.4595
20.558	19.3669
20.576	19.2854
20.594	19.2163
20.612	19.1595
20.63	19.1164
20.648	19.0864
20.666	19.0702
20.684	19.0678
20.702	19.0782
20.72	19.1013
20.738	19.1364
20.756	19.1817
20.774	19.2379
20.792	19.302
20.81	19.374
20.828	19.4524
20.846	19.5349
20.864	19.6221
20.882	19.7101
20.9	19.7996
20.918	19.8882
20.936	19.9743
20.954	20.058
20.972	20.1361
20.99	20.2094
21.008	20.2758
21.026	20.3346
21.044	20.3859
21.062	20.4283
21.08	20.462
21.098	20.4868
21.116	20.5024
21.134	20.5093
21.152	20.5078
21.17	20.4977
21.188	20.4803
21.206	20.4553
21.224	20.4235
21.242	20.3858
21.26	20.342
21.278	20.293
21.296	20.2389
21.314	20.18
21.332	20.1166
21.35	20.0487
21.368	19.9769
21.386	19.9012
21.404	19.8217
21.422	19.7393
21.44	19.6535
21.458	19.5655
21.476	19.4758
21.494	19.3844
21.512	19.2934
21.53	19.202
21.548	19.112
21.566	19.0244
21.584	18.9389
21.602	18.858
21.62	18.7812
21.638	18.7097
21.656	18.6449
21.674	18.5864
21.692	18.5354
21.71	18.4926
21.728	18.4575
21.746	18.4305
21.764	18.4115
21.782	18.4001
21.8	18.3962
21.818	18.3996
21.836	18.4086
21.854	18.4234
21.872	18.4434
21.89	18.4669
21.908	18.4947
21.926	18.525
21.944	18.557
21.962	18.5911
21.98	18.626
21.998	18.6618
22.016	18.6984
22.034	18.7353
22.052	18.7726
22.07	18.8106
22.088	18.8494
22.106	18.889
22.124	18.9297
22.142	18.9716
22.16	19.0147
22.178	19.0594
22.196	19.1056
22.214	19.1531
22.232	19.2016
22.25	19.2513
22.268	19.3012
22.286	19.3508
22.304	19.4003
22.322	19.4479
22.34	19.4938
22.358	19.5374
22.376	19.576
22.394	19.6106
22.412	19.6394
22.43	19.66
22.448	19.6737
22.466	19.6782
22.484	19.6716
22.502	19.6549
22.52	19.6263
22.538	19.5849
22.556	19.5314
22.574	19.4646
22.592	19.384
22.61	19.2902
22.628	19.1841
22.646	19.0647
22.664	18.9337
22.682	18.7938
22.7	18.6432
22.718	18.4854
22.736	18.3246
22.754	18.158
22.772	17.991
22.79	17.8281
22.808	17.6664
22.826	17.512
22.844	17.3689
22.862	17.2344
22.88	17.114
22.898	17.0104
22.916	16.9218
22.934	16.8515
22.952	16.8009
22.97	16.7688
22.988	16.7557
23.006	16.7624
23.024	16.788
23.042	16.8294
23.06	16.8877
23.078	16.9616
23.096	17.045
23.114	17.139
23.132	17.2423
23.15	17.3477
23.168	17.4566
23.186	17.5674
23.204	17.673
23.222	17.7742
23.24	17.8703
23.258	17.9563
23.276	18.0323
23.294	18.0987
23.312	18.1536
23.33	18.1963
23.348	18.2279
23.366	18.2497
23.384	18.2609
23.402	18.2624
23.42	18.2576
23.438	18.2459
23.456	18.228
23.474	18.2079
23.492	18.1858
23.51	18.1615
23.528	18.1388
23.546	18.1188
23.564	18.1004
23.582	18.0852
23.6	18.0744
23.618	18.0671
23.636	18.0624
23.654	18.0601
23.672	18.0609
23.69	18.0617
23.708	18.0606
23.726	18.0595
23.744	18.0549
23.762	18.0436
23.78	18.0282
23.798	18.0054
23.816	17.9717
23.834	17.9288
23.852	17.8754
23.87	17.809
23.888	17.7301
23.906	17.6386
23.924	17.5337
23.942	17.4147
23.96	17.2823
23.978	17.1379
23.996	16.9814
24.014	16.8126
24.032	16.6339
24.05	16.4466
24.068	16.249
24.086	16.0447
24.104	15.8369
24.122	15.6228
24.14	15.4058
24.158	15.191
24.176	14.9757
24.194	14.762
24.212	14.5559
24.23	14.3574
24.248	14.1655
24.266	13.9858
24.284	13.8214
24.302	13.669
24.32	13.5331
24.338	13.4177
24.356	13.3199
24.374	13.2421
24.392	13.1881
24.41	13.1579
24.428	13.1506
24.446	13.1676
24.464	13.2103
24.482	13.2779
24.5	13.3682
24.518	13.4801
24.536	13.616
24.554	13.7716
24.572	13.9412
24.59	14.1276
24.608	14.329
24.626	14.5382
24.644	14.7529
24.662	14.9772
24.68	15.2024
24.698	15.4202
24.716	15.6371
24.734	15.8477
24.752	16.0427
24.77	16.2227
24.788	16.3897
24.806	16.5349
24.824	16.6527
24.842	16.7492
24.86	16.8182
24.878	16.8524
24.896	16.853
24.914	16.8212
24.932	16.7531
24.95	16.6461
24.968	16.5013
24.986	16.3217
25.004	16.1097
25.022	15.8623
25.04	15.5824
25.058	15.2767
25.076	14.9469
25.094	14.5891
25.112	14.2114
25.13	13.8219
25.148	13.4151
25.166	12.9944
25.184	12.5697
25.202	12.1448
25.22	11.7136
25.238	11.2843
25.256	10.8653
25.274	10.4523
25.292	10.0468
25.31	9.656044
25.328	9.284321
25.346	8.926806
25.364	8.587356
25.382	8.270682
25.4	7.975448
25.418	7.701097
25.436	7.451370
25.454	7.229001
25.472	7.031168
25.49	6.859704
25.508	6.717495
25.526	6.606897
25.544	6.526186
25.562	6.471820
25.58	6.440716
25.598	6.437585
25.616	6.458312
25.634	6.494540
25.652	6.542251
25.67	6.608866
25.688	6.685026
25.706	6.759641
25.724	6.833722
25.742	6.911094
25.76	6.981024
25.778	7.033485
25.796	7.072457
25.814	7.098597
25.832	7.108296
25.85	7.098692
25.868	7.071315
25.886	7.027219
25.904	6.967171
25.922	6.888528
25.94	6.790690
25.958	6.682291
25.976	6.571920
25.994	6.456288
26.012	6.334787
26.03	6.214192
26.048	6.100953
26.066	5.995240
26.084	5.892639
26.102	5.788919
26.12	5.682868
26.138	5.580868
26.156	5.473617
26.174	5.350052
26.192	5.213169
26.21	5.073621
26.228	4.903774
26.246	4.674930
26.264	4.388565
26.282	4.056706
26.3	3.659609
26.318	3.177827
26.336	2.610980
26.354	1.967658
26.372	1.249973
26.39	0.458787
26.408	-0.421411
26.426	-1.374931
26.444	-2.374530
26.462	-3.400985
26.48	-4.494477
26.498	-5.619953
26.516	-6.721448
26.534	-7.761520
26.552	-8.796092
26.57	-9.784146
26.588	-10.6651
26.606	-11.4023
26.624	-12.0479
26.642	-12.5683
26.66	-12.9174
26.678	-13.0676
26.696	-13.0523
26.714	-12.8596
26.732	-12.4718
26.75	-11.8713
26.768	-11.0608
26.786	-10.0665
26.804	-8.915131
26.822	-7.610988
26.84	-6.123619
26.858	-4.498355
26.876	-2.785239
26.894	-1.000109
26.912	0.905859
26.93	2.878602
26.948	4.856990
26.966	6.889695
26.984	9.143958
27.002	11.2908
27.02	12.9684
27.028	13.4183