File: Bakgrunnsmateriale/MATLAB/FTIR/ftir_data/LPE454/Mapping_121/LPE454_t20.asc
PE IR       SPECTRUM    SPECTRUM    ASCII       PEDS        1.60
  -1
LPCB9C~1.ASC
17/05/19
15:57:34.00
17/05/19
15:58:00.00
tln
$LPE454_t0020$<tbV0>[-7.8,-10.4,8.0,0.0,27,1,0]
27.028
64

2002,4.07
MIRTGS : RIGHTBACK : INTERNAL 2
MIR : ON : INTERNAL 2
OPTKBR

0.200000
8
8.000000
FILLER
RATIO
SPECTRUM
UNLOCKED 256

DOUBLE
64
COMBINED
1
0
0

0.002000
RATIO

1
0
TRUE
51149
0
LEFT NOT FITTED RIGHT NOT FITTED 0
NONE
NONE
15600
12
4.427000
51148
TRUE
1 0 8 72 0 0 0 0

15798

#HDR
-1
-1
#GR
µM
%T
2.38419e-05
0.0
2.000000
0.002000
12515
8
30.9038
-3.397196
#DATA
2.000000	 -0.229763
2.018000	 0.324092
2.036000	 -0.069124
2.054000	 0.225415
2.072000	 0.313432
2.090000	 0.415366
2.108000	 -0.206466
2.126000	 0.314287
2.144000	 -0.731444
2.162000	 -1.269252
2.180000	 0.745369
2.198000	 -1.110077
2.216000	 -3.397196
2.234000	 0.699726
2.252000	 0.447118
2.270000	 0.210273
2.288000	 0.278641
2.306000	 0.294087
2.324000	 0.454393
2.342000	 -0.185398
2.360000	 -0.031771
2.378000	 -0.216100
2.396000	 -0.504670
2.414000	 0.381779
2.432000	 0.275151
2.450000	 -0.043121
2.468000	 0.085844
2.486000	 0.267080
2.504000	 0.066465
2.522000	 0.088813
2.540000	 0.227977
2.558000	 0.026494
2.576000	 0.201210
2.594000	 0.091406
2.612000	 -0.094266
2.630000	 -0.022827
2.648000	 -0.046309
2.666000	 0.202856
2.684000	 0.086072
2.702000	 0.022982
2.720000	 0.028736
2.738000	 -0.018779
2.756000	 0.185674
2.774000	 0.173583
2.792000	 0.130007
2.810000	 -0.202150
2.828000	 0.035446
2.846000	 -0.067548
2.864000	 0.015872
2.882000	 0.370068
2.900000	 0.087041
2.918000	 0.135350
2.936000	 0.127528
2.954000	 0.163250
2.972000	 -0.094236
2.990000	 0.121701
3.008000	 -0.051094
3.026000	 0.192529
3.044000	 -0.084363
3.062000	 0.126662
3.080000	 0.096955
3.098000	 0.130030
3.116000	 0.080092
3.134000	 0.101127
3.152000	 -0.020177
3.170000	 0.028156
3.188000	 -0.068630
3.206000	 0.002729
3.224000	 0.179227
3.242000	 -0.012963
3.260000	 0.096983
3.278000	 0.062414
3.296000	 -0.011310
3.314000	 0.089183
3.332000	 0.016715
3.350000	 0.069233
3.368000	 0.032632
3.386000	 0.113406
3.404000	 -0.042758
3.422000	 0.010766
3.440000	 0.001439
3.458000	 -0.064437
3.476000	 0.204853
3.494000	 0.043772
3.512000	 0.036639
3.530000	 0.056685
3.548000	 -0.090738
3.566000	 0.047301
3.584000	 0.092398
3.602000	 0.065419
3.620000	 0.131128
3.638000	 0.053773
3.656000	 -0.024951
3.674000	 0.079050
3.692000	 0.138706
3.710000	 0.062845
3.728000	 0.013594
3.746000	 0.128856
3.764000	 0.127841
3.782000	 0.147297
3.800000	 0.043866
3.818000	 0.078127
3.836000	 -0.032505
3.854000	 0.119646
3.872000	 0.123312
3.890000	 0.012226
3.908000	 0.100328
3.926000	 0.076082
3.944000	 0.114843
3.962000	 -0.084544
3.980000	 -0.207036
3.998000	 0.157089
4.016000	 -0.070849
4.034000	 0.029075
4.052000	 -0.062559
4.070000	 -0.177307
4.088000	 0.002545
4.106000	 0.412517
4.124000	 0.210835
4.141999	 0.070378
4.160000	 0.289368
4.178000	 0.090496
4.196000	 0.037683
4.214000	 0.113134
4.232000	 0.123814
4.250000	 0.169464
4.268000	 0.304177
4.286000	 0.283660
4.304000	 0.442714
4.322000	 0.487053
4.340000	 0.431246
4.358000	 0.613916
4.375999	 0.803132
4.394000	 1.011674
4.412000	 1.071434
4.430000	 1.448453
4.448000	 1.718548
4.466000	 2.020059
4.484000	 2.378151
4.502000	 2.786961
4.520000	 3.023000
4.538000	 3.485279
4.556000	 3.895123
4.574000	 4.589218
4.592000	 5.148696
4.609999	 5.824306
4.628000	 6.376845
4.646000	 6.812462
4.664000	 7.524250
4.682000	 7.995506
4.700000	 8.806745
4.718000	 9.428886
4.736000	 10.189
4.754000	 10.8488
4.772000	 11.5304
4.790000	 12.1512
4.808000	 12.4238
4.826000	 13.0915
4.843999	 13.7533
4.862000	 14.1034
4.880000	 14.6972
4.898000	 15.2023
4.916000	 15.6439
4.934000	 16.1437
4.952000	 16.5824
4.970000	 16.9201
4.988000	 17.21
5.006000	 17.5035
5.024000	 17.944
5.042000	 18.337
5.060000	 18.5487
5.077999	 18.8463
5.096000	 19.1233
5.114000	 19.4199
5.132000	 19.6649
5.150000	 19.8882
5.168000	 20.0731
5.186000	 20.2082
5.204000	 20.374
5.222000	 20.6409
5.240000	 20.9765
5.258000	 21.1355
5.276000	 21.2488
5.294000	 21.3634
5.312000	 21.3502
5.330000	 21.5323
5.348000	 21.7101
5.366000	 21.798
5.384000	 21.852
5.402000	 22.0352
5.420000	 22.3416
5.438000	 22.3948
5.456000	 22.4858
5.474000	 22.6107
5.492000	 22.6317
5.510000	 22.6515
5.528000	 22.7185
5.546000	 22.8979
5.564000	 22.9667
5.582000	 23.0126
5.600000	 23.089
5.618000	 23.1533
5.636000	 23.3025
5.654000	 23.4142
5.672000	 23.2201
5.690000	 23.2281
5.708000	 23.3077
5.726000	 23.2987
5.744000	 23.4058
5.762000	 23.6382
5.780000	 23.5346
5.798000	 23.4807
5.816000	 23.7529
5.834000	 23.8514
5.852000	 23.7692
5.870000	 23.7633
5.888000	 23.8783
5.906000	 23.8404
5.923999	 23.8612
5.942000	 23.929
5.960000	 23.8893
5.978000	 24.0003
5.996000	 24.0632
6.014000	 24.0465
6.032000	 24.1038
6.050000	 24.1644
6.068000	 24.1455
6.086000	 24.1205
6.104000	 24.1878
6.122000	 24.2275
6.140000	 24.1243
6.158000	 24.1122
6.176000	 24.2469
6.194000	 24.3435
6.212000	 24.4364
6.230000	 24.5441
6.248000	 24.5447
6.266000	 24.496
6.284000	 24.4635
6.302000	 24.4136
6.320000	 24.4198
6.338000	 24.5282
6.356000	 24.5502
6.374000	 24.5271
6.392000	 24.6169
6.410000	 24.7476
6.428000	 24.7259
6.446000	 24.6556
6.464000	 24.7487
6.482000	 24.9147
6.500000	 24.9088
6.518000	 24.7912
6.536000	 24.7263
6.554000	 24.7221
6.572000	 24.777
6.590000	 24.8226
6.608000	 24.8673
6.626000	 24.9474
6.644000	 24.9753
6.662000	 24.9471
6.680000	 24.9305
6.698000	 24.9238
6.716000	 24.9356
6.734000	 24.992
6.752000	 25.0556
6.770000	 25.0845
6.788000	 25.0615
6.806000	 25.0222
6.824000	 25.0374
6.842000	 25.0812
6.860000	 25.0954
6.878000	 25.051
6.896000	 24.9995
6.914000	 24.9801
6.932000	 24.9532
6.950000	 24.9858
6.968000	 25.1027
6.986000	 25.1683
7.004000	 25.1399
7.022000	 25.1317
7.040000	 25.1851
7.058000	 25.2267
7.076000	 25.2226
7.094000	 25.2027
7.112000	 25.2032
7.130000	 25.1919
7.148000	 25.1325
7.166000	 25.0935
7.184000	 25.1357
7.202000	 25.2444
7.220000	 25.3681
7.238000	 25.427
7.256000	 25.4145
7.274000	 25.4076
7.292000	 25.4354
7.310000	 25.4765
7.328000	 25.5251
7.346000	 25.5598
7.364000	 25.5571
7.382000	 25.5463
7.400000	 25.5551
7.418000	 25.5573
7.436000	 25.5243
7.454000	 25.4732
7.472000	 25.4404
7.490000	 25.4306
7.508000	 25.4211
7.526000	 25.4095
7.544000	 25.4246
7.562000	 25.5022
7.580000	 25.6224
7.598000	 25.7054
7.616000	 25.7304
7.634000	 25.7589
7.652000	 25.8076
7.670000	 25.8334
7.688000	 25.8259
7.706000	 25.8147
7.724000	 25.832
7.742000	 25.8711
7.760000	 25.8774
7.778000	 25.8235
7.796000	 25.7559
7.814000	 25.7223
7.832000	 25.7218
7.850000	 25.7447
7.868000	 25.7795
7.886000	 25.7946
7.904000	 25.7869
7.922000	 25.8138
7.940000	 25.9067
7.958000	 26.0012
7.976000	 26.0213
7.994000	 25.9805
8.012000	 25.9458
8.030000	 25.9446
8.048000	 25.9589
8.065999	 25.9736
8.084000	 25.9859
8.102000	 25.9905
8.120000	 25.9858
8.138000	 25.9855
8.155999	 26.0004
8.173999	 26.0225
8.192000	 26.0389
8.210000	 26.0506
8.228000	 26.0655
8.246000	 26.0816
8.263999	 26.0878
8.282000	 26.0838
8.300000	 26.0928
8.318000	 26.1447
8.336000	 26.2374
8.353999	 26.3258
8.372000	 26.3622
8.390000	 26.3431
8.408000	 26.3039
8.426000	 26.2744
8.443999	 26.2543
8.462000	 26.2296
8.480000	 26.1988
8.498000	 26.1779
8.516000	 26.1852
8.533999	 26.2229
8.552000	 26.2742
8.570000	 26.3213
8.588000	 26.3574
8.606000	 26.3739
8.624000	 26.3578
8.641999	 26.316
8.660000	 26.2814
8.678000	 26.2824
8.696000	 26.3172
8.714000	 26.3659
8.731999	 26.4141
8.750000	 26.4541
8.768000	 26.4732
8.786000	 26.4642
8.804000	 26.4476
8.821999	 26.4624
8.840000	 26.5255
8.858000	 26.6084
8.876000	 26.661
8.894000	 26.651
8.911999	 26.582
8.930000	 26.4833
8.948000	 26.3914
8.966000	 26.3351
8.984000	 26.3306
9.001999	 26.38
9.020000	 26.4711
9.038000	 26.577
9.056000	 26.6618
9.074000	 26.693
9.092000	 26.658
9.109999	 26.5758
9.128000	 26.4899
9.146000	 26.4384
9.164000	 26.4286
9.182000	 26.4365
9.199999	 26.4335
9.218000	 26.4134
9.236000	 26.3973
9.254000	 26.4152
9.272000	 26.4802
9.289999	 26.576
9.308000	 26.6659
9.326000	 26.7189
9.344000	 26.7343
9.362000	 26.7408
9.379999	 26.7676
9.398000	 26.8179
9.416000	 26.8682
9.434000	 26.8916
9.452000	 26.8793
9.469999	 26.843
9.488000	 26.7998
9.506000	 26.7558
9.524000	 26.7059
9.542000	 26.6471
9.560000	 26.5881
9.577999	 26.5488
9.596000	 26.5468
9.614000	 26.5804
9.632000	 26.6278
9.650000	 26.6587
9.667999	 26.6511
9.686000	 26.5975
9.704000	 26.5032
9.722000	 26.3862
9.740000	 26.2766
9.757999	 26.2083
9.776000	 26.2029
9.794000	 26.2539
9.812000	 26.3302
9.830000	 26.4013
9.847999	 26.4627
9.866000	 26.537
9.884000	 26.6499
9.902000	 26.802
9.920000	 26.959
9.937999	 27.0688
9.956000	 27.0927
9.974000	 27.0293
9.992000	 26.9167
10.01	26.8118
10.028	26.7607
10.046	26.7775
10.064	26.8408
10.082	26.9133
10.1	26.9622
10.118	26.973
10.136	26.9485
10.154	26.8976
10.172	26.8298
10.19	26.7551
10.208	26.6859
10.226	26.633
10.244	26.6002
10.262	26.5818
10.28	26.5671
10.298	26.5503
10.316	26.5372
10.334	26.5408
10.352	26.5711
10.37	26.6277
10.388	26.6999
10.406	26.7746
10.424	26.8435
10.442	26.9048
10.46	26.9603
10.478	27.0113
10.496	27.0566
10.514	27.0939
10.532	27.1226
10.55	27.1449
10.568	27.1647
10.586	27.185
10.604	27.2056
10.622	27.2223
10.64	27.2256
10.658	27.2047
10.676	27.151
10.694	27.0639
10.712	26.9537
10.73	26.8389
10.748	26.7393
10.766	26.6695
10.784	26.6326
10.802	26.62
10.82	26.6177
10.838	26.6112
10.856	26.594
10.874	26.5683
10.892	26.5437
10.91	26.5334
10.928	26.5482
10.946	26.5925
10.964	26.6629
10.982	26.7489
11	26.8367
11.018	26.9113
11.036	26.9619
11.054	26.9823
11.072	26.9737
11.09	26.9437
11.108	26.9048
11.126	26.8704
11.144	26.8487
11.162	26.8404
11.18	26.8397
11.198	26.8372
11.216	26.826
11.234	26.8064
11.252	26.7861
11.27	26.7752
11.288	26.7819
11.306	26.8056
11.324	26.8356
11.342	26.8544
11.36	26.8458
11.378	26.8016
11.396	26.726
11.414	26.6349
11.432	26.5494
11.45	26.4864
11.468	26.4535
11.486	26.4457
11.504	26.4494
11.522	26.4483
11.54	26.4315
11.558	26.3968
11.576	26.3507
11.594	26.3037
11.612	26.2666
11.63	26.2457
11.648	26.2414
11.666	26.2497
11.684	26.2639
11.702	26.2774
11.72	26.2853
11.738	26.2845
11.756	26.2748
11.774	26.258
11.792	26.238
11.81	26.2201
11.828	26.2099
11.846	26.2117
11.864	26.2274
11.882	26.2568
11.9	26.298
11.918	26.349
11.936	26.4084
11.954	26.4757
11.972	26.5509
11.99	26.632
12.008	26.7147
12.026	26.7925
12.044	26.8581
12.062	26.9048
12.08	26.9299
12.098	26.9347
12.116	26.9243
12.134	26.9058
12.152	26.8854
12.17	26.8673
12.188	26.8524
12.206	26.839
12.224	26.8236
12.242	26.802
12.26	26.7707
12.278	26.7274
12.296	26.6718
12.314	26.6051
12.332	26.5308
12.35	26.4535
12.368	26.3789
12.386	26.3131
12.404	26.2612
12.422	26.2267
12.44	26.2105
12.458	26.2107
12.476	26.2226
12.494	26.2399
12.512	26.2553
12.53	26.2628
12.548	26.2582
12.566	26.2399
12.584	26.2089
12.602	26.1683
12.62	26.1232
12.638	26.0794
12.656	26.0426
12.674	26.0176
12.692	26.0078
12.71	26.0146
12.728	26.0376
12.746	26.0744
12.764	26.1217
12.782	26.1763
12.8	26.2354
12.818	26.2972
12.836	26.3603
12.854	26.4238
12.872	26.4858
12.89	26.5444
12.908	26.5972
12.926	26.6416
12.944	26.6754
12.962	26.6984
12.98	26.712
12.998	26.7186
13.016	26.7217
13.034	26.7237
13.052	26.7259
13.07	26.7275
13.088	26.7255
13.106	26.7148
13.124	26.6913
13.142	26.6516
13.16	26.5942
13.178	26.5209
13.196	26.4364
13.214	26.3473
13.232	26.2612
13.25	26.1843
13.268	26.1211
13.286	26.0717
13.304	26.0326
13.322	25.9964
13.34	25.9537
13.358	25.8948
13.376	25.8123
13.394	25.7023
13.412	25.566
13.43	25.4102
13.448	25.2463
13.466	25.088
13.484	24.9498
13.502	24.8442
13.52	24.78
13.538	24.7612
13.556	24.7869
13.574	24.8521
13.592	24.9491
13.61	25.0683
13.628	25.2002
13.646	25.3356
13.664	25.4668
13.682	25.5871
13.7	25.6917
13.718	25.7765
13.736	25.839
13.754	25.8787
13.772	25.8965
13.79	25.8948
13.808	25.8767
13.826	25.8475
13.844	25.8122
13.862	25.7761
13.88	25.7432
13.898	25.717
13.916	25.6995
13.934	25.6915
13.952	25.6926
13.97	25.7017
13.988	25.7171
14.006	25.7372
14.024	25.7598
14.042	25.7829
14.06	25.8046
14.078	25.8233
14.096	25.8376
14.114	25.8469
14.132	25.8513
14.15	25.852
14.168	25.851
14.186	25.8513
14.204	25.8556
14.222	25.866
14.24	25.8841
14.258	25.9101
14.276	25.9422
14.294	25.9769
14.312	26.0097
14.33	26.0361
14.348	26.0516
14.366	26.0529
14.384	26.0384
14.402	26.0089
14.42	25.9671
14.438	25.9171
14.456	25.8634
14.474	25.8103
14.492	25.7608
14.51	25.7167
14.528	25.6777
14.546	25.6426
14.564	25.6092
14.582	25.5755
14.6	25.5396
14.618	25.5007
14.636	25.4586
14.654	25.4138
14.672	25.3668
14.69	25.318
14.708	25.2674
14.726	25.2146
14.744	25.1586
14.762	25.0981
14.78	25.0321
14.798	24.9602
14.816	24.8827
14.834	24.8012
14.852	24.7182
14.87	24.6375
14.888	24.5629
14.906	24.4986
14.924	24.4485
14.942	24.4158
14.96	24.4026
14.978	24.4095
14.996	24.4361
15.014	24.4811
15.032	24.5416
15.05	24.6138
15.068	24.6939
15.086	24.7779
15.104	24.8617
15.122	24.941
15.14	25.0125
15.158	25.0736
15.176	25.1226
15.194	25.1581
15.212	25.1801
15.23	25.1893
15.248	25.1867
15.266	25.1737
15.284	25.1525
15.302	25.125
15.32	25.0933
15.338	25.0592
15.356	25.0246
15.374	24.9912
15.392	24.9603
15.41	24.9329
15.428	24.9101
15.446	24.8926
15.464	24.8805
15.482	24.874
15.5	24.8729
15.518	24.8765
15.536	24.8837
15.554	24.8935
15.572	24.9046
15.59	24.9155
15.608	24.9249
15.626	24.9316
15.644	24.9349
15.662	24.9343
15.68	24.9298
15.698	24.9214
15.716	24.9096
15.734	24.8948
15.752	24.8774
15.77	24.8578
15.788	24.836
15.806	24.812
15.824	24.7856
15.842	24.7564
15.86	24.7237
15.878	24.6872
15.896	24.6467
15.914	24.602
15.932	24.5536
15.95	24.5021
15.968	24.4482
15.986	24.3932
16.004	24.3384
16.022	24.2848
16.04	24.2338
16.058	24.1863
16.076	24.143
16.094	24.1044
16.112	24.0709
16.13	24.0423
16.148	24.0185
16.166	23.999
16.184	23.9834
16.202	23.9711
16.22	23.9616
16.238	23.9546
16.256	23.9496
16.274	23.9466
16.292	23.9456
16.31	23.9469
16.328	23.9509
16.346	23.958
16.364	23.9685
16.382	23.9827
16.4	24.0006
16.418	24.0221
16.436	24.0467
16.454	24.0733
16.472	24.1013
16.49	24.1292
16.508	24.1559
16.526	24.1806
16.544	24.202
16.562	24.2197
16.58	24.2335
16.598	24.2431
16.616	24.2491
16.634	24.2517
16.652	24.2519
16.67	24.2501
16.688	24.2469
16.706	24.2431
16.724	24.2386
16.742	24.2335
16.76	24.2277
16.778	24.2209
16.796	24.2125
16.814	24.2019
16.832	24.1888
16.85	24.1728
16.868	24.1539
16.886	24.132
16.904	24.1078
16.922	24.0819
16.94	24.055
16.958	24.0286
16.976	24.0032
16.994	23.9802
17.012	23.9602
17.03	23.9437
17.048	23.9312
17.066	23.9224
17.084	23.9171
17.102	23.9142
17.12	23.9132
17.138	23.9125
17.156	23.9113
17.174	23.9086
17.192	23.9033
17.21	23.8951
17.228	23.8831
17.246	23.8675
17.264	23.8483
17.282	23.8259
17.3	23.8006
17.318	23.7733
17.336	23.7447
17.354	23.7152
17.372	23.686
17.39	23.6573
17.408	23.6298
17.426	23.6037
17.444	23.5791
17.462	23.5559
17.48	23.5339
17.498	23.5127
17.516	23.4919
17.534	23.471
17.552	23.449
17.57	23.4257
17.588	23.4002
17.606	23.3722
17.624	23.3413
17.642	23.3074
17.66	23.2706
17.678	23.2313
17.696	23.1896
17.714	23.1463
17.732	23.1021
17.75	23.0576
17.768	23.014
17.786	22.9715
17.804	22.9314
17.822	22.8937
17.84	22.8592
17.858	22.8277
17.876	22.7994
17.894	22.7739
17.912	22.7512
17.93	22.7307
17.948	22.7122
17.966	22.6954
17.984	22.6805
18.002	22.6673
18.02	22.6565
18.038	22.6481
18.056	22.6435
18.074	22.6427
18.092	22.6473
18.11	22.6573
18.128	22.6737
18.146	22.6964
18.164	22.7256
18.182	22.7605
18.2	22.8005
18.218	22.844
18.236	22.8904
18.254	22.9368
18.272	22.9826
18.29	23.0247
18.308	23.0627
18.326	23.0934
18.344	23.1167
18.362	23.1304
18.38	23.1346
18.398	23.1284
18.416	23.1122
18.434	23.0859
18.452	23.0509
18.47	23.0075
18.488	22.958
18.506	22.903
18.524	22.8451
18.542	22.7849
18.56	22.7254
18.578	22.6669
18.596	22.612
18.614	22.5609
18.632	22.5154
18.65	22.4756
18.668	22.4426
18.686	22.4161
18.704	22.3964
18.722	22.3832
18.74	22.3761
18.758	22.3748
18.776	22.3785
18.794	22.387
18.812	22.3993
18.83	22.4153
18.848	22.4343
18.866	22.4561
18.884	22.4803
18.902	22.5068
18.92	22.5352
18.938	22.5653
18.956	22.5969
18.974	22.6297
18.992	22.6635
19.01	22.6977
19.028	22.7318
19.046	22.765
19.064	22.7964
19.082	22.8252
19.1	22.8501
19.118	22.8705
19.136	22.8847
19.154	22.8925
19.172	22.8922
19.19	22.8838
19.208	22.8662
19.226	22.8396
19.244	22.8037
19.262	22.7588
19.28	22.7057
19.298	22.6446
19.316	22.5779
19.334	22.5056
19.352	22.4307
19.37	22.3531
19.388	22.2762
19.406	22.1999
19.424	22.1269
19.442	22.0571
19.46	21.9924
19.478	21.9332
19.496	21.8797
19.514	21.8325
19.532	21.7908
19.55	21.7546
19.568	21.7232
19.586	21.6957
19.604	21.6717
19.622	21.6498
19.64	21.63
19.658	21.6111
19.676	21.5932
19.694	21.5759
19.712	21.559
19.73	21.543
19.748	21.528
19.766	21.5145
19.784	21.5026
19.802	21.4932
19.82	21.4867
19.838	21.4834
19.856	21.4841
19.874	21.4888
19.892	21.4979
19.91	21.5113
19.928	21.5285
19.946	21.5497
19.964	21.5739
19.982	21.6013
20	21.6308
20.018	21.6622
20.036	21.6949
20.054	21.7279
20.072	21.7614
20.09	21.7941
20.108	21.8261
20.126	21.8565
20.144	21.8853
20.162	21.9117
20.18	21.9355
20.198	21.9562
20.216	21.9733
20.234	21.9868
20.252	21.9953
20.27	21.9991
20.288	21.9967
20.306	21.9882
20.324	21.9725
20.342	21.9486
20.36	21.9166
20.378	21.8752
20.396	21.8248
20.414	21.7649
20.432	21.6953
20.45	21.617
20.468	21.5297
20.486	21.4345
20.504	21.333
20.522	21.2251
20.54	21.1142
20.558	20.9997
20.576	20.8852
20.594	20.7718
20.612	20.6608
20.63	20.5557
20.648	20.4559
20.666	20.3653
20.684	20.2838
20.702	20.2131
20.72	20.1546
20.738	20.108
20.756	20.0748
20.774	20.055
20.792	20.0479
20.81	20.0539
20.828	20.0722
20.846	20.1021
20.864	20.1437
20.882	20.1949
20.9	20.2559
20.918	20.3255
20.936	20.4028
20.954	20.4876
20.972	20.578
20.99	20.6744
21.008	20.7755
21.026	20.8809
21.044	20.9904
21.062	21.1026
21.08	21.2181
21.098	21.3352
21.116	21.4541
21.134	21.5738
21.152	21.6927
21.17	21.8113
21.188	21.9269
21.206	22.0395
21.224	22.1478
21.242	22.2489
21.26	22.3438
21.278	22.4287
21.296	22.5036
21.314	22.5672
21.332	22.6165
21.35	22.6525
21.368	22.6729
21.386	22.677
21.404	22.665
21.422	22.6361
21.44	22.59
21.458	22.5283
21.476	22.4507
21.494	22.358
21.512	22.2532
21.53	22.135
21.548	22.0075
21.566	21.873
21.584	21.7308
21.602	21.5871
21.62	21.4408
21.638	21.2948
21.656	21.1537
21.674	21.0157
21.692	20.8852
21.71	20.7632
21.728	20.6496
21.746	20.5475
21.764	20.4563
21.782	20.3766
21.8	20.3089
21.818	20.253
21.836	20.2077
21.854	20.1736
21.872	20.1495
21.89	20.1333
21.908	20.1259
21.926	20.1247
21.944	20.1278
21.962	20.1359
21.98	20.1457
21.998	20.1574
22.016	20.1701
22.034	20.1819
22.052	20.193
22.07	20.203
22.088	20.2109
22.106	20.2171
22.124	20.2213
22.142	20.2233
22.16	20.2235
22.178	20.2223
22.196	20.2196
22.214	20.2158
22.232	20.2115
22.25	20.2065
22.268	20.2012
22.286	20.1962
22.304	20.1911
22.322	20.186
22.34	20.1812
22.358	20.1763
22.376	20.1709
22.394	20.1654
22.412	20.159
22.43	20.1509
22.448	20.1415
22.466	20.1301
22.484	20.116
22.502	20.0997
22.52	20.0803
22.538	20.0575
22.556	20.0315
22.574	20.0026
22.592	19.9707
22.61	19.9361
22.628	19.8996
22.646	19.8611
22.664	19.8209
22.682	19.78
22.7	19.7382
22.718	19.6957
22.736	19.6529
22.754	19.6099
22.772	19.5664
22.79	19.5225
22.808	19.4784
22.826	19.4332
22.844	19.3865
22.862	19.3388
22.88	19.2884
22.898	19.235
22.916	19.1789
22.934	19.1187
22.952	19.0543
22.97	18.9858
22.988	18.9114
23.006	18.8304
23.024	18.7434
23.042	18.6504
23.06	18.5505
23.078	18.4446
23.096	18.3351
23.114	18.2209
23.132	18.1033
23.15	17.9871
23.168	17.8709
23.186	17.7564
23.204	17.649
23.222	17.5475
23.24	17.4532
23.258	17.3723
23.276	17.3036
23.294	17.2481
23.312	17.2106
23.33	17.1911
23.348	17.1892
23.366	17.2072
23.384	17.2461
23.402	17.3044
23.42	17.3807
23.438	17.4763
23.456	17.5896
23.474	17.7159
23.492	17.8559
23.51	18.0091
23.528	18.1685
23.546	18.3337
23.564	18.5057
23.582	18.676
23.6	18.8426
23.618	19.0079
23.636	19.164
23.654	19.3071
23.672	19.4407
23.69	19.5593
23.708	19.6588
23.726	19.742
23.744	19.8068
23.762	19.8506
23.78	19.874
23.798	19.8787
23.816	19.866
23.834	19.8334
23.852	19.7851
23.87	19.7264
23.888	19.6534
23.906	19.5704
23.924	19.4869
23.942	19.4009
23.96	19.3133
23.978	19.2347
23.996	19.1678
24.014	19.1086
24.032	19.068
24.05	19.0526
24.068	19.0567
24.086	19.0865
24.104	19.1481
24.122	19.239
24.14	19.3595
24.158	19.5118
24.176	19.6983
24.194	19.915
24.212	20.1561
24.23	20.4232
24.248	20.7162
24.266	21.0238
24.284	21.3415
24.302	21.6765
24.32	22.0135
24.338	22.3389
24.356	22.6645
24.374	22.9776
24.392	23.2583
24.41	23.5124
24.428	23.7383
24.446	23.9173
24.464	24.0423
24.482	24.122
24.5	24.1452
24.518	24.1015
24.536	23.9963
24.554	23.8287
24.572	23.5957
24.59	23.2939
24.608	22.928
24.626	22.5056
24.644	22.0276
24.662	21.4894
24.68	20.9061
24.698	20.2908
24.716	19.6306
24.734	18.9389
24.752	18.2378
24.77	17.5258
24.788	16.7986
24.806	16.0776
24.824	15.377
24.842	14.6833
24.86	14.0089
24.878	13.3698
24.896	12.7631
24.914	12.187
24.932	11.6493
24.95	11.1552
24.968	10.7011
24.986	10.2858
25.004	9.909012
25.022	9.574305
25.04	9.277140
25.058	9.009432
25.076	8.769617
25.094	8.563104
25.112	8.377158
25.13	8.199132
25.148	8.035418
25.166	7.883460
25.184	7.733131
25.202	7.578618
25.22	7.425107
25.238	7.271154
25.256	7.114814
25.274	6.954633
25.292	6.792856
25.31	6.632625
25.328	6.474873
25.346	6.316445
25.364	6.162973
25.382	6.020748
25.4	5.887250
25.418	5.762447
25.436	5.653125
25.454	5.564402
25.472	5.491771
25.49	5.437811
25.508	5.406796
25.526	5.400316
25.544	5.416133
25.562	5.454547
25.58	5.516013
25.598	5.602297
25.616	5.710971
25.634	5.838221
25.652	5.981636
25.67	6.143586
25.688	6.322422
25.706	6.515987
25.724	6.723729
25.742	6.946527
25.76	7.183956
25.778	7.435684
25.796	7.702758
25.814	7.984023
25.832	8.277462
25.85	8.581603
25.868	8.897491
25.886	9.224862
25.904	9.563192
25.922	9.914087
25.94	10.2779
25.958	10.6494
25.976	11.0232
25.994	11.4011
26.012	11.7837
26.03	12.1671
26.048	12.5472
26.066	12.9203
26.084	13.2936
26.102	13.6762
26.12	14.073
26.138	14.4756
26.156	14.892
26.174	15.3323
26.192	15.7978
26.21	16.2805
26.228	16.7935
26.246	17.3506
26.264	17.9548
26.282	18.5991
26.3	19.2845
26.318	20.0124
26.336	20.7946
26.354	21.6218
26.372	22.4714
26.39	23.3237
26.408	24.2026
26.426	25.0946
26.444	25.9667
26.462	26.7945
26.48	27.6191
26.498	28.4088
26.516	29.1107
26.534	29.6855
26.552	30.1731
26.57	30.5573
26.588	30.8084
26.606	30.9025
26.624	30.8526
26.642	30.6697
26.66	30.3627
26.678	29.9269
26.696	29.3398
26.714	28.646
26.732	27.8952
26.75	27.097
26.768	26.1929
26.786	25.2643
26.804	24.4025
26.822	23.6415
26.84	22.8996
26.858	22.2536
26.876	21.7915
26.894	21.5539
26.912	21.469
26.93	21.5838
26.948	21.9547
26.966	22.7155
26.984	23.975
27.002	25.3639
27.02	26.4855
27.028	26.7656