File: Bakgrunnsmateriale/MATLAB/FTIR/ftir_data/LPE454/Mapping_121/LPE454_t08.asc
PE IR       SPECTRUM    SPECTRUM    ASCII       PEDS        1.60
  -1
LPE39C~1.ASC
17/05/19
15:01:37.00
17/05/19
15:02:03.00
tln
$LPE454_t0008$<tbV0>[-5.2,-13.0,8.0,0.0,27,1,0]
27.028
64

2002,4.07
MIRTGS : RIGHTBACK : INTERNAL 2
MIR : ON : INTERNAL 2
OPTKBR

0.200000
8
8.000000
FILLER
RATIO
SPECTRUM
UNLOCKED 256

DOUBLE
64
COMBINED
1
0
0

0.002000
RATIO

1
0
TRUE
51149
0
LEFT NOT FITTED RIGHT NOT FITTED 0
NONE
NONE
15600
12
4.427000
51148
TRUE
1 0 8 72 0 0 0 0

15798

#HDR
-1
-1
#GR
µM
%T
2.38419e-05
0.0
2.000000
0.002000
12515
8
35.5544
-13.575
#DATA
2.000000	 -0.122332
2.018000	 0.212459
2.036000	 -0.085067
2.054000	 -0.285344
2.072000	 0.836112
2.090000	 1.093729
2.108000	 0.047928
2.126000	 0.135321
2.144000	 0.164783
2.162000	 0.039045
2.180000	 0.224066
2.198000	 0.776312
2.216000	 0.449890
2.234000	 4.507131
2.252000	 -0.057101
2.270000	 0.883041
2.288000	 0.656336
2.306000	 0.464870
2.324000	 0.382561
2.342000	 0.460904
2.360000	 0.036448
2.378000	 0.171208
2.396000	 0.455313
2.414000	 0.167121
2.432000	 0.233390
2.450000	 -0.069855
2.468000	 0.121895
2.486000	 0.366000
2.504000	 0.121806
2.522000	 0.424537
2.540000	 -0.195499
2.558000	 -0.066899
2.576000	 0.163902
2.594000	 -0.049059
2.612000	 0.313315
2.630000	 -0.042704
2.648000	 -0.027804
2.666000	 0.108989
2.684000	 0.146104
2.702000	 0.078489
2.720000	 0.032931
2.738000	 0.232547
2.756000	 0.080107
2.774000	 0.116873
2.792000	 -0.035628
2.810000	 0.023629
2.828000	 0.057368
2.846000	 -0.059529
2.864000	 0.004338
2.882000	 0.424800
2.900000	 0.183851
2.918000	 -0.004115
2.936000	 -0.001460
2.954000	 -0.000558
2.972000	 0.104563
2.990000	 0.096570
3.008000	 0.086424
3.026000	 0.085344
3.044000	 0.027308
3.062000	 0.001989
3.080000	 0.052393
3.098000	 0.140888
3.116000	 -0.009516
3.134000	 0.061067
3.152000	 -0.049929
3.170000	 0.146561
3.188000	 0.238418
3.206000	 0.308893
3.224000	 0.062832
3.242000	 0.033785
3.260000	 0.000577
3.278000	 0.018723
3.296000	 -0.008765
3.314000	 0.001616
3.332000	 0.109657
3.350000	 -0.107622
3.368000	 -0.076627
3.386000	 0.121742
3.404000	 0.025610
3.422000	 0.088977
3.440000	 0.015055
3.458000	 0.011362
3.476000	 0.087770
3.494000	 0.006861
3.512000	 0.188590
3.530000	 0.172422
3.548000	 0.086263
3.566000	 -0.049200
3.584000	 -0.029209
3.602000	 0.087755
3.620000	 0.035918
3.638000	 0.032188
3.656000	 0.062039
3.674000	 0.012286
3.692000	 -0.021780
3.710000	 0.074450
3.728000	 0.032884
3.746000	 0.094879
3.764000	 0.067770
3.782000	 0.190295
3.800000	 0.016651
3.818000	 0.028224
3.836000	 0.097899
3.854000	 -0.030470
3.872000	 0.124892
3.890000	 0.041186
3.908000	 0.042138
3.926000	 -0.019958
3.944000	 -0.022459
3.962000	 0.183741
3.980000	 0.139752
3.998000	 0.303678
4.016000	 0.146329
4.034000	 0.007094
4.052000	 0.055654
4.070000	 -0.100193
4.088000	 -0.068759
4.106000	 0.020482
4.124000	 0.329492
4.141999	 0.177774
4.160000	 0.202511
4.178000	 0.018213
4.196000	 0.058161
4.214000	 0.062733
4.232000	 0.127560
4.250000	 0.184729
4.268000	 0.265652
4.286000	 0.304744
4.304000	 0.392103
4.322000	 0.385324
4.340000	 0.510011
4.358000	 0.710881
4.375999	 0.765251
4.394000	 1.083313
4.412000	 1.270787
4.430000	 1.501179
4.448000	 1.709191
4.466000	 2.075304
4.484000	 2.508642
4.502000	 2.943074
4.520000	 3.535665
4.538000	 4.121954
4.556000	 4.624605
4.574000	 5.439288
4.592000	 6.012397
4.609999	 6.676920
4.628000	 7.584258
4.646000	 8.326642
4.664000	 9.351196
4.682000	 10.018
4.700000	 10.8043
4.718000	 11.6697
4.736000	 12.5778
4.754000	 13.4848
4.772000	 14.1936
4.790000	 15.1059
4.808000	 16.0414
4.826000	 16.6122
4.843999	 17.2029
4.862000	 17.9948
4.880000	 18.5593
4.898000	 19.3209
4.916000	 19.9657
4.934000	 20.5752
4.952000	 21.1429
4.970000	 21.6743
4.988000	 22.0428
5.006000	 22.5366
5.024000	 23.0489
5.042000	 23.7173
5.060000	 24.1233
5.077999	 24.441
5.096000	 24.7486
5.114000	 24.9211
5.132000	 25.1386
5.150000	 25.4439
5.168000	 25.8049
5.186000	 26.2178
5.204000	 26.6629
5.222000	 26.8779
5.240000	 26.9402
5.258000	 27.0179
5.276000	 27.1243
5.294000	 27.3444
5.312000	 27.716
5.330000	 28.0696
5.348000	 28.4371
5.366000	 28.6039
5.384000	 28.6373
5.402000	 28.6585
5.420000	 28.5253
5.438000	 28.5906
5.456000	 28.8601
5.474000	 29.1696
5.492000	 29.4207
5.510000	 29.6132
5.528000	 29.84
5.546000	 29.7181
5.564000	 29.5547
5.582000	 29.6035
5.600000	 29.5964
5.618000	 29.6392
5.636000	 29.9224
5.654000	 30.3132
5.672000	 30.6539
5.690000	 30.7706
5.708000	 30.6444
5.726000	 30.4984
5.744000	 30.4021
5.762000	 30.239
5.780000	 30.1105
5.798000	 30.3744
5.816000	 30.8444
5.834000	 30.9795
5.852000	 30.9677
5.870000	 31.1448
5.888000	 31.3003
5.906000	 31.0545
5.923999	 30.8029
5.942000	 30.683
5.960000	 30.5704
5.978000	 30.6447
5.996000	 30.7568
6.014000	 30.9026
6.032000	 31.3061
6.050000	 31.5918
6.068000	 31.5945
6.086000	 31.5312
6.104000	 31.4553
6.122000	 31.3552
6.140000	 31.1106
6.158000	 30.9582
6.176000	 30.9616
6.194000	 30.9554
6.212000	 30.9944
6.230000	 31.1742
6.248000	 31.4666
6.266000	 31.7146
6.284000	 31.831
6.302000	 31.7828
6.320000	 31.6057
6.338000	 31.4581
6.356000	 31.313
6.374000	 31.1696
6.392000	 31.1328
6.410000	 31.2215
6.428000	 31.3187
6.446000	 31.3903
6.464000	 31.5576
6.482000	 31.8195
6.500000	 31.9994
6.518000	 32.0215
6.536000	 31.9347
6.554000	 31.8271
6.572000	 31.7421
6.590000	 31.5386
6.608000	 31.2634
6.626000	 31.1506
6.644000	 31.1405
6.662000	 31.1336
6.680000	 31.2352
6.698000	 31.4596
6.716000	 31.7202
6.734000	 31.8881
6.752000	 31.9344
6.770000	 31.9635
6.788000	 31.9501
6.806000	 31.8178
6.824000	 31.6462
6.842000	 31.5021
6.860000	 31.2756
6.878000	 30.9831
6.896000	 30.8132
6.914000	 30.7601
6.932000	 30.8144
6.950000	 31.0446
6.968000	 31.3439
6.986000	 31.5628
7.004000	 31.6926
7.022000	 31.7945
7.040000	 31.8555
7.058000	 31.8275
7.076000	 31.7447
7.094000	 31.625
7.112000	 31.4711
7.130000	 31.3257
7.148000	 31.1902
7.166000	 31.0505
7.184000	 30.9297
7.202000	 30.8801
7.220000	 30.9491
7.238000	 31.1004
7.256000	 31.265
7.274000	 31.4248
7.292000	 31.5839
7.310000	 31.7348
7.328000	 31.848
7.346000	 31.8666
7.364000	 31.776
7.382000	 31.6417
7.400000	 31.5183
7.418000	 31.3941
7.436000	 31.2446
7.454000	 31.0703
7.472000	 30.898
7.490000	 30.7784
7.508000	 30.7474
7.526000	 30.8016
7.544000	 30.9262
7.562000	 31.1058
7.580000	 31.2851
7.598000	 31.4055
7.616000	 31.4919
7.634000	 31.5995
7.652000	 31.7034
7.670000	 31.7436
7.688000	 31.7084
7.706000	 31.6112
7.724000	 31.4736
7.742000	 31.325
7.760000	 31.1659
7.778000	 30.9791
7.796000	 30.7948
7.814000	 30.6817
7.832000	 30.6718
7.850000	 30.7359
7.868000	 30.827
7.886000	 30.9297
7.904000	 31.0596
7.922000	 31.2245
7.940000	 31.4035
7.958000	 31.569
7.976000	 31.6957
7.994000	 31.7609
8.012000	 31.7659
8.030000	 31.7335
8.048000	 31.6669
8.065999	 31.5383
8.084000	 31.3395
8.102000	 31.1132
8.120000	 30.9201
8.138000	 30.7902
8.155999	 30.7165
8.173999	 30.6946
8.192000	 30.7288
8.210000	 30.7923
8.228000	 30.8311
8.246000	 30.8334
8.263999	 30.8551
8.282000	 30.9566
8.300000	 31.1358
8.318000	 31.339
8.336000	 31.507
8.353999	 31.6136
8.372000	 31.672
8.390000	 31.709
8.408000	 31.727
8.426000	 31.6999
8.443999	 31.6117
8.462000	 31.4799
8.480000	 31.3371
8.498000	 31.2039
8.516000	 31.0801
8.533999	 30.9578
8.552000	 30.842
8.570000	 30.7504
8.588000	 30.6917
8.606000	 30.6511
8.624000	 30.6145
8.641999	 30.597
8.660000	 30.6256
8.678000	 30.7044
8.696000	 30.8152
8.714000	 30.9352
8.731999	 31.0428
8.750000	 31.1295
8.768000	 31.2095
8.786000	 31.3061
8.804000	 31.4169
8.821999	 31.5072
8.840000	 31.5456
8.858000	 31.5363
8.876000	 31.5026
8.894000	 31.445
8.911999	 31.3394
8.930000	 31.1769
8.948000	 30.9861
8.966000	 30.8084
8.984000	 30.6639
9.001999	 30.5491
9.020000	 30.4543
9.038000	 30.3718
9.056000	 30.2935
9.074000	 30.2161
9.092000	 30.1509
9.109999	 30.1201
9.128000	 30.1419
9.146000	 30.2235
9.164000	 30.3625
9.182000	 30.5437
9.199999	 30.7305
9.218000	 30.8741
9.236000	 30.9476
9.254000	 30.9716
9.272000	 30.9963
9.289999	 31.0538
9.308000	 31.1306
9.326000	 31.1884
9.344000	 31.2002
9.362000	 31.1661
9.379999	 31.0973
9.398000	 31
9.416000	 30.8753
9.434000	 30.7318
9.452000	 30.5845
9.469999	 30.4442
9.488000	 30.3129
9.506000	 30.1923
9.524000	 30.097
9.542000	 30.0497
9.560000	 30.0633
9.577999	 30.1276
9.596000	 30.2139
9.614000	 30.2956
9.632000	 30.3621
9.650000	 30.4197
9.667999	 30.4788
9.686000	 30.541
9.704000	 30.5973
9.722000	 30.6405
9.740000	 30.6778
9.757999	 30.7307
9.776000	 30.8207
9.794000	 30.9504
9.812000	 31.0937
9.830000	 31.2056
9.847999	 31.246
9.866000	 31.2013
9.884000	 31.0907
9.902000	 30.9517
9.920000	 30.8175
9.937999	 30.6998
9.956000	 30.5904
9.974000	 30.478
9.992000	 30.3614
10.01	30.2512
10.028	30.1582
10.046	30.0816
10.064	30.0095
10.082	29.931
10.1	29.8471
10.118	29.7735
10.136	29.731
10.154	29.7328
10.172	29.779
10.19	29.859
10.208	29.9587
10.226	30.0657
10.244	30.1698
10.262	30.2613
10.28	30.333
10.298	30.3833
10.316	30.4193
10.334	30.4551
10.352	30.5045
10.37	30.5736
10.388	30.6556
10.406	30.7338
10.424	30.7883
10.442	30.8062
10.46	30.7853
10.478	30.7343
10.496	30.6663
10.514	30.5922
10.532	30.5169
10.55	30.4398
10.568	30.3568
10.586	30.2628
10.604	30.1542
10.622	30.0296
10.64	29.8918
10.658	29.7476
10.676	29.6094
10.694	29.4919
10.712	29.4087
10.73	29.3656
10.748	29.36
10.766	29.3831
10.784	29.4244
10.802	29.4738
10.82	29.5247
10.838	29.5712
10.856	29.61
10.874	29.6406
10.892	29.6657
10.91	29.6907
10.928	29.7211
10.946	29.7609
10.964	29.8118
10.982	29.8744
11	29.9502
11.018	30.0401
11.036	30.1415
11.054	30.2443
11.072	30.3322
11.09	30.3865
11.108	30.3957
11.126	30.3587
11.144	30.2855
11.162	30.1932
11.18	30.0974
11.198	30.0084
11.216	29.9286
11.234	29.8551
11.252	29.7826
11.27	29.7069
11.288	29.6248
11.306	29.5347
11.324	29.4357
11.342	29.328
11.36	29.2142
11.378	29.0993
11.396	28.9898
11.414	28.8931
11.432	28.8164
11.45	28.764
11.468	28.7377
11.486	28.7365
11.504	28.7572
11.522	28.795
11.54	28.8456
11.558	28.9047
11.576	28.9678
11.594	29.0306
11.612	29.0888
11.63	29.1398
11.648	29.1838
11.666	29.2236
11.684	29.2659
11.702	29.3175
11.72	29.3834
11.738	29.464
11.756	29.5545
11.774	29.646
11.792	29.7285
11.81	29.7954
11.828	29.8444
11.846	29.8779
11.864	29.901
11.882	29.9174
11.9	29.9282
11.918	29.9301
11.936	29.9173
11.954	29.8844
11.972	29.827
11.99	29.745
12.008	29.6416
12.026	29.5221
12.044	29.3928
12.062	29.2588
12.08	29.124
12.098	28.9912
12.116	28.8638
12.134	28.7451
12.152	28.6389
12.17	28.548
12.188	28.4739
12.206	28.4159
12.224	28.3717
12.242	28.3387
12.26	28.3146
12.278	28.2985
12.296	28.2897
12.314	28.2876
12.332	28.2911
12.35	28.2983
12.368	28.3076
12.386	28.3178
12.404	28.3301
12.422	28.3473
12.44	28.3738
12.458	28.413
12.476	28.466
12.494	28.5308
12.512	28.6022
12.53	28.6731
12.548	28.7371
12.566	28.7902
12.584	28.8317
12.602	28.8642
12.62	28.8928
12.638	28.9232
12.656	28.96
12.674	29.0053
12.692	29.0579
12.71	29.1131
12.728	29.1636
12.746	29.201
12.764	29.2183
12.782	29.211
12.8	29.1792
12.818	29.1273
12.836	29.0639
12.854	28.9991
12.872	28.9429
12.89	28.9018
12.908	28.878
12.926	28.8675
12.944	28.862
12.962	28.8506
12.98	28.8232
12.998	28.7727
13.016	28.6964
13.034	28.5975
13.052	28.483
13.07	28.3624
13.088	28.2463
13.106	28.144
13.124	28.0625
13.142	28.0049
13.16	27.9709
13.178	27.9573
13.196	27.959
13.214	27.9707
13.232	27.9881
13.25	28.0086
13.268	28.0304
13.286	28.0526
13.304	28.074
13.322	28.0918
13.34	28.1024
13.358	28.1009
13.376	28.0827
13.394	28.0447
13.412	27.9869
13.43	27.9126
13.448	27.8282
13.466	27.7421
13.484	27.6631
13.502	27.5988
13.52	27.5542
13.538	27.5311
13.556	27.5286
13.574	27.5446
13.592	27.5766
13.61	27.6227
13.628	27.6816
13.646	27.7517
13.664	27.8315
13.682	27.9175
13.7	28.0056
13.718	28.09
13.736	28.1652
13.754	28.2261
13.772	28.2695
13.79	28.2952
13.808	28.3049
13.826	28.3026
13.844	28.2923
13.862	28.2779
13.88	28.2615
13.898	28.243
13.916	28.2205
13.934	28.1904
13.952	28.1491
13.97	28.0936
13.988	28.0229
14.006	27.9378
14.024	27.8411
14.042	27.7374
14.06	27.6325
14.078	27.5322
14.096	27.4414
14.114	27.3643
14.132	27.3038
14.15	27.2606
14.168	27.2339
14.186	27.221
14.204	27.2173
14.222	27.2178
14.24	27.2168
14.258	27.2095
14.276	27.1914
14.294	27.1596
14.312	27.1133
14.33	27.0534
14.348	26.9831
14.366	26.9063
14.384	26.8288
14.402	26.756
14.42	26.6931
14.438	26.6443
14.456	26.6124
14.474	26.5985
14.492	26.6027
14.51	26.6231
14.528	26.6573
14.546	26.7024
14.564	26.7559
14.582	26.8153
14.6	26.8788
14.618	26.9452
14.636	27.0138
14.654	27.0845
14.672	27.1572
14.69	27.2316
14.708	27.3069
14.726	27.3816
14.744	27.4528
14.762	27.5176
14.78	27.5722
14.798	27.6131
14.816	27.6372
14.834	27.6416
14.852	27.6254
14.87	27.5893
14.888	27.5358
14.906	27.4689
14.924	27.3936
14.942	27.3169
14.96	27.2451
14.978	27.1835
14.996	27.1363
15.014	27.1061
15.032	27.0935
15.05	27.0963
15.068	27.1105
15.086	27.1314
15.104	27.153
15.122	27.169
15.14	27.1745
15.158	27.1661
15.176	27.1419
15.194	27.1013
15.212	27.0461
15.23	26.979
15.248	26.9036
15.266	26.8233
15.284	26.7424
15.302	26.6634
15.32	26.5882
15.338	26.518
15.356	26.4527
15.374	26.3915
15.392	26.333
15.41	26.2758
15.428	26.2186
15.446	26.1602
15.464	26.1001
15.482	26.0382
15.5	25.9752
15.518	25.9123
15.536	25.8512
15.554	25.7938
15.572	25.742
15.59	25.6984
15.608	25.6649
15.626	25.6426
15.644	25.6329
15.662	25.6359
15.68	25.6508
15.698	25.6761
15.716	25.7089
15.734	25.7449
15.752	25.7805
15.77	25.8119
15.788	25.8342
15.806	25.8449
15.824	25.8425
15.842	25.8261
15.86	25.7975
15.878	25.7594
15.896	25.7149
15.914	25.6694
15.932	25.6276
15.95	25.5932
15.968	25.5701
15.986	25.5607
16.004	25.5652
16.022	25.5835
16.04	25.6132
16.058	25.6511
16.076	25.6945
16.094	25.7389
16.112	25.781
16.13	25.8187
16.148	25.8495
16.166	25.8731
16.184	25.8896
16.202	25.8998
16.22	25.9059
16.238	25.9094
16.256	25.9119
16.274	25.9152
16.292	25.92
16.31	25.927
16.328	25.9357
16.346	25.9453
16.364	25.9549
16.382	25.9624
16.4	25.9664
16.418	25.9658
16.436	25.9589
16.454	25.9455
16.472	25.9253
16.49	25.8992
16.508	25.8689
16.526	25.8357
16.544	25.8028
16.562	25.7724
16.58	25.7464
16.598	25.7277
16.616	25.7169
16.634	25.7149
16.652	25.7213
16.67	25.7347
16.688	25.7537
16.706	25.7749
16.724	25.796
16.742	25.8135
16.76	25.8242
16.778	25.8262
16.796	25.8168
16.814	25.7948
16.832	25.7598
16.85	25.7115
16.868	25.6511
16.886	25.5797
16.904	25.4998
16.922	25.4136
16.94	25.3234
16.958	25.2323
16.976	25.1418
16.994	25.0548
17.012	24.9721
17.03	24.8947
17.048	24.8232
17.066	24.7571
17.084	24.696
17.102	24.6381
17.12	24.583
17.138	24.5283
17.156	24.4733
17.174	24.4167
17.192	24.3577
17.21	24.2964
17.228	24.2329
17.246	24.1685
17.264	24.104
17.282	24.0422
17.3	23.9844
17.318	23.9335
17.336	23.8917
17.354	23.8605
17.372	23.8421
17.39	23.8368
17.408	23.8456
17.426	23.8673
17.444	23.9018
17.462	23.9463
17.48	23.9998
17.498	24.0592
17.516	24.1224
17.534	24.1873
17.552	24.2509
17.57	24.3122
17.588	24.3687
17.606	24.4201
17.624	24.4652
17.642	24.5041
17.66	24.5365
17.678	24.563
17.696	24.5838
17.714	24.5996
17.732	24.6111
17.75	24.6188
17.768	24.6234
17.786	24.6252
17.804	24.6249
17.822	24.6228
17.84	24.6191
17.858	24.6141
17.876	24.6079
17.894	24.6009
17.912	24.593
17.93	24.585
17.948	24.5769
17.966	24.5696
17.984	24.5632
18.002	24.5583
18.02	24.5556
18.038	24.5556
18.056	24.5591
18.074	24.5665
18.092	24.5784
18.11	24.5951
18.128	24.6167
18.146	24.643
18.164	24.6739
18.182	24.7086
18.2	24.7464
18.218	24.7858
18.236	24.8261
18.254	24.8645
18.272	24.9005
18.29	24.9308
18.308	24.9551
18.326	24.97
18.344	24.9755
18.362	24.9692
18.38	24.9513
18.398	24.9206
18.416	24.878
18.434	24.8237
18.452	24.7595
18.47	24.6859
18.488	24.6064
18.506	24.5218
18.524	24.436
18.542	24.3495
18.56	24.2662
18.578	24.1865
18.596	24.1131
18.614	24.0459
18.632	23.9862
18.65	23.9337
18.668	23.8877
18.686	23.8478
18.704	23.812
18.722	23.78
18.74	23.7493
18.758	23.7196
18.776	23.6889
18.794	23.6574
18.812	23.624
18.83	23.5894
18.848	23.5539
18.866	23.5184
18.884	23.4844
18.902	23.453
18.92	23.4258
18.938	23.4038
18.956	23.3888
18.974	23.3811
18.992	23.3819
19.01	23.3906
19.028	23.4073
19.046	23.4308
19.064	23.4595
19.082	23.4922
19.1	23.5263
19.118	23.5606
19.136	23.5919
19.154	23.6196
19.172	23.6405
19.19	23.6545
19.208	23.6594
19.226	23.6555
19.244	23.6418
19.262	23.6188
19.28	23.5875
19.298	23.5481
19.316	23.5033
19.334	23.4531
19.352	23.401
19.37	23.3468
19.388	23.294
19.406	23.2424
19.424	23.1944
19.442	23.1502
19.46	23.1109
19.478	23.0768
19.496	23.0478
19.514	23.0241
19.532	23.0051
19.55	22.9903
19.568	22.9794
19.586	22.9716
19.604	22.9668
19.622	22.9641
19.64	22.9639
19.658	22.9659
19.676	22.9702
19.694	22.9773
19.712	22.987
19.73	23.0006
19.748	23.018
19.766	23.04
19.784	23.0667
19.802	23.0987
19.82	23.1364
19.838	23.1795
19.856	23.228
19.874	23.2817
19.892	23.3404
19.91	23.4039
19.928	23.4715
19.946	23.5432
19.964	23.6184
19.982	23.6971
20	23.7788
20.018	23.8633
20.036	23.9503
20.054	24.0394
20.072	24.1306
20.09	24.2228
20.108	24.3161
20.126	24.4088
20.144	24.5013
20.162	24.5912
20.18	24.6783
20.198	24.7609
20.216	24.8369
20.234	24.9064
20.252	24.9655
20.27	25.0151
20.288	25.0517
20.306	25.0754
20.324	25.0846
20.342	25.0778
20.36	25.0557
20.378	25.0176
20.396	24.9637
20.414	24.8956
20.432	24.8126
20.45	24.7183
20.468	24.6134
20.486	24.4999
20.504	24.3816
20.522	24.258
20.54	24.135
20.558	24.0119
20.576	23.8926
20.594	23.7788
20.612	23.671
20.63	23.5727
20.648	23.4832
20.666	23.404
20.684	23.3352
20.702	23.2764
20.72	23.2277
20.738	23.1885
20.756	23.1566
20.774	23.1326
20.792	23.1132
20.81	23.0981
20.828	23.0857
20.846	23.0732
20.864	23.0613
20.882	23.0467
20.9	23.0294
20.918	23.0087
20.936	22.9833
20.954	22.9537
20.972	22.9193
20.99	22.8798
21.008	22.8371
21.026	22.7911
21.044	22.743
21.062	22.6956
21.08	22.6479
21.098	22.6037
21.116	22.5638
21.134	22.5291
21.152	22.5027
21.17	22.4839
21.188	22.4743
21.206	22.475
21.224	22.4849
21.242	22.5041
21.26	22.5329
21.278	22.5678
21.296	22.6093
21.314	22.6552
21.332	22.7009
21.35	22.7481
21.368	22.7908
21.386	22.8279
21.404	22.8584
21.422	22.8774
21.44	22.8861
21.458	22.8818
21.476	22.8626
21.494	22.8296
21.512	22.7827
21.53	22.7209
21.548	22.6476
21.566	22.5643
21.584	22.4707
21.602	22.3739
21.62	22.2725
21.638	22.1708
21.656	22.075
21.674	21.9827
21.692	21.9007
21.71	21.8308
21.728	21.7728
21.746	21.7313
21.764	21.7058
21.782	21.6961
21.8	21.703
21.818	21.726
21.836	21.7615
21.854	21.8108
21.872	21.8707
21.89	21.9352
21.908	22.0071
21.926	22.0793
21.944	22.1478
21.962	22.2143
21.98	22.2707
21.998	22.3167
22.016	22.3514
22.034	22.3697
22.052	22.3728
22.07	22.3597
22.088	22.329
22.106	22.2812
22.124	22.2186
22.142	22.1403
22.16	22.0481
22.178	21.947
22.196	21.835
22.214	21.7163
22.232	21.5958
22.25	21.4709
22.268	21.3479
22.286	21.2301
22.304	21.1157
22.322	21.0109
22.34	20.9162
22.358	20.8317
22.376	20.7616
22.394	20.7053
22.412	20.6632
22.43	20.6366
22.448	20.6255
22.466	20.6288
22.484	20.6462
22.502	20.678
22.52	20.7212
22.538	20.7749
22.556	20.8395
22.574	20.9101
22.592	20.987
22.61	21.0692
22.628	21.1514
22.646	21.235
22.664	21.3176
22.682	21.3944
22.7	21.4671
22.718	21.5332
22.736	21.5889
22.754	21.6362
22.772	21.6722
22.79	21.6941
22.808	21.7033
22.826	21.6985
22.844	21.6783
22.862	21.6434
22.88	21.5948
22.898	21.5323
22.916	21.4559
22.934	21.3694
22.952	21.2731
22.97	21.1668
22.988	21.0558
23.006	20.9402
23.024	20.8201
23.042	20.7019
23.06	20.5852
23.078	20.4705
23.096	20.3641
23.114	20.2658
23.132	20.1759
23.15	20.0989
23.168	20.0344
23.186	19.9827
23.204	19.9473
23.222	19.9286
23.24	19.9256
23.258	19.9379
23.276	19.967
23.294	20.0109
23.312	20.0656
23.33	20.133
23.348	20.2108
23.366	20.2922
23.384	20.3786
23.402	20.4686
23.42	20.5545
23.438	20.637
23.456	20.7157
23.474	20.7831
23.492	20.8389
23.51	20.8837
23.528	20.912
23.546	20.9221
23.564	20.9157
23.582	20.8908
23.6	20.8459
23.618	20.782
23.636	20.7013
23.654	20.6041
23.672	20.4895
23.69	20.3623
23.708	20.2252
23.726	20.0754
23.744	19.9185
23.762	19.7589
23.78	19.5928
23.798	19.4258
23.816	19.2638
23.834	19.1035
23.852	18.9483
23.87	18.804
23.888	18.6684
23.906	18.5432
23.924	18.4338
23.942	18.3402
23.96	18.2617
23.978	18.2011
23.996	18.1598
24.014	18.1364
24.032	18.1317
24.05	18.1468
24.068	18.1817
24.086	18.2336
24.104	18.3005
24.122	18.3858
24.14	18.4836
24.158	18.5866
24.176	18.6995
24.194	18.8179
24.212	18.9303
24.23	19.0374
24.248	19.1408
24.266	19.2263
24.284	19.2862
24.302	19.3285
24.32	19.3423
24.338	19.3173
24.356	19.2596
24.374	19.1651
24.392	19.0264
24.41	18.842
24.428	18.6152
24.446	18.3474
24.464	18.0366
24.482	17.6821
24.5	17.2946
24.518	16.8817
24.536	16.4334
24.554	15.9638
24.572	15.4921
24.59	15.0103
24.608	14.5222
24.626	14.0504
24.644	13.6031
24.662	13.168
24.68	12.7657
24.698	12.4151
24.716	12.1051
24.734	11.8418
24.752	11.6389
24.77	11.4983
24.788	11.4151
24.806	11.3954
24.824	11.4443
24.842	11.5592
24.86	11.7383
24.878	11.9806
24.896	12.29
24.914	12.6623
24.932	13.0881
24.95	13.5648
24.968	14.0997
24.986	14.6766
25.004	15.2791
25.022	15.917
25.04	16.5847
25.058	17.264
25.076	17.9477
25.094	18.6465
25.112	19.3462
25.13	20.0327
25.148	20.7124
25.166	21.3835
25.184	22.0368
25.202	22.667
25.22	23.2791
25.238	23.8714
25.256	24.4419
25.274	24.9908
25.292	25.5188
25.31	26.026
25.328	26.5128
25.346	26.9792
25.364	27.4249
25.382	27.8493
25.4	28.2531
25.418	28.6362
25.436	28.9972
25.454	29.3351
25.472	29.6521
25.49	29.9458
25.508	30.2133
25.526	30.4541
25.544	30.6698
25.562	30.8582
25.58	31.0172
25.598	31.1482
25.616	31.2509
25.634	31.3236
25.652	31.3642
25.67	31.3719
25.688	31.3518
25.706	31.3095
25.724	31.2423
25.742	31.1493
25.76	31.0411
25.778	30.9275
25.796	30.8064
25.814	30.6754
25.832	30.5354
25.85	30.3875
25.868	30.2323
25.886	30.0675
25.904	29.8906
25.922	29.7
25.94	29.497
25.958	29.2832
25.976	29.06
25.994	28.8245
26.012	28.5783
26.03	28.3278
26.048	28.0776
26.066	27.817
26.084	27.5561
26.102	27.3116
26.12	27.0926
26.138	26.8845
26.156	26.7004
26.174	26.5573
26.192	26.459
26.21	26.3933
26.228	26.3759
26.246	26.4234
26.264	26.5392
26.282	26.715
26.3	26.9523
26.318	27.2529
26.336	27.623
26.354	28.057
26.372	28.5428
26.39	29.0706
26.408	29.6624
26.426	30.3011
26.444	30.9525
26.462	31.59
26.48	32.2509
26.498	32.9095
26.516	33.5204
26.534	34.0543
26.552	34.5585
26.57	34.9964
26.588	35.3146
26.606	35.4833
26.624	35.5541
26.642	35.4864
26.66	35.2264
26.678	34.7439
26.696	34.0804
26.714	33.2152
26.732	32.1207
26.75	30.7813
26.768	29.2174
26.786	27.4236
26.804	25.3919
26.822	23.1043
26.84	20.5511
26.858	17.7809
26.876	14.8454
26.894	11.7489
26.912	8.426466
26.93	4.977179
26.948	1.510348
26.966	-2.060139
26.984	-6.031960
27.002	-9.820290
27.02	-12.7816
27.028	-13.575