File: Bakgrunnsmateriale/MATLAB/FTIR/ftir_data/LPE454/Mapping_121/LPE454_t12.asc
PE IR       SPECTRUM    SPECTRUM    ASCII       PEDS        1.60
  -1
LPC794~1.ASC
17/05/19
15:20:41.00
17/05/19
15:21:07.00
tln
$LPE454_t0012$<tbV0>[13.0,-10.4,8.0,0.0,27,1,0]
27.028
64

2002,4.07
MIRTGS : RIGHTBACK : INTERNAL 2
MIR : ON : INTERNAL 2
OPTKBR

0.200000
8
8.000000
FILLER
RATIO
SPECTRUM
UNLOCKED 256

DOUBLE
64
COMBINED
1
0
0

0.002000
RATIO

1
0
TRUE
51149
0
LEFT NOT FITTED RIGHT NOT FITTED 0
NONE
NONE
15600
12
4.427000
51148
TRUE
1 0 8 72 0 0 0 0

15798

#HDR
-1
-1
#GR
µM
%T
2.38419e-05
0.0
2.000000
0.002000
12515
8
106.388
-6.155594
#DATA
2.000000	 -0.274085
2.018000	 -0.024824
2.036000	 -0.001539
2.054000	 0.131590
2.072000	 -0.355652
2.090000	 0.689048
2.108000	 0.110950
2.126000	 0.124615
2.144000	 0.139740
2.162000	 0.261473
2.180000	 0.530828
2.198000	 0.440343
2.216000	 0.695861
2.234000	 5.963337
2.252000	 0.251218
2.270000	 0.304600
2.288000	 -0.002674
2.306000	 0.146143
2.324000	 0.249461
2.342000	 0.402192
2.360000	 -0.495317
2.378000	 0.075888
2.396000	 0.676829
2.414000	 0.197119
2.432000	 0.051694
2.450000	 0.039990
2.468000	 0.230324
2.486000	 0.051911
2.504000	 -0.225493
2.522000	 0.000925
2.540000	 0.076259
2.558000	 -0.093544
2.576000	 -0.103647
2.594000	 0.052708
2.612000	 0.236950
2.630000	 -0.040049
2.648000	 0.113176
2.666000	 0.101720
2.684000	 -0.045734
2.702000	 0.031582
2.720000	 0.067590
2.738000	 0.066865
2.756000	 -0.038233
2.774000	 0.038548
2.792000	 0.123438
2.810000	 0.146378
2.828000	 -0.048659
2.846000	 0.205285
2.864000	 -0.052890
2.882000	 0.121171
2.900000	 -0.015856
2.918000	 -0.068701
2.936000	 0.106643
2.954000	 0.009186
2.972000	 -0.010290
2.990000	 -0.170802
3.008000	 0.057411
3.026000	 -0.067584
3.044000	 0.024120
3.062000	 0.105314
3.080000	 -0.028269
3.098000	 0.047321
3.116000	 0.121514
3.134000	 0.031938
3.152000	 -0.066564
3.170000	 -0.035456
3.188000	 -0.123655
3.206000	 0.136583
3.224000	 -0.068164
3.242000	 0.095318
3.260000	 0.156031
3.278000	 0.008682
3.296000	 -0.054245
3.314000	 -0.007438
3.332000	 0.108088
3.350000	 0.062969
3.368000	 0.019791
3.386000	 -0.011747
3.404000	 -0.000777
3.422000	 -0.069416
3.440000	 0.088476
3.458000	 0.081263
3.476000	 -0.167320
3.494000	 -0.051989
3.512000	 0.088406
3.530000	 0.023467
3.548000	 0.009664
3.566000	 -0.086942
3.584000	 0.090776
3.602000	 0.037299
3.620000	 0.039979
3.638000	 0.093214
3.656000	 -0.055518
3.674000	 0.077623
3.692000	 0.068304
3.710000	 0.090450
3.728000	 0.120847
3.746000	 0.025972
3.764000	 0.053458
3.782000	 -0.015158
3.800000	 0.040497
3.818000	 0.092278
3.836000	 0.001282
3.854000	 0.088281
3.872000	 0.008900
3.890000	 -0.016608
3.908000	 0.074950
3.926000	 0.074249
3.944000	 -0.042223
3.962000	 0.014945
3.980000	 -0.010531
3.998000	 0.153217
4.016000	 0.020248
4.034000	 -0.002815
4.052000	 -0.015989
4.070000	 0.162172
4.088000	 0.044660
4.106000	 0.140175
4.124000	 0.212955
4.141999	 0.212404
4.160000	 0.248989
4.178000	 0.215032
4.196000	 0.077661
4.214000	 0.043487
4.232000	 0.031838
4.250000	 -0.002541
4.268000	 0.049586
4.286000	 0.092467
4.304000	 0.153611
4.322000	 0.032243
4.340000	 0.100077
4.358000	 0.160596
4.375999	 0.194427
4.394000	 0.336826
4.412000	 0.422373
4.430000	 0.653846
4.448000	 0.750289
4.466000	 1.006866
4.484000	 1.261435
4.502000	 1.413896
4.520000	 1.879781
4.538000	 2.143267
4.556000	 2.519416
4.574000	 2.912325
4.592000	 3.382734
4.609999	 3.966025
4.628000	 4.373113
4.646000	 4.939941
4.664000	 5.648860
4.682000	 6.284840
4.700000	 6.984576
4.718000	 7.579210
4.736000	 8.166535
4.754000	 8.961158
4.772000	 9.483840
4.790000	 10.1061
4.808000	 10.9726
4.826000	 11.7529
4.843999	 12.3185
4.862000	 12.8711
4.880000	 13.3138
4.898000	 13.8333
4.916000	 14.3657
4.934000	 14.8245
4.952000	 15.3361
4.970000	 15.8649
4.988000	 16.3588
5.006000	 16.814
5.024000	 17.1824
5.042000	 17.5951
5.060000	 18.0146
5.077999	 18.3715
5.096000	 18.6798
5.114000	 18.9982
5.132000	 19.2415
5.150000	 19.5376
5.168000	 19.6262
5.186000	 19.9302
5.204000	 20.2515
5.222000	 20.4486
5.240000	 20.6244
5.258000	 20.8123
5.276000	 21.1679
5.294000	 21.2838
5.312000	 21.3936
5.330000	 21.5863
5.348000	 21.829
5.366000	 22.0245
5.384000	 22.1125
5.402000	 22.2335
5.420000	 22.302
5.438000	 22.4217
5.456000	 22.5749
5.474000	 22.7172
5.492000	 22.8086
5.510000	 22.9052
5.528000	 22.9827
5.546000	 22.9965
5.564000	 23.0828
5.582000	 23.1769
5.600000	 23.2814
5.618000	 23.4193
5.636000	 23.5937
5.654000	 23.6567
5.672000	 23.6343
5.690000	 23.6805
5.708000	 23.8462
5.726000	 23.9415
5.744000	 24.0042
5.762000	 24.1641
5.780000	 24.1596
5.798000	 24.1654
5.816000	 24.3187
5.834000	 24.3316
5.852000	 24.29
5.870000	 24.247
5.888000	 24.2959
5.906000	 24.2999
5.923999	 24.3249
5.942000	 24.4333
5.960000	 24.4619
5.978000	 24.554
5.996000	 24.5743
6.014000	 24.6153
6.032000	 24.728
6.050000	 24.7981
6.068000	 24.8114
6.086000	 24.7907
6.104000	 24.8007
6.122000	 24.8075
6.140000	 24.7571
6.158000	 24.7533
6.176000	 24.8706
6.194000	 24.8964
6.212000	 24.8532
6.230000	 24.8933
6.248000	 24.9831
6.266000	 25.0317
6.284000	 25.0655
6.302000	 25.1108
6.320000	 25.2064
6.338000	 25.2726
6.356000	 25.2518
6.374000	 25.1814
6.392000	 25.1755
6.410000	 25.3171
6.428000	 25.4223
6.446000	 25.4075
6.464000	 25.3457
6.482000	 25.35
6.500000	 25.4028
6.518000	 25.4257
6.536000	 25.4459
6.554000	 25.4817
6.572000	 25.4587
6.590000	 25.3753
6.608000	 25.3576
6.626000	 25.4261
6.644000	 25.4514
6.662000	 25.3728
6.680000	 25.2653
6.698000	 25.2669
6.716000	 25.366
6.734000	 25.4095
6.752000	 25.4276
6.770000	 25.4793
6.788000	 25.5275
6.806000	 25.5281
6.824000	 25.4914
6.842000	 25.5113
6.860000	 25.5857
6.878000	 25.5258
6.896000	 25.3973
6.914000	 25.4949
6.932000	 25.6755
6.950000	 25.6635
6.968000	 25.5425
6.986000	 25.4953
7.004000	 25.4852
7.022000	 25.445
7.040000	 25.4523
7.058000	 25.5139
7.076000	 25.5597
7.094000	 25.5935
7.112000	 25.5999
7.130000	 25.5815
7.148000	 25.614
7.166000	 25.6843
7.184000	 25.7081
7.202000	 25.6603
7.220000	 25.5579
7.238000	 25.4614
7.256000	 25.4634
7.274000	 25.548
7.292000	 25.5972
7.310000	 25.5882
7.328000	 25.5824
7.346000	 25.5766
7.364000	 25.5695
7.382000	 25.61
7.400000	 25.6652
7.418000	 25.6698
7.436000	 25.6816
7.454000	 25.7495
7.472000	 25.7736
7.490000	 25.6991
7.508000	 25.6403
7.526000	 25.6641
7.544000	 25.6774
7.562000	 25.6237
7.580000	 25.5759
7.598000	 25.5861
7.616000	 25.6287
7.634000	 25.6807
7.652000	 25.7126
7.670000	 25.6776
7.688000	 25.5944
7.706000	 25.5473
7.724000	 25.5747
7.742000	 25.6321
7.760000	 25.661
7.778000	 25.6488
7.796000	 25.6315
7.814000	 25.6469
7.832000	 25.6817
7.850000	 25.6903
7.868000	 25.6688
7.886000	 25.6597
7.904000	 25.6752
7.922000	 25.6755
7.940000	 25.6387
7.958000	 25.597
7.976000	 25.5879
7.994000	 25.6111
8.012000	 25.6441
8.030000	 25.6638
8.048000	 25.6464
8.065999	 25.5905
8.084000	 25.5438
8.102000	 25.5616
8.120000	 25.6336
8.138000	 25.6988
8.155999	 25.7236
8.173999	 25.7233
8.192000	 25.7154
8.210000	 25.7009
8.228000	 25.6826
8.246000	 25.6712
8.263999	 25.6712
8.282000	 25.6785
8.300000	 25.6887
8.318000	 25.6957
8.336000	 25.6899
8.353999	 25.6681
8.372000	 25.6404
8.390000	 25.6202
8.408000	 25.6117
8.426000	 25.618
8.443999	 25.6505
8.462000	 25.704
8.480000	 25.7363
8.498000	 25.7062
8.516000	 25.6304
8.533999	 25.5683
8.552000	 25.5466
8.570000	 25.5332
8.588000	 25.4925
8.606000	 25.4313
8.624000	 25.3812
8.641999	 25.3593
8.660000	 25.3587
8.678000	 25.3663
8.696000	 25.3761
8.714000	 25.3882
8.731999	 25.4028
8.750000	 25.4164
8.768000	 25.4204
8.786000	 25.4066
8.804000	 25.382
8.821999	 25.3702
8.840000	 25.3914
8.858000	 25.4428
8.876000	 25.5045
8.894000	 25.5553
8.911999	 25.5798
8.930000	 25.5727
8.948000	 25.5401
8.966000	 25.4984
8.984000	 25.4677
9.001999	 25.4594
9.020000	 25.4635
9.038000	 25.4523
9.056000	 25.399
9.074000	 25.3023
9.092000	 25.1914
9.109999	 25.109
9.128000	 25.0822
9.146000	 25.1089
9.164000	 25.163
9.182000	 25.2159
9.199999	 25.2527
9.218000	 25.2787
9.236000	 25.3116
9.254000	 25.3639
9.272000	 25.425
9.289999	 25.461
9.308000	 25.4401
9.326000	 25.3604
9.344000	 25.2532
9.362000	 25.1598
9.379999	 25.1032
9.398000	 25.0828
9.416000	 25.0888
9.434000	 25.1187
9.452000	 25.1765
9.469999	 25.2581
9.488000	 25.3407
9.506000	 25.3876
9.524000	 25.3701
9.542000	 25.2916
9.560000	 25.1927
9.577999	 25.127
9.596000	 25.1246
9.614000	 25.1747
9.632000	 25.2391
9.650000	 25.2827
9.667999	 25.2941
9.686000	 25.2803
9.704000	 25.2482
9.722000	 25.192
9.740000	 25.1018
9.757999	 24.9826
9.776000	 24.8619
9.794000	 24.7738
9.812000	 24.7323
9.830000	 24.7178
9.847999	 24.6942
9.866000	 24.638
9.884000	 24.5572
9.902000	 24.4859
9.920000	 24.4584
9.937999	 24.4857
9.956000	 24.5505
9.974000	 24.6209
9.992000	 24.6706
10.01	24.6909
10.028	24.6922
10.046	24.6937
10.064	24.7111
10.082	24.7493
10.1	24.8004
10.118	24.851
10.136	24.8921
10.154	24.9218
10.172	24.9412
10.19	24.9474
10.208	24.9317
10.226	24.8867
10.244	24.8152
10.262	24.7309
10.28	24.65
10.298	24.582
10.316	24.5267
10.334	24.4806
10.352	24.4452
10.37	24.4277
10.388	24.4332
10.406	24.4559
10.424	24.4793
10.442	24.4838
10.46	24.4596
10.478	24.4103
10.496	24.352
10.514	24.3047
10.532	24.2839
10.55	24.2964
10.568	24.3392
10.586	24.4015
10.604	24.4692
10.622	24.5289
10.64	24.5715
10.658	24.5948
10.676	24.6005
10.694	24.5912
10.712	24.5682
10.73	24.5316
10.748	24.4828
10.766	24.4259
10.784	24.3655
10.802	24.3043
10.82	24.24
10.838	24.1675
10.856	24.0843
10.874	23.996
10.892	23.9161
10.91	23.8621
10.928	23.8444
10.946	23.8631
10.964	23.9087
10.982	23.9673
11	24.0296
11.018	24.0923
11.036	24.1567
11.054	24.2222
11.072	24.2819
11.09	24.3229
11.108	24.3339
11.126	24.3096
11.144	24.2545
11.162	24.1816
11.18	24.1041
11.198	24.0311
11.216	23.9649
11.234	23.9037
11.252	23.8469
11.27	23.7981
11.288	23.7642
11.306	23.751
11.324	23.7577
11.342	23.7743
11.36	23.7843
11.378	23.7713
11.396	23.7269
11.414	23.6535
11.432	23.564
11.45	23.4749
11.468	23.4013
11.486	23.3504
11.504	23.3212
11.522	23.306
11.54	23.2962
11.558	23.2845
11.576	23.2691
11.594	23.2541
11.612	23.2466
11.63	23.2539
11.648	23.2796
11.666	23.3213
11.684	23.3702
11.702	23.414
11.72	23.4407
11.738	23.4435
11.756	23.4244
11.774	23.3927
11.792	23.3627
11.81	23.3473
11.828	23.3545
11.846	23.3839
11.864	23.4287
11.882	23.478
11.9	23.5184
11.918	23.539
11.936	23.5331
11.954	23.4992
11.972	23.4405
11.99	23.3642
12.008	23.2796
12.026	23.1961
12.044	23.1223
12.062	23.0635
12.08	23.021
12.098	22.9927
12.116	22.9744
12.134	22.9617
12.152	22.9508
12.17	22.9401
12.188	22.9295
12.206	22.9205
12.224	22.9152
12.242	22.9169
12.26	22.9283
12.278	22.9511
12.296	22.9849
12.314	23.0261
12.332	23.0688
12.35	23.1065
12.368	23.1328
12.386	23.1436
12.404	23.138
12.422	23.1186
12.44	23.09
12.458	23.0572
12.476	23.0245
12.494	22.994
12.512	22.9656
12.53	22.9378
12.548	22.9085
12.566	22.8769
12.584	22.8424
12.602	22.8055
12.62	22.767
12.638	22.7277
12.656	22.6881
12.674	22.6483
12.692	22.6083
12.71	22.5679
12.728	22.5272
12.746	22.4864
12.764	22.4462
12.782	22.4078
12.8	22.3724
12.818	22.3406
12.836	22.3121
12.854	22.285
12.872	22.256
12.89	22.2217
12.908	22.1793
12.926	22.1282
12.944	22.0706
12.962	22.0113
12.98	21.9574
12.998	21.9165
13.016	21.8948
13.034	21.8954
13.052	21.9174
13.07	21.9559
13.088	22.0032
13.106	22.0502
13.124	22.0885
13.142	22.1121
13.16	22.1181
13.178	22.1072
13.196	22.0828
13.214	22.0495
13.232	22.0123
13.25	21.9749
13.268	21.9397
13.286	21.9074
13.304	21.8782
13.322	21.8519
13.34	21.8292
13.358	21.8112
13.376	21.7999
13.394	21.7975
13.412	21.8059
13.43	21.8259
13.448	21.8568
13.466	21.8966
13.484	21.9419
13.502	21.9883
13.52	22.0309
13.538	22.0654
13.556	22.0879
13.574	22.0958
13.592	22.0879
13.61	22.0646
13.628	22.0275
13.646	21.9796
13.664	21.9242
13.682	21.8653
13.7	21.8062
13.718	21.7498
13.736	21.6979
13.754	21.6514
13.772	21.6108
13.79	21.5756
13.808	21.5456
13.826	21.5206
13.844	21.501
13.862	21.4869
13.88	21.4785
13.898	21.4755
13.916	21.477
13.934	21.4813
13.952	21.486
13.97	21.4882
13.988	21.4854
14.006	21.4752
14.024	21.457
14.042	21.4309
14.06	21.3986
14.078	21.3627
14.096	21.3262
14.114	21.2918
14.132	21.2615
14.15	21.2368
14.168	21.2182
14.186	21.2056
14.204	21.1982
14.222	21.1952
14.24	21.1955
14.258	21.1986
14.276	21.2039
14.294	21.2114
14.312	21.2209
14.33	21.2323
14.348	21.2453
14.366	21.2594
14.384	21.2737
14.402	21.2865
14.42	21.2963
14.438	21.3012
14.456	21.2997
14.474	21.291
14.492	21.2748
14.51	21.2518
14.528	21.2235
14.546	21.1923
14.564	21.1605
14.582	21.1306
14.6	21.1043
14.618	21.0828
14.636	21.0665
14.654	21.0544
14.672	21.0454
14.69	21.0378
14.708	21.0298
14.726	21.02
14.744	21.0072
14.762	20.9913
14.78	20.9724
14.798	20.9512
14.816	20.9286
14.834	20.9055
14.852	20.8822
14.87	20.8589
14.888	20.8357
14.906	20.8124
14.924	20.7888
14.942	20.7647
14.96	20.7404
14.978	20.7168
14.996	20.6947
15.014	20.6753
15.032	20.6595
15.05	20.648
15.068	20.6409
15.086	20.6378
15.104	20.6376
15.122	20.6384
15.14	20.6382
15.158	20.635
15.176	20.6273
15.194	20.614
15.212	20.5949
15.23	20.571
15.248	20.5433
15.266	20.5137
15.284	20.4848
15.302	20.4586
15.32	20.4367
15.338	20.4197
15.356	20.4076
15.374	20.3992
15.392	20.3927
15.41	20.386
15.428	20.3769
15.446	20.3623
15.464	20.3408
15.482	20.3114
15.5	20.2732
15.518	20.2269
15.536	20.1734
15.554	20.1138
15.572	20.0497
15.59	19.9829
15.608	19.9143
15.626	19.8448
15.644	19.7748
15.662	19.7044
15.68	19.6336
15.698	19.5622
15.716	19.4903
15.734	19.4185
15.752	19.3478
15.77	19.2795
15.788	19.216
15.806	19.1596
15.824	19.1124
15.842	19.0767
15.86	19.0548
15.878	19.0476
15.896	19.0559
15.914	19.0798
15.932	19.1178
15.95	19.1684
15.968	19.229
15.986	19.2962
16.004	19.3671
16.022	19.4389
16.04	19.5077
16.058	19.5714
16.076	19.628
16.094	19.6759
16.112	19.7144
16.13	19.7434
16.148	19.7631
16.166	19.7742
16.184	19.7774
16.202	19.7733
16.22	19.763
16.238	19.7467
16.256	19.7252
16.274	19.699
16.292	19.6688
16.31	19.635
16.328	19.5991
16.346	19.5626
16.364	19.527
16.382	19.4952
16.4	19.4693
16.418	19.4513
16.436	19.444
16.454	19.4484
16.472	19.4654
16.49	19.495
16.508	19.5353
16.526	19.5848
16.544	19.6395
16.562	19.6954
16.58	19.7492
16.598	19.7953
16.616	19.8307
16.634	19.8526
16.652	19.8583
16.67	19.8478
16.688	19.8208
16.706	19.7795
16.724	19.7258
16.742	19.6621
16.76	19.5928
16.778	19.5199
16.796	19.447
16.814	19.3766
16.832	19.3103
16.85	19.2499
16.868	19.1957
16.886	19.1482
16.904	19.1068
16.922	19.0714
16.94	19.0415
16.958	19.0167
16.976	18.9969
16.994	18.9815
17.012	18.9707
17.03	18.9644
17.048	18.9626
17.066	18.9651
17.084	18.9719
17.102	18.9817
17.12	18.9939
17.138	19.0066
17.156	19.0181
17.174	19.0271
17.192	19.0305
17.21	19.0275
17.228	19.0157
17.246	18.9942
17.264	18.9623
17.282	18.92
17.3	18.868
17.318	18.8077
17.336	18.7415
17.354	18.671
17.372	18.6005
17.39	18.5318
17.408	18.4689
17.426	18.4143
17.444	18.37
17.462	18.3384
17.48	18.3198
17.498	18.3152
17.516	18.3235
17.534	18.3443
17.552	18.3747
17.57	18.4135
17.588	18.4568
17.606	18.5029
17.624	18.5488
17.642	18.5916
17.66	18.6302
17.678	18.6618
17.696	18.6862
17.714	18.702
17.732	18.7096
17.75	18.7087
17.768	18.7003
17.786	18.6845
17.804	18.6629
17.822	18.6359
17.84	18.6049
17.858	18.5703
17.876	18.5331
17.894	18.4938
17.912	18.4528
17.93	18.4108
17.948	18.368
17.966	18.3251
17.984	18.2826
18.002	18.241
18.02	18.2011
18.038	18.1635
18.056	18.1294
18.074	18.099
18.092	18.0738
18.11	18.0537
18.128	18.0396
18.146	18.0314
18.164	18.0293
18.182	18.0326
18.2	18.0411
18.218	18.0538
18.236	18.0701
18.254	18.0886
18.272	18.1086
18.29	18.1287
18.308	18.1484
18.326	18.1661
18.344	18.1816
18.362	18.1938
18.38	18.2024
18.398	18.2066
18.416	18.2062
18.434	18.201
18.452	18.1908
18.47	18.1756
18.488	18.1554
18.506	18.1303
18.524	18.1006
18.542	18.0663
18.56	18.0281
18.578	17.986
18.596	17.941
18.614	17.8931
18.632	17.8438
18.65	17.7932
18.668	17.7428
18.686	17.6927
18.704	17.6445
18.722	17.5983
18.74	17.5555
18.758	17.5161
18.776	17.4814
18.794	17.4513
18.812	17.4268
18.83	17.4076
18.848	17.3942
18.866	17.3863
18.884	17.3841
18.902	17.3874
18.92	17.3958
18.938	17.4092
18.956	17.4271
18.974	17.449
18.992	17.4745
19.01	17.5029
19.028	17.5337
19.046	17.5662
19.064	17.5996
19.082	17.6335
19.1	17.6666
19.118	17.6985
19.136	17.7279
19.154	17.7546
19.172	17.7773
19.19	17.7961
19.208	17.8098
19.226	17.8187
19.244	17.8223
19.262	17.8209
19.28	17.8145
19.298	17.8033
19.316	17.7885
19.334	17.7699
19.352	17.7491
19.37	17.726
19.388	17.7024
19.406	17.6783
19.424	17.6549
19.442	17.6323
19.46	17.6111
19.478	17.5914
19.496	17.5731
19.514	17.5562
19.532	17.5401
19.55	17.5245
19.568	17.509
19.586	17.4929
19.604	17.476
19.622	17.4575
19.64	17.4376
19.658	17.4157
19.676	17.392
19.694	17.367
19.712	17.3407
19.73	17.3142
19.748	17.2874
19.766	17.2615
19.784	17.2368
19.802	17.2138
19.82	17.1932
19.838	17.175
19.856	17.1597
19.874	17.1471
19.892	17.1367
19.91	17.1286
19.928	17.121
19.946	17.1144
19.964	17.1065
19.982	17.0974
20	17.0854
20.018	17.0698
20.036	17.0499
20.054	17.0242
20.072	16.993
20.09	16.955
20.108	16.9104
20.126	16.8593
20.144	16.8013
20.162	16.7378
20.18	16.6688
20.198	16.5954
20.216	16.5189
20.234	16.4395
20.252	16.3599
20.27	16.2797
20.288	16.2017
20.306	16.1258
20.324	16.0539
20.342	15.9874
20.36	15.9265
20.378	15.8732
20.396	15.827
20.414	15.7896
20.432	15.7608
20.45	15.7413
20.468	15.7313
20.486	15.7306
20.504	15.7393
20.522	15.7574
20.54	15.7836
20.558	15.8183
20.576	15.8599
20.594	15.9082
20.612	15.9623
20.63	16.02
20.648	16.0818
20.666	16.1451
20.684	16.2102
20.702	16.2752
20.72	16.3387
20.738	16.4007
20.756	16.4593
20.774	16.5149
20.792	16.5661
20.81	16.6123
20.828	16.6538
20.846	16.6899
20.864	16.7209
20.882	16.7472
20.9	16.7684
20.918	16.7857
20.936	16.7996
20.954	16.8101
20.972	16.8188
20.99	16.8253
21.008	16.8314
21.026	16.8375
21.044	16.844
21.062	16.8526
21.08	16.8629
21.098	16.8762
21.116	16.8928
21.134	16.9128
21.152	16.9369
21.17	16.965
21.188	16.997
21.206	17.0332
21.224	17.0733
21.242	17.1168
21.26	17.1639
21.278	17.2136
21.296	17.2658
21.314	17.3201
21.332	17.3751
21.35	17.4314
21.368	17.4876
21.386	17.5434
21.404	17.5986
21.422	17.6522
21.44	17.7046
21.458	17.7551
21.476	17.8036
21.494	17.8501
21.512	17.8947
21.53	17.9372
21.548	17.9782
21.566	18.018
21.584	18.0566
21.602	18.0948
21.62	18.1325
21.638	18.1703
21.656	18.2089
21.674	18.2483
21.692	18.2886
21.71	18.3302
21.728	18.3728
21.746	18.4166
21.764	18.4616
21.782	18.507
21.8	18.5522
21.818	18.5974
21.836	18.6407
21.854	18.6825
21.872	18.7218
21.89	18.7564
21.908	18.787
21.926	18.8121
21.944	18.8304
21.962	18.8425
21.98	18.8465
21.998	18.8423
22.016	18.83
22.034	18.8089
22.052	18.7791
22.07	18.741
22.088	18.6946
22.106	18.6398
22.124	18.5785
22.142	18.5107
22.16	18.4369
22.178	18.359
22.196	18.2765
22.214	18.1907
22.232	18.1032
22.25	18.0133
22.268	17.9224
22.286	17.8312
22.304	17.7394
22.322	17.6479
22.34	17.5569
22.358	17.4662
22.376	17.3759
22.394	17.2862
22.412	17.1967
22.43	17.1074
22.448	17.0182
22.466	16.929
22.484	16.8393
22.502	16.7493
22.52	16.6589
22.538	16.5678
22.556	16.4763
22.574	16.3854
22.592	16.2949
22.61	16.2053
22.628	16.119
22.646	16.0355
22.664	15.9555
22.682	15.881
22.7	15.8114
22.718	15.7474
22.736	15.6904
22.754	15.6395
22.772	15.5961
22.79	15.5616
22.808	15.5352
22.826	15.5174
22.844	15.5092
22.862	15.5102
22.88	15.5182
22.898	15.5327
22.916	15.5541
22.934	15.5785
22.952	15.6051
22.97	15.6345
22.988	15.6622
23.006	15.6878
23.024	15.7117
23.042	15.7299
23.06	15.7422
23.078	15.749
23.096	15.7478
23.114	15.7385
23.132	15.7214
23.15	15.6965
23.168	15.6629
23.186	15.6217
23.204	15.5744
23.222	15.5202
23.24	15.4601
23.258	15.3969
23.276	15.3298
23.294	15.2598
23.312	15.1901
23.33	15.1203
23.348	15.0508
23.366	14.9841
23.384	14.9204
23.402	14.8593
23.42	14.8018
23.438	14.7483
23.456	14.6983
23.474	14.6511
23.492	14.6071
23.51	14.5659
23.528	14.526
23.546	14.4873
23.564	14.4499
23.582	14.4116
23.6	14.3717
23.618	14.3311
23.636	14.2871
23.654	14.2383
23.672	14.1856
23.69	14.1288
23.708	14.0674
23.726	14.0011
23.744	13.9321
23.762	13.8624
23.78	13.7897
23.798	13.7178
23.816	13.6505
23.834	13.5846
23.852	13.524
23.87	13.4742
23.888	13.4329
23.906	13.402
23.924	13.3871
23.942	13.3876
23.96	13.4034
23.978	13.44
23.996	13.4988
24.014	13.5777
24.032	13.6814
24.05	13.8124
24.068	13.9679
24.086	14.152
24.104	14.3684
24.122	14.614
24.14	14.8919
24.158	15.2071
24.176	15.5576
24.194	15.9443
24.212	16.3714
24.23	16.8386
24.248	17.3452
24.266	17.8959
24.284	18.494
24.302	19.1372
24.32	19.8255
24.338	20.5598
24.356	21.3426
24.374	22.1679
24.392	23.0284
24.41	23.93
24.428	24.8678
24.446	25.8252
24.464	26.7989
24.482	27.7969
24.5	28.7959
24.518	29.7775
24.536	30.7592
24.554	31.7219
24.572	32.6383
24.59	33.5173
24.608	34.3564
24.626	35.1299
24.644	35.8266
24.662	36.4601
24.68	37.0141
24.698	37.4723
24.716	37.8396
24.734	38.1191
24.752	38.3106
24.77	38.4104
24.788	38.4215
24.806	38.354
24.824	38.2133
24.842	37.9907
24.86	37.7005
24.878	37.3597
24.896	36.9602
24.914	36.5059
24.932	36.0167
24.95	35.5017
24.968	34.9483
24.986	34.3741
25.004	33.7979
25.022	33.2118
25.04	32.6181
25.058	32.0303
25.076	31.4542
25.094	30.8822
25.112	30.3224
25.13	29.7836
25.148	29.2653
25.166	28.7643
25.184	28.279
25.202	27.8108
25.22	27.3618
25.238	26.923
25.256	26.485
25.274	26.0536
25.292	25.6262
25.31	25.192
25.328	24.745
25.346	24.2916
25.364	23.8272
25.382	23.3459
25.4	22.846
25.418	22.3305
25.436	21.8019
25.454	21.2606
25.472	20.7006
25.49	20.132
25.508	19.5671
25.526	19.0056
25.544	18.4419
25.562	17.8917
25.58	17.3697
25.598	16.8643
25.616	16.3815
25.634	15.9382
25.652	15.5434
25.67	15.1832
25.688	14.8718
25.706	14.6264
25.724	14.4462
25.742	14.3247
25.76	14.2758
25.778	14.3126
25.796	14.4279
25.814	14.6225
25.832	14.9038
25.85	15.2778
25.868	15.7412
25.886	16.2912
25.904	16.9257
25.922	17.646
25.94	18.4527
25.958	19.3391
25.976	20.2982
25.994	21.3376
26.012	22.4536
26.03	23.6302
26.048	24.8553
26.066	26.1506
26.084	27.4966
26.102	28.8605
26.12	30.2229
26.138	31.6122
26.156	33.0041
26.174	34.3671
26.192	35.6987
26.21	37.0235
26.228	38.2977
26.246	39.4755
26.264	40.5533
26.282	41.5521
26.3	42.4534
26.318	43.239
26.336	43.8949
26.354	44.4393
26.372	44.8992
26.39	45.2975
26.408	45.5953
26.426	45.8198
26.444	46.0297
26.462	46.268
26.48	46.4606
26.498	46.6657
26.516	46.9804
26.534	47.4741
26.552	48.0662
26.57	48.7997
26.588	49.7455
26.606	50.9518
26.624	52.37
26.642	54.0127
26.66	55.9033
26.678	58.0693
26.696	60.5153
26.714	63.1913
26.732	66.0447
26.75	69.0743
26.768	72.3546
26.786	75.7629
26.804	79.1639
26.822	82.5144
26.84	85.9445
26.858	89.3124
26.876	92.4582
26.894	95.317
26.912	98.0295
26.93	100.478
26.948	102.526
26.966	104.049
26.984	105.078
27.002	105.756
27.02	106.228
27.028	106.388