File: Bakgrunnsmateriale/MATLAB/FTIR/ftir_data/LPE454/Mapping_121/LPE454_e124.asc
PE IR       SPECTRUM    SPECTRUM    ASCII       PEDS        1.60
  -1
LP8305~1.ASC
17/05/19
18:01:49.00
17/05/19
18:02:15.00
tln
$LPE454_e0124$<ebV0>[-23.3,12.1,10.0,0.0,27,1,0]
27.028
64

2002,4.07
MIRTGS : RIGHTBACK : INTERNAL 2
MIR : ON : INTERNAL 2
OPTKBR

0.200000
8
8.000000
FILLER
SINGLE
SPECTRUM
UNLOCKED 256

DOUBLE

COMBINED
1
0
0

0.002000
BACKG

1
0
TRUE
51149
0
LEFT NOT FITTED RIGHT NOT FITTED 0
NONE
NONE
15600
12
4.427000
51148
TRUE
1 0 8 72 0 0 0 0

15798

#HDR
-1
-1
#GR
µM
EGY
2.38419e-05
0.0
2.000000
0.002000
12515
8
2.427470
0.008276
#DATA
2.000000	 0.774312
2.018000	 0.792569
2.036000	 0.805683
2.054000	 0.825329
2.072000	 0.853736
2.090000	 0.877356
2.108000	 0.896840
2.126000	 0.904388
2.144000	 0.910176
2.162000	 0.920348
2.180000	 0.935958
2.198000	 0.980053
2.216000	 1.088415
2.234000	 1.000403
2.252000	 1.009936
2.270000	 1.017721
2.288000	 1.040052
2.306000	 1.068494
2.324000	 1.112255
2.342000	 1.149347
2.360000	 1.175287
2.378000	 1.194169
2.396000	 1.212363
2.414000	 1.226002
2.432000	 1.252913
2.450000	 1.284784
2.468000	 1.324234
2.486000	 1.362487
2.504000	 1.390182
2.522000	 1.407807
2.540000	 1.416228
2.558000	 1.424458
2.576000	 1.431073
2.594000	 1.437696
2.612000	 1.481227
2.630000	 1.500150
2.648000	 1.539295
2.666000	 1.535150
2.684000	 1.561780
2.702000	 1.572341
2.720000	 1.556198
2.738000	 1.558824
2.756000	 1.566818
2.774000	 1.581413
2.792000	 1.592117
2.810000	 1.607931
2.828000	 1.611319
2.846000	 1.619310
2.864000	 1.611130
2.882000	 1.598920
2.900000	 1.587112
2.918000	 1.574922
2.936000	 1.580981
2.954000	 1.597982
2.972000	 1.618420
2.990000	 1.645403
3.008000	 1.676146
3.026000	 1.704251
3.044000	 1.728296
3.062000	 1.747549
3.080000	 1.766245
3.098000	 1.774545
3.116000	 1.774262
3.134000	 1.781125
3.152000	 1.786201
3.170000	 1.794349
3.188000	 1.807711
3.206000	 1.830123
3.224000	 1.858450
3.242000	 1.891218
3.260000	 1.915844
3.278000	 1.943813
3.296000	 1.961901
3.314000	 1.946181
3.332000	 2.007412
3.350000	 2.010149
3.368000	 1.950090
3.386000	 1.908247
3.404000	 1.817417
3.422000	 1.767120
3.440000	 1.917052
3.458000	 1.970357
3.476000	 1.985453
3.494000	 1.890483
3.512000	 1.996073
3.530000	 2.082277
3.548000	 2.123742
3.566000	 2.153563
3.584000	 2.180326
3.602000	 2.204706
3.620000	 2.224691
3.638000	 2.234438
3.656000	 2.240172
3.674000	 2.238396
3.692000	 2.232576
3.710000	 2.226232
3.728000	 2.220435
3.746000	 2.209800
3.764000	 2.203859
3.782000	 2.198639
3.800000	 2.195833
3.818000	 2.199749
3.836000	 2.203654
3.854000	 2.206940
3.872000	 2.221120
3.890000	 2.240449
3.908000	 2.254143
3.926000	 2.267785
3.944000	 2.279869
3.962000	 2.293726
3.980000	 2.300068
3.998000	 2.305260
4.016000	 2.305231
4.034000	 2.301523
4.052000	 2.291637
4.070000	 2.283837
4.088000	 2.274499
4.106000	 2.267291
4.124000	 2.250330
4.141999	 2.242393
4.160000	 2.235430
4.178000	 2.228552
4.196000	 2.223864
4.214000	 2.216304
4.232000	 2.209449
4.250000	 2.226870
4.268000	 2.238788
4.286000	 2.247820
4.304000	 2.267144
4.322000	 2.286651
4.340000	 2.306382
4.358000	 2.321567
4.375999	 2.333529
4.394000	 2.340751
4.412000	 2.345794
4.430000	 2.351483
4.448000	 2.354712
4.466000	 2.354686
4.484000	 2.351192
4.502000	 2.345771
4.520000	 2.343931
4.538000	 2.335351
4.556000	 2.327159
4.574000	 2.320805
4.592000	 2.315235
4.609999	 2.309983
4.628000	 2.305434
4.646000	 2.304629
4.664000	 2.306440
4.682000	 2.306118
4.700000	 2.305885
4.718000	 2.305621
4.736000	 2.305766
4.754000	 2.308283
4.772000	 2.307471
4.790000	 2.308221
4.808000	 2.315290
4.826000	 2.326929
4.843999	 2.340411
4.862000	 2.359869
4.880000	 2.372384
4.898000	 2.387381
4.916000	 2.400074
4.934000	 2.406400
4.952000	 2.413857
4.970000	 2.421713
4.988000	 2.425974
5.006000	 2.427425
5.024000	 2.424719
5.042000	 2.419117
5.060000	 2.413048
5.077999	 2.406672
5.096000	 2.401322
5.114000	 2.396231
5.132000	 2.391332
5.150000	 2.383869
5.168000	 2.380024
5.186000	 2.371171
5.204000	 2.361550
5.222000	 2.355342
5.240000	 2.349642
5.258000	 2.343522
5.276000	 2.339089
5.294000	 2.337752
5.312000	 2.340223
5.330000	 2.341935
5.348000	 2.341226
5.366000	 2.348047
5.384000	 2.353945
5.402000	 2.357919
5.420000	 2.357312
5.438000	 2.364416
5.456000	 2.369759
5.474000	 2.375554
5.492000	 2.385418
5.510000	 2.390796
5.528000	 2.395098
5.546000	 2.396661
5.564000	 2.393875
5.582000	 2.391159
5.600000	 2.394716
5.618000	 2.392784
5.636000	 2.381627
5.654000	 2.377781
5.672000	 2.378810
5.690000	 2.368513
5.708000	 2.349765
5.726000	 2.335442
5.744000	 2.315436
5.762000	 2.291229
5.780000	 2.290678
5.798000	 2.291523
5.816000	 2.271673
5.834000	 2.264841
5.852000	 2.262088
5.870000	 2.238276
5.888000	 2.216534
5.906000	 2.221787
5.923999	 2.215180
5.942000	 2.202129
5.960000	 2.202846
5.978000	 2.193332
5.996000	 2.186024
6.014000	 2.178167
6.032000	 2.153705
6.050000	 2.124147
6.068000	 2.123324
6.086000	 2.126962
6.104000	 2.115495
6.122000	 2.104460
6.140000	 2.095231
6.158000	 2.072177
6.176000	 2.035263
6.194000	 1.990220
6.212000	 1.952164
6.230000	 1.943499
6.248000	 1.961837
6.266000	 1.979120
6.284000	 1.985152
6.302000	 1.981783
6.320000	 1.971128
6.338000	 1.956979
6.356000	 1.949661
6.374000	 1.945170
6.392000	 1.924072
6.410000	 1.893527
6.428000	 1.896141
6.446000	 1.921343
6.464000	 1.928562
6.482000	 1.929126
6.500000	 1.963457
6.518000	 2.023776
6.536000	 2.065469
6.554000	 2.077021
6.572000	 2.074131
6.590000	 2.069705
6.608000	 2.060787
6.626000	 2.038035
6.644000	 1.986983
6.662000	 1.866461
6.680000	 1.705984
6.698000	 1.648143
6.716000	 1.732789
6.734000	 1.850758
6.752000	 1.920824
6.770000	 1.942036
6.788000	 1.942650
6.806000	 1.937175
6.824000	 1.918677
6.842000	 1.875333
6.860000	 1.807763
6.878000	 1.748238
6.896000	 1.739673
6.914000	 1.778654
6.932000	 1.817278
6.950000	 1.831123
6.968000	 1.835416
6.986000	 1.840440
7.004000	 1.842113
7.022000	 1.837448
7.040000	 1.828664
7.058000	 1.818805
7.076000	 1.800437
7.094000	 1.763132
7.112000	 1.719899
7.130000	 1.700544
7.148000	 1.714519
7.166000	 1.742798
7.184000	 1.761579
7.202000	 1.762552
7.220000	 1.758831
7.238000	 1.765189
7.256000	 1.777169
7.274000	 1.785273
7.292000	 1.789687
7.310000	 1.791645
7.328000	 1.791320
7.346000	 1.791346
7.364000	 1.792222
7.382000	 1.791744
7.400000	 1.789491
7.418000	 1.787153
7.436000	 1.786240
7.454000	 1.788212
7.472000	 1.794415
7.490000	 1.803748
7.508000	 1.812593
7.526000	 1.818522
7.544000	 1.821871
7.562000	 1.823825
7.580000	 1.825660
7.598000	 1.827885
7.616000	 1.829474
7.634000	 1.829493
7.652000	 1.828888
7.670000	 1.829002
7.688000	 1.830066
7.706000	 1.831072
7.724000	 1.830784
7.742000	 1.829166
7.760000	 1.827465
7.778000	 1.826508
7.796000	 1.824952
7.814000	 1.820244
7.832000	 1.810893
7.850000	 1.795472
7.868000	 1.771570
7.886000	 1.739505
7.904000	 1.708288
7.922000	 1.692670
7.940000	 1.700927
7.958000	 1.727371
7.976000	 1.758187
7.994000	 1.782762
8.012000	 1.798352
8.030000	 1.806643
8.048000	 1.810064
8.065999	 1.810210
8.084000	 1.808485
8.102000	 1.806063
8.120000	 1.803619
8.138000	 1.800849
8.155999	 1.796619
8.173999	 1.789811
8.192000	 1.780105
8.210000	 1.768026
8.228000	 1.754769
8.246000	 1.742013
8.263999	 1.731389
8.282000	 1.724140
8.300000	 1.720783
8.318000	 1.720461
8.336000	 1.721505
8.353999	 1.722146
8.372000	 1.721143
8.390000	 1.718424
8.408000	 1.714307
8.426000	 1.709060
8.443999	 1.702869
8.462000	 1.696241
8.480000	 1.689444
8.498000	 1.682267
8.516000	 1.674230
8.533999	 1.664912
8.552000	 1.654346
8.570000	 1.642872
8.588000	 1.630875
8.606000	 1.619128
8.624000	 1.609110
8.641999	 1.601930
8.660000	 1.597401
8.678000	 1.594143
8.696000	 1.590652
8.714000	 1.586134
8.731999	 1.580756
8.750000	 1.574762
8.768000	 1.568277
8.786000	 1.561254
8.804000	 1.553740
8.821999	 1.545645
8.840000	 1.536652
8.858000	 1.526347
8.876000	 1.514929
8.894000	 1.502892
8.911999	 1.490860
8.930000	 1.479054
8.948000	 1.467440
8.966000	 1.456119
8.984000	 1.445372
9.001999	 1.435732
9.020000	 1.427577
9.038000	 1.421235
9.056000	 1.416640
9.074000	 1.413475
9.092000	 1.411305
9.109999	 1.409803
9.128000	 1.408836
9.146000	 1.408384
9.164000	 1.408466
9.182000	 1.409048
9.199999	 1.409807
9.218000	 1.410341
9.236000	 1.410324
9.254000	 1.409810
9.272000	 1.409319
9.289999	 1.409574
9.308000	 1.410968
9.326000	 1.413484
9.344000	 1.416501
9.362000	 1.419306
9.379999	 1.421050
9.398000	 1.420676
9.416000	 1.416218
9.434000	 1.404609
9.452000	 1.383390
9.469999	 1.353288
9.488000	 1.320459
9.506000	 1.294585
9.524000	 1.284203
9.542000	 1.291573
9.560000	 1.311487
9.577999	 1.334818
9.596000	 1.353707
9.614000	 1.364850
9.632000	 1.369110
9.650000	 1.368936
9.667999	 1.366426
9.686000	 1.362853
9.704000	 1.358792
9.722000	 1.354683
9.740000	 1.350994
9.757999	 1.347984
9.776000	 1.346047
9.794000	 1.345301
9.812000	 1.345939
9.830000	 1.348029
9.847999	 1.351313
9.866000	 1.355545
9.884000	 1.360266
9.902000	 1.365014
9.920000	 1.369357
9.937999	 1.373076
9.956000	 1.376059
9.974000	 1.378344
9.992000	 1.380030
10.01	1.381182
10.028	1.381779
10.046	1.381704
10.064	1.380931
10.082	1.379375
10.1	1.377240
10.118	1.374633
10.136	1.371793
10.154	1.368726
10.172	1.365545
10.19	1.362225
10.208	1.358647
10.226	1.354897
10.244	1.350871
10.262	1.346508
10.28	1.341809
10.298	1.336742
10.316	1.331384
10.334	1.325707
10.352	1.319778
10.37	1.313602
10.388	1.307311
10.406	1.301013
10.424	1.294846
10.442	1.288828
10.46	1.282964
10.478	1.277126
10.496	1.271387
10.514	1.265848
10.532	1.260761
10.55	1.256326
10.568	1.252743
10.586	1.249879
10.604	1.247624
10.622	1.245678
10.64	1.243731
10.658	1.241528
10.676	1.239013
10.694	1.235987
10.712	1.232527
10.73	1.228725
10.748	1.224791
10.766	1.220935
10.784	1.217300
10.802	1.213919
10.82	1.210543
10.838	1.207095
10.856	1.203292
10.874	1.199055
10.892	1.194234
10.91	1.188925
10.928	1.183247
10.946	1.177387
10.964	1.171634
10.982	1.166157
11	1.161234
11.018	1.156946
11.036	1.153281
11.054	1.150042
11.072	1.147078
11.09	1.144174
11.108	1.141316
11.126	1.138541
11.144	1.135891
11.162	1.133275
11.18	1.130466
11.198	1.126956
11.216	1.122288
11.234	1.116098
11.252	1.108173
11.27	1.098555
11.288	1.087513
11.306	1.075589
11.324	1.063302
11.342	1.051405
11.36	1.040529
11.378	1.031367
11.396	1.024491
11.414	1.020336
11.432	1.019185
11.45	1.021004
11.468	1.025424
11.486	1.031875
11.504	1.039590
11.522	1.047727
11.54	1.055638
11.558	1.062620
11.576	1.068361
11.594	1.072839
11.612	1.075948
11.63	1.077869
11.648	1.078791
11.666	1.078850
11.684	1.078208
11.702	1.077034
11.72	1.075481
11.738	1.073769
11.756	1.071899
11.774	1.070058
11.792	1.068187
11.81	1.066232
11.828	1.064102
11.846	1.061568
11.864	1.058514
11.882	1.054616
11.9	1.049483
11.918	1.042756
11.936	1.033818
11.954	1.022272
11.972	1.007523
11.99	0.989385
12.008	0.968030
12.026	0.944088
12.044	0.918741
12.062	0.893724
12.08	0.871061
12.098	0.852570
12.116	0.839936
12.134	0.834044
12.152	0.834986
12.17	0.841891
12.188	0.853359
12.206	0.867586
12.224	0.882619
12.242	0.896909
12.26	0.909314
12.278	0.919296
12.296	0.926686
12.314	0.931810
12.332	0.935014
12.35	0.936915
12.368	0.937721
12.386	0.937875
12.404	0.937568
12.422	0.936927
12.44	0.936231
12.458	0.935566
12.476	0.935126
12.494	0.935026
12.512	0.935468
12.53	0.936438
12.548	0.937963
12.566	0.940086
12.584	0.942622
12.602	0.945493
12.62	0.948574
12.638	0.951721
12.656	0.954843
12.674	0.957874
12.692	0.960691
12.71	0.963223
12.728	0.965402
12.746	0.967196
12.764	0.968479
12.782	0.969262
12.8	0.969570
12.818	0.969413
12.836	0.968918
12.854	0.968193
12.872	0.967279
12.89	0.966319
12.908	0.965379
12.926	0.964530
12.944	0.963767
12.962	0.963077
12.98	0.962443
12.998	0.961855
13.016	0.961238
13.034	0.960592
13.052	0.959834
13.07	0.958990
13.088	0.958043
13.106	0.957068
13.124	0.956046
13.142	0.955053
13.16	0.954115
13.178	0.953234
13.196	0.952425
13.214	0.951602
13.232	0.950702
13.25	0.949719
13.268	0.948593
13.286	0.947265
13.304	0.945742
13.322	0.944033
13.34	0.942164
13.358	0.940171
13.376	0.938106
13.394	0.936008
13.412	0.933918
13.43	0.931895
13.448	0.929959
13.466	0.928123
13.484	0.926395
13.502	0.924786
13.52	0.923241
13.538	0.921698
13.556	0.920126
13.574	0.918432
13.592	0.916581
13.61	0.914502
13.628	0.912209
13.646	0.909717
13.664	0.907011
13.682	0.904119
13.7	0.901109
13.718	0.898022
13.736	0.894878
13.754	0.891744
13.772	0.888594
13.79	0.885493
13.808	0.882419
13.826	0.879431
13.844	0.876501
13.862	0.873652
13.88	0.870866
13.898	0.868154
13.916	0.865506
13.934	0.862880
13.952	0.860284
13.97	0.857699
13.988	0.855060
14.006	0.852430
14.024	0.849723
14.042	0.846940
14.06	0.844124
14.078	0.841255
14.096	0.838366
14.114	0.835453
14.132	0.832506
14.15	0.829544
14.168	0.826578
14.186	0.823531
14.204	0.820354
14.222	0.817016
14.24	0.813470
14.258	0.809647
14.276	0.805508
14.294	0.801038
14.312	0.796199
14.33	0.790949
14.348	0.785332
14.366	0.779343
14.384	0.773053
14.402	0.766554
14.42	0.759963
14.438	0.753432
14.456	0.747144
14.474	0.741294
14.492	0.736056
14.51	0.731641
14.528	0.728109
14.546	0.725555
14.564	0.723965
14.582	0.723252
14.6	0.723287
14.618	0.723834
14.636	0.724717
14.654	0.725736
14.672	0.726690
14.69	0.727419
14.708	0.727825
14.726	0.727880
14.744	0.727571
14.762	0.726917
14.78	0.725915
14.798	0.724627
14.816	0.723164
14.834	0.721508
14.852	0.719725
14.87	0.717857
14.888	0.715913
14.906	0.713913
14.924	0.711926
14.942	0.709940
14.96	0.707985
14.978	0.706073
14.996	0.704222
15.014	0.702455
15.032	0.700754
15.05	0.699094
15.068	0.697456
15.086	0.695840
15.104	0.694262
15.122	0.692653
15.14	0.691021
15.158	0.689349
15.176	0.687620
15.194	0.685837
15.212	0.684001
15.23	0.682104
15.248	0.680132
15.266	0.678079
15.284	0.675979
15.302	0.673799
15.32	0.671558
15.338	0.669287
15.356	0.667011
15.374	0.664725
15.392	0.662436
15.41	0.660162
15.428	0.657940
15.446	0.655747
15.464	0.653605
15.482	0.651521
15.5	0.649483
15.518	0.647465
15.536	0.645447
15.554	0.643421
15.572	0.641405
15.59	0.639351
15.608	0.637277
15.626	0.635198
15.644	0.633107
15.662	0.631035
15.68	0.628972
15.698	0.626916
15.716	0.624907
15.734	0.622938
15.752	0.621022
15.77	0.619176
15.788	0.617385
15.806	0.615637
15.824	0.613934
15.842	0.612308
15.86	0.610685
15.878	0.609075
15.896	0.607498
15.914	0.605911
15.932	0.604297
15.95	0.602650
15.968	0.600972
15.986	0.599251
16.004	0.597487
16.022	0.595683
16.04	0.593776
16.058	0.591824
16.076	0.589858
16.094	0.587819
16.112	0.585726
16.13	0.583579
16.148	0.581368
16.166	0.579087
16.184	0.576720
16.202	0.574243
16.22	0.571645
16.238	0.568891
16.256	0.565946
16.274	0.562848
16.292	0.559573
16.31	0.556102
16.328	0.552478
16.346	0.548760
16.364	0.544997
16.382	0.541234
16.4	0.537542
16.418	0.533980
16.436	0.530666
16.454	0.527638
16.472	0.524931
16.49	0.522626
16.508	0.520728
16.526	0.519242
16.544	0.518152
16.562	0.517397
16.58	0.516933
16.598	0.516726
16.616	0.516706
16.634	0.516809
16.652	0.516943
16.67	0.517082
16.688	0.517203
16.706	0.517224
16.724	0.517142
16.742	0.516967
16.76	0.516663
16.778	0.516237
16.796	0.515729
16.814	0.515143
16.832	0.514482
16.85	0.513741
16.868	0.512939
16.886	0.512094
16.904	0.511232
16.922	0.510355
16.94	0.509457
16.958	0.508557
16.976	0.507662
16.994	0.506800
17.012	0.505978
17.03	0.505207
17.048	0.504483
17.066	0.503808
17.084	0.503193
17.102	0.502626
17.12	0.502105
17.138	0.501622
17.156	0.501168
17.174	0.500738
17.192	0.500275
17.21	0.499774
17.228	0.499242
17.246	0.498665
17.264	0.498036
17.282	0.497345
17.3	0.496598
17.318	0.495809
17.336	0.494990
17.354	0.494144
17.372	0.493310
17.39	0.492488
17.408	0.491672
17.426	0.490882
17.444	0.490133
17.462	0.489397
17.48	0.488684
17.498	0.488060
17.516	0.487470
17.534	0.486869
17.552	0.486271
17.57	0.485675
17.588	0.485050
17.606	0.484405
17.624	0.483750
17.642	0.483070
17.66	0.482360
17.678	0.481591
17.696	0.480770
17.714	0.479946
17.732	0.479101
17.75	0.478215
17.768	0.477332
17.786	0.476466
17.804	0.475583
17.822	0.474686
17.84	0.473815
17.858	0.472957
17.876	0.472110
17.894	0.471265
17.912	0.470420
17.93	0.469586
17.948	0.468761
17.966	0.467931
17.984	0.467090
18.002	0.466226
18.02	0.465342
18.038	0.464437
18.056	0.463513
18.074	0.462568
18.092	0.461605
18.11	0.460622
18.128	0.459600
18.146	0.458548
18.164	0.457497
18.182	0.456441
18.2	0.455382
18.218	0.454314
18.236	0.453229
18.254	0.452143
18.272	0.451060
18.29	0.449993
18.308	0.448943
18.326	0.447897
18.344	0.446862
18.362	0.445889
18.38	0.444961
18.398	0.444050
18.416	0.443158
18.434	0.442277
18.452	0.441418
18.47	0.440599
18.488	0.439784
18.506	0.438957
18.524	0.438126
18.542	0.437290
18.56	0.436450
18.578	0.435608
18.596	0.434742
18.614	0.433851
18.632	0.432922
18.65	0.431955
18.668	0.430951
18.686	0.429911
18.704	0.428841
18.722	0.427743
18.74	0.426633
18.758	0.425504
18.776	0.424338
18.794	0.423150
18.812	0.421974
18.83	0.420798
18.848	0.419618
18.866	0.418432
18.884	0.417232
18.902	0.416027
18.92	0.414827
18.938	0.413629
18.956	0.412434
18.974	0.411241
18.992	0.410051
19.01	0.408861
19.028	0.407664
19.046	0.406467
19.064	0.405283
19.082	0.404105
19.1	0.402926
19.118	0.401751
19.136	0.400586
19.154	0.399429
19.172	0.398280
19.19	0.397139
19.208	0.396004
19.226	0.394878
19.244	0.393767
19.262	0.392669
19.28	0.391585
19.298	0.390514
19.316	0.389458
19.334	0.388414
19.352	0.387371
19.37	0.386328
19.388	0.385294
19.406	0.384271
19.424	0.383238
19.442	0.382192
19.46	0.381147
19.478	0.380108
19.496	0.379063
19.514	0.378009
19.532	0.376942
19.55	0.375860
19.568	0.374764
19.586	0.373656
19.604	0.372533
19.622	0.371388
19.64	0.370225
19.658	0.369050
19.676	0.367863
19.694	0.366657
19.712	0.365433
19.73	0.364185
19.748	0.362913
19.766	0.361619
19.784	0.360300
19.802	0.358961
19.82	0.357607
19.838	0.356234
19.856	0.354835
19.874	0.353415
19.892	0.351987
19.91	0.350547
19.928	0.349084
19.946	0.347595
19.964	0.346094
19.982	0.344581
20	0.343060
20.018	0.341530
20.036	0.339997
20.054	0.338469
20.072	0.336944
20.09	0.335426
20.108	0.333914
20.126	0.332420
20.144	0.330949
20.162	0.329484
20.18	0.328012
20.198	0.326550
20.216	0.325114
20.234	0.323700
20.252	0.322314
20.27	0.320959
20.288	0.319606
20.306	0.318252
20.324	0.316900
20.342	0.315551
20.36	0.314204
20.378	0.312861
20.396	0.311520
20.414	0.310173
20.432	0.308818
20.45	0.307456
20.468	0.306093
20.486	0.304719
20.504	0.303313
20.522	0.301882
20.54	0.300442
20.558	0.298997
20.576	0.297533
20.594	0.296038
20.612	0.294523
20.63	0.293002
20.648	0.291473
20.666	0.289928
20.684	0.288366
20.702	0.286795
20.72	0.285220
20.738	0.283640
20.756	0.282058
20.774	0.280474
20.792	0.278895
20.81	0.277329
20.828	0.275765
20.846	0.274195
20.864	0.272621
20.882	0.271068
20.9	0.269541
20.918	0.268026
20.936	0.266510
20.954	0.265002
20.972	0.263515
20.99	0.262048
21.008	0.260599
21.026	0.259168
21.044	0.257755
21.062	0.256365
21.08	0.254996
21.098	0.253654
21.116	0.252344
21.134	0.251063
21.152	0.249818
21.17	0.248608
21.188	0.247424
21.206	0.246264
21.224	0.245127
21.242	0.244011
21.26	0.242917
21.278	0.241839
21.296	0.240777
21.314	0.239732
21.332	0.238712
21.35	0.237720
21.368	0.236722
21.386	0.235705
21.404	0.234679
21.422	0.233654
21.44	0.232630
21.458	0.231599
21.476	0.230561
21.494	0.229512
21.512	0.228432
21.53	0.227318
21.548	0.226185
21.566	0.225040
21.584	0.223881
21.602	0.222697
21.62	0.221490
21.638	0.220260
21.656	0.219007
21.674	0.217733
21.692	0.216434
21.71	0.215106
21.728	0.213753
21.746	0.212383
21.764	0.210998
21.782	0.209591
21.8	0.208155
21.818	0.206691
21.836	0.205214
21.854	0.203724
21.872	0.202220
21.89	0.200700
21.908	0.199162
21.926	0.197618
21.944	0.196077
21.962	0.194534
21.98	0.192998
21.998	0.191464
22.016	0.189939
22.034	0.188436
22.052	0.186950
22.07	0.185488
22.088	0.184058
22.106	0.182656
22.124	0.181285
22.142	0.179941
22.16	0.178630
22.178	0.177368
22.196	0.176156
22.214	0.174991
22.232	0.173872
22.25	0.172801
22.268	0.171773
22.286	0.170788
22.304	0.169847
22.322	0.168938
22.34	0.168062
22.358	0.167217
22.376	0.166398
22.394	0.165611
22.412	0.164842
22.43	0.164077
22.448	0.163319
22.466	0.162564
22.484	0.161806
22.502	0.161048
22.52	0.160279
22.538	0.159497
22.556	0.158702
22.574	0.157874
22.592	0.157004
22.61	0.156100
22.628	0.155166
22.646	0.154200
22.664	0.153204
22.682	0.152181
22.7	0.151130
22.718	0.150052
22.736	0.148951
22.754	0.147824
22.772	0.146675
22.79	0.145509
22.808	0.144322
22.826	0.143125
22.844	0.141922
22.862	0.140709
22.88	0.139502
22.898	0.138313
22.916	0.137134
22.934	0.135965
22.952	0.134804
22.97	0.133652
22.988	0.132520
23.006	0.131413
23.024	0.130326
23.042	0.129263
23.06	0.128228
23.078	0.127215
23.096	0.126217
23.114	0.125230
23.132	0.124259
23.15	0.123308
23.168	0.122385
23.186	0.121479
23.204	0.120580
23.222	0.119684
23.24	0.118795
23.258	0.117909
23.276	0.117031
23.294	0.116156
23.312	0.115273
23.33	0.114380
23.348	0.113481
23.366	0.112576
23.384	0.111668
23.402	0.110753
23.42	0.109821
23.438	0.108867
23.456	0.107897
23.474	0.106916
23.492	0.105924
23.51	0.104920
23.528	0.103910
23.546	0.102897
23.564	0.101879
23.582	0.100851
23.6	0.099808
23.618	0.098754
23.636	0.097693
23.654	0.096626
23.672	0.095550
23.69	0.094476
23.708	0.093410
23.726	0.092348
23.744	0.091291
23.762	0.090237
23.78	0.089185
23.798	0.088139
23.816	0.087104
23.834	0.086078
23.852	0.085061
23.87	0.084053
23.888	0.083052
23.906	0.082060
23.924	0.081079
23.942	0.080110
23.96	0.079152
23.978	0.078205
23.996	0.077268
24.014	0.076342
24.032	0.075427
24.05	0.074522
24.068	0.073624
24.086	0.072741
24.104	0.071878
24.122	0.071034
24.14	0.070206
24.158	0.069393
24.176	0.068595
24.194	0.067812
24.212	0.067041
24.23	0.066280
24.248	0.065531
24.266	0.064797
24.284	0.064085
24.302	0.063392
24.32	0.062710
24.338	0.062030
24.356	0.061355
24.374	0.060684
24.392	0.060016
24.41	0.059350
24.428	0.058688
24.446	0.058029
24.464	0.057375
24.482	0.056727
24.5	0.056076
24.518	0.055416
24.536	0.054748
24.554	0.054076
24.572	0.053403
24.59	0.052733
24.608	0.052062
24.626	0.051385
24.644	0.050694
24.662	0.049992
24.68	0.049290
24.698	0.048597
24.716	0.047911
24.734	0.047230
24.752	0.046556
24.77	0.045888
24.788	0.045226
24.806	0.044577
24.824	0.043946
24.842	0.043330
24.86	0.042730
24.878	0.042148
24.896	0.041583
24.914	0.041036
24.932	0.040504
24.95	0.039986
24.968	0.039482
24.986	0.038994
25.004	0.038519
25.022	0.038060
25.04	0.037616
25.058	0.037184
25.076	0.036765
25.094	0.036361
25.112	0.035965
25.13	0.035572
25.148	0.035185
25.166	0.034803
25.184	0.034415
25.202	0.034019
25.22	0.033615
25.238	0.033208
25.256	0.032798
25.274	0.032387
25.292	0.031973
25.31	0.031552
25.328	0.031123
25.346	0.030685
25.364	0.030242
25.382	0.029793
25.4	0.029341
25.418	0.028884
25.436	0.028421
25.454	0.027953
25.472	0.027476
25.49	0.026996
25.508	0.026521
25.526	0.026054
25.544	0.025591
25.562	0.025133
25.58	0.024681
25.598	0.024235
25.616	0.023794
25.634	0.023363
25.652	0.022942
25.67	0.022531
25.688	0.022129
25.706	0.021739
25.724	0.021362
25.742	0.020996
25.76	0.020640
25.778	0.020292
25.796	0.019955
25.814	0.019626
25.832	0.019305
25.85	0.018992
25.868	0.018688
25.886	0.018389
25.904	0.018093
25.922	0.017796
25.94	0.017502
25.958	0.017210
25.976	0.016919
25.994	0.016633
26.012	0.016348
26.03	0.016064
26.048	0.015777
26.066	0.015488
26.084	0.015197
26.102	0.014906
26.12	0.014613
26.138	0.014318
26.156	0.014022
26.174	0.013727
26.192	0.013432
26.21	0.013138
26.228	0.012845
26.246	0.012552
26.264	0.012256
26.282	0.011958
26.3	0.011666
26.318	0.011386
26.336	0.011121
26.354	0.010865
26.372	0.010618
26.39	0.010379
26.408	0.010146
26.426	0.009921
26.444	0.009707
26.462	0.009509
26.48	0.009321
26.498	0.009147
26.516	0.008989
26.534	0.008852
26.552	0.008734
26.57	0.008634
26.588	0.008546
26.606	0.008468
26.624	0.008401
26.642	0.008348
26.66	0.008308
26.678	0.008283
26.696	0.008276
26.714	0.008281
26.732	0.008292
26.75	0.008306
26.768	0.008327
26.786	0.008353
26.804	0.008382
26.822	0.008414
26.84	0.008450
26.858	0.008488
26.876	0.008524
26.894	0.008558
26.912	0.008594
26.93	0.008626
26.948	0.008649
26.966	0.008658
26.984	0.008653
27.002	0.008642
27.02	0.008632
27.028	0.008630