File: Bakgrunnsmateriale/MATLAB/FTIR/ftir_data/LPE454/Mapping_121/LPE454_t06_cm-1.asc
PE IR       SPECTRUM    SPECTRUM    ASCII       PEDS        1.60
  -1
LP67BA~1.ASC
17/05/19
14:52:24.00
17/05/19
14:52:24.00
tln
$LPE454_t0006$<tbV0>[0.0,-13.0,8.0,0.0,27,1,0]
370
64

2002,4.07
MIRTGS : RIGHTBACK : INTERNAL 2
MIR : ON : INTERNAL 2
OPTKBR

0.200000
8
8.000000
FILLER
RATIO
SPECTRUM
UNLOCKED 256

DOUBLE
64
COMBINED
1
0
0

1.000000
RATIO

1
0
TRUE
51149
0
LEFT NOT FITTED RIGHT NOT FITTED 0
NONE
NONE
15600
12
4.427000
51148
TRUE
1 0 8 72 0 0 0 0

15798

#HDR
-1
-1
#GR
CM-1
%T
2.38419e-05
0.0
5000
-1.000000
4631
8
69.0296
-1.918959
#DATA
5000	0.023913
4996	-0.151395
4992	-0.217223
4988	0.079989
4984	0.605916
4980	0.907349
4976	0.548672
4972	0.174713
4968	0.124669
4964	-0.249218
4960	-0.617408
4956	-0.130057
4952	0.462675
4948	0.440096
4944	0.380969
4940	0.414323
4936	0.354886
4932	0.301527
4928	0.392985
4924	0.779700
4920	0.949358
4916	0.491023
4912	0.259184
4908	0.287318
4904	0.021243
4900	0.228214
4896	0.717997
4892	0.608658
4888	0.016880
4884	-0.536680
4880	-0.322079
4876	0.073671
4872	0.377273
4868	1.081609
4864	1.411390
4860	0.819492
4856	0.220537
4852	0.298953
4848	0.350880
4844	0.137281
4840	0.457835
4836	0.445795
4832	-0.409674
4828	-0.188803
4824	1.144695
4820	1.650738
4816	1.426982
4812	1.059103
4808	-0.177836
4804	-1.504802
4800	-1.380109
4796	-0.329375
4792	0.566577
4788	0.633859
4784	-0.061655
4780	-0.338172
4776	-0.132656
4772	0.096392
4768	0.607085
4764	0.984930
4760	0.853180
4756	0.420570
4752	0.029706
4748	0.210356
4744	0.730013
4740	0.900530
4736	0.732493
4732	0.498294
4728	0.180220
4724	-0.142931
4720	-0.187110
4716	-0.087881
4712	-0.007367
4708	0.098609
4704	0.078773
4700	-0.057148
4696	-0.174140
4692	-0.252985
4688	-0.271272
4684	-0.045633
4680	0.367856
4676	0.507688
4672	0.320172
4668	0.218105
4664	0.214481
4660	0.195360
4656	0.215196
4652	0.317668
4648	0.426077
4644	0.267791
4640	0.064539
4636	0.119900
4632	0.237488
4628	0.399446
4624	0.603342
4620	0.492215
4616	0.153803
4612	0.043082
4608	0.182867
4604	0.170040
4600	-0.008749
4596	0.063109
4592	0.331401
4588	0.303697
4584	0.084018
4580	0.157713
4576	0.416064
4572	0.581002
4568	0.358486
4564	0.085449
4560	0.378966
4556	0.646471
4552	0.477838
4548	0.330948
4544	0.237941
4540	0.225996
4536	0.153756
4532	0.060820
4528	-0.077247
4524	-0.411415
4520	-0.946378
4516	-1.249051
4512	-1.058888
4508	-0.839614
4504	-1.046395
4500	-1.183938
4496	-1.213383
4492	-1.270627
4488	-1.641750
4484	-1.876711
4480	-0.487875
4476	3.953146
4472	9.153294
4468	8.879637
4464	9.342360
4460	14.4452
4456	11.4405
4452	3.628778
4448	0.799012
4444	0.862145
4440	0.802421
4436	0.503492
4432	0.252199
4428	-0.122523
4424	-0.482058
4420	-0.832533
4416	-1.018381
4412	-0.937914
4408	-0.782823
4404	-0.421428
4400	0.046873
4396	0.332164
4392	0.313973
4388	0.150036
4384	0.122785
4380	0.075459
4376	-0.078582
4372	-0.113224
4368	-0.130581
4364	-0.114536
4360	0.006318
4356	-0.014257
4352	-0.007009
4348	0.062060
4344	0.123810
4340	0.277256
4336	0.361251
4332	0.305938
4328	0.129485
4324	-0.007462
4320	0.065708
4316	0.235724
4312	0.327706
4308	0.340247
4304	0.261044
4300	0.096273
4296	0.049877
4292	0.050258
4288	0.035881
4284	0.180315
4280	0.290536
4276	0.277137
4272	0.320553
4268	0.344181
4264	0.245356
4260	0.093841
4256	0.042748
4252	0.117969
4248	0.080585
4244	-0.041413
4240	-0.072216
4236	-0.074720
4232	0.030541
4228	0.281882
4224	0.386404
4220	0.256419
4216	0.061702
4212	0.023460
4208	0.052118
4204	-0.030875
4200	0.030350
4196	-0.106739
4192	-0.475168
4188	-0.317096
4184	-0.056028
4180	0.100374
4176	0.655245
4172	0.718045
4168	0.058245
4164	-0.134634
4160	0.153899
4156	0.210595
4152	0.222086
4148	0.472974
4144	0.603270
4140	0.357198
4136	0.045800
4132	-0.068163
4128	-0.051283
4124	-0.037670
4120	-0.010848
4116	0.056838
4112	0.033378
4108	0.050234
4104	0.076079
4100	-0.000691
4096	0.060415
4092	0.207400
4088	0.187325
4084	0.085926
4080	0.138711
4076	0.211095
4072	0.136089
4068	-0.003767
4064	-0.147986
4060	-0.167798
4056	-0.035071
4052	0.029349
4048	-0.037574
4044	0.025629
4040	0.123596
4036	0.031208
4032	-0.082778
4028	-0.126504
4024	-0.083494
4020	0.052380
4016	0.161933
4012	0.143289
4008	0.081396
4004	0.020432
4000	-0.056886
3996	-0.007438
3992	0.129628
3988	0.164318
3984	0.109958
3980	0.057244
3976	0.064659
3972	0.108838
3968	0.058722
3964	-0.029039
3960	-0.016379
3956	0.036382
3952	0.051975
3948	0.052404
3944	0.120925
3940	0.197744
3936	0.143790
3932	0.034546
3928	0.046849
3924	0.106120
3920	0.038981
3916	-0.060582
3912	-0.044941
3908	0.064873
3904	0.144767
3900	0.146698
3896	0.112271
3892	0.068521
3888	0.038647
3884	0.018215
3880	-0.072860
3876	-0.206041
3872	-0.165820
3868	0.018072
3864	0.146317
3860	0.203514
3856	0.174903
3852	0.086975
3848	0.063824
3844	0.105452
3840	0.067472
3836	-0.044965
3832	-0.109291
3828	-0.120973
3824	-0.042939
3820	0.108385
3816	0.152921
3812	0.184035
3808	0.237178
3804	0.107359
3800	-0.039505
3796	-0.016379
3792	0.023603
3788	-0.017094
3784	-0.058531
3780	-0.016951
3776	-0.000429
3772	-0.041556
3768	-0.036501
3764	-0.041484
3760	-0.013542
3756	0.083065
3752	0.145673
3748	0.173258
3744	0.138473
3740	0.070214
3736	0.060081
3732	0.026583
3728	0.024986
3724	0.103545
3720	0.107336
3716	0.080299
3712	0.100755
3708	0.111651
3704	0.130796
3700	0.148034
3696	0.157809
3692	0.206899
3688	0.193071
3684	0.085377
3680	0.028514
3676	0.094723
3672	0.181078
3668	0.178241
3664	0.169944
3660	0.194931
3656	0.180363
3652	0.138092
3648	0.076174
3644	0.015759
3640	-0.000596
3636	-0.004291
3632	0.009441
3628	0.075745
3624	0.148391
3620	0.176596
3616	0.192737
3612	0.156378
3608	0.077486
3604	0.072765
3600	0.118303
3596	0.120544
3592	0.143384
3588	0.213170
3584	0.175547
3580	0.040030
3576	-0.025820
3572	0.035834
3568	0.065994
3564	-0.026702
3560	-0.092363
3556	-0.091624
3552	-0.140285
3548	-0.193858
3544	-0.101804
3540	0.037169
3536	0.085473
3532	0.089669
3528	0.085306
3524	0.090098
3520	0.154328
3516	0.230479
3512	0.157189
3508	0.047874
3504	0.031805
3500	0.000762
3496	0.058555
3492	0.158977
3488	0.085926
3484	-0.032067
3480	-0.026965
3476	-0.000905
3472	0.002980
3468	0.094294
3464	0.160789
3460	0.153946
3456	0.185728
3452	0.162720
3448	0.100541
3444	0.104594
3440	0.080108
3436	0.038838
3432	0.071334
3428	0.062990
3424	0.006532
3420	0.046467
3416	0.119137
3412	0.125384
3408	0.125074
3404	0.185441
3400	0.241112
3396	0.207042
3392	0.138568
3388	0.133967
3384	0.150632
3380	0.110459
3376	0.063443
3372	0.024580
3368	-0.035023
3364	-0.075364
3360	-0.058627
3356	0.011491
3352	0.092411
3348	0.106310
3344	0.051522
3340	0.021886
3336	0.026917
3332	0.061964
3328	0.139546
3324	0.143432
3320	0.060510
3316	0.054335
3312	0.091576
3308	0.105547
3304	0.187993
3300	0.200986
3296	0.046086
3292	-0.032186
3288	0.026535
3284	0.052428
3280	0.090241
3276	0.153946
3272	0.158190
3268	0.123262
3264	0.134444
3260	0.235176
3256	0.237631
3252	0.138640
3248	0.135445
3244	0.136518
3240	0.129437
3236	0.210809
3232	0.204205
3228	0.063896
3224	0.023794
3220	0.030708
3216	-0.039529
3212	-0.021672
3208	0.071930
3204	0.079226
3200	0.054955
3196	0.064063
3192	0.097727
3188	0.145149
3184	0.131344
3180	0.067949
3176	0.016689
3172	0.009179
3168	0.078678
3164	0.129151
3160	0.104784
3156	0.074744
3152	0.082159
3148	0.115442
3144	0.029158
3140	-0.065803
3136	-0.050282
3132	-0.173020
3128	-0.245904
3124	-0.003266
3120	0.214982
3116	0.150060
3112	0.005650
3108	-0.063681
3104	-0.120353
3100	-0.098538
3096	-0.014233
3092	0.038886
3088	0.086593
3084	0.090694
3080	0.068807
3076	0.066542
3072	0.017547
3068	-0.056958
3064	-0.075364
3060	-0.077939
3056	-0.028324
3052	0.065445
3048	0.081419
3044	0.043773
3040	-0.005936
3036	-0.060892
3032	-0.083541
3028	-0.060009
3024	0.001358
3020	0.079822
3016	0.092220
3012	0.072646
3008	0.110721
3004	0.078129
3000	-0.027227
2996	-0.004911
2992	0.113940
2988	0.172996
2984	0.141525
2980	0.076794
2976	0.071597
2972	0.106406
2968	0.076627
2964	0.012874
2960	-0.015878
2956	0.013756
2952	0.044083
2948	-0.012040
2944	-0.066375
2940	-0.044178
2936	0.017046
2932	0.052428
2928	0.004172
2924	-0.084185
2920	-0.115942
2916	-0.048661
2912	0.044059
2908	0.048947
2904	0.023174
2900	0.046777
2896	0.067281
2892	0.118970
2888	0.176978
2884	0.145530
2880	0.133275
2876	0.153779
2872	0.127506
2868	0.090742
2864	0.028467
2860	0.027966
2856	0.081467
2852	0.011181
2848	-0.082993
2844	-0.104713
2840	-0.134801
2836	-0.141286
2832	-0.099134
2828	-0.071406
2824	-0.051951
2820	-0.080060
2816	-0.058150
2812	0.030112
2808	0.028848
2804	-0.018906
2800	-0.035834
2796	-0.071382
2792	-0.066399
2788	0.030589
2784	0.077438
2780	0.033187
2776	-0.019359
2772	-0.009202
2768	0.061202
2764	0.134134
2760	0.131821
2756	0.076508
2752	0.008845
2748	-0.037646
2744	-0.010967
2740	0.039434
2736	0.075984
2732	0.088167
2728	0.063776
2724	0.022768
2720	0.009059
2716	0.002312
2712	-0.028586
2708	0.005865
2704	0.057888
2700	0.047945
2696	0.016593
2692	-0.004458
2688	0.029492
2684	0.090122
2680	0.107264
2676	0.110650
2672	0.088810
2668	0.014591
2664	-0.009751
2660	0.059938
2656	0.124502
2652	0.128722
2648	0.093317
2644	0.020337
2640	-0.052738
2636	-0.031661
2632	0.060892
2628	0.060725
2624	-0.047755
2620	-0.071740
2616	0.023484
2612	0.063991
2608	0.031328
2604	0.037765
2600	0.037932
2596	-0.025534
2592	-0.080394
2588	-0.085616
2584	-0.019383
2580	0.078725
2576	0.062584
2572	-0.024247
2568	-0.013041
2564	-0.003552
2560	-0.062799
2556	-0.071096
2552	-0.052928
2548	-0.032496
2544	0.021958
2540	0.035667
2536	0.021791
2532	0.046229
2528	0.054025
2524	0.028061
2520	0.017595
2516	0.076794
2512	0.146079
2508	0.103330
2504	0.064969
2500	0.153446
2496	0.186586
2492	0.072360
2488	-0.009632
2484	-0.022149
2480	-0.013566
2476	0.033640
2472	0.045847
2468	-0.000905
2464	-0.023031
2460	-0.017237
2456	0.004816
2452	0.052833
2448	0.102972
2444	0.206542
2440	0.237417
2436	0.086975
2432	0.038623
2428	0.096106
2424	-0.070428
2420	-0.284934
2416	-0.164723
2412	0.076532
2408	0.163030
2404	0.197696
2400	0.209569
2396	0.167512
2392	0.134706
2388	0.100421
2384	0.061511
2380	0.052523
2376	0.016903
2372	-0.008821
2368	0.063824
2364	0.167083
2360	0.202822
2356	0.206017
2352	0.221347
2348	0.225543
2344	0.205826
2340	0.184178
2336	0.232267
2332	0.315976
2328	0.336170
2324	0.312566
2320	0.290989
2316	0.291872
2312	0.365972
2308	0.473403
2304	0.538945
2300	0.614452
2296	0.693535
2292	0.700616
2288	0.706601
2284	0.773811
2280	0.834178
2276	0.899577
2272	0.994133
2268	1.087880
2264	1.207160
2260	1.354646
2256	1.524829
2252	1.723003
2248	1.925349
2244	2.124309
2240	2.310681
2236	2.454161
2232	2.549457
2228	2.698063
2224	2.938437
2220	3.170680
2216	3.405213
2212	3.685235
2208	3.988885
2204	4.289555
2200	4.538440
2196	4.828453
2192	5.230665
2188	5.602622
2184	5.916881
2180	6.250643
2176	6.609630
2172	7.000923
2168	7.468891
2164	7.974290
2160	8.391618
2156	8.722066
2152	9.184527
2148	9.805917
2144	10.2419
2140	10.5366
2136	10.9238
2132	11.3216
2128	11.7961
2124	12.3974
2120	13.0029
2116	13.5085
2112	13.9335
2108	14.4113
2104	14.9117
2100	15.3419
2096	15.7713
2092	16.2525
2088	16.7263
2084	17.1535
2080	17.5946
2076	18.146
2072	18.6529
2068	19.0233
2064	19.4077
2060	19.7774
2056	20.1937
2052	20.7093
2048	21.1683
2044	21.5676
2040	21.9646
2036	22.3442
2032	22.7409
2028	23.1596
2024	23.4997
2020	23.7595
2016	24.0526
2012	24.4199
2008	24.793
2004	25.1051
2000	25.3954
1996	25.694
1992	25.965
1988	26.2176
1984	26.4969
1980	26.7793
1976	27.0219
1972	27.2553
1968	27.4713
1964	27.6362
1960	27.8031
1956	28.0205
1952	28.2646
1948	28.5017
1944	28.6834
1940	28.8281
1936	28.99
1932	29.1773
1928	29.3948
1924	29.5838
1920	29.733
1916	29.8813
1912	30.0677
1908	30.256
1904	30.3827
1900	30.5007
1896	30.6115
1892	30.7039
1888	30.7944
1884	30.8913
1880	31.0015
1876	31.083
1872	31.1445
1868	31.2431
1864	31.3645
1860	31.4444
1856	31.488
1852	31.564
1848	31.6767
1844	31.771
1840	31.8385
1836	31.9194
1832	32.0024
1828	32.0376
1824	32.0648
1820	32.1625
1816	32.2779
1812	32.3321
1808	32.3501
1804	32.3692
1800	32.4128
1796	32.4811
1792	32.5419
1788	32.6016
1784	32.6704
1780	32.6841
1776	32.6602
1772	32.6905
1768	32.726
1764	32.7238
1760	32.7412
1756	32.7908
1752	32.8181
1748	32.8103
1744	32.8251
1740	32.8634
1736	32.926
1732	33.0373
1728	33.1353
1724	33.1538
1720	33.1814
1716	33.1556
1712	32.903
1708	32.7371
1704	32.9135
1700	33.1352
1696	33.1364
1692	33.0652
1688	33.0938
1684	33.0983
1680	33.0585
1676	33.1202
1672	33.1936
1668	33.1582
1664	33.0902
1660	33.0667
1656	33.1317
1652	33.218
1648	33.2047
1644	33.1383
1640	33.0925
1636	33.109
1632	33.1979
1628	33.2732
1624	33.2828
1620	33.2697
1616	33.2463
1612	33.1848
1608	33.1155
1604	33.0995
1600	33.1176
1596	33.1367
1592	33.1451
1588	33.0984
1584	33.105
1580	33.2216
1576	33.284
1572	33.2647
1568	33.235
1564	33.2498
1560	33.3568
1556	33.3809
1552	33.2921
1548	33.2792
1544	33.3236
1540	33.2794
1536	33.1795
1532	33.1769
1528	33.2393
1524	33.26
1520	33.2448
1516	33.2316
1512	33.2417
1508	33.2843
1504	33.2819
1500	33.2302
1496	33.2303
1492	33.2162
1488	33.1511
1484	33.1435
1480	33.2044
1476	33.2592
1472	33.2131
1468	33.1411
1464	33.1557
1460	33.1542
1456	33.0965
1452	33.0733
1448	33.015
1444	32.9631
1440	33.0576
1436	33.0916
1432	32.9857
1428	32.9271
1424	32.977
1420	33.0904
1416	33.1008
1412	32.9979
1408	32.9596
1404	33.022
1400	33.0503
1396	32.9903
1392	32.9731
1388	33.0127
1384	33.0338
1380	32.9973
1376	32.8835
1372	32.8362
1368	32.8531
1364	32.795
1360	32.7566
1356	32.7736
1352	32.7967
1348	32.8267
1344	32.8653
1340	32.9332
1336	32.919
1332	32.7749
1328	32.6873
1324	32.7173
1320	32.7555
1316	32.7255
1312	32.6719
1308	32.6272
1304	32.5671
1300	32.5736
1296	32.6329
1292	32.6582
1288	32.6767
1284	32.6763
1280	32.6181
1276	32.5344
1272	32.4725
1268	32.458
1264	32.463
1260	32.4495
1256	32.4219
1252	32.4093
1248	32.4704
1244	32.5524
1240	32.5974
1236	32.627
1232	32.6136
1228	32.5815
1224	32.5238
1220	32.4578
1216	32.4437
1212	32.4471
1208	32.4442
1204	32.3527
1200	32.2098
1196	32.2175
1192	32.2832
1188	32.2696
1184	32.2727
1180	32.3558
1176	32.419
1172	32.4078
1168	32.373
1164	32.2758
1160	32.1617
1156	32.114
1152	32.136
1148	32.19
1144	32.1142
1140	31.9561
1136	31.9343
1132	31.9788
1128	32.0054
1124	32.0595
1120	32.1232
1116	32.1475
1112	32.1134
1108	32.0985
1104	32.1678
1100	32.1205
1096	31.8598
1092	31.7262
1088	31.7908
1084	31.7235
1080	31.5661
1076	31.5714
1072	31.7302
1068	31.8383
1064	31.8274
1060	31.8246
1056	31.8704
1052	31.9681
1048	31.9568
1044	31.6524
1040	31.3944
1036	31.4001
1032	31.4386
1028	31.4463
1024	31.4361
1020	31.3785
1016	31.4118
1012	31.4841
1008	31.4113
1004	31.3784
1000	31.5245
996	 31.6397
992	 31.6375
988	 31.5217
984	 31.309
980	 31.1798
976	 31.1884
972	 31.2284
968	 31.1517
964	 30.8947
960	 30.6773
956	 30.7291
952	 30.9667
948	 31.1309
944	 31.0983
940	 30.9493
936	 30.8405
932	 30.8891
928	 30.8976
924	 30.6562
920	 30.3527
916	 30.246
912	 30.2904
908	 30.2341
904	 30.1844
900	 30.2711
896	 30.4172
892	 30.5461
888	 30.5523
884	 30.5292
880	 30.48
876	 30.4191
872	 30.4324
868	 30.3129
864	 30.0825
860	 29.9516
856	 29.8646
852	 29.7317
848	 29.5991
844	 29.6754
840	 29.9423
836	 30.0804
832	 30.05
828	 30.0559
824	 30.2183
820	 30.2098
816	 29.8456
812	 29.6133
808	 29.5697
804	 29.38
800	 29.0806
796	 28.8612
792	 28.8192
788	 28.8323
784	 28.8191
780	 28.9217
776	 29.1363
772	 29.2535
768	 29.2351
764	 29.216
760	 29.1719
756	 29.0108
752	 28.7752
748	 28.5079
744	 28.2341
740	 27.9492
736	 27.8566
732	 28.2144
728	 28.4876
724	 28.4526
720	 28.546
716	 28.5769
712	 28.4305
708	 28.3081
704	 28.097
700	 27.8259
696	 27.5409
692	 27.1749
688	 26.9884
684	 27.1071
680	 27.2099
676	 27.0183
672	 26.6377
668	 26.7499
664	 27.2584
660	 27.2451
656	 27.0466
652	 27.0755
648	 27.0102
644	 26.7238
640	 26.3323
636	 26.4083
632	 26.7236
628	 26.5551
624	 26.2967
620	 26.2165
616	 26.0133
612	 25.8149
608	 25.766
604	 25.9446
600	 26.3338
596	 26.3709
592	 25.8844
588	 25.5447
584	 25.4874
580	 25.3394
576	 25.3165
572	 25.4913
568	 25.351
564	 24.8073
560	 24.4913
556	 24.7276
552	 24.8797
548	 24.657
544	 24.629
540	 24.7349
536	 24.5939
532	 24.2427
528	 24.0821
524	 24.4911
520	 24.4301
516	 23.5103
512	 22.8015
508	 22.5004
504	 22.6528
500	 23.424
496	 24.0249
492	 23.896
488	 23.0567
484	 22.3819
480	 23.1183
476	 23.9976
472	 23.5524
468	 22.2985
464	 21.2217
460	 21.8309
456	 23.0187
452	 22.7679
448	 22.7464
444	 22.9493
440	 21.8841
436	 20.5917
432	 19.1064
428	 18.9751
424	 22.0234
420	 23.7051
416	 20.7238
412	 16.5551
408	 18.5464
404	 21.431
400	 16.4285
396	 18.2906
392	 25.5226
388	 37.281
384	 59.2957
380	 68.4753
376	 46.1975
372	 21.8748
370	 27.4182