File: Bakgrunnsmateriale/MATLAB/FTIR/ftir_data/LPE454/Mapping_121/LPE454_t03.asc
PE IR       SPECTRUM    SPECTRUM    ASCII       PEDS        1.60
  -1
LPC390~1.ASC
17/05/19
14:38:34.00
17/05/19
14:39:00.00
tln
$LPE454_t0003$<tbV0>[7.8,-13.0,8.0,0.0,27,1,0]
27.028
64

2002,4.07
MIRTGS : RIGHTBACK : INTERNAL 2
MIR : ON : INTERNAL 2
OPTKBR

0.200000
8
8.000000
FILLER
RATIO
SPECTRUM
UNLOCKED 256

DOUBLE
64
COMBINED
1
0
0

0.002000
RATIO

1
0
TRUE
51149
0
LEFT NOT FITTED RIGHT NOT FITTED 0
NONE
NONE
15600
12
4.427000
51148
TRUE
1 0 8 72 0 0 0 0

15798

#HDR
-1
-1
#GR
µM
%T
2.38419e-05
0.0
2.000000
0.002000
12515
8
42.4836
-31.147
#DATA
2.000000	 -0.401926
2.018000	 0.443732
2.036000	 0.273680
2.054000	 1.310869
2.072000	 0.448007
2.090000	 0.195425
2.108000	 0.329170
2.126000	 0.110079
2.144000	 -0.063318
2.162000	 0.414279
2.180000	 0.169782
2.198000	 -0.079287
2.216000	 -0.500892
2.234000	 1.589361
2.252000	 -0.597364
2.270000	 -0.559190
2.288000	 -0.337634
2.306000	 0.382708
2.324000	 0.231540
2.342000	 -0.231052
2.360000	 0.118228
2.378000	 0.340849
2.396000	 -0.002132
2.414000	 0.172775
2.432000	 -0.086383
2.450000	 0.134857
2.468000	 -0.021461
2.486000	 0.126402
2.504000	 -0.078474
2.522000	 -0.034501
2.540000	 0.177143
2.558000	 0.107491
2.576000	 -0.145655
2.594000	 -0.215807
2.612000	 0.030763
2.630000	 -0.044756
2.648000	 0.045093
2.666000	 0.020592
2.684000	 -0.073484
2.702000	 0.116752
2.720000	 0.099126
2.738000	 0.150600
2.756000	 0.107075
2.774000	 0.319821
2.792000	 -0.118461
2.810000	 -0.029740
2.828000	 0.062825
2.846000	 0.176912
2.864000	 0.099939
2.882000	 0.281465
2.900000	 -0.055799
2.918000	 0.003536
2.936000	 -0.051348
2.954000	 0.067249
2.972000	 0.010538
2.990000	 0.031230
3.008000	 0.112578
3.026000	 0.094289
3.044000	 -0.033511
3.062000	 0.044524
3.080000	 -0.123732
3.098000	 0.028570
3.116000	 0.039519
3.134000	 0.091342
3.152000	 0.284273
3.170000	 0.089816
3.188000	 0.232497
3.206000	 0.101515
3.224000	 -0.069956
3.242000	 -0.007258
3.260000	 0.003513
3.278000	 0.011948
3.296000	 0.048739
3.314000	 0.054208
3.332000	 0.018439
3.350000	 -0.028549
3.368000	 0.005488
3.386000	 0.083199
3.404000	 0.089574
3.422000	 0.070196
3.440000	 0.110895
3.458000	 0.027819
3.476000	 0.032652
3.494000	 0.003749
3.512000	 0.113040
3.530000	 -0.063365
3.548000	 -0.007331
3.566000	 0.009910
3.584000	 0.112864
3.602000	 0.076908
3.620000	 0.007543
3.638000	 -0.138865
3.656000	 0.078902
3.674000	 -0.019714
3.692000	 -0.035526
3.710000	 0.055309
3.728000	 0.067983
3.746000	 -0.028872
3.764000	 0.020360
3.782000	 -0.036062
3.800000	 0.031424
3.818000	 -0.015605
3.836000	 0.133456
3.854000	 0.088196
3.872000	 0.065174
3.890000	 0.022560
3.908000	 0.001196
3.926000	 -0.034209
3.944000	 0.070433
3.962000	 -0.032993
3.980000	 0.010419
3.998000	 0.133749
4.016000	 -0.009405
4.034000	 0.097071
4.052000	 0.046139
4.070000	 0.166607
4.088000	 0.085441
4.106000	 0.138854
4.124000	 0.160093
4.141999	 0.243975
4.160000	 0.130681
4.178000	 0.217897
4.196000	 0.158631
4.214000	 0.227037
4.232000	 0.244696
4.250000	 0.348303
4.268000	 0.416344
4.286000	 0.617601
4.304000	 0.590826
4.322000	 0.588996
4.340000	 0.913622
4.358000	 1.215113
4.375999	 1.529531
4.394000	 1.777104
4.412000	 2.126113
4.430000	 2.589408
4.448000	 3.090019
4.466000	 3.547441
4.484000	 4.160339
4.502000	 4.838421
4.520000	 5.532261
4.538000	 6.245984
4.556000	 7.120180
4.574000	 8.037227
4.592000	 8.969692
4.609999	 9.963827
4.628000	 10.9683
4.646000	 12.031
4.664000	 13.0026
4.682000	 14.0811
4.700000	 14.9355
4.718000	 16.0197
4.736000	 17.0016
4.754000	 17.8844
4.772000	 18.889
4.790000	 20.095
4.808000	 20.9813
4.826000	 21.7719
4.843999	 22.7368
4.862000	 23.29
4.880000	 24.244
4.898000	 24.901
4.916000	 25.632
4.934000	 26.4515
4.952000	 27.0853
4.970000	 27.5142
4.988000	 27.9772
5.006000	 28.4838
5.024000	 29.0206
5.042000	 29.6217
5.060000	 30.1675
5.077999	 30.6992
5.096000	 31.0557
5.114000	 31.2866
5.132000	 31.4755
5.150000	 31.6559
5.168000	 31.9269
5.186000	 32.3255
5.204000	 32.7519
5.222000	 33.1246
5.240000	 33.4635
5.258000	 33.703
5.276000	 33.7724
5.294000	 33.7275
5.312000	 33.7446
5.330000	 33.9093
5.348000	 34.2304
5.366000	 34.5131
5.384000	 34.8034
5.402000	 35.0228
5.420000	 35.1619
5.438000	 35.1254
5.456000	 35.2041
5.474000	 35.1968
5.492000	 35.1062
5.510000	 35.1769
5.528000	 35.4202
5.546000	 35.6094
5.564000	 35.8474
5.582000	 36.101
5.600000	 36.1562
5.618000	 36.112
5.636000	 36.026
5.654000	 35.837
5.672000	 35.7294
5.690000	 35.8253
5.708000	 35.9122
5.726000	 36.0505
5.744000	 36.2752
5.762000	 36.5825
5.780000	 36.6371
5.798000	 36.66
5.816000	 36.6813
5.834000	 36.4931
5.852000	 36.1935
5.870000	 36.0453
5.888000	 36.0318
5.906000	 36.072
5.923999	 36.286
5.942000	 36.4339
5.960000	 36.5045
5.978000	 36.6956
5.996000	 36.8701
6.014000	 36.8606
6.032000	 36.6953
6.050000	 36.5665
6.068000	 36.3389
6.086000	 36.1223
6.104000	 36.1763
6.122000	 36.1973
6.140000	 36.159
6.158000	 36.3241
6.176000	 36.5476
6.194000	 36.6934
6.212000	 36.7321
6.230000	 36.6724
6.248000	 36.6362
6.266000	 36.6044
6.284000	 36.5104
6.302000	 36.2796
6.320000	 36.0623
6.338000	 36.1243
6.356000	 36.22
6.374000	 36.2516
6.392000	 36.3332
6.410000	 36.5204
6.428000	 36.6486
6.446000	 36.7408
6.464000	 36.9089
6.482000	 36.9951
6.500000	 36.9175
6.518000	 36.7656
6.536000	 36.5712
6.554000	 36.3487
6.572000	 36.1678
6.590000	 36.0584
6.608000	 36.0602
6.626000	 36.1804
6.644000	 36.2905
6.662000	 36.337
6.680000	 36.4351
6.698000	 36.5555
6.716000	 36.6186
6.734000	 36.7022
6.752000	 36.7683
6.770000	 36.7233
6.788000	 36.5638
6.806000	 36.357
6.824000	 36.1715
6.842000	 36.0217
6.860000	 35.8857
6.878000	 35.7435
6.896000	 35.6261
6.914000	 35.5582
6.932000	 35.5834
6.950000	 35.7861
6.968000	 36.0793
6.986000	 36.2929
7.004000	 36.4127
7.022000	 36.5478
7.040000	 36.7252
7.058000	 36.7658
7.076000	 36.6135
7.094000	 36.4538
7.112000	 36.3355
7.130000	 36.1472
7.148000	 35.9075
7.166000	 35.7392
7.184000	 35.6848
7.202000	 35.6862
7.220000	 35.6796
7.238000	 35.6831
7.256000	 35.7643
7.274000	 35.9273
7.292000	 36.0879
7.310000	 36.1859
7.328000	 36.2853
7.346000	 36.4493
7.364000	 36.5871
7.382000	 36.5905
7.400000	 36.4776
7.418000	 36.3073
7.436000	 36.1118
7.454000	 35.9363
7.472000	 35.8045
7.490000	 35.6775
7.508000	 35.5385
7.526000	 35.4417
7.544000	 35.4155
7.562000	 35.4331
7.580000	 35.4865
7.598000	 35.5912
7.616000	 35.7444
7.634000	 35.9214
7.652000	 36.0828
7.670000	 36.1968
7.688000	 36.2745
7.706000	 36.3452
7.724000	 36.399
7.742000	 36.3994
7.760000	 36.3454
7.778000	 36.2652
7.796000	 36.1561
7.814000	 35.9876
7.832000	 35.7712
7.850000	 35.5636
7.868000	 35.402
7.886000	 35.2824
7.904000	 35.1918
7.922000	 35.136
7.940000	 35.1408
7.958000	 35.2315
7.976000	 35.3914
7.994000	 35.5647
8.012000	 35.7158
8.030000	 35.8519
8.048000	 35.9812
8.065999	 36.0957
8.084000	 36.1905
8.102000	 36.2644
8.120000	 36.3002
8.138000	 36.2748
8.155999	 36.1871
8.173999	 36.0655
8.192000	 35.9417
8.210000	 35.8153
8.228000	 35.6573
8.246000	 35.4603
8.263999	 35.271
8.282000	 35.1436
8.300000	 35.0792
8.318000	 35.0466
8.336000	 35.041
8.353999	 35.0805
8.372000	 35.152
8.390000	 35.2085
8.408000	 35.2356
8.426000	 35.2836
8.443999	 35.4127
8.462000	 35.6268
8.480000	 35.8693
8.498000	 36.0695
8.516000	 36.1913
8.533999	 36.243
8.552000	 36.2521
8.570000	 36.2307
8.588000	 36.1676
8.606000	 36.0523
8.624000	 35.9022
8.641999	 35.7539
8.660000	 35.627
8.678000	 35.5083
8.696000	 35.3756
8.714000	 35.216
8.731999	 35.0259
8.750000	 34.8268
8.768000	 34.6716
8.786000	 34.6125
8.804000	 34.6586
8.821999	 34.77
8.840000	 34.8873
8.858000	 34.9748
8.876000	 35.0399
8.894000	 35.1121
8.911999	 35.2054
8.930000	 35.3099
8.948000	 35.4146
8.966000	 35.5284
8.984000	 35.6628
9.001999	 35.8021
9.020000	 35.9087
9.038000	 35.9572
9.056000	 35.9561
9.074000	 35.9294
9.092000	 35.8841
9.109999	 35.8043
9.128000	 35.6749
9.146000	 35.5059
9.164000	 35.3285
9.182000	 35.1715
9.199999	 35.0414
9.218000	 34.9246
9.236000	 34.8069
9.254000	 34.6927
9.272000	 34.6037
9.289999	 34.5608
9.308000	 34.5666
9.326000	 34.6028
9.344000	 34.6434
9.362000	 34.673
9.379999	 34.6939
9.398000	 34.721
9.416000	 34.7701
9.434000	 34.8517
9.452000	 34.969
9.469999	 35.1192
9.488000	 35.2905
9.506000	 35.4566
9.524000	 35.5829
9.542000	 35.6432
9.560000	 35.6385
9.577999	 35.596
9.596000	 35.5467
9.614000	 35.5089
9.632000	 35.484
9.650000	 35.4656
9.667999	 35.4443
9.686000	 35.4061
9.704000	 35.3307
9.722000	 35.2032
9.740000	 35.0318
9.757999	 34.8579
9.776000	 34.7373
9.794000	 34.6998
9.812000	 34.7204
9.830000	 34.7317
9.847999	 34.6736
9.866000	 34.5375
9.884000	 34.371
9.902000	 34.2422
9.920000	 34.1932
9.937999	 34.2176
9.956000	 34.2743
9.974000	 34.3225
9.992000	 34.3467
10.01	34.3602
10.028	34.3924
10.046	34.4684
10.064	34.5945
10.082	34.7556
10.1	34.9207
10.118	35.0532
10.136	35.1276
10.154	35.1379
10.172	35.0982
10.19	35.0369
10.208	34.9814
10.226	34.9462
10.244	34.9307
10.262	34.9216
10.28	34.9027
10.298	34.8627
10.316	34.7986
10.334	34.7129
10.352	34.6086
10.37	34.4872
10.388	34.3487
10.406	34.1953
10.424	34.0344
10.442	33.879
10.46	33.7443
10.478	33.6435
10.496	33.5826
10.514	33.5592
10.532	33.5652
10.55	33.5912
10.568	33.6314
10.586	33.6847
10.604	33.7508
10.622	33.8274
10.64	33.9079
10.658	33.9853
10.676	34.058
10.694	34.1329
10.712	34.222
10.73	34.3324
10.748	34.4594
10.766	34.5845
10.784	34.6843
10.802	34.7423
10.82	34.7578
10.838	34.7462
10.856	34.7297
10.874	34.7259
10.892	34.7384
10.91	34.7581
10.928	34.7685
10.946	34.7543
10.964	34.709
10.982	34.6352
11	34.5434
11.018	34.4466
11.036	34.3544
11.054	34.2719
11.072	34.1985
11.09	34.1301
11.108	34.0621
11.126	33.9905
11.144	33.9124
11.162	33.8254
11.18	33.7279
11.198	33.6191
11.216	33.5008
11.234	33.3771
11.252	33.2552
11.27	33.143
11.288	33.0479
11.306	32.9743
11.324	32.9248
11.342	32.9005
11.36	32.903
11.378	32.9358
11.396	33.003
11.414	33.1068
11.432	33.2437
11.45	33.4033
11.468	33.5676
11.486	33.7162
11.504	33.8322
11.522	33.9067
11.54	33.9419
11.558	33.9491
11.576	33.9441
11.594	33.94
11.612	33.9455
11.63	33.963
11.648	33.9905
11.666	34.0247
11.684	34.0633
11.702	34.1046
11.72	34.1455
11.738	34.1807
11.756	34.2024
11.774	34.2022
11.792	34.1749
11.81	34.1214
11.828	34.0484
11.846	33.9662
11.864	33.8843
11.882	33.807
11.9	33.7343
11.918	33.6619
11.936	33.5848
11.954	33.5007
11.972	33.4112
11.99	33.3213
12.008	33.2368
12.026	33.1618
12.044	33.0972
12.062	33.0398
12.08	32.9837
12.098	32.9235
12.116	32.8561
12.134	32.7821
12.152	32.7061
12.17	32.6351
12.188	32.5762
12.206	32.5355
12.224	32.5159
12.242	32.5175
12.26	32.5381
12.278	32.5738
12.296	32.6195
12.314	32.6701
12.332	32.7219
12.35	32.7722
12.368	32.8207
12.386	32.8684
12.404	32.9171
12.422	32.9685
12.44	33.0236
12.458	33.0823
12.476	33.1436
12.494	33.206
12.512	33.2679
12.53	33.327
12.548	33.3806
12.566	33.4255
12.584	33.4585
12.602	33.4773
12.62	33.481
12.638	33.4705
12.656	33.4481
12.674	33.4172
12.692	33.3805
12.71	33.3403
12.728	33.2967
12.746	33.2482
12.764	33.1922
12.782	33.1267
12.8	33.0512
12.818	32.9679
12.836	32.8813
12.854	32.7971
12.872	32.7211
12.89	32.657
12.908	32.6056
12.926	32.5638
12.944	32.5259
12.962	32.4851
12.98	32.4356
12.998	32.3744
13.016	32.3021
13.034	32.2225
13.052	32.141
13.07	32.063
13.088	31.9908
13.106	31.9234
13.124	31.8562
13.142	31.7837
13.16	31.7014
13.178	31.6091
13.196	31.5116
13.214	31.4195
13.232	31.3457
13.25	31.3041
13.268	31.3045
13.286	31.3507
13.304	31.439
13.322	31.5589
13.34	31.6947
13.358	31.8289
13.376	31.9455
13.394	32.0332
13.412	32.0871
13.43	32.1092
13.448	32.1072
13.466	32.0927
13.484	32.0785
13.502	32.0758
13.52	32.0926
13.538	32.1319
13.556	32.1921
13.574	32.2678
13.592	32.3502
13.61	32.4301
13.628	32.4984
13.646	32.5488
13.664	32.5775
13.682	32.5841
13.7	32.5711
13.718	32.5431
13.736	32.5052
13.754	32.4629
13.772	32.4199
13.79	32.3791
13.808	32.3412
13.826	32.306
13.844	32.272
13.862	32.2376
13.88	32.2013
13.898	32.162
13.916	32.1197
13.934	32.0753
13.952	32.0305
13.97	31.9868
13.988	31.9456
14.006	31.907
14.024	31.8701
14.042	31.8326
14.06	31.7913
14.078	31.7429
14.096	31.6846
14.114	31.6152
14.132	31.5348
14.15	31.4453
14.168	31.3501
14.186	31.2533
14.204	31.1593
14.222	31.072
14.24	30.9946
14.258	30.929
14.276	30.8758
14.294	30.8347
14.312	30.8043
14.33	30.7825
14.348	30.7672
14.366	30.7564
14.384	30.7486
14.402	30.7426
14.42	30.7382
14.438	30.7358
14.456	30.736
14.474	30.74
14.492	30.7486
14.51	30.7626
14.528	30.7821
14.546	30.8064
14.564	30.8343
14.582	30.8638
14.6	30.8928
14.618	30.9192
14.636	30.941
14.654	30.9573
14.672	30.9678
14.69	30.9734
14.708	30.9756
14.726	30.9762
14.744	30.9779
14.762	30.9825
14.78	30.9914
14.798	31.0058
14.816	31.026
14.834	31.052
14.852	31.0833
14.87	31.1189
14.888	31.1581
14.906	31.2002
14.924	31.2443
14.942	31.2898
14.96	31.3358
14.978	31.3814
14.996	31.4252
15.014	31.4659
15.032	31.5014
15.05	31.5299
15.068	31.5498
15.086	31.5602
15.104	31.5604
15.122	31.5508
15.14	31.5327
15.158	31.5081
15.176	31.4789
15.194	31.448
15.212	31.4174
15.23	31.3888
15.248	31.3629
15.266	31.3395
15.284	31.3172
15.302	31.2931
15.32	31.2644
15.338	31.2279
15.356	31.1798
15.374	31.1173
15.392	31.039
15.41	30.9441
15.428	30.8334
15.446	30.7094
15.464	30.5759
15.482	30.4373
15.5	30.2985
15.518	30.1653
15.536	30.0421
15.554	29.9324
15.572	29.8391
15.59	29.7639
15.608	29.7063
15.626	29.6654
15.644	29.6393
15.662	29.6246
15.68	29.6186
15.698	29.6185
15.716	29.6214
15.734	29.625
15.752	29.6279
15.77	29.6287
15.788	29.6264
15.806	29.6206
15.824	29.6109
15.842	29.5967
15.86	29.5775
15.878	29.5529
15.896	29.5224
15.914	29.4857
15.932	29.4432
15.95	29.3955
15.968	29.3438
15.986	29.2905
16.004	29.2377
16.022	29.1881
16.04	29.1453
16.058	29.1122
16.076	29.0914
16.094	29.0853
16.112	29.0952
16.13	29.1215
16.148	29.1639
16.166	29.2207
16.184	29.2902
16.202	29.3699
16.22	29.4563
16.238	29.5466
16.256	29.6382
16.274	29.7277
16.292	29.8131
16.31	29.8929
16.328	29.965
16.346	30.0289
16.364	30.0839
16.382	30.1295
16.4	30.1656
16.418	30.1921
16.436	30.2091
16.454	30.217
16.472	30.216
16.49	30.2068
16.508	30.1905
16.526	30.1679
16.544	30.1409
16.562	30.1108
16.58	30.0791
16.598	30.0482
16.616	30.0196
16.634	29.9946
16.652	29.975
16.67	29.9615
16.688	29.9547
16.706	29.9549
16.724	29.9616
16.742	29.9744
16.76	29.9919
16.778	30.0131
16.796	30.0361
16.814	30.0589
16.832	30.0803
16.85	30.0972
16.868	30.1082
16.886	30.1118
16.904	30.1054
16.922	30.088
16.94	30.0584
16.958	30.0157
16.976	29.9598
16.994	29.8907
17.012	29.8094
17.03	29.7166
17.048	29.6147
17.066	29.5052
17.084	29.3904
17.102	29.2734
17.12	29.1557
17.138	29.0405
17.156	28.9296
17.174	28.8247
17.192	28.7278
17.21	28.6391
17.228	28.5597
17.246	28.489
17.264	28.427
17.282	28.3727
17.3	28.3254
17.318	28.2841
17.336	28.2478
17.354	28.2158
17.372	28.1872
17.39	28.1617
17.408	28.1389
17.426	28.1188
17.444	28.1016
17.462	28.0876
17.48	28.0769
17.498	28.0696
17.516	28.0654
17.534	28.0643
17.552	28.0654
17.57	28.0683
17.588	28.0719
17.606	28.0756
17.624	28.0782
17.642	28.0786
17.66	28.0765
17.678	28.0709
17.696	28.0618
17.714	28.0493
17.732	28.0339
17.75	28.0162
17.768	27.9978
17.786	27.979
17.804	27.9617
17.822	27.9464
17.84	27.9344
17.858	27.926
17.876	27.922
17.894	27.9219
17.912	27.926
17.93	27.9331
17.948	27.9429
17.966	27.9537
17.984	27.9653
18.002	27.9761
18.02	27.9858
18.038	27.9936
18.056	27.9998
18.074	28.0041
18.092	28.0076
18.11	28.0103
18.128	28.014
18.146	28.0191
18.164	28.0275
18.182	28.0401
18.2	28.0583
18.218	28.0832
18.236	28.1154
18.254	28.1557
18.272	28.2043
18.29	28.2612
18.308	28.3263
18.326	28.3985
18.344	28.4776
18.362	28.5619
18.38	28.6508
18.398	28.742
18.416	28.8343
18.434	28.9261
18.452	29.0151
18.47	29.0998
18.488	29.1777
18.506	29.2482
18.524	29.308
18.542	29.3566
18.56	29.3918
18.578	29.4132
18.596	29.419
18.614	29.4092
18.632	29.3831
18.65	29.3411
18.668	29.2836
18.686	29.2111
18.704	29.1257
18.722	29.028
18.74	28.9208
18.758	28.8052
18.776	28.6846
18.794	28.5602
18.812	28.4354
18.83	28.3115
18.848	28.1916
18.866	28.0767
18.884	27.9693
18.902	27.87
18.92	27.7808
18.938	27.7018
18.956	27.634
18.974	27.5769
18.992	27.5309
19.01	27.4952
19.028	27.4694
19.046	27.4528
19.064	27.4444
19.082	27.4434
19.1	27.4485
19.118	27.459
19.136	27.4732
19.154	27.4906
19.172	27.5097
19.19	27.53
19.208	27.55
19.226	27.5695
19.244	27.5869
19.262	27.602
19.28	27.6136
19.298	27.6216
19.316	27.6248
19.334	27.6233
19.352	27.6162
19.37	27.6035
19.388	27.5852
19.406	27.5611
19.424	27.5317
19.442	27.4969
19.46	27.4575
19.478	27.4135
19.496	27.366
19.514	27.3152
19.532	27.2622
19.55	27.2076
19.568	27.1524
19.586	27.0975
19.604	27.0435
19.622	26.9918
19.64	26.9426
19.658	26.8971
19.676	26.8552
19.694	26.8182
19.712	26.7859
19.73	26.7583
19.748	26.7357
19.766	26.7171
19.784	26.7026
19.802	26.6909
19.82	26.6816
19.838	26.674
19.856	26.6666
19.874	26.6593
19.892	26.6506
19.91	26.6405
19.928	26.6275
19.946	26.6117
19.964	26.5928
19.982	26.5706
20	26.5457
20.018	26.5184
20.036	26.4892
20.054	26.459
20.072	26.4279
20.09	26.3976
20.108	26.3677
20.126	26.3395
20.144	26.3131
20.162	26.2891
20.18	26.2679
20.198	26.2494
20.216	26.2339
20.234	26.2213
20.252	26.212
20.27	26.2058
20.288	26.2026
20.306	26.2022
20.324	26.2048
20.342	26.2102
20.36	26.2188
20.378	26.2311
20.396	26.2471
20.414	26.2681
20.432	26.294
20.45	26.3255
20.468	26.3631
20.486	26.4068
20.504	26.4571
20.522	26.5139
20.54	26.5769
20.558	26.6463
20.576	26.7209
20.594	26.8005
20.612	26.884
20.63	26.9691
20.648	27.0562
20.666	27.1417
20.684	27.2262
20.702	27.3068
20.72	27.3816
20.738	27.4509
20.756	27.5117
20.774	27.5647
20.792	27.609
20.81	27.6439
20.828	27.6703
20.846	27.6888
20.864	27.6994
20.882	27.7048
20.9	27.7042
20.918	27.7007
20.936	27.6961
20.954	27.6907
20.972	27.6887
20.99	27.6894
21.008	27.6957
21.026	27.709
21.044	27.7291
21.062	27.7579
21.08	27.7952
21.098	27.8401
21.116	27.8934
21.134	27.9535
21.152	28.0181
21.17	28.0882
21.188	28.1589
21.206	28.2302
21.224	28.2997
21.242	28.3627
21.26	28.4208
21.278	28.4682
21.296	28.5045
21.314	28.5283
21.332	28.5354
21.35	28.5271
21.368	28.5012
21.386	28.4567
21.404	28.3942
21.422	28.3134
21.44	28.2141
21.458	28.0983
21.476	27.9663
21.494	27.8189
21.512	27.6597
21.53	27.4873
21.548	27.3058
21.566	27.1176
21.584	26.9221
21.602	26.7246
21.62	26.5245
21.638	26.3241
21.656	26.127
21.674	25.9318
21.692	25.7422
21.71	25.5592
21.728	25.3827
21.746	25.2156
21.764	25.057
21.782	24.9087
21.8	24.772
21.818	24.6464
21.836	24.5333
21.854	24.4325
21.872	24.3444
21.89	24.2706
21.908	24.2103
21.926	24.1647
21.944	24.1341
21.962	24.1183
21.98	24.1185
21.998	24.1348
22.016	24.1668
22.034	24.2144
22.052	24.2778
22.07	24.356
22.088	24.4484
22.106	24.5553
22.124	24.6738
22.142	24.8042
22.16	24.9453
22.178	25.0927
22.196	25.2483
22.214	25.408
22.232	25.567
22.25	25.7278
22.268	25.8846
22.286	26.0344
22.304	26.1786
22.322	26.3112
22.34	26.4316
22.358	26.5396
22.376	26.6308
22.394	26.7059
22.412	26.7643
22.43	26.8043
22.448	26.8262
22.466	26.8306
22.484	26.8174
22.502	26.7864
22.52	26.7398
22.538	26.6776
22.556	26.6001
22.574	26.5114
22.592	26.4113
22.61	26.3007
22.628	26.1847
22.646	26.0623
22.664	25.9349
22.682	25.8058
22.7	25.6742
22.718	25.5411
22.736	25.408
22.754	25.2741
22.772	25.1408
22.79	25.0096
22.808	24.8796
22.826	24.7519
22.844	24.6273
22.862	24.5055
22.88	24.3862
22.898	24.2696
22.916	24.1555
22.934	24.0439
22.952	23.9345
22.97	23.8275
22.988	23.7236
23.006	23.6223
23.024	23.524
23.042	23.4303
23.06	23.3407
23.078	23.2558
23.096	23.1778
23.114	23.1066
23.132	23.0423
23.15	22.9875
23.168	22.9419
23.186	22.9057
23.204	22.8807
23.222	22.867
23.24	22.8643
23.258	22.8723
23.276	22.892
23.294	22.922
23.312	22.9598
23.33	23.0067
23.348	23.0611
23.366	23.118
23.384	23.1787
23.402	23.2419
23.42	23.3011
23.438	23.3572
23.456	23.4095
23.474	23.4513
23.492	23.4824
23.51	23.5034
23.528	23.509
23.546	23.4978
23.564	23.4714
23.582	23.4269
23.6	23.3629
23.618	23.2806
23.636	23.1803
23.654	23.0614
23.672	22.9235
23.69	22.7709
23.708	22.6055
23.726	22.4246
23.744	22.2349
23.762	22.0418
23.78	21.8403
23.798	21.638
23.816	21.4432
23.834	21.2505
23.852	21.0659
23.87	20.8993
23.888	20.7464
23.906	20.6107
23.924	20.5032
23.942	20.4225
23.96	20.3685
23.978	20.3511
23.996	20.3734
24.014	20.4315
24.032	20.5328
24.05	20.682
24.068	20.8751
24.086	21.1156
24.104	21.407
24.122	21.7472
24.14	22.1373
24.158	22.5792
24.176	23.0738
24.194	23.6191
24.212	24.2127
24.23	24.8562
24.248	25.5488
24.266	26.2832
24.284	27.0572
24.302	27.8756
24.32	28.7259
24.338	29.5969
24.356	30.499
24.374	31.4201
24.392	32.3416
24.41	33.2706
24.428	34.2036
24.446	35.1179
24.464	36.0074
24.482	36.8831
24.5	37.7202
24.518	38.4984
24.536	39.2337
24.554	39.9122
24.572	40.5126
24.59	41.0375
24.608	41.4897
24.626	41.8592
24.644	42.1396
24.662	42.336
24.68	42.4503
24.698	42.4828
24.716	42.4277
24.734	42.2955
24.752	42.1006
24.77	41.8395
24.788	41.5114
24.806	41.138
24.824	40.7326
24.842	40.2793
24.86	39.7981
24.878	39.3135
24.896	38.817
24.914	38.3105
24.932	37.815
24.95	37.3417
24.968	36.8782
24.986	36.4366
25.004	36.0304
25.022	35.6561
25.04	35.3123
25.058	35.0037
25.076	34.7333
25.094	34.4993
25.112	34.2989
25.13	34.1298
25.148	33.9965
25.166	33.8943
25.184	33.814
25.202	33.7525
25.22	33.7157
25.238	33.6939
25.256	33.677
25.274	33.6707
25.292	33.6726
25.31	33.6722
25.328	33.6637
25.346	33.6538
25.364	33.6365
25.382	33.6046
25.4	33.5592
25.418	33.5016
25.436	33.4281
25.454	33.3357
25.472	33.2256
25.49	33.0988
25.508	32.9556
25.526	32.7962
25.544	32.6205
25.562	32.4288
25.58	32.2211
25.598	31.9982
25.616	31.7594
25.634	31.5038
25.652	31.2297
25.67	30.9365
25.688	30.6282
25.706	30.3087
25.724	29.9774
25.742	29.6329
25.76	29.2808
25.778	28.926
25.796	28.565
25.814	28.1994
25.832	27.834
25.85	27.4727
25.868	27.1131
25.886	26.7548
25.904	26.3978
25.922	26.044
25.94	25.6937
25.958	25.3413
25.976	24.9815
25.994	24.6211
26.012	24.2571
26.03	23.8759
26.048	23.4661
26.066	23.0384
26.084	22.5873
26.102	22.1007
26.12	21.5718
26.138	21.0119
26.156	20.4108
26.174	19.7556
26.192	19.0456
26.21	18.2915
26.228	17.4742
26.246	16.5735
26.264	15.5898
26.282	14.5318
26.3	13.3883
26.318	12.1483
26.336	10.8097
26.354	9.379205
26.372	7.861582
26.39	6.260481
26.408	4.562081
26.426	2.779061
26.444	0.934802
26.462	-0.953339
26.48	-2.914508
26.498	-4.925450
26.516	-6.947633
26.534	-8.955911
26.552	-10.9909
26.57	-13.0205
26.588	-14.998
26.606	-16.8972
26.624	-18.763
26.642	-20.5596
26.66	-22.2402
26.678	-23.7796
26.696	-25.2161
26.714	-26.5259
26.732	-27.6782
26.75	-28.655
26.768	-29.4767
26.786	-30.1407
26.804	-30.6417
26.822	-30.9715
26.84	-31.1279
26.858	-31.1305
26.876	-31.0001
26.894	-30.7386
26.912	-30.3203
26.93	-29.7853
26.948	-29.1779
26.966	-28.4791
26.984	-27.5924
27.002	-26.6952
27.02	-25.9841
27.028	-25.7992