File: Bakgrunnsmateriale/MATLAB/FTIR/ftir_data/LPE454/Mapping_121/LPE454_t11_cm-1.asc
PE IR       SPECTRUM    SPECTRUM    ASCII       PEDS        1.60
  -1
LPD731~1.ASC
17/05/19
15:15:27.00
17/05/19
15:15:27.00
tln
$LPE454_t0011$<tbV0>[-13.0,-13.0,8.0,0.0,27,1,0]
370
64

2002,4.07
MIRTGS : RIGHTBACK : INTERNAL 2
MIR : ON : INTERNAL 2
OPTKBR

0.200000
8
8.000000
FILLER
RATIO
SPECTRUM
UNLOCKED 256

DOUBLE
64
COMBINED
1
0
0

1.000000
RATIO

1
0
TRUE
51149
0
LEFT NOT FITTED RIGHT NOT FITTED 0
NONE
NONE
15600
12
4.427000
51148
TRUE
1 0 8 72 0 0 0 0

15798

#HDR
-1
-1
#GR
CM-1
%T
2.38419e-05
0.0
5000
-1.000000
4631
8
15.5908
-64.7573
#DATA
5000	0.265979
4996	0.549602
4992	0.466370
4988	0.110530
4984	0.079774
4980	0.298118
4976	0.491380
4972	0.477933
4968	0.028467
4964	-0.525498
4960	-0.525712
4956	-0.196146
4952	0.038218
4948	0.451397
4944	0.599479
4940	0.271701
4936	0.077939
4932	-0.041174
4928	-0.273704
4924	-0.396442
4920	-0.167322
4916	0.246977
4912	0.412130
4908	0.259995
4904	0.044226
4900	0.011539
4896	0.073122
4892	0.253415
4888	0.412654
4884	0.196671
4880	0.095224
4876	0.124382
4872	0.205755
4868	0.277519
4864	0.225090
4860	0.011777
4856	-0.011181
4852	0.438952
4848	0.578451
4844	0.236725
4840	0.142073
4836	0.138878
4832	0.028562
4828	-0.006532
4824	0.119090
4820	0.467681
4816	1.056480
4812	1.180577
4808	1.154565
4804	1.712727
4800	1.761651
4796	1.565337
4792	1.461267
4788	0.648975
4784	-0.471496
4780	-1.349067
4776	-1.960301
4772	-1.639699
4768	0.262761
4764	1.959490
4760	2.203559
4756	2.022814
4752	1.755142
4748	0.926947
4744	-0.208449
4740	-0.505924
4736	-0.154781
4732	0.317788
4728	0.450706
4724	0.153875
4720	-0.401234
4716	-0.924158
4712	-0.529646
4708	0.309634
4704	0.406122
4700	-0.118017
4696	-0.377106
4692	-0.240683
4688	0.085258
4684	0.489044
4680	0.495719
4676	0.284647
4672	0.261378
4668	0.330185
4664	0.339603
4660	0.223827
4656	0.091171
4652	0.208234
4648	0.442147
4644	0.495433
4640	0.498437
4636	0.409340
4632	0.251603
4628	0.378155
4624	0.559329
4620	0.565123
4616	0.707936
4612	0.884914
4608	0.757098
4604	0.589275
4600	0.643467
4596	0.615954
4592	0.538134
4588	0.590276
4584	0.656700
4580	0.700163
4576	0.634670
4572	0.497078
4568	0.538063
4564	0.634765
4560	0.712180
4556	0.892853
4552	1.059079
4548	0.726556
4544	0.024747
4540	-0.216889
4536	0.016093
4532	0.173568
4528	-0.201344
4524	-0.835418
4520	-1.096105
4516	-1.253604
4512	-1.448512
4508	-1.266884
4504	-0.842285
4500	-0.192761
4496	0.420093
4492	0.769543
4488	1.670527
4484	2.486562
4480	3.337025
4476	7.219099
4472	11.3362
4468	10.071
4464	5.940365
4460	2.469301
4456	-0.174045
4452	-0.922846
4448	-0.793385
4444	-0.958395
4440	-0.872516
4436	-0.557351
4432	-0.088953
4428	0.341033
4424	0.299644
4420	0.230789
4416	0.214862
4412	0.112366
4408	0.190925
4404	0.290966
4400	0.492572
4396	0.804734
4392	0.797796
4388	0.570082
4384	0.594544
4380	0.848746
4376	1.138615
4372	1.306271
4368	1.243042
4364	1.073312
4360	0.920009
4356	1.001429
4352	1.040720
4348	0.749564
4344	0.515818
4340	0.492286
4336	0.546479
4332	0.532674
4328	0.454592
4324	0.400209
4320	0.236201
4316	0.080776
4312	0.146603
4308	0.266218
4304	0.304889
4300	0.268197
4296	0.070261
4292	-0.136876
4288	-0.059437
4284	0.100922
4280	0.088167
4276	0.005745
4272	0.031018
4268	0.196552
4264	0.250792
4260	0.101780
4256	0.064325
4252	0.162005
4248	0.044608
4244	-0.119161
4240	0.029587
4236	0.269794
4232	0.367021
4228	0.327396
4224	0.247979
4220	0.146436
4216	-0.028944
4212	-0.169849
4208	-0.169181
4204	-0.043439
4200	0.026273
4196	-0.189852
4192	-0.590205
4188	-0.743103
4184	-0.457048
4180	-0.294017
4176	-0.105381
4172	0.433158
4168	0.768804
4164	0.730228
4160	0.545096
4156	0.277161
4152	0.122642
4148	0.128436
4144	0.125527
4140	0.065803
4136	0.048565
4132	0.139999
4128	0.195026
4124	0.278115
4120	0.413084
4116	0.420403
4112	0.389885
4108	0.364351
4104	0.293207
4100	0.248098
4096	0.226831
4092	0.162577
4088	0.143957
4084	0.190567
4080	0.163173
4076	0.138640
4072	0.206160
4068	0.198411
4064	0.086069
4060	0.091218
4056	0.105500
4052	0.007867
4048	-0.022625
4044	0.007414
4040	-0.116729
4036	-0.218582
4032	-0.150728
4028	-0.041437
4024	0.011539
4020	0.069379
4016	0.151538
4012	0.111269
4008	0.011277
4004	-0.058197
4000	-0.077915
3996	-0.036716
3992	0.030517
3988	-0.004291
3984	-0.066494
3980	-0.043892
3976	0.044560
3972	0.145721
3968	0.174283
3964	0.176358
3960	0.109910
3956	-0.021028
3952	0.074172
3948	0.305986
3944	0.345158
3940	0.282955
3936	0.207948
3932	0.126218
3928	0.144219
3924	0.296854
3920	0.374126
3916	0.235819
3912	0.058603
3908	-0.026130
3904	0.047683
3900	0.153636
3896	0.135445
3892	0.159144
3888	0.261187
3884	0.261473
3880	0.134110
3876	0.034189
3872	-0.009632
3868	-0.026965
3864	-0.018811
3860	-0.041079
3856	-0.043034
3852	0.039553
3848	0.137352
3844	0.138282
3840	0.078511
3836	0.096869
3832	0.136184
3828	0.122070
3824	0.128817
3820	0.106954
3816	0.079464
3812	0.071501
3808	-0.005269
3804	-0.092554
3800	-0.125980
3796	-0.040149
3792	0.054812
3788	0.036168
3784	0.069999
3780	0.139379
3776	0.165343
3772	0.166440
3768	0.061392
3764	-0.018930
3760	0.015139
3756	0.044846
3752	0.110602
3748	0.195932
3744	0.211143
3740	0.152611
3736	0.090694
3732	0.095438
3728	0.123548
3724	0.047183
3720	-0.058984
3716	0.017213
3712	0.095129
3708	0.004506
3704	-0.037813
3700	0.033521
3696	0.096154
3692	0.081086
3688	0.034284
3684	0.068950
3680	0.065207
3676	-0.061368
3672	-0.090217
3668	-0.003671
3664	0.065279
3660	0.105595
3656	0.076103
3652	0.031089
3648	0.034070
3644	0.022792
3640	0.028705
3636	0.073242
3632	0.099873
3628	0.133013
3624	0.136399
3620	0.088930
3616	0.094342
3612	0.134634
3608	0.103330
3604	0.037574
3600	-0.004458
3596	0.001287
3592	0.007057
3588	-0.028324
3584	-0.086855
3580	-0.107169
3576	-0.104713
3572	-0.068068
3568	0.108242
3564	0.227284
3560	0.111055
3556	0.034642
3552	0.089693
3548	0.076317
3544	0.039696
3540	0.044393
3536	0.011229
3532	0.009751
3528	0.093007
3524	0.154948
3520	0.144553
3516	0.097036
3512	0.028872
3508	0.000381
3504	-0.007700
3500	-0.020051
3496	0.002312
3492	0.032281
3488	0.028634
3484	-0.061416
3480	-0.126814
3476	-0.091695
3472	0.017881
3468	0.157117
3464	0.168609
3460	0.114226
3456	0.095129
3452	0.051259
3448	0.062894
3444	0.100040
3440	0.063753
3436	0.047373
3432	0.082993
3428	0.168013
3424	0.241041
3420	0.134944
3416	-0.055575
3412	-0.115180
3408	-0.115036
3404	-0.177264
3400	-0.172567
3396	-0.042748
3392	0.036358
3388	0.025081
3384	0.070142
3380	0.127696
3376	0.078272
3372	0.003647
3368	-0.007057
3364	0.035166
3360	0.076341
3356	0.086903
3352	0.072598
3348	-0.009202
3344	-0.088167
3340	-0.073695
3336	0.001215
3332	0.121712
3328	0.184392
3324	0.088977
3320	-0.019335
3316	-0.017333
3312	0.025987
3308	0.118088
3304	0.181508
3300	0.153899
3296	0.055360
3292	-0.048542
3288	-0.060057
3284	-0.021195
3280	0.032067
3276	0.085473
3272	0.090599
3268	0.060796
3264	0.030231
3260	0.041699
3256	0.030088
3252	-0.005340
3248	0.033688
3244	0.063681
3240	0.067067
3236	0.103306
3232	0.122165
3228	0.092244
3224	0.106358
3220	0.185394
3216	0.211954
3212	0.168824
3208	0.096273
3204	0.023269
3200	-0.014758
3196	-0.044679
3192	-0.027275
3188	0.045919
3184	0.062823
3180	0.031566
3176	0.038671
3172	0.047707
3168	0.010108
3164	-0.033783
3160	-0.026273
3156	0.014424
3152	0.018405
3148	0.015735
3144	0.064015
3140	0.092482
3136	0.123047
3132	0.173091
3128	0.131130
3124	0.095009
3120	0.040698
3116	-0.100421
3112	-0.054216
3108	0.073719
3104	0.014352
3100	-0.031709
3096	0.043916
3092	0.073099
3088	0.030398
3084	-0.009703
3080	-0.018262
3076	0.002837
3072	-0.018119
3068	-0.032377
3064	0.019979
3060	0.047993
3056	0.057673
3052	0.048995
3048	-0.034213
3044	-0.061988
3040	0.007772
3036	0.032687
3032	0.037193
3028	0.082087
3024	0.091361
3020	0.034594
3016	0.018739
3012	0.076031
3008	0.111627
3004	0.133323
3000	0.185060
2996	0.229907
2992	0.208187
2988	0.092506
2984	0.020289
2980	0.048422
2976	0.038290
2972	0.003981
2968	0.043725
2964	0.080418
2960	-0.000977
2956	-0.088787
2952	-0.045418
2948	0.039291
2944	0.074934
2940	0.068712
2936	0.004267
2932	-0.056958
2928	-0.036621
2924	0.017857
2920	0.045132
2916	0.023269
2912	-0.031924
2908	-0.073742
2904	-0.056838
2900	0.026130
2896	0.110101
2892	0.169491
2888	0.202655
2884	0.187611
2880	0.103378
2876	-0.058221
2872	-0.111603
2868	0.014543
2864	0.124549
2860	0.148105
2856	0.147080
2852	0.122928
2848	0.078487
2844	0.058269
2840	-0.001049
2836	-0.067543
2832	-0.015115
2828	0.082349
2824	0.147962
2820	0.150942
2816	0.065898
2812	0.004053
2808	0.048303
2804	0.115513
2800	0.113391
2796	0.102639
2792	0.127339
2788	0.142765
2784	0.120925
2780	0.069022
2776	0.041866
2772	0.019574
2768	-0.020694
2764	-0.040364
2760	-0.030422
2756	-0.017809
2752	0.014543
2748	0.065207
2744	0.069236
2740	0.008511
2736	-0.038814
2732	-0.028371
2728	-0.020265
2724	-0.018525
2720	0.016975
2716	0.036764
2712	0.017213
2708	0.036478
2704	0.058174
2700	0.057935
2696	0.085020
2692	0.064086
2688	0.003623
2684	0.021600
2680	0.079011
2676	0.056815
2672	-0.018072
2668	-0.064492
2664	-0.042438
2660	0.015449
2656	0.044035
2652	0.099182
2648	0.146460
2644	0.072813
2640	-0.023531
2636	-0.019097
2632	0.067973
2628	0.145292
2624	0.157809
2620	0.120520
2616	0.046896
2612	0.011825
2608	0.037431
2604	0.093173
2600	0.155210
2596	0.145363
2592	0.044059
2588	-0.040960
2584	-0.013399
2580	-0.009298
2576	-0.064754
2572	-0.033164
2568	0.034427
2564	0.087690
2560	0.171685
2556	0.202488
2552	0.121259
2548	0.024890
2544	-0.017499
2540	-0.018644
2536	0.003981
2532	0.020885
2528	0.006651
2524	0.002908
2520	-0.000381
2516	-0.004124
2512	0.086355
2508	0.228309
2504	0.234818
2500	0.051617
2496	-0.116252
2492	-0.059294
2488	0.057840
2484	0.034308
2480	-0.000333
2476	0.016951
2472	0.022697
2468	0.005412
2464	0.029969
2460	0.109553
2456	0.138735
2452	0.073051
2448	-0.028228
2444	-0.021076
2440	0.110340
2436	0.193047
2432	0.114130
2428	-0.049495
2424	-0.140285
2420	-0.072169
2416	0.047135
2412	-0.004076
2408	-0.104331
2404	-0.016331
2400	0.061297
2396	0.005030
2392	-0.016689
2388	0.038576
2384	0.113534
2380	0.204324
2376	0.258803
2372	0.183820
2368	0.046253
2364	-0.009799
2360	0.054955
2356	0.129270
2352	0.130343
2348	0.040483
2344	-0.078153
2340	-0.114822
2336	-0.102472
2332	-0.108027
2328	-0.104141
2324	-0.061130
2320	-0.057601
2316	-0.061774
2312	0.027799
2308	0.084638
2304	0.032925
2300	0.009799
2296	0.045776
2292	0.037860
2288	-0.004076
2284	-0.016498
2280	0.006413
2276	0.070476
2272	0.132822
2268	0.096154
2264	0.029635
2260	0.033211
2256	0.057220
2252	0.074887
2248	0.048708
2244	0.002956
2240	0.044655
2236	0.104069
2232	0.090050
2228	0.079178
2224	0.079631
2220	0.080657
2216	0.123882
2212	0.114846
2208	0.070071
2204	0.076603
2200	0.084614
2196	0.128722
2192	0.170588
2188	0.159788
2184	0.181841
2180	0.185036
2176	0.169301
2172	0.204753
2168	0.216031
2164	0.221061
2160	0.256133
2156	0.252676
2152	0.295186
2148	0.303316
2144	0.171661
2140	0.161170
2136	0.257802
2132	0.273132
2128	0.281333
2124	0.333213
2120	0.353670
2116	0.308346
2112	0.261425
2108	0.211405
2104	0.175309
2100	0.237846
2096	0.301504
2092	0.242495
2088	0.216865
2084	0.328063
2080	0.370311
2076	0.354528
2072	0.396203
2068	0.499939
2064	0.679206
2060	0.597262
2056	0.302314
2052	0.287580
2048	0.428366
2044	0.466632
2040	0.477457
2036	0.491476
2032	0.481986
2028	0.498366
2024	0.532293
2020	0.535917
2016	0.508594
2012	0.484156
2008	0.501298
2004	0.515985
2000	0.524115
1996	0.535058
1992	0.531625
1988	0.559210
1984	0.584149
1980	0.553059
1976	0.507640
1972	0.500369
1968	0.545644
1964	0.595378
1960	0.574207
1956	0.487112
1952	0.433588
1948	0.440573
1944	0.484991
1940	0.556349
1936	0.594043
1932	0.579690
1928	0.554823
1924	0.567960
1920	0.601768
1916	0.598716
1912	0.584459
1908	0.576615
1904	0.537586
1900	0.535559
1896	0.629854
1892	0.693416
1888	0.681233
1884	0.654983
1880	0.624823
1876	0.630807
1872	0.650501
1868	0.634264
1864	0.618958
1860	0.607633
1856	0.602531
1852	0.633502
1848	0.659942
1844	0.657773
1840	0.653529
1836	0.660777
1832	0.680327
1828	0.689911
1824	0.634908
1820	0.546121
1816	0.548768
1812	0.599265
1808	0.622177
1804	0.689721
1800	0.750231
1796	0.716567
1792	0.709056
1788	0.771784
1784	0.778937
1780	0.706887
1776	0.634050
1772	0.631093
1768	0.657057
1764	0.628781
1760	0.613093
1756	0.650215
1752	0.674176
1748	0.652074
1744	0.624227
1740	0.666213
1736	0.744056
1732	0.753545
1728	0.739145
1724	0.799632
1720	0.879406
1716	0.888633
1712	0.763487
1708	0.621271
1704	0.645565
1700	0.698733
1696	0.672292
1692	0.668430
1688	0.693345
1684	0.702095
1680	0.705552
1676	0.759410
1672	0.816464
1668	0.788331
1664	0.743007
1660	0.750088
1656	0.788760
1652	0.816202
1648	0.818014
1644	0.786113
1640	0.701379
1636	0.619006
1632	0.629091
1628	0.709152
1624	0.749564
1620	0.737738
1616	0.723719
1612	0.702810
1608	0.689935
1604	0.709652
1600	0.744986
1596	0.761699
1592	0.754284
1588	0.747752
1584	0.770926
1580	0.840544
1576	0.874924
1572	0.824427
1568	0.802087
1564	0.835609
1560	0.842094
1556	0.847101
1552	0.887560
1548	0.926899
1544	0.942850
1540	0.899004
1536	0.820493
1532	0.769662
1528	0.751137
1524	0.748944
1520	0.725698
1516	0.724101
1512	0.759029
1508	0.754642
1504	0.745129
1500	0.765776
1496	0.752758
1492	0.737714
1488	0.809717
1484	0.894689
1480	0.904893
1476	0.851249
1472	0.782752
1468	0.738525
1464	0.791406
1460	0.913810
1456	0.912308
1452	0.817704
1448	0.851559
1444	0.987076
1440	1.048827
1436	0.913953
1432	0.665855
1428	0.591778
1424	0.721240
1420	0.810098
1416	0.779581
1412	0.732541
1408	0.719094
1404	0.750350
1400	0.843548
1396	0.881147
1392	0.818896
1388	0.797438
1384	0.826668
1380	0.840711
1376	0.876998
1372	0.935077
1368	0.971055
1364	0.932049
1360	0.834035
1356	0.811338
1352	0.855970
1348	0.849080
1344	0.791358
1340	0.781011
1336	0.818991
1332	0.844001
1328	0.871706
1324	0.871682
1320	0.833415
1316	0.803232
1312	0.846886
1308	0.966572
1304	1.016545
1300	0.991296
1296	0.926637
1292	0.865912
1288	0.924086
1284	0.978779
1280	0.952196
1276	0.997757
1272	1.117777
1268	1.179814
1264	1.158642
1260	1.128530
1256	1.098799
1252	1.017189
1248	0.917816
1244	0.884437
1240	0.926160
1236	0.985574
1232	1.047778
1228	1.090955
1224	1.059317
1220	1.054334
1216	1.164412
1212	1.238179
1208	1.151132
1204	1.000523
1200	0.971984
1196	1.040053
1192	1.068162
1188	1.069474
1184	1.042413
1180	1.004147
1176	1.056408
1172	1.173305
1168	1.182270
1164	1.045799
1160	0.974869
1156	1.044321
1152	1.103925
1148	1.084709
1144	1.018309
1140	0.983476
1136	1.022291
1132	1.092576
1128	1.159334
1124	1.193475
1120	1.222872
1116	1.216363
1112	1.119709
1108	1.054573
1104	1.076412
1100	1.145839
1096	1.113963
1092	1.011586
1088	1.079106
1084	1.170372
1080	1.217985
1076	1.346635
1072	1.378011
1068	1.258826
1064	1.232719
1060	1.245403
1056	1.141357
1052	1.016402
1048	0.976562
1044	1.069831
1040	1.194667
1036	1.247358
1032	1.290845
1028	1.400446
1024	1.375985
1020	1.115345
1016	1.031851
1012	1.197457
1008	1.232719
1004	1.255965
1000	1.399326
996	 1.329421
992	 1.120328
988	 1.070189
984	 1.082110
980	 1.085853
976	 1.204037
972	 1.342010
968	 1.299118
964	 1.210212
960	 1.242613
956	 1.348018
952	 1.470088
948	 1.556849
944	 1.534295
940	 1.423692
936	 1.365733
932	 1.406264
928	 1.400589
924	 1.291108
920	 1.251745
916	 1.343369
912	 1.370072
908	 1.292109
904	 1.347851
900	 1.498508
896	 1.530194
892	 1.458382
888	 1.400303
884	 1.434063
880	 1.496028
876	 1.554059
872	 1.618862
868	 1.557493
864	 1.410388
860	 1.411080
856	 1.509141
852	 1.491785
848	 1.383686
844	 1.310181
840	 1.291918
836	 1.344490
832	 1.510977
828	 1.686954
824	 1.740932
820	 1.704525
816	 1.641035
812	 1.640176
808	 1.637434
804	 1.501369
800	 1.374745
796	 1.325607
792	 1.334095
788	 1.476860
784	 1.707124
780	 1.806521
776	 1.726818
772	 1.692628
768	 1.686334
764	 1.681351
760	 1.900959
756	 2.111554
752	 1.976871
748	 1.743268
744	 1.667714
740	 1.643490
736	 1.611447
732	 1.697301
728	 1.821327
724	 1.848554
720	 1.857161
716	 1.822900
712	 1.767516
708	 1.819014
704	 1.937079
700	 2.085089
696	 2.281451
692	 2.413463
688	 2.253651
684	 1.966571
680	 1.931023
676	 2.126622
672	 2.224254
668	 1.913404
664	 1.512908
660	 1.565098
656	 1.871705
652	 1.972246
648	 1.940751
644	 1.869964
640	 1.867294
636	 2.188873
632	 2.478694
628	 2.430367
624	 2.261662
620	 2.159476
616	 2.107667
612	 2.094435
608	 2.143573
604	 2.296280
600	 2.500557
596	 2.489590
592	 2.357625
588	 2.292752
584	 2.168750
580	 1.903963
576	 1.716351
572	 1.795172
568	 1.977944
564	 2.240967
560	 2.584028
556	 2.596998
552	 2.171087
548	 1.894068
544	 1.942920
540	 1.836681
536	 1.771402
532	 2.167391
528	 2.547121
524	 2.690696
520	 2.664351
516	 2.580928
512	 2.758598
508	 2.722311
504	 2.326154
500	 2.349925
496	 2.748370
492	 2.588176
488	 2.317881
484	 2.896690
480	 3.068208
476	 2.432799
472	 2.579283
468	 3.300142
464	 3.243422
460	 2.951240
456	 3.345799
452	 3.607797
448	 3.415131
444	 3.140640
440	 3.322863
436	 4.204154
432	 4.753923
428	 3.907251
424	 1.339173
420	 -0.356841
416	 0.518655
412	 0.857496
408	 4.641604
404	 13.9733
400	 13.2323
396	 1.298952
392	 -11.9069
388	 -20.5313
384	 -26.5993
380	 -45.6409
376	 -64.7573
372	 -43.7113
370	 -26.8717