File: Bakgrunnsmateriale/MATLAB/FTIR/ftir_data/LPE454/Mapping_121/LPE454_t09_cm-1.asc
PE IR       SPECTRUM    SPECTRUM    ASCII       PEDS        1.60
  -1
LP673D~1.ASC
17/05/19
15:06:14.00
17/05/19
15:06:14.00
tln
$LPE454_t0009$<tbV0>[-7.8,-13.0,8.0,0.0,27,1,0]
370
64

2002,4.07
MIRTGS : RIGHTBACK : INTERNAL 2
MIR : ON : INTERNAL 2
OPTKBR

0.200000
8
8.000000
FILLER
RATIO
SPECTRUM
UNLOCKED 256

DOUBLE
64
COMBINED
1
0
0

1.000000
RATIO

1
0
TRUE
51149
0
LEFT NOT FITTED RIGHT NOT FITTED 0
NONE
NONE
15600
12
4.427000
51148
TRUE
1 0 8 72 0 0 0 0

15798

#HDR
-1
-1
#GR
CM-1
%T
2.38419e-05
0.0
5000
-1.000000
4631
8
59.9231
-2.050256
#DATA
5000	-0.031042
4996	-0.031280
4992	0.099444
4988	0.290703
4984	0.319576
4980	0.243687
4976	0.063920
4972	-0.212073
4968	-0.098252
4964	0.260233
4960	0.450754
4956	0.405788
4952	0.462126
4948	0.510907
4944	0.201964
4940	0.021648
4936	-0.143718
4932	-0.573801
4928	-0.652313
4924	-0.292062
4920	-0.044965
4916	0.174522
4912	0.344800
4908	0.266766
4904	0.308775
4900	0.363135
4896	0.025629
4892	-0.307250
4888	0.177001
4884	0.971102
4880	1.048254
4876	0.864434
4872	1.072311
4868	1.596331
4864	1.459336
4860	0.398087
4856	-0.193500
4852	0.040936
4848	0.266051
4844	-0.054192
4840	-0.083136
4836	0.095558
4832	-0.821089
4828	-1.867914
4824	-1.973247
4820	-0.993251
4816	0.375843
4812	0.767350
4808	1.262784
4804	2.523279
4800	2.841544
4796	2.149486
4792	1.333117
4788	0.195050
4784	-0.497579
4780	-0.228190
4776	0.024485
4772	0.020861
4768	0.261402
4764	0.754690
4760	0.963330
4756	0.952315
4752	1.078343
4748	1.002001
4744	0.918292
4740	0.995111
4736	0.684952
4732	0.119829
4728	-0.326132
4724	-0.425958
4720	-0.191068
4716	-0.075101
4712	-0.156140
4708	-0.191569
4704	-0.058484
4700	0.098276
4696	0.169396
4692	0.181150
4688	0.212860
4684	0.262665
4680	0.170993
4676	0.134277
4672	0.301074
4668	0.416302
4664	0.345873
4660	0.220990
4656	0.240731
4652	0.414681
4648	0.497198
4644	0.449323
4640	0.415635
4636	0.300478
4632	0.166177
4628	0.279188
4624	0.386643
4620	0.294137
4616	0.212836
4612	0.242495
4608	0.530791
4604	0.767421
4600	0.648951
4596	0.582289
4592	0.514984
4588	0.284099
4584	0.176262
4580	0.282573
4576	0.471472
4572	0.472116
4568	0.229716
4564	0.022602
4560	-0.039958
4556	-0.136542
4552	-0.300884
4548	-0.296807
4544	-0.293421
4540	-0.344419
4536	-0.113368
4532	0.084352
4528	0.131201
4524	0.224184
4520	0.145387
4516	0.028729
4512	-0.055336
4508	-0.105166
4504	-0.431418
4500	-0.666713
4496	-0.437593
4492	0.154209
4488	0.702524
4484	0.250935
4480	-0.946664
4476	2.312183
4472	14.5201
4468	24.2528
4464	16.5057
4460	3.436446
4456	1.345825
4452	1.365971
4448	-0.963687
4444	-1.874804
4440	-1.811861
4436	-1.489448
4432	-0.929665
4428	-0.645446
4424	-0.646448
4420	-0.770282
4416	-0.882530
4412	-0.620126
4408	-0.247240
4404	0.029301
4400	0.062823
4396	-0.044393
4392	0.050330
4388	0.178933
4384	0.204825
4380	0.207948
4376	0.215816
4372	0.236654
4368	0.293254
4364	0.263738
4360	0.126051
4356	0.128006
4352	0.202560
4348	0.207376
4344	0.353980
4340	0.571942
4336	0.422835
4332	0.119853
4328	0.117564
4324	0.149703
4320	0.066614
4316	0.075936
4312	0.118660
4308	0.160217
4304	0.257897
4300	0.268530
4296	0.153398
4292	0.068306
4288	0.047874
4284	0.127577
4280	0.236797
4276	0.130534
4272	-0.147199
4268	-0.343370
4264	-0.381374
4260	-0.338935
4256	-0.306320
4252	-0.274777
4248	-0.246167
4244	-0.193142
4240	-0.115990
4236	-0.085949
4232	-0.102448
4228	-0.072765
4224	-0.056433
4220	-0.116395
4216	-0.016736
4212	0.114488
4208	-0.028109
4204	-0.246953
4200	-0.243806
4196	-0.005030
4192	0.168061
4188	-0.167369
4184	-0.514483
4180	-0.489783
4176	-0.226950
4172	0.063538
4168	-0.065493
4164	-0.095319
4160	0.389766
4156	0.612998
4152	0.333690
4148	0.028300
4144	0.066995
4140	0.197982
4136	0.161123
4132	0.187253
4128	0.315260
4124	0.449085
4120	0.542211
4116	0.462818
4112	0.293040
4108	0.262665
4104	0.284457
4100	0.151610
4096	-0.073122
4092	-0.117659
4088	0.029015
4084	0.122880
4080	0.171351
4076	0.191712
4072	0.052475
4068	-0.091838
4064	-0.123310
4060	-0.106215
4056	-0.057482
4052	0.028753
4048	0.195074
4044	0.322198
4040	0.255560
4036	0.075340
4032	0.049519
4028	0.118088
4024	0.156784
4020	0.263500
4016	0.310039
4012	0.244688
4008	0.167989
4004	0.103211
4000	0.051760
3996	0.039243
3992	0.066018
3988	0.115323
3984	0.186133
3980	0.207424
3976	0.157070
3972	0.045537
3968	-0.010704
3964	0.017452
3960	0.038790
3956	0.082921
3952	0.101947
3948	0.122499
3944	0.118875
3940	0.071883
3936	0.110602
3932	0.152182
3928	0.123095
3924	0.111103
3920	0.082278
3916	-0.028252
3912	-0.090360
3908	-0.012683
3904	0.065326
3900	0.021743
3896	-0.060534
3892	-0.045967
3888	-0.029659
3884	-0.101447
3880	-0.135588
3876	-0.096011
3872	-0.054883
3868	-0.025057
3864	-0.010204
3860	0.066351
3856	0.147461
3852	0.124025
3848	0.078010
3844	0.051212
3840	-0.018453
3836	-0.053763
3832	-0.066351
3828	-0.054097
3824	-0.095152
3820	-0.075435
3816	0.110030
3812	0.185084
3808	0.081729
3804	-0.097584
3800	-0.128936
3796	0.108027
3792	0.287985
3788	0.187420
3784	-0.015592
3780	-0.056099
3776	0.091409
3772	0.228285
3768	0.240468
3764	0.176095
3760	0.136446
3756	0.104999
3752	0.074219
3748	0.038576
3744	-0.053119
3740	-0.067400
3736	-0.036191
3732	-0.029206
3728	0.012111
3724	0.035786
3720	0.069761
3716	0.094389
3712	0.064563
3708	0.034403
3704	0.057673
3700	0.174999
3696	0.230360
3692	0.177836
3688	0.191020
3684	0.223112
3680	0.136733
3676	0.032567
3672	0.025606
3668	0.014829
3664	-0.008797
3660	0.002598
3656	0.029301
3652	0.055980
3648	0.087547
3644	0.125050
3640	0.163865
3636	0.188016
3632	0.121140
3628	0.019931
3624	0.028896
3620	0.113129
3616	0.145316
3612	0.117516
3608	0.087404
3604	0.050401
3600	0.043010
3596	0.034499
3592	-0.010418
3588	-0.012445
3584	-0.027084
3580	-0.038909
3576	0.017452
3572	0.012040
3568	-0.039315
3564	0.010323
3560	0.123095
3556	0.187397
3552	0.150489
3548	0.049924
3544	0.021910
3540	0.043845
3536	0.064516
3532	0.113058
3528	0.108098
3524	-0.012302
3520	-0.115036
3516	-0.033879
3512	0.007653
3508	-0.167655
3504	-0.207066
3500	-0.004458
3496	0.117826
3492	0.159645
3488	0.248193
3484	0.247597
3480	0.173926
3476	0.180554
3472	0.272846
3468	0.275778
3464	0.144624
3460	0.076317
3456	0.009632
3452	-0.074982
3448	-0.016307
3444	0.074601
3440	0.109338
3436	0.109887
3432	0.006794
3428	-0.122523
3424	-0.147461
3420	-0.067353
3416	0.017356
3412	0.060153
3408	0.059533
3404	-0.030088
3400	-0.080323
3396	-0.019049
3392	0.048160
3388	0.063228
3384	0.024938
3380	-0.028252
3376	-0.011372
3372	0.097799
3368	0.179743
3364	0.140619
3360	0.061368
3356	0.039744
3352	0.040912
3348	0.035285
3344	0.009560
3340	-0.036191
3336	-0.039196
3332	-0.003957
3328	0.018453
3324	0.039744
3320	0.045108
3316	0.023579
3312	0.055646
3308	0.131654
3304	0.119900
3300	0.104880
3296	0.199341
3292	0.200557
3288	0.136280
3284	0.171828
3280	0.202870
3276	0.140190
3272	0.037455
3268	0.005245
3264	0.036358
3260	0.094389
3256	0.123500
3252	0.052547
3248	-0.053668
3244	-0.070524
3240	0.006103
3236	0.047159
3232	0.067615
3228	0.099921
3224	0.078153
3220	-0.007677
3216	-0.110173
3212	-0.102019
3208	0.041437
3204	0.123333
3200	0.082063
3196	0.105690
3192	0.160503
3188	0.100088
3184	0.052380
3180	0.104856
3176	0.147914
3172	0.159311
3168	0.167417
3164	0.146555
3160	0.091886
3156	0.030016
3152	-0.010967
3148	-0.028181
3144	0.049471
3140	0.182342
3136	0.243663
3132	0.161695
3128	-0.006699
3124	0.044584
3120	0.242424
3116	0.343561
3112	0.375652
3108	0.251841
3104	0.130820
3100	0.173354
3096	0.130271
3092	-0.016474
3088	-0.059342
3084	-0.001478
3080	0.060439
3076	0.096416
3072	0.122213
3068	0.127363
3064	0.085544
3060	0.024533
3056	0.056672
3052	0.155067
3048	0.165724
3044	0.107192
3040	0.085711
3036	0.095176
3032	0.051331
3028	-0.018739
3024	-0.045132
3020	-0.059437
3016	-0.063657
3012	-0.004339
3008	0.040912
3004	0.029873
3000	0.033044
2996	0.012326
2992	-0.020360
2988	0.002622
2984	0.054860
2980	0.097393
2976	0.135350
2972	0.139212
2968	0.113105
2964	0.108146
2960	0.068306
2956	0.031304
2952	0.068092
2948	0.113654
2944	0.117206
2940	0.088787
2936	0.056147
2932	0.012564
2928	-0.003886
2924	0.016736
2920	0.062847
2916	0.133514
2912	0.128722
2908	0.064015
2904	0.019454
2900	-0.030827
2896	-0.055265
2892	-0.000238
2888	0.080728
2884	0.102877
2880	0.080561
2876	0.066828
2872	0.057911
2868	0.083327
2864	0.125217
2860	0.060200
2856	-0.038743
2852	-0.032877
2848	0.015783
2844	0.029540
2840	-0.011014
2836	-0.073719
2832	-0.080227
2828	0.013041
2824	0.068664
2820	0.017404
2816	-0.034785
2812	-0.056838
2808	-0.036644
2804	0.033640
2800	0.070023
2796	0.045657
2792	0.017881
2788	0.032591
2784	0.062298
2780	0.051951
2776	0.018429
2772	0.018620
2768	0.065279
2764	0.114226
2760	0.106525
2756	0.061082
2752	0.011658
2748	0.018453
2744	0.088167
2740	0.128173
2736	0.120019
2732	0.110626
2728	0.117135
2724	0.126767
2720	0.111603
2716	0.076079
2712	0.036120
2708	0.016975
2704	0.044679
2700	0.074410
2696	0.090241
2692	0.071024
2688	-0.011658
2684	-0.031495
2680	0.047159
2676	0.097584
2672	0.103020
2668	0.111055
2664	0.101971
2660	0.037813
2656	-0.021147
2652	-0.006961
2648	0.033497
2644	0.076508
2640	0.088548
2636	0.027656
2632	0.002169
2628	0.063943
2624	0.114965
2620	0.111389
2616	0.057864
2612	-0.015616
2608	-0.027346
2604	0.029277
2600	0.062060
2596	0.049424
2592	0.059604
2588	0.077676
2584	0.041866
2580	0.002670
2576	-0.010251
2572	-0.000357
2568	0.070571
2564	0.173950
2560	0.236010
2556	0.236392
2552	0.184607
2548	0.069403
2544	-0.022292
2540	-0.032067
2536	-0.016140
2532	0.032424
2528	0.050115
2524	0.003480
2520	-0.023126
2516	-0.003862
2512	-0.044298
2508	-0.130057
2504	-0.097727
2500	-0.025296
2496	0.079417
2492	0.144720
2488	0.074005
2484	-0.009369
2480	-0.041174
2476	-0.076127
2472	-0.097751
2468	-0.038480
2464	-0.002813
2460	0.001597
2456	0.017380
2452	0.041341
2448	0.038838
2444	-0.052452
2440	-0.056767
2436	0.050878
2432	0.007438
2428	-0.001311
2424	0.170683
2420	0.189304
2416	0.079917
2412	0.061750
2408	0.033569
2404	-0.111556
2400	-0.215864
2396	-0.161814
2392	-0.048923
2388	0.064301
2384	0.151252
2380	0.152897
2376	0.083470
2372	0.034952
2368	0.021600
2364	0.049853
2360	0.092291
2356	0.078296
2352	0.069189
2348	0.087928
2344	0.133490
2340	0.209164
2336	0.257420
2332	0.269746
2328	0.269818
2324	0.284671
2320	0.308799
2316	0.364303
2312	0.438117
2308	0.479698
2304	0.504064
2300	0.555992
2296	0.637602
2292	0.678229
2288	0.663995
2284	0.677013
2280	0.760960
2276	0.850296
2272	0.962567
2268	1.110267
2264	1.240587
2260	1.369476
2256	1.432728
2252	1.455688
2248	1.589059
2244	1.807355
2240	1.997947
2236	2.156233
2232	2.342224
2228	2.535820
2224	2.702593
2220	2.894639
2216	3.102707
2212	3.295469
2208	3.478026
2204	3.672814
2200	3.961968
2196	4.267311
2192	4.513263
2188	4.781174
2184	5.077195
2180	5.415225
2176	5.762338
2172	6.086444
2168	6.449532
2164	6.759691
2160	7.041001
2156	7.452654
2152	7.846426
2148	8.117270
2144	8.359289
2140	8.652734
2136	9.079766
2132	9.534215
2128	9.937500
2124	10.3307
2120	10.6871
2116	11.0624
2112	11.4626
2108	11.8085
2104	12.2002
2100	12.6447
2096	13.0095
2092	13.3564
2088	13.6912
2084	13.98
2080	14.2493
2076	14.5376
2072	14.8731
2068	15.1675
2064	15.5697
2060	16.0416
2056	16.3788
2052	16.815
2048	17.2552
2044	17.489
2040	17.7351
2036	18.0655
2032	18.3448
2028	18.5812
2024	18.8757
2020	19.168
2016	19.4297
2012	19.7121
2008	19.9721
2004	20.2077
2000	20.426
1996	20.6019
1992	20.7481
1988	20.9532
1984	21.209
1980	21.4154
1976	21.6175
1972	21.8483
1968	22.0925
1964	22.3632
1960	22.6007
1956	22.7519
1952	22.8775
1948	23.0204
1944	23.1434
1940	23.2282
1936	23.3179
1932	23.4115
1928	23.5639
1924	23.8088
1920	24.0247
1916	24.2049
1912	24.4045
1908	24.5841
1904	24.6916
1900	24.7709
1896	24.8226
1892	24.7927
1888	24.8122
1884	24.9386
1880	25.0792
1876	25.2217
1872	25.3732
1868	25.4925
1864	25.6268
1860	25.8048
1856	25.9497
1852	26.0286
1848	26.0534
1844	26.076
1840	26.0962
1836	26.1031
1832	26.129
1828	26.162
1824	26.2165
1820	26.3343
1816	26.4791
1812	26.595
1808	26.7223
1804	26.8549
1800	26.9608
1796	27.0833
1792	27.1565
1788	27.0955
1784	27.0052
1780	26.9668
1776	26.9534
1772	27.005
1768	27.1304
1764	27.2568
1760	27.3961
1756	27.5708
1752	27.6981
1748	27.7102
1744	27.696
1740	27.7537
1736	27.7966
1732	27.7598
1728	27.6677
1724	27.5608
1720	27.5463
1716	27.5874
1712	27.631
1708	27.7451
1704	27.9001
1700	28.0612
1696	28.2153
1692	28.3551
1688	28.4438
1684	28.368
1680	28.2308
1676	28.1741
1672	28.1145
1668	28.092
1664	28.1444
1660	28.2146
1656	28.3957
1652	28.6416
1648	28.7653
1644	28.7696
1640	28.7704
1636	28.8215
1632	28.8424
1628	28.7729
1624	28.6765
1620	28.6306
1616	28.6308
1612	28.6155
1608	28.597
1604	28.6189
1600	28.6675
1596	28.7386
1592	28.8364
1588	28.9767
1584	29.1067
1580	29.1681
1576	29.174
1572	29.1249
1568	29.0759
1564	29.0871
1560	29.068
1556	28.9268
1552	28.8604
1548	28.9833
1544	29.1232
1540	29.1894
1536	29.2459
1532	29.3346
1528	29.459
1524	29.5512
1520	29.5644
1516	29.5432
1512	29.4912
1508	29.4142
1504	29.3348
1500	29.2459
1496	29.1222
1492	29.0861
1488	29.1994
1484	29.3554
1480	29.5553
1476	29.7457
1472	29.8361
1468	29.8311
1464	29.804
1460	29.7719
1456	29.6402
1452	29.4605
1448	29.4023
1444	29.3479
1440	29.2443
1436	29.2408
1432	29.3816
1428	29.593
1424	29.7431
1420	29.8701
1416	29.9801
1412	30.0263
1408	30.0715
1404	30.0589
1400	29.9631
1396	29.8632
1392	29.7685
1388	29.6727
1384	29.5768
1380	29.5205
1376	29.5665
1372	29.6992
1368	29.8707
1364	30.052
1360	30.1927
1356	30.2643
1352	30.2875
1348	30.2534
1344	30.1721
1340	30.0728
1336	29.9432
1332	29.803
1328	29.707
1324	29.6611
1320	29.6438
1316	29.7181
1312	29.8943
1308	30.0644
1304	30.1792
1300	30.2135
1296	30.2039
1292	30.1984
1288	30.1827
1284	30.1416
1280	29.9977
1276	29.7496
1272	29.5546
1268	29.5542
1264	29.6862
1260	29.8305
1256	29.9637
1252	30.0662
1248	30.1966
1244	30.3823
1240	30.4959
1236	30.465
1232	30.3337
1228	30.1567
1224	30.0227
1220	29.9721
1216	29.9024
1212	29.7769
1208	29.7114
1204	29.7722
1200	29.916
1196	30.1017
1192	30.2766
1188	30.3877
1184	30.4296
1180	30.4116
1176	30.33
1172	30.1863
1168	29.9564
1164	29.749
1160	29.7004
1156	29.684
1152	29.6607
1148	29.6693
1144	29.6604
1140	29.7314
1136	29.9686
1132	30.2303
1128	30.3644
1124	30.3554
1120	30.2765
1116	30.1792
1112	30.0327
1108	29.8393
1104	29.7123
1100	29.6389
1096	29.5025
1092	29.3953
1088	29.4296
1084	29.5535
1080	29.6881
1076	29.8387
1072	30.0409
1068	30.1819
1064	30.164
1060	30.0031
1056	29.8046
1052	29.6479
1048	29.5072
1044	29.4119
1040	29.3638
1036	29.3581
1032	29.3378
1028	29.2966
1024	29.4797
1020	29.7891
1016	29.8911
1012	29.9115
1008	29.9911
1004	29.9752
1000	29.7459
996	 29.4699
992	 29.354
988	 29.2956
984	 29.1673
980	 29.0518
976	 29.0829
972	 29.2261
968	 29.376
964	 29.5308
960	 29.6693
956	 29.7331
952	 29.6865
948	 29.621
944	 29.6
940	 29.4682
936	 29.212
932	 28.9853
928	 28.8257
924	 28.6928
920	 28.4884
916	 28.3511
912	 28.5322
908	 28.8567
904	 29.1677
900	 29.4184
896	 29.444
892	 29.3215
888	 29.1909
884	 29.0108
880	 28.7225
876	 28.4787
872	 28.3933
868	 28.2731
864	 28.2035
860	 28.3067
856	 28.3432
852	 28.3814
848	 28.5328
844	 28.7272
840	 28.982
836	 29.1047
832	 29.0151
828	 28.7499
824	 28.4221
820	 28.1931
816	 27.964
812	 27.7517
808	 27.6054
804	 27.6437
800	 27.8509
796	 27.9223
792	 27.905
788	 28.0109
784	 28.1671
780	 28.2887
776	 28.3552
772	 28.1936
768	 27.8417
764	 27.4911
760	 27.104
756	 26.7503
752	 26.6183
748	 26.6392
744	 26.6945
740	 26.7122
736	 26.771
732	 27.0818
728	 27.3395
724	 27.2917
720	 27.2548
716	 27.2428
712	 27.2017
708	 27.0908
704	 26.784
700	 26.615
696	 26.5909
692	 26.4221
688	 26.2158
684	 25.9714
680	 25.8935
676	 26.1473
672	 26.4086
668	 26.5867
664	 26.7895
660	 26.8837
656	 26.7595
652	 26.5286
648	 26.231
644	 25.7432
640	 25.2069
636	 24.9043
632	 24.7924
628	 24.8661
624	 25.0403
620	 25.2754
616	 25.5879
612	 25.6966
608	 25.7462
604	 25.8059
600	 25.5764
596	 25.354
592	 25.143
588	 24.5365
584	 24.012
580	 23.969
576	 23.9446
572	 23.6639
568	 23.5043
564	 23.7915
560	 24.325
556	 24.7263
552	 24.5567
548	 24.1537
544	 24.1333
540	 24.0853
536	 23.521
532	 22.8604
528	 22.6419
524	 22.6814
520	 22.7438
516	 22.7378
512	 22.7843
508	 23.2716
504	 23.7969
500	 23.8279
496	 23.6345
492	 23.1145
488	 22.4406
484	 22.4752
480	 22.6777
476	 22.3313
472	 22.0195
468	 22.1704
464	 22.0509
460	 21.2743
456	 20.69
452	 20.7496
448	 20.5792
444	 20.0746
440	 21.5526
436	 23.866
432	 23.2573
428	 21.5752
424	 21.3524
420	 21.3521
416	 22.5085
412	 27.2506
408	 32.2393
404	 31.0929
400	 28.7166
396	 32.1579
392	 36.0371
388	 34.5866
384	 36.566
380	 53.0402
376	 59.9231
372	 49.6205
370	 15.4579