File: Bakgrunnsmateriale/MATLAB/FTIR/ftir_data/LPE454/Mapping_121/LPE454_t15.asc
PE IR       SPECTRUM    SPECTRUM    ASCII       PEDS        1.60
  -1
LPD798~1.ASC
17/05/19
15:34:31.00
17/05/19
15:34:57.00
tln
$LPE454_t0015$<tbV0>[5.2,-10.4,8.0,0.0,27,1,0]
27.028
64

2002,4.07
MIRTGS : RIGHTBACK : INTERNAL 2
MIR : ON : INTERNAL 2
OPTKBR

0.200000
8
8.000000
FILLER
RATIO
SPECTRUM
UNLOCKED 256

DOUBLE
64
COMBINED
1
0
0

0.002000
RATIO

1
0
TRUE
51149
0
LEFT NOT FITTED RIGHT NOT FITTED 0
NONE
NONE
15600
12
4.427000
51148
TRUE
1 0 8 72 0 0 0 0

15798

#HDR
-1
-1
#GR
µM
%T
2.38419e-05
0.0
2.000000
0.002000
12515
8
77.049
-13.3461
#DATA
2.000000	 0.053191
2.018000	 0.423449
2.036000	 0.448605
2.054000	 0.932272
2.072000	 0.029349
2.090000	 -0.063480
2.108000	 1.304805
2.126000	 -0.494025
2.144000	 0.548600
2.162000	 0.213381
2.180000	 0.631092
2.198000	 0.298421
2.216000	 0.709091
2.234000	 1.351524
2.252000	 -0.122183
2.270000	 0.224998
2.288000	 0.336861
2.306000	 0.611148
2.324000	 -0.160002
2.342000	 -0.071812
2.360000	 0.177941
2.378000	 -0.035297
2.396000	 0.451595
2.414000	 0.088091
2.432000	 0.287538
2.450000	 -0.104638
2.468000	 -0.124069
2.486000	 -0.081600
2.504000	 0.158110
2.522000	 0.283483
2.540000	 -0.163050
2.558000	 0.098790
2.576000	 -0.200806
2.594000	 -0.082995
2.612000	 0.126602
2.630000	 0.053123
2.648000	 0.122938
2.666000	 -0.009689
2.684000	 0.084877
2.702000	 0.025346
2.720000	 0.210196
2.738000	 0.032065
2.756000	 0.167792
2.774000	 0.116188
2.792000	 0.224193
2.810000	 -0.038670
2.828000	 0.046340
2.846000	 0.088234
2.864000	 0.167064
2.882000	 0.130282
2.900000	 0.063084
2.918000	 -0.016876
2.936000	 0.077520
2.954000	 0.115827
2.972000	 0.082566
2.990000	 0.095354
3.008000	 0.080664
3.026000	 0.174600
3.044000	 0.128144
3.062000	 0.108284
3.080000	 0.031300
3.098000	 0.023003
3.116000	 0.082889
3.134000	 0.167394
3.152000	 0.118745
3.170000	 0.062904
3.188000	 0.116270
3.206000	 0.150538
3.224000	 0.097586
3.242000	 -0.010621
3.260000	 0.131064
3.278000	 -0.018884
3.296000	 -0.011473
3.314000	 0.194650
3.332000	 0.057110
3.350000	 0.053650
3.368000	 0.067253
3.386000	 -0.011850
3.404000	 0.044053
3.422000	 0.050326
3.440000	 -0.048576
3.458000	 0.037590
3.476000	 0.097896
3.494000	 0.001341
3.512000	 0.090687
3.530000	 0.061343
3.548000	 0.114998
3.566000	 0.045709
3.584000	 -0.065058
3.602000	 0.026847
3.620000	 -0.138894
3.638000	 -0.112256
3.656000	 0.092070
3.674000	 0.159430
3.692000	 0.122475
3.710000	 0.068188
3.728000	 0.080132
3.746000	 0.042009
3.764000	 0.076000
3.782000	 0.002596
3.800000	 -0.013541
3.818000	 0.055425
3.836000	 -0.008097
3.854000	 0.017806
3.872000	 0.034384
3.890000	 0.093731
3.908000	 0.195079
3.926000	 -0.080671
3.944000	 0.036104
3.962000	 -0.104829
3.980000	 0.289975
3.998000	 -0.000987
4.016000	 -0.034026
4.034000	 0.053304
4.052000	 0.108098
4.070000	 -0.002304
4.088000	 -0.114364
4.106000	 0.134512
4.124000	 -0.158336
4.141999	 0.196832
4.160000	 0.023096
4.178000	 -0.007540
4.196000	 0.119871
4.214000	 0.137920
4.232000	 0.154817
4.250000	 0.193389
4.268000	 0.185328
4.286000	 0.263351
4.304000	 0.398519
4.322000	 0.453000
4.340000	 0.572433
4.358000	 0.650390
4.375999	 0.802503
4.394000	 0.985193
4.412000	 1.304547
4.430000	 1.585958
4.448000	 2.021445
4.466000	 2.370040
4.484000	 2.846499
4.502000	 3.368099
4.520000	 3.901897
4.538000	 4.520755
4.556000	 5.285121
4.574000	 6.114029
4.592000	 6.926994
4.609999	 7.831578
4.628000	 8.820495
4.646000	 9.612783
4.664000	 10.6514
4.682000	 11.57
4.700000	 12.7287
4.718000	 13.6995
4.736000	 14.646
4.754000	 15.6763
4.772000	 16.7026
4.790000	 17.6995
4.808000	 18.7761
4.826000	 19.8535
4.843999	 20.6647
4.862000	 21.0852
4.880000	 22.0037
4.898000	 22.8228
4.916000	 23.6833
4.934000	 24.4018
4.952000	 24.8587
4.970000	 25.528
4.988000	 26.158
5.006000	 26.7699
5.024000	 27.2445
5.042000	 27.7054
5.060000	 28.135
5.077999	 28.6007
5.096000	 28.9876
5.114000	 29.3079
5.132000	 29.6694
5.150000	 30.0489
5.168000	 30.2912
5.186000	 30.5575
5.204000	 30.811
5.222000	 31.0307
5.240000	 31.1957
5.258000	 31.5493
5.276000	 31.8494
5.294000	 31.9529
5.312000	 32.1045
5.330000	 32.303
5.348000	 32.5222
5.366000	 32.6083
5.384000	 32.6734
5.402000	 32.8203
5.420000	 32.9916
5.438000	 33.1242
5.456000	 33.3272
5.474000	 33.374
5.492000	 33.3611
5.510000	 33.4038
5.528000	 33.605
5.546000	 33.6403
5.564000	 33.6994
5.582000	 33.76
5.600000	 33.7453
5.618000	 33.8373
5.636000	 33.8843
5.654000	 34.0382
5.672000	 34.0926
5.690000	 34.0376
5.708000	 34.0427
5.726000	 34.0067
5.744000	 33.9801
5.762000	 34.1146
5.780000	 34.2226
5.798000	 34.0571
5.816000	 34.1566
5.834000	 34.3415
5.852000	 34.3103
5.870000	 34.3731
5.888000	 34.376
5.906000	 34.2847
5.923999	 34.3659
5.942000	 34.4072
5.960000	 34.3054
5.978000	 34.3089
5.996000	 34.3638
6.014000	 34.3356
6.032000	 34.3703
6.050000	 34.5588
6.068000	 34.5682
6.086000	 34.4725
6.104000	 34.4994
6.122000	 34.4792
6.140000	 34.399
6.158000	 34.3947
6.176000	 34.4291
6.194000	 34.3877
6.212000	 34.3513
6.230000	 34.3748
6.248000	 34.3351
6.266000	 34.3389
6.284000	 34.3304
6.302000	 34.1998
6.320000	 34.2153
6.338000	 34.3217
6.356000	 34.3729
6.374000	 34.4524
6.392000	 34.5311
6.410000	 34.6315
6.428000	 34.5552
6.446000	 34.3765
6.464000	 34.3654
6.482000	 34.4556
6.500000	 34.4903
6.518000	 34.4096
6.536000	 34.3638
6.554000	 34.3873
6.572000	 34.3723
6.590000	 34.3375
6.608000	 34.3376
6.626000	 34.3761
6.644000	 34.3885
6.662000	 34.3671
6.680000	 34.4232
6.698000	 34.4455
6.716000	 34.2926
6.734000	 34.1291
6.752000	 34.0817
6.770000	 34.0945
6.788000	 34.1298
6.806000	 34.1885
6.824000	 34.2549
6.842000	 34.3124
6.860000	 34.282
6.878000	 34.2067
6.896000	 34.2269
6.914000	 34.2639
6.932000	 34.3053
6.950000	 34.3886
6.968000	 34.3309
6.986000	 34.1532
7.004000	 34.0807
7.022000	 34.1242
7.040000	 34.1558
7.058000	 34.1114
7.076000	 34.0615
7.094000	 34.0918
7.112000	 34.1668
7.130000	 34.2164
7.148000	 34.2273
7.166000	 34.2098
7.184000	 34.1621
7.202000	 34.1078
7.220000	 34.0863
7.238000	 34.0643
7.256000	 33.9735
7.274000	 33.8414
7.292000	 33.7644
7.310000	 33.7637
7.328000	 33.7884
7.346000	 33.8031
7.364000	 33.7854
7.382000	 33.7351
7.400000	 33.7058
7.418000	 33.7392
7.436000	 33.8173
7.454000	 33.8963
7.472000	 33.9253
7.490000	 33.884
7.508000	 33.8363
7.526000	 33.8576
7.544000	 33.9274
7.562000	 33.9752
7.580000	 33.9499
7.598000	 33.8379
7.616000	 33.7099
7.634000	 33.6688
7.652000	 33.7108
7.670000	 33.7607
7.688000	 33.7917
7.706000	 33.7939
7.724000	 33.7425
7.742000	 33.6598
7.760000	 33.6151
7.778000	 33.6366
7.796000	 33.6839
7.814000	 33.7094
7.832000	 33.7087
7.850000	 33.7009
7.868000	 33.6842
7.886000	 33.6422
7.904000	 33.5837
7.922000	 33.5506
7.940000	 33.5641
7.958000	 33.5789
7.976000	 33.5411
7.994000	 33.479
8.012000	 33.4646
8.030000	 33.5001
8.048000	 33.5215
8.065999	 33.4958
8.084000	 33.4472
8.102000	 33.4158
8.120000	 33.4309
8.138000	 33.4985
8.155999	 33.5813
8.173999	 33.6188
8.192000	 33.5882
8.210000	 33.5245
8.228000	 33.4782
8.246000	 33.4711
8.263999	 33.4892
8.282000	 33.5053
8.300000	 33.4982
8.318000	 33.4633
8.336000	 33.4137
8.353999	 33.3667
8.372000	 33.3348
8.390000	 33.3253
8.408000	 33.332
8.426000	 33.3326
8.443999	 33.3185
8.462000	 33.309
8.480000	 33.316
8.498000	 33.3114
8.516000	 33.262
8.533999	 33.1842
8.552000	 33.1311
8.570000	 33.1305
8.588000	 33.1614
8.606000	 33.1902
8.624000	 33.2096
8.641999	 33.2326
8.660000	 33.2583
8.678000	 33.2682
8.696000	 33.2567
8.714000	 33.234
8.731999	 33.1995
8.750000	 33.1415
8.768000	 33.0653
8.786000	 32.9993
8.804000	 32.9704
8.821999	 32.9728
8.840000	 32.9708
8.858000	 32.9351
8.876000	 32.8768
8.894000	 32.8338
8.911999	 32.8291
8.930000	 32.8573
8.948000	 32.9066
8.966000	 32.979
8.984000	 33.0718
9.001999	 33.1513
9.020000	 33.1679
9.038000	 33.1058
9.056000	 33.0108
9.074000	 32.9573
9.092000	 32.9839
9.109999	 33.0578
9.128000	 33.1007
9.146000	 33.0523
9.164000	 32.9176
9.182000	 32.7605
9.199999	 32.6533
9.218000	 32.6249
9.236000	 32.6476
9.254000	 32.6701
9.272000	 32.6613
9.289999	 32.627
9.308000	 32.5884
9.326000	 32.555
9.344000	 32.5202
9.362000	 32.4808
9.379999	 32.4526
9.398000	 32.4592
9.416000	 32.5087
9.434000	 32.5796
9.452000	 32.6349
9.469999	 32.6476
9.488000	 32.6175
9.506000	 32.5704
9.524000	 32.5406
9.542000	 32.5481
9.560000	 32.5847
9.577999	 32.6192
9.596000	 32.6183
9.614000	 32.5657
9.632000	 32.4702
9.650000	 32.3604
9.667999	 32.2685
9.686000	 32.2128
9.704000	 32.19
9.722000	 32.1814
9.740000	 32.1688
9.757999	 32.1469
9.776000	 32.1238
9.794000	 32.1114
9.812000	 32.1167
9.830000	 32.1362
9.847999	 32.1598
9.866000	 32.1754
9.884000	 32.1718
9.902000	 32.1415
9.920000	 32.0866
9.937999	 32.0227
9.956000	 31.9774
9.974000	 31.9765
9.992000	 32.0269
10.01	32.1112
10.028	32.1984
10.046	32.2646
10.064	32.3068
10.082	32.3382
10.1	32.3727
10.118	32.4103
10.136	32.4359
10.154	32.4318
10.172	32.39
10.19	32.3189
10.208	32.2356
10.226	32.1557
10.244	32.0869
10.262	32.0296
10.28	31.982
10.298	31.9434
10.316	31.9133
10.334	31.8885
10.352	31.8637
10.37	31.8339
10.388	31.8004
10.406	31.7683
10.424	31.7424
10.442	31.7208
10.46	31.6972
10.478	31.6671
10.496	31.6344
10.514	31.61
10.532	31.6045
10.55	31.6189
10.568	31.6433
10.586	31.6631
10.604	31.6709
10.622	31.6696
10.64	31.6696
10.658	31.6772
10.676	31.6872
10.694	31.6852
10.712	31.6557
10.73	31.5931
10.748	31.5061
10.766	31.415
10.784	31.34
10.802	31.2925
10.82	31.27
10.838	31.2588
10.856	31.2438
10.874	31.2139
10.892	31.1666
10.91	31.1046
10.928	31.0325
10.946	30.9545
10.964	30.8756
10.982	30.8043
11	30.7542
11.018	30.7406
11.036	30.7726
11.054	30.8471
11.072	30.9473
11.09	31.0473
11.108	31.1254
11.126	31.1696
11.144	31.1816
11.162	31.1749
11.18	31.1651
11.198	31.1644
11.216	31.1775
11.234	31.2017
11.252	31.2296
11.27	31.2536
11.288	31.2676
11.306	31.2676
11.324	31.2506
11.342	31.2141
11.36	31.1578
11.378	31.0863
11.396	31.0091
11.414	30.9406
11.432	30.8966
11.45	30.8867
11.468	30.911
11.486	30.9585
11.504	31.0101
11.522	31.0446
11.54	31.0486
11.558	31.0183
11.576	30.9605
11.594	30.887
11.612	30.8109
11.63	30.7418
11.648	30.6837
11.666	30.6372
11.684	30.6005
11.702	30.5705
11.72	30.5438
11.738	30.5162
11.756	30.4836
11.774	30.442
11.792	30.3897
11.81	30.3288
11.828	30.2651
11.846	30.207
11.864	30.163
11.882	30.1387
11.9	30.1357
11.918	30.1512
11.936	30.1791
11.954	30.2132
11.972	30.2484
11.99	30.2814
12.008	30.3119
12.026	30.3405
12.044	30.3681
12.062	30.3942
12.08	30.417
12.098	30.4339
12.116	30.4427
12.134	30.4425
12.152	30.4348
12.17	30.4231
12.188	30.412
12.206	30.4062
12.224	30.4084
12.242	30.4185
12.26	30.4333
12.278	30.4462
12.296	30.4486
12.314	30.4321
12.332	30.3908
12.35	30.3235
12.368	30.2341
12.386	30.1313
12.404	30.0254
12.422	29.9261
12.44	29.8395
12.458	29.7672
12.476	29.707
12.494	29.6542
12.512	29.6044
12.53	29.5552
12.548	29.5069
12.566	29.4613
12.584	29.4213
12.602	29.3889
12.62	29.3641
12.638	29.3449
12.656	29.3285
12.674	29.3123
12.692	29.2951
12.71	29.2766
12.728	29.2574
12.746	29.2388
12.764	29.2222
12.782	29.2091
12.8	29.2014
12.818	29.2011
12.836	29.2109
12.854	29.2329
12.872	29.2687
12.89	29.3177
12.908	29.3763
12.926	29.438
12.944	29.4942
12.962	29.5352
12.98	29.5525
12.998	29.5404
13.016	29.4977
13.034	29.428
13.052	29.3393
13.07	29.2424
13.088	29.1499
13.106	29.0732
13.124	29.0211
13.142	28.9981
13.16	29.004
13.178	29.0343
13.196	29.0804
13.214	29.1325
13.232	29.1804
13.25	29.2161
13.268	29.2345
13.286	29.2339
13.304	29.2159
13.322	29.1841
13.34	29.1432
13.358	29.0971
13.376	29.0487
13.394	28.9991
13.412	28.9486
13.43	28.8972
13.448	28.8451
13.466	28.7936
13.484	28.745
13.502	28.702
13.52	28.6671
13.538	28.6412
13.556	28.6232
13.574	28.6101
13.592	28.598
13.61	28.5822
13.628	28.5597
13.646	28.5294
13.664	28.4929
13.682	28.4546
13.7	28.4204
13.718	28.3963
13.736	28.3872
13.754	28.3952
13.772	28.4197
13.79	28.4575
13.808	28.5041
13.826	28.5541
13.844	28.6031
13.862	28.6479
13.88	28.6871
13.898	28.7206
13.916	28.7491
13.934	28.7736
13.952	28.7944
13.97	28.811
13.988	28.8222
14.006	28.8262
14.024	28.8213
14.042	28.807
14.06	28.7835
14.078	28.7528
14.096	28.7179
14.114	28.6822
14.132	28.6487
14.15	28.6194
14.168	28.5948
14.186	28.5738
14.204	28.5539
14.222	28.5318
14.24	28.5047
14.258	28.4709
14.276	28.4302
14.294	28.3844
14.312	28.3365
14.33	28.2907
14.348	28.2512
14.366	28.2212
14.384	28.2019
14.402	28.1918
14.42	28.1876
14.438	28.1842
14.456	28.1761
14.474	28.158
14.492	28.1259
14.51	28.0779
14.528	28.0152
14.546	27.9406
14.564	27.8586
14.582	27.7742
14.6	27.6926
14.618	27.6185
14.636	27.5551
14.654	27.5045
14.672	27.4674
14.69	27.4435
14.708	27.4317
14.726	27.4308
14.744	27.4383
14.762	27.4515
14.78	27.4676
14.798	27.4833
14.816	27.4951
14.834	27.4997
14.852	27.4936
14.87	27.4752
14.888	27.4443
14.906	27.4017
14.924	27.3505
14.942	27.2955
14.96	27.2423
14.978	27.1964
14.996	27.1629
15.014	27.1457
15.032	27.1474
15.05	27.1678
15.068	27.2049
15.086	27.2557
15.104	27.3159
15.122	27.3801
15.14	27.4438
15.158	27.5036
15.176	27.5565
15.194	27.6007
15.212	27.6352
15.23	27.66
15.248	27.6753
15.266	27.6815
15.284	27.6789
15.302	27.6677
15.32	27.6479
15.338	27.6196
15.356	27.5826
15.374	27.5378
15.392	27.4861
15.41	27.4288
15.428	27.3676
15.446	27.3049
15.464	27.2423
15.482	27.1819
15.5	27.1251
15.518	27.0736
15.536	27.0281
15.554	26.9892
15.572	26.9572
15.59	26.9323
15.608	26.9147
15.626	26.9041
15.644	26.9007
15.662	26.9041
15.68	26.9136
15.698	26.9287
15.716	26.9479
15.734	26.9692
15.752	26.9906
15.77	27.0099
15.788	27.0237
15.806	27.0295
15.824	27.0251
15.842	27.0081
15.86	26.9775
15.878	26.9335
15.896	26.8767
15.914	26.8095
15.932	26.735
15.95	26.6563
15.968	26.5772
15.986	26.5022
16.004	26.434
16.022	26.3753
16.04	26.3284
16.058	26.2936
16.076	26.2711
16.094	26.2599
16.112	26.2584
16.13	26.2649
16.148	26.2775
16.166	26.2938
16.184	26.3119
16.202	26.3299
16.22	26.3459
16.238	26.3586
16.256	26.3671
16.274	26.3704
16.292	26.368
16.31	26.3597
16.328	26.3456
16.346	26.3264
16.364	26.3026
16.382	26.2757
16.4	26.2471
16.418	26.2178
16.436	26.1901
16.454	26.1653
16.472	26.1447
16.49	26.1299
16.508	26.1216
16.526	26.1205
16.544	26.1266
16.562	26.1392
16.58	26.1578
16.598	26.1809
16.616	26.2069
16.634	26.2344
16.652	26.2609
16.67	26.2849
16.688	26.3047
16.706	26.3184
16.724	26.3252
16.742	26.3242
16.76	26.3153
16.778	26.2989
16.796	26.2756
16.814	26.2471
16.832	26.2144
16.85	26.18
16.868	26.1457
16.886	26.1133
16.904	26.0853
16.922	26.0626
16.94	26.0467
16.958	26.0381
16.976	26.0368
16.994	26.0425
17.012	26.0536
17.03	26.0695
17.048	26.0879
17.066	26.1075
17.084	26.1266
17.102	26.1434
17.12	26.157
17.138	26.1661
17.156	26.1705
17.174	26.1698
17.192	26.1644
17.21	26.1546
17.228	26.141
17.246	26.1242
17.264	26.1047
17.282	26.0832
17.3	26.0596
17.318	26.0344
17.336	26.0072
17.354	25.978
17.372	25.9465
17.39	25.9124
17.408	25.8757
17.426	25.8365
17.444	25.795
17.462	25.7519
17.48	25.7077
17.498	25.6637
17.516	25.6206
17.534	25.5793
17.552	25.5409
17.57	25.506
17.588	25.475
17.606	25.4476
17.624	25.4239
17.642	25.4024
17.66	25.3828
17.678	25.3628
17.696	25.3419
17.714	25.3176
17.732	25.2892
17.75	25.2551
17.768	25.2147
17.786	25.1677
17.804	25.1144
17.822	25.0552
17.84	24.9917
17.858	24.9254
17.876	24.8579
17.894	24.7919
17.912	24.7285
17.93	24.6706
17.948	24.6187
17.966	24.575
17.984	24.5396
18.002	24.5133
18.02	24.4954
18.038	24.4857
18.056	24.4821
18.074	24.4842
18.092	24.4889
18.11	24.4958
18.128	24.502
18.146	24.5072
18.164	24.5091
18.182	24.5078
18.2	24.5023
18.218	24.4933
18.236	24.4807
18.254	24.4663
18.272	24.4505
18.29	24.4358
18.308	24.4228
18.326	24.4142
18.344	24.4102
18.362	24.4131
18.38	24.4227
18.398	24.44
18.416	24.4645
18.434	24.4962
18.452	24.5338
18.47	24.5766
18.488	24.6225
18.506	24.6709
18.524	24.7191
18.542	24.7669
18.56	24.8118
18.578	24.8536
18.596	24.8909
18.614	24.9236
18.632	24.9514
18.65	24.9744
18.668	24.9929
18.686	25.0073
18.704	25.0185
18.722	25.0266
18.74	25.0322
18.758	25.0352
18.776	25.0359
18.794	25.0339
18.812	25.0286
18.83	25.0194
18.848	25.0052
18.866	24.9855
18.884	24.9589
18.902	24.9252
18.92	24.8834
18.938	24.8336
18.956	24.7756
18.974	24.7103
18.992	24.6383
19.01	24.5612
19.028	24.4806
19.046	24.3981
19.064	24.3162
19.082	24.2364
19.1	24.1617
19.118	24.0929
19.136	24.0329
19.154	23.9819
19.172	23.9419
19.19	23.9128
19.208	23.8952
19.226	23.8885
19.244	23.8921
19.262	23.9052
19.28	23.9256
19.298	23.9529
19.316	23.9839
19.334	24.0186
19.352	24.0531
19.37	24.0877
19.388	24.1189
19.406	24.1467
19.424	24.1686
19.442	24.1846
19.46	24.193
19.478	24.1938
19.496	24.1864
19.514	24.1707
19.532	24.147
19.55	24.1151
19.568	24.076
19.586	24.03
19.604	23.9777
19.622	23.9204
19.64	23.8582
19.658	23.7929
19.676	23.7244
19.694	23.6549
19.712	23.5843
19.73	23.5143
19.748	23.4449
19.766	23.3776
19.784	23.3125
19.802	23.2503
19.82	23.1914
19.838	23.136
19.856	23.0844
19.874	23.0365
19.892	22.9922
19.91	22.9516
19.928	22.9141
19.946	22.8796
19.964	22.8477
19.982	22.8184
20	22.7915
20.018	22.7669
20.036	22.7446
20.054	22.7246
20.072	22.7069
20.09	22.6916
20.108	22.6786
20.126	22.6686
20.144	22.6613
20.162	22.6573
20.18	22.6567
20.198	22.6594
20.216	22.6657
20.234	22.6754
20.252	22.6882
20.27	22.7042
20.288	22.7221
20.306	22.7421
20.324	22.7631
20.342	22.7843
20.36	22.8054
20.378	22.8248
20.396	22.8428
20.414	22.8581
20.432	22.8708
20.45	22.8801
20.468	22.8855
20.486	22.8873
20.504	22.8852
20.522	22.8795
20.54	22.8714
20.558	22.8605
20.576	22.8488
20.594	22.8368
20.612	22.8251
20.63	22.8158
20.648	22.8083
20.666	22.8049
20.684	22.8056
20.702	22.8111
20.72	22.8222
20.738	22.8386
20.756	22.8607
20.774	22.8885
20.792	22.9208
20.81	22.9577
20.828	22.9982
20.846	23.041
20.864	23.0865
20.882	23.1324
20.9	23.1787
20.918	23.2246
20.936	23.2691
20.954	23.3125
20.972	23.354
20.99	23.3935
21.008	23.4319
21.026	23.4691
21.044	23.5057
21.062	23.5433
21.08	23.5814
21.098	23.6225
21.116	23.6669
21.134	23.7152
21.152	23.7696
21.17	23.8294
21.188	23.8958
21.206	23.9696
21.224	24.0499
21.242	24.1366
21.26	24.2297
21.278	24.3269
21.296	24.4286
21.314	24.5328
21.332	24.6358
21.35	24.739
21.368	24.8366
21.386	24.9283
21.404	25.0123
21.422	25.0825
21.44	25.1407
21.458	25.1822
21.476	25.2049
21.494	25.2092
21.512	25.191
21.53	25.1509
21.548	25.0883
21.566	25.0019
21.584	24.8926
21.602	24.7619
21.62	24.6088
21.638	24.4363
21.656	24.2477
21.674	24.0415
21.692	23.8246
21.71	23.5976
21.728	23.3621
21.746	23.126
21.764	22.8868
21.782	22.6504
21.8	22.4214
21.818	22.198
21.836	21.9874
21.854	21.7899
21.872	21.6064
21.89	21.4415
21.908	21.294
21.926	21.1652
21.944	21.0568
21.962	20.9679
21.98	20.8976
21.998	20.8467
22.016	20.8135
22.034	20.7951
22.052	20.793
22.07	20.8031
22.088	20.8228
22.106	20.8535
22.124	20.8892
22.142	20.9294
22.16	20.9737
22.178	21.0166
22.196	21.0596
22.214	21.1003
22.232	21.1351
22.25	21.1656
22.268	21.1899
22.286	21.2066
22.304	21.2164
22.322	21.2189
22.34	21.2136
22.358	21.2012
22.376	21.1831
22.394	21.1587
22.412	21.1294
22.43	21.0974
22.448	21.0615
22.466	21.0243
22.484	20.9878
22.502	20.9508
22.52	20.9161
22.538	20.8847
22.556	20.856
22.574	20.8324
22.592	20.814
22.61	20.8007
22.628	20.7934
22.646	20.7923
22.664	20.7971
22.682	20.8075
22.7	20.8239
22.718	20.8455
22.736	20.8715
22.754	20.9027
22.772	20.9372
22.79	20.9735
22.808	21.0126
22.826	21.0525
22.844	21.0918
22.862	21.1312
22.88	21.1701
22.898	21.2081
22.916	21.2453
22.934	21.2825
22.952	21.3198
22.97	21.3571
22.988	21.3947
23.006	21.4326
23.024	21.4709
23.042	21.5104
23.06	21.5507
23.078	21.5923
23.096	21.6366
23.114	21.6837
23.132	21.7335
23.15	21.7869
23.168	21.8442
23.186	21.9049
23.204	21.9683
23.222	22.035
23.24	22.1042
23.258	22.174
23.276	22.2451
23.294	22.3168
23.312	22.3867
23.33	22.4554
23.348	22.5224
23.366	22.5847
23.384	22.6431
23.402	22.6969
23.42	22.7432
23.438	22.7816
23.456	22.8127
23.474	22.8348
23.492	22.8474
23.51	22.8512
23.528	22.8471
23.546	22.8347
23.564	22.8142
23.582	22.7885
23.6	22.758
23.618	22.722
23.636	22.6844
23.654	22.6469
23.672	22.6077
23.69	22.5711
23.708	22.5395
23.726	22.5109
23.744	22.4884
23.762	22.4749
23.78	22.4689
23.798	22.4715
23.816	22.4844
23.834	22.5077
23.852	22.5404
23.87	22.5822
23.888	22.633
23.906	22.6927
23.924	22.761
23.942	22.838
23.96	22.9236
23.978	23.0164
23.996	23.1162
24.014	23.2234
24.032	23.3368
24.05	23.4563
24.068	23.5826
24.086	23.713
24.104	23.8452
24.122	23.9825
24.14	24.1199
24.158	24.2507
24.176	24.3798
24.194	24.5027
24.212	24.6085
24.23	24.6976
24.248	24.7719
24.266	24.8183
24.284	24.8303
24.302	24.8156
24.32	24.7626
24.338	24.6601
24.356	24.515
24.374	24.3226
24.392	24.0741
24.41	23.7699
24.428	23.412
24.446	22.997
24.464	22.5219
24.482	21.9881
24.5	21.4017
24.518	20.767
24.536	20.0779
24.554	19.3436
24.572	18.5767
24.59	17.7709
24.608	16.9299
24.626	16.0709
24.644	15.2001
24.662	14.3083
24.68	13.4115
24.698	12.5241
24.716	11.6354
24.734	10.7541
24.752	9.896174
24.77	9.062645
24.788	8.249005
24.806	7.465229
24.824	6.719240
24.842	6.007149
24.86	5.327201
24.878	4.678568
24.896	4.063177
24.914	3.479053
24.932	2.921564
24.95	2.388000
24.968	1.880690
24.986	1.397893
25.004	0.937670
25.022	0.501451
25.04	0.088036
25.058	-0.305516
25.076	-0.680322
25.094	-1.034743
25.112	-1.371430
25.13	-1.693036
25.148	-1.997935
25.166	-2.287150
25.184	-2.563563
25.202	-2.827893
25.22	-3.078142
25.238	-3.318456
25.256	-3.553092
25.274	-3.780055
25.292	-3.999978
25.31	-4.216470
25.328	-4.431599
25.346	-4.643057
25.364	-4.852837
25.382	-5.063339
25.4	-5.272949
25.418	-5.482172
25.436	-5.695012
25.454	-5.914250
25.472	-6.136431
25.49	-6.364740
25.508	-6.603711
25.526	-6.854059
25.544	-7.113588
25.562	-7.385492
25.58	-7.672880
25.598	-7.975330
25.616	-8.291733
25.634	-8.621751
25.652	-8.966713
25.67	-9.329374
25.688	-9.702132
25.706	-10.0766
25.724	-10.4561
25.742	-10.8427
25.76	-11.2218
25.778	-11.5804
25.796	-11.9326
25.814	-12.2694
25.832	-12.5693
25.85	-12.8195
25.868	-13.0374
25.886	-13.2083
25.904	-13.3132
25.922	-13.3461
25.94	-13.3179
25.958	-13.2214
25.976	-13.0493
25.994	-12.798
26.012	-12.4735
26.03	-12.0827
26.048	-11.6305
26.066	-11.103
26.084	-10.5149
26.102	-9.889269
26.12	-9.238261
26.138	-8.539706
26.156	-7.816678
26.174	-7.098005
26.192	-6.387172
26.21	-5.662296
26.228	-4.960157
26.246	-4.319372
26.264	-3.741157
26.282	-3.208542
26.3	-2.741076
26.318	-2.357988
26.336	-2.057473
26.354	-1.832601
26.372	-1.685256
26.39	-1.618721
26.408	-1.652573
26.426	-1.764853
26.444	-1.919604
26.462	-2.090510
26.48	-2.324888
26.498	-2.584316
26.516	-2.805713
26.534	-2.948704
26.552	-3.082840
26.57	-3.151224
26.588	-3.072486
26.606	-2.801202
26.624	-2.417153
26.642	-1.855960
26.66	-1.033642
26.678	0.096617
26.696	1.467839
26.714	3.117128
26.732	5.093051
26.75	7.425236
26.768	10.0817
26.786	13.0632
26.804	16.3746
26.822	20.036
26.84	24.0642
26.858	28.3939
26.876	32.9559
26.894	37.7405
26.912	42.8297
26.93	48.1045
26.948	53.4333
26.966	58.9814
26.984	65.199
27.002	71.1491
27.02	75.804
27.028	77.049