File: Bakgrunnsmateriale/MATLAB/FTIR/ftir_data/LPE454/Mapping_121/LPE454_t114.asc
PE IR       SPECTRUM    SPECTRUM    ASCII       PEDS        1.60
  -1
LP930E~1.ASC
17/05/19
23:46:54.00
17/05/19
23:47:20.00
tln
$LPE454_t0114$<tbV0>[5.2,13.0,8.0,0.0,27,1,0]
27.028
64

2002,4.07
MIRTGS : RIGHTBACK : INTERNAL 2
MIR : ON : INTERNAL 2
OPTKBR

0.200000
8
8.000000
FILLER
RATIO
SPECTRUM
UNLOCKED 256

DOUBLE
64
COMBINED
1
0
0

0.002000
RATIO

1
0
TRUE
51149
0
LEFT NOT FITTED RIGHT NOT FITTED 0
NONE
NONE
15600
12
4.427000
51148
TRUE
1 0 8 72 0 0 0 0

15798

#HDR
-1
-1
#GR
µM
%T
2.38419e-05
0.0
2.000000
0.002000
12515
8
40.483
-4.775338
#DATA
2.000000	 -0.021624
2.018000	 0.319768
2.036000	 0.233730
2.054000	 0.445421
2.072000	 0.071161
2.090000	 0.025025
2.108000	 0.414828
2.126000	 0.944986
2.144000	 0.293951
2.162000	 -0.940942
2.180000	 34.826
2.198000	 -0.820094
2.216000	 -1.054518
2.234000	 0.511606
2.252000	 0.467917
2.270000	 0.497933
2.288000	 0.097688
2.306000	 0.256642
2.324000	 -0.041206
2.342000	 0.118234
2.360000	 0.091549
2.378000	 0.076004
2.396000	 -0.095512
2.414000	 0.554015
2.432000	 0.048834
2.450000	 -0.781393
2.468000	 0.246749
2.486000	 0.034857
2.504000	 -0.061537
2.522000	 0.152868
2.540000	 0.071036
2.558000	 0.074919
2.576000	 -0.105907
2.594000	 0.034376
2.612000	 -0.037065
2.630000	 0.040674
2.648000	 0.068512
2.666000	 0.175875
2.684000	 0.063152
2.702000	 -0.007990
2.720000	 -0.018069
2.738000	 0.122468
2.756000	 0.104601
2.774000	 -0.031237
2.792000	 -0.046840
2.810000	 0.142398
2.828000	 0.048476
2.846000	 -0.023568
2.864000	 -0.217841
2.882000	 0.089083
2.900000	 0.134864
2.918000	 0.082860
2.936000	 0.061724
2.954000	 0.030949
2.972000	 -0.096277
2.990000	 0.034427
3.008000	 0.105754
3.026000	 0.069220
3.044000	 0.107675
3.062000	 -0.031606
3.080000	 0.085913
3.098000	 -0.031423
3.116000	 0.116030
3.134000	 0.027154
3.152000	 -0.041464
3.170000	 0.091185
3.188000	 0.075659
3.206000	 0.016391
3.224000	 -0.109562
3.242000	 0.097182
3.260000	 0.077841
3.278000	 0.037990
3.296000	 0.128389
3.314000	 0.035606
3.332000	 0.114683
3.350000	 0.007355
3.368000	 -0.040615
3.386000	 0.079063
3.404000	 -0.028502
3.422000	 0.048286
3.440000	 0.104155
3.458000	 -0.083749
3.476000	 -0.004721
3.494000	 0.122315
3.512000	 0.038643
3.530000	 0.009843
3.548000	 0.089482
3.566000	 -0.055072
3.584000	 -0.008160
3.602000	 0.055056
3.620000	 -0.032710
3.638000	 -0.042566
3.656000	 -0.010945
3.674000	 0.026692
3.692000	 0.042468
3.710000	 -0.059985
3.728000	 0.054371
3.746000	 0.171822
3.764000	 0.090138
3.782000	 0.006398
3.800000	 -0.021221
3.818000	 -0.032543
3.836000	 -0.055947
3.854000	 -0.029922
3.872000	 -0.018360
3.890000	 -0.052813
3.908000	 0.117734
3.926000	 0.059353
3.944000	 -0.076091
3.962000	 0.005658
3.980000	 -0.031707
3.998000	 0.033502
4.016000	 0.043040
4.034000	 0.053099
4.052000	 0.196214
4.070000	 0.125162
4.088000	 0.158794
4.106000	 0.052603
4.124000	 -0.101355
4.141999	 0.200085
4.160000	 0.287523
4.178000	 0.311533
4.196000	 0.407852
4.214000	 0.495024
4.232000	 0.607186
4.250000	 0.689774
4.268000	 0.826284
4.286000	 1.136941
4.304000	 1.219511
4.322000	 1.540371
4.340000	 1.907822
4.358000	 2.245598
4.375999	 2.583469
4.394000	 3.070029
4.412000	 3.595527
4.430000	 4.063034
4.448000	 4.712017
4.466000	 5.367921
4.484000	 6.216818
4.502000	 7.061296
4.520000	 8.006367
4.538000	 8.910900
4.556000	 9.952931
4.574000	 11.0086
4.592000	 12.0635
4.609999	 13.1888
4.628000	 14.3492
4.646000	 15.5152
4.664000	 16.714
4.682000	 17.7125
4.700000	 18.8084
4.718000	 20.035
4.736000	 21.1017
4.754000	 22.1603
4.772000	 23.218
4.790000	 24.1538
4.808000	 25.2326
4.826000	 26.1843
4.843999	 26.8784
4.862000	 27.6931
4.880000	 28.6841
4.898000	 29.4668
4.916000	 30.1297
4.934000	 30.7213
4.952000	 31.3112
4.970000	 32.0164
4.988000	 32.5922
5.006000	 32.9882
5.024000	 33.5734
5.042000	 34.0653
5.060000	 34.4784
5.077999	 34.85
5.096000	 35.2248
5.114000	 35.5707
5.132000	 35.9444
5.150000	 36.2786
5.168000	 36.6409
5.186000	 36.9945
5.204000	 37.1513
5.222000	 37.3709
5.240000	 37.5904
5.258000	 37.8
5.276000	 38.0057
5.294000	 38.1233
5.312000	 38.2513
5.330000	 38.5231
5.348000	 38.6941
5.366000	 38.8055
5.384000	 38.9302
5.402000	 39.0608
5.420000	 39.2694
5.438000	 39.3655
5.456000	 39.4637
5.474000	 39.5553
5.492000	 39.6184
5.510000	 39.6619
5.528000	 39.8051
5.546000	 39.7494
5.564000	 39.8389
5.582000	 40.0109
5.600000	 39.9766
5.618000	 39.9848
5.636000	 40.0973
5.654000	 40.0871
5.672000	 40.1395
5.690000	 40.12
5.708000	 40.1333
5.726000	 40.2259
5.744000	 40.2371
5.762000	 40.2635
5.780000	 40.2765
5.798000	 40.264
5.816000	 40.3239
5.834000	 40.2789
5.852000	 40.2297
5.870000	 40.2387
5.888000	 40.3426
5.906000	 40.3448
5.923999	 40.3425
5.942000	 40.3963
5.960000	 40.4347
5.978000	 40.4218
5.996000	 40.3671
6.014000	 40.4452
6.032000	 40.4719
6.050000	 40.391
6.068000	 40.3716
6.086000	 40.3269
6.104000	 40.2674
6.122000	 40.2804
6.140000	 40.2623
6.158000	 40.2595
6.176000	 40.3175
6.194000	 40.3815
6.212000	 40.4398
6.230000	 40.4018
6.248000	 40.2992
6.266000	 40.2973
6.284000	 40.394
6.302000	 40.3996
6.320000	 40.2906
6.338000	 40.1791
6.356000	 40.1677
6.374000	 40.2227
6.392000	 40.2614
6.410000	 40.2065
6.428000	 40.1787
6.446000	 40.2423
6.464000	 40.2738
6.482000	 40.2056
6.500000	 40.11
6.518000	 40.1337
6.536000	 40.2323
6.554000	 40.2111
6.572000	 40.1004
6.590000	 40.0677
6.608000	 40.0939
6.626000	 40.1211
6.644000	 40.1388
6.662000	 40.1351
6.680000	 40.1393
6.698000	 40.1318
6.716000	 40.1004
6.734000	 40.0857
6.752000	 40.0776
6.770000	 40.0606
6.788000	 40.0562
6.806000	 40.0699
6.824000	 40.0177
6.842000	 39.8926
6.860000	 39.8387
6.878000	 39.8642
6.896000	 39.868
6.914000	 39.891
6.932000	 39.9761
6.950000	 40.0462
6.968000	 40.0268
6.986000	 39.9578
7.004000	 39.9149
7.022000	 39.8763
7.040000	 39.7923
7.058000	 39.7011
7.076000	 39.6669
7.094000	 39.6817
7.112000	 39.6864
7.130000	 39.6636
7.148000	 39.6535
7.166000	 39.6704
7.184000	 39.6795
7.202000	 39.6874
7.220000	 39.7187
7.238000	 39.723
7.256000	 39.6917
7.274000	 39.6825
7.292000	 39.6695
7.310000	 39.6033
7.328000	 39.524
7.346000	 39.4791
7.364000	 39.4769
7.382000	 39.5001
7.400000	 39.5021
7.418000	 39.4806
7.436000	 39.4925
7.454000	 39.5198
7.472000	 39.4971
7.490000	 39.4688
7.508000	 39.5144
7.526000	 39.6089
7.544000	 39.69
7.562000	 39.7289
7.580000	 39.7103
7.598000	 39.6461
7.616000	 39.5799
7.634000	 39.5361
7.652000	 39.5093
7.670000	 39.4927
7.688000	 39.4876
7.706000	 39.4934
7.724000	 39.4924
7.742000	 39.4563
7.760000	 39.3735
7.778000	 39.2767
7.796000	 39.2369
7.814000	 39.2876
7.832000	 39.3623
7.850000	 39.3705
7.868000	 39.3167
7.886000	 39.2719
7.904000	 39.2624
7.922000	 39.256
7.940000	 39.2371
7.958000	 39.244
7.976000	 39.3203
7.994000	 39.4355
8.012000	 39.4915
8.030000	 39.4382
8.048000	 39.3377
8.065999	 39.2717
8.084000	 39.247
8.102000	 39.2265
8.120000	 39.196
8.138000	 39.1585
8.155999	 39.116
8.173999	 39.0738
8.192000	 39.0374
8.210000	 39.0028
8.228000	 38.9678
8.246000	 38.9432
8.263999	 38.9354
8.282000	 38.9269
8.300000	 38.8954
8.318000	 38.8444
8.336000	 38.8037
8.353999	 38.7974
8.372000	 38.8221
8.390000	 38.8588
8.408000	 38.8932
8.426000	 38.9186
8.443999	 38.933
8.462000	 38.9437
8.480000	 38.9674
8.498000	 39.0121
8.516000	 39.0663
8.533999	 39.1118
8.552000	 39.139
8.570000	 39.1425
8.588000	 39.1146
8.606000	 39.0547
8.624000	 38.9774
8.641999	 38.9043
8.660000	 38.8473
8.678000	 38.8079
8.696000	 38.7886
8.714000	 38.7926
8.731999	 38.8087
8.750000	 38.8037
8.768000	 38.7467
8.786000	 38.6401
8.804000	 38.5233
8.821999	 38.4427
8.840000	 38.4197
8.858000	 38.4456
8.876000	 38.4965
8.894000	 38.552
8.911999	 38.6037
8.930000	 38.6541
8.948000	 38.7048
8.966000	 38.7485
8.984000	 38.7781
9.001999	 38.8036
9.020000	 38.8518
9.038000	 38.9372
9.056000	 39.0362
9.074000	 39.0995
9.092000	 39.0931
9.109999	 39.0232
9.128000	 38.9238
9.146000	 38.828
9.164000	 38.749
9.182000	 38.6804
9.199999	 38.6049
9.218000	 38.5065
9.236000	 38.3856
9.254000	 38.267
9.272000	 38.1898
9.289999	 38.1808
9.308000	 38.2337
9.326000	 38.3101
9.344000	 38.3649
9.362000	 38.3753
9.379999	 38.3541
9.398000	 38.3356
9.416000	 38.3449
9.434000	 38.3788
9.452000	 38.4095
9.469999	 38.4127
9.488000	 38.388
9.506000	 38.3584
9.524000	 38.3492
9.542000	 38.368
9.560000	 38.4024
9.577999	 38.433
9.596000	 38.4461
9.614000	 38.4402
9.632000	 38.4212
9.650000	 38.3992
9.667999	 38.3855
9.686000	 38.3887
9.704000	 38.4116
9.722000	 38.4474
9.740000	 38.4799
9.757999	 38.4878
9.776000	 38.4522
9.794000	 38.3675
9.812000	 38.2478
9.830000	 38.1206
9.847999	 38.0126
9.866000	 37.9366
9.884000	 37.8893
9.902000	 37.8595
9.920000	 37.8399
9.937999	 37.8321
9.956000	 37.842
9.974000	 37.8703
9.992000	 37.9076
10.01	37.9367
10.028	37.9426
10.046	37.9228
10.064	37.8901
10.082	37.8662
10.1	37.8697
10.118	37.9068
10.136	37.9685
10.154	38.0383
10.172	38.099
10.19	38.1379
10.208	38.149
10.226	38.1321
10.244	38.0938
10.262	38.0479
10.28	38.0101
10.298	37.9923
10.316	37.9959
10.334	38.0127
10.352	38.0309
10.37	38.0427
10.388	38.0485
10.406	38.0536
10.424	38.063
10.442	38.0771
10.46	38.0928
10.478	38.1058
10.496	38.1113
10.514	38.1037
10.532	38.0758
10.55	38.0231
10.568	37.9479
10.586	37.861
10.604	37.7758
10.622	37.703
10.64	37.6436
10.658	37.5915
10.676	37.5391
10.694	37.485
10.712	37.4354
10.73	37.4002
10.748	37.3859
10.766	37.3923
10.784	37.4132
10.802	37.4393
10.82	37.463
10.838	37.4788
10.856	37.4847
10.874	37.4814
10.892	37.4725
10.91	37.4631
10.928	37.4586
10.946	37.4627
10.964	37.4755
10.982	37.494
11	37.5137
11.018	37.5308
11.036	37.5443
11.054	37.5548
11.072	37.564
11.09	37.5726
11.108	37.5799
11.126	37.5851
11.144	37.5887
11.162	37.5919
11.18	37.5956
11.198	37.5991
11.216	37.5982
11.234	37.5879
11.252	37.5641
11.27	37.5264
11.288	37.4788
11.306	37.4291
11.324	37.3873
11.342	37.3634
11.36	37.3628
11.378	37.3841
11.396	37.4186
11.414	37.4513
11.432	37.4656
11.45	37.4494
11.468	37.3975
11.486	37.3136
11.504	37.2083
11.522	37.0966
11.54	36.9926
11.558	36.9074
11.576	36.8459
11.594	36.8069
11.612	36.7845
11.63	36.77
11.648	36.7558
11.666	36.7375
11.684	36.7154
11.702	36.6943
11.72	36.6805
11.738	36.6792
11.756	36.6912
11.774	36.7129
11.792	36.7366
11.81	36.7544
11.828	36.7604
11.846	36.752
11.864	36.73
11.882	36.6981
11.9	36.6609
11.918	36.6235
11.936	36.5915
11.954	36.5699
11.972	36.5641
11.99	36.5781
12.008	36.6125
12.026	36.6638
12.044	36.724
12.062	36.7819
12.08	36.8272
12.098	36.8526
12.116	36.8576
12.134	36.8481
12.152	36.8347
12.17	36.8276
12.188	36.8341
12.206	36.8552
12.224	36.8873
12.242	36.9239
12.26	36.9591
12.278	36.9883
12.296	37.0096
12.314	37.0222
12.332	37.0254
12.35	37.0179
12.368	36.9985
12.386	36.9666
12.404	36.9231
12.422	36.8703
12.44	36.8118
12.458	36.7507
12.476	36.6892
12.494	36.6279
12.512	36.5659
12.53	36.5029
12.548	36.4392
12.566	36.3768
12.584	36.3189
12.602	36.2692
12.62	36.2301
12.638	36.2018
12.656	36.1824
12.674	36.1684
12.692	36.1565
12.71	36.1442
12.728	36.1311
12.746	36.1185
12.764	36.1085
12.782	36.1031
12.8	36.1031
12.818	36.1077
12.836	36.1149
12.854	36.1217
12.872	36.1263
12.89	36.127
12.908	36.1233
12.926	36.1156
12.944	36.1043
12.962	36.0902
12.98	36.074
12.998	36.0567
13.016	36.0397
13.034	36.0248
13.052	36.0143
13.07	36.0105
13.088	36.015
13.106	36.0288
13.124	36.0519
13.142	36.083
13.16	36.1208
13.178	36.1638
13.196	36.2109
13.214	36.2612
13.232	36.3141
13.25	36.3686
13.268	36.4231
13.286	36.4744
13.304	36.5184
13.322	36.5502
13.34	36.5652
13.358	36.5592
13.376	36.5304
13.394	36.479
13.412	36.4078
13.43	36.322
13.448	36.2282
13.466	36.1333
13.484	36.044
13.502	35.9654
13.52	35.901
13.538	35.8519
13.556	35.817
13.574	35.7938
13.592	35.7785
13.61	35.7671
13.628	35.7558
13.646	35.7416
13.664	35.7233
13.682	35.7
13.7	35.6727
13.718	35.6431
13.736	35.6133
13.754	35.5852
13.772	35.5602
13.79	35.5389
13.808	35.5212
13.826	35.5059
13.844	35.4915
13.862	35.4756
13.88	35.4563
13.898	35.4321
13.916	35.4017
13.934	35.3648
13.952	35.3212
13.97	35.2717
13.988	35.2173
14.006	35.1592
14.024	35.0986
14.042	35.0371
14.06	34.9767
14.078	34.919
14.096	34.8658
14.114	34.8188
14.132	34.7796
14.15	34.7492
14.168	34.7275
14.186	34.7134
14.204	34.7049
14.222	34.6995
14.24	34.6941
14.258	34.6864
14.276	34.6749
14.294	34.6594
14.312	34.6413
14.33	34.6234
14.348	34.6096
14.366	34.6041
14.384	34.611
14.402	34.633
14.42	34.6712
14.438	34.7247
14.456	34.7906
14.474	34.8647
14.492	34.9417
14.51	35.0156
14.528	35.0815
14.546	35.1359
14.564	35.1772
14.582	35.2056
14.6	35.223
14.618	35.2327
14.636	35.2391
14.654	35.246
14.672	35.2568
14.69	35.2737
14.708	35.2976
14.726	35.3284
14.744	35.3641
14.762	35.4026
14.78	35.441
14.798	35.4766
14.816	35.5067
14.834	35.5288
14.852	35.5413
14.87	35.5432
14.888	35.5346
14.906	35.5159
14.924	35.4883
14.942	35.4535
14.96	35.4131
14.978	35.369
14.996	35.3228
15.014	35.2756
15.032	35.2282
15.05	35.1807
15.068	35.1334
15.086	35.0862
15.104	35.0389
15.122	34.9913
15.14	34.9437
15.158	34.8968
15.176	34.8513
15.194	34.8085
15.212	34.7696
15.23	34.7357
15.248	34.7077
15.266	34.6864
15.284	34.6721
15.302	34.6645
15.32	34.6629
15.338	34.6666
15.356	34.6743
15.374	34.6846
15.392	34.6961
15.41	34.7076
15.428	34.7179
15.446	34.7256
15.464	34.7297
15.482	34.7293
15.5	34.7233
15.518	34.7105
15.536	34.6901
15.554	34.6612
15.572	34.6232
15.59	34.5754
15.608	34.5178
15.626	34.4506
15.644	34.3745
15.662	34.2909
15.68	34.2017
15.698	34.109
15.716	34.0155
15.734	33.9245
15.752	33.8386
15.77	33.7605
15.788	33.6936
15.806	33.6396
15.824	33.6001
15.842	33.5763
15.86	33.5683
15.878	33.5755
15.896	33.5968
15.914	33.6301
15.932	33.6728
15.95	33.7227
15.968	33.7771
15.986	33.8328
16.004	33.8879
16.022	33.9404
16.04	33.9886
16.058	34.0317
16.076	34.0692
16.094	34.1009
16.112	34.127
16.13	34.1475
16.148	34.163
16.166	34.1737
16.184	34.1798
16.202	34.1817
16.22	34.1795
16.238	34.1733
16.256	34.1636
16.274	34.1504
16.292	34.1345
16.31	34.1163
16.328	34.0967
16.346	34.0766
16.364	34.0566
16.382	34.038
16.4	34.0213
16.418	34.0068
16.436	33.9951
16.454	33.9862
16.472	33.98
16.49	33.9761
16.508	33.9743
16.526	33.9741
16.544	33.9752
16.562	33.9775
16.58	33.9812
16.598	33.9864
16.616	33.9934
16.634	34.0027
16.652	34.0148
16.67	34.0301
16.688	34.0489
16.706	34.0711
16.724	34.0965
16.742	34.1244
16.76	34.1536
16.778	34.1831
16.796	34.2109
16.814	34.2355
16.832	34.2557
16.85	34.2692
16.868	34.2752
16.886	34.2725
16.904	34.2605
16.922	34.2391
16.94	34.2086
16.958	34.1701
16.976	34.1244
16.994	34.0733
17.012	34.0185
17.03	33.9612
17.048	33.9037
17.066	33.8472
17.084	33.793
17.102	33.7424
17.12	33.6957
17.138	33.6535
17.156	33.6157
17.174	33.5823
17.192	33.5525
17.21	33.526
17.228	33.5022
17.246	33.4804
17.264	33.4603
17.282	33.4416
17.3	33.424
17.318	33.4077
17.336	33.3929
17.354	33.3798
17.372	33.369
17.39	33.3609
17.408	33.356
17.426	33.3546
17.444	33.357
17.462	33.3629
17.48	33.3724
17.498	33.3849
17.516	33.3996
17.534	33.4161
17.552	33.4329
17.57	33.4496
17.588	33.4644
17.606	33.4767
17.624	33.4853
17.642	33.4894
17.66	33.4884
17.678	33.4816
17.696	33.469
17.714	33.4504
17.732	33.4263
17.75	33.3971
17.768	33.364
17.786	33.3273
17.804	33.2886
17.822	33.2482
17.84	33.2078
17.858	33.1679
17.876	33.1297
17.894	33.0939
17.912	33.0609
17.93	33.0314
17.948	33.0056
17.966	32.9837
17.984	32.9656
18.002	32.9514
18.02	32.9411
18.038	32.9344
18.056	32.9314
18.074	32.9318
18.092	32.9353
18.11	32.9418
18.128	32.9505
18.146	32.9612
18.164	32.973
18.182	32.9857
18.2	32.9987
18.218	33.011
18.236	33.0222
18.254	33.0313
18.272	33.0378
18.29	33.0411
18.308	33.0408
18.326	33.0368
18.344	33.029
18.362	33.0178
18.38	33.0035
18.398	32.9868
18.416	32.9684
18.434	32.9494
18.452	32.9304
18.47	32.9122
18.488	32.8951
18.506	32.8797
18.524	32.8654
18.542	32.8524
18.56	32.8395
18.578	32.8267
18.596	32.8118
18.614	32.7948
18.632	32.7733
18.65	32.7474
18.668	32.7149
18.686	32.6759
18.704	32.6292
18.722	32.5751
18.74	32.5135
18.758	32.4448
18.776	32.3703
18.794	32.2907
18.812	32.208
18.83	32.1232
18.848	32.0383
18.866	31.9546
18.884	31.8747
18.902	31.7999
18.92	31.7326
18.938	31.674
18.956	31.6264
18.974	31.5906
18.992	31.5681
19.01	31.5592
19.028	31.5652
19.046	31.5858
19.064	31.6214
19.082	31.671
19.1	31.7342
19.118	31.8094
19.136	31.8951
19.154	31.9895
19.172	32.0892
19.19	32.193
19.208	32.2963
19.226	32.3983
19.244	32.4936
19.262	32.5819
19.28	32.6587
19.298	32.7241
19.316	32.775
19.334	32.8118
19.352	32.8341
19.37	32.842
19.388	32.8381
19.406	32.8221
19.424	32.7987
19.442	32.7675
19.46	32.7341
19.478	32.6988
19.496	32.6657
19.514	32.6359
19.532	32.6115
19.55	32.5945
19.568	32.5845
19.586	32.5822
19.604	32.5867
19.622	32.5969
19.64	32.6119
19.658	32.6277
19.676	32.6443
19.694	32.6565
19.712	32.6651
19.73	32.6642
19.748	32.654
19.766	32.6309
19.784	32.5941
19.802	32.5425
19.82	32.4746
19.838	32.3913
19.856	32.2922
19.874	32.1783
19.892	32.0518
19.91	31.9125
19.928	31.7652
19.946	31.6089
19.964	31.4497
19.982	31.2873
20	31.1267
20.018	30.97
20.036	30.8192
20.054	30.6791
20.072	30.5493
20.09	30.4349
20.108	30.3349
20.126	30.2529
20.144	30.1892
20.162	30.1444
20.18	30.1195
20.198	30.1135
20.216	30.1259
20.234	30.156
20.252	30.2007
20.27	30.2604
20.288	30.3295
20.306	30.4081
20.324	30.4915
20.342	30.5768
20.36	30.6627
20.378	30.7431
20.396	30.819
20.414	30.8852
20.432	30.9418
20.45	30.9865
20.468	31.0175
20.486	31.0356
20.504	31.04
20.522	31.0311
20.54	31.0114
20.558	30.9802
20.576	30.9413
20.594	30.8957
20.612	30.8449
20.63	30.7932
20.648	30.7397
20.666	30.6888
20.684	30.6401
20.702	30.5956
20.72	30.5568
20.738	30.5232
20.756	30.4952
20.774	30.473
20.792	30.4548
20.81	30.441
20.828	30.43
20.846	30.4197
20.864	30.4106
20.882	30.3995
20.9	30.3867
20.918	30.371
20.936	30.3511
20.954	30.3277
20.972	30.3005
20.99	30.2692
21.008	30.2361
21.026	30.2012
21.044	30.1658
21.062	30.1332
21.08	30.1023
21.098	30.0775
21.116	30.0595
21.134	30.0492
21.152	30.0503
21.17	30.0617
21.188	30.0852
21.206	30.1215
21.224	30.1698
21.242	30.2295
21.26	30.301
21.278	30.381
21.296	30.47
21.314	30.5659
21.332	30.6646
21.35	30.7676
21.368	30.8699
21.386	30.9705
21.404	31.0685
21.422	31.1595
21.44	31.2445
21.458	31.3213
21.476	31.3887
21.494	31.4472
21.512	31.4955
21.53	31.5337
21.548	31.5623
21.566	31.5816
21.584	31.5915
21.602	31.5933
21.62	31.5868
21.638	31.5727
21.656	31.5519
21.674	31.5242
21.692	31.4901
21.71	31.4497
21.728	31.4031
21.746	31.3507
21.764	31.2927
21.782	31.2288
21.8	31.159
21.818	31.0834
21.836	31.0023
21.854	30.9156
21.872	30.8235
21.89	30.7267
21.908	30.6247
21.926	30.5193
21.944	30.4114
21.962	30.3007
21.98	30.1901
21.998	30.0792
22.016	29.9693
22.034	29.8634
22.052	29.7604
22.07	29.6626
22.088	29.5719
22.106	29.4873
22.124	29.4109
22.142	29.3432
22.16	29.2838
22.178	29.2338
22.196	29.1933
22.214	29.1617
22.232	29.1386
22.25	29.1244
22.268	29.1179
22.286	29.1189
22.304	29.1274
22.322	29.1423
22.34	29.1633
22.358	29.1904
22.376	29.2225
22.394	29.2596
22.412	29.3015
22.43	29.3471
22.448	29.3968
22.466	29.4502
22.484	29.5069
22.502	29.567
22.52	29.6305
22.538	29.6972
22.556	29.7672
22.574	29.8394
22.592	29.9141
22.61	29.9907
22.628	30.0676
22.646	30.1453
22.664	30.223
22.682	30.2992
22.7	30.3746
22.718	30.4482
22.736	30.5184
22.754	30.586
22.772	30.65
22.79	30.7096
22.808	30.7653
22.826	30.8159
22.844	30.8606
22.862	30.8999
22.88	30.9334
22.898	30.9609
22.916	30.9827
22.934	30.998
22.952	31.0068
22.97	31.0093
22.988	31.0038
23.006	30.9905
23.024	30.9693
23.042	30.9383
23.06	30.8972
23.078	30.8465
23.096	30.7855
23.114	30.714
23.132	30.6324
23.15	30.5409
23.168	30.4393
23.186	30.328
23.204	30.2074
23.222	30.0767
23.24	29.9371
23.258	29.7908
23.276	29.6366
23.294	29.4761
23.312	29.3139
23.33	29.1485
23.348	28.9816
23.366	28.8189
23.384	28.6593
23.402	28.5038
23.42	28.3589
23.438	28.2241
23.456	28.0994
23.474	27.99
23.492	27.8966
23.51	27.8181
23.528	27.7577
23.546	27.7165
23.564	27.6934
23.582	27.6879
23.6	27.7004
23.618	27.7309
23.636	27.7759
23.654	27.8346
23.672	27.9086
23.69	27.9908
23.708	28.0774
23.726	28.1725
23.744	28.2676
23.762	28.3555
23.78	28.4419
23.798	28.5193
23.816	28.5785
23.834	28.6246
23.852	28.653
23.87	28.6557
23.888	28.6347
23.906	28.5894
23.924	28.5149
23.942	28.4101
23.96	28.2769
23.978	28.1151
23.996	27.9235
24.014	27.7027
24.032	27.4573
24.05	27.1893
24.068	26.8957
24.086	26.5839
24.104	26.2602
24.122	25.9186
24.14	25.5671
24.158	25.2169
24.176	24.8636
24.194	24.5102
24.212	24.1675
24.23	23.8369
24.248	23.5155
24.266	23.2115
24.284	22.9301
24.302	22.6677
24.32	22.4252
24.338	22.2045
24.356	22.0065
24.374	21.8279
24.392	21.6648
24.41	21.5213
24.428	21.3939
24.446	21.2719
24.464	21.1528
24.482	21.0417
24.5	20.9255
24.518	20.7934
24.536	20.655
24.554	20.5005
24.572	20.3155
24.59	20.1041
24.608	19.8656
24.626	19.5881
24.644	19.2655
24.662	18.904
24.68	18.4992
24.698	18.0465
24.716	17.5461
24.734	17.001
24.752	16.4143
24.77	15.7821
24.788	15.1064
24.806	14.3996
24.824	13.669
24.842	12.9043
24.86	12.1201
24.878	11.334
24.896	10.5365
24.914	9.732243
24.932	8.943703
24.95	8.181218
24.968	7.430359
24.986	6.710134
25.004	6.040746
25.022	5.411976
25.04	4.827773
25.058	4.305233
25.076	3.852396
25.094	3.459562
25.112	3.134385
25.13	2.885117
25.148	2.710470
25.166	2.607786
25.184	2.576720
25.202	2.619329
25.22	2.736821
25.238	2.919701
25.256	3.158618
25.274	3.460881
25.292	3.821574
25.31	4.226323
25.328	4.668052
25.346	5.157301
25.364	5.680574
25.382	6.222320
25.4	6.788082
25.418	7.378049
25.436	7.976344
25.454	8.571449
25.472	9.175277
25.49	9.778343
25.508	10.3665
25.526	10.9387
25.544	11.5015
25.562	12.0417
25.58	12.5467
25.598	13.0253
25.616	13.4737
25.634	13.8798
25.652	14.2364
25.67	14.5525
25.688	14.8211
25.706	15.033
25.724	15.1879
25.742	15.2897
25.76	15.3331
25.778	15.3134
25.796	15.2329
25.814	15.0921
25.832	14.8889
25.85	14.6214
25.868	14.2897
25.886	13.897
25.904	13.4467
25.922	12.9375
25.94	12.3678
25.958	11.7458
25.976	11.0796
25.994	10.3623
26.012	9.596600
26.03	8.796293
26.048	7.972459
26.066	7.109290
26.084	6.219428
26.102	5.325269
26.12	4.439314
26.138	3.541012
26.156	2.649794
26.174	1.790308
26.192	0.970063
26.21	0.172468
26.228	-0.585595
26.246	-1.286054
26.264	-1.929996
26.282	-2.525089
26.3	-3.058757
26.318	-3.518671
26.336	-3.908035
26.354	-4.229993
26.372	-4.479832
26.39	-4.653067
26.408	-4.750457
26.426	-4.774379
26.444	-4.726284
26.462	-4.606942
26.48	-4.412868
26.498	-4.148574
26.516	-3.820512
26.534	-3.432717
26.552	-2.977974
26.57	-2.463257
26.588	-1.898195
26.606	-1.288134
26.624	-0.623825
26.642	0.086344
26.66	0.831633
26.678	1.607337
26.696	2.423887
26.714	3.270633
26.732	4.134919
26.75	5.011084
26.768	5.909776
26.786	6.822085
26.804	7.737521
26.822	8.653712
26.84	9.581886
26.858	10.5076
26.876	11.4147
26.894	12.2985
26.912	13.1757
26.93	14.0275
26.948	14.8328
26.966	15.5989
26.984	16.3702
27.002	17.0683
27.02	17.6069
27.028	17.7553