File: Bakgrunnsmateriale/MATLAB/FTIR/ftir_data/LPE454/Mapping_121/LPE454_t116_cm-1.asc
PE IR       SPECTRUM    SPECTRUM    ASCII       PEDS        1.60
  -1
LP0958~1.ASC
17/05/20
00:10:35.00
17/05/20
00:10:35.00
tln
$LPE454_t0116$<tbV0>[0.0,13.0,8.0,0.0,27,1,0]
370
64

2002,4.07
MIRTGS : RIGHTBACK : INTERNAL 2
MIR : ON : INTERNAL 2
OPTKBR

0.200000
8
8.000000
FILLER
RATIO
SPECTRUM
UNLOCKED 256

DOUBLE
64
COMBINED
1
0
0

1.000000
RATIO

1
0
TRUE
51149
0
LEFT NOT FITTED RIGHT NOT FITTED 0
NONE
NONE
15600
12
4.427000
51148
TRUE
1 0 8 72 0 0 0 0

15798

#HDR
-1
-1
#GR
CM-1
%T
2.38419e-05
0.0
5000
-1.000000
4631
8
45.6287
-21.7255
#DATA
5000	0.403785
4996	0.334858
4992	0.384426
4988	0.477790
4984	0.456070
4980	0.226020
4976	0.009679
4972	0.107884
4968	0.360488
4964	0.437927
4960	0.322604
4956	0.218486
4952	0.284194
4948	0.333356
4944	0.260305
4940	0.242543
4936	0.295424
4932	0.450253
4928	0.658702
4924	0.720906
4920	0.608205
4916	0.436663
4912	0.229477
4908	0.005960
4904	-0.088095
4900	0.013780
4896	0.215530
4892	0.219178
4888	0.040578
4884	0.088214
4880	0.348973
4876	0.451159
4872	0.317001
4868	0.175452
4864	0.110220
4860	0.155735
4856	0.191831
4852	0.162935
4848	0.187301
4844	0.147461
4840	-0.014948
4836	-0.080609
4832	-0.025033
4828	-0.002646
4824	-0.070214
4820	0.026154
4816	0.281310
4812	0.310516
4808	0.217771
4804	0.134468
4800	0.125718
4796	0.192141
4792	0.132083
4788	0.067925
4784	0.143218
4780	0.153803
4776	0.121974
4772	0.193881
4768	0.136685
4764	0.085020
4760	0.254130
4756	0.312900
4752	0.262260
4748	0.233888
4744	0.306224
4740	0.509762
4736	0.563740
4732	0.466942
4728	0.410985
4724	0.361490
4720	0.399899
4716	0.543785
4712	0.377559
4708	0.077033
4704	0.143265
4700	0.235629
4696	0.176858
4692	0.232672
4688	0.337386
4684	0.353455
4680	0.388693
4676	0.457406
4672	0.205326
4668	-0.289463
4664	-0.389862
4660	-0.177097
4656	0.034403
4652	0.096225
4648	-0.111675
4644	-0.275850
4640	-0.271773
4636	-0.291156
4632	-0.348019
4628	-0.251865
4624	-0.111222
4620	-0.217413
4616	-0.882554
4612	-1.683998
4608	-1.915383
4604	-1.074886
4600	0.547480
4596	2.798032
4592	4.800415
4588	14.8515
4584	27.0383
4580	21.2474
4576	3.496861
4572	-6.428003
4568	-4.783916
4564	-1.093816
4560	-0.018429
4556	0.198650
4552	0.569820
4548	0.201869
4544	-0.408053
4540	-0.600647
4536	-0.843048
4532	-0.717735
4528	-0.195121
4524	0.079655
4520	0.374078
4516	0.546622
4512	0.397896
4508	0.274586
4504	0.313949
4500	0.318145
4496	0.344300
4492	0.599527
4488	0.779414
4484	0.622415
4480	0.451564
4476	0.433969
4472	0.490570
4468	0.503301
4464	0.355410
4460	0.216746
4456	0.181818
4452	0.119543
4448	0.120139
4444	0.127625
4440	0.036311
4436	0.050330
4432	0.174665
4428	0.233650
4424	0.156307
4420	0.059413
4416	0.136160
4412	0.203704
4408	0.128436
4404	0.103712
4400	0.148439
4396	0.253152
4392	0.279998
4388	0.147867
4384	0.039267
4380	-0.075268
4376	-0.074720
4372	0.062179
4368	0.157856
4364	0.325703
4360	0.392985
4356	0.204014
4352	0.092220
4348	0.120902
4344	0.071597
4340	-0.048589
4336	-0.070071
4332	0.020551
4328	0.036764
4324	-0.003504
4320	0.183510
4316	0.487279
4312	0.560498
4308	0.438666
4304	0.303244
4300	0.148558
4296	0.025820
4292	0.043773
4288	0.132846
4284	0.205111
4280	0.391411
4276	0.455760
4272	0.124359
4268	-0.178503
4264	-0.157642
4260	0.030589
4256	0.198936
4252	0.231957
4248	0.224828
4244	0.170540
4240	0.114154
4236	0.199747
4232	0.302100
4228	0.349330
4224	0.300097
4220	0.086140
4216	-0.099730
4212	-0.028276
4208	0.077533
4204	0.142240
4200	0.374388
4196	0.507593
4192	0.279808
4188	-0.013589
4184	0.039172
4180	0.224232
4176	0.130510
4172	-0.136828
4168	-0.235319
4164	-0.025892
4160	0.129866
4156	-0.044727
4152	-0.439071
4148	-0.558733
4144	-0.023245
4140	0.786924
4136	1.281380
4132	1.177024
4128	0.792765
4124	0.428676
4120	-0.033378
4116	-0.399208
4112	-0.500583
4108	-0.217723
4104	0.176620
4100	-0.051856
4096	-0.531005
4092	-0.304675
4088	0.799083
4084	1.486229
4080	0.936961
4076	0.165987
4072	-0.185513
4068	-0.258421
4064	-0.452017
4060	-0.624990
4056	-0.310635
4052	0.115442
4048	0.225639
4044	0.199151
4040	0.099372
4036	-0.041103
4032	-0.005674
4028	0.119996
4024	0.230693
4020	0.299596
4016	0.223255
4012	0.143456
4008	0.143265
4004	0.102710
4000	0.082468
3996	0.055694
3992	-0.037050
3988	-0.037145
3984	0.053954
3980	0.088071
3976	-0.010800
3972	-0.061845
3968	0.044584
3964	0.159621
3960	0.214147
3956	0.182747
3952	0.102543
3948	0.069451
3944	0.090718
3940	0.127196
3936	0.146412
3932	0.113964
3928	0.039482
3924	0.016117
3920	0.061011
3916	0.075888
3912	0.083732
3908	0.133180
3904	0.160598
3900	0.153231
3896	0.174641
3892	0.186634
3888	0.104212
3884	0.014567
3880	0.015044
3876	0.035429
3872	-0.042033
3868	-0.191497
3864	-0.163054
3860	0.061321
3856	0.154089
3852	0.056743
3848	-0.040149
3844	0.010442
3840	0.077700
3836	-0.007724
3832	-0.011777
3828	0.073933
3824	0.053739
3820	0.042533
3816	0.069904
3812	0.075030
3808	0.081419
3804	0.036549
3800	-0.035095
3796	-0.015902
3792	0.057792
3788	0.073790
3784	0.025010
3780	0.007653
3776	0.112628
3772	0.217795
3768	0.194334
3764	0.101256
3760	0.009989
3756	-0.074005
3752	-0.157141
3748	-0.152754
3744	0.030684
3740	0.235223
3736	0.178742
3732	-0.037431
3728	-0.120663
3724	-0.066971
3720	-0.013041
3716	0.039911
3712	0.132679
3708	0.123643
3704	0.032091
3700	-0.001311
3696	-0.010395
3692	-0.007462
3688	0.018692
3684	0.029921
3680	0.029587
3676	0.022602
3672	0.008082
3668	-0.001168
3664	0.017714
3660	0.078439
3656	0.123214
3652	0.098943
3648	0.027012
3644	0.009870
3640	0.021100
3636	-0.006198
3632	-0.002932
3628	0.025725
3624	-0.003027
3620	-0.042462
3616	-0.058174
3612	-0.095176
3608	-0.088882
3604	0.001502
3600	0.045657
3596	0.019478
3592	0.060153
3588	0.106167
3584	0.062203
3580	0.016760
3576	-0.000429
3572	-0.007915
3568	0.012397
3564	0.064229
3560	0.091814
3556	0.090718
3552	0.085186
3548	0.131535
3544	0.232768
3540	0.234889
3536	0.151729
3532	0.120425
3528	0.154566
3524	0.206947
3520	0.186443
3516	0.084257
3512	0.029730
3508	0.041127
3504	0.076746
3500	0.124788
3496	0.141572
3492	0.131177
3488	0.095510
3484	0.024080
3480	-0.066852
3476	-0.064682
3472	0.091767
3468	0.211739
3464	0.239443
3460	0.255155
3456	0.195336
3452	0.116777
3448	0.126099
3444	0.158119
3440	0.148582
3436	0.164723
3432	0.223731
3428	0.214910
3424	0.154042
3420	0.090312
3416	0.000619
3412	-0.064873
3408	-0.023841
3404	0.087213
3400	0.148963
3396	0.139403
3392	0.064921
3388	-0.002360
3384	0.001001
3380	-0.043988
3376	-0.086164
3372	-0.065231
3368	-0.044417
3364	0.001716
3360	0.043487
3356	0.027513
3352	0.017905
3348	-0.000286
3344	0.005316
3340	0.045299
3336	0.025486
3332	-0.006461
3328	0.037336
3324	0.108981
3320	0.133562
3316	0.146555
3312	0.138521
3308	0.061798
3304	-0.027084
3300	-0.036859
3296	0.021576
3292	0.055003
3288	0.025200
3284	-0.010776
3280	-0.027847
3276	-0.030636
3272	0.003147
3268	0.064945
3264	0.161290
3260	0.213241
3256	0.130558
3252	0.043249
3248	0.037240
3244	0.054430
3240	0.080156
3236	0.114274
3232	0.092458
3228	0.042629
3224	0.101017
3220	0.151276
3216	0.054240
3212	-0.036168
3208	-0.004363
3204	0.078392
3200	0.083065
3196	0.089979
3192	0.174713
3188	0.150823
3184	-0.011849
3180	-0.114560
3176	-0.065994
3172	0.003433
3168	0.032281
3164	0.026559
3160	-0.025391
3156	-0.050354
3152	-0.031542
3148	-0.002503
3144	0.048089
3140	0.107955
3136	0.118374
3132	0.107860
3128	0.107240
3124	0.056695
3120	-0.014710
3116	-0.031185
3112	-0.044298
3108	-0.061488
3104	-0.003671
3100	0.061726
3096	0.064110
3092	0.075650
3088	0.078988
3084	0.023365
3080	-0.036072
3076	-0.096940
3072	-0.144553
3068	-0.141716
3064	-0.124883
3060	-0.108456
3056	-0.022673
3052	0.083160
3048	0.099325
3044	0.097703
3040	0.082683
3036	0.035309
3032	0.012159
3028	-0.014662
3024	-0.056385
3020	-0.080394
3016	-0.030207
3012	0.046968
3008	0.078368
3004	0.091958
3000	0.100541
2996	0.102519
2992	0.056457
2988	0.017213
2984	0.084471
2980	0.155925
2976	0.150656
2972	0.108528
2968	0.061488
2964	0.008916
2960	-0.030326
2956	-0.014638
2952	0.016045
2948	0.042772
2944	0.115132
2940	0.172734
2936	0.123119
2932	0.082945
2928	0.138211
2924	0.176548
2920	0.140523
2916	0.048947
2912	-0.036191
2908	-0.042843
2904	0.009584
2900	0.084447
2896	0.134944
2892	0.062489
2888	-0.049448
2884	-0.059962
2880	0.003433
2876	0.078797
2872	0.092744
2868	0.036716
2864	0.012850
2860	-0.008106
2856	0.000357
2852	0.057387
2848	0.082159
2844	0.078821
2840	0.005984
2836	-0.043845
2832	-0.009822
2828	-0.028657
2824	-0.022888
2820	0.093579
2816	0.149703
2812	0.110960
2808	0.065541
2804	0.038528
2800	0.038409
2796	0.039482
2792	0.045084
2788	0.069737
2784	0.058126
2780	-0.008368
2776	-0.040435
2772	0.017380
2768	0.076603
2764	0.079083
2760	0.064897
2756	0.047779
2752	0.013923
2748	-0.020313
2744	0.014686
2740	0.085687
2736	0.131392
2732	0.094723
2728	0.020790
2724	0.026369
2720	0.024509
2716	0.027132
2712	0.066328
2708	0.059843
2704	0.063276
2700	0.053501
2696	0.009083
2692	-0.001835
2688	0.012040
2684	0.058174
2680	0.115132
2676	0.092363
2672	0.045776
2668	0.063848
2664	0.080490
2660	0.024032
2656	-0.048875
2652	-0.063180
2648	-0.024962
2644	0.032639
2640	0.041890
2636	0.044322
2632	0.057339
2628	-0.009703
2624	-0.076556
2620	-0.057911
2616	-0.008940
2612	-0.001406
2608	-0.013637
2604	0.015211
2600	0.064301
2596	0.076556
2592	0.066018
2588	0.075578
2584	0.068521
2580	0.024652
2576	0.018882
2572	0.063586
2568	0.099396
2564	0.084924
2560	0.002026
2556	-0.059103
2552	-0.030827
2548	0.002980
2544	0.012087
2540	0.027060
2536	0.050759
2532	0.082325
2528	0.081753
2524	0.047826
2520	0.033879
2516	0.059199
2512	0.096702
2508	0.079488
2504	0.043225
2500	0.032162
2496	-0.001931
2492	-0.006580
2488	0.028347
2484	0.029039
2480	0.022315
2476	0.035643
2472	0.036311
2468	0.004839
2464	-0.037169
2460	-0.036454
2456	0.009703
2452	0.010871
2448	-0.018048
2444	0.038504
2440	0.094866
2436	0.036621
2432	0.004029
2428	0.077223
2424	0.124669
2420	0.067329
2416	-0.065612
2412	-0.108361
2408	0.017333
2404	0.120568
2400	0.106143
2396	0.069761
2392	0.063347
2388	0.039052
2384	0.028157
2380	0.069093
2376	0.136613
2372	0.206542
2368	0.216007
2364	0.200772
2360	0.221920
2356	0.253748
2352	0.277042
2348	0.312995
2344	0.378394
2340	0.448822
2336	0.498294
2332	0.525307
2328	0.556540
2324	0.610756
2320	0.688338
2316	0.778293
2312	0.856137
2308	0.898814
2304	0.928258
2300	0.998139
2296	1.102995
2292	1.224088
2288	1.373100
2284	1.539206
2280	1.646423
2276	1.703906
2272	1.800370
2268	1.937961
2264	2.110385
2260	2.291464
2256	2.477145
2252	2.684020
2248	2.875590
2244	3.047370
2240	3.198957
2236	3.376388
2232	3.658580
2228	3.965234
2224	4.217529
2220	4.505300
2216	4.871392
2212	5.202436
2208	5.455875
2204	5.763745
2200	6.147122
2196	6.520843
2192	6.878781
2188	7.233762
2184	7.584691
2180	7.932662
2176	8.308768
2172	8.699083
2168	9.084892
2164	9.513282
2160	10.0033
2156	10.5295
2152	11.0126
2148	11.4305
2144	11.8509
2140	12.2599
2136	12.6405
2132	13.0567
2128	13.5261
2124	13.9752
2120	14.378
2116	14.7733
2112	15.1764
2108	15.6229
2104	16.0762
2100	16.4991
2096	16.9659
2092	17.4413
2088	17.8166
2084	18.1675
2080	18.6414
2076	19.1014
2072	19.3678
2068	19.6416
2064	20.0861
2060	20.5473
2056	20.9338
2052	21.2982
2048	21.6104
2044	21.8709
2040	22.2039
2036	22.5935
2032	22.9153
2028	23.1577
2024	23.4147
2020	23.7252
2016	24.0453
2012	24.3421
2008	24.5842
2004	24.808
2000	25.0761
1996	25.3335
1992	25.5484
1988	25.7851
1984	26.0342
1980	26.2614
1976	26.4891
1972	26.7313
1968	26.9861
1964	27.2043
1960	27.3668
1956	27.5286
1952	27.7123
1948	27.8938
1944	28.0168
1940	28.101
1936	28.2433
1932	28.4378
1928	28.6422
1924	28.8587
1920	29.0179
1916	29.1434
1912	29.3413
1908	29.5265
1904	29.656
1900	29.7894
1896	29.902
1892	29.9695
1888	30.0064
1884	30.0482
1880	30.1212
1876	30.2246
1872	30.3473
1868	30.4747
1864	30.5912
1860	30.7318
1856	30.9186
1852	31.0823
1848	31.2028
1844	31.2995
1840	31.3569
1836	31.3817
1832	31.4039
1828	31.4398
1824	31.4912
1820	31.5793
1816	31.6835
1812	31.737
1808	31.7869
1804	31.916
1800	32.073
1796	32.1705
1792	32.2102
1788	32.2534
1784	32.3219
1780	32.4001
1776	32.481
1772	32.5278
1768	32.5071
1764	32.4479
1760	32.4164
1756	32.4427
1752	32.5001
1748	32.5725
1744	32.6894
1740	32.8384
1736	32.9428
1732	33.0072
1728	33.075
1724	33.1338
1720	33.1879
1716	33.2127
1712	33.1672
1708	33.0963
1704	33.0811
1700	33.1109
1696	33.0947
1692	33.067
1688	33.1356
1684	33.2889
1680	33.4209
1676	33.49
1672	33.5351
1668	33.5885
1664	33.6775
1660	33.7204
1656	33.6846
1652	33.708
1648	33.7331
1644	33.6536
1640	33.6164
1636	33.6558
1632	33.6569
1628	33.6646
1624	33.75
1620	33.8245
1616	33.8599
1612	34.0021
1608	34.1566
1604	34.1259
1600	34.0542
1596	34.0655
1592	34.0988
1588	34.108
1584	34.0811
1580	34.0649
1576	34.1072
1572	34.1191
1568	34.0624
1564	34.0557
1560	34.1065
1556	34.1472
1552	34.225
1548	34.3532
1544	34.442
1540	34.4287
1536	34.4059
1532	34.4421
1528	34.4247
1524	34.3267
1520	34.2672
1516	34.2824
1512	34.3194
1508	34.3158
1504	34.2752
1500	34.2888
1496	34.3966
1492	34.5914
1488	34.7467
1484	34.7224
1480	34.6264
1476	34.6179
1472	34.6952
1468	34.7388
1464	34.6701
1460	34.561
1456	34.4822
1452	34.43
1448	34.3941
1444	34.393
1440	34.4319
1436	34.4485
1432	34.4847
1428	34.6185
1424	34.7416
1420	34.7771
1416	34.7868
1412	34.782
1408	34.7165
1404	34.6418
1400	34.629
1396	34.5994
1392	34.5247
1388	34.4821
1384	34.4681
1380	34.4374
1376	34.4411
1372	34.5091
1368	34.5984
1364	34.6917
1360	34.7994
1356	34.8963
1352	34.8962
1348	34.843
1344	34.7808
1340	34.6597
1336	34.5437
1332	34.4956
1328	34.4811
1324	34.445
1320	34.4792
1316	34.6092
1312	34.6497
1308	34.5876
1304	34.5769
1300	34.7012
1296	34.8616
1292	34.9238
1288	34.8948
1284	34.8211
1280	34.7105
1276	34.569
1272	34.462
1268	34.3951
1264	34.312
1260	34.2654
1256	34.3163
1252	34.4035
1248	34.4688
1244	34.5431
1240	34.6277
1236	34.6708
1232	34.6798
1228	34.6973
1224	34.6757
1220	34.5738
1216	34.4446
1212	34.3601
1208	34.2927
1204	34.2039
1200	34.1574
1196	34.1418
1192	34.1693
1188	34.2798
1184	34.382
1180	34.4064
1176	34.4134
1172	34.4578
1168	34.5355
1164	34.5884
1160	34.5592
1156	34.4574
1152	34.3058
1148	34.2032
1144	34.15
1140	34.0387
1136	33.9562
1132	33.9647
1128	33.9678
1124	34.0019
1120	34.1179
1116	34.2549
1112	34.3961
1108	34.4639
1104	34.3881
1100	34.2697
1096	34.2698
1092	34.3448
1088	34.2762
1084	34.0333
1080	33.8071
1076	33.7334
1072	33.7093
1068	33.6379
1064	33.5868
1060	33.5668
1056	33.5814
1052	33.688
1048	33.9674
1044	34.2893
1040	34.3181
1036	34.1156
1032	33.9905
1028	33.9448
1024	33.8119
1020	33.5162
1016	33.1898
1012	33.0777
1008	33.177
1004	33.3532
1000	33.5757
996	 33.7161
992	 33.7068
988	 33.7752
984	 33.9737
980	 34.0286
976	 33.9158
972	 33.801
968	 33.6836
964	 33.5422
960	 33.3616
956	 33.1725
952	 32.9633
948	 32.835
944	 32.9015
940	 32.9885
936	 33.0371
932	 33.0806
928	 33.0976
924	 33.159
920	 33.265
916	 33.3555
912	 33.4347
908	 33.4538
904	 33.3652
900	 33.1422
896	 32.8092
892	 32.5728
888	 32.4394
884	 32.3183
880	 32.3656
876	 32.5392
872	 32.5667
868	 32.5187
864	 32.619
860	 32.783
856	 32.8517
852	 32.7973
848	 32.7095
844	 32.6819
840	 32.6827
836	 32.6277
832	 32.404
828	 32.0778
824	 31.897
820	 31.9144
816	 31.9143
812	 31.7889
808	 31.687
804	 31.7367
800	 31.8918
796	 31.9542
792	 31.8994
788	 31.9559
784	 32.0632
780	 32.0007
776	 31.8731
772	 31.8051
768	 31.676
764	 31.3293
760	 30.9174
756	 30.7073
752	 30.6397
748	 30.6967
744	 30.8942
740	 31.129
736	 31.2213
732	 31.0954
728	 31.0835
724	 31.2484
720	 31.3493
716	 31.286
712	 31.0522
708	 30.7938
704	 30.5186
700	 30.1127
696	 29.744
692	 29.6226
688	 29.7664
684	 30.0063
680	 30.0214
676	 29.9717
672	 30.1696
668	 30.4883
664	 30.7102
660	 30.557
656	 30.1018
652	 29.8028
648	 29.7869
644	 29.8007
640	 29.762
636	 29.6552
632	 29.4748
628	 29.4342
624	 29.3236
620	 29.1031
616	 29.0337
612	 29.0158
608	 29.0954
604	 29.3016
600	 29.4173
596	 29.442
592	 29.3193
588	 28.8881
584	 28.5099
580	 28.4744
576	 28.4435
572	 28.303
568	 28.1301
564	 27.8472
560	 27.7443
556	 28.0218
552	 28.2157
548	 28.0701
544	 28.1847
540	 28.4504
536	 28.1229
532	 27.5471
528	 27.5218
524	 27.978
520	 28.1496
516	 27.5298
512	 26.7222
508	 26.261
504	 25.7956
500	 25.9934
496	 26.9646
492	 27.2476
488	 26.3915
484	 25.1291
480	 24.7088
476	 25.4347
472	 26.6384
468	 28.0703
464	 29.056
460	 28.2476
456	 26.5989
452	 26.0709
448	 25.6414
444	 25.0424
440	 24.8249
436	 24.0704
432	 23.716
428	 24.3596
424	 23.9495
420	 23.4393
416	 24.9337
412	 25.3729
408	 25.1565
404	 29.1349
400	 30.9193
396	 20.802
392	 13.9715
388	 27.3612
384	 44.3603
380	 38.7224
376	 13.6348
372	 -8.866548
370	 -21.7255