File: Bakgrunnsmateriale/MATLAB/FTIR/ftir_data/LPE454/Mapping_121/LPE454_t16.asc
PE IR       SPECTRUM    SPECTRUM    ASCII       PEDS        1.60
  -1
LPD794~1.ASC
17/05/19
15:39:07.00
17/05/19
15:39:34.00
tln
$LPE454_t0016$<tbV0>[2.6,-10.4,8.0,0.0,27,1,0]
27.028
64

2002,4.07
MIRTGS : RIGHTBACK : INTERNAL 2
MIR : ON : INTERNAL 2
OPTKBR

0.200000
8
8.000000
FILLER
RATIO
SPECTRUM
UNLOCKED 256

DOUBLE
64
COMBINED
1
0
0

0.002000
RATIO

1
0
TRUE
51149
0
LEFT NOT FITTED RIGHT NOT FITTED 0
NONE
NONE
15600
12
4.427000
51148
TRUE
1 0 8 72 0 0 0 0

15798

#HDR
-1
-1
#GR
µM
%T
2.38419e-05
0.0
2.000000
0.002000
12515
8
34.8389
-7.956141
#DATA
2.000000	 0.418424
2.018000	 -0.036943
2.036000	 0.185027
2.054000	 -0.052271
2.072000	 0.109186
2.090000	 -0.115905
2.108000	 -0.204807
2.126000	 0.372926
2.144000	 1.597528
2.162000	 -0.422992
2.180000	 0.810800
2.198000	 0.255626
2.216000	 1.166118
2.234000	 4.325321
2.252000	 0.288875
2.270000	 -0.124364
2.288000	 0.135774
2.306000	 0.553807
2.324000	 0.346220
2.342000	 0.248529
2.360000	 -0.053109
2.378000	 0.179346
2.396000	 -0.037429
2.414000	 -0.223516
2.432000	 0.275800
2.450000	 0.119897
2.468000	 0.071661
2.486000	 0.076262
2.504000	 -0.163371
2.522000	 -0.072462
2.540000	 0.012315
2.558000	 0.074546
2.576000	 0.104825
2.594000	 0.083822
2.612000	 0.228591
2.630000	 0.064506
2.648000	 -0.116331
2.666000	 -0.007764
2.684000	 0.042276
2.702000	 0.043209
2.720000	 0.060427
2.738000	 0.010271
2.756000	 0.103364
2.774000	 0.036180
2.792000	 -0.075568
2.810000	 0.147892
2.828000	 0.031454
2.846000	 0.011386
2.864000	 0.106553
2.882000	 0.307665
2.900000	 0.123816
2.918000	 0.069442
2.936000	 0.056230
2.954000	 0.022929
2.972000	 0.079680
2.990000	 0.039569
3.008000	 0.013065
3.026000	 0.014171
3.044000	 -0.035635
3.062000	 -0.007483
3.080000	 -0.014834
3.098000	 0.037222
3.116000	 -0.039506
3.134000	 0.028601
3.152000	 0.158900
3.170000	 -0.072211
3.188000	 0.146302
3.206000	 0.013057
3.224000	 0.117719
3.242000	 0.037045
3.260000	 0.101634
3.278000	 0.176989
3.296000	 0.166136
3.314000	 0.093971
3.332000	 0.150593
3.350000	 -0.015976
3.368000	 -0.056788
3.386000	 0.006203
3.404000	 -0.044340
3.422000	 0.074384
3.440000	 0.016966
3.458000	 0.055015
3.476000	 0.025958
3.494000	 0.161862
3.512000	 -0.059356
3.530000	 0.064626
3.548000	 0.011240
3.566000	 0.010454
3.584000	 0.064359
3.602000	 0.121306
3.620000	 -0.011907
3.638000	 0.081539
3.656000	 -0.013589
3.674000	 0.057641
3.692000	 -0.104709
3.710000	 -0.000468
3.728000	 0.026811
3.746000	 -0.028852
3.764000	 0.029597
3.782000	 0.090523
3.800000	 0.064545
3.818000	 0.021027
3.836000	 0.035052
3.854000	 0.058075
3.872000	 -0.032107
3.890000	 0.029458
3.908000	 0.010132
3.926000	 -0.095165
3.944000	 -0.049912
3.962000	 0.083967
3.980000	 0.087922
3.998000	 0.067584
4.016000	 0.023774
4.034000	 -0.043594
4.052000	 -0.022365
4.070000	 -0.010519
4.088000	 -0.042422
4.106000	 0.160820
4.124000	 0.218965
4.141999	 -0.038886
4.160000	 -0.131549
4.178000	 0.039118
4.196000	 0.018059
4.214000	 -0.019674
4.232000	 0.049216
4.250000	 -0.028718
4.268000	 0.069943
4.286000	 -0.019171
4.304000	 0.068633
4.322000	 0.141307
4.340000	 0.107868
4.358000	 0.251609
4.375999	 0.306883
4.394000	 0.462185
4.412000	 0.686680
4.430000	 0.818056
4.448000	 1.001792
4.466000	 1.277097
4.484000	 1.562867
4.502000	 1.962784
4.520000	 2.439156
4.538000	 2.897225
4.556000	 3.302721
4.574000	 3.989707
4.592000	 4.584539
4.609999	 5.367412
4.628000	 6.168872
4.646000	 6.957710
4.664000	 7.710989
4.682000	 8.484834
4.700000	 9.442946
4.718000	 10.3423
4.736000	 11.2579
4.754000	 12.149
4.772000	 13.0881
4.790000	 13.9805
4.808000	 14.9159
4.826000	 15.516
4.843999	 16.3543
4.862000	 17.186
4.880000	 18.0835
4.898000	 18.7659
4.916000	 19.3844
4.934000	 20.0261
4.952000	 20.688
4.970000	 21.398
4.988000	 22.1013
5.006000	 22.5575
5.024000	 23.0579
5.042000	 23.5636
5.060000	 23.9636
5.077999	 24.4409
5.096000	 24.8457
5.114000	 25.1798
5.132000	 25.5917
5.150000	 25.9784
5.168000	 26.2023
5.186000	 26.5529
5.204000	 26.8466
5.222000	 27.0796
5.240000	 27.2413
5.258000	 27.5372
5.276000	 27.757
5.294000	 27.9379
5.312000	 28.1181
5.330000	 28.3165
5.348000	 28.5045
5.366000	 28.6027
5.384000	 28.7686
5.402000	 28.8984
5.420000	 28.9494
5.438000	 29.1829
5.456000	 29.3474
5.474000	 29.4095
5.492000	 29.5555
5.510000	 29.608
5.528000	 29.6305
5.546000	 29.6577
5.564000	 29.8367
5.582000	 29.9977
5.600000	 30.0149
5.618000	 30.0533
5.636000	 30.1492
5.654000	 30.1829
5.672000	 30.1009
5.690000	 30.1176
5.708000	 30.1523
5.726000	 30.2308
5.744000	 30.375
5.762000	 30.4478
5.780000	 30.3906
5.798000	 30.4007
5.816000	 30.4286
5.834000	 30.4324
5.852000	 30.5271
5.870000	 30.6598
5.888000	 30.6378
5.906000	 30.5743
5.923999	 30.662
5.942000	 30.6541
5.960000	 30.6175
5.978000	 30.689
5.996000	 30.6108
6.014000	 30.5491
6.032000	 30.7042
6.050000	 30.8326
6.068000	 30.761
6.086000	 30.6585
6.104000	 30.6874
6.122000	 30.6829
6.140000	 30.648
6.158000	 30.6748
6.176000	 30.741
6.194000	 30.7327
6.212000	 30.6221
6.230000	 30.6281
6.248000	 30.7377
6.266000	 30.7755
6.284000	 30.7392
6.302000	 30.6853
6.320000	 30.6444
6.338000	 30.6368
6.356000	 30.6393
6.374000	 30.6708
6.392000	 30.8063
6.410000	 30.9254
6.428000	 30.8661
6.446000	 30.7595
6.464000	 30.7736
6.482000	 30.8613
6.500000	 30.8589
6.518000	 30.7639
6.536000	 30.7161
6.554000	 30.726
6.572000	 30.7211
6.590000	 30.6951
6.608000	 30.7346
6.626000	 30.7765
6.644000	 30.7133
6.662000	 30.6437
6.680000	 30.6079
6.698000	 30.5723
6.716000	 30.5586
6.734000	 30.5894
6.752000	 30.6493
6.770000	 30.6582
6.788000	 30.6372
6.806000	 30.6213
6.824000	 30.5735
6.842000	 30.5717
6.860000	 30.6095
6.878000	 30.5652
6.896000	 30.5161
6.914000	 30.5526
6.932000	 30.6021
6.950000	 30.6118
6.968000	 30.6001
6.986000	 30.6084
7.004000	 30.5921
7.022000	 30.5282
7.040000	 30.5039
7.058000	 30.5211
7.076000	 30.5365
7.094000	 30.5444
7.112000	 30.5216
7.130000	 30.4817
7.148000	 30.452
7.166000	 30.4168
7.184000	 30.377
7.202000	 30.3597
7.220000	 30.357
7.238000	 30.3285
7.256000	 30.2897
7.274000	 30.2764
7.292000	 30.2765
7.310000	 30.2799
7.328000	 30.2734
7.346000	 30.2315
7.364000	 30.1918
7.382000	 30.2089
7.400000	 30.2513
7.418000	 30.2591
7.436000	 30.2341
7.454000	 30.221
7.472000	 30.2419
7.490000	 30.2685
7.508000	 30.2669
7.526000	 30.2313
7.544000	 30.1681
7.562000	 30.1182
7.580000	 30.1337
7.598000	 30.1856
7.616000	 30.208
7.634000	 30.2143
7.652000	 30.2388
7.670000	 30.2419
7.688000	 30.1845
7.706000	 30.1091
7.724000	 30.0752
7.742000	 30.0776
7.760000	 30.0762
7.778000	 30.0629
7.796000	 30.0634
7.814000	 30.0908
7.832000	 30.1149
7.850000	 30.1005
7.868000	 30.065
7.886000	 30.0643
7.904000	 30.1174
7.922000	 30.1792
7.940000	 30.2001
7.958000	 30.1817
7.976000	 30.1576
7.994000	 30.1452
8.012000	 30.1321
8.030000	 30.0965
8.048000	 30.0325
8.065999	 29.9596
8.084000	 29.9096
8.102000	 29.8993
8.120000	 29.9113
8.138000	 29.9142
8.155999	 29.9075
8.173999	 29.9243
8.192000	 29.9752
8.210000	 30.0166
8.228000	 30.0005
8.246000	 29.9359
8.263999	 29.8729
8.282000	 29.8432
8.300000	 29.8292
8.318000	 29.7945
8.336000	 29.7334
8.353999	 29.6799
8.372000	 29.6597
8.390000	 29.6528
8.408000	 29.6257
8.426000	 29.5873
8.443999	 29.5835
8.462000	 29.6371
8.480000	 29.7156
8.498000	 29.762
8.516000	 29.7473
8.533999	 29.6879
8.552000	 29.6307
8.570000	 29.616
8.588000	 29.6392
8.606000	 29.6509
8.624000	 29.6105
8.641999	 29.532
8.660000	 29.4658
8.678000	 29.4407
8.696000	 29.4425
8.714000	 29.4371
8.731999	 29.4028
8.750000	 29.3509
8.768000	 29.3175
8.786000	 29.3318
8.804000	 29.3897
8.821999	 29.4563
8.840000	 29.4909
8.858000	 29.4787
8.876000	 29.4378
8.894000	 29.393
8.911999	 29.3526
8.930000	 29.3138
8.948000	 29.2854
8.966000	 29.2838
8.984000	 29.3072
9.001999	 29.3262
9.020000	 29.3115
9.038000	 29.2643
9.056000	 29.2131
9.074000	 29.1854
9.092000	 29.1903
9.109999	 29.2213
9.128000	 29.2644
9.146000	 29.3015
9.164000	 29.3144
9.182000	 29.2959
9.199999	 29.2562
9.218000	 29.2124
9.236000	 29.1726
9.254000	 29.1308
9.272000	 29.0813
9.289999	 29.032
9.308000	 29.0031
9.326000	 29.0081
9.344000	 29.037
9.362000	 29.0608
9.379999	 29.0524
9.398000	 29.0044
9.416000	 28.932
9.434000	 28.8627
9.452000	 28.8251
9.469999	 28.8337
9.488000	 28.8792
9.506000	 28.9299
9.524000	 28.9508
9.542000	 28.9306
9.560000	 28.8909
9.577999	 28.8671
9.596000	 28.8775
9.614000	 28.9132
9.632000	 28.9508
9.650000	 28.9712
9.667999	 28.9671
9.686000	 28.943
9.704000	 28.9099
9.722000	 28.8778
9.740000	 28.8526
9.757999	 28.8379
9.776000	 28.8377
9.794000	 28.8552
9.812000	 28.8862
9.830000	 28.916
9.847999	 28.924
9.866000	 28.895
9.884000	 28.8285
9.902000	 28.7383
9.920000	 28.6448
9.937999	 28.5682
9.956000	 28.5251
9.974000	 28.5232
9.992000	 28.5545
10.01	28.5948
10.028	28.6139
10.046	28.5939
10.064	28.5414
10.082	28.4805
10.1	28.4368
10.118	28.4205
10.136	28.4224
10.154	28.4259
10.172	28.419
10.19	28.4006
10.208	28.3774
10.226	28.3586
10.244	28.3521
10.262	28.3614
10.28	28.3849
10.298	28.4147
10.316	28.4371
10.334	28.4358
10.352	28.3978
10.37	28.3194
10.388	28.2105
10.406	28.0908
10.424	27.9828
10.442	27.902
10.46	27.8516
10.478	27.8237
10.496	27.8069
10.514	27.7948
10.532	27.7885
10.55	27.7943
10.568	27.8172
10.586	27.8554
10.604	27.9014
10.622	27.9461
10.64	27.984
10.658	28.014
10.676	28.0368
10.694	28.0511
10.712	28.0524
10.73	28.0364
10.748	28.0024
10.766	27.9544
10.784	27.8985
10.802	27.8402
10.82	27.7808
10.838	27.7206
10.856	27.6613
10.874	27.6091
10.892	27.572
10.91	27.5573
10.928	27.5652
10.946	27.5882
10.964	27.6137
10.982	27.6288
11	27.626
11.018	27.6039
11.036	27.5661
11.054	27.5189
11.072	27.4681
11.09	27.4199
11.108	27.3803
11.126	27.3551
11.144	27.3476
11.162	27.3564
11.18	27.3749
11.198	27.3925
11.216	27.3993
11.234	27.3893
11.252	27.3629
11.27	27.3258
11.288	27.2869
11.306	27.2532
11.324	27.2283
11.342	27.212
11.36	27.2014
11.378	27.1931
11.396	27.1851
11.414	27.1762
11.432	27.1647
11.45	27.1489
11.468	27.126
11.486	27.0941
11.504	27.0539
11.522	27.0091
11.54	26.9656
11.558	26.9296
11.576	26.9046
11.594	26.8894
11.612	26.8785
11.63	26.8643
11.648	26.8408
11.666	26.8052
11.684	26.7598
11.702	26.7104
11.72	26.6645
11.738	26.6284
11.756	26.6057
11.774	26.5967
11.792	26.5999
11.81	26.6127
11.828	26.6326
11.846	26.6574
11.864	26.6851
11.882	26.7133
11.9	26.7396
11.918	26.7614
11.936	26.7769
11.954	26.7849
11.972	26.7855
11.99	26.7794
12.008	26.7685
12.026	26.7542
12.044	26.7378
12.062	26.7197
12.08	26.6993
12.098	26.6755
12.116	26.6482
12.134	26.6188
12.152	26.5904
12.17	26.5665
12.188	26.5499
12.206	26.5412
12.224	26.5382
12.242	26.536
12.26	26.5289
12.278	26.5117
12.296	26.4813
12.314	26.4371
12.332	26.3814
12.35	26.3177
12.368	26.25
12.386	26.1815
12.404	26.114
12.422	26.0483
12.44	25.9847
12.458	25.9239
12.476	25.8676
12.494	25.8179
12.512	25.7777
12.53	25.749
12.548	25.7329
12.566	25.7287
12.584	25.735
12.602	25.7494
12.62	25.7689
12.638	25.7905
12.656	25.8111
12.674	25.8273
12.692	25.8364
12.71	25.8366
12.728	25.8277
12.746	25.8111
12.764	25.7901
12.782	25.769
12.8	25.7519
12.818	25.7419
12.836	25.7398
12.854	25.7449
12.872	25.7545
12.89	25.7647
12.908	25.7721
12.926	25.774
12.944	25.7695
12.962	25.7591
12.98	25.7448
12.998	25.7292
13.016	25.7145
13.034	25.7021
13.052	25.6925
13.07	25.6853
13.088	25.6795
13.106	25.6739
13.124	25.6671
13.142	25.6578
13.16	25.6453
13.178	25.6283
13.196	25.6052
13.214	25.5742
13.232	25.5336
13.25	25.4817
13.268	25.4179
13.286	25.342
13.304	25.2559
13.322	25.1623
13.34	25.0652
13.358	24.9696
13.376	24.8805
13.394	24.8029
13.412	24.7409
13.43	24.6978
13.448	24.6764
13.466	24.6778
13.484	24.7021
13.502	24.748
13.52	24.8129
13.538	24.8924
13.556	24.9805
13.574	25.0695
13.592	25.1512
13.61	25.2171
13.628	25.2595
13.646	25.2733
13.664	25.2557
13.682	25.208
13.7	25.135
13.718	25.0444
13.736	24.9457
13.754	24.8493
13.772	24.7642
13.79	24.6973
13.808	24.6518
13.826	24.6277
13.844	24.6211
13.862	24.6257
13.88	24.6335
13.898	24.6367
13.916	24.6291
13.934	24.6065
13.952	24.5679
13.97	24.5152
13.988	24.453
14.006	24.3871
14.024	24.3236
14.042	24.268
14.06	24.2238
14.078	24.1927
14.096	24.1744
14.114	24.1668
14.132	24.1668
14.15	24.1708
14.168	24.1754
14.186	24.1776
14.204	24.175
14.222	24.1663
14.24	24.1511
14.258	24.1303
14.276	24.1051
14.294	24.0769
14.312	24.0478
14.33	24.0202
14.348	23.9961
14.366	23.9775
14.384	23.9662
14.402	23.9632
14.42	23.9687
14.438	23.9825
14.456	24.0035
14.474	24.0301
14.492	24.0605
14.51	24.0923
14.528	24.1231
14.546	24.1512
14.564	24.175
14.582	24.194
14.6	24.2079
14.618	24.217
14.636	24.2224
14.654	24.2252
14.672	24.2269
14.69	24.2285
14.708	24.2305
14.726	24.2329
14.744	24.2344
14.762	24.2332
14.78	24.2272
14.798	24.2137
14.816	24.1903
14.834	24.1547
14.852	24.1059
14.87	24.0441
14.888	23.9706
14.906	23.8879
14.924	23.7992
14.942	23.7088
14.96	23.6204
14.978	23.5376
14.996	23.4627
15.014	23.3975
15.032	23.3419
15.05	23.2948
15.068	23.2541
15.086	23.2176
15.104	23.1825
15.122	23.1462
15.14	23.107
15.158	23.0644
15.176	23.0182
15.194	22.9691
15.212	22.9188
15.23	22.869
15.248	22.8216
15.266	22.7786
15.284	22.7415
15.302	22.7116
15.32	22.6896
15.338	22.6761
15.356	22.6714
15.374	22.6755
15.392	22.6883
15.41	22.7093
15.428	22.738
15.446	22.7731
15.464	22.813
15.482	22.8558
15.5	22.8988
15.518	22.9384
15.536	22.9712
15.554	22.9942
15.572	23.0044
15.59	22.9993
15.608	22.9783
15.626	22.9414
15.644	22.8899
15.662	22.8275
15.68	22.7579
15.698	22.6851
15.716	22.6146
15.734	22.5508
15.752	22.4971
15.77	22.456
15.788	22.4293
15.806	22.4166
15.824	22.417
15.842	22.4286
15.86	22.4479
15.878	22.4723
15.896	22.4988
15.914	22.5243
15.932	22.5468
15.95	22.5649
15.968	22.5775
15.986	22.5843
16.004	22.5857
16.022	22.5819
16.04	22.5739
16.058	22.5625
16.076	22.5484
16.094	22.5326
16.112	22.5158
16.13	22.4986
16.148	22.4816
16.166	22.4655
16.184	22.4507
16.202	22.4378
16.22	22.4269
16.238	22.4179
16.256	22.4109
16.274	22.405
16.292	22.3994
16.31	22.3934
16.328	22.3851
16.346	22.3732
16.364	22.3564
16.382	22.3327
16.4	22.3009
16.418	22.26
16.436	22.2088
16.454	22.1478
16.472	22.0774
16.49	21.9986
16.508	21.9134
16.526	21.8233
16.544	21.7315
16.562	21.641
16.58	21.5541
16.598	21.4747
16.616	21.4049
16.634	21.3469
16.652	21.3028
16.67	21.2732
16.688	21.2587
16.706	21.2588
16.724	21.2724
16.742	21.2986
16.76	21.3343
16.778	21.378
16.796	21.4264
16.814	21.4767
16.832	21.5271
16.85	21.5745
16.868	21.617
16.886	21.653
16.904	21.6804
16.922	21.6988
16.94	21.7071
16.958	21.7054
16.976	21.6939
16.994	21.673
17.012	21.6444
17.03	21.609
17.048	21.5699
17.066	21.5291
17.084	21.4893
17.102	21.4546
17.12	21.4266
17.138	21.4096
17.156	21.4055
17.174	21.4163
17.192	21.4436
17.21	21.4876
17.228	21.5482
17.246	21.623
17.264	21.7109
17.282	21.8066
17.3	21.908
17.318	22.0095
17.336	22.1064
17.354	22.1957
17.372	22.2716
17.39	22.3326
17.408	22.3751
17.426	22.3986
17.444	22.4025
17.462	22.3879
17.48	22.3559
17.498	22.3093
17.516	22.2507
17.534	22.1822
17.552	22.1085
17.57	22.0307
17.588	21.953
17.606	21.8764
17.624	21.8034
17.642	21.7348
17.66	21.6712
17.678	21.6133
17.696	21.561
17.714	21.5138
17.732	21.4711
17.75	21.4327
17.768	21.3972
17.786	21.3644
17.804	21.333
17.822	21.3028
17.84	21.273
17.858	21.2434
17.876	21.2135
17.894	21.1837
17.912	21.1538
17.93	21.1244
17.948	21.0954
17.966	21.0679
17.984	21.0423
18.002	21.0195
18.02	21.0001
18.038	20.9848
18.056	20.9739
18.074	20.9677
18.092	20.9657
18.11	20.9678
18.128	20.9726
18.146	20.9795
18.164	20.9864
18.182	20.992
18.2	20.9943
18.218	20.9917
18.236	20.9831
18.254	20.9672
18.272	20.9435
18.29	20.9121
18.308	20.8731
18.326	20.8278
18.344	20.7769
18.362	20.7233
18.38	20.6679
18.398	20.6142
18.416	20.5635
18.434	20.5181
18.452	20.4795
18.47	20.4492
18.488	20.4278
18.506	20.4158
18.524	20.413
18.542	20.4193
18.56	20.4331
18.578	20.4543
18.596	20.4805
18.614	20.5115
18.632	20.5446
18.65	20.5797
18.668	20.6145
18.686	20.649
18.704	20.6816
18.722	20.7125
18.74	20.7407
18.758	20.7663
18.776	20.7888
18.794	20.8082
18.812	20.8241
18.83	20.8364
18.848	20.8449
18.866	20.8494
18.884	20.8495
18.902	20.8449
18.92	20.8353
18.938	20.8206
18.956	20.8006
18.974	20.7756
18.992	20.7457
19.01	20.7115
19.028	20.6736
19.046	20.6328
19.064	20.59
19.082	20.546
19.1	20.502
19.118	20.4583
19.136	20.4163
19.154	20.3759
19.172	20.338
19.19	20.3023
19.208	20.2692
19.226	20.2382
19.244	20.2086
19.262	20.1802
19.28	20.1515
19.298	20.1226
19.316	20.0922
19.334	20.0602
19.352	20.0259
19.37	19.9895
19.388	19.9511
19.406	19.9106
19.424	19.8693
19.442	19.8272
19.46	19.786
19.478	19.7456
19.496	19.7078
19.514	19.6731
19.532	19.6423
19.55	19.6162
19.568	19.5948
19.586	19.5789
19.604	19.5682
19.622	19.5624
19.64	19.5615
19.658	19.5647
19.676	19.5718
19.694	19.5813
19.712	19.5934
19.73	19.6066
19.748	19.621
19.766	19.6358
19.784	19.6509
19.802	19.6661
19.82	19.6815
19.838	19.6972
19.856	19.7135
19.874	19.7304
19.892	19.7488
19.91	19.7683
19.928	19.7896
19.946	19.8127
19.964	19.8372
19.982	19.8636
20	19.8907
20.018	19.9187
20.036	19.9463
20.054	19.9721
20.072	19.9958
20.09	20.0144
20.108	20.0283
20.126	20.0341
20.144	20.0321
20.162	20.0201
20.18	19.9971
20.198	19.9629
20.216	19.9162
20.234	19.8577
20.252	19.7876
20.27	19.7058
20.288	19.615
20.306	19.5146
20.324	19.408
20.342	19.2969
20.36	19.1825
20.378	19.0699
20.396	18.958
20.414	18.853
20.432	18.7542
20.45	18.6653
20.468	18.588
20.486	18.5227
20.504	18.4717
20.522	18.4343
20.54	18.411
20.558	18.4023
20.576	18.4058
20.594	18.4214
20.612	18.4474
20.63	18.4803
20.648	18.5207
20.666	18.5629
20.684	18.6076
20.702	18.6504
20.72	18.6885
20.738	18.7219
20.756	18.7459
20.774	18.7615
20.792	18.766
20.81	18.7586
20.828	18.7398
20.846	18.7094
20.864	18.6676
20.882	18.6169
20.9	18.5562
20.918	18.4893
20.936	18.4183
20.954	18.3435
20.972	18.2705
20.99	18.1978
21.008	18.1308
21.026	18.0712
21.044	18.0196
21.062	17.9806
21.08	17.9529
21.098	17.9394
21.116	17.941
21.134	17.9572
21.152	17.9886
21.17	18.0354
21.188	18.0953
21.206	18.1688
21.224	18.254
21.242	18.3476
21.26	18.4508
21.278	18.5581
21.296	18.6694
21.314	18.7827
21.332	18.8927
21.35	19.0013
21.368	19.1028
21.386	19.1964
21.404	19.2812
21.422	19.3524
21.44	19.4115
21.458	19.4554
21.476	19.4827
21.494	19.4939
21.512	19.4871
21.53	19.4625
21.548	19.4203
21.566	19.36
21.584	19.282
21.602	19.188
21.62	19.0774
21.638	18.9523
21.656	18.815
21.674	18.6645
21.692	18.5056
21.71	18.3389
21.728	18.1654
21.746	17.9908
21.764	17.8131
21.782	17.637
21.8	17.4661
21.818	17.2989
21.836	17.142
21.854	16.9951
21.872	16.8599
21.89	16.7412
21.908	16.6374
21.926	16.5513
21.944	16.485
21.962	16.4373
21.98	16.4097
21.998	16.4029
22.016	16.4155
22.034	16.4467
22.052	16.4972
22.07	16.564
22.088	16.6453
22.106	16.7419
22.124	16.8483
22.142	16.9643
22.16	17.0887
22.178	17.2152
22.196	17.3457
22.214	17.4763
22.232	17.6017
22.25	17.7242
22.268	17.8395
22.286	17.9448
22.304	18.0417
22.322	18.1272
22.34	18.2006
22.358	18.2624
22.376	18.3124
22.394	18.3499
22.412	18.3763
22.43	18.3928
22.448	18.3985
22.466	18.3961
22.484	18.3877
22.502	18.3721
22.52	18.3531
22.538	18.332
22.556	18.3082
22.574	18.2856
22.592	18.2644
22.61	18.2449
22.628	18.2296
22.646	18.2184
22.664	18.2114
22.682	18.2097
22.7	18.2134
22.718	18.2218
22.736	18.2346
22.754	18.2521
22.772	18.2732
22.79	18.2971
22.808	18.3244
22.826	18.3535
22.844	18.3833
22.862	18.4145
22.88	18.4455
22.898	18.4753
22.916	18.5046
22.934	18.5322
22.952	18.5575
22.97	18.581
22.988	18.6021
23.006	18.6204
23.024	18.6364
23.042	18.6503
23.06	18.6618
23.078	18.6713
23.096	18.6803
23.114	18.6885
23.132	18.6961
23.15	18.7048
23.168	18.7144
23.186	18.725
23.204	18.7374
23.222	18.7516
23.24	18.7674
23.258	18.7847
23.276	18.8036
23.294	18.8238
23.312	18.8453
23.33	18.8686
23.348	18.8929
23.366	18.9167
23.384	18.9404
23.402	18.9636
23.42	18.9838
23.438	19.0015
23.456	19.0162
23.474	19.0249
23.492	19.0273
23.51	19.0239
23.528	19.0119
23.546	18.9912
23.564	18.9622
23.582	18.9226
23.6	18.8715
23.618	18.8098
23.636	18.7362
23.654	18.6496
23.672	18.5508
23.69	18.4397
23.708	18.316
23.726	18.1797
23.744	18.0322
23.762	17.8748
23.78	17.7061
23.798	17.5287
23.816	17.3453
23.834	17.1537
23.852	16.9567
23.87	16.7584
23.888	16.5568
23.906	16.3537
23.924	16.1545
23.942	15.9582
23.96	15.765
23.978	15.5806
23.996	15.4064
24.014	15.2405
24.032	15.0875
24.05	14.9506
24.068	14.827
24.086	14.7201
24.104	14.6332
24.122	14.5641
24.14	14.5147
24.158	14.4882
24.176	14.4839
24.194	14.5017
24.212	14.5429
24.23	14.608
24.248	14.6961
24.266	14.8076
24.284	14.943
24.302	15.1027
24.32	15.2836
24.338	15.4836
24.356	15.7058
24.374	15.9456
24.392	16.1964
24.41	16.4618
24.428	16.7393
24.446	17.0183
24.464	17.2958
24.482	17.5768
24.5	17.8505
24.518	18.1082
24.536	18.3581
24.554	18.5915
24.572	18.7965
24.59	18.9768
24.608	19.1316
24.626	19.2494
24.644	19.3254
24.662	19.3658
24.68	19.3629
24.698	19.309
24.716	19.2074
24.734	19.0581
24.752	18.8593
24.77	18.6093
24.788	18.31
24.806	17.9644
24.824	17.5737
24.842	17.1348
24.86	16.6542
24.878	16.1396
24.896	15.5863
24.914	14.9972
24.932	14.3835
24.95	13.7499
24.968	13.0889
24.986	12.4122
25.004	11.7323
25.022	11.0419
25.04	10.3449
25.058	9.654141
25.076	8.974610
25.094	8.298826
25.112	7.636509
25.13	6.997534
25.148	6.376499
25.166	5.775566
25.184	5.203061
25.202	4.662507
25.22	4.148696
25.238	3.667345
25.256	3.224577
25.274	2.818915
25.292	2.449334
25.31	2.117637
25.328	1.825541
25.346	1.572606
25.364	1.356304
25.382	1.174085
25.4	1.028209
25.418	0.917434
25.436	0.835924
25.454	0.779708
25.472	0.753944
25.49	0.753170
25.508	0.769839
25.526	0.803622
25.544	0.857856
25.562	0.924430
25.58	0.995748
25.598	1.076672
25.616	1.165164
25.634	1.254180
25.652	1.339321
25.67	1.425191
25.688	1.508840
25.706	1.586369
25.724	1.656424
25.742	1.720950
25.76	1.780393
25.778	1.835151
25.796	1.884949
25.814	1.929948
25.832	1.970584
25.85	2.006620
25.868	2.036619
25.886	2.063503
25.904	2.090648
25.922	2.117864
25.94	2.143209
25.958	2.171478
25.976	2.207443
25.994	2.246749
26.012	2.290851
26.03	2.348242
26.048	2.425874
26.066	2.515507
26.084	2.622581
26.102	2.757598
26.12	2.926495
26.138	3.119676
26.156	3.345598
26.174	3.615110
26.192	3.930324
26.21	4.283178
26.228	4.684552
26.246	5.145948
26.264	5.667913
26.282	6.245043
26.3	6.882289
26.318	7.584581
26.336	8.354718
26.354	9.188206
26.372	10.0791
26.39	11.0223
26.408	12.0279
26.426	13.088
26.444	14.1868
26.462	15.3126
26.48	16.4851
26.498	17.6885
26.516	18.8972
26.534	20.0935
26.552	21.3025
26.57	22.5064
26.588	23.6786
26.606	24.8026
26.624	25.9013
26.642	26.9602
26.66	27.9598
26.678	28.8885
26.696	29.7612
26.714	30.5713
26.732	31.3096
26.75	31.9703
26.768	32.5592
26.786	33.0771
26.804	33.5242
26.822	33.8969
26.84	34.1911
26.858	34.4204
26.876	34.5993
26.894	34.7304
26.912	34.7973
26.93	34.8227
26.948	34.832
26.966	34.8382
26.984	34.8209
27.002	34.7925
27.02	34.7679
27.028	34.7626