File: Bakgrunnsmateriale/MATLAB/FTIR/ftir_data/LPE454/Mapping_121/LPE454_t07_cm-1.asc
PE IR       SPECTRUM    SPECTRUM    ASCII       PEDS        1.60
  -1
LP673A~1.ASC
17/05/19
14:57:01.00
17/05/19
14:57:01.00
tln
$LPE454_t0007$<tbV0>[-2.6,-13.0,8.0,0.0,27,1,0]
370
64

2002,4.07
MIRTGS : RIGHTBACK : INTERNAL 2
MIR : ON : INTERNAL 2
OPTKBR

0.200000
8
8.000000
FILLER
RATIO
SPECTRUM
UNLOCKED 256

DOUBLE
64
COMBINED
1
0
0

1.000000
RATIO

1
0
TRUE
51149
0
LEFT NOT FITTED RIGHT NOT FITTED 0
NONE
NONE
15600
12
4.427000
51148
TRUE
1 0 8 72 0 0 0 0

15798

#HDR
-1
-1
#GR
CM-1
%T
2.38419e-05
0.0
5000
-1.000000
4631
8
57.0353
-30.9466
#DATA
5000	-0.003194
4996	-0.209069
4992	-0.221371
4988	-0.205755
4984	-0.095582
4980	-0.034689
4976	-0.062417
4972	-0.042438
4968	0.088119
4964	0.632739
4960	1.188302
4956	0.956773
4952	0.456976
4948	0.262594
4944	0.238084
4940	0.387144
4936	0.414943
4932	0.147962
4928	-0.206542
4924	-0.276565
4920	0.122857
4916	0.357103
4912	0.081205
4908	-0.291466
4904	-0.478768
4900	-0.314784
4896	-0.007152
4892	0.126528
4888	0.214576
4884	0.383806
4880	0.270104
4876	-0.288486
4872	-0.352787
4868	0.177955
4864	0.438284
4860	0.889945
4856	1.246976
4852	0.401043
4848	-0.648379
4844	-0.983953
4840	-0.756478
4836	0.015521
4832	0.978565
4828	1.229190
4824	0.655102
4820	0.873756
4816	2.214860
4812	2.447652
4808	1.206469
4804	0.021290
4800	-0.875401
4796	-0.917673
4792	0.016427
4788	0.456500
4784	0.255370
4780	0.358581
4776	0.583219
4772	0.329494
4768	-0.249958
4764	-0.274682
4760	0.126719
4756	-0.069904
4752	-0.501918
4748	-0.380873
4744	-0.013375
4740	0.143456
4736	0.144386
4732	0.250363
4728	0.417661
4724	0.302004
4720	-0.097417
4716	-0.144624
4712	0.076818
4708	0.137567
4704	0.082755
4700	-0.067830
4696	-0.039410
4692	0.175452
4688	0.182342
4684	0.127887
4680	0.166368
4676	0.178766
4672	0.161004
4668	0.145888
4664	0.179696
4660	0.209259
4656	0.200700
4652	0.120735
4648	0.031805
4644	0.093364
4640	0.115180
4636	0.019931
4632	0.026011
4628	0.141644
4624	0.209522
4620	0.205874
4616	0.284361
4612	0.473713
4608	0.588083
4604	0.529408
4600	0.380015
4596	0.168824
4592	-0.070190
4588	-0.197076
4584	-0.194430
4580	-0.013947
4576	0.173997
4572	0.176620
4568	0.057816
4564	-0.205230
4560	-0.339984
4556	-0.144243
4552	-0.100898
4548	-0.224137
4544	0.117683
4540	0.533962
4536	0.577712
4532	0.744795
4528	0.882196
4524	0.647950
4520	0.618290
4516	0.670766
4512	0.204229
4508	-0.180530
4504	-0.061869
4500	0.018358
4496	0.099301
4492	0.159740
4488	0.050854
4484	0.330376
4480	0.321125
4476	-1.452684
4472	0.940132
4468	7.014465
4464	3.108191
4460	-2.517652
4456	0.192713
4452	1.195120
4448	-0.014781
4444	-0.072884
4440	-0.017237
4436	-0.188755
4432	-0.288724
4428	-0.218653
4424	-0.092554
4420	-0.271010
4416	-0.582289
4412	-0.648379
4408	-0.565552
4404	-0.275397
4400	0.156664
4396	0.321435
4392	0.201010
4388	-0.008082
4384	-0.101542
4380	-0.122451
4376	-0.142693
4372	0.082254
4368	0.287342
4364	0.225925
4360	0.121116
4356	0.036549
4352	0.066208
4348	0.164675
4344	0.060105
4340	-0.139737
4336	-0.186133
4332	-0.089907
4328	0.034856
4324	0.045680
4320	0.060653
4316	0.167322
4312	0.224137
4308	0.165271
4304	0.017070
4300	-0.137829
4296	-0.097608
4292	0.069761
4288	0.118374
4284	0.009822
4280	-0.127887
4276	-0.072240
4272	0.130581
4268	0.210404
4264	0.136566
4260	0.024151
4256	-0.024056
4252	0.029659
4248	0.094461
4244	0.075817
4240	0.108814
4236	0.206422
4232	0.161337
4228	0.082635
4224	0.138521
4220	0.305771
4216	0.454473
4212	0.461459
4208	0.483155
4204	0.417971
4200	0.107789
4196	-0.308036
4192	-0.670909
4188	-0.376272
4184	0.331854
4180	0.363588
4176	-0.001454
4172	-0.095438
4168	-0.202822
4164	-0.740671
4160	-0.902700
4156	-0.193691
4152	0.292110
4148	0.188851
4144	0.191164
4140	0.290298
4136	0.273227
4132	0.229883
4128	0.226259
4124	0.140476
4120	-0.034809
4116	-0.025939
4112	-0.021600
4108	-0.153350
4104	-0.123310
4100	0.020480
4096	0.025677
4092	-0.031876
4088	0.013041
4084	0.130772
4080	0.181770
4076	0.098586
4072	0.075101
4068	0.168132
4064	0.247788
4060	0.275063
4056	0.191092
4052	0.021958
4048	-0.072240
4044	-0.010967
4040	0.063514
4036	0.032258
4032	-0.026893
4028	-0.029635
4024	-0.010704
4020	-0.044965
4016	-0.096511
4012	-0.039005
4008	0.096464
4004	0.210857
4000	0.221705
3996	0.106620
3992	0.006985
3988	-0.005841
3984	0.006365
3980	0.073528
3976	0.149178
3972	0.039148
3968	-0.047206
3964	0.060939
3960	0.075769
3956	0.016117
3952	0.081753
3948	0.163269
3944	0.198984
3940	0.214910
3936	0.172090
3932	0.103497
3928	0.024795
3924	-0.058436
3920	-0.104308
3916	-0.022053
3912	0.058436
3908	0.030279
3904	0.066494
3900	0.097012
3896	0.076508
3892	0.078845
3888	0.050783
3884	0.071358
3880	0.195860
3876	0.294184
3872	0.278949
3868	0.114440
3864	-0.051712
3860	-0.045752
3856	-0.000071
3852	-0.018000
3848	0.066566
3844	0.225234
3840	0.182914
3836	0.012397
3832	-0.021505
3828	0.022268
3824	0.061964
3820	0.134992
3816	0.111842
3812	0.064182
3808	0.082612
3804	0.092077
3800	0.106406
3796	0.095319
3792	0.003862
3788	-0.104951
3784	-0.077772
3780	0.040864
3776	0.085163
3772	0.033068
3768	0.004506
3764	0.036859
3760	0.046944
3756	0.094342
3752	0.135540
3748	0.098180
3744	0.082135
3740	0.095415
3736	0.067615
3732	0.025749
3728	0.009608
3724	0.010156
3720	0.021672
3716	-0.039815
3712	-0.148463
3708	-0.124287
3704	-0.011420
3700	0.016808
3696	-0.037622
3692	-0.057363
3688	0.000262
3684	0.026988
3680	-0.022220
3676	-0.003194
3672	0.078034
3668	0.123071
3664	0.109505
3660	0.056314
3656	0.027775
3652	-0.006151
3648	0.000929
3644	0.078463
3640	0.063776
3636	-0.025773
3632	-0.034761
3628	-0.008058
3624	0.045609
3620	0.081276
3616	0.028753
3612	0.064778
3608	0.135588
3604	0.037193
3600	-0.047540
3596	-0.017738
3592	-0.021576
3588	-0.031542
3584	0.013399
3580	0.075650
3576	0.111913
3572	0.046324
3568	-0.070786
3564	-0.099825
3560	-0.027966
3556	0.027155
3552	-0.034308
3548	-0.023865
3544	0.134062
3540	0.208544
3536	0.170731
3532	0.152039
3528	0.144863
3524	0.157356
3520	0.182318
3516	0.122904
3512	0.058484
3508	0.050187
3504	0.021767
3500	-0.038886
3496	-0.091791
3492	-0.049304
3488	0.079083
3484	0.124359
3480	0.066781
3476	0.106406
3472	0.209760
3468	0.207686
3464	0.163173
3460	0.132393
3456	0.061845
3452	-0.030875
3448	-0.058126
3444	-0.056695
3440	-0.097537
3436	-0.113224
3432	0.005245
3428	0.136208
3424	0.105571
3420	0.117492
3416	0.226020
3412	0.199961
3408	0.062727
3404	-0.038170
3400	-0.035262
3396	0.042939
3392	0.085353
3388	0.080013
3384	0.084042
3380	0.068497
3376	0.037169
3372	0.036382
3368	0.047707
3364	0.035929
3360	0.024247
3356	0.085806
3352	0.186610
3348	0.165748
3344	-0.019025
3340	-0.133752
3336	-0.051474
3332	0.000071
3328	-0.069093
3324	-0.079035
3320	0.028610
3316	0.112986
3312	0.099968
3308	0.043272
3304	0.023698
3300	0.088977
3296	0.162220
3292	0.142431
3288	0.052332
3284	0.038170
3280	0.106859
3276	0.108218
3272	0.075936
3268	0.107312
3264	0.160861
3260	0.161695
3256	0.124263
3252	0.109791
3248	0.118398
3244	0.091958
3240	0.011301
3236	-0.031399
3232	0.027680
3228	0.085806
3224	0.077223
3220	0.061345
3216	0.038409
3212	0.056195
3208	0.183296
3204	0.225400
3200	0.128746
3196	0.149059
3192	0.211572
3188	0.142025
3184	0.042128
3180	0.035715
3176	0.094676
3172	0.072264
3168	-0.047111
3164	-0.196218
3160	-0.239968
3156	-0.094032
3152	0.064301
3148	0.122237
3144	0.153279
3140	0.195932
3136	0.259113
3132	0.303673
3128	0.247764
3124	0.183677
3120	0.143432
3116	-0.018572
3112	-0.174164
3108	-0.111818
3104	-0.025200
3100	-0.020980
3096	0.023651
3092	0.030732
3088	-0.027537
3084	-0.058293
3080	-0.058245
3076	-0.061225
3072	-0.060486
3068	-0.015163
3064	0.046324
3060	0.070381
3056	0.039196
3052	-0.048303
3048	-0.093936
3044	-0.021791
3040	0.074672
3036	0.095033
3032	0.057697
3028	0.061917
3024	0.110840
3020	0.080299
3016	0.010013
3012	0.026011
3008	0.033545
3004	-0.039434
3000	-0.026655
2996	0.061893
2992	0.077295
2988	0.130057
2984	0.189542
2980	0.102400
2976	0.012207
2972	-0.006413
2968	-0.037598
2964	-0.067710
2960	-0.083088
2956	-0.077772
2952	-0.009822
2948	0.079011
2944	0.109505
2940	0.077271
2936	0.023007
2932	-0.026679
2928	-0.060105
2924	-0.065445
2920	-0.014543
2916	0.092720
2912	0.144839
2908	0.090408
2904	-0.009298
2900	-0.100231
2896	-0.126290
2892	-0.100255
2888	-0.065064
2884	-0.015068
2880	0.022172
2876	0.018048
2872	-0.019907
2868	-0.025415
2864	0.026535
2860	0.020241
2856	-0.005006
2852	0.035572
2848	0.089979
2844	0.123095
2840	0.086522
2836	0.040555
2832	0.056219
2828	0.068187
2824	0.052046
2820	0.000953
2816	-0.032353
2812	0.023508
2808	0.109314
2804	0.165653
2800	0.166177
2796	0.153970
2792	0.162577
2788	0.141692
2784	0.141310
2780	0.158262
2776	0.096559
2772	-0.019431
2768	-0.116562
2764	-0.092482
2760	0.043272
2756	0.090932
2752	0.019145
2748	0.006985
2744	0.055313
2740	0.056982
2736	0.004529
2732	-0.071477
2728	-0.084042
2724	-0.038981
2720	-0.005269
2716	0.025677
2712	0.013685
2708	-0.024843
2704	-0.008416
2700	0.037980
2696	0.029063
2692	-0.016951
2688	-0.025081
2684	0.005245
2680	0.049948
2676	0.123047
2672	0.164604
2668	0.112318
2664	0.034070
2660	-0.025415
2656	-0.049853
2652	-0.003361
2648	0.060606
2644	0.094866
2640	0.079679
2636	-0.006532
2632	-0.038647
2628	0.000500
2624	-0.011467
2620	-0.057363
2616	-0.048565
2612	0.016975
2608	0.057983
2604	0.051903
2600	0.019121
2596	0.007963
2592	0.072407
2588	0.122404
2584	0.097632
2580	0.078940
2576	0.069117
2572	0.032258
2568	0.043344
2564	0.108265
2560	0.115513
2556	0.041890
2552	0.045323
2548	0.108051
2544	0.060772
2540	0.000882
2536	-0.015068
2532	-0.097274
2528	-0.170826
2524	-0.131916
2520	-0.008893
2516	0.085973
2512	0.100445
2508	0.101304
2504	0.041508
2500	-0.063705
2496	-0.077652
2492	-0.007319
2488	0.091075
2484	0.126051
2480	0.050878
2476	-0.011229
2472	-0.035166
2468	-0.059676
2464	-0.046896
2460	-0.044465
2456	-0.114178
2452	-0.138592
2448	-0.036883
2444	0.030660
2440	-0.044655
2436	-0.157833
2432	-0.139713
2428	0.110125
2424	0.397849
2420	0.460338
2416	0.389575
2412	0.250101
2408	0.095295
2404	0.083184
2400	0.076127
2396	0.019359
2392	0.042343
2388	0.091671
2384	0.096368
2380	0.079679
2376	0.060510
2372	0.019669
2368	-0.044703
2364	-0.042867
2360	0.086450
2356	0.199222
2352	0.196933
2348	0.182580
2344	0.165271
2340	0.129723
2336	0.162339
2332	0.282287
2328	0.371789
2324	0.340723
2320	0.293493
2316	0.320625
2312	0.395321
2308	0.489544
2304	0.565576
2300	0.595116
2296	0.609445
2292	0.653719
2288	0.746226
2284	0.854659
2280	0.928211
2276	0.950670
2272	0.987505
2268	1.075577
2264	1.190423
2260	1.302504
2256	1.394772
2252	1.519680
2248	1.679468
2244	1.827287
2240	1.943898
2236	2.082705
2232	2.249836
2228	2.439403
2224	2.684688
2220	2.926445
2216	3.166842
2212	3.417158
2208	3.666377
2204	3.929162
2200	4.230260
2196	4.538083
2192	4.754519
2188	4.933071
2184	5.162668
2180	5.479216
2176	5.891871
2172	6.267976
2168	6.565165
2164	6.929922
2160	7.388377
2156	7.839465
2152	8.217763
2148	8.536458
2144	8.861613
2140	9.210562
2136	9.512233
2132	9.778714
2128	10.1398
2124	10.6153
2120	11.0917
2116	11.4795
2112	11.8791
2108	12.3433
2104	12.7765
2100	13.1888
2096	13.5792
2092	13.958
2088	14.3437
2084	14.6327
2080	14.9359
2076	15.4691
2072	16.0899
2068	16.5222
2064	16.7228
2060	16.8804
2056	17.2416
2052	17.6859
2048	17.9535
2044	18.2101
2040	18.5798
2036	18.9901
2032	19.362
2028	19.644
2024	19.9029
2020	20.1682
2016	20.4225
2012	20.6794
2008	20.967
2004	21.2368
2000	21.5251
1996	21.8548
1992	22.064
1988	22.21
1984	22.4283
1980	22.638
1976	22.8513
1972	23.1272
1968	23.3516
1964	23.534
1960	23.7465
1956	23.9014
1952	24.0378
1948	24.2176
1944	24.3791
1940	24.5376
1936	24.7302
1932	24.9039
1928	25.0141
1924	25.1625
1920	25.4006
1916	25.6508
1912	25.8549
1908	25.9372
1904	25.9608
1900	26.0403
1896	26.1051
1892	26.0858
1888	26.0578
1884	26.151
1880	26.3541
1876	26.558
1872	26.7001
1868	26.7578
1864	26.8147
1860	26.9332
1856	27.0378
1852	27.1509
1848	27.2997
1844	27.3617
1840	27.3271
1836	27.2961
1832	27.2951
1828	27.3247
1824	27.4141
1820	27.552
1816	27.6807
1812	27.7981
1808	27.9084
1804	27.9519
1800	27.938
1796	27.9587
1792	28.01
1788	28.0115
1784	28.0009
1780	28.0191
1776	28.0174
1772	28.0276
1768	28.0591
1764	28.1084
1760	28.212
1756	28.3059
1752	28.3357
1748	28.3424
1744	28.3747
1740	28.4081
1736	28.4155
1732	28.4296
1728	28.432
1724	28.3854
1720	28.3714
1716	28.3934
1712	28.3352
1708	28.2919
1704	28.4064
1700	28.6208
1696	28.7499
1692	28.7559
1688	28.7846
1684	28.8382
1680	28.8003
1676	28.6435
1672	28.5042
1668	28.4814
1664	28.495
1660	28.5517
1656	28.697
1652	28.7894
1648	28.7936
1644	28.8182
1640	28.8732
1636	28.9255
1632	28.9469
1628	28.9386
1624	28.901
1620	28.8789
1616	28.8825
1612	28.8554
1608	28.8144
1604	28.7667
1600	28.7302
1596	28.7356
1592	28.7718
1588	28.7931
1584	28.8151
1580	28.9156
1576	29.0184
1572	29.0577
1568	29.08
1564	29.119
1560	29.1527
1556	29.047
1552	28.9311
1548	29.0138
1544	29.1413
1540	29.1351
1536	29.0297
1532	28.9405
1528	28.9202
1524	28.9937
1520	29.1085
1516	29.141
1512	29.1581
1508	29.1928
1504	29.1472
1500	29.1003
1496	29.0983
1492	29.0902
1488	29.0779
1484	29.0426
1480	29.0079
1476	29.051
1472	29.1559
1468	29.1987
1464	29.1389
1460	29.0658
1456	29.0517
1452	29.0659
1448	29.0429
1444	29.0377
1440	29.0897
1436	29.1066
1432	29.0912
1428	29.0844
1424	29.1079
1420	29.1964
1416	29.2616
1412	29.2327
1408	29.173
1404	29.1522
1400	29.2192
1396	29.3424
1392	29.4243
1388	29.4224
1384	29.3371
1380	29.2459
1376	29.1929
1372	29.188
1368	29.1992
1364	29.1819
1360	29.1873
1356	29.1848
1352	29.1517
1348	29.169
1344	29.2795
1340	29.3884
1336	29.4085
1332	29.396
1328	29.3845
1324	29.3846
1320	29.3971
1316	29.3225
1312	29.1798
1308	29.1533
1304	29.218
1300	29.2137
1296	29.1991
1292	29.2587
1288	29.3303
1284	29.3807
1280	29.3984
1276	29.3828
1272	29.4097
1268	29.4774
1264	29.4489
1260	29.368
1256	29.3843
1252	29.4084
1248	29.3856
1244	29.3385
1240	29.2802
1236	29.3183
1232	29.4654
1228	29.6154
1224	29.647
1220	29.5835
1216	29.5425
1212	29.5405
1208	29.5954
1204	29.6326
1200	29.5579
1196	29.4717
1192	29.433
1188	29.3709
1184	29.2953
1180	29.3309
1176	29.4183
1172	29.3958
1168	29.3401
1164	29.3537
1160	29.3879
1156	29.4671
1152	29.6288
1148	29.6726
1144	29.5399
1140	29.4499
1136	29.4594
1132	29.4336
1128	29.3371
1124	29.2768
1120	29.2688
1116	29.2534
1112	29.2677
1108	29.2655
1104	29.1441
1100	28.989
1096	28.9907
1092	29.2252
1088	29.5507
1084	29.6134
1080	29.3471
1076	29.2051
1072	29.2568
1068	29.1814
1064	29.1216
1060	29.2208
1056	29.2868
1052	29.31
1048	29.396
1044	29.5063
1040	29.5437
1036	29.5137
1032	29.5012
1028	29.4454
1024	29.3641
1020	29.3595
1016	29.324
1012	29.1645
1008	29.0063
1004	28.9642
1000	28.9926
996	 29.0559
992	 29.1752
988	 29.3959
984	 29.6611
980	 29.7922
976	 29.7539
972	 29.6277
968	 29.5202
964	 29.4738
960	 29.4274
956	 29.3159
952	 29.2048
948	 29.1289
944	 28.9361
940	 28.7441
936	 28.7769
932	 28.9454
928	 29.0854
924	 29.1671
920	 29.2253
916	 29.2873
912	 29.2711
908	 29.1164
904	 28.9558
900	 28.8638
896	 28.7936
892	 28.723
888	 28.6688
884	 28.584
880	 28.4447
876	 28.3646
872	 28.5026
868	 28.6685
864	 28.6359
860	 28.6676
856	 28.8582
852	 28.9119
848	 28.8431
844	 28.9239
840	 29.0121
836	 28.9075
832	 28.6619
828	 28.3475
824	 28.2072
820	 28.2593
816	 28.2982
812	 28.4056
808	 28.569
804	 28.6573
800	 28.6479
796	 28.6112
792	 28.6061
788	 28.5062
784	 28.3011
780	 28.0227
776	 27.7794
772	 27.7904
768	 27.825
764	 27.7381
760	 27.676
756	 27.6369
752	 27.7241
748	 28.0033
744	 28.1069
740	 27.9819
736	 28.0606
732	 28.1485
728	 28.0441
724	 28.0235
720	 27.9737
716	 27.6863
712	 27.3559
708	 27.204
704	 27.1306
700	 26.9754
696	 26.8426
692	 26.9296
688	 27.243
684	 27.4733
680	 27.4362
676	 27.3528
672	 27.4261
668	 27.4802
664	 27.2
660	 26.6807
656	 26.2179
652	 25.9465
648	 25.85
644	 25.8294
640	 25.8649
636	 25.9737
632	 26.1789
628	 26.3629
624	 26.4073
620	 26.4761
616	 26.5873
612	 26.4194
608	 26.1282
604	 26.1117
600	 25.8978
596	 25.2888
592	 24.9667
588	 24.9627
584	 24.8968
580	 24.7576
576	 24.6146
572	 24.7242
568	 25.1931
564	 25.5498
560	 25.4959
556	 25.3584
552	 25.1417
548	 24.7659
544	 24.6632
540	 24.8766
536	 24.8524
532	 24.3368
528	 23.702
524	 23.3186
520	 23.3476
516	 23.4887
512	 23.0966
508	 22.6881
504	 23.3003
500	 24.2944
496	 24.59
492	 24.2464
488	 23.809
484	 23.7147
480	 23.5933
476	 23.1988
472	 22.7022
468	 22.3994
464	 22.8666
460	 23.2082
456	 22.4913
452	 22.253
448	 23.559
444	 25.4459
440	 26.9678
436	 27.1545
432	 25.5277
428	 23.3198
424	 21.1529
420	 18.8412
416	 17.8447
412	 20.2608
408	 29.5871
404	 38.9608
400	 34.2677
396	 26.7552
392	 26.0411
388	 14.6819
384	 -7.360839
380	 6.611633
376	 53.4559
372	 21.4021
370	 -30.9466