File: Bakgrunnsmateriale/MATLAB/FTIR/ftir_data/LPE454/Mapping_121/LPE454_t118_cm-1.asc
PE IR       SPECTRUM    SPECTRUM    ASCII       PEDS        1.60
  -1
LP0B58~1.ASC
17/05/20
00:19:49.00
17/05/20
00:19:49.00
tln
$LPE454_t0118$<tbV0>[-5.2,13.0,8.0,0.0,27,1,0]
370
64

2002,4.07
MIRTGS : RIGHTBACK : INTERNAL 2
MIR : ON : INTERNAL 2
OPTKBR

0.200000
8
8.000000
FILLER
RATIO
SPECTRUM
UNLOCKED 256

DOUBLE
64
COMBINED
1
0
0

1.000000
RATIO

1
0
TRUE
51149
0
LEFT NOT FITTED RIGHT NOT FITTED 0
NONE
NONE
15600
12
4.427000
51148
TRUE
1 0 8 72 0 0 0 0

15798

#HDR
-1
-1
#GR
CM-1
%T
2.38419e-05
0.0
5000
-1.000000
4631
8
34.3055
-2.301430
#DATA
5000	-0.100803
4996	-0.176405
4992	-0.220322
4988	-0.152301
4984	0.022888
4980	0.093436
4976	0.064659
4972	0.067639
4968	0.307488
4964	0.547051
4960	0.568246
4956	0.570917
4952	0.616884
4948	0.700950
4944	0.716614
4940	0.596189
4936	0.491476
4932	0.421905
4928	0.389122
4924	0.372576
4920	0.278472
4916	0.191521
4912	0.234246
4908	0.398969
4904	0.519418
4900	0.430130
4896	0.276541
4892	0.285053
4888	0.383210
4884	0.392150
4880	0.399279
4876	0.378394
4872	0.245594
4868	0.239372
4864	0.340032
4860	0.211811
4856	0.107502
4852	0.226879
4848	0.224924
4844	0.065231
4840	-0.001764
4836	-0.030350
4832	-0.094008
4828	-0.111794
4824	-0.173544
4820	-0.341987
4816	-0.316858
4812	-0.084400
4808	0.036287
4804	0.019383
4800	0.208616
4796	0.523042
4792	0.632739
4788	0.596141
4784	0.496983
4780	0.406098
4776	0.358271
4772	0.331616
4768	0.426387
4764	0.657796
4760	0.821375
4756	0.808000
4752	0.761198
4748	0.700736
4744	0.650262
4740	0.675702
4736	0.706768
4732	0.706577
4728	0.704884
4724	0.673174
4720	0.580310
4716	0.594234
4712	0.768327
4708	0.913453
4704	0.784206
4700	0.465798
4696	0.261950
4692	0.327944
4688	0.626397
4684	0.773620
4680	0.788879
4676	0.923776
4672	0.835013
4668	0.588917
4664	0.369596
4660	-0.030899
4656	-0.502991
4652	-0.617718
4648	-0.539183
4644	-0.797557
4640	-0.966954
4636	-0.538444
4632	-0.144338
4628	-0.140595
4624	-0.090122
4620	-0.003409
4616	0.209093
4612	0.199007
4608	-0.176811
4604	-0.388979
4600	-0.861024
4596	-1.290535
4592	-0.616073
4588	2.946877
4584	11.4678
4580	22.0235
4576	28.2159
4572	22.1858
4568	9.059977
4564	0.599813
4560	-1.692962
4556	-1.642918
4552	-1.918315
4548	-2.301430
4544	-1.903176
4540	-1.064085
4536	-0.523138
4532	-0.508499
4528	-0.849771
4524	-1.328063
4520	-1.476907
4516	-1.121616
4512	-0.729227
4508	-0.609064
4504	-0.417685
4500	-0.134348
4496	-0.141501
4492	-0.288343
4488	-0.344920
4484	-0.022339
4480	0.463557
4476	0.687360
4472	0.842070
4468	1.043629
4464	0.966453
4460	0.639700
4456	0.464415
4452	0.478339
4448	0.495290
4444	0.497388
4440	0.512313
4436	0.483489
4432	0.337266
4428	0.200319
4424	0.218486
4420	0.364160
4416	0.498795
4412	0.475597
4408	0.327873
4404	0.148367
4400	-0.005698
4396	0.010871
4392	0.081062
4388	0.083637
4384	0.203633
4380	0.282454
4376	0.179028
4372	0.042462
4368	-0.064969
4364	-0.076675
4360	0.038337
4356	0.182008
4352	0.138473
4348	0.024843
4344	0.016403
4340	-0.032711
4336	-0.072789
4332	0.010657
4328	0.063443
4324	0.097441
4320	0.123500
4316	0.145745
4312	0.191760
4308	0.228309
4304	0.186681
4300	0.092148
4296	0.083661
4292	0.171542
4288	0.252008
4284	0.343799
4280	0.441050
4276	0.483822
4272	0.468897
4268	0.285935
4264	0.137066
4260	0.279641
4256	0.395321
4252	0.327634
4248	0.183391
4244	0.033688
4240	0.062584
4236	0.141239
4232	0.045800
4228	-0.093340
4224	-0.011563
4220	0.312042
4216	0.415539
4212	0.221347
4208	0.185847
4204	0.403428
4200	0.591635
4196	0.528359
4192	0.342702
4188	-0.002980
4184	-0.389099
4180	-0.184583
4176	0.138306
4172	0.007271
4168	-0.053834
4164	0.044155
4160	0.264787
4156	0.594973
4152	0.835442
4148	0.663900
4144	-0.178241
4140	-0.691437
4136	-0.219154
4132	-0.108194
4128	-0.834298
4124	-0.900816
4120	-0.205159
4116	0.099897
4112	0.022721
4108	0.351667
4104	0.905323
4100	0.926852
4096	0.736045
4092	0.272083
4088	-0.379753
4084	-0.121426
4080	0.554132
4076	0.840616
4072	0.863552
4068	0.630760
4064	0.407910
4060	0.394964
4056	0.439190
4052	0.415706
4048	0.292992
4044	0.183796
4040	0.184798
4036	0.121474
4032	0.098347
4028	0.241303
4024	0.249552
4020	0.153398
4016	0.146389
4012	0.179600
4008	0.205278
4004	0.176906
4000	0.158286
3996	0.169444
3992	0.124335
3988	-0.015258
3984	-0.191974
3980	-0.261044
3976	-0.177145
3972	-0.054979
3968	0.025343
3964	0.068521
3960	0.101208
3956	0.047302
3952	-0.077581
3948	-0.103783
3944	0.000810
3940	0.091433
3936	-0.014829
3932	-0.172972
3928	-0.129127
3924	-0.068902
3920	-0.116872
3916	-0.055742
3912	0.081157
3908	0.158023
3904	0.158166
3900	0.130081
3896	0.085163
3892	0.086188
3888	0.184106
3884	0.237131
3880	0.219893
3876	0.257062
3872	0.321412
3868	0.307321
3864	0.204610
3860	0.074481
3856	0.029969
3852	0.087046
3848	0.151443
3844	0.205922
3840	0.229120
3836	0.260710
3832	0.314426
3828	0.308394
3824	0.292921
3820	0.276875
3816	0.189638
3812	0.076222
3808	0.000047
3804	-0.050210
3800	-0.098538
3796	-0.078010
3792	-0.019168
3788	-0.083684
3784	-0.190234
3780	-0.086784
3776	0.133800
3772	0.196599
3768	0.064754
3764	-0.054502
3760	0.006461
3756	0.116229
3752	0.140595
3748	0.050830
3744	-0.024890
3740	0.074052
3736	0.142598
3732	0.083637
3728	0.004458
3724	-0.046944
3720	-0.002741
3716	0.101757
3712	0.173044
3708	0.123119
3704	-0.028133
3700	-0.081896
3696	0.012087
3692	0.101017
3688	0.127387
3684	0.146913
3680	0.136017
3676	0.089955
3672	0.090289
3668	0.097680
3664	0.053215
3660	0.043582
3656	0.052046
3652	0.057053
3648	0.136566
3644	0.119543
3640	-0.000405
3636	0.039172
3632	0.151228
3628	0.155830
3624	0.108957
3620	0.081253
3616	0.040650
3612	-0.014424
3608	-0.006699
3604	0.038576
3600	0.019693
3596	-0.052428
3592	-0.112652
3588	-0.102615
3584	-0.050973
3580	-0.024628
3576	-0.022578
3572	-0.048756
3568	-0.049567
3564	0.046944
3560	0.165081
3556	0.267815
3552	0.272274
3548	0.163292
3544	0.082015
3540	-0.010132
3536	-0.078797
3532	-0.078010
3528	-0.085353
3524	-0.075411
3520	-0.093245
3516	-0.112533
3512	-0.041985
3508	0.015640
3504	-0.036048
3500	-0.078916
3496	0.028944
3492	0.187373
3488	0.234651
3484	0.170278
3480	0.084519
3476	0.061869
3472	0.133466
3468	0.232791
3464	0.230669
3460	0.139713
3456	0.110960
3452	0.128602
3448	0.118684
3444	0.093460
3440	0.056433
3436	-0.011873
3432	-0.097084
3428	-0.129055
3424	-0.086450
3420	0.013017
3416	0.063824
3412	0.025844
3408	0.034308
3404	0.116729
3400	0.137710
3396	0.078058
3392	0.041747
3388	0.059795
3384	0.109004
3380	0.183701
3376	0.235629
3372	0.189089
3368	0.147080
3364	0.199985
3360	0.276327
3356	0.266790
3352	0.112724
3348	-0.023341
3344	-0.020766
3340	0.025963
3336	0.053477
3332	0.061082
3328	0.056195
3324	0.016021
3320	-0.078845
3316	-0.120639
3312	-0.085067
3308	-0.054907
3304	0.010251
3300	0.093936
3296	0.102901
3292	0.044822
3288	0.014448
3284	0.044488
3280	0.101375
3276	0.144100
3272	0.145030
3268	0.128698
3264	0.066494
3260	-0.004315
3256	0.034022
3252	0.080537
3248	0.047206
3244	-0.004315
3240	-0.017833
3236	0.018048
3232	0.018405
3228	-0.009465
3224	0.009799
3220	0.053477
3216	0.074982
3212	0.066781
3208	0.051307
3204	0.042152
3200	0.024938
3196	0.006842
3192	-0.008559
3188	-0.002360
3184	0.034523
3180	-0.004959
3176	-0.054240
3172	0.005125
3168	0.050449
3164	-0.001978
3160	-0.047183
3156	-0.026965
3152	0.016427
3148	0.076723
3144	0.041890
3140	-0.058603
3136	-0.012302
3132	0.083851
3128	0.133609
3124	0.199937
3120	0.179243
3116	0.068545
3112	0.014495
3108	-0.010204
3104	-0.038194
3100	-0.052261
3096	-0.044488
3092	-0.031733
3088	-0.023460
3084	0.050497
3080	0.103211
3076	0.048375
3072	-0.014781
3068	-0.037169
3064	-0.008130
3060	0.021195
3056	0.017333
3052	0.049901
3048	0.105738
3044	0.155973
3040	0.168609
3036	0.158095
3032	0.178790
3028	0.155162
3024	0.071644
3020	0.020027
3016	0.010561
3012	0.020527
3008	0.052642
3004	0.089335
3000	0.099921
2996	0.086164
2992	0.068783
2988	0.035023
2984	-0.034761
2980	-0.061559
2976	0.007319
2972	0.084996
2968	0.104188
2964	0.046229
2960	-0.040221
2956	-0.040316
2952	0.052142
2948	0.127577
2944	0.162076
2940	0.200510
2936	0.206279
2932	0.183439
2928	0.156879
2924	0.076079
2920	-0.014734
2916	-0.045680
2912	-0.045180
2908	-0.049901
2904	-0.039911
2900	-0.015735
2896	-0.010848
2892	0.002145
2888	0.048255
2884	0.107145
2880	0.162887
2876	0.187206
2872	0.130510
2868	0.028395
2864	-0.012636
2860	0.019288
2856	0.124621
2852	0.197553
2848	0.079131
2844	-0.042653
2840	-0.015282
2836	0.038290
2832	0.040912
2828	0.007510
2824	-0.029802
2820	-0.051927
2816	-0.049495
2812	-0.042438
2808	-0.040459
2804	-0.023078
2800	-0.016760
2796	-0.018429
2792	0.018572
2788	0.058150
2784	0.079417
2780	0.097513
2776	0.092458
2772	0.091576
2768	0.105237
2764	0.098824
2760	0.075221
2756	0.035715
2752	0.015711
2748	0.037646
2744	0.063514
2740	0.093817
2736	0.104331
2732	0.074195
2728	0.056672
2724	0.043106
2720	0.024342
2716	0.055384
2712	0.090312
2708	0.049519
2704	0.002050
2700	0.006079
2696	0.009274
2692	0.013232
2688	0.025749
2684	0.024676
2680	0.038695
2676	0.060200
2672	0.051283
2668	0.046563
2664	0.064969
2660	0.095677
2656	0.141310
2652	0.095844
2648	-0.019860
2644	-0.018191
2640	0.065159
2636	0.073599
2632	0.022649
2628	-0.018382
2624	-0.048208
2620	-0.018858
2616	0.021028
2612	-0.000476
2608	-0.018334
2604	-0.013279
2600	-0.024747
2596	-0.052714
2592	-0.040960
2588	0.025463
2584	0.053286
2580	0.022149
2576	0.055408
2572	0.119113
2568	0.091934
2564	0.064826
2560	0.084137
2556	0.040769
2552	-0.040125
2548	-0.063991
2544	-0.033283
2540	0.038361
2536	0.126981
2532	0.161409
2528	0.078916
2524	-0.020980
2520	0.020432
2516	0.144076
2512	0.128817
2508	-0.044798
2504	-0.144028
2500	-0.148677
2496	-0.133371
2492	-0.088357
2488	-0.036716
2484	0.007557
2480	0.031614
2476	0.041890
2472	0.072145
2468	0.088262
2464	0.056743
2460	0.053310
2456	0.037622
2452	0.020599
2448	0.027990
2444	0.014185
2440	0.008344
2436	0.057220
2432	0.117540
2428	0.064301
2424	-0.068235
2420	-0.125265
2416	-0.135922
2412	-0.112557
2408	0.005531
2404	0.135922
2400	0.168371
2396	0.139451
2392	0.134587
2388	0.166463
2384	0.177407
2380	0.119924
2376	0.077867
2372	0.137472
2368	0.199604
2364	0.187110
2360	0.174450
2356	0.213694
2352	0.265955
2348	0.312089
2344	0.365281
2340	0.384235
2336	0.399351
2332	0.461506
2328	0.520110
2324	0.566458
2320	0.674676
2316	0.799393
2312	0.825691
2308	0.808501
2304	0.814056
2300	0.845170
2296	0.958180
2292	1.139616
2288	1.277899
2284	1.368904
2280	1.490616
2276	1.610159
2272	1.686024
2268	1.768970
2264	1.889109
2260	2.063250
2256	2.260565
2252	2.431869
2248	2.631855
2244	2.865791
2240	3.083348
2236	3.319382
2232	3.603816
2228	3.847908
2224	4.007935
2220	4.216337
2216	4.553747
2212	4.918169
2208	5.235767
2204	5.563497
2200	5.877566
2196	6.171321
2192	6.542515
2188	6.946420
2184	7.336711
2180	7.754731
2176	8.161973
2172	8.561539
2168	9.027910
2164	9.499955
2160	9.865379
2156	10.1459
2152	10.5179
2148	11.0305
2144	11.5246
2140	12.0109
2136	12.5242
2132	12.9619
2128	13.3657
2124	13.8441
2120	14.3585
2116	14.8141
2112	15.2026
2108	15.6131
2104	16.0911
2100	16.5626
2096	16.9922
2092	17.4326
2088	17.9327
2084	18.4168
2080	18.8026
2076	19.1767
2072	19.5786
2068	19.9341
2064	20.2502
2060	20.6118
2056	21.0094
2052	21.4066
2048	21.8189
2044	22.2303
2040	22.6168
2036	22.9545
2032	23.2739
2028	23.6312
2024	23.9739
2020	24.2639
2016	24.5352
2012	24.8057
2008	25.0865
2004	25.375
2000	25.6373
1996	25.8746
1992	26.1413
1988	26.4093
1984	26.6447
1980	26.9087
1976	27.181
1972	27.4167
1968	27.6347
1964	27.8215
1960	27.9982
1956	28.1996
1952	28.4137
1948	28.6252
1944	28.8129
1940	28.9716
1936	29.1318
1932	29.3288
1928	29.5564
1924	29.8073
1920	30.052
1916	30.2218
1912	30.3272
1908	30.3907
1904	30.4256
1900	30.4864
1896	30.5914
1892	30.7059
1888	30.7975
1884	30.9307
1880	31.1394
1876	31.3076
1872	31.3938
1868	31.4898
1864	31.6292
1860	31.7771
1856	31.8992
1852	31.9732
1848	32.0182
1844	32.0559
1840	32.1008
1836	32.156
1832	32.2052
1828	32.28
1824	32.3987
1820	32.5137
1816	32.6111
1812	32.7041
1808	32.7833
1804	32.8553
1800	32.9248
1796	32.9954
1792	33.0852
1788	33.1181
1784	33.0621
1780	33.0483
1776	33.134
1772	33.2209
1768	33.2375
1764	33.2431
1760	33.2596
1756	33.2669
1752	33.3173
1748	33.3955
1744	33.4348
1740	33.4527
1736	33.4945
1732	33.5924
1728	33.6724
1724	33.6048
1720	33.4703
1716	33.4238
1712	33.4462
1708	33.4574
1704	33.4916
1700	33.6115
1696	33.7516
1692	33.8197
1688	33.8253
1684	33.8284
1680	33.8623
1676	33.9334
1672	33.9399
1668	33.8776
1664	33.9027
1660	33.9189
1656	33.8272
1652	33.7677
1648	33.8082
1644	33.8768
1640	33.9188
1636	33.9837
1632	34.0652
1628	34.0595
1624	33.9933
1620	33.9714
1616	34.0227
1612	34.0656
1608	34.0087
1604	33.9335
1600	33.9484
1596	33.9963
1592	33.9999
1588	34.0073
1584	34.0255
1580	34.0258
1576	34.0641
1572	34.1124
1568	34.1216
1564	34.1293
1560	34.156
1556	34.1579
1552	34.1206
1548	34.0866
1544	34.0269
1540	33.9103
1536	33.8514
1532	33.9149
1528	33.9862
1524	33.9974
1520	34.0217
1516	34.1099
1512	34.2232
1508	34.2982
1504	34.2899
1500	34.1944
1496	34.0407
1492	33.9397
1488	33.9725
1484	34.0412
1480	34.0644
1476	34.0342
1472	33.9777
1468	33.9371
1464	33.892
1460	33.8539
1456	33.8848
1452	33.9613
1448	34.0324
1444	34.0896
1440	34.1442
1436	34.1837
1432	34.197
1428	34.1321
1424	33.9875
1420	33.8953
1416	33.8795
1412	33.8511
1408	33.7825
1404	33.7558
1400	33.8102
1396	33.9052
1392	34.0278
1388	34.0835
1384	34.046
1380	33.9941
1376	33.9534
1372	33.9279
1368	33.9044
1364	33.8717
1360	33.8655
1356	33.8724
1352	33.8269
1348	33.7996
1344	33.8573
1340	33.8799
1336	33.8641
1332	33.8937
1328	33.9535
1324	34.0416
1320	34.0899
1316	34.0518
1312	34.012
1308	33.9998
1304	33.9929
1300	33.9553
1296	33.8918
1292	33.8362
1288	33.7727
1284	33.7381
1280	33.7479
1276	33.7556
1272	33.7668
1268	33.8289
1264	33.904
1260	33.928
1256	33.9493
1252	33.9656
1248	33.9272
1244	33.8407
1240	33.7308
1236	33.6049
1232	33.5129
1228	33.509
1224	33.5373
1220	33.5485
1216	33.5644
1212	33.6399
1208	33.7659
1204	33.8382
1200	33.8325
1196	33.8107
1192	33.7964
1188	33.7322
1184	33.611
1180	33.5022
1176	33.4214
1172	33.3618
1168	33.3142
1164	33.2854
1160	33.3317
1156	33.4142
1152	33.4066
1148	33.3605
1144	33.4301
1140	33.5476
1136	33.5841
1132	33.5641
1128	33.4726
1124	33.368
1120	33.3198
1116	33.2245
1112	33.0941
1108	33.0179
1104	32.9602
1100	32.9271
1096	33.0084
1092	33.1598
1088	33.2237
1084	33.2502
1080	33.3505
1076	33.4213
1072	33.4031
1068	33.3487
1064	33.2926
1060	33.1915
1056	32.9952
1052	32.8111
1048	32.7758
1044	32.8424
1040	32.8651
1036	32.8033
1032	32.778
1028	32.8796
1024	32.9532
1020	32.8619
1016	32.8087
1012	32.8729
1008	32.8861
1004	32.8649
1000	32.8542
996	 32.8159
992	 32.7399
988	 32.6625
984	 32.5397
980	 32.3218
976	 32.1783
972	 32.2467
968	 32.4172
964	 32.5203
960	 32.5528
956	 32.6286
952	 32.7219
948	 32.6507
944	 32.4427
940	 32.3704
936	 32.3301
932	 32.1101
928	 31.9061
924	 31.8196
920	 31.7882
916	 31.8005
912	 31.8283
908	 31.9216
904	 32.1226
900	 32.2597
896	 32.2301
892	 32.1095
888	 31.9791
884	 32.0113
880	 32.1516
876	 32.0432
872	 31.7044
868	 31.4784
864	 31.431
860	 31.4603
856	 31.5258
852	 31.5088
848	 31.4015
844	 31.3845
840	 31.4079
836	 31.3481
832	 31.3423
828	 31.4212
824	 31.3212
820	 31.2178
816	 31.373
812	 31.4116
808	 31.161
804	 30.8102
800	 30.6217
796	 30.6619
792	 30.7064
788	 30.6943
784	 30.654
780	 30.6574
776	 30.7176
772	 30.7532
768	 30.8016
764	 30.8442
760	 30.7646
756	 30.6076
752	 30.5317
748	 30.3897
744	 30.0898
740	 29.8878
736	 29.7618
732	 29.5687
728	 29.4396
724	 29.4639
720	 29.5954
716	 29.8102
712	 30.0534
708	 30.1238
704	 29.9891
700	 29.8733
696	 29.8511
692	 29.6892
688	 29.3768
684	 29.181
680	 28.9916
676	 28.8699
672	 28.9406
668	 28.9699
664	 29.0552
660	 29.3136
656	 29.4034
652	 29.2287
648	 29.113
644	 29.0641
640	 28.9194
636	 28.6609
632	 28.3688
628	 28.2798
624	 28.3312
620	 28.2441
616	 27.9743
612	 27.5746
608	 27.3257
604	 27.4817
600	 27.7741
596	 27.7671
592	 27.4247
588	 27.2822
584	 27.4516
580	 27.4672
576	 27.3197
572	 27.2457
568	 27.1302
564	 26.8642
560	 26.6644
556	 26.5148
552	 26.355
548	 26.2497
544	 26.1177
540	 26.0714
536	 26.091
532	 25.9413
528	 25.8659
524	 26.2391
520	 26.5558
516	 26.1965
512	 25.7046
508	 25.456
504	 25.4935
500	 25.2383
496	 24.0814
492	 23.7069
488	 24.5761
484	 25.0367
480	 24.5259
476	 23.8517
472	 23.9782
468	 24.8094
464	 25.2197
460	 24.2602
456	 23.2844
452	 22.6557
448	 21.4475
444	 21.5805
440	 24.1752
436	 25.6477
432	 22.9065
428	 20.1166
424	 21.9643
420	 24.8755
416	 23.4406
412	 20.0773
408	 18.6841
404	 16.1294
400	 12.1475
396	 13.8222
392	 18.4747
388	 21.2627
384	 25.1467
380	 27.4083
376	 23.661
372	 13.3919
370	 7.745909