File: Bakgrunnsmateriale/MATLAB/FTIR/ftir_data/LPE454/Mapping_121/LPE454_t22_cm-1.asc
PE IR       SPECTRUM    SPECTRUM    ASCII       PEDS        1.60
  -1
LP58B0~1.ASC
17/05/19
16:06:47.00
17/05/19
16:06:47.00
tln
$LPE454_t0022$<tbV0>[-13.0,-10.4,8.0,0.0,27,1,0]
370
64

2002,4.07
MIRTGS : RIGHTBACK : INTERNAL 2
MIR : ON : INTERNAL 2
OPTKBR

0.200000
8
8.000000
FILLER
RATIO
SPECTRUM
UNLOCKED 256

DOUBLE
64
COMBINED
1
0
0

1.000000
RATIO

1
0
TRUE
51149
0
LEFT NOT FITTED RIGHT NOT FITTED 0
NONE
NONE
15600
12
4.427000
51148
TRUE
1 0 8 72 0 0 0 0

15798

#HDR
-1
-1
#GR
CM-1
%T
2.38419e-05
0.0
5000
-1.000000
4631
8
21.5982
-53.9671
#DATA
5000	0.969696
4996	0.304031
4992	-0.082421
4988	-0.051736
4984	0.158715
4980	0.221776
4976	0.109982
4972	0.023055
4968	0.135946
4964	0.386595
4960	0.550580
4956	0.387954
4952	0.173759
4948	0.249934
4944	0.170588
4940	-0.158357
4936	-0.284647
4932	-0.100231
4928	0.122523
4924	-0.044512
4920	-0.256156
4916	-0.121712
4912	0.160074
4908	0.284504
4904	0.256013
4900	0.272703
4896	0.326514
4892	0.187230
4888	-0.025773
4884	0.351524
4880	0.801920
4876	0.576972
4872	0.139737
4868	-0.081133
4864	-0.031256
4860	-0.004935
4856	-0.055003
4852	-0.045228
4848	-0.065279
4844	-0.087213
4840	0.013017
4836	0.184559
4832	0.338745
4828	0.407099
4824	0.438404
4820	0.496172
4816	0.382208
4812	0.048708
4808	-0.138902
4804	0.031018
4800	0.236248
4796	0.259995
4792	0.248241
4788	0.148391
4784	0.003361
4780	0.042152
4776	-0.036072
4772	-0.295448
4768	-0.284671
4764	-0.157022
4760	-0.117659
4756	0.025725
4752	0.237083
4748	0.360131
4744	0.268816
4740	0.027370
4736	-0.143241
4732	-0.236821
4728	-0.234532
4724	0.047159
4720	0.413322
4716	0.533127
4712	0.393772
4708	0.086951
4704	0.054907
4700	0.342297
4696	0.504660
4692	0.566983
4688	0.497937
4684	0.353550
4680	0.342583
4676	0.331139
4672	0.331473
4668	0.307273
4664	0.091433
4660	0.056505
4656	0.142478
4652	-0.009417
4648	0.136995
4644	0.724101
4640	0.937604
4636	0.494527
4632	0.085210
4628	0.217938
4624	0.286364
4620	0.034689
4616	0.410342
4612	0.632810
4608	0.122880
4604	-0.360107
4600	-0.900387
4596	-0.653433
4592	-0.150108
4588	-0.492024
4584	-0.546860
4580	-0.434803
4576	-0.703597
4572	-0.043368
4568	1.252245
4564	1.485538
4560	0.887680
4556	0.658011
4552	0.862717
4548	0.390815
4544	-0.889229
4540	-0.840067
4536	0.578379
4532	0.891089
4528	0.158452
4524	0.711917
4520	3.220462
4516	2.775621
4512	-1.426196
4508	3.475999
4504	17.7161
4500	20.5662
4496	10.3914
4492	2.280807
4488	-0.330615
4484	-0.148153
4480	-0.382065
4476	-1.375150
4472	-1.396179
4468	-0.881600
4464	-0.561618
4460	0.025892
4456	0.406455
4452	-0.117111
4448	-0.509905
4444	-0.463247
4440	-0.559997
4436	-0.484681
4432	-0.260353
4428	-0.188207
4424	-0.200581
4420	-0.067949
4416	0.337314
4412	0.547170
4408	0.372529
4404	0.135517
4400	0.079131
4396	0.239396
4392	0.125074
4388	-0.009417
4384	0.314688
4380	0.615477
4376	0.622653
4372	0.500583
4368	0.262427
4364	0.019025
4360	0.056338
4356	0.314283
4352	0.535607
4348	0.584101
4344	0.434899
4340	0.090026
4336	-0.137996
4332	-0.068092
4328	-0.004076
4324	0.016689
4320	0.138211
4316	0.204133
4312	0.157761
4308	0.087523
4304	0.153279
4300	0.242781
4296	0.243425
4292	0.130176
4288	-0.133681
4284	-0.297689
4280	-0.259160
4276	-0.223207
4272	-0.226235
4268	-0.117158
4264	0.084495
4260	0.387191
4256	0.564694
4252	0.456118
4248	0.302815
4244	0.211858
4240	0.122737
4236	0.127530
4232	0.175952
4228	0.090909
4224	-0.017714
4220	-0.009846
4216	0.031042
4212	0.100231
4208	0.141811
4204	-0.018262
4200	-0.139188
4196	-0.047230
4192	0.130271
4188	0.493359
4184	0.632119
4180	0.085973
4176	-0.267028
4172	0.103831
4168	0.374221
4164	0.193953
4160	-0.039792
4156	-0.175905
4152	-0.214862
4148	-0.128436
4144	0.004959
4140	0.134038
4136	0.171732
4132	0.104093
4128	0.126624
4124	0.176334
4120	0.074005
4116	-0.033831
4112	0.079822
4108	0.225257
4104	0.226473
4100	0.158286
4096	0.084018
4092	0.108385
4088	0.163483
4084	0.152969
4080	0.205945
4076	0.209903
4072	0.092530
4068	0.070881
4064	0.105667
4060	0.123143
4056	0.103569
4052	0.052452
4048	0.102210
4044	0.139307
4040	0.098204
4036	0.078749
4032	0.073623
4028	0.003886
4024	-0.048422
4020	0.048828
4016	0.085926
4012	-0.105333
4008	-0.243782
4004	-0.093007
4000	0.139808
3996	0.244116
3992	0.251054
3988	0.230526
3984	0.142931
3980	0.048518
3976	0.032997
3972	0.056219
3968	0.053620
3964	-0.018692
3960	-0.084447
3956	-0.097417
3952	-0.114178
3948	-0.141668
3944	-0.090646
3940	-0.009632
3936	-0.050711
3932	-0.117135
3928	-0.129532
3924	-0.092482
3920	0.007867
3916	0.050687
3912	0.041937
3908	0.110602
3904	0.198864
3900	0.222039
3896	0.196790
3892	0.199365
3888	0.284695
3884	0.275254
3880	0.116181
3876	0.063514
3872	0.105834
3868	0.102066
3864	0.085902
3860	0.106430
3856	0.182676
3852	0.193786
3848	0.049328
3844	-0.013804
3840	0.186419
3836	0.301194
3832	0.150704
3828	0.041151
3824	0.066542
3820	0.120449
3816	0.195622
3812	0.192666
3808	0.032901
3804	-0.116825
3800	-0.162720
3796	-0.112795
3792	-0.007057
3788	0.059103
3784	0.067806
3780	0.075650
3776	0.105619
3772	0.102496
3768	0.077199
3764	0.068473
3760	-0.025105
3756	-0.116014
3752	-0.069475
3748	-0.023698
3744	0.033736
3740	0.134420
3736	0.156617
3732	0.159215
3728	0.163197
3724	0.111794
3720	0.051045
3716	0.045013
3712	0.095391
3708	0.132536
3704	0.150561
3700	0.154733
3696	0.172591
3692	0.223827
3688	0.269055
3684	0.243282
3680	0.128769
3676	0.016808
3672	-0.018358
3668	-0.007128
3664	-0.017094
3660	-0.054955
3656	-0.054478
3652	-0.022768
3648	-0.039577
3644	-0.061178
3640	-0.036025
3636	0.016665
3632	0.045466
3628	0.034904
3624	0.016260
3620	0.027441
3616	0.047159
3612	-0.028705
3608	-0.109934
3604	-0.102162
3600	-0.034594
3596	0.017213
3592	-0.018739
3588	-0.013589
3584	0.106644
3580	0.174093
3576	0.075173
3572	0.011301
3568	0.052022
3564	0.034713
3560	0.038170
3556	0.175094
3552	0.250029
3548	0.102186
3544	-0.023818
3540	-0.034976
3536	-0.088572
3532	-0.075364
3528	0.010466
3524	0.060200
3520	0.146937
3516	0.205039
3512	0.167655
3508	0.122404
3504	0.066852
3500	0.042247
3496	0.099277
3492	0.143837
3488	0.118041
3484	0.065422
3480	0.038194
3476	0.049066
3472	0.081467
3468	0.098204
3464	0.102448
3460	0.073337
3456	0.000810
3452	-0.065827
3448	-0.095295
3444	-0.057983
3440	-0.040864
3436	-0.040841
3432	0.046420
3428	0.102877
3424	0.066423
3420	-0.020813
3416	-0.111937
3412	-0.154256
3408	-0.152564
3404	-0.099658
3400	-0.026345
3396	-0.034832
3392	-0.040984
3388	0.077462
3384	0.178766
3380	0.220799
3376	0.240683
3372	0.167798
3368	0.052118
3364	0.006794
3360	0.020694
3356	0.033140
3352	0.090384
3348	0.147700
3344	0.149202
3340	0.134491
3336	0.109148
3332	0.095629
3328	0.059700
3324	0.034356
3320	0.133299
3316	0.201225
3312	0.138640
3308	0.114178
3304	0.065112
3300	-0.059056
3296	-0.080609
3292	0.022554
3288	0.068211
3284	-0.025677
3280	-0.130248
3276	-0.122785
3272	-0.021314
3268	0.042295
3264	-0.001740
3260	-0.059723
3256	-0.058054
3252	-0.051927
3248	-0.066089
3244	-0.059270
3240	-0.042152
3236	-0.078129
3232	-0.100326
3228	-0.032615
3224	0.025439
3220	0.069522
3216	0.116133
3212	0.083279
3208	0.060653
3204	0.066947
3200	-0.027179
3196	-0.111699
3192	-0.016021
3188	0.118184
3184	0.088000
3180	0.005626
3176	0.016570
3172	0.087404
3168	0.163292
3164	0.154590
3160	0.056409
3156	-0.004577
3152	-0.006222
3148	0.030231
3144	0.055503
3140	0.013947
3136	0.034999
3132	0.100660
3128	0.190234
3124	0.349593
3120	0.319719
3116	0.130581
3112	0.050520
3108	0.018453
3104	-0.044155
3100	-0.058841
3096	-0.022077
3092	-0.021243
3088	-0.041103
3084	-0.009346
3080	0.033760
3076	0.033164
3072	0.077199
3068	0.181579
3064	0.185394
3060	0.099349
3056	0.067400
3052	0.123620
3048	0.199174
3044	0.209045
3040	0.157809
3036	0.113916
3032	0.085997
3028	0.059008
3024	0.078916
3020	0.107932
3016	0.061702
3012	0.013518
3008	0.012040
3004	-0.003290
3000	-0.027203
2996	-0.045037
2992	-0.020909
2988	0.049781
2984	0.077176
2980	0.054526
2976	0.029754
2972	0.049328
2968	0.075626
2964	0.058865
2960	0.019073
2956	-0.029301
2952	-0.020933
2948	-0.007534
2944	-0.037503
2940	-0.026011
2936	0.047230
2932	0.130724
2928	0.150561
2924	0.113677
2920	0.090861
2916	0.095534
2912	0.067782
2908	-0.011777
2904	-0.049519
2900	0.017118
2896	0.061631
2892	0.022077
2888	0.040340
2884	0.123929
2880	0.138854
2876	0.138139
2872	0.191164
2868	0.132346
2864	-0.062942
2860	-0.170636
2856	-0.100660
2852	0.025153
2848	0.056362
2844	-0.026130
2840	-0.066924
2836	-0.041437
2832	-0.049519
2828	-0.019216
2824	0.030708
2820	-0.004649
2816	-0.023508
2812	-0.002121
2808	0.006675
2804	0.037479
2800	0.060367
2796	0.064659
2792	0.050592
2788	-0.029706
2784	-0.079870
2780	-0.021409
2776	0.014543
2772	-0.035095
2768	-0.053024
2764	0.003838
2760	0.068187
2756	0.121879
2752	0.140023
2748	0.084209
2744	0.019741
2740	-0.019335
2736	-0.020503
2732	0.030255
2728	0.049185
2724	0.056147
2720	0.098419
2716	0.085830
2712	0.034403
2708	0.050282
2704	0.085115
2700	0.090670
2696	0.084877
2692	0.062441
2688	0.044488
2684	0.044941
2680	0.060391
2676	0.082349
2672	0.085544
2668	0.091004
2664	0.116109
2660	0.082349
2656	-0.013637
2652	-0.064659
2648	-0.084590
2644	-0.086998
2640	-0.062680
2636	-0.052094
2632	-0.045514
2628	-0.076007
2624	-0.107192
2620	-0.030446
2616	0.082278
2612	0.098085
2608	0.026726
2604	0.003671
2600	0.050044
2596	0.076532
2592	0.067925
2588	0.034761
2584	0.034666
2580	0.062751
2576	0.024127
2572	-0.027513
2568	-0.015878
2564	0.026512
2560	0.044631
2556	0.032067
2552	0.053119
2548	0.088334
2544	0.094652
2540	0.071859
2536	0.006222
2532	-0.039148
2528	-0.018024
2524	-0.005841
2520	-0.035476
2516	-0.045418
2512	0.018978
2508	0.138401
2504	0.118994
2500	-0.019836
2496	-0.006842
2492	0.013113
2488	-0.073242
2484	-0.051045
2480	0.012707
2476	-0.004720
2472	-0.045084
2468	-0.045466
2464	0.012898
2460	0.053143
2456	0.016236
2452	-0.000858
2448	0.041151
2444	0.073122
2440	0.000977
2436	-0.023794
2432	0.079751
2428	0.106739
2424	0.152540
2420	0.287842
2416	0.312948
2412	0.186967
2408	0.049829
2404	0.008749
2400	0.036287
2396	0.053524
2392	0.014209
2388	-0.011610
2384	0.021862
2380	0.098514
2376	0.166440
2372	0.117278
2368	0.021672
2364	-0.018787
2360	-0.066471
2356	-0.093650
2352	-0.012302
2348	0.069069
2344	0.042748
2340	-0.028967
2336	-0.069212
2332	-0.060820
2328	-0.031518
2324	-0.013661
2320	-0.029850
2316	-0.034976
2312	-0.009465
2308	0.013589
2304	0.023126
2300	0.051450
2296	0.113010
2292	0.110626
2288	0.027871
2284	-0.006937
2280	0.010085
2276	0.012421
2272	0.030660
2268	0.039005
2264	0.008153
2260	0.018882
2256	0.063586
2252	0.057983
2248	0.019001
2244	0.023722
2240	0.080513
2236	0.097322
2232	0.052356
2228	0.049209
2224	0.081801
2220	0.050234
2216	-0.002360
2212	-0.034523
2208	-0.061154
2204	-0.025939
2200	0.008273
2196	-0.019693
2192	0.001978
2188	0.058722
2184	0.048971
2180	0.034618
2176	0.028610
2172	0.032043
2168	0.096821
2164	0.100231
2160	0.005865
2156	0.007128
2152	0.074124
2148	0.031948
2144	-0.033235
2140	-0.059437
2136	-0.046133
2132	0.047516
2128	0.063943
2124	-0.005674
2120	-0.029063
2116	-0.013256
2112	0.001668
2108	0.008463
2104	0.053119
2100	0.070691
2096	0.085043
2092	0.087738
2088	0.029683
2084	0.088715
2080	0.216388
2076	0.215387
2072	0.061821
2068	-0.051784
2064	0.017070
2060	0.039696
2056	0.037455
2052	0.098633
2048	0.092363
2044	0.125145
2040	0.213456
2036	0.210022
2032	0.120711
2028	0.075650
2024	0.130748
2020	0.170803
2016	0.151371
2012	0.147581
2008	0.155067
2004	0.148081
2000	0.127148
1996	0.114822
1992	0.167655
1988	0.213050
1984	0.191402
1980	0.186634
1976	0.166797
1972	0.100755
1968	0.096845
1964	0.135970
1960	0.124645
1956	0.116062
1952	0.141024
1948	0.124478
1944	0.074219
1940	0.099778
1936	0.171518
1932	0.187611
1928	0.224852
1924	0.280475
1920	0.270414
1916	0.238323
1912	0.200057
1908	0.144028
1904	0.120139
1900	0.118279
1896	0.052499
1892	-0.020217
1888	-0.012493
1884	0.000238
1880	0.005125
1876	0.085711
1872	0.167059
1868	0.153112
1864	0.114655
1860	0.092554
1856	0.097632
1852	0.130462
1848	0.124454
1844	0.113940
1840	0.130105
1836	0.135231
1832	0.139760
1828	0.170636
1824	0.202631
1820	0.217556
1816	0.229930
1812	0.223851
1808	0.266981
1804	0.333142
1800	0.283598
1796	0.180006
1792	0.168728
1788	0.213789
1784	0.200939
1780	0.166606
1776	0.133991
1772	0.073933
1768	0.060272
1764	0.105023
1760	0.132775
1756	0.146317
1752	0.152683
1748	0.140142
1744	0.159931
1740	0.202083
1736	0.257611
1732	0.318002
1728	0.289773
1724	0.256347
1720	0.235295
1716	0.151181
1712	0.125765
1708	0.182867
1704	0.205969
1700	0.195646
1696	0.217342
1692	0.243282
1688	0.239372
1684	0.218677
1680	0.204801
1676	0.185942
1672	0.142908
1668	0.122928
1664	0.144433
1660	0.203919
1656	0.277972
1652	0.286173
1648	0.256609
1644	0.259160
1640	0.258851
1636	0.259327
1632	0.281119
1628	0.263237
1624	0.235462
1620	0.228285
1616	0.230216
1612	0.295495
1608	0.375771
1604	0.345993
1600	0.207495
1596	0.144720
1592	0.217247
1588	0.288677
1584	0.277662
1580	0.173783
1576	0.091195
1572	0.132775
1568	0.222468
1564	0.298905
1560	0.325894
1556	0.298810
1552	0.312304
1548	0.342512
1544	0.358104
1540	0.371885
1536	0.294971
1532	0.162410
1528	0.093221
1524	0.124526
1520	0.192356
1516	0.213551
1512	0.203371
1508	0.212574
1504	0.201892
1500	0.146341
1496	0.138688
1492	0.170969
1488	0.183153
1484	0.234341
1480	0.310063
1476	0.345754
1472	0.382900
1468	0.399947
1464	0.309324
1460	0.197029
1456	0.157451
1452	0.219440
1448	0.366497
1444	0.431895
1440	0.389862
1436	0.358891
1432	0.340819
1428	0.318884
1424	0.291228
1420	0.255846
1416	0.220751
1412	0.206923
1408	0.210142
1404	0.190496
1400	0.165271
1396	0.190806
1392	0.242710
1388	0.261116
1384	0.232887
1380	0.200152
1376	0.242471
1372	0.310778
1368	0.332689
1364	0.344634
1360	0.315546
1356	0.257325
1352	0.246095
1348	0.284099
1344	0.301456
1340	0.234866
1336	0.213503
1332	0.281095
1328	0.293850
1324	0.290131
1320	0.324249
1316	0.317502
1312	0.265407
1308	0.213289
1304	0.215077
1300	0.288820
1296	0.348901
1292	0.373053
1288	0.385069
1284	0.391364
1280	0.416779
1276	0.416326
1272	0.376200
1268	0.358605
1264	0.407981
1260	0.465679
1256	0.440382
1252	0.411152
1248	0.444626
1244	0.487971
1240	0.500869
1236	0.488042
1232	0.486755
1228	0.464987
1224	0.396323
1220	0.344300
1216	0.404691
1212	0.541114
1208	0.590443
1204	0.589394
1200	0.585556
1196	0.560045
1192	0.587773
1188	0.630164
1184	0.595998
1180	0.531077
1176	0.518202
1172	0.575780
1168	0.651836
1164	0.669550
1160	0.682830
1156	0.716400
1152	0.675845
1148	0.632190
1144	0.584387
1140	0.429296
1136	0.342535
1132	0.455498
1128	0.603222
1124	0.699305
1120	0.758624
1116	0.755453
1112	0.785899
1108	0.811338
1104	0.707268
1100	0.656771
1096	0.863075
1092	1.064515
1088	0.961661
1084	0.845122
1080	0.847363
1076	0.768470
1072	0.685691
1068	0.683140
1064	0.674390
1060	0.676608
1056	0.765609
1052	0.844383
1048	0.857758
1044	0.852227
1040	0.754284
1036	0.637435
1032	0.664258
1028	0.712394
1024	0.660872
1020	0.531101
1016	0.536537
1012	0.710368
1008	0.743222
1004	0.729417
1000	0.836229
996	 0.931215
992	 0.902199
988	 0.820827
984	 0.819659
980	 0.865316
976	 0.891733
972	 0.875735
968	 0.755262
964	 0.637245
960	 0.694561
956	 0.842332
952	 0.996708
948	 1.107072
944	 1.087331
940	 1.050901
936	 1.072001
932	 1.032972
928	 0.893926
924	 0.809192
920	 0.879478
916	 0.962996
912	 0.938606
908	 0.887179
904	 0.915789
900	 0.888204
896	 0.864791
892	 1.055455
888	 1.201581
884	 1.132726
880	 1.047706
876	 1.078820
872	 1.109576
868	 1.039195
864	 0.998020
860	 0.980949
856	 0.891900
852	 0.852560
848	 0.984334
844	 1.125073
840	 1.122832
836	 1.066470
832	 1.015186
828	 0.969696
824	 0.977301
820	 1.097464
816	 1.225686
812	 1.202225
808	 1.183176
804	 1.333117
800	 1.437830
796	 1.436257
792	 1.377201
788	 1.222944
784	 1.160144
780	 1.278185
776	 1.425933
772	 1.388573
768	 1.268243
764	 1.317191
760	 1.460862
756	 1.676774
752	 1.818060
748	 1.575374
744	 1.310873
740	 1.432609
736	 1.688599
732	 1.784181
728	 1.714348
724	 1.554226
720	 1.503252
716	 1.663184
712	 1.724839
708	 1.575684
704	 1.480913
700	 1.557850
696	 1.612854
692	 1.634979
688	 1.717066
684	 1.762199
680	 1.746320
676	 1.643633
672	 1.607108
668	 1.718163
664	 1.715612
660	 1.552820
656	 1.483011
652	 1.642131
648	 1.783585
644	 1.729416
640	 1.515650
636	 1.153182
632	 0.887775
628	 0.992798
624	 1.314282
620	 1.549530
616	 1.661252
612	 1.824331
608	 2.068400
604	 2.101016
600	 2.048301
596	 2.173805
592	 2.056121
588	 1.662969
584	 1.528573
580	 1.440310
576	 1.226067
572	 1.387619
568	 1.839590
564	 2.173161
560	 2.052712
556	 1.564598
552	 1.312732
548	 1.287961
544	 1.398706
540	 1.533150
536	 1.582241
532	 1.692032
528	 1.671338
524	 1.695680
520	 1.675438
516	 1.482295
512	 1.455903
508	 1.460862
504	 1.493072
500	 1.508140
496	 1.498699
492	 1.603245
488	 1.558017
484	 1.429414
480	 1.537227
476	 1.952838
472	 2.484703
468	 2.429723
464	 1.542878
460	 0.542283
456	 -0.042271
452	 0.427007
448	 2.275824
444	 3.848052
440	 3.289508
436	 1.938843
432	 1.675128
428	 0.796389
424	 -0.874042
420	 -0.550127
416	 0.778412
412	 0.732564
408	 -0.301194
404	 -0.671648
400	 2.714276
396	 10.9191
392	 16.1695
388	 7.444620
384	 -2.446317
380	 -2.236342
376	 -5.946969
372	 -33.5906
370	 -53.9671