File: Bakgrunnsmateriale/MATLAB/FTIR/ftir_data/LPE454/Mapping_121/LPE454_t11.asc
PE IR       SPECTRUM    SPECTRUM    ASCII       PEDS        1.60
  -1
LPC798~1.ASC
17/05/19
15:15:27.00
17/05/19
15:15:54.00
tln
$LPE454_t0011$<tbV0>[-13.0,-13.0,8.0,0.0,27,1,0]
27.028
64

2002,4.07
MIRTGS : RIGHTBACK : INTERNAL 2
MIR : ON : INTERNAL 2
OPTKBR

0.200000
8
8.000000
FILLER
RATIO
SPECTRUM
UNLOCKED 256

DOUBLE
64
COMBINED
1
0
0

0.002000
RATIO

1
0
TRUE
51149
0
LEFT NOT FITTED RIGHT NOT FITTED 0
NONE
NONE
15600
12
4.427000
51148
TRUE
1 0 8 72 0 0 0 0

15798

#HDR
-1
-1
#GR
µM
%T
2.38419e-05
0.0
2.000000
0.002000
12515
8
15.6062
-64.8042
#DATA
2.000000	 0.265979
2.018000	 -0.159103
2.036000	 0.408415
2.054000	 0.273970
2.072000	 0.028605
2.090000	 -0.290600
2.108000	 -0.241782
2.126000	 0.374456
2.144000	 0.341711
2.162000	 0.522288
2.180000	 0.605659
2.198000	 0.939287
2.216000	 -1.437175
2.234000	 6.864499
2.252000	 -0.901883
2.270000	 0.261903
2.288000	 1.304993
2.306000	 0.540255
2.324000	 0.304863
2.342000	 0.114339
2.360000	 0.203883
2.378000	 -0.089232
2.396000	 0.199660
2.414000	 0.107070
2.432000	 0.389326
2.450000	 0.183296
2.468000	 0.004523
2.486000	 0.025882
2.504000	 0.009763
2.522000	 0.177094
2.540000	 0.229903
2.558000	 -0.013619
2.576000	 0.203908
2.594000	 -0.030739
2.612000	 0.123585
2.630000	 -0.117169
2.648000	 0.162881
2.666000	 0.135942
2.684000	 0.097859
2.702000	 0.012813
2.720000	 -0.047034
2.738000	 0.032590
2.756000	 0.129511
2.774000	 0.051954
2.792000	 -0.105156
2.810000	 0.066957
2.828000	 0.011883
2.846000	 0.057297
2.864000	 0.034458
2.882000	 0.100729
2.900000	 0.059483
2.918000	 0.194429
2.936000	 -0.142166
2.954000	 0.047228
2.972000	 0.025515
2.990000	 -0.083378
3.008000	 0.105724
3.026000	 0.176962
3.044000	 -0.033194
3.062000	 0.040575
3.080000	 0.049178
3.098000	 0.091540
3.116000	 0.121224
3.134000	 -0.006972
3.152000	 0.049207
3.170000	 0.021681
3.188000	 0.112803
3.206000	 0.011171
3.224000	 -0.030352
3.242000	 -0.005703
3.260000	 -0.028164
3.278000	 0.026372
3.296000	 0.030192
3.314000	 0.013351
3.332000	 0.167960
3.350000	 0.026693
3.368000	 0.026102
3.386000	 -0.072241
3.404000	 0.038286
3.422000	 0.034930
3.440000	 -0.076544
3.458000	 0.171454
3.476000	 -0.023572
3.494000	 0.143104
3.512000	 0.073975
3.530000	 -0.035195
3.548000	 0.125920
3.566000	 0.113008
3.584000	 0.137514
3.602000	 0.042805
3.620000	 -0.038239
3.638000	 0.057005
3.656000	 -0.040269
3.674000	 -0.002426
3.692000	 0.031331
3.710000	 0.087187
3.728000	 0.048143
3.746000	 -0.053523
3.764000	 0.039247
3.782000	 0.075762
3.800000	 0.078293
3.818000	 0.106808
3.836000	 0.050232
3.854000	 0.119987
3.872000	 -0.000417
3.890000	 -0.008749
3.908000	 0.191841
3.926000	 0.010743
3.944000	 0.007389
3.962000	 0.002939
3.980000	 0.066963
3.998000	 0.121202
4.016000	 0.011112
4.034000	 0.001711
4.052000	 0.005212
4.070000	 0.140305
4.088000	 -0.045298
4.106000	 0.192004
4.124000	 -0.133668
4.141999	 0.050510
4.160000	 -0.011154
4.178000	 -0.020167
4.196000	 0.129825
4.214000	 0.215162
4.232000	 -0.001610
4.250000	 0.138042
4.268000	 -0.096243
4.286000	 -0.104483
4.304000	 -0.056226
4.322000	 -0.019208
4.340000	 0.035215
4.358000	 0.050973
4.375999	 -0.016858
4.394000	 0.073878
4.412000	 0.066822
4.430000	 0.049640
4.448000	 0.051404
4.466000	 0.061560
4.484000	 0.080190
4.502000	 0.075600
4.520000	 0.119445
4.538000	 0.077790
4.556000	 0.145921
4.574000	 0.164524
4.592000	 0.170741
4.609999	 0.217971
4.628000	 0.251778
4.646000	 0.288564
4.664000	 0.174012
4.682000	 0.260236
4.700000	 0.284605
4.718000	 0.351020
4.736000	 0.256120
4.754000	 0.177389
4.772000	 0.300695
4.790000	 0.222234
4.808000	 0.369690
4.826000	 0.394530
4.843999	 0.665936
4.862000	 0.347436
4.880000	 0.394125
4.898000	 0.470320
4.916000	 0.487881
4.934000	 0.510076
4.952000	 0.533473
4.970000	 0.484219
4.988000	 0.514852
5.006000	 0.532892
5.024000	 0.537474
5.042000	 0.582654
5.060000	 0.510059
5.077999	 0.527071
5.096000	 0.597950
5.114000	 0.475087
5.132000	 0.437280
5.150000	 0.525142
5.168000	 0.594262
5.186000	 0.555690
5.204000	 0.590537
5.222000	 0.593882
5.240000	 0.578505
5.258000	 0.523709
5.276000	 0.645624
5.294000	 0.686699
5.312000	 0.643012
5.330000	 0.629710
5.348000	 0.644820
5.366000	 0.618053
5.384000	 0.600707
5.402000	 0.641364
5.420000	 0.659638
5.438000	 0.654164
5.456000	 0.675608
5.474000	 0.682326
5.492000	 0.560153
5.510000	 0.564274
5.528000	 0.615469
5.546000	 0.709532
5.564000	 0.732661
5.582000	 0.715489
5.600000	 0.788170
5.618000	 0.706733
5.636000	 0.623011
5.654000	 0.655815
5.672000	 0.619782
5.690000	 0.634237
5.708000	 0.674182
5.726000	 0.637067
5.744000	 0.649078
5.762000	 0.750005
5.780000	 0.740876
5.798000	 0.783967
5.816000	 0.887331
5.834000	 0.845172
5.852000	 0.639031
5.870000	 0.654090
5.888000	 0.692624
5.906000	 0.664146
5.923999	 0.693092
5.942000	 0.701314
5.960000	 0.727206
5.978000	 0.811008
5.996000	 0.785202
6.014000	 0.739417
6.032000	 0.770084
6.050000	 0.812436
6.068000	 0.817985
6.086000	 0.771597
6.104000	 0.659154
6.122000	 0.612703
6.140000	 0.696001
6.158000	 0.749669
6.176000	 0.734463
6.194000	 0.716889
6.212000	 0.692240
6.230000	 0.701021
6.248000	 0.740864
6.266000	 0.761727
6.284000	 0.752495
6.302000	 0.749900
6.320000	 0.797415
6.338000	 0.871442
6.356000	 0.844773
6.374000	 0.799776
6.392000	 0.832095
6.410000	 0.842199
6.428000	 0.849208
6.446000	 0.894859
6.464000	 0.934002
6.482000	 0.936612
6.500000	 0.868409
6.518000	 0.793259
6.536000	 0.756612
6.554000	 0.750803
6.572000	 0.737086
6.590000	 0.717753
6.608000	 0.748938
6.626000	 0.760552
6.644000	 0.743779
6.662000	 0.760729
6.680000	 0.760809
6.698000	 0.734477
6.716000	 0.785821
6.734000	 0.878712
6.752000	 0.910325
6.770000	 0.869395
6.788000	 0.802616
6.806000	 0.746154
6.824000	 0.758018
6.842000	 0.869994
6.860000	 0.935549
6.878000	 0.858439
6.896000	 0.811782
6.914000	 0.905708
6.932000	 1.025547
6.950000	 1.032471
6.968000	 0.860512
6.986000	 0.639280
7.004000	 0.595833
7.022000	 0.717746
7.040000	 0.807058
7.058000	 0.791057
7.076000	 0.743519
7.094000	 0.720985
7.112000	 0.725616
7.130000	 0.780662
7.148000	 0.864345
7.166000	 0.876450
7.184000	 0.818619
7.202000	 0.795445
7.220000	 0.819759
7.238000	 0.835676
7.256000	 0.852264
7.274000	 0.894905
7.292000	 0.943366
7.310000	 0.971076
7.328000	 0.944677
7.346000	 0.863546
7.364000	 0.807820
7.382000	 0.825399
7.400000	 0.860407
7.418000	 0.849887
7.436000	 0.802219
7.454000	 0.775602
7.472000	 0.795935
7.490000	 0.825871
7.508000	 0.844529
7.526000	 0.866939
7.544000	 0.878012
7.562000	 0.858458
7.580000	 0.825768
7.598000	 0.803485
7.616000	 0.824956
7.634000	 0.908113
7.652000	 0.992693
7.670000	 1.016357
7.688000	 0.998328
7.706000	 0.959741
7.724000	 0.898653
7.742000	 0.865974
7.760000	 0.908648
7.778000	 0.968940
7.796000	 0.973146
7.814000	 0.951566
7.832000	 0.978656
7.850000	 1.060894
7.868000	 1.143108
7.886000	 1.179588
7.904000	 1.169421
7.922000	 1.143492
7.940000	 1.125683
7.958000	 1.105716
7.976000	 1.060009
7.994000	 0.988864
8.012000	 0.920305
8.030000	 0.885416
8.048000	 0.893631
8.065999	 0.929539
8.084000	 0.970792
8.102000	 1.011536
8.120000	 1.055302
8.138000	 1.087715
8.155999	 1.083532
8.173999	 1.052289
8.192000	 1.046056
8.210000	 1.099642
8.228000	 1.184129
8.246000	 1.236031
8.263999	 1.215253
8.282000	 1.129115
8.300000	 1.026117
8.318000	 0.967192
8.336000	 0.976989
8.353999	 1.023147
8.372000	 1.057623
8.390000	 1.068337
8.408000	 1.070193
8.426000	 1.066031
8.443999	 1.045560
8.462000	 1.015551
8.480000	 1.004913
8.498000	 1.037993
8.516000	 1.108284
8.533999	 1.178073
8.552000	 1.199969
8.570000	 1.151756
8.588000	 1.061056
8.606000	 0.988951
8.624000	 0.977619
8.641999	 1.018463
8.660000	 1.070784
8.678000	 1.101961
8.696000	 1.103115
8.714000	 1.078897
8.731999	 1.039257
8.750000	 1.001318
8.768000	 0.983551
8.786000	 0.993807
8.804000	 1.024699
8.821999	 1.064651
8.840000	 1.106886
8.858000	 1.146252
8.876000	 1.174608
8.894000	 1.191319
8.911999	 1.206229
8.930000	 1.224159
8.948000	 1.230477
8.966000	 1.204727
8.984000	 1.149322
9.001999	 1.092429
9.020000	 1.058818
9.038000	 1.053768
9.056000	 1.073010
9.074000	 1.110969
9.092000	 1.147315
9.109999	 1.148450
9.128000	 1.100177
9.146000	 1.035135
9.164000	 1.009663
9.182000	 1.046092
9.199999	 1.111479
9.218000	 1.159823
9.236000	 1.181574
9.254000	 1.205848
9.272000	 1.259227
9.289999	 1.332666
9.308000	 1.385422
9.326000	 1.382707
9.344000	 1.328384
9.362000	 1.262697
9.379999	 1.227441
9.398000	 1.232262
9.416000	 1.250132
9.434000	 1.245354
9.452000	 1.204437
9.469999	 1.140210
9.488000	 1.072508
9.506000	 1.015618
9.524000	 0.980275
9.542000	 0.976574
9.560000	 1.008641
9.577999	 1.067833
9.596000	 1.135004
9.614000	 1.191150
9.632000	 1.227071
9.650000	 1.245515
9.667999	 1.258952
9.686000	 1.282963
9.704000	 1.327699
9.722000	 1.384586
9.740000	 1.422730
9.757999	 1.405206
9.776000	 1.317381
9.794000	 1.185830
9.812000	 1.068135
9.830000	 1.017703
9.847999	 1.048949
9.866000	 1.129814
9.884000	 1.206123
9.902000	 1.239703
9.920000	 1.233212
9.937999	 1.222586
9.956000	 1.244748
9.974000	 1.306362
9.992000	 1.377060
10.01	1.411579
10.028	1.382064
10.046	1.298025
10.064	1.196275
10.082	1.115612
10.1	1.075058
10.118	1.069023
10.136	1.077619
10.154	1.082845
10.172	1.079763
10.19	1.077405
10.208	1.090876
10.226	1.131046
10.244	1.196350
10.262	1.269697
10.28	1.326985
10.298	1.349229
10.316	1.332495
10.334	1.290137
10.352	1.243946
10.37	1.213375
10.388	1.207197
10.406	1.224290
10.424	1.257677
10.442	1.300036
10.46	1.347335
10.478	1.397460
10.496	1.447905
10.514	1.495143
10.532	1.533886
10.55	1.558146
10.568	1.562973
10.586	1.546452
10.604	1.511385
10.622	1.465472
10.64	1.419709
10.658	1.384520
10.676	1.367139
10.694	1.369215
10.712	1.385911
10.73	1.406646
10.748	1.418856
10.766	1.412928
10.784	1.385886
10.802	1.343381
10.82	1.296996
10.838	1.260995
10.856	1.246069
10.874	1.256580
10.892	1.287895
10.91	1.328283
10.928	1.363122
10.946	1.379158
10.964	1.371057
10.982	1.343403
11	1.309877
11.018	1.288591
11.036	1.292720
11.054	1.325750
11.072	1.379908
11.09	1.439909
11.108	1.491349
11.126	1.524259
11.144	1.536065
11.162	1.529205
11.18	1.508618
11.198	1.480163
11.216	1.449653
11.234	1.422666
11.252	1.404739
11.27	1.399540
11.288	1.407729
11.306	1.426247
11.324	1.449550
11.342	1.472500
11.36	1.492335
11.378	1.510168
11.396	1.529105
11.414	1.551947
11.432	1.578136
11.45	1.603144
11.468	1.618910
11.486	1.617839
11.504	1.595679
11.522	1.554113
11.54	1.500771
11.558	1.447633
11.576	1.406954
11.594	1.386972
11.612	1.390814
11.63	1.414564
11.648	1.449661
11.666	1.485185
11.684	1.511002
11.702	1.520966
11.72	1.513255
11.738	1.490355
11.756	1.457364
11.774	1.420259
11.792	1.384526
11.81	1.353727
11.828	1.329532
11.846	1.312022
11.864	1.300231
11.882	1.293379
11.9	1.291446
11.918	1.295540
11.936	1.307837
11.954	1.330824
11.972	1.366379
11.99	1.414309
12.008	1.472013
12.026	1.534740
12.044	1.596139
12.062	1.650153
12.08	1.692447
12.098	1.721116
12.116	1.736543
12.134	1.740977
12.152	1.737100
12.17	1.726815
12.188	1.711609
12.206	1.692779
12.224	1.672231
12.242	1.652550
12.26	1.637499
12.278	1.630278
12.296	1.631732
12.314	1.639539
12.332	1.648697
12.35	1.652621
12.368	1.645412
12.386	1.623847
12.404	1.588539
12.422	1.543745
12.44	1.495598
12.458	1.450179
12.476	1.412033
12.494	1.382714
12.512	1.361171
12.53	1.345375
12.548	1.333365
12.566	1.324213
12.584	1.318717
12.602	1.319174
12.62	1.328378
12.638	1.348671
12.656	1.381285
12.674	1.426337
12.692	1.482331
12.71	1.546125
12.728	1.613025
12.746	1.677392
12.764	1.733361
12.782	1.775632
12.8	1.800555
12.818	1.806968
12.836	1.796900
12.854	1.775088
12.872	1.748101
12.89	1.722427
12.908	1.703382
12.926	1.693311
12.944	1.691464
12.962	1.694279
12.98	1.697062
12.998	1.695774
13.016	1.688893
13.034	1.678207
13.052	1.668698
13.07	1.667080
13.088	1.680073
13.106	1.712138
13.124	1.764198
13.142	1.832622
13.16	1.910026
13.178	1.986189
13.196	2.050889
13.214	2.095111
13.232	2.113508
13.25	2.104593
13.268	2.070965
13.286	2.018334
13.304	1.954471
13.322	1.887440
13.34	1.824351
13.358	1.770373
13.376	1.728483
13.394	1.699105
13.412	1.680893
13.43	1.671034
13.448	1.666032
13.466	1.662408
13.484	1.657483
13.502	1.649822
13.52	1.639528
13.538	1.627994
13.556	1.617703
13.574	1.611641
13.592	1.612621
13.61	1.622563
13.628	1.641884
13.646	1.669459
13.664	1.702616
13.682	1.737720
13.7	1.771073
13.718	1.799507
13.736	1.821065
13.754	1.835333
13.772	1.843335
13.79	1.846918
13.808	1.848309
13.826	1.849476
13.844	1.851492
13.862	1.854252
13.88	1.856609
13.898	1.857042
13.916	1.854092
13.934	1.846762
13.952	1.834987
13.97	1.819764
13.988	1.802970
14.006	1.787137
14.024	1.774817
14.042	1.768007
14.06	1.767892
14.078	1.774740
14.096	1.788027
14.114	1.806566
14.132	1.829006
14.15	1.854042
14.168	1.880565
14.186	1.908056
14.204	1.936208
14.222	1.965445
14.24	1.996264
14.258	2.029257
14.276	2.064806
14.294	2.102983
14.312	2.143789
14.33	2.187051
14.348	2.231895
14.366	2.277021
14.384	2.320043
14.402	2.358333
14.42	2.388726
14.438	2.408006
14.456	2.413348
14.474	2.402756
14.492	2.375551
14.51	2.332704
14.528	2.277243
14.546	2.213354
14.564	2.145930
14.582	2.080016
14.6	2.020331
14.618	1.970970
14.636	1.934840
14.654	1.913303
14.672	1.906574
14.69	1.913929
14.708	1.933932
14.726	1.964673
14.744	2.003505
14.762	2.047638
14.78	2.093919
14.798	2.138973
14.816	2.179246
14.834	2.210815
14.852	2.229430
14.87	2.231758
14.888	2.215451
14.906	2.179347
14.924	2.123684
14.942	2.050836
14.96	1.965082
14.978	1.871589
14.996	1.776175
15.014	1.685086
15.032	1.604914
15.05	1.540877
15.068	1.496450
15.086	1.473744
15.104	1.473455
15.122	1.494250
15.14	1.532835
15.158	1.585190
15.176	1.646694
15.194	1.711906
15.212	1.775328
15.23	1.832963
15.248	1.881851
15.266	1.920007
15.284	1.946789
15.302	1.963304
15.32	1.971142
15.338	1.972221
15.356	1.968936
15.374	1.963411
15.392	1.956816
15.41	1.949839
15.428	1.942555
15.446	1.934290
15.464	1.924203
15.482	1.911714
15.5	1.896524
15.518	1.879497
15.536	1.862437
15.554	1.847507
15.572	1.837581
15.59	1.836382
15.608	1.846245
15.626	1.868928
15.644	1.905674
15.662	1.955503
15.68	2.016368
15.698	2.085735
15.716	2.159185
15.734	2.232203
15.752	2.301345
15.77	2.363246
15.788	2.414542
15.806	2.453753
15.824	2.480060
15.842	2.493308
15.86	2.494793
15.878	2.485989
15.896	2.468512
15.914	2.444815
15.932	2.416912
15.95	2.386370
15.968	2.354772
15.986	2.323838
16.004	2.294323
16.022	2.266878
16.04	2.242219
16.058	2.220388
16.076	2.201393
16.094	2.185008
16.112	2.170943
16.13	2.158856
16.148	2.148136
16.166	2.138383
16.184	2.129394
16.202	2.120946
16.22	2.113125
16.238	2.106107
16.256	2.100079
16.274	2.095490
16.292	2.092585
16.31	2.091585
16.328	2.092683
16.346	2.095614
16.364	2.100198
16.382	2.106307
16.4	2.114022
16.418	2.123431
16.436	2.134985
16.454	2.149106
16.472	2.166130
16.49	2.186777
16.508	2.211333
16.526	2.239978
16.544	2.272420
16.562	2.307720
16.58	2.345148
16.598	2.382774
16.616	2.419091
16.634	2.452728
16.652	2.481423
16.67	2.504210
16.688	2.519909
16.706	2.527887
16.724	2.528288
16.742	2.521184
16.76	2.508167
16.778	2.490151
16.796	2.468935
16.814	2.446245
16.832	2.423064
16.85	2.400932
16.868	2.380609
16.886	2.362857
16.904	2.347861
16.922	2.335381
16.94	2.325201
16.958	2.316179
16.976	2.307859
16.994	2.299358
17.012	2.289795
17.03	2.278540
17.048	2.264674
17.066	2.247830
17.084	2.227384
17.102	2.202945
17.12	2.174397
17.138	2.141743
17.156	2.105424
17.174	2.065706
17.192	2.023772
17.21	1.980157
17.228	1.936169
17.246	1.893120
17.264	1.851894
17.282	1.814529
17.3	1.781597
17.318	1.754508
17.336	1.733795
17.354	1.719926
17.372	1.713042
17.39	1.712967
17.408	1.719440
17.426	1.731413
17.444	1.748309
17.462	1.768601
17.48	1.791825
17.498	1.816530
17.516	1.842404
17.534	1.868976
17.552	1.895784
17.57	1.922748
17.588	1.950215
17.606	1.978537
17.624	2.008181
17.642	2.039973
17.66	2.074276
17.678	2.111895
17.696	2.152869
17.714	2.197416
17.732	2.245040
17.75	2.295547
17.768	2.347333
17.786	2.399936
17.804	2.451323
17.822	2.500875
17.84	2.546052
17.858	2.585728
17.876	2.618205
17.894	2.641757
17.912	2.655548
17.93	2.658392
17.948	2.650183
17.966	2.630619
17.984	2.600193
18.002	2.559514
18.02	2.510115
18.038	2.452909
18.056	2.390840
18.074	2.324690
18.092	2.258229
18.11	2.192043
18.128	2.129703
18.146	2.071753
18.164	2.020935
18.182	1.977625
18.2	1.943188
18.218	1.917468
18.236	1.900873
18.254	1.892033
18.272	1.890817
18.29	1.894711
18.308	1.903381
18.326	1.913775
18.344	1.925412
18.362	1.935055
18.38	1.942334
18.398	1.945201
18.416	1.943336
18.434	1.935422
18.452	1.922186
18.47	1.903473
18.488	1.881032
18.506	1.855083
18.524	1.828745
18.542	1.802481
18.56	1.779708
18.578	1.760750
18.596	1.748903
18.614	1.744331
18.632	1.749235
18.65	1.763541
18.668	1.787904
18.686	1.821945
18.704	1.864404
18.722	1.914713
18.74	1.970487
18.758	2.031026
18.776	2.093429
18.794	2.157036
18.812	2.219106
18.83	2.279217
18.848	2.335317
18.866	2.387336
18.884	2.434141
18.902	2.476020
18.92	2.512736
18.938	2.544799
18.956	2.572643
18.974	2.596769
18.992	2.617955
19.01	2.636427
19.028	2.652845
19.046	2.667121
19.064	2.679500
19.082	2.689730
19.1	2.697632
19.118	2.702954
19.136	2.705162
19.154	2.704280
19.172	2.699960
19.19	2.692411
19.208	2.681648
19.226	2.668138
19.244	2.653023
19.262	2.636598
19.28	2.620746
19.298	2.605547
19.316	2.593319
19.334	2.583925
19.352	2.579140
19.37	2.578839
19.388	2.583992
19.406	2.594637
19.424	2.610096
19.442	2.630579
19.46	2.654083
19.478	2.680775
19.496	2.707845
19.514	2.734875
19.532	2.759522
19.55	2.780603
19.568	2.796828
19.586	2.806327
19.604	2.809053
19.622	2.803484
19.64	2.790062
19.658	2.768617
19.676	2.739367
19.694	2.703685
19.712	2.661380
19.73	2.615469
19.748	2.565664
19.766	2.515307
19.784	2.464673
19.802	2.416393
19.82	2.372000
19.838	2.332481
19.856	2.300198
19.874	2.274976
19.892	2.258861
19.91	2.251495
19.928	2.253576
19.946	2.265180
19.964	2.285275
19.982	2.314162
20	2.349925
20.018	2.392123
20.036	2.439161
20.054	2.488536
20.072	2.540117
20.09	2.589917
20.108	2.638585
20.126	2.681728
20.144	2.719489
20.162	2.749348
20.18	2.770085
20.198	2.781454
20.216	2.781808
20.234	2.771827
20.252	2.751996
20.27	2.722076
20.288	2.685028
20.306	2.640282
20.324	2.591442
20.342	2.540233
20.36	2.487974
20.378	2.439674
20.396	2.394400
20.414	2.357554
20.432	2.328663
20.45	2.310738
20.468	2.305585
20.486	2.312723
20.504	2.333502
20.522	2.367417
20.54	2.412706
20.558	2.470250
20.576	2.535801
20.594	2.608483
20.612	2.686239
20.63	2.763917
20.648	2.842659
20.666	2.915534
20.684	2.983118
20.702	3.041664
20.72	3.088126
20.738	3.123079
20.756	3.143267
20.774	3.149194
20.792	3.140893
20.81	3.117442
20.828	3.080982
20.846	3.033327
20.864	2.974254
20.882	2.909113
20.9	2.836735
20.918	2.761916
20.936	2.687796
20.954	2.614241
20.972	2.547382
20.99	2.485892
21.008	2.433814
21.026	2.392968
21.044	2.363122
21.062	2.346924
21.08	2.343871
21.098	2.353888
21.116	2.377622
21.134	2.413776
21.152	2.460794
21.17	2.519315
21.188	2.585191
21.206	2.658533
21.224	2.737247
21.242	2.817183
21.26	2.899733
21.278	2.979763
21.296	3.056745
21.314	3.129538
21.332	3.194426
21.35	3.252569
21.368	3.301288
21.386	3.339626
21.404	3.368028
21.422	3.385601
21.44	3.392346
21.458	3.389404
21.476	3.376627
21.494	3.354772
21.512	3.326682
21.53	3.291268
21.548	3.251708
21.566	3.210032
21.584	3.165653
21.602	3.123034
21.62	3.081555
21.638	3.043172
21.656	3.011063
21.674	2.984060
21.692	2.964427
21.71	2.952973
21.728	2.949278
21.746	2.954184
21.764	2.967908
21.782	2.989252
21.8	3.017829
21.818	3.053740
21.836	3.094063
21.854	3.139194
21.872	3.187758
21.89	3.236537
21.908	3.286677
21.926	3.335804
21.944	3.382294
21.962	3.426870
21.98	3.467195
21.998	3.503116
22.016	3.534527
22.034	3.560233
22.052	3.580408
22.07	3.595227
22.088	3.604517
22.106	3.608339
22.124	3.607783
22.142	3.602871
22.16	3.593861
22.178	3.582095
22.196	3.567295
22.214	3.549987
22.232	3.530990
22.25	3.509959
22.268	3.487542
22.286	3.464160
22.304	3.439605
22.322	3.414321
22.34	3.388294
22.358	3.361628
22.376	3.334837
22.394	3.307659
22.412	3.280594
22.43	3.254299
22.448	3.228306
22.466	3.203706
22.484	3.181227
22.502	3.160354
22.52	3.142744
22.538	3.128934
22.556	3.118607
22.574	3.113531
22.592	3.113775
22.61	3.119396
22.628	3.131806
22.646	3.150959
22.664	3.176771
22.682	3.209659
22.7	3.249770
22.718	3.296473
22.736	3.349244
22.754	3.408494
22.772	3.473172
22.79	3.542530
22.808	3.617172
22.826	3.695327
22.844	3.776182
22.862	3.860443
22.88	3.945277
22.898	4.029727
22.916	4.114527
22.934	4.196354
22.952	4.274060
22.97	4.348501
22.988	4.417941
23.006	4.482263
23.024	4.541554
23.042	4.594104
23.06	4.639893
23.078	4.678959
23.096	4.709970
23.114	4.733308
23.132	4.748582
23.15	4.753989
23.168	4.749985
23.186	4.736131
23.204	4.710430
23.222	4.673365
23.24	4.624518
23.258	4.561906
23.276	4.485571
23.294	4.395731
23.312	4.291641
23.33	4.173066
23.348	4.040508
23.366	3.894451
23.384	3.734379
23.402	3.561030
23.42	3.376241
23.438	3.179056
23.456	2.970553
23.474	2.754822
23.492	2.531030
23.51	2.299836
23.528	2.067820
23.546	1.835654
23.564	1.602329
23.582	1.374867
23.6	1.155510
23.618	0.941948
23.636	0.739751
23.654	0.551497
23.672	0.374675
23.69	0.213897
23.708	0.072260
23.726	-0.052728
23.744	-0.158078
23.762	-0.240756
23.78	-0.301848
23.798	-0.342001
23.816	-0.361243
23.834	-0.358202
23.852	-0.335803
23.87	-0.297732
23.888	-0.241164
23.906	-0.169377
23.924	-0.089559
23.942	-0.000605
23.96	0.097165
23.978	0.195959
23.996	0.294018
24.014	0.393983
24.032	0.487939
24.05	0.570717
24.068	0.646229
24.086	0.711058
24.104	0.761186
24.122	0.796523
24.14	0.820338
24.158	0.835672
24.176	0.837871
24.194	0.832254
24.212	0.829836
24.23	0.829626
24.248	0.830160
24.266	0.846378
24.284	0.885613
24.302	0.939204
24.32	1.020699
24.338	1.142792
24.356	1.296522
24.374	1.489529
24.392	1.734975
24.41	2.032433
24.428	2.379295
24.446	2.779936
24.464	3.238742
24.482	3.753698
24.5	4.317110
24.518	4.924197
24.536	5.584192
24.554	6.282079
24.572	6.998498
24.59	7.742928
24.608	8.510039
24.626	9.273602
24.644	10.0248
24.662	10.7782
24.68	11.5065
24.698	12.1845
24.716	12.829
24.734	13.4286
24.752	13.9603
24.77	14.4237
24.788	14.8249
24.806	15.1481
24.824	15.3818
24.842	15.5342
24.86	15.6028
24.878	15.5829
24.896	15.4726
24.914	15.2759
24.932	14.9977
24.95	14.6379
24.968	14.1922
24.986	13.6747
25.004	13.0997
25.022	12.4582
25.04	11.7562
25.058	11.0109
25.076	10.2288
25.094	9.399787
25.112	8.538974
25.13	7.661493
25.148	6.760111
25.166	5.837461
25.184	4.904916
25.202	3.967959
25.22	3.020164
25.238	2.067254
25.256	1.115439
25.274	0.162763
25.292	-0.790938
25.31	-1.742409
25.328	-2.689894
25.346	-3.635642
25.364	-4.577394
25.382	-5.512492
25.4	-6.443334
25.418	-7.368950
25.436	-8.283672
25.454	-9.183929
25.472	-10.0758
25.49	-10.9525
25.508	-11.8047
25.526	-12.6317
25.544	-13.4379
25.562	-14.2147
25.58	-14.9539
25.598	-15.66
25.616	-16.3321
25.634	-16.9647
25.652	-17.5534
25.67	-18.1
25.688	-18.6078
25.706	-19.0801
25.724	-19.5126
25.742	-19.906
25.76	-20.2725
25.778	-20.6233
25.796	-20.9471
25.814	-21.2512
25.832	-21.5525
25.85	-21.8606
25.868	-22.1599
25.886	-22.4665
25.904	-22.8005
25.922	-23.1645
25.94	-23.547
25.958	-23.966
25.976	-24.4396
25.994	-24.9615
26.012	-25.5294
26.03	-26.156
26.048	-26.8516
26.066	-27.6056
26.084	-28.4236
26.102	-29.3179
26.12	-30.298
26.138	-31.3576
26.156	-32.4944
26.174	-33.7074
26.192	-35
26.21	-36.3744
26.228	-37.8173
26.246	-39.3151
26.264	-40.8783
26.282	-42.5091
26.3	-44.1754
26.318	-45.8458
26.336	-47.5439
26.354	-49.265
26.372	-50.9667
26.39	-52.611
26.408	-54.2359
26.426	-55.8242
26.444	-57.3267
26.462	-58.704
26.48	-60.0007
26.498	-61.1928
26.516	-62.233
26.534	-63.0871
26.552	-63.7936
26.57	-64.3342
26.588	-64.6778
26.606	-64.8026
26.624	-64.7295
26.642	-64.456
26.66	-63.975
26.678	-63.277
26.696	-62.3592
26.714	-61.2429
26.732	-59.9509
26.75	-58.4857
26.768	-56.818
26.786	-54.9948
26.804	-53.0678
26.822	-51.0527
26.84	-48.8989
26.858	-46.6652
26.876	-44.4178
26.894	-42.1805
26.912	-39.8918
26.93	-37.6121
26.948	-35.4102
26.966	-33.2582
26.984	-31.0072
27.002	-28.9258
27.02	-27.3114
27.028	-26.8717