File: Bakgrunnsmateriale/MATLAB/FTIR/ftir_data/LPE454/Mapping_121/LPE454_t115.asc
PE IR       SPECTRUM    SPECTRUM    ASCII       PEDS        1.60
  -1
LP970E~1.ASC
17/05/19
23:51:31.00
17/05/19
23:51:57.00
tln
$LPE454_t0115$<tbV0>[2.6,13.0,8.0,0.0,27,1,0]
27.028
64

2002,4.07
MIRTGS : RIGHTBACK : INTERNAL 2
MIR : ON : INTERNAL 2
OPTKBR

0.200000
8
8.000000
FILLER
RATIO
SPECTRUM
UNLOCKED 256

DOUBLE
64
COMBINED
1
0
0

0.002000
RATIO

1
0
TRUE
51149
0
LEFT NOT FITTED RIGHT NOT FITTED 0
NONE
NONE
15600
12
4.427000
51148
TRUE
1 0 8 72 0 0 0 0

15798

#HDR
-1
-1
#GR
µM
%T
2.38419e-05
0.0
2.000000
0.002000
12515
8
36.5905
-12.6168
#DATA
2.000000	 -0.156950
2.018000	 0.384935
2.036000	 0.532839
2.054000	 0.003832
2.072000	 0.329866
2.090000	 0.036591
2.108000	 0.241305
2.126000	 0.314497
2.144000	 -0.035313
2.162000	 0.420281
2.180000	 9.675044
2.198000	 0.037541
2.216000	 -0.040338
2.234000	 0.520418
2.252000	 0.291274
2.270000	 0.084747
2.288000	 0.148918
2.306000	 0.240449
2.324000	 0.182020
2.342000	 0.125819
2.360000	 0.039534
2.378000	 0.360600
2.396000	 -0.108333
2.414000	 -0.122857
2.432000	 0.573264
2.450000	 1.031198
2.468000	 -0.271260
2.486000	 -0.281064
2.504000	 0.088826
2.522000	 0.011547
2.540000	 0.012895
2.558000	 -0.031662
2.576000	 0.054601
2.594000	 -0.089641
2.612000	 -0.040541
2.630000	 -0.001464
2.648000	 0.063151
2.666000	 0.134171
2.684000	 -0.062026
2.702000	 0.118415
2.720000	 0.030735
2.738000	 0.172746
2.756000	 -0.113512
2.774000	 0.066638
2.792000	 0.068711
2.810000	 0.157733
2.828000	 -0.052832
2.846000	 0.012430
2.864000	 -0.140454
2.882000	 0.167932
2.900000	 0.177903
2.918000	 0.090735
2.936000	 -0.004753
2.954000	 -0.006263
2.972000	 -0.031036
2.990000	 -0.020419
3.008000	 -0.083635
3.026000	 -0.015664
3.044000	 -0.026529
3.062000	 0.052516
3.080000	 0.039831
3.098000	 0.011340
3.116000	 0.048576
3.134000	 0.043695
3.152000	 0.077580
3.170000	 0.032233
3.188000	 0.176750
3.206000	 -0.020028
3.224000	 0.063448
3.242000	 0.068517
3.260000	 -0.024647
3.278000	 -0.084958
3.296000	 0.103447
3.314000	 0.056863
3.332000	 0.121717
3.350000	 0.012639
3.368000	 0.028826
3.386000	 0.058292
3.404000	 0.009650
3.422000	 0.008443
3.440000	 -0.003897
3.458000	 0.060734
3.476000	 0.141599
3.494000	 0.091677
3.512000	 0.023045
3.530000	 0.007038
3.548000	 -0.044792
3.566000	 0.102614
3.584000	 0.113534
3.602000	 0.015523
3.620000	 -0.060707
3.638000	 0.007805
3.656000	 0.108749
3.674000	 0.048825
3.692000	 -0.037751
3.710000	 0.062945
3.728000	 0.077827
3.746000	 0.024211
3.764000	 0.002082
3.782000	 0.022858
3.800000	 -0.026583
3.818000	 0.060437
3.836000	 -0.006560
3.854000	 0.081532
3.872000	 0.095580
3.890000	 0.042028
3.908000	 0.044592
3.926000	 0.067990
3.944000	 0.089834
3.962000	 -0.031321
3.980000	 0.031396
3.998000	 0.057418
4.016000	 0.091930
4.034000	 0.043479
4.052000	 -0.024879
4.070000	 0.035816
4.088000	 0.089051
4.106000	 0.104324
4.124000	 0.132807
4.141999	 0.194159
4.160000	 0.155392
4.178000	 0.250388
4.196000	 0.220618
4.214000	 0.328852
4.232000	 0.359474
4.250000	 0.484649
4.268000	 0.554360
4.286000	 0.827693
4.304000	 0.841675
4.322000	 0.948806
4.340000	 1.184845
4.358000	 1.391044
4.375999	 1.774347
4.394000	 2.111481
4.412000	 2.512768
4.430000	 2.951684
4.448000	 3.484136
4.466000	 4.085319
4.484000	 4.695162
4.502000	 5.371576
4.520000	 6.123368
4.538000	 6.875065
4.556000	 7.681107
4.574000	 8.643227
4.592000	 9.525491
4.609999	 10.475
4.628000	 11.4621
4.646000	 12.5713
4.664000	 13.5743
4.682000	 14.638
4.700000	 15.6046
4.718000	 16.6037
4.736000	 17.6036
4.754000	 18.5705
4.772000	 19.4536
4.790000	 20.4345
4.808000	 21.3409
4.826000	 22.07
4.843999	 22.7788
4.862000	 23.7442
4.880000	 24.5112
4.898000	 25.1786
4.916000	 25.8411
4.934000	 26.4653
4.952000	 27.1474
4.970000	 27.6582
4.988000	 28.1451
5.006000	 28.6499
5.024000	 29.1204
5.042000	 29.6603
5.060000	 30.0786
5.077999	 30.5338
5.096000	 30.8475
5.114000	 31.134
5.132000	 31.4922
5.150000	 31.7437
5.168000	 32.083
5.186000	 32.4322
5.204000	 32.7459
5.222000	 32.9763
5.240000	 33.2437
5.258000	 33.4871
5.276000	 33.5801
5.294000	 33.7187
5.312000	 33.8395
5.330000	 34.0086
5.348000	 34.2842
5.366000	 34.4607
5.384000	 34.6648
5.402000	 34.8554
5.420000	 35.0549
5.438000	 35.104
5.456000	 35.0417
5.474000	 35.0108
5.492000	 35.1087
5.510000	 35.2358
5.528000	 35.3602
5.546000	 35.4518
5.564000	 35.6009
5.582000	 35.8655
5.600000	 35.9596
5.618000	 35.8566
5.636000	 35.8513
5.654000	 35.8301
5.672000	 35.7972
5.690000	 35.8627
5.708000	 35.92
5.726000	 35.9541
5.744000	 36.0062
5.762000	 36.187
5.780000	 36.251
5.798000	 36.253
5.816000	 36.2177
5.834000	 36.207
5.852000	 36.1812
5.870000	 36.1017
5.888000	 36.0432
5.906000	 35.9814
5.923999	 36.0371
5.942000	 36.2083
5.960000	 36.3627
5.978000	 36.4106
5.996000	 36.4532
6.014000	 36.5378
6.032000	 36.52
6.050000	 36.4641
6.068000	 36.4288
6.086000	 36.3695
6.104000	 36.3104
6.122000	 36.2313
6.140000	 36.1213
6.158000	 36.1397
6.176000	 36.3137
6.194000	 36.4183
6.212000	 36.4061
6.230000	 36.3916
6.248000	 36.5034
6.266000	 36.5902
6.284000	 36.5393
6.302000	 36.44
6.320000	 36.3726
6.338000	 36.2969
6.356000	 36.2001
6.374000	 36.184
6.392000	 36.2005
6.410000	 36.1879
6.428000	 36.1292
6.446000	 36.1133
6.464000	 36.2465
6.482000	 36.4367
6.500000	 36.5267
6.518000	 36.5592
6.536000	 36.5605
6.554000	 36.4894
6.572000	 36.3903
6.590000	 36.3079
6.608000	 36.2312
6.626000	 36.1681
6.644000	 36.1444
6.662000	 36.1233
6.680000	 36.0957
6.698000	 36.1722
6.716000	 36.331
6.734000	 36.4033
6.752000	 36.4108
6.770000	 36.4483
6.788000	 36.4807
6.806000	 36.4663
6.824000	 36.4197
6.842000	 36.3618
6.860000	 36.305
6.878000	 36.2265
6.896000	 36.1441
6.914000	 36.1013
6.932000	 36.0494
6.950000	 35.9602
6.968000	 35.8998
6.986000	 35.9221
7.004000	 36.0375
7.022000	 36.1645
7.040000	 36.2063
7.058000	 36.2398
7.076000	 36.317
7.094000	 36.3241
7.112000	 36.254
7.130000	 36.2235
7.148000	 36.2403
7.166000	 36.2349
7.184000	 36.1874
7.202000	 36.1135
7.220000	 36.0358
7.238000	 35.9667
7.256000	 35.9075
7.274000	 35.8813
7.292000	 35.9052
7.310000	 35.9417
7.328000	 35.9513
7.346000	 35.9357
7.364000	 35.9194
7.382000	 35.9382
7.400000	 36.013
7.418000	 36.1374
7.436000	 36.2797
7.454000	 36.3619
7.472000	 36.3237
7.490000	 36.2063
7.508000	 36.0884
7.526000	 36.0036
7.544000	 35.9406
7.562000	 35.8756
7.580000	 35.803
7.598000	 35.7262
7.616000	 35.6408
7.634000	 35.5728
7.652000	 35.5777
7.670000	 35.6533
7.688000	 35.7265
7.706000	 35.757
7.724000	 35.7799
7.742000	 35.8327
7.760000	 35.9071
7.778000	 35.9839
7.796000	 36.0557
7.814000	 36.1014
7.832000	 36.0941
7.850000	 36.0472
7.868000	 36.0103
7.886000	 36.0065
7.904000	 36.0016
7.922000	 35.954
7.940000	 35.8732
7.958000	 35.7957
7.976000	 35.726
7.994000	 35.6434
8.012000	 35.5528
8.030000	 35.4868
8.048000	 35.4645
8.065999	 35.475
8.084000	 35.4926
8.102000	 35.4979
8.120000	 35.5033
8.138000	 35.5514
8.155999	 35.6657
8.173999	 35.8031
8.192000	 35.8936
8.210000	 35.917
8.228000	 35.9112
8.246000	 35.9131
8.263999	 35.9266
8.282000	 35.935
8.300000	 35.9224
8.318000	 35.8812
8.336000	 35.8156
8.353999	 35.7375
8.372000	 35.6557
8.390000	 35.5757
8.408000	 35.5055
8.426000	 35.4536
8.443999	 35.4203
8.462000	 35.395
8.480000	 35.3674
8.498000	 35.3361
8.516000	 35.3044
8.533999	 35.2725
8.552000	 35.2428
8.570000	 35.2335
8.588000	 35.2686
8.606000	 35.3475
8.624000	 35.4306
8.641999	 35.4713
8.660000	 35.4642
8.678000	 35.4522
8.696000	 35.4844
8.714000	 35.5661
8.731999	 35.6565
8.750000	 35.7093
8.768000	 35.7085
8.786000	 35.6654
8.804000	 35.5945
8.821999	 35.505
8.840000	 35.4089
8.858000	 35.3254
8.876000	 35.2665
8.894000	 35.2265
8.911999	 35.1884
8.930000	 35.1395
8.948000	 35.0796
8.966000	 35.0158
8.984000	 34.957
9.001999	 34.9129
9.020000	 34.8965
9.038000	 34.9183
9.056000	 34.9735
9.074000	 35.0365
9.092000	 35.0753
9.109999	 35.0799
9.128000	 35.0765
9.146000	 35.109
9.164000	 35.2014
9.182000	 35.338
9.199999	 35.4756
9.218000	 35.5722
9.236000	 35.6098
9.254000	 35.5966
9.272000	 35.5532
9.289999	 35.4984
9.308000	 35.4419
9.326000	 35.3862
9.344000	 35.3302
9.362000	 35.2692
9.379999	 35.1975
9.398000	 35.1134
9.416000	 35.0238
9.434000	 34.938
9.452000	 34.8543
9.469999	 34.7591
9.488000	 34.6457
9.506000	 34.5361
9.524000	 34.4768
9.542000	 34.4996
9.560000	 34.5857
9.577999	 34.676
9.596000	 34.7211
9.614000	 34.7158
9.632000	 34.6929
9.650000	 34.6881
9.667999	 34.7138
9.686000	 34.7601
9.704000	 34.8133
9.722000	 34.8716
9.740000	 34.9421
9.757999	 35.0264
9.776000	 35.1115
9.794000	 35.1743
9.812000	 35.1961
9.830000	 35.1756
9.847999	 35.1293
9.866000	 35.0802
9.884000	 35.0451
9.902000	 35.0269
9.920000	 35.0161
9.937999	 34.9971
9.956000	 34.956
9.974000	 34.8851
9.992000	 34.7851
10.01	34.6662
10.028	34.5481
10.046	34.452
10.064	34.3891
10.082	34.3572
10.1	34.3475
10.118	34.3553
10.136	34.3821
10.154	34.4266
10.172	34.4737
10.19	34.4932
10.208	34.4613
10.226	34.3803
10.244	34.2827
10.262	34.2129
10.28	34.1975
10.298	34.2353
10.316	34.3039
10.334	34.3791
10.352	34.448
10.37	34.5087
10.388	34.5631
10.406	34.6115
10.424	34.654
10.442	34.6939
10.46	34.7359
10.478	34.7816
10.496	34.8244
10.514	34.8541
10.532	34.8622
10.55	34.8477
10.568	34.8162
10.586	34.7741
10.604	34.724
10.622	34.6646
10.64	34.5954
10.658	34.5194
10.676	34.4449
10.694	34.3796
10.712	34.3267
10.73	34.2841
10.748	34.2465
10.766	34.2083
10.784	34.167
10.802	34.1244
10.82	34.0848
10.838	34.0534
10.856	34.0318
10.874	34.0171
10.892	34.002
10.91	33.9773
10.928	33.9391
10.946	33.8919
10.964	33.8487
10.982	33.8258
11	33.8318
11.018	33.863
11.036	33.9064
11.054	33.946
11.072	33.9735
11.09	33.991
11.108	34.0072
11.126	34.0319
11.144	34.0683
11.162	34.1118
11.18	34.1543
11.198	34.1891
11.216	34.2152
11.234	34.2364
11.252	34.2583
11.27	34.2837
11.288	34.3107
11.306	34.3343
11.324	34.3488
11.342	34.3501
11.36	34.3363
11.378	34.3061
11.396	34.258
11.414	34.1902
11.432	34.1045
11.45	34.0067
11.468	33.9076
11.486	33.8198
11.504	33.7532
11.522	33.7124
11.54	33.6958
11.558	33.697
11.576	33.7078
11.594	33.7218
11.612	33.7344
11.63	33.7426
11.648	33.7441
11.666	33.7362
11.684	33.7154
11.702	33.6785
11.72	33.625
11.738	33.557
11.756	33.4797
11.774	33.4001
11.792	33.3256
11.81	33.2617
11.828	33.2123
11.846	33.179
11.864	33.1616
11.882	33.1589
11.9	33.1687
11.918	33.1886
11.936	33.2167
11.954	33.252
11.972	33.2947
11.99	33.3458
12.008	33.4063
12.026	33.4759
12.044	33.5515
12.062	33.6265
12.08	33.6929
12.098	33.7426
12.116	33.7709
12.134	33.7794
12.152	33.7745
12.17	33.7658
12.188	33.7621
12.206	33.7684
12.224	33.7839
12.242	33.8031
12.26	33.8189
12.278	33.8244
12.296	33.8154
12.314	33.7913
12.332	33.7546
12.35	33.71
12.368	33.6617
12.386	33.6131
12.404	33.5651
12.422	33.5161
12.44	33.4636
12.458	33.4046
12.476	33.3377
12.494	33.263
12.512	33.1828
12.53	33.1005
12.548	33.0196
12.566	32.9427
12.584	32.8711
12.602	32.8049
12.62	32.7431
12.638	32.6845
12.656	32.6291
12.674	32.578
12.692	32.534
12.71	32.5
12.728	32.4793
12.746	32.4733
12.764	32.4812
12.782	32.4997
12.8	32.5235
12.818	32.5466
12.836	32.5636
12.854	32.5711
12.872	32.569
12.89	32.5602
12.908	32.5499
12.926	32.544
12.944	32.5473
12.962	32.5622
12.98	32.5873
12.998	32.6187
13.016	32.6503
13.034	32.6755
13.052	32.6892
13.07	32.6892
13.088	32.6761
13.106	32.6536
13.124	32.6263
13.142	32.5994
13.16	32.5773
13.178	32.563
13.196	32.5582
13.214	32.5638
13.232	32.5809
13.25	32.6103
13.268	32.6529
13.286	32.7081
13.304	32.7736
13.322	32.8439
13.34	32.9114
13.358	32.9668
13.376	33.0016
13.394	33.0094
13.412	32.9882
13.43	32.9401
13.448	32.8716
13.466	32.7919
13.484	32.7108
13.502	32.6357
13.52	32.5711
13.538	32.517
13.556	32.4704
13.574	32.426
13.592	32.3785
13.61	32.324
13.628	32.261
13.646	32.1908
13.664	32.1168
13.682	32.043
13.7	31.9738
13.718	31.9123
13.736	31.8605
13.754	31.8181
13.772	31.7839
13.79	31.7555
13.808	31.7306
13.826	31.7069
13.844	31.6834
13.862	31.6592
13.88	31.6347
13.898	31.6108
13.916	31.5891
13.934	31.5712
13.952	31.5586
13.97	31.5526
13.988	31.5539
14.006	31.5623
14.024	31.5766
14.042	31.5949
14.06	31.6152
14.078	31.6353
14.096	31.6531
14.114	31.6677
14.132	31.6788
14.15	31.6866
14.168	31.6915
14.186	31.694
14.204	31.6939
14.222	31.6913
14.24	31.6853
14.258	31.6758
14.276	31.6629
14.294	31.648
14.312	31.6335
14.33	31.6227
14.348	31.6198
14.366	31.6288
14.384	31.6532
14.402	31.6948
14.42	31.7534
14.438	31.8264
14.456	31.9096
14.474	31.9979
14.492	32.0857
14.51	32.1674
14.528	32.2386
14.546	32.2968
14.564	32.3412
14.582	32.3721
14.6	32.3909
14.618	32.3991
14.636	32.3986
14.654	32.3909
14.672	32.3768
14.69	32.3567
14.708	32.3312
14.726	32.301
14.744	32.2671
14.762	32.2314
14.78	32.1961
14.798	32.1631
14.816	32.1345
14.834	32.1117
14.852	32.0953
14.87	32.0843
14.888	32.0776
14.906	32.0733
14.924	32.0688
14.942	32.0617
14.96	32.0498
14.978	32.0313
14.996	32.0049
15.014	31.9693
15.032	31.9238
15.05	31.868
15.068	31.8015
15.086	31.7245
15.104	31.6371
15.122	31.5402
15.14	31.4353
15.158	31.3243
15.176	31.2098
15.194	31.0948
15.212	30.983
15.23	30.8779
15.248	30.7827
15.266	30.7004
15.284	30.6334
15.302	30.5829
15.32	30.5493
15.338	30.5321
15.356	30.5303
15.374	30.5417
15.392	30.564
15.41	30.5949
15.428	30.6317
15.446	30.6715
15.464	30.7119
15.482	30.7507
15.5	30.7859
15.518	30.8156
15.536	30.8388
15.554	30.855
15.572	30.8635
15.59	30.8648
15.608	30.8598
15.626	30.8493
15.644	30.8349
15.662	30.8183
15.68	30.8012
15.698	30.7851
15.716	30.7717
15.734	30.762
15.752	30.7569
15.77	30.7568
15.788	30.7616
15.806	30.7711
15.824	30.7848
15.842	30.802
15.86	30.8224
15.878	30.8454
15.896	30.8707
15.914	30.8978
15.932	30.9265
15.95	30.9566
15.968	30.9878
15.986	31.0193
16.004	31.0504
16.022	31.0799
16.04	31.1064
16.058	31.1282
16.076	31.144
16.094	31.152
16.112	31.1509
16.13	31.1401
16.148	31.119
16.166	31.088
16.184	31.0483
16.202	31.0012
16.22	30.9494
16.238	30.8947
16.256	30.8395
16.274	30.786
16.292	30.7356
16.31	30.6891
16.328	30.6471
16.346	30.6086
16.364	30.5731
16.382	30.5389
16.4	30.505
16.418	30.4704
16.436	30.4342
16.454	30.3969
16.472	30.3585
16.49	30.3203
16.508	30.284
16.526	30.2507
16.544	30.2227
16.562	30.2008
16.58	30.186
16.598	30.1787
16.616	30.1778
16.634	30.1828
16.652	30.1911
16.67	30.201
16.688	30.2104
16.706	30.216
16.724	30.2165
16.742	30.2098
16.76	30.1948
16.778	30.1712
16.796	30.1391
16.814	30.0996
16.832	30.0537
16.85	30.0036
16.868	29.951
16.886	29.8974
16.904	29.8452
16.922	29.7952
16.94	29.7488
16.958	29.7063
16.976	29.668
16.994	29.6337
17.012	29.6029
17.03	29.5751
17.048	29.5491
17.066	29.5247
17.084	29.5008
17.102	29.4775
17.12	29.4545
17.138	29.4321
17.156	29.4107
17.174	29.3903
17.192	29.3721
17.21	29.3565
17.228	29.3446
17.246	29.3371
17.264	29.3345
17.282	29.3376
17.3	29.3464
17.318	29.3611
17.336	29.3815
17.354	29.4073
17.372	29.438
17.39	29.4731
17.408	29.5119
17.426	29.5534
17.444	29.5971
17.462	29.6416
17.48	29.6864
17.498	29.7302
17.516	29.7725
17.534	29.8126
17.552	29.8494
17.57	29.8827
17.588	29.9114
17.606	29.9354
17.624	29.9544
17.642	29.9683
17.66	29.9769
17.678	29.9803
17.696	29.9786
17.714	29.9721
17.732	29.9613
17.75	29.9467
17.768	29.9292
17.786	29.9093
17.804	29.8883
17.822	29.8666
17.84	29.846
17.858	29.8275
17.876	29.8124
17.894	29.8025
17.912	29.7987
17.93	29.8027
17.948	29.8147
17.966	29.8359
17.984	29.8658
18.002	29.9046
18.02	29.9507
18.038	30.0036
18.056	30.06
18.074	30.1192
18.092	30.1764
18.11	30.2309
18.128	30.2774
18.146	30.3149
18.164	30.3394
18.182	30.3499
18.2	30.3441
18.218	30.3216
18.236	30.2816
18.254	30.2253
18.272	30.1526
18.29	30.0669
18.308	29.9687
18.326	29.8628
18.344	29.7498
18.362	29.635
18.38	29.5195
18.398	29.407
18.416	29.2991
18.434	29.1986
18.452	29.1061
18.47	29.0227
18.488	28.9483
18.506	28.8834
18.524	28.8257
18.542	28.7751
18.56	28.7286
18.578	28.686
18.596	28.6432
18.614	28.6002
18.632	28.5532
18.65	28.5022
18.668	28.4446
18.686	28.3804
18.704	28.3079
18.722	28.2275
18.74	28.1393
18.758	28.044
18.776	27.9426
18.794	27.8361
18.812	27.7271
18.83	27.6165
18.848	27.5072
18.866	27.4004
18.884	27.2993
18.902	27.205
18.92	27.1203
18.938	27.0459
18.956	26.9843
18.974	26.9358
18.992	26.9018
19.01	26.8821
19.028	26.8775
19.046	26.8871
19.064	26.9109
19.082	26.9476
19.1	26.9957
19.118	27.0541
19.136	27.1205
19.154	27.1938
19.172	27.2712
19.19	27.3521
19.208	27.4339
19.226	27.5161
19.244	27.5964
19.262	27.6747
19.28	27.7496
19.298	27.8213
19.316	27.8891
19.334	27.9532
19.352	28.0138
19.37	28.071
19.388	28.1258
19.406	28.1783
19.424	28.2292
19.442	28.2784
19.46	28.3261
19.478	28.3724
19.496	28.4162
19.514	28.4574
19.532	28.4946
19.55	28.5274
19.568	28.5544
19.586	28.5742
19.604	28.5864
19.622	28.5893
19.64	28.5831
19.658	28.5667
19.676	28.5403
19.694	28.5047
19.712	28.4598
19.73	28.4082
19.748	28.3495
19.766	28.2878
19.784	28.2234
19.802	28.1599
19.82	28.0992
19.838	28.0432
19.856	27.9955
19.874	27.9559
19.892	27.9278
19.91	27.9106
19.928	27.9051
19.946	27.9115
19.964	27.9276
19.982	27.954
20	27.987
20.018	28.0256
20.036	28.0673
20.054	28.1077
20.072	28.1469
20.09	28.1788
20.108	28.2042
20.126	28.2183
20.144	28.2208
20.162	28.2104
20.18	28.1854
20.198	28.1475
20.216	28.0966
20.234	28.0339
20.252	27.9635
20.27	27.8848
20.288	27.8041
20.306	27.7212
20.324	27.6408
20.342	27.566
20.36	27.4978
20.378	27.4421
20.396	27.3977
20.414	27.3681
20.432	27.3537
20.45	27.3539
20.468	27.3699
20.486	27.3994
20.504	27.4393
20.522	27.4902
20.54	27.5449
20.558	27.6049
20.576	27.6629
20.594	27.7165
20.612	27.7636
20.63	27.7971
20.648	27.8186
20.666	27.822
20.684	27.8072
20.702	27.7728
20.72	27.7167
20.738	27.6404
20.756	27.5452
20.774	27.4303
20.792	27.3012
20.81	27.1573
20.828	27.0031
20.846	26.8446
20.864	26.6805
20.882	26.5206
20.9	26.3633
20.918	26.215
20.936	26.0805
20.954	25.9589
20.972	25.8573
20.99	25.7745
21.008	25.7131
21.026	25.6751
21.044	25.6591
21.062	25.6653
21.08	25.6941
21.098	25.7415
21.116	25.8079
21.134	25.8905
21.152	25.984
21.17	26.0902
21.188	26.2004
21.206	26.3144
21.224	26.4287
21.242	26.5353
21.26	26.637
21.278	26.7246
21.296	26.7973
21.314	26.8531
21.332	26.8856
21.35	26.8968
21.368	26.8821
21.386	26.8399
21.404	26.7709
21.422	26.6736
21.44	26.548
21.458	26.3963
21.476	26.2181
21.494	26.015
21.512	25.7929
21.53	25.5493
21.548	25.2915
21.566	25.0237
21.584	24.7448
21.602	24.4666
21.62	24.187
21.638	23.9121
21.656	23.6509
21.674	23.3996
21.692	23.1683
21.71	22.9591
21.728	22.7721
21.746	22.6147
21.764	22.4854
21.782	22.386
21.8	22.3192
21.818	22.2835
21.836	22.2778
21.854	22.3031
21.872	22.3569
21.89	22.4347
21.908	22.539
21.926	22.6628
21.944	22.802
21.962	22.9583
21.98	23.1221
21.998	23.294
22.016	23.4712
22.034	23.6453
22.052	23.819
22.07	23.9876
22.088	24.1468
22.106	24.2986
22.124	24.439
22.142	24.5666
22.16	24.6823
22.178	24.785
22.196	24.8745
22.214	24.9518
22.232	25.0178
22.25	25.0719
22.268	25.1164
22.286	25.1527
22.304	25.18
22.322	25.2012
22.34	25.2163
22.358	25.2256
22.376	25.2318
22.394	25.2342
22.412	25.2337
22.43	25.2319
22.448	25.2281
22.466	25.2231
22.484	25.2175
22.502	25.2111
22.52	25.2039
22.538	25.1961
22.556	25.1877
22.574	25.1788
22.592	25.1695
22.61	25.1599
22.628	25.1501
22.646	25.1401
22.664	25.1302
22.682	25.1209
22.7	25.112
22.718	25.1039
22.736	25.0969
22.754	25.0912
22.772	25.0863
22.79	25.0819
22.808	25.0784
22.826	25.0747
22.844	25.0703
22.862	25.0656
22.88	25.0593
22.898	25.0509
22.916	25.0408
22.934	25.0279
22.952	25.0121
22.97	24.9935
22.988	24.9712
23.006	24.9446
23.024	24.9143
23.042	24.8807
23.06	24.8432
23.078	24.8026
23.096	24.7606
23.114	24.7167
23.132	24.6716
23.15	24.6288
23.168	24.5873
23.186	24.5482
23.204	24.5157
23.222	24.4888
23.24	24.4684
23.258	24.4581
23.276	24.4578
23.294	24.4674
23.312	24.489
23.33	24.5227
23.348	24.568
23.366	24.6249
23.384	24.6941
23.402	24.7747
23.42	24.8644
23.438	24.964
23.456	25.0727
23.474	25.1866
23.492	25.3061
23.51	25.431
23.528	25.5562
23.546	25.6808
23.564	25.8058
23.582	25.927
23.6	26.0427
23.618	26.1546
23.636	26.2596
23.654	26.356
23.672	26.445
23.69	26.5265
23.708	26.6001
23.726	26.6655
23.744	26.7249
23.762	26.7799
23.78	26.8287
23.798	26.8745
23.816	26.9208
23.834	26.9656
23.852	27.0111
23.87	27.0613
23.888	27.1155
23.906	27.1739
23.924	27.2385
23.942	27.3105
23.96	27.3886
23.978	27.4716
23.996	27.56
24.014	27.654
24.032	27.7493
24.05	27.8441
24.068	27.9412
24.086	28.0343
24.104	28.1176
24.122	28.1958
24.14	28.2636
24.158	28.313
24.176	28.3472
24.194	28.3642
24.212	28.356
24.23	28.3215
24.248	28.2629
24.266	28.1756
24.284	28.0566
24.302	27.908
24.32	27.7292
24.338	27.5191
24.356	27.2768
24.374	27.0051
24.392	26.7071
24.41	26.3805
24.428	26.0272
24.446	25.6544
24.464	25.2642
24.482	24.8533
24.5	24.4293
24.518	23.9981
24.536	23.5539
24.554	23.1034
24.572	22.656
24.59	22.2084
24.608	21.7618
24.626	21.3264
24.644	20.9058
24.662	20.4946
24.68	20.1018
24.698	19.7356
24.716	19.3906
24.734	19.0704
24.752	18.7822
24.77	18.5262
24.788	18.3004
24.806	18.1096
24.824	17.9572
24.842	17.8403
24.86	17.7606
24.878	17.7209
24.896	17.7217
24.914	17.7614
24.932	17.8386
24.95	17.954
24.968	18.1093
24.986	18.2977
25.004	18.5124
25.022	18.7582
25.04	19.0318
25.058	19.3239
25.076	19.631
25.094	19.9586
25.112	20.2984
25.13	20.6421
25.148	20.9952
25.166	21.3544
25.184	21.7104
25.202	22.0597
25.22	22.4082
25.238	22.7476
25.256	23.069
25.274	23.3764
25.292	23.6689
25.31	23.9401
25.328	24.186
25.346	24.4109
25.364	24.6117
25.382	24.7843
25.4	24.9277
25.418	25.044
25.436	25.1349
25.454	25.201
25.472	25.2391
25.49	25.2545
25.508	25.2538
25.526	25.2366
25.544	25.2
25.562	25.1533
25.58	25.1051
25.598	25.049
25.616	24.9882
25.634	24.9321
25.652	24.8861
25.67	24.8427
25.688	24.809
25.706	24.7938
25.724	24.7977
25.742	24.817
25.76	24.8565
25.778	24.9203
25.796	25.0073
25.814	25.1164
25.832	25.2482
25.85	25.4039
25.868	25.5854
25.886	25.7875
25.904	26.004
25.922	26.2359
25.94	26.4866
25.958	26.7458
25.976	27.0034
25.994	27.2669
26.012	27.5343
26.03	27.7909
26.048	28.0243
26.066	28.2474
26.084	28.4524
26.102	28.6236
26.12	28.7515
26.138	28.8493
26.156	28.9068
26.174	28.9106
26.192	28.8571
26.21	28.7557
26.228	28.5963
26.246	28.3681
26.264	28.0697
26.282	27.7066
26.3	27.2762
26.318	26.776
26.336	26.1986
26.354	25.5509
26.372	24.8471
26.39	24.1
26.408	23.2962
26.426	22.4428
26.444	21.558
26.462	20.6559
26.48	19.7159
26.498	18.7529
26.516	17.7929
26.534	16.8552
26.552	15.9213
26.57	14.998
26.588	14.0985
26.606	13.2331
26.624	12.3967
26.642	11.5842
26.66	10.7914
26.678	10.02
26.696	9.280311
26.714	8.553189
26.732	7.817368
26.75	7.068403
26.768	6.331189
26.786	5.572181
26.804	4.753716
26.822	3.859873
26.84	2.922351
26.858	1.916295
26.876	0.812721
26.894	-0.403768
26.912	-1.712015
26.93	-3.119673
26.948	-4.636907
26.966	-6.372622
26.984	-8.471396
27.002	-10.5483
27.02	-12.1861
27.028	-12.6168