File: Bakgrunnsmateriale/MATLAB/FTIR/ftir_data/LPE454/Mapping_121/LPE454_t07.asc
PE IR       SPECTRUM    SPECTRUM    ASCII       PEDS        1.60
  -1
LPD390~1.ASC
17/05/19
14:57:01.00
17/05/19
14:57:27.00
tln
$LPE454_t0007$<tbV0>[-2.6,-13.0,8.0,0.0,27,1,0]
27.028
64

2002,4.07
MIRTGS : RIGHTBACK : INTERNAL 2
MIR : ON : INTERNAL 2
OPTKBR

0.200000
8
8.000000
FILLER
RATIO
SPECTRUM
UNLOCKED 256

DOUBLE
64
COMBINED
1
0
0

0.002000
RATIO

1
0
TRUE
51149
0
LEFT NOT FITTED RIGHT NOT FITTED 0
NONE
NONE
15600
12
4.427000
51148
TRUE
1 0 8 72 0 0 0 0

15798

#HDR
-1
-1
#GR
µM
%T
2.38419e-05
0.0
2.000000
0.002000
12515
8
57.0368
-30.9466
#DATA
2.000000	 -0.003194
2.018000	 0.873422
2.036000	 0.040300
2.054000	 0.111796
2.072000	 1.008770
2.090000	 0.286425
2.108000	 -0.001230
2.126000	 0.072736
2.144000	 0.177641
2.162000	 0.198459
2.180000	 -0.207448
2.198000	 -0.203615
2.216000	 0.300114
2.234000	 -1.362212
2.252000	 -0.010405
2.270000	 -0.399907
2.288000	 0.181177
2.306000	 -0.189850
2.324000	 -0.032132
2.342000	 0.197706
2.360000	 0.183405
2.378000	 0.465403
2.396000	 -0.093288
2.414000	 0.237912
2.432000	 -0.025611
2.450000	 0.179399
2.468000	 0.016565
2.486000	 -0.015173
2.504000	 0.035902
2.522000	 0.027126
2.540000	 0.187556
2.558000	 0.040047
2.576000	 0.128030
2.594000	 -0.002082
2.612000	 0.018129
2.630000	 0.096933
2.648000	 0.086190
2.666000	 0.130711
2.684000	 0.007220
2.702000	 0.020975
2.720000	 -0.011019
2.738000	 -0.003632
2.756000	 -0.011646
2.774000	 0.068907
2.792000	 0.049625
2.810000	 0.000240
2.828000	 0.171413
2.846000	 0.077315
2.864000	 -0.038818
2.882000	 0.222161
2.900000	 -0.058376
2.918000	 0.141479
2.936000	 0.001505
2.954000	 0.082359
2.972000	 0.040011
2.990000	 0.005616
3.008000	 -0.085373
3.026000	 0.020965
3.044000	 0.028407
3.062000	 0.139442
3.080000	 0.116708
3.098000	 0.086315
3.116000	 0.139643
3.134000	 0.203915
3.152000	 0.083153
3.170000	 -0.027467
3.188000	 0.245432
3.206000	 0.121610
3.224000	 -0.022520
3.242000	 -0.056843
3.260000	 -0.006635
3.278000	 -0.075508
3.296000	 0.077619
3.314000	 0.029803
3.332000	 -0.046480
3.350000	 0.186370
3.368000	 -0.026792
3.386000	 -0.039333
3.404000	 0.046759
3.422000	 -0.052608
3.440000	 0.066772
3.458000	 -0.099004
3.476000	 0.022681
3.494000	 0.034546
3.512000	 0.097636
3.530000	 0.050484
3.548000	 -0.019886
3.566000	 0.163562
3.584000	 0.156550
3.602000	 0.102345
3.620000	 -0.043204
3.638000	 0.000955
3.656000	 -0.010217
3.674000	 -0.019550
3.692000	 -0.021531
3.710000	 0.022696
3.728000	 0.020669
3.746000	 0.140365
3.764000	 -0.050267
3.782000	 0.094379
3.800000	 -0.035667
3.818000	 -0.062016
3.836000	 0.060046
3.854000	 0.021845
3.872000	 0.086962
3.890000	 0.027040
3.908000	 0.097605
3.926000	 0.108267
3.944000	 -0.020964
3.962000	 -0.131397
3.980000	 0.100321
3.998000	 -0.035802
4.016000	 0.041140
4.034000	 0.028136
4.052000	 -0.059871
4.070000	 -0.093672
4.088000	 0.010021
4.106000	 -0.166732
4.124000	 0.352745
4.141999	 0.340983
4.160000	 0.084240
4.178000	 0.023980
4.196000	 0.093617
4.214000	 0.033854
4.232000	 -0.018912
4.250000	 0.202934
4.268000	 0.155582
4.286000	 0.242779
4.304000	 0.331178
4.322000	 0.359182
4.340000	 0.563607
4.358000	 0.619489
4.375999	 0.823788
4.394000	 0.951380
4.412000	 1.115302
4.430000	 1.363232
4.448000	 1.671333
4.466000	 1.969684
4.484000	 2.330782
4.502000	 2.854119
4.520000	 3.393008
4.538000	 3.956106
4.556000	 4.607650
4.574000	 5.024359
4.592000	 5.710712
4.609999	 6.476011
4.628000	 7.298529
4.646000	 8.184384
4.664000	 8.854561
4.682000	 9.522860
4.700000	 10.1768
4.718000	 11.1404
4.736000	 11.9369
4.754000	 12.8291
4.772000	 13.6204
4.790000	 14.3711
4.808000	 14.9496
4.826000	 16.0746
4.843999	 16.7089
4.862000	 17.1551
4.880000	 17.8889
4.898000	 18.4179
4.916000	 19.1705
4.934000	 19.7239
4.952000	 20.2082
4.970000	 20.6744
4.988000	 21.1844
5.006000	 21.7281
5.024000	 22.1161
5.042000	 22.466
5.060000	 22.8337
5.077999	 23.2901
5.096000	 23.6232
5.114000	 23.9192
5.132000	 24.1924
5.150000	 24.4647
5.168000	 24.7797
5.186000	 25.0071
5.204000	 25.2995
5.222000	 25.7105
5.240000	 25.9343
5.258000	 25.9974
5.276000	 26.1074
5.294000	 26.0572
5.312000	 26.2189
5.330000	 26.5502
5.348000	 26.7391
5.366000	 26.8248
5.384000	 27.0061
5.402000	 27.182
5.420000	 27.3585
5.438000	 27.3155
5.456000	 27.2934
5.474000	 27.3439
5.492000	 27.5224
5.510000	 27.7133
5.528000	 27.8853
5.546000	 27.9506
5.564000	 27.9453
5.582000	 28.0138
5.600000	 28.001
5.618000	 28.0191
5.636000	 28.0172
5.654000	 28.0538
5.672000	 28.1287
5.690000	 28.2784
5.708000	 28.3359
5.726000	 28.3518
5.744000	 28.4028
5.762000	 28.4163
5.780000	 28.4365
5.798000	 28.395
5.816000	 28.3757
5.834000	 28.3758
5.852000	 28.2901
5.870000	 28.4272
5.888000	 28.6927
5.906000	 28.758
5.923999	 28.7839
5.942000	 28.841
5.960000	 28.7253
5.978000	 28.5227
5.996000	 28.482
6.014000	 28.5028
6.032000	 28.6261
6.050000	 28.7796
6.068000	 28.7936
6.086000	 28.829
6.104000	 28.8982
6.122000	 28.943
6.140000	 28.9421
6.158000	 28.9
6.176000	 28.8797
6.194000	 28.8762
6.212000	 28.8329
6.230000	 28.7808
6.248000	 28.7328
6.266000	 28.7362
6.284000	 28.7775
6.302000	 28.7952
6.320000	 28.8492
6.338000	 28.9806
6.356000	 29.049
6.374000	 29.0748
6.392000	 29.113
6.410000	 29.153
6.428000	 29.0345
6.446000	 28.9311
6.464000	 29.0506
6.482000	 29.156
6.500000	 29.0997
6.518000	 28.9829
6.536000	 28.9203
6.554000	 28.9487
6.572000	 29.0674
6.590000	 29.1389
6.608000	 29.1467
6.626000	 29.1882
6.644000	 29.1663
6.662000	 29.1066
6.680000	 29.0983
6.698000	 29.0928
6.716000	 29.082
6.734000	 29.054
6.752000	 29.0122
6.770000	 29.0293
6.788000	 29.1254
6.806000	 29.1976
6.824000	 29.1674
6.842000	 29.0894
6.860000	 29.05
6.878000	 29.0612
6.896000	 29.0596
6.914000	 29.0324
6.932000	 29.0534
6.950000	 29.1012
6.968000	 29.1035
6.986000	 29.0896
7.004000	 29.0845
7.022000	 29.1065
7.040000	 29.1848
7.058000	 29.256
7.076000	 29.249
7.094000	 29.1961
7.112000	 29.1547
7.130000	 29.1654
7.148000	 29.2491
7.166000	 29.3569
7.184000	 29.4245
7.202000	 29.428
7.220000	 29.3637
7.238000	 29.2782
7.256000	 29.2168
7.274000	 29.1856
7.292000	 29.1909
7.310000	 29.1992
7.328000	 29.1843
7.346000	 29.1826
7.364000	 29.1916
7.382000	 29.1741
7.400000	 29.1487
7.418000	 29.1678
7.436000	 29.2524
7.454000	 29.3552
7.472000	 29.4063
7.490000	 29.4059
7.508000	 29.3957
7.526000	 29.3867
7.544000	 29.3809
7.562000	 29.3923
7.580000	 29.3929
7.598000	 29.327
7.616000	 29.212
7.634000	 29.1451
7.652000	 29.1713
7.670000	 29.2202
7.688000	 29.2199
7.706000	 29.197
7.724000	 29.2123
7.742000	 29.2655
7.760000	 29.32
7.778000	 29.3621
7.796000	 29.3913
7.814000	 29.3979
7.832000	 29.3855
7.850000	 29.3873
7.868000	 29.4279
7.886000	 29.4767
7.904000	 29.471
7.922000	 29.4086
7.940000	 29.3641
7.958000	 29.3775
7.976000	 29.405
7.994000	 29.405
8.012000	 29.3866
8.030000	 29.3581
8.048000	 29.3139
8.065999	 29.2788
8.084000	 29.2957
8.102000	 29.3738
8.120000	 29.4855
8.138000	 29.5916
8.155999	 29.6492
8.173999	 29.64
8.192000	 29.5952
8.210000	 29.5578
8.228000	 29.5395
8.246000	 29.5373
8.263999	 29.5603
8.282000	 29.6054
8.300000	 29.6339
8.318000	 29.6104
8.336000	 29.5479
8.353999	 29.4884
8.372000	 29.454
8.390000	 29.432
8.408000	 29.3977
8.426000	 29.3442
8.443999	 29.2981
8.462000	 29.2983
8.480000	 29.35
8.498000	 29.4079
8.516000	 29.4231
8.533999	 29.3921
8.552000	 29.3522
8.570000	 29.3372
8.588000	 29.3501
8.606000	 29.3715
8.624000	 29.3924
8.641999	 29.4334
8.660000	 29.5152
8.678000	 29.6162
8.696000	 29.6791
8.714000	 29.6642
8.731999	 29.5865
8.750000	 29.5012
8.768000	 29.4539
8.786000	 29.4494
8.804000	 29.4598
8.821999	 29.4541
8.840000	 29.418
8.858000	 29.3606
8.876000	 29.3074
8.894000	 29.2789
8.911999	 29.272
8.930000	 29.2683
8.948000	 29.259
8.966000	 29.2528
8.984000	 29.2603
9.001999	 29.2748
9.020000	 29.2727
9.038000	 29.2328
9.056000	 29.1542
9.074000	 29.0602
9.092000	 28.9857
9.109999	 28.962
9.128000	 29.0066
9.146000	 29.1216
9.164000	 29.2902
9.182000	 29.4722
9.199999	 29.6063
9.218000	 29.6356
9.236000	 29.5471
9.254000	 29.3922
9.272000	 29.2581
9.289999	 29.2055
9.308000	 29.2251
9.326000	 29.2554
9.344000	 29.2424
9.362000	 29.186
9.379999	 29.1311
9.398000	 29.1211
9.416000	 29.161
9.434000	 29.221
9.452000	 29.2669
9.469999	 29.287
9.488000	 29.2948
9.506000	 29.3104
9.524000	 29.3449
9.542000	 29.3961
9.560000	 29.4537
9.577999	 29.505
9.596000	 29.5372
9.614000	 29.5441
9.632000	 29.532
9.650000	 29.5156
9.667999	 29.5066
9.686000	 29.5027
9.704000	 29.4899
9.722000	 29.4586
9.740000	 29.4143
9.757999	 29.375
9.776000	 29.3558
9.794000	 29.3562
9.812000	 29.3608
9.830000	 29.3492
9.847999	 29.3081
9.866000	 29.238
9.884000	 29.1521
9.902000	 29.0699
9.920000	 29.008
9.937999	 28.9738
9.956000	 28.9639
9.974000	 28.9697
9.992000	 28.9842
10.01	29.0047
10.028	29.0323
10.046	29.0687
10.064	29.1166
10.082	29.1807
10.1	29.2661
10.118	29.3734
10.136	29.4941
10.154	29.6116
10.172	29.7073
10.19	29.7691
10.208	29.7949
10.226	29.789
10.244	29.7582
10.262	29.7103
10.28	29.6535
10.298	29.5973
10.316	29.5496
10.334	29.5145
10.352	29.4916
10.37	29.4764
10.388	29.4626
10.406	29.4436
10.424	29.4136
10.442	29.3701
10.46	29.3166
10.478	29.2631
10.496	29.22
10.514	29.1897
10.532	29.1634
10.55	29.1248
10.568	29.0619
10.586	28.9749
10.604	28.8781
10.622	28.7936
10.64	28.7409
10.658	28.7294
10.676	28.7561
10.694	28.8102
10.712	28.8777
10.73	28.9469
10.748	29.0093
10.766	29.0614
10.784	29.103
10.802	29.1364
10.82	29.1636
10.838	29.1869
10.856	29.2086
10.874	29.2311
10.892	29.2557
10.91	29.2796
10.928	29.2958
10.946	29.2954
10.964	29.2728
10.982	29.2278
11	29.1663
11.018	29.0982
11.036	29.0329
11.054	28.977
11.072	28.9322
11.09	28.8971
11.108	28.8684
11.126	28.8426
11.144	28.8176
11.162	28.7918
11.18	28.7651
11.198	28.7395
11.216	28.7167
11.234	28.6971
11.252	28.6787
11.27	28.6584
11.288	28.6321
11.306	28.5978
11.324	28.5553
11.342	28.5064
11.36	28.4549
11.378	28.4077
11.396	28.3741
11.414	28.3641
11.432	28.3841
11.45	28.4336
11.468	28.503
11.486	28.5765
11.504	28.6364
11.522	28.6698
11.54	28.6738
11.558	28.6565
11.576	28.6339
11.594	28.6225
11.612	28.6345
11.63	28.6734
11.648	28.7334
11.666	28.8019
11.684	28.8635
11.702	28.9055
11.72	28.9208
11.738	28.911
11.756	28.8855
11.774	28.8582
11.792	28.8433
11.81	28.8491
11.828	28.8764
11.846	28.9181
11.864	28.9621
11.882	28.9963
11.9	29.0117
11.918	29.0048
11.936	28.9768
11.954	28.9314
11.972	28.8722
11.99	28.8012
12.008	28.7188
12.026	28.6258
12.044	28.5254
12.062	28.4252
12.08	28.3351
12.098	28.2653
12.116	28.2225
12.134	28.2075
12.152	28.2138
12.17	28.2319
12.188	28.2522
12.206	28.2683
12.224	28.2793
12.242	28.2891
12.26	28.3029
12.278	28.3254
12.296	28.3589
12.314	28.4023
12.332	28.4515
12.35	28.5021
12.368	28.5494
12.386	28.5901
12.404	28.6221
12.422	28.6449
12.44	28.6585
12.458	28.6636
12.476	28.6608
12.494	28.6518
12.512	28.6393
12.53	28.6264
12.548	28.6161
12.566	28.6106
12.584	28.6097
12.602	28.6105
12.62	28.6084
12.638	28.5987
12.656	28.5778
12.674	28.5452
12.692	28.5019
12.71	28.4509
12.728	28.3944
12.746	28.3336
12.764	28.2679
12.782	28.196
12.8	28.1175
12.818	28.0344
12.836	27.9513
12.854	27.8752
12.872	27.814
12.89	27.7736
12.908	27.7564
12.926	27.7603
12.944	27.7783
12.962	27.8015
12.98	27.8211
12.998	27.8308
13.016	27.8278
13.034	27.8131
13.052	27.7904
13.07	27.7644
13.088	27.7394
13.106	27.718
13.124	27.7007
13.142	27.6868
13.16	27.6746
13.178	27.6627
13.196	27.6511
13.214	27.6413
13.232	27.6365
13.25	27.6408
13.268	27.6584
13.286	27.6924
13.304	27.7432
13.322	27.8087
13.34	27.8835
13.358	27.9598
13.376	28.0284
13.394	28.0806
13.412	28.1102
13.43	28.115
13.448	28.0977
13.466	28.0654
13.484	28.0278
13.502	27.9956
13.52	27.9775
13.538	27.9782
13.556	27.9977
13.574	28.0315
13.592	28.072
13.61	28.1102
13.628	28.1382
13.646	28.1508
13.664	28.1468
13.682	28.1284
13.7	28.1009
13.718	28.0708
13.736	28.0444
13.754	28.0262
13.772	28.0175
13.79	28.0175
13.808	28.0223
13.826	28.0271
13.844	28.0265
13.862	28.0157
13.88	27.9913
13.898	27.9517
13.916	27.8972
13.934	27.8298
13.952	27.7527
13.97	27.67
13.988	27.5859
14.006	27.5048
14.024	27.4304
14.042	27.3655
14.06	27.3116
14.078	27.2693
14.096	27.2374
14.114	27.2143
14.132	27.1972
14.15	27.1832
14.168	27.1691
14.186	27.1525
14.204	27.1313
14.222	27.1047
14.24	27.0726
14.258	27.0361
14.276	26.9969
14.294	26.9574
14.312	26.9198
14.33	26.8867
14.348	26.8607
14.366	26.8437
14.384	26.8377
14.402	26.8442
14.42	26.8641
14.438	26.8977
14.456	26.9441
14.474	27.0019
14.492	27.0689
14.51	27.1415
14.528	27.2154
14.546	27.2863
14.564	27.3501
14.582	27.4037
14.6	27.4445
14.618	27.4713
14.636	27.4841
14.654	27.4843
14.672	27.4741
14.69	27.4561
14.708	27.4335
14.726	27.4093
14.744	27.3868
14.762	27.3687
14.78	27.3568
14.798	27.3525
14.816	27.3565
14.834	27.3685
14.852	27.3873
14.87	27.4108
14.888	27.4361
14.906	27.4601
14.924	27.479
14.942	27.4892
14.96	27.4873
14.978	27.4712
14.996	27.4392
15.014	27.3908
15.032	27.3269
15.05	27.2494
15.068	27.1604
15.086	27.0628
15.104	26.9594
15.122	26.8535
15.14	26.7476
15.158	26.6436
15.176	26.5433
15.194	26.4481
15.212	26.359
15.23	26.2766
15.248	26.2015
15.266	26.1344
15.284	26.0752
15.302	26.0243
15.32	25.9811
15.338	25.9454
15.356	25.9168
15.374	25.894
15.392	25.8762
15.41	25.8626
15.428	25.852
15.446	25.8439
15.464	25.8376
15.482	25.8331
15.5	25.8303
15.518	25.8292
15.536	25.8301
15.554	25.8331
15.572	25.8381
15.59	25.8452
15.608	25.8543
15.626	25.8656
15.644	25.8793
15.662	25.8955
15.68	25.9146
15.698	25.9368
15.716	25.9623
15.734	25.9915
15.752	26.0243
15.77	26.0605
15.788	26.0995
15.806	26.1402
15.824	26.1816
15.842	26.2224
15.86	26.2609
15.878	26.2959
15.896	26.3266
15.914	26.3517
15.932	26.3714
15.95	26.3855
15.968	26.3948
15.986	26.4006
16.004	26.4041
16.022	26.4066
16.04	26.4103
16.058	26.4162
16.076	26.4254
16.094	26.4388
16.112	26.4563
16.13	26.4773
16.148	26.5012
16.166	26.5256
16.184	26.5488
16.202	26.5687
16.22	26.5822
16.238	26.5876
16.256	26.583
16.274	26.567
16.292	26.5397
16.31	26.5014
16.328	26.4542
16.346	26.4007
16.364	26.343
16.382	26.2858
16.4	26.2322
16.418	26.1848
16.436	26.147
16.454	26.1195
16.472	26.1028
16.49	26.0961
16.508	26.0968
16.526	26.1027
16.544	26.109
16.562	26.1118
16.58	26.1079
16.598	26.0923
16.616	26.0631
16.634	26.0185
16.652	25.958
16.67	25.8829
16.688	25.7945
16.706	25.6972
16.724	25.594
16.742	25.4888
16.76	25.3871
16.778	25.2915
16.796	25.2059
16.814	25.1326
16.832	25.0725
16.85	25.0264
16.868	24.993
16.886	24.9717
16.904	24.9596
16.922	24.955
16.94	24.9552
16.958	24.9576
16.976	24.9609
16.994	24.9627
17.012	24.9623
17.03	24.959
17.048	24.9526
17.066	24.9431
17.084	24.9309
17.102	24.9165
17.12	24.9
17.138	24.882
17.156	24.8628
17.174	24.8425
17.192	24.8211
17.21	24.7988
17.228	24.7754
17.246	24.7513
17.264	24.7265
17.282	24.7018
17.3	24.6777
17.318	24.6551
17.336	24.6354
17.354	24.6194
17.372	24.609
17.39	24.605
17.408	24.609
17.426	24.6217
17.444	24.6439
17.462	24.6759
17.48	24.7177
17.498	24.7687
17.516	24.8279
17.534	24.8945
17.552	24.966
17.57	25.0416
17.588	25.1183
17.606	25.1946
17.624	25.268
17.642	25.3362
17.66	25.3979
17.678	25.4509
17.696	25.4947
17.714	25.5281
17.732	25.5513
17.75	25.5643
17.768	25.5682
17.786	25.5634
17.804	25.5525
17.822	25.5361
17.84	25.5166
17.858	25.4949
17.876	25.4729
17.894	25.4514
17.912	25.4311
17.93	25.4121
17.948	25.3945
17.966	25.3773
17.984	25.36
18.002	25.3415
18.02	25.3209
18.038	25.2972
18.056	25.2692
18.074	25.2367
18.092	25.1992
18.11	25.1566
18.128	25.1097
18.146	25.059
18.164	25.0057
18.182	24.9512
18.2	24.897
18.218	24.845
18.236	24.7961
18.254	24.7526
18.272	24.7152
18.29	24.6855
18.308	24.6637
18.326	24.6506
18.344	24.6459
18.362	24.6497
18.38	24.6612
18.398	24.6796
18.416	24.7038
18.434	24.7324
18.452	24.7636
18.47	24.7962
18.488	24.8279
18.506	24.858
18.524	24.884
18.542	24.9054
18.56	24.92
18.578	24.9274
18.596	24.9259
18.614	24.9156
18.632	24.8955
18.65	24.8659
18.668	24.8268
18.686	24.7785
18.704	24.7222
18.722	24.6583
18.74	24.5883
18.758	24.5127
18.776	24.4333
18.794	24.3507
18.812	24.2664
18.83	24.1812
18.848	24.0966
18.866	24.0132
18.884	23.9321
18.902	23.8537
18.92	23.7787
18.938	23.7074
18.956	23.6404
18.974	23.5779
18.992	23.5206
19.01	23.4687
19.028	23.4224
19.046	23.3822
19.064	23.3484
19.082	23.3212
19.1	23.3008
19.118	23.2874
19.136	23.281
19.154	23.2814
19.172	23.2883
19.19	23.3011
19.208	23.319
19.226	23.3413
19.244	23.3661
19.262	23.3929
19.28	23.419
19.298	23.4441
19.316	23.4648
19.334	23.4813
19.352	23.4902
19.37	23.4918
19.388	23.4838
19.406	23.4661
19.424	23.4384
19.442	23.4004
19.46	23.3533
19.478	23.2968
19.496	23.234
19.514	23.1652
19.532	23.0936
19.55	23.0204
19.568	22.9487
19.586	22.8814
19.604	22.8199
19.622	22.7686
19.64	22.7274
19.658	22.7008
19.676	22.6882
19.694	22.6923
19.712	22.7129
19.73	22.7502
19.748	22.8047
19.766	22.874
19.784	22.9586
19.802	23.0553
19.82	23.1628
19.838	23.2788
19.856	23.3997
19.874	23.525
19.892	23.6493
19.91	23.7733
19.928	23.892
19.946	24.0057
19.964	24.111
19.982	24.2077
20	24.2944
20.018	24.3701
20.036	24.4351
20.054	24.4887
20.072	24.5312
20.09	24.5629
20.108	24.5837
20.126	24.595
20.144	24.5965
20.162	24.5896
20.18	24.5747
20.198	24.5523
20.216	24.5237
20.234	24.4887
20.252	24.4488
20.27	24.4037
20.288	24.3553
20.306	24.3036
20.324	24.25
20.342	24.1951
20.36	24.1397
20.378	24.0856
20.396	24.0324
20.414	23.9823
20.432	23.9349
20.45	23.8916
20.468	23.8529
20.486	23.8188
20.504	23.7901
20.522	23.7664
20.54	23.7476
20.558	23.734
20.576	23.7243
20.594	23.7185
20.612	23.7157
20.63	23.7143
20.648	23.7147
20.666	23.7145
20.684	23.7139
20.702	23.7116
20.72	23.7065
20.738	23.6987
20.756	23.687
20.774	23.6715
20.792	23.6521
20.81	23.6288
20.828	23.6019
20.846	23.5717
20.864	23.5382
20.882	23.5022
20.9	23.4635
20.918	23.4228
20.936	23.3806
20.954	23.3368
20.972	23.292
20.99	23.2463
21.008	23.1999
21.026	23.1528
21.044	23.1049
21.062	23.0562
21.08	23.0066
21.098	22.9562
21.116	22.9049
21.134	22.853
21.152	22.8011
21.17	22.7489
21.188	22.6978
21.206	22.6478
21.224	22.5997
21.242	22.5552
21.26	22.5136
21.278	22.4775
21.296	22.447
21.314	22.4228
21.332	22.4069
21.35	22.3987
21.368	22.3995
21.386	22.4099
21.404	22.4294
21.422	22.458
21.44	22.496
21.458	22.5416
21.476	22.5947
21.494	22.6544
21.512	22.7174
21.53	22.7847
21.548	22.8529
21.566	22.9196
21.584	22.9854
21.602	23.0454
21.62	23.1001
21.638	23.1476
21.656	23.1843
21.674	23.2116
21.692	23.227
21.71	23.2297
21.728	23.2202
21.746	23.1983
21.764	23.1633
21.782	23.1174
21.8	23.0616
21.818	22.9955
21.836	22.9232
21.854	22.844
21.872	22.76
21.89	22.6763
21.908	22.5907
21.926	22.5079
21.944	22.431
21.962	22.3586
21.98	22.2962
21.998	22.2441
22.016	22.2028
22.034	22.1756
22.052	22.1615
22.07	22.1616
22.088	22.1772
22.106	22.2078
22.124	22.2533
22.142	22.3141
22.16	22.3895
22.178	22.4781
22.196	22.5807
22.214	22.6952
22.232	22.8193
22.25	22.9543
22.268	23.0972
22.286	23.2466
22.304	23.4033
22.322	23.5642
22.34	23.7289
22.358	23.8974
22.376	24.0672
22.394	24.2387
22.412	24.4112
22.43	24.5828
22.448	24.7543
22.466	24.9246
22.484	25.0928
22.502	25.2595
22.52	25.4233
22.538	25.5836
22.556	25.7408
22.574	25.8937
22.592	26.0425
22.61	26.1869
22.628	26.3254
22.646	26.4588
22.664	26.5861
22.682	26.705
22.7	26.8168
22.718	26.9195
22.736	27.0104
22.754	27.0905
22.772	27.1588
22.79	27.2139
22.808	27.2566
22.826	27.2859
22.844	27.3011
22.862	27.3027
22.88	27.2897
22.898	27.2616
22.916	27.2189
22.934	27.1611
22.952	27.0873
22.97	26.9983
22.988	26.896
23.006	26.7806
23.024	26.6521
23.042	26.5135
23.06	26.3641
23.078	26.2047
23.096	26.0392
23.114	25.8673
23.132	25.6896
23.15	25.509
23.168	25.3255
23.186	25.1392
23.204	24.9529
23.222	24.7664
23.24	24.5797
23.258	24.394
23.276	24.209
23.294	24.0249
23.312	23.8425
23.33	23.6619
23.348	23.4829
23.366	23.3049
23.384	23.128
23.402	22.9522
23.42	22.7768
23.438	22.6021
23.456	22.4277
23.474	22.2527
23.492	22.0772
23.51	21.9011
23.528	21.7236
23.546	21.5446
23.564	21.3643
23.582	21.1824
23.6	20.9987
23.618	20.8135
23.636	20.6266
23.654	20.4378
23.672	20.2468
23.69	20.0557
23.708	19.8651
23.726	19.6737
23.744	19.485
23.762	19.3017
23.78	19.1215
23.798	18.9475
23.816	18.7832
23.834	18.6266
23.852	18.4796
23.87	18.3458
23.888	18.2237
23.906	18.1143
23.924	18.0211
23.942	17.9434
23.96	17.8813
23.978	17.8386
23.996	17.8171
24.014	17.815
24.032	17.8331
24.05	17.8717
24.068	17.9303
24.086	18.0094
24.104	18.1089
24.122	18.227
24.14	18.3671
24.158	18.5337
24.176	18.7233
24.194	18.9389
24.212	19.1878
24.23	19.4687
24.248	19.7809
24.266	20.135
24.284	20.5369
24.302	20.9807
24.32	21.4729
24.338	22.0204
24.356	22.6222
24.374	23.2749
24.392	23.9762
24.41	24.7315
24.428	25.5354
24.446	26.3739
24.464	27.245
24.482	28.1556
24.5	29.0831
24.518	30.0104
24.536	30.9552
24.554	31.8967
24.572	32.8057
24.59	33.6924
24.608	34.5534
24.626	35.359
24.644	36.097
24.662	36.7832
24.68	37.3963
24.698	37.9159
24.716	38.3521
24.734	38.702
24.752	38.9555
24.77	39.1087
24.788	39.167
24.806	39.1338
24.824	39.009
24.842	38.7859
24.86	38.4813
24.878	38.1144
24.896	37.6745
24.914	37.1676
24.932	36.6193
24.95	36.0424
24.968	35.4212
24.986	34.7746
25.004	34.1226
25.022	33.4538
25.04	32.7742
25.058	32.1041
25.076	31.4507
25.094	30.8015
25.112	30.1756
25.13	29.5926
25.148	29.0447
25.166	28.5327
25.184	28.0676
25.202	27.6555
25.22	27.2907
25.238	26.9742
25.256	26.7078
25.274	26.4962
25.292	26.3333
25.31	26.2092
25.328	26.1202
25.346	26.0749
25.364	26.059
25.382	26.0561
25.4	26.0778
25.418	26.1201
25.436	26.1543
25.454	26.1606
25.472	26.164
25.49	26.1408
25.508	26.0572
25.526	25.9091
25.544	25.7127
25.562	25.4403
25.58	25.0653
25.598	24.5998
25.616	24.0435
25.634	23.383
25.652	22.6082
25.67	21.7257
25.688	20.7385
25.706	19.6488
25.724	18.448
25.742	17.1388
25.76	15.7446
25.778	14.2858
25.796	12.7376
25.814	11.1182
25.832	9.467387
25.85	7.806200
25.868	6.095762
25.886	4.380041
25.904	2.713706
25.922	1.101465
25.94	-0.487607
25.958	-1.998474
25.976	-3.375793
25.994	-4.646373
26.012	-5.811245
26.03	-6.817731
26.048	-7.620996
26.066	-8.259570
26.084	-8.717169
26.102	-8.953491
26.12	-8.941164
26.138	-8.707493
26.156	-8.243699
26.174	-7.534959
26.192	-6.574871
26.21	-5.373699
26.228	-3.929551
26.246	-2.239981
26.264	-0.288090
26.282	1.918533
26.3	4.340555
26.318	6.939965
26.336	9.755217
26.354	12.772
26.372	15.919
26.39	19.1334
26.408	22.4927
26.426	25.952
26.444	29.4027
26.462	32.7601
26.48	36.1375
26.498	39.46
26.516	42.5936
26.534	45.4462
26.552	48.1437
26.57	50.6031
26.588	52.698
26.606	54.3499
26.624	55.6646
26.642	56.5813
26.66	57.0146
26.678	56.9128
26.696	56.3389
26.714	55.2725
26.732	53.6832
26.75	51.5388
26.768	48.8425
26.786	45.6477
26.804	42.0095
26.822	37.9402
26.84	33.3828
26.858	28.4175
26.876	23.1337
26.894	17.5619
26.912	11.6191
26.93	5.394159
26.948	-1.011753
26.966	-7.872976
26.984	-15.7516
27.002	-23.3756
27.02	-29.3561
27.028	-30.9466