File: Bakgrunnsmateriale/MATLAB/FTIR/ftir_data/LPE454/Mapping_121/LPE454_t103.asc
PE IR       SPECTRUM    SPECTRUM    ASCII       PEDS        1.60
  -1
LP9FF7~1.ASC
17/05/19
22:49:58.00
17/05/19
22:50:24.00
tln
$LPE454_t0103$<tbV0>[5.2,10.4,8.0,0.0,27,1,0]
27.028
64

2002,4.07
MIRTGS : RIGHTBACK : INTERNAL 2
MIR : ON : INTERNAL 2
OPTKBR

0.200000
8
8.000000
FILLER
RATIO
SPECTRUM
UNLOCKED 256

DOUBLE
64
COMBINED
1
0
0

0.002000
RATIO

1
0
TRUE
51149
0
LEFT NOT FITTED RIGHT NOT FITTED 0
NONE
NONE
15600
12
4.427000
51148
TRUE
1 0 8 72 0 0 0 0

15798

#HDR
-1
-1
#GR
µM
%T
2.38419e-05
0.0
2.000000
0.002000
12515
8
65.7405
-3.335258
#DATA
2.000000	 0.240135
2.018000	 0.319429
2.036000	 -0.087578
2.054000	 0.566166
2.072000	 -0.153022
2.090000	 -0.035142
2.108000	 0.072225
2.126000	 0.144829
2.144000	 -0.066292
2.162000	 0.939604
2.180000	 13.725
2.198000	 -0.061763
2.216000	 -0.230239
2.234000	 0.218372
2.252000	 0.225696
2.270000	 0.351436
2.288000	 0.255265
2.306000	 0.305566
2.324000	 0.055129
2.342000	 -0.016476
2.360000	 0.130095
2.378000	 0.099374
2.396000	 -0.347273
2.414000	 -0.070454
2.432000	 0.085675
2.450000	 0.382936
2.468000	 2.431093
2.486000	 -0.161028
2.504000	 -0.363936
2.522000	 0.225602
2.540000	 0.003579
2.558000	 0.116191
2.576000	 -0.126327
2.594000	 -0.015666
2.612000	 0.240528
2.630000	 0.196456
2.648000	 -0.061230
2.666000	 0.119446
2.684000	 0.089469
2.702000	 -0.036903
2.720000	 0.091922
2.738000	 0.048573
2.756000	 0.164440
2.774000	 0.008705
2.792000	 0.027883
2.810000	 0.043048
2.828000	 0.219099
2.846000	 0.131992
2.864000	 0.068017
2.882000	 0.063486
2.900000	 0.068564
2.918000	 -0.045331
2.936000	 0.060298
2.954000	 0.001444
2.972000	 0.069571
2.990000	 0.177915
3.008000	 0.090175
3.026000	 0.081741
3.044000	 0.015733
3.062000	 0.019803
3.080000	 0.151429
3.098000	 -0.018963
3.116000	 0.028394
3.134000	 0.051550
3.152000	 0.135254
3.170000	 0.024670
3.188000	 0.089474
3.206000	 0.165381
3.224000	 -0.005064
3.242000	 0.030620
3.260000	 -0.110141
3.278000	 0.083634
3.296000	 0.053419
3.314000	 0.147967
3.332000	 0.053967
3.350000	 0.039992
3.368000	 -0.044242
3.386000	 -0.029877
3.404000	 0.055822
3.422000	 -0.074817
3.440000	 -0.002252
3.458000	 0.159624
3.476000	 -0.051805
3.494000	 0.052724
3.512000	 0.104654
3.530000	 -0.022042
3.548000	 -0.012395
3.566000	 -0.012116
3.584000	 0.041893
3.602000	 0.005168
3.620000	 -0.013546
3.638000	 0.138913
3.656000	 -0.012027
3.674000	 0.102581
3.692000	 0.029272
3.710000	 0.098997
3.728000	 0.040328
3.746000	 0.126237
3.764000	 0.077890
3.782000	 -0.092553
3.800000	 0.021348
3.818000	 0.032048
3.836000	 0.029816
3.854000	 0.081198
3.872000	 0.077101
3.890000	 0.036385
3.908000	 -0.034178
3.926000	 0.036275
3.944000	 -0.001640
3.962000	 -0.055500
3.980000	 0.089534
3.998000	 -0.163906
4.016000	 0.019918
4.034000	 -0.122123
4.052000	 0.134562
4.070000	 0.040410
4.088000	 0.070859
4.106000	 0.070725
4.124000	 0.208330
4.141999	 -0.060866
4.160000	 0.157788
4.178000	 0.114096
4.196000	 0.239026
4.214000	 0.251383
4.232000	 0.379964
4.250000	 0.526660
4.268000	 0.663839
4.286000	 0.757743
4.304000	 0.846031
4.322000	 0.991711
4.340000	 1.289463
4.358000	 1.548522
4.375999	 1.843002
4.394000	 2.334299
4.412000	 2.621854
4.430000	 3.057066
4.448000	 3.633106
4.466000	 4.255056
4.484000	 4.896009
4.502000	 5.693743
4.520000	 6.457028
4.538000	 7.242680
4.556000	 8.136614
4.574000	 9.186370
4.592000	 10.1549
4.609999	 11.1713
4.628000	 12.2836
4.646000	 13.4645
4.664000	 14.428
4.682000	 15.7069
4.700000	 16.7573
4.718000	 17.6271
4.736000	 18.7686
4.754000	 19.866
4.772000	 20.8896
4.790000	 21.8757
4.808000	 22.8208
4.826000	 23.7152
4.843999	 24.5799
4.862000	 25.3545
4.880000	 26.1624
4.898000	 26.9085
4.916000	 27.5992
4.934000	 28.3332
4.952000	 29.0233
4.970000	 29.5383
4.988000	 30.0528
5.006000	 30.6215
5.024000	 30.975
5.042000	 31.3635
5.060000	 31.8342
5.077999	 32.4345
5.096000	 32.8867
5.114000	 33.2203
5.132000	 33.4181
5.150000	 33.7428
5.168000	 33.8171
5.186000	 34.0565
5.204000	 34.3697
5.222000	 34.5918
5.240000	 34.8989
5.258000	 35.1553
5.276000	 35.3099
5.294000	 35.447
5.312000	 35.5442
5.330000	 35.6737
5.348000	 35.8119
5.366000	 35.955
5.384000	 36.0774
5.402000	 36.3481
5.420000	 36.4456
5.438000	 36.5993
5.456000	 36.7779
5.474000	 36.724
5.492000	 36.7328
5.510000	 36.7062
5.528000	 36.725
5.546000	 36.757
5.564000	 36.8981
5.582000	 37.0481
5.600000	 37.2195
5.618000	 37.3475
5.636000	 37.3265
5.654000	 37.3276
5.672000	 37.337
5.690000	 37.2815
5.708000	 37.3539
5.726000	 37.3218
5.744000	 37.2831
5.762000	 37.4973
5.780000	 37.5486
5.798000	 37.5229
5.816000	 37.626
5.834000	 37.7703
5.852000	 37.8438
5.870000	 37.8109
5.888000	 37.7248
5.906000	 37.6182
5.923999	 37.5603
5.942000	 37.573
5.960000	 37.5863
5.978000	 37.5743
5.996000	 37.7172
6.014000	 37.8876
6.032000	 37.9242
6.050000	 37.9992
6.068000	 38.0968
6.086000	 38.1337
6.104000	 38.0217
6.122000	 37.7789
6.140000	 37.61
6.158000	 37.5518
6.176000	 37.5467
6.194000	 37.5962
6.212000	 37.692
6.230000	 37.8635
6.248000	 37.9692
6.266000	 38.0002
6.284000	 38.1212
6.302000	 38.1822
6.320000	 38.114
6.338000	 38.0399
6.356000	 37.9799
6.374000	 37.94
6.392000	 37.8688
6.410000	 37.783
6.428000	 37.7296
6.446000	 37.7144
6.464000	 37.7848
6.482000	 37.9317
6.500000	 38.0652
6.518000	 38.1384
6.536000	 38.2103
6.554000	 38.28
6.572000	 38.2459
6.590000	 38.1795
6.608000	 38.1481
6.626000	 38.0644
6.644000	 37.9239
6.662000	 37.8218
6.680000	 37.7782
6.698000	 37.7577
6.716000	 37.7812
6.734000	 37.829
6.752000	 37.8985
6.770000	 38.0308
6.788000	 38.2035
6.806000	 38.3325
6.824000	 38.3636
6.842000	 38.3397
6.860000	 38.3459
6.878000	 38.3869
6.896000	 38.3369
6.914000	 38.1219
6.932000	 37.8497
6.950000	 37.7024
6.968000	 37.7514
6.986000	 37.8164
7.004000	 37.7819
7.022000	 37.7638
7.040000	 37.8036
7.058000	 37.8275
7.076000	 37.8513
7.094000	 37.9641
7.112000	 38.1399
7.130000	 38.2754
7.148000	 38.3511
7.166000	 38.3547
7.184000	 38.2719
7.202000	 38.1892
7.220000	 38.1632
7.238000	 38.141
7.256000	 38.0932
7.274000	 38.0289
7.292000	 37.9206
7.310000	 37.7829
7.328000	 37.7069
7.346000	 37.7228
7.364000	 37.7767
7.382000	 37.8307
7.400000	 37.8663
7.418000	 37.8929
7.436000	 37.9595
7.454000	 38.0688
7.472000	 38.1658
7.490000	 38.2325
7.508000	 38.284
7.526000	 38.3077
7.544000	 38.2779
7.562000	 38.2028
7.580000	 38.1145
7.598000	 38.022
7.616000	 37.9092
7.634000	 37.7832
7.652000	 37.6868
7.670000	 37.6506
7.688000	 37.6598
7.706000	 37.6826
7.724000	 37.7133
7.742000	 37.7558
7.760000	 37.7907
7.778000	 37.8092
7.796000	 37.8536
7.814000	 37.9627
7.832000	 38.1116
7.850000	 38.2386
7.868000	 38.3011
7.886000	 38.2923
7.904000	 38.2324
7.922000	 38.1465
7.940000	 38.0566
7.958000	 37.9889
7.976000	 37.9571
7.994000	 37.9344
8.012000	 37.8726
8.030000	 37.7587
8.048000	 37.6325
8.065999	 37.5391
8.084000	 37.4888
8.102000	 37.4757
8.120000	 37.4979
8.138000	 37.5384
8.155999	 37.5677
8.173999	 37.5949
8.192000	 37.6699
8.210000	 37.8067
8.228000	 37.9535
8.246000	 38.0473
8.263999	 38.0721
8.282000	 38.0654
8.300000	 38.0773
8.318000	 38.1206
8.336000	 38.162
8.353999	 38.1617
8.372000	 38.1125
8.390000	 38.0328
8.408000	 37.9321
8.426000	 37.81
8.443999	 37.6784
8.462000	 37.5591
8.480000	 37.4533
8.498000	 37.337
8.516000	 37.2084
8.533999	 37.114
8.552000	 37.1005
8.570000	 37.1614
8.588000	 37.2493
8.606000	 37.3238
8.624000	 37.3787
8.641999	 37.431
8.660000	 37.4983
8.678000	 37.5841
8.696000	 37.6729
8.714000	 37.7441
8.731999	 37.7935
8.750000	 37.8352
8.768000	 37.8792
8.786000	 37.9158
8.804000	 37.9273
8.821999	 37.9094
8.840000	 37.8705
8.858000	 37.8145
8.876000	 37.741
8.894000	 37.6603
8.911999	 37.5956
8.930000	 37.556
8.948000	 37.5219
8.966000	 37.4651
8.984000	 37.3782
9.001999	 37.2815
9.020000	 37.2029
9.038000	 37.1586
9.056000	 37.1409
9.074000	 37.1277
9.092000	 37.1021
9.109999	 37.0726
9.128000	 37.0679
9.146000	 37.1066
9.164000	 37.1748
9.182000	 37.2408
9.199999	 37.2881
9.218000	 37.3268
9.236000	 37.3782
9.254000	 37.4537
9.272000	 37.5482
9.289999	 37.6472
9.308000	 37.7315
9.326000	 37.7797
9.344000	 37.7778
9.362000	 37.7298
9.379999	 37.6582
9.398000	 37.5899
9.416000	 37.5391
9.434000	 37.4979
9.452000	 37.4423
9.469999	 37.3487
9.488000	 37.2114
9.506000	 37.0479
9.524000	 36.8917
9.542000	 36.7731
9.560000	 36.7048
9.577999	 36.6822
9.596000	 36.6916
9.614000	 36.7177
9.632000	 36.746
9.650000	 36.7691
9.667999	 36.7897
9.686000	 36.8153
9.704000	 36.8488
9.722000	 36.8867
9.740000	 36.9267
9.757999	 36.9748
9.776000	 37.0434
9.794000	 37.1399
9.812000	 37.2569
9.830000	 37.3749
9.847999	 37.4732
9.866000	 37.5403
9.884000	 37.5731
9.902000	 37.5733
9.920000	 37.5449
9.937999	 37.4949
9.956000	 37.434
9.974000	 37.3739
9.992000	 37.3229
10.01	37.2808
10.028	37.2383
10.046	37.1824
10.064	37.104
10.082	37.003
10.1	36.8885
10.118	36.7733
10.136	36.6674
10.154	36.5744
10.172	36.4941
10.19	36.4265
10.208	36.3722
10.226	36.3306
10.244	36.298
10.262	36.2694
10.28	36.2454
10.298	36.2331
10.316	36.2442
10.334	36.2854
10.352	36.3534
10.37	36.4347
10.388	36.5128
10.406	36.5766
10.424	36.6224
10.442	36.6531
10.46	36.675
10.478	36.6959
10.496	36.7256
10.514	36.7732
10.532	36.844
10.55	36.9347
10.568	37.032
10.586	37.1163
10.604	37.1702
10.622	37.1837
10.64	37.1593
10.658	37.1077
10.676	37.0446
10.694	36.9835
10.712	36.9328
10.73	36.8931
10.748	36.8569
10.766	36.8122
10.784	36.7473
10.802	36.6554
10.82	36.5379
10.838	36.4057
10.856	36.273
10.874	36.1536
10.892	36.0553
10.91	35.9793
10.928	35.922
10.946	35.8781
10.964	35.8438
10.982	35.8161
11	35.7929
11.018	35.772
11.036	35.7511
11.054	35.7295
11.072	35.7102
11.09	35.7011
11.108	35.7123
11.126	35.7538
11.144	35.83
11.162	35.9383
11.18	36.0687
11.198	36.2068
11.216	36.3383
11.234	36.4524
11.252	36.5436
11.27	36.6111
11.288	36.6571
11.306	36.6849
11.324	36.6984
11.342	36.7006
11.36	36.6936
11.378	36.677
11.396	36.6487
11.414	36.6054
11.432	36.5468
11.45	36.4765
11.468	36.4029
11.486	36.3359
11.504	36.2827
11.522	36.2443
11.54	36.2141
11.558	36.1796
11.576	36.128
11.594	36.0517
11.612	35.9511
11.63	35.8354
11.648	35.7185
11.666	35.6144
11.684	35.5321
11.702	35.4723
11.72	35.4292
11.738	35.3915
11.756	35.3483
11.774	35.2927
11.792	35.2238
11.81	35.1472
11.828	35.0727
11.846	35.0113
11.864	34.9715
11.882	34.9577
11.9	34.9691
11.918	35.0012
11.936	35.0481
11.954	35.1039
11.972	35.1643
11.99	35.2271
12.008	35.2921
12.026	35.3602
12.044	35.4321
12.062	35.5081
12.08	35.5867
12.098	35.6656
12.116	35.7404
12.134	35.8061
12.152	35.8579
12.17	35.8927
12.188	35.9107
12.206	35.9148
12.224	35.9107
12.242	35.905
12.26	35.9031
12.278	35.9074
12.296	35.9168
12.314	35.927
12.332	35.9317
12.35	35.9256
12.368	35.9048
12.386	35.8685
12.404	35.8193
12.422	35.7611
12.44	35.6984
12.458	35.6341
12.476	35.5696
12.494	35.5038
12.512	35.4343
12.53	35.3581
12.548	35.2733
12.566	35.179
12.584	35.0766
12.602	34.9692
12.62	34.861
12.638	34.7567
12.656	34.6603
12.674	34.575
12.692	34.5024
12.71	34.4425
12.728	34.3942
12.746	34.3562
12.764	34.3279
12.782	34.3091
12.8	34.3009
12.818	34.3049
12.836	34.3221
12.854	34.3521
12.872	34.3924
12.89	34.4385
12.908	34.4848
12.926	34.5256
12.944	34.5568
12.962	34.5771
12.98	34.5883
12.998	34.5947
13.016	34.6021
13.034	34.6155
13.052	34.6378
13.07	34.6697
13.088	34.7096
13.106	34.7547
13.124	34.8021
13.142	34.8507
13.16	34.9001
13.178	34.9517
13.196	35.0075
13.214	35.0689
13.232	35.1358
13.25	35.2059
13.268	35.275
13.286	35.3369
13.304	35.385
13.322	35.4126
13.34	35.4147
13.358	35.3887
13.376	35.3351
13.394	35.257
13.412	35.1602
13.43	35.0524
13.448	34.9425
13.466	34.8384
13.484	34.7465
13.502	34.6706
13.52	34.612
13.538	34.5685
13.556	34.5357
13.574	34.508
13.592	34.4801
13.61	34.448
13.628	34.4095
13.646	34.3652
13.664	34.3172
13.682	34.2688
13.7	34.2231
13.718	34.1826
13.736	34.148
13.754	34.1178
13.772	34.0894
13.79	34.0592
13.808	34.0242
13.826	33.9828
13.844	33.9349
13.862	33.8824
13.88	33.8285
13.898	33.7769
13.916	33.7306
13.934	33.6911
13.952	33.6575
13.97	33.6272
13.988	33.5966
14.006	33.5618
14.024	33.5199
14.042	33.4705
14.06	33.4161
14.078	33.3615
14.096	33.3128
14.114	33.2766
14.132	33.2586
14.15	33.2618
14.168	33.2866
14.186	33.3302
14.204	33.3869
14.222	33.4499
14.24	33.5117
14.258	33.567
14.276	33.6123
14.294	33.6466
14.312	33.6717
14.33	33.691
14.348	33.709
14.366	33.7304
14.384	33.7589
14.402	33.7963
14.42	33.8428
14.438	33.8967
14.456	33.955
14.474	34.0141
14.492	34.0698
14.51	34.118
14.528	34.1559
14.546	34.1818
14.564	34.1953
14.582	34.1975
14.6	34.1902
14.618	34.1761
14.636	34.1582
14.654	34.1392
14.672	34.1211
14.69	34.1048
14.708	34.0907
14.726	34.0781
14.744	34.0651
14.762	34.0497
14.78	34.0298
14.798	34.0033
14.816	33.9688
14.834	33.9254
14.852	33.8736
14.87	33.8144
14.888	33.7499
14.906	33.6823
14.924	33.6145
14.942	33.5492
14.96	33.4882
14.978	33.4326
14.996	33.3828
15.014	33.3382
15.032	33.2971
15.05	33.2571
15.068	33.2158
15.086	33.1706
15.104	33.1192
15.122	33.0601
15.14	32.993
15.158	32.9187
15.176	32.8388
15.194	32.7558
15.212	32.6732
15.23	32.5938
15.248	32.5201
15.266	32.4541
15.284	32.397
15.302	32.3492
15.32	32.3099
15.338	32.278
15.356	32.2524
15.374	32.2316
15.392	32.2153
15.41	32.2034
15.428	32.1964
15.446	32.1955
15.464	32.2021
15.482	32.2171
15.5	32.2414
15.518	32.2748
15.536	32.3159
15.554	32.3629
15.572	32.4129
15.59	32.4619
15.608	32.5068
15.626	32.545
15.644	32.574
15.662	32.5929
15.68	32.6018
15.698	32.6015
15.716	32.5937
15.734	32.5811
15.752	32.5658
15.77	32.55
15.788	32.5362
15.806	32.5258
15.824	32.5198
15.842	32.519
15.86	32.5238
15.878	32.5345
15.896	32.5509
15.914	32.5733
15.932	32.6014
15.95	32.635
15.968	32.6739
15.986	32.7172
16.004	32.7641
16.022	32.8136
16.04	32.8639
16.058	32.9133
16.076	32.9603
16.094	33.0029
16.112	33.0392
16.13	33.0683
16.148	33.0891
16.166	33.1006
16.184	33.1025
16.202	33.0948
16.22	33.0774
16.238	33.0506
16.256	33.0149
16.274	32.9709
16.292	32.9194
16.31	32.8612
16.328	32.7982
16.346	32.7319
16.364	32.664
16.382	32.5971
16.4	32.5336
16.418	32.4753
16.436	32.425
16.454	32.3836
16.472	32.3522
16.49	32.3308
16.508	32.3182
16.526	32.3135
16.544	32.3136
16.562	32.3154
16.58	32.3168
16.598	32.3132
16.616	32.3027
16.634	32.2831
16.652	32.2525
16.67	32.2111
16.688	32.1588
16.706	32.0977
16.724	32.0293
16.742	31.9561
16.76	31.8814
16.778	31.8068
16.796	31.7351
16.814	31.6682
16.832	31.607
16.85	31.5526
16.868	31.5048
16.886	31.4636
16.904	31.4278
16.922	31.3968
16.94	31.3697
16.958	31.3453
16.976	31.3232
16.994	31.3026
17.012	31.2832
17.03	31.2648
17.048	31.2472
17.066	31.2304
17.084	31.2145
17.102	31.1991
17.12	31.1843
17.138	31.1699
17.156	31.1555
17.174	31.1408
17.192	31.1257
17.21	31.11
17.228	31.0939
17.246	31.0779
17.264	31.0623
17.282	31.0481
17.3	31.0359
17.318	31.0271
17.336	31.0226
17.354	31.0232
17.372	31.0294
17.39	31.0411
17.408	31.0578
17.426	31.0783
17.444	31.1021
17.462	31.1267
17.48	31.1512
17.498	31.1732
17.516	31.191
17.534	31.2032
17.552	31.2081
17.57	31.2054
17.588	31.1943
17.606	31.1752
17.624	31.1481
17.642	31.1145
17.66	31.0749
17.678	31.0314
17.696	30.9848
17.714	30.9377
17.732	30.8913
17.75	30.8473
17.768	30.8077
17.786	30.7734
17.804	30.7462
17.822	30.7264
17.84	30.7151
17.858	30.7124
17.876	30.7188
17.894	30.7333
17.912	30.7557
17.93	30.7835
17.948	30.816
17.966	30.8498
17.984	30.8839
18.002	30.9154
18.02	30.9425
18.038	30.9632
18.056	30.9756
18.074	30.9788
18.092	30.9729
18.11	30.9582
18.128	30.9373
18.146	30.9116
18.164	30.8854
18.182	30.8615
18.2	30.8439
18.218	30.8363
18.236	30.8413
18.254	30.8618
18.272	30.8988
18.29	30.9529
18.308	31.0239
18.326	31.1087
18.344	31.206
18.362	31.3099
18.38	31.4179
18.398	31.5226
18.416	31.6213
18.434	31.7084
18.452	31.7809
18.47	31.8352
18.488	31.8698
18.506	31.8834
18.524	31.8765
18.542	31.8489
18.56	31.8048
18.578	31.7444
18.596	31.6729
18.614	31.5909
18.632	31.5042
18.65	31.413
18.668	31.3211
18.686	31.2283
18.704	31.1365
18.722	31.0451
18.74	30.9527
18.758	30.8584
18.776	30.7599
18.794	30.6562
18.812	30.5433
18.83	30.421
18.848	30.2865
18.866	30.1397
18.884	29.9789
18.902	29.8049
18.92	29.618
18.938	29.4199
18.956	29.2122
18.974	28.9976
18.992	28.7794
19.01	28.5603
19.028	28.3449
19.046	28.1361
19.064	27.9391
19.082	27.7562
19.1	27.5926
19.118	27.4499
19.136	27.3332
19.154	27.243
19.172	27.1835
19.19	27.1547
19.208	27.1596
19.226	27.1975
19.244	27.2691
19.262	27.3734
19.28	27.509
19.298	27.6752
19.316	27.8673
19.334	28.0853
19.352	28.322
19.37	28.5779
19.388	28.8434
19.406	29.1191
19.424	29.3944
19.442	29.6696
19.46	29.9345
19.478	30.1885
19.496	30.4229
19.514	30.6358
19.532	30.8219
19.55	30.9777
19.568	31.1014
19.586	31.189
19.604	31.2411
19.622	31.2559
19.64	31.2345
19.658	31.1783
19.676	31.0879
19.694	30.9691
19.712	30.8214
19.73	30.6536
19.748	30.465
19.766	30.2655
19.784	30.0561
19.802	29.8444
19.82	29.6345
19.838	29.4303
19.856	29.2395
19.874	29.0619
19.892	28.9051
19.91	28.768
19.928	28.6556
19.946	28.5677
19.964	28.5047
19.982	28.4676
20	28.4538
20.018	28.4633
20.036	28.4935
20.054	28.5409
20.072	28.6049
20.09	28.6791
20.108	28.7644
20.126	28.8535
20.144	28.9466
20.162	29.0387
20.18	29.128
20.198	29.2128
20.216	29.289
20.234	29.3574
20.252	29.4151
20.27	29.4624
20.288	29.4988
20.306	29.5238
20.324	29.5385
20.342	29.5434
20.36	29.5392
20.378	29.5282
20.396	29.5099
20.414	29.4878
20.432	29.4613
20.45	29.4332
20.468	29.4045
20.486	29.3755
20.504	29.3483
20.522	29.3222
20.54	29.299
20.558	29.2786
20.576	29.2607
20.594	29.2454
20.612	29.2322
20.63	29.2201
20.648	29.2095
20.666	29.1979
20.684	29.1858
20.702	29.1718
20.72	29.1552
20.738	29.1359
20.756	29.1128
20.774	29.0859
20.792	29.0552
20.81	29.0203
20.828	28.9818
20.846	28.9399
20.864	28.8946
20.882	28.8474
20.9	28.7978
20.918	28.7471
20.936	28.696
20.954	28.6445
20.972	28.5941
20.99	28.5446
21.008	28.4966
21.026	28.4503
21.044	28.4055
21.062	28.362
21.08	28.3199
21.098	28.2783
21.116	28.2371
21.134	28.1958
21.152	28.1536
21.17	28.1107
21.188	28.0663
21.206	28.0201
21.224	27.9723
21.242	27.9224
21.26	27.8707
21.278	27.8179
21.296	27.7638
21.314	27.7091
21.332	27.6554
21.35	27.602
21.368	27.5511
21.386	27.5028
21.404	27.4577
21.422	27.4177
21.44	27.3823
21.458	27.3524
21.476	27.3286
21.494	27.3105
21.512	27.2981
21.53	27.2918
21.548	27.2904
21.566	27.2935
21.584	27.3011
21.602	27.3113
21.62	27.3245
21.638	27.3392
21.656	27.3532
21.674	27.3674
21.692	27.3794
21.71	27.3887
21.728	27.3953
21.746	27.3979
21.764	27.3964
21.782	27.3912
21.8	27.3824
21.818	27.3699
21.836	27.355
21.854	27.337
21.872	27.3173
21.89	27.2982
21.908	27.2787
21.926	27.2615
21.944	27.248
21.962	27.2375
21.98	27.2339
21.998	27.2371
22.016	27.2477
22.034	27.2685
22.052	27.2986
22.07	27.339
22.088	27.3911
22.106	27.4541
22.124	27.528
22.142	27.6133
22.16	27.7091
22.178	27.8133
22.196	27.9271
22.214	28.048
22.232	28.1732
22.25	28.3044
22.268	28.4369
22.286	28.5687
22.304	28.7007
22.322	28.8273
22.34	28.9483
22.358	29.0631
22.376	29.1662
22.394	29.2589
22.412	29.3394
22.43	29.4041
22.448	29.4542
22.466	29.4885
22.484	29.5054
22.502	29.5055
22.52	29.4893
22.538	29.4564
22.556	29.4073
22.574	29.3452
22.592	29.2696
22.61	29.1817
22.628	29.0868
22.646	28.9831
22.664	28.8734
22.682	28.7632
22.7	28.6505
22.718	28.5384
22.736	28.4311
22.754	28.3264
22.772	28.2275
22.79	28.1378
22.808	28.0556
22.826	27.982
22.844	27.9184
22.862	27.8641
22.88	27.8175
22.898	27.7788
22.916	27.7479
22.934	27.7204
22.952	27.6955
22.97	27.6737
22.988	27.6496
23.006	27.6228
23.024	27.5934
23.042	27.5562
23.06	27.5111
23.078	27.4581
23.096	27.3931
23.114	27.3153
23.132	27.2257
23.15	27.1231
23.168	27.0066
23.186	26.8775
23.204	26.738
23.222	26.5864
23.24	26.4249
23.258	26.2589
23.276	26.0865
23.294	25.91
23.312	25.7368
23.33	25.5654
23.348	25.3973
23.366	25.2403
23.384	25.0936
23.402	24.9576
23.42	24.838
23.438	24.7353
23.456	24.6486
23.474	24.5804
23.492	24.5316
23.51	24.5012
23.528	24.4879
23.546	24.4927
23.564	24.5149
23.582	24.5495
23.6	24.5957
23.618	24.6548
23.636	24.7188
23.654	24.7845
23.672	24.8553
23.69	24.9234
23.708	24.9839
23.726	25.0407
23.744	25.0885
23.762	25.1225
23.78	25.1451
23.798	25.1549
23.816	25.1493
23.834	25.1282
23.852	25.0934
23.87	25.046
23.888	24.9842
23.906	24.9105
23.924	24.83
23.942	24.7412
23.96	24.645
23.978	24.5488
23.996	24.4543
24.014	24.3591
24.032	24.2701
24.05	24.1915
24.068	24.1195
24.086	24.0589
24.104	24.0146
24.122	23.9836
24.14	23.9682
24.158	23.9719
24.176	23.9941
24.194	24.0345
24.212	24.0947
24.23	24.1757
24.248	24.2766
24.266	24.3961
24.284	24.5341
24.302	24.6912
24.32	24.8652
24.338	25.0542
24.356	25.2597
24.374	25.4799
24.392	25.7119
24.41	25.9564
24.428	26.2133
24.446	26.4798
24.464	26.7549
24.482	27.0399
24.5	27.3327
24.518	27.6319
24.536	27.9386
24.554	28.2517
24.572	28.5693
24.59	28.8926
24.608	29.2208
24.626	29.551
24.644	29.8825
24.662	30.217
24.68	30.5505
24.698	30.8793
24.716	31.205
24.734	31.5272
24.752	31.8447
24.77	32.1587
24.788	32.4689
24.806	32.7703
24.824	33.0604
24.842	33.3438
24.86	33.6134
24.878	33.861
24.896	34.0911
24.914	34.3016
24.932	34.4818
24.95	34.627
24.968	34.7446
24.986	34.8242
25.004	34.8549
25.022	34.8411
25.04	34.7822
25.058	34.6718
25.076	34.5053
25.094	34.2858
25.112	34.0163
25.13	33.699
25.148	33.3289
25.166	32.9115
25.184	32.4574
25.202	31.9687
25.22	31.4381
25.238	30.8814
25.256	30.3152
25.274	29.729
25.292	29.128
25.31	28.531
25.328	27.948
25.346	27.3658
25.364	26.7983
25.382	26.2618
25.4	25.7527
25.418	25.2687
25.436	24.8211
25.454	24.4189
25.472	24.0557
25.49	23.7333
25.508	23.4553
25.526	23.2238
25.544	23.0366
25.562	22.8922
25.58	22.7894
25.598	22.7315
25.616	22.7148
25.634	22.733
25.652	22.7829
25.67	22.8709
25.688	22.9881
25.706	23.1241
25.724	23.2812
25.742	23.4621
25.76	23.6542
25.778	23.8455
25.796	24.0465
25.814	24.2514
25.832	24.4451
25.85	24.6183
25.868	24.7831
25.886	24.9295
25.904	25.0442
25.922	25.1269
25.94	25.1852
25.958	25.2041
25.976	25.1684
25.994	25.0815
26.012	24.9468
26.03	24.7577
26.048	24.5083
26.066	24.1996
26.084	23.8349
26.102	23.4166
26.12	22.9429
26.138	22.4053
26.156	21.8213
26.174	21.2109
26.192	20.576
26.21	19.9011
26.228	19.2143
26.246	18.545
26.264	17.8825
26.282	17.2175
26.3	16.5911
26.318	16.0435
26.336	15.5459
26.354	15.1025
26.372	14.7639
26.39	14.5757
26.408	14.5044
26.426	14.5577
26.444	14.7736
26.462	15.1832
26.48	15.7584
26.498	16.5083
26.516	17.4568
26.534	18.625
26.552	20.0084
26.57	21.5899
26.588	23.3538
26.606	25.2982
26.624	27.4549
26.642	29.7749
26.66	32.2004
26.678	34.7109
26.696	37.3711
26.714	40.1045
26.732	42.8222
26.75	45.4922
26.768	48.2013
26.786	50.8576
26.804	53.3555
26.822	55.6517
26.84	57.8366
26.858	59.8358
26.876	61.5634
26.894	62.9773
26.912	64.1448
26.93	65.0299
26.948	65.5883
26.966	65.7149
26.984	65.3244
27.002	64.7087
27.02	64.1809
27.028	64.0659