File: Bakgrunnsmateriale/MATLAB/FTIR/ftir_data/LPE454/Mapping_121/LPE454_t09.asc
PE IR       SPECTRUM    SPECTRUM    ASCII       PEDS        1.60
  -1
LPE398~1.ASC
17/05/19
15:06:14.00
17/05/19
15:06:40.00
tln
$LPE454_t0009$<tbV0>[-7.8,-13.0,8.0,0.0,27,1,0]
27.028
64

2002,4.07
MIRTGS : RIGHTBACK : INTERNAL 2
MIR : ON : INTERNAL 2
OPTKBR

0.200000
8
8.000000
FILLER
RATIO
SPECTRUM
UNLOCKED 256

DOUBLE
64
COMBINED
1
0
0

0.002000
RATIO

1
0
TRUE
51149
0
LEFT NOT FITTED RIGHT NOT FITTED 0
NONE
NONE
15600
12
4.427000
51148
TRUE
1 0 8 72 0 0 0 0

15798

#HDR
-1
-1
#GR
µM
%T
2.38419e-05
0.0
2.000000
0.002000
12515
8
59.9537
-2.041336
#DATA
2.000000	 -0.031042
2.018000	 0.398950
2.036000	 0.345132
2.054000	 1.534950
2.072000	 -2.041336
2.090000	 -0.459863
2.108000	 0.921268
2.126000	 -0.043404
2.144000	 0.351670
2.162000	 0.376233
2.180000	 0.241420
2.198000	 -0.319570
2.216000	 -0.050947
2.234000	 1.790755
2.252000	 -1.834083
2.270000	 -0.043051
2.288000	 0.254050
2.306000	 0.463915
2.324000	 0.276712
2.342000	 -0.273461
2.360000	 -0.088013
2.378000	 -0.197732
2.396000	 -0.022348
2.414000	 0.132097
2.432000	 0.288496
2.450000	 0.149035
2.468000	 0.033185
2.486000	 0.189328
2.504000	 0.052938
2.522000	 0.009211
2.540000	 0.093434
2.558000	 -0.047700
2.576000	 -0.131501
2.594000	 0.151520
2.612000	 -0.055587
2.630000	 -0.145796
2.648000	 0.072144
2.666000	 0.069411
2.684000	 0.028238
2.702000	 0.143854
2.720000	 0.039555
2.738000	 0.053980
2.756000	 0.027386
2.774000	 0.058135
2.792000	 -0.043092
2.810000	 0.152317
2.828000	 0.063900
2.846000	 0.019445
2.864000	 0.166897
2.882000	 0.297459
2.900000	 -0.023809
2.918000	 -0.140646
2.936000	 0.021780
2.954000	 0.041438
2.972000	 0.155202
2.990000	 0.014488
3.008000	 0.037127
3.026000	 0.128624
3.044000	 0.154702
3.062000	 0.017796
3.080000	 -0.072864
3.098000	 0.100264
3.116000	 -0.007760
3.134000	 0.153593
3.152000	 0.157690
3.170000	 0.013429
3.188000	 0.240829
3.206000	 0.272322
3.224000	 0.147105
3.242000	 -0.010775
3.260000	 0.124973
3.278000	 0.172370
3.296000	 0.081748
3.314000	 -0.068088
3.332000	 0.031403
3.350000	 0.041125
3.368000	 0.118756
3.386000	 0.050367
3.404000	 0.070999
3.422000	 0.031675
3.440000	 0.050645
3.458000	 0.003060
3.476000	 0.069034
3.494000	 0.109309
3.512000	 0.021126
3.530000	 -0.088115
3.548000	 -0.006610
3.566000	 0.029096
3.584000	 0.019286
3.602000	 0.019790
3.620000	 0.118135
3.638000	 0.010439
3.656000	 0.117235
3.674000	 0.122361
3.692000	 0.016690
3.710000	 0.091300
3.728000	 -0.005091
3.746000	 0.107354
3.764000	 -0.015378
3.782000	 0.075460
3.800000	 0.005720
3.818000	 0.104292
3.836000	 -0.015138
3.854000	 0.047842
3.872000	 0.025234
3.890000	 0.015473
3.908000	 0.241415
3.926000	 0.042615
3.944000	 -0.012008
3.962000	 0.003206
3.980000	 -0.031939
3.998000	 -0.048304
4.016000	 0.122041
4.034000	 -0.047625
4.052000	 -0.037129
4.070000	 0.013078
4.088000	 0.003301
4.106000	 0.056285
4.124000	 0.136574
4.141999	 0.060522
4.160000	 -0.117764
4.178000	 -0.091483
4.196000	 0.159638
4.214000	 0.043283
4.232000	 0.063874
4.250000	 0.067776
4.268000	 0.151368
4.286000	 0.268820
4.304000	 0.287697
4.322000	 0.408189
4.340000	 0.502931
4.358000	 0.659435
4.375999	 0.664925
4.394000	 0.854080
4.412000	 1.159109
4.430000	 1.422554
4.448000	 1.579296
4.466000	 2.032533
4.484000	 2.435035
4.502000	 2.831068
4.520000	 3.277073
4.538000	 3.696068
4.556000	 4.337641
4.574000	 4.906370
4.592000	 5.619465
4.609999	 6.339482
4.628000	 6.979158
4.646000	 7.814353
4.664000	 8.354130
4.682000	 9.098644
4.700000	 9.971393
4.718000	 10.7273
4.736000	 11.5099
4.754000	 12.2571
4.772000	 13.0469
4.790000	 13.7154
4.808000	 14.2582
4.826000	 14.8644
4.843999	 15.52
4.862000	 16.3152
4.880000	 17.147
4.898000	 17.6187
4.916000	 18.2043
4.934000	 18.6662
4.952000	 19.2083
4.970000	 19.7071
4.988000	 20.1606
5.006000	 20.5374
5.024000	 20.8163
5.042000	 21.2472
5.060000	 21.6019
5.077999	 22.0115
5.096000	 22.4723
5.114000	 22.7698
5.132000	 23.0003
5.150000	 23.193
5.168000	 23.3415
5.186000	 23.55
5.204000	 23.9468
5.222000	 24.2543
5.240000	 24.5692
5.258000	 24.733
5.276000	 24.822
5.294000	 24.796
5.312000	 24.9917
5.330000	 25.2151
5.348000	 25.4408
5.366000	 25.6442
5.384000	 25.9078
5.402000	 26.0369
5.420000	 26.0689
5.438000	 26.0979
5.456000	 26.122
5.474000	 26.1735
5.492000	 26.3049
5.510000	 26.514
5.528000	 26.6886
5.546000	 26.8799
5.564000	 27.0432
5.582000	 27.1556
5.600000	 27.0382
5.618000	 26.9667
5.636000	 26.9636
5.654000	 27.1081
5.672000	 27.2865
5.690000	 27.5061
5.708000	 27.6994
5.726000	 27.6989
5.744000	 27.7361
5.762000	 27.796
5.780000	 27.7224
5.798000	 27.5761
5.816000	 27.5522
5.834000	 27.6035
5.852000	 27.716
5.870000	 27.9169
5.888000	 28.1261
5.906000	 28.3146
5.923999	 28.4436
5.942000	 28.3274
5.960000	 28.194
5.978000	 28.1278
5.996000	 28.0937
6.014000	 28.1618
6.032000	 28.2947
6.050000	 28.5924
6.068000	 28.7654
6.086000	 28.7663
6.104000	 28.7886
6.122000	 28.8451
6.140000	 28.789
6.158000	 28.6746
6.176000	 28.6289
6.194000	 28.6286
6.212000	 28.6014
6.230000	 28.6091
6.248000	 28.66
6.266000	 28.7404
6.284000	 28.8566
6.302000	 29.0214
6.320000	 29.1409
6.338000	 29.1785
6.356000	 29.1453
6.374000	 29.082
6.392000	 29.0842
6.410000	 29.0693
6.428000	 28.9156
6.446000	 28.8702
6.464000	 29.0228
6.482000	 29.1504
6.500000	 29.2086
6.518000	 29.2805
6.536000	 29.395
6.554000	 29.52
6.572000	 29.5659
6.590000	 29.5536
6.608000	 29.5121
6.626000	 29.4386
6.644000	 29.3564
6.662000	 29.273
6.680000	 29.1526
6.698000	 29.0783
6.716000	 29.1646
6.734000	 29.3131
6.752000	 29.4999
6.770000	 29.7005
6.788000	 29.8216
6.806000	 29.8389
6.824000	 29.8122
6.842000	 29.7904
6.860000	 29.7129
6.878000	 29.5381
6.896000	 29.4183
6.914000	 29.3905
6.932000	 29.3091
6.950000	 29.2285
6.968000	 29.2596
6.986000	 29.4106
7.004000	 29.6046
7.022000	 29.7401
7.040000	 29.8548
7.058000	 29.9633
7.076000	 30.0146
7.094000	 30.0533
7.112000	 30.0788
7.130000	 30.0288
7.148000	 29.9366
7.166000	 29.8509
7.184000	 29.7681
7.202000	 29.6849
7.220000	 29.6007
7.238000	 29.5331
7.256000	 29.5278
7.274000	 29.601
7.292000	 29.7247
7.310000	 29.8712
7.328000	 30.0246
7.346000	 30.1551
7.364000	 30.2367
7.382000	 30.2771
7.400000	 30.2863
7.418000	 30.2546
7.436000	 30.1902
7.454000	 30.1141
7.472000	 30.0228
7.490000	 29.9111
7.508000	 29.8003
7.526000	 29.7199
7.544000	 29.6755
7.562000	 29.6491
7.580000	 29.648
7.598000	 29.7135
7.616000	 29.8455
7.634000	 29.988
7.652000	 30.1042
7.670000	 30.1832
7.688000	 30.2128
7.706000	 30.2082
7.724000	 30.202
7.742000	 30.1975
7.760000	 30.186
7.778000	 30.1659
7.796000	 30.11
7.814000	 29.9845
7.832000	 29.8023
7.850000	 29.6274
7.868000	 29.5343
7.886000	 29.5527
7.904000	 29.6428
7.922000	 29.748
7.940000	 29.8501
7.958000	 29.9457
7.976000	 30.0235
7.994000	 30.0941
8.012000	 30.1912
8.030000	 30.3208
8.048000	 30.4393
8.065999	 30.4979
8.084000	 30.4846
8.102000	 30.4171
8.120000	 30.3139
8.138000	 30.1922
8.155999	 30.0814
8.173999	 30.011
8.192000	 29.9786
8.210000	 29.9471
8.228000	 29.8842
8.246000	 29.7988
8.263999	 29.7302
8.282000	 29.7126
8.300000	 29.7511
8.318000	 29.8293
8.336000	 29.9325
8.353999	 30.0522
8.372000	 30.174
8.390000	 30.2804
8.408000	 30.3588
8.426000	 30.4067
8.443999	 30.4286
8.462000	 30.4272
8.480000	 30.401
8.498000	 30.3498
8.516000	 30.2764
8.533999	 30.1761
8.552000	 30.04
8.570000	 29.8851
8.588000	 29.7631
8.606000	 29.7089
8.624000	 29.6999
8.641999	 29.6923
8.660000	 29.6734
8.678000	 29.6611
8.696000	 29.6646
8.714000	 29.6693
8.731999	 29.6628
8.750000	 29.6646
8.768000	 29.7124
8.786000	 29.8239
8.804000	 29.9794
8.821999	 30.1397
8.840000	 30.2689
8.858000	 30.3477
8.876000	 30.3745
8.894000	 30.3602
8.911999	 30.3213
8.930000	 30.2724
8.948000	 30.22
8.966000	 30.1594
8.984000	 30.08
9.001999	 29.9786
9.020000	 29.8693
9.038000	 29.7769
9.056000	 29.7171
9.074000	 29.6795
9.092000	 29.6356
9.109999	 29.5673
9.128000	 29.4848
9.146000	 29.4179
9.164000	 29.3908
9.182000	 29.4076
9.199999	 29.4572
9.218000	 29.5249
9.236000	 29.5977
9.254000	 29.6681
9.272000	 29.7383
9.289999	 29.8197
9.308000	 29.9194
9.326000	 30.0274
9.344000	 30.1207
9.362000	 30.1793
9.379999	 30.1941
9.398000	 30.1654
9.416000	 30.098
9.434000	 30.0029
9.452000	 29.8988
9.469999	 29.8031
9.488000	 29.7211
9.506000	 29.6467
9.524000	 29.5742
9.542000	 29.5071
9.560000	 29.4527
9.577999	 29.4129
9.596000	 29.3844
9.614000	 29.3649
9.632000	 29.3563
9.650000	 29.3576
9.667999	 29.3581
9.686000	 29.3434
9.704000	 29.3137
9.722000	 29.2944
9.740000	 29.3232
9.757999	 29.4206
9.776000	 29.5693
9.794000	 29.7216
9.812000	 29.831
9.830000	 29.8815
9.847999	 29.8921
9.866000	 29.896
9.884000	 29.9156
9.902000	 29.9521
9.920000	 29.9901
9.937999	 30.0079
9.956000	 29.9868
9.974000	 29.9175
9.992000	 29.8049
10.01	29.6697
10.028	29.5406
10.046	29.4423
10.064	29.3827
10.082	29.3523
10.1	29.3318
10.118	29.303
10.136	29.2577
10.154	29.1982
10.172	29.134
10.19	29.0792
10.208	29.0474
10.226	29.0471
10.244	29.0782
10.262	29.132
10.28	29.1965
10.298	29.2621
10.316	29.3254
10.334	29.388
10.352	29.4525
10.37	29.5183
10.388	29.5822
10.406	29.6398
10.424	29.687
10.442	29.7195
10.46	29.7331
10.478	29.726
10.496	29.7013
10.514	29.6681
10.532	29.6382
10.55	29.62
10.568	29.6129
10.586	29.606
10.604	29.5846
10.622	29.5366
10.64	29.4599
10.658	29.3623
10.676	29.2569
10.694	29.1551
10.712	29.0636
10.73	28.9837
10.748	28.9145
10.766	28.8549
10.784	28.8031
10.802	28.7544
10.82	28.7012
10.838	28.6351
10.856	28.5542
10.874	28.4673
10.892	28.3929
10.91	28.3535
10.928	28.3639
10.946	28.4257
10.964	28.5265
10.982	28.6463
11	28.7692
11.018	28.8878
11.036	29.003
11.054	29.1176
11.072	29.2298
11.09	29.3306
11.108	29.4082
11.126	29.4527
11.144	29.4619
11.162	29.4419
11.18	29.4028
11.198	29.3556
11.216	29.3077
11.234	29.2615
11.252	29.2156
11.27	29.1664
11.288	29.1089
11.306	29.0386
11.324	28.9528
11.342	28.8526
11.36	28.7443
11.378	28.6393
11.396	28.5495
11.414	28.4832
11.432	28.4411
11.45	28.4156
11.468	28.3931
11.486	28.3625
11.504	28.3194
11.522	28.2697
11.54	28.226
11.558	28.202
11.576	28.2051
11.594	28.2325
11.612	28.2726
11.63	28.3105
11.648	28.3354
11.666	28.3441
11.684	28.343
11.702	28.3432
11.72	28.355
11.738	28.3832
11.756	28.4259
11.774	28.4771
11.792	28.5314
11.81	28.5876
11.828	28.6483
11.846	28.7175
11.864	28.7962
11.882	28.8806
11.9	28.9623
11.918	29.0311
11.936	29.0787
11.954	29.1021
11.972	29.1021
11.99	29.0826
12.008	29.0462
12.026	28.9932
12.044	28.9228
12.062	28.8352
12.08	28.7342
12.098	28.6274
12.116	28.5239
12.134	28.4312
12.152	28.3516
12.17	28.2825
12.188	28.2184
12.206	28.1538
12.224	28.0858
12.242	28.0151
12.26	27.9441
12.278	27.8761
12.296	27.8132
12.314	27.7556
12.332	27.7031
12.35	27.6564
12.368	27.6185
12.386	27.5945
12.404	27.59
12.422	27.6088
12.44	27.6497
12.458	27.7073
12.476	27.772
12.494	27.833
12.512	27.8812
12.53	27.9115
12.548	27.9235
12.566	27.9212
12.584	27.9119
12.602	27.9035
12.62	27.9026
12.638	27.9137
12.656	27.9376
12.674	27.9727
12.692	28.015
12.71	28.0605
12.728	28.1055
12.746	28.1474
12.764	28.1855
12.782	28.2202
12.8	28.253
12.818	28.2844
12.836	28.3139
12.854	28.3384
12.872	28.3535
12.89	28.3538
12.908	28.3349
12.926	28.2944
12.944	28.2328
12.962	28.1539
12.98	28.063
12.998	27.9659
13.016	27.8678
13.034	27.7718
13.052	27.6788
13.07	27.5878
13.088	27.4963
13.106	27.4015
13.124	27.3018
13.142	27.1978
13.16	27.0916
13.178	26.9875
13.196	26.8902
13.214	26.8046
13.232	26.7344
13.25	26.6817
13.268	26.646
13.286	26.6252
13.304	26.6164
13.322	26.6164
13.34	26.6223
13.358	26.632
13.376	26.6442
13.394	26.6581
13.412	26.6727
13.43	26.6868
13.448	26.6989
13.466	26.7076
13.484	26.7121
13.502	26.7128
13.52	26.7119
13.538	26.7134
13.556	26.7226
13.574	26.7448
13.592	26.7839
13.61	26.8419
13.628	26.9171
13.646	27.0044
13.664	27.0958
13.682	27.1824
13.7	27.2556
13.718	27.3089
13.736	27.3392
13.754	27.3477
13.772	27.3389
13.79	27.3196
13.808	27.2967
13.826	27.2764
13.844	27.2623
13.862	27.2553
13.88	27.2541
13.898	27.2557
13.916	27.2567
13.934	27.255
13.952	27.2496
13.97	27.241
13.988	27.2307
14.006	27.2204
14.024	27.2115
14.042	27.2032
14.06	27.1933
14.078	27.1782
14.096	27.1539
14.114	27.1176
14.132	27.0676
14.15	27.0052
14.168	26.9336
14.186	26.8584
14.204	26.786
14.222	26.7228
14.24	26.6733
14.258	26.6394
14.276	26.6203
14.294	26.6126
14.312	26.6113
14.33	26.6108
14.348	26.6059
14.366	26.5928
14.384	26.5699
14.402	26.5377
14.42	26.4983
14.438	26.4546
14.456	26.4093
14.474	26.3645
14.492	26.3209
14.51	26.2777
14.528	26.2334
14.546	26.1864
14.564	26.136
14.582	26.0828
14.6	26.0284
14.618	25.9764
14.636	25.9314
14.654	25.898
14.672	25.8798
14.69	25.8791
14.708	25.8964
14.726	25.9307
14.744	25.9791
14.762	26.0372
14.78	26.1007
14.798	26.1654
14.816	26.228
14.834	26.286
14.852	26.3378
14.87	26.3835
14.888	26.4238
14.906	26.4603
14.924	26.495
14.942	26.5298
14.96	26.5658
14.978	26.6039
14.996	26.6441
15.014	26.6859
15.032	26.7278
15.05	26.7681
15.068	26.8048
15.086	26.8363
15.104	26.8608
15.122	26.877
15.14	26.8841
15.158	26.8817
15.176	26.8701
15.194	26.8499
15.212	26.8223
15.23	26.7887
15.248	26.7505
15.266	26.7087
15.284	26.665
15.302	26.6199
15.32	26.5739
15.338	26.527
15.356	26.4784
15.374	26.4273
15.392	26.3726
15.41	26.313
15.428	26.2471
15.446	26.1736
15.464	26.092
15.482	26.0023
15.5	25.905
15.518	25.8019
15.536	25.6953
15.554	25.5876
15.572	25.4818
15.59	25.381
15.608	25.2874
15.626	25.2024
15.644	25.1275
15.662	25.0623
15.68	25.0064
15.698	24.959
15.716	24.9188
15.734	24.8845
15.752	24.8557
15.77	24.8317
15.788	24.8127
15.806	24.7994
15.824	24.7921
15.842	24.7913
15.86	24.7974
15.878	24.8099
15.896	24.8284
15.914	24.852
15.932	24.8792
15.95	24.9089
15.968	24.9399
15.986	24.9711
16.004	25.0024
16.022	25.0338
16.04	25.0663
16.058	25.1009
16.076	25.1384
16.094	25.1804
16.112	25.227
16.13	25.2782
16.148	25.3334
16.166	25.3906
16.184	25.4479
16.202	25.5033
16.22	25.5536
16.238	25.5974
16.256	25.6332
16.274	25.66
16.292	25.6785
16.31	25.6894
16.328	25.6948
16.346	25.6973
16.364	25.6989
16.382	25.7025
16.4	25.7093
16.418	25.7202
16.436	25.7352
16.454	25.753
16.472	25.7724
16.49	25.7904
16.508	25.8044
16.526	25.8125
16.544	25.8118
16.562	25.8014
16.58	25.7805
16.598	25.7498
16.616	25.711
16.634	25.6655
16.652	25.6169
16.67	25.5674
16.688	25.5193
16.706	25.4757
16.724	25.4372
16.742	25.4046
16.76	25.3774
16.778	25.3546
16.796	25.334
16.814	25.3122
16.832	25.2877
16.85	25.2558
16.868	25.2149
16.886	25.1628
16.904	25.098
16.922	25.0208
16.94	24.9312
16.958	24.8323
16.976	24.7256
16.994	24.6153
17.012	24.5051
17.03	24.3979
17.048	24.2986
17.066	24.209
17.084	24.132
17.102	24.0687
17.12	24.0195
17.138	23.9843
17.156	23.9617
17.174	23.9508
17.192	23.9484
17.21	23.9531
17.228	23.9615
17.246	23.9714
17.264	23.9808
17.282	23.9868
17.3	23.9885
17.318	23.984
17.336	23.9726
17.354	23.954
17.372	23.9279
17.39	23.895
17.408	23.8561
17.426	23.8128
17.444	23.7658
17.462	23.718
17.48	23.6703
17.498	23.6254
17.516	23.5851
17.534	23.5509
17.552	23.5249
17.57	23.5077
17.588	23.5009
17.606	23.5045
17.624	23.5188
17.642	23.5434
17.66	23.5784
17.678	23.622
17.696	23.6739
17.714	23.7325
17.732	23.797
17.75	23.8663
17.768	23.9392
17.786	24.0152
17.804	24.0929
17.822	24.1719
17.84	24.2507
17.858	24.3286
17.876	24.4044
17.894	24.4761
17.912	24.5431
17.93	24.6025
17.948	24.654
17.966	24.6947
17.984	24.7243
18.002	24.7407
18.02	24.744
18.038	24.7335
18.056	24.7104
18.074	24.6749
18.092	24.6298
18.11	24.5756
18.128	24.5163
18.146	24.453
18.164	24.3898
18.182	24.3281
18.2	24.271
18.218	24.2203
18.236	24.1776
18.254	24.1439
18.272	24.1197
18.29	24.1046
18.308	24.0987
18.326	24.0997
18.344	24.1072
18.362	24.1182
18.38	24.1317
18.398	24.1444
18.416	24.155
18.434	24.1611
18.452	24.1611
18.47	24.1533
18.488	24.1366
18.506	24.1099
18.524	24.0728
18.542	24.025
18.56	23.9672
18.578	23.8994
18.596	23.8234
18.614	23.7395
18.632	23.6504
18.65	23.5564
18.668	23.4608
18.686	23.3638
18.704	23.2691
18.722	23.1768
18.74	23.09
18.758	23.0089
18.776	22.9357
18.794	22.8703
18.812	22.8141
18.83	22.7665
18.848	22.7276
18.866	22.697
18.884	22.674
18.902	22.6578
18.92	22.6475
18.938	22.6422
18.956	22.6408
18.974	22.6426
18.992	22.6464
19.01	22.6518
19.028	22.6581
19.046	22.6652
19.064	22.6727
19.082	22.6805
19.1	22.6885
19.118	22.6966
19.136	22.7047
19.154	22.7128
19.172	22.7207
19.19	22.7284
19.208	22.7356
19.226	22.7423
19.244	22.7478
19.262	22.752
19.28	22.7545
19.298	22.7554
19.316	22.7543
19.334	22.7512
19.352	22.7468
19.37	22.741
19.388	22.7351
19.406	22.729
19.424	22.7249
19.442	22.7226
19.46	22.7244
19.478	22.7303
19.496	22.7421
19.514	22.7603
19.532	22.7855
19.55	22.8184
19.568	22.8587
19.586	22.9066
19.604	22.9616
19.622	23.0228
19.64	23.0897
19.658	23.1601
19.676	23.2342
19.694	23.3088
19.712	23.3841
19.73	23.457
19.748	23.5275
19.766	23.593
19.784	23.653
19.802	23.7065
19.82	23.7524
19.838	23.7908
19.856	23.8209
19.874	23.8433
19.892	23.8583
19.91	23.8659
19.928	23.8677
19.946	23.8635
19.964	23.8551
19.982	23.8428
20	23.8279
20.018	23.8114
20.036	23.7933
20.054	23.7745
20.072	23.7549
20.09	23.7343
20.108	23.7127
20.126	23.6888
20.144	23.6629
20.162	23.6332
20.18	23.5993
20.198	23.5605
20.216	23.5157
20.234	23.465
20.252	23.4077
20.27	23.344
20.288	23.2746
20.306	23.1993
20.324	23.1198
20.342	23.0371
20.36	22.9521
20.378	22.868
20.396	22.7842
20.414	22.7053
20.432	22.6308
20.45	22.5634
20.468	22.5045
20.486	22.4544
20.504	22.4151
20.522	22.386
20.54	22.3677
20.558	22.3604
20.576	22.3625
20.594	22.3741
20.612	22.3939
20.63	22.4193
20.648	22.4508
20.666	22.4843
20.684	22.5202
20.702	22.5556
20.72	22.5885
20.738	22.619
20.756	22.6438
20.774	22.6636
20.792	22.6764
20.81	22.6817
20.828	22.6798
20.846	22.67
20.864	22.6527
20.882	22.6289
20.9	22.598
20.918	22.562
20.936	22.5215
20.954	22.4769
20.972	22.4304
20.99	22.3814
21.008	22.3324
21.026	22.284
21.044	22.2367
21.062	22.1929
21.08	22.1519
21.098	22.1157
21.116	22.0845
21.134	22.0587
21.152	22.0393
21.17	22.0262
21.188	22.0191
21.206	22.0185
21.224	22.0234
21.242	22.0329
21.26	22.0474
21.278	22.0648
21.296	22.085
21.314	22.1071
21.332	22.1288
21.35	22.1511
21.368	22.1708
21.386	22.1877
21.404	22.201
21.422	22.2082
21.44	22.2099
21.458	22.2047
21.476	22.1916
21.494	22.1711
21.512	22.1424
21.53	22.1055
21.548	22.061
21.566	22.0089
21.584	21.9493
21.602	21.8842
21.62	21.8129
21.638	21.737
21.656	21.6581
21.674	21.5757
21.692	21.4923
21.71	21.4085
21.728	21.3248
21.746	21.2437
21.764	21.1646
21.782	21.0891
21.8	21.0187
21.818	20.9527
21.836	20.8929
21.854	20.8396
21.872	20.7927
21.89	20.753
21.908	20.7203
21.926	20.6946
21.944	20.676
21.962	20.6644
21.98	20.6585
21.998	20.6587
22.016	20.664
22.034	20.6728
22.052	20.686
22.07	20.7012
22.088	20.7171
22.106	20.7344
22.124	20.7497
22.142	20.7628
22.16	20.7734
22.178	20.7784
22.196	20.7787
22.214	20.773
22.232	20.7592
22.25	20.7379
22.268	20.7092
22.286	20.6723
22.304	20.6278
22.322	20.5776
22.34	20.5207
22.358	20.4588
22.376	20.3966
22.394	20.3319
22.412	20.2687
22.43	20.2124
22.448	20.1601
22.466	20.1175
22.484	20.0891
22.502	20.0724
22.52	20.0728
22.538	20.0926
22.556	20.1304
22.574	20.19
22.592	20.2726
22.61	20.3769
22.628	20.5032
22.646	20.653
22.664	20.8233
22.682	21.0102
22.7	21.2168
22.718	21.4369
22.736	21.6638
22.754	21.9019
22.772	22.1427
22.79	22.3795
22.808	22.6167
22.826	22.8448
22.844	23.0583
22.862	23.2608
22.88	23.444
22.898	23.6038
22.916	23.7431
22.934	23.8565
22.952	23.9415
22.97	24.0002
22.988	24.0315
23.006	24.0338
23.024	24.0088
23.042	23.9599
23.06	23.8859
23.078	23.7883
23.096	23.6745
23.114	23.543
23.132	23.3956
23.15	23.2413
23.168	23.0782
23.186	22.9084
23.204	22.7413
23.222	22.5755
23.24	22.4122
23.258	22.2584
23.276	22.1137
23.294	21.9782
23.312	21.856
23.33	21.7473
23.348	21.6515
23.366	21.5688
23.384	21.5
23.402	21.4441
23.42	21.3995
23.438	21.3668
23.456	21.3452
23.474	21.3308
23.492	21.324
23.51	21.3245
23.528	21.3281
23.546	21.3338
23.564	21.3426
23.582	21.3512
23.6	21.3583
23.618	21.3649
23.636	21.3696
23.654	21.3713
23.672	21.3705
23.69	21.3681
23.708	21.3645
23.726	21.3587
23.744	21.3533
23.762	21.3501
23.78	21.3471
23.798	21.3477
23.816	21.3558
23.834	21.3688
23.852	21.3895
23.87	21.4225
23.888	21.4657
23.906	21.5208
23.924	21.5934
23.942	21.683
23.96	21.7892
23.978	21.9166
23.996	22.0666
24.014	22.2373
24.032	22.4321
24.05	22.6531
24.068	22.8988
24.086	23.1697
24.104	23.4665
24.122	23.79
24.14	24.1376
24.158	24.5064
24.176	24.8995
24.194	25.3135
24.212	25.741
24.23	26.1824
24.248	26.6388
24.266	27.1009
24.284	27.5643
24.302	28.0347
24.32	28.5019
24.338	28.9568
24.356	29.4069
24.374	29.8444
24.392	30.2568
24.41	30.6474
24.428	31.0155
24.446	31.3501
24.464	31.6468
24.482	31.9109
24.5	32.1358
24.518	32.3156
24.536	32.4531
24.554	32.5484
24.572	32.6002
24.59	32.6065
24.608	32.57
24.626	32.4957
24.644	32.3841
24.662	32.2322
24.68	32.0502
24.698	31.847
24.716	31.6142
24.734	31.3603
24.752	31.0997
24.77	30.8309
24.788	30.5514
24.806	30.2766
24.824	30.016
24.842	29.7591
24.86	29.5176
24.878	29.306
24.896	29.1205
24.914	28.9608
24.932	28.8364
24.95	28.7536
24.968	28.7078
24.986	28.6986
25.004	28.7259
25.022	28.7916
25.04	28.8932
25.058	29.0263
25.076	29.1889
25.094	29.3833
25.112	29.6069
25.13	29.8573
25.148	30.1385
25.166	30.4464
25.184	30.7727
25.202	31.1157
25.22	31.4813
25.238	31.8569
25.256	32.2293
25.274	32.6056
25.292	32.9831
25.31	33.3496
25.328	33.6983
25.346	34.037
25.364	34.3592
25.382	34.6574
25.4	34.9336
25.418	35.1886
25.436	35.4166
25.454	35.6129
25.472	35.7812
25.49	35.92
25.508	36.0264
25.526	36.099
25.544	36.1392
25.562	36.1487
25.58	36.1288
25.598	36.0762
25.616	35.9943
25.634	35.8892
25.652	35.763
25.67	35.6085
25.688	35.4375
25.706	35.263
25.724	35.0814
25.742	34.8888
25.76	34.7048
25.778	34.5473
25.796	34.4054
25.814	34.2822
25.832	34.1913
25.85	34.142
25.868	34.1242
25.886	34.1439
25.904	34.2095
25.922	34.3177
25.94	34.4632
25.958	34.6652
25.976	34.9431
25.994	35.2898
26.012	35.7031
26.03	36.1967
26.048	36.7835
26.066	37.4608
26.084	38.2226
26.102	39.0648
26.12	39.9874
26.138	40.9996
26.156	42.0844
26.174	43.2222
26.192	44.4174
26.21	45.6881
26.228	46.9871
26.246	48.2654
26.264	49.5318
26.282	50.8047
26.3	52.0348
26.318	53.1741
26.336	54.2344
26.354	55.2266
26.372	56.1319
26.39	56.9323
26.408	57.6361
26.426	58.2455
26.444	58.755
26.462	59.1557
26.48	59.4254
26.498	59.5988
26.516	59.7215
26.534	59.8284
26.552	59.8875
26.57	59.9101
26.588	59.9184
26.606	59.9328
26.624	59.95
26.642	59.9506
26.66	59.915
26.678	59.844
26.696	59.7729
26.714	59.6446
26.732	59.3943
26.75	59.011
26.768	58.5743
26.786	57.9735
26.804	57.0848
26.822	55.8552
26.84	54.3884
26.858	52.6061
26.876	50.4164
26.894	47.7653
26.912	44.7138
26.93	41.2572
26.948	37.3844
26.966	32.7858
26.984	27.0233
27.002	21.2345
27.02	16.6535
27.028	15.4579