File: Bakgrunnsmateriale/MATLAB/FTIR/ftir_data/LPE454/Mapping_121/LPE454_e126.asc
PE IR       SPECTRUM    SPECTRUM    ASCII       PEDS        1.60
  -1
LP8B05~1.ASC
17/05/19
21:39:18.00
17/05/19
21:39:45.00
tln
$LPE454_e0126$<ebV0>[-23.3,12.1,10.0,0.0,27,1,0]
27.028
64

2002,4.07
MIRTGS : RIGHTBACK : INTERNAL 2
MIR : ON : INTERNAL 2
OPTKBR

0.200000
8
8.000000
FILLER
SINGLE
SPECTRUM
UNLOCKED 256

DOUBLE

COMBINED
1
0
0

0.002000
BACKG

1
0
TRUE
51149
0
LEFT NOT FITTED RIGHT NOT FITTED 0
NONE
NONE
15600
12
4.427000
51148
TRUE
1 0 8 72 0 0 0 0

15798

#HDR
-1
-1
#GR
µM
EGY
2.38419e-05
0.0
2.000000
0.002000
12515
8
2.426050
0.005217
#DATA
2.000000	 0.768780
2.018000	 0.791551
2.036000	 0.805012
2.054000	 0.822476
2.072000	 0.849667
2.090000	 0.878845
2.108000	 0.896211
2.126000	 0.908565
2.144000	 0.912136
2.162000	 0.925273
2.180000	 0.720264
2.198000	 0.959843
2.216000	 0.995518
2.234000	 1.007558
2.252000	 1.013220
2.270000	 1.022947
2.288000	 1.037931
2.306000	 1.068474
2.324000	 1.107288
2.342000	 1.147081
2.360000	 1.172841
2.378000	 1.191252
2.396000	 1.206531
2.414000	 1.222585
2.432000	 1.244601
2.450000	 1.292052
2.468000	 1.325842
2.486000	 1.366059
2.504000	 1.392261
2.522000	 1.406186
2.540000	 1.415919
2.558000	 1.425015
2.576000	 1.431865
2.594000	 1.435538
2.612000	 1.476973
2.630000	 1.504193
2.648000	 1.538391
2.666000	 1.530556
2.684000	 1.563515
2.702000	 1.570874
2.720000	 1.556017
2.738000	 1.560097
2.756000	 1.564645
2.774000	 1.582469
2.792000	 1.593696
2.810000	 1.609199
2.828000	 1.612993
2.846000	 1.617347
2.864000	 1.611529
2.882000	 1.597372
2.900000	 1.584854
2.918000	 1.575709
2.936000	 1.581553
2.954000	 1.594827
2.972000	 1.615871
2.990000	 1.643837
3.008000	 1.676107
3.026000	 1.702694
3.044000	 1.727263
3.062000	 1.751692
3.080000	 1.763784
3.098000	 1.771897
3.116000	 1.775160
3.134000	 1.780046
3.152000	 1.785185
3.170000	 1.793458
3.188000	 1.810311
3.206000	 1.829752
3.224000	 1.853985
3.242000	 1.892822
3.260000	 1.915532
3.278000	 1.945002
3.296000	 1.962666
3.314000	 1.944728
3.332000	 2.006405
3.350000	 2.013922
3.368000	 1.955164
3.386000	 1.907405
3.404000	 1.815256
3.422000	 1.766392
3.440000	 1.919534
3.458000	 1.972751
3.476000	 1.988039
3.494000	 1.891769
3.512000	 1.997161
3.530000	 2.080717
3.548000	 2.126105
3.566000	 2.154277
3.584000	 2.177095
3.602000	 2.208359
3.620000	 2.226059
3.638000	 2.233886
3.656000	 2.238145
3.674000	 2.241483
3.692000	 2.233525
3.710000	 2.227626
3.728000	 2.220412
3.746000	 2.213133
3.764000	 2.203269
3.782000	 2.200287
3.800000	 2.198829
3.818000	 2.201050
3.836000	 2.203809
3.854000	 2.207593
3.872000	 2.220107
3.890000	 2.239388
3.908000	 2.257997
3.926000	 2.272029
3.944000	 2.281909
3.962000	 2.291965
3.980000	 2.301844
3.998000	 2.305855
4.016000	 2.306297
4.034000	 2.300919
4.052000	 2.296358
4.070000	 2.286365
4.088000	 2.274732
4.106000	 2.263261
4.124000	 2.253127
4.141999	 2.246663
4.160000	 2.235762
4.178000	 2.230801
4.196000	 2.227792
4.214000	 2.217953
4.232000	 2.209469
4.250000	 2.227248
4.268000	 2.238649
4.286000	 2.248910
4.304000	 2.270638
4.322000	 2.289422
4.340000	 2.306975
4.358000	 2.321252
4.375999	 2.331817
4.394000	 2.341227
4.412000	 2.348328
4.430000	 2.351996
4.448000	 2.354088
4.466000	 2.355171
4.484000	 2.353169
4.502000	 2.348594
4.520000	 2.342156
4.538000	 2.335201
4.556000	 2.328627
4.574000	 2.321294
4.592000	 2.314567
4.609999	 2.309147
4.628000	 2.303981
4.646000	 2.306538
4.664000	 2.305794
4.682000	 2.304711
4.700000	 2.306840
4.718000	 2.310459
4.736000	 2.308968
4.754000	 2.309456
4.772000	 2.307185
4.790000	 2.307056
4.808000	 2.316476
4.826000	 2.331572
4.843999	 2.345146
4.862000	 2.358382
4.880000	 2.376164
4.898000	 2.389156
4.916000	 2.401296
4.934000	 2.409370
4.952000	 2.412062
4.970000	 2.419400
4.988000	 2.424146
5.006000	 2.425874
5.024000	 2.423812
5.042000	 2.421661
5.060000	 2.415458
5.077999	 2.408582
5.096000	 2.403838
5.114000	 2.397072
5.132000	 2.389898
5.150000	 2.383601
5.168000	 2.380002
5.186000	 2.372867
5.204000	 2.364454
5.222000	 2.356407
5.240000	 2.350754
5.258000	 2.344724
5.276000	 2.338486
5.294000	 2.338276
5.312000	 2.342309
5.330000	 2.344627
5.348000	 2.345282
5.366000	 2.348600
5.384000	 2.353756
5.402000	 2.358746
5.420000	 2.359429
5.438000	 2.367940
5.456000	 2.373697
5.474000	 2.375779
5.492000	 2.384497
5.510000	 2.392080
5.528000	 2.397942
5.546000	 2.399806
5.564000	 2.395533
5.582000	 2.391938
5.600000	 2.394805
5.618000	 2.392593
5.636000	 2.381529
5.654000	 2.378853
5.672000	 2.379890
5.690000	 2.369209
5.708000	 2.352061
5.726000	 2.337804
5.744000	 2.318073
5.762000	 2.291575
5.780000	 2.290130
5.798000	 2.292434
5.816000	 2.272268
5.834000	 2.266506
5.852000	 2.264316
5.870000	 2.238121
5.888000	 2.216879
5.906000	 2.223968
5.923999	 2.216970
5.942000	 2.204062
5.960000	 2.204960
5.978000	 2.195640
5.996000	 2.187037
6.014000	 2.179180
6.032000	 2.156216
6.050000	 2.126966
6.068000	 2.126709
6.086000	 2.129109
6.104000	 2.115817
6.122000	 2.104373
6.140000	 2.095797
6.158000	 2.073473
6.176000	 2.038848
6.194000	 1.993960
6.212000	 1.954951
6.230000	 1.945785
6.248000	 1.963463
6.266000	 1.981486
6.284000	 1.989164
6.302000	 1.986181
6.320000	 1.974115
6.338000	 1.957253
6.356000	 1.950379
6.374000	 1.947458
6.392000	 1.926592
6.410000	 1.897220
6.428000	 1.900997
6.446000	 1.924135
6.464000	 1.927626
6.482000	 1.927669
6.500000	 1.964215
6.518000	 2.025591
6.536000	 2.067447
6.554000	 2.077928
6.572000	 2.074699
6.590000	 2.072483
6.608000	 2.065082
6.626000	 2.041584
6.644000	 1.988913
6.662000	 1.867068
6.680000	 1.706388
6.698000	 1.649578
6.716000	 1.734673
6.734000	 1.853047
6.752000	 1.924437
6.770000	 1.945752
6.788000	 1.945147
6.806000	 1.938333
6.824000	 1.919203
6.842000	 1.876817
6.860000	 1.810404
6.878000	 1.749595
6.896000	 1.739548
6.914000	 1.780254
6.932000	 1.821643
6.950000	 1.836953
6.968000	 1.841310
6.986000	 1.844842
7.004000	 1.844622
7.022000	 1.838528
7.040000	 1.828946
7.058000	 1.819181
7.076000	 1.801439
7.094000	 1.764767
7.112000	 1.721647
7.130000	 1.701328
7.148000	 1.714520
7.166000	 1.744235
7.184000	 1.765307
7.202000	 1.766516
7.220000	 1.760651
7.238000	 1.764845
7.256000	 1.776036
7.274000	 1.783830
7.292000	 1.787993
7.310000	 1.790720
7.328000	 1.791856
7.346000	 1.792295
7.364000	 1.792521
7.382000	 1.791503
7.400000	 1.789597
7.418000	 1.788115
7.436000	 1.787634
7.454000	 1.789418
7.472000	 1.795017
7.490000	 1.803806
7.508000	 1.812572
7.526000	 1.818765
7.544000	 1.822231
7.562000	 1.824097
7.580000	 1.825449
7.598000	 1.827109
7.616000	 1.828897
7.634000	 1.829695
7.652000	 1.828999
7.670000	 1.827917
7.688000	 1.827713
7.706000	 1.828649
7.724000	 1.829857
7.742000	 1.830396
7.760000	 1.830212
7.778000	 1.829348
7.796000	 1.826862
7.814000	 1.821306
7.832000	 1.811429
7.850000	 1.795193
7.868000	 1.770300
7.886000	 1.738134
7.904000	 1.707787
7.922000	 1.693020
7.940000	 1.701373
7.958000	 1.727220
7.976000	 1.757292
7.994000	 1.781448
8.012000	 1.797177
8.030000	 1.806496
8.048000	 1.811528
8.065999	 1.813393
8.084000	 1.812585
8.102000	 1.809630
8.120000	 1.805396
8.138000	 1.800580
8.155999	 1.795384
8.173999	 1.789066
8.192000	 1.780439
8.210000	 1.768978
8.228000	 1.755592
8.246000	 1.742594
8.263999	 1.732714
8.282000	 1.727168
8.300000	 1.725135
8.318000	 1.725043
8.336000	 1.725483
8.353999	 1.725466
8.372000	 1.724121
8.390000	 1.721029
8.408000	 1.716318
8.426000	 1.710554
8.443999	 1.704160
8.462000	 1.697555
8.480000	 1.690693
8.498000	 1.683539
8.516000	 1.675792
8.533999	 1.666759
8.552000	 1.655869
8.570000	 1.643425
8.588000	 1.630452
8.606000	 1.618461
8.624000	 1.608600
8.641999	 1.601478
8.660000	 1.596729
8.678000	 1.593360
8.696000	 1.590260
8.714000	 1.586687
8.731999	 1.582445
8.750000	 1.577400
8.768000	 1.571366
8.786000	 1.564222
8.804000	 1.556073
8.821999	 1.547055
8.840000	 1.537357
8.858000	 1.527147
8.876000	 1.516376
8.894000	 1.505187
8.911999	 1.493689
8.930000	 1.481898
8.948000	 1.469823
8.966000	 1.457564
8.984000	 1.445682
9.001999	 1.434965
9.020000	 1.426335
9.038000	 1.420257
9.056000	 1.416370
9.074000	 1.413800
9.092000	 1.411859
9.109999	 1.410410
9.128000	 1.409635
9.146000	 1.409629
9.164000	 1.410249
9.182000	 1.411162
9.199999	 1.412025
9.218000	 1.412548
9.236000	 1.412365
9.254000	 1.411722
9.272000	 1.411010
9.289999	 1.411134
9.308000	 1.412657
9.326000	 1.415393
9.344000	 1.418453
9.362000	 1.420810
9.379999	 1.421669
9.398000	 1.420409
9.416000	 1.415550
9.434000	 1.404300
9.452000	 1.383975
9.469999	 1.355070
9.488000	 1.323044
9.506000	 1.297421
9.524000	 1.286626
9.542000	 1.292955
9.560000	 1.311810
9.577999	 1.334357
9.596000	 1.352926
9.614000	 1.364143
9.632000	 1.368650
9.650000	 1.368674
9.667999	 1.366271
9.686000	 1.362475
9.704000	 1.358006
9.722000	 1.353478
9.740000	 1.349608
9.757999	 1.346808
9.776000	 1.345385
9.794000	 1.345360
9.812000	 1.346778
9.830000	 1.349602
9.847999	 1.353585
9.866000	 1.358167
9.884000	 1.362766
9.902000	 1.366982
9.920000	 1.370666
9.937999	 1.374010
9.956000	 1.377138
9.974000	 1.379810
9.992000	 1.381893
10.01	1.383018
10.028	1.383096
10.046	1.382263
10.064	1.380823
10.082	1.378958
10.1	1.376786
10.118	1.374222
10.136	1.371371
10.154	1.368209
10.172	1.364837
10.19	1.361453
10.208	1.358023
10.226	1.354457
10.244	1.350678
10.262	1.346575
10.28	1.342095
10.298	1.337213
10.316	1.331958
10.334	1.326445
10.352	1.320756
10.37	1.314961
10.388	1.309157
10.406	1.303403
10.424	1.297719
10.442	1.292122
10.46	1.286560
10.478	1.281047
10.496	1.275688
10.514	1.270480
10.532	1.265545
10.55	1.260938
10.568	1.256648
10.586	1.252778
10.604	1.249370
10.622	1.246311
10.64	1.243520
10.658	1.240745
10.676	1.237835
10.694	1.234678
10.712	1.231232
10.73	1.227561
10.748	1.223846
10.766	1.220293
10.784	1.216879
10.802	1.213657
10.82	1.210413
10.838	1.206968
10.856	1.203191
10.874	1.198962
10.892	1.194268
10.91	1.189172
10.928	1.183758
10.946	1.178129
10.964	1.172535
10.982	1.167152
11	1.162172
11.018	1.157721
11.036	1.153781
11.054	1.150290
11.072	1.147157
11.09	1.144264
11.108	1.141582
11.126	1.139135
11.144	1.136780
11.162	1.134436
11.18	1.131826
11.198	1.128620
11.216	1.124493
11.234	1.119107
11.252	1.112038
11.27	1.103204
11.288	1.092526
11.306	1.080317
11.324	1.067159
11.342	1.053850
11.36	1.041409
11.378	1.030841
11.396	1.023043
11.414	1.018615
11.432	1.017746
11.45	1.020237
11.468	1.025500
11.486	1.032775
11.504	1.041121
11.522	1.049573
11.54	1.057475
11.558	1.064312
11.576	1.069918
11.594	1.074260
11.612	1.077388
11.63	1.079465
11.648	1.080611
11.666	1.080918
11.684	1.080387
11.702	1.079290
11.72	1.077752
11.738	1.075961
11.756	1.074099
11.774	1.072307
11.792	1.070497
11.81	1.068630
11.828	1.066459
11.846	1.063688
11.864	1.060175
11.882	1.055568
11.9	1.049688
11.918	1.042127
11.936	1.032557
11.954	1.020541
11.972	1.005635
11.99	0.987615
12.008	0.966566
12.026	0.943062
12.044	0.918295
12.062	0.893823
12.08	0.871634
12.098	0.853579
12.116	0.841278
12.134	0.835665
12.152	0.836787
12.17	0.843868
12.188	0.855476
12.206	0.869769
12.224	0.884836
12.242	0.899096
12.26	0.911388
12.278	0.921142
12.296	0.928242
12.314	0.932981
12.332	0.935838
12.35	0.937334
12.368	0.937841
12.386	0.937784
12.404	0.937460
12.422	0.936947
12.44	0.936483
12.458	0.936189
12.476	0.936146
12.494	0.936481
12.512	0.937303
12.53	0.938654
12.548	0.940479
12.566	0.942790
12.584	0.945506
12.602	0.948481
12.62	0.951569
12.638	0.954676
12.656	0.957640
12.674	0.960335
12.692	0.962693
12.71	0.964643
12.728	0.966269
12.746	0.967499
12.764	0.968435
12.782	0.969093
12.8	0.969477
12.818	0.969602
12.836	0.969493
12.854	0.969158
12.872	0.968599
12.89	0.967848
12.908	0.966942
12.926	0.965928
12.944	0.964831
12.962	0.963753
12.98	0.962719
12.998	0.961748
13.016	0.960845
13.034	0.960000
13.052	0.959169
13.07	0.958342
13.088	0.957445
13.106	0.956496
13.124	0.955472
13.142	0.954399
13.16	0.953279
13.178	0.952148
13.196	0.951087
13.214	0.950005
13.232	0.948963
13.25	0.947951
13.268	0.946900
13.286	0.945842
13.304	0.944726
13.322	0.943536
13.34	0.942293
13.358	0.941025
13.376	0.939709
13.394	0.938352
13.412	0.936922
13.43	0.935393
13.448	0.933766
13.466	0.931971
13.484	0.930015
13.502	0.927910
13.52	0.925669
13.538	0.923325
13.556	0.920939
13.574	0.918509
13.592	0.916091
13.61	0.913670
13.628	0.911203
13.646	0.908675
13.664	0.906076
13.682	0.903327
13.7	0.900474
13.718	0.897452
13.736	0.894354
13.754	0.891153
13.772	0.887935
13.79	0.884740
13.808	0.881652
13.826	0.878680
13.844	0.875819
13.862	0.873092
13.88	0.870446
13.898	0.867847
13.916	0.865271
13.934	0.862660
13.952	0.859992
13.97	0.857268
13.988	0.854497
14.006	0.851737
14.024	0.849005
14.042	0.846316
14.06	0.843737
14.078	0.841180
14.096	0.838645
14.114	0.836105
14.132	0.833517
14.15	0.830815
14.168	0.827921
14.186	0.824862
14.204	0.821619
14.222	0.818212
14.24	0.814683
14.258	0.810998
14.276	0.807184
14.294	0.803218
14.312	0.799023
14.33	0.794521
14.348	0.789657
14.366	0.784425
14.384	0.778733
14.402	0.772589
14.42	0.766084
14.438	0.759389
14.456	0.752701
14.474	0.746215
14.492	0.740193
14.51	0.734824
14.528	0.730351
14.546	0.726846
14.564	0.724325
14.582	0.722743
14.6	0.721989
14.618	0.721893
14.636	0.722222
14.654	0.722734
14.672	0.723287
14.69	0.723742
14.708	0.723971
14.726	0.723948
14.744	0.723660
14.762	0.723120
14.78	0.722366
14.798	0.721441
14.816	0.720379
14.834	0.719193
14.852	0.717898
14.87	0.716498
14.888	0.714974
14.906	0.713313
14.924	0.711533
14.942	0.709644
14.96	0.707687
14.978	0.705701
14.996	0.703710
15.014	0.701727
15.032	0.699829
15.05	0.698027
15.068	0.696303
15.086	0.694644
15.104	0.693066
15.122	0.691540
15.14	0.690014
15.158	0.688475
15.176	0.686919
15.194	0.685307
15.212	0.683593
15.23	0.681803
15.248	0.679943
15.266	0.678000
15.284	0.675994
15.302	0.673907
15.32	0.671751
15.338	0.669551
15.356	0.667330
15.374	0.665100
15.392	0.662858
15.41	0.660618
15.428	0.658432
15.446	0.656281
15.464	0.654149
15.482	0.652044
15.5	0.650006
15.518	0.648001
15.536	0.646009
15.554	0.644022
15.572	0.642057
15.59	0.640083
15.608	0.638100
15.626	0.636109
15.644	0.634112
15.662	0.632078
15.68	0.630028
15.698	0.627988
15.716	0.625986
15.734	0.623989
15.752	0.622005
15.77	0.620054
15.788	0.618114
15.806	0.616220
15.824	0.614375
15.842	0.612540
15.86	0.610735
15.878	0.608954
15.896	0.607187
15.914	0.605408
15.932	0.603631
15.95	0.601856
15.968	0.600072
15.986	0.598280
16.004	0.596480
16.022	0.594673
16.04	0.592848
16.058	0.590996
16.076	0.589112
16.094	0.587218
16.112	0.585269
16.13	0.583252
16.148	0.581178
16.166	0.579000
16.184	0.576707
16.202	0.574299
16.22	0.571742
16.238	0.569018
16.256	0.566105
16.274	0.563032
16.292	0.559812
16.31	0.556458
16.328	0.552996
16.346	0.549470
16.364	0.545917
16.382	0.542401
16.4	0.538976
16.418	0.535687
16.436	0.532623
16.454	0.529809
16.472	0.527272
16.49	0.525088
16.508	0.523237
16.526	0.521710
16.544	0.520511
16.562	0.519624
16.58	0.519038
16.598	0.518660
16.616	0.518441
16.634	0.518339
16.652	0.518302
16.67	0.518294
16.688	0.518276
16.706	0.518171
16.724	0.517964
16.742	0.517636
16.76	0.517179
16.778	0.516599
16.796	0.515934
16.814	0.515148
16.832	0.514235
16.85	0.513275
16.868	0.512265
16.886	0.511206
16.904	0.510148
16.922	0.509103
16.94	0.508096
16.958	0.507108
16.976	0.506143
16.994	0.505230
17.012	0.504371
17.03	0.503573
17.048	0.502813
17.066	0.502087
17.084	0.501389
17.102	0.500721
17.12	0.500081
17.138	0.499433
17.156	0.498800
17.174	0.498206
17.192	0.497604
17.21	0.496993
17.228	0.496380
17.246	0.495785
17.264	0.495224
17.282	0.494671
17.3	0.494129
17.318	0.493601
17.336	0.493110
17.354	0.492668
17.372	0.492253
17.39	0.491861
17.408	0.491474
17.426	0.491101
17.444	0.490749
17.462	0.490401
17.48	0.490049
17.498	0.489670
17.516	0.489263
17.534	0.488822
17.552	0.488350
17.57	0.487846
17.588	0.487302
17.606	0.486719
17.624	0.486101
17.642	0.485427
17.66	0.484683
17.678	0.483904
17.696	0.483087
17.714	0.482210
17.732	0.481289
17.75	0.480345
17.768	0.479366
17.786	0.478348
17.804	0.477299
17.822	0.476224
17.84	0.475148
17.858	0.474067
17.876	0.472979
17.894	0.471891
17.912	0.470803
17.93	0.469734
17.948	0.468683
17.966	0.467631
17.984	0.466583
18.002	0.465547
18.02	0.464516
18.038	0.463483
18.056	0.462464
18.074	0.461466
18.092	0.460469
18.11	0.459473
18.128	0.458489
18.146	0.457512
18.164	0.456524
18.182	0.455536
18.2	0.454562
18.218	0.453593
18.236	0.452626
18.254	0.451654
18.272	0.450676
18.29	0.449701
18.308	0.448730
18.326	0.447736
18.344	0.446724
18.362	0.445701
18.38	0.444667
18.398	0.443620
18.416	0.442564
18.434	0.441504
18.452	0.440442
18.47	0.439380
18.488	0.438333
18.506	0.437313
18.524	0.436313
18.542	0.435336
18.56	0.434380
18.578	0.433445
18.596	0.432532
18.614	0.431641
18.632	0.430765
18.65	0.429904
18.668	0.429042
18.686	0.428182
18.704	0.427318
18.722	0.426447
18.74	0.425547
18.758	0.424625
18.776	0.423692
18.794	0.422736
18.812	0.421732
18.83	0.420687
18.848	0.419608
18.866	0.418497
18.884	0.417357
18.902	0.416192
18.92	0.415007
18.938	0.413798
18.956	0.412558
18.974	0.411294
18.992	0.410017
19.01	0.408726
19.028	0.407427
19.046	0.406120
19.064	0.404809
19.082	0.403499
19.1	0.402200
19.118	0.400909
19.136	0.399625
19.154	0.398352
19.172	0.397092
19.19	0.395848
19.208	0.394622
19.226	0.393418
19.244	0.392247
19.262	0.391107
19.28	0.389991
19.298	0.388898
19.316	0.387830
19.334	0.386786
19.352	0.385767
19.37	0.384773
19.388	0.383791
19.406	0.382822
19.424	0.381862
19.442	0.380913
19.46	0.379948
19.478	0.378959
19.496	0.377947
19.514	0.376912
19.532	0.375845
19.55	0.374743
19.568	0.373602
19.586	0.372404
19.604	0.371171
19.622	0.369933
19.64	0.368682
19.658	0.367413
19.676	0.366130
19.694	0.364873
19.712	0.363638
19.73	0.362450
19.748	0.361310
19.766	0.360234
19.784	0.359229
19.802	0.358294
19.82	0.357437
19.838	0.356645
19.856	0.355913
19.874	0.355232
19.892	0.354569
19.91	0.353927
19.928	0.353265
19.946	0.352589
19.964	0.351860
19.982	0.351077
20	0.350213
20.018	0.349252
20.036	0.348185
20.054	0.346980
20.072	0.345648
20.09	0.344194
20.108	0.342618
20.126	0.340935
20.144	0.339142
20.162	0.337263
20.18	0.335294
20.198	0.333264
20.216	0.331206
20.234	0.329118
20.252	0.327038
20.27	0.324957
20.288	0.322915
20.306	0.320916
20.324	0.318965
20.342	0.317068
20.36	0.315227
20.378	0.313456
20.396	0.311754
20.414	0.310107
20.432	0.308516
20.45	0.306979
20.468	0.305498
20.486	0.304061
20.504	0.302644
20.522	0.301251
20.54	0.299864
20.558	0.298482
20.576	0.297103
20.594	0.295731
20.612	0.294356
20.63	0.292963
20.648	0.291556
20.666	0.290125
20.684	0.288665
20.702	0.287190
20.72	0.285707
20.738	0.284216
20.756	0.282725
20.774	0.281236
20.792	0.279737
20.81	0.278218
20.828	0.276699
20.846	0.275210
20.864	0.273741
20.882	0.272286
20.9	0.270842
20.918	0.269418
20.936	0.268017
20.954	0.266639
20.972	0.265293
20.99	0.263978
21.008	0.262694
21.026	0.261440
21.044	0.260216
21.062	0.259015
21.08	0.257840
21.098	0.256692
21.116	0.255578
21.134	0.254491
21.152	0.253424
21.17	0.252380
21.188	0.251346
21.206	0.250322
21.224	0.249304
21.242	0.248287
21.26	0.247273
21.278	0.246254
21.296	0.245231
21.314	0.244199
21.332	0.243144
21.35	0.242070
21.368	0.240963
21.386	0.239817
21.404	0.238635
21.422	0.237421
21.44	0.236177
21.458	0.234885
21.476	0.233530
21.494	0.232125
21.512	0.230684
21.53	0.229209
21.548	0.227697
21.566	0.226143
21.584	0.224551
21.602	0.222946
21.62	0.221328
21.638	0.219697
21.656	0.218054
21.674	0.216395
21.692	0.214741
21.71	0.213092
21.728	0.211452
21.746	0.209840
21.764	0.208253
21.782	0.206690
21.8	0.205150
21.818	0.203634
21.836	0.202137
21.854	0.200659
21.872	0.199201
21.89	0.197762
21.908	0.196346
21.926	0.194942
21.944	0.193545
21.962	0.192158
21.98	0.190773
21.998	0.189392
22.016	0.188011
22.034	0.186619
22.052	0.185218
22.07	0.183811
22.088	0.182399
22.106	0.180983
22.124	0.179568
22.142	0.178155
22.16	0.176744
22.178	0.175347
22.196	0.173962
22.214	0.172591
22.232	0.171238
22.25	0.169899
22.268	0.168588
22.286	0.167317
22.304	0.166080
22.322	0.164876
22.34	0.163704
22.358	0.162565
22.376	0.161462
22.394	0.160396
22.412	0.159365
22.43	0.158370
22.448	0.157414
22.466	0.156487
22.484	0.155582
22.502	0.154702
22.52	0.153849
22.538	0.153030
22.556	0.152240
22.574	0.151463
22.592	0.150695
22.61	0.149941
22.628	0.149199
22.646	0.148476
22.664	0.147762
22.682	0.147043
22.7	0.146320
22.718	0.145595
22.736	0.144868
22.754	0.144142
22.772	0.143411
22.79	0.142671
22.808	0.141923
22.826	0.141167
22.844	0.140401
22.862	0.139628
22.88	0.138836
22.898	0.138019
22.916	0.137182
22.934	0.136319
22.952	0.135423
22.97	0.134500
22.988	0.133564
23.006	0.132622
23.024	0.131668
23.042	0.130696
23.06	0.129706
23.078	0.128699
23.096	0.127668
23.114	0.126608
23.132	0.125527
23.15	0.124437
23.168	0.123342
23.186	0.122237
23.204	0.121127
23.222	0.120008
23.24	0.118883
23.258	0.117762
23.276	0.116646
23.294	0.115531
23.312	0.114413
23.33	0.113288
23.348	0.112160
23.366	0.111031
23.384	0.109901
23.402	0.108770
23.42	0.107644
23.438	0.106523
23.456	0.105407
23.474	0.104295
23.492	0.103189
23.51	0.102087
23.528	0.100985
23.546	0.099879
23.564	0.098772
23.582	0.097667
23.6	0.096562
23.618	0.095456
23.636	0.094361
23.654	0.093281
23.672	0.092214
23.69	0.091156
23.708	0.090106
23.726	0.089063
23.744	0.088031
23.762	0.087015
23.78	0.086013
23.798	0.085025
23.816	0.084050
23.834	0.083087
23.852	0.082138
23.87	0.081209
23.888	0.080300
23.906	0.079408
23.924	0.078532
23.942	0.077673
23.96	0.076829
23.978	0.075994
23.996	0.075166
24.014	0.074346
24.032	0.073533
24.05	0.072724
24.068	0.071921
24.086	0.071124
24.104	0.070333
24.122	0.069550
24.14	0.068771
24.158	0.067992
24.176	0.067213
24.194	0.066435
24.212	0.065659
24.23	0.064881
24.248	0.064104
24.266	0.063333
24.284	0.062573
24.302	0.061821
24.32	0.061076
24.338	0.060340
24.356	0.059610
24.374	0.058888
24.392	0.058176
24.41	0.057471
24.428	0.056775
24.446	0.056099
24.464	0.055450
24.482	0.054826
24.5	0.054214
24.518	0.053604
24.536	0.052997
24.554	0.052399
24.572	0.051816
24.59	0.051253
24.608	0.050703
24.626	0.050158
24.644	0.049611
24.662	0.049068
24.68	0.048526
24.698	0.047984
24.716	0.047446
24.734	0.046907
24.752	0.046363
24.77	0.045812
24.788	0.045256
24.806	0.044692
24.824	0.044116
24.842	0.043528
24.86	0.042932
24.878	0.042335
24.896	0.041739
24.914	0.041139
24.932	0.040532
24.95	0.039916
24.968	0.039289
24.986	0.038658
25.004	0.038031
25.022	0.037406
25.04	0.036782
25.058	0.036161
25.076	0.035541
25.094	0.034921
25.112	0.034308
25.13	0.033712
25.148	0.033129
25.166	0.032560
25.184	0.032002
25.202	0.031456
25.22	0.030920
25.238	0.030399
25.256	0.029897
25.274	0.029413
25.292	0.028947
25.31	0.028502
25.328	0.028080
25.346	0.027682
25.364	0.027303
25.382	0.026939
25.4	0.026588
25.418	0.026252
25.436	0.025932
25.454	0.025627
25.472	0.025336
25.49	0.025060
25.508	0.024802
25.526	0.024563
25.544	0.024343
25.562	0.024135
25.58	0.023934
25.598	0.023742
25.616	0.023559
25.634	0.023384
25.652	0.023216
25.67	0.023058
25.688	0.022906
25.706	0.022753
25.724	0.022597
25.742	0.022441
25.76	0.022286
25.778	0.022131
25.796	0.021978
25.814	0.021825
25.832	0.021669
25.85	0.021509
25.868	0.021348
25.886	0.021182
25.904	0.021008
25.922	0.020824
25.94	0.020634
25.958	0.020433
25.976	0.020217
25.994	0.019985
26.012	0.019740
26.03	0.019484
26.048	0.019216
26.066	0.018938
26.084	0.018649
26.102	0.018347
26.12	0.018031
26.138	0.017700
26.156	0.017357
26.174	0.017006
26.192	0.016651
26.21	0.016289
26.228	0.015918
26.246	0.015536
26.264	0.015139
26.282	0.014729
26.3	0.014313
26.318	0.013896
26.336	0.013476
26.354	0.013053
26.372	0.012632
26.39	0.012216
26.408	0.011807
26.426	0.011401
26.444	0.010998
26.462	0.010596
26.48	0.010189
26.498	0.009785
26.516	0.009394
26.534	0.009024
26.552	0.008669
26.57	0.008329
26.588	0.008003
26.606	0.007691
26.624	0.007390
26.642	0.007104
26.66	0.006839
26.678	0.006597
26.696	0.006375
26.714	0.006174
26.732	0.005992
26.75	0.005830
26.768	0.005690
26.786	0.005568
26.804	0.005464
26.822	0.005378
26.84	0.005309
26.858	0.005258
26.876	0.005227
26.894	0.005217
26.912	0.005229
26.93	0.005259
26.948	0.005300
26.966	0.005355
26.984	0.005434
27.002	0.005518
27.02	0.005585
27.028	0.005602