File: Bakgrunnsmateriale/MATLAB/FTIR/ftir_data/LPE454/Mapping_121/LPE454_t119_cm-1.asc
PE IR       SPECTRUM    SPECTRUM    ASCII       PEDS        1.60
  -1
LP0C58~1.ASC
17/05/20
00:24:25.00
17/05/20
00:24:25.00
tln
$LPE454_t0119$<tbV0>[-7.8,13.0,8.0,0.0,27,1,0]
370
64

2002,4.07
MIRTGS : RIGHTBACK : INTERNAL 2
MIR : ON : INTERNAL 2
OPTKBR

0.200000
8
8.000000
FILLER
RATIO
SPECTRUM
UNLOCKED 256

DOUBLE
64
COMBINED
1
0
0

1.000000
RATIO

1
0
TRUE
51149
0
LEFT NOT FITTED RIGHT NOT FITTED 0
NONE
NONE
15600
12
4.427000
51148
TRUE
1 0 8 72 0 0 0 0

15798

#HDR
-1
-1
#GR
CM-1
%T
2.38419e-05
0.0
5000
-1.000000
4631
8
40.3521
-3.536438
#DATA
5000	0.004339
4996	0.153708
4992	0.513243
4988	0.587654
4984	0.385785
4980	0.162029
4976	0.128269
4972	0.140380
4968	0.145077
4964	0.285053
4960	0.538110
4956	0.659418
4952	0.642299
4948	0.645422
4944	0.514507
4940	0.264430
4936	0.144886
4932	0.243067
4928	0.319314
4924	0.326848
4920	0.451016
4916	0.536036
4912	0.532960
4908	0.432062
4904	0.168609
4900	0.000238
4896	0.169134
4892	0.541806
4888	0.801897
4884	0.801277
4880	0.606679
4876	0.427079
4872	0.388336
4868	0.373792
4864	0.270915
4860	0.199103
4856	0.344157
4852	0.602221
4848	0.724339
4844	0.651097
4840	0.432634
4836	0.290489
4832	0.408434
4828	0.524353
4824	0.503230
4820	0.358676
4816	0.074863
4812	-0.001621
4808	0.251674
4804	0.288963
4800	0.015616
4796	-0.071692
4792	0.136065
4788	0.358629
4784	0.315356
4780	0.057029
4776	-0.124692
4772	-0.075101
4768	0.102591
4764	0.142812
4760	0.079798
4756	0.059247
4752	0.019073
4748	0.090289
4744	0.293540
4740	0.431585
4736	0.356626
4732	0.311923
4728	0.446438
4724	0.641942
4720	0.741267
4716	0.753927
4712	0.821971
4708	0.836777
4704	0.764918
4700	0.756216
4696	0.823235
4692	0.853061
4688	0.827836
4684	0.799751
4680	0.723767
4676	0.604271
4672	0.542759
4668	0.443816
4664	0.192022
4660	0.026011
4656	-0.040388
4652	-0.351858
4648	-0.883412
4644	-1.178789
4640	-1.144742
4636	-1.414990
4632	-1.923274
4628	-1.987290
4624	-1.968455
4620	-2.336287
4616	-2.792620
4612	-2.690839
4608	-2.648067
4604	-3.138399
4600	-3.080010
4596	-2.723717
4592	-3.500175
4588	-1.054549
4584	10.1761
4580	21.822
4576	22.2596
4572	13.7864
4568	7.329702
4564	3.742408
4560	1.154470
4556	0.419306
4552	0.277900
4548	0.106954
4544	0.314784
4540	0.383329
4536	-0.120830
4532	-0.660252
4528	-1.096987
4524	-1.263904
4520	-0.926685
4516	-0.676250
4512	-0.745272
4508	-0.616359
4504	-0.477957
4500	-0.638628
4496	-0.808310
4492	-0.826454
4488	-0.733423
4484	-0.478196
4480	-0.225853
4476	-0.024127
4472	0.237488
4468	0.354456
4464	0.358104
4460	0.481534
4456	0.553703
4452	0.613594
4448	0.841069
4444	1.043534
4440	0.984406
4436	0.829672
4432	0.798678
4428	0.801777
4424	0.621247
4420	0.200033
4416	-0.054168
4412	0.168371
4408	0.412154
4404	0.391650
4400	0.409770
4396	0.489711
4392	0.432825
4388	0.374507
4384	0.461006
4380	0.550556
4376	0.442886
4372	0.198435
4368	0.048398
4364	0.042867
4360	0.168275
4356	0.240993
4352	0.144386
4348	0.009298
4344	-0.107169
4340	-0.058937
4336	0.115966
4332	0.060534
4328	-0.150966
4324	-0.129818
4320	-0.014472
4316	0.059223
4312	0.129747
4308	0.105333
4304	0.037813
4300	-0.103926
4296	-0.159049
4292	0.046730
4288	0.243330
4284	0.255346
4280	0.168466
4276	0.143933
4272	0.264811
4268	0.370383
4264	0.295472
4260	0.145554
4256	0.186204
4252	0.334310
4248	0.340151
4244	0.169444
4240	-0.065493
4236	-0.057506
4232	0.217938
4228	0.432372
4224	0.448822
4220	0.383734
4216	0.345325
4212	0.194072
4208	0.038123
4204	0.158357
4200	0.105977
4196	-0.155329
4192	-0.042605
4188	0.112843
4184	-0.058031
4180	-0.219869
4176	-0.201129
4172	0.023007
4168	0.564599
4164	0.696492
4160	-0.084066
4156	-0.558519
4152	-0.015807
4148	0.518298
4144	0.361561
4140	-0.020647
4136	-0.285935
4132	-0.034213
4128	0.663137
4124	0.878167
4120	0.400090
4116	-0.090956
4112	0.023484
4108	0.323891
4104	0.144624
4100	-0.238990
4096	-0.348019
4092	0.102305
4088	0.780725
4084	0.992918
4080	0.603628
4076	0.072908
4072	-0.153517
4068	-0.232100
4064	-0.239229
4060	-0.094294
4056	0.014925
4052	0.028300
4048	0.040674
4044	0.129437
4040	0.204277
4036	0.098943
4032	-0.044417
4028	-0.084829
4024	-0.100159
4020	-0.092458
4016	-0.074815
4012	-0.003814
4008	0.048899
4004	0.081634
4000	0.190639
3996	0.290679
3992	0.363755
3988	0.449538
3984	0.449323
3980	0.318908
3976	0.245571
3972	0.286746
3968	0.253415
3964	0.127768
3960	0.056290
3956	0.067830
3952	0.097894
3948	0.096893
3944	0.106024
3940	0.124597
3936	0.131535
3932	0.143432
3928	0.086736
3924	0.015640
3920	-0.024342
3916	-0.019192
3912	0.091910
3908	0.127005
3904	0.018525
3900	-0.034952
3896	0.052833
3892	0.143432
3888	0.042819
3884	-0.168943
3880	-0.267648
3876	-0.224256
3872	-0.066375
3868	0.136995
3864	0.203466
3860	0.133323
3856	0.060296
3852	0.001144
3848	-0.045371
3844	-0.034379
3840	-0.013709
3836	-0.065135
3832	-0.119662
3828	-0.094437
3824	-0.053930
3820	0.005698
3816	0.143814
3812	0.215673
3808	0.180339
3804	0.174212
3800	0.226736
3796	0.284814
3792	0.273251
3788	0.178360
3784	0.082349
3780	0.088739
3776	0.208830
3772	0.291180
3768	0.240230
3764	0.165462
3760	0.080704
3756	0.008106
3752	0.094771
3748	0.224661
3744	0.221943
3740	0.113677
3736	0.015449
3732	-0.012373
3728	-0.026822
3724	0.039601
3720	0.193810
3716	0.256347
3712	0.185108
3708	0.023388
3704	-0.088119
3700	-0.031852
3696	-0.007820
3692	-0.072050
3688	-0.103592
3684	-0.120759
3680	-0.113677
3676	-0.067782
3672	0.030899
3668	0.118565
3664	0.122213
3660	0.096535
3656	0.055789
3652	-0.042939
3648	-0.148630
3644	-0.119328
3640	-0.017213
3636	-0.001955
3632	-0.026655
3628	0.010704
3624	0.110435
3620	0.177884
3616	0.137066
3612	0.024008
3608	-0.037145
3604	-0.003790
3600	0.047016
3596	0.079441
3592	0.096607
3588	0.117158
3584	0.142669
3580	0.043773
3576	-0.050544
3572	0.012040
3568	0.043320
3564	0.025105
3560	0.020146
3556	-0.008988
3552	-0.006008
3548	0.041341
3544	0.076270
3540	0.113010
3536	0.157451
3532	0.136256
3528	0.093984
3524	0.125312
3520	0.106167
3516	0.068688
3512	0.113797
3508	0.068259
3504	-0.026249
3500	-0.033569
3496	-0.044107
3492	-0.041484
3488	0.042486
3484	0.110101
3480	0.126051
3476	0.123929
3472	0.110840
3468	0.095415
3464	0.072598
3460	0.077867
3456	0.069713
3452	0.017833
3448	-0.035834
3444	-0.017857
3440	0.038576
3436	-0.001525
3432	-0.014376
3428	0.098609
3424	0.135111
3420	0.056862
3416	0.001168
3412	-0.022172
3408	-0.019884
3404	-0.012230
3400	-0.002264
3396	0.067830
3392	0.135493
3388	0.090432
3384	-0.035095
3380	-0.064706
3376	0.035452
3372	0.067257
3368	-0.019407
3364	-0.018453
3360	0.118041
3356	0.173640
3352	0.120258
3348	0.077271
3344	0.014734
3340	-0.042271
3336	0.015115
3332	0.070738
3328	0.023961
3324	-0.006294
3320	0.009226
3316	0.046706
3312	0.108623
3308	0.158739
3304	0.118947
3300	0.081181
3296	0.152587
3292	0.171399
3288	0.092411
3284	0.036454
3280	0.036096
3276	0.086307
3272	0.116205
3268	0.042104
3264	-0.035047
3260	0.000381
3256	0.088024
3252	0.124979
3248	0.111103
3244	0.116038
3240	0.117945
3236	0.058341
3232	-0.028848
3228	-0.075531
3224	-0.074505
3220	-0.060629
3216	-0.032591
3212	0.021958
3208	0.071907
3204	0.080060
3200	0.098180
3196	0.113940
3192	0.055074
3188	-0.033521
3184	-0.084686
3180	-0.030612
3176	0.052189
3172	0.024580
3168	-0.031423
3164	-0.022220
3160	-0.031328
3156	-0.090312
3152	-0.088214
3148	0.011944
3144	0.149679
3140	0.224113
3136	0.189971
3132	0.166702
3128	0.179362
3124	0.108194
3120	-0.027847
3116	-0.083017
3112	-0.017261
3108	0.028324
3104	-0.024175
3100	-0.090909
3096	-0.082874
3092	0.007224
3088	0.053882
3084	0.000810
3080	0.001239
3076	0.058174
3072	0.079393
3068	0.106596
3064	0.104856
3060	0.036001
3056	-0.006127
3052	0.005865
3048	0.018024
3044	0.015020
3040	0.003767
3036	0.010299
3032	0.034117
3028	0.071883
3024	0.089168
3020	0.051832
3016	0.038194
3012	0.097608
3008	0.143170
3004	0.110888
3000	0.061821
2996	0.042057
2992	-0.023031
2988	-0.111293
2984	-0.093460
2980	0.006818
2976	0.100517
2972	0.150847
2968	0.138688
2964	0.123286
2960	0.138711
2956	0.108909
2952	0.034713
2948	-0.021076
2944	-0.043058
2940	-0.060176
2936	-0.073838
2932	-0.021028
2928	0.034880
2924	0.034308
2920	0.028586
2916	-0.026392
2912	-0.134015
2908	-0.147771
2904	-0.046038
2900	0.003194
2896	-0.015401
2892	0.006866
2888	0.038290
2884	0.016331
2880	0.004959
2876	0.040769
2872	0.063300
2868	0.050806
2864	0.051140
2860	0.109004
2856	0.176978
2852	0.214052
2848	0.195693
2844	0.111985
2840	0.056934
2836	0.057625
2832	0.028252
2828	-0.001144
2824	-0.024485
2820	-0.062251
2816	-0.028753
2812	0.022149
2808	-0.016188
2804	-0.035810
2800	0.024485
2796	0.050663
2792	0.059700
2788	0.066828
2784	0.002813
2780	-0.020623
2776	0.060224
2772	0.088953
2768	0.051641
2764	0.041317
2760	0.035881
2756	0.022768
2752	0.010538
2748	0.011992
2744	0.047087
2740	0.079202
2736	0.080490
2732	0.068306
2728	0.054478
2724	0.064563
2720	0.111293
2716	0.129437
2712	0.078916
2708	0.001215
2704	-0.036859
2700	-0.017571
2696	-0.009274
2692	-0.050163
2688	-0.053977
2684	0.034689
2680	0.108385
2676	0.086617
2672	0.050663
2668	0.066494
2664	0.039529
2660	-0.010466
2656	0.053930
2652	0.106263
2648	0.043606
2644	0.003981
2640	0.045657
2636	0.072121
2632	0.038003
2628	0.002789
2624	0.029015
2620	0.082921
2616	0.038409
2612	-0.054264
2608	-0.066375
2604	-0.016260
2600	0.044059
2596	0.059700
2592	0.040388
2588	0.031638
2584	0.035214
2580	0.057506
2576	0.089287
2572	0.079059
2568	0.035405
2564	0.041651
2560	0.064826
2556	0.066041
2552	0.078392
2548	0.043582
2544	-0.027275
2540	-0.017523
2536	0.042915
2532	0.065159
2528	0.058436
2524	0.058126
2520	0.079274
2516	0.152230
2512	0.243997
2508	0.273823
2504	0.238776
2500	0.164008
2496	0.048899
2492	-0.004982
2488	0.056052
2484	0.082945
2480	0.044941
2476	0.027275
2472	0.026035
2468	0.026106
2464	0.024867
2460	0.014662
2456	-0.011324
2452	-0.048661
2448	-0.019407
2444	0.025653
2440	-0.009679
2436	-0.063252
2432	-0.100111
2428	-0.100851
2424	-0.082850
2420	-0.093078
2416	-0.043535
2412	0.069546
2408	0.123071
2404	0.165843
2400	0.206232
2396	0.140547
2392	0.032377
2388	0.024509
2384	0.078511
2380	0.092983
2376	0.063633
2372	0.096845
2368	0.193786
2364	0.257420
2360	0.255918
2356	0.213027
2352	0.201058
2348	0.248146
2344	0.298285
2340	0.306224
2336	0.328707
2332	0.391745
2328	0.426077
2324	0.454449
2320	0.518703
2316	0.572299
2312	0.626754
2308	0.703001
2304	0.734233
2300	0.756025
2296	0.846076
2292	0.967478
2288	1.080584
2284	1.181125
2280	1.285791
2276	1.400804
2272	1.534152
2268	1.696538
2264	1.814961
2260	1.900839
2256	2.078366
2252	2.291941
2248	2.443647
2244	2.568840
2240	2.698087
2236	2.855348
2232	3.081488
2228	3.364777
2224	3.656959
2220	3.953528
2216	4.224753
2212	4.453873
2208	4.702877
2204	4.990577
2200	5.266523
2196	5.501198
2192	5.777978
2188	6.127023
2184	6.477499
2180	6.810283
2176	7.121181
2172	7.457995
2168	7.843422
2164	8.231329
2160	8.667707
2156	9.133529
2152	9.496521
2148	9.815192
2144	10.221
2140	10.6602
2136	11.0556
2132	11.469
2128	11.9404
2124	12.377
2120	12.7471
2116	13.1601
2112	13.6479
2108	14.1029
2104	14.4814
2100	14.8324
2096	15.1772
2092	15.544
2088	15.9947
2084	16.4853
2080	16.8929
2076	17.2126
2072	17.573
2068	17.9914
2064	18.3693
2060	18.7143
2056	19.066
2052	19.4216
2048	19.754
2044	20.0696
2040	20.3763
2036	20.6649
2032	20.9591
2028	21.2532
2024	21.5756
2020	21.9428
2016	22.2205
2012	22.4048
2008	22.6443
2004	22.92
2000	23.1502
1996	23.333
1992	23.544
1988	23.838
1984	24.144
1980	24.4378
1976	24.698
1972	24.8436
1968	24.9616
1964	25.135
1960	25.3136
1956	25.469
1952	25.6315
1948	25.8413
1944	26.0431
1940	26.2238
1936	26.4123
1932	26.5692
1928	26.7289
1924	26.9151
1920	27.0942
1916	27.2719
1912	27.435
1908	27.5679
1904	27.6663
1900	27.7375
1896	27.7889
1892	27.8154
1888	27.8906
1884	28.0601
1880	28.2122
1876	28.2951
1872	28.39
1868	28.5141
1864	28.618
1860	28.7073
1856	28.8025
1852	28.8909
1848	28.9874
1844	29.0967
1840	29.1621
1836	29.1936
1832	29.2405
1828	29.2967
1824	29.3678
1820	29.4453
1816	29.5263
1812	29.6085
1808	29.6675
1804	29.7299
1800	29.7938
1796	29.8384
1792	29.8897
1788	29.9156
1784	29.918
1780	29.9509
1776	29.995
1772	30.0068
1768	29.9735
1764	29.9645
1760	30.0407
1756	30.1414
1752	30.2227
1748	30.2924
1744	30.305
1740	30.285
1736	30.307
1732	30.3613
1728	30.3694
1724	30.3227
1720	30.3139
1716	30.3243
1712	30.3493
1708	30.4311
1704	30.5102
1700	30.5488
1696	30.5511
1692	30.5704
1688	30.6635
1684	30.7567
1680	30.791
1676	30.8432
1672	30.8876
1668	30.8181
1664	30.6986
1660	30.6425
1656	30.6355
1652	30.6294
1648	30.6419
1644	30.6817
1640	30.7099
1636	30.7752
1632	30.8874
1628	30.9064
1624	30.8367
1620	30.7963
1616	30.8422
1612	30.905
1608	30.874
1604	30.8201
1600	30.8061
1596	30.7755
1592	30.7294
1588	30.732
1584	30.8011
1580	30.8859
1576	30.943
1572	30.9838
1568	31.022
1564	31.0519
1560	31.059
1556	31.0499
1552	31.0296
1548	30.9971
1544	30.9696
1540	30.8975
1536	30.8116
1532	30.8193
1528	30.8933
1524	30.9339
1520	30.9494
1516	31.0128
1512	31.091
1508	31.126
1504	31.1442
1500	31.19
1496	31.2157
1492	31.1908
1488	31.1924
1484	31.1879
1480	31.1353
1476	31.0801
1472	31.0329
1468	30.9861
1464	30.971
1460	30.9782
1456	30.9808
1452	31.0792
1448	31.2235
1444	31.2747
1440	31.27
1436	31.1732
1432	31.0775
1428	31.1302
1424	31.2005
1420	31.1681
1416	31.0698
1412	30.9724
1408	30.8996
1404	30.8833
1400	30.9576
1396	31.0428
1392	31.1128
1388	31.1899
1384	31.2371
1380	31.2505
1376	31.2507
1372	31.2711
1368	31.2745
1364	31.2133
1360	31.1606
1356	31.1309
1352	31.0281
1348	30.902
1344	30.871
1340	30.9034
1336	30.984
1332	31.1109
1328	31.2251
1324	31.3167
1320	31.3753
1316	31.3953
1312	31.384
1308	31.3095
1304	31.1826
1300	31.0873
1296	31.0522
1292	31.0472
1288	31.0576
1284	31.0555
1280	31.0469
1276	31.073
1272	31.1705
1268	31.3078
1264	31.3922
1260	31.392
1256	31.339
1252	31.2817
1248	31.2233
1244	31.163
1240	31.1207
1236	31.009
1232	30.867
1228	30.857
1224	30.9453
1220	31.0253
1216	31.0507
1212	31.0946
1208	31.1696
1204	31.2077
1200	31.2686
1196	31.3357
1192	31.3134
1188	31.2036
1184	31.1041
1180	31.0764
1176	31.0283
1172	30.9442
1168	30.8742
1164	30.7902
1160	30.7963
1156	30.9365
1152	31.0526
1148	31.127
1144	31.2293
1140	31.3048
1136	31.3417
1132	31.36
1128	31.3082
1124	31.2263
1120	31.0962
1116	30.9359
1112	30.8315
1108	30.6757
1104	30.538
1100	30.5376
1096	30.5609
1092	30.6479
1088	30.8031
1084	30.8885
1080	31.0006
1076	31.2007
1072	31.265
1068	31.1474
1064	31.0565
1060	31.0357
1056	30.9718
1052	30.8189
1048	30.6078
1044	30.4316
1040	30.4007
1036	30.5157
1032	30.6541
1028	30.715
1024	30.8216
1020	31.0424
1016	31.1216
1012	31.0239
1008	31.04
1004	31.1121
1000	31.0067
996	 30.8128
992	 30.662
988	 30.5786
984	 30.482
980	 30.3159
976	 30.2342
972	 30.3436
968	 30.5614
964	 30.7096
960	 30.7136
956	 30.6674
952	 30.6535
948	 30.6559
944	 30.5951
940	 30.5247
936	 30.4975
932	 30.4318
928	 30.3278
924	 30.1237
920	 29.8563
916	 29.752
912	 29.8059
908	 29.969
904	 30.1823
900	 30.2664
896	 30.3176
892	 30.4466
888	 30.4714
884	 30.3227
880	 30.1867
876	 30.1585
872	 30.0733
868	 29.8896
864	 29.7767
860	 29.757
856	 29.7302
852	 29.6482
848	 29.479
844	 29.3908
840	 29.557
836	 29.8355
832	 30.0012
828	 29.9605
824	 29.8929
820	 29.9198
816	 29.8851
812	 29.7491
808	 29.5837
804	 29.3875
800	 29.17
796	 29.0375
792	 29.0821
788	 29.1281
784	 29.041
780	 29.0555
776	 29.2329
772	 29.4258
768	 29.5082
764	 29.3502
760	 29.1171
756	 29.1359
752	 29.3368
748	 29.3372
744	 29.0781
740	 28.8085
736	 28.5369
732	 28.2336
728	 28.1617
724	 28.3597
720	 28.5711
716	 28.701
712	 28.739
708	 28.7722
704	 28.8495
700	 28.8588
696	 28.6781
692	 28.336
688	 28.0965
684	 27.9705
680	 27.7545
676	 27.5509
672	 27.5633
668	 27.6503
664	 27.6749
660	 27.7231
656	 27.8246
652	 27.9308
648	 28.0063
644	 28.0751
640	 28.111
636	 28.0248
632	 27.8139
628	 27.6773
624	 27.5536
620	 27.23
616	 26.9198
612	 26.8162
608	 26.7102
604	 26.5546
600	 26.7092
596	 27.0382
592	 26.9993
588	 26.7326
584	 26.7274
580	 26.8714
576	 26.8281
572	 26.6137
568	 26.4182
564	 26.2707
560	 26.0561
556	 25.9371
552	 26.0819
548	 26.1589
544	 25.8708
540	 25.5451
536	 25.4974
532	 25.4683
528	 25.2823
524	 25.0576
520	 24.8783
516	 24.7808
512	 24.9188
508	 25.3577
504	 25.9205
500	 26.1831
496	 25.4395
492	 24.5661
488	 24.6899
484	 24.7735
480	 24.5901
476	 24.2078
472	 22.6891
468	 21.1887
464	 21.3175
460	 23.3354
456	 25.551
452	 25.227
448	 23.0508
444	 21.7978
440	 23.5539
436	 26.252
432	 25.5541
428	 24.5133
424	 25.8357
420	 24.9906
416	 21.4677
412	 19.1635
408	 21.0676
404	 29.4016
400	 38.2713
396	 40.1714
392	 38.8123
388	 39.2134
384	 29.866
380	 9.407138
376	 3.426027
372	 9.170055
370	 8.616161