File: Bakgrunnsmateriale/MATLAB/FTIR/ftir_data/LPE454/Mapping_121/LPE454_t14_cm-1.asc
PE IR       SPECTRUM    SPECTRUM    ASCII       PEDS        1.60
  -1
LPE7BB~1.ASC
17/05/19
15:29:54.00
17/05/19
15:29:54.00
tln
$LPE454_t0014$<tbV0>[7.8,-10.4,8.0,0.0,27,1,0]
370
64

2002,4.07
MIRTGS : RIGHTBACK : INTERNAL 2
MIR : ON : INTERNAL 2
OPTKBR

0.200000
8
8.000000
FILLER
RATIO
SPECTRUM
UNLOCKED 256

DOUBLE
64
COMBINED
1
0
0

1.000000
RATIO

1
0
TRUE
51149
0
LEFT NOT FITTED RIGHT NOT FITTED 0
NONE
NONE
15600
12
4.427000
51148
TRUE
1 0 8 72 0 0 0 0

15798

#HDR
-1
-1
#GR
CM-1
%T
2.38419e-05
0.0
5000
-1.000000
4631
8
34.1235
-20.5526
#DATA
5000	0.327444
4996	0.377869
4992	0.279736
4988	0.322461
4984	0.251936
4980	-0.039696
4976	0.237512
4972	0.670313
4968	0.541996
4964	0.135827
4960	-0.188040
4956	0.078988
4952	0.443220
4948	0.256562
4944	0.164222
4940	0.287699
4936	0.009369
4932	-0.374698
4928	-0.263047
4924	-0.018572
4920	0.068044
4916	0.026345
4912	-0.232839
4908	-0.326967
4904	-0.214076
4900	-0.154924
4896	-0.107479
4892	-0.125551
4888	-0.116920
4884	-0.142574
4880	0.000047
4876	0.459337
4872	0.775671
4868	0.785398
4864	0.774502
4860	0.640344
4856	0.185155
4852	-0.184941
4848	-0.136423
4844	0.084280
4840	0.067615
4836	-0.095343
4832	-0.076723
4828	0.076389
4824	0.269031
4820	0.321245
4816	0.143289
4812	0.102138
4808	0.197768
4804	0.231337
4800	0.206160
4796	0.244665
4792	0.605249
4788	0.903797
4784	1.117444
4780	1.577186
4776	1.907873
4772	2.113509
4768	1.716446
4764	0.396013
4760	0.212836
4756	1.576900
4752	2.377486
4748	2.175331
4744	1.816654
4740	1.623511
4736	1.257061
4732	0.304365
4728	-0.541090
4724	-0.147366
4720	0.764060
4716	0.774335
4712	0.071907
4708	-0.439095
4704	-0.218415
4700	0.424957
4696	0.495409
4692	0.082683
4688	0.038409
4684	0.380516
4680	0.390458
4676	0.082755
4672	0.103068
4668	0.335693
4664	0.366520
4660	0.285983
4656	0.414466
4652	0.484347
4648	0.282979
4644	0.325608
4640	0.802826
4636	1.002883
4632	0.701308
4628	0.428843
4624	0.390815
4620	0.497889
4616	0.711369
4612	0.932455
4608	0.957036
4604	0.939512
4600	0.746297
4596	0.184631
4592	-0.200438
4588	0.029087
4584	0.377988
4580	0.119066
4576	-0.359797
4572	-0.543546
4568	-0.576424
4564	-0.514292
4560	-0.662708
4556	-0.864672
4552	-0.909209
4548	-0.984978
4544	-1.100492
4540	-1.311016
4536	-1.406836
4532	-1.364707
4528	-1.250290
4524	-0.869727
4520	-0.658369
4516	-0.630211
4512	-0.562739
4508	-0.507760
4504	-0.586843
4500	-0.833559
4496	-0.719428
4492	3.635168
4488	14.5637
4484	27.1696
4480	29.0431
4476	16.0553
4472	5.822944
4468	3.985619
4464	1.663756
4460	-0.371623
4456	-1.179194
4452	-1.688623
4448	-1.648330
4444	-1.571750
4440	-1.480889
4436	-1.312923
4432	-1.087498
4428	-0.704598
4424	-0.448369
4420	-0.226378
4416	-0.137662
4412	0.004458
4408	0.425434
4404	0.707244
4400	0.645804
4396	0.556230
4392	0.691103
4388	0.858187
4384	0.933670
4380	0.873422
4376	0.789070
4372	0.752258
4368	0.667428
4364	0.732231
4360	0.989127
4356	1.098561
4352	0.887298
4348	0.593471
4344	0.465512
4340	0.511336
4336	0.560736
4332	0.550389
4328	0.495982
4324	0.371932
4320	0.374054
4316	0.418353
4312	0.227546
4308	0.078272
4304	0.242662
4300	0.348567
4296	0.147294
4292	0.003695
4288	-0.043988
4284	-0.078892
4280	0.027108
4276	0.103569
4272	0.094318
4268	0.072240
4264	-0.049328
4260	-0.286865
4256	-0.154590
4252	0.257349
4248	0.325298
4244	0.292801
4240	0.388264
4236	0.381731
4232	0.343728
4228	0.347828
4224	0.314450
4220	0.285100
4216	0.307059
4212	0.478577
4208	0.622057
4204	0.410795
4200	0.120663
4196	0.052022
4192	0.325846
4188	0.610852
4184	0.535345
4180	0.553750
4176	0.770473
4172	0.761389
4168	0.483655
4164	0.308942
4160	0.223565
4156	0.028753
4152	-0.138092
4148	-0.110316
4144	0.051379
4140	0.111007
4136	0.144100
4132	0.241065
4128	0.211930
4124	0.082254
4120	0.114107
4116	0.313282
4112	0.365662
4108	0.193953
4104	0.024056
4100	0.013208
4096	0.110292
4092	0.179266
4088	0.226593
4084	0.213456
4080	0.070619
4076	-0.113153
4072	-0.187635
4068	-0.206851
4064	-0.169777
4060	0.021529
4056	0.135207
4052	0.137019
4048	0.120329
4044	-0.019574
4040	-0.136613
4036	-0.062012
4032	0.085401
4028	0.163602
4024	0.133633
4020	0.046277
4016	-0.028061
4012	-0.022530
4008	0.084185
4004	0.192022
4000	0.235629
3996	0.220990
3992	0.192427
3988	0.152921
3984	0.123929
3980	0.151276
3976	0.194478
3972	0.274395
3968	0.393867
3964	0.413370
3960	0.366926
3956	0.298190
3952	0.178480
3948	0.130939
3944	0.183296
3940	0.197005
3936	0.114297
3932	0.050306
3928	0.121903
3924	0.171566
3920	0.122261
3916	0.125193
3912	0.138187
3908	0.091433
3904	0.063395
3900	0.126910
3896	0.169610
3892	0.136446
3888	0.068449
3884	-0.024795
3880	-0.049471
3876	0.040078
3872	0.176167
3868	0.258040
3864	0.298571
3860	0.289916
3856	0.159001
3852	-0.004792
3848	-0.074100
3844	0.017142
3840	0.213694
3836	0.296115
3832	0.243258
3828	0.136160
3824	0.061964
3820	0.110459
3816	0.091123
3812	-0.012612
3808	0.043177
3804	0.111579
3800	0.035500
3796	0.030088
3792	0.123143
3788	0.121831
3784	0.074434
3780	0.132513
3776	0.132918
3772	-0.011610
3768	-0.106549
3764	-0.092172
3760	-0.022196
3756	0.066161
3752	0.123095
3748	0.128626
3744	0.107645
3740	0.143885
3736	0.190687
3732	0.118231
3728	0.022387
3724	0.049161
3720	0.131750
3716	0.161147
3712	0.129628
3708	0.050425
3704	-0.006318
3700	0.051140
3696	0.130772
3692	0.102448
3688	0.021147
3684	-0.053882
3680	-0.115036
3676	-0.101685
3672	-0.012183
3668	0.059556
3664	0.083231
3660	0.098848
3656	0.119709
3652	0.124096
3648	0.064921
3644	0.047802
3640	0.111150
3636	0.081133
3632	-0.014615
3628	-0.082731
3624	-0.056457
3620	0.113391
3616	0.191879
3612	0.063514
3608	-0.004816
3604	0.022578
3600	-0.065350
3596	-0.164866
3592	-0.138640
3588	-0.060415
3584	-0.024747
3580	-0.061368
3576	-0.155806
3572	-0.185871
3568	-0.059032
3564	0.080323
3560	0.121974
3556	0.153255
3552	0.183677
3548	0.170087
3544	0.127840
3540	0.071072
3536	0.036120
3532	0.037598
3528	0.091266
3524	0.170111
3520	0.152540
3516	0.073885
3512	0.056838
3508	0.098323
3504	0.157308
3500	0.159049
3496	0.107598
3492	0.053167
3488	0.005030
3484	0.016784
3480	0.042390
3476	0.066614
3472	0.147652
3468	0.256109
3464	0.258278
3460	0.101828
3456	0.007343
3452	0.000572
3448	-0.047349
3444	-0.001955
3440	0.080037
3436	-0.027704
3432	-0.166106
3428	-0.095510
3424	0.048136
3420	0.036001
3416	-0.048422
3412	-0.044226
3408	-0.051689
3404	-0.089621
3400	0.008845
3396	0.103282
3392	0.030493
3388	-0.079250
3384	-0.103998
3380	-0.005459
3376	0.124692
3372	0.146698
3368	0.120234
3364	0.141263
3360	0.111436
3356	0.015234
3352	-0.050139
3348	-0.074934
3344	-0.071191
3340	-0.019073
3336	0.027036
3332	0.043344
3328	0.091171
3324	0.080561
3320	0.035810
3316	0.097656
3312	0.151896
3308	0.061392
3304	-0.044703
3300	-0.082802
3296	-0.075221
3292	-0.059747
3288	-0.057697
3284	-0.023484
3280	-0.026535
3276	-0.043988
3272	0.046300
3268	0.180912
3264	0.231218
3260	0.141787
3256	0.021243
3252	0.012040
3248	0.086593
3244	0.108957
3240	-0.025224
3236	-0.156974
3232	-0.080561
3228	0.032424
3224	0.051784
3220	0.111460
3216	0.162458
3212	0.126552
3208	0.044131
3204	-0.025606
3200	0.029754
3196	0.068879
3192	-0.033664
3188	-0.082707
3184	-0.039792
3180	-0.004029
3176	0.011730
3172	0.001931
3168	-0.013470
3164	0.011014
3160	0.113248
3156	0.182104
3152	0.133419
3148	0.043272
3144	-0.031304
3140	0.022101
3136	0.216245
3132	0.315284
3128	0.188183
3124	0.051522
3120	0.026106
3116	-0.017595
3112	-0.038003
3108	0.026941
3104	0.089478
3100	0.065875
3096	0.019359
3092	0.051164
3088	0.102329
3084	0.116181
3080	0.087594
3076	0.059080
3072	0.069212
3068	0.117373
3064	0.172805
3060	0.161480
3056	0.077700
3052	-0.014638
3048	-0.011014
3044	0.064420
3040	0.083470
3036	0.011062
3032	-0.073289
3028	-0.060677
3024	0.010299
3020	0.042557
3016	0.042128
3012	0.026082
3008	-0.026369
3004	-0.068235
3000	-0.042486
2996	0.022792
2992	0.053858
2988	0.035023
2984	0.028610
2980	0.063991
2976	0.097036
2972	0.131869
2968	0.174307
2964	0.146007
2960	0.089883
2956	0.070619
2952	0.061440
2948	0.060486
2944	0.107312
2940	0.144577
2936	0.075387
2932	0.003266
2928	0.066447
2924	0.177526
2920	0.184965
2916	0.092649
2912	0.008130
2908	0.015997
2904	0.059080
2900	0.049686
2896	-0.006866
2892	-0.063419
2888	-0.094461
2884	-0.062274
2880	0.017476
2876	0.024127
2872	0.041890
2868	0.117492
2864	0.122785
2860	0.136470
2856	0.105905
2852	-0.039124
2848	-0.083208
2844	0.039839
2840	0.126385
2836	0.067400
2832	0.031352
2828	0.047302
2824	0.011944
2820	-0.007390
2816	0.007653
2812	0.029230
2808	0.071454
2804	0.098729
2800	0.092816
2796	0.096511
2792	0.112390
2788	0.093865
2784	0.078678
2780	0.073957
2776	0.031805
2772	0.009059
2768	0.041222
2764	0.063204
2760	0.058507
2756	0.055623
2752	0.065922
2748	0.111198
2744	0.144481
2740	0.097990
2736	0.030016
2732	-0.013351
2728	-0.061178
2724	-0.067996
2720	-0.052165
2716	-0.043225
2712	0.022292
2708	0.083708
2704	0.032615
2700	-0.075817
2696	-0.078082
2692	0.026226
2688	0.087714
2684	0.076246
2680	0.028777
2676	-0.018739
2672	0.012660
2668	0.034737
2664	-0.013422
2660	-0.016927
2656	0.023746
2652	0.049543
2648	0.039958
2644	0.013256
2640	0.000905
2636	0.004863
2632	0.004553
2628	0.012159
2624	0.049471
2620	0.062346
2616	0.008893
2612	-0.006055
2608	0.010132
2604	-0.040912
2600	-0.050330
2596	-0.016069
2592	0.004529
2588	0.057029
2584	0.084066
2580	0.067734
2576	0.040054
2572	0.028014
2568	0.088357
2564	0.145697
2560	0.098967
2556	0.025224
2552	-0.007748
2548	-0.006127
2544	0.016593
2540	0.009894
2536	-0.020599
2532	-0.085878
2528	-0.157523
2524	-0.087976
2520	0.035047
2516	0.073838
2512	0.059533
2508	-0.001239
2504	-0.014901
2500	0.050139
2496	0.064015
2492	0.014805
2488	-0.018143
2484	-0.010418
2480	-0.008273
2476	-0.027608
2472	0.017881
2468	0.115633
2464	0.138950
2460	0.076055
2456	0.029635
2452	0.022172
2448	0.006222
2444	-0.023555
2440	-0.021672
2436	0.002145
2432	-0.016498
2428	0.017595
2424	0.156664
2420	0.130581
2416	-0.042772
2412	-0.037598
2408	0.052452
2404	0.025463
2400	-0.039863
2396	-0.031328
2392	0.051927
2388	0.117206
2384	0.119972
2380	0.090718
2376	0.080633
2372	0.112247
2368	0.134992
2364	0.091886
2360	0.054454
2356	0.069928
2352	0.079226
2348	0.108265
2344	0.186395
2340	0.247192
2336	0.242733
2332	0.251746
2328	0.310611
2324	0.384998
2320	0.456571
2316	0.476741
2312	0.458359
2308	0.479912
2304	0.558948
2300	0.665330
2296	0.760102
2292	0.827193
2288	0.899624
2284	0.965094
2280	1.008605
2276	1.056289
2272	1.137065
2268	1.292395
2264	1.458311
2260	1.582193
2256	1.739788
2252	1.950025
2248	2.152490
2244	2.308630
2240	2.473926
2236	2.679896
2232	2.884507
2228	3.108525
2224	3.348398
2220	3.564310
2216	3.784489
2212	4.039120
2208	4.330754
2204	4.652762
2200	4.983472
2196	5.306601
2192	5.648040
2188	6.021523
2184	6.409502
2180	6.810975
2176	7.160425
2172	7.482290
2168	7.958507
2164	8.492517
2160	8.862996
2156	9.174680
2152	9.582519
2148	10.1206
2144	10.6958
2140	11.1228
2136	11.5167
2132	12.0442
2128	12.5841
2124	13.0315
2120	13.4184
2116	13.8519
2112	14.3649
2108	14.8734
2104	15.3844
2100	15.9491
2096	16.5009
2092	16.9331
2088	17.2555
2084	17.5629
2080	17.9982
2076	18.6342
2072	19.2803
2068	19.7468
2064	20.1447
2060	20.6599
2056	21.1097
2052	21.3546
2048	21.6635
2044	22.0894
2040	22.501
2036	22.8755
2032	23.2171
2028	23.5614
2024	23.9325
2020	24.3117
2016	24.6659
2012	25.0004
2008	25.3007
2004	25.5817
2000	25.8843
1996	26.166
1992	26.4237
1988	26.7061
1984	27.0237
1980	27.3476
1976	27.614
1972	27.8186
1968	28.0419
1964	28.2899
1960	28.4923
1956	28.6963
1952	28.9476
1948	29.1591
1944	29.2859
1940	29.4014
1936	29.5609
1932	29.7249
1928	29.8973
1924	30.1046
1920	30.331
1916	30.5121
1912	30.6337
1908	30.7536
1904	30.8954
1900	31.0314
1896	31.1778
1892	31.3387
1888	31.4484
1884	31.5046
1880	31.561
1876	31.674
1872	31.8233
1868	31.9235
1864	32.0053
1860	32.116
1856	32.2032
1852	32.2674
1848	32.3705
1844	32.4775
1840	32.5439
1836	32.5887
1832	32.6318
1828	32.7095
1824	32.7786
1820	32.8153
1816	32.888
1812	32.9808
1808	33.0387
1804	33.0839
1800	33.1575
1796	33.232
1792	33.2765
1788	33.2941
1784	33.277
1780	33.2721
1776	33.3577
1772	33.4504
1768	33.423
1764	33.3451
1760	33.352
1756	33.4839
1752	33.6148
1748	33.5995
1744	33.5377
1740	33.5912
1736	33.6935
1732	33.7203
1728	33.6909
1724	33.6801
1720	33.7442
1716	33.7508
1712	33.6208
1708	33.6101
1704	33.7616
1700	33.8439
1696	33.8493
1692	33.8779
1688	33.9403
1684	33.9724
1680	33.9554
1676	33.9657
1672	33.9494
1668	33.882
1664	33.8686
1660	33.9164
1656	33.9902
1652	34.0069
1648	33.9137
1644	33.8717
1640	33.9599
1636	34.0102
1632	33.9504
1628	33.8878
1624	33.8754
1620	33.9488
1616	34.0109
1612	33.9268
1608	33.8198
1604	33.8192
1600	33.8587
1596	33.8378
1592	33.7854
1588	33.7652
1584	33.7983
1580	33.9241
1576	34.0369
1572	34.0001
1568	33.9404
1564	33.9982
1560	34.1087
1556	34.0902
1552	33.9394
1548	33.8696
1544	33.9484
1540	34.0226
1536	33.993
1532	33.9076
1528	33.8485
1524	33.8669
1520	33.8748
1516	33.8405
1512	33.9148
1508	34.0235
1504	33.9823
1500	33.8668
1496	33.7934
1492	33.771
1488	33.7918
1484	33.8191
1480	33.8352
1476	33.8665
1472	33.9156
1468	33.9354
1464	33.8971
1460	33.8963
1456	33.9183
1452	33.838
1448	33.711
1444	33.6566
1440	33.6973
1436	33.7698
1432	33.7998
1428	33.7483
1424	33.6982
1420	33.728
1416	33.7479
1412	33.7455
1408	33.7557
1404	33.7608
1400	33.7709
1396	33.79
1392	33.8139
1388	33.8253
1384	33.8025
1380	33.7628
1376	33.73
1372	33.6697
1368	33.5801
1364	33.5357
1360	33.5689
1356	33.6258
1352	33.698
1348	33.7598
1344	33.7408
1340	33.7062
1336	33.711
1332	33.6681
1328	33.5268
1324	33.4352
1320	33.5047
1316	33.5911
1312	33.5889
1308	33.543
1304	33.5162
1300	33.5487
1296	33.5447
1292	33.4824
1288	33.4889
1284	33.5372
1280	33.5174
1276	33.4085
1272	33.2878
1268	33.2253
1264	33.2116
1260	33.2456
1256	33.3153
1252	33.3802
1248	33.374
1244	33.3071
1240	33.3071
1236	33.3548
1232	33.3393
1228	33.3025
1224	33.3069
1220	33.3222
1216	33.2937
1212	33.2417
1208	33.2271
1204	33.2281
1200	33.234
1196	33.2762
1192	33.2788
1188	33.1684
1184	33.0882
1180	33.1704
1176	33.2259
1172	33.1624
1168	33.1255
1164	33.1401
1160	33.1522
1156	33.1103
1152	33.0003
1148	32.8916
1144	32.8572
1140	32.8904
1136	32.8737
1132	32.841
1128	32.8855
1124	32.8984
1120	32.9198
1116	32.9968
1112	32.906
1108	32.7466
1104	32.8276
1100	32.9332
1096	32.8478
1092	32.7195
1088	32.6084
1084	32.4877
1080	32.4065
1076	32.4695
1072	32.6052
1068	32.605
1064	32.5641
1060	32.6766
1056	32.8022
1052	32.7117
1048	32.468
1044	32.3724
1040	32.4693
1036	32.533
1032	32.3954
1028	32.1382
1024	31.9919
1020	32.0135
1016	32.1728
1012	32.373
1008	32.4508
1004	32.4696
1000	32.4558
996	 32.3248
992	 32.1795
988	 32.1468
984	 32.1577
980	 32.1039
976	 32.0602
972	 32.0127
968	 31.8943
964	 31.8773
960	 31.9264
956	 31.8596
952	 31.8878
948	 32.0171
944	 31.9628
940	 31.799
936	 31.6797
932	 31.6776
928	 31.671
924	 31.4782
920	 31.2595
916	 31.161
912	 31.1553
908	 31.1644
904	 31.2071
900	 31.2598
896	 31.2259
892	 31.1831
888	 31.1015
884	 31.012
880	 31.0644
876	 31.1564
872	 31.1361
868	 30.9921
864	 30.796
860	 30.6387
856	 30.5155
852	 30.4719
848	 30.5547
844	 30.5701
840	 30.4828
836	 30.4663
832	 30.5702
828	 30.6085
824	 30.5377
820	 30.6073
816	 30.7178
812	 30.5188
808	 30.0531
804	 29.8054
800	 29.8911
796	 29.9121
792	 29.7195
788	 29.5156
784	 29.4635
780	 29.6051
776	 29.9105
772	 30.1672
768	 30.1498
764	 29.8155
760	 29.4097
756	 29.22
752	 29.1971
748	 29.1472
744	 28.9461
740	 28.8691
736	 28.9569
732	 28.7974
728	 28.5927
724	 28.6769
720	 28.8477
716	 28.7881
712	 28.5973
708	 28.5848
704	 28.4536
700	 28.0469
696	 27.8076
692	 27.8229
688	 27.9277
684	 27.9784
680	 27.8964
676	 27.8421
672	 27.7637
668	 27.772
664	 28.1119
660	 28.3002
656	 28.0828
652	 27.7844
648	 27.6461
644	 27.6332
640	 27.4016
636	 26.9311
632	 26.6218
628	 26.468
624	 26.2599
620	 26.199
616	 26.3574
612	 26.407
608	 26.2001
604	 26.2062
600	 26.5452
596	 26.7121
592	 26.5253
588	 26.1898
584	 25.9818
580	 25.8154
576	 25.4522
572	 25.0608
568	 24.9922
564	 25.1239
560	 25.0659
556	 24.8327
552	 24.6911
548	 24.755
544	 24.9207
540	 25.1409
536	 25.2122
532	 24.8633
528	 24.4326
524	 24.5082
520	 24.6721
516	 24.2877
512	 23.9893
508	 24.1093
504	 24.0922
500	 23.9584
496	 24.0041
492	 24.1206
488	 24.0877
484	 23.9658
480	 23.8465
476	 23.9418
472	 23.9119
468	 23.1474
464	 22.3826
460	 22.2998
456	 22.1796
452	 22.1288
448	 22.2108
444	 21.2625
440	 20.6338
436	 21.9832
432	 23.5146
428	 23.789
424	 23.4567
420	 22.0477
416	 20.4171
412	 22.7791
408	 30.1328
404	 32.0006
400	 26.9673
396	 26.0496
392	 21.2268
388	 0.946784
384	 -19.5512
380	 -11.5414
376	 12.2482
372	 32.3273
370	 33.1081