File: Bakgrunnsmateriale/MATLAB/FTIR/ftir_data/LPE454/Mapping_121/LPE454_t121_cm-1.asc
PE IR       SPECTRUM    SPECTRUM    ASCII       PEDS        1.60
  -1
LP04D7~1.ASC
17/05/20
00:33:39.00
17/05/20
00:33:39.00
tln
$LPE454_t0121$<tbV0>[-13.0,13.0,8.0,0.0,27,1,0]
370
64

2002,4.07
MIRTGS : RIGHTBACK : INTERNAL 2
MIR : ON : INTERNAL 2
OPTKBR

0.200000
8
8.000000
FILLER
RATIO
SPECTRUM
UNLOCKED 256

DOUBLE
64
COMBINED
1
0
0

1.000000
RATIO

1
0
TRUE
51149
0
LEFT NOT FITTED RIGHT NOT FITTED 0
NONE
NONE
15600
12
4.427000
51148
TRUE
1 0 8 72 0 0 0 0

15798

#HDR
-1
-1
#GR
CM-1
%T
2.38419e-05
0.0
5000
-1.000000
4631
8
45.6232
-3.468084
#DATA
5000	0.707340
4996	0.715041
4992	0.460243
4988	-0.026726
4984	-0.209903
4980	0.212955
4976	0.618529
4972	0.707507
4968	0.611233
4964	0.361990
4960	0.122356
4956	-0.010848
4952	0.052928
4948	0.114369
4944	-0.080275
4940	-0.079059
4936	0.266838
4932	0.371098
4928	0.109529
4924	0.104260
4920	0.329589
4916	0.388026
4912	0.398683
4908	0.336480
4904	0.225353
4900	0.254178
4896	0.428438
4892	0.620746
4888	0.661540
4884	0.321364
4880	-0.176787
4876	-0.209832
4872	0.020837
4868	0.181698
4864	0.346684
4860	0.420331
4856	0.345039
4852	0.210547
4848	0.087451
4844	-0.003290
4840	-0.017642
4836	-0.023770
4832	-0.045442
4828	0.021982
4824	0.106811
4820	0.202322
4816	0.135087
4812	-0.014376
4808	0.118565
4804	0.267624
4800	0.177145
4796	0.112509
4792	0.159382
4788	0.242757
4784	0.257754
4780	0.183081
4776	0.102543
4772	-0.002646
4768	0.141048
4764	0.501585
4760	0.590300
4756	0.441765
4752	0.405335
4748	0.522541
4744	0.609612
4740	0.566172
4736	0.538349
4732	0.630807
4728	0.686359
4724	0.637221
4720	0.650262
4716	0.813364
4712	0.839853
4708	0.575661
4704	0.481224
4700	0.768423
4696	0.975537
4692	0.866699
4688	0.865411
4684	1.099324
4680	0.976300
4676	0.593400
4672	0.461483
4668	0.267910
4664	-0.025391
4660	-0.111913
4656	-0.167679
4652	-0.299310
4648	-0.498127
4644	-0.778245
4640	-0.838279
4636	-0.728416
4632	-1.047158
4628	-1.621150
4624	-1.627159
4620	-1.288175
4616	-0.957918
4612	-0.721073
4608	-0.586605
4604	-0.296592
4600	0.259995
4596	0.600886
4592	1.245570
4588	3.739285
4584	9.933328
4580	19.1038
4576	26.7141
4572	22.9967
4568	8.979630
4564	-0.751137
4560	-2.170157
4556	-2.186059
4552	-3.156304
4548	-3.425383
4544	-2.876305
4540	-2.467584
4536	-2.155160
4532	-1.828122
4528	-1.509356
4524	-1.052951
4520	-0.486803
4516	-0.346398
4512	-0.826597
4508	-1.244592
4504	-1.195025
4500	-0.884628
4496	-0.560522
4492	-0.105237
4488	0.249838
4484	0.284123
4480	0.274252
4476	0.370025
4472	0.356554
4468	0.158476
4464	0.177335
4460	0.442290
4456	0.578999
4452	0.628924
4448	0.611162
4444	0.484395
4440	0.414085
4436	0.475549
4432	0.528979
4428	0.481557
4424	0.536394
4420	0.619721
4416	0.433325
4412	0.247168
4408	0.359940
4404	0.665545
4400	0.833058
4396	0.678467
4392	0.421929
4388	0.317931
4384	0.312042
4380	0.227999
4376	0.147056
4372	0.276470
4368	0.394034
4364	0.306391
4360	0.207543
4356	0.196027
4352	0.291967
4348	0.305581
4344	0.217151
4340	0.246357
4336	0.345802
4332	0.319647
4328	0.223016
4324	0.220060
4320	0.274157
4316	0.318717
4312	0.378155
4308	0.412178
4304	0.449514
4300	0.397658
4296	0.329613
4292	0.343084
4288	0.447893
4284	0.491166
4280	0.445938
4276	0.502419
4272	0.542163
4268	0.365161
4264	0.164031
4260	0.171971
4256	0.296878
4252	0.403451
4248	0.248169
4244	-0.034523
4240	-0.002217
4236	0.256180
4232	0.590682
4228	0.776934
4224	0.557923
4220	0.209116
4216	0.118160
4212	0.338172
4208	0.564002
4204	0.486898
4200	0.286173
4196	0.360059
4192	0.546145
4188	0.391435
4184	0.166678
4180	-0.064158
4176	-0.272250
4172	-0.179672
4168	0.033783
4164	-0.074934
4160	-0.131988
4156	0.314617
4152	0.345492
4148	-0.165057
4144	0.058078
4140	1.211619
4136	1.827836
4132	1.468038
4128	0.752234
4124	0.158047
4120	-0.004959
4116	-0.196671
4112	-0.355029
4108	0.102376
4104	0.617504
4100	0.584459
4096	0.350379
4092	0.429320
4088	0.696754
4084	0.770282
4080	0.669240
4076	0.482726
4072	0.266218
4068	0.185060
4064	0.283861
4060	0.357890
4056	0.250506
4052	0.104832
4048	0.099992
4044	0.055193
4040	-0.052833
4036	-0.040459
4032	-0.018501
4028	-0.067996
4024	-0.070118
4020	-0.061273
4016	-0.254869
4012	-0.419545
4008	-0.195479
4004	0.108194
4000	0.180745
3996	0.192332
3992	0.151014
3988	0.061821
3984	0.033569
3980	0.002288
3976	-0.006747
3972	0.034308
3968	0.028514
3964	-0.009775
3960	0.017189
3956	0.080156
3952	0.061345
3948	0.004935
3944	0.061583
3940	0.188302
3936	0.207996
3932	0.078678
3928	0.004935
3924	0.062108
3920	0.058531
3916	-0.006055
3912	-0.028038
3908	-0.072550
3904	-0.041222
3900	0.161886
3896	0.297927
3892	0.174927
3888	-0.012469
3884	-0.070714
3880	-0.069069
3876	-0.024652
3872	0.041985
3868	0.110244
3864	0.175929
3860	0.119733
3856	-0.016689
3852	-0.046324
3848	0.062465
3844	0.135803
3840	0.084447
3836	0.109243
3832	0.192308
3828	0.192666
3824	0.123143
3820	0.052595
3816	0.080943
3812	0.135183
3808	0.119876
3804	0.057697
3800	0.018477
3796	-0.014615
3792	-0.112271
3788	-0.149512
3784	0.012922
3780	0.120615
3776	0.035905
3772	0.003314
3768	0.063967
3764	0.085210
3760	0.055217
3756	0.047683
3752	0.029516
3748	0.029706
3744	0.079345
3740	0.091218
3736	0.129699
3732	0.168490
3728	0.106787
3724	0.009727
3720	-0.024533
3716	0.067472
3712	0.179362
3708	0.211787
3704	0.250554
3700	0.228404
3696	0.126552
3692	0.085043
3688	0.159883
3684	0.170397
3680	0.060558
3676	0.048995
3672	0.144124
3668	0.236511
3664	0.226211
3660	0.098228
3656	0.053834
3652	0.094246
3648	0.115871
3644	0.129246
3640	0.097608
3636	0.051689
3632	0.049567
3628	0.060200
3624	0.101542
3620	0.135707
3616	0.085473
3612	0.057697
3608	0.068211
3604	0.037980
3600	0.020051
3596	0.018501
3592	-0.005459
3588	-0.070738
3584	-0.107574
3580	-0.027084
3576	0.040006
3572	0.012588
3568	-0.033259
3564	-0.023627
3560	0.006914
3556	-0.040578
3552	-0.097489
3548	-0.063681
3544	0.051307
3540	0.109744
3536	0.022292
3532	-0.038027
3528	0.004053
3524	0.052404
3520	0.130891
3516	0.174069
3512	0.070834
3508	0.022768
3504	0.127267
3500	0.191044
3496	0.168466
3492	0.118517
3488	0.032472
3484	-0.098133
3480	-0.172972
3476	-0.141763
3472	-0.086474
3468	-0.026035
3464	0.007486
3460	-0.006604
3456	-0.020909
3452	0.018835
3448	0.084280
3444	0.061130
3440	0.021886
3436	0.035357
3432	0.027441
3428	0.008893
3424	0.047397
3420	0.088572
3416	0.090837
3412	0.140857
3408	0.218057
3404	0.214600
3400	0.112581
3396	0.046801
3392	0.085783
3388	0.102448
3384	0.103878
3380	0.157952
3376	0.178360
3372	0.146007
3368	0.099945
3364	0.062274
3360	0.069975
3356	0.048065
3352	-0.047588
3348	-0.103688
3344	-0.053024
3340	0.014519
3336	-0.021171
3332	-0.102043
3328	-0.079870
3324	0.024294
3320	0.075316
3316	0.011873
3312	-0.039243
3308	0.012230
3304	0.019145
3300	-0.072860
3296	-0.089120
3292	-0.002455
3288	0.029277
3284	-0.007081
3280	-0.038385
3276	-0.076436
3272	-0.087022
3268	-0.078105
3264	-0.094318
3260	-0.073242
3256	-0.011777
3252	0.049471
3248	0.110006
3244	0.149035
3240	0.123143
3236	0.021076
3232	-0.055384
3228	-0.020241
3224	0.003504
3220	-0.044393
3216	-0.030803
3212	0.013089
3208	-0.001239
3204	0.018191
3200	0.082135
3196	0.115513
3192	0.177168
3188	0.226569
3184	0.173163
3180	0.085449
3176	0.040721
3172	0.062322
3168	0.095963
3164	0.054645
3160	-0.025987
3156	-0.051045
3152	-0.076270
3148	-0.091052
3144	-0.005817
3140	0.078368
3136	0.040149
3132	-0.020980
3128	0.019049
3124	0.060248
3120	0.052666
3116	0.002264
3112	-0.041675
3108	0.013375
3104	0.106358
3100	0.170493
3096	0.163412
3092	0.138545
3088	0.189232
3084	0.176835
3080	0.031828
3076	-0.076889
3072	-0.049996
3068	0.027513
3064	0.016617
3060	0.011849
3056	0.096845
3052	0.132751
3048	0.088691
3044	0.046968
3040	0.045466
3036	0.029206
3032	-0.003790
3028	-0.014066
3024	-0.033307
3020	-0.024676
3016	0.020122
3012	0.048732
3008	0.039553
3004	0.016951
3000	-0.009918
2996	-0.044250
2992	-0.042939
2988	0.006628
2984	0.078177
2980	0.077676
2976	0.016498
2972	-0.001239
2968	-0.003290
2964	0.001859
2960	0.026941
2956	0.048446
2952	0.044274
2948	-0.025177
2944	-0.074386
2940	-0.041389
2936	0.012445
2932	0.037765
2928	0.024294
2924	0.040578
2920	0.045418
2916	0.001502
2912	-0.030922
2908	-0.038766
2904	-0.003147
2900	0.052046
2896	0.088477
2892	0.095319
2888	0.107765
2884	0.108671
2880	0.053000
2876	0.046491
2872	0.104284
2868	0.107288
2864	0.050902
2860	0.021696
2856	0.023484
2852	0.034236
2848	0.106167
2844	0.164389
2840	0.094556
2836	-0.033950
2832	-0.073361
2828	-0.009346
2824	0.050258
2820	0.060677
2816	0.092577
2812	0.162887
2808	0.184321
2804	0.114893
2800	0.012135
2796	-0.013995
2792	0.040102
2788	0.059986
2784	0.044107
2780	0.065064
2776	0.079798
2772	0.100159
2768	0.137257
2764	0.084233
2760	0.020837
2756	0.061607
2752	0.133037
2748	0.143575
2744	0.084686
2740	0.059175
2736	0.085330
2732	0.104641
2728	0.119805
2724	0.134015
2720	0.137138
2716	0.081682
2712	0.036573
2708	0.070476
2704	0.089859
2700	0.069212
2696	0.024819
2692	-0.039219
2688	-0.065517
2684	-0.041818
2680	-0.004506
2676	0.051116
2672	0.104475
2668	0.114703
2664	0.120282
2660	0.123834
2656	0.093555
2652	0.063776
2648	0.047039
2644	0.023484
2640	-0.005364
2636	0.000524
2632	0.048351
2628	0.074863
2624	0.077176
2620	0.060653
2616	0.023579
2612	-0.017046
2608	-0.073337
2604	-0.067687
2600	-0.000643
2596	-0.012230
2592	-0.069069
2588	-0.042176
2584	0.057864
2580	0.112056
2576	0.112342
2572	0.076031
2568	0.013089
2564	-0.037288
2560	-0.058126
2556	-0.029230
2552	-0.020027
2548	-0.076770
2544	-0.076127
2540	-0.029373
2536	0.035715
2532	0.106143
2528	0.067639
2524	-0.031185
2520	-0.052356
2516	-0.003480
2512	0.033140
2508	0.020551
2504	-0.010108
2500	0.004553
2496	0.074744
2492	0.118732
2488	0.101065
2484	0.075316
2480	0.063323
2476	0.043654
2472	0.027680
2468	0.052499
2464	0.067806
2460	0.037479
2456	0.016880
2452	0.030183
2448	0.064897
2444	0.077295
2440	0.085377
2436	0.143408
2432	0.191712
2428	0.169992
2424	0.073552
2420	0.026273
2416	0.076985
2412	0.102066
2408	0.099611
2404	0.078654
2400	0.050258
2396	0.051116
2392	0.069236
2388	0.108075
2384	0.121188
2380	0.072479
2376	0.046849
2372	0.081491
2368	0.076532
2364	0.048398
2360	0.096511
2356	0.155711
2352	0.157284
2348	0.158977
2344	0.200700
2340	0.258493
2336	0.318050
2332	0.358414
2328	0.362753
2324	0.343704
2320	0.334501
2316	0.378394
2312	0.454616
2308	0.521802
2304	0.566768
2300	0.582480
2296	0.650238
2292	0.788092
2288	0.891566
2284	0.995588
2280	1.103615
2276	1.135039
2272	1.147079
2268	1.218080
2264	1.347732
2260	1.479053
2256	1.593565
2252	1.758861
2248	1.957368
2244	2.097678
2240	2.226161
2236	2.419543
2232	2.660703
2228	2.889490
2224	3.053092
2220	3.187680
2216	3.385782
2212	3.674077
2208	3.996014
2204	4.304933
2200	4.567313
2196	4.792189
2192	5.061411
2188	5.356216
2184	5.598616
2180	5.869841
2176	6.218910
2172	6.567811
2168	6.902885
2164	7.236289
2160	7.612538
2156	8.056926
2152	8.470368
2148	8.820343
2144	9.178757
2140	9.575152
2136	9.964585
2132	10.3253
2128	10.6888
2124	11.0698
2120	11.4948
2116	11.9523
2112	12.3513
2108	12.6837
2104	13.041
2100	13.4564
2096	13.8894
2092	14.2577
2088	14.5302
2084	14.8433
2080	15.2847
2076	15.7246
2072	16.104
2068	16.4442
2064	16.7889
2060	17.1857
2056	17.5594
2052	17.8856
2048	18.1801
2044	18.463
2040	18.8014
2036	19.1454
2032	19.4091
2028	19.641
2024	19.8901
2020	20.1193
2016	20.3476
2012	20.6409
2008	20.9617
2004	21.2215
2000	21.4383
1996	21.6747
1992	21.9378
1988	22.2167
1984	22.4585
1980	22.6516
1976	22.8263
1972	23.0013
1968	23.1963
1964	23.3651
1960	23.5272
1956	23.7114
1952	23.8951
1948	24.103
1944	24.2865
1940	24.4164
1936	24.5552
1932	24.7165
1928	24.8671
1924	24.9717
1920	25.0487
1916	25.1287
1912	25.2287
1908	25.32
1904	25.3818
1900	25.4747
1896	25.6038
1892	25.7359
1888	25.8583
1884	25.9612
1880	26.0372
1876	26.1009
1872	26.1606
1868	26.2129
1864	26.2916
1860	26.4165
1856	26.5567
1852	26.6383
1848	26.6525
1844	26.696
1840	26.7791
1836	26.8165
1832	26.8229
1828	26.8783
1824	26.9854
1820	27.0796
1816	27.1198
1812	27.1264
1808	27.1329
1804	27.1428
1800	27.137
1796	27.1729
1792	27.2634
1788	27.2801
1784	27.2358
1780	27.2405
1776	27.3079
1772	27.3975
1768	27.4647
1764	27.5224
1760	27.5725
1756	27.5908
1752	27.5938
1748	27.56
1744	27.4872
1740	27.4637
1736	27.5207
1732	27.6166
1728	27.6945
1724	27.6925
1720	27.6664
1716	27.7116
1712	27.7776
1708	27.8043
1704	27.8341
1700	27.8822
1696	27.8851
1692	27.8355
1688	27.8246
1684	27.8444
1680	27.8352
1676	27.8242
1672	27.8007
1668	27.7699
1664	27.7921
1660	27.8449
1656	27.8887
1652	27.95
1648	28.0227
1644	28.0391
1640	27.9997
1636	27.9862
1632	27.9857
1628	27.9131
1624	27.8229
1620	27.7955
1616	27.8112
1612	27.8466
1608	27.885
1604	27.9004
1600	27.9456
1596	28.0756
1592	28.1691
1588	28.1381
1584	28.0766
1580	28.0647
1576	28.1272
1572	28.1809
1568	28.1166
1564	28.0075
1560	27.912
1556	27.8095
1552	27.7751
1548	27.8966
1544	28.0528
1540	28.0727
1536	28.0576
1532	28.1181
1528	28.1908
1524	28.2231
1520	28.2089
1516	28.1407
1512	28.0967
1508	28.1174
1504	28.071
1500	27.981
1496	27.9709
1492	28.0133
1488	28.0849
1484	28.1458
1480	28.1657
1476	28.2034
1472	28.2224
1468	28.1722
1464	28.1264
1460	28.108
1456	28.0619
1452	28.0315
1448	28.0489
1444	28.0317
1440	27.9288
1436	27.802
1432	27.7889
1428	27.95
1424	28.1353
1420	28.1585
1416	28.1632
1412	28.2612
1408	28.2694
1404	28.1965
1400	28.1652
1396	28.1554
1392	28.1451
1388	28.1003
1384	27.9943
1380	27.9191
1376	27.9526
1372	28.0081
1368	28.0276
1364	28.0717
1360	28.1544
1356	28.2198
1352	28.2449
1348	28.2816
1344	28.32
1340	28.2958
1336	28.2138
1332	28.1443
1328	28.1441
1324	28.1276
1320	28.0909
1316	28.115
1312	28.1303
1308	28.1077
1304	28.1482
1300	28.2632
1296	28.3028
1292	28.2701
1288	28.2993
1284	28.3527
1280	28.3241
1276	28.214
1272	28.1102
1268	28.0612
1264	28.044
1260	28.0242
1256	28.0233
1252	28.0631
1248	28.1361
1244	28.238
1240	28.2968
1236	28.2943
1232	28.3277
1228	28.4049
1224	28.3783
1220	28.197
1216	28.0333
1212	28.0184
1208	28.0771
1204	28.0475
1200	27.951
1196	27.9297
1192	27.9732
1188	28.0448
1184	28.1537
1180	28.248
1176	28.2792
1172	28.262
1168	28.2454
1164	28.2167
1160	28.1606
1156	28.0861
1152	27.9721
1148	27.8579
1144	27.7933
1140	27.8104
1136	27.8494
1132	27.8357
1128	27.8483
1124	27.8678
1120	27.8693
1116	27.9602
1112	28.0798
1108	28.1201
1104	28.0343
1100	27.8835
1096	27.8126
1092	27.7604
1088	27.6416
1084	27.5152
1080	27.447
1076	27.498
1072	27.6141
1068	27.628
1064	27.5825
1060	27.6932
1056	27.8635
1052	27.8003
1048	27.6097
1044	27.5661
1040	27.6069
1036	27.5596
1032	27.3912
1028	27.2449
1024	27.1954
1020	27.1093
1016	26.9541
1012	26.9113
1008	27.066
1004	27.2643
1000	27.3611
996	 27.3583
992	 27.3332
988	 27.3379
984	 27.4074
980	 27.4128
976	 27.1686
972	 26.9501
968	 26.9372
964	 26.8528
960	 26.6679
956	 26.6128
952	 26.6972
948	 26.7898
944	 26.8473
940	 26.8328
936	 26.7509
932	 26.7115
928	 26.7443
924	 26.773
920	 26.6783
916	 26.4585
912	 26.2712
908	 26.2282
904	 26.3304
900	 26.2935
896	 26.0831
892	 26.021
888	 26.0268
884	 25.9851
880	 26.0312
876	 26.0784
872	 25.9718
868	 25.8819
864	 25.9292
860	 26.0337
856	 26.0787
852	 25.9204
848	 25.6565
844	 25.4661
840	 25.2855
836	 25.1506
832	 25.1897
828	 25.2086
824	 25.0124
820	 24.9807
816	 25.2673
812	 25.3485
808	 25.1744
804	 25.0912
800	 25.0875
796	 25.1583
792	 25.1432
788	 24.8324
784	 24.5328
780	 24.3917
776	 24.2508
772	 24.1691
768	 24.2184
764	 24.2933
760	 24.4241
756	 24.5718
752	 24.489
748	 24.4097
744	 24.54
740	 24.5229
736	 24.2853
732	 23.9935
728	 23.6918
724	 23.5624
720	 23.5749
716	 23.4196
712	 23.2
708	 23.1771
704	 23.3092
700	 23.416
696	 23.324
692	 23.2303
688	 23.4089
684	 23.5292
680	 23.3728
676	 23.2176
672	 23.0611
668	 22.8555
664	 22.7123
660	 22.4485
656	 22.1753
652	 22.1542
648	 22.319
644	 22.5082
640	 22.4991
636	 22.3397
632	 22.2066
628	 22.0209
624	 21.8298
620	 21.8882
616	 21.9064
612	 21.5154
608	 21.1241
604	 21.1229
600	 21.1948
596	 20.9886
592	 20.7796
588	 20.8126
584	 20.8671
580	 20.9478
576	 21.1179
572	 21.1321
568	 20.945
564	 20.8694
560	 20.9807
556	 20.893
552	 20.4256
548	 20.0072
544	 19.6771
540	 19.2861
536	 19.2476
532	 19.2518
528	 19.2121
524	 19.7332
520	 20.1368
516	 19.6777
512	 19.3326
508	 19.4905
504	 19.2139
500	 18.7586
496	 18.681
492	 18.3456
488	 17.5681
484	 17.1319
480	 17.2002
476	 16.8689
472	 16.1113
468	 15.6328
464	 15.9901
460	 16.5582
456	 16.3317
452	 16.5646
448	 17.4351
444	 17.0428
440	 16.3657
436	 17.9954
432	 19.0014
428	 17.0115
424	 17.1844
420	 21.1652
416	 24.2609
412	 23.91
408	 21.5064
404	 18.3326
400	 16.776
396	 21.6204
392	 30.4699
388	 34.8278
384	 36.6976
380	 30.822
376	 17.476
372	 25.7112
370	 45.6232