File: Bakgrunnsmateriale/MATLAB/FTIR/ftir_data/LPE454/Mapping_121/LPE454_t120_cm-1.asc
PE IR       SPECTRUM    SPECTRUM    ASCII       PEDS        1.60
  -1
LP03D7~1.ASC
17/05/20
00:29:02.00
17/05/20
00:29:02.00
tln
$LPE454_t0120$<tbV0>[-10.4,13.0,8.0,0.0,27,1,0]
370
64

2002,4.07
MIRTGS : RIGHTBACK : INTERNAL 2
MIR : ON : INTERNAL 2
OPTKBR

0.200000
8
8.000000
FILLER
RATIO
SPECTRUM
UNLOCKED 256

DOUBLE
64
COMBINED
1
0
0

1.000000
RATIO

1
0
TRUE
51149
0
LEFT NOT FITTED RIGHT NOT FITTED 0
NONE
NONE
15600
12
4.427000
51148
TRUE
1 0 8 72 0 0 0 0

15798

#HDR
-1
-1
#GR
CM-1
%T
2.38419e-05
0.0
5000
-1.000000
4631
8
32.0673
-22.1326
#DATA
5000	0.463438
4996	0.202274
4992	-0.088071
4988	-0.260829
4984	-0.093507
4980	0.373864
4976	0.733470
4972	0.679731
4968	0.303125
4964	0.058794
4960	0.105500
4956	0.269007
4952	0.370287
4948	0.258922
4944	0.073957
4940	-0.018548
4936	-0.117039
4932	-0.277090
4928	-0.387144
4924	-0.263166
4920	-0.001716
4916	0.251722
4912	0.365591
4908	0.207710
4904	0.040292
4900	-0.097274
4896	-0.111484
4892	0.154423
4888	0.170826
4884	-0.044870
4880	-0.003957
4876	0.070786
4872	-0.104832
4868	-0.257945
4864	-0.152277
4860	0.027394
4856	0.038242
4852	-0.093317
4848	-0.187706
4844	-0.113534
4840	0.011420
4836	0.094771
4832	0.244522
4828	0.342750
4824	0.292921
4820	0.198125
4816	0.078296
4812	0.049734
4808	0.147891
4804	0.134253
4800	-0.029635
4796	-0.067591
4792	-0.058650
4788	-0.033092
4784	0.172924
4780	0.268626
4776	0.220751
4772	0.237631
4768	0.236225
4764	0.285458
4760	0.398755
4756	0.432705
4752	0.452256
4748	0.420737
4744	0.376248
4740	0.364828
4736	0.266671
4732	0.216841
4728	0.303006
4724	0.320243
4720	0.240683
4716	0.288105
4712	0.364017
4708	0.290012
4704	0.230240
4700	0.129699
4696	0.012803
4692	0.130033
4688	0.220608
4684	0.135636
4680	0.151085
4676	0.314545
4672	0.426030
4668	0.399351
4664	0.343966
4660	0.300288
4656	0.301766
4652	0.497174
4648	0.709056
4644	0.527310
4640	0.028324
4636	-0.043439
4632	0.381517
4628	0.630593
4624	0.479412
4620	0.109505
4616	0.046825
4612	0.605082
4608	1.155114
4604	1.486039
4600	1.251339
4596	-0.052738
4592	-0.412893
4588	2.179121
4584	5.340385
4580	7.206106
4576	5.974841
4572	2.959704
4568	1.087808
4564	-0.896954
4560	-2.501964
4556	-2.390599
4552	-0.979566
4548	-0.145578
4544	-0.314974
4540	-0.225472
4536	0.174999
4532	0.556731
4528	0.429511
4524	-0.043606
4520	0.106167
4516	0.377702
4512	0.278091
4508	0.414490
4504	0.699853
4500	0.694108
4496	0.494480
4492	0.354409
4488	0.413537
4484	0.556230
4480	0.563812
4476	0.376129
4472	0.162124
4468	0.115776
4464	0.194001
4460	0.159978
4456	0.046944
4452	0.093746
4448	0.185251
4444	0.145316
4440	0.156831
4436	0.297164
4432	0.300621
4428	0.084757
4424	0.039410
4420	0.227665
4416	0.354385
4412	0.300765
4408	0.078940
4404	-0.122737
4400	-0.174665
4396	-0.100088
4392	0.115132
4388	0.197505
4384	0.058126
4380	0.036144
4376	0.149226
4372	0.108337
4368	-0.113368
4364	-0.128912
4360	0.079417
4356	0.079107
4352	-0.071263
4348	-0.075197
4344	0.005054
4340	-0.069928
4336	-0.182843
4332	-0.056529
4328	0.137567
4324	0.260496
4320	0.332307
4316	0.354480
4312	0.218582
4308	-0.150370
4304	-0.390958
4300	-0.244569
4296	-0.055313
4292	-0.003576
4288	0.121951
4284	0.291419
4280	0.382542
4276	0.339174
4272	0.162410
4268	0.039649
4264	0.008726
4260	0.093173
4256	0.259876
4252	0.308346
4248	0.271582
4244	0.286126
4240	0.270390
4236	0.042629
4232	-0.149726
4228	-0.075721
4224	0.020432
4220	0.121331
4216	0.257539
4212	0.285840
4208	0.364041
4204	0.383520
4200	-0.113439
4196	-0.829148
4192	-0.936126
4188	-0.444531
4184	0.049328
4180	0.030827
4176	-0.366115
4172	-0.072550
4168	0.986170
4164	1.823067
4160	1.952815
4156	1.411294
4152	0.590205
4148	0.205254
4144	0.433135
4140	0.545930
4136	0.915384
4132	1.653981
4128	1.234102
4124	0.443100
4120	0.587105
4116	0.712895
4112	0.396203
4108	0.162792
4104	0.340700
4100	0.487589
4096	0.247311
4092	-0.089573
4088	-0.109672
4084	-0.001072
4080	-0.144529
4076	-0.065159
4072	0.192093
4068	0.198841
4064	0.107693
4060	0.042843
4056	-0.073266
4052	-0.149488
4048	-0.182104
4044	-0.244379
4040	-0.119519
4036	0.163245
4032	0.282740
4028	0.218677
4024	0.057911
4020	-0.114130
4016	-0.106716
4012	0.095224
4008	0.223207
4004	0.186300
4000	0.008893
3996	-0.196957
3992	-0.209665
3988	-0.076532
3984	0.023579
3980	0.056457
3976	0.050735
3972	0.019526
3968	-0.032520
3964	-0.043201
3960	0.025868
3956	0.062966
3952	0.040626
3948	0.025701
3944	0.053286
3940	0.111937
3936	0.129652
3932	0.134444
3928	0.144338
3924	0.093603
3920	0.043988
3916	0.112175
3912	0.220870
3908	0.265288
3904	0.248360
3900	0.171685
3896	0.112891
3892	0.077652
3888	0.045204
3884	0.061559
3880	0.059580
3876	0.038146
3872	0.021982
3868	0.033378
3864	0.125789
3860	0.179457
3856	0.152087
3852	0.135898
3848	0.114798
3844	0.018119
3840	-0.118136
3836	-0.102925
3832	0.024247
3828	0.095486
3824	0.114369
3820	0.067186
3816	-0.008440
3812	-0.039792
3808	0.014185
3804	0.141382
3800	0.190019
3796	0.126600
3792	0.090813
3788	0.111389
3784	0.092482
3780	0.023484
3776	0.011134
3772	0.071787
3768	0.174522
3764	0.261139
3760	0.269031
3756	0.196290
3752	0.057220
3748	-0.020742
3744	0.023913
3740	0.068044
3736	0.064492
3732	0.085210
3728	0.102782
3724	0.086259
3720	0.078296
3716	0.030803
3712	-0.042390
3708	0.011157
3704	0.124788
3700	0.123596
3696	0.153684
3692	0.230526
3688	0.165176
3684	0.062870
3680	-0.015187
3676	-0.084447
3672	-0.073385
3668	-0.001811
3664	0.101256
3660	0.227046
3656	0.258708
3652	0.136613
3648	-0.044894
3644	-0.177121
3640	-0.147128
3636	0.025510
3632	0.126981
3628	0.085568
3624	0.052309
3620	0.037789
3616	0.009918
3612	0.016212
3608	0.030660
3604	0.060176
3600	0.132322
3596	0.173139
3592	0.163269
3588	0.154590
3584	0.076270
3580	0.005722
3576	0.102424
3572	0.277996
3568	0.295853
3564	0.151133
3560	-0.002169
3556	-0.040388
3552	0.011253
3548	-0.013041
3544	-0.088930
3540	-0.115466
3536	-0.078892
3532	0.000667
3528	0.063896
3524	0.088071
3520	0.044870
3516	0.015497
3512	0.075054
3508	0.113081
3504	0.133705
3500	0.162577
3496	0.104403
3492	0.021409
3488	0.026798
3484	0.084662
3480	0.118756
3476	0.104236
3472	0.051522
3468	-0.002312
3464	0.011801
3460	0.052547
3456	0.065231
3452	0.090885
3448	0.095176
3444	0.125265
3440	0.145101
3436	0.032186
3432	-0.049781
3428	-0.014996
3424	0.055813
3420	0.083327
3416	0.049495
3412	0.080466
3408	0.164985
3404	0.143432
3400	0.054621
3396	0.029301
3392	0.037622
3388	0.038409
3384	0.038790
3380	0.038218
3376	0.052165
3372	0.042247
3368	-0.003194
3364	0.007724
3360	0.082564
3356	0.124406
3352	0.057697
3348	0.003385
3344	0.099825
3340	0.182890
3336	0.147628
3332	0.112652
3328	0.100183
3324	0.056362
3320	0.026822
3316	0.042986
3312	0.034546
3308	-0.036716
3304	-0.103354
3300	-0.057768
3296	0.065755
3292	0.139379
3288	0.121164
3284	0.056791
3280	0.016522
3276	0.042247
3272	0.061583
3268	0.018596
3264	0.050568
3260	0.111031
3256	0.075459
3252	0.030016
3248	-0.011086
3244	-0.043368
3240	0.010108
3236	0.076675
3232	0.056004
3228	-0.016450
3224	-0.060391
3220	-0.027012
3216	0.020813
3212	0.036096
3208	-0.031614
3204	-0.041222
3200	0.151276
3196	0.223827
3192	0.140523
3188	0.132131
3184	0.089907
3180	-0.049781
3176	-0.113725
3172	-0.009369
3168	0.147342
3164	0.164341
3160	0.096464
3156	0.047302
3152	-0.021338
3148	-0.039982
3144	0.065732
3140	0.195956
3136	0.174260
3132	0.002646
3128	-0.102233
3124	-0.020074
3120	0.089764
3116	0.040793
3112	-0.029826
3108	0.061678
3104	0.166416
3100	0.101494
3096	0.007319
3092	0.024986
3088	0.076174
3084	0.111031
3080	0.080442
3076	0.017619
3072	-0.039958
3068	-0.144433
3064	-0.182414
3060	-0.084066
3056	0.028800
3052	0.062870
3048	0.040030
3044	-0.001072
3040	-0.025558
3036	0.002217
3032	0.023269
3028	-0.023293
3024	-0.062417
3020	-0.055718
3016	-0.056600
3012	-0.052165
3008	-0.014996
3004	0.062012
3000	0.143122
2996	0.192284
2992	0.229263
2988	0.208425
2984	0.104880
2980	0.036478
2976	0.064015
2972	0.124335
2968	0.182795
2964	0.217485
2960	0.144290
2956	0.002145
2952	-0.045156
2948	-0.026106
2944	-0.036406
2940	-0.047063
2936	-0.028777
2932	0.043082
2928	0.125718
2924	0.106930
2920	0.038766
2916	0.015449
2912	0.036144
2908	0.075554
2904	0.075984
2900	0.081944
2896	0.090003
2892	0.048375
2888	0.038337
2884	0.068187
2880	0.073409
2876	0.063514
2872	0.088667
2868	0.109934
2864	0.057172
2860	-0.008821
2856	-0.031471
2852	-0.021910
2848	0.036644
2844	0.114417
2840	0.112199
2836	0.045061
2832	0.010776
2828	0.016641
2824	0.008344
2820	-0.015664
2816	-0.008034
2812	0.052571
2808	0.091361
2804	0.079202
2800	0.080966
2796	0.084257
2792	0.067639
2788	0.031447
2784	0.001764
2780	0.028872
2776	0.075674
2772	0.110268
2768	0.102901
2764	0.044202
2760	0.007629
2756	0.000238
2752	-0.001931
2748	-0.047707
2744	-0.100755
2740	-0.048542
2736	0.031471
2732	0.029397
2728	0.030755
2724	0.077009
2720	0.049304
2716	-0.006008
2712	0.007295
2708	0.050568
2704	0.082159
2700	0.070261
2696	0.022745
2692	0.011372
2688	0.072884
2684	0.099825
2680	0.059342
2676	0.044560
2672	0.041890
2668	0.003933
2664	-0.030350
2660	-0.020933
2656	0.002837
2652	0.041747
2648	0.110960
2644	0.116562
2640	0.040578
2636	0.021648
2632	0.078868
2628	0.104641
2624	0.071215
2620	0.005292
2616	-0.042796
2612	-0.012779
2608	0.002741
2604	-0.041222
2600	-0.033879
2596	0.032997
2592	0.115442
2588	0.162363
2584	0.130176
2580	0.099825
2576	0.095248
2572	0.081562
2568	0.066375
2564	0.047564
2560	0.019788
2556	0.009274
2552	0.043487
2548	0.065541
2544	0.044989
2540	0.031352
2536	-0.004959
2532	-0.025224
2528	0.033879
2524	0.069570
2520	0.011515
2516	-0.074720
2512	-0.091814
2508	-0.005602
2504	0.108933
2500	0.131130
2496	0.051188
2492	-0.041770
2488	-0.063443
2484	-0.008606
2480	0.032901
2476	0.025367
2472	0.014042
2468	0.043582
2464	0.062847
2460	0.008845
2456	-0.010752
2452	0.043845
2448	0.085496
2444	0.098085
2440	0.079584
2436	0.007486
2432	-0.028848
2428	0.000333
2424	-0.007128
2420	0.009965
2416	0.079321
2412	0.090336
2408	0.067281
2404	0.117707
2400	0.166702
2396	0.121355
2392	0.098776
2388	0.149798
2384	0.166606
2380	0.115489
2376	0.065231
2372	0.042438
2368	0.042343
2364	0.096535
2360	0.156998
2356	0.146961
2352	0.117349
2348	0.136446
2344	0.208950
2340	0.277233
2336	0.308847
2332	0.315713
2328	0.332212
2324	0.381422
2320	0.395035
2316	0.408434
2312	0.517940
2308	0.639557
2304	0.689339
2300	0.737023
2296	0.835251
2292	0.928354
2288	0.973749
2284	1.014804
2280	1.115870
2276	1.253294
2272	1.353311
2268	1.404237
2264	1.501822
2260	1.672172
2256	1.857137
2252	2.072024
2248	2.263975
2244	2.406883
2240	2.554273
2236	2.708745
2232	2.909803
2228	3.178071
2224	3.453826
2220	3.714084
2216	3.935980
2212	4.130339
2208	4.386591
2204	4.663062
2200	4.922318
2196	5.237579
2192	5.574226
2188	5.903410
2184	6.262445
2180	6.627249
2176	6.973910
2172	7.348299
2168	7.768058
2164	8.142757
2160	8.468866
2156	8.886075
2152	9.397101
2148	9.819579
2144	10.1186
2140	10.4647
2136	10.9489
2132	11.4958
2128	11.9604
2124	12.3477
2120	12.7516
2116	13.1614
2112	13.5946
2108	14.075
2104	14.5468
2100	14.9602
2096	15.3628
2092	15.8239
2088	16.2995
2084	16.6894
2080	17.0257
2076	17.4072
2072	17.7612
2068	18.1005
2064	18.5669
2060	19.0659
2056	19.4384
2052	19.7732
2048	20.1755
2044	20.5624
2040	20.8894
2036	21.1979
2032	21.4868
2028	21.7793
2024	22.1341
2020	22.489
2016	22.7568
2012	22.9799
2008	23.2229
2004	23.4929
2000	23.781
1996	24.0523
1992	24.2889
1988	24.5692
1984	24.8804
1980	25.1025
1976	25.2563
1972	25.4831
1968	25.767
1964	25.9719
1960	26.1023
1956	26.2524
1952	26.4662
1948	26.715
1944	26.9397
1940	27.1451
1936	27.3705
1932	27.5647
1928	27.7111
1924	27.845
1920	27.9571
1916	28.0705
1912	28.1986
1908	28.3177
1904	28.3881
1900	28.4394
1896	28.5475
1892	28.6956
1888	28.8441
1884	28.9941
1880	29.1741
1876	29.3688
1872	29.4768
1868	29.4985
1864	29.5241
1860	29.5696
1856	29.6177
1852	29.6619
1848	29.7331
1844	29.8228
1840	29.8797
1836	29.9566
1832	30.0972
1828	30.2282
1824	30.3136
1820	30.3866
1816	30.4719
1812	30.5393
1808	30.5463
1804	30.5538
1800	30.6202
1796	30.6733
1792	30.6473
1788	30.592
1784	30.6203
1780	30.7494
1776	30.8362
1772	30.8718
1768	30.9566
1764	31.0301
1760	31.0704
1756	31.1168
1752	31.1213
1748	31.1017
1744	31.1178
1740	31.1474
1736	31.1437
1732	31.136
1728	31.1779
1724	31.213
1720	31.239
1716	31.269
1712	31.2461
1708	31.2175
1704	31.2681
1700	31.392
1696	31.4866
1692	31.494
1688	31.4536
1684	31.4227
1680	31.4121
1676	31.3862
1672	31.3491
1668	31.331
1664	31.3681
1660	31.4685
1656	31.5817
1652	31.642
1648	31.6451
1644	31.6612
1640	31.7142
1636	31.7234
1632	31.6786
1628	31.6729
1624	31.6809
1620	31.6373
1616	31.5981
1612	31.6013
1608	31.5772
1604	31.5624
1600	31.6694
1596	31.78
1592	31.7771
1588	31.7836
1584	31.908
1580	32.0328
1576	31.9871
1572	31.8447
1568	31.764
1564	31.7374
1560	31.6733
1556	31.5857
1552	31.5554
1548	31.6282
1544	31.8048
1540	31.932
1536	31.9423
1532	31.9374
1528	31.9429
1524	31.9741
1520	32.024
1516	31.9976
1512	31.8962
1508	31.7933
1504	31.732
1500	31.7511
1496	31.7953
1492	31.7964
1488	31.7935
1484	31.7806
1480	31.8074
1476	31.9348
1472	32.0127
1468	31.9575
1464	31.9011
1460	31.8954
1456	31.8463
1452	31.7532
1448	31.7363
1444	31.7592
1440	31.754
1436	31.7662
1432	31.7702
1428	31.7874
1424	31.8467
1420	31.8692
1416	31.8552
1412	31.8981
1408	31.9849
1404	32.0184
1400	32.052
1396	32.0567
1392	31.9469
1388	31.8349
1384	31.7639
1380	31.7048
1376	31.6931
1372	31.7005
1368	31.7107
1364	31.7724
1360	31.8361
1356	31.8554
1352	31.8977
1348	31.9843
1344	32.0482
1340	32.0485
1336	31.9927
1332	31.9193
1328	31.8382
1324	31.7652
1320	31.739
1316	31.7119
1312	31.67
1308	31.701
1304	31.7991
1300	31.8748
1296	31.9335
1292	31.97
1288	31.9722
1284	32.0076
1280	32.0257
1276	31.9489
1272	31.8559
1268	31.7772
1264	31.6963
1260	31.6619
1256	31.6245
1252	31.5752
1248	31.6356
1244	31.7615
1240	31.8233
1236	31.8245
1232	31.792
1228	31.7643
1224	31.7848
1220	31.7941
1216	31.7704
1212	31.7271
1208	31.652
1204	31.5642
1200	31.4977
1196	31.4722
1192	31.4798
1188	31.5296
1184	31.591
1180	31.6558
1176	31.7838
1172	31.8771
1168	31.8104
1164	31.7446
1160	31.7757
1156	31.7305
1152	31.5849
1148	31.4682
1144	31.3827
1140	31.2679
1136	31.1908
1132	31.2357
1128	31.3439
1124	31.4296
1120	31.4629
1116	31.488
1112	31.5097
1108	31.5068
1104	31.5367
1100	31.5655
1096	31.5562
1092	31.5262
1088	31.4155
1084	31.2256
1080	31.0682
1076	31.0006
1072	30.9917
1068	31.007
1064	31.0766
1060	31.2004
1056	31.2701
1052	31.2552
1048	31.2387
1044	31.2843
1040	31.3497
1036	31.2776
1032	31.0861
1028	30.8948
1024	30.7334
1020	30.6928
1016	30.7419
1012	30.7383
1008	30.6972
1004	30.7311
1000	30.8193
996	 30.901
992	 31.0247
988	 31.1211
984	 31.0634
980	 30.9325
976	 30.8048
972	 30.6572
968	 30.5117
964	 30.4305
960	 30.461
956	 30.4347
952	 30.1955
948	 30.055
944	 30.2208
940	 30.4704
936	 30.6623
932	 30.7115
928	 30.6371
924	 30.5759
920	 30.5381
916	 30.4817
912	 30.3023
908	 30.009
904	 29.8269
900	 29.828
896	 29.875
892	 29.8516
888	 29.7481
884	 29.6854
880	 29.8037
876	 30.056
872	 30.126
868	 30.03
864	 30.0586
860	 30.1085
856	 29.9901
852	 29.7879
848	 29.5924
844	 29.3563
840	 29.1845
836	 29.0897
832	 28.9364
828	 28.8773
824	 28.9895
820	 29.1383
816	 29.3082
812	 29.4894
808	 29.6265
804	 29.5277
800	 29.2225
796	 29.1218
792	 29.1172
788	 28.8856
784	 28.6771
780	 28.582
776	 28.4285
772	 28.3678
768	 28.4341
764	 28.455
760	 28.4445
756	 28.5759
752	 28.8107
748	 28.8245
744	 28.6324
740	 28.4211
736	 28.1585
732	 27.9856
728	 27.9907
724	 28.0456
720	 27.9779
716	 27.7436
712	 27.5595
708	 27.5417
704	 27.6249
700	 27.6983
696	 27.7229
692	 27.7262
688	 27.7163
684	 27.725
680	 27.6776
676	 27.5451
672	 27.4138
668	 27.2471
664	 26.9972
660	 26.7756
656	 26.6292
652	 26.5471
648	 26.6287
644	 26.7718
640	 26.7509
636	 26.5816
632	 26.5433
628	 26.6839
624	 26.7332
620	 26.6827
616	 26.5091
612	 26.154
608	 25.8432
604	 25.7086
600	 25.6627
596	 25.5489
592	 25.4218
588	 25.3782
584	 25.3921
580	 25.4669
576	 25.4381
572	 25.5577
568	 25.9131
564	 25.9343
560	 25.8166
556	 25.9019
552	 25.5769
548	 24.7717
544	 24.4158
540	 24.5087
536	 24.3762
532	 24.0507
528	 23.9455
524	 24.1677
520	 24.2666
516	 24.1203
512	 24.1322
508	 24.1683
504	 24.0546
500	 24.1497
496	 24.4319
492	 24.4766
488	 23.6875
484	 22.518
480	 22.4674
476	 22.9389
472	 23.272
468	 24.1023
464	 24.2114
460	 22.5136
456	 20.3922
452	 19.2296
448	 19.6147
444	 20.823
440	 20.8895
436	 20.3543
432	 19.885
428	 18.9299
424	 18.4854
420	 18.3054
416	 16.847
412	 16.7998
408	 20.9644
404	 25.6084
400	 27.4705
396	 25.8003
392	 21.1368
388	 14.539
384	 -2.715063
380	 -22.1326
376	 -6.371617
372	 21.7321
370	 29.8731