File: Bakgrunnsmateriale/MATLAB/FTIR/ftir_data/LPE454/Mapping_121/LPE454_t05_cm-1.asc
PE IR       SPECTRUM    SPECTRUM    ASCII       PEDS        1.60
  -1
LP673B~1.ASC
17/05/19
14:47:47.00
17/05/19
14:47:47.00
tln
$LPE454_t0005$<tbV0>[2.6,-13.0,8.0,0.0,27,1,0]
370
64

2002,4.07
MIRTGS : RIGHTBACK : INTERNAL 2
MIR : ON : INTERNAL 2
OPTKBR

0.200000
8
8.000000
FILLER
RATIO
SPECTRUM
UNLOCKED 256

DOUBLE
64
COMBINED
1
0
0

1.000000
RATIO

1
0
TRUE
51149
0
LEFT NOT FITTED RIGHT NOT FITTED 0
NONE
NONE
15600
12
4.427000
51148
TRUE
1 0 8 72 0 0 0 0

15798

#HDR
-1
-1
#GR
CM-1
%T
2.38419e-05
0.0
5000
-1.000000
4631
8
52.383
-50.1082
#DATA
5000	0.102663
4996	0.306177
4992	0.395393
4988	0.220489
4984	0.000119
4980	-0.062441
4976	-0.054883
4972	-0.082206
4968	0.123977
4964	0.522947
4960	0.696587
4956	0.617742
4952	0.339579
4948	-0.057005
4944	-0.054550
4940	0.236344
4936	0.257444
4932	0.111627
4928	0.308680
4924	0.779247
4920	0.890994
4916	0.810837
4912	0.683307
4908	0.187683
4904	-0.221109
4900	-0.050806
4896	0.185489
4892	0.271701
4888	0.712084
4884	0.767183
4880	0.016212
4876	-0.784015
4872	-1.284003
4868	-0.887942
4864	0.116205
4860	0.697922
4856	0.651574
4852	0.486493
4848	-0.062537
4844	-0.571489
4840	-0.524187
4836	0.154256
4832	1.047730
4828	1.265740
4824	1.433205
4820	1.507878
4816	0.905132
4812	0.394368
4808	0.293016
4804	0.160193
4800	0.226402
4796	0.730252
4792	0.806856
4788	-0.030446
4784	-0.847649
4780	-0.606846
4776	0.105094
4772	0.213980
4768	0.141215
4764	0.166964
4760	0.094556
4756	0.148129
4752	0.336098
4748	0.235629
4744	-0.081157
4740	-0.019574
4736	0.183629
4732	0.071930
4728	-0.182628
4724	-0.190567
4720	-0.146603
4716	-0.292181
4712	-0.360369
4708	-0.330209
4704	-0.317835
4700	-0.162696
4696	0.051927
4692	-0.038671
4688	-0.171518
4684	0.025510
4680	0.295853
4676	0.274491
4672	0.085186
4668	0.023269
4664	0.092768
4660	0.246381
4656	0.384926
4652	0.398516
4648	0.439691
4644	0.457954
4640	0.317740
4636	0.267672
4632	0.246453
4628	0.196933
4624	0.028705
4620	-0.307321
4616	-0.271487
4612	0.080180
4608	0.211358
4604	0.144267
4600	0.165796
4596	0.168466
4592	-0.032615
4588	-0.209093
4584	-0.081110
4580	0.112748
4576	0.082039
4572	0.041341
4568	0.093817
4564	0.057363
4560	-0.116395
4556	-0.106000
4552	0.031471
4548	-0.078868
4544	-0.163292
4540	-0.081181
4536	0.121498
4532	0.390696
4528	0.486207
4524	0.335240
4520	0.226712
4516	0.403547
4512	0.677967
4508	0.769591
4504	0.573611
4500	0.163316
4496	-0.019645
4492	-0.395369
4488	-1.104021
4484	-1.264715
4480	-1.411342
4476	0.095772
4472	8.312559
4468	12.4405
4464	4.904222
4460	0.561857
4456	2.060985
4452	3.085446
4448	2.128624
4444	0.389647
4440	0.335907
4436	0.301909
4432	-0.279760
4428	-0.514554
4424	-0.437831
4420	-0.358939
4416	-0.311756
4412	-0.371479
4408	-0.441050
4404	-0.194597
4400	0.106024
4396	0.033926
4392	-0.212931
4388	-0.204324
4384	0.012254
4380	0.132298
4376	0.010919
4372	-0.308084
4368	-0.422215
4364	-0.209021
4360	-0.052952
4356	0.009894
4352	0.003194
4348	-0.061178
4344	-0.043249
4340	0.011038
4336	0.168752
4332	0.340628
4328	0.278162
4324	0.110340
4320	-0.053167
4316	-0.187373
4312	-0.212955
4308	-0.195002
4304	-0.228738
4300	-0.221443
4296	-0.107598
4292	-0.082087
4288	-0.063729
4284	0.120759
4280	0.261068
4276	0.211691
4272	0.085949
4268	-0.014543
4264	-0.089073
4260	-0.151109
4256	-0.103592
4252	0.121951
4248	0.352525
4244	0.347948
4240	0.177836
4236	-0.010275
4232	-0.128889
4228	-0.071048
4224	-0.002098
4220	0.033783
4216	0.135445
4212	0.130629
4208	0.009655
4204	0.084638
4200	0.427794
4196	0.515151
4192	0.085139
4188	-0.204491
4184	-0.047135
4180	-0.002598
4176	-0.269842
4172	-0.344252
4168	-0.070929
4164	0.107336
4160	0.023531
4156	0.060963
4152	0.214934
4148	0.156283
4144	0.068402
4140	0.098204
4136	0.167417
4132	0.253915
4128	0.227832
4124	0.095081
4120	0.071334
4116	0.027680
4112	-0.039863
4108	0.068879
4104	0.136160
4100	0.144743
4096	0.215864
4092	0.134873
4088	0.005269
4084	0.091195
4080	0.134491
4076	-0.019192
4072	-0.106096
4068	-0.075554
4064	-0.026655
4060	0.070309
4056	0.237870
4052	0.282549
4048	0.146460
4044	0.109314
4040	0.241374
4036	0.271177
4032	0.157856
4028	0.012373
4024	-0.057077
4020	-0.076150
4016	-0.139999
4012	-0.069379
4008	0.060772
4004	0.069141
4000	0.103950
3996	0.105237
3992	-0.004196
3988	-0.059127
3984	-0.029206
3980	0.034880
3976	0.085115
3972	0.066328
3968	0.028920
3964	0.006747
3960	-0.048232
3956	-0.137281
3952	-0.159215
3948	-0.049352
3944	0.069117
3940	0.092649
3936	0.130152
3932	0.190973
3928	0.135827
3924	0.037693
3920	-0.003790
3916	-0.065875
3912	-0.107192
3908	-0.067138
3904	0.015234
3900	0.069642
3896	0.038552
3892	-0.023889
3888	-0.016880
3884	0.063753
3880	0.127363
3876	0.143313
3872	0.092959
3868	0.036120
3864	0.105118
3860	0.155329
3856	0.071024
3852	0.018191
3848	0.036120
3844	0.051164
3840	0.052881
3836	0.020670
3832	-0.019574
3828	-0.098681
3824	-0.141263
3820	-0.012993
3816	0.065350
3812	-0.006246
3808	-0.040674
3804	0.059366
3800	0.180792
3796	0.196838
3792	0.137996
3788	0.058174
3784	0.009560
3780	0.026249
3776	0.038051
3772	-0.043964
3768	-0.107407
3764	-0.089550
3760	-0.123333
3756	-0.186371
3752	-0.158858
3748	-0.038623
3744	0.096344
3740	0.121998
3736	0.112485
3732	0.161552
3728	0.098538
3724	-0.027489
3720	-0.041866
3716	-0.040936
3712	-0.090670
3708	-0.066781
3704	0.028944
3700	0.078296
3696	0.093531
3692	0.126791
3688	0.138068
3684	0.104522
3680	0.111269
3676	0.159096
3672	0.182461
3668	0.146961
3664	0.046086
3660	-0.036692
3656	-0.019979
3652	0.042867
3648	0.011634
3644	-0.033783
3640	-0.017690
3636	-0.006961
3632	0.087785
3628	0.168561
3624	0.087189
3620	-0.055527
3616	-0.166082
3612	-0.176095
3608	-0.121116
3604	-0.084209
3600	-0.028705
3596	0.062990
3592	0.130057
3588	0.144553
3584	0.104975
3580	0.052261
3576	0.044441
3572	0.110101
3568	0.177526
3564	0.141310
3560	0.065684
3556	0.061607
3552	0.063180
3548	0.014281
3544	-0.014400
3540	0.005817
3536	0.028252
3532	0.057244
3528	0.088834
3524	0.032734
3520	-0.035834
3516	-0.023818
3512	0.019359
3508	0.039839
3504	-0.011873
3500	-0.100493
3496	-0.092625
3492	0.037860
3488	0.106525
3484	0.085043
3480	0.078940
3476	0.102186
3472	0.109219
3468	0.054192
3464	-0.008630
3460	-0.046777
3456	-0.042629
3452	0.009202
3448	0.041389
3444	-0.011396
3440	-0.045943
3436	-0.035142
3432	-0.024867
3428	-0.026226
3424	-0.052213
3420	0.002312
3416	0.079917
3412	0.061035
3408	0.062036
3404	0.062632
3400	-0.030016
3396	-0.084376
3392	-0.031137
3388	0.000596
3384	-0.053262
3380	-0.062608
3376	-0.028276
3372	-0.071454
3368	-0.061821
3364	0.096559
3360	0.240778
3356	0.248217
3352	0.175046
3348	0.093364
3344	0.008440
3340	-0.010275
3336	0.010180
3332	-0.021386
3328	-0.026059
3324	0.043344
3320	0.090432
3316	0.080132
3312	0.079441
3308	0.075411
3304	0.018787
3300	-0.019192
3296	0.042319
3292	0.143718
3288	0.123190
3284	0.020027
3280	-0.013542
3276	0.013518
3272	0.069475
3268	0.119209
3264	0.102353
3260	0.049901
3256	0.027608
3252	0.024318
3248	-0.020432
3244	-0.078701
3240	-0.063300
3236	-0.003600
3232	0.084710
3228	0.160408
3224	0.114655
3220	0.055623
3216	0.100708
3212	0.140380
3208	0.080680
3204	-0.034236
3200	-0.082302
3196	-0.065803
3192	-0.050258
3188	-0.052070
3184	-0.035715
3180	0.068736
3176	0.160789
3172	0.137233
3168	0.091814
3164	0.051426
3160	-0.031280
3156	-0.089025
3152	-0.047969
3148	0.040340
3144	0.018334
3140	-0.081110
3136	-0.009536
3132	0.216865
3128	0.329065
3124	0.195884
3120	-0.018358
3116	-0.086355
3112	-0.021862
3108	0.017094
3104	-0.028371
3100	-0.060153
3096	-0.021576
3092	0.018334
3088	0.033235
3084	-0.002598
3080	-0.074267
3076	-0.059151
3072	-0.004315
3068	-0.022244
3064	-0.028920
3060	0.025391
3056	0.056457
3052	0.046539
3048	0.042557
3044	0.006532
3040	-0.092387
3036	-0.136542
3032	-0.029325
3028	0.095105
3024	0.104498
3020	0.043344
3016	-0.007581
3012	-0.010967
3008	0.029039
3004	0.101971
3000	0.141310
2996	0.089550
2992	0.016188
2988	0.048756
2984	0.129032
2980	0.102686
2976	0.017309
2972	-0.035810
2968	-0.060629
2964	-0.086236
2960	-0.077414
2956	-0.023126
2952	-0.021457
2948	-0.024342
2944	0.031709
2940	0.063037
2936	0.066614
2932	0.096702
2928	0.092649
2924	-0.012183
2920	-0.075888
2916	-0.041556
2912	-0.038194
2908	-0.025773
2904	0.040888
2900	0.080776
2896	0.072431
2892	0.039076
2888	0.036430
2884	0.059127
2880	0.017142
2876	-0.043272
2872	-0.009727
2868	0.090384
2864	0.172305
2860	0.186395
2856	0.187540
2852	0.215339
2848	0.130701
2844	-0.068187
2840	-0.188183
2836	-0.164461
2832	-0.075697
2828	0.000524
2824	0.052642
2820	0.073432
2816	0.043225
2812	0.002336
2808	-0.016736
2804	-0.012326
2800	0.051379
2796	0.103640
2792	0.041484
2788	-0.078272
2784	-0.102663
2780	-0.005316
2776	0.051379
2772	0.037932
2768	0.012302
2764	-0.009226
2760	0.049519
2756	0.123381
2752	0.092339
2748	0.028538
2744	0.027537
2740	0.094270
2736	0.169730
2732	0.190448
2728	0.145649
2724	0.064969
2720	0.008845
2716	0.029039
2712	0.034523
2708	-0.023126
2704	-0.034284
2700	-0.023198
2696	-0.043559
2692	-0.034141
2688	0.016093
2684	0.076746
2680	0.096893
2676	0.071477
2672	0.047516
2668	0.034308
2664	0.043272
2660	0.036025
2656	-0.012302
2652	-0.029349
2648	-0.001978
2644	0.034856
2640	0.067353
2636	0.067019
2632	0.070190
2628	0.107741
2624	0.125479
2620	0.088906
2616	-0.002384
2612	-0.064659
2608	-0.047445
2604	0.000143
2600	0.033044
2596	0.022482
2592	-0.030422
2588	-0.099110
2584	-0.110912
2580	-0.009226
2576	0.096082
2572	0.093626
2568	-0.003695
2564	-0.089645
2560	-0.071477
2556	-0.047063
2552	-0.079369
2548	-0.088596
2544	-0.049257
2540	-0.006198
2536	0.018548
2532	-0.000047
2528	-0.099658
2524	-0.192308
2520	-0.153064
2516	-0.031995
2512	0.072765
2508	0.126695
2504	0.134968
2500	0.091671
2496	0.032687
2492	0.073623
2488	0.119185
2484	0.035214
2480	-0.047922
2476	-0.044512
2472	-0.020575
2468	-0.001406
2464	-0.027394
2460	-0.058650
2456	0.001168
2452	0.040936
2448	0.034499
2444	0.100541
2440	0.169539
2436	0.165653
2432	0.151658
2428	0.140237
2424	0.122642
2420	0.144243
2416	0.154232
2412	0.124716
2408	0.149917
2404	0.237274
2400	0.267863
2396	0.196838
2392	0.099349
2388	0.029277
2384	0.017261
2380	0.043821
2376	0.046968
2372	0.061655
2368	0.123953
2364	0.132203
2360	0.080204
2356	0.103712
2352	0.183296
2348	0.200390
2344	0.155854
2340	0.145602
2336	0.213456
2332	0.279402
2328	0.289082
2324	0.309085
2320	0.346255
2316	0.379800
2312	0.444436
2308	0.524687
2304	0.601983
2300	0.692415
2296	0.790572
2292	0.852251
2288	0.875020
2284	0.893282
2280	0.932359
2276	1.013875
2272	1.170158
2268	1.379227
2264	1.564550
2260	1.709151
2256	1.793527
2252	1.867771
2248	2.055764
2244	2.330732
2240	2.555990
2236	2.735066
2232	2.987718
2228	3.239274
2224	3.383278
2220	3.569722
2216	3.898787
2212	4.247140
2208	4.524970
2204	4.805946
2200	5.158638
2196	5.506443
2192	5.808115
2188	6.153082
2184	6.565046
2180	7.002544
2176	7.458400
2172	7.905864
2168	8.304524
2164	8.649563
2160	9.033679
2156	9.520506
2152	9.993529
2148	10.4301
2144	10.907
2140	11.3631
2136	11.7839
2132	12.277
2128	12.8616
2124	13.4288
2120	13.9074
2116	14.3318
2112	14.8021
2108	15.3392
2104	15.8552
2100	16.3452
2096	16.8745
2092	17.3526
2088	17.7049
2084	18.1213
2080	18.6825
2076	19.2799
2072	19.8929
2068	20.4427
2064	20.6445
2060	20.6768
2056	21.1089
2052	21.8033
2048	22.3276
2044	22.6995
2040	23.0613
2036	23.4246
2032	23.805
2028	24.1939
2024	24.5487
2020	24.8975
2016	25.233
2012	25.5576
2008	25.8724
2004	26.1627
2000	26.477
1996	26.7896
1992	27.0671
1988	27.346
1984	27.6026
1980	27.8373
1976	28.0818
1972	28.351
1968	28.6122
1964	28.7957
1960	28.9386
1956	29.1312
1952	29.3521
1948	29.5749
1944	29.8324
1940	30.046
1936	30.1738
1932	30.3013
1928	30.4703
1924	30.6227
1920	30.7554
1916	30.8839
1912	31.0131
1908	31.18
1904	31.3463
1900	31.4602
1896	31.5642
1892	31.7141
1888	31.8427
1884	31.9235
1880	32.0061
1876	32.0546
1872	32.1198
1868	32.2299
1864	32.3198
1860	32.4207
1856	32.5036
1852	32.5517
1848	32.6591
1844	32.7857
1840	32.8484
1836	32.8533
1832	32.8622
1828	32.9119
1824	32.9918
1820	33.0905
1816	33.1933
1812	33.2873
1808	33.3226
1804	33.3239
1800	33.372
1796	33.4731
1792	33.5677
1788	33.6295
1784	33.6807
1780	33.698
1776	33.7334
1772	33.8291
1768	33.8429
1764	33.7339
1760	33.6531
1756	33.6582
1752	33.7251
1748	33.8458
1744	33.9388
1740	33.99
1736	34.0524
1732	34.0282
1728	33.8514
1724	33.752
1720	33.9259
1716	34.0698
1712	33.9446
1708	33.8676
1704	33.9908
1700	34.1242
1696	34.1495
1692	34.1187
1688	34.147
1684	34.155
1680	34.0976
1676	34.1377
1672	34.2066
1668	34.1568
1664	34.0726
1660	34.0791
1656	34.1865
1652	34.2137
1648	34.1093
1644	34.055
1640	34.1125
1636	34.1714
1632	34.1684
1628	34.1859
1624	34.2048
1620	34.1795
1616	34.1396
1612	34.1028
1608	34.1231
1604	34.1631
1600	34.1441
1596	34.0982
1592	34.0397
1588	33.9816
1584	33.9917
1580	34.0452
1576	34.0856
1572	34.1279
1568	34.1416
1564	34.1696
1560	34.247
1556	34.2292
1552	34.1787
1548	34.2403
1544	34.307
1540	34.2735
1536	34.1498
1532	34.039
1528	34.0414
1524	34.0986
1520	34.125
1516	34.1302
1512	34.172
1508	34.2332
1504	34.2581
1500	34.271
1496	34.183
1492	33.9915
1488	33.9406
1484	34.0055
1480	34.0398
1476	34.0489
1472	34.0666
1468	34.0817
1464	34.0819
1460	34.0918
1456	34.0773
1452	33.9923
1448	33.9293
1444	33.9201
1440	33.9469
1436	33.9545
1432	33.9334
1428	33.9309
1424	33.8794
1420	33.8117
1416	33.8291
1412	33.8992
1408	33.9016
1404	33.7857
1400	33.6821
1396	33.7214
1392	33.8242
1388	33.8609
1384	33.8271
1380	33.7902
1376	33.752
1372	33.6627
1368	33.569
1364	33.6118
1360	33.7284
1356	33.7155
1352	33.6321
1348	33.5929
1344	33.6169
1340	33.6746
1336	33.6792
1332	33.6383
1328	33.621
1324	33.6039
1320	33.5644
1316	33.5553
1312	33.5689
1308	33.6068
1304	33.6337
1300	33.5574
1296	33.4876
1292	33.5565
1288	33.6474
1284	33.6316
1280	33.5441
1276	33.4295
1272	33.338
1268	33.3132
1264	33.3364
1260	33.4004
1256	33.4799
1252	33.5339
1248	33.5309
1244	33.4484
1240	33.3567
1236	33.3472
1232	33.3834
1228	33.4098
1224	33.4046
1220	33.3855
1216	33.3876
1212	33.3723
1208	33.3341
1204	33.2838
1200	33.2302
1196	33.2051
1192	33.1906
1188	33.1765
1184	33.1572
1180	33.1438
1176	33.1383
1172	33.1321
1168	33.1141
1164	33.0585
1160	33.0481
1156	33.0928
1152	33.0729
1148	33.0279
1144	33.0194
1140	32.9554
1136	32.8711
1132	32.8932
1128	32.9322
1124	32.8913
1120	32.8572
1116	32.7969
1112	32.6802
1108	32.6705
1104	32.8067
1100	32.9764
1096	33.0596
1092	32.9454
1088	32.6717
1084	32.5463
1080	32.664
1076	32.7433
1072	32.6684
1068	32.5378
1064	32.4811
1060	32.4595
1056	32.414
1052	32.4712
1048	32.5003
1044	32.3838
1040	32.3806
1036	32.451
1032	32.4185
1028	32.3925
1024	32.4309
1020	32.4748
1016	32.4932
1012	32.4044
1008	32.237
1004	32.1245
1000	32.0848
996	 32.0924
992	 32.1085
988	 32.1342
984	 32.2197
980	 32.2698
976	 32.1685
972	 32.0668
968	 32.0365
964	 31.9619
960	 31.8574
956	 31.7468
952	 31.6096
948	 31.5173
944	 31.5649
940	 31.6493
936	 31.643
932	 31.6118
928	 31.6501
924	 31.6771
920	 31.6465
916	 31.6322
912	 31.6071
908	 31.5339
904	 31.3877
900	 31.3028
896	 31.4283
892	 31.5523
888	 31.4042
884	 31.0742
880	 30.8154
876	 30.7911
872	 31.0215
868	 31.2342
864	 31.1932
860	 31.0078
856	 30.9086
852	 30.8745
848	 30.7624
844	 30.6762
840	 30.7506
836	 30.8286
832	 30.7554
828	 30.6419
824	 30.5448
820	 30.4963
816	 30.5371
812	 30.476
808	 30.256
804	 30.1367
800	 30.2046
796	 30.2644
792	 30.1717
788	 30.0088
784	 29.9858
780	 29.9972
776	 29.9237
772	 29.9034
768	 29.9485
764	 30.034
760	 29.9213
756	 29.4431
752	 29.1616
748	 29.3134
744	 29.4865
740	 29.607
736	 29.7529
732	 29.8371
728	 29.6531
724	 29.2076
720	 28.9443
716	 28.9894
712	 28.9291
708	 28.7042
704	 28.5239
700	 28.4744
696	 28.6018
692	 28.7095
688	 28.6383
684	 28.5365
680	 28.5118
676	 28.5105
672	 28.5374
668	 28.58
664	 28.57
660	 28.471
656	 28.241
652	 27.9284
648	 27.6899
644	 27.6021
640	 27.3763
636	 26.9639
632	 26.9297
628	 27.175
624	 27.1772
620	 27.1625
616	 27.3608
612	 27.4694
608	 27.2163
604	 26.8594
600	 26.6765
596	 26.5716
592	 26.531
588	 26.511
584	 26.4258
580	 26.2875
576	 26.1464
572	 26.165
568	 26.3658
564	 26.4563
560	 26.3027
556	 26.05
552	 25.6236
548	 25.1837
544	 25.3723
540	 26.029
536	 26.1039
532	 25.6723
528	 25.3857
524	 25.0303
520	 24.6071
516	 24.4348
512	 24.3661
508	 24.2482
504	 24.3511
500	 24.9403
496	 25.7515
492	 26.2558
488	 26.0953
484	 25.2789
480	 24.262
476	 23.8091
472	 23.8888
468	 23.949
464	 24.2369
460	 24.3174
456	 23.0595
452	 22.0273
448	 22.5672
444	 22.3016
440	 21.3507
436	 21.6852
432	 21.7553
428	 20.7457
424	 20.077
420	 19.9311
416	 21.5881
412	 25.7536
408	 31.1589
404	 37.356
400	 36.5895
396	 23.2112
392	 11.6397
388	 24.2995
384	 49.9324
380	 44.5024
376	 6.401777
372	 -27.6762
370	 -50.1082