File: Bakgrunnsmateriale/MATLAB/FTIR/ftir_data/LPE454/Mapping_121/LPE454_t102_cm-1.asc
PE IR       SPECTRUM    SPECTRUM    ASCII       PEDS        1.60
  -1
LP05DC~1.ASC
17/05/19
22:45:21.00
17/05/19
22:45:21.00
tln
$LPE454_t0102$<tbV0>[7.8,10.4,8.0,0.0,27,1,0]
370
64

2002,4.07
MIRTGS : RIGHTBACK : INTERNAL 2
MIR : ON : INTERNAL 2
OPTKBR

0.200000
8
8.000000
FILLER
RATIO
SPECTRUM
UNLOCKED 256

DOUBLE
64
COMBINED
1
0
0

1.000000
RATIO

1
0
TRUE
51149
0
LEFT NOT FITTED RIGHT NOT FITTED 0
NONE
NONE
15600
12
4.427000
51148
TRUE
1 0 8 72 0 0 0 0

15798

#HDR
-1
-1
#GR
CM-1
%T
2.38419e-05
0.0
5000
-1.000000
4631
8
48.4326
-2.170038
#DATA
5000	0.127458
4996	0.000309
4992	-0.021219
4988	0.124430
4984	0.142145
4980	0.091934
4976	0.212883
4972	0.209283
4968	0.099158
4964	-0.004196
4960	-0.029635
4956	0.107741
4952	0.224661
4948	0.257897
4944	0.185608
4940	0.191807
4936	0.362348
4932	0.462269
4928	0.530791
4924	0.528168
4920	0.302243
4916	0.117993
4912	0.270247
4908	0.417876
4904	0.311040
4900	0.230598
4896	0.181531
4892	0.185966
4888	0.260782
4884	0.173878
4880	-0.071740
4876	-0.170207
4872	0.144696
4868	0.556755
4864	0.695848
4860	0.568318
4856	0.356054
4852	0.177741
4848	0.102615
4844	0.292611
4840	0.462126
4836	0.380277
4832	0.222063
4828	0.121665
4824	0.080227
4820	0.015830
4816	-0.000548
4812	0.079393
4808	0.211715
4804	0.309395
4800	0.234556
4796	0.249361
4792	0.381112
4788	0.339818
4784	0.245594
4780	0.160717
4776	0.118827
4772	0.122070
4768	0.225830
4764	0.562191
4760	0.628471
4756	0.347614
4752	0.252461
4748	0.299453
4744	0.354576
4740	0.480103
4736	0.617933
4732	0.545692
4728	0.343799
4724	0.269412
4720	0.395941
4716	0.696969
4712	1.001882
4708	1.130056
4704	1.003050
4700	0.716829
4696	0.648903
4692	0.788068
4688	0.763821
4684	0.771927
4680	1.005482
4676	1.063251
4672	0.693488
4668	0.220727
4664	-0.103187
4660	-0.203275
4656	-0.149440
4652	-0.261926
4648	-0.664806
4644	-1.117324
4640	-0.947761
4636	-0.274443
4632	-0.193023
4628	-0.554537
4624	-0.955986
4620	-1.669597
4616	-1.668834
4612	-1.643848
4608	-1.988863
4604	-2.159881
4600	-0.311064
4596	12.0878
4592	27.7417
4588	31.0518
4584	17.4522
4580	4.115033
4576	-0.064420
4572	-1.509189
4568	-1.273202
4564	-0.870752
4560	-0.513529
4556	-0.590944
4552	-0.896835
4548	-0.778245
4544	-0.498461
4540	-0.329780
4536	-0.345802
4532	-0.420284
4528	-0.472760
4524	-0.721311
4520	-0.909233
4516	-0.881457
4512	-0.878810
4508	-0.850224
4504	-0.812530
4500	-0.745034
4496	-0.501942
4492	-0.084733
4488	0.231623
4484	0.077867
4480	-0.262475
4476	-0.327610
4472	-0.156545
4468	0.128960
4464	0.398826
4460	0.492858
4456	0.516319
4452	0.614428
4448	0.720095
4444	0.799179
4440	0.728464
4436	0.558447
4432	0.426316
4428	0.334715
4424	0.194025
4420	0.200223
4416	0.316739
4412	0.362968
4408	0.464200
4404	0.416207
4400	0.124502
4396	0.143837
4392	0.439667
4388	0.440645
4384	0.236725
4380	0.130772
4376	0.030922
4372	-0.079917
4368	-0.111556
4364	0.000977
4360	0.159072
4356	0.155448
4352	0.170183
4348	0.254845
4344	0.154519
4340	-0.115418
4336	-0.281953
4332	-0.224041
4328	-0.017333
4324	0.197887
4320	0.228548
4316	0.185585
4312	0.304150
4308	0.417113
4304	0.318026
4300	0.121116
4296	-0.033640
4292	-0.119447
4288	-0.083065
4284	0.016593
4280	0.063371
4276	0.163626
4272	0.339341
4268	0.406289
4264	0.175881
4260	-0.112605
4256	-0.072789
4252	0.102519
4248	0.138092
4244	0.134825
4240	0.185632
4236	0.167155
4232	0.122308
4228	0.120687
4224	0.044655
4220	-0.014233
4216	0.023746
4212	0.097560
4208	0.250005
4204	0.221085
4200	-0.035119
4196	0.002431
4192	0.089359
4188	-0.217580
4184	-0.585627
4180	-0.612974
4176	-0.282001
4172	0.013995
4168	0.128841
4164	0.222301
4160	0.284528
4156	0.299835
4152	0.258040
4148	0.146055
4144	0.130343
4140	0.209140
4136	0.206732
4132	0.312662
4128	0.500893
4124	0.468945
4120	0.243687
4116	-0.032663
4112	-0.114846
4108	0.045251
4104	0.119686
4100	-0.130939
4096	-0.338983
4092	-0.261807
4088	-0.278234
4084	-0.320148
4080	-0.208616
4076	0.004410
4072	0.054144
4068	0.085616
4064	0.720930
4060	1.500844
4056	1.809883
4052	1.496171
4048	0.698018
4044	0.427579
4040	0.507593
4036	0.429749
4032	0.568628
4028	0.481176
4024	0.039839
4020	-0.227308
4016	-0.188803
4012	-0.112175
4008	-0.131273
4004	-0.116968
4000	-0.037980
3996	0.000262
3992	0.018739
3988	0.142455
3984	0.219106
3980	0.179243
3976	0.129127
3972	0.010251
3968	-0.113368
3964	-0.051331
3960	0.052809
3956	0.144386
3952	0.275063
3948	0.243973
3944	0.133275
3940	0.077295
3936	0.059318
3932	0.074148
3928	0.018477
3924	-0.053620
3920	0.009298
3916	0.165653
3912	0.231027
3908	0.202655
3904	0.166487
3900	0.043749
3896	-0.083732
3892	-0.097751
3888	-0.048351
3884	0.048017
3880	0.120162
3876	0.143766
3872	0.166416
3868	0.065326
3864	-0.091624
3860	-0.122427
3856	-0.080394
3852	0.023913
3848	0.170588
3844	0.196719
3840	0.098395
3836	0.021171
3832	0.048565
3828	0.127840
3824	0.155854
3820	0.093173
3816	-0.043749
3812	-0.143647
3808	-0.123214
3804	-0.045728
3800	0.018620
3796	0.050568
3792	0.047659
3788	0.035333
3784	0.033783
3780	0.058269
3776	0.097775
3772	0.094795
3768	0.127291
3764	0.226712
3760	0.251960
3756	0.118947
3752	-0.016880
3748	-0.005125
3744	0.012016
3740	-0.001573
3736	0.029540
3732	0.053858
3728	0.063347
3724	0.068688
3720	0.034666
3716	-0.032258
3712	-0.068879
3708	-0.044178
3704	0.000691
3700	0.005149
3696	-0.029063
3692	-0.022602
3688	-0.010943
3684	-0.018072
3680	0.042247
3676	0.113701
3672	0.116133
3668	0.060749
3664	0.013113
3660	0.027322
3656	0.050950
3652	0.071358
3648	0.129318
3644	0.152635
3640	0.069165
3636	-0.002074
3632	0.020718
3628	0.069904
3624	0.131416
3620	0.205659
3616	0.206780
3612	0.114631
3608	0.024986
3604	0.039529
3600	0.109028
3596	0.106883
3592	0.060796
3588	0.040984
3584	0.025725
3580	-0.038623
3576	-0.134992
3572	-0.179076
3568	-0.151419
3564	-0.074791
3560	0.048565
3556	0.079751
3552	-0.035095
3548	-0.109386
3544	-0.034213
3540	0.073814
3536	0.075602
3532	0.036215
3528	0.008416
3524	-0.035762
3520	-0.065350
3516	-0.079798
3512	-0.143694
3508	-0.194597
3504	-0.086426
3500	0.056481
3496	0.073838
3492	0.040507
3488	0.013279
3484	-0.031137
3480	-0.030469
3476	0.015568
3472	0.001144
3468	-0.036263
3464	-0.016427
3460	0.024819
3456	0.062060
3452	0.098490
3448	0.129771
3444	0.147414
3440	0.140905
3436	0.131726
3432	0.115180
3428	0.051355
3424	-0.006771
3420	0.068449
3416	0.216841
3412	0.233864
3408	0.156950
3404	0.081157
3400	-0.021123
3396	-0.105094
3392	-0.127530
3388	-0.103235
3384	-0.030088
3380	0.067806
3376	0.113010
3372	0.125384
3368	0.163698
3364	0.133061
3360	0.017952
3356	-0.000619
3352	0.091099
3348	0.135064
3344	0.123500
3340	0.105953
3336	0.089001
3332	0.103807
3328	0.130248
3324	0.135874
3320	0.100135
3316	0.044822
3312	0.049686
3308	0.106763
3304	0.128293
3300	0.060629
3296	-0.039148
3292	-0.077867
3288	-0.048923
3284	0.003361
3280	-0.011301
3276	-0.070500
3272	-0.027060
3268	0.099420
3264	0.162553
3260	0.133204
3256	0.078582
3252	0.006794
3248	-0.030112
3244	-0.012421
3240	0.005626
3236	0.058436
3232	0.081992
3228	0.006151
3224	-0.015997
3220	0.018692
3216	-0.032901
3212	-0.057220
3208	-0.023007
3204	-0.038838
3200	-0.045824
3196	-0.000071
3192	0.044274
3188	0.028824
3184	0.043511
3180	0.116920
3176	0.128674
3172	0.095868
3168	0.099039
3164	0.127530
3160	0.110387
3156	0.008487
3152	-0.062561
3148	-0.046491
3144	-0.039887
3140	0.003218
3136	0.099086
3132	0.048804
3128	-0.071692
3124	-0.013566
3120	0.117087
3116	0.156831
3112	0.142025
3108	0.097417
3104	0.020837
3100	-0.008416
3096	-0.014781
3092	-0.066232
3088	-0.068116
3084	0.029635
3080	0.098299
3076	0.073051
3072	0.060319
3068	0.099754
3064	0.139951
3060	0.167012
3056	0.145316
3052	0.076127
3048	0.044798
3044	0.067877
3040	0.061440
3036	-0.010752
3032	-0.085020
3028	-0.115323
3024	-0.080347
3020	-0.018668
3016	-0.006580
3012	0.012063
3008	0.064063
3004	0.049996
3000	-0.004124
2996	-0.010299
2992	0.010061
2988	0.058364
2984	0.147080
2980	0.195431
2976	0.159764
2972	0.142860
2968	0.105404
2964	-0.033760
2960	-0.094389
2956	-0.077748
2952	-0.099706
2948	-0.033164
2944	0.082874
2940	0.044226
2936	-0.006222
2932	0.093913
2928	0.163698
2924	0.129318
2920	0.100731
2916	0.079178
2912	0.043249
2908	0.008606
2904	-0.017023
2900	-0.027728
2896	-0.022697
2892	0.019407
2888	0.059580
2884	0.044250
2880	0.009870
2876	0.024294
2872	0.066542
2868	0.081515
2864	0.096750
2860	0.101780
2856	0.052309
2852	0.010633
2848	-0.024151
2844	-0.088381
2840	-0.088024
2836	-0.018191
2832	0.017833
2828	0.017952
2824	0.028443
2820	0.041246
2816	0.064468
2812	0.088930
2808	0.075674
2804	0.062608
2800	0.085425
2796	0.084352
2792	0.002121
2788	-0.097703
2784	-0.107812
2780	-0.016951
2776	0.034904
2772	0.003647
2768	0.007677
2764	0.030064
2760	-0.005817
2756	-0.025320
2752	-0.007057
2748	0.015187
2744	0.071096
2740	0.122809
2736	0.131821
2732	0.115633
2728	0.093460
2724	0.088977
2720	0.081491
2716	0.041151
2712	0.040197
2708	0.070619
2704	0.025343
2700	-0.049972
2696	-0.057220
2692	-0.023341
2688	0.011277
2684	0.042676
2680	0.056982
2676	0.097179
2672	0.151801
2668	0.130414
2664	0.074648
2660	0.038623
2656	0.012421
2652	-0.002217
2648	-0.023937
2644	-0.041723
2640	-0.011920
2636	-0.000309
2632	-0.059604
2628	-0.079345
2624	-0.071811
2620	-0.063252
2616	-0.020980
2612	-0.012016
2608	0.000715
2604	0.070905
2600	0.131773
2596	0.102639
2592	-0.012063
2588	-0.057005
2584	-0.000309
2580	0.030660
2576	0.016903
2572	0.023126
2568	0.027179
2564	0.056195
2560	0.100994
2556	0.075960
2552	0.038242
2548	0.039839
2544	0.030899
2540	0.001764
2536	-0.024986
2532	-0.037145
2528	-0.040578
2524	-0.043058
2520	-0.071144
2516	-0.079154
2512	-0.030636
2508	0.056529
2504	0.176286
2500	0.245118
2496	0.185680
2492	0.069785
2488	0.030326
2484	0.073385
2480	0.113630
2476	0.115489
2472	0.090765
2468	0.052595
2464	0.021910
2460	0.015783
2456	0.051927
2452	0.104403
2448	0.127840
2444	0.137615
2440	0.140070
2436	0.102925
2432	0.053215
2428	0.054216
2424	0.153112
2420	0.359559
2416	0.463294
2412	0.376486
2408	0.295782
2404	0.268578
2400	0.240731
2396	0.233078
2392	0.275540
2388	0.351524
2384	0.410723
2380	0.417327
2376	0.422143
2372	0.482583
2368	0.568914
2364	0.635838
2360	0.692820
2356	0.771713
2352	0.813746
2348	0.803208
2344	0.840091
2340	0.936651
2336	1.031064
2332	1.093339
2328	1.183915
2324	1.306772
2320	1.382374
2316	1.462793
2312	1.580357
2308	1.689720
2304	1.776599
2300	1.863789
2296	2.023029
2292	2.260375
2288	2.478456
2284	2.653551
2280	2.835559
2276	3.003025
2272	3.168368
2268	3.392767
2264	3.667783
2260	3.947973
2256	4.201245
2252	4.457497
2248	4.742908
2244	5.023169
2240	5.317330
2236	5.659461
2232	6.008863
2228	6.355738
2224	6.747388
2220	7.193660
2216	7.669329
2212	8.094716
2208	8.445096
2204	8.837366
2200	9.279799
2196	9.733009
2192	10.2317
2188	10.7498
2184	11.2895
2180	11.8441
2176	12.328
2172	12.775
2168	13.2864
2164	13.8377
2160	14.3699
2156	14.909
2152	15.4657
2148	15.9989
2144	16.551
2140	17.1705
2136	17.7756
2132	18.3349
2128	18.8903
2124	19.4335
2120	19.9924
2116	20.56
2112	21.0748
2108	21.5726
2104	22.1427
2100	22.7075
2096	23.1901
2092	23.6869
2088	24.2118
2084	24.7088
2080	25.201
2076	25.6772
2072	26.1128
2068	26.5604
2064	27.0955
2060	27.671
2056	28.0706
2052	28.3168
2048	28.6303
2044	29.0383
2040	29.4667
2036	29.8657
2032	30.2308
2028	30.592
2024	30.9822
2020	31.3625
2016	31.6833
2012	31.9776
2008	32.2828
2004	32.5861
2000	32.8457
1996	33.1005
1992	33.3997
1988	33.6847
1984	33.9253
1980	34.1469
1976	34.3758
1972	34.6294
1968	34.884
1964	35.1099
1960	35.3041
1956	35.4918
1952	35.6843
1948	35.8715
1944	36.0737
1940	36.2793
1936	36.4509
1932	36.5975
1928	36.7228
1924	36.8128
1920	36.9049
1916	37.0669
1912	37.2482
1908	37.4049
1904	37.5522
1900	37.6462
1896	37.7301
1892	37.8354
1888	37.9626
1884	38.0821
1880	38.1157
1876	38.1604
1872	38.2619
1868	38.3769
1864	38.5151
1860	38.6339
1856	38.6935
1852	38.7147
1848	38.7551
1844	38.8077
1840	38.8641
1836	38.9421
1832	39.0021
1828	39.0614
1824	39.1682
1820	39.25
1816	39.2535
1812	39.231
1808	39.2142
1804	39.2229
1800	39.2952
1796	39.417
1792	39.4725
1788	39.4423
1784	39.4326
1780	39.4824
1776	39.5922
1772	39.7212
1768	39.7755
1764	39.7617
1760	39.7732
1756	39.7916
1752	39.7395
1748	39.6505
1744	39.6473
1740	39.7166
1736	39.7253
1732	39.7095
1728	39.7845
1724	39.9019
1720	39.9803
1716	40.0413
1712	40.0598
1708	40.0133
1704	39.9817
1700	39.9903
1696	40.0184
1692	40.0463
1688	40.0604
1684	40.0758
1680	40.0842
1676	40.0591
1672	40.0256
1668	40.0416
1664	40.0761
1660	40.0417
1656	39.9613
1652	39.9357
1648	39.9787
1644	40.0613
1640	40.1551
1636	40.2368
1632	40.2889
1628	40.2792
1624	40.2348
1620	40.1787
1616	40.1324
1612	40.1026
1608	40.0901
1604	40.1266
1600	40.1402
1596	40.0767
1592	39.9951
1588	39.9586
1584	40.018
1580	40.1276
1576	40.1829
1572	40.1807
1568	40.1953
1564	40.251
1560	40.289
1556	40.2974
1552	40.2538
1548	40.1546
1544	40.0922
1540	40.111
1536	40.1565
1532	40.1436
1528	40.1258
1524	40.1448
1520	40.1482
1516	40.1773
1512	40.1834
1508	40.1391
1504	40.1234
1500	40.1524
1496	40.2235
1492	40.2086
1488	40.1279
1484	40.1518
1480	40.209
1476	40.197
1472	40.1604
1468	40.1269
1464	40.0634
1460	39.9947
1456	39.9632
1452	39.9634
1448	39.9737
1444	40.0135
1440	40.1369
1436	40.3025
1432	40.3269
1428	40.2219
1424	40.1936
1420	40.2511
1416	40.2789
1412	40.2529
1408	40.1862
1404	40.0973
1400	40.0566
1396	40.0699
1392	40.0714
1388	40.0591
1384	40.0711
1380	40.1013
1376	40.0886
1372	40.028
1368	39.9768
1364	39.9756
1360	40.0258
1356	40.0996
1352	40.1683
1348	40.212
1344	40.2223
1340	40.2138
1336	40.1832
1332	40.1286
1328	40.0946
1324	40.0912
1320	40.1173
1316	40.0763
1312	39.9397
1308	39.8961
1304	39.942
1300	39.9769
1296	40.005
1292	40.0558
1288	40.0976
1284	40.0561
1280	39.9784
1276	39.9238
1272	39.9071
1268	39.9055
1264	39.8827
1260	39.8737
1256	39.8689
1252	39.8294
1248	39.7909
1244	39.7642
1240	39.7542
1236	39.7831
1232	39.8309
1228	39.8675
1224	39.8744
1220	39.8763
1216	39.869
1212	39.8303
1208	39.8024
1204	39.8242
1200	39.8684
1196	39.8504
1192	39.8209
1188	39.8482
1184	39.8065
1180	39.7063
1176	39.6584
1172	39.6057
1168	39.6451
1164	39.8154
1160	39.854
1156	39.7748
1152	39.7657
1148	39.7716
1144	39.7393
1140	39.7589
1136	39.8185
1132	39.7735
1128	39.6464
1124	39.5301
1120	39.4512
1116	39.4805
1112	39.5461
1108	39.5195
1104	39.4785
1100	39.4936
1096	39.5389
1092	39.5886
1088	39.5952
1084	39.5689
1080	39.5515
1076	39.4986
1072	39.3765
1068	39.2645
1064	39.262
1060	39.3331
1056	39.3571
1052	39.3139
1048	39.3548
1044	39.4961
1040	39.5138
1036	39.4233
1032	39.4248
1028	39.4501
1024	39.38
1020	39.3265
1016	39.3643
1012	39.4422
1008	39.4131
1004	39.1947
1000	38.9956
996	 38.9941
992	 39.0013
988	 38.9019
984	 38.8776
980	 38.9019
976	 38.8629
972	 38.8708
968	 38.942
964	 39.0179
960	 39.0017
956	 38.8877
952	 38.833
948	 38.8648
944	 38.9326
940	 38.9539
936	 38.9224
932	 38.8239
928	 38.6465
924	 38.53
920	 38.4875
916	 38.4185
912	 38.3347
908	 38.2907
904	 38.324
900	 38.3846
896	 38.4127
892	 38.4211
888	 38.375
884	 38.3816
880	 38.5408
876	 38.6712
872	 38.5741
868	 38.334
864	 38.2239
860	 38.1747
856	 37.9941
852	 37.8066
848	 37.7136
844	 37.6647
840	 37.6709
836	 37.6782
832	 37.5804
828	 37.4815
824	 37.466
820	 37.5891
816	 37.8444
812	 37.9231
808	 37.8081
804	 37.7482
800	 37.6083
796	 37.3711
792	 37.2225
788	 37.1401
784	 36.9668
780	 36.6569
776	 36.4428
772	 36.5229
768	 36.8424
764	 37.0998
760	 37.1684
756	 37.1193
752	 36.985
748	 36.9259
744	 36.9812
740	 37.035
736	 36.9341
732	 36.7122
728	 36.6806
724	 36.6821
720	 36.4419
716	 36.3224
712	 36.3221
708	 36.1122
704	 35.9565
700	 35.9554
696	 35.8855
692	 35.837
688	 35.8996
684	 35.9688
680	 35.9977
676	 36.0725
672	 36.236
668	 36.3993
664	 36.3816
660	 36.1256
656	 35.7661
652	 35.3747
648	 35.0627
644	 34.8384
640	 34.5721
636	 34.4891
632	 34.7026
628	 34.8334
624	 34.8814
620	 34.8436
616	 34.4809
612	 34.1804
608	 34.2664
604	 34.5892
600	 34.7867
596	 34.6933
592	 34.6844
588	 34.8134
584	 35.0816
580	 35.0972
576	 34.568
572	 33.9835
568	 33.1855
564	 32.7546
560	 33.3185
556	 33.5519
552	 32.6711
548	 31.9545
544	 32.758
540	 34.0251
536	 34.2466
532	 33.9205
528	 33.6025
524	 33.3279
520	 33.1857
516	 33.167
512	 33.0635
508	 32.4298
504	 31.602
500	 31.1125
496	 31.074
492	 31.3295
488	 31.6128
484	 32.1543
480	 32.5522
476	 31.8892
472	 30.6744
468	 30.1383
464	 30.7682
460	 31.9155
456	 32.3725
452	 32.1627
448	 31.7597
444	 31.0329
440	 30.4075
436	 30.316
432	 30.2761
428	 29.2878
424	 27.7209
420	 27.2789
416	 27.6994
412	 28.6142
408	 29.4072
404	 26.9043
400	 21.936
396	 20.7668
392	 20.2854
388	 11.8524
384	 8.764719
380	 16.9919
376	 43.9002
372	 35.7607
370	 13.9906