File: Bakgrunnsmateriale/MATLAB/FTIR/ftir_data/LPE454/Mapping_121/LPE454_t104.asc
PE IR       SPECTRUM    SPECTRUM    ASCII       PEDS        1.60
  -1
LP9308~1.ASC
17/05/19
22:54:34.00
17/05/19
22:55:00.00
tln
$LPE454_t0104$<tbV0>[2.6,10.4,8.0,0.0,27,1,0]
27.028
64

2002,4.07
MIRTGS : RIGHTBACK : INTERNAL 2
MIR : ON : INTERNAL 2
OPTKBR

0.200000
8
8.000000
FILLER
RATIO
SPECTRUM
UNLOCKED 256

DOUBLE
64
COMBINED
1
0
0

0.002000
RATIO

1
0
TRUE
51149
0
LEFT NOT FITTED RIGHT NOT FITTED 0
NONE
NONE
15600
12
4.427000
51148
TRUE
1 0 8 72 0 0 0 0

15798

#HDR
-1
-1
#GR
µM
%T
2.38419e-05
0.0
2.000000
0.002000
12515
8
40.5442
-53.4773
#DATA
2.000000	 0.268959
2.018000	 0.112293
2.036000	 0.060446
2.054000	 0.181329
2.072000	 0.270110
2.090000	 0.454914
2.108000	 -0.095966
2.126000	 0.055543
2.144000	 0.029069
2.162000	 0.491253
2.180000	 30.9964
2.198000	 -0.956704
2.216000	 0.578394
2.234000	 0.369565
2.252000	 -0.202201
2.270000	 0.045901
2.288000	 0.174595
2.306000	 -0.112065
2.324000	 -0.090841
2.342000	 -0.076051
2.360000	 0.115837
2.378000	 0.057334
2.396000	 0.402861
2.414000	 -0.299039
2.432000	 -0.413605
2.450000	 -0.357610
2.468000	 -0.114424
2.486000	 0.101671
2.504000	 0.209547
2.522000	 0.188406
2.540000	 -0.121973
2.558000	 0.016606
2.576000	 -0.005725
2.594000	 -0.145584
2.612000	 0.104070
2.630000	 -0.069338
2.648000	 0.250771
2.666000	 0.233774
2.684000	 -0.059204
2.702000	 0.146940
2.720000	 0.084907
2.738000	 0.066204
2.756000	 0.136855
2.774000	 0.078984
2.792000	 0.109335
2.810000	 0.097101
2.828000	 -0.006092
2.846000	 0.030492
2.864000	 0.116043
2.882000	 -0.127300
2.900000	 0.043356
2.918000	 0.087044
2.936000	 0.124962
2.954000	 0.014323
2.972000	 -0.020012
2.990000	 0.066668
3.008000	 -0.011145
3.026000	 0.132729
3.044000	 0.057604
3.062000	 0.105399
3.080000	 -0.121542
3.098000	 0.128039
3.116000	 0.199515
3.134000	 0.094234
3.152000	 0.233418
3.170000	 0.023232
3.188000	 0.012130
3.206000	 -0.177301
3.224000	 0.038647
3.242000	 0.014534
3.260000	 0.003453
3.278000	 0.134256
3.296000	 0.073936
3.314000	 -0.046482
3.332000	 0.035355
3.350000	 -0.119917
3.368000	 0.011770
3.386000	 -0.047492
3.404000	 0.062778
3.422000	 0.072558
3.440000	 -0.018362
3.458000	 0.077556
3.476000	 0.034159
3.494000	 -0.045350
3.512000	 -0.039464
3.530000	 -0.006275
3.548000	 0.075810
3.566000	 0.055420
3.584000	 -0.012152
3.602000	 0.028272
3.620000	 0.011804
3.638000	 -0.002683
3.656000	 0.065602
3.674000	 0.050504
3.692000	 -0.137897
3.710000	 -0.001740
3.728000	 0.035976
3.746000	 0.187070
3.764000	 0.104864
3.782000	 0.069346
3.800000	 0.032726
3.818000	 -0.084068
3.836000	 0.055233
3.854000	 -0.000277
3.872000	 0.044201
3.890000	 -0.031553
3.908000	 0.056342
3.926000	 0.052000
3.944000	 0.088999
3.962000	 -0.033910
3.980000	 0.057182
3.998000	 0.102936
4.016000	 0.140436
4.034000	 0.090843
4.052000	 0.048596
4.070000	 0.202488
4.088000	 -0.032284
4.106000	 0.016486
4.124000	 0.036789
4.141999	 -0.019665
4.160000	 0.374726
4.178000	 0.126388
4.196000	 0.197392
4.214000	 0.283799
4.232000	 0.236241
4.250000	 0.353746
4.268000	 0.381035
4.286000	 0.405274
4.304000	 0.708916
4.322000	 0.834544
4.340000	 0.948812
4.358000	 1.248530
4.375999	 1.459135
4.394000	 1.811738
4.412000	 2.130285
4.430000	 2.643728
4.448000	 3.152336
4.466000	 3.583529
4.484000	 4.212991
4.502000	 4.860382
4.520000	 5.688421
4.538000	 6.537216
4.556000	 7.282264
4.574000	 8.185853
4.592000	 9.180734
4.609999	 10.216
4.628000	 11.4
4.646000	 12.3895
4.664000	 13.1981
4.682000	 14.2989
4.700000	 15.3799
4.718000	 16.3415
4.736000	 17.3532
4.754000	 18.4393
4.772000	 19.5346
4.790000	 20.5371
4.808000	 21.2956
4.826000	 22.2569
4.843999	 23.1974
4.862000	 23.9512
4.880000	 24.5664
4.898000	 25.4612
4.916000	 26.0847
4.934000	 26.7059
4.952000	 27.3555
4.970000	 27.8961
4.988000	 28.5107
5.006000	 29.0281
5.024000	 29.5558
5.042000	 29.9356
5.060000	 30.3018
5.077999	 30.7588
5.096000	 31.045
5.114000	 31.2902
5.132000	 31.7527
5.150000	 32.0898
5.168000	 32.3447
5.186000	 32.7275
5.204000	 32.9386
5.222000	 33.0761
5.240000	 33.2853
5.258000	 33.4952
5.276000	 33.7152
5.294000	 33.9315
5.312000	 34.0326
5.330000	 34.2174
5.348000	 34.4053
5.366000	 34.5116
5.384000	 34.6309
5.402000	 34.7036
5.420000	 34.7711
5.438000	 34.817
5.456000	 34.8763
5.474000	 35.1208
5.492000	 35.2069
5.510000	 35.153
5.528000	 35.2012
5.546000	 35.3428
5.564000	 35.4827
5.582000	 35.5124
5.600000	 35.4547
5.618000	 35.5126
5.636000	 35.5481
5.654000	 35.5915
5.672000	 35.7201
5.690000	 35.8
5.708000	 35.8547
5.726000	 35.8731
5.744000	 35.9119
5.762000	 35.9561
5.780000	 36.0241
5.798000	 36.138
5.816000	 36.1522
5.834000	 36.104
5.852000	 36.0649
5.870000	 36.1118
5.888000	 36.2032
5.906000	 36.2505
5.923999	 36.3548
5.942000	 36.3879
5.960000	 36.2817
5.978000	 36.1734
5.996000	 36.1644
6.014000	 36.2263
6.032000	 36.2752
6.050000	 36.279
6.068000	 36.2522
6.086000	 36.304
6.104000	 36.3629
6.122000	 36.4267
6.140000	 36.457
6.158000	 36.4738
6.176000	 36.4394
6.194000	 36.3986
6.212000	 36.3683
6.230000	 36.3215
6.248000	 36.3338
6.266000	 36.3546
6.284000	 36.3521
6.302000	 36.3409
6.320000	 36.3679
6.338000	 36.4296
6.356000	 36.4538
6.374000	 36.4832
6.392000	 36.5296
6.410000	 36.5226
6.428000	 36.416
6.446000	 36.3258
6.464000	 36.3507
6.482000	 36.411
6.500000	 36.4391
6.518000	 36.4152
6.536000	 36.3873
6.554000	 36.4644
6.572000	 36.5553
6.590000	 36.5923
6.608000	 36.607
6.626000	 36.5552
6.644000	 36.5218
6.662000	 36.5515
6.680000	 36.5382
6.698000	 36.4528
6.716000	 36.4114
6.734000	 36.4299
6.752000	 36.4032
6.770000	 36.383
6.788000	 36.4351
6.806000	 36.5102
6.824000	 36.562
6.842000	 36.5153
6.860000	 36.4066
6.878000	 36.3539
6.896000	 36.3577
6.914000	 36.3915
6.932000	 36.4543
6.950000	 36.5027
6.968000	 36.5207
6.986000	 36.5421
7.004000	 36.5346
7.022000	 36.4755
7.040000	 36.4308
7.058000	 36.4156
7.076000	 36.3838
7.094000	 36.3411
7.112000	 36.3148
7.130000	 36.2886
7.148000	 36.257
7.166000	 36.2758
7.184000	 36.3839
7.202000	 36.5216
7.220000	 36.5916
7.238000	 36.5731
7.256000	 36.522
7.274000	 36.4799
7.292000	 36.4583
7.310000	 36.46
7.328000	 36.4513
7.346000	 36.3876
7.364000	 36.2976
7.382000	 36.2475
7.400000	 36.238
7.418000	 36.2388
7.436000	 36.2627
7.454000	 36.3168
7.472000	 36.3858
7.490000	 36.4624
7.508000	 36.5179
7.526000	 36.5261
7.544000	 36.5203
7.562000	 36.5322
7.580000	 36.531
7.598000	 36.4773
7.616000	 36.3791
7.634000	 36.2898
7.652000	 36.2704
7.670000	 36.3314
7.688000	 36.4012
7.706000	 36.3853
7.724000	 36.2893
7.742000	 36.2211
7.760000	 36.2338
7.778000	 36.2582
7.796000	 36.2411
7.814000	 36.2299
7.832000	 36.2753
7.850000	 36.3509
7.868000	 36.4062
7.886000	 36.4296
7.904000	 36.4336
7.922000	 36.4361
7.940000	 36.4632
7.958000	 36.5198
7.976000	 36.564
7.994000	 36.5438
8.012000	 36.45
8.030000	 36.3162
8.048000	 36.192
8.065999	 36.1178
8.084000	 36.0994
8.102000	 36.108
8.120000	 36.112
8.138000	 36.1012
8.155999	 36.0842
8.173999	 36.0814
8.192000	 36.1121
8.210000	 36.1676
8.228000	 36.2114
8.246000	 36.2182
8.263999	 36.2064
8.282000	 36.2185
8.300000	 36.265
8.318000	 36.3124
8.336000	 36.3338
8.353999	 36.3427
8.372000	 36.3598
8.390000	 36.3723
8.408000	 36.3493
8.426000	 36.28
8.443999	 36.1803
8.462000	 36.0797
8.480000	 36.0038
8.498000	 35.9586
8.516000	 35.9298
8.533999	 35.9084
8.552000	 35.9072
8.570000	 35.941
8.588000	 35.9973
8.606000	 36.0396
8.624000	 36.0402
8.641999	 36.0012
8.660000	 35.9529
8.678000	 35.9343
8.696000	 35.9702
8.714000	 36.0484
8.731999	 36.1222
8.750000	 36.1454
8.768000	 36.1142
8.786000	 36.0708
8.804000	 36.0645
8.821999	 36.1054
8.840000	 36.1537
8.858000	 36.1578
8.876000	 36.1048
8.894000	 36.0296
8.911999	 35.9779
8.930000	 35.9672
8.948000	 35.9812
8.966000	 35.9929
8.984000	 35.986
9.001999	 35.9613
9.020000	 35.9342
9.038000	 35.9244
9.056000	 35.939
9.074000	 35.967
9.092000	 35.9888
9.109999	 35.9904
9.128000	 35.9695
9.146000	 35.9329
9.164000	 35.8929
9.182000	 35.862
9.199999	 35.8478
9.218000	 35.8527
9.236000	 35.8784
9.254000	 35.9297
9.272000	 36.0062
9.289999	 36.0917
9.308000	 36.1574
9.326000	 36.1801
9.344000	 36.155
9.362000	 36.0959
9.379999	 36.0247
9.398000	 35.9586
9.416000	 35.9038
9.434000	 35.8559
9.452000	 35.8054
9.469999	 35.7445
9.488000	 35.6704
9.506000	 35.5832
9.524000	 35.4842
9.542000	 35.3802
9.560000	 35.2889
9.577999	 35.2358
9.596000	 35.2376
9.614000	 35.2873
9.632000	 35.3563
9.650000	 35.4142
9.667999	 35.4504
9.686000	 35.4776
9.704000	 35.5151
9.722000	 35.5691
9.740000	 35.6292
9.757999	 35.6804
9.776000	 35.7163
9.794000	 35.7372
9.812000	 35.7424
9.830000	 35.7286
9.847999	 35.6989
9.866000	 35.6699
9.884000	 35.6638
9.902000	 35.6897
9.920000	 35.7315
9.937999	 35.7547
9.956000	 35.7305
9.974000	 35.6541
9.992000	 35.5459
10.01	35.4354
10.028	35.3447
10.046	35.2812
10.064	35.2393
10.082	35.2081
10.1	35.1755
10.118	35.1319
10.136	35.0749
10.154	35.0125
10.172	34.9605
10.19	34.9341
10.208	34.9372
10.226	34.9592
10.244	34.9817
10.262	34.9906
10.28	34.9866
10.298	34.9844
10.316	35.004
10.334	35.0552
10.352	35.1304
10.37	35.2065
10.388	35.2548
10.406	35.2567
10.424	35.2113
10.442	35.1379
10.46	35.066
10.478	35.0252
10.496	35.0319
10.514	35.0857
10.532	35.1687
10.55	35.2526
10.568	35.3085
10.586	35.318
10.604	35.281
10.622	35.2128
10.64	35.1367
10.658	35.0717
10.676	35.0257
10.694	34.9942
10.712	34.9662
10.73	34.9319
10.748	34.8868
10.766	34.8321
10.784	34.7721
10.802	34.7141
10.82	34.6651
10.838	34.6324
10.856	34.6181
10.874	34.616
10.892	34.6136
10.91	34.5964
10.928	34.555
10.946	34.4901
10.964	34.4129
10.982	34.3408
11	34.2904
11.018	34.2739
11.036	34.2964
11.054	34.3571
11.072	34.45
11.09	34.5638
11.108	34.6844
11.126	34.7939
11.144	34.8777
11.162	34.9255
11.18	34.9341
11.198	34.9064
11.216	34.85
11.234	34.7758
11.252	34.6961
11.27	34.6218
11.288	34.562
11.306	34.5203
11.324	34.4938
11.342	34.4733
11.36	34.4472
11.378	34.4046
11.396	34.3412
11.414	34.2595
11.432	34.1689
11.45	34.0812
11.468	34.0076
11.486	33.956
11.504	33.9292
11.522	33.9243
11.54	33.9336
11.558	33.9459
11.576	33.9481
11.594	33.9305
11.612	33.8878
11.63	33.8219
11.648	33.7404
11.666	33.6562
11.684	33.5825
11.702	33.5289
11.72	33.4999
11.738	33.4949
11.756	33.5088
11.774	33.5353
11.792	33.568
11.81	33.6025
11.828	33.6364
11.846	33.67
11.864	33.705
11.882	33.7435
11.9	33.786
11.918	33.8315
11.936	33.8777
11.954	33.9224
11.972	33.964
11.99	34.002
12.008	34.0364
12.026	34.0665
12.044	34.0896
12.062	34.1015
12.08	34.0982
12.098	34.0772
12.116	34.0397
12.134	33.9912
12.152	33.94
12.17	33.8932
12.188	33.8548
12.206	33.8238
12.224	33.7958
12.242	33.7663
12.26	33.7328
12.278	33.6958
12.296	33.6581
12.314	33.6224
12.332	33.5896
12.35	33.5577
12.368	33.5229
12.386	33.4809
12.404	33.4281
12.422	33.3632
12.44	33.2872
12.458	33.2027
12.476	33.1131
12.494	33.022
12.512	32.9331
12.53	32.8508
12.548	32.78
12.566	32.7257
12.584	32.6917
12.602	32.6793
12.62	32.6862
12.638	32.7068
12.656	32.7339
12.674	32.7603
12.692	32.7813
12.71	32.7951
12.728	32.8035
12.746	32.8105
12.764	32.8208
12.782	32.8388
12.8	32.8671
12.818	32.9063
12.836	32.9556
12.854	33.0135
12.872	33.0781
12.89	33.148
12.908	33.2213
12.926	33.2957
12.944	33.3675
12.962	33.4321
12.98	33.4845
12.998	33.5199
13.016	33.5349
13.034	33.5275
13.052	33.4986
13.07	33.451
13.088	33.3899
13.106	33.3213
13.124	33.2512
13.142	33.1848
13.16	33.1258
13.178	33.0765
13.196	33.0373
13.214	33.0073
13.232	32.9855
13.25	32.9707
13.268	32.9615
13.286	32.9562
13.304	32.9523
13.322	32.9464
13.34	32.9339
13.358	32.9095
13.376	32.8682
13.394	32.806
13.412	32.7219
13.43	32.6179
13.448	32.4994
13.466	32.3744
13.484	32.2522
13.502	32.1415
13.52	32.0486
13.538	31.9758
13.556	31.9218
13.574	31.8813
13.592	31.8475
13.61	31.813
13.628	31.7724
13.646	31.7227
13.664	31.6649
13.682	31.6026
13.7	31.5428
13.718	31.4919
13.736	31.4568
13.754	31.4413
13.772	31.4471
13.79	31.4727
13.808	31.5145
13.826	31.5676
13.844	31.6269
13.862	31.689
13.88	31.7518
13.898	31.8149
13.916	31.8787
13.934	31.944
13.952	32.011
13.97	32.0786
13.988	32.1446
14.006	32.2055
14.024	32.2577
14.042	32.2981
14.06	32.3252
14.078	32.3393
14.096	32.3419
14.114	32.3364
14.132	32.3268
14.15	32.317
14.168	32.3098
14.186	32.3065
14.204	32.3073
14.222	32.3104
14.24	32.3139
14.258	32.3148
14.276	32.3108
14.294	32.3
14.312	32.2809
14.33	32.2526
14.348	32.2149
14.366	32.1679
14.384	32.1124
14.402	32.0504
14.42	31.9841
14.438	31.9163
14.456	31.8498
14.474	31.7871
14.492	31.7304
14.51	31.6807
14.528	31.6372
14.546	31.5987
14.564	31.5632
14.582	31.5287
14.6	31.4936
14.618	31.4571
14.636	31.4196
14.654	31.3826
14.672	31.3483
14.69	31.319
14.708	31.2967
14.726	31.2825
14.744	31.2765
14.762	31.2769
14.78	31.2811
14.798	31.286
14.816	31.2881
14.834	31.2844
14.852	31.2728
14.87	31.2524
14.888	31.2232
14.906	31.1858
14.924	31.1414
14.942	31.0917
14.96	31.0383
14.978	30.9824
14.996	30.9253
15.014	30.8683
15.032	30.813
15.05	30.7611
15.068	30.7145
15.086	30.6753
15.104	30.6457
15.122	30.6279
15.14	30.6235
15.158	30.6333
15.176	30.6575
15.194	30.6953
15.212	30.7445
15.23	30.8022
15.248	30.8651
15.266	30.9296
15.284	30.9911
15.302	31.0459
15.32	31.0911
15.338	31.1245
15.356	31.1445
15.374	31.1509
15.392	31.1446
15.41	31.1271
15.428	31.101
15.446	31.0698
15.464	31.0369
15.482	31.0057
15.5	30.9792
15.518	30.9604
15.536	30.9503
15.554	30.9492
15.572	30.957
15.59	30.9714
15.608	30.9899
15.626	31.0099
15.644	31.0279
15.662	31.0406
15.68	31.0457
15.698	31.0413
15.716	31.0262
15.734	31.0006
15.752	30.9653
15.77	30.9216
15.788	30.8723
15.806	30.8199
15.824	30.7666
15.842	30.7152
15.86	30.6676
15.878	30.6248
15.896	30.5876
15.914	30.5556
15.932	30.5277
15.95	30.5027
15.968	30.4786
15.986	30.4529
16.004	30.4243
16.022	30.3912
16.04	30.3522
16.058	30.3075
16.076	30.2574
16.094	30.2031
16.112	30.147
16.13	30.0908
16.148	30.037
16.166	29.9886
16.184	29.9472
16.202	29.9147
16.22	29.8922
16.238	29.8793
16.256	29.8757
16.274	29.8793
16.292	29.8879
16.31	29.8996
16.328	29.9109
16.346	29.9197
16.364	29.9241
16.382	29.9222
16.4	29.9135
16.418	29.8979
16.436	29.8759
16.454	29.8493
16.472	29.819
16.49	29.7872
16.508	29.7551
16.526	29.7236
16.544	29.6937
16.562	29.6654
16.58	29.639
16.598	29.6141
16.616	29.5906
16.634	29.5684
16.652	29.5478
16.67	29.5296
16.688	29.5144
16.706	29.5046
16.724	29.5016
16.742	29.5072
16.76	29.5235
16.778	29.5509
16.796	29.59
16.814	29.639
16.832	29.6969
16.85	29.7593
16.868	29.8221
16.886	29.8818
16.904	29.931
16.922	29.9665
16.94	29.9834
16.958	29.9783
16.976	29.9503
16.994	29.8985
17.012	29.8259
17.03	29.7343
17.048	29.6303
17.066	29.5184
17.084	29.405
17.102	29.2983
17.12	29.2019
17.138	29.1243
17.156	29.0686
17.174	29.0387
17.192	29.037
17.21	29.0632
17.228	29.1167
17.246	29.1936
17.264	29.2917
17.282	29.4034
17.3	29.525
17.318	29.6488
17.336	29.7679
17.354	29.878
17.372	29.9706
17.39	30.0433
17.408	30.0906
17.426	30.111
17.444	30.1029
17.462	30.0669
17.48	30.0039
17.498	29.9167
17.516	29.809
17.534	29.6834
17.552	29.5469
17.57	29.4016
17.588	29.2551
17.606	29.1098
17.624	28.9707
17.642	28.8415
17.66	28.7238
17.678	28.6216
17.696	28.5353
17.714	28.4665
17.732	28.4151
17.75	28.3816
17.768	28.3642
17.786	28.3626
17.804	28.374
17.822	28.3976
17.84	28.4297
17.858	28.4681
17.876	28.5099
17.894	28.5509
17.912	28.5895
17.93	28.6202
17.948	28.6421
17.966	28.6504
17.984	28.6442
18.002	28.6204
18.02	28.5789
18.038	28.5187
18.056	28.4415
18.074	28.3473
18.092	28.2407
18.11	28.1225
18.128	27.9991
18.146	27.8722
18.164	27.7483
18.182	27.6299
18.2	27.5217
18.218	27.427
18.236	27.3482
18.254	27.2878
18.272	27.2468
18.29	27.2251
18.308	27.2224
18.326	27.2366
18.344	27.2671
18.362	27.3107
18.38	27.3665
18.398	27.4316
18.416	27.5049
18.434	27.5842
18.452	27.6686
18.47	27.7571
18.488	27.8488
18.506	27.9432
18.524	28.0398
18.542	28.1383
18.56	28.2374
18.578	28.337
18.596	28.4348
18.614	28.5308
18.632	28.6216
18.65	28.7068
18.668	28.7832
18.686	28.8505
18.704	28.9057
18.722	28.9488
18.74	28.9785
18.758	28.9955
18.776	29.0006
18.794	28.9949
18.812	28.981
18.83	28.9608
18.848	28.9385
18.866	28.9156
18.884	28.8962
18.902	28.8813
18.92	28.8743
18.938	28.8748
18.956	28.8842
18.974	28.901
18.992	28.9243
19.01	28.9516
19.028	28.9798
19.046	29.006
19.064	29.0256
19.082	29.0364
19.1	29.0334
19.118	29.0155
19.136	28.9787
19.154	28.9234
19.172	28.8478
19.19	28.7535
19.208	28.6418
19.226	28.5145
19.244	28.3765
19.262	28.2289
19.28	28.0794
19.298	27.9282
19.316	27.7838
19.334	27.6457
19.352	27.5212
19.37	27.4097
19.388	27.316
19.406	27.2398
19.424	27.1818
19.442	27.1422
19.46	27.1184
19.478	27.111
19.496	27.1148
19.514	27.1292
19.532	27.1494
19.55	27.1733
19.568	27.1974
19.586	27.2176
19.604	27.2325
19.622	27.2372
19.64	27.2319
19.658	27.2128
19.676	27.1804
19.694	27.1326
19.712	27.0695
19.73	26.9927
19.748	26.9017
19.766	26.8006
19.784	26.689
19.802	26.572
19.82	26.4516
19.838	26.3308
19.856	26.2147
19.874	26.1036
19.892	26.004
19.91	25.9151
19.928	25.8419
19.946	25.7842
19.964	25.7434
19.982	25.7202
20	25.7128
20.018	25.7215
20.036	25.7435
20.054	25.7756
20.072	25.8173
20.09	25.8616
20.108	25.9098
20.126	25.9539
20.144	25.9943
20.162	26.0264
20.18	26.048
20.198	26.0583
20.216	26.0542
20.234	26.0367
20.252	26.0057
20.27	25.961
20.288	25.9063
20.306	25.8407
20.324	25.7691
20.342	25.6939
20.36	25.6167
20.378	25.5436
20.396	25.4735
20.414	25.4133
20.432	25.3624
20.45	25.3243
20.468	25.3011
20.486	25.2924
20.504	25.3003
20.522	25.324
20.54	25.3624
20.558	25.4164
20.576	25.4824
20.594	25.5597
20.612	25.6468
20.63	25.7396
20.648	25.839
20.666	25.9393
20.684	26.041
20.702	26.1409
20.72	26.2362
20.738	26.3272
20.756	26.4103
20.774	26.4861
20.792	26.5527
20.81	26.6096
20.828	26.657
20.846	26.6945
20.864	26.7224
20.882	26.7416
20.9	26.7517
20.918	26.7544
20.936	26.7506
20.954	26.7403
20.972	26.7262
20.99	26.7076
21.008	26.6866
21.026	26.6638
21.044	26.6395
21.062	26.6154
21.08	26.5911
21.098	26.5676
21.116	26.5452
21.134	26.5239
21.152	26.5043
21.17	26.4863
21.188	26.4699
21.206	26.4551
21.224	26.4422
21.242	26.4311
21.26	26.4218
21.278	26.4147
21.296	26.4097
21.314	26.4071
21.332	26.4074
21.35	26.4105
21.368	26.4175
21.386	26.4285
21.404	26.4439
21.422	26.4648
21.44	26.4909
21.458	26.5229
21.476	26.5613
21.494	26.6056
21.512	26.6559
21.53	26.7123
21.548	26.7737
21.566	26.8396
21.584	26.9099
21.602	26.9818
21.62	27.056
21.638	27.1304
21.656	27.202
21.674	27.2721
21.692	27.3367
21.71	27.395
21.728	27.4468
21.746	27.4885
21.764	27.5209
21.782	27.5428
21.8	27.5527
21.818	27.5514
21.836	27.539
21.854	27.5148
21.872	27.4803
21.89	27.4372
21.908	27.3845
21.926	27.3255
21.944	27.2621
21.962	27.1936
21.98	27.1249
21.998	27.0557
22.016	26.9874
22.034	26.9242
22.052	26.8646
22.07	26.811
22.088	26.7656
22.106	26.7272
22.124	26.6975
22.142	26.6773
22.16	26.6659
22.178	26.6627
22.196	26.6683
22.214	26.6812
22.232	26.6997
22.25	26.7249
22.268	26.7534
22.286	26.7838
22.304	26.8168
22.322	26.8484
22.34	26.8785
22.358	26.9066
22.376	26.9291
22.394	26.9467
22.412	26.9584
22.43	26.962
22.448	26.9583
22.466	26.9464
22.484	26.9252
22.502	26.8953
22.52	26.8568
22.538	26.8091
22.556	26.7528
22.574	26.6891
22.592	26.6178
22.61	26.5395
22.628	26.4566
22.646	26.3685
22.664	26.2762
22.682	26.1821
22.7	26.0853
22.718	25.9872
22.736	25.8897
22.754	25.7919
22.772	25.6956
22.79	25.6024
22.808	25.5113
22.826	25.4242
22.844	25.3421
22.862	25.2642
22.88	25.1919
22.898	25.1257
22.916	25.0651
22.934	25.0108
22.952	24.963
22.97	24.9215
22.988	24.8862
23.006	24.8571
23.024	24.8341
23.042	24.8165
23.06	24.8046
23.078	24.798
23.096	24.7957
23.114	24.798
23.132	24.8045
23.15	24.814
23.168	24.8268
23.186	24.8425
23.204	24.8597
23.222	24.8787
23.24	24.8991
23.258	24.9195
23.276	24.9404
23.294	24.9612
23.312	24.9806
23.33	24.9987
23.348	25.0153
23.366	25.0293
23.384	25.0405
23.402	25.0492
23.42	25.0548
23.438	25.0573
23.456	25.0567
23.474	25.0526
23.492	25.0452
23.51	25.0345
23.528	25.0197
23.546	25.0006
23.564	24.9774
23.582	24.9503
23.6	24.9191
23.618	24.8837
23.636	24.8452
23.654	24.8038
23.672	24.7592
23.69	24.7126
23.708	24.6649
23.726	24.6152
23.744	24.5653
23.762	24.5164
23.78	24.4672
23.798	24.4197
23.816	24.3757
23.834	24.334
23.852	24.296
23.87	24.2639
23.888	24.2364
23.906	24.2147
23.924	24.2024
23.942	24.1987
23.96	24.2039
23.978	24.2217
23.996	24.2533
24.014	24.2973
24.032	24.3563
24.05	24.4322
24.068	24.5236
24.086	24.6312
24.104	24.756
24.122	24.8977
24.14	25.0558
24.158	25.2304
24.176	25.4222
24.194	25.63
24.212	25.8515
24.23	26.0874
24.248	26.3376
24.266	26.5974
24.284	26.8648
24.302	27.1428
24.32	27.4252
24.338	27.7067
24.356	27.9916
24.374	28.2755
24.392	28.5509
24.41	28.82
24.428	29.0823
24.446	29.3306
24.464	29.5623
24.482	29.781
24.5	29.9813
24.518	30.1589
24.536	30.3166
24.554	30.4527
24.572	30.5646
24.59	30.6518
24.608	30.7155
24.626	30.756
24.644	30.7727
24.662	30.7651
24.68	30.737
24.698	30.6919
24.716	30.6275
24.734	30.5457
24.752	30.4502
24.77	30.3392
24.788	30.213
24.806	30.079
24.824	29.9409
24.842	29.7921
24.86	29.643
24.878	29.5057
24.896	29.3751
24.914	29.2529
24.932	29.1516
24.95	29.0778
24.968	29.0243
24.986	28.9977
25.004	29.0057
25.022	29.0451
25.04	29.1163
25.058	29.2244
25.076	29.3718
25.094	29.5557
25.112	29.7772
25.13	30.0374
25.148	30.3377
25.166	30.6756
25.184	31.0472
25.202	31.4517
25.22	31.8917
25.238	32.361
25.256	32.8535
25.274	33.376
25.292	33.9232
25.31	34.4815
25.328	35.0448
25.346	35.6242
25.364	36.2041
25.382	36.7665
25.4	37.32
25.418	37.8636
25.436	38.3747
25.454	38.8374
25.472	39.2698
25.49	39.6567
25.508	39.9756
25.526	40.2225
25.544	40.4085
25.562	40.5192
25.58	40.5411
25.598	40.4791
25.616	40.3349
25.634	40.104
25.652	39.7812
25.67	39.365
25.688	38.8675
25.706	38.3014
25.724	37.661
25.742	36.9438
25.76	36.1745
25.778	35.3755
25.796	34.532
25.814	33.6499
25.832	32.7489
25.85	31.8414
25.868	30.9122
25.886	29.9735
25.904	29.0414
25.922	28.1215
25.94	27.2051
25.958	26.2966
25.976	25.4008
25.994	24.5167
26.012	23.6432
26.03	22.7823
26.048	21.9347
26.066	21.0908
26.084	20.2619
26.102	19.4648
26.12	18.7094
26.138	17.9809
26.156	17.2917
26.174	16.6576
26.192	16.076
26.21	15.5322
26.228	15.0604
26.246	14.6957
26.264	14.4423
26.282	14.2833
26.3	14.2297
26.318	14.2926
26.336	14.4884
26.354	14.7999
26.372	15.1959
26.39	15.6494
26.408	16.2049
26.426	16.8317
26.444	17.4636
26.462	18.0513
26.48	18.677
26.498	19.2774
26.516	19.7464
26.534	20.0097
26.552	20.1618
26.57	20.1452
26.588	19.8703
26.606	19.278
26.624	18.4363
26.642	17.3168
26.66	15.8756
26.678	14.078
26.696	11.9423
26.714	9.493260
26.732	6.754258
26.75	3.714666
26.768	0.327957
26.786	-3.308804
26.804	-7.089576
26.822	-10.9826
26.84	-15.0917
26.858	-19.2969
26.876	-23.4637
26.894	-27.5404
26.912	-31.6477
26.93	-35.676
26.948	-39.499
26.966	-43.1389
26.984	-46.8266
27.002	-50.1779
27.02	-52.7659
27.028	-53.4773