File: Bakgrunnsmateriale/MATLAB/FTIR/ftir_data/LPE454/Mapping_121/LPE454_t101.asc
PE IR       SPECTRUM    SPECTRUM    ASCII       PEDS        1.60
  -1
LP97F7~1.ASC
17/05/19
22:40:45.00
17/05/19
22:41:11.00
tln
$LPE454_t0101$<tbV0>[10.4,10.4,8.0,0.0,27,1,0]
27.028
64

2002,4.07
MIRTGS : RIGHTBACK : INTERNAL 2
MIR : ON : INTERNAL 2
OPTKBR

0.200000
8
8.000000
FILLER
RATIO
SPECTRUM
UNLOCKED 256

DOUBLE
64
COMBINED
1
0
0

0.002000
RATIO

1
0
TRUE
51149
0
LEFT NOT FITTED RIGHT NOT FITTED 0
NONE
NONE
15600
12
4.427000
51148
TRUE
1 0 8 72 0 0 0 0

15798

#HDR
-1
-1
#GR
µM
%T
2.38419e-05
0.0
2.000000
0.002000
12515
8
58.2957
-2.824060
#DATA
2.000000	 0.335025
2.018000	 -0.135045
2.036000	 -0.241141
2.054000	 -0.075719
2.072000	 0.037779
2.090000	 0.430735
2.108000	 -0.248186
2.126000	 0.324197
2.144000	 0.328120
2.162000	 1.020340
2.180000	 4.245020
2.198000	 0.646194
2.216000	 0.598118
2.234000	 -0.144088
2.252000	 -0.099030
2.270000	 0.045729
2.288000	 -0.194564
2.306000	 -0.164410
2.324000	 -0.050126
2.342000	 0.239429
2.360000	 0.233727
2.378000	 -0.082187
2.396000	 -0.153052
2.414000	 -0.186312
2.432000	 0.173938
2.450000	 0.131779
2.468000	 0.215495
2.486000	 0.318885
2.504000	 0.143908
2.522000	 0.110748
2.540000	 0.210015
2.558000	 -0.173371
2.576000	 0.199500
2.594000	 0.057997
2.612000	 0.105762
2.630000	 -0.081532
2.648000	 -0.099118
2.666000	 0.134434
2.684000	 0.073975
2.702000	 0.033903
2.720000	 -0.079643
2.738000	 0.002974
2.756000	 0.080537
2.774000	 0.027292
2.792000	 -0.039007
2.810000	 0.174126
2.828000	 0.032654
2.846000	 -0.033719
2.864000	 -0.079407
2.882000	 0.197149
2.900000	 -0.009294
2.918000	 0.044776
2.936000	 0.058488
2.954000	 0.063529
2.972000	 0.051121
2.990000	 0.049021
3.008000	 -0.023784
3.026000	 -0.115029
3.044000	 0.036146
3.062000	 -0.061026
3.080000	 0.044043
3.098000	 0.004619
3.116000	 -0.013884
3.134000	 0.058359
3.152000	 0.072455
3.170000	 0.022759
3.188000	 0.086823
3.206000	 0.086991
3.224000	 0.135588
3.242000	 0.021442
3.260000	 0.027627
3.278000	 0.079671
3.296000	 -0.071382
3.314000	 -0.020612
3.332000	 0.009426
3.350000	 -0.005006
3.368000	 0.153424
3.386000	 0.039700
3.404000	 0.025564
3.422000	 -0.002085
3.440000	 -0.032443
3.458000	 0.021169
3.476000	 0.048751
3.494000	 0.058629
3.512000	 -0.003828
3.530000	 -0.112542
3.548000	 0.055041
3.566000	 -0.061388
3.584000	 0.066411
3.602000	 0.089726
3.620000	 0.125545
3.638000	 0.145832
3.656000	 0.092334
3.674000	 -0.008891
3.692000	 0.050541
3.710000	 -0.021236
3.728000	 -0.026206
3.746000	 0.052406
3.764000	 0.017900
3.782000	 0.065296
3.800000	 0.170654
3.818000	 0.030504
3.836000	 0.056422
3.854000	 0.048309
3.872000	 -0.063666
3.890000	 -0.076511
3.908000	 -0.001689
3.926000	 -0.080095
3.944000	 -0.013071
3.962000	 0.028718
3.980000	 0.110979
3.998000	 -0.029730
4.016000	 -0.007002
4.034000	 -0.063471
4.052000	 -0.029059
4.070000	 -0.015869
4.088000	 0.011855
4.106000	 -0.040721
4.124000	 -0.087575
4.141999	 -0.020625
4.160000	 0.184902
4.178000	 0.077843
4.196000	 0.066769
4.214000	 0.061733
4.232000	 0.123334
4.250000	 0.300382
4.268000	 0.351575
4.286000	 0.458929
4.304000	 0.522416
4.322000	 0.684803
4.340000	 0.860460
4.358000	 1.179947
4.375999	 1.459698
4.394000	 1.699309
4.412000	 1.965378
4.430000	 2.358576
4.448000	 2.776240
4.466000	 3.283909
4.484000	 3.847500
4.502000	 4.501840
4.520000	 5.308533
4.538000	 6.043940
4.556000	 6.893631
4.574000	 7.731814
4.592000	 8.641063
4.609999	 9.740298
4.628000	 10.7167
4.646000	 11.6926
4.664000	 12.7742
4.682000	 13.7716
4.700000	 14.8281
4.718000	 15.9188
4.736000	 16.9949
4.754000	 18.0023
4.772000	 18.952
4.790000	 19.8971
4.808000	 20.8511
4.826000	 21.7101
4.843999	 22.6279
4.862000	 23.5
4.880000	 24.2459
4.898000	 25.0728
4.916000	 25.7324
4.934000	 26.5033
4.952000	 27.1613
4.970000	 27.7371
4.988000	 28.3498
5.006000	 28.9243
5.024000	 29.4321
5.042000	 29.8884
5.060000	 30.4038
5.077999	 30.7669
5.096000	 31.2155
5.114000	 31.574
5.132000	 32.0202
5.150000	 32.3431
5.168000	 32.6461
5.186000	 33.027
5.204000	 33.286
5.222000	 33.5393
5.240000	 33.8131
5.258000	 34.0372
5.276000	 34.1714
5.294000	 34.3559
5.312000	 34.4383
5.330000	 34.5933
5.348000	 34.8153
5.366000	 35.039
5.384000	 35.1732
5.402000	 35.1947
5.420000	 35.3134
5.438000	 35.4556
5.456000	 35.5857
5.474000	 35.713
5.492000	 35.8849
5.510000	 35.9555
5.528000	 35.9488
5.546000	 35.9724
5.564000	 35.9856
5.582000	 36.0866
5.600000	 36.1759
5.618000	 36.1865
5.636000	 36.2509
5.654000	 36.3057
5.672000	 36.2913
5.690000	 36.3529
5.708000	 36.4163
5.726000	 36.3911
5.744000	 36.3335
5.762000	 36.3845
5.780000	 36.4604
5.798000	 36.4892
5.816000	 36.4986
5.834000	 36.5236
5.852000	 36.5176
5.870000	 36.5167
5.888000	 36.658
5.906000	 36.705
5.923999	 36.6618
5.942000	 36.6003
5.960000	 36.5205
5.978000	 36.4798
5.996000	 36.5366
6.014000	 36.5854
6.032000	 36.6024
6.050000	 36.5998
6.068000	 36.5769
6.086000	 36.573
6.104000	 36.5861
6.122000	 36.6267
6.140000	 36.6389
6.158000	 36.6065
6.176000	 36.5451
6.194000	 36.5731
6.212000	 36.6312
6.230000	 36.6514
6.248000	 36.6941
6.266000	 36.6484
6.284000	 36.6233
6.302000	 36.608
6.320000	 36.5685
6.338000	 36.5873
6.356000	 36.5826
6.374000	 36.5771
6.392000	 36.6046
6.410000	 36.6262
6.428000	 36.5418
6.446000	 36.4555
6.464000	 36.503
6.482000	 36.5484
6.500000	 36.5222
6.518000	 36.4758
6.536000	 36.47
6.554000	 36.49
6.572000	 36.4561
6.590000	 36.3836
6.608000	 36.3507
6.626000	 36.3846
6.644000	 36.4627
6.662000	 36.5412
6.680000	 36.5966
6.698000	 36.5525
6.716000	 36.382
6.734000	 36.2761
6.752000	 36.2909
6.770000	 36.3328
6.788000	 36.3705
6.806000	 36.3833
6.824000	 36.3652
6.842000	 36.2971
6.860000	 36.1727
6.878000	 36.1264
6.896000	 36.2111
6.914000	 36.2841
6.932000	 36.2909
6.950000	 36.2881
6.968000	 36.3045
6.986000	 36.2912
7.004000	 36.2531
7.022000	 36.2752
7.040000	 36.3171
7.058000	 36.3131
7.076000	 36.2975
7.094000	 36.2656
7.112000	 36.2034
7.130000	 36.1579
7.148000	 36.1715
7.166000	 36.2173
7.184000	 36.1979
7.202000	 36.1037
7.220000	 36.0541
7.238000	 36.0898
7.256000	 36.1382
7.274000	 36.1477
7.292000	 36.1297
7.310000	 36.1323
7.328000	 36.1655
7.346000	 36.1848
7.364000	 36.1678
7.382000	 36.1213
7.400000	 36.0605
7.418000	 36.0026
7.436000	 35.9477
7.454000	 35.897
7.472000	 35.8718
7.490000	 35.8821
7.508000	 35.923
7.526000	 35.9799
7.544000	 36.0132
7.562000	 35.9884
7.580000	 35.9359
7.598000	 35.9199
7.616000	 35.9349
7.634000	 35.9133
7.652000	 35.8538
7.670000	 35.8331
7.688000	 35.8806
7.706000	 35.9418
7.724000	 35.9547
7.742000	 35.9073
7.760000	 35.8397
7.778000	 35.8107
7.796000	 35.8319
7.814000	 35.8458
7.832000	 35.8121
7.850000	 35.7777
7.868000	 35.8012
7.886000	 35.8543
7.904000	 35.8755
7.922000	 35.8584
7.940000	 35.8341
7.958000	 35.8203
7.976000	 35.8119
7.994000	 35.8001
8.012000	 35.7863
8.030000	 35.7764
8.048000	 35.7573
8.065999	 35.7094
8.084000	 35.6466
8.102000	 35.6095
8.120000	 35.614
8.138000	 35.6365
8.155999	 35.6473
8.173999	 35.64
8.192000	 35.6234
8.210000	 35.6018
8.228000	 35.5802
8.246000	 35.5662
8.263999	 35.5535
8.282000	 35.5249
8.300000	 35.4839
8.318000	 35.4599
8.336000	 35.4692
8.353999	 35.4956
8.372000	 35.5144
8.390000	 35.514
8.408000	 35.4948
8.426000	 35.4637
8.443999	 35.4332
8.462000	 35.4187
8.480000	 35.425
8.498000	 35.4363
8.516000	 35.4313
8.533999	 35.4106
8.552000	 35.399
8.570000	 35.412
8.588000	 35.431
8.606000	 35.425
8.624000	 35.3896
8.641999	 35.3473
8.660000	 35.3173
8.678000	 35.2967
8.696000	 35.2712
8.714000	 35.2341
8.731999	 35.1883
8.750000	 35.1393
8.768000	 35.0946
8.786000	 35.0676
8.804000	 35.0722
8.821999	 35.1094
8.840000	 35.1646
8.858000	 35.2151
8.876000	 35.244
8.894000	 35.2465
8.911999	 35.2281
8.930000	 35.1967
8.948000	 35.1592
8.966000	 35.1217
8.984000	 35.0873
9.001999	 35.0516
9.020000	 35.0065
9.038000	 34.9547
9.056000	 34.9192
9.074000	 34.9268
9.092000	 34.977
9.109999	 35.0367
9.128000	 35.0663
9.146000	 35.0523
9.164000	 35.0114
9.182000	 34.9703
9.199999	 34.9451
9.218000	 34.9376
9.236000	 34.9442
9.254000	 34.9602
9.272000	 34.9787
9.289999	 34.9889
9.308000	 34.9788
9.326000	 34.944
9.344000	 34.8932
9.362000	 34.8445
9.379999	 34.8139
9.398000	 34.8046
9.416000	 34.8075
9.434000	 34.8075
9.452000	 34.7926
9.469999	 34.7607
9.488000	 34.7213
9.506000	 34.693
9.524000	 34.6949
9.542000	 34.7336
9.560000	 34.7953
9.577999	 34.8503
9.596000	 34.8686
9.614000	 34.8383
9.632000	 34.7747
9.650000	 34.7124
9.667999	 34.6862
9.686000	 34.7059
9.704000	 34.7497
9.722000	 34.783
9.740000	 34.7848
9.757999	 34.7609
9.776000	 34.7333
9.794000	 34.7192
9.812000	 34.7177
9.830000	 34.714
9.847999	 34.6935
9.866000	 34.6526
9.884000	 34.6013
9.902000	 34.5574
9.920000	 34.5369
9.937999	 34.5443
9.956000	 34.5671
9.974000	 34.5836
9.992000	 34.5764
10.01	34.5427
10.028	34.4935
10.046	34.441
10.064	34.389
10.082	34.3337
10.1	34.273
10.118	34.216
10.136	34.1813
10.154	34.1852
10.172	34.2301
10.19	34.3011
10.208	34.3731
10.226	34.4222
10.244	34.4334
10.262	34.4047
10.28	34.3458
10.298	34.2749
10.316	34.2137
10.334	34.179
10.352	34.1764
10.37	34.1984
10.388	34.2284
10.406	34.2508
10.424	34.2568
10.442	34.2468
10.46	34.2249
10.478	34.1946
10.496	34.1573
10.514	34.1145
10.532	34.0718
10.55	34.0371
10.568	34.0162
10.586	34.0089
10.604	34.0081
10.622	34.004
10.64	33.99
10.658	33.9662
10.676	33.939
10.694	33.9154
10.712	33.8993
10.73	33.8887
10.748	33.8789
10.766	33.8667
10.784	33.8538
10.802	33.8472
10.82	33.8547
10.838	33.8801
10.856	33.9193
10.874	33.9599
10.892	33.9874
10.91	33.9903
10.928	33.9657
10.946	33.9197
10.964	33.8642
10.982	33.8126
11	33.7747
11.018	33.7556
11.036	33.7547
11.054	33.7675
11.072	33.7876
11.09	33.8084
11.108	33.8244
11.126	33.8308
11.144	33.8237
11.162	33.8001
11.18	33.7578
11.198	33.696
11.216	33.6169
11.234	33.5255
11.252	33.4302
11.27	33.3409
11.288	33.2682
11.306	33.2195
11.324	33.198
11.342	33.2009
11.36	33.2191
11.378	33.2372
11.396	33.239
11.414	33.2115
11.432	33.152
11.45	33.0697
11.468	32.9844
11.486	32.9175
11.504	32.8846
11.522	32.8898
11.54	32.926
11.558	32.9783
11.576	33.031
11.594	33.0748
11.612	33.1074
11.63	33.1329
11.648	33.1567
11.666	33.1818
11.684	33.2061
11.702	33.2239
11.72	33.2289
11.738	33.2171
11.756	33.1889
11.774	33.1488
11.792	33.1039
11.81	33.0601
11.828	33.0208
11.846	32.9864
11.864	32.9548
11.882	32.9229
11.9	32.888
11.918	32.8484
11.936	32.8039
11.954	32.7551
11.972	32.704
11.99	32.6531
12.008	32.6059
12.026	32.5668
12.044	32.5399
12.062	32.5289
12.08	32.535
12.098	32.5563
12.116	32.5871
12.134	32.6188
12.152	32.642
12.17	32.6493
12.188	32.6369
12.206	32.606
12.224	32.5622
12.242	32.5129
12.26	32.4652
12.278	32.4243
12.296	32.3921
12.314	32.3681
12.332	32.3504
12.35	32.337
12.368	32.3269
12.386	32.3198
12.404	32.3163
12.422	32.317
12.44	32.3218
12.458	32.3296
12.476	32.3387
12.494	32.3471
12.512	32.3534
12.53	32.3579
12.548	32.3613
12.566	32.3652
12.584	32.3707
12.602	32.3779
12.62	32.3858
12.638	32.3927
12.656	32.3967
12.674	32.3971
12.692	32.3936
12.71	32.3864
12.728	32.3757
12.746	32.3609
12.764	32.3408
12.782	32.3134
12.8	32.2776
12.818	32.2333
12.836	32.1829
12.854	32.1307
12.872	32.0817
12.89	32.041
12.908	32.0119
12.926	31.9951
12.944	31.9884
12.962	31.9877
12.98	31.9878
12.998	31.9845
13.016	31.9748
13.034	31.958
13.052	31.9349
13.07	31.9077
13.088	31.8794
13.106	31.8529
13.124	31.8309
13.142	31.8153
13.16	31.8073
13.178	31.807
13.196	31.8134
13.214	31.8241
13.232	31.8361
13.25	31.8452
13.268	31.8475
13.286	31.8395
13.304	31.8186
13.322	31.7842
13.34	31.7377
13.358	31.6826
13.376	31.6233
13.394	31.565
13.412	31.5125
13.43	31.4693
13.448	31.4372
13.466	31.4165
13.484	31.4056
13.502	31.4026
13.52	31.4048
13.538	31.4101
13.556	31.4168
13.574	31.4237
13.592	31.4301
13.61	31.4355
13.628	31.439
13.646	31.4395
13.664	31.4359
13.682	31.4269
13.7	31.4121
13.718	31.392
13.736	31.3684
13.754	31.3438
13.772	31.3209
13.79	31.3028
13.808	31.291
13.826	31.286
13.844	31.2865
13.862	31.2902
13.88	31.2936
13.898	31.2935
13.916	31.2872
13.934	31.2729
13.952	31.2503
13.97	31.2202
13.988	31.1851
14.006	31.1479
14.024	31.1117
14.042	31.0793
14.06	31.0529
14.078	31.0335
14.096	31.0209
14.114	31.014
14.132	31.0106
14.15	31.0077
14.168	31.0021
14.186	30.9905
14.204	30.9698
14.222	30.9384
14.24	30.8957
14.258	30.8428
14.276	30.7825
14.294	30.7183
14.312	30.6546
14.33	30.596
14.348	30.5464
14.366	30.5088
14.384	30.4852
14.402	30.4758
14.42	30.48
14.438	30.4959
14.456	30.5212
14.474	30.5532
14.492	30.5894
14.51	30.627
14.528	30.6636
14.546	30.6971
14.564	30.7258
14.582	30.7481
14.6	30.7633
14.618	30.7708
14.636	30.771
14.654	30.7644
14.672	30.7524
14.69	30.7367
14.708	30.7189
14.726	30.7007
14.744	30.6833
14.762	30.6676
14.78	30.6536
14.798	30.6413
14.816	30.6306
14.834	30.6212
14.852	30.6131
14.87	30.6064
14.888	30.6014
14.906	30.5985
14.924	30.5973
14.942	30.5977
14.96	30.5979
14.978	30.5958
14.996	30.5887
15.014	30.5735
15.032	30.5469
15.05	30.5074
15.068	30.4545
15.086	30.3896
15.104	30.3153
15.122	30.2369
15.14	30.1603
15.158	30.0913
15.176	30.035
15.194	29.996
15.212	29.9766
15.23	29.9767
15.248	29.9942
15.266	30.026
15.284	30.0667
15.302	30.1101
15.32	30.1511
15.338	30.1849
15.356	30.2074
15.374	30.2157
15.392	30.2093
15.41	30.1885
15.428	30.1546
15.446	30.1111
15.464	30.061
15.482	30.0076
15.5	29.9541
15.518	29.9039
15.536	29.8587
15.554	29.8199
15.572	29.7883
15.59	29.7631
15.608	29.7435
15.626	29.7281
15.644	29.7153
15.662	29.703
15.68	29.6903
15.698	29.6761
15.716	29.6601
15.734	29.6429
15.752	29.6255
15.77	29.6092
15.788	29.5962
15.806	29.5882
15.824	29.5864
15.842	29.5919
15.86	29.6046
15.878	29.6237
15.896	29.6481
15.914	29.675
15.932	29.7019
15.95	29.7263
15.968	29.745
15.986	29.7552
16.004	29.7554
16.022	29.7442
16.04	29.7208
16.058	29.6861
16.076	29.6405
16.094	29.5862
16.112	29.5255
16.13	29.4603
16.148	29.393
16.166	29.3262
16.184	29.261
16.202	29.1988
16.22	29.1409
16.238	29.0876
16.256	29.0392
16.274	28.9962
16.292	28.959
16.31	28.9279
16.328	28.9038
16.346	28.8877
16.364	28.8804
16.382	28.883
16.4	28.8954
16.418	28.9177
16.436	28.9489
16.454	28.9873
16.472	29.0314
16.49	29.0774
16.508	29.1219
16.526	29.162
16.544	29.1928
16.562	29.2118
16.58	29.2168
16.598	29.2057
16.616	29.1792
16.634	29.1375
16.652	29.0834
16.67	29.0195
16.688	28.9486
16.706	28.8756
16.724	28.803
16.742	28.7342
16.76	28.672
16.778	28.6173
16.796	28.5712
16.814	28.534
16.832	28.5056
16.85	28.4852
16.868	28.4717
16.886	28.4643
16.904	28.4613
16.922	28.4617
16.94	28.4644
16.958	28.4686
16.976	28.4737
16.994	28.4784
17.012	28.483
17.03	28.4875
17.048	28.4922
17.066	28.4981
17.084	28.5065
17.102	28.5196
17.12	28.5386
17.138	28.5665
17.156	28.6046
17.174	28.6542
17.192	28.7164
17.21	28.7907
17.228	28.8765
17.246	28.9706
17.264	29.0713
17.282	29.1715
17.3	29.2683
17.318	29.3548
17.336	29.4257
17.354	29.4772
17.372	29.5039
17.39	29.5052
17.408	29.4784
17.426	29.426
17.444	29.3485
17.462	29.2513
17.48	29.1367
17.498	29.012
17.516	28.881
17.534	28.748
17.552	28.6179
17.57	28.4921
17.588	28.3728
17.606	28.2596
17.624	28.1527
17.642	28.0496
17.66	27.9496
17.678	27.8493
17.696	27.7483
17.714	27.6443
17.732	27.5379
17.75	27.4286
17.768	27.3193
17.786	27.2107
17.804	27.1074
17.822	27.0108
17.84	26.9265
17.858	26.8562
17.876	26.8029
17.894	26.7691
17.912	26.7559
17.93	26.7634
17.948	26.7913
17.966	26.838
17.984	26.9019
18.002	26.9799
18.02	27.0693
18.038	27.1677
18.056	27.271
18.074	27.3779
18.092	27.484
18.11	27.5888
18.128	27.6882
18.146	27.7817
18.164	27.866
18.182	27.9398
18.2	28.0009
18.218	28.0468
18.236	28.0763
18.254	28.0864
18.272	28.0762
18.29	28.0435
18.308	27.9881
18.326	27.9086
18.344	27.8056
18.362	27.6798
18.38	27.5324
18.398	27.3654
18.416	27.1819
18.434	26.9853
18.452	26.7801
18.47	26.5693
18.488	26.3587
18.506	26.1504
18.524	25.9503
18.542	25.7596
18.56	25.5835
18.578	25.4225
18.596	25.2803
18.614	25.1572
18.632	25.0544
18.65	24.9716
18.668	24.9096
18.686	24.8678
18.704	24.8456
18.722	24.8426
18.74	24.8583
18.758	24.8922
18.776	24.9431
18.794	25.0106
18.812	25.0937
18.83	25.1913
18.848	25.3017
18.866	25.4234
18.884	25.5541
18.902	25.6915
18.92	25.832
18.938	25.9733
18.956	26.1111
18.974	26.2427
18.992	26.3636
19.01	26.4718
19.028	26.5629
19.046	26.6358
19.064	26.6872
19.082	26.7174
19.1	26.7249
19.118	26.7113
19.136	26.6773
19.154	26.6255
19.172	26.5596
19.19	26.4818
19.208	26.3987
19.226	26.3117
19.244	26.2287
19.262	26.1503
19.28	26.0842
19.298	26.0302
19.316	25.9945
19.334	25.9766
19.352	25.9794
19.37	26.0027
19.388	26.0459
19.406	26.1091
19.424	26.1883
19.442	26.2838
19.46	26.3898
19.478	26.5064
19.496	26.6275
19.514	26.7519
19.532	26.8754
19.55	26.9954
19.568	27.1097
19.586	27.2151
19.604	27.3112
19.622	27.3947
19.64	27.4663
19.658	27.5243
19.676	27.5689
19.694	27.6004
19.712	27.6186
19.73	27.6252
19.748	27.6202
19.766	27.6056
19.784	27.5814
19.802	27.55
19.82	27.5123
19.838	27.4698
19.856	27.4248
19.874	27.3777
19.892	27.3317
19.91	27.2864
19.928	27.2453
19.946	27.2081
19.964	27.1772
19.982	27.1529
20	27.1359
20.018	27.1272
20.036	27.1263
20.054	27.1336
20.072	27.1487
20.09	27.1704
20.108	27.1989
20.126	27.2312
20.144	27.2677
20.162	27.3048
20.18	27.3415
20.198	27.3763
20.216	27.406
20.234	27.4308
20.252	27.4474
20.27	27.4561
20.288	27.4548
20.306	27.4432
20.324	27.4212
20.342	27.3881
20.36	27.3447
20.378	27.292
20.396	27.2299
20.414	27.161
20.432	27.0848
20.45	27.0042
20.468	26.9202
20.486	26.8336
20.504	26.7471
20.522	26.6601
20.54	26.5748
20.558	26.4911
20.576	26.4095
20.594	26.3306
20.612	26.254
20.63	26.1795
20.648	26.1072
20.666	26.0365
20.684	25.9674
20.702	25.8996
20.72	25.8327
20.738	25.767
20.756	25.703
20.774	25.6405
20.792	25.5809
20.81	25.5241
20.828	25.4712
20.846	25.4239
20.864	25.3819
20.882	25.3476
20.9	25.3208
20.918	25.3026
20.936	25.2941
20.954	25.2947
20.972	25.3044
20.99	25.3236
21.008	25.3502
21.026	25.3843
21.044	25.4247
21.062	25.4681
21.08	25.5155
21.098	25.5623
21.116	25.6079
21.134	25.6508
21.152	25.6866
21.17	25.7166
21.188	25.7368
21.206	25.7465
21.224	25.7453
21.242	25.7312
21.26	25.7046
21.278	25.6657
21.296	25.6137
21.314	25.55
21.332	25.4764
21.35	25.392
21.368	25.3007
21.386	25.2028
21.404	25.0998
21.422	24.9961
21.44	24.8903
21.458	24.7868
21.476	24.6871
21.494	24.5913
21.512	24.5035
21.53	24.4229
21.548	24.3512
21.566	24.2901
21.584	24.2388
21.602	24.1983
21.62	24.1688
21.638	24.1498
21.656	24.1407
21.674	24.1419
21.692	24.1515
21.71	24.1695
21.728	24.1952
21.746	24.2263
21.764	24.2634
21.782	24.305
21.8	24.3495
21.818	24.3976
21.836	24.4471
21.854	24.4979
21.872	24.5497
21.89	24.6015
21.908	24.6535
21.926	24.7052
21.944	24.7559
21.962	24.8059
21.98	24.8549
21.998	24.903
22.016	24.9501
22.034	24.9964
22.052	25.0419
22.07	25.0864
22.088	25.1299
22.106	25.1724
22.124	25.2133
22.142	25.2527
22.16	25.2902
22.178	25.3246
22.196	25.3563
22.214	25.3846
22.232	25.4081
22.25	25.4277
22.268	25.4417
22.286	25.4496
22.304	25.4517
22.322	25.4469
22.34	25.4351
22.358	25.4164
22.376	25.3902
22.394	25.3564
22.412	25.3153
22.43	25.2671
22.448	25.2115
22.466	25.1495
22.484	25.0815
22.502	25.0073
22.52	24.9286
22.538	24.8459
22.556	24.7592
22.574	24.6706
22.592	24.58
22.61	24.4879
22.628	24.3968
22.646	24.3058
22.664	24.2162
22.682	24.1308
22.7	24.0482
22.718	23.9703
22.736	23.8994
22.754	23.8344
22.772	23.7766
22.79	23.7275
22.808	23.6863
22.826	23.6536
22.844	23.6299
22.862	23.6149
22.88	23.6088
22.898	23.6117
22.916	23.6235
22.934	23.6433
22.952	23.6714
22.97	23.7075
22.988	23.7487
23.006	23.7949
23.024	23.8461
23.042	23.8988
23.06	23.9533
23.078	24.0091
23.096	24.0632
23.114	24.1155
23.132	24.166
23.15	24.2127
23.168	24.2557
23.186	24.2949
23.204	24.3288
23.222	24.3572
23.24	24.3806
23.258	24.3996
23.276	24.4133
23.294	24.4228
23.312	24.4307
23.33	24.4362
23.348	24.44
23.366	24.4455
23.384	24.4522
23.402	24.4603
23.42	24.4731
23.438	24.4906
23.456	24.5125
23.474	24.54
23.492	24.5739
23.51	24.6135
23.528	24.658
23.546	24.7082
23.564	24.7636
23.582	24.8209
23.6	24.8798
23.618	24.941
23.636	24.9998
23.654	25.0542
23.672	25.1064
23.69	25.1512
23.708	25.1851
23.726	25.2112
23.744	25.2253
23.762	25.2237
23.78	25.2086
23.798	25.1786
23.816	25.1317
23.834	25.0679
23.852	24.9886
23.87	24.8946
23.888	24.7845
23.906	24.6604
23.924	24.5257
23.942	24.3797
23.96	24.2229
23.978	24.0601
23.996	23.8922
24.014	23.7177
24.032	23.5417
24.05	23.3675
24.068	23.1924
24.086	23.0192
24.104	22.8509
24.122	22.6868
24.14	22.5262
24.158	22.369
24.176	22.2169
24.194	22.0677
24.212	21.917
24.23	21.7653
24.248	21.6132
24.266	21.4549
24.284	21.2877
24.302	21.1152
24.32	20.9316
24.338	20.7314
24.356	20.5187
24.374	20.2899
24.392	20.0395
24.41	19.7681
24.428	19.4764
24.446	19.1613
24.464	18.8204
24.482	18.4553
24.5	18.0681
24.518	17.6602
24.536	17.2288
24.554	16.7786
24.572	16.3156
24.59	15.8373
24.608	15.3449
24.626	14.8464
24.644	14.344
24.662	13.8338
24.68	13.3238
24.698	12.8215
24.716	12.3212
24.734	11.8276
24.752	11.349
24.77	10.8857
24.788	10.4353
24.806	10.0045
24.824	9.597735
24.842	9.211854
24.86	8.848002
24.878	8.508212
24.896	8.192551
24.914	7.900178
24.932	7.630885
24.95	7.385026
24.968	7.163004
24.986	6.962465
25.004	6.781052
25.022	6.619930
25.04	6.478399
25.058	6.354174
25.076	6.246257
25.094	6.155842
25.112	6.081349
25.13	6.021124
25.148	5.975257
25.166	5.944153
25.184	5.927813
25.202	5.926001
25.22	5.938489
25.238	5.966034
25.256	6.009382
25.274	6.067818
25.292	6.141663
25.31	6.232065
25.328	6.339785
25.346	6.464150
25.364	6.605124
25.382	6.762768
25.4	6.937733
25.418	7.129370
25.436	7.336122
25.454	7.557120
25.472	7.794363
25.49	8.045036
25.508	8.305490
25.526	8.575180
25.544	8.855745
25.562	9.144331
25.58	9.438214
25.598	9.738499
25.616	10.0451
25.634	10.3567
25.652	10.6725
25.67	10.9933
25.688	11.3185
25.706	11.6471
25.724	11.9785
25.742	12.3134
25.76	12.652
25.778	12.9949
25.796	13.3406
25.814	13.6903
25.832	14.0464
25.85	14.41
25.868	14.7784
25.886	15.1548
25.904	15.5431
25.922	15.9438
25.94	16.3548
25.958	16.779
25.976	17.2194
25.994	17.6745
26.012	18.1441
26.03	18.6312
26.048	19.1384
26.066	19.6646
26.084	20.2092
26.102	20.7721
26.12	21.3533
26.138	21.9529
26.156	22.5703
26.174	23.205
26.192	23.8567
26.21	24.5258
26.228	25.2115
26.246	25.9134
26.264	26.6313
26.282	27.3652
26.3	28.1151
26.318	28.8806
26.336	29.6616
26.354	30.4581
26.372	31.27
26.39	32.0974
26.408	32.9408
26.426	33.7995
26.444	34.672
26.462	35.5571
26.48	36.4557
26.498	37.3674
26.516	38.2917
26.534	39.2289
26.552	40.1815
26.57	41.1456
26.588	42.1158
26.606	43.09
26.624	44.0753
26.642	45.0634
26.66	46.0443
26.678	47.0139
26.696	47.9833
26.714	48.9406
26.732	49.8716
26.75	50.7715
26.768	51.6543
26.786	52.5052
26.804	53.3074
26.822	54.0535
26.84	54.7578
26.858	55.4097
26.876	55.997
26.894	56.5129
26.912	56.9656
26.93	57.3539
26.948	57.6755
26.966	57.9227
26.984	58.0884
27.002	58.196
27.02	58.2703
27.028	58.2957