File: Bakgrunnsmateriale/MATLAB/FTIR/ftir_data/LPE454/Mapping_121/LPE454_t109_cm-1.asc
PE IR       SPECTRUM    SPECTRUM    ASCII       PEDS        1.60
  -1
LP0CDC~1.ASC
17/05/19
23:17:37.00
17/05/19
23:17:37.00
tln
$LPE454_t0109$<tbV0>[-10.4,10.4,8.0,0.0,27,1,0]
370
64

2002,4.07
MIRTGS : RIGHTBACK : INTERNAL 2
MIR : ON : INTERNAL 2
OPTKBR

0.200000
8
8.000000
FILLER
RATIO
SPECTRUM
UNLOCKED 256

DOUBLE
64
COMBINED
1
0
0

1.000000
RATIO

1
0
TRUE
51149
0
LEFT NOT FITTED RIGHT NOT FITTED 0
NONE
NONE
15600
12
4.427000
51148
TRUE
1 0 8 72 0 0 0 0

15798

#HDR
-1
-1
#GR
CM-1
%T
2.38419e-05
0.0
5000
-1.000000
4631
8
58.8576
-20.7086
#DATA
5000	0.645756
4996	0.583505
4992	0.479269
4988	0.450325
4984	0.486159
4980	0.604271
4976	0.635719
4972	0.397372
4968	0.132846
4964	0.313711
4960	0.655055
4956	0.580668
4952	0.445246
4948	0.569534
4944	0.642848
4940	0.638723
4936	0.585055
4932	0.382995
4928	0.337386
4924	0.431036
4920	0.406622
4916	0.457549
4912	0.460791
4908	0.357580
4904	0.403952
4900	0.460290
4896	0.477147
4892	0.576233
4888	0.492382
4884	0.245237
4880	0.205683
4876	0.240612
4872	0.226879
4868	0.326514
4864	0.416374
4860	0.263190
4856	0.075149
4852	-0.037050
4848	-0.239944
4844	-0.186061
4840	0.171685
4836	0.325274
4832	0.295543
4828	0.351071
4824	0.276827
4820	-0.047397
4816	-0.206255
4812	-0.110220
4808	-0.171113
4804	-0.368690
4800	-0.271081
4796	0.049853
4792	0.252723
4788	0.382018
4784	0.552558
4780	0.695157
4776	0.703024
4772	0.527524
4768	0.374221
4764	0.431060
4760	0.451564
4756	0.376939
4752	0.521516
4748	0.766301
4744	0.698351
4740	0.485777
4736	0.470256
4732	0.516366
4728	0.588107
4724	0.831174
4720	1.055026
4716	1.021480
4712	0.895738
4708	0.849652
4704	0.801944
4700	0.575685
4696	0.374150
4692	0.374841
4688	0.170040
4684	-0.164365
4680	-0.248265
4676	-0.317335
4672	-0.515103
4668	-0.646114
4664	-0.723171
4660	-0.820589
4656	-0.844001
4652	-0.756740
4648	-0.714230
4644	-0.929641
4640	-1.018238
4636	-1.126360
4632	-1.741218
4628	-1.897525
4624	-1.287245
4620	-0.704360
4616	-0.266504
4612	-0.091290
4608	-0.131726
4604	1.615095
4600	6.738424
4596	20.1638
4592	43.9363
4588	58.8576
4584	31.7961
4580	3.265357
4576	-1.772809
4572	-3.276348
4568	-2.447342
4564	-2.141308
4560	-1.693606
4556	-1.560139
4552	-2.063488
4548	-2.515101
4544	-2.572655
4540	-2.702307
4536	-2.699184
4532	-2.361607
4528	-1.910090
4524	-1.530122
4520	-1.340770
4516	-1.450419
4512	-1.522517
4508	-1.293301
4504	-1.122236
4500	-0.984501
4496	-0.745248
4492	-0.536060
4488	-0.218248
4484	-0.029873
4480	0.018477
4476	0.165104
4472	0.204801
4468	0.314331
4464	0.373959
4460	0.268650
4456	0.286793
4452	0.381183
4448	0.468778
4444	0.569415
4440	0.564670
4436	0.442242
4432	0.369954
4428	0.368070
4424	0.332021
4420	0.331497
4416	0.285291
4412	0.158214
4408	0.181722
4404	0.175023
4400	0.052905
4396	0.157451
4392	0.349307
4388	0.254034
4384	-0.000548
4380	-0.031161
4376	0.132918
4372	0.184702
4368	0.041103
4364	-0.037741
4360	0.024056
4356	0.009059
4352	-0.031518
4348	-0.009012
4344	0.049090
4340	0.160026
4336	0.349545
4332	0.442194
4328	0.328683
4324	0.155282
4320	0.038957
4316	0.108838
4312	0.381112
4308	0.532770
4304	0.482201
4300	0.482225
4296	0.547003
4292	0.558328
4288	0.449943
4284	0.313568
4280	0.270509
4276	0.284671
4272	0.312423
4268	0.353670
4264	0.363254
4260	0.318193
4256	0.307655
4252	0.315046
4248	0.310373
4244	0.399875
4240	0.463867
4236	0.320506
4232	0.104427
4228	0.061011
4224	0.216245
4220	0.354027
4216	0.370573
4212	0.204110
4208	-0.044965
4204	0.019669
4200	0.206685
4196	0.112605
4192	-0.025177
4188	0.002431
4184	-0.009655
4180	-0.045275
4176	0.114226
4172	0.374269
4168	0.543951
4164	0.472021
4160	0.270915
4156	0.226521
4152	0.188541
4148	0.128507
4144	0.083255
4140	0.079870
4136	0.255513
4132	0.353574
4128	0.375318
4124	0.409603
4120	0.184202
4116	-0.133132
4112	-0.053572
4108	0.336813
4104	0.397491
4100	0.276088
4096	0.444507
4092	0.583267
4088	0.314784
4084	-0.192618
4080	-0.302290
4076	-0.043797
4072	0.279808
4068	0.908708
4064	1.236271
4060	0.647759
4056	-0.121855
4052	-0.401282
4048	-0.197219
4044	0.002956
4040	-0.048804
4036	0.141048
4032	0.410556
4028	0.254583
4024	0.011491
4020	0.126147
4016	0.457572
4012	0.512528
4008	0.329899
4004	0.225973
4000	0.245571
3996	0.298357
3992	0.179123
3988	0.055885
3984	0.033712
3980	-0.044822
3976	-0.083088
3972	-0.053977
3968	-0.029492
3964	-0.001668
3960	0.000190
3956	-0.043892
3952	-0.026965
3948	0.117897
3944	0.216150
3940	0.215411
3936	0.184249
3932	0.139331
3928	0.163102
3924	0.187182
3920	0.106072
3916	-0.059485
3912	-0.070118
3908	0.110864
3904	0.094103
3900	-0.006937
3896	-0.001049
3892	-0.059247
3888	-0.064182
3884	-0.012493
3880	0.042700
3876	0.057816
3872	0.030350
3868	0.023508
3864	0.036692
3860	0.053691
3856	0.048041
3852	0.085139
3848	0.191640
3844	0.168180
3840	0.048828
3836	-0.008606
3832	-0.073814
3828	-0.108647
3824	0.027537
3820	0.204920
3816	0.235772
3812	0.143551
3808	0.040221
3804	0.031328
3800	0.067257
3796	-0.001811
3792	-0.082921
3788	0.008511
3784	0.141835
3780	0.171446
3776	0.159120
3772	0.106573
3768	0.087022
3764	0.148487
3760	0.156736
3756	0.094771
3752	0.016760
3748	-0.086903
3744	-0.113701
3740	-0.014281
3736	0.029134
3732	-0.028467
3728	0.012135
3724	0.133943
3720	0.170445
3716	0.112867
3712	-0.003409
3708	-0.113654
3704	-0.080752
3700	0.003361
3696	0.009179
3692	0.021147
3688	0.117611
3684	0.159001
3680	0.050640
3676	-0.069594
3672	-0.087618
3668	-0.060462
3664	-0.005531
3660	0.130391
3656	0.204777
3652	0.187802
3648	0.222802
3644	0.235700
3640	0.207519
3636	0.177597
3632	0.136876
3628	0.118446
3624	0.077295
3620	0.039649
3616	0.084376
3612	0.165486
3608	0.134611
3604	-0.001311
3600	-0.049352
3596	0.031948
3592	0.076246
3588	-0.054931
3584	-0.139474
3580	-0.042939
3576	0.008034
3572	-0.007104
3568	-0.029802
3564	-0.075054
3560	-0.074601
3556	-0.031661
3552	0.000452
3548	0.025415
3544	0.045132
3540	0.056052
3536	0.054407
3532	0.029921
3528	-0.014686
3524	-0.062346
3520	-0.055193
3516	0.017499
3512	0.071144
3508	0.072550
3504	0.035047
3500	-0.008463
3496	-0.014948
3492	0.062417
3488	0.194644
3484	0.252819
3480	0.240540
3476	0.196552
3472	0.059580
3468	-0.078654
3464	-0.098752
3460	-0.051212
3456	0.035381
3452	0.103449
3448	0.116062
3444	0.165343
3440	0.174903
3436	0.092720
3432	0.046205
3428	0.038814
3424	0.016045
3420	-0.011706
3416	-0.008130
3412	-0.011467
3408	-0.082063
3404	-0.110220
3400	-0.052452
3396	0.075316
3392	0.133919
3388	0.131440
3384	0.090456
3380	-0.043416
3376	-0.121212
3372	-0.064921
3368	0.089335
3364	0.177454
3360	0.126624
3356	0.082874
3352	0.093746
3348	0.064063
3344	-0.015592
3340	-0.076913
3336	-0.094246
3332	-0.114011
3328	-0.100994
3324	-0.035643
3320	-0.003504
3316	-0.032043
3312	-0.040721
3308	-0.029158
3304	0.058054
3300	0.139045
3296	0.062322
3292	-0.040888
3288	-0.055241
3284	0.003337
3280	0.074958
3276	0.061917
3272	0.037765
3268	0.069260
3264	0.130438
3260	0.212693
3256	0.234341
3252	0.182819
3248	0.163435
3244	0.156831
3240	0.073957
3236	0.022482
3232	0.008583
3228	-0.033545
3224	0.019884
3220	0.122261
3216	0.147199
3212	0.136494
3208	0.056171
3204	-0.117826
3200	-0.208091
3196	-0.108289
3192	0.080752
3188	0.188851
3184	0.159025
3180	0.074386
3176	0.005412
3172	-0.019168
3168	-0.024151
3164	-0.024127
3160	0.041770
3156	0.140547
3152	0.178074
3148	0.159716
3144	0.155520
3140	0.155401
3136	0.107598
3132	0.093412
3128	0.197720
3124	0.322222
3120	0.263953
3116	0.041413
3112	-0.083088
3108	-0.065588
3104	0.002360
3100	0.117063
3096	0.169062
3092	0.133633
3088	0.080323
3084	0.003767
3080	-0.003838
3076	0.053286
3072	0.044131
3068	0.003862
3064	-0.027537
3060	-0.038003
3056	-0.005960
3052	0.014019
3048	0.025510
3044	0.066351
3040	0.150251
3036	0.205469
3032	0.154685
3028	0.063514
3024	0.010943
3020	0.013232
3016	0.051450
3012	0.089097
3008	0.094175
3004	0.094962
3000	0.064206
2996	-0.034332
2992	-0.082230
2988	-0.022149
2984	0.032973
2980	0.038814
2976	0.089359
2972	0.160360
2968	0.192236
2964	0.208735
2960	0.160861
2956	0.024795
2952	-0.084495
2948	-0.055813
2944	0.039505
2940	0.057268
2936	0.001716
2932	-0.009775
2928	0.083684
2924	0.174355
2920	0.157690
2916	0.095653
2912	0.038647
2908	0.009608
2904	0.056886
2900	0.119662
2896	0.150251
2892	0.174808
2888	0.154376
2884	0.096607
2880	0.051617
2876	0.010323
2872	-0.040745
2868	-0.033259
2864	0.061416
2860	0.119376
2856	0.108766
2852	0.052261
2848	-0.044035
2844	-0.081300
2840	-0.042128
2836	0.007700
2832	0.047731
2828	0.049424
2824	0.051903
2820	0.093102
2816	0.116181
2812	0.090456
2808	0.032639
2804	-0.013589
2800	0.003385
2796	0.040483
2792	0.044417
2788	0.060892
2784	0.056719
2780	-0.004148
2776	-0.048780
2772	-0.063157
2768	-0.039482
2764	0.030994
2760	0.061583
2756	0.022864
2752	-0.017499
2748	-0.033044
2744	-0.013518
2740	0.014591
2736	0.002336
2732	-0.004816
2728	0.012230
2724	0.037527
2720	0.034093
2716	0.027847
2712	0.101661
2708	0.131988
2704	0.081300
2700	0.052118
2696	0.031089
2692	0.006318
2688	0.007152
2684	0.049948
2680	0.053358
2676	-0.029015
2672	-0.098490
2668	-0.075697
2664	-0.028729
2660	-0.002551
2656	0.049304
2652	0.066256
2648	0.023245
2644	0.000739
2640	0.042486
2636	0.095629
2632	0.075125
2628	0.019478
2624	0.007486
2620	0.079345
2616	0.143289
2612	0.075507
2608	-0.009059
2604	0.010657
2600	0.056123
2596	0.032949
2592	0.015830
2588	0.057625
2584	0.060963
2580	0.009226
2576	-0.032615
2572	-0.032567
2568	-0.009775
2564	0.017809
2560	0.026512
2556	0.033926
2552	0.042200
2548	-0.005030
2544	-0.078868
2540	-0.103640
2536	-0.084042
2532	-0.033307
2528	0.022482
2524	0.036549
2520	0.020790
2516	0.008058
2512	0.037503
2508	0.064373
2504	0.058007
2500	0.036263
2496	0.009393
2492	0.014233
2488	0.014066
2484	0.014305
2480	0.049161
2476	0.048255
2472	-0.005722
2468	-0.018072
2464	0.051116
2460	0.138711
2456	0.193595
2452	0.203061
2448	0.163698
2444	0.073075
2440	0.019645
2436	0.131869
2432	0.263023
2428	0.233364
2424	0.165009
2420	0.114130
2416	0.072836
2412	0.106143
2408	0.149917
2404	0.167322
2400	0.165486
2396	0.119066
2392	0.075936
2388	0.071454
2384	0.074434
2380	0.103521
2376	0.161361
2372	0.181174
2368	0.142765
2364	0.091028
2360	0.115966
2356	0.216007
2352	0.307130
2348	0.365686
2344	0.417542
2340	0.509595
2336	0.590229
2332	0.565195
2328	0.500392
2324	0.510048
2320	0.606489
2316	0.715875
2312	0.775218
2308	0.809812
2304	0.862836
2300	0.942373
2296	1.043844
2292	1.154470
2288	1.243615
2284	1.311802
2280	1.407027
2276	1.542377
2272	1.705217
2268	1.874470
2264	2.056527
2260	2.255749
2256	2.399325
2252	2.512359
2248	2.690458
2244	2.902507
2240	3.088045
2236	3.268241
2232	3.474116
2228	3.726005
2224	4.000258
2220	4.257607
2216	4.495501
2212	4.711341
2208	4.996204
2204	5.367708
2200	5.736541
2196	6.090497
2192	6.404662
2188	6.718778
2184	7.093691
2180	7.472014
2176	7.830810
2172	8.193206
2168	8.567833
2164	8.990979
2160	9.425067
2156	9.763288
2152	10.0226
2148	10.3816
2144	10.9244
2140	11.4787
2136	11.8887
2132	12.2296
2128	12.6552
2124	13.1388
2120	13.5925
2116	14.0353
2112	14.4409
2108	14.8072
2104	15.1906
2100	15.5413
2096	15.8504
2092	16.2369
2088	16.6933
2084	17.1458
2080	17.576
2076	17.9321
2072	18.2486
2068	18.6452
2064	19.1262
2060	19.5617
2056	19.8712
2052	20.0974
2048	20.3475
2044	20.682
2040	20.9962
2036	21.2462
2032	21.5306
2028	21.8101
2024	22.0925
2020	22.4586
2016	22.8128
2012	23.0953
2008	23.3343
2004	23.5532
2000	23.7653
1996	23.9478
1992	24.0963
1988	24.2647
1984	24.4728
1980	24.6598
1976	24.8253
1972	25.0383
1968	25.3135
1964	25.5194
1960	25.6125
1956	25.7634
1952	25.9903
1948	26.182
1944	26.3258
1940	26.4227
1936	26.5004
1932	26.5848
1928	26.6287
1924	26.6519
1920	26.7232
1916	26.8282
1912	26.9423
1908	27.0779
1904	27.2398
1900	27.4317
1896	27.6172
1892	27.724
1888	27.7572
1884	27.791
1880	27.861
1876	27.9311
1872	27.926
1868	27.8722
1864	27.8763
1860	27.9286
1856	27.9732
1852	28.0049
1848	28.0645
1844	28.1809
1840	28.3278
1836	28.4703
1832	28.5595
1828	28.5956
1824	28.6197
1820	28.6162
1816	28.5686
1812	28.5697
1808	28.6125
1804	28.5863
1800	28.5403
1796	28.5259
1792	28.5634
1788	28.6787
1784	28.808
1780	28.8975
1776	28.9616
1772	29.0197
1768	29.0525
1764	29.07
1760	29.099
1756	29.1069
1752	29.0764
1748	29.0058
1744	28.882
1740	28.7482
1736	28.7092
1732	28.8046
1728	28.9167
1724	28.9453
1720	28.9372
1716	28.9801
1712	29.0753
1708	29.1599
1704	29.2232
1700	29.2412
1696	29.1713
1692	29.0807
1688	29.0347
1684	29.018
1680	28.979
1676	28.9239
1672	28.9175
1668	28.9289
1664	28.9405
1660	28.9991
1656	29.0746
1652	29.1607
1648	29.261
1644	29.3069
1640	29.2696
1636	29.209
1632	29.2043
1628	29.2253
1624	29.1427
1620	28.939
1616	28.7928
1612	28.7848
1608	28.8436
1604	28.8916
1600	28.8762
1596	28.8832
1592	28.9692
1588	29.073
1584	29.1698
1580	29.283
1576	29.3766
1572	29.3678
1568	29.2704
1564	29.1432
1560	28.9868
1556	28.8584
1552	28.8084
1548	28.8109
1544	28.8504
1540	28.8871
1536	28.9297
1532	29.0165
1528	29.1197
1524	29.2238
1520	29.3233
1516	29.3621
1512	29.32
1508	29.264
1504	29.2108
1500	29.1107
1496	28.9486
1492	28.797
1488	28.7336
1484	28.6856
1480	28.6362
1476	28.6822
1472	28.8372
1468	29.0437
1464	29.2096
1460	29.2878
1456	29.3362
1452	29.3584
1448	29.3043
1444	29.17
1440	28.9857
1436	28.798
1432	28.6448
1428	28.563
1424	28.5285
1420	28.4709
1416	28.4542
1412	28.5592
1408	28.7119
1404	28.7886
1400	28.8041
1396	28.8832
1392	29.0327
1388	29.1024
1384	29.0467
1380	28.9446
1376	28.8023
1372	28.6414
1368	28.5221
1364	28.4024
1360	28.232
1356	28.1023
1352	28.1265
1348	28.2937
1344	28.4767
1340	28.6126
1336	28.7624
1332	28.9204
1328	29.0026
1324	29.0131
1320	28.9724
1316	28.8319
1312	28.6544
1308	28.5574
1304	28.5088
1300	28.4023
1296	28.2314
1292	28.0862
1288	28.0235
1284	28.0544
1280	28.188
1276	28.3763
1272	28.5511
1268	28.6714
1264	28.701
1260	28.7127
1256	28.7814
1252	28.7562
1248	28.5688
1244	28.404
1240	28.3033
1236	28.1541
1232	28.0239
1228	28.0128
1224	28.0371
1220	28.075
1216	28.149
1212	28.2087
1208	28.2962
1204	28.4179
1200	28.4875
1196	28.4875
1192	28.4609
1188	28.4126
1184	28.2862
1180	28.1172
1176	27.9567
1172	27.7707
1168	27.6474
1164	27.6326
1160	27.6098
1156	27.5922
1152	27.6659
1148	27.8095
1144	27.9669
1140	28.087
1136	28.1561
1132	28.1947
1128	28.1745
1124	28.1142
1120	28.0553
1116	27.9105
1112	27.7096
1108	27.5402
1104	27.3515
1100	27.256
1096	27.3124
1092	27.3546
1088	27.3791
1084	27.4768
1080	27.6888
1076	27.9344
1072	28.001
1068	27.9383
1064	27.9501
1060	27.9117
1056	27.7518
1052	27.6336
1048	27.523
1044	27.3231
1040	27.0552
1036	26.8794
1032	26.8755
1028	26.8259
1024	26.7577
1020	26.8553
1016	27.1111
1012	27.479
1008	27.7656
1004	27.7624
1000	27.5154
996	 27.3258
992	 27.3567
988	 27.3774
984	 27.1715
980	 26.7944
976	 26.4507
972	 26.2298
968	 26.0957
964	 26.1323
960	 26.3253
956	 26.4792
952	 26.5709
948	 26.7457
944	 26.9296
940	 26.9081
936	 26.7961
932	 26.7717
928	 26.7666
924	 26.6603
920	 26.4786
916	 26.2491
912	 25.9909
908	 25.8989
904	 25.8939
900	 25.7232
896	 25.5659
892	 25.639
888	 25.8485
884	 26.0221
880	 26.0583
876	 26.0639
872	 26.1371
868	 26.1538
864	 26.0965
860	 25.997
856	 25.7449
852	 25.3926
848	 25.118
844	 24.9902
840	 24.9061
836	 24.7977
832	 24.8191
828	 24.9509
824	 25.1158
820	 25.3493
816	 25.5352
812	 25.4745
808	 25.2825
804	 25.2886
800	 25.3338
796	 25.1762
792	 24.9671
788	 24.7622
784	 24.4316
780	 24.0563
776	 23.9142
772	 24.0082
768	 24.0088
764	 23.9588
760	 24.1588
756	 24.397
752	 24.3289
748	 24.1301
744	 24.2309
740	 24.4996
736	 24.399
732	 23.9967
728	 23.7039
724	 23.5668
720	 23.3784
716	 23.1123
712	 22.9416
708	 22.8638
704	 22.9101
700	 23.0707
696	 23.1744
692	 23.1867
688	 23.1996
684	 23.2679
680	 23.2771
676	 23.153
672	 22.9706
668	 22.7464
664	 22.5276
660	 22.3733
656	 22.2113
652	 22.0411
648	 21.9082
644	 21.8128
640	 21.6991
636	 21.5414
632	 21.4334
628	 21.483
624	 21.6593
620	 21.8362
616	 21.9247
612	 21.9096
608	 21.7756
604	 21.5442
600	 21.4101
596	 21.386
592	 21.2734
588	 20.8814
584	 20.3577
580	 20.0297
576	 19.9168
572	 19.978
568	 20.1467
564	 20.5385
560	 20.9051
556	 20.9249
552	 21.1483
548	 21.2399
544	 20.8259
540	 20.9865
536	 21.7107
532	 20.9325
528	 18.2833
524	 16.4079
520	 16.711
516	 17.3815
512	 16.8638
508	 16.2926
504	 16.806
500	 17.5703
496	 18.0835
492	 18.6755
488	 18.7753
484	 18.3196
480	 18.1899
476	 18.4082
472	 18.2016
468	 17.4588
464	 16.5377
460	 15.2755
456	 14.4357
452	 14.4528
448	 14.7748
444	 15.8469
440	 16.9644
436	 16.1128
432	 13.8611
428	 12.6503
424	 13.1232
420	 14.9823
416	 17.5769
412	 16.1779
408	 9.634971
404	 8.034110
400	 16.3486
396	 26.3488
392	 31.027
388	 25.9076
384	 9.473490
380	 -5.098533
376	 -19.4634
372	 -10.372
370	 1.837730