File: Bakgrunnsmateriale/MATLAB/FTIR/ftir_data/LPE454/Mapping_121/LPE454_t111_cm-1.asc
PE IR       SPECTRUM    SPECTRUM    ASCII       PEDS        1.60
  -1
LP0458~1.ASC
17/05/19
23:33:04.00
17/05/19
23:33:04.00
tln
$LPE454_t0111$<tbV0>[13.0,13.0,8.0,0.0,27,1,0]
370
64

2002,4.07
MIRTGS : RIGHTBACK : INTERNAL 2
MIR : ON : INTERNAL 2
OPTKBR

0.200000
8
8.000000
FILLER
RATIO
SPECTRUM
UNLOCKED 256

DOUBLE
64
COMBINED
1
0
0

1.000000
RATIO

1
0
TRUE
51149
0
LEFT NOT FITTED RIGHT NOT FITTED 0
NONE
NONE
15600
12
4.427000
51148
TRUE
1 0 8 72 0 0 0 0

15798

#HDR
-1
-1
#GR
CM-1
%T
2.38419e-05
0.0
5000
-1.000000
4631
8
32.1743
-7.616257
#DATA
5000	0.378704
4996	0.216197
4992	0.137519
4988	0.209212
4984	0.289130
4980	0.374293
4976	0.367403
4972	0.076866
4968	-0.257110
4964	-0.129842
4960	0.315523
4956	0.539755
4952	0.491237
4948	0.444197
4944	0.442624
4940	0.427389
4936	0.308108
4932	0.043106
4928	-0.137734
4924	-0.086927
4920	0.059556
4916	0.187873
4912	0.148844
4908	-0.001454
4904	-0.065016
4900	-0.119614
4896	-0.013184
4892	0.219631
4888	0.283455
4884	0.225067
4880	0.090003
4876	0.148558
4872	0.417470
4868	0.404119
4864	0.137329
4860	0.003981
4856	0.037550
4852	0.065088
4848	0.205707
4844	0.454783
4840	0.466108
4836	0.334310
4832	0.271987
4828	0.196623
4824	0.126767
4820	0.115489
4816	0.176405
4812	0.345301
4808	0.435924
4804	0.217890
4800	-0.128173
4796	-0.228214
4792	-0.026488
4788	0.177216
4784	0.331807
4780	0.428152
4776	0.388312
4772	0.291752
4768	0.101351
4764	0.050759
4760	0.285148
4756	0.482654
4752	0.499749
4748	0.356674
4744	0.117444
4740	-0.041007
4736	0.023412
4732	0.123023
4728	0.021862
4724	0.030231
4720	0.146770
4716	0.101065
4712	0.142002
4708	0.146842
4704	-0.027203
4700	-0.087785
4696	-0.094890
4692	-0.166320
4688	-0.170302
4684	-0.173163
4680	-0.091767
4676	-0.103878
4672	-0.311446
4668	-0.356435
4664	-0.105762
4660	0.055575
4656	-0.038790
4652	0.028753
4648	0.237274
4644	0.267601
4640	0.306534
4636	0.369858
4632	0.240397
4628	0.177907
4624	0.181818
4620	0.120735
4616	0.007462
4612	0.126576
4608	0.499153
4604	1.032328
4600	2.264380
4596	5.393958
4592	19.0048
4588	32.1743
4584	15.8826
4580	-5.189442
4576	-6.432199
4572	-2.144169
4568	-0.738906
4564	0.028395
4560	0.660872
4556	0.228714
4552	-0.455260
4548	-0.945472
4544	-0.999116
4540	-0.871610
4536	-0.888490
4532	-0.872087
4528	-0.808286
4524	-0.714945
4520	-0.584459
4516	-0.374317
4512	-0.237011
4508	-0.230312
4504	-0.328278
4500	-0.542473
4496	-0.581431
4492	-0.393915
4488	-0.164532
4484	0.013017
4480	-0.028824
4476	-0.155496
4472	-0.166821
4468	-0.096344
4464	-0.038242
4460	0.031065
4456	0.125241
4452	0.086927
4448	0.024938
4444	-0.051498
4440	0.016236
4436	0.109004
4432	0.212383
4428	0.331854
4424	0.259304
4420	0.112104
4416	0.147676
4412	0.172066
4408	0.019168
4404	-0.097441
4400	-0.094270
4396	-0.037074
4392	0.027728
4388	0.022506
4384	0.002360
4380	-0.069689
4376	-0.161433
4372	-0.107860
4368	-0.016236
4364	0.045180
4360	0.148677
4356	0.196981
4352	0.219154
4348	0.349736
4344	0.475859
4340	0.428199
4336	0.284266
4332	0.249195
4328	0.301551
4324	0.340437
4320	0.404167
4316	0.350213
4312	0.163578
4308	0.040268
4304	0.065207
4300	0.205516
4296	0.233769
4292	0.071072
4288	-0.085878
4284	-0.097918
4280	0.083184
4276	0.267243
4272	0.223302
4268	0.116062
4264	0.088405
4260	0.139570
4256	0.237250
4252	0.286388
4248	0.196957
4244	0.066375
4240	0.140428
4236	0.295090
4232	0.288009
4228	0.181245
4224	0.133872
4220	0.118374
4216	-0.009083
4212	-0.209736
4208	-0.311350
4204	-0.209617
4200	0.252628
4196	0.707387
4192	0.501132
4188	0.131201
4184	0.095939
4180	0.056004
4176	-0.049042
4172	-0.080013
4168	-0.070691
4164	-0.165414
4160	-0.338435
4156	-0.403976
4152	-0.588822
4148	-0.839138
4144	-0.568723
4140	-0.076222
4136	0.087428
4132	0.176310
4128	0.276708
4124	0.195193
4120	0.342988
4116	0.736927
4112	0.723767
4108	0.433731
4104	0.216245
4100	0.126409
4096	0.336837
4092	1.147818
4088	1.850175
4084	1.312065
4080	0.653433
4076	0.533652
4072	-0.127744
4068	-0.744771
4064	-0.505328
4060	0.095820
4056	0.585508
4052	0.540876
4048	0.263237
4044	0.286102
4040	0.278925
4036	0.154638
4032	0.090551
4028	0.051689
4024	0.005936
4020	-0.063729
4016	-0.051784
4012	0.056242
4008	0.065350
4004	0.020408
4000	0.076055
3996	0.044059
3992	-0.043249
3988	0.039720
3984	0.226688
3980	0.331234
3976	0.279331
3972	0.231957
3968	0.241923
3964	0.139355
3960	-0.022578
3956	-0.087642
3952	-0.030350
3948	0.137925
3944	0.237083
3940	0.149202
3936	0.056552
3932	0.030136
3928	-0.039434
3924	-0.170183
3920	-0.225830
3916	-0.125074
3912	-0.004291
3908	0.040602
3904	0.017476
3900	-0.019073
3896	-0.011062
3892	-0.055241
3888	-0.101637
3884	-0.026154
3880	0.076150
3876	0.062990
3872	-0.069856
3868	-0.096940
3864	0.048351
3860	0.132775
3856	0.134348
3852	0.159335
3848	0.117492
3844	0.009965
3840	-0.009036
3836	0.038886
3832	-0.000667
3828	-0.099325
3824	-0.079154
3820	0.060868
3816	0.176525
3812	0.216078
3808	0.179481
3804	0.151014
3800	0.158739
3796	0.132155
3792	0.069808
3788	0.002098
3784	0.026988
3780	0.083875
3776	0.023746
3772	-0.019216
3768	0.055289
3764	0.130224
3760	0.116991
3756	0.040698
3752	-0.005841
3748	-0.016665
3744	-0.007462
3740	0.066804
3736	0.137400
3732	0.121712
3728	0.096535
3724	0.098705
3720	0.073504
3716	0.037813
3712	0.036025
3708	0.024056
3704	0.006985
3700	0.050377
3696	0.062799
3692	-0.012755
3688	-0.100731
3684	-0.144267
3680	-0.091433
3676	0.013470
3672	0.049948
3668	-0.027847
3664	-0.104951
3660	-0.090265
3656	-0.026226
3652	0.018429
3648	-0.025773
3644	-0.073599
3640	-0.021696
3636	0.067663
3632	0.110101
3628	0.077891
3624	0.030994
3620	0.047802
3616	0.067019
3612	0.051999
3608	0.109243
3604	0.168776
3600	0.172042
3596	0.185608
3592	0.133752
3588	0.048160
3584	-0.005793
3580	-0.088405
3576	-0.145149
3572	-0.090718
3568	0.010490
3564	0.077176
3560	0.063037
3556	-0.003242
3552	-0.010013
3548	0.060248
3544	0.098967
3540	0.033140
3536	0.004315
3532	0.067305
3528	0.076818
3524	-0.000119
3520	-0.083088
3516	-0.098657
3512	-0.087237
3508	-0.111699
3504	-0.144743
3500	-0.131654
3496	-0.064110
3492	0.003957
3488	0.023007
3484	0.029635
3480	0.058054
3476	0.081825
3472	0.098156
3468	0.113368
3464	0.077366
3460	-0.026321
3456	-0.071454
3452	-0.025200
3448	-0.037908
3444	-0.080251
3440	0.020098
3436	0.090599
3432	0.032997
3428	-0.045204
3424	-0.068879
3420	-0.024557
3416	0.020694
3412	0.017213
3408	0.003528
3404	-0.019121
3400	-0.044465
3396	-0.005674
3392	0.032901
3388	0.038862
3384	0.081110
3380	0.129246
3376	0.078558
3372	0.051140
3368	0.161075
3364	0.176692
3360	0.016641
3356	-0.084376
3352	-0.045633
3348	-0.009512
3344	0.021028
3340	0.123381
3336	0.142550
3332	0.037932
3328	0.012469
3324	0.032353
3320	0.029897
3316	0.057458
3312	0.086736
3308	0.095772
3304	0.077033
3300	0.030827
3296	0.013685
3292	0.037455
3288	0.031566
3284	-0.009369
3280	-0.022792
3276	0.042796
3272	0.123739
3268	0.055217
3264	-0.092339
3260	-0.135278
3256	-0.112390
3252	-0.110316
3248	-0.095033
3244	-0.018048
3240	0.082898
3236	0.103616
3232	0.064229
3228	0.089716
3224	0.176310
3220	0.163435
3216	0.057649
3212	0.066447
3208	0.141429
3204	0.095176
3200	0.040793
3196	0.079560
3192	0.057697
3188	-0.027036
3184	-0.045204
3180	0.015926
3176	0.044512
3172	-0.044822
3168	-0.127291
3164	-0.099706
3160	-0.037264
3156	0.008392
3152	0.039911
3148	0.069665
3144	0.091624
3140	0.060701
3136	0.047206
3132	0.077915
3128	0.080776
3124	0.041294
3120	-0.023007
3116	0.008153
3112	0.042319
3108	-0.045466
3104	-0.070118
3100	-0.020360
3096	0.045871
3092	0.100612
3088	0.065040
3084	0.024986
3080	0.058507
3076	0.043606
3072	-0.088882
3068	-0.152826
3064	-0.078129
3060	0.018787
3056	0.058722
3052	0.016379
3048	-0.049161
3044	-0.078916
3040	-0.106120
3036	-0.072860
3032	0.026512
3028	0.091361
3024	0.087118
3020	0.026130
3016	-0.004649
3012	0.032472
3008	0.066137
3004	0.068974
3000	0.084543
2996	0.061511
2992	-0.004005
2988	-0.020074
2984	0.010967
2980	0.030422
2976	0.019621
2972	-0.004458
2968	-0.010085
2964	0.009441
2960	0.007462
2956	-0.018930
2952	-0.040006
2948	-0.016999
2944	0.099754
2940	0.171732
2936	0.078630
2932	-0.036597
2928	-0.046491
2924	-0.016570
2920	-0.011706
2916	0.003290
2912	0.049853
2908	0.072598
2904	0.031352
2900	-0.007200
2896	-0.017285
2892	-0.015401
2888	0.019216
2884	0.027751
2880	0.022530
2876	0.048661
2872	0.052285
2868	0.050258
2864	0.045824
2860	0.015783
2856	0.003552
2852	-0.004434
2848	0.003290
2844	0.049090
2840	0.033330
2836	0.023317
2832	0.060319
2828	0.084042
2824	0.086665
2820	0.035405
2816	-0.005888
2812	0.034761
2808	0.053501
2804	0.038504
2800	0.052690
2796	0.072550
2792	0.080895
2788	0.096106
2784	0.115013
2780	0.112390
2776	0.079631
2772	0.062274
2768	0.075054
2764	0.076436
2760	0.095748
2756	0.121998
2752	0.096893
2748	0.040555
2744	-0.000452
2740	-0.015401
2736	-0.011014
2732	0.002336
2728	0.022387
2724	0.025868
2720	-0.005149
2716	-0.024366
2712	-0.021290
2708	-0.000858
2704	0.054430
2700	0.071907
2696	0.018239
2692	-0.016450
2688	0.003528
2684	0.019478
2680	0.038385
2676	0.050425
2672	0.016570
2668	-0.031137
2664	-0.031733
2660	-0.024747
2656	-0.020813
2652	0.042963
2648	0.074219
2644	0.018095
2640	-0.019526
2636	0.031208
2632	0.063419
2628	0.027894
2624	0.050330
2620	0.098228
2616	0.108957
2612	0.109004
2608	0.080108
2604	0.028300
2600	-0.030708
2596	-0.033187
2592	0.054478
2588	0.109434
2584	0.064539
2580	0.006747
2576	-0.003337
2572	0.028014
2568	0.049400
2564	0.072360
2560	0.110864
2556	0.055670
2552	-0.037360
2548	-0.055122
2544	-0.057792
2540	-0.011420
2536	0.074291
2532	0.076103
2528	0.045299
2524	0.073623
2520	0.095248
2516	0.062584
2512	0.041365
2508	0.085783
2504	0.087261
2500	-0.073361
2496	-0.193214
2492	-0.130963
2488	-0.005674
2484	0.117731
2480	0.172185
2476	0.131678
2472	0.080227
2468	0.083470
2464	0.107121
2460	0.086045
2456	0.056290
2452	0.069952
2448	0.062847
2444	0.009202
2440	-0.036501
2436	-0.026559
2432	0.071310
2428	0.101375
2424	-0.000834
2420	-0.059151
2416	-0.057530
2412	-0.021505
2408	0.022053
2404	0.006270
2400	0.002527
2396	0.057744
2392	0.061559
2388	-0.012326
2384	-0.030446
2380	-0.000047
2376	0.024127
2372	0.052762
2368	0.044751
2364	0.013589
2360	0.037837
2356	0.107574
2352	0.110411
2348	0.046300
2344	0.036525
2340	0.076055
2336	0.074362
2332	0.050425
2328	0.048303
2324	0.072240
2320	0.108742
2316	0.093531
2312	0.037837
2308	0.029540
2304	0.068593
2300	0.104975
2296	0.130367
2292	0.163507
2288	0.203609
2284	0.227189
2280	0.227141
2276	0.221395
2272	0.237894
2268	0.311708
2264	0.430893
2260	0.523638
2256	0.560283
2252	0.583791
2248	0.628376
2244	0.694561
2240	0.758409
2236	0.815415
2232	0.882840
2228	0.955176
2224	1.033806
2220	1.154303
2216	1.360058
2212	1.587200
2208	1.756429
2204	1.907444
2200	2.037405
2196	2.141547
2192	2.316236
2188	2.540063
2184	2.717852
2180	2.874159
2176	3.074598
2172	3.339552
2168	3.601384
2164	3.811144
2160	4.009318
2156	4.257607
2152	4.578948
2148	4.932451
2144	5.273103
2140	5.591893
2136	5.898928
2132	6.213307
2128	6.551742
2124	6.852006
2120	7.087302
2116	7.370710
2112	7.742118
2108	8.098602
2104	8.399319
2100	8.697628
2096	9.009742
2092	9.361958
2088	9.755611
2084	10.1555
2080	10.5601
2076	10.8532
2072	11.0709
2068	11.4501
2064	11.8657
2060	12.1071
2056	12.3463
2052	12.6913
2048	12.9986
2044	13.2572
2040	13.5724
2036	13.9155
2032	14.2182
2028	14.4972
2024	14.7512
2020	15.0206
2016	15.3373
2012	15.6461
2008	15.9175
2004	16.1338
2000	16.3209
1996	16.542
1992	16.795
1988	17.0369
1984	17.2866
1980	17.5543
1976	17.7925
1972	17.9849
1968	18.1594
1964	18.3739
1960	18.6143
1956	18.807
1952	18.9851
1948	19.1861
1944	19.3858
1940	19.5593
1936	19.6925
1932	19.8391
1928	20.0173
1924	20.1869
1920	20.3386
1916	20.4779
1912	20.6236
1908	20.7631
1904	20.893
1900	21.0413
1896	21.2199
1892	21.3973
1888	21.4919
1884	21.5182
1880	21.5727
1876	21.6916
1872	21.8259
1868	21.9388
1864	22.0766
1860	22.2404
1856	22.3539
1852	22.4053
1848	22.4558
1844	22.5473
1840	22.6756
1836	22.7796
1832	22.8225
1828	22.8415
1824	22.8909
1820	23.0054
1816	23.1503
1812	23.2756
1808	23.3559
1804	23.3856
1800	23.427
1796	23.5039
1792	23.5323
1788	23.5014
1784	23.5166
1780	23.6144
1776	23.7199
1772	23.7858
1768	23.8312
1764	23.8466
1760	23.8379
1756	23.8617
1752	23.9038
1748	23.9403
1744	23.9811
1740	24.0263
1736	24.0932
1732	24.1572
1728	24.1693
1724	24.1631
1720	24.2171
1716	24.2857
1712	24.3055
1708	24.3349
1704	24.3907
1700	24.4313
1696	24.4468
1692	24.5025
1688	24.5957
1684	24.6174
1680	24.59
1676	24.5936
1672	24.623
1668	24.708
1664	24.8227
1660	24.8696
1656	24.8818
1652	24.912
1648	24.95
1644	24.9767
1640	24.9848
1636	24.984
1632	24.9862
1628	25.0487
1624	25.0884
1620	25.0434
1616	25.0345
1612	25.0285
1608	25.0149
1604	25.0702
1600	25.1685
1596	25.2307
1592	25.207
1588	25.1775
1584	25.1622
1580	25.1101
1576	25.1072
1572	25.1774
1568	25.2345
1564	25.2467
1560	25.2369
1556	25.2249
1552	25.1743
1548	25.1401
1544	25.1763
1540	25.1894
1536	25.1749
1532	25.1626
1528	25.1178
1524	25.0756
1520	25.1045
1516	25.1855
1512	25.2156
1508	25.1785
1504	25.1433
1500	25.1475
1496	25.1868
1492	25.1944
1488	25.1419
1484	25.1106
1480	25.1167
1476	25.0991
1472	25.0667
1468	25.0817
1464	25.0764
1460	25.0094
1456	25.0288
1452	25.0957
1448	25.0863
1444	25.0635
1440	25.0147
1436	24.9361
1432	24.9826
1428	25.126
1424	25.1533
1420	25.1171
1416	25.1524
1412	25.1723
1408	25.1283
1404	25.0752
1400	25.0767
1396	25.1097
1392	25.0342
1388	24.9426
1384	24.9814
1380	25.0268
1376	24.9987
1372	24.9441
1368	24.9195
1364	24.9205
1360	24.9355
1356	24.954
1352	24.9178
1348	24.869
1344	24.8859
1340	24.8893
1336	24.8161
1332	24.7514
1328	24.7242
1324	24.7015
1320	24.6955
1316	24.677
1312	24.6111
1308	24.5556
1304	24.5579
1300	24.6014
1296	24.6329
1292	24.5773
1288	24.4548
1284	24.4046
1280	24.4251
1276	24.4219
1272	24.4125
1268	24.3811
1264	24.3502
1260	24.3715
1256	24.3086
1252	24.1529
1248	24.0764
1244	24.036
1240	23.948
1236	23.8945
1232	23.9049
1228	23.9253
1224	23.954
1220	23.9614
1216	23.8991
1212	23.8461
1208	23.8323
1204	23.7961
1200	23.7599
1196	23.8027
1192	23.8855
1188	23.8748
1184	23.81
1180	23.7598
1176	23.7322
1172	23.7559
1168	23.7472
1164	23.6767
1160	23.5868
1156	23.4581
1152	23.3597
1148	23.3634
1144	23.4055
1140	23.3929
1136	23.3365
1132	23.276
1128	23.1772
1124	23.0774
1120	23.0158
1116	22.9995
1112	23.0159
1108	23.0007
1104	22.9402
1100	22.8066
1096	22.6741
1092	22.7201
1088	22.8591
1084	22.8759
1080	22.7993
1076	22.7309
1072	22.6854
1068	22.6717
1064	22.6582
1060	22.6044
1056	22.5533
1052	22.5409
1048	22.4714
1044	22.3394
1040	22.2723
1036	22.2953
1032	22.3051
1028	22.2492
1024	22.2347
1020	22.1876
1016	22.0279
1012	21.9209
1008	21.9371
1004	21.9381
1000	21.8473
996	 21.8125
992	 21.8622
988	 21.8609
984	 21.7602
980	 21.6341
976	 21.5978
972	 21.5847
968	 21.5095
964	 21.4468
960	 21.3611
956	 21.226
952	 21.2397
948	 21.3544
944	 21.3002
940	 21.1743
936	 21.1058
932	 21.0216
928	 20.9727
924	 20.9416
920	 20.815
916	 20.7006
912	 20.6797
908	 20.7183
904	 20.8194
900	 20.8519
896	 20.7372
892	 20.582
888	 20.4639
884	 20.372
880	 20.3348
876	 20.3665
872	 20.3568
868	 20.3276
864	 20.2656
860	 20.1499
856	 20.1411
852	 20.1622
848	 20.0637
844	 19.9578
840	 19.8271
836	 19.6986
832	 19.6977
828	 19.622
824	 19.4767
820	 19.4978
816	 19.5151
812	 19.4951
808	 19.5831
804	 19.5318
800	 19.1915
796	 18.9534
792	 19.0168
788	 19.1479
784	 19.1767
780	 19.0425
776	 18.8367
772	 18.7445
768	 18.7805
764	 18.7711
760	 18.659
756	 18.4855
752	 18.2554
748	 18.1953
744	 18.286
740	 18.283
736	 18.2938
732	 18.3584
728	 18.3435
724	 18.2245
720	 18.079
716	 17.9528
712	 17.7651
708	 17.5835
704	 17.5177
700	 17.5036
696	 17.5426
692	 17.5614
688	 17.4299
684	 17.1779
680	 16.9134
676	 16.7714
672	 16.6838
668	 16.6618
664	 16.7424
660	 16.7194
656	 16.7185
652	 16.7644
648	 16.6696
644	 16.5356
640	 16.4417
636	 16.3772
632	 16.2863
628	 16.1504
624	 16.0113
620	 15.8372
616	 15.771
612	 15.9527
608	 15.9684
604	 15.6021
600	 15.2913
596	 15.2903
592	 15.3611
588	 15.4068
584	 15.6004
580	 15.7483
576	 15.5092
572	 15.046
568	 14.706
564	 14.3332
560	 13.9621
556	 14.0739
552	 14.2695
548	 14.0239
544	 13.8371
540	 13.8514
536	 13.7367
532	 13.7933
528	 13.8703
524	 13.5736
520	 13.473
516	 13.4964
512	 13.3852
508	 13.7732
504	 13.7353
500	 11.9734
496	 10.3381
492	 10.7529
488	 11.8825
484	 12.3932
480	 12.8078
476	 13.2136
472	 12.9254
468	 12.4408
464	 13.0213
460	 14.1443
456	 13.7181
452	 11.4607
448	 9.896898
444	 9.948801
440	 10.5311
436	 11.8906
432	 12.3915
428	 10.765
424	 10.1887
420	 11.9371
416	 13.7069
412	 14.6853
408	 15.0752
404	 12.1304
400	 8.214569
396	 10.4321
392	 15.9457
388	 21.2465
384	 27.0309
380	 22.475
376	 6.854224
372	 -4.055738
370	 -6.044316