File: Bakgrunnsmateriale/MATLAB/FTIR/ftir_data/LPE454/Mapping_121/LPE454_t105.asc
PE IR       SPECTRUM    SPECTRUM    ASCII       PEDS        1.60
  -1
LP9708~1.ASC
17/05/19
22:59:11.00
17/05/19
22:59:37.00
tln
$LPE454_t0105$<tbV0>[0.0,10.4,8.0,0.0,27,1,0]
27.028
64

2002,4.07
MIRTGS : RIGHTBACK : INTERNAL 2
MIR : ON : INTERNAL 2
OPTKBR

0.200000
8
8.000000
FILLER
RATIO
SPECTRUM
UNLOCKED 256

DOUBLE
64
COMBINED
1
0
0

0.002000
RATIO

1
0
TRUE
51149
0
LEFT NOT FITTED RIGHT NOT FITTED 0
NONE
NONE
15600
12
4.427000
51148
TRUE
1 0 8 72 0 0 0 0

15798

#HDR
-1
-1
#GR
µM
%T
2.38419e-05
0.0
2.000000
0.002000
12515
8
37.2227
-1.397159
#DATA
2.000000	 0.302457
2.018000	 0.333728
2.036000	 -0.365402
2.054000	 0.573166
2.072000	 0.292279
2.090000	 -0.188707
2.108000	 0.540810
2.126000	 0.086352
2.144000	 0.052444
2.162000	 0.191598
2.180000	 29.1687
2.198000	 -0.656556
2.216000	 -0.100767
2.234000	 0.298285
2.252000	 0.547610
2.270000	 0.153862
2.288000	 0.111954
2.306000	 -0.067198
2.324000	 0.362375
2.342000	 0.224313
2.360000	 -0.056607
2.378000	 -0.077612
2.396000	 0.375213
2.414000	 -0.103689
2.432000	 -0.303065
2.450000	 -0.132259
2.468000	 1.671387
2.486000	 0.275298
2.504000	 0.098364
2.522000	 0.259268
2.540000	 0.235837
2.558000	 0.076525
2.576000	 -0.005366
2.594000	 0.193523
2.612000	 -0.003356
2.630000	 0.080625
2.648000	 0.083384
2.666000	 -0.239663
2.684000	 0.161675
2.702000	 0.034062
2.720000	 0.089697
2.738000	 0.037246
2.756000	 -0.053852
2.774000	 0.019928
2.792000	 -0.017085
2.810000	 0.182652
2.828000	 0.115284
2.846000	 0.169879
2.864000	 0.002777
2.882000	 0.183910
2.900000	 -0.074880
2.918000	 0.275227
2.936000	 0.026964
2.954000	 0.026329
2.972000	 -0.012619
2.990000	 0.094335
3.008000	 0.056121
3.026000	 0.021366
3.044000	 0.054791
3.062000	 0.030032
3.080000	 -0.027246
3.098000	 0.041331
3.116000	 0.123418
3.134000	 0.064811
3.152000	 0.097502
3.170000	 0.090600
3.188000	 0.052854
3.206000	 -0.027147
3.224000	 0.024995
3.242000	 0.097005
3.260000	 0.089609
3.278000	 -0.045150
3.296000	 0.142876
3.314000	 0.114015
3.332000	 0.125855
3.350000	 0.044055
3.368000	 -0.013886
3.386000	 0.166125
3.404000	 0.052478
3.422000	 0.142646
3.440000	 0.116459
3.458000	 -0.001946
3.476000	 0.088413
3.494000	 -0.020398
3.512000	 0.100104
3.530000	 -0.030189
3.548000	 -0.027105
3.566000	 0.065975
3.584000	 0.006080
3.602000	 0.046355
3.620000	 0.020259
3.638000	 0.062176
3.656000	 0.078768
3.674000	 0.113562
3.692000	 -0.049857
3.710000	 0.054222
3.728000	 0.118558
3.746000	 -0.060995
3.764000	 0.129752
3.782000	 0.013106
3.800000	 0.018334
3.818000	 0.116852
3.836000	 -0.061562
3.854000	 0.096878
3.872000	 -0.050999
3.890000	 -0.084759
3.908000	 0.107368
3.926000	 0.103319
3.944000	 0.080251
3.962000	 0.017559
3.980000	 0.063291
3.998000	 0.018960
4.016000	 0.097773
4.034000	 0.068975
4.052000	 -0.001248
4.070000	 0.064507
4.088000	 0.147916
4.106000	 0.012279
4.124000	 0.140618
4.141999	 0.222328
4.160000	 0.114262
4.178000	 0.108676
4.196000	 0.136663
4.214000	 0.258574
4.232000	 0.285683
4.250000	 0.420456
4.268000	 0.478563
4.286000	 0.586899
4.304000	 0.655694
4.322000	 0.876166
4.340000	 1.040656
4.358000	 1.290806
4.375999	 1.609912
4.394000	 1.987870
4.412000	 2.342474
4.430000	 2.822612
4.448000	 3.366872
4.466000	 3.866184
4.484000	 4.510668
4.502000	 5.327836
4.520000	 6.072954
4.538000	 6.828771
4.556000	 7.724834
4.574000	 8.689103
4.592000	 9.596513
4.609999	 10.5747
4.628000	 11.6532
4.646000	 12.707
4.664000	 13.7398
4.682000	 14.8077
4.700000	 15.7669
4.718000	 16.8758
4.736000	 18.0152
4.754000	 19.0084
4.772000	 20.0401
4.790000	 20.9419
4.808000	 21.7713
4.826000	 22.5442
4.843999	 23.2918
4.862000	 24.2247
4.880000	 25.0959
4.898000	 25.8332
4.916000	 26.4888
4.934000	 27.1106
4.952000	 27.6082
4.970000	 28.0143
4.988000	 28.7468
5.006000	 29.403
5.024000	 30.0391
5.042000	 30.5299
5.060000	 30.779
5.077999	 31.0257
5.096000	 31.1876
5.114000	 31.4895
5.132000	 32.0183
5.150000	 32.503
5.168000	 32.9127
5.186000	 33.2162
5.204000	 33.3043
5.222000	 33.357
5.240000	 33.3994
5.258000	 33.4807
5.276000	 33.7725
5.294000	 34.053
5.312000	 34.405
5.330000	 34.7771
5.348000	 34.9479
5.366000	 34.9872
5.384000	 34.8633
5.402000	 34.859
5.420000	 34.8414
5.438000	 34.9452
5.456000	 35.2156
5.474000	 35.5422
5.492000	 35.6925
5.510000	 35.7245
5.528000	 35.8272
5.546000	 35.7219
5.564000	 35.5616
5.582000	 35.5581
5.600000	 35.5435
5.618000	 35.6408
5.636000	 35.8477
5.654000	 36.0098
5.672000	 36.2149
5.690000	 36.4787
5.708000	 36.486
5.726000	 36.3644
5.744000	 36.1765
5.762000	 36.0115
5.780000	 35.9192
5.798000	 35.9129
5.816000	 36.0158
5.834000	 36.222
5.852000	 36.44
5.870000	 36.5472
5.888000	 36.7111
5.906000	 36.8421
5.923999	 36.7057
5.942000	 36.4863
5.960000	 36.3674
5.978000	 36.2981
5.996000	 36.2012
6.014000	 36.1602
6.032000	 36.2955
6.050000	 36.5211
6.068000	 36.7377
6.086000	 36.957
6.104000	 37.0862
6.122000	 37.0411
6.140000	 36.9007
6.158000	 36.7144
6.176000	 36.4983
6.194000	 36.2712
6.212000	 36.1312
6.230000	 36.1523
6.248000	 36.2752
6.266000	 36.4309
6.284000	 36.6174
6.302000	 36.8142
6.320000	 36.9215
6.338000	 36.9998
6.356000	 37.0458
6.374000	 36.9512
6.392000	 36.7758
6.410000	 36.6439
6.428000	 36.5093
6.446000	 36.3286
6.464000	 36.2306
6.482000	 36.3189
6.500000	 36.4729
6.518000	 36.5611
6.536000	 36.6883
6.554000	 36.937
6.572000	 37.1257
6.590000	 37.1567
6.608000	 37.1264
6.626000	 37.0447
6.644000	 36.9391
6.662000	 36.8356
6.680000	 36.651
6.698000	 36.3969
6.716000	 36.2332
6.734000	 36.2116
6.752000	 36.27
6.770000	 36.3967
6.788000	 36.5629
6.806000	 36.7419
6.824000	 36.9293
6.842000	 37.0743
6.860000	 37.156
6.878000	 37.1615
6.896000	 37.123
6.914000	 37.0549
6.932000	 36.8946
6.950000	 36.6766
6.968000	 36.4867
6.986000	 36.3469
7.004000	 36.2668
7.022000	 36.2677
7.040000	 36.3137
7.058000	 36.3811
7.076000	 36.4987
7.094000	 36.6542
7.112000	 36.8313
7.130000	 36.9996
7.148000	 37.0925
7.166000	 37.1265
7.184000	 37.1274
7.202000	 37.0621
7.220000	 36.9644
7.238000	 36.8551
7.256000	 36.6862
7.274000	 36.4854
7.292000	 36.326
7.310000	 36.2083
7.328000	 36.1242
7.346000	 36.1034
7.364000	 36.1596
7.382000	 36.2784
7.400000	 36.4285
7.418000	 36.5825
7.436000	 36.7384
7.454000	 36.902
7.472000	 37.0608
7.490000	 37.1817
7.508000	 37.2222
7.526000	 37.1654
7.544000	 37.0538
7.562000	 36.9431
7.580000	 36.8292
7.598000	 36.6811
7.616000	 36.5132
7.634000	 36.3681
7.652000	 36.2647
7.670000	 36.1911
7.688000	 36.1241
7.706000	 36.0708
7.724000	 36.0839
7.742000	 36.1837
7.760000	 36.315
7.778000	 36.4346
7.796000	 36.5694
7.814000	 36.7465
7.832000	 36.9366
7.850000	 37.0819
7.868000	 37.1358
7.886000	 37.0873
7.904000	 36.9874
7.922000	 36.9044
7.940000	 36.8382
7.958000	 36.7303
7.976000	 36.5596
7.994000	 36.365
8.012000	 36.1825
8.030000	 36.021
8.048000	 35.8958
8.065999	 35.8386
8.084000	 35.8691
8.102000	 35.9751
8.120000	 36.1204
8.138000	 36.268
8.155999	 36.4024
8.173999	 36.5314
8.192000	 36.6598
8.210000	 36.7734
8.228000	 36.858
8.246000	 36.9186
8.263999	 36.9649
8.282000	 36.9925
8.300000	 36.9863
8.318000	 36.9359
8.336000	 36.8397
8.353999	 36.6973
8.372000	 36.5146
8.390000	 36.313
8.408000	 36.1236
8.426000	 35.9673
8.443999	 35.8479
8.462000	 35.764
8.480000	 35.7156
8.498000	 35.7007
8.516000	 35.7224
8.533999	 35.7959
8.552000	 35.9289
8.570000	 36.098
8.588000	 36.2607
8.606000	 36.389
8.624000	 36.4873
8.641999	 36.5743
8.660000	 36.6623
8.678000	 36.7465
8.696000	 36.8052
8.714000	 36.8173
8.731999	 36.7815
8.750000	 36.7147
8.768000	 36.6317
8.786000	 36.5374
8.804000	 36.4318
8.821999	 36.3128
8.840000	 36.1747
8.858000	 36.0155
8.876000	 35.8506
8.894000	 35.7036
8.911999	 35.5857
8.930000	 35.4947
8.948000	 35.4349
8.966000	 35.4214
8.984000	 35.456
9.001999	 35.5164
9.020000	 35.5821
9.038000	 35.6628
9.056000	 35.7806
9.074000	 35.9319
9.092000	 36.0817
9.109999	 36.2021
9.128000	 36.2975
9.146000	 36.388
9.164000	 36.4756
9.182000	 36.5462
9.199999	 36.5973
9.218000	 36.6469
9.236000	 36.7089
9.254000	 36.7686
9.272000	 36.7861
9.289999	 36.7258
9.308000	 36.5789
9.326000	 36.3649
9.344000	 36.1189
9.362000	 35.8766
9.379999	 35.6641
9.398000	 35.4943
9.416000	 35.3705
9.434000	 35.2893
9.452000	 35.242
9.469999	 35.218
9.488000	 35.2116
9.506000	 35.2235
9.524000	 35.2569
9.542000	 35.3071
9.560000	 35.3597
9.577999	 35.4031
9.596000	 35.4423
9.614000	 35.4956
9.632000	 35.5786
9.650000	 35.6912
9.667999	 35.8205
9.686000	 35.9493
9.704000	 36.062
9.722000	 36.1487
9.740000	 36.2057
9.757999	 36.2379
9.776000	 36.2563
9.794000	 36.2687
9.812000	 36.2698
9.830000	 36.2422
9.847999	 36.1677
9.866000	 36.0417
9.884000	 35.8793
9.902000	 35.7084
9.920000	 35.5574
9.937999	 35.4408
9.956000	 35.3533
9.974000	 35.2766
9.992000	 35.1931
10.01	35.0978
10.028	35.001
10.046	34.9208
10.064	34.8678
10.082	34.8387
10.1	34.8169
10.118	34.7845
10.136	34.7377
10.154	34.6923
10.172	34.6771
10.19	34.7194
10.208	34.8291
10.226	34.9933
10.244	35.1829
10.262	35.3648
10.28	35.5168
10.298	35.6333
10.316	35.7232
10.334	35.8014
10.352	35.8773
10.37	35.9486
10.388	35.9992
10.406	36.0096
10.424	35.969
10.442	35.8847
10.46	35.7775
10.478	35.6716
10.496	35.5799
10.514	35.5003
10.532	35.4197
10.55	35.324
10.568	35.2058
10.586	35.0679
10.604	34.9213
10.622	34.7801
10.64	34.6572
10.658	34.5602
10.676	34.4886
10.694	34.4343
10.712	34.3852
10.73	34.3321
10.748	34.2735
10.766	34.2164
10.784	34.1713
10.802	34.1483
10.82	34.1526
10.838	34.185
10.856	34.2434
10.874	34.3247
10.892	34.426
10.91	34.5436
10.928	34.6715
10.946	34.7993
10.964	34.9153
10.982	35.0077
11	35.0699
11.018	35.1024
11.036	35.1129
11.054	35.1141
11.072	35.1172
11.09	35.1292
11.108	35.1491
11.126	35.169
11.144	35.1789
11.162	35.1698
11.18	35.1387
11.198	35.0887
11.216	35.0266
11.234	34.9597
11.252	34.8925
11.27	34.8249
11.288	34.754
11.306	34.6765
11.324	34.5907
11.342	34.4973
11.36	34.3988
11.378	34.2981
11.396	34.1973
11.414	34.0979
11.432	34.001
11.45	33.909
11.468	33.8262
11.486	33.7572
11.504	33.7063
11.522	33.6764
11.54	33.668
11.558	33.6787
11.576	33.7045
11.594	33.7411
11.612	33.7839
11.63	33.8294
11.648	33.8757
11.666	33.922
11.684	33.9686
11.702	34.016
11.72	34.0654
11.738	34.1177
11.756	34.1739
11.774	34.2345
11.792	34.2992
11.81	34.3664
11.828	34.4329
11.846	34.4948
11.864	34.5481
11.882	34.5891
11.9	34.616
11.918	34.6293
11.936	34.6309
11.954	34.6241
11.972	34.6124
11.99	34.5983
12.008	34.5832
12.026	34.5665
12.044	34.5465
12.062	34.5217
12.08	34.4904
12.098	34.4517
12.116	34.4046
12.134	34.3473
12.152	34.277
12.17	34.1903
12.188	34.0838
12.206	33.956
12.224	33.8089
12.242	33.6485
12.26	33.4841
12.278	33.3272
12.296	33.1888
12.314	33.0769
12.332	32.9947
12.35	32.9403
12.368	32.9082
12.386	32.8909
12.404	32.8814
12.422	32.8751
12.44	32.8702
12.458	32.8672
12.476	32.8671
12.494	32.8709
12.512	32.8787
12.53	32.8899
12.548	32.9042
12.566	32.9222
12.584	32.9448
12.602	32.9739
12.62	33.0109
12.638	33.0566
12.656	33.1104
12.674	33.1701
12.692	33.2332
12.71	33.297
12.728	33.3591
12.746	33.4184
12.764	33.4745
12.782	33.5275
12.8	33.5778
12.818	33.6254
12.836	33.67
12.854	33.7108
12.872	33.7464
12.89	33.7749
12.908	33.7948
12.926	33.8047
12.944	33.8035
12.962	33.7917
12.98	33.7711
12.998	33.7444
13.016	33.7148
13.034	33.685
13.052	33.6567
13.07	33.629
13.088	33.5995
13.106	33.564
13.124	33.5181
13.142	33.4587
13.16	33.3847
13.178	33.2977
13.196	33.2024
13.214	33.1046
13.232	33.0106
13.25	32.9249
13.268	32.8492
13.286	32.7823
13.304	32.7201
13.322	32.6571
13.34	32.5879
13.358	32.509
13.376	32.4193
13.394	32.3207
13.412	32.2177
13.43	32.1156
13.448	32.0201
13.466	31.9355
13.484	31.8646
13.502	31.8091
13.52	31.7693
13.538	31.7453
13.556	31.737
13.574	31.7446
13.592	31.7684
13.61	31.8079
13.628	31.8623
13.646	31.9294
13.664	32.0063
13.682	32.0887
13.7	32.1723
13.718	32.2528
13.736	32.3271
13.754	32.3931
13.772	32.4507
13.79	32.501
13.808	32.5465
13.826	32.5904
13.844	32.6358
13.862	32.6851
13.88	32.7396
13.898	32.7991
13.916	32.8617
13.934	32.9242
13.952	32.982
13.97	33.0303
13.988	33.0645
14.006	33.0815
14.024	33.0797
14.042	33.06
14.06	33.0253
14.078	32.9798
14.096	32.928
14.114	32.8745
14.132	32.8226
14.15	32.7745
14.168	32.7309
14.186	32.6908
14.204	32.6527
14.222	32.614
14.24	32.5727
14.258	32.5267
14.276	32.475
14.294	32.4168
14.312	32.3522
14.33	32.282
14.348	32.2073
14.366	32.1294
14.384	32.0497
14.402	31.97
14.42	31.8917
14.438	31.8162
14.456	31.7443
14.474	31.6762
14.492	31.6116
14.51	31.5495
14.528	31.4881
14.546	31.4262
14.564	31.3629
14.582	31.298
14.6	31.2324
14.618	31.1679
14.636	31.107
14.654	31.0525
14.672	31.0069
14.69	30.9719
14.708	30.9485
14.726	30.9362
14.744	30.934
14.762	30.9394
14.78	30.9502
14.798	30.964
14.816	30.9785
14.834	30.9925
14.852	31.0051
14.87	31.017
14.888	31.0292
14.906	31.0427
14.924	31.0591
14.942	31.0798
14.96	31.1054
14.978	31.1359
14.996	31.1703
15.014	31.2075
15.032	31.2453
15.05	31.2814
15.068	31.3139
15.086	31.3408
15.104	31.3608
15.122	31.3735
15.14	31.3794
15.158	31.3796
15.176	31.3757
15.194	31.37
15.212	31.3646
15.23	31.3613
15.248	31.3612
15.266	31.3649
15.284	31.372
15.302	31.3813
15.32	31.3915
15.338	31.4009
15.356	31.4078
15.374	31.4112
15.392	31.4106
15.41	31.4067
15.428	31.4005
15.446	31.3945
15.464	31.3908
15.482	31.3915
15.5	31.3981
15.518	31.4117
15.536	31.4315
15.554	31.4562
15.572	31.4836
15.59	31.5094
15.608	31.5309
15.626	31.5452
15.644	31.5494
15.662	31.5418
15.68	31.5223
15.698	31.4909
15.716	31.4493
15.734	31.3996
15.752	31.3436
15.77	31.2835
15.788	31.2215
15.806	31.1589
15.824	31.0967
15.842	31.0356
15.86	30.976
15.878	30.9177
15.896	30.8607
15.914	30.8047
15.932	30.7497
15.95	30.6957
15.968	30.6429
15.986	30.5914
16.004	30.5412
16.022	30.4925
16.04	30.4449
16.058	30.3985
16.076	30.3532
16.094	30.3089
16.112	30.2656
16.13	30.2238
16.148	30.1836
16.166	30.1458
16.184	30.1108
16.202	30.0788
16.22	30.0501
16.238	30.0243
16.256	30.0011
16.274	29.9797
16.292	29.9592
16.31	29.9389
16.328	29.9175
16.346	29.8944
16.364	29.8691
16.382	29.8414
16.4	29.8119
16.418	29.781
16.436	29.7502
16.454	29.7209
16.472	29.6944
16.49	29.6734
16.508	29.6599
16.526	29.6555
16.544	29.6625
16.562	29.6817
16.58	29.714
16.598	29.7593
16.616	29.8167
16.634	29.8853
16.652	29.9622
16.67	30.0449
16.688	30.1307
16.706	30.2152
16.724	30.2962
16.742	30.3709
16.76	30.4364
16.778	30.4918
16.796	30.5359
16.814	30.5696
16.832	30.5936
16.85	30.6099
16.868	30.621
16.886	30.6289
16.904	30.6368
16.922	30.6457
16.94	30.6575
16.958	30.6721
16.976	30.6892
16.994	30.7079
17.012	30.7257
17.03	30.7415
17.048	30.7518
17.066	30.7556
17.084	30.7506
17.102	30.7361
17.12	30.7121
17.138	30.6787
17.156	30.637
17.174	30.5878
17.192	30.5333
17.21	30.4742
17.228	30.4125
17.246	30.3491
17.264	30.2849
17.282	30.2202
17.3	30.1549
17.318	30.089
17.336	30.0217
17.354	29.9525
17.372	29.88
17.39	29.8037
17.408	29.7222
17.426	29.6354
17.444	29.5429
17.462	29.4452
17.48	29.3427
17.498	29.2363
17.516	29.1277
17.534	29.018
17.552	28.91
17.57	28.8044
17.588	28.7048
17.606	28.6124
17.624	28.5296
17.642	28.4586
17.66	28.4005
17.678	28.3564
17.696	28.3265
17.714	28.311
17.732	28.3091
17.75	28.32
17.768	28.3417
17.786	28.3738
17.804	28.4123
17.822	28.4564
17.84	28.5033
17.858	28.552
17.876	28.601
17.894	28.6497
17.912	28.6976
17.93	28.7446
17.948	28.7906
17.966	28.8356
17.984	28.8793
18.002	28.9214
18.02	28.961
18.038	28.9976
18.056	29.0295
18.074	29.0564
18.092	29.0767
18.11	29.0903
18.128	29.0964
18.146	29.096
18.164	29.0902
18.182	29.0813
18.2	29.0714
18.218	29.065
18.236	29.0643
18.254	29.0748
18.272	29.0982
18.29	29.1394
18.308	29.1991
18.326	29.2796
18.344	29.3802
18.362	29.4998
18.38	29.636
18.398	29.7843
18.416	29.9406
18.434	30.0997
18.452	30.2547
18.47	30.4009
18.488	30.5314
18.506	30.643
18.524	30.7296
18.542	30.7894
18.56	30.8201
18.578	30.8213
18.596	30.7938
18.614	30.7379
18.632	30.6575
18.65	30.5532
18.668	30.4308
18.686	30.2911
18.704	30.14
18.722	29.9785
18.74	29.8127
18.758	29.6434
18.776	29.476
18.794	29.3116
18.812	29.155
18.83	29.0076
18.848	28.8737
18.866	28.7546
18.884	28.6541
18.902	28.5734
18.92	28.5158
18.938	28.4814
18.956	28.4722
18.974	28.4873
18.992	28.5268
19.01	28.5886
19.028	28.6708
19.046	28.7703
19.064	28.8833
19.082	29.0059
19.1	29.1321
19.118	29.2587
19.136	29.3779
19.154	29.4876
19.172	29.5802
19.19	29.6548
19.208	29.7053
19.226	29.7322
19.244	29.732
19.262	29.7059
19.28	29.6545
19.298	29.5787
19.316	29.4831
19.334	29.368
19.352	29.2412
19.37	29.1024
19.388	28.9606
19.406	28.8156
19.424	28.6753
19.442	28.5399
19.46	28.4154
19.478	28.3028
19.496	28.2045
19.514	28.1218
19.532	28.0546
19.55	28.004
19.568	27.968
19.586	27.9459
19.604	27.9361
19.622	27.9356
19.64	27.9438
19.658	27.9563
19.676	27.9732
19.694	27.9895
19.712	28.0057
19.73	28.0182
19.748	28.0272
19.766	28.0313
19.784	28.0301
19.802	28.0241
19.82	28.0133
19.838	27.9987
19.856	27.9815
19.874	27.9619
19.892	27.9415
19.91	27.9202
19.928	27.8988
19.946	27.8773
19.964	27.8549
19.982	27.832
20	27.8069
20.018	27.7791
20.036	27.7477
20.054	27.7108
20.072	27.6685
20.09	27.619
20.108	27.5625
20.126	27.499
20.144	27.428
20.162	27.3518
20.18	27.2704
20.198	27.186
20.216	27.1016
20.234	27.0173
20.252	26.9387
20.27	26.8648
20.288	26.8009
20.306	26.7472
20.324	26.7059
20.342	26.6792
20.36	26.6663
20.378	26.6684
20.396	26.685
20.414	26.7139
20.432	26.7559
20.45	26.8065
20.468	26.8646
20.486	26.9279
20.504	26.9915
20.522	27.0562
20.54	27.1162
20.558	27.1719
20.576	27.2205
20.594	27.2601
20.612	27.2911
20.63	27.3122
20.648	27.3239
20.666	27.3273
20.684	27.3221
20.702	27.3103
20.72	27.293
20.738	27.2704
20.756	27.2459
20.774	27.2188
20.792	27.1914
20.81	27.1641
20.828	27.1376
20.846	27.1131
20.864	27.0902
20.882	27.0696
20.9	27.0514
20.918	27.0352
20.936	27.0208
20.954	27.0081
20.972	26.9967
20.99	26.9866
21.008	26.9772
21.026	26.968
21.044	26.9591
21.062	26.9498
21.08	26.9405
21.098	26.9303
21.116	26.9191
21.134	26.9069
21.152	26.8929
21.17	26.8775
21.188	26.8602
21.206	26.8409
21.224	26.8199
21.242	26.797
21.26	26.7723
21.278	26.7466
21.296	26.7198
21.314	26.6924
21.332	26.6656
21.35	26.639
21.368	26.6145
21.386	26.5926
21.404	26.5736
21.422	26.5595
21.44	26.5497
21.458	26.5458
21.476	26.5487
21.494	26.5579
21.512	26.5741
21.53	26.5975
21.548	26.6268
21.566	26.6616
21.584	26.7019
21.602	26.7442
21.62	26.7894
21.638	26.835
21.656	26.8776
21.674	26.9186
21.692	26.9537
21.71	26.982
21.728	27.0032
21.746	27.0139
21.764	27.0146
21.782	27.0047
21.8	26.9828
21.818	26.9495
21.836	26.9066
21.854	26.8531
21.872	26.7909
21.89	26.723
21.908	26.6479
21.926	26.5698
21.944	26.491
21.962	26.4105
21.98	26.3332
21.998	26.2591
22.016	26.1888
22.034	26.1255
22.052	26.0685
22.07	26.0182
22.088	25.9756
22.106	25.9402
22.124	25.9107
22.142	25.8876
22.16	25.8698
22.178	25.8545
22.196	25.8427
22.214	25.8323
22.232	25.8205
22.25	25.8087
22.268	25.7943
22.286	25.7755
22.304	25.7533
22.322	25.7258
22.34	25.6927
22.358	25.6543
22.376	25.6103
22.394	25.5604
22.412	25.5054
22.43	25.4464
22.448	25.3826
22.466	25.3157
22.484	25.2468
22.502	25.1752
22.52	25.1032
22.538	25.0314
22.556	24.9596
22.574	24.8892
22.592	24.8206
22.61	24.7536
22.628	24.6893
22.646	24.6275
22.664	24.5686
22.682	24.5131
22.7	24.4606
22.718	24.4119
22.736	24.3675
22.754	24.327
22.772	24.2913
22.79	24.2611
22.808	24.2358
22.826	24.2168
22.844	24.205
22.862	24.1996
22.88	24.2024
22.898	24.214
22.916	24.2339
22.934	24.2636
22.952	24.3037
22.97	24.3537
22.988	24.4139
23.006	24.4847
23.024	24.5656
23.042	24.6557
23.06	24.7556
23.078	24.8644
23.096	24.9794
23.114	25.1013
23.132	25.229
23.15	25.3588
23.168	25.4915
23.186	25.6261
23.204	25.7582
23.222	25.8885
23.24	26.0164
23.258	26.1378
23.276	26.2532
23.294	26.3623
23.312	26.4622
23.33	26.5531
23.348	26.6352
23.366	26.7071
23.384	26.7687
23.402	26.8204
23.42	26.8626
23.438	26.8947
23.456	26.9174
23.474	26.9325
23.492	26.9396
23.51	26.939
23.528	26.9336
23.546	26.924
23.564	26.9096
23.582	26.8932
23.6	26.8757
23.618	26.8563
23.636	26.8368
23.654	26.8186
23.672	26.8006
23.69	26.7837
23.708	26.7683
23.726	26.7543
23.744	26.7411
23.762	26.7284
23.78	26.7168
23.798	26.705
23.816	26.6917
23.834	26.6779
23.852	26.6625
23.87	26.6437
23.888	26.6223
23.906	26.5976
23.924	26.5682
23.942	26.5341
23.96	26.4954
23.978	26.4515
23.996	26.402
24.014	26.3473
24.032	26.2871
24.05	26.2211
24.068	26.1495
24.086	26.0725
24.104	25.9905
24.122	25.903
24.14	25.8108
24.158	25.7152
24.176	25.6153
24.194	25.512
24.212	25.4071
24.23	25.3006
24.248	25.1922
24.266	25.0839
24.284	24.9766
24.302	24.8692
24.32	24.7636
24.338	24.6618
24.356	24.5624
24.374	24.4665
24.392	24.3754
24.41	24.2886
24.428	24.2064
24.446	24.1302
24.464	24.0607
24.482	23.9971
24.5	23.9405
24.518	23.8921
24.536	23.8508
24.554	23.8175
24.572	23.7935
24.59	23.7779
24.608	23.7711
24.626	23.7755
24.644	23.7921
24.662	23.8199
24.68	23.8594
24.698	23.9115
24.716	23.9761
24.734	24.0527
24.752	24.1408
24.77	24.2417
24.788	24.3548
24.806	24.476
24.824	24.6035
24.842	24.7407
24.86	24.8821
24.878	25.0212
24.896	25.1619
24.914	25.3021
24.932	25.4328
24.95	25.5501
24.968	25.6603
24.986	25.754
25.004	25.821
25.022	25.8661
25.04	25.8877
25.058	25.8784
25.076	25.8343
25.094	25.7595
25.112	25.6519
25.13	25.5089
25.148	25.3287
25.166	25.1149
25.184	24.8721
25.202	24.6002
25.22	24.2955
25.238	23.9688
25.256	23.631
25.274	23.2744
25.292	22.9034
25.31	22.5323
25.328	22.1684
25.346	21.8014
25.364	21.443
25.382	21.1069
25.4	20.7908
25.418	20.4923
25.436	20.2196
25.454	19.9794
25.472	19.7682
25.49	19.5851
25.508	19.4309
25.526	19.3077
25.544	19.2151
25.562	19.1465
25.58	19.0966
25.598	19.0716
25.616	19.0667
25.634	19.071
25.652	19.0787
25.67	19.0984
25.688	19.121
25.706	19.135
25.724	19.1405
25.742	19.1417
25.76	19.1305
25.778	19.0994
25.796	19.052
25.814	18.9881
25.832	18.9039
25.85	18.7959
25.868	18.6653
25.886	18.5145
25.904	18.3457
25.922	18.1576
25.94	17.9488
25.958	17.7261
25.976	17.4964
25.994	17.2544
26.012	17.0017
26.03	16.7483
26.048	16.5025
26.066	16.2549
26.084	16.0118
26.102	15.7851
26.12	15.5825
26.138	15.3946
26.156	15.2276
26.174	15.09
26.192	14.9851
26.21	14.9074
26.228	14.8604
26.246	14.8483
26.264	14.874
26.282	14.9349
26.3	15.0258
26.318	15.1421
26.336	15.2909
26.354	15.4688
26.372	15.6622
26.39	15.8589
26.408	16.0726
26.426	16.2961
26.444	16.5109
26.462	16.7026
26.48	16.8904
26.498	17.0617
26.516	17.1942
26.534	17.2715
26.552	17.3115
26.57	17.3058
26.588	17.2401
26.606	17.1039
26.624	16.9054
26.642	16.6457
26.66	16.3241
26.678	15.9374
26.696	15.4811
26.714	14.968
26.732	14.4117
26.75	13.8148
26.768	13.1608
26.786	12.4733
26.804	11.779
26.822	11.0866
26.84	10.3716
26.858	9.659723
26.876	8.980312
26.894	8.345376
26.912	7.729366
26.93	7.153377
26.948	6.641942
26.966	6.208698
26.984	5.835243
27.002	5.528613
27.02	5.298403
27.028	5.231332