File: Bakgrunnsmateriale/MATLAB/FTIR/ftir_data/LPE454/Mapping_121/LPE454_t04_cm-1.asc
PE IR       SPECTRUM    SPECTRUM    ASCII       PEDS        1.60
  -1
LP67BB~1.ASC
17/05/19
14:43:11.00
17/05/19
14:43:11.00
tln
$LPE454_t0004$<tbV0>[5.2,-13.0,8.0,0.0,27,1,0]
370
64

2002,4.07
MIRTGS : RIGHTBACK : INTERNAL 2
MIR : ON : INTERNAL 2
OPTKBR

0.200000
8
8.000000
FILLER
RATIO
SPECTRUM
UNLOCKED 256

DOUBLE
64
COMBINED
1
0
0

1.000000
RATIO

1
0
TRUE
51149
0
LEFT NOT FITTED RIGHT NOT FITTED 0
NONE
NONE
15600
12
4.427000
51148
TRUE
1 0 8 72 0 0 0 0

15798

#HDR
-1
-1
#GR
CM-1
%T
2.38419e-05
0.0
5000
-1.000000
4631
8
88.946
-6.594204
#DATA
5000	0.100278
4996	0.284218
4992	0.319433
4988	0.081491
4984	-0.013589
4980	0.278186
4976	0.579309
4972	0.712728
4968	0.767254
4964	0.952363
4960	1.124286
4956	0.851893
4952	0.521540
4948	0.508546
4944	0.487065
4940	0.488042
4936	0.400495
4932	0.029563
4928	0.011801
4924	0.274229
4920	0.231099
4916	0.248718
4912	0.398612
4908	0.280404
4904	0.066852
4900	-0.050401
4896	-0.238704
4892	-0.703120
4888	-0.925636
4884	-0.418090
4880	0.205564
4876	0.681090
4872	1.101994
4868	1.267576
4864	0.979661
4860	0.681877
4856	1.369976
4852	1.852726
4848	0.768351
4844	-0.800752
4840	-1.101183
4836	0.489735
4832	1.172709
4828	0.148081
4824	0.031089
4820	0.211381
4816	-0.121998
4812	-0.036811
4808	0.061345
4804	0.052523
4800	0.772428
4796	1.801490
4792	1.885390
4788	1.369500
4784	1.118063
4780	1.090097
4776	1.274657
4772	1.515460
4768	1.441287
4764	1.028561
4760	0.510287
4756	0.256943
4752	0.297784
4748	0.148987
4744	0.076317
4740	0.156044
4736	-0.061821
4732	-0.131821
4728	0.008654
4724	0.001072
4720	-0.150132
4716	-0.218439
4712	-0.005936
4708	0.236558
4704	0.171732
4700	0.020217
4696	0.118041
4692	0.066661
4688	-0.197243
4684	-0.177073
4680	0.044679
4676	0.049996
4672	-0.084424
4668	-0.046968
4664	0.082254
4660	0.101113
4656	-0.014853
4652	-0.086641
4648	0.048756
4644	0.118279
4640	0.030994
4636	0.070691
4632	0.021100
4628	-0.144600
4624	-0.015211
4620	0.317859
4616	0.446581
4612	0.271439
4608	-0.103640
4604	-0.364232
4600	-0.192117
4596	0.160551
4592	0.276589
4588	0.185918
4584	0.099349
4580	0.120282
4576	0.226950
4572	0.264048
4568	0.223183
4564	0.140070
4560	-0.059223
4556	-0.140500
4552	0.108408
4548	0.416445
4544	0.519943
4540	0.405073
4536	0.225687
4532	0.177836
4528	0.165247
4524	0.124645
4520	0.215339
4516	0.317144
4512	-0.042700
4508	-0.717926
4504	-1.034498
4500	-0.937747
4496	-0.691366
4492	-0.490570
4488	-0.255727
4484	0.197386
4480	1.422643
4476	3.336977
4472	3.613281
4468	2.505803
4464	2.223753
4460	-3.529167
4456	-6.069564
4452	0.688934
4448	3.107500
4444	1.432847
4440	1.314949
4436	1.308369
4432	0.852203
4428	0.299263
4424	0.111532
4420	0.435924
4416	0.587582
4412	0.105857
4408	-0.309348
4404	-0.218415
4400	-0.020861
4396	0.075149
4392	0.064158
4388	0.107645
4384	0.239753
4380	0.128269
4376	-0.043535
4372	-0.053095
4368	-0.007367
4364	-0.032687
4360	-0.267887
4356	-0.463151
4352	-0.381898
4348	-0.087499
4344	0.245952
4340	0.406670
4336	0.282359
4332	0.136089
4328	0.032615
4324	-0.076603
4320	-0.001335
4316	0.192403
4312	0.212860
4308	0.079774
4304	0.030732
4300	0.042557
4296	0.064802
4292	0.082468
4288	0.043225
4284	0.076866
4280	0.295114
4276	0.498771
4272	0.517868
4268	0.304532
4264	-0.109171
4260	-0.345897
4256	-0.233650
4252	0.008702
4248	0.207781
4244	0.248479
4240	0.115132
4236	-0.122523
4232	-0.184369
4228	-0.004053
4224	0.060796
4220	0.030136
4216	0.093436
4212	0.123071
4208	-0.006437
4204	-0.178074
4200	-0.335788
4196	-0.458478
4192	-0.445055
4188	-0.249791
4184	0.284123
4180	0.993585
4176	1.185345
4172	0.614666
4168	0.045704
4164	0.128078
4160	0.373530
4156	0.257873
4152	0.049328
4148	-0.020146
4144	0.039005
4140	0.135612
4136	0.223064
4132	0.156283
4128	-0.003600
4124	-0.020456
4120	-0.151705
4116	-0.439357
4112	-0.646400
4108	-0.586986
4104	-0.123119
4100	0.194597
4096	0.091361
4092	-0.049281
4088	-0.049185
4084	-0.052332
4080	-0.222253
4076	-0.267195
4072	0.083899
4068	0.327968
4064	0.292611
4060	0.266766
4056	0.114202
4052	0.011396
4048	0.187706
4044	0.323295
4040	0.308036
4036	0.260758
4032	0.284624
4028	0.312685
4024	0.190639
4020	-0.007510
4016	-0.143408
4012	-0.090670
4008	-0.031685
4004	-0.096201
4000	-0.096583
3996	-0.026226
3992	0.092458
3988	0.179529
3984	0.214576
3980	0.186228
3976	0.004410
3972	-0.164031
3968	-0.240278
3964	-0.257086
3960	-0.092983
3956	0.123119
3952	0.069308
3948	-0.108337
3944	-0.036478
3940	0.167727
3936	0.198054
3932	0.100350
3928	0.042986
3924	0.077748
3920	0.167703
3916	0.249791
3912	0.234198
3908	0.094127
3904	0.028514
3900	0.073790
3896	0.014424
3892	-0.090789
3888	-0.068998
3884	-0.006365
3880	0.079154
3876	0.145602
3872	0.069403
3868	0.022387
3864	0.053358
3860	0.027823
3856	0.035333
3852	0.120925
3848	0.146198
3844	0.113677
3840	0.035762
3836	-0.096464
3832	-0.184798
3828	-0.173306
3824	-0.043535
3820	0.140571
3816	0.231957
3812	0.119853
3808	-0.003910
3804	0.053882
3800	0.110292
3796	0.098085
3792	0.102186
3788	0.129413
3784	0.180506
3780	0.208258
3776	0.176930
3772	0.125789
3768	0.131273
3764	0.172758
3760	0.118660
3756	-0.010490
3752	-0.101852
3748	-0.167465
3744	-0.121760
3740	-0.006246
3736	-0.008654
3732	0.025868
3728	0.104165
3724	0.077915
3720	0.084590
3716	0.106930
3712	0.093340
3708	0.168633
3704	0.204634
3700	0.095176
3696	0.023603
3692	-0.006484
3688	-0.028109
3684	0.066494
3680	0.117611
3676	0.002169
3672	-0.086951
3668	-0.054240
3664	0.029754
3660	0.083971
3656	0.010609
3652	-0.089335
3648	-0.039601
3644	0.053215
3640	0.128579
3636	0.178909
3632	0.100374
3628	0.016736
3624	0.027418
3620	0.004267
3616	-0.020599
3612	0.030779
3608	0.103235
3604	0.163412
3600	0.184011
3596	0.128340
3592	0.049233
3588	-0.004720
3584	-0.069141
3580	-0.093412
3576	-0.012445
3572	0.103044
3568	0.113248
3564	0.008130
3560	-0.059437
3556	-0.083184
3552	-0.065326
3548	-0.027394
3544	-0.041985
3540	0.018262
3536	0.146317
3532	0.154614
3528	0.125384
3524	0.104117
3520	-0.004029
3516	-0.065994
3512	-0.046563
3508	-0.035405
3504	-0.017309
3500	0.008726
3496	0.073051
3492	0.163173
3488	0.197553
3484	0.160646
3480	0.053572
3476	-0.003027
3472	0.089979
3468	0.212121
3464	0.284647
3460	0.293660
3456	0.181937
3452	0.055718
3448	0.007271
3444	-0.055336
3440	-0.142765
3436	-0.126290
3432	-0.052237
3428	-0.056576
3424	-0.126791
3420	-0.126433
3416	-0.103306
3412	-0.083518
3408	0.011610
3404	0.084543
3400	0.064659
3396	0.054287
3392	0.052714
3388	0.032091
3384	0.073981
3380	0.170874
3376	0.151300
3372	0.051808
3368	0.069665
3364	0.132441
3360	0.141978
3356	0.134634
3352	0.086641
3348	0.026059
3344	0.063610
3340	0.202679
3336	0.284528
3332	0.250315
3328	0.244951
3324	0.291824
3320	0.282049
3316	0.240182
3312	0.231814
3308	0.193834
3304	0.138354
3300	0.127029
3296	0.108671
3292	0.084257
3288	0.057101
3284	0.032305
3280	0.065898
3276	0.092411
3272	0.091099
3268	0.106787
3264	0.098657
3260	0.082945
3256	0.056028
3252	0.020623
3248	0.040173
3244	0.032615
3240	-0.035238
3236	-0.066518
3232	-0.034928
3228	-0.019884
3224	-0.061273
3220	-0.053715
3216	0.004243
3212	0.066542
3208	0.148177
3204	0.143170
3200	0.025725
3196	-0.029826
3192	0.011467
3188	0.030899
3184	0.043106
3180	0.043439
3176	-0.009059
3172	-0.021004
3168	0.002098
3164	-0.007343
3160	-0.023245
3156	-0.010418
3152	0.087189
3148	0.259041
3144	0.313639
3140	0.163817
3136	0.013566
3132	-0.020074
3128	-0.042080
3124	-0.048041
3120	0.021862
3116	0.105786
3112	0.186395
3108	0.206708
3104	0.159168
3100	0.134968
3096	0.086355
3092	0.018215
3088	0.005531
3084	-0.006222
3080	-0.069284
3076	-0.096106
3072	-0.059700
3068	-0.077939
3064	-0.119781
3060	-0.104355
3056	-0.065445
3052	0.003552
3048	0.068402
3044	0.085353
3040	0.116825
3036	0.194215
3032	0.219559
3028	0.144672
3024	0.083088
3020	0.053739
3016	-0.012588
3012	-0.054669
3008	-0.042009
3004	-0.020551
3000	0.014567
2996	0.030612
2992	0.040912
2988	0.059771
2984	0.002098
2980	-0.056171
2976	0.017762
2972	0.117969
2968	0.133824
2964	0.106978
2960	0.044894
2956	-0.044298
2952	-0.109195
2948	-0.120282
2944	-0.081896
2940	-0.030207
2936	0.040197
2932	0.134181
2928	0.183725
2924	0.096440
2920	-0.053334
2916	-0.049448
2912	0.028586
2908	0.013661
2904	0.014209
2900	0.071811
2896	0.099468
2892	0.084948
2888	0.031042
2884	0.002264
2880	0.012660
2876	0.028681
2872	0.053286
2868	0.045490
2864	0.001001
2860	-0.057649
2856	-0.101542
2852	-0.149059
2848	-0.240421
2844	-0.268793
2840	-0.160622
2836	-0.029945
2832	0.053167
2828	0.159883
2824	0.237822
2820	0.242161
2816	0.257372
2812	0.228595
2808	0.173234
2804	0.144553
2800	0.055861
2796	-0.028061
2792	-0.032305
2788	-0.020360
2784	0.000834
2780	0.009346
2776	-0.014877
2772	0.007200
2768	0.066494
2764	0.017189
2760	-0.105762
2756	-0.136017
2752	-0.077700
2748	-0.007915
2744	0.029253
2740	0.037527
2736	0.062537
2732	0.055074
2728	-0.001144
2724	-0.029253
2720	-0.058174
2716	-0.073146
2712	-0.005078
2708	0.056219
2704	0.015258
2700	-0.066733
2696	-0.081110
2692	0.004458
2688	0.108218
2684	0.136542
2680	0.109910
2676	0.074315
2672	0.039124
2668	0.023722
2664	0.024771
2660	-0.000309
2656	-0.075292
2652	-0.109100
2648	-0.047898
2644	0.039029
2640	0.089502
2636	0.039744
2632	-0.036096
2628	-0.016975
2624	0.037360
2620	0.059318
2616	0.066328
2612	0.074100
2608	0.075840
2604	0.068092
2600	0.088644
2596	0.132894
2592	0.138711
2588	0.083374
2584	-0.012087
2580	-0.074124
2576	-0.040626
2572	-0.016260
2568	-0.042676
2564	-0.022459
2560	-0.017619
2556	-0.096201
2552	-0.107693
2548	-0.014591
2544	0.059103
2540	0.082206
2536	0.078177
2532	0.056314
2528	0.029778
2524	-0.007963
2520	-0.072455
2516	-0.121927
2512	-0.077295
2508	0.051641
2504	0.084781
2500	-0.034189
2496	-0.111222
2492	-0.096583
2488	-0.051116
2484	0.024819
2480	0.062417
2476	0.066018
2472	0.063633
2468	0.049543
2464	0.051045
2460	0.047421
2456	0.054955
2452	0.075650
2448	0.087118
2444	0.100016
2440	0.143909
2436	0.184440
2432	0.137948
2428	0.015282
2424	-0.033497
2420	0.139808
2416	0.268054
2412	0.152087
2408	0.044560
2404	0.021052
2400	0.016593
2396	0.021004
2392	0.029468
2388	0.044655
2384	0.004410
2380	-0.047421
2376	0.025224
2372	0.168943
2368	0.224447
2364	0.207018
2360	0.226545
2356	0.267982
2352	0.280189
2348	0.295734
2344	0.308084
2340	0.301527
2336	0.356793
2332	0.448822
2328	0.503945
2324	0.571489
2320	0.631737
2316	0.658464
2312	0.720238
2308	0.803422
2304	0.847172
2300	0.923466
2296	1.078057
2292	1.199436
2288	1.255273
2284	1.301169
2280	1.398468
2276	1.522874
2272	1.604819
2268	1.760125
2264	1.985764
2260	2.123212
2256	2.228760
2252	2.410840
2248	2.638125
2244	2.869200
2240	3.143405
2236	3.452396
2232	3.687119
2228	3.854870
2224	4.084134
2220	4.368329
2216	4.665017
2212	5.027365
2208	5.409574
2204	5.726695
2200	6.010961
2196	6.354308
2192	6.753277
2188	7.113695
2184	7.497978
2180	7.982444
2176	8.440351
2172	8.867096
2168	9.387636
2164	9.912943
2160	10.3226
2156	10.7531
2152	11.3263
2148	11.9086
2144	12.4326
2140	12.956
2136	13.4685
2132	13.9308
2128	14.368
2124	14.8313
2120	15.2878
2116	15.7566
2112	16.2491
2108	16.6817
2104	17.1326
2100	17.6773
2096	18.2205
2092	18.7642
2088	19.3922
2084	20.0131
2080	20.4869
2076	20.9341
2072	21.4888
2068	22.0141
2064	22.4127
2060	22.7442
2056	23.0871
2052	23.4831
2048	23.9125
2044	24.3297
2040	24.7201
2036	25.118
2032	25.5442
2028	25.9408
2024	26.2625
2020	26.5812
2016	26.8943
2012	27.1807
2008	27.4882
2004	27.7989
2000	28.1055
1996	28.4128
1992	28.6732
1988	28.9219
1984	29.2448
1980	29.5673
1976	29.8467
1972	30.1238
1968	30.3506
1964	30.5274
1960	30.7247
1956	30.9473
1952	31.1117
1948	31.1827
1944	31.2366
1940	31.3545
1936	31.5534
1932	31.8071
1928	32.0733
1924	32.3375
1920	32.5844
1916	32.7494
1912	32.885
1908	33.0293
1904	33.1288
1900	33.1786
1896	33.1752
1892	33.1911
1888	33.2631
1884	33.3668
1880	33.491
1876	33.5876
1872	33.6874
1868	33.8353
1864	34.0143
1860	34.1911
1856	34.3025
1852	34.3527
1848	34.413
1844	34.4752
1840	34.4902
1836	34.4895
1832	34.5011
1828	34.5033
1824	34.5095
1820	34.5393
1816	34.6116
1812	34.7812
1808	35.0506
1804	35.2687
1800	35.3408
1796	35.3814
1792	35.4083
1788	35.3579
1784	35.2862
1780	35.2484
1776	35.2523
1772	35.2507
1768	35.2122
1764	35.1602
1760	35.1184
1756	35.1582
1752	35.2752
1748	35.4188
1744	35.57
1740	35.6809
1736	35.7142
1732	35.5899
1728	35.4202
1724	35.4331
1720	35.6304
1716	35.7718
1712	35.6985
1708	35.6016
1704	35.6447
1700	35.7632
1696	35.806
1692	35.8106
1688	35.9149
1684	36.0381
1680	36.0809
1676	36.0837
1672	36.0273
1668	35.8849
1664	35.7323
1660	35.6133
1656	35.6186
1652	35.6795
1648	35.5961
1644	35.4893
1640	35.5649
1636	35.7376
1632	35.8209
1628	35.8761
1624	35.9694
1620	36.0636
1616	36.0959
1612	36.015
1608	35.8879
1604	35.7396
1600	35.5875
1596	35.491
1592	35.4692
1588	35.4749
1584	35.4501
1580	35.4881
1576	35.6146
1572	35.7375
1568	35.8698
1564	36.0075
1560	36.1403
1556	36.1319
1552	35.9497
1548	35.815
1544	35.8047
1540	35.7782
1536	35.6281
1532	35.4489
1528	35.408
1524	35.5327
1520	35.6467
1516	35.7198
1512	35.8862
1508	36.048
1504	36.0554
1500	36.0354
1496	36.0482
1492	35.9577
1488	35.7937
1484	35.6682
1480	35.5955
1476	35.5144
1472	35.4042
1468	35.3342
1464	35.3784
1460	35.5283
1456	35.611
1452	35.5779
1448	35.6083
1444	35.731
1440	35.87
1436	35.9233
1432	35.8624
1428	35.7281
1424	35.5304
1420	35.3974
1416	35.3361
1412	35.2174
1408	35.0406
1404	34.9687
1400	35.0916
1396	35.2308
1392	35.3228
1388	35.5
1384	35.7422
1380	35.9234
1376	35.966
1372	35.8549
1368	35.7094
1364	35.5905
1360	35.4379
1356	35.2478
1352	35.0925
1348	35.0074
1344	34.9737
1340	35.012
1336	35.0942
1332	35.226
1328	35.4253
1324	35.6076
1320	35.7177
1316	35.7436
1312	35.693
1308	35.5894
1304	35.4692
1300	35.2861
1296	35.0657
1292	34.9548
1288	34.9527
1284	34.9402
1280	34.8851
1276	34.9182
1272	35.0937
1268	35.2688
1264	35.3232
1260	35.3357
1256	35.4156
1252	35.4854
1248	35.4285
1244	35.2836
1240	35.0895
1236	34.8933
1232	34.7695
1228	34.7076
1224	34.7372
1220	34.8163
1216	34.8587
1212	34.9478
1208	35.1561
1204	35.3724
1200	35.5159
1196	35.6055
1192	35.6159
1188	35.4745
1184	35.1995
1180	34.9554
1176	34.7716
1172	34.5815
1168	34.4449
1164	34.4122
1160	34.4069
1156	34.4354
1152	34.6235
1148	34.894
1144	35.0529
1140	35.1157
1136	35.1413
1132	35.1
1128	35.0305
1124	34.8966
1120	34.6722
1116	34.4296
1112	34.2257
1108	34.1021
1104	34.0629
1100	34.0506
1096	34.0765
1092	34.2019
1088	34.3959
1084	34.5923
1080	34.7398
1076	34.8747
1072	34.9632
1068	34.9281
1064	34.8221
1060	34.6604
1056	34.3833
1052	34.0014
1048	33.6704
1044	33.5206
1040	33.541
1036	33.6108
1032	33.6449
1028	33.7194
1024	33.9803
1020	34.3025
1016	34.3992
1012	34.4175
1008	34.5396
1004	34.5631
1000	34.3644
996	 34.094
992	 33.8459
988	 33.6225
984	 33.4326
980	 33.2777
976	 33.3045
972	 33.5034
968	 33.6144
964	 33.6325
960	 33.6698
956	 33.7141
952	 33.8056
948	 33.9408
944	 33.9521
940	 33.805
936	 33.6407
932	 33.4638
928	 33.1971
924	 32.9044
920	 32.713
916	 32.6198
912	 32.7349
908	 33.0168
904	 33.2002
900	 33.3222
896	 33.4765
892	 33.613
888	 33.6397
884	 33.5636
880	 33.3784
876	 33.1723
872	 33.0493
868	 32.8398
864	 32.517
860	 32.2467
856	 32.1686
852	 32.2949
848	 32.4435
844	 32.4367
840	 32.4995
836	 32.7838
832	 33.0213
828	 33.1264
824	 33.0624
820	 32.7044
816	 32.2462
812	 31.9661
808	 31.7937
804	 31.5472
800	 31.3392
796	 31.2677
792	 31.1787
788	 31.1649
784	 31.2936
780	 31.4348
776	 31.8023
772	 32.2595
768	 32.4043
764	 32.4419
760	 32.5002
756	 32.2863
752	 31.8711
748	 31.4892
744	 30.9573
740	 30.3801
736	 30.189
732	 30.2357
728	 30.2556
724	 30.277
720	 30.3445
716	 30.562
712	 30.9296
708	 31.2079
704	 31.1595
700	 30.9933
696	 30.8627
692	 30.6069
688	 30.3802
684	 30.1976
680	 29.8703
676	 29.6363
672	 29.6873
668	 29.8291
664	 29.8855
660	 29.823
656	 29.6685
652	 29.5611
648	 29.6839
644	 30.028
640	 30.2386
636	 30.0981
632	 29.7255
628	 29.2753
624	 28.9434
620	 28.8031
616	 28.8352
612	 28.8994
608	 28.7866
604	 28.5292
600	 28.429
596	 28.6066
592	 28.7245
588	 28.604
584	 28.4676
580	 28.4776
576	 28.4708
572	 28.3104
568	 27.9705
564	 27.6412
560	 27.6649
556	 27.5738
552	 27.0046
548	 26.8182
544	 27.213
540	 27.4892
536	 27.5754
532	 27.7763
528	 28.1187
524	 28.384
520	 28.2507
516	 27.6955
512	 27.0373
508	 26.499
504	 26.3207
500	 26.448
496	 26.4778
492	 25.8365
488	 24.8271
484	 24.9911
480	 25.9082
476	 26.3387
472	 26.8486
468	 27.225
464	 26.7773
460	 26.4855
456	 26.678
452	 26.3606
448	 25.1209
444	 24.1777
440	 25.1647
436	 27.5868
432	 28.9755
428	 27.886
424	 25.5845
420	 23.6721
416	 23.9033
412	 25.3897
408	 25.0922
404	 21.7887
400	 14.5359
396	 6.708645
392	 9.719085
388	 24.5046
384	 28.6024
380	 31.6784
376	 51.1291
372	 88.4517
370	 81.1811