File: Bakgrunnsmateriale/MATLAB/FTIR/ftir_data/LPE454/Mapping_121/LPE454_t05.asc
PE IR       SPECTRUM    SPECTRUM    ASCII       PEDS        1.60
  -1
LPD398~1.ASC
17/05/19
14:47:47.00
17/05/19
14:48:13.00
tln
$LPE454_t0005$<tbV0>[2.6,-13.0,8.0,0.0,27,1,0]
27.028
64

2002,4.07
MIRTGS : RIGHTBACK : INTERNAL 2
MIR : ON : INTERNAL 2
OPTKBR

0.200000
8
8.000000
FILLER
RATIO
SPECTRUM
UNLOCKED 256

DOUBLE
64
COMBINED
1
0
0

0.002000
RATIO

1
0
TRUE
51149
0
LEFT NOT FITTED RIGHT NOT FITTED 0
NONE
NONE
15600
12
4.427000
51148
TRUE
1 0 8 72 0 0 0 0

15798

#HDR
-1
-1
#GR
µM
%T
2.38419e-05
0.0
2.000000
0.002000
12515
8
52.6527
-50.1082
#DATA
2.000000	 0.102663
2.018000	 0.591439
2.036000	 0.649968
2.054000	 -1.000041
2.072000	 1.300040
2.090000	 -0.768014
2.108000	 -0.088142
2.126000	 -0.312992
2.144000	 0.087742
2.162000	 0.116771
2.180000	 -0.207790
2.198000	 -0.012409
2.216000	 0.645396
2.234000	 -0.213327
2.252000	 0.287408
2.270000	 -0.306124
2.288000	 -0.393134
2.306000	 0.141281
2.324000	 -0.238753
2.342000	 0.026937
2.360000	 0.049070
2.378000	 0.025035
2.396000	 -0.366045
2.414000	 0.070832
2.432000	 -0.038793
2.450000	 0.146382
2.468000	 0.280040
2.486000	 -0.060618
2.504000	 0.043308
2.522000	 0.013710
2.540000	 0.113854
2.558000	 -0.087541
2.576000	 0.101812
2.594000	 0.049558
2.612000	 -0.086787
2.630000	 0.119759
2.648000	 0.041100
2.666000	 -0.134043
2.684000	 0.020346
2.702000	 0.072420
2.720000	 0.153861
2.738000	 0.040411
2.756000	 0.167580
2.774000	 -0.091533
2.792000	 0.071788
2.810000	 0.056351
2.828000	 0.027947
2.846000	 0.000611
2.864000	 0.049835
2.882000	 0.084886
2.900000	 0.042126
2.918000	 -0.033198
2.936000	 0.073010
2.954000	 -0.033932
2.972000	 0.062048
2.990000	 0.016778
3.008000	 0.034283
3.026000	 0.030429
3.044000	 0.046799
3.062000	 0.118909
3.080000	 -0.042314
3.098000	 0.160934
3.116000	 0.110279
3.134000	 -0.049039
3.152000	 0.145035
3.170000	 -0.086390
3.188000	 -0.041503
3.206000	 -0.048903
3.224000	 -0.055715
3.242000	 0.006007
3.260000	 -0.026548
3.278000	 0.044223
3.296000	 -0.097583
3.314000	 0.006574
3.332000	 0.138237
3.350000	 0.114039
3.368000	 -0.054487
3.386000	 -0.014979
3.404000	 0.063590
3.422000	 -0.055458
3.440000	 -0.011222
3.458000	 0.038024
3.476000	 -0.035926
3.494000	 0.187293
3.512000	 0.102989
3.530000	 -0.095528
3.548000	 0.067262
3.566000	 -0.014255
3.584000	 -0.014763
3.602000	 0.050729
3.620000	 0.002497
3.638000	 0.037459
3.656000	 0.179171
3.674000	 0.026029
3.692000	 -0.015596
3.710000	 -0.045349
3.728000	 0.092267
3.746000	 0.037273
3.764000	 -0.003244
3.782000	 0.033858
3.800000	 0.073090
3.818000	 0.073129
3.836000	 -0.034778
3.854000	 0.008992
3.872000	 -0.087000
3.890000	 0.069025
3.908000	 -0.058533
3.926000	 -0.083076
3.944000	 0.019872
3.962000	 -0.192500
3.980000	 0.060766
3.998000	 0.111493
4.016000	 0.109366
4.034000	 -0.053412
4.052000	 -0.001326
4.070000	 -0.018810
4.088000	 0.054879
4.106000	 0.162838
4.124000	 0.124002
4.141999	 0.141823
4.160000	 0.240260
4.178000	 0.134196
4.196000	 0.021635
4.214000	 0.052084
4.232000	 0.118931
4.250000	 0.166800
4.268000	 0.146429
4.286000	 0.266337
4.304000	 0.314695
4.322000	 0.412052
4.340000	 0.598994
4.358000	 0.817515
4.375999	 0.886559
4.394000	 1.018791
4.412000	 1.451334
4.430000	 1.772136
4.448000	 2.043209
4.466000	 2.593893
4.484000	 3.115852
4.502000	 3.496246
4.520000	 4.216254
4.538000	 4.837114
4.556000	 5.590778
4.574000	 6.325970
4.592000	 7.263049
4.609999	 8.191966
4.628000	 8.951831
4.646000	 9.950558
4.664000	 10.8971
4.682000	 11.8016
4.700000	 12.9122
4.718000	 13.9571
4.736000	 14.8688
4.754000	 15.9172
4.772000	 16.9331
4.790000	 17.7326
4.808000	 18.7022
4.826000	 19.876
4.843999	 20.6414
4.862000	 20.9895
4.880000	 22.1972
4.898000	 22.911
4.916000	 23.5943
4.934000	 24.3076
4.952000	 24.9505
4.970000	 25.5517
4.988000	 26.1034
5.006000	 26.6692
5.024000	 27.1751
5.042000	 27.6418
5.060000	 28.0637
5.077999	 28.5347
5.096000	 28.854
5.114000	 29.1634
5.132000	 29.5417
5.150000	 29.9646
5.168000	 30.2021
5.186000	 30.4589
5.204000	 30.7024
5.222000	 30.9154
5.240000	 31.1621
5.258000	 31.4131
5.276000	 31.5847
5.294000	 31.8192
5.312000	 31.9546
5.330000	 32.0529
5.348000	 32.1785
5.366000	 32.3291
5.384000	 32.4823
5.402000	 32.5677
5.420000	 32.7577
5.438000	 32.8535
5.456000	 32.8571
5.474000	 32.9328
5.492000	 33.0695
5.510000	 33.2223
5.528000	 33.3203
5.546000	 33.3289
5.564000	 33.4383
5.582000	 33.5772
5.600000	 33.6611
5.618000	 33.698
5.636000	 33.7721
5.654000	 33.8515
5.672000	 33.7068
5.690000	 33.6485
5.708000	 33.7269
5.726000	 33.8906
5.744000	 33.9772
5.762000	 34.0574
5.780000	 33.956
5.798000	 33.7497
5.816000	 33.9618
5.834000	 34.0315
5.852000	 33.8642
5.870000	 34.0079
5.888000	 34.1483
5.906000	 34.125
5.923999	 34.1464
5.942000	 34.1402
5.960000	 34.1031
5.978000	 34.201
5.996000	 34.1517
6.014000	 34.0611
6.032000	 34.1337
6.050000	 34.2229
6.068000	 34.109
6.086000	 34.0604
6.104000	 34.1457
6.122000	 34.1721
6.140000	 34.1804
6.158000	 34.2046
6.176000	 34.172
6.194000	 34.1225
6.212000	 34.1056
6.230000	 34.1564
6.248000	 34.1492
6.266000	 34.0972
6.284000	 34.0284
6.302000	 33.9757
6.320000	 34.0148
6.338000	 34.0683
6.356000	 34.1149
6.374000	 34.1413
6.392000	 34.1624
6.410000	 34.2462
6.428000	 34.2236
6.446000	 34.1814
6.464000	 34.2623
6.482000	 34.3085
6.500000	 34.2331
6.518000	 34.0899
6.536000	 34.0263
6.554000	 34.0737
6.572000	 34.1195
6.590000	 34.127
6.608000	 34.1526
6.626000	 34.2178
6.644000	 34.2534
6.662000	 34.2706
6.680000	 34.2218
6.698000	 34.0336
6.716000	 33.9353
6.734000	 33.9888
6.752000	 34.0356
6.770000	 34.0458
6.788000	 34.0607
6.806000	 34.0784
6.824000	 34.0825
6.842000	 34.0862
6.860000	 34.0926
6.878000	 34.0376
6.896000	 33.9545
6.914000	 33.9205
6.932000	 33.9267
6.950000	 33.9545
6.968000	 33.9496
6.986000	 33.9325
7.004000	 33.9298
7.022000	 33.8813
7.040000	 33.816
7.058000	 33.818
7.076000	 33.879
7.094000	 33.9158
7.112000	 33.8563
7.130000	 33.7355
7.148000	 33.6782
7.166000	 33.7347
7.184000	 33.8245
7.202000	 33.8613
7.220000	 33.8388
7.238000	 33.8028
7.256000	 33.7764
7.274000	 33.7305
7.292000	 33.6446
7.310000	 33.5689
7.328000	 33.5944
7.346000	 33.6986
7.364000	 33.741
7.382000	 33.6866
7.400000	 33.6218
7.418000	 33.5931
7.436000	 33.6069
7.454000	 33.654
7.472000	 33.6859
7.490000	 33.6712
7.508000	 33.6376
7.526000	 33.6221
7.544000	 33.6144
7.562000	 33.588
7.580000	 33.5595
7.598000	 33.5551
7.616000	 33.5642
7.634000	 33.5843
7.652000	 33.621
7.670000	 33.6323
7.688000	 33.5772
7.706000	 33.5029
7.724000	 33.4962
7.742000	 33.5663
7.760000	 33.6387
7.778000	 33.6511
7.796000	 33.6081
7.814000	 33.5376
7.832000	 33.4532
7.850000	 33.3737
7.868000	 33.3254
7.886000	 33.3131
7.904000	 33.3252
7.922000	 33.3589
7.940000	 33.4116
7.958000	 33.4688
7.976000	 33.5151
7.994000	 33.5403
8.012000	 33.5322
8.030000	 33.4826
8.048000	 33.4095
8.065999	 33.3537
8.084000	 33.342
8.102000	 33.362
8.120000	 33.3875
8.138000	 33.4064
8.155999	 33.4119
8.173999	 33.4011
8.192000	 33.3873
8.210000	 33.3853
8.228000	 33.3875
8.246000	 33.3774
8.263999	 33.355
8.282000	 33.328
8.300000	 33.2955
8.318000	 33.2577
8.336000	 33.2265
8.353999	 33.2094
8.372000	 33.1994
8.390000	 33.1902
8.408000	 33.1814
8.426000	 33.1714
8.443999	 33.1586
8.462000	 33.1477
8.480000	 33.1428
8.498000	 33.1396
8.516000	 33.1351
8.533999	 33.1318
8.552000	 33.1245
8.570000	 33.1006
8.588000	 33.0641
8.606000	 33.0416
8.624000	 33.0524
8.641999	 33.0823
8.660000	 33.0962
8.678000	 33.0774
8.696000	 33.0447
8.714000	 33.0262
8.731999	 33.0231
8.750000	 33.0099
8.768000	 32.9678
8.786000	 32.9094
8.804000	 32.8697
8.821999	 32.8727
8.840000	 32.9055
8.858000	 32.9308
8.876000	 32.9243
8.894000	 32.8959
8.911999	 32.8711
8.930000	 32.856
8.948000	 32.8309
8.966000	 32.778
8.984000	 32.709
9.001999	 32.6601
9.020000	 32.6602
9.038000	 32.7116
9.056000	 32.7964
9.074000	 32.8927
9.092000	 32.9811
9.109999	 33.0425
9.128000	 33.0581
9.146000	 33.0108
9.164000	 32.898
9.182000	 32.7464
9.199999	 32.6116
9.218000	 32.5472
9.236000	 32.5682
9.254000	 32.6409
9.272000	 32.7114
9.289999	 32.7428
9.308000	 32.7278
9.326000	 32.6768
9.344000	 32.6076
9.362000	 32.5418
9.379999	 32.4985
9.398000	 32.4813
9.416000	 32.4749
9.434000	 32.4594
9.452000	 32.4322
9.469999	 32.414
9.488000	 32.4284
9.506000	 32.472
9.524000	 32.5084
9.542000	 32.5003
9.560000	 32.4466
9.577999	 32.3853
9.596000	 32.3586
9.614000	 32.3778
9.632000	 32.4195
9.650000	 32.4492
9.667999	 32.4483
9.686000	 32.4246
9.704000	 32.3998
9.722000	 32.3911
9.740000	 32.401
9.757999	 32.4214
9.776000	 32.4435
9.794000	 32.4642
9.812000	 32.4828
9.830000	 32.4946
9.847999	 32.4889
9.866000	 32.4556
9.884000	 32.3942
9.902000	 32.3165
9.920000	 32.2395
9.937999	 32.1767
9.956000	 32.1323
9.974000	 32.104
9.992000	 32.0883
10.01	32.0832
10.028	32.087
10.046	32.0953
10.064	32.1033
10.082	32.1089
10.1	32.1155
10.118	32.13
10.136	32.158
10.154	32.1986
10.172	32.2414
10.19	32.2688
10.208	32.2662
10.226	32.2308
10.244	32.1747
10.262	32.1184
10.28	32.0782
10.298	32.0575
10.316	32.047
10.334	32.0331
10.352	32.0073
10.37	31.9699
10.388	31.9268
10.406	31.883
10.424	31.8399
10.442	31.7956
10.46	31.7475
10.478	31.6937
10.496	31.6358
10.514	31.5803
10.532	31.5375
10.55	31.5166
10.568	31.5221
10.586	31.5498
10.604	31.589
10.622	31.6264
10.64	31.6509
10.658	31.6578
10.676	31.6496
10.694	31.6331
10.712	31.6179
10.73	31.6119
10.748	31.6194
10.766	31.638
10.784	31.6597
10.802	31.6749
10.82	31.6776
10.838	31.6693
10.856	31.6558
10.874	31.644
10.892	31.637
10.91	31.6335
10.928	31.6293
10.946	31.6213
10.964	31.6079
10.982	31.5881
11	31.5607
11.018	31.5225
11.036	31.4723
11.054	31.4138
11.072	31.357
11.09	31.3158
11.108	31.3019
11.126	31.3208
11.144	31.3687
11.162	31.433
11.18	31.4965
11.198	31.5408
11.216	31.5513
11.234	31.5213
11.252	31.4523
11.27	31.3528
11.288	31.236
11.306	31.1149
11.324	31.001
11.342	30.9031
11.36	30.8274
11.378	30.78
11.396	30.7658
11.414	30.7876
11.432	30.8437
11.45	30.9264
11.468	31.0221
11.486	31.1147
11.504	31.1897
11.522	31.2364
11.54	31.2501
11.558	31.2318
11.576	31.1876
11.594	31.1269
11.612	31.0613
11.63	31.0014
11.648	30.9546
11.666	30.924
11.684	30.9074
11.702	30.8987
11.72	30.8898
11.738	30.8734
11.756	30.8456
11.774	30.8072
11.792	30.7635
11.81	30.722
11.828	30.6908
11.846	30.6767
11.864	30.6821
11.882	30.7053
11.9	30.7404
11.918	30.7785
11.936	30.8096
11.954	30.8267
11.972	30.826
11.99	30.8083
12.008	30.7781
12.026	30.7413
12.044	30.704
12.062	30.6692
12.08	30.6373
12.098	30.6069
12.116	30.5769
12.134	30.5477
12.152	30.522
12.17	30.5036
12.188	30.496
12.206	30.5001
12.224	30.513
12.242	30.5285
12.26	30.5391
12.278	30.5375
12.296	30.5183
12.314	30.4794
12.332	30.4233
12.35	30.356
12.368	30.2862
12.386	30.2232
12.404	30.1746
12.422	30.1455
12.44	30.1366
12.458	30.1454
12.476	30.1669
12.494	30.1949
12.512	30.2234
12.53	30.2471
12.548	30.2615
12.566	30.2638
12.584	30.2522
12.602	30.2262
12.62	30.1874
12.638	30.1398
12.656	30.0893
12.674	30.0427
12.692	30.006
12.71	29.9835
12.728	29.9762
12.746	29.9807
12.764	29.9913
12.782	30.0012
12.8	30.0047
12.818	29.9988
12.836	29.9837
12.854	29.9625
12.872	29.9399
12.89	29.9205
12.908	29.9071
12.926	29.9008
12.944	29.9011
12.962	29.9065
12.98	29.9154
12.998	29.9276
13.016	29.9436
13.034	29.9638
13.052	29.9878
13.07	30.0128
13.088	30.0333
13.106	30.041
13.124	30.0273
13.142	29.9851
13.16	29.911
13.178	29.8068
13.196	29.6802
13.214	29.5435
13.232	29.4118
13.25	29.2995
13.268	29.2176
13.286	29.1718
13.304	29.1622
13.322	29.1832
13.34	29.2256
13.358	29.2791
13.376	29.3348
13.394	29.3862
13.412	29.4303
13.43	29.4671
13.448	29.4985
13.466	29.5275
13.484	29.5561
13.502	29.5864
13.52	29.6191
13.538	29.6541
13.556	29.6905
13.574	29.7273
13.592	29.7626
13.61	29.7942
13.628	29.8193
13.646	29.8346
13.664	29.8363
13.682	29.8212
13.7	29.7865
13.718	29.7308
13.736	29.6544
13.754	29.5603
13.772	29.4537
13.79	29.3415
13.808	29.2316
13.826	29.1322
13.844	29.0502
13.862	28.9903
13.88	28.9539
13.898	28.9396
13.916	28.9429
13.934	28.9576
13.952	28.9763
13.97	28.9917
13.988	28.9979
14.006	28.991
14.024	28.9699
14.042	28.9357
14.06	28.8913
14.078	28.8404
14.096	28.7868
14.114	28.7336
14.132	28.6829
14.15	28.6362
14.168	28.594
14.186	28.5567
14.204	28.5247
14.222	28.4989
14.24	28.4805
14.258	28.4706
14.276	28.4703
14.294	28.4802
14.312	28.4998
14.33	28.5277
14.348	28.5615
14.366	28.5981
14.384	28.634
14.402	28.6654
14.42	28.6897
14.438	28.7048
14.456	28.71
14.474	28.7054
14.492	28.6922
14.51	28.6724
14.528	28.6482
14.546	28.6222
14.564	28.5966
14.582	28.5733
14.6	28.5535
14.618	28.5378
14.636	28.5265
14.654	28.5192
14.672	28.5149
14.69	28.5127
14.708	28.5117
14.726	28.511
14.744	28.5104
14.762	28.5099
14.78	28.5099
14.798	28.5109
14.816	28.5133
14.834	28.5177
14.852	28.524
14.87	28.5319
14.888	28.5412
14.906	28.5512
14.924	28.5611
14.942	28.5699
14.96	28.577
14.978	28.5818
14.996	28.5842
15.014	28.5839
15.032	28.5809
15.05	28.5749
15.068	28.5657
15.086	28.553
15.104	28.5365
15.122	28.5157
15.14	28.4901
15.158	28.4593
15.176	28.4231
15.194	28.3815
15.212	28.3347
15.23	28.2834
15.248	28.2281
15.266	28.1697
15.284	28.1091
15.302	28.0476
15.32	27.9864
15.338	27.9265
15.356	27.8695
15.374	27.817
15.392	27.7701
15.41	27.7297
15.428	27.6965
15.446	27.6704
15.464	27.6505
15.482	27.6355
15.5	27.6233
15.518	27.6105
15.536	27.594
15.554	27.5711
15.572	27.5387
15.59	27.4948
15.608	27.4392
15.626	27.3723
15.644	27.2964
15.662	27.2155
15.68	27.1339
15.698	27.0559
15.716	26.9876
15.734	26.9335
15.752	26.8964
15.77	26.8783
15.788	26.8798
15.806	26.8986
15.824	26.9323
15.842	26.9766
15.86	27.0257
15.878	27.0753
15.896	27.1211
15.914	27.1588
15.932	27.1864
15.95	27.203
15.968	27.2086
15.986	27.2051
16.004	27.1947
16.022	27.1802
16.04	27.1651
16.058	27.1524
16.076	27.1441
16.094	27.1427
16.112	27.1491
16.13	27.1635
16.148	27.1862
16.166	27.2158
16.184	27.251
16.202	27.2902
16.22	27.3305
16.238	27.3697
16.256	27.4061
16.274	27.4364
16.292	27.459
16.31	27.4722
16.328	27.4743
16.346	27.4648
16.364	27.4433
16.382	27.4103
16.4	27.367
16.418	27.3147
16.436	27.2558
16.454	27.1928
16.472	27.1276
16.49	27.0632
16.508	27.0015
16.526	26.9437
16.544	26.8916
16.562	26.8454
16.58	26.8054
16.598	26.771
16.616	26.7414
16.634	26.716
16.652	26.6933
16.67	26.6727
16.688	26.6536
16.706	26.6353
16.724	26.6178
16.742	26.6013
16.76	26.5859
16.778	26.572
16.796	26.5599
16.814	26.55
16.832	26.5423
16.85	26.5369
16.868	26.5334
16.886	26.5314
16.904	26.5302
16.922	26.5293
16.94	26.528
16.958	26.5255
16.976	26.5217
16.994	26.5161
17.012	26.5086
17.03	26.4991
17.048	26.488
17.066	26.4752
17.084	26.4611
17.102	26.4457
17.12	26.429
17.138	26.411
17.156	26.3919
17.174	26.3717
17.192	26.3504
17.21	26.3282
17.228	26.3051
17.246	26.2813
17.264	26.2571
17.282	26.2333
17.3	26.21
17.318	26.1883
17.336	26.1688
17.354	26.152
17.372	26.139
17.39	26.1301
17.408	26.1259
17.426	26.1268
17.444	26.1331
17.462	26.145
17.48	26.1622
17.498	26.1843
17.516	26.2105
17.534	26.2399
17.552	26.2712
17.57	26.3038
17.588	26.3358
17.606	26.3664
17.624	26.3942
17.642	26.4181
17.66	26.4373
17.678	26.4509
17.696	26.4587
17.714	26.4601
17.732	26.4557
17.75	26.4454
17.768	26.4301
17.786	26.41
17.804	26.3865
17.822	26.36
17.84	26.3315
17.858	26.3013
17.876	26.2701
17.894	26.2379
17.912	26.2048
17.93	26.1702
17.948	26.1341
17.966	26.0954
17.984	26.0539
18.002	26.0086
18.02	25.9593
18.038	25.9054
18.056	25.847
18.074	25.784
18.092	25.7172
18.11	25.647
18.128	25.5755
18.146	25.5033
18.164	25.433
18.182	25.366
18.2	25.3044
18.218	25.2509
18.236	25.2068
18.254	25.1749
18.272	25.1561
18.29	25.1525
18.308	25.1642
18.326	25.1917
18.344	25.2348
18.362	25.2921
18.38	25.3625
18.398	25.4433
18.416	25.532
18.434	25.6256
18.452	25.7203
18.47	25.8135
18.488	25.9008
18.506	25.9803
18.524	26.0482
18.542	26.1035
18.56	26.1437
18.578	26.1685
18.596	26.1776
18.614	26.1713
18.632	26.1514
18.65	26.1186
18.668	26.0762
18.686	26.0248
18.704	25.969
18.722	25.9092
18.74	25.8494
18.758	25.7899
18.776	25.7337
18.794	25.6807
18.812	25.6322
18.83	25.588
18.848	25.5485
18.866	25.5129
18.884	25.4801
18.902	25.4493
18.92	25.419
18.938	25.3882
18.956	25.3553
18.974	25.3201
18.992	25.2815
19.01	25.2395
19.028	25.1935
19.046	25.1442
19.064	25.0915
19.082	25.0364
19.1	24.9795
19.118	24.9218
19.136	24.8648
19.154	24.809
19.172	24.7558
19.19	24.7056
19.208	24.6595
19.226	24.6174
19.244	24.5803
19.262	24.5478
19.28	24.52
19.298	24.4968
19.316	24.4775
19.334	24.4621
19.352	24.4495
19.37	24.4396
19.388	24.4311
19.406	24.424
19.424	24.4172
19.442	24.4106
19.46	24.4034
19.478	24.3953
19.496	24.3864
19.514	24.3766
19.532	24.3656
19.55	24.353
19.568	24.3393
19.586	24.3246
19.604	24.3092
19.622	24.2938
19.64	24.2786
19.658	24.265
19.676	24.2531
19.694	24.244
19.712	24.2378
19.73	24.2361
19.748	24.2388
19.766	24.2472
19.784	24.2613
19.802	24.282
19.82	24.3096
19.838	24.3441
19.856	24.3858
19.874	24.4343
19.892	24.4896
19.91	24.5516
19.928	24.6194
19.946	24.6929
19.964	24.7711
19.982	24.854
20	24.9403
20.018	25.0295
20.036	25.1211
20.054	25.2138
20.072	25.3075
20.09	25.4004
20.108	25.4927
20.126	25.5827
20.144	25.6705
20.162	25.7547
20.18	25.8348
20.198	25.9103
20.216	25.9801
20.234	26.0442
20.252	26.1011
20.27	26.1511
20.288	26.1933
20.306	26.2279
20.324	26.2544
20.342	26.2723
20.36	26.282
20.378	26.2831
20.396	26.276
20.414	26.2602
20.432	26.2357
20.45	26.2029
20.468	26.1619
20.486	26.1128
20.504	26.0557
20.522	25.9906
20.54	25.9185
20.558	25.8393
20.576	25.7539
20.594	25.6623
20.612	25.5653
20.63	25.4639
20.648	25.358
20.666	25.2495
20.684	25.138
20.702	25.0253
20.72	24.9125
20.738	24.7999
20.756	24.6899
20.774	24.582
20.792	24.4788
20.81	24.3805
20.828	24.2879
20.846	24.2029
20.864	24.1249
20.882	24.0556
20.9	23.9948
20.918	23.9427
20.936	23.8997
20.954	23.8654
20.972	23.839
20.99	23.8209
21.008	23.8093
21.026	23.8041
21.044	23.8046
21.062	23.8088
21.08	23.8174
21.098	23.828
21.116	23.8403
21.134	23.8538
21.152	23.8664
21.17	23.8787
21.188	23.8897
21.206	23.8989
21.224	23.9067
21.242	23.913
21.26	23.9178
21.278	23.9221
21.296	23.9258
21.314	23.9295
21.332	23.9347
21.35	23.9407
21.368	23.9493
21.386	23.961
21.404	23.9758
21.422	23.9947
21.44	24.0177
21.458	24.0445
21.476	24.0758
21.494	24.1109
21.512	24.1481
21.53	24.1882
21.548	24.2288
21.566	24.2685
21.584	24.3077
21.602	24.3418
21.62	24.3717
21.638	24.395
21.656	24.408
21.674	24.4121
21.692	24.4038
21.71	24.3819
21.728	24.3468
21.746	24.2962
21.764	24.2301
21.782	24.1495
21.8	24.0541
21.818	23.9442
21.836	23.8232
21.854	23.69
21.872	23.5472
21.89	23.4001
21.908	23.2462
21.926	23.0916
21.944	22.9402
21.962	22.7902
21.98	22.6495
21.998	22.5178
22.016	22.3969
22.034	22.2927
22.052	22.2035
22.07	22.1313
22.088	22.0786
22.106	22.0441
22.124	22.0273
22.142	22.0292
22.16	22.0481
22.178	22.0796
22.196	22.1259
22.214	22.1823
22.232	22.2437
22.25	22.3127
22.268	22.3823
22.286	22.4484
22.304	22.5132
22.322	22.5688
22.34	22.6142
22.358	22.6496
22.376	22.67
22.394	22.6757
22.412	22.6669
22.43	22.6425
22.448	22.6022
22.466	22.5483
22.484	22.482
22.502	22.4023
22.52	22.3142
22.538	22.2191
22.556	22.1163
22.574	22.0132
22.592	21.9096
22.61	21.8065
22.628	21.7109
22.646	21.6216
22.664	21.5402
22.682	21.4713
22.7	21.414
22.718	21.3687
22.736	21.3371
22.754	21.3187
22.772	21.313
22.79	21.3197
22.808	21.3396
22.826	21.3694
22.844	21.4079
22.862	21.4562
22.88	21.509
22.898	21.5642
22.916	21.6233
22.934	21.68
22.952	21.7325
22.97	21.7821
22.988	21.8239
23.006	21.8569
23.024	21.8821
23.042	21.8965
23.06	21.8996
23.078	21.8921
23.096	21.8734
23.114	21.8425
23.132	21.8007
23.15	21.7496
23.168	21.6884
23.186	21.6182
23.204	21.5421
23.222	21.4593
23.24	21.3708
23.258	21.2805
23.276	21.1875
23.294	21.0928
23.312	21.0005
23.33	20.9102
23.348	20.8221
23.366	20.7389
23.384	20.6612
23.402	20.588
23.42	20.5196
23.438	20.4561
23.456	20.3972
23.474	20.3421
23.492	20.2907
23.51	20.2431
23.528	20.1986
23.546	20.1569
23.564	20.1184
23.582	20.0825
23.6	20.0491
23.618	20.0183
23.636	19.99
23.654	19.964
23.672	19.9402
23.69	19.9201
23.708	19.9047
23.726	19.8927
23.744	19.8867
23.762	19.8887
23.78	19.8966
23.798	19.9136
23.816	19.9432
23.834	19.9829
23.852	20.0352
23.87	20.1044
23.888	20.1896
23.906	20.2908
23.924	20.4102
23.942	20.5484
23.96	20.7046
23.978	20.8782
23.996	21.0695
24.014	21.2783
24.032	21.5035
24.05	21.7444
24.068	22.0016
24.086	22.2737
24.104	22.5596
24.122	22.8605
24.14	23.1743
24.158	23.498
24.176	23.8327
24.194	24.1776
24.212	24.5302
24.23	24.8902
24.248	25.2581
24.266	25.6316
24.284	26.0091
24.302	26.3917
24.32	26.7784
24.338	27.1681
24.356	27.56
24.374	27.9561
24.392	28.3583
24.41	28.7661
24.428	29.1796
24.446	29.6006
24.464	30.0301
24.482	30.4671
24.5	30.9124
24.518	31.3674
24.536	31.8333
24.554	32.3064
24.572	32.7827
24.59	33.2644
24.608	33.7501
24.626	34.2336
24.644	34.7143
24.662	35.1962
24.68	35.6669
24.698	36.1159
24.716	36.5538
24.734	36.97
24.752	37.3467
24.77	37.6864
24.788	37.992
24.806	38.2443
24.824	38.4298
24.842	38.5602
24.86	38.6273
24.878	38.6198
24.896	38.5406
24.914	38.3906
24.932	38.1634
24.95	37.8543
24.968	37.4668
24.986	37.0025
25.004	36.463
25.022	35.844
25.04	35.1507
25.058	34.3922
25.076	33.5701
25.094	32.6784
25.112	31.7325
25.13	30.7475
25.148	29.7117
25.166	28.6333
25.184	27.5333
25.202	26.4196
25.22	25.2793
25.238	24.1306
25.256	22.9925
25.274	21.8507
25.292	20.7132
25.31	19.6065
25.328	18.543
25.346	17.5023
25.364	16.5101
25.382	15.5964
25.4	14.7505
25.418	13.9711
25.436	13.2871
25.454	12.72
25.472	12.2485
25.49	11.8869
25.508	11.6576
25.526	11.5647
25.544	11.5967
25.562	11.7669
25.58	12.0885
25.598	12.5589
25.616	13.1733
25.634	13.9304
25.652	14.8316
25.67	15.8812
25.688	17.066
25.706	18.3716
25.724	19.8048
25.742	21.368
25.76	23.0321
25.778	24.7719
25.796	26.6211
25.814	28.5538
25.832	30.5152
25.85	32.4747
25.868	34.483
25.886	36.4867
25.904	38.4189
25.922	40.2664
25.94	42.0666
25.958	43.7727
25.976	45.3378
25.994	46.7785
26.012	48.1004
26.03	49.2705
26.048	50.2598
26.066	51.0862
26.084	51.7483
26.102	52.2334
26.12	52.5318
26.138	52.6504
26.156	52.5922
26.174	52.3591
26.192	51.9522
26.21	51.3714
26.228	50.618
26.246	49.6935
26.264	48.5941
26.282	47.3215
26.3	45.8865
26.318	44.2994
26.336	42.5476
26.354	40.6375
26.372	38.5934
26.39	36.4374
26.408	34.1475
26.426	31.7352
26.444	29.2308
26.462	26.6554
26.48	23.9617
26.498	21.1927
26.516	18.4157
26.534	15.6795
26.552	12.9302
26.57	10.1955
26.588	7.521878
26.606	4.941480
26.624	2.423657
26.642	-0.024650
26.66	-2.389725
26.678	-4.657700
26.696	-6.829241
26.714	-8.924103
26.732	-10.9628
26.75	-12.9376
26.768	-14.8091
26.786	-16.6543
26.804	-18.5578
26.822	-20.5596
26.84	-22.5944
26.858	-24.7029
26.876	-26.9338
26.894	-29.3245
26.912	-31.8538
26.93	-34.4943
26.948	-37.2201
26.966	-40.1623
26.984	-43.5544
27.002	-46.8423
27.02	-49.4226
27.028	-50.1082