File: Bakgrunnsmateriale/MATLAB/FTIR/ftir_data/LPE454/Mapping_121/LPE454_t10.asc
PE IR       SPECTRUM    SPECTRUM    ASCII       PEDS        1.60
  -1
LPC79C~1.ASC
17/05/19
15:10:51.00
17/05/19
15:11:17.00
tln
$LPE454_t0010$<tbV0>[-10.4,-13.0,8.0,0.0,27,1,0]
27.028
64

2002,4.07
MIRTGS : RIGHTBACK : INTERNAL 2
MIR : ON : INTERNAL 2
OPTKBR

0.200000
8
8.000000
FILLER
RATIO
SPECTRUM
UNLOCKED 256

DOUBLE
64
COMBINED
1
0
0

0.002000
RATIO

1
0
TRUE
51149
0
LEFT NOT FITTED RIGHT NOT FITTED 0
NONE
NONE
15600
12
4.427000
51148
TRUE
1 0 8 72 0 0 0 0

15798

#HDR
-1
-1
#GR
µM
%T
2.38419e-05
0.0
2.000000
0.002000
12515
8
127.458
-1.590556
#DATA
2.000000	 0.695610
2.018000	 0.455369
2.036000	 0.210853
2.054000	 -0.790471
2.072000	 0.263838
2.090000	 1.474824
2.108000	 -0.769812
2.126000	 -0.011716
2.144000	 0.834232
2.162000	 0.254250
2.180000	 0.494791
2.198000	 -0.550049
2.216000	 -0.333982
2.234000	 7.480296
2.252000	 -0.401622
2.270000	 -1.122193
2.288000	 -0.271764
2.306000	 0.890092
2.324000	 0.066282
2.342000	 0.061178
2.360000	 0.050188
2.378000	 0.019038
2.396000	 0.405988
2.414000	 0.278989
2.432000	 0.388502
2.450000	 0.164503
2.468000	 0.260123
2.486000	 0.107569
2.504000	 0.075119
2.522000	 0.141914
2.540000	 0.082644
2.558000	 0.045473
2.576000	 0.146145
2.594000	 0.003265
2.612000	 0.339831
2.630000	 -0.004160
2.648000	 0.158227
2.666000	 0.185065
2.684000	 -0.026771
2.702000	 0.134762
2.720000	 -0.007398
2.738000	 0.094745
2.756000	 -0.079482
2.774000	 -0.004489
2.792000	 0.015267
2.810000	 0.185547
2.828000	 0.073233
2.846000	 0.086889
2.864000	 -0.031790
2.882000	 0.165024
2.900000	 0.088608
2.918000	 0.044599
2.936000	 0.042259
2.954000	 0.173078
2.972000	 -0.126593
2.990000	 0.111098
3.008000	 0.067038
3.026000	 -0.022410
3.044000	 0.025906
3.062000	 -0.191604
3.080000	 0.177731
3.098000	 0.013499
3.116000	 0.277225
3.134000	 -0.045206
3.152000	 0.063173
3.170000	 -0.020357
3.188000	 0.065447
3.206000	 0.163539
3.224000	 -0.014370
3.242000	 0.150427
3.260000	 -0.018523
3.278000	 0.180528
3.296000	 0.126603
3.314000	 0.061219
3.332000	 -0.017007
3.350000	 0.007247
3.368000	 0.087400
3.386000	 -0.057556
3.404000	 0.028302
3.422000	 -0.019656
3.440000	 0.139666
3.458000	 -0.048789
3.476000	 0.066833
3.494000	 0.045123
3.512000	 0.197045
3.530000	 -0.031354
3.548000	 0.121068
3.566000	 -0.081431
3.584000	 0.014634
3.602000	 0.124441
3.620000	 0.068419
3.638000	 0.001962
3.656000	 0.002599
3.674000	 -0.102927
3.692000	 -0.083898
3.710000	 0.073810
3.728000	 0.139979
3.746000	 0.008756
3.764000	 0.108018
3.782000	 0.011876
3.800000	 -0.002954
3.818000	 -0.050097
3.836000	 0.096160
3.854000	 -0.038523
3.872000	 -0.029280
3.890000	 0.070868
3.908000	 0.154537
3.926000	 0.044068
3.944000	 -0.010533
3.962000	 0.162684
3.980000	 0.090659
3.998000	 0.142124
4.016000	 0.012964
4.034000	 -0.034534
4.052000	 0.005413
4.070000	 0.037423
4.088000	 -0.102801
4.106000	 0.036798
4.124000	 0.082215
4.141999	 0.378435
4.160000	 0.090506
4.178000	 0.144367
4.196000	 -0.052172
4.214000	 0.004427
4.232000	 0.135956
4.250000	 0.148229
4.268000	 0.154077
4.286000	 0.165189
4.304000	 0.195806
4.322000	 0.202990
4.340000	 0.294597
4.358000	 0.305042
4.375999	 0.366975
4.394000	 0.453207
4.412000	 0.667079
4.430000	 0.745815
4.448000	 0.902574
4.466000	 0.994441
4.484000	 1.219893
4.502000	 1.581699
4.520000	 1.803405
4.538000	 2.106983
4.556000	 2.567834
4.574000	 2.981470
4.592000	 3.422436
4.609999	 3.837681
4.628000	 4.302258
4.646000	 4.766454
4.664000	 5.279533
4.682000	 5.800382
4.700000	 6.264723
4.718000	 6.746413
4.736000	 7.142412
4.754000	 7.711315
4.772000	 8.125282
4.790000	 8.752037
4.808000	 9.138960
4.826000	 9.768564
4.843999	 10.1501
4.862000	 10.7221
4.880000	 11.054
4.898000	 11.3975
4.916000	 11.7227
4.934000	 11.9248
4.952000	 12.3737
4.970000	 12.6878
4.988000	 13.0616
5.006000	 13.3928
5.024000	 13.7187
5.042000	 13.8871
5.060000	 14.1297
5.077999	 14.3805
5.096000	 14.6139
5.114000	 14.7978
5.132000	 14.9805
5.150000	 15.1325
5.168000	 15.311
5.186000	 15.6017
5.204000	 15.7019
5.222000	 15.7782
5.240000	 15.9604
5.258000	 16.0651
5.276000	 16.2783
5.294000	 16.3914
5.312000	 16.5067
5.330000	 16.5216
5.348000	 16.596
5.366000	 16.8089
5.384000	 16.8464
5.402000	 16.8313
5.420000	 16.9626
5.438000	 17.077
5.456000	 17.101
5.474000	 17.1612
5.492000	 17.2372
5.510000	 17.3956
5.528000	 17.5111
5.546000	 17.5606
5.564000	 17.5644
5.582000	 17.661
5.600000	 17.7028
5.618000	 17.7115
5.636000	 17.7639
5.654000	 17.912
5.672000	 17.9034
5.690000	 17.8394
5.708000	 17.9261
5.726000	 17.9629
5.744000	 18.021
5.762000	 18.1342
5.780000	 18.0194
5.798000	 17.9068
5.816000	 18.1052
5.834000	 18.141
5.852000	 18.1051
5.870000	 18.2942
5.888000	 18.4048
5.906000	 18.4119
5.923999	 18.4061
5.942000	 18.4734
5.960000	 18.4997
5.978000	 18.4328
5.996000	 18.3634
6.014000	 18.3731
6.032000	 18.5402
6.050000	 18.6406
6.068000	 18.6376
6.086000	 18.65
6.104000	 18.6839
6.122000	 18.7134
6.140000	 18.6855
6.158000	 18.6184
6.176000	 18.6528
6.194000	 18.8162
6.212000	 18.8442
6.230000	 18.765
6.248000	 18.7575
6.266000	 18.8181
6.284000	 18.8626
6.302000	 18.9108
6.320000	 18.9355
6.338000	 18.8888
6.356000	 18.8758
6.374000	 18.9265
6.392000	 18.9772
6.410000	 19.0307
6.428000	 18.9718
6.446000	 18.851
6.464000	 18.9048
6.482000	 19.0284
6.500000	 19.0823
6.518000	 19.1096
6.536000	 19.1018
6.554000	 19.0873
6.572000	 19.137
6.590000	 19.1958
6.608000	 19.2043
6.626000	 19.2161
6.644000	 19.1764
6.662000	 19.0848
6.680000	 19.0529
6.698000	 19.0334
6.716000	 19.018
6.734000	 19.109
6.752000	 19.2381
6.770000	 19.2738
6.788000	 19.2557
6.806000	 19.24
6.824000	 19.2192
6.842000	 19.2658
6.860000	 19.3206
6.878000	 19.2208
6.896000	 19.0127
6.914000	 18.9077
6.932000	 19.0422
6.950000	 19.2889
6.968000	 19.4069
6.986000	 19.3881
7.004000	 19.3667
7.022000	 19.3653
7.040000	 19.3566
7.058000	 19.3444
7.076000	 19.3061
7.094000	 19.2282
7.112000	 19.163
7.130000	 19.1538
7.148000	 19.1538
7.166000	 19.1345
7.184000	 19.1571
7.202000	 19.2185
7.220000	 19.2388
7.238000	 19.2097
7.256000	 19.1827
7.274000	 19.1869
7.292000	 19.2052
7.310000	 19.2281
7.328000	 19.2877
7.346000	 19.3675
7.364000	 19.4104
7.382000	 19.4326
7.400000	 19.4603
7.418000	 19.4714
7.436000	 19.4764
7.454000	 19.5135
7.472000	 19.5779
7.490000	 19.6468
7.508000	 19.7244
7.526000	 19.8116
7.544000	 19.8791
7.562000	 19.9168
7.580000	 19.9573
7.598000	 20.0231
7.616000	 20.1083
7.634000	 20.2036
7.652000	 20.2825
7.670000	 20.3118
7.688000	 20.2965
7.706000	 20.2563
7.724000	 20.1795
7.742000	 20.0785
7.760000	 20.033
7.778000	 20.0967
7.796000	 20.208
7.814000	 20.2658
7.832000	 20.2583
7.850000	 20.2567
7.868000	 20.3002
7.886000	 20.3624
7.904000	 20.4341
7.922000	 20.5238
7.940000	 20.5818
7.958000	 20.5585
7.976000	 20.5116
7.994000	 20.5351
8.012000	 20.6195
8.030000	 20.6868
8.048000	 20.7029
8.065999	 20.6846
8.084000	 20.6478
8.102000	 20.5974
8.120000	 20.542
8.138000	 20.507
8.155999	 20.528
8.173999	 20.6112
8.192000	 20.7142
8.210000	 20.7948
8.228000	 20.851
8.246000	 20.8938
8.263999	 20.921
8.282000	 20.9407
8.300000	 20.9807
8.318000	 21.0495
8.336000	 21.1169
8.353999	 21.142
8.372000	 21.1105
8.390000	 21.0504
8.408000	 21.0088
8.426000	 21.0123
8.443999	 21.0507
8.462000	 21.0925
8.480000	 21.1107
8.498000	 21.0902
8.516000	 21.033
8.533999	 20.9661
8.552000	 20.9286
8.570000	 20.9431
8.588000	 20.9957
8.606000	 21.0515
8.624000	 21.0885
8.641999	 21.112
8.660000	 21.1395
8.678000	 21.1783
8.696000	 21.2229
8.714000	 21.2686
8.731999	 21.3205
8.750000	 21.3888
8.768000	 21.4704
8.786000	 21.54
8.804000	 21.5727
8.821999	 21.5695
8.840000	 21.5484
8.858000	 21.5218
8.876000	 21.4911
8.894000	 21.4563
8.911999	 21.4216
8.930000	 21.3909
8.948000	 21.3697
8.966000	 21.3666
8.984000	 21.3904
9.001999	 21.441
9.020000	 21.5146
9.038000	 21.6056
9.056000	 21.7001
9.074000	 21.7711
9.092000	 21.8
9.109999	 21.8049
9.128000	 21.8363
9.146000	 21.9293
9.164000	 22.0587
9.182000	 22.1516
9.199999	 22.1473
9.218000	 22.0454
9.236000	 21.902
9.254000	 21.7849
9.272000	 21.729
9.289999	 21.7239
9.308000	 21.7335
9.326000	 21.7232
9.344000	 21.68
9.362000	 21.6143
9.379999	 21.5508
9.398000	 21.5133
9.416000	 21.5147
9.434000	 21.5553
9.452000	 21.6263
9.469999	 21.7122
9.488000	 21.7925
9.506000	 21.8454
9.524000	 21.8591
9.542000	 21.8424
9.560000	 21.8235
9.577999	 21.8336
9.596000	 21.8851
9.614000	 21.9623
9.632000	 22.0325
9.650000	 22.0697
9.667999	 22.0728
9.686000	 22.0664
9.704000	 22.0829
9.722000	 22.1373
9.740000	 22.212
9.757999	 22.264
9.776000	 22.2508
9.794000	 22.159
9.812000	 22.0162
9.830000	 21.8745
9.847999	 21.779
9.866000	 21.7436
9.884000	 21.7497
9.902000	 21.7654
9.920000	 21.7682
9.937999	 21.7564
9.956000	 21.743
9.974000	 21.7407
9.992000	 21.7522
10.01	21.7741
10.028	21.8047
10.046	21.8493
10.064	21.9148
10.082	21.9973
10.1	22.0773
10.118	22.1261
10.136	22.125
10.154	22.0802
10.172	22.022
10.19	21.9914
10.208	22.0169
10.226	22.1027
10.244	22.2282
10.262	22.3579
10.28	22.459
10.298	22.5121
10.316	22.5163
10.334	22.4854
10.352	22.4372
10.37	22.3859
10.388	22.3358
10.406	22.2845
10.424	22.2276
10.442	22.1654
10.46	22.1046
10.478	22.055
10.496	22.0244
10.514	22.0141
10.532	22.0198
10.55	22.0348
10.568	22.0538
10.586	22.0755
10.604	22.1017
10.622	22.1331
10.64	22.1689
10.658	22.2065
10.676	22.2436
10.694	22.2806
10.712	22.3193
10.73	22.3604
10.748	22.4018
10.766	22.4391
10.784	22.4683
10.802	22.4885
10.82	22.5018
10.838	22.5123
10.856	22.5214
10.874	22.5272
10.892	22.5251
10.91	22.5119
10.928	22.4888
10.946	22.4622
10.964	22.4419
10.982	22.437
11	22.4511
11.018	22.481
11.036	22.5165
11.054	22.5439
11.072	22.5503
11.09	22.5279
11.108	22.4779
11.126	22.4094
11.144	22.3352
11.162	22.2685
11.18	22.2172
11.198	22.1832
11.216	22.1639
11.234	22.1557
11.252	22.158
11.27	22.1743
11.288	22.2103
11.306	22.2689
11.324	22.3437
11.342	22.4192
11.36	22.4754
11.378	22.4957
11.396	22.4775
11.414	22.4341
11.432	22.391
11.45	22.3735
11.468	22.3979
11.486	22.4632
11.504	22.5529
11.522	22.6418
11.54	22.7086
11.558	22.7415
11.576	22.7407
11.594	22.7146
11.612	22.6747
11.63	22.6307
11.648	22.5872
11.666	22.5461
11.684	22.5072
11.702	22.4706
11.72	22.4375
11.738	22.4113
11.756	22.3957
11.774	22.3934
11.792	22.4043
11.81	22.4248
11.828	22.4477
11.846	22.4631
11.864	22.4615
11.882	22.4374
11.9	22.3913
11.918	22.3302
11.936	22.2659
11.954	22.2111
11.972	22.176
11.99	22.1646
12.008	22.1753
12.026	22.202
12.044	22.2364
12.062	22.2703
12.08	22.2976
12.098	22.3146
12.116	22.3207
12.134	22.318
12.152	22.3107
12.17	22.3049
12.188	22.3074
12.206	22.3235
12.224	22.3553
12.242	22.4006
12.26	22.4529
12.278	22.5028
12.296	22.5412
12.314	22.5622
12.332	22.565
12.35	22.5535
12.368	22.535
12.386	22.5184
12.404	22.5104
12.422	22.514
12.44	22.5291
12.458	22.5518
12.476	22.5773
12.494	22.6002
12.512	22.6162
12.53	22.6223
12.548	22.616
12.566	22.5953
12.584	22.5587
12.602	22.5054
12.62	22.4368
12.638	22.3561
12.656	22.2683
12.674	22.1806
12.692	22.1014
12.71	22.0388
12.728	21.9994
12.746	21.9873
12.764	22.003
12.782	22.0438
12.8	22.1031
12.818	22.172
12.836	22.2418
12.854	22.3048
12.872	22.3549
12.89	22.3885
12.908	22.4048
12.926	22.4055
12.944	22.3934
12.962	22.3724
12.98	22.3467
12.998	22.3212
13.016	22.3008
13.034	22.2913
13.052	22.2986
13.07	22.3281
13.088	22.3839
13.106	22.4678
13.124	22.5785
13.142	22.7104
13.16	22.8555
13.178	23.0017
13.196	23.1367
13.214	23.2463
13.232	23.3176
13.25	23.3394
13.268	23.3055
13.286	23.215
13.304	23.0733
13.322	22.8922
13.34	22.6892
13.358	22.4849
13.376	22.3
13.394	22.152
13.412	22.0519
13.43	22.0035
13.448	22.0026
13.466	22.038
13.484	22.0944
13.502	22.1558
13.52	22.2081
13.538	22.2418
13.556	22.2523
13.574	22.2399
13.592	22.2089
13.61	22.1651
13.628	22.1155
13.646	22.0663
13.664	22.0231
13.682	21.99
13.7	21.9705
13.718	21.9673
13.736	21.9825
13.754	22.0169
13.772	22.0698
13.79	22.1383
13.808	22.2178
13.826	22.3013
13.844	22.3809
13.862	22.4482
13.88	22.496
13.898	22.5193
13.916	22.5159
13.934	22.4858
13.952	22.4316
13.97	22.358
13.988	22.2719
14.006	22.1808
14.024	22.0924
14.042	22.0142
14.06	21.9527
14.078	21.9127
14.096	21.8971
14.114	21.9059
14.132	21.9367
14.15	21.9846
14.168	22.0436
14.186	22.107
14.204	22.1676
14.222	22.2196
14.24	22.2595
14.258	22.2864
14.276	22.3012
14.294	22.3063
14.312	22.3054
14.33	22.3023
14.348	22.3001
14.366	22.3007
14.384	22.3049
14.402	22.3126
14.42	22.3232
14.438	22.3361
14.456	22.3508
14.474	22.367
14.492	22.385
14.51	22.4049
14.528	22.4268
14.546	22.4501
14.564	22.4734
14.582	22.4952
14.6	22.5136
14.618	22.5265
14.636	22.5317
14.654	22.5272
14.672	22.5123
14.69	22.4865
14.708	22.4502
14.726	22.404
14.744	22.3484
14.762	22.2846
14.78	22.2134
14.798	22.1355
14.816	22.0516
14.834	21.9627
14.852	21.8696
14.87	21.7737
14.888	21.6768
14.906	21.581
14.924	21.4886
14.942	21.4024
14.96	21.3248
14.978	21.2581
14.996	21.2041
15.014	21.1643
15.032	21.1394
15.05	21.1296
15.068	21.1342
15.086	21.1522
15.104	21.1824
15.122	21.2228
15.14	21.2713
15.158	21.3259
15.176	21.3848
15.194	21.4458
15.212	21.507
15.23	21.5671
15.248	21.6249
15.266	21.6794
15.284	21.7298
15.302	21.7753
15.32	21.8155
15.338	21.8499
15.356	21.8782
15.374	21.9001
15.392	21.9155
15.41	21.9241
15.428	21.9265
15.446	21.923
15.464	21.9147
15.482	21.9029
15.5	21.8887
15.518	21.8741
15.536	21.8603
15.554	21.8484
15.572	21.8394
15.59	21.8337
15.608	21.8309
15.626	21.8305
15.644	21.8316
15.662	21.8332
15.68	21.8348
15.698	21.8362
15.716	21.8374
15.734	21.8396
15.752	21.844
15.77	21.8521
15.788	21.8656
15.806	21.8849
15.824	21.9098
15.842	21.9398
15.86	21.9718
15.878	22.003
15.896	22.03
15.914	22.0478
15.932	22.0526
15.95	22.0418
15.968	22.0125
15.986	21.9644
16.004	21.8988
16.022	21.8171
16.04	21.7238
16.058	21.6233
16.076	21.5194
16.094	21.4176
16.112	21.3219
16.13	21.2348
16.148	21.1588
16.166	21.0947
16.184	21.0419
16.202	20.9999
16.22	20.9665
16.238	20.9403
16.256	20.9198
16.274	20.9032
16.292	20.8901
16.31	20.8798
16.328	20.8725
16.346	20.8685
16.364	20.8678
16.382	20.8716
16.4	20.8802
16.418	20.8939
16.436	20.9131
16.454	20.937
16.472	20.9653
16.49	20.9971
16.508	21.0314
16.526	21.0675
16.544	21.1043
16.562	21.1412
16.58	21.1775
16.598	21.2125
16.616	21.2462
16.634	21.2782
16.652	21.3085
16.67	21.337
16.688	21.3634
16.706	21.3873
16.724	21.4085
16.742	21.4265
16.76	21.4406
16.778	21.4507
16.796	21.4563
16.814	21.4577
16.832	21.4549
16.85	21.4488
16.868	21.4408
16.886	21.4317
16.904	21.4241
16.922	21.4193
16.94	21.4195
16.958	21.4261
16.976	21.4401
16.994	21.4628
17.012	21.4933
17.03	21.5311
17.048	21.5733
17.066	21.6173
17.084	21.6597
17.102	21.6952
17.12	21.7215
17.138	21.7329
17.156	21.7273
17.174	21.7021
17.192	21.6562
17.21	21.59
17.228	21.5046
17.246	21.4039
17.264	21.2898
17.282	21.1697
17.3	21.0464
17.318	20.9264
17.336	20.8143
17.354	20.7132
17.372	20.6284
17.39	20.5606
17.408	20.5122
17.426	20.4824
17.444	20.4712
17.462	20.4755
17.48	20.4941
17.498	20.5229
17.516	20.5591
17.534	20.6001
17.552	20.6416
17.57	20.6823
17.588	20.7189
17.606	20.7507
17.624	20.7758
17.642	20.7945
17.66	20.8065
17.678	20.8126
17.696	20.8132
17.714	20.81
17.732	20.8041
17.75	20.7968
17.768	20.7899
17.786	20.784
17.804	20.7812
17.822	20.7816
17.84	20.7861
17.858	20.7947
17.876	20.8075
17.894	20.8234
17.912	20.8421
17.93	20.8615
17.948	20.8812
17.966	20.8986
17.984	20.9129
18.002	20.9219
18.02	20.9245
18.038	20.9196
18.056	20.9063
18.074	20.8843
18.092	20.8539
18.11	20.8152
18.128	20.7696
18.146	20.7178
18.164	20.662
18.182	20.6035
18.2	20.5443
18.218	20.4864
18.236	20.431
18.254	20.3801
18.272	20.3344
18.29	20.2955
18.308	20.2635
18.326	20.239
18.344	20.222
18.362	20.2122
18.38	20.2092
18.398	20.2124
18.416	20.2213
18.434	20.235
18.452	20.2528
18.47	20.2743
18.488	20.2991
18.506	20.3268
18.524	20.3575
18.542	20.391
18.56	20.427
18.578	20.4657
18.596	20.5066
18.614	20.5497
18.632	20.5943
18.65	20.6403
18.668	20.6863
18.686	20.7324
18.704	20.7767
18.722	20.8192
18.74	20.858
18.758	20.8931
18.776	20.9232
18.794	20.9482
18.812	20.9675
18.83	20.9813
18.848	20.9899
18.866	20.9936
18.884	20.9932
18.902	20.9894
18.92	20.9831
18.938	20.975
18.956	20.9662
18.974	20.9571
18.992	20.9485
19.01	20.9409
19.028	20.9348
19.046	20.9303
19.064	20.9276
19.082	20.9265
19.1	20.9272
19.118	20.9291
19.136	20.9319
19.154	20.9353
19.172	20.9385
19.19	20.9414
19.208	20.9428
19.226	20.9426
19.244	20.9396
19.262	20.9336
19.28	20.9234
19.298	20.909
19.316	20.8889
19.334	20.8633
19.352	20.8312
19.37	20.7925
19.388	20.747
19.406	20.6946
19.424	20.636
19.442	20.5712
19.46	20.5018
19.478	20.4276
19.496	20.3513
19.514	20.2732
19.532	20.1957
19.55	20.1202
19.568	20.0483
19.586	19.9825
19.604	19.9233
19.622	19.8733
19.64	19.8324
19.658	19.8027
19.676	19.784
19.694	19.7767
19.712	19.7809
19.73	19.7956
19.748	19.8209
19.766	19.8546
19.784	19.8964
19.802	19.9441
19.82	19.9963
19.838	20.0517
19.856	20.1076
19.874	20.1639
19.892	20.2172
19.91	20.2679
19.928	20.3132
19.946	20.3532
19.964	20.3861
19.982	20.4116
20	20.4293
20.018	20.4385
20.036	20.4395
20.054	20.432
20.072	20.416
20.09	20.3921
20.108	20.3601
20.126	20.3211
20.144	20.2751
20.162	20.2233
20.18	20.1661
20.198	20.1045
20.216	20.0398
20.234	19.9722
20.252	19.9038
20.27	19.8344
20.288	19.7663
20.306	19.6996
20.324	19.6357
20.342	19.5758
20.36	19.52
20.378	19.4699
20.396	19.4252
20.414	19.387
20.432	19.3555
20.45	19.3304
20.468	19.3117
20.486	19.2993
20.504	19.2927
20.522	19.2919
20.54	19.2961
20.558	19.3051
20.576	19.3185
20.594	19.3362
20.612	19.3579
20.63	19.3831
20.648	19.4117
20.666	19.4439
20.684	19.4794
20.702	19.5186
20.72	19.5613
20.738	19.6077
20.756	19.6581
20.774	19.7125
20.792	19.7707
20.81	19.8326
20.828	19.898
20.846	19.9665
20.864	20.0381
20.882	20.1117
20.9	20.1873
20.918	20.2641
20.936	20.3413
20.954	20.4189
20.972	20.4953
20.99	20.5707
21.008	20.6442
21.026	20.7155
21.044	20.7844
21.062	20.8506
21.08	20.914
21.098	20.975
21.116	21.0335
21.134	21.0899
21.152	21.1449
21.17	21.1983
21.188	21.2511
21.206	21.3034
21.224	21.3553
21.242	21.4071
21.26	21.4589
21.278	21.5104
21.296	21.562
21.314	21.6129
21.332	21.6623
21.35	21.7106
21.368	21.7558
21.386	21.7979
21.404	21.8361
21.422	21.868
21.44	21.8943
21.458	21.913
21.476	21.9232
21.494	21.9252
21.512	21.9168
21.53	21.8983
21.548	21.8696
21.566	21.8302
21.584	21.7805
21.602	21.7212
21.62	21.6518
21.638	21.5735
21.656	21.4878
21.674	21.3939
21.692	21.2944
21.71	21.1895
21.728	21.0797
21.746	20.9681
21.764	20.8538
21.782	20.7387
21.8	20.6246
21.818	20.5106
21.836	20.3994
21.854	20.291
21.872	20.1857
21.89	20.0848
21.908	19.9879
21.926	19.8951
21.944	19.8066
21.962	19.7222
21.98	19.6413
21.998	19.5638
22.016	19.4895
22.034	19.4176
22.052	19.3485
22.07	19.2814
22.088	19.2161
22.106	19.1526
22.124	19.0901
22.142	19.0284
22.16	18.9676
22.178	18.908
22.196	18.8492
22.214	18.7919
22.232	18.7367
22.25	18.6832
22.268	18.633
22.286	18.5869
22.304	18.5445
22.322	18.5078
22.34	18.4768
22.358	18.4519
22.376	18.4354
22.394	18.4267
22.412	18.4266
22.43	18.4366
22.448	18.4559
22.466	18.4856
22.484	18.5266
22.502	18.5784
22.52	18.6412
22.538	18.7154
22.556	18.8005
22.574	18.8952
22.592	19.0001
22.61	19.1141
22.628	19.2334
22.646	19.3594
22.664	19.4898
22.682	19.6205
22.7	19.7537
22.718	19.8854
22.736	20.0109
22.754	20.1336
22.772	20.2469
22.79	20.3453
22.808	20.4327
22.826	20.5016
22.844	20.5476
22.862	20.5735
22.88	20.5747
22.898	20.5483
22.916	20.4963
22.934	20.4174
22.952	20.3104
22.97	20.1764
22.988	20.0174
23.006	19.8322
23.024	19.6223
23.042	19.3946
23.06	19.148
23.078	18.8843
23.096	18.6129
23.114	18.3317
23.132	18.0435
23.15	17.7609
23.168	17.4813
23.186	17.2077
23.204	16.9539
23.222	16.7172
23.24	16.5002
23.258	16.3156
23.276	16.162
23.294	16.04
23.312	15.9578
23.33	15.9152
23.348	15.9116
23.366	15.9505
23.384	16.0331
23.402	16.1574
23.42	16.3212
23.438	16.5262
23.456	16.7703
23.474	17.0467
23.492	17.3564
23.51	17.6985
23.528	18.0628
23.546	18.4485
23.564	18.8569
23.582	19.2759
23.6	19.7024
23.618	20.14
23.636	20.5764
23.654	21.006
23.672	21.4341
23.69	21.8508
23.708	22.2494
23.726	22.6351
23.744	23.0014
23.762	23.3425
23.78	23.662
23.798	23.9566
23.816	24.2221
23.834	24.4604
23.852	24.6704
23.87	24.8497
23.888	24.9979
23.906	25.1163
23.924	25.2055
23.942	25.2655
23.96	25.2965
23.978	25.2997
23.996	25.2749
24.014	25.2221
24.032	25.1437
24.05	25.0417
24.068	24.9152
24.086	24.7643
24.104	24.5899
24.122	24.3948
24.14	24.1731
24.158	23.9177
24.176	23.6338
24.194	23.3168
24.212	22.9548
24.23	22.5474
24.248	22.0974
24.266	21.5925
24.284	21.0255
24.302	20.4025
24.32	19.7195
24.338	18.9722
24.356	18.1604
24.374	17.2881
24.392	16.3592
24.41	15.3661
24.428	14.3161
24.446	13.2287
24.464	12.1054
24.482	10.9366
24.5	9.757820
24.518	8.596414
24.536	7.424575
24.554	6.274347
24.572	5.190711
24.59	4.160111
24.608	3.185469
24.626	2.307211
24.644	1.542627
24.662	0.870106
24.68	0.316375
24.698	-0.092865
24.716	-0.369618
24.734	-0.511831
24.752	-0.509240
24.77	-0.354968
24.788	-0.056558
24.806	0.374602
24.824	0.934108
24.842	1.635077
24.86	2.450955
24.878	3.351345
24.896	4.354778
24.914	5.450315
24.932	6.593452
24.95	7.764596
24.968	8.992684
24.986	10.2355
25.004	11.4484
25.022	12.6563
25.04	13.8469
25.058	14.9771
25.076	16.028
25.094	17.0244
25.112	17.94
25.13	18.7476
25.148	19.4599
25.166	20.074
25.184	20.572
25.202	20.9454
25.22	21.2052
25.238	21.343
25.256	21.3493
25.274	21.2214
25.292	20.9668
25.31	20.5938
25.328	20.1034
25.346	19.486
25.364	18.7642
25.382	17.9626
25.4	17.0699
25.418	16.088
25.436	15.0484
25.454	13.9733
25.472	12.8376
25.49	11.6638
25.508	10.4837
25.526	9.297299
25.544	8.090190
25.562	6.900144
25.58	5.762231
25.598	4.649309
25.616	3.575233
25.634	2.580489
25.652	1.688784
25.67	0.870626
25.688	0.149701
25.706	-0.444063
25.724	-0.910290
25.742	-1.261188
25.76	-1.476752
25.778	-1.538507
25.796	-1.457114
25.814	-1.231418
25.832	-0.850222
25.85	-0.305682
25.868	0.394734
25.886	1.252123
25.904	2.269196
25.922	3.448099
25.94	4.786523
25.958	6.280081
25.976	7.924508
25.994	9.724304
26.012	11.6763
26.03	13.77
26.048	15.9977
26.066	18.3775
26.084	20.8906
26.102	23.5063
26.12	26.2079
26.138	29.0228
26.156	31.9237
26.174	34.8765
26.192	37.8733
26.21	40.938
26.228	44.038
26.246	47.139
26.264	50.2437
26.282	53.3658
26.3	56.4787
26.318	59.5565
26.336	62.6074
26.354	65.636
26.372	68.6281
26.39	71.5708
26.408	74.4721
26.426	77.3314
26.444	80.1405
26.462	82.892
26.48	85.5858
26.498	88.228
26.516	90.825
26.534	93.3825
26.552	95.9011
26.57	98.375
26.588	100.798
26.606	103.168
26.624	105.496
26.642	107.769
26.66	109.969
26.678	112.093
26.696	114.167
26.714	116.154
26.732	118.014
26.75	119.731
26.768	121.344
26.786	122.814
26.804	124.096
26.822	125.179
26.84	126.109
26.858	126.832
26.876	127.288
26.894	127.453
26.912	127.38
26.93	127.027
26.948	126.342
26.966	125.161
26.984	123.315
27.002	121.313
27.02	119.702
27.028	119.297