File: Bakgrunnsmateriale/MATLAB/FTIR/ftir_data/LPE454/Mapping_121/LPE454_t20_cm-1.asc
PE IR       SPECTRUM    SPECTRUM    ASCII       PEDS        1.60
  -1
LP58B5~1.ASC
17/05/19
15:57:34.00
17/05/19
15:57:34.00
tln
$LPE454_t0020$<tbV0>[-7.8,-10.4,8.0,0.0,27,1,0]
370
64

2002,4.07
MIRTGS : RIGHTBACK : INTERNAL 2
MIR : ON : INTERNAL 2
OPTKBR

0.200000
8
8.000000
FILLER
RATIO
SPECTRUM
UNLOCKED 256

DOUBLE
64
COMBINED
1
0
0

1.000000
RATIO

1
0
TRUE
51149
0
LEFT NOT FITTED RIGHT NOT FITTED 0
NONE
NONE
15600
12
4.427000
51148
TRUE
1 0 8 72 0 0 0 0

15798

#HDR
-1
-1
#GR
CM-1
%T
2.38419e-05
0.0
5000
-1.000000
4631
8
30.868
-4.192829
#DATA
5000	-0.229763
4996	0.075197
4992	0.190424
4988	0.044417
4984	-0.127148
4980	-0.248456
4976	-0.136089
4972	0.235033
4968	0.475668
4964	0.451612
4960	0.347065
4956	0.318288
4952	0.377535
4948	0.345706
4944	0.150084
4940	0.105690
4936	0.360393
4932	0.379300
4928	-0.110673
4924	-0.429558
4920	-0.180625
4916	0.068640
4912	-0.049710
4908	-0.144529
4904	-0.018405
4900	0.019454
4896	0.068902
4892	0.471687
4888	0.809478
4884	0.643539
4880	0.111103
4876	-0.333070
4872	-0.201535
4868	0.289773
4864	0.543808
4860	0.356674
4856	-0.047588
4852	-0.177574
4848	0.106048
4844	0.342345
4840	0.341415
4836	0.199675
4832	0.094938
4828	0.227761
4824	0.377416
4820	0.348043
4816	0.406622
4812	0.548577
4808	0.495553
4804	0.427436
4800	0.332403
4796	0.046300
4792	-0.014925
4788	0.272035
4784	0.419306
4780	0.380444
4776	0.391602
4772	0.272989
4768	-0.025486
4764	-0.108027
4760	0.085711
4756	0.138235
4752	0.018548
4748	-0.116872
4744	-0.206160
4740	-0.115776
4736	0.064587
4732	0.166606
4728	0.155496
4724	0.204634
4720	0.422453
4716	0.422406
4712	0.238919
4708	0.242447
4704	0.314450
4700	0.227665
4696	0.121712
4692	0.126361
4688	0.117206
4684	0.414681
4680	0.770115
4676	0.551080
4672	0.051307
4668	-0.520157
4664	-0.721788
4660	-0.060439
4656	0.784850
4652	0.851321
4648	0.159978
4644	0.067543
4640	0.831079
4636	0.862932
4632	-0.137710
4628	-1.121830
4624	-1.167488
4620	-0.482273
4616	0.050044
4612	0.260066
4608	0.422263
4604	0.753140
4600	1.406836
4596	1.543688
4592	1.264572
4588	0.901722
4584	0.002479
4580	-0.243449
4576	0.452804
4572	0.517749
4568	-0.042581
4564	-0.208616
4560	-0.134158
4556	-0.590944
4552	-1.114010
4548	-0.950384
4544	-0.133967
4540	0.924134
4536	1.430535
4532	1.027059
4528	0.911307
4524	0.893545
4520	0.740003
4516	-0.633859
4512	-3.813743
4508	-2.373456
4504	4.938340
4500	8.272528
4496	6.956362
4492	7.000088
4488	5.477023
4484	1.928758
4480	0.753116
4476	0.672101
4472	-0.038528
4468	-0.283432
4464	0.159335
4460	0.106334
4456	-0.268626
4452	-0.127863
4448	0.124526
4444	0.266861
4440	0.471496
4436	0.522947
4432	0.342154
4428	0.268816
4424	0.102162
4420	-0.168371
4416	0.035953
4412	0.236272
4408	0.165724
4404	0.272226
4400	0.450778
4396	0.395202
4392	0.343179
4388	0.441932
4384	0.519227
4380	0.491499
4376	0.385117
4372	0.312948
4368	0.190830
4364	0.103712
4360	0.166082
4356	0.288271
4352	0.419640
4348	0.434708
4344	0.341010
4340	0.347113
4336	0.270485
4332	0.060582
4328	0.116991
4324	0.274872
4320	0.241088
4316	0.227022
4312	0.241875
4308	0.260329
4304	0.409483
4300	0.515127
4296	0.423932
4292	0.301456
4288	0.228309
4284	0.204014
4280	0.212955
4276	0.087118
4272	-0.089430
4268	-0.279688
4264	-0.403118
4260	-0.262689
4256	-0.088763
4252	-0.217390
4248	-0.383639
4244	-0.273418
4240	-0.104284
4236	0.005269
4232	0.147724
4228	0.148296
4224	-0.022649
4220	-0.042748
4216	0.016331
4212	-0.076842
4208	-0.190949
4204	-0.210189
4200	-0.037837
4196	0.402116
4192	0.582289
4188	0.166392
4184	-0.386476
4180	-0.650501
4176	-0.567460
4172	-0.477814
4168	-0.333786
4164	-0.069379
4160	0.012612
4156	-0.033521
4152	0.019669
4148	0.187849
4144	0.352835
4140	0.387811
4136	0.372552
4132	0.306057
4128	0.071763
4124	-0.049257
4120	0.075650
4116	0.213694
4112	0.275468
4108	0.181865
4104	0.048518
4100	0.095748
4096	0.171113
4092	0.159335
4088	0.131392
4084	0.033068
4080	-0.079011
4076	-0.054955
4072	0.052952
4068	0.061798
4064	0.023198
4060	0.044488
4056	0.070667
4052	0.086450
4048	0.003767
4044	-0.118279
4040	-0.082349
4036	-0.008130
4032	-0.012993
4028	0.025081
4024	0.191545
4020	0.364828
4016	0.352764
4012	0.243377
4008	0.234246
4004	0.262331
4000	0.256776
3996	0.165820
3992	0.012016
3988	0.034141
3984	0.180816
3980	0.197649
3976	0.122499
3972	0.096583
3968	0.103569
3964	0.074434
3960	0.008773
3956	0.032448
3952	0.102329
3948	0.083732
3944	0.124049
3940	0.221180
3936	0.220012
3932	0.206923
3928	0.210547
3924	0.082898
3920	-0.085949
3916	-0.110459
3912	-0.041580
3908	0.064754
3904	0.166130
3900	0.172877
3896	0.112986
3892	0.097060
3888	0.175857
3884	0.225615
3880	0.157117
3876	0.089192
3872	0.085020
3868	0.071215
3864	0.042510
3860	0.081753
3856	0.101375
3852	0.051712
3848	0.077748
3844	0.157213
3840	0.126266
3836	-0.037431
3832	-0.140619
3828	-0.084018
3824	-0.044202
3820	-0.068593
3816	-0.017762
3812	0.036954
3808	0.007510
3804	-0.017476
3800	-0.030159
3796	-0.031805
3792	-0.037908
3788	-0.043582
3784	-0.006818
3780	-0.007343
3776	-0.051903
3772	-0.099182
3768	-0.081443
3764	-0.010538
3760	-0.041103
3756	-0.017905
3752	0.170469
3748	0.187563
3744	0.042319
3740	-0.037550
3736	-0.081753
3732	-0.059962
3728	0.043416
3724	0.106072
3720	0.154137
3716	0.217342
3712	0.237154
3708	0.218439
3704	0.121879
3700	0.000524
3696	-0.010156
3692	0.055360
3688	0.087571
3684	0.069308
3680	0.025129
3676	0.037693
3672	0.182557
3668	0.261020
3664	0.136303
3660	0.002932
3656	-0.020575
3652	-0.018501
3648	0.006771
3644	0.047707
3640	0.051474
3636	0.094032
3632	0.171327
3628	0.182199
3624	0.108504
3620	0.005030
3616	-0.014352
3612	0.080585
3608	0.178480
3604	0.155496
3600	0.050783
3596	0.055527
3592	0.125741
3588	0.102972
3584	0.090479
3580	0.155329
3576	0.104618
3572	-0.027775
3568	-0.067520
3564	-0.131392
3560	-0.214266
3556	-0.101613
3552	0.054335
3548	0.002431
3544	-0.110507
3540	-0.069642
3536	0.036883
3532	0.098443
3528	0.161695
3524	0.209712
3520	0.150847
3516	-0.006127
3512	-0.069594
3508	0.059652
3504	0.170755
3500	0.131177
3496	0.068759
3492	0.020217
3488	0.008988
3484	0.119924
3480	0.279259
3476	0.379300
3472	0.400662
3468	0.316596
3464	0.139331
3460	0.039529
3456	0.088191
3452	0.107669
3448	0.086283
3444	0.075936
3440	0.064349
3436	0.153779
3432	0.209403
3428	0.143694
3424	0.141024
3420	0.116682
3416	0.046992
3412	0.043892
3408	0.102663
3404	0.135278
3400	0.111484
3396	0.098085
3392	0.139999
3388	0.181221
3384	0.142836
3380	0.061631
3376	0.014758
3372	-0.006341
3368	-0.064611
3364	-0.089764
3360	0.013732
3356	0.123405
3352	0.097560
3348	0.062394
3344	0.132894
3340	0.187468
3336	0.133061
3332	0.037598
3328	-0.028443
3324	-0.051188
3320	-0.027537
3316	0.018787
3312	0.084161
3308	0.160121
3304	0.194215
3300	0.167822
3296	0.083351
3292	0.002980
3288	-0.033712
3284	-0.113368
3280	-0.190877
3276	-0.162076
3272	-0.040507
3268	0.098085
3264	0.115513
3260	0.041747
3256	0.010991
3252	0.050377
3248	0.094723
3244	0.073194
3240	0.005483
3236	0.002384
3232	0.062489
3228	0.128078
3224	0.184965
3220	0.166296
3216	0.117421
3212	0.088834
3208	0.080966
3204	0.087189
3200	0.036573
3196	-0.019931
3192	0.062799
3188	0.144124
3184	0.056195
3180	0.008893
3176	0.037384
3172	-0.035452
3168	-0.092005
3164	-0.037240
3160	0.025653
3156	0.039386
3152	-0.003361
3148	-0.021028
3144	-0.016045
3140	-0.065517
3136	-0.054168
3132	0.128531
3128	0.359511
3124	0.321936
3120	0.047731
3116	-0.046515
3112	0.070071
3108	0.190138
3104	0.216507
3100	0.138282
3096	0.065636
3092	0.044727
3088	0.024890
3084	-0.020670
3080	-0.096321
3076	-0.119519
3072	-0.006842
3068	0.094366
3064	0.064635
3060	0.040698
3056	0.082445
3052	0.074720
3048	0.061178
3044	0.131082
3040	0.135207
3036	0.037956
3032	-0.059700
3028	-0.177168
3024	-0.222611
3020	-0.064277
3016	0.162887
3012	0.210952
3008	0.119090
3004	0.037550
3000	0.015926
2996	0.030207
2992	0.057315
2988	0.074625
2984	0.068354
2980	0.084257
2976	0.083398
2972	0.044274
2968	0.035691
2964	0.076532
2960	0.146174
2956	0.166320
2952	0.074267
2948	-0.022435
2944	-0.053453
2940	-0.058889
2936	-0.013947
2932	0.084805
2928	0.116229
2924	0.044035
2920	-0.020170
2916	-0.044107
2912	-0.022530
2908	0.002169
2904	-0.006127
2900	-0.002741
2896	-0.025272
2892	-0.063943
2888	-0.042176
2884	0.019574
2880	0.114274
2876	0.221776
2872	0.185966
2868	0.039768
2864	0.015068
2860	0.061130
2856	0.008583
2852	-0.033497
2848	0.025820
2844	0.071620
2840	0.079250
2836	0.075888
2832	0.052714
2828	0.067639
2824	0.066971
2820	-0.045633
2816	-0.125908
2812	-0.080895
2808	-0.003886
2804	0.048947
2800	0.032091
2796	0.004529
2792	0.057506
2788	0.122070
2784	0.127983
2780	0.105309
2776	0.061941
2772	0.005984
2768	0.029420
2764	0.114393
2760	0.118565
2756	0.036096
2752	0.010204
2748	0.065374
2744	0.094771
2740	0.057721
2736	-0.015330
2732	-0.020980
2728	0.047254
2724	0.079226
2720	0.075459
2716	0.060820
2712	0.082635
2708	0.143885
2704	0.098204
2700	0.010395
2696	0.050544
2692	0.111985
2688	0.095200
2684	0.039482
2680	-0.010609
2676	0.039911
2672	0.126409
2668	0.113582
2664	0.077223
2660	0.093555
2656	0.135469
2652	0.156760
2648	0.148463
2644	0.147199
2640	0.117254
2636	0.051736
2632	0.041055
2628	0.073361
2624	0.087523
2620	0.083017
2616	0.036430
2612	-0.040984
2608	-0.048565
2604	0.028896
2600	0.107336
2596	0.125193
2592	0.109982
2588	0.131225
2584	0.138854
2580	0.075745
2576	0.028920
2572	0.021743
2568	-0.018239
2564	-0.012874
2560	0.077724
2556	0.125026
2552	0.102734
2548	0.077366
2544	0.085592
2540	0.107216
2536	0.115156
2532	0.096893
2528	0.023198
2524	-0.084018
2520	-0.146389
2516	-0.175189
2512	-0.207352
2508	-0.102353
2504	0.110054
2500	0.134587
2496	-0.018429
2492	-0.078940
2488	-0.058388
2484	-0.021958
2480	0.024437
2476	0.024461
2472	0.000905
2468	-0.060915
2464	-0.130033
2460	-0.163292
2456	-0.177836
2452	-0.144433
2448	-0.051426
2444	0.068449
2440	0.205421
2436	0.390887
2432	0.462627
2428	0.336837
2424	0.182890
2420	0.094127
2416	0.076723
2412	0.060439
2408	0.126385
2404	0.285148
2400	0.284934
2396	0.144457
2392	0.078988
2388	0.062513
2384	0.035905
2380	0.073361
2376	0.107383
2372	0.118327
2368	0.147080
2364	0.134158
2360	0.094985
2356	0.098943
2352	0.199866
2348	0.304460
2344	0.309944
2340	0.293159
2336	0.285506
2332	0.290322
2328	0.357365
2324	0.435066
2320	0.470328
2316	0.483775
2312	0.486588
2308	0.466918
2304	0.430560
2300	0.462865
2296	0.574302
2292	0.680923
2288	0.761318
2284	0.820207
2280	0.900793
2276	1.007795
2272	1.062440
2268	1.061725
2264	1.130962
2260	1.321816
2256	1.498222
2252	1.612067
2248	1.724123
2244	1.830482
2240	1.978182
2236	2.178812
2232	2.324891
2228	2.454257
2224	2.650618
2220	2.837324
2216	2.946758
2212	3.034615
2208	3.224587
2204	3.465294
2200	3.641867
2196	3.828930
2192	4.106187
2188	4.447531
2184	4.751157
2180	4.992842
2176	5.281925
2172	5.612850
2168	5.912232
2164	6.202888
2160	6.404614
2156	6.544756
2152	6.850743
2148	7.256865
2144	7.528185
2140	7.700514
2136	7.980847
2132	8.387446
2128	8.777141
2124	9.096980
2120	9.393310
2116	9.735941
2112	10.1379
2108	10.5056
2104	10.8113
2100	11.1198
2096	11.4866
2092	11.8698
2088	12.1368
2084	12.2713
2080	12.4169
2076	12.7002
2072	13.1032
2068	13.5073
2064	13.7732
2060	13.9334
2056	14.1553
2052	14.4719
2048	14.7844
2044	15.0532
2040	15.3046
2036	15.541
2032	15.7694
2028	16.0452
2024	16.3522
2020	16.5591
2016	16.7211
2012	16.9236
2008	17.0852
2004	17.2451
2000	17.4114
1996	17.5767
1992	17.8318
1988	18.1058
1984	18.3095
1980	18.4523
1976	18.5565
1972	18.7076
1968	18.9094
1964	19.0662
1960	19.213
1956	19.3944
1952	19.5505
1948	19.6838
1944	19.8193
1940	19.9374
1936	20.0463
1932	20.143
1928	20.2127
1924	20.3001
1920	20.4282
1916	20.5895
1912	20.8048
1908	20.9911
1904	21.0977
1900	21.1635
1896	21.2343
1892	21.3292
1888	21.3623
1884	21.3419
1880	21.4012
1876	21.5385
1872	21.6634
1868	21.7406
1864	21.7929
1860	21.8334
1856	21.8681
1852	21.9931
1848	22.2117
1844	22.3683
1840	22.3964
1836	22.4114
1832	22.5112
1828	22.6006
1824	22.6185
1820	22.6368
1816	22.6509
1812	22.6633
1808	22.7463
1804	22.8741
1800	22.9499
1796	22.9727
1792	23.0063
1788	23.0584
1784	23.1101
1780	23.1532
1776	23.2396
1772	23.3877
1768	23.4
1764	23.2492
1760	23.1931
1756	23.2553
1752	23.3073
1748	23.305
1744	23.3122
1740	23.4509
1736	23.6274
1732	23.6063
1728	23.4663
1724	23.5076
1720	23.7226
1716	23.8508
1712	23.8246
1708	23.7576
1704	23.7567
1700	23.8482
1696	23.8816
1692	23.8265
1688	23.8622
1684	23.9298
1680	23.8976
1676	23.9139
1672	24.0208
1668	24.0635
1664	24.0468
1660	24.0686
1656	24.1349
1652	24.1657
1648	24.1456
1644	24.1206
1640	24.1524
1636	24.2276
1632	24.2032
1628	24.1119
1624	24.1105
1620	24.2212
1616	24.3204
1612	24.3838
1608	24.485
1604	24.5549
1600	24.5395
1596	24.4967
1592	24.4685
1588	24.4277
1584	24.401
1580	24.4729
1576	24.5537
1572	24.5386
1568	24.534
1564	24.6322
1560	24.7486
1556	24.7323
1552	24.6583
1548	24.7127
1544	24.8753
1540	24.9353
1536	24.8392
1532	24.7491
1528	24.716
1524	24.7412
1520	24.7989
1516	24.8339
1512	24.8919
1508	24.9647
1504	24.9697
1500	24.9406
1496	24.9287
1492	24.9233
1488	24.9457
1484	25.0097
1480	25.0674
1476	25.0835
1472	25.0471
1468	25.0203
1464	25.0536
1460	25.0933
1456	25.0817
1452	25.0205
1448	24.9879
1444	24.9626
1440	24.9637
1436	25.0742
1432	25.166
1428	25.1425
1424	25.1325
1420	25.1925
1416	25.2294
1412	25.2153
1408	25.2002
1404	25.2024
1400	25.1519
1396	25.0946
1392	25.1353
1388	25.2632
1384	25.3955
1380	25.4258
1376	25.4056
1372	25.4286
1368	25.4763
1364	25.5338
1360	25.5628
1356	25.5487
1352	25.5525
1348	25.557
1344	25.5117
1340	25.4537
1336	25.4323
1332	25.4215
1328	25.4092
1324	25.4541
1320	25.5944
1316	25.7075
1312	25.7366
1308	25.7897
1304	25.8329
1300	25.8221
1296	25.8199
1292	25.8671
1288	25.87
1284	25.7828
1280	25.7236
1276	25.726
1272	25.7677
1268	25.7946
1264	25.79
1260	25.8855
1256	26.0128
1252	25.9986
1248	25.9451
1244	25.9509
1240	25.9724
1236	25.9889
1232	25.9868
1228	25.9884
1224	26.0177
1220	26.042
1216	26.0615
1212	26.0846
1208	26.0847
1204	26.1036
1200	26.2226
1196	26.3481
1192	26.3446
1188	26.2865
1184	26.252
1180	26.208
1176	26.1766
1172	26.2188
1168	26.3006
1164	26.3619
1160	26.3633
1156	26.2964
1152	26.2857
1148	26.357
1144	26.4363
1140	26.4734
1136	26.4481
1132	26.4996
1128	26.6359
1124	26.6437
1120	26.4913
1116	26.3471
1112	26.3485
1108	26.5021
1104	26.6683
1100	26.6617
1096	26.5065
1092	26.4284
1088	26.4374
1084	26.4047
1080	26.4294
1076	26.5961
1072	26.7227
1068	26.7418
1064	26.8194
1060	26.8915
1056	26.8437
1052	26.7565
1048	26.6472
1044	26.5482
1040	26.5839
1036	26.6603
1032	26.5801
1028	26.3494
1024	26.198
1020	26.295
1016	26.4441
1012	26.631
1008	26.9639
1004	27.085
1000	26.8657
996	 26.7653
992	 26.9085
988	 26.9708
984	 26.8667
980	 26.6999
976	 26.5977
972	 26.5597
968	 26.5382
964	 26.6407
960	 26.8164
956	 26.9611
952	 27.0747
948	 27.1432
944	 27.1933
940	 27.2262
936	 27.1172
932	 26.8412
928	 26.6455
924	 26.6173
920	 26.575
916	 26.5357
912	 26.667
908	 26.8935
904	 26.9818
900	 26.8982
896	 26.8407
892	 26.8303
888	 26.7786
884	 26.816
880	 26.8398
876	 26.6273
872	 26.4536
868	 26.4489
864	 26.3559
860	 26.2472
856	 26.2625
852	 26.2848
848	 26.2375
844	 26.2129
840	 26.3106
836	 26.5071
832	 26.7643
828	 26.9275
824	 26.9037
820	 26.8471
816	 26.7807
812	 26.6001
808	 26.3474
804	 26.2116
800	 26.2455
796	 26.2441
792	 26.1076
788	 26.008
784	 26.0973
780	 26.306
776	 26.5338
772	 26.6887
768	 26.7222
764	 26.7251
760	 26.6018
756	 26.2819
752	 26.0452
748	 25.8478
744	 25.3113
740	 24.7978
736	 24.9194
732	 25.4471
728	 25.8397
724	 25.8709
720	 25.7293
716	 25.6994
712	 25.7865
708	 25.85
704	 25.8559
700	 25.9609
696	 26.0521
692	 25.8787
688	 25.6639
684	 25.4965
680	 25.2735
676	 24.9812
672	 24.5911
668	 24.4039
664	 24.6587
660	 25.053
656	 25.1882
652	 25.0603
648	 24.9057
644	 24.8801
640	 24.9314
636	 24.904
632	 24.7875
628	 24.5767
624	 24.2743
620	 24.0437
616	 23.9561
612	 23.9552
608	 24.0633
604	 24.2146
600	 24.2505
596	 24.2207
592	 24.1244
588	 23.9656
584	 23.913
580	 23.8719
576	 23.7036
572	 23.5308
568	 23.3728
564	 23.1058
560	 22.8292
556	 22.6793
552	 22.662
548	 22.9219
544	 23.1344
540	 22.8629
536	 22.4625
532	 22.3887
528	 22.5677
524	 22.8281
520	 22.831
516	 22.3109
512	 21.7924
508	 21.5845
504	 21.4833
500	 21.6308
496	 21.9107
492	 21.9711
488	 21.4025
484	 20.3886
480	 20.0798
476	 20.7778
472	 21.917
468	 22.6726
464	 21.9804
460	 20.585
456	 20.1248
452	 20.2213
448	 20.1862
444	 20.0773
440	 19.6737
436	 19.1125
432	 17.9989
428	 17.2049
424	 18.7028
420	 19.8727
416	 19.0601
412	 21.125
408	 24.1296
404	 18.2194
400	 9.989309
396	 7.145285
392	 5.404782
388	 7.367062
384	 12.4142
380	 19.9205
376	 30.868
372	 21.6974
370	 26.7656