File: Bakgrunnsmateriale/MATLAB/FTIR/ftir_data/LPE454/Mapping_121/LPE454_t102.asc
PE IR       SPECTRUM    SPECTRUM    ASCII       PEDS        1.60
  -1
LP9BF7~1.ASC
17/05/19
22:45:21.00
17/05/19
22:45:47.00
tln
$LPE454_t0102$<tbV0>[7.8,10.4,8.0,0.0,27,1,0]
27.028
64

2002,4.07
MIRTGS : RIGHTBACK : INTERNAL 2
MIR : ON : INTERNAL 2
OPTKBR

0.200000
8
8.000000
FILLER
RATIO
SPECTRUM
UNLOCKED 256

DOUBLE
64
COMBINED
1
0
0

0.002000
RATIO

1
0
TRUE
51149
0
LEFT NOT FITTED RIGHT NOT FITTED 0
NONE
NONE
15600
12
4.427000
51148
TRUE
1 0 8 72 0 0 0 0

15798

#HDR
-1
-1
#GR
µM
%T
2.38419e-05
0.0
2.000000
0.002000
12515
8
48.8637
-2.157963
#DATA
2.000000	 0.127458
2.018000	 0.130454
2.036000	 0.295072
2.054000	 0.512531
2.072000	 0.101883
2.090000	 0.259874
2.108000	 0.357950
2.126000	 0.981409
2.144000	 -0.092883
2.162000	 -0.780207
2.180000	 29.4073
2.198000	 -0.877330
2.216000	 -0.877591
2.234000	 -0.332852
2.252000	 0.746123
2.270000	 0.470651
2.288000	 -0.102088
2.306000	 -0.273402
2.324000	 0.266344
2.342000	 0.404608
2.360000	 0.183995
2.378000	 0.269924
2.396000	 -0.079326
2.414000	 0.161947
2.432000	 -0.111941
2.450000	 -0.273489
2.468000	 1.472784
2.486000	 -0.097940
2.504000	 0.001534
2.522000	 -0.083993
2.540000	 0.058516
2.558000	 0.213162
2.576000	 0.093783
2.594000	 -0.063692
2.612000	 0.119378
2.630000	 -0.014809
2.648000	 0.095278
2.666000	 -0.025987
2.684000	 0.068898
2.702000	 0.009809
2.720000	 0.108353
2.738000	 0.068652
2.756000	 0.064413
2.774000	 0.026393
2.792000	 -0.004529
2.810000	 0.076975
2.828000	 0.076263
2.846000	 -0.108863
2.864000	 0.038061
2.882000	 -0.024293
2.900000	 0.127857
2.918000	 0.031229
2.936000	 0.120420
2.954000	 -0.058187
2.972000	 0.148437
2.990000	 0.125432
3.008000	 0.136922
3.026000	 0.130610
3.044000	 -0.008994
3.062000	 0.147648
3.080000	 -0.027197
3.098000	 0.004020
3.116000	 -0.030438
3.134000	 0.044620
3.152000	 0.099402
3.170000	 -0.028158
3.188000	 0.086272
3.206000	 0.134088
3.224000	 -0.004384
3.242000	 0.015129
3.260000	 0.105542
3.278000	 0.057556
3.296000	 -0.052126
3.314000	 -0.006022
3.332000	 0.008901
3.350000	 0.122505
3.368000	 0.127936
3.386000	 -0.093680
3.404000	 -0.002116
3.422000	 0.113008
3.440000	 0.000662
3.458000	 0.021478
3.476000	 0.016281
3.494000	 0.105045
3.512000	 -0.033462
3.530000	 0.015033
3.548000	 0.047673
3.566000	 0.062284
3.584000	 -0.048002
3.602000	 0.034921
3.620000	 0.021304
3.638000	 0.009017
3.656000	 0.130079
3.674000	 0.089119
3.692000	 0.069319
3.710000	 -0.053165
3.728000	 0.049441
3.746000	 0.148085
3.764000	 0.016137
3.782000	 -0.041780
3.800000	 -0.065096
3.818000	 -0.055903
3.836000	 0.016044
3.854000	 0.068998
3.872000	 0.018329
3.890000	 0.025467
3.908000	 0.101635
3.926000	 0.040239
3.944000	 -0.027286
3.962000	 -0.043133
3.980000	 -0.039891
3.998000	 0.236136
4.016000	 0.036542
4.034000	 0.117573
4.052000	 0.051819
4.070000	 0.039024
4.088000	 0.132251
4.106000	 0.095291
4.124000	 0.121425
4.141999	 0.439469
4.160000	 0.267611
4.178000	 0.253920
4.196000	 0.415925
4.214000	 0.462038
4.232000	 0.649820
4.250000	 0.810993
4.268000	 0.860414
4.286000	 1.076074
4.304000	 1.321128
4.322000	 1.527766
4.340000	 1.773704
4.358000	 2.099566
4.375999	 2.601991
4.394000	 3.009601
4.412000	 3.489096
4.430000	 4.119114
4.448000	 4.728424
4.466000	 5.387303
4.484000	 6.166661
4.502000	 7.050975
4.520000	 8.057704
4.538000	 8.879173
4.556000	 9.864478
4.574000	 10.9783
4.592000	 12.133
4.609999	 13.1255
4.628000	 14.2698
4.646000	 15.4122
4.664000	 16.5389
4.682000	 17.7986
4.700000	 18.937
4.718000	 20.058
4.736000	 21.1373
4.754000	 22.2181
4.772000	 23.2426
4.790000	 24.2524
4.808000	 25.2174
4.826000	 26.1011
4.843999	 27.036
4.862000	 28.0124
4.880000	 28.525
4.898000	 29.2916
4.916000	 30.0354
4.934000	 30.7106
4.952000	 31.4156
4.970000	 31.9722
4.988000	 32.5272
5.006000	 32.9934
5.024000	 33.5159
5.042000	 33.9625
5.060000	 34.3587
5.077999	 34.8047
5.096000	 35.1943
5.114000	 35.52
5.132000	 35.8451
5.150000	 36.1923
5.168000	 36.4897
5.186000	 36.7154
5.204000	 36.8621
5.222000	 37.1156
5.240000	 37.3894
5.258000	 37.6089
5.276000	 37.7456
5.294000	 37.9304
5.312000	 38.103
5.330000	 38.1569
5.348000	 38.321
5.366000	 38.5294
5.384000	 38.6799
5.402000	 38.7204
5.420000	 38.7949
5.438000	 38.8841
5.456000	 38.992
5.474000	 39.0889
5.492000	 39.2399
5.510000	 39.2476
5.528000	 39.217
5.546000	 39.2324
5.564000	 39.3794
5.582000	 39.4713
5.600000	 39.4297
5.618000	 39.4825
5.636000	 39.65
5.654000	 39.7735
5.672000	 39.7601
5.690000	 39.7901
5.708000	 39.7379
5.726000	 39.6344
5.744000	 39.7018
5.762000	 39.7217
5.780000	 39.7326
5.798000	 39.8826
5.816000	 39.9899
5.834000	 40.0597
5.852000	 40.0244
5.870000	 39.9811
5.888000	 40.0002
5.906000	 40.0395
5.923999	 40.0602
5.942000	 40.08
5.960000	 40.0752
5.978000	 40.0296
5.996000	 40.0438
6.014000	 40.075
6.032000	 39.9966
6.050000	 39.9344
6.068000	 39.9789
6.086000	 40.0823
6.104000	 40.1922
6.122000	 40.2761
6.140000	 40.2845
6.158000	 40.2336
6.176000	 40.1673
6.194000	 40.1203
6.212000	 40.0905
6.230000	 40.1134
6.248000	 40.1431
6.266000	 40.0749
6.284000	 39.9843
6.302000	 39.9656
6.320000	 40.0661
6.338000	 40.1682
6.356000	 40.1833
6.374000	 40.1877
6.392000	 40.2444
6.410000	 40.2887
6.428000	 40.2966
6.446000	 40.2395
6.464000	 40.1327
6.482000	 40.0899
6.500000	 40.1313
6.518000	 40.1585
6.536000	 40.1283
6.554000	 40.1365
6.572000	 40.1471
6.590000	 40.1634
6.608000	 40.1898
6.626000	 40.1521
6.644000	 40.1237
6.662000	 40.139
6.680000	 40.2073
6.698000	 40.2253
6.716000	 40.1417
6.734000	 40.1361
6.752000	 40.1995
6.770000	 40.2063
6.788000	 40.17
6.806000	 40.14
6.824000	 40.0891
6.842000	 40.0187
6.860000	 39.9715
6.878000	 39.9612
6.896000	 39.9671
6.914000	 39.9835
6.932000	 40.0457
6.950000	 40.1873
6.968000	 40.325
6.986000	 40.3152
7.004000	 40.2165
7.022000	 40.1928
7.040000	 40.2444
7.058000	 40.2782
7.076000	 40.2653
7.094000	 40.2185
7.112000	 40.1425
7.130000	 40.0734
7.148000	 40.0574
7.166000	 40.0717
7.184000	 40.0714
7.202000	 40.06
7.220000	 40.0644
7.238000	 40.0909
7.256000	 40.1035
7.274000	 40.0726
7.292000	 40.0177
7.310000	 39.9767
7.328000	 39.9719
7.346000	 40.0055
7.364000	 40.0626
7.382000	 40.1246
7.400000	 40.1775
7.418000	 40.2116
7.436000	 40.2223
7.454000	 40.2186
7.472000	 40.205
7.490000	 40.1719
7.508000	 40.1275
7.526000	 40.0984
7.544000	 40.0885
7.562000	 40.1003
7.580000	 40.1193
7.598000	 40.0799
7.616000	 39.9731
7.634000	 39.8984
7.652000	 39.9064
7.670000	 39.9445
7.688000	 39.9719
7.706000	 39.9919
7.724000	 40.0186
7.742000	 40.0611
7.760000	 40.0955
7.778000	 40.0833
7.796000	 40.0305
7.814000	 39.9741
7.832000	 39.9321
7.850000	 39.9102
7.868000	 39.9075
7.886000	 39.9058
7.904000	 39.8903
7.922000	 39.8752
7.940000	 39.8742
7.958000	 39.8718
7.976000	 39.8497
7.994000	 39.8174
8.012000	 39.7918
8.030000	 39.7724
8.048000	 39.7569
8.065999	 39.7548
8.084000	 39.7727
8.102000	 39.8035
8.120000	 39.8363
8.138000	 39.8624
8.155999	 39.8738
8.173999	 39.8743
8.192000	 39.8755
8.210000	 39.8766
8.228000	 39.8645
8.246000	 39.8381
8.263999	 39.8121
8.282000	 39.8021
8.300000	 39.8156
8.318000	 39.8466
8.336000	 39.8702
8.353999	 39.8616
8.372000	 39.8325
8.390000	 39.8211
8.408000	 39.8388
8.426000	 39.8486
8.443999	 39.8129
8.462000	 39.7464
8.480000	 39.6936
8.498000	 39.6657
8.516000	 39.6368
8.533999	 39.6036
8.552000	 39.6109
8.570000	 39.6899
8.588000	 39.7997
8.606000	 39.862
8.624000	 39.8466
8.641999	 39.7946
8.660000	 39.7624
8.678000	 39.764
8.696000	 39.7746
8.714000	 39.7691
8.731999	 39.7484
8.750000	 39.7357
8.768000	 39.7516
8.786000	 39.7904
8.804000	 39.8193
8.821999	 39.8068
8.840000	 39.751
8.858000	 39.6763
8.876000	 39.6044
8.894000	 39.5396
8.911999	 39.4833
8.930000	 39.4498
8.948000	 39.4553
8.966000	 39.4942
8.984000	 39.5353
9.001999	 39.5481
9.020000	 39.5286
9.038000	 39.498
9.056000	 39.4794
9.074000	 39.4801
9.092000	 39.4948
9.109999	 39.5173
9.128000	 39.5452
9.146000	 39.5739
9.164000	 39.5944
9.182000	 39.5989
9.199999	 39.589
9.218000	 39.574
9.236000	 39.5628
9.254000	 39.5546
9.272000	 39.5397
9.289999	 39.5078
9.308000	 39.4545
9.326000	 39.3859
9.344000	 39.3173
9.362000	 39.267
9.379999	 39.2481
9.398000	 39.2613
9.416000	 39.2956
9.434000	 39.3331
9.452000	 39.3568
9.469999	 39.3569
9.488000	 39.3365
9.506000	 39.3136
9.524000	 39.3143
9.542000	 39.3548
9.560000	 39.4256
9.577999	 39.4944
9.596000	 39.5287
9.614000	 39.5163
9.632000	 39.4724
9.650000	 39.4278
9.667999	 39.4087
9.686000	 39.4199
9.704000	 39.4429
9.722000	 39.4525
9.740000	 39.4354
9.757999	 39.3978
9.776000	 39.3577
9.794000	 39.3317
9.812000	 39.3272
9.830000	 39.3433
9.847999	 39.3752
9.866000	 39.414
9.884000	 39.4455
9.902000	 39.4512
9.920000	 39.4152
9.937999	 39.3341
9.956000	 39.2221
9.974000	 39.1074
9.992000	 39.0201
10.01	38.9786
10.028	38.9799
10.046	39.0014
10.064	39.0141
10.082	38.9992
10.1	38.9579
10.118	38.9098
10.136	38.8778
10.154	38.8723
10.172	38.8862
10.19	38.9006
10.208	38.9003
10.226	38.8843
10.244	38.8646
10.262	38.8551
10.28	38.8625
10.298	38.8842
10.316	38.9143
10.334	38.9487
10.352	38.9838
10.37	39.0136
10.388	39.0285
10.406	39.0193
10.424	38.9852
10.442	38.9365
10.46	38.8883
10.478	38.8532
10.496	38.8356
10.514	38.834
10.532	38.8452
10.55	38.8669
10.568	38.8949
10.586	38.9229
10.604	38.9442
10.622	38.9543
10.64	38.9535
10.658	38.9449
10.676	38.9306
10.694	38.9088
10.712	38.8741
10.73	38.8226
10.748	38.7564
10.766	38.6843
10.784	38.618
10.802	38.5669
10.82	38.5334
10.838	38.5135
10.856	38.4994
10.874	38.483
10.892	38.4601
10.91	38.431
10.928	38.3984
10.946	38.3658
10.964	38.3361
10.982	38.312
11	38.2958
11.018	38.2904
11.036	38.297
11.054	38.3141
11.072	38.3376
11.09	38.3617
11.108	38.3818
11.126	38.3959
11.144	38.4055
11.162	38.4132
11.18	38.4198
11.198	38.423
11.216	38.419
11.234	38.4056
11.252	38.3856
11.27	38.3666
11.288	38.3593
11.306	38.3719
11.324	38.4073
11.342	38.4622
11.36	38.5275
11.378	38.5913
11.396	38.6422
11.414	38.6702
11.432	38.6686
11.45	38.6353
11.468	38.5736
11.486	38.4927
11.504	38.4062
11.522	38.3292
11.54	38.2722
11.558	38.2385
11.576	38.2227
11.594	38.2142
11.612	38.1999
11.63	38.1703
11.648	38.1222
11.666	38.0585
11.684	37.9871
11.702	37.9167
11.72	37.8545
11.738	37.8043
11.756	37.766
11.774	37.7371
11.792	37.7142
11.81	37.6948
11.828	37.6783
11.846	37.6659
11.864	37.6596
11.882	37.6608
11.9	37.6683
11.918	37.6783
11.936	37.685
11.954	37.6829
11.972	37.6681
11.99	37.6408
12.008	37.6049
12.026	37.5657
12.044	37.5293
12.062	37.4998
12.08	37.4789
12.098	37.466
12.116	37.461
12.134	37.4649
12.152	37.481
12.17	37.5132
12.188	37.564
12.206	37.6323
12.224	37.712
12.242	37.7926
12.26	37.8622
12.278	37.9102
12.296	37.9307
12.314	37.9244
12.332	37.8974
12.35	37.86
12.368	37.8228
12.386	37.7935
12.404	37.774
12.422	37.7606
12.44	37.746
12.458	37.7221
12.476	37.6835
12.494	37.6292
12.512	37.5634
12.53	37.4924
12.548	37.4231
12.566	37.3607
12.584	37.3081
12.602	37.2656
12.62	37.2323
12.638	37.2061
12.656	37.1842
12.674	37.1627
12.692	37.1375
12.71	37.1045
12.728	37.0599
12.746	37.0016
12.764	36.9295
12.782	36.8464
12.8	36.7574
12.818	36.6688
12.836	36.5872
12.854	36.5188
12.872	36.4683
12.89	36.4391
12.908	36.433
12.926	36.4511
12.944	36.4927
12.962	36.5554
12.98	36.6348
12.998	36.7248
13.016	36.8179
13.034	36.9066
13.052	36.985
13.07	37.049
13.088	37.0975
13.106	37.1312
13.124	37.1526
13.142	37.1644
13.16	37.1685
13.178	37.1655
13.196	37.1554
13.214	37.1377
13.232	37.1122
13.25	37.0801
13.268	37.0439
13.286	37.0074
13.304	36.9746
13.322	36.9488
13.34	36.9323
13.358	36.9255
13.376	36.9277
13.394	36.9371
13.412	36.9518
13.43	36.9697
13.448	36.9888
13.466	37.0073
13.484	37.0227
13.502	37.0326
13.52	37.0345
13.538	37.0254
13.556	37.0032
13.574	36.9674
13.592	36.9198
13.61	36.864
13.628	36.8054
13.646	36.7507
13.664	36.7063
13.682	36.6769
13.7	36.6643
13.718	36.6671
13.736	36.6804
13.754	36.6967
13.772	36.7081
13.79	36.707
13.808	36.6889
13.826	36.6522
13.844	36.5998
13.862	36.5372
13.88	36.4723
13.898	36.4133
13.916	36.3669
13.934	36.3368
13.952	36.3233
13.97	36.3231
13.988	36.3303
14.006	36.3376
14.024	36.3379
14.042	36.3255
14.06	36.298
14.078	36.2562
14.096	36.2035
14.114	36.1454
14.132	36.0883
14.15	36.0379
14.168	35.9983
14.186	35.9713
14.204	35.9568
14.222	35.9522
14.24	35.9535
14.258	35.9563
14.276	35.9569
14.294	35.9529
14.312	35.9431
14.33	35.9278
14.348	35.9085
14.366	35.8876
14.384	35.8679
14.402	35.8516
14.42	35.8408
14.438	35.8362
14.456	35.8381
14.474	35.846
14.492	35.8587
14.51	35.8747
14.528	35.8926
14.546	35.9109
14.564	35.9283
14.582	35.9441
14.6	35.9574
14.618	35.9679
14.636	35.9757
14.654	35.9818
14.672	35.987
14.69	35.9922
14.708	35.9986
14.726	36.0073
14.744	36.0193
14.762	36.0353
14.78	36.0554
14.798	36.0799
14.816	36.1085
14.834	36.1406
14.852	36.1758
14.87	36.2129
14.888	36.2509
14.906	36.2889
14.924	36.3254
14.942	36.3586
14.96	36.3866
14.978	36.4077
14.996	36.4204
15.014	36.4232
15.032	36.4155
15.05	36.3969
15.068	36.3677
15.086	36.3286
15.104	36.2809
15.122	36.2262
15.14	36.1662
15.158	36.1022
15.176	36.0353
15.194	35.9663
15.212	35.8955
15.23	35.8231
15.248	35.7491
15.266	35.6738
15.284	35.5975
15.302	35.5212
15.32	35.4458
15.338	35.3724
15.356	35.3026
15.374	35.2373
15.392	35.1772
15.41	35.1226
15.428	35.0733
15.446	35.0285
15.464	34.9866
15.482	34.9462
15.5	34.9056
15.518	34.863
15.536	34.8179
15.554	34.7699
15.572	34.7191
15.59	34.6674
15.608	34.6168
15.626	34.5697
15.644	34.5293
15.662	34.4988
15.68	34.4799
15.698	34.4743
15.716	34.4823
15.734	34.5029
15.752	34.5341
15.77	34.5738
15.788	34.6177
15.806	34.6625
15.824	34.7053
15.842	34.7431
15.86	34.7744
15.878	34.7988
15.896	34.8164
15.914	34.8285
15.932	34.8372
15.95	34.844
15.968	34.8511
15.986	34.8595
16.004	34.8692
16.022	34.8795
16.04	34.8889
16.058	34.8952
16.076	34.8963
16.094	34.8891
16.112	34.8712
16.13	34.8417
16.148	34.7997
16.166	34.7464
16.184	34.6834
16.202	34.6126
16.22	34.5383
16.238	34.4636
16.256	34.3918
16.274	34.3272
16.292	34.2717
16.31	34.2271
16.328	34.1949
16.346	34.175
16.364	34.1674
16.382	34.1712
16.4	34.1855
16.418	34.2095
16.436	34.242
16.454	34.2819
16.472	34.3284
16.49	34.38
16.508	34.4353
16.526	34.4931
16.544	34.5509
16.562	34.6064
16.58	34.6578
16.598	34.7021
16.616	34.7383
16.634	34.7649
16.652	34.7811
16.67	34.787
16.688	34.7828
16.706	34.7712
16.724	34.7539
16.742	34.7334
16.76	34.7129
16.778	34.6938
16.796	34.6788
16.814	34.6686
16.832	34.6639
16.85	34.6648
16.868	34.6705
16.886	34.6805
16.904	34.6935
16.922	34.7091
16.94	34.7266
16.958	34.7462
16.976	34.768
16.994	34.7931
17.012	34.8223
17.03	34.856
17.048	34.8945
17.066	34.9372
17.084	34.9832
17.102	35.0293
17.12	35.0742
17.138	35.1132
17.156	35.1437
17.174	35.163
17.192	35.1675
17.21	35.1566
17.228	35.1284
17.246	35.0844
17.264	35.025
17.282	34.9536
17.3	34.8722
17.318	34.7849
17.336	34.6946
17.354	34.6035
17.372	34.5143
17.39	34.4272
17.408	34.3425
17.426	34.2585
17.444	34.1747
17.462	34.0877
17.48	33.9968
17.498	33.8987
17.516	33.7933
17.534	33.6797
17.552	33.5596
17.57	33.4337
17.588	33.3073
17.606	33.1831
17.624	33.0658
17.642	32.9615
17.66	32.8732
17.678	32.8069
17.696	32.7636
17.714	32.7471
17.732	32.7563
17.75	32.7917
17.768	32.8489
17.786	32.9268
17.804	33.0176
17.822	33.119
17.84	33.2222
17.858	33.323
17.876	33.4156
17.894	33.4937
17.912	33.5544
17.93	33.5924
17.948	33.6067
17.966	33.5945
17.984	33.5565
18.002	33.4925
18.02	33.4052
18.038	33.2957
18.056	33.1693
18.074	33.0273
18.092	32.8776
18.11	32.7218
18.128	32.5688
18.146	32.4209
18.164	32.2863
18.182	32.1684
18.2	32.0728
18.218	32.0036
18.236	31.9636
18.254	31.9557
18.272	31.9807
18.29	32.0383
18.308	32.1279
18.326	32.2457
18.344	32.3901
18.362	32.5538
18.38	32.734
18.398	32.9228
18.416	33.1158
18.434	33.3061
18.452	33.4885
18.47	33.6586
18.488	33.8116
18.506	33.945
18.524	34.0565
18.542	34.1452
18.56	34.2115
18.578	34.2554
18.596	34.2802
18.614	34.286
18.632	34.2781
18.65	34.2567
18.668	34.2269
18.686	34.1892
18.704	34.1482
18.722	34.1039
18.74	34.0592
18.758	34.0142
18.776	33.9704
18.794	33.9275
18.812	33.8857
18.83	33.8448
18.848	33.8046
18.866	33.7647
18.884	33.7248
18.902	33.6849
18.92	33.6451
18.938	33.6056
18.956	33.5663
18.974	33.5278
18.992	33.4905
19.01	33.4545
19.028	33.4203
19.046	33.3881
19.064	33.3583
19.082	33.3308
19.1	33.3057
19.118	33.2829
19.136	33.2623
19.154	33.2439
19.172	33.2274
19.19	33.2128
19.208	33.1997
19.226	33.1884
19.244	33.1789
19.262	33.1713
19.28	33.1659
19.298	33.1625
19.316	33.1611
19.334	33.1616
19.352	33.1632
19.37	33.1658
19.388	33.1679
19.406	33.1698
19.424	33.169
19.442	33.1658
19.46	33.1577
19.478	33.1447
19.496	33.1247
19.514	33.0974
19.532	33.0618
19.55	33.0174
19.568	32.9642
19.586	32.9017
19.604	32.8307
19.622	32.7521
19.64	32.6663
19.658	32.5753
19.676	32.479
19.694	32.3804
19.712	32.279
19.73	32.1777
19.748	32.0764
19.766	31.9774
19.784	31.881
19.802	31.7883
19.82	31.7001
19.838	31.6166
19.856	31.5384
19.874	31.4653
19.892	31.3979
19.91	31.336
19.928	31.2798
19.946	31.2293
19.964	31.1846
19.982	31.1456
20	31.1125
20.018	31.0853
20.036	31.064
20.054	31.0486
20.072	31.0391
20.09	31.0355
20.108	31.0377
20.126	31.0451
20.144	31.0577
20.162	31.0747
20.18	31.0959
20.198	31.1205
20.216	31.1473
20.234	31.1765
20.252	31.2063
20.27	31.2371
20.288	31.2677
20.306	31.2978
20.324	31.3275
20.342	31.3564
20.36	31.3849
20.378	31.4131
20.396	31.4409
20.414	31.4696
20.432	31.4988
20.45	31.53
20.468	31.5637
20.486	31.6001
20.504	31.6405
20.522	31.6846
20.54	31.7332
20.558	31.7864
20.576	31.8435
20.594	31.9046
20.612	31.969
20.63	32.0355
20.648	32.1044
20.666	32.1725
20.684	32.2402
20.702	32.305
20.72	32.3652
20.738	32.4205
20.756	32.467
20.774	32.5054
20.792	32.533
20.81	32.5493
20.828	32.5536
20.846	32.5442
20.864	32.5217
20.882	32.4856
20.9	32.4356
20.918	32.3728
20.936	32.2974
20.954	32.21
20.972	32.1131
20.99	32.006
21.008	31.8918
21.026	31.7714
21.044	31.6457
21.062	31.5184
21.08	31.3883
21.098	31.2592
21.116	31.1317
21.134	31.0067
21.152	30.8874
21.17	30.7727
21.188	30.6655
21.206	30.566
21.224	30.4749
21.242	30.3941
21.26	30.3231
21.278	30.2631
21.296	30.2145
21.314	30.1773
21.332	30.1523
21.35	30.1393
21.368	30.1384
21.386	30.1498
21.404	30.1733
21.422	30.2086
21.44	30.2559
21.458	30.314
21.476	30.3826
21.494	30.4613
21.512	30.5483
21.53	30.6441
21.548	30.7465
21.566	30.8539
21.584	30.9669
21.602	31.0817
21.62	31.1993
21.638	31.3173
21.656	31.4328
21.674	31.547
21.692	31.6564
21.71	31.7604
21.728	31.8587
21.746	31.9489
21.764	32.0315
21.782	32.1055
21.8	32.1701
21.818	32.2256
21.836	32.272
21.854	32.3089
21.872	32.337
21.89	32.3568
21.908	32.368
21.926	32.3722
21.944	32.3706
21.962	32.3628
21.98	32.3508
21.998	32.3347
22.016	32.3149
22.034	32.2934
22.052	32.2697
22.07	32.2443
22.088	32.2181
22.106	32.1907
22.124	32.1626
22.142	32.1339
22.16	32.1045
22.178	32.0738
22.196	32.042
22.214	32.0086
22.232	31.9731
22.25	31.9359
22.268	31.896
22.286	31.853
22.304	31.8072
22.322	31.7581
22.34	31.7056
22.358	31.6499
22.376	31.5911
22.394	31.5289
22.412	31.464
22.43	31.3971
22.448	31.3279
22.466	31.2573
22.484	31.1863
22.502	31.1143
22.52	31.0428
22.538	30.9723
22.556	30.9026
22.574	30.8353
22.592	30.7706
22.61	30.7084
22.628	30.6503
22.646	30.5961
22.664	30.546
22.682	30.5007
22.7	30.4601
22.718	30.4241
22.736	30.393
22.754	30.3667
22.772	30.3449
22.79	30.3276
22.808	30.3148
22.826	30.3059
22.844	30.3003
22.862	30.2984
22.88	30.2991
22.898	30.3024
22.916	30.3083
22.934	30.3153
22.952	30.3233
22.97	30.3323
22.988	30.3404
23.006	30.3474
23.024	30.3534
23.042	30.3558
23.06	30.3546
23.078	30.3497
23.096	30.3393
23.114	30.3233
23.132	30.3017
23.15	30.2727
23.168	30.2367
23.186	30.1932
23.204	30.1409
23.222	30.0795
23.24	30.0094
23.258	29.9302
23.276	29.8413
23.294	29.7435
23.312	29.6381
23.33	29.5243
23.348	29.4031
23.366	29.2771
23.384	29.1456
23.402	29.0093
23.42	28.872
23.438	28.7332
23.456	28.5932
23.474	28.4562
23.492	28.3222
23.51	28.191
23.528	28.0664
23.546	27.9491
23.564	27.8382
23.582	27.7363
23.6	27.6447
23.618	27.5622
23.636	27.4897
23.654	27.4277
23.672	27.3759
23.69	27.3338
23.708	27.3013
23.726	27.2785
23.744	27.2645
23.762	27.2582
23.78	27.2608
23.798	27.2702
23.816	27.2847
23.834	27.3055
23.852	27.3311
23.87	27.3587
23.888	27.389
23.906	27.4218
23.924	27.4558
23.942	27.4905
23.96	27.5265
23.978	27.5638
23.996	27.6022
24.014	27.6417
24.032	27.6836
24.05	27.7283
24.068	27.7752
24.086	27.8256
24.104	27.8807
24.122	27.9397
24.14	28.0032
24.158	28.072
24.176	28.1465
24.194	28.2259
24.212	28.3093
24.23	28.3971
24.248	28.4893
24.266	28.5835
24.284	28.6792
24.302	28.7779
24.32	28.8758
24.338	28.9694
24.356	29.0621
24.374	29.1501
24.392	29.2275
24.41	29.2965
24.428	29.3561
24.446	29.3996
24.464	29.4241
24.482	29.4328
24.5	29.4223
24.518	29.3896
24.536	29.3367
24.554	29.2626
24.572	29.1652
24.59	29.0451
24.608	28.9024
24.626	28.7357
24.644	28.5439
24.662	28.3276
24.68	28.0883
24.698	27.8271
24.716	27.5421
24.734	27.2361
24.752	26.913
24.77	26.5713
24.788	26.211
24.806	25.8395
24.824	25.4607
24.842	25.0682
24.86	24.6716
24.878	24.2823
24.896	23.8957
24.914	23.5133
24.932	23.1462
24.95	22.8001
24.968	22.4685
24.986	22.158
25.004	21.8759
25.022	21.6199
25.04	21.3897
25.058	21.1887
25.076	21.0189
25.094	20.8787
25.112	20.7674
25.13	20.6844
25.148	20.6329
25.166	20.6091
25.184	20.6063
25.202	20.6229
25.22	20.6635
25.238	20.7187
25.256	20.7787
25.274	20.8511
25.292	20.9313
25.31	21.0053
25.328	21.0657
25.346	21.1231
25.364	21.1653
25.382	21.1782
25.4	21.1668
25.418	21.1317
25.436	21.0591
25.454	20.9388
25.472	20.7805
25.49	20.5779
25.508	20.321
25.526	20.0047
25.544	19.6343
25.562	19.2131
25.58	18.7437
25.598	18.218
25.616	17.6443
25.634	17.0383
25.652	16.4064
25.67	15.7334
25.688	15.041
25.706	14.3546
25.724	13.6701
25.742	12.9793
25.76	12.3112
25.778	11.6924
25.796	11.1087
25.814	10.5625
25.832	10.0698
25.85	9.642021
25.868	9.268381
25.886	8.953273
25.904	8.703597
25.922	8.525766
25.94	8.416097
25.958	8.364382
25.976	8.360612
25.994	8.410400
26.012	8.512741
26.03	8.655795
26.048	8.828621
26.066	9.033284
26.084	9.273879
26.102	9.552734
26.12	9.869581
26.138	10.2187
26.156	10.6095
26.174	11.053
26.192	11.5449
26.21	12.0741
26.228	12.6711
26.246	13.3675
26.264	14.1625
26.282	15.0425
26.3	16.0269
26.318	17.1353
26.336	18.3705
26.354	19.7219
26.372	21.1821
26.39	22.7457
26.408	24.4373
26.426	26.2342
26.444	28.0955
26.462	29.9918
26.48	31.9832
26.498	34.0178
26.516	36.0125
26.534	37.9116
26.552	39.7977
26.57	41.6107
26.588	43.2617
26.606	44.6968
26.624	45.9933
26.642	47.101
26.66	47.9513
26.678	48.5033
26.696	48.8075
26.714	48.8447
26.732	48.5875
26.75	48.0098
26.768	47.1176
26.786	45.9463
26.804	44.5322
26.822	42.88
26.84	40.9476
26.858	38.7997
26.876	36.5078
26.894	34.0938
26.912	31.4873
26.93	28.7679
26.948	26.0252
26.966	23.1905
26.984	20.0223
27.002	16.9935
27.02	14.6245
27.028	13.9906