File: Bakgrunnsmateriale/MATLAB/FTIR/ftir_data/LPE454/Mapping_121/LPE454_e126_cm-1.asc
PE IR       SPECTRUM    SPECTRUM    ASCII       PEDS        1.60
  -1
LP091C~1.ASC
17/05/19
21:39:18.00
17/05/19
21:39:18.00
tln
$LPE454_e0126$<ebV0>[-23.3,12.1,10.0,0.0,27,1,0]
370
64

2002,4.07
MIRTGS : RIGHTBACK : INTERNAL 2
MIR : ON : INTERNAL 2
OPTKBR

0.200000
8
8.000000
FILLER
SINGLE
SPECTRUM
UNLOCKED 256

DOUBLE

COMBINED
1
0
0

1.000000
BACKG

1
0
TRUE
51149
0
LEFT NOT FITTED RIGHT NOT FITTED 0
NONE
NONE
15600
12
4.427000
51148
TRUE
1 0 8 72 0 0 0 0

15798

#HDR
-1
-1
#GR
CM-1
EGY
2.38419e-05
0.0
5000
-1.000000
4631
8
2.426052
0.005221
#DATA
5000	0.768780
4996	0.770330
4992	0.772929
4988	0.775361
4984	0.775575
4980	0.776028
4976	0.779342
4972	0.782418
4968	0.783681
4964	0.785446
4960	0.788235
4956	0.791168
4952	0.792884
4948	0.792908
4944	0.793194
4940	0.794053
4936	0.795888
4932	0.798559
4928	0.799512
4924	0.799393
4920	0.801086
4916	0.803756
4912	0.804948
4908	0.806236
4904	0.809240
4900	0.812292
4896	0.815248
4892	0.817036
4888	0.816416
4884	0.816607
4880	0.818800
4876	0.820779
4872	0.821638
4868	0.822710
4864	0.825214
4860	0.828647
4856	0.830864
4852	0.831174
4848	0.831985
4844	0.835371
4840	0.839304
4836	0.841903
4832	0.844478
4828	0.847983
4824	0.851917
4820	0.855731
4816	0.858545
4812	0.859999
4808	0.862479
4804	0.865888
4800	0.868415
4796	0.870752
4792	0.873303
4788	0.876426
4784	0.879192
4780	0.879931
4776	0.880765
4772	0.883841
4768	0.887274
4764	0.889110
4760	0.891280
4756	0.893568
4752	0.894522
4748	0.895023
4744	0.896143
4740	0.898075
4736	0.899744
4732	0.901269
4728	0.902605
4724	0.903344
4720	0.904440
4716	0.905942
4712	0.907683
4708	0.908613
4704	0.908541
4700	0.909209
4696	0.909805
4692	0.910782
4688	0.911569
4684	0.908541
4680	0.904369
4676	0.904464
4672	0.908875
4668	0.911951
4664	0.912141
4660	0.912833
4656	0.913238
4652	0.912570
4648	0.912189
4644	0.915336
4640	0.918841
4636	0.920248
4632	0.922799
4628	0.925588
4624	0.924491
4620	0.925374
4616	0.935721
4612	0.944828
4608	0.943183
4604	0.942826
4600	0.943589
4596	0.939297
4592	0.896883
4588	0.748348
4584	0.719833
4580	0.918722
4576	1.012372
4572	0.971817
4568	0.953173
4564	0.952720
4560	0.962257
4556	0.966954
4552	0.961303
4548	0.961160
4544	0.971436
4540	0.979185
4536	0.981402
4532	0.983881
4528	0.986957
4524	0.988554
4520	0.988101
4516	0.990223
4512	0.996518
4508	0.999402
4504	0.997066
4500	0.996232
4496	0.998616
4492	1.002669
4488	1.007080
4484	1.008701
4480	1.007938
4476	1.007556
4472	1.007962
4468	1.009035
4464	1.010465
4460	1.011681
4456	1.011943
4452	1.012396
4448	1.013660
4444	1.013898
4440	1.013159
4436	1.013541
4432	1.015448
4428	1.017594
4424	1.018953
4420	1.018810
4416	1.018166
4412	1.019191
4408	1.021575
4404	1.023364
4400	1.023793
4396	1.023888
4392	1.024293
4388	1.025509
4384	1.028203
4380	1.031327
4376	1.034355
4372	1.037120
4368	1.039409
4364	1.042246
4360	1.046371
4356	1.050424
4352	1.053190
4348	1.056122
4344	1.060175
4340	1.064229
4336	1.069164
4332	1.074457
4328	1.078724
4324	1.082324
4320	1.086139
4316	1.091265
4312	1.096868
4308	1.101994
4304	1.106238
4300	1.110553
4296	1.116442
4292	1.122665
4288	1.128268
4284	1.132512
4280	1.135444
4276	1.138806
4272	1.144027
4268	1.149320
4264	1.152443
4260	1.155424
4256	1.159763
4252	1.163482
4248	1.166534
4244	1.169085
4240	1.171088
4236	1.173853
4232	1.177930
4228	1.181578
4224	1.182389
4220	1.182270
4216	1.184248
4212	1.187944
4208	1.190614
4204	1.191425
4200	1.191759
4196	1.192760
4192	1.195693
4188	1.199364
4184	1.202487
4180	1.204895
4176	1.206064
4172	1.206946
4168	1.208281
4164	1.209807
4160	1.213407
4156	1.218867
4152	1.221370
4148	1.222205
4144	1.222944
4140	1.221728
4136	1.222610
4132	1.225924
4128	1.231813
4124	1.242446
4120	1.252317
4116	1.252031
4112	1.244735
4108	1.249003
4104	1.257658
4100	1.252436
4096	1.254701
4092	1.277971
4088	1.294755
4084	1.293849
4080	1.292037
4076	1.295590
4072	1.300120
4068	1.301026
4064	1.303195
4060	1.311230
4056	1.318836
4052	1.325583
4048	1.333761
4044	1.340317
4040	1.343393
4036	1.346516
4032	1.352953
4028	1.360464
4024	1.365232
4020	1.366901
4016	1.368403
4012	1.371788
4008	1.376962
4004	1.382970
4000	1.388859
3996	1.391983
3992	1.392388
3988	1.394414
3984	1.398086
3980	1.400518
3976	1.402068
3972	1.403641
3968	1.404953
3964	1.406788
3960	1.409101
3956	1.410388
3952	1.411366
3948	1.412487
3944	1.413512
3940	1.415133
3936	1.415896
3932	1.415276
3928	1.415872
3924	1.418495
3920	1.421689
3916	1.424884
3912	1.426267
3908	1.423859
3904	1.420879
3900	1.423239
3896	1.428413
3892	1.428771
3888	1.426672
3884	1.428914
3880	1.434779
3876	1.436543
3872	1.434803
3868	1.437163
3864	1.442837
3860	1.443099
3856	1.436376
3852	1.439213
3848	1.453804
3844	1.460433
3840	1.458144
3836	1.460385
3832	1.469373
3828	1.477742
3824	1.481056
3820	1.481604
3816	1.486253
3812	1.495695
3808	1.501297
3804	1.502728
3800	1.507854
3796	1.517152
3792	1.525044
3788	1.529502
3784	1.532626
3780	1.535534
3776	1.538729
3772	1.541161
3768	1.542663
3764	1.545000
3760	1.545667
3756	1.540064
3752	1.531958
3748	1.530027
3744	1.537656
3740	1.546955
3736	1.550126
3732	1.554393
3728	1.561141
3724	1.564717
3720	1.565861
3716	1.563286
3712	1.560997
3708	1.565170
3704	1.569795
3700	1.570940
3696	1.569056
3692	1.562786
3688	1.561021
3684	1.565670
3680	1.563334
3676	1.555252
3672	1.554298
3668	1.562142
3664	1.569676
3660	1.569366
3656	1.564407
3652	1.559877
3648	1.560497
3644	1.566481
3640	1.570081
3636	1.569175
3632	1.565623
3628	1.564884
3624	1.569080
3620	1.572322
3616	1.573610
3612	1.574373
3608	1.577854
3604	1.583600
3600	1.585340
3596	1.585268
3592	1.586985
3588	1.589155
3584	1.592016
3580	1.594638
3576	1.595997
3572	1.596283
3568	1.596426
3564	1.600909
3560	1.607847
3556	1.609826
3552	1.608085
3548	1.608014
3544	1.609802
3540	1.611423
3536	1.613020
3532	1.614451
3528	1.615452
3524	1.616930
3520	1.617980
3516	1.617574
3512	1.617312
3508	1.616930
3504	1.616120
3500	1.616573
3496	1.615834
3492	1.611971
3488	1.607584
3484	1.604175
3480	1.602673
3476	1.602053
3472	1.599264
3468	1.596188
3464	1.595520
3460	1.595330
3456	1.593232
3452	1.588964
3448	1.584601
3444	1.581478
3440	1.578211
3436	1.575756
3432	1.575732
3428	1.575851
3424	1.575160
3420	1.575469
3416	1.577520
3412	1.579117
3408	1.580381
3404	1.582980
3400	1.585817
3396	1.588726
3392	1.591420
3388	1.593351
3384	1.595640
3380	1.598834
3376	1.603078
3372	1.607489
3368	1.611614
3364	1.616930
3360	1.622414
3356	1.626920
3352	1.631546
3348	1.637744
3344	1.644635
3340	1.650905
3336	1.656699
3332	1.662540
3328	1.669597
3324	1.676964
3320	1.684093
3316	1.690602
3312	1.695489
3308	1.699519
3304	1.703357
3300	1.707935
3296	1.713395
3292	1.718258
3288	1.723289
3284	1.728701
3280	1.732850
3276	1.737260
3272	1.743292
3268	1.749134
3264	1.753473
3260	1.755475
3256	1.755905
3252	1.758408
3248	1.762652
3244	1.765584
3240	1.767706
3236	1.769685
3232	1.770830
3228	1.771855
3224	1.773571
3220	1.774501
3216	1.774454
3212	1.774740
3208	1.775312
3204	1.775240
3200	1.775979
3196	1.778244
3192	1.779794
3188	1.780557
3184	1.781272
3180	1.782274
3176	1.784133
3172	1.785278
3168	1.786136
3164	1.788759
3160	1.791548
3156	1.792907
3152	1.795339
3148	1.800346
3144	1.805567
3140	1.808857
3136	1.810622
3132	1.812982
3128	1.817202
3124	1.822900
3120	1.828598
3116	1.834034
3112	1.839733
3108	1.845264
3104	1.850485
3100	1.857233
3096	1.866030
3092	1.874995
3088	1.884508
3084	1.893949
3080	1.901507
3076	1.907491
3072	1.911854
3068	1.915097
3064	1.919174
3060	1.925611
3056	1.933884
3052	1.942348
3048	1.949453
3044	1.954293
3040	1.958250
3036	1.961684
3032	1.962661
3028	1.958298
3024	1.949453
3020	1.943325
3016	1.948142
3012	1.965284
3008	1.986122
3004	2.000570
3000	2.008366
2996	2.014160
2992	2.018046
2988	2.017498
2984	2.012085
2980	2.003550
2976	1.991009
2972	1.972031
2968	1.948428
2964	1.926732
2960	1.913356
2956	1.908898
2952	1.905941
2948	1.894831
2944	1.870727
2940	1.836085
2936	1.800560
2932	1.771306
2928	1.751756
2924	1.754903
2920	1.789426
2916	1.839852
2912	1.883959
2908	1.913881
2904	1.933002
2900	1.947307
2896	1.960039
2892	1.972293
2888	1.982760
2884	1.989436
2880	1.991343
2876	1.986050
2872	1.968669
2868	1.936507
2864	1.901817
2860	1.889729
2856	1.910543
2852	1.950216
2848	1.991295
2844	2.025485
2840	2.050805
2836	2.069067
2832	2.083730
2828	2.097940
2824	2.111887
2820	2.122831
2816	2.131175
2812	2.139425
2808	2.147483
2804	2.154731
2800	2.160978
2796	2.166914
2792	2.173733
2788	2.181267
2784	2.190327
2780	2.200579
2776	2.208757
2772	2.214455
2768	2.219653
2764	2.224469
2760	2.228140
2756	2.230691
2752	2.232503
2748	2.234292
2744	2.236652
2740	2.238106
2736	2.238202
2732	2.238273
2728	2.239632
2724	2.241253
2720	2.241110
2716	2.238893
2712	2.236032
2708	2.233147
2704	2.231121
2700	2.229809
2696	2.227950
2692	2.226042
2688	2.224349
2684	2.221584
2680	2.218866
2676	2.216672
2672	2.214431
2668	2.212262
2664	2.209472
2660	2.206015
2656	2.202725
2652	2.200698
2648	2.200245
2644	2.200293
2640	2.200865
2636	2.200484
2632	2.198934
2628	2.198839
2624	2.199769
2620	2.200722
2616	2.202725
2612	2.204227
2608	2.203941
2604	2.203822
2600	2.205157
2596	2.207064
2592	2.208876
2588	2.212023
2584	2.217698
2580	2.225065
2576	2.231884
2572	2.237510
2568	2.243518
2564	2.250027
2560	2.256250
2556	2.262234
2552	2.267479
2548	2.271318
2544	2.274656
2540	2.278327
2536	2.281546
2532	2.284383
2528	2.287745
2524	2.291941
2520	2.296209
2516	2.299880
2512	2.302050
2508	2.303433
2504	2.305126
2500	2.305984
2496	2.305984
2492	2.306294
2488	2.305984
2484	2.304458
2480	2.301788
2476	2.298736
2472	2.297377
2468	2.296400
2464	2.293348
2460	2.289342
2456	2.285361
2452	2.280950
2448	2.276635
2444	2.272295
2440	2.267551
2436	2.263689
2432	2.260398
2428	2.256298
2424	2.252483
2420	2.250266
2416	2.248239
2412	2.243757
2408	2.238273
2404	2.235794
2400	2.235126
2396	2.232789
2392	2.229905
2388	2.228951
2384	2.228116
2380	2.225852
2376	2.222108
2372	2.216362
2368	2.211117
2364	2.209210
2360	2.212190
2356	2.220034
2352	2.229309
2348	2.235817
2344	2.238345
2340	2.239942
2336	2.244043
2332	2.251338
2328	2.260613
2324	2.269482
2320	2.277231
2316	2.285170
2312	2.292418
2308	2.299284
2304	2.307271
2300	2.314400
2296	2.319574
2292	2.324628
2288	2.329301
2284	2.332782
2280	2.336478
2276	2.341032
2272	2.345299
2268	2.347922
2264	2.348732
2260	2.350258
2256	2.352786
2252	2.354145
2248	2.354073
2244	2.354097
2240	2.355003
2236	2.355241
2232	2.354049
2228	2.352046
2224	2.349972
2220	2.347874
2216	2.345061
2212	2.341842
2208	2.338743
2204	2.335524
2200	2.332448
2196	2.329516
2192	2.326011
2188	2.322649
2184	2.319359
2180	2.315902
2176	2.313828
2172	2.311611
2168	2.308058
2164	2.305030
2160	2.303957
2156	2.305078
2152	2.306628
2148	2.306723
2144	2.305769
2140	2.304601
2136	2.304673
2132	2.305674
2128	2.306699
2124	2.309155
2120	2.310514
2116	2.309274
2112	2.308845
2108	2.309870
2104	2.309608
2100	2.308368
2096	2.307319
2092	2.306175
2088	2.306866
2084	2.310609
2080	2.316260
2076	2.323698
2072	2.331781
2068	2.338957
2064	2.345848
2060	2.352499
2056	2.359986
2052	2.369642
2048	2.378463
2044	2.385091
2040	2.392148
2036	2.398824
2032	2.404022
2028	2.408385
2024	2.410650
2020	2.411746
2016	2.415037
2012	2.419471
2008	2.422428
2004	2.424550
2000	2.425980
1996	2.425432
1992	2.424120
1988	2.423381
1984	2.422046
1980	2.419185
1976	2.415156
1972	2.410984
1968	2.407598
1964	2.404928
1960	2.401995
1956	2.397727
1952	2.393412
1948	2.389311
1944	2.385282
1940	2.382707
1936	2.380704
1932	2.377271
1928	2.372527
1924	2.367472
1920	2.362418
1916	2.357530
1912	2.353620
1908	2.350449
1904	2.346944
1900	2.342677
1896	2.338910
1892	2.337479
1888	2.338814
1884	2.341413
1880	2.343535
1876	2.344655
1872	2.344989
1868	2.345871
1864	2.348279
1860	2.351546
1856	2.354979
1852	2.358293
1848	2.359175
1844	2.360081
1840	2.365922
1836	2.372121
1832	2.373790
1828	2.374792
1824	2.379441
1820	2.385759
1816	2.390909
1812	2.394986
1808	2.398729
1804	2.399969
1800	2.398133
1796	2.394175
1792	2.391886
1788	2.393770
1784	2.394938
1780	2.392601
1776	2.385258
1772	2.378249
1768	2.379417
1764	2.380585
1760	2.375197
1756	2.364993
1752	2.352285
1748	2.341604
1744	2.330851
1740	2.313208
1736	2.293324
1732	2.287364
1728	2.293705
1724	2.290511
1720	2.274537
1716	2.265763
1712	2.267932
1708	2.261662
1704	2.240681
1700	2.220249
1696	2.218246
1692	2.225136
1688	2.216792
1684	2.204847
1680	2.205133
1676	2.202510
1672	2.193951
1668	2.187347
1664	2.181625
1660	2.169299
1656	2.143406
1652	2.124786
1648	2.126693
1644	2.129912
1640	2.121639
1636	2.108955
1632	2.102589
1628	2.093577
1624	2.074050
1620	2.045845
1616	2.009105
1612	1.971077
1608	1.947021
1604	1.948714
1600	1.965808
1596	1.981234
1592	1.988792
1588	1.987838
1584	1.979851
1580	1.965212
1576	1.952910
1572	1.950097
1568	1.945233
1564	1.923251
1560	1.896977
1556	1.899528
1552	1.921439
1548	1.928639
1544	1.925158
1540	1.946043
1536	1.999831
1532	2.051687
1528	2.075529
1524	2.076935
1520	2.073645
1516	2.071237
1512	2.059578
1508	2.030563
1504	1.963829
1500	1.824212
1496	1.677465
1492	1.660370
1488	1.765370
1484	1.876640
1480	1.933884
1476	1.946568
1472	1.943683
1468	1.933884
1464	1.906776
1460	1.851916
1456	1.779317
1452	1.736569
1448	1.758909
1444	1.808929
1440	1.834416
1436	1.840376
1432	1.844453
1428	1.844811
1424	1.838302
1420	1.827740
1416	1.816344
1412	1.791024
1408	1.743984
1404	1.705574
1400	1.707959
1396	1.739811
1392	1.765251
1388	1.765561
1384	1.760530
1380	1.769995
1376	1.781630
1372	1.787328
1368	1.790714
1364	1.791954
1360	1.792454
1356	1.792049
1352	1.789975
1348	1.788091
1344	1.787805
1340	1.791596
1336	1.801228
1332	1.812362
1328	1.819777
1324	1.823282
1320	1.825118
1316	1.827192
1312	1.829314
1308	1.829385
1304	1.827979
1300	1.827812
1296	1.829338
1292	1.830387
1288	1.830077
1284	1.828241
1280	1.821923
1276	1.807689
1272	1.780176
1268	1.737332
1264	1.699161
1260	1.698040
1256	1.733660
1252	1.773357
1248	1.797723
1244	1.809310
1240	1.813340
1236	1.811718
1232	1.806187
1228	1.799082
1224	1.790666
1220	1.777696
1216	1.758885
1212	1.739549
1208	1.728010
1204	1.724982
1200	1.725411
1196	1.725125
1192	1.721191
1188	1.713395
1184	1.703453
1180	1.692795
1176	1.681303
1172	1.667618
1168	1.649379
1164	1.628303
1160	1.610207
1156	1.599001
1152	1.592922
1148	1.587367
1144	1.579952
1140	1.569914
1136	1.556634
1132	1.540708
1128	1.522850
1124	1.503419
1120	1.482844
1116	1.461243
1112	1.440215
1108	1.424312
1104	1.416039
1100	1.411962
1096	1.409745
1092	1.409959
1088	1.411628
1084	1.412534
1080	1.411485
1076	1.411318
1072	1.415801
1068	1.420927
1064	1.420331
1060	1.404333
1056	1.355600
1052	1.297736
1048	1.292943
1044	1.335000
1040	1.364707
1036	1.368451
1032	1.361536
1028	1.352167
1024	1.346039
1020	1.345944
1016	1.352286
1012	1.362133
1008	1.370787
1004	1.377820
1000	1.382517
996	 1.382613
992	 1.379108
988	 1.373696
984	 1.366615
980	 1.358771
976	 1.350259
972	 1.339936
968	 1.327514
964	 1.313853
960	 1.300024
956	 1.286482
952	 1.273298
948	 1.261305
944	 1.251339
940	 1.243782
936	 1.236510
932	 1.227641
928	 1.218390
924	 1.209950
920	 1.200056
916	 1.187086
912	 1.172256
908	 1.158857
904	 1.148867
900	 1.141142
896	 1.134610
892	 1.125788
888	 1.107716
884	 1.075839
880	 1.039099
876	 1.018404
872	 1.025462
868	 1.048994
864	 1.069378
860	 1.079273
856	 1.080465
852	 1.076054
848	 1.070451
844	 1.063275
840	 1.047849
836	 1.014518
832	 0.952124
828	 0.874733
824	 0.835466
820	 0.860905
816	 0.908160
812	 0.933241
808	 0.937867
804	 0.936532
800	 0.936698
796	 0.942349
792	 0.952649
788	 0.962495
784	 0.968003
780	 0.969600
776	 0.968003
772	 0.964260
768	 0.960612
764	 0.957393
760	 0.953412
756	 0.949215
752	 0.945115
748	 0.940227
744	 0.934433
740	 0.926494
736	 0.916767
732	 0.906491
728	 0.894308
724	 0.880956
720	 0.869154
716	 0.857806
712	 0.845885
708	 0.834631
704	 0.821518
700	 0.805068
696	 0.783872
692	 0.754594
688	 0.728893
684	 0.721907
680	 0.723958
676	 0.721716
672	 0.715589
668	 0.706577
664	 0.697040
660	 0.689029
656	 0.680375
652	 0.669622
648	 0.657939
644	 0.646901
640	 0.636219
636	 0.625181
632	 0.614500
628	 0.604462
624	 0.594305
620	 0.583362
616	 0.569677
612	 0.550675
608	 0.530815
604	 0.519871
600	 0.518298
596	 0.516581
592	 0.510859
588	 0.504612
584	 0.499963
580	 0.495934
576	 0.492501
572	 0.489997
568	 0.486731
564	 0.481367
560	 0.474119
556	 0.466489
552	 0.459146
548	 0.451970
544	 0.444531
540	 0.436615
536	 0.429582
532	 0.422573
528	 0.413703
524	 0.403356
520	 0.393104
516	 0.384235
512	 0.375890
508	 0.365495
504	 0.356507
500	 0.350213
496	 0.337338
492	 0.318837
488	 0.303602
484	 0.290513
480	 0.276255
476	 0.262665
472	 0.251436
468	 0.240993
464	 0.227379
460	 0.210452
456	 0.194644
452	 0.179576
448	 0.164914
444	 0.153732
440	 0.145220
436	 0.136232
432	 0.124549
428	 0.111126
424	 0.097489
420	 0.084400
416	 0.073242
412	 0.063085
408	 0.053882
404	 0.046348
400	 0.038170
396	 0.029993
392	 0.024771
388	 0.022172
384	 0.019311
380	 0.013947
376	 0.007867
372	 0.005221
370	 0.005602