File: Bakgrunnsmateriale/MATLAB/FTIR/ftir_data/LPE454/Mapping_121/LPE454_t19.asc
PE IR       SPECTRUM    SPECTRUM    ASCII       PEDS        1.60
  -1
LPE798~1.ASC
17/05/19
15:52:57.00
17/05/19
15:53:24.00
tln
$LPE454_t0019$<tbV0>[-5.2,-10.4,8.0,0.0,27,1,0]
27.028
64

2002,4.07
MIRTGS : RIGHTBACK : INTERNAL 2
MIR : ON : INTERNAL 2
OPTKBR

0.200000
8
8.000000
FILLER
RATIO
SPECTRUM
UNLOCKED 256

DOUBLE
64
COMBINED
1
0
0

0.002000
RATIO

1
0
TRUE
51149
0
LEFT NOT FITTED RIGHT NOT FITTED 0
NONE
NONE
15600
12
4.427000
51148
TRUE
1 0 8 72 0 0 0 0

15798

#HDR
-1
-1
#GR
µM
%T
2.38419e-05
0.0
2.000000
0.002000
12515
8
32.4759
-15.1128
#DATA
2.000000	 0.212788
2.018000	 0.557726
2.036000	 -0.041608
2.054000	 0.427319
2.072000	 0.333697
2.090000	 0.641681
2.108000	 0.332868
2.126000	 0.120081
2.144000	 0.758595
2.162000	 -1.165451
2.180000	 0.614031
2.198000	 0.394439
2.216000	 4.170218
2.234000	 -0.612334
2.252000	 -0.073106
2.270000	 0.238261
2.288000	 0.388523
2.306000	 0.242069
2.324000	 0.456315
2.342000	 -0.230531
2.360000	 0.004506
2.378000	 0.290717
2.396000	 1.070640
2.414000	 0.166833
2.432000	 0.143612
2.450000	 -0.008394
2.468000	 0.263531
2.486000	 -0.098171
2.504000	 -0.092971
2.522000	 0.002147
2.540000	 0.044521
2.558000	 -0.006898
2.576000	 0.030825
2.594000	 -0.059967
2.612000	 -0.014294
2.630000	 0.102644
2.648000	 0.075441
2.666000	 -0.033413
2.684000	 0.036098
2.702000	 0.191124
2.720000	 -0.051482
2.738000	 0.097295
2.756000	 0.091022
2.774000	 0.162483
2.792000	 -0.124390
2.810000	 0.106042
2.828000	 -0.023347
2.846000	 0.155386
2.864000	 0.008183
2.882000	 -0.103501
2.900000	 0.077020
2.918000	 0.031554
2.936000	 0.217567
2.954000	 0.190772
2.972000	 -0.052521
2.990000	 0.101129
3.008000	 -0.023452
3.026000	 -0.128263
3.044000	 0.113616
3.062000	 0.074237
3.080000	 0.031719
3.098000	 -0.099742
3.116000	 -0.076345
3.134000	 0.046454
3.152000	 -0.075868
3.170000	 0.033131
3.188000	 0.015396
3.206000	 0.161049
3.224000	 -0.117922
3.242000	 0.004688
3.260000	 -0.009390
3.278000	 0.013526
3.296000	 0.049729
3.314000	 -0.052185
3.332000	 -0.061828
3.350000	 -0.007008
3.368000	 -0.018336
3.386000	 0.059176
3.404000	 0.259941
3.422000	 -0.046491
3.440000	 -0.008351
3.458000	 0.024407
3.476000	 0.032266
3.494000	 0.111752
3.512000	 0.099484
3.530000	 0.065326
3.548000	 0.040541
3.566000	 0.040366
3.584000	 0.081139
3.602000	 0.008145
3.620000	 -0.016343
3.638000	 0.017590
3.656000	 -0.018866
3.674000	 0.107691
3.692000	 0.042874
3.710000	 0.016575
3.728000	 -0.004192
3.746000	 0.011139
3.764000	 0.016889
3.782000	 0.067796
3.800000	 0.090007
3.818000	 0.123004
3.836000	 0.040366
3.854000	 -0.155970
3.872000	 -0.010116
3.890000	 -0.063520
3.908000	 -0.039793
3.926000	 0.012798
3.944000	 0.105305
3.962000	 -0.007924
3.980000	 0.171706
3.998000	 0.158889
4.016000	 -0.173773
4.034000	 -0.009189
4.052000	 -0.015522
4.070000	 0.068302
4.088000	 -0.137418
4.106000	 -0.015548
4.124000	 -0.053032
4.141999	 0.099242
4.160000	 -0.294221
4.178000	 0.022788
4.196000	 0.016592
4.214000	 0.137269
4.232000	 0.156022
4.250000	 0.161266
4.268000	 0.225857
4.286000	 0.338123
4.304000	 0.342861
4.322000	 0.473640
4.340000	 0.451177
4.358000	 0.600409
4.375999	 0.807548
4.394000	 1.069567
4.412000	 1.232225
4.430000	 1.655523
4.448000	 2.009094
4.466000	 2.300788
4.484000	 2.704221
4.502000	 3.139408
4.520000	 3.666366
4.538000	 4.230512
4.556000	 4.943352
4.574000	 5.657944
4.592000	 6.272824
4.609999	 6.996994
4.628000	 7.979074
4.646000	 8.709169
4.664000	 9.702571
4.682000	 10.4507
4.700000	 11.2836
4.718000	 12.1405
4.736000	 12.9598
4.754000	 13.8579
4.772000	 14.6011
4.790000	 15.5041
4.808000	 16.3056
4.826000	 16.9962
4.843999	 17.812
4.862000	 18.6387
4.880000	 19.3385
4.898000	 20.0581
4.916000	 20.586
4.934000	 21.1103
4.952000	 21.8502
4.970000	 22.4963
4.988000	 22.9303
5.006000	 23.4625
5.024000	 23.7903
5.042000	 24.2099
5.060000	 24.5175
5.077999	 24.9247
5.096000	 25.3622
5.114000	 25.8441
5.132000	 26.206
5.150000	 26.4434
5.168000	 26.6191
5.186000	 26.6452
5.204000	 26.8582
5.222000	 27.2833
5.240000	 27.6855
5.258000	 27.9468
5.276000	 28.1691
5.294000	 28.2926
5.312000	 28.3235
5.330000	 28.3014
5.348000	 28.3685
5.366000	 28.5503
5.384000	 28.8607
5.402000	 29.1113
5.420000	 29.3054
5.438000	 29.4941
5.456000	 29.5246
5.474000	 29.4143
5.492000	 29.4094
5.510000	 29.3951
5.528000	 29.4793
5.546000	 29.7668
5.564000	 29.9332
5.582000	 30.1467
5.600000	 30.3586
5.618000	 30.3034
5.636000	 30.23
5.654000	 30.232
5.672000	 30.0831
5.690000	 30.0334
5.708000	 30.2403
5.726000	 30.4286
5.744000	 30.6665
5.762000	 30.887
5.780000	 30.8138
5.798000	 30.7786
5.816000	 30.8672
5.834000	 30.5574
5.852000	 30.1966
5.870000	 30.3244
5.888000	 30.6047
5.906000	 30.6367
5.923999	 30.7949
5.942000	 31.0789
5.960000	 31.1889
5.978000	 31.2616
5.996000	 31.209
6.014000	 31.0219
6.032000	 30.9019
6.050000	 30.9486
6.068000	 30.8533
6.086000	 30.7306
6.104000	 30.8332
6.122000	 31.0418
6.140000	 31.253
6.158000	 31.4385
6.176000	 31.501
6.194000	 31.4334
6.212000	 31.342
6.230000	 31.1595
6.248000	 30.9765
6.266000	 30.9619
6.284000	 30.939
6.302000	 30.9108
6.320000	 30.9746
6.338000	 31.1565
6.356000	 31.3698
6.374000	 31.5115
6.392000	 31.6407
6.410000	 31.793
6.428000	 31.7916
6.446000	 31.638
6.464000	 31.4851
6.482000	 31.393
6.500000	 31.2606
6.518000	 31.0782
6.536000	 30.9668
6.554000	 31.0022
6.572000	 31.1289
6.590000	 31.3003
6.608000	 31.5441
6.626000	 31.8006
6.644000	 31.9284
6.662000	 31.9313
6.680000	 31.9286
6.698000	 31.8311
6.716000	 31.6514
6.734000	 31.4788
6.752000	 31.3006
6.770000	 31.2005
6.788000	 31.1571
6.806000	 31.1242
6.824000	 31.215
6.842000	 31.4101
6.860000	 31.5321
6.878000	 31.5348
6.896000	 31.6014
6.914000	 31.8676
6.932000	 32.13
6.950000	 32.1251
6.968000	 31.8889
6.986000	 31.657
7.004000	 31.5039
7.022000	 31.3799
7.040000	 31.2983
7.058000	 31.2533
7.076000	 31.2346
7.094000	 31.2906
7.112000	 31.4023
7.130000	 31.5163
7.148000	 31.6765
7.166000	 31.8953
7.184000	 32.0802
7.202000	 32.1867
7.220000	 32.2318
7.238000	 32.2166
7.256000	 32.1332
7.274000	 31.9692
7.292000	 31.7389
7.310000	 31.5163
7.328000	 31.3565
7.346000	 31.2448
7.364000	 31.1755
7.382000	 31.1939
7.400000	 31.3056
7.418000	 31.442
7.436000	 31.5773
7.454000	 31.7497
7.472000	 31.943
7.490000	 32.0897
7.508000	 32.1798
7.526000	 32.2385
7.544000	 32.2479
7.562000	 32.1731
7.580000	 32.0264
7.598000	 31.8658
7.616000	 31.7403
7.634000	 31.6475
7.652000	 31.5476
7.670000	 31.4342
7.688000	 31.3464
7.706000	 31.2987
7.724000	 31.2778
7.742000	 31.3083
7.760000	 31.4236
7.778000	 31.5915
7.796000	 31.7658
7.814000	 31.9462
7.832000	 32.115
7.850000	 32.2044
7.868000	 32.1988
7.886000	 32.1713
7.904000	 32.163
7.922000	 32.1089
7.940000	 31.9465
7.958000	 31.7262
7.976000	 31.5537
7.994000	 31.4847
8.012000	 31.5051
8.030000	 31.5535
8.048000	 31.5669
8.065999	 31.5409
8.084000	 31.5283
8.102000	 31.56
8.120000	 31.6134
8.138000	 31.6765
8.155999	 31.78
8.173999	 31.9347
8.192000	 32.0956
8.210000	 32.2224
8.228000	 32.3174
8.246000	 32.386
8.263999	 32.4133
8.282000	 32.3988
8.300000	 32.3649
8.318000	 32.318
8.336000	 32.2334
8.353999	 32.0889
8.372000	 31.8973
8.390000	 31.7034
8.408000	 31.5484
8.426000	 31.4409
8.443999	 31.3718
8.462000	 31.3473
8.480000	 31.3831
8.498000	 31.4663
8.516000	 31.5565
8.533999	 31.6347
8.552000	 31.7173
8.570000	 31.8179
8.588000	 31.9215
8.606000	 32.005
8.624000	 32.0704
8.641999	 32.1391
8.660000	 32.2177
8.678000	 32.2874
8.696000	 32.3292
8.714000	 32.3387
8.731999	 32.3116
8.750000	 32.2353
8.768000	 32.1062
8.786000	 31.9464
8.804000	 31.7953
8.821999	 31.6801
8.840000	 31.5979
8.858000	 31.5258
8.876000	 31.4471
8.894000	 31.3633
8.911999	 31.2925
8.930000	 31.2626
8.948000	 31.2999
8.966000	 31.4099
8.984000	 31.5646
9.001999	 31.7165
9.020000	 31.8294
9.038000	 31.8991
9.056000	 31.9463
9.074000	 31.9991
9.092000	 32.0785
9.109999	 32.1901
9.128000	 32.3177
9.146000	 32.4253
9.164000	 32.475
9.182000	 32.4497
9.199999	 32.3638
9.218000	 32.2497
9.236000	 32.1402
9.254000	 32.0534
9.272000	 31.9838
9.289999	 31.9046
9.308000	 31.7901
9.326000	 31.6385
9.344000	 31.4748
9.362000	 31.3338
9.379999	 31.2399
9.398000	 31.2023
9.416000	 31.2215
9.434000	 31.291
9.452000	 31.3951
9.469999	 31.5102
9.488000	 31.6138
9.506000	 31.6854
9.524000	 31.7051
9.542000	 31.6655
9.560000	 31.5907
9.577999	 31.5376
9.596000	 31.5659
9.614000	 31.6974
9.632000	 31.8982
9.650000	 32.0978
9.667999	 32.231
9.686000	 32.2692
9.704000	 32.2243
9.722000	 32.1286
9.740000	 32.0137
9.757999	 31.8982
9.776000	 31.7889
9.794000	 31.6874
9.812000	 31.5962
9.830000	 31.5199
9.847999	 31.4619
9.866000	 31.4192
9.884000	 31.3818
9.902000	 31.338
9.920000	 31.2821
9.937999	 31.2208
9.956000	 31.1691
9.974000	 31.1415
9.992000	 31.1457
10.01	31.1806
10.028	31.2398
10.046	31.3156
10.064	31.4001
10.082	31.4838
10.1	31.5566
10.118	31.6125
10.136	31.6573
10.154	31.7078
10.172	31.7829
10.19	31.8908
10.208	32.0184
10.226	32.1383
10.244	32.2209
10.262	32.2494
10.28	32.2257
10.298	32.1641
10.316	32.0825
10.334	31.9938
10.352	31.9043
10.37	31.8154
10.388	31.724
10.406	31.6238
10.424	31.5077
10.442	31.3726
10.46	31.223
10.478	31.0722
10.496	30.9386
10.514	30.8375
10.532	30.776
10.55	30.7508
10.568	30.7515
10.586	30.7647
10.604	30.781
10.622	30.7956
10.64	30.8087
10.658	30.8248
10.676	30.852
10.694	30.8992
10.712	30.9746
10.73	31.0804
10.748	31.2105
10.766	31.3492
10.784	31.4762
10.802	31.5726
10.82	31.6283
10.838	31.6451
10.856	31.6342
10.874	31.6117
10.892	31.5906
10.91	31.5778
10.928	31.5722
10.946	31.5667
10.964	31.5528
10.982	31.5244
11	31.4819
11.018	31.4308
11.036	31.3792
11.054	31.3331
11.072	31.2925
11.09	31.2505
11.108	31.1976
11.126	31.1262
11.144	31.0348
11.162	30.929
11.18	30.8172
11.198	30.7076
11.216	30.6051
11.234	30.5118
11.252	30.4303
11.27	30.3656
11.288	30.324
11.306	30.3095
11.324	30.3208
11.342	30.35
11.36	30.3851
11.378	30.417
11.396	30.4449
11.414	30.4755
11.432	30.5204
11.45	30.5881
11.468	30.6793
11.486	30.7859
11.504	30.8956
11.522	30.9961
11.54	31.0807
11.558	31.1494
11.576	31.2067
11.594	31.2572
11.612	31.3029
11.63	31.341
11.648	31.3654
11.666	31.369
11.684	31.347
11.702	31.2978
11.72	31.2234
11.738	31.1279
11.756	31.0161
11.774	30.8939
11.792	30.7691
11.81	30.6513
11.828	30.551
11.846	30.4788
11.864	30.4413
11.882	30.4382
11.9	30.4616
11.918	30.4967
11.936	30.5255
11.954	30.533
11.972	30.509
11.99	30.4515
12.008	30.3654
12.026	30.2602
12.044	30.148
12.062	30.041
12.08	29.9496
12.098	29.8819
12.116	29.8424
12.134	29.8309
12.152	29.8433
12.17	29.8728
12.188	29.9111
12.206	29.9514
12.224	29.9886
12.242	30.0206
12.26	30.0472
12.278	30.0693
12.296	30.0885
12.314	30.1063
12.332	30.1245
12.35	30.146
12.368	30.1746
12.386	30.2138
12.404	30.2671
12.422	30.3358
12.44	30.4174
12.458	30.5069
12.476	30.5968
12.494	30.6788
12.512	30.7456
12.53	30.7915
12.548	30.8137
12.566	30.8121
12.584	30.7888
12.602	30.7475
12.62	30.6934
12.638	30.6322
12.656	30.569
12.674	30.5084
12.692	30.4534
12.71	30.4058
12.728	30.3656
12.746	30.3302
12.764	30.2954
12.782	30.2554
12.8	30.204
12.818	30.1363
12.836	30.0496
12.854	29.9441
12.872	29.8236
12.89	29.6945
12.908	29.5647
12.926	29.4425
12.944	29.3348
12.962	29.2465
12.98	29.18
12.998	29.1357
13.016	29.1129
13.034	29.1098
13.052	29.1236
13.07	29.1506
13.088	29.1855
13.106	29.2213
13.124	29.2495
13.142	29.2624
13.16	29.2541
13.178	29.2242
13.196	29.1765
13.214	29.1209
13.232	29.07
13.25	29.037
13.268	29.0325
13.286	29.0622
13.304	29.1255
13.322	29.2162
13.34	29.3237
13.358	29.436
13.376	29.543
13.394	29.6385
13.412	29.7212
13.43	29.7941
13.448	29.8631
13.466	29.9346
13.484	30.0125
13.502	30.0965
13.52	30.1813
13.538	30.2579
13.556	30.3153
13.574	30.3425
13.592	30.3313
13.61	30.2789
13.628	30.1876
13.646	30.0652
13.664	29.9228
13.682	29.7732
13.7	29.6273
13.718	29.4933
13.736	29.3741
13.754	29.269
13.772	29.1732
13.79	29.0808
13.808	28.9859
13.826	28.885
13.844	28.7778
13.862	28.6665
13.88	28.5562
13.898	28.4528
13.916	28.3623
13.934	28.2892
13.952	28.2363
13.97	28.2033
13.988	28.1878
14.006	28.1859
14.024	28.1931
14.042	28.2047
14.06	28.2175
14.078	28.2292
14.096	28.2393
14.114	28.2482
14.132	28.257
14.15	28.2668
14.168	28.2781
14.186	28.2907
14.204	28.3036
14.222	28.3149
14.24	28.3222
14.258	28.3238
14.276	28.3186
14.294	28.3075
14.312	28.2922
14.33	28.2758
14.348	28.2626
14.366	28.2574
14.384	28.2645
14.402	28.2867
14.42	28.3247
14.438	28.3769
14.456	28.44
14.474	28.5088
14.492	28.5776
14.51	28.64
14.528	28.691
14.546	28.7279
14.564	28.7499
14.582	28.7586
14.6	28.7574
14.618	28.7509
14.636	28.7447
14.654	28.7435
14.672	28.7506
14.69	28.7675
14.708	28.7941
14.726	28.8289
14.744	28.8687
14.762	28.91
14.78	28.9493
14.798	28.9834
14.816	29.0099
14.834	29.0269
14.852	29.0336
14.87	29.0297
14.888	29.016
14.906	28.9933
14.924	28.9624
14.942	28.9248
14.96	28.8809
14.978	28.8309
14.996	28.7746
15.014	28.7114
15.032	28.6409
15.05	28.5622
15.068	28.4751
15.086	28.3797
15.104	28.2764
15.122	28.1667
15.14	28.0526
15.158	27.9363
15.176	27.8205
15.194	27.7079
15.212	27.6013
15.23	27.5027
15.248	27.4139
15.266	27.3363
15.284	27.2708
15.302	27.2176
15.32	27.1768
15.338	27.1482
15.356	27.1312
15.374	27.1248
15.392	27.1277
15.41	27.1382
15.428	27.1539
15.446	27.1718
15.464	27.1887
15.482	27.2018
15.5	27.2086
15.518	27.2072
15.536	27.1978
15.554	27.1811
15.572	27.159
15.59	27.1353
15.608	27.1132
15.626	27.096
15.644	27.0869
15.662	27.0878
15.68	27.0988
15.698	27.1196
15.716	27.1477
15.734	27.1798
15.752	27.2127
15.77	27.2433
15.788	27.2679
15.806	27.2847
15.824	27.2928
15.842	27.2918
15.86	27.2838
15.878	27.2705
15.896	27.2543
15.914	27.2385
15.932	27.2256
15.95	27.2175
15.968	27.2161
15.986	27.2223
16.004	27.2364
16.022	27.2581
16.04	27.2871
16.058	27.3223
16.076	27.3628
16.094	27.4074
16.112	27.4544
16.13	27.5027
16.148	27.5507
16.166	27.5962
16.184	27.6375
16.202	27.6731
16.22	27.7002
16.238	27.7177
16.256	27.724
16.274	27.7176
16.292	27.6983
16.31	27.666
16.328	27.6215
16.346	27.5664
16.364	27.5022
16.382	27.4318
16.4	27.358
16.418	27.283
16.436	27.2101
16.454	27.1414
16.472	27.0786
16.49	27.0234
16.508	26.9758
16.526	26.9361
16.544	26.9032
16.562	26.8758
16.58	26.8527
16.598	26.8311
16.616	26.8093
16.634	26.7856
16.652	26.7576
16.67	26.7246
16.688	26.6858
16.706	26.641
16.724	26.5908
16.742	26.5358
16.76	26.478
16.778	26.4185
16.796	26.3598
16.814	26.3036
16.832	26.251
16.85	26.2041
16.868	26.1631
16.886	26.1287
16.904	26.1005
16.922	26.0779
16.94	26.0601
16.958	26.0455
16.976	26.0333
16.994	26.0216
17.012	26.0096
17.03	25.9965
17.048	25.9814
17.066	25.9644
17.084	25.9455
17.102	25.9252
17.12	25.9037
17.138	25.8819
17.156	25.8604
17.174	25.8397
17.192	25.8206
17.21	25.8034
17.228	25.7883
17.246	25.7757
17.264	25.7657
17.282	25.7587
17.3	25.7552
17.318	25.7556
17.336	25.7609
17.354	25.7716
17.372	25.7889
17.39	25.8132
17.408	25.8455
17.426	25.886
17.444	25.9348
17.462	25.9911
17.48	26.0543
17.498	26.1225
17.516	26.1937
17.534	26.2661
17.552	26.3358
17.57	26.4018
17.588	26.46
17.606	26.5097
17.624	26.5484
17.642	26.5758
17.66	26.5911
17.678	26.5953
17.696	26.5891
17.714	26.5745
17.732	26.5533
17.75	26.5278
17.768	26.5004
17.786	26.4723
17.804	26.4463
17.822	26.4225
17.84	26.402
17.858	26.3841
17.876	26.3687
17.894	26.3541
17.912	26.3394
17.93	26.3223
17.948	26.3023
17.966	26.2768
17.984	26.2457
18.002	26.2077
18.02	26.163
18.038	26.1115
18.056	26.0547
18.074	25.9928
18.092	25.9282
18.11	25.8613
18.128	25.7945
18.146	25.7284
18.164	25.665
18.182	25.6046
18.2	25.5484
18.218	25.4967
18.236	25.4501
18.254	25.4084
18.272	25.3718
18.29	25.3404
18.308	25.3141
18.326	25.293
18.344	25.2769
18.362	25.2658
18.38	25.2595
18.398	25.2577
18.416	25.2597
18.434	25.265
18.452	25.2723
18.47	25.281
18.488	25.289
18.506	25.2958
18.524	25.299
18.542	25.2982
18.56	25.2909
18.578	25.2767
18.596	25.2542
18.614	25.2232
18.632	25.1836
18.65	25.1356
18.668	25.0809
18.686	25.0198
18.704	24.9552
18.722	24.8877
18.74	24.821
18.758	24.7557
18.776	24.6955
18.794	24.6408
18.812	24.5944
18.83	24.5565
18.848	24.5289
18.866	24.5111
18.884	24.5036
18.902	24.5053
18.92	24.5157
18.938	24.5335
18.956	24.5571
18.974	24.5856
18.992	24.617
19.01	24.6506
19.028	24.6848
19.046	24.7193
19.064	24.7532
19.082	24.7865
19.1	24.8192
19.118	24.8516
19.136	24.8843
19.154	24.9177
19.172	24.953
19.19	24.9903
19.208	25.0307
19.226	25.0741
19.244	25.1212
19.262	25.1715
19.28	25.2245
19.298	25.28
19.316	25.3363
19.334	25.3933
19.352	25.4479
19.37	25.5004
19.388	25.5474
19.406	25.5891
19.424	25.6225
19.442	25.6476
19.46	25.6623
19.478	25.6666
19.496	25.6598
19.514	25.6417
19.532	25.6132
19.55	25.5744
19.568	25.5271
19.586	25.4724
19.604	25.4118
19.622	25.3482
19.64	25.2819
19.658	25.2172
19.676	25.1537
19.694	25.0958
19.712	25.0431
19.73	24.9986
19.748	24.9622
19.766	24.9351
19.784	24.9178
19.802	24.9096
19.82	24.9105
19.838	24.9194
19.856	24.935
19.874	24.9567
19.892	24.9815
19.91	25.0099
19.928	25.0383
19.946	25.0671
19.964	25.0938
19.982	25.1179
20	25.1387
20.018	25.1552
20.036	25.1676
20.054	25.1756
20.072	25.1793
20.09	25.1793
20.108	25.1755
20.126	25.1691
20.144	25.1599
20.162	25.1489
20.18	25.1362
20.198	25.1222
20.216	25.1072
20.234	25.0911
20.252	25.0738
20.27	25.0554
20.288	25.035
20.306	25.0128
20.324	24.9881
20.342	24.9603
20.36	24.9294
20.378	24.8947
20.396	24.8563
20.414	24.8143
20.432	24.7685
20.45	24.7197
20.468	24.6679
20.486	24.614
20.504	24.5594
20.522	24.5039
20.54	24.4502
20.558	24.3978
20.576	24.3492
20.594	24.3053
20.612	24.2664
20.63	24.2348
20.648	24.2097
20.666	24.1928
20.684	24.184
20.702	24.1831
20.72	24.1905
20.738	24.2057
20.756	24.2274
20.774	24.256
20.792	24.289
20.81	24.3262
20.828	24.3662
20.846	24.4065
20.864	24.4478
20.882	24.4864
20.9	24.5228
20.918	24.5553
20.936	24.5824
20.954	24.6043
20.972	24.6196
20.99	24.6284
21.008	24.6308
21.026	24.6265
21.044	24.6163
21.062	24.6013
21.08	24.5811
21.098	24.5581
21.116	24.5325
21.134	24.5054
21.152	24.4791
21.17	24.4529
21.188	24.4295
21.206	24.4092
21.224	24.3925
21.242	24.3811
21.26	24.3745
21.278	24.3733
21.296	24.378
21.314	24.388
21.332	24.4027
21.35	24.4226
21.368	24.4459
21.386	24.4727
21.404	24.5021
21.422	24.532
21.44	24.5632
21.458	24.5936
21.476	24.6223
21.494	24.6494
21.512	24.6727
21.53	24.6927
21.548	24.7086
21.566	24.7196
21.584	24.7261
21.602	24.7277
21.62	24.7243
21.638	24.7162
21.656	24.7036
21.674	24.6864
21.692	24.6653
21.71	24.6403
21.728	24.6117
21.746	24.5808
21.764	24.547
21.782	24.5114
21.8	24.4745
21.818	24.4361
21.836	24.397
21.854	24.3573
21.872	24.3171
21.89	24.2768
21.908	24.2364
21.926	24.1964
21.944	24.1572
21.962	24.1186
21.98	24.0812
21.998	24.045
22.016	24.0103
22.034	23.9777
22.052	23.9472
22.07	23.9189
22.088	23.8931
22.106	23.8697
22.124	23.8487
22.142	23.8303
22.16	23.8142
22.178	23.7997
22.196	23.7873
22.214	23.7761
22.232	23.7655
22.25	23.7557
22.268	23.7457
22.286	23.7347
22.304	23.7231
22.322	23.7095
22.34	23.6936
22.358	23.6755
22.376	23.6542
22.394	23.6297
22.412	23.602
22.43	23.5706
22.448	23.5356
22.466	23.4976
22.484	23.457
22.502	23.4134
22.52	23.3685
22.538	23.3229
22.556	23.2762
22.574	23.2308
22.592	23.1866
22.61	23.1438
22.628	23.1043
22.646	23.0679
22.664	23.0349
22.682	23.0067
22.7	22.9831
22.718	22.964
22.736	22.9495
22.754	22.9398
22.772	22.9339
22.79	22.9315
22.808	22.9332
22.826	22.9366
22.844	22.9407
22.862	22.9465
22.88	22.9503
22.898	22.9509
22.916	22.9492
22.934	22.9408
22.952	22.9245
22.97	22.9012
22.988	22.868
23.006	22.8241
23.024	22.7701
23.042	22.7042
23.06	22.6261
23.078	22.5363
23.096	22.4338
23.114	22.3181
23.132	22.1901
23.15	22.0511
23.168	21.9004
23.186	21.739
23.204	21.5693
23.222	21.3902
23.24	21.2033
23.258	21.0133
23.276	20.8186
23.294	20.621
23.312	20.4266
23.33	20.2338
23.348	20.0442
23.366	19.8644
23.384	19.6934
23.402	19.5321
23.42	19.387
23.438	19.258
23.456	19.1447
23.474	19.0516
23.492	18.9796
23.51	18.9275
23.528	18.8966
23.546	18.8879
23.564	18.9004
23.582	18.9321
23.6	18.9831
23.618	19.0537
23.636	19.1383
23.654	19.2349
23.672	19.3459
23.69	19.4647
23.708	19.5874
23.726	19.7173
23.744	19.8491
23.762	19.9778
23.78	20.1071
23.798	20.2324
23.816	20.3481
23.834	20.4573
23.852	20.557
23.87	20.6423
23.888	20.7147
23.906	20.7733
23.924	20.8141
23.942	20.8369
23.96	20.8425
23.978	20.8293
23.996	20.7973
24.014	20.7469
24.032	20.6765
24.05	20.5848
24.068	20.4724
24.086	20.3399
24.104	20.1872
24.122	20.0124
24.14	19.8198
24.158	19.6147
24.176	19.3926
24.194	19.1581
24.212	18.922
24.23	18.6833
24.248	18.4406
24.266	18.2089
24.284	17.9954
24.302	17.7913
24.32	17.6109
24.338	17.4677
24.356	17.3524
24.374	17.2727
24.392	17.2422
24.41	17.2593
24.428	17.3225
24.446	17.4388
24.464	17.6123
24.482	17.8397
24.5	18.1194
24.518	18.4512
24.536	18.8391
24.554	19.2745
24.572	19.7467
24.59	20.2629
24.608	20.818
24.626	21.3924
24.644	21.9797
24.662	22.5907
24.68	23.2041
24.698	23.8004
24.716	24.3937
24.734	24.9732
24.752	25.5183
24.77	26.0287
24.788	26.5096
24.806	26.9466
24.824	27.3295
24.842	27.6659
24.86	27.9523
24.878	28.1833
24.896	28.3574
24.914	28.4781
24.932	28.549
24.95	28.5705
24.968	28.5394
24.986	28.4648
25.004	28.3558
25.022	28.205
25.04	28.0181
25.058	27.8093
25.076	27.5828
25.094	27.3296
25.112	27.0663
25.13	26.8097
25.148	26.5526
25.166	26.2967
25.184	26.0524
25.202	25.8259
25.22	25.612
25.238	25.4109
25.256	25.2234
25.274	25.0538
25.292	24.8971
25.31	24.7448
25.328	24.5936
25.346	24.4514
25.364	24.3052
25.382	24.1404
25.4	23.9627
25.418	23.7721
25.436	23.553
25.454	23.2937
25.472	23.0048
25.49	22.6798
25.508	22.3079
25.526	21.8884
25.544	21.4265
25.562	20.9122
25.58	20.336
25.598	19.7025
25.616	19.0116
25.634	18.2582
25.652	17.439
25.67	16.5573
25.688	15.6125
25.706	14.6033
25.724	13.5269
25.742	12.3851
25.76	11.1849
25.778	9.932005
25.796	8.614655
25.814	7.243697
25.832	5.839768
25.85	4.413442
25.868	2.943690
25.886	1.455583
25.904	-0.019953
25.922	-1.481879
25.94	-2.947754
25.958	-4.381668
25.976	-5.747574
25.994	-7.062913
26.012	-8.328203
26.03	-9.508948
26.048	-10.5752
26.066	-11.5476
26.084	-12.4212
26.102	-13.1781
26.12	-13.8057
26.138	-14.3163
26.156	-14.7065
26.174	-14.9704
26.192	-15.0994
26.21	-15.0949
26.228	-14.9751
26.246	-14.7587
26.264	-14.4411
26.282	-14.0166
26.3	-13.5073
26.318	-12.9352
26.336	-12.2957
26.354	-11.584
26.372	-10.8088
26.39	-9.977839
26.408	-9.086199
26.426	-8.135281
26.444	-7.131257
26.462	-6.081052
26.48	-4.991521
26.498	-3.849916
26.516	-2.640202
26.534	-1.348431
26.552	0.020624
26.57	1.459120
26.588	2.960424
26.606	4.526740
26.624	6.178041
26.642	7.880332
26.66	9.593887
26.678	11.3074
26.696	13.0704
26.714	14.8193
26.732	16.4809
26.75	18.0343
26.768	19.558
26.786	20.9578
26.804	22.127
26.822	23.0223
26.84	23.7364
26.858	24.1922
26.876	24.3007
26.894	24.0187
26.912	23.4165
26.93	22.4564
26.948	21.092
26.966	19.1061
26.984	16.252
27.002	13.2365
27.02	10.8232
27.028	10.2085