File: Bakgrunnsmateriale/MATLAB/FTIR/ftir_data/LPE454/Mapping_121/LPE454_t17_cm-1.asc
PE IR       SPECTRUM    SPECTRUM    ASCII       PEDS        1.60
  -1
LPE73A~1.ASC
17/05/19
15:43:44.00
17/05/19
15:43:44.00
tln
$LPE454_t0017$<tbV0>[0.0,-10.4,8.0,0.0,27,1,0]
370
64

2002,4.07
MIRTGS : RIGHTBACK : INTERNAL 2
MIR : ON : INTERNAL 2
OPTKBR

0.200000
8
8.000000
FILLER
RATIO
SPECTRUM
UNLOCKED 256

DOUBLE
64
COMBINED
1
0
0

1.000000
RATIO

1
0
TRUE
51149
0
LEFT NOT FITTED RIGHT NOT FITTED 0
NONE
NONE
15600
12
4.427000
51148
TRUE
1 0 8 72 0 0 0 0

15798

#HDR
-1
-1
#GR
CM-1
%T
2.38419e-05
0.0
5000
-1.000000
4631
8
45.5484
-3.416442
#DATA
5000	0.143122
4996	0.245285
4992	0.474071
4988	0.705099
4984	0.887823
4980	0.484824
4976	-0.345230
4972	-0.631189
4968	-0.230669
4964	0.168728
4960	0.367069
4956	0.232672
4952	-0.039744
4948	0.122761
4944	0.255227
4940	0.073432
4936	-0.017881
4932	0.081419
4928	0.234985
4924	0.217556
4920	0.103712
4916	0.148892
4912	0.261592
4908	0.237584
4904	0.157856
4900	0.241518
4896	0.280642
4892	0.097560
4888	0.042819
4884	0.198817
4880	0.246191
4876	0.431871
4872	0.862836
4868	0.966477
4864	0.799822
4860	0.513386
4856	0.106215
4852	-0.128889
4848	-0.195693
4844	-0.157356
4840	-0.063514
4836	0.021004
4832	0.168991
4828	0.449466
4824	0.658082
4820	0.455880
4816	0.102734
4812	0.047898
4808	0.187492
4804	0.174975
4800	-0.160980
4796	-0.252676
4792	0.207757
4788	0.409007
4784	0.205612
4780	0.017547
4776	-0.111699
4772	-0.038981
4768	0.215554
4764	0.342988
4760	0.254631
4756	-0.022196
4752	-0.237822
4748	-0.160861
4744	0.065946
4740	0.156426
4736	0.090026
4732	0.121951
4728	-0.065779
4724	-0.282335
4720	-0.110650
4716	-0.015568
4712	0.052285
4708	0.255060
4704	0.298619
4700	0.102710
4696	-0.287199
4692	-0.357341
4688	-0.117850
4684	-0.323820
4680	-0.671172
4676	-0.132393
4672	0.936698
4668	1.416206
4664	1.575660
4660	2.279496
4656	2.382802
4652	0.720429
4648	-0.299024
4644	0.759840
4640	1.803994
4636	1.342821
4632	0.307464
4628	-0.289130
4624	-0.430583
4620	-0.060629
4616	0.193762
4612	-0.018978
4608	-0.105285
4604	-0.392818
4600	-0.721263
4596	-0.589346
4592	-0.455355
4588	-0.388598
4584	-0.081634
4580	0.323271
4576	0.391197
4572	0.134420
4568	-0.048828
4564	-0.131607
4560	-0.240159
4556	-0.310015
4552	-0.353097
4548	-0.346899
4544	-0.080251
4540	0.134778
4536	0.086808
4532	-0.209259
4528	-0.231170
4524	0.035023
4520	0.090265
4516	0.229072
4512	0.621676
4508	0.819635
4504	0.884532
4500	5.403327
4496	13.9734
4492	14.5852
4488	4.938459
4484	-1.628661
4480	-0.450372
4476	0.497531
4472	-0.917553
4468	-1.674270
4464	-1.571989
4460	-0.971555
4456	-0.354433
4452	-0.307583
4448	-0.507235
4444	-0.461125
4440	-0.384759
4436	-0.480055
4432	-0.553631
4428	-0.537610
4424	-0.391387
4420	-0.170207
4416	-0.179219
4412	-0.237393
4408	-0.019478
4404	0.223708
4400	0.174570
4396	0.026202
4392	0.000119
4388	-0.056648
4384	-0.141358
4380	-0.094151
4376	0.051665
4372	0.087332
4368	0.143051
4364	0.348877
4360	0.344157
4356	0.151276
4352	0.032758
4348	0.002360
4344	0.118303
4340	0.192809
4336	0.132846
4332	0.062417
4328	-0.106430
4324	-0.182962
4320	-0.028848
4316	0.083851
4312	0.220036
4308	0.293540
4304	0.119972
4300	0.006747
4296	-0.021052
4292	-0.174903
4288	-0.225830
4284	-0.000238
4280	0.036406
4276	-0.076317
4272	0.061511
4268	0.128507
4264	0.141787
4260	0.287413
4256	0.309658
4252	0.312900
4248	0.442504
4244	0.519466
4240	0.405979
4236	0.170540
4232	-0.024199
4228	-0.094199
4224	-0.038886
4220	0.178885
4216	0.364899
4212	0.301742
4208	0.180697
4204	-0.032353
4200	-0.267267
4196	-0.202536
4192	0.047898
4188	0.231170
4184	0.325536
4180	0.243782
4176	-0.076127
4172	-0.158715
4168	0.143814
4164	0.516152
4160	0.755763
4156	0.619435
4152	0.194168
4148	-0.058078
4144	0.027918
4140	0.141811
4136	0.121569
4132	0.112009
4128	0.096821
4124	0.033998
4120	0.060343
4116	0.091600
4112	-0.041341
4108	-0.096869
4104	0.043010
4100	0.142931
4096	0.100040
4092	0.010967
4088	-0.026631
4084	0.028729
4080	0.134634
4076	0.174665
4072	0.111413
4068	0.082135
4064	0.185012
4060	0.276279
4056	0.207328
4052	0.062799
4048	-0.018811
4044	-0.065517
4040	-0.137877
4036	-0.104331
4032	0.009250
4028	-0.050258
4024	-0.178670
4020	-0.171709
4016	-0.059723
4012	0.065827
4008	0.093078
4004	0.109386
4000	0.174784
3996	0.173330
3992	0.027251
3988	-0.184702
3984	-0.226807
3980	-0.119066
3976	-0.089073
3972	-0.062847
3968	0.080370
3964	0.140571
3960	0.126743
3956	0.125932
3952	0.040912
3948	-0.077414
3944	-0.111246
3940	0.018167
3936	0.133371
3932	0.117135
3928	0.121974
3924	0.148010
3920	0.126767
3916	0.148701
3912	0.264811
3908	0.316810
3904	0.235891
3900	0.137972
3896	0.073909
3892	0.021553
3888	0.047874
3884	0.157594
3880	0.216054
3876	0.286078
3872	0.398039
3868	0.306439
3864	-0.002861
3860	-0.241565
3856	-0.261497
3852	-0.167822
3848	-0.088787
3844	-0.026345
3840	0.038671
3836	0.069046
3832	0.074434
3828	0.041818
3824	-0.004458
3820	-0.023961
3816	-0.105595
3812	-0.155663
3808	-0.032234
3804	0.167942
3800	0.258207
3796	0.220203
3792	0.171804
3788	0.109791
3784	0.103425
3780	0.153827
3776	0.112819
3772	0.029635
3768	0.000047
3764	0.049948
3760	0.136017
3756	0.172448
3752	0.120019
3748	0.024890
3744	0.019311
3740	0.090432
3736	0.119328
3732	0.062918
3728	0.027966
3724	0.037765
3720	-0.029206
3716	-0.086545
3712	-0.017309
3708	0.104713
3704	0.146961
3700	0.113701
3696	0.051712
3692	-0.019288
3688	-0.029587
3684	-0.014615
3680	-0.033855
3676	-0.070643
3672	-0.080108
3668	-0.024676
3664	0.040197
3660	0.054717
3656	0.059342
3652	0.101757
3648	0.128149
3644	0.028872
3640	-0.116920
3636	-0.144934
3632	-0.082063
3628	0.010919
3624	0.112342
3620	0.147366
3616	0.136303
3612	0.157499
3608	0.146889
3604	0.048756
3600	-0.042319
3596	-0.025391
3592	0.096344
3588	0.218987
3584	0.238060
3580	0.209522
3576	0.121283
3572	-0.020289
3568	-0.024342
3564	0.025296
3560	-0.087285
3556	-0.209403
3552	-0.190258
3548	-0.159573
3544	-0.133681
3540	-0.043702
3536	0.036692
3532	0.034570
3528	0.022149
3524	0.010919
3520	-0.043439
3516	-0.053763
3512	0.004506
3508	0.116777
3504	0.243115
3500	0.196075
3496	0.037598
3492	0.011849
3488	0.065135
3484	0.109219
3480	0.112390
3476	0.001931
3472	-0.045561
3468	0.107192
3464	0.233769
3460	0.226402
3456	0.150299
3452	0.094103
3448	0.099563
3444	0.053334
3440	-0.064682
3436	-0.178384
3432	-0.197172
3428	-0.084829
3424	0.055027
3420	0.111651
3416	0.067353
3412	0.036621
3408	0.157499
3404	0.274872
3400	0.241327
3396	0.201201
3392	0.171685
3388	0.086545
3384	-0.030279
3380	-0.119948
3376	-0.142002
3372	-0.120449
3368	-0.081133
3364	-0.065207
3360	-0.108432
3356	-0.139379
3352	-0.066518
3348	0.078964
3344	0.154280
3340	0.123429
3336	0.050401
3332	-0.033831
3328	-0.024724
3324	0.049185
3320	0.028896
3316	-0.009417
3312	0.033640
3308	0.060033
3304	0.054812
3300	0.107526
3296	0.153660
3292	0.125741
3288	0.095009
3284	0.092458
3280	0.087380
3276	0.046300
3272	-0.010824
3268	0.031781
3264	0.111222
3260	0.089025
3256	0.026321
3252	0.004005
3248	0.047206
3244	0.088715
3240	0.109815
3236	0.161695
3232	0.188112
3228	0.132441
3224	0.013184
3220	-0.094914
3216	-0.130105
3212	-0.129103
3208	-0.120878
3204	-0.059890
3200	0.010681
3196	0.018048
3192	0.023317
3188	0.021076
3184	-0.045228
3180	-0.093269
3176	-0.056266
3172	-0.002408
3168	0.012850
3164	0.038886
3160	0.067305
3156	0.046706
3152	0.046920
3148	0.049948
3144	-0.016021
3140	-0.065779
3136	-0.037527
3132	0.044631
3128	0.130271
3124	0.258064
3120	0.310158
3116	0.141668
3112	0.043344
3108	0.094056
3104	0.050330
3100	-0.067687
3096	-0.119495
3092	-0.118017
3088	-0.122094
3084	-0.122356
3080	-0.095510
3076	-0.029730
3072	0.048780
3068	0.101423
3064	0.080227
3060	-0.000357
3056	-0.007343
3052	0.081539
3048	0.125265
3044	0.069069
3040	-0.013923
3036	-0.034666
3032	0.014281
3028	0.046634
3024	0.065660
3020	0.069904
3016	-0.006175
3012	-0.084710
3008	-0.091576
3004	-0.076627
3000	-0.058722
2996	0.035905
2992	0.109434
2988	0.056028
2984	0.044989
2980	0.085473
2976	0.097441
2972	0.136971
2968	0.152635
2964	0.087475
2960	0.028681
2956	0.020909
2952	-0.005006
2948	0.007724
2944	0.072240
2940	0.100517
2936	0.062417
2932	-0.012040
2928	-0.025701
2924	0.006699
2920	0.041413
2916	0.035619
2912	-0.005030
2908	-0.011348
2904	-0.013399
2900	-0.007390
2896	0.014281
2892	-0.006842
2888	-0.067806
2884	-0.064706
2880	0.039625
2876	0.137829
2872	0.107789
2868	0.022506
2864	0.019764
2860	0.079131
2856	0.130844
2852	0.141763
2848	0.138974
2844	0.085091
2840	-0.034189
2836	-0.064659
2832	-0.023961
2828	-0.042510
2824	-0.038886
2820	0.027751
2816	0.058770
2812	0.070738
2808	0.112390
2804	0.118088
2800	0.025129
2796	-0.096464
2792	-0.127029
2788	-0.074458
2784	-0.039219
2780	-0.045299
2776	-0.009703
2772	0.017857
2768	-0.042748
2764	-0.048804
2760	0.006914
2756	0.043106
2752	0.085377
2748	0.079655
2744	0.015163
2740	-0.050806
2736	-0.068020
2732	-0.030207
2728	0.042748
2724	0.145053
2720	0.195860
2716	0.174379
2712	0.134849
2708	0.096631
2704	0.082302
2700	0.091981
2696	0.123667
2692	0.163435
2688	0.161194
2684	0.099658
2680	0.016260
2676	-0.004553
2672	0.053191
2668	0.118780
2664	0.141835
2660	0.086116
2656	-0.028920
2652	-0.073790
2648	-0.022625
2644	0.014591
2640	0.009942
2636	0.017547
2632	0.010752
2628	-0.036644
2624	-0.052309
2620	-0.056266
2616	-0.053524
2612	0.013828
2608	0.091195
2604	0.098085
2600	0.076580
2596	0.067210
2592	0.044751
2588	0.020718
2584	-0.000166
2580	0.038504
2576	0.075960
2572	0.042605
2568	0.027465
2564	0.026726
2560	-0.055813
2556	-0.127291
2552	-0.093555
2548	-0.043177
2544	-0.007224
2540	0.050830
2536	0.083088
2532	0.020742
2528	-0.067353
2524	-0.009083
2520	0.136232
2516	0.232768
2512	0.230979
2508	0.211882
2504	0.293183
2500	0.275826
2496	0.033712
2492	-0.115203
2488	0.002264
2484	0.108432
2480	0.077915
2476	0.039911
2472	0.081038
2468	0.177764
2464	0.182843
2460	0.104713
2456	0.047230
2452	-0.004673
2448	-0.070548
2444	-0.061511
2440	0.084066
2436	0.174713
2432	0.192689
2428	0.260257
2424	0.217843
2420	0.058102
2416	-0.045037
2412	-0.084686
2408	-0.051546
2404	-0.010442
2400	-0.062680
2396	-0.104618
2392	-0.061297
2388	0.025081
2384	0.109529
2380	0.135159
2376	0.091981
2372	0.048732
2368	0.055742
2364	0.058794
2360	0.049304
2356	0.078988
2352	0.121855
2348	0.143027
2344	0.116872
2340	0.112342
2336	0.182723
2332	0.252437
2328	0.271606
2324	0.234055
2320	0.192689
2316	0.201678
2312	0.231885
2308	0.263047
2304	0.294971
2300	0.284481
2296	0.241184
2292	0.239038
2288	0.320291
2284	0.421667
2280	0.506305
2276	0.612521
2272	0.690484
2268	0.713706
2264	0.732851
2260	0.783300
2256	0.883221
2252	1.004815
2248	1.112461
2244	1.209473
2240	1.296997
2236	1.399064
2232	1.528859
2228	1.614880
2224	1.700639
2220	1.904129
2216	2.154016
2212	2.382874
2208	2.604770
2204	2.846240
2200	3.129720
2196	3.387570
2192	3.616428
2188	3.851962
2184	4.110646
2180	4.426336
2176	4.729652
2172	4.937100
2168	5.169010
2164	5.598688
2160	6.110644
2156	6.549501
2152	6.878280
2148	7.142663
2144	7.475590
2140	7.922720
2136	8.460545
2132	8.919811
2128	9.256625
2124	9.679675
2120	10.2133
2116	10.6607
2112	10.9851
2108	11.3657
2104	11.8168
2100	12.2575
2096	12.6954
2092	13.0922
2088	13.4991
2084	13.9505
2080	14.4467
2076	14.9904
2072	15.3592
2068	15.6203
2064	16.0363
2060	16.498
2056	16.9311
2052	17.3974
2048	17.8225
2044	18.1924
2040	18.5861
2036	19.0061
2032	19.4083
2028	19.7717
2024	20.0937
2020	20.3805
2016	20.7097
2012	21.0865
2008	21.4329
2004	21.7139
2000	21.9722
1996	22.278
1992	22.6006
1988	22.9295
1984	23.2542
1980	23.5239
1976	23.7581
1972	24.0111
1968	24.2517
1964	24.463
1960	24.7103
1956	24.9252
1952	25.0934
1948	25.3103
1944	25.5349
1940	25.7136
1936	25.8912
1932	26.0738
1928	26.241
1924	26.3844
1920	26.5419
1916	26.7549
1912	26.9604
1908	27.1156
1904	27.2573
1900	27.3741
1896	27.4478
1892	27.5419
1888	27.6854
1884	27.8638
1880	28.0768
1876	28.2216
1872	28.2537
1868	28.3026
1864	28.4107
1860	28.5182
1856	28.5965
1852	28.6773
1848	28.7693
1844	28.8363
1840	28.9312
1836	29.0376
1832	29.0598
1828	29.0409
1824	29.0752
1820	29.1766
1816	29.2813
1812	29.3684
1808	29.4843
1804	29.583
1800	29.6119
1796	29.6138
1792	29.6174
1788	29.6541
1784	29.6985
1780	29.6893
1776	29.7132
1772	29.7978
1768	29.8678
1764	29.9317
1760	30.0009
1756	30.051
1752	30.0441
1748	29.9945
1744	29.9746
1740	30.0675
1736	30.2575
1732	30.4043
1728	30.4163
1724	30.3125
1720	30.2771
1716	30.3089
1712	30.2476
1708	30.2119
1704	30.2938
1700	30.3897
1696	30.3936
1692	30.4078
1688	30.5085
1684	30.5478
1680	30.5345
1676	30.5347
1672	30.505
1668	30.4696
1664	30.4478
1660	30.4706
1656	30.5853
1652	30.6779
1648	30.6451
1644	30.5526
1640	30.5072
1636	30.5561
1632	30.5938
1628	30.5283
1624	30.4762
1620	30.5407
1616	30.6368
1612	30.629
1608	30.5337
1604	30.4895
1600	30.4951
1596	30.5104
1592	30.5023
1588	30.4577
1584	30.4831
1580	30.5824
1576	30.6133
1572	30.5413
1568	30.5044
1564	30.5583
1560	30.6374
1556	30.6485
1552	30.5944
1548	30.6024
1544	30.7019
1540	30.7389
1536	30.6525
1532	30.6003
1528	30.6373
1524	30.6317
1520	30.6041
1516	30.6828
1512	30.7572
1508	30.709
1504	30.6145
1500	30.5492
1496	30.5135
1492	30.4486
1488	30.3883
1484	30.4164
1480	30.4728
1476	30.517
1472	30.5254
1468	30.4172
1464	30.2431
1460	30.1927
1456	30.2382
1452	30.2677
1448	30.3426
1444	30.4078
1440	30.4652
1436	30.5223
1432	30.4757
1428	30.4242
1424	30.4361
1420	30.4533
1416	30.4177
1412	30.3532
1408	30.322
1404	30.3346
1400	30.3891
1396	30.3998
1392	30.4224
1388	30.4992
1384	30.4922
1380	30.3799
1376	30.2633
1372	30.2048
1368	30.1626
1364	30.1487
1360	30.1856
1356	30.2035
1352	30.2084
1348	30.2286
1344	30.2829
1340	30.4033
1336	30.4612
1332	30.3929
1328	30.3343
1324	30.275
1320	30.2069
1316	30.2163
1312	30.2274
1308	30.1303
1304	30.0681
1300	30.153
1296	30.1929
1292	30.1091
1288	30.0736
1284	30.1695
1280	30.1887
1276	30.0453
1272	29.9314
1268	29.9483
1264	30.0201
1260	30.0314
1256	30.0267
1252	30.0234
1248	30.0273
1244	30.0728
1240	30.0578
1236	29.9858
1232	29.9423
1228	29.9411
1224	29.9541
1220	29.9425
1216	29.9351
1212	29.9388
1208	29.9358
1204	29.9419
1200	29.936
1196	29.896
1192	29.8345
1188	29.7975
1184	29.7936
1180	29.7722
1176	29.7179
1172	29.6841
1168	29.7251
1164	29.7457
1160	29.6539
1156	29.5888
1152	29.6257
1148	29.6491
1144	29.6251
1140	29.5739
1136	29.5444
1132	29.5897
1128	29.6544
1124	29.6561
1120	29.5681
1116	29.4863
1112	29.5366
1108	29.6184
1104	29.5267
1100	29.3982
1096	29.4342
1092	29.4986
1088	29.4766
1084	29.3547
1080	29.1502
1076	28.9532
1072	28.9375
1068	29.0985
1064	29.2153
1060	29.1639
1056	29.0232
1052	29.0046
1048	29.1262
1044	29.2196
1040	29.1985
1036	29.069
1032	28.9273
1028	28.8726
1024	28.7955
1020	28.609
1016	28.5785
1012	28.7814
1008	28.8749
1004	28.6894
1000	28.4606
996	 28.4416
992	 28.6271
988	 28.7854
984	 28.6813
980	 28.486
976	 28.4326
972	 28.4422
968	 28.3877
964	 28.2817
960	 28.1866
956	 28.1084
952	 28.1076
948	 28.1903
944	 28.2725
940	 28.2872
936	 28.2351
932	 28.1512
928	 28.0531
924	 27.9321
920	 27.8103
916	 27.7717
912	 27.7611
908	 27.6628
904	 27.5312
900	 27.5077
896	 27.5915
892	 27.6539
888	 27.6665
884	 27.6342
880	 27.5821
876	 27.6052
872	 27.5681
868	 27.318
864	 27.0879
860	 27.0552
856	 27.0282
852	 26.9579
848	 26.9623
844	 27.0665
840	 27.2438
836	 27.2803
832	 27.18
828	 27.0367
824	 26.6926
820	 26.3902
816	 26.431
812	 26.5191
808	 26.3926
804	 26.2989
800	 26.3252
796	 26.3138
792	 26.2832
788	 26.2207
784	 26.131
780	 26.0235
776	 26.0103
772	 25.9953
768	 25.798
764	 25.5947
760	 25.4612
756	 25.3674
752	 25.4042
748	 25.5516
744	 25.5849
740	 25.4847
736	 25.509
732	 25.5811
728	 25.4754
724	 25.3061
720	 25.1115
716	 24.8041
712	 24.652
708	 24.6658
704	 24.4315
700	 24.1342
696	 24.2068
692	 24.3951
688	 24.3216
684	 24.1557
680	 24.0929
676	 24.1211
672	 24.1941
668	 24.0868
664	 23.786
660	 23.4874
656	 23.3314
652	 23.4642
648	 23.6744
644	 23.588
640	 23.2213
636	 22.9586
632	 22.9548
628	 23.1048
624	 23.2285
620	 23.1521
616	 22.9733
612	 22.755
608	 22.5246
604	 22.3085
600	 22.2
596	 22.1614
592	 22.1537
588	 22.1456
584	 22.0395
580	 22.1218
576	 22.0742
572	 21.7205
568	 21.4973
564	 21.2819
560	 21.0664
556	 20.9263
552	 20.7918
548	 20.9315
544	 21.284
540	 21.4142
536	 21.3121
532	 21.0909
528	 20.6625
524	 20.1297
520	 19.6418
516	 19.1846
512	 19.1182
508	 19.5089
504	 19.7986
500	 19.8077
496	 19.5101
492	 19.3892
488	 19.5987
484	 19.4088
480	 18.6718
476	 18.0805
472	 18.0846
468	 17.8653
464	 17.2783
460	 16.7126
456	 15.8651
452	 16.3411
448	 18.3951
444	 19.2599
440	 18.4991
436	 17.4279
432	 16.7616
428	 15.9441
424	 13.968
420	 12.1161
416	 12.5202
412	 12.7577
408	 11.0708
404	 11.9783
400	 10.474
396	 0.265192
392	 -2.310228
388	 11.5342
384	 20.0006
380	 25.8684
376	 40.0525
372	 45.2995
370	 40.6934