File: Bakgrunnsmateriale/MATLAB/FTIR/ftir_data/LPE454/Mapping_121/LPE454_t08_cm-1.asc
PE IR       SPECTRUM    SPECTRUM    ASCII       PEDS        1.60
  -1
LP67B9~1.ASC
17/05/19
15:01:37.00
17/05/19
15:01:37.00
tln
$LPE454_t0008$<tbV0>[-5.2,-13.0,8.0,0.0,27,1,0]
370
64

2002,4.07
MIRTGS : RIGHTBACK : INTERNAL 2
MIR : ON : INTERNAL 2
OPTKBR

0.200000
8
8.000000
FILLER
RATIO
SPECTRUM
UNLOCKED 256

DOUBLE
64
COMBINED
1
0
0

1.000000
RATIO

1
0
TRUE
51149
0
LEFT NOT FITTED RIGHT NOT FITTED 0
NONE
NONE
15600
12
4.427000
51148
TRUE
1 0 8 72 0 0 0 0

15798

#HDR
-1
-1
#GR
CM-1
%T
2.38419e-05
0.0
5000
-1.000000
4631
8
35.4016
-13.575
#DATA
5000	-0.122332
4996	-0.229740
4992	-0.170469
4988	-0.049281
4984	0.159764
4980	0.224304
4976	-0.118160
4972	-0.221395
4968	0.276923
4964	0.775599
4960	0.749373
4956	0.267410
4952	0.242114
4948	0.744843
4944	0.888395
4940	0.805544
4936	0.880718
4932	0.757145
4928	0.345015
4924	0.119304
4920	0.219464
4916	0.199294
4912	-0.064563
4908	-0.126934
4904	-0.153994
4900	-0.257468
4896	0.157713
4892	0.899767
4888	0.960993
4884	0.180244
4880	-0.744938
4876	-1.156687
4872	-0.771832
4868	-0.232219
4864	-0.049185
4860	0.123929
4856	0.304722
4852	-0.059747
4848	-0.542235
4844	-0.132250
4840	0.613093
4836	0.748324
4832	0.482630
4828	0.585412
4824	1.316213
4820	2.502608
4816	3.097534
4812	1.673078
4808	0.257301
4804	0.608325
4800	1.285219
4796	1.839494
4792	2.108168
4788	1.693105
4784	0.965404
4780	0.206375
4776	-0.591087
4772	-0.817346
4768	-0.202560
4764	0.167798
4760	0.016117
4756	0.082063
4752	0.313687
4748	0.260567
4744	0.051760
4740	0.163507
4736	0.456690
4732	0.390911
4728	0.109791
4724	-0.140690
4720	-0.436282
4716	-0.447463
4712	-0.236415
4708	-0.112771
4704	0.109648
4700	0.347471
4696	0.275397
4692	0.250864
4688	0.324368
4684	0.324940
4680	0.413131
4676	0.368547
4672	0.108480
4668	0.051331
4664	0.168204
4660	0.154399
4656	0.030446
4652	-0.092101
4648	-0.003337
4644	0.168299
4640	0.204610
4636	0.153017
4632	0.110125
4628	0.066137
4624	0.042581
4620	0.129914
4616	0.264859
4612	0.294542
4608	0.108242
4604	-0.026369
4600	0.082612
4596	0.287008
4592	0.319266
4588	0.238204
4584	0.220179
4580	0.499105
4576	0.884294
4572	0.778508
4568	0.452780
4564	0.234532
4560	0.076532
4556	0.273919
4552	0.700116
4548	0.728845
4544	0.543069
4540	0.523567
4536	0.371527
4532	0.104689
4528	0.208830
4524	0.497150
4520	0.644803
4516	0.604128
4512	0.413060
4508	0.318336
4504	0.470519
4500	0.364232
4496	0.523853
4492	1.508998
4488	2.302050
4484	2.166056
4480	2.952265
4476	4.563140
4472	3.366661
4468	-0.995302
4464	-4.575705
4460	-2.763128
4456	0.765085
4452	1.473855
4448	0.926566
4444	0.250363
4440	-0.077867
4436	-0.224614
4432	-0.018143
4428	0.462079
4424	0.342655
4420	0.313878
4416	0.550246
4412	0.575089
4408	0.752115
4404	0.896406
4400	0.752210
4396	0.588965
4392	0.522184
4388	0.452733
4384	0.380897
4380	0.378131
4376	0.518202
4372	0.646471
4368	0.636863
4364	0.558567
4360	0.500583
4356	0.623297
4352	0.694680
4348	0.551939
4344	0.507116
4340	0.483417
4336	0.469541
4332	0.518298
4328	0.413417
4324	0.166177
4320	0.012969
4316	0.100851
4312	0.287485
4308	0.401854
4304	0.395870
4300	0.354576
4296	0.331616
4292	0.226354
4288	0.130462
4284	0.150752
4280	0.189185
4276	0.252389
4272	0.371432
4268	0.540685
4264	0.574254
4260	0.303030
4256	0.112032
4252	0.227069
4248	0.305438
4244	0.160026
4240	0.051999
4236	0.014877
4232	-0.103425
4228	-0.055837
4224	0.046062
4220	0.038838
4216	0.146198
4212	0.235891
4208	0.208401
4204	0.147891
4200	0.038814
4196	-0.171685
4192	-0.511336
4188	-0.564932
4184	-0.107645
4180	0.373196
4176	0.452566
4172	0.480675
4168	0.486874
4164	0.219154
4160	-0.103116
4156	-0.216293
4152	-0.115704
4148	0.014948
4144	0.109124
4140	0.318908
4136	0.638818
4132	0.785923
4128	0.627875
4124	0.402832
4120	0.230216
4116	0.125527
4112	0.225996
4108	0.372576
4104	0.244903
4100	-0.064253
4096	-0.244450
4092	-0.137162
4088	0.021886
4084	-0.005412
4080	-0.114178
4076	-0.171899
4072	-0.146245
4068	-0.113964
4064	-0.060772
4060	0.054860
4056	0.153398
4052	0.123763
4048	0.147056
4044	0.334382
4040	0.367259
4036	0.271391
4032	0.361609
4028	0.516653
4024	0.446009
4020	0.220274
4016	0.105094
4012	0.166106
4008	0.227069
4004	0.192379
4000	0.199985
3996	0.196099
3992	0.061058
3988	0.007748
3984	0.113511
3980	0.248765
3976	0.306057
3972	0.300550
3968	0.385212
3964	0.411057
3960	0.272035
3956	0.185537
3952	0.177884
3948	0.152707
3944	0.066041
3940	-0.107049
3936	-0.201940
3932	-0.138473
3928	-0.055623
3924	-0.068759
3920	-0.157189
3916	-0.130987
3912	-0.065994
3908	-0.061297
3904	0.026845
3900	0.077676
3896	0.044822
3892	0.065660
3888	0.120353
3884	0.167274
3880	0.135087
3876	0.076341
3872	0.121140
3868	0.183176
3864	0.150752
3860	0.054478
3856	-0.029277
3852	-0.101423
3848	-0.074791
3844	0.004649
3840	0.001263
3836	-0.037193
3832	0.050616
3828	0.350546
3824	0.434398
3820	0.074577
3816	-0.153350
3812	-0.051784
3808	0.014638
3804	-0.029730
3800	-0.029182
3796	0.061678
3792	0.091552
3788	0.033760
3784	0.010061
3780	-0.020217
3776	-0.023245
3772	0.044870
3768	0.058269
3764	0.090169
3760	0.176048
3756	0.188231
3752	0.133728
3748	0.025415
3744	-0.057339
3740	-0.097990
3736	-0.102210
3732	0.043225
3728	0.174713
3724	0.076079
3720	-0.079727
3716	-0.036120
3712	0.117826
3708	0.151348
3704	0.105237
3700	0.068736
3696	0.007033
3692	-0.054264
3688	-0.038433
3684	0.078845
3680	0.138854
3676	0.014281
3672	-0.060367
3668	0.050497
3664	0.140857
3660	0.179314
3656	0.258970
3652	0.222969
3648	0.047278
3644	-0.085854
3640	-0.127458
3636	-0.030446
3632	0.118947
3628	0.061750
3624	-0.120830
3620	-0.154423
3616	-0.056910
3612	0.094079
3608	0.170183
3604	0.097155
3600	0.086545
3596	0.162315
3592	0.191593
3588	0.153708
3584	0.036048
3580	-0.058794
3576	0.012397
3572	0.110578
3568	0.115656
3564	0.108194
3560	0.053167
3556	-0.026226
3552	-0.024104
3548	0.029897
3544	0.115108
3540	0.148463
3536	0.055384
3532	-0.038528
3528	-0.065064
3524	0.005698
3520	0.115466
3516	0.060200
3512	-0.157976
3508	-0.264430
3504	-0.105023
3500	0.094890
3496	0.104689
3492	0.011277
3488	-0.022912
3484	-0.011038
3480	0.034856
3476	0.210428
3472	0.413823
3468	0.368237
3464	0.166225
3460	0.019288
3456	-0.025200
3452	0.082468
3448	0.186014
3444	0.118994
3440	-0.052690
3436	-0.178241
3432	-0.160193
3428	-0.038218
3424	0.075221
3420	0.082945
3416	0.044536
3412	0.031208
3408	0.006079
3404	0.001406
3400	0.010418
3396	-0.027704
3392	-0.071287
3388	-0.040960
3384	0.012016
3380	0.021910
3376	0.034880
3372	0.094938
3368	0.123190
3364	0.100564
3360	0.077366
3356	0.003361
3352	-0.040459
3348	0.015616
3344	0.105905
3340	0.126981
3336	0.055408
3332	0.016498
3328	0.034785
3324	0.097703
3320	0.229883
3316	0.321340
3312	0.282287
3308	0.172305
3304	0.071024
3300	0.026679
3296	0.048995
3292	0.110173
3288	0.101304
3284	-0.005602
3280	-0.059366
3276	-0.003170
3272	0.037574
3268	0.009226
3264	0.011301
3260	0.044345
3256	0.044822
3252	0.057125
3248	0.062608
3244	0.028109
3240	0.075745
3236	0.195789
3232	0.220084
3228	0.143170
3224	0.089907
3220	0.077819
3216	-0.003027
3212	-0.078988
3208	0.054645
3204	0.266313
3200	0.264668
3196	0.121498
3192	0.060796
3188	0.071573
3184	0.043272
3180	-0.037765
3176	-0.068902
3172	-0.045633
3168	-0.019979
3164	0.022816
3160	0.099253
3156	0.146245
3152	0.128722
3148	0.088930
3144	0.111508
3140	0.187969
3136	0.250697
3132	0.337171
3128	0.403475
3124	0.397229
3120	0.332236
3116	0.218009
3112	0.184488
3108	0.175642
3104	0.091028
3100	0.061583
3096	0.075197
3092	0.076842
3088	0.066375
3084	0.030684
3080	0.062036
3076	0.132036
3072	0.094556
3068	0.008821
3064	-0.046181
3060	-0.110459
3056	-0.125074
3052	-0.025868
3048	0.087857
3044	0.119709
3040	0.093507
3036	0.027966
3032	-0.037837
3028	-0.062274
3024	-0.025391
3020	0.019359
3016	-0.021195
3012	-0.049567
3008	0.007653
3004	0.090861
3000	0.093030
2996	-0.060582
2992	-0.173640
2988	-0.140190
2984	-0.097632
2980	-0.034284
2976	0.022602
2972	-0.027823
2968	-0.084781
2964	-0.054979
2960	0.037121
2956	0.112771
2952	0.114345
2948	0.062870
2944	0.017285
2940	0.019717
2936	0.030589
2932	0.076413
2928	0.144386
2924	0.126552
2920	0.030112
2916	-0.059843
2912	-0.098800
2908	-0.022339
2904	0.099539
2900	0.041055
2896	-0.052118
2892	0.007653
2888	0.078797
2884	0.086998
2880	0.089120
2876	0.081801
2872	-0.000119
2868	-0.094270
2864	-0.041985
2860	0.031709
2856	0.021028
2852	0.097393
2848	0.187444
2844	0.137591
2840	0.076675
2836	0.133681
2832	0.167608
2828	0.075125
2824	0.021219
2820	0.071859
2816	0.068426
2812	-0.047779
2808	-0.103402
2804	-0.044393
2800	0.003099
2796	-0.003314
2792	-0.023937
2788	-0.028586
2784	0.003242
2780	0.074720
2776	0.085139
2772	0.023579
2768	0.014162
2764	0.029230
2760	0.054407
2756	0.099420
2752	0.086879
2748	0.022578
2744	0.034379
2740	0.085496
2736	0.070643
2732	0.029706
2728	0.022649
2724	0.022840
2720	0.003385
2716	0.010228
2712	0.013518
2708	-0.026774
2704	-0.011467
2700	0.058746
2696	0.076794
2692	0.056624
2688	0.047898
2684	0.039076
2680	0.026464
2676	0.052046
2672	0.100541
2668	0.074863
2664	0.020360
2660	0.035476
2656	0.074100
2652	0.117111
2648	0.180149
2644	0.189447
2640	0.129199
2636	0.066804
2632	0.021123
2628	-0.011253
2624	0.000572
2620	0.026059
2616	0.035786
2612	0.076317
2608	0.105309
2604	0.050163
2600	-0.021505
2596	-0.036907
2592	-0.008344
2588	0.046896
2584	0.114512
2580	0.121426
2576	0.089669
2572	0.051522
2568	0.032210
2564	0.044441
2560	0.045108
2556	0.036334
2552	0.020909
2548	-0.014638
2544	-0.018501
2540	-0.000691
2536	-0.019669
2532	-0.004792
2528	0.107502
2524	0.183606
2520	0.180792
2516	0.163292
2512	0.137376
2508	0.158619
2504	0.240087
2500	0.322818
2496	0.289940
2492	0.174236
2488	0.143575
2484	0.129151
2480	0.035524
2476	-0.043869
2472	-0.005221
2468	0.055956
2464	-0.042676
2460	-0.130057
2456	-0.086951
2452	-0.083088
2448	-0.091338
2444	-0.027036
2440	0.021886
2436	0.017261
2432	0.108671
2428	0.286531
2424	0.319099
2420	0.211930
2416	0.161218
2412	0.227499
2408	0.305294
2404	0.209784
2400	0.021624
2396	-0.017237
2392	0.039958
2388	0.072002
2384	0.062942
2380	0.047492
2376	0.062513
2372	0.060749
2368	0.078916
2364	0.124168
2360	0.110435
2356	0.106358
2352	0.217533
2348	0.310349
2344	0.279116
2340	0.244498
2336	0.268888
2332	0.320601
2328	0.362300
2324	0.388216
2320	0.409364
2316	0.395584
2312	0.388598
2308	0.439882
2304	0.512599
2300	0.584912
2296	0.678944
2292	0.750827
2288	0.752186
2284	0.786209
2280	0.919651
2276	1.077628
2272	1.176142
2268	1.238727
2264	1.341962
2260	1.449728
2256	1.523733
2252	1.598715
2248	1.716542
2244	1.880812
2240	2.040672
2236	2.221179
2232	2.428221
2228	2.590847
2224	2.772378
2220	3.025698
2216	3.292989
2212	3.562974
2208	3.853774
2204	4.103279
2200	4.270839
2196	4.521846
2192	4.938173
2188	5.318188
2184	5.577850
2180	5.841183
2176	6.136608
2172	6.420660
2168	6.810712
2164	7.281827
2160	7.645440
2156	7.975673
2152	8.368229
2148	8.850812
2144	9.360504
2140	9.719276
2136	10.0052
2132	10.3666
2128	10.7698
2124	11.1776
2120	11.6159
2116	12.0957
2112	12.527
2108	12.9425
2104	13.4254
2100	13.8337
2096	14.1555
2092	14.5551
2088	15.0635
2084	15.5838
2080	16.0282
2076	16.3731
2072	16.6182
2068	16.8708
2064	17.2463
2060	17.6826
2056	18.0586
2052	18.347
2048	18.6624
2044	19.0708
2040	19.4836
2036	19.8213
2032	20.1469
2028	20.4819
2024	20.7693
2020	21.0889
2016	21.428
2012	21.6781
2008	21.8687
2004	22.0945
2000	22.3758
1996	22.6361
1992	22.9114
1988	23.2939
1984	23.6674
1980	23.9253
1976	24.1382
1972	24.3304
1968	24.4926
1964	24.6728
1960	24.8332
1956	24.9122
1952	24.9991
1948	25.1646
1944	25.346
1940	25.5261
1936	25.7456
1932	25.9807
1928	26.236
1924	26.513
1920	26.7442
1916	26.8639
1912	26.9027
1908	26.9455
1904	26.9975
1900	27.0359
1896	27.1076
1892	27.2301
1888	27.386
1884	27.6188
1880	27.8707
1876	28.0787
1872	28.3116
1868	28.5231
1864	28.6022
1860	28.6125
1856	28.6534
1852	28.6665
1848	28.5966
1844	28.5102
1840	28.5519
1836	28.7183
1832	28.8987
1828	29.1048
1824	29.3098
1820	29.443
1816	29.5657
1812	29.7479
1808	29.8464
1804	29.7551
1800	29.5986
1796	29.5584
1792	29.6006
1788	29.6008
1784	29.5986
1780	29.639
1776	29.8081
1772	30.089
1768	30.3553
1764	30.6031
1760	30.7599
1756	30.7507
1752	30.6466
1748	30.5336
1744	30.4551
1740	30.3812
1736	30.2572
1732	30.127
1728	30.1573
1724	30.4409
1720	30.802
1716	30.9747
1712	30.9635
1708	30.9813
1704	31.1247
1700	31.2875
1696	31.2303
1692	30.9766
1688	30.8015
1684	30.7105
1680	30.6042
1676	30.5743
1672	30.6675
1668	30.7534
1664	30.8444
1660	31.1084
1656	31.4533
1652	31.6048
1648	31.5946
1644	31.5467
1640	31.477
1636	31.4255
1632	31.2904
1628	31.0777
1624	30.9592
1620	30.9583
1616	30.9603
1612	30.9606
1608	31.046
1604	31.2396
1600	31.4996
1596	31.7111
1592	31.823
1588	31.8138
1584	31.6764
1580	31.5245
1576	31.4046
1572	31.2656
1568	31.1514
1564	31.1372
1560	31.2231
1556	31.3137
1552	31.3764
1548	31.5078
1544	31.7421
1540	31.9533
1536	32.0288
1532	31.9857
1528	31.8793
1524	31.7943
1520	31.6841
1516	31.4365
1512	31.205
1508	31.146
1504	31.1354
1500	31.1458
1496	31.2824
1492	31.5246
1488	31.7748
1484	31.9075
1480	31.9411
1476	31.9691
1472	31.9219
1468	31.7583
1464	31.5934
1460	31.4265
1456	31.139
1452	30.8773
1448	30.7741
1444	30.7748
1440	30.9576
1436	31.2776
1432	31.5364
1428	31.6853
1424	31.7969
1420	31.857
1416	31.8114
1412	31.7089
1408	31.5559
1404	31.3836
1400	31.2294
1396	31.071
1392	30.9302
1388	30.8825
1384	30.9899
1380	31.1777
1376	31.3667
1372	31.5543
1368	31.7343
1364	31.8603
1360	31.8422
1356	31.6968
1352	31.5417
1348	31.3911
1344	31.2031
1340	30.984
1336	30.8034
1332	30.7471
1328	30.8243
1324	31.0101
1320	31.2469
1316	31.4095
1312	31.5243
1308	31.6695
1304	31.7434
1300	31.6903
1296	31.5373
1292	31.3421
1288	31.127
1284	30.8703
1280	30.6872
1276	30.6845
1272	30.7936
1268	30.9324
1264	31.1237
1260	31.3691
1256	31.5998
1252	31.7442
1248	31.7651
1244	31.7075
1240	31.5518
1236	31.2562
1232	30.9492
1228	30.7632
1224	30.6946
1220	30.7448
1216	30.826
1212	30.8341
1208	30.9272
1204	31.2001
1200	31.4858
1196	31.6412
1192	31.7077
1188	31.7201
1184	31.599
1180	31.3797
1176	31.1662
1172	30.9684
1168	30.7888
1164	30.6841
1160	30.6206
1156	30.6038
1152	30.7187
1148	30.9142
1144	31.0897
1140	31.2287
1136	31.4099
1132	31.5391
1128	31.5248
1124	31.4323
1120	31.1913
1116	30.8588
1112	30.6046
1108	30.4292
1104	30.2849
1100	30.1541
1096	30.1322
1092	30.3063
1088	30.6413
1084	30.9114
1080	30.9765
1076	31.069
1072	31.1928
1068	31.1622
1064	30.9969
1060	30.7322
1056	30.4465
1052	30.1942
1048	30.0497
1044	30.13
1040	30.3013
1036	30.4276
1032	30.5542
1028	30.6519
1024	30.7636
1020	31.0303
1016	31.2428
1012	31.1091
1008	30.8131
1004	30.565
1000	30.3108
996	 30.1053
992	 29.9372
988	 29.7623
984	 29.7498
980	 29.936
976	 30.1801
972	 30.358
968	 30.4475
964	 30.5887
960	 30.7701
956	 30.7848
952	 30.6328
948	 30.4463
944	 30.2211
940	 29.9052
936	 29.5553
932	 29.3661
928	 29.4041
924	 29.5315
920	 29.6337
916	 29.7016
912	 29.8147
908	 30.0149
904	 30.286
900	 30.3925
896	 30.2
892	 29.951
888	 29.7443
884	 29.5015
880	 29.1909
876	 28.8858
872	 28.7377
868	 28.7919
864	 28.961
860	 29.1343
856	 29.2614
852	 29.4596
848	 29.7304
844	 29.8815
840	 29.9297
836	 29.8628
832	 29.5685
828	 29.1442
824	 28.7332
820	 28.4491
816	 28.3206
812	 28.2876
808	 28.3121
804	 28.3699
800	 28.5542
796	 28.7817
792	 28.9029
788	 29.0529
784	 29.2127
780	 29.119
776	 28.9081
772	 28.8575
768	 28.672
764	 28.2402
760	 27.9737
756	 27.9835
752	 28.0669
748	 28.0921
744	 27.8623
740	 27.5677
736	 27.5662
732	 27.8186
728	 28.1662
724	 28.3054
720	 28.2526
716	 28.1057
712	 27.7203
708	 27.3275
704	 27.2173
700	 27.1761
696	 26.8986
692	 26.6196
688	 26.6734
684	 26.9522
680	 27.2981
676	 27.6032
672	 27.5586
668	 27.209
664	 27.1033
660	 27.171
656	 26.9212
652	 26.5202
648	 26.2054
644	 25.8781
640	 25.6435
636	 25.7231
632	 25.8431
628	 25.6464
624	 25.5886
620	 25.8168
616	 25.9087
612	 25.942
608	 25.9513
604	 25.7815
600	 25.7318
596	 25.826
592	 25.5545
588	 24.9954
584	 24.5729
580	 24.185
576	 23.8517
572	 24.0077
568	 24.4191
564	 24.6102
560	 24.6144
556	 24.5627
552	 24.6016
548	 24.8524
544	 24.948
540	 24.4621
536	 23.9157
532	 23.652
528	 23.4024
524	 23.4958
520	 23.6528
516	 23.3177
512	 23.0058
508	 22.9734
504	 23.1879
500	 23.7788
496	 24.5878
492	 25.0846
488	 24.4625
484	 23.4242
480	 23.0819
476	 22.8361
472	 22.4747
468	 22.7898
464	 22.6314
460	 21.745
456	 22.0938
452	 22.219
448	 21.014
444	 20.7279
440	 21.5631
436	 21.3604
432	 20.1061
428	 20.2853
424	 20.8849
420	 19.3215
416	 18.1348
412	 19.2478
408	 17.0736
404	 11.6345
400	 15.1432
396	 24.3335
392	 30.2441
388	 30.9581
384	 28.1661
380	 27.2125
376	 35.4016
372	 13.8862
370	 -13.575