File: Bakgrunnsmateriale/MATLAB/FTIR/ftir_data/LPE454/Mapping_121/LPE454_t18_cm-1.asc
PE IR       SPECTRUM    SPECTRUM    ASCII       PEDS        1.60
  -1
LPE7B9~1.ASC
17/05/19
15:48:21.00
17/05/19
15:48:21.00
tln
$LPE454_t0018$<tbV0>[-2.6,-10.4,8.0,0.0,27,1,0]
370
64

2002,4.07
MIRTGS : RIGHTBACK : INTERNAL 2
MIR : ON : INTERNAL 2
OPTKBR

0.200000
8
8.000000
FILLER
RATIO
SPECTRUM
UNLOCKED 256

DOUBLE
64
COMBINED
1
0
0

1.000000
RATIO

1
0
TRUE
51149
0
LEFT NOT FITTED RIGHT NOT FITTED 0
NONE
NONE
15600
12
4.427000
51148
TRUE
1 0 8 72 0 0 0 0

15798

#HDR
-1
-1
#GR
CM-1
%T
2.38419e-05
0.0
5000
-1.000000
4631
8
42.0396
-8.708095
#DATA
5000	0.446844
4996	0.460433
4992	0.147914
4988	0.059795
4984	0.311326
4980	0.309467
4976	0.086212
4972	-0.049924
4968	-0.162935
4964	-0.193095
4960	-0.144314
4956	-0.016403
4952	0.084877
4948	0.110268
4944	0.079679
4940	0.061631
4936	0.217723
4932	0.311326
4928	0.126695
4924	-0.001096
4920	0.001215
4916	-0.034499
4912	0.155806
4908	0.490283
4904	0.519156
4900	0.236153
4896	0.095796
4892	0.020790
4888	-0.169897
4884	-0.001525
4880	0.100541
4876	-0.192713
4872	-0.084257
4868	0.265932
4864	0.311017
4860	0.295996
4856	0.341606
4852	0.308680
4848	0.153350
4844	0.011992
4840	-0.084972
4836	-0.151848
4832	-0.054645
4828	0.130367
4824	0.238370
4820	0.217795
4816	0.069260
4812	0.058126
4808	0.166702
4804	0.045084
4800	-0.028491
4796	0.088167
4792	0.038933
4788	-0.118541
4784	-0.200414
4780	-0.141358
4776	-0.032210
4772	-0.027251
4768	0.038957
4764	0.265884
4760	0.313901
4756	0.095200
4752	0.009703
4748	0.134468
4744	0.285840
4740	0.345849
4736	0.413393
4732	0.459694
4728	0.073194
4724	-0.331163
4720	-0.139260
4716	0.156402
4712	0.233411
4708	0.122284
4704	-0.232267
4700	-0.689840
4696	-0.977110
4692	-0.530934
4688	-0.180149
4684	-0.302124
4680	0.078558
4676	0.293374
4672	0.074696
4668	-0.212264
4664	-0.457882
4660	-0.025343
4656	0.141954
4652	-0.839424
4648	-0.691914
4644	0.664401
4640	0.758314
4636	0.301194
4632	0.185275
4628	0.427651
4624	1.352596
4620	1.723480
4616	1.084971
4612	-0.292468
4608	-1.175045
4604	-0.868344
4600	-0.518751
4596	-0.453472
4592	-0.122070
4588	0.028038
4584	-0.203275
4580	-0.374960
4576	-0.417613
4572	-0.423932
4568	-0.535321
4564	-0.594234
4560	-0.467085
4556	-0.369215
4552	-0.296235
4548	0.198578
4544	0.738430
4540	0.567555
4536	-0.241756
4532	-1.150131
4528	-1.505804
4524	-1.410245
4520	-0.880289
4516	-0.238299
4512	1.040673
4508	2.328729
4504	2.290844
4500	0.276327
4496	3.512859
4492	15.9187
4488	17.5167
4484	4.866337
4480	-2.705311
4476	-2.605938
4472	-1.240515
4468	-0.593352
4464	-0.790572
4460	-1.151847
4456	-1.018738
4452	-0.655031
4448	-0.410628
4444	-0.314402
4440	-0.276327
4436	0.022721
4432	0.356030
4428	0.005817
4424	-0.407123
4420	-0.262236
4416	0.079059
4412	0.145363
4408	-0.037169
4404	-0.068449
4400	0.204658
4396	0.459504
4392	0.503897
4388	0.479197
4384	0.304341
4380	-0.052380
4376	-0.142121
4372	0.139951
4368	0.409936
4364	0.553703
4360	0.547504
4356	0.359797
4352	0.150370
4348	0.128650
4344	0.107359
4340	0.040721
4336	0.174164
4332	0.352883
4328	0.419306
4324	0.294542
4320	0.014019
4316	-0.154471
4312	-0.041508
4308	0.196194
4304	0.270128
4300	0.115466
4296	-0.049757
4292	-0.029325
4288	0.129842
4284	0.333213
4280	0.518465
4276	0.544023
4272	0.319266
4268	0.106263
4264	0.007700
4260	-0.167703
4256	-0.340771
4252	-0.343918
4248	-0.062417
4244	0.281023
4240	0.302410
4236	0.128388
4232	-0.023746
4228	-0.072932
4224	-0.029778
4220	-0.032329
4216	0.000286
4212	0.051307
4208	-0.002551
4204	-0.172615
4200	-0.222110
4196	0.083351
4192	0.340485
4188	0.283741
4184	0.077033
4180	-0.141549
4176	-0.178933
4172	-0.047707
4168	0.032734
4164	-0.011205
4160	-0.025725
4156	0.092792
4152	0.179028
4148	0.094079
4144	-0.097203
4140	-0.272893
4136	-0.288748
4132	-0.222611
4128	-0.178480
4124	-0.156140
4120	-0.134277
4116	-0.007104
4112	0.176143
4108	0.251913
4104	0.233983
4100	0.149273
4096	-0.055289
4092	-0.169181
4088	-0.002264
4084	0.246071
4080	0.355982
4076	0.285792
4072	0.197649
4068	0.171899
4064	0.094175
4060	0.077223
4056	0.095438
4052	0.041365
4048	0.039267
4044	0.020456
4040	-0.013518
4036	0.036883
4032	0.040292
4028	0.004577
4024	0.083136
4020	0.136375
4016	0.067281
4012	0.098204
4008	0.198316
4004	0.163006
4000	0.009870
3996	-0.031042
3992	0.006294
3988	-0.029063
3984	0.047230
3980	0.144100
3976	0.122427
3972	0.099682
3968	0.072097
3964	0.080084
3960	0.107407
3956	0.084400
3952	0.027179
3948	-0.027441
3944	0.005197
3940	0.091481
3936	0.114321
3932	0.089168
3928	0.086283
3924	0.168800
3920	0.265741
3916	0.194549
3912	0.058126
3908	0.023674
3904	0.055932
3900	0.097298
3896	0.096678
3892	0.056576
3888	0.069308
3884	0.185179
3880	0.292372
3876	0.260257
3872	0.128364
3868	0.060510
3864	0.088024
3860	0.133228
3856	0.159907
3852	0.096654
3848	0.038409
3844	0.087594
3840	0.100994
3836	-0.018191
3832	-0.202941
3828	-0.202274
3824	-0.015950
3820	0.118803
3816	0.127863
3812	0.071740
3808	0.028443
3804	-0.045251
3800	-0.029802
3796	0.018763
3792	-0.018858
3788	0.020956
3784	0.099182
3780	0.167918
3776	0.179743
3772	0.128722
3768	0.113296
3764	0.134539
3760	0.184845
3756	0.209951
3752	0.188493
3748	0.091552
3744	0.001907
3740	0.009512
3736	0.034809
3732	0.042176
3728	0.055456
3724	0.068163
3720	0.055289
3716	0.034976
3712	0.065326
3708	0.111746
3704	0.124549
3700	0.096821
3696	0.032281
3692	-0.081992
3688	-0.159931
3684	-0.113940
3680	-0.036096
3676	-0.030183
3672	-0.035500
3668	0.027918
3664	0.088334
3660	0.155711
3656	0.211548
3652	0.177359
3648	0.137114
3644	0.185346
3640	0.232577
3636	0.169992
3632	0.112915
3628	0.084567
3624	0.016665
3620	-0.061297
3616	-0.127744
3612	-0.119495
3608	-0.072264
3604	-0.065302
3600	-0.019407
3596	0.100803
3592	0.135231
3588	0.063633
3584	0.124239
3580	0.244641
3576	0.254583
3572	0.231409
3568	0.171637
3564	0.115060
3560	0.110459
3556	0.090050
3552	0.064587
3548	0.089216
3544	0.129294
3540	0.118565
3536	0.065350
3532	0.045728
3528	0.021171
3524	-0.032925
3520	-0.015926
3516	0.012397
3512	0.039100
3508	0.080204
3504	0.075364
3500	0.041270
3496	-0.048375
3492	-0.125980
3488	-0.083613
3484	0.031042
3480	0.132155
3476	0.144267
3472	0.034856
3468	-0.052809
3464	-0.071454
3460	-0.090479
3456	-0.071430
3452	-0.085186
3448	-0.146770
3444	-0.120186
3440	-0.025272
3436	0.031185
3432	0.062155
3428	0.099492
3424	0.084090
3420	0.012278
3416	-0.053095
3412	-0.042247
3408	0.075316
3404	0.158047
3400	0.103306
3396	0.018286
3392	-0.042581
3388	-0.051140
3384	-0.019025
3380	-0.001740
3376	0.058126
3372	0.163173
3368	0.207376
3364	0.134944
3360	0.036644
3356	0.030064
3352	0.075101
3348	0.048804
3344	0.003767
3340	0.014543
3336	0.027728
3332	0.036168
3328	0.047159
3324	0.055003
3320	0.049424
3316	0.009536
3312	-0.024390
3308	0.012111
3304	0.064301
3300	0.063014
3296	0.032806
3292	0.020670
3288	0.064420
3284	0.122070
3280	0.150203
3276	0.153899
3272	0.162434
3268	0.166130
3264	0.097370
3260	0.047802
3256	0.123667
3252	0.232100
3248	0.256299
3244	0.201296
3240	0.182700
3236	0.172877
3232	0.101447
3228	0.073957
3224	0.119233
3220	0.136041
3216	0.094246
3212	0.047969
3208	0.009417
3204	-0.038003
3200	-0.045537
3196	0.062537
3192	0.177574
3188	0.170969
3184	0.133085
3180	0.102043
3176	0.049471
3172	0.029420
3168	0.058698
3164	0.086688
3160	0.115823
3156	0.152659
3152	0.185346
3148	0.175523
3144	0.078463
3140	-0.023484
3136	-0.089979
3132	-0.105428
3128	-0.058221
3124	0.026249
3120	0.052142
3116	-0.029706
3112	-0.055813
3108	-0.024437
3104	-0.038218
3100	-0.029206
3096	0.000357
3092	0.050783
3088	0.070166
3084	0.006675
3080	0.015759
3076	0.057721
3072	0.029134
3068	0.015091
3064	0.044941
3060	0.069093
3056	0.074410
3052	0.072360
3048	0.058221
3044	0.065684
3040	0.044512
3036	-0.027918
3032	-0.009059
3028	0.073480
3024	0.158071
3020	0.255298
3016	0.276565
3012	0.186967
3008	0.074219
3004	0.015044
3000	0.028347
2996	0.115370
2992	0.126004
2988	0.055265
2984	0.050377
2980	0.042295
2976	0.032377
2972	0.024819
2968	-0.037550
2964	-0.064611
2960	-0.049662
2956	-0.042009
2952	-0.037956
2948	-0.099325
2944	-0.095677
2940	0.083422
2936	0.205230
2932	0.144052
2928	0.081086
2924	0.068807
2920	-0.028109
2916	-0.083065
2912	0.037407
2908	0.170588
2904	0.205421
2900	0.146818
2896	0.013113
2892	-0.035715
2888	0.000023
2884	-0.048613
2880	-0.105166
2876	-0.104594
2872	-0.103235
2868	-0.086617
2864	0.000190
2860	0.114321
2856	0.161886
2852	0.175142
2848	0.122427
2844	0.027990
2840	0.010204
2836	0.067281
2832	0.099706
2828	0.049877
2824	0.056576
2820	0.078344
2816	0.028276
2812	0.042104
2808	0.064325
2804	-0.005030
2800	-0.064969
2796	-0.039958
2792	0.020718
2788	0.053310
2784	0.035095
2780	-0.009250
2776	-0.042629
2772	-0.059533
2768	-0.034093
2764	0.064110
2760	0.153470
2756	0.166821
2752	0.155568
2748	0.166225
2744	0.180935
2740	0.139546
2736	0.031447
2732	-0.038790
2728	-0.005650
2724	0.061964
2720	0.067567
2716	0.015664
2712	0.005459
2708	0.032877
2704	0.039458
2700	0.028634
2696	-0.029850
2692	-0.117778
2688	-0.125718
2684	-0.076556
2680	-0.036692
2676	-0.022697
2672	-0.008535
2668	0.065279
2664	0.128722
2660	0.111961
2656	0.055956
2652	-0.009107
2648	-0.010800
2644	0.085091
2640	0.119209
2636	0.039553
2632	0.020933
2628	0.116634
2624	0.162005
2620	0.116920
2616	0.085973
2612	0.085473
2608	0.087308
2604	0.084161
2600	0.136590
2596	0.208044
2592	0.166368
2588	0.065994
2584	0.043034
2580	0.027751
2576	0.006365
2572	0.055932
2568	0.125837
2564	0.142717
2560	0.100183
2556	0.026655
2552	-0.001239
2548	0.020766
2544	0.038456
2540	0.053405
2536	0.077223
2532	0.060033
2528	-0.012421
2524	-0.095391
2520	-0.120711
2516	-0.088834
2512	-0.071096
2508	0.010848
2504	0.122308
2500	0.083994
2496	0.010085
2492	0.039792
2488	0.045561
2484	0.018739
2480	0.025773
2476	0.031685
2472	0.032591
2468	0.026369
2464	0.039601
2460	0.087332
2456	0.099062
2452	0.067615
2448	0.072741
2444	0.142717
2440	0.211501
2436	0.218892
2432	0.191211
2428	0.121307
2424	-0.027179
2420	-0.106549
2416	-0.057983
2412	-0.050973
2408	-0.038027
2404	0.034379
2400	0.048398
2396	0.022149
2392	0.018501
2388	0.034570
2384	0.042152
2380	0.024032
2376	0.004434
2372	0.018095
2368	0.054407
2364	0.084900
2360	0.104331
2356	0.081014
2352	0.043153
2348	0.034308
2344	0.053167
2340	0.122880
2336	0.185418
2332	0.202870
2328	0.238180
2324	0.261139
2320	0.222730
2316	0.226116
2312	0.319337
2308	0.376200
2304	0.383758
2300	0.400304
2296	0.374221
2292	0.356554
2288	0.422739
2284	0.494050
2280	0.570845
2276	0.675678
2272	0.730371
2268	0.778174
2264	0.906181
2260	1.061773
2256	1.166152
2252	1.229572
2248	1.304817
2244	1.444554
2240	1.581311
2236	1.647472
2232	1.707553
2228	1.792001
2224	1.971340
2220	2.234816
2216	2.466201
2212	2.651119
2208	2.801990
2204	2.940654
2200	3.135752
2196	3.418278
2192	3.723788
2188	4.010176
2184	4.277205
2180	4.514551
2176	4.768896
2172	5.098748
2168	5.421233
2164	5.674004
2160	5.926632
2156	6.159448
2152	6.431555
2148	6.794667
2144	7.149028
2140	7.533621
2136	7.953357
2132	8.337736
2128	8.691859
2124	9.040665
2120	9.396553
2116	9.696364
2112	9.976506
2108	10.356
2104	10.7835
2100	11.1877
2096	11.5806
2092	11.959
2088	12.2838
2084	12.5634
2080	12.9369
2076	13.4217
2072	13.7989
2068	14.05
2064	14.2926
2060	14.5336
2056	14.8413
2052	15.2574
2048	15.6662
2044	15.9573
2040	16.2289
2036	16.5052
2032	16.7938
2028	17.1446
2024	17.4339
2020	17.634
2016	17.8408
2012	18.1333
2008	18.4657
2004	18.7356
2000	18.9396
1996	19.1449
1992	19.3909
1988	19.6337
1984	19.8605
1980	20.0759
1976	20.2407
1972	20.3827
1968	20.5688
1964	20.7663
1960	20.9351
1956	21.103
1952	21.2772
1948	21.4489
1944	21.6272
1940	21.82
1936	22.0168
1932	22.1698
1928	22.2297
1924	22.3207
1920	22.4991
1916	22.6407
1912	22.7711
1908	22.9213
1904	23.0228
1900	23.1128
1896	23.2596
1892	23.3601
1888	23.4043
1884	23.4924
1880	23.5562
1876	23.5731
1872	23.6367
1868	23.7646
1864	23.9302
1860	24.0776
1856	24.1603
1852	24.2304
1848	24.3078
1844	24.3692
1840	24.4083
1836	24.4524
1832	24.5598
1828	24.642
1824	24.6402
1820	24.6807
1816	24.7559
1812	24.8117
1808	24.9034
1804	25.0425
1800	25.1468
1796	25.1545
1792	25.1478
1788	25.2148
1784	25.2857
1780	25.2798
1776	25.2886
1772	25.3669
1768	25.4471
1764	25.5152
1760	25.5568
1756	25.5797
1752	25.6461
1748	25.6702
1744	25.6145
1740	25.6451
1736	25.7704
1732	25.8198
1728	25.7406
1724	25.6948
1720	25.8445
1716	25.9658
1712	25.8445
1708	25.7411
1704	25.8755
1700	26.1455
1696	26.3147
1692	26.3323
1688	26.3391
1684	26.2933
1680	26.2048
1676	26.2414
1672	26.3289
1668	26.3577
1664	26.3768
1660	26.4163
1656	26.4855
1652	26.5279
1648	26.5088
1644	26.4837
1640	26.5221
1636	26.6036
1632	26.6436
1628	26.6585
1624	26.6762
1620	26.7217
1616	26.7374
1612	26.6718
1608	26.6354
1604	26.6467
1600	26.6887
1596	26.786
1592	26.8646
1588	26.9183
1584	26.9472
1580	26.9295
1576	26.9288
1572	26.9167
1568	26.8917
1564	26.9373
1560	27.0326
1556	27.0355
1552	26.9148
1548	26.8528
1544	26.9675
1540	27.1425
1536	27.1904
1532	27.1603
1528	27.1621
1524	27.195
1520	27.2147
1516	27.1953
1512	27.2213
1508	27.2693
1504	27.2471
1500	27.185
1496	27.1078
1492	27.159
1488	27.3057
1484	27.3212
1480	27.3312
1476	27.4362
1472	27.518
1468	27.4781
1464	27.4199
1460	27.5028
1456	27.5792
1452	27.5401
1448	27.462
1444	27.3293
1440	27.2834
1436	27.385
1432	27.481
1428	27.5685
1424	27.6468
1420	27.6988
1416	27.7547
1412	27.768
1408	27.7064
1404	27.6166
1400	27.5149
1396	27.4339
1392	27.4547
1388	27.5328
1384	27.6138
1380	27.7525
1376	27.9562
1372	28.056
1368	27.9857
1364	27.8969
1360	27.8242
1356	27.7702
1352	27.7588
1348	27.7683
1344	27.7774
1340	27.7711
1336	27.7875
1332	27.8244
1328	27.86
1324	27.951
1320	28.1012
1316	28.1877
1312	28.1666
1308	28.0941
1304	28.0363
1300	28.0225
1296	27.9954
1292	27.9396
1288	27.9042
1284	27.886
1280	27.8882
1276	27.9479
1272	28.0189
1268	28.0745
1264	28.1211
1260	28.2127
1256	28.3695
1252	28.4508
1248	28.4168
1244	28.3728
1240	28.3422
1236	28.2544
1232	28.1802
1228	28.2119
1224	28.2295
1220	28.1959
1216	28.2478
1212	28.4099
1208	28.5821
1204	28.6604
1200	28.6759
1196	28.6898
1192	28.655
1188	28.5774
1184	28.4616
1180	28.3023
1176	28.1968
1172	28.2683
1168	28.4273
1164	28.4736
1160	28.4779
1156	28.5595
1152	28.6762
1148	28.7672
1144	28.7693
1140	28.6426
1136	28.5686
1132	28.6226
1128	28.5678
1124	28.3866
1120	28.2632
1116	28.2937
1112	28.4206
1108	28.6099
1104	28.7844
1100	28.8078
1096	28.7293
1092	28.7132
1088	28.8833
1084	29.0498
1080	29.0339
1076	28.9259
1072	28.8324
1068	28.734
1064	28.5406
1060	28.3802
1056	28.4103
1052	28.5082
1048	28.5368
1044	28.5482
1040	28.6466
1036	28.8041
1032	28.8504
1028	28.7957
1024	28.8568
1020	28.99
1016	28.8792
1012	28.6447
1008	28.5973
1004	28.528
1000	28.3594
996	 28.3507
992	 28.5078
988	 28.6375
984	 28.6932
980	 28.7777
976	 28.8862
972	 28.8986
968	 28.7493
964	 28.4957
960	 28.2544
956	 28.1601
952	 28.1985
948	 28.2371
944	 28.2515
940	 28.2839
936	 28.3308
932	 28.4144
928	 28.6907
924	 29.0466
920	 29.1247
916	 28.9052
912	 28.5936
908	 28.3727
904	 28.2854
900	 28.221
896	 28.1675
892	 28.0448
888	 27.8221
884	 27.7373
880	 27.9501
876	 28.2917
872	 28.5318
868	 28.663
864	 28.6462
860	 28.5079
856	 28.3241
852	 28.1497
848	 28.0463
844	 27.9692
840	 27.8788
836	 27.7841
832	 27.6847
828	 27.5865
824	 27.614
820	 27.6976
816	 27.8149
812	 28.0719
808	 28.2206
804	 28.1603
800	 28.0153
796	 27.8341
792	 27.6056
788	 27.3043
784	 27.0772
780	 27.0335
776	 27.038
772	 27.137
768	 27.3673
764	 27.5608
760	 27.6952
756	 27.8916
752	 27.9087
748	 27.578
744	 27.2237
740	 26.8542
736	 26.4909
732	 26.2639
728	 26.2188
724	 26.37
720	 26.4294
716	 26.3244
712	 26.3662
708	 26.5966
704	 26.6878
700	 26.6409
696	 26.6517
692	 26.656
688	 26.6484
684	 26.6295
680	 26.4373
676	 26.0456
672	 25.5502
668	 25.1654
664	 25.0523
660	 25.1389
656	 25.4179
652	 25.7237
648	 25.8439
644	 25.7997
640	 25.6834
636	 25.6632
632	 25.6366
628	 25.4455
624	 25.1474
620	 24.9022
616	 24.9033
612	 25.0876
608	 25.2617
604	 25.1882
600	 24.8509
596	 24.6704
592	 24.6686
588	 24.7434
584	 24.9979
580	 25.3325
576	 25.2277
572	 24.5222
568	 24.0782
564	 23.9742
560	 23.6647
556	 23.4789
552	 23.7383
548	 23.9379
544	 23.8212
540	 24.0706
536	 24.5582
532	 24.4405
528	 23.9795
524	 23.8008
520	 23.6626
516	 23.39
512	 23.0076
508	 22.5625
504	 22.3097
500	 22.2359
496	 22.1562
492	 21.7888
488	 21.2351
484	 21.1159
480	 21.6641
476	 22.3012
472	 22.3743
468	 21.6832
464	 20.7479
460	 20.0886
456	 18.8745
452	 17.5257
448	 17.6012
444	 18.2168
440	 18.1285
436	 18.225
432	 18.8234
428	 18.2415
424	 16.9176
420	 17.1712
416	 18.1963
412	 20.0749
408	 17.1681
404	 3.262948
400	 -7.415795
396	 -8.352160
392	 -4.975628
388	 1.664948
384	 22.0561
380	 40.7572
376	 35.8433
372	 5.857658
370	 3.334999