File: Bakgrunnsmateriale/MATLAB/FTIR/ftir_data/LPE454/Mapping_121/LPE454_e124_cm-1.asc
PE IR       SPECTRUM    SPECTRUM    ASCII       PEDS        1.60
  -1
LP071C~1.ASC
17/05/19
18:01:49.00
17/05/19
18:01:49.00
tln
$LPE454_e0124$<ebV0>[-23.3,12.1,10.0,0.0,27,1,0]
370
64

2002,4.07
MIRTGS : RIGHTBACK : INTERNAL 2
MIR : ON : INTERNAL 2
OPTKBR

0.200000
8
8.000000
FILLER
SINGLE
SPECTRUM
UNLOCKED 256

DOUBLE

COMBINED
1
0
0

1.000000
BACKG

1
0
TRUE
51149
0
LEFT NOT FITTED RIGHT NOT FITTED 0
NONE
NONE
15600
12
4.427000
51148
TRUE
1 0 8 72 0 0 0 0

15798

#HDR
-1
-1
#GR
CM-1
EGY
2.38419e-05
0.0
5000
-1.000000
4631
8
2.427458
0.008296
#DATA
5000	0.774312
4996	0.775504
4992	0.776839
4988	0.777220
4984	0.777983
4980	0.779938
4976	0.781059
4972	0.780320
4968	0.780510
4964	0.783896
4960	0.788736
4956	0.792264
4952	0.793290
4948	0.793242
4944	0.794148
4940	0.796580
4936	0.797629
4932	0.797629
4928	0.799775
4924	0.802469
4920	0.803852
4916	0.804805
4912	0.805616
4908	0.806403
4904	0.808095
4900	0.810885
4896	0.813531
4892	0.815367
4888	0.816202
4884	0.816202
4880	0.817656
4876	0.821805
4872	0.824832
4868	0.825357
4864	0.826239
4860	0.829195
4856	0.832366
4852	0.833916
4848	0.835704
4844	0.838685
4840	0.841617
4836	0.844931
4832	0.849795
4828	0.853157
4824	0.854372
4820	0.856614
4816	0.859069
4812	0.861144
4808	0.863885
4804	0.866222
4800	0.867819
4796	0.870776
4792	0.874137
4788	0.876045
4784	0.877690
4780	0.880336
4776	0.884103
4772	0.887060
4768	0.888919
4764	0.890421
4760	0.891709
4756	0.893521
4752	0.894355
4748	0.895166
4744	0.896787
4740	0.897502
4736	0.898146
4732	0.899720
4728	0.901460
4724	0.902557
4720	0.904083
4716	0.904607
4712	0.903367
4708	0.903201
4704	0.904273
4700	0.905823
4696	0.906682
4692	0.905847
4688	0.905847
4684	0.908327
4680	0.911140
4676	0.911498
4672	0.909042
4668	0.908255
4664	0.910258
4660	0.910520
4656	0.908923
4652	0.908851
4648	0.910902
4644	0.914049
4640	0.915360
4636	0.915503
4632	0.917267
4628	0.919389
4624	0.920772
4620	0.922632
4616	0.926327
4612	0.928735
4608	0.927281
4604	0.927329
4600	0.929951
4596	0.931358
4592	0.932908
4588	0.935435
4584	0.938081
4580	0.942611
4576	0.948929
4572	0.954461
4568	0.956821
4564	0.959062
4560	0.966095
4556	0.973963
4552	0.979208
4548	0.979924
4544	0.979423
4540	0.980210
4536	0.984740
4532	0.987911
4528	0.981354
4524	0.959515
4520	0.935578
4516	1.005625
4512	1.094555
4508	1.051640
4504	0.995492
4500	0.995111
4496	0.995588
4492	0.991535
4488	0.988554
4484	0.994563
4480	1.000165
4476	1.000428
4472	1.001691
4468	1.001310
4464	1.003313
4460	1.012182
4456	1.016187
4452	1.012945
4448	1.010966
4444	1.011157
4440	1.009559
4436	1.007008
4432	1.009964
4428	1.016235
4424	1.019215
4420	1.019382
4416	1.019644
4412	1.019835
4408	1.018619
4404	1.017570
4400	1.018857
4396	1.021480
4392	1.023554
4388	1.025652
4384	1.029086
4380	1.033067
4376	1.036024
4372	1.038861
4368	1.042389
4364	1.045060
4360	1.047420
4356	1.050329
4352	1.053810
4348	1.057958
4344	1.062154
4340	1.065921
4336	1.068854
4332	1.072549
4328	1.078009
4324	1.083135
4320	1.087594
4316	1.093411
4312	1.100206
4308	1.106047
4304	1.111054
4300	1.114988
4296	1.118516
4292	1.123380
4288	1.128196
4284	1.132011
4280	1.135706
4276	1.140785
4272	1.147007
4268	1.150488
4264	1.151704
4260	1.154923
4256	1.159691
4252	1.162958
4248	1.166057
4244	1.170682
4240	1.173996
4236	1.175832
4232	1.177525
4228	1.179647
4224	1.182174
4220	1.185345
4216	1.189208
4212	1.192069
4208	1.193499
4204	1.194429
4200	1.195240
4196	1.196265
4192	1.196503
4188	1.198244
4184	1.201891
4180	1.205706
4176	1.210498
4172	1.212692
4168	1.212120
4164	1.214981
4160	1.219558
4156	1.219582
4152	1.217269
4148	1.219248
4144	1.224207
4140	1.228666
4136	1.232290
4132	1.234340
4128	1.235890
4124	1.239109
4120	1.243662
4116	1.248502
4112	1.252770
4108	1.255488
4104	1.257610
4100	1.262402
4096	1.269102
4092	1.274895
4088	1.279163
4084	1.282310
4080	1.287055
4076	1.294183
4072	1.301074
4068	1.306366
4064	1.310276
4060	1.313924
4056	1.318550
4052	1.324057
4048	1.328539
4044	1.332855
4040	1.339268
4036	1.346468
4032	1.352834
4028	1.357698
4024	1.361298
4020	1.364326
4016	1.367712
4012	1.372933
4008	1.378536
4004	1.382923
4000	1.386976
3996	1.389479
3992	1.390743
3988	1.393771
3984	1.397705
3980	1.399540
3976	1.400089
3972	1.402187
3968	1.405739
3964	1.408290
3960	1.409292
3956	1.410746
3952	1.412653
3948	1.413917
3944	1.414608
3940	1.415443
3936	1.416492
3932	1.417708
3928	1.419305
3924	1.420354
3920	1.420760
3916	1.422381
3912	1.424765
3908	1.423430
3904	1.419067
3900	1.419425
3896	1.424098
3892	1.426649
3888	1.427221
3884	1.429152
3880	1.433420
3876	1.437497
3872	1.438784
3868	1.440429
3864	1.444768
3860	1.444506
3856	1.438307
3852	1.442146
3848	1.456880
3844	1.462841
3840	1.460814
3836	1.464891
3832	1.474928
3828	1.481723
3824	1.483249
3820	1.483702
3816	1.488256
3812	1.496028
3808	1.498818
3804	1.498484
3800	1.504850
3796	1.516437
3792	1.526498
3788	1.532244
3784	1.534199
3780	1.536130
3776	1.539683
3772	1.542544
3768	1.545143
3764	1.548314
3760	1.549553
3756	1.544761
3752	1.536679
3748	1.534152
3744	1.539921
3740	1.546549
3736	1.549053
3732	1.553869
3728	1.559805
3724	1.563000
3720	1.564860
3716	1.563763
3712	1.562952
3708	1.566290
3704	1.570296
3700	1.572751
3696	1.571083
3692	1.563930
3688	1.561999
3684	1.566672
3680	1.563596
3676	1.555514
3672	1.555776
3668	1.563429
3664	1.569962
3660	1.570367
3656	1.565241
3652	1.558446
3648	1.558566
3644	1.565885
3640	1.571083
3636	1.571178
3632	1.567554
3628	1.567125
3624	1.571536
3620	1.572704
3616	1.571273
3612	1.572346
3608	1.577019
3604	1.582527
3600	1.585555
3596	1.586341
3592	1.584696
3588	1.584124
3584	1.588869
3580	1.593780
3576	1.595950
3572	1.597476
3568	1.599264
3564	1.602602
3560	1.606798
3556	1.609635
3552	1.610517
3548	1.610517
3544	1.610946
3540	1.611042
3536	1.611328
3532	1.611471
3528	1.611304
3524	1.613187
3520	1.616144
3516	1.618409
3512	1.619601
3508	1.618599
3504	1.616048
3500	1.613616
3496	1.612067
3492	1.611208
3488	1.609826
3484	1.607441
3480	1.604700
3476	1.601839
3472	1.599788
3468	1.598024
3464	1.595640
3460	1.594161
3456	1.593542
3452	1.591253
3448	1.586771
3444	1.582503
3440	1.579904
3436	1.577925
3432	1.576232
3428	1.575112
3424	1.574921
3420	1.576733
3416	1.579141
3412	1.579999
3408	1.580119
3404	1.582694
3400	1.587629
3396	1.590800
3392	1.592779
3388	1.595878
3384	1.598787
3380	1.601266
3376	1.604843
3372	1.610088
3368	1.615142
3364	1.619124
3360	1.623368
3356	1.628971
3352	1.635837
3348	1.641440
3344	1.645970
3340	1.651215
3336	1.657605
3332	1.665019
3328	1.671552
3324	1.676726
3320	1.681828
3316	1.687574
3312	1.693367
3308	1.699113
3304	1.705360
3300	1.711463
3296	1.716279
3292	1.720261
3288	1.724553
3284	1.729941
3280	1.735687
3276	1.740646
3272	1.744294
3268	1.746511
3264	1.748681
3260	1.752424
3256	1.757049
3252	1.761317
3248	1.765131
3244	1.768302
3240	1.770067
3236	1.770901
3232	1.772189
3228	1.774477
3224	1.776337
3220	1.776432
3216	1.775407
3212	1.774334
3208	1.774430
3204	1.775670
3200	1.777553
3196	1.780009
3192	1.781272
3188	1.780557
3184	1.780915
3180	1.783204
3176	1.785731
3172	1.786136
3168	1.786088
3164	1.787734
3160	1.790285
3156	1.793217
3152	1.796364
3148	1.799488
3144	1.802134
3140	1.804971
3136	1.808285
3132	1.811242
3128	1.815509
3124	1.821517
3120	1.828503
3116	1.835751
3112	1.840662
3108	1.845574
3104	1.853752
3100	1.861405
3096	1.867055
3092	1.874160
3088	1.883387
3084	1.892232
3080	1.899409
3076	1.905941
3072	1.911616
3068	1.915407
3064	1.919579
3060	1.926422
3056	1.934504
3052	1.941776
3048	1.947116
3044	1.951336
3040	1.956415
3036	1.961040
3032	1.961517
3028	1.957321
3024	1.949548
3020	1.944088
3016	1.950073
3012	1.967477
3008	1.986861
3004	2.001047
3000	2.009320
2996	2.013301
2992	2.014255
2988	2.012825
2984	2.008748
2980	2.001476
2976	1.988720
2972	1.967883
2968	1.943421
2964	1.924061
2960	1.913547
2956	1.909947
2952	1.906657
2948	1.895666
2944	1.872229
2940	1.838207
2936	1.802539
2932	1.772713
2928	1.753473
2924	1.756310
2920	1.789331
2916	1.839160
2912	1.882743
2908	1.911544
2904	1.930403
2900	1.944637
2896	1.957464
2892	1.969909
2888	1.979756
2884	1.986241
2880	1.988959
2876	1.983189
2872	1.964449
2868	1.932525
2864	1.899552
2860	1.889204
2856	1.910448
2852	1.949572
2848	1.990294
2844	2.023816
2840	2.049255
2836	2.069616
2832	2.085280
2828	2.097797
2824	2.109408
2820	2.119922
2816	2.129936
2812	2.139139
2808	2.146792
2804	2.154040
2800	2.161192
2796	2.168393
2792	2.176618
2788	2.184295
2784	2.190804
2780	2.197742
2776	2.205133
2772	2.212119
2768	2.218055
2764	2.223014
2760	2.226877
2756	2.229714
2752	2.232313
2748	2.235007
2744	2.238130
2740	2.240824
2736	2.240586
2732	2.238154
2728	2.237677
2724	2.238750
2720	2.237391
2716	2.234983
2712	2.233982
2708	2.232217
2704	2.229523
2700	2.227735
2696	2.226424
2692	2.224993
2688	2.223420
2684	2.221369
2680	2.218747
2676	2.215170
2672	2.211427
2668	2.209115
2664	2.207708
2660	2.206134
2656	2.203154
2652	2.199268
2648	2.197909
2644	2.198648
2640	2.197837
2636	2.196025
2632	2.195739
2628	2.197432
2624	2.199268
2620	2.199697
2616	2.200627
2612	2.202510
2608	2.203464
2604	2.204418
2600	2.205538
2596	2.206492
2592	2.208542
2588	2.212786
2584	2.218818
2580	2.225637
2576	2.232384
2572	2.238631
2568	2.243685
2564	2.247905
2560	2.252721
2556	2.257513
2552	2.261757
2548	2.266573
2544	2.272176
2540	2.276492
2536	2.279472
2532	2.283477
2528	2.288961
2524	2.293705
2520	2.296376
2516	2.297925
2512	2.300548
2508	2.304148
2504	2.305912
2500	2.304673
2496	2.303314
2492	2.304434
2488	2.305698
2484	2.304863
2480	2.302312
2476	2.299451
2472	2.296113
2468	2.291727
2464	2.288198
2460	2.285838
2456	2.283167
2452	2.280569
2448	2.276802
2444	2.271628
2440	2.268385
2436	2.267551
2432	2.263259
2428	2.255177
2424	2.249455
2420	2.246832
2416	2.244067
2412	2.239966
2408	2.237081
2404	2.235507
2400	2.232718
2396	2.229809
2392	2.227830
2388	2.225494
2384	2.223992
2380	2.223062
2376	2.220201
2372	2.214789
2368	2.210140
2364	2.209067
2360	2.212071
2356	2.219557
2352	2.228975
2348	2.235436
2344	2.238273
2340	2.240705
2336	2.244377
2332	2.249574
2328	2.257084
2324	2.265882
2320	2.274370
2316	2.282214
2312	2.290177
2308	2.298450
2304	2.306675
2300	2.314114
2296	2.319836
2292	2.324938
2288	2.330350
2284	2.334547
2280	2.337169
2276	2.340579
2272	2.344202
2268	2.345514
2264	2.346754
2260	2.349615
2256	2.352213
2252	2.353835
2248	2.354741
2244	2.354955
2240	2.354788
2236	2.354073
2232	2.352333
2228	2.349710
2224	2.347064
2220	2.345323
2216	2.344584
2212	2.343797
2208	2.340984
2204	2.335882
2200	2.330946
2196	2.327728
2192	2.325868
2188	2.322721
2184	2.318453
2180	2.315974
2176	2.314615
2172	2.312374
2168	2.308869
2164	2.305936
2160	2.305436
2156	2.305197
2152	2.304601
2148	2.305102
2144	2.306461
2140	2.306675
2136	2.306127
2132	2.306103
2128	2.305912
2124	2.305817
2120	2.305674
2116	2.305221
2112	2.305626
2108	2.307033
2104	2.308201
2100	2.308368
2096	2.307605
2092	2.306675
2088	2.307987
2084	2.311539
2080	2.315163
2076	2.320051
2072	2.327132
2068	2.334046
2064	2.341246
2060	2.351164
2056	2.361774
2052	2.368927
2048	2.374029
2044	2.381873
2040	2.391028
2036	2.397894
2032	2.402043
2028	2.405238
2024	2.409219
2020	2.413272
2016	2.417421
2012	2.421784
2008	2.424716
2004	2.426242
2000	2.427387
1996	2.427101
1992	2.425479
1988	2.423214
1984	2.419757
1980	2.415966
1976	2.412819
1972	2.409172
1968	2.405595
1964	2.402615
1960	2.399444
1956	2.396583
1952	2.394223
1948	2.390718
1944	2.386021
1940	2.382755
1936	2.380752
1932	2.376842
1928	2.370738
1924	2.364683
1920	2.359700
1916	2.356100
1912	2.353072
1908	2.349233
1904	2.345299
1900	2.342081
1896	2.339458
1892	2.337837
1888	2.337956
1884	2.339482
1880	2.341341
1876	2.341914
1872	2.341008
1868	2.342414
1864	2.347493
1860	2.351975
1856	2.354955
1852	2.357625
1848	2.357769
1844	2.357697
1840	2.362656
1836	2.368044
1832	2.370166
1828	2.373790
1824	2.380371
1820	2.386474
1816	2.390050
1812	2.392864
1808	2.395653
1804	2.396678
1800	2.395892
1796	2.392697
1792	2.390980
1788	2.393531
1784	2.394914
1780	2.392792
1776	2.385497
1772	2.377939
1768	2.378225
1764	2.379345
1760	2.374672
1756	2.363824
1752	2.349996
1748	2.339315
1744	2.328205
1740	2.310800
1736	2.292728
1732	2.288103
1728	2.293634
1724	2.289557
1720	2.273917
1716	2.264666
1712	2.265691
1708	2.259659
1704	2.240657
1700	2.220654
1696	2.216720
1692	2.222967
1688	2.215003
1684	2.202987
1680	2.203154
1676	2.200198
1672	2.191805
1668	2.186274
1664	2.180886
1660	2.167367
1656	2.140712
1652	2.121901
1648	2.123308
1644	2.127385
1640	2.120804
1636	2.109050
1632	2.102494
1628	2.092933
1624	2.072787
1620	2.042627
1616	2.005076
1612	1.967906
1608	1.944446
1604	1.946568
1600	1.964211
1596	1.978898
1592	1.984930
1588	1.983404
1584	1.976013
1580	1.963710
1576	1.952934
1572	1.948809
1568	1.942801
1564	1.920700
1560	1.893258
1556	1.894664
1552	1.918148
1548	1.928901
1544	1.926946
1540	1.946091
1536	1.998305
1532	2.049684
1528	2.073931
1524	2.076482
1520	2.072405
1516	2.067685
1512	2.055335
1508	2.027440
1504	1.962327
1500	1.823806
1496	1.676845
1492	1.658701
1488	1.763463
1484	1.874065
1480	1.930046
1476	1.943135
1472	1.941633
1468	1.933050
1464	1.906108
1460	1.849794
1456	1.776933
1452	1.736211
1448	1.758408
1444	1.805496
1440	1.828885
1436	1.834368
1432	1.839733
1428	1.842188
1424	1.837253
1420	1.827502
1416	1.815867
1412	1.789808
1408	1.742172
1404	1.704287
1400	1.707911
1396	1.738715
1392	1.761531
1388	1.761817
1384	1.759505
1380	1.770853
1376	1.782870
1372	1.789045
1368	1.791644
1364	1.791238
1360	1.791691
1356	1.792192
1352	1.789999
1348	1.787114
1344	1.786375
1340	1.790642
1336	1.801061
1332	1.812386
1328	1.819467
1324	1.822948
1320	1.825189
1316	1.827979
1312	1.829648
1308	1.829099
1304	1.828956
1300	1.830363
1296	1.831126
1292	1.829385
1288	1.827192
1284	1.825904
1280	1.820802
1276	1.807332
1272	1.781129
1268	1.738691
1264	1.699233
1260	1.697540
1256	1.733970
1252	1.774573
1248	1.798868
1244	1.808786
1240	1.810288
1236	1.807594
1232	1.804041
1228	1.799798
1224	1.791620
1220	1.777172
1216	1.757955
1212	1.738882
1208	1.725363
1204	1.720404
1200	1.721334
1196	1.721954
1192	1.718568
1188	1.711678
1184	1.702165
1180	1.691508
1176	1.679992
1172	1.665782
1168	1.648283
1164	1.628828
1160	1.610755
1156	1.599526
1152	1.593685
1148	1.587009
1144	1.577734
1140	1.566791
1136	1.554250
1132	1.539802
1128	1.521873
1124	1.501011
1120	1.479983
1116	1.459479
1112	1.440501
1108	1.425504
1104	1.416230
1100	1.411414
1096	1.409006
1092	1.408386
1088	1.409435
1084	1.410412
1080	1.409649
1076	1.409769
1072	1.413869
1068	1.419472
1064	1.420617
1060	1.404643
1056	1.353836
1052	1.294898
1048	1.291561
1044	1.335477
1040	1.365399
1036	1.368689
1032	1.361989
1028	1.353478
1024	1.347017
1020	1.345467
1016	1.350188
1012	1.359581
1008	1.369500
1004	1.376652
1000	1.380610
996	 1.381802
992	 1.379513
988	 1.374101
984	 1.367235
980	 1.359438
976	 1.350426
972	 1.339578
968	 1.326799
964	 1.312398
960	 1.297330
956	 1.282882
952	 1.268839
948	 1.256656
944	 1.248908
940	 1.243925
936	 1.237773
932	 1.228809
928	 1.218914
924	 1.210069
920	 1.200151
916	 1.186752
912	 1.171350
908	 1.158022
904	 1.148724
900	 1.140832
896	 1.133465
892	 1.123785
888	 1.103401
884	 1.071357
880	 1.038527
876	 1.020121
872	 1.025390
868	 1.047158
864	 1.067805
860	 1.077699
856	 1.078295
852	 1.073861
848	 1.068139
844	 1.061201
840	 1.047873
836	 1.016354
832	 0.953340
828	 0.874233
824	 0.833821
820	 0.858759
816	 0.906038
812	 0.932097
808	 0.937867
804	 0.936317
800	 0.935101
796	 0.939679
792	 0.949668
788	 0.960445
784	 0.967907
780	 0.969362
776	 0.966501
772	 0.963401
768	 0.961065
764	 0.957989
760	 0.954222
756	 0.950932
752	 0.946283
748	 0.938916
744	 0.930714
740	 0.923800
736	 0.917124
732	 0.907444
728	 0.894832
724	 0.881719
720	 0.869512
716	 0.858211
712	 0.846481
708	 0.833773
704	 0.820255
700	 0.803136
696	 0.778722
692	 0.748896
688	 0.727009
684	 0.723910
680	 0.727796
676	 0.725007
672	 0.716686
668	 0.706911
664	 0.698161
660	 0.689959
656	 0.680589
652	 0.669360
648	 0.657439
644	 0.646352
640	 0.635313
636	 0.624108
632	 0.614047
628	 0.605058
624	 0.595307
620	 0.583696
616	 0.569558
612	 0.550031
608	 0.528717
604	 0.517606
600	 0.517058
596	 0.516223
592	 0.511813
588	 0.506210
584	 0.502014
580	 0.498819
576	 0.493812
572	 0.488591
568	 0.484418
564	 0.479173
560	 0.472998
556	 0.467014
552	 0.460290
548	 0.452494
544	 0.444841
540	 0.438380
536	 0.431585
532	 0.422954
528	 0.413537
524	 0.403976
520	 0.394582
516	 0.385761
512	 0.376987
508	 0.367259
504	 0.355982
500	 0.343060
496	 0.329542
492	 0.316810
488	 0.304269
484	 0.290346
480	 0.275301
476	 0.260567
472	 0.247526
468	 0.236749
464	 0.225949
460	 0.212907
456	 0.197291
452	 0.181293
448	 0.168967
444	 0.160169
440	 0.149488
436	 0.135850
432	 0.123405
428	 0.112652
424	 0.100684
420	 0.087475
416	 0.075101
412	 0.064563
408	 0.055718
404	 0.046539
400	 0.038623
396	 0.032877
392	 0.026464
388	 0.020384
384	 0.015878
380	 0.011420
376	 0.008511
372	 0.008535
370	 0.008630