File: Bakgrunnsmateriale/MATLAB/FTIR/ftir_data/LPE454/Mapping_121/LPE454_t120.asc
PE IR       SPECTRUM    SPECTRUM    ASCII       PEDS        1.60
  -1
LP93F3~1.ASC
17/05/20
00:29:02.00
17/05/20
00:29:29.00
tln
$LPE454_t0120$<tbV0>[-10.4,13.0,8.0,0.0,27,1,0]
27.028
64

2002,4.07
MIRTGS : RIGHTBACK : INTERNAL 2
MIR : ON : INTERNAL 2
OPTKBR

0.200000
8
8.000000
FILLER
RATIO
SPECTRUM
UNLOCKED 256

DOUBLE
64
COMBINED
1
0
0

0.002000
RATIO

1
0
TRUE
51149
0
LEFT NOT FITTED RIGHT NOT FITTED 0
NONE
NONE
15600
12
4.427000
51148
TRUE
1 0 8 72 0 0 0 0

15798

#HDR
-1
-1
#GR
µM
%T
2.38419e-05
0.0
2.000000
0.002000
12515
8
32.0677
-22.469
#DATA
2.000000	 0.463438
2.018000	 0.292984
2.036000	 0.360020
2.054000	 -0.251552
2.072000	 0.332478
2.090000	 0.134178
2.108000	 0.375899
2.126000	 0.226393
2.144000	 0.345901
2.162000	 0.567777
2.180000	 2.912650
2.198000	 -0.308893
2.216000	 0.293522
2.234000	 0.392619
2.252000	 0.145994
2.270000	 -0.074311
2.288000	 0.037440
2.306000	 -0.179804
2.324000	 -0.383369
2.342000	 0.081793
2.360000	 0.133989
2.378000	 0.415978
2.396000	 -0.322505
2.414000	 0.508005
2.432000	 0.381566
2.450000	 -0.077761
2.468000	 -0.150528
2.486000	 -0.013116
2.504000	 -0.232679
2.522000	 -0.049576
2.540000	 0.129427
2.558000	 0.257985
2.576000	 0.066534
2.594000	 0.145675
2.612000	 0.090162
2.630000	 0.180245
2.648000	 0.008280
2.666000	 0.024165
2.684000	 0.094534
2.702000	 0.130299
2.720000	 -0.079379
2.738000	 0.149309
2.756000	 0.092491
2.774000	 0.049395
2.792000	 0.020582
2.810000	 -0.030610
2.828000	 -0.080018
2.846000	 0.044485
2.864000	 0.017619
2.882000	 0.017335
2.900000	 0.095173
2.918000	 0.002298
2.936000	 0.171581
2.954000	 0.039248
2.972000	 -0.000937
2.990000	 0.083890
3.008000	 0.062425
3.026000	 -0.097798
3.044000	 0.076072
3.062000	 0.021173
3.080000	 -0.026362
3.098000	 -0.018453
3.116000	 -0.002639
3.134000	 0.128307
3.152000	 -0.033186
3.170000	 0.025049
3.188000	 0.194132
3.206000	 0.093433
3.224000	 0.148372
3.242000	 0.109155
3.260000	 -0.156808
3.278000	 0.058776
3.296000	 0.020380
3.314000	 -0.054575
3.332000	 0.122034
3.350000	 0.135302
3.368000	 0.166457
3.386000	 -0.043329
3.404000	 -0.041462
3.422000	 0.075225
3.440000	 0.079735
3.458000	 0.046833
3.476000	 0.063979
3.494000	 0.020630
3.512000	 0.049887
3.530000	 0.013174
3.548000	 -0.019359
3.566000	 0.080063
3.584000	 0.053692
3.602000	 0.073226
3.620000	 0.024789
3.638000	 -0.034582
3.656000	 0.037327
3.674000	 0.074075
3.692000	 0.044530
3.710000	 0.016614
3.728000	 0.086402
3.746000	 0.021440
3.764000	 -0.001475
3.782000	 0.117833
3.800000	 0.084487
3.818000	 -0.009042
3.836000	 -0.007622
3.854000	 0.059164
3.872000	 0.115389
3.890000	 0.076243
3.908000	 0.013094
3.926000	 0.062754
3.944000	 -0.010820
3.962000	 0.069495
3.980000	 -0.095971
3.998000	 0.137808
4.016000	 -0.064576
4.034000	 0.034599
4.052000	 0.044467
4.070000	 -0.015118
4.088000	 0.093681
4.106000	 -0.002458
4.124000	 -0.003088
4.141999	 0.094634
4.160000	 0.120676
4.178000	 0.096085
4.196000	 0.160371
4.214000	 0.046805
4.232000	 0.116472
4.250000	 0.121561
4.268000	 0.228633
4.286000	 0.315113
4.304000	 0.387076
4.322000	 0.459916
4.340000	 0.688175
4.358000	 0.871504
4.375999	 0.998073
4.394000	 1.258730
4.412000	 1.429030
4.430000	 1.793019
4.448000	 2.255871
4.466000	 2.586630
4.484000	 3.028552
4.502000	 3.635888
4.520000	 4.109703
4.538000	 4.687818
4.556000	 5.330814
4.574000	 6.054778
4.592000	 6.827048
4.609999	 7.642144
4.628000	 8.404169
4.646000	 9.348293
4.664000	 10.1125
4.682000	 10.9706
4.700000	 11.9948
4.718000	 12.7987
4.736000	 13.6541
4.754000	 14.6027
4.772000	 15.4106
4.790000	 16.3343
4.808000	 17.0376
4.826000	 17.7524
4.843999	 18.5139
4.862000	 19.3756
4.880000	 20.0528
4.898000	 20.759
4.916000	 21.333
4.934000	 21.883
4.952000	 22.5361
4.970000	 22.9758
4.988000	 23.4363
5.006000	 23.9492
5.024000	 24.3888
5.042000	 24.9254
5.060000	 25.2443
5.077999	 25.6795
5.096000	 26.03
5.114000	 26.2796
5.132000	 26.6806
5.150000	 27.0538
5.168000	 27.4256
5.186000	 27.7017
5.204000	 27.9142
5.222000	 28.1025
5.240000	 28.3075
5.258000	 28.4117
5.276000	 28.5695
5.294000	 28.81
5.312000	 29.0552
5.330000	 29.3615
5.348000	 29.4927
5.366000	 29.5282
5.384000	 29.6022
5.402000	 29.6733
5.420000	 29.8021
5.438000	 29.8945
5.456000	 30.0652
5.474000	 30.2572
5.492000	 30.3707
5.510000	 30.4954
5.528000	 30.5486
5.546000	 30.5643
5.564000	 30.6642
5.582000	 30.6395
5.600000	 30.592
5.618000	 30.7496
5.636000	 30.8495
5.654000	 30.9405
5.672000	 31.0402
5.690000	 31.1015
5.708000	 31.1209
5.726000	 31.1032
5.744000	 31.1422
5.762000	 31.1413
5.780000	 31.1514
5.798000	 31.2089
5.816000	 31.2447
5.834000	 31.2649
5.852000	 31.2189
5.870000	 31.279
5.888000	 31.4402
5.906000	 31.4996
5.923999	 31.4542
5.942000	 31.4194
5.960000	 31.4011
5.978000	 31.356
5.996000	 31.3313
6.014000	 31.3932
6.032000	 31.5331
6.050000	 31.635
6.068000	 31.6451
6.086000	 31.6716
6.104000	 31.7283
6.122000	 31.6947
6.140000	 31.6702
6.158000	 31.6805
6.176000	 31.6257
6.194000	 31.597
6.212000	 31.5943
6.230000	 31.5563
6.248000	 31.651
6.266000	 31.7811
6.284000	 31.7725
6.302000	 31.8094
6.320000	 31.9749
6.338000	 32.0304
6.356000	 31.8899
6.374000	 31.7742
6.392000	 31.7409
6.410000	 31.6747
6.428000	 31.5807
6.446000	 31.5589
6.464000	 31.665
6.482000	 31.859
6.500000	 31.9447
6.518000	 31.938
6.536000	 31.9394
6.554000	 31.9546
6.572000	 32.0077
6.590000	 32.0194
6.608000	 31.9327
6.626000	 31.8218
6.644000	 31.742
6.662000	 31.7391
6.680000	 31.788
6.698000	 31.7982
6.716000	 31.794
6.734000	 31.7846
6.752000	 31.7899
6.770000	 31.8954
6.788000	 32.0053
6.806000	 31.9832
6.824000	 31.9135
6.842000	 31.8967
6.860000	 31.8778
6.878000	 31.795
6.896000	 31.7327
6.914000	 31.7485
6.932000	 31.7585
6.950000	 31.7552
6.968000	 31.7692
6.986000	 31.77
7.004000	 31.7903
7.022000	 31.8454
7.040000	 31.8699
7.058000	 31.8564
7.076000	 31.8758
7.094000	 31.9523
7.112000	 32.0075
7.130000	 32.027
7.148000	 32.0618
7.166000	 32.0481
7.184000	 31.9463
7.202000	 31.8458
7.220000	 31.7815
7.238000	 31.7248
7.256000	 31.6928
7.274000	 31.6964
7.292000	 31.7006
7.310000	 31.7108
7.328000	 31.76
7.346000	 31.821
7.364000	 31.8487
7.382000	 31.8634
7.400000	 31.9101
7.418000	 31.9827
7.436000	 32.0399
7.454000	 32.0563
7.472000	 32.0301
7.490000	 31.9768
7.508000	 31.9177
7.526000	 31.8537
7.544000	 31.7891
7.562000	 31.7498
7.580000	 31.7363
7.598000	 31.7134
7.616000	 31.6774
7.634000	 31.6731
7.652000	 31.7268
7.670000	 31.8042
7.688000	 31.8635
7.706000	 31.9089
7.724000	 31.9506
7.742000	 31.9708
7.760000	 31.971
7.778000	 31.9876
7.796000	 32.0218
7.814000	 32.0236
7.832000	 31.9695
7.850000	 31.8961
7.868000	 31.8361
7.886000	 31.7787
7.904000	 31.7171
7.922000	 31.6758
7.940000	 31.6591
7.958000	 31.6331
7.976000	 31.59
7.994000	 31.5778
8.012000	 31.6318
8.030000	 31.7225
8.048000	 31.794
8.065999	 31.8245
8.084000	 31.8277
8.102000	 31.8139
8.120000	 31.787
8.138000	 31.7659
8.155999	 31.77
8.173999	 31.7888
8.192000	 31.7956
8.210000	 31.7847
8.228000	 31.7652
8.246000	 31.737
8.263999	 31.6943
8.282000	 31.6397
8.300000	 31.5815
8.318000	 31.5298
8.336000	 31.4936
8.353999	 31.4754
8.372000	 31.471
8.390000	 31.4806
8.408000	 31.5088
8.426000	 31.5493
8.443999	 31.5872
8.462000	 31.6224
8.480000	 31.6747
8.498000	 31.7564
8.516000	 31.8409
8.533999	 31.8775
8.552000	 31.8449
8.570000	 31.781
8.588000	 31.7455
8.606000	 31.7571
8.624000	 31.7776
8.641999	 31.7583
8.660000	 31.6888
8.678000	 31.5975
8.696000	 31.5174
8.714000	 31.4591
8.731999	 31.4103
8.750000	 31.353
8.768000	 31.2833
8.786000	 31.2201
8.804000	 31.1902
8.821999	 31.2054
8.840000	 31.2551
8.858000	 31.3185
8.876000	 31.3787
8.894000	 31.4242
8.911999	 31.4507
8.930000	 31.4638
8.948000	 31.4762
8.966000	 31.4934
8.984000	 31.5072
9.001999	 31.5094
9.020000	 31.5064
9.038000	 31.5133
9.056000	 31.534
9.074000	 31.5561
9.092000	 31.5657
9.109999	 31.5625
9.128000	 31.5542
9.146000	 31.5415
9.164000	 31.5133
9.182000	 31.4565
9.199999	 31.3698
9.218000	 31.2664
9.236000	 31.1667
9.254000	 31.0867
9.272000	 31.0331
9.289999	 31.0041
9.308000	 30.9928
9.326000	 30.9915
9.344000	 30.9953
9.362000	 31.0058
9.379999	 31.0304
9.398000	 31.075
9.416000	 31.1366
9.434000	 31.2005
9.452000	 31.2485
9.469999	 31.2703
9.488000	 31.2686
9.506000	 31.255
9.524000	 31.2418
9.542000	 31.2387
9.560000	 31.2521
9.577999	 31.2832
9.596000	 31.3224
9.614000	 31.3489
9.632000	 31.3402
9.650000	 31.2878
9.667999	 31.2032
9.686000	 31.107
9.704000	 31.0127
9.722000	 30.9224
9.740000	 30.8355
9.757999	 30.7592
9.776000	 30.7073
9.794000	 30.6891
9.812000	 30.7011
9.830000	 30.7265
9.847999	 30.7465
9.866000	 30.7496
9.884000	 30.7355
9.902000	 30.7133
9.920000	 30.6974
9.937999	 30.6997
9.956000	 30.7232
9.974000	 30.7612
9.992000	 30.8022
10.01	30.8393
10.028	30.8744
10.046	30.9154
10.064	30.9681
10.082	31.0293
10.1	31.0852
10.118	31.1183
10.136	31.1183
10.154	31.0867
10.172	31.0348
10.19	30.9768
10.208	30.9205
10.226	30.8664
10.244	30.8109
10.262	30.7509
10.28	30.6866
10.298	30.6211
10.316	30.5581
10.334	30.5018
10.352	30.4578
10.37	30.4327
10.388	30.4307
10.406	30.4476
10.424	30.4688
10.442	30.4713
10.46	30.4355
10.478	30.3554
10.496	30.2466
10.514	30.14
10.532	30.0698
10.55	30.0562
10.568	30.0991
10.586	30.1814
10.604	30.2819
10.622	30.3836
10.64	30.479
10.658	30.5649
10.676	30.637
10.694	30.6889
10.712	30.7138
10.73	30.7112
10.748	30.6877
10.766	30.6551
10.784	30.6234
10.802	30.5979
10.82	30.5783
10.838	30.5625
10.856	30.5484
10.874	30.5346
10.892	30.5187
10.91	30.4948
10.928	30.4554
10.946	30.3936
10.964	30.3073
10.982	30.2014
11	30.0881
11.018	29.9826
11.036	29.898
11.054	29.8422
11.072	29.8153
11.09	29.8123
11.108	29.825
11.126	29.8443
11.144	29.8631
11.162	29.8756
11.18	29.8778
11.198	29.8672
11.216	29.8434
11.234	29.8088
11.252	29.7687
11.27	29.7298
11.288	29.6999
11.306	29.6855
11.324	29.6929
11.342	29.7269
11.36	29.7883
11.378	29.8717
11.396	29.9648
11.414	30.0498
11.432	30.1097
11.45	30.1348
11.468	30.1259
11.486	30.094
11.504	30.056
11.522	30.0287
11.54	30.0216
11.558	30.0351
11.576	30.0617
11.594	30.0899
11.612	30.1079
11.63	30.1073
11.648	30.0849
11.666	30.042
11.684	29.984
11.702	29.9175
11.72	29.8497
11.738	29.7847
11.756	29.7225
11.774	29.6604
11.792	29.5942
11.81	29.5216
11.828	29.4438
11.846	29.366
11.864	29.2952
11.882	29.2372
11.9	29.1938
11.918	29.162
11.936	29.135
11.954	29.105
11.972	29.0663
11.99	29.0186
12.008	28.9669
12.026	28.9199
12.044	28.8864
12.062	28.8725
12.08	28.8796
12.098	28.9047
12.116	28.9419
12.134	28.9848
12.152	29.0294
12.17	29.0743
12.188	29.1198
12.206	29.1673
12.224	29.2173
12.242	29.2696
12.26	29.3236
12.278	29.3781
12.296	29.4323
12.314	29.4857
12.332	29.5367
12.35	29.5822
12.368	29.6165
12.386	29.6324
12.404	29.6229
12.422	29.5845
12.44	29.5184
12.458	29.4319
12.476	29.337
12.494	29.2483
12.512	29.1787
12.53	29.1358
12.548	29.1196
12.566	29.1232
12.584	29.1344
12.602	29.1395
12.62	29.127
12.638	29.0909
12.656	29.0323
12.674	28.9581
12.692	28.8785
12.71	28.8038
12.728	28.7416
12.746	28.6951
12.764	28.6625
12.782	28.638
12.8	28.6147
12.818	28.5865
12.836	28.5505
12.854	28.508
12.872	28.4629
12.89	28.4213
12.908	28.3889
12.926	28.3698
12.944	28.3651
12.962	28.3729
12.98	28.3893
12.998	28.4096
13.016	28.4294
13.034	28.4451
13.052	28.4547
13.07	28.4578
13.088	28.4553
13.106	28.4494
13.124	28.4433
13.142	28.4407
13.16	28.4456
13.178	28.4614
13.196	28.491
13.214	28.5347
13.232	28.5907
13.25	28.6544
13.268	28.7195
13.286	28.7786
13.304	28.8243
13.322	28.8514
13.34	28.8572
13.358	28.8423
13.376	28.8103
13.394	28.7662
13.412	28.7159
13.43	28.6637
13.448	28.6122
13.466	28.5616
13.484	28.5108
13.502	28.4574
13.52	28.3997
13.538	28.3372
13.556	28.2713
13.574	28.2047
13.592	28.1414
13.61	28.0851
13.628	28.0389
13.646	28.0047
13.664	27.983
13.682	27.9727
13.7	27.972
13.718	27.9787
13.736	27.9905
13.754	28.0051
13.772	28.0205
13.79	28.0343
13.808	28.0442
13.826	28.0475
13.844	28.0417
13.862	28.0249
13.88	27.9962
13.898	27.9562
13.916	27.9067
13.934	27.8504
13.952	27.7911
13.97	27.7325
13.988	27.6782
14.006	27.631
14.024	27.5924
14.042	27.5634
14.06	27.5439
14.078	27.5335
14.096	27.5313
14.114	27.5361
14.132	27.547
14.15	27.5626
14.168	27.5816
14.186	27.6027
14.204	27.6243
14.222	27.6451
14.24	27.6638
14.258	27.6797
14.276	27.6926
14.294	27.7024
14.312	27.7097
14.33	27.7152
14.348	27.7194
14.366	27.7226
14.384	27.7251
14.402	27.7268
14.42	27.7275
14.438	27.7271
14.456	27.7256
14.474	27.7232
14.492	27.7204
14.51	27.7179
14.528	27.7165
14.546	27.7165
14.564	27.718
14.582	27.7206
14.6	27.7233
14.618	27.725
14.636	27.724
14.654	27.7191
14.672	27.7095
14.69	27.6947
14.708	27.6751
14.726	27.6512
14.744	27.6242
14.762	27.5954
14.78	27.566
14.798	27.537
14.816	27.5089
14.834	27.4819
14.852	27.4558
14.87	27.4299
14.888	27.4033
14.906	27.375
14.924	27.344
14.942	27.3094
14.96	27.2706
14.978	27.2276
14.996	27.1808
15.014	27.1308
15.032	27.079
15.05	27.0267
15.068	26.9753
15.086	26.9259
15.104	26.8795
15.122	26.837
15.14	26.7984
15.158	26.7634
15.176	26.7317
15.194	26.7024
15.212	26.6748
15.23	26.6485
15.248	26.6237
15.266	26.6007
15.284	26.5803
15.302	26.5638
15.32	26.5524
15.338	26.547
15.356	26.5487
15.374	26.5576
15.392	26.5734
15.41	26.5954
15.428	26.6222
15.446	26.6518
15.464	26.6824
15.482	26.7123
15.5	26.7394
15.518	26.7618
15.536	26.7783
15.554	26.7879
15.572	26.7899
15.59	26.7839
15.608	26.7703
15.626	26.7496
15.644	26.723
15.662	26.6921
15.68	26.6588
15.698	26.625
15.716	26.5932
15.734	26.5659
15.752	26.5448
15.77	26.5315
15.788	26.5271
15.806	26.5316
15.824	26.5444
15.842	26.5644
15.86	26.5891
15.878	26.6167
15.896	26.645
15.914	26.6712
15.932	26.694
15.95	26.7121
15.968	26.7248
15.986	26.7323
16.004	26.7351
16.022	26.7338
16.04	26.7298
16.058	26.7236
16.076	26.7156
16.094	26.7065
16.112	26.6954
16.13	26.6819
16.148	26.6652
16.166	26.6438
16.184	26.617
16.202	26.584
16.22	26.5441
16.238	26.4976
16.256	26.4449
16.274	26.387
16.292	26.3253
16.31	26.2611
16.328	26.1963
16.346	26.1325
16.364	26.0708
16.382	26.0129
16.4	25.9593
16.418	25.9107
16.436	25.8676
16.454	25.83
16.472	25.7978
16.49	25.7707
16.508	25.7484
16.526	25.7305
16.544	25.7164
16.562	25.7054
16.58	25.6971
16.598	25.6903
16.616	25.6841
16.634	25.6779
16.652	25.6702
16.67	25.6608
16.688	25.6488
16.706	25.634
16.724	25.6163
16.742	25.5958
16.76	25.5734
16.778	25.5496
16.796	25.5254
16.814	25.5017
16.832	25.4792
16.85	25.4589
16.868	25.4412
16.886	25.4261
16.904	25.4139
16.922	25.404
16.94	25.3962
16.958	25.3898
16.976	25.3848
16.994	25.3806
17.012	25.3774
17.03	25.3751
17.048	25.3743
17.066	25.375
17.084	25.3777
17.102	25.3828
17.12	25.3904
17.138	25.4004
17.156	25.4123
17.174	25.4256
17.192	25.4389
17.21	25.4514
17.228	25.4614
17.246	25.4683
17.264	25.4711
17.282	25.47
17.3	25.4652
17.318	25.4576
17.336	25.4491
17.354	25.4405
17.372	25.4353
17.39	25.4343
17.408	25.4403
17.426	25.4545
17.444	25.4778
17.462	25.5102
17.48	25.5514
17.498	25.6
17.516	25.6538
17.534	25.7112
17.552	25.768
17.57	25.823
17.588	25.872
17.606	25.9139
17.624	25.9461
17.642	25.9679
17.66	25.9789
17.678	25.9796
17.696	25.9707
17.714	25.9543
17.732	25.9324
17.75	25.9072
17.768	25.8821
17.786	25.8581
17.804	25.8388
17.822	25.8247
17.84	25.8174
17.858	25.8167
17.876	25.823
17.894	25.8341
17.912	25.8497
17.93	25.8662
17.948	25.8829
17.966	25.8952
17.984	25.9019
18.002	25.8992
18.02	25.8856
18.038	25.8588
18.056	25.8178
18.074	25.7619
18.092	25.6915
18.11	25.6071
18.128	25.5113
18.146	25.4053
18.164	25.293
18.182	25.1768
18.2	25.0602
18.218	24.9469
18.236	24.8393
18.254	24.7413
18.272	24.654
18.29	24.5802
18.308	24.5201
18.326	24.4744
18.344	24.4426
18.362	24.4235
18.38	24.4162
18.398	24.418
18.416	24.4273
18.434	24.4415
18.452	24.4582
18.47	24.4755
18.488	24.4908
18.506	24.503
18.524	24.5103
18.542	24.5123
18.56	24.5077
18.578	24.4964
18.596	24.4787
18.614	24.4545
18.632	24.4249
18.65	24.3901
18.668	24.3518
18.686	24.3102
18.704	24.2671
18.722	24.2226
18.74	24.1787
18.758	24.1355
18.776	24.0947
18.794	24.0566
18.812	24.0225
18.83	23.9929
18.848	23.969
18.866	23.9508
18.884	23.9393
18.902	23.9343
18.92	23.9362
18.938	23.9446
18.956	23.9592
18.974	23.9794
18.992	24.0045
19.01	24.0336
19.028	24.0653
19.046	24.0986
19.064	24.1319
19.082	24.1644
19.1	24.1941
19.118	24.2206
19.136	24.2424
19.154	24.2593
19.172	24.2702
19.19	24.2755
19.208	24.2749
19.226	24.2689
19.244	24.2582
19.262	24.2431
19.28	24.2254
19.298	24.2051
19.316	24.1846
19.334	24.1638
19.352	24.145
19.37	24.1281
19.388	24.1147
19.406	24.1047
19.424	24.0987
19.442	24.0968
19.46	24.0984
19.478	24.1037
19.496	24.1115
19.514	24.1216
19.532	24.1327
19.55	24.1442
19.568	24.1553
19.586	24.1647
19.604	24.1724
19.622	24.1769
19.64	24.1787
19.658	24.177
19.676	24.172
19.694	24.1639
19.712	24.1526
19.73	24.1396
19.748	24.1245
19.766	24.1091
19.784	24.0934
19.802	24.0789
19.82	24.0662
19.838	24.056
19.856	24.0496
19.874	24.0468
19.892	24.0487
19.91	24.0551
19.928	24.0659
19.946	24.0812
19.964	24.1004
19.982	24.1235
20	24.1497
20.018	24.1786
20.036	24.2097
20.054	24.242
20.072	24.2755
20.09	24.3088
20.108	24.342
20.126	24.3739
20.144	24.4046
20.162	24.433
20.18	24.4589
20.198	24.4816
20.216	24.5
20.234	24.5142
20.252	24.5221
20.27	24.5242
20.288	24.5179
20.306	24.5033
20.324	24.4786
20.342	24.4427
20.36	24.3956
20.378	24.3358
20.396	24.2636
20.414	24.1793
20.432	24.0825
20.45	23.9749
20.468	23.8567
20.486	23.7295
20.504	23.5964
20.522	23.457
20.54	23.3175
20.558	23.1767
20.576	23.0403
20.594	22.9102
20.612	22.7877
20.63	22.6781
20.648	22.58
20.666	22.4975
20.684	22.4308
20.702	22.3803
20.72	22.3474
20.738	22.3309
20.756	22.3296
20.774	22.3441
20.792	22.3699
20.81	22.4072
20.828	22.4531
20.846	22.5038
20.864	22.5601
20.882	22.6165
20.9	22.6732
20.918	22.7279
20.936	22.7786
20.954	22.8258
20.972	22.868
20.99	22.905
21.008	22.9382
21.026	22.9675
21.044	22.9938
21.062	23.0197
21.08	23.0444
21.098	23.0715
21.116	23.1018
21.134	23.1359
21.152	23.1766
21.17	23.2231
21.188	23.277
21.206	23.3391
21.224	23.4083
21.242	23.4842
21.26	23.5671
21.278	23.6539
21.296	23.7451
21.314	23.8384
21.332	23.9295
21.35	24.0201
21.368	24.1044
21.386	24.1817
21.404	24.2507
21.422	24.3056
21.44	24.3482
21.458	24.3746
21.476	24.3831
21.494	24.3743
21.512	24.3453
21.53	24.2964
21.548	24.228
21.566	24.1397
21.584	24.0319
21.602	23.9069
21.62	23.7638
21.638	23.6052
21.656	23.434
21.674	23.2492
21.692	23.0555
21.71	22.8535
21.728	22.6441
21.746	22.4326
21.764	22.2173
21.782	22.0016
21.8	21.7882
21.818	21.576
21.836	21.3688
21.854	21.1665
21.872	20.9699
21.89	20.7814
21.908	20.6002
21.926	20.4276
21.944	20.2644
21.962	20.1103
21.98	19.9666
21.998	19.8335
22.016	19.711
22.034	19.6003
22.052	19.5007
22.07	19.4133
22.088	19.339
22.106	19.2773
22.124	19.2293
22.142	19.1953
22.16	19.1751
22.178	19.1696
22.196	19.1789
22.214	19.2024
22.232	19.2399
22.25	19.2917
22.268	19.356
22.286	19.4323
22.304	19.5209
22.322	19.6179
22.34	19.7239
22.358	19.8375
22.376	19.9537
22.394	20.0743
22.412	20.1958
22.43	20.3132
22.448	20.4288
22.466	20.5385
22.484	20.6386
22.502	20.7312
22.52	20.8127
22.538	20.8812
22.556	20.9381
22.574	20.9819
22.592	21.012
22.61	21.0294
22.628	21.0354
22.646	21.029
22.664	21.0119
22.682	20.987
22.7	20.9528
22.718	20.9119
22.736	20.8673
22.754	20.8172
22.772	20.7647
22.79	20.7128
22.808	20.6598
22.826	20.6082
22.844	20.5597
22.862	20.5133
22.88	20.4697
22.898	20.4297
22.916	20.3928
22.934	20.3577
22.952	20.3243
22.97	20.2927
22.988	20.2609
23.006	20.229
23.024	20.1969
23.042	20.1622
23.06	20.125
23.078	20.0852
23.096	20.0408
23.114	19.9915
23.132	19.9378
23.15	19.8786
23.168	19.8136
23.186	19.7434
23.204	19.6693
23.222	19.5904
23.24	19.5078
23.258	19.424
23.276	19.3382
23.294	19.2513
23.312	19.1663
23.33	19.0826
23.348	19.0007
23.366	18.9237
23.384	18.8512
23.402	18.7835
23.42	18.7226
23.438	18.6688
23.456	18.6218
23.474	18.5819
23.492	18.5498
23.51	18.5249
23.528	18.5061
23.546	18.4939
23.564	18.488
23.582	18.4857
23.6	18.4863
23.618	18.4907
23.636	18.495
23.654	18.4976
23.672	18.5002
23.69	18.4987
23.708	18.4906
23.726	18.478
23.744	18.458
23.762	18.4282
23.78	18.39
23.798	18.3421
23.816	18.2827
23.834	18.2122
23.852	18.1309
23.87	18.0387
23.888	17.9342
23.906	17.8194
23.924	17.698
23.942	17.5682
23.96	17.4313
23.978	17.2942
23.996	17.1583
24.014	17.0214
24.032	16.8908
24.05	16.7709
24.068	16.6572
24.086	16.5561
24.104	16.4734
24.122	16.4045
24.14	16.3542
24.158	16.3296
24.176	16.3282
24.194	16.3512
24.212	16.4041
24.23	16.4888
24.248	16.603
24.266	16.7468
24.284	16.9209
24.302	17.1258
24.32	17.3578
24.338	17.614
24.356	17.8974
24.374	18.2039
24.392	18.5268
24.41	18.8688
24.428	19.2283
24.446	19.5976
24.464	19.9739
24.482	20.3609
24.5	20.7521
24.518	21.1419
24.536	21.5346
24.554	21.9264
24.572	22.3117
24.59	22.6922
24.608	23.0674
24.626	23.432
24.644	23.7837
24.662	24.1252
24.68	24.4532
24.698	24.7641
24.716	25.0593
24.734	25.3389
24.752	25.6017
24.77	25.8477
24.788	26.0773
24.806	26.29
24.824	26.4854
24.842	26.6639
24.86	26.8254
24.878	26.9691
24.896	27.0956
24.914	27.2049
24.932	27.2957
24.95	27.3674
24.968	27.4206
24.986	27.4556
25.004	27.4729
25.022	27.4728
25.04	27.4549
25.058	27.4185
25.076	27.3635
25.094	27.2905
25.112	27.1985
25.13	27.0864
25.148	26.9544
25.166	26.803
25.184	26.6319
25.202	26.4403
25.22	26.2283
25.238	25.9979
25.256	25.7515
25.274	25.4872
25.292	25.2062
25.31	24.9124
25.328	24.6071
25.346	24.2875
25.364	23.958
25.382	23.624
25.4	23.2846
25.418	22.939
25.436	22.5901
25.454	22.2407
25.472	21.8899
25.49	21.5367
25.508	21.1806
25.526	20.823
25.544	20.464
25.562	20.0991
25.58	19.7243
25.598	19.3446
25.616	18.9563
25.634	18.5514
25.652	18.1268
25.67	17.6912
25.688	17.232
25.706	16.7346
25.724	16.2014
25.742	15.6373
25.76	15.0262
25.778	14.3531
25.796	13.6274
25.814	12.8466
25.832	12.0001
25.85	11.0793
25.868	10.0896
25.886	9.032979
25.904	7.910484
25.922	6.720601
25.94	5.462996
25.958	4.144016
25.976	2.769854
25.994	1.329736
26.012	-0.170085
26.03	-1.708012
26.048	-3.267112
26.066	-4.873695
26.084	-6.505999
26.102	-8.126134
26.12	-9.714028
26.138	-11.3069
26.156	-12.8666
26.174	-14.3459
26.192	-15.7347
26.21	-17.0674
26.228	-18.2973
26.246	-19.3744
26.264	-20.3033
26.282	-21.1044
26.3	-21.7403
26.318	-22.1741
26.336	-22.4115
26.354	-22.4644
26.372	-22.3259
26.39	-21.9884
26.408	-21.445
26.426	-20.7086
26.444	-19.7964
26.462	-18.7203
26.48	-17.4518
26.498	-16.0187
26.516	-14.4642
26.534	-12.8166
26.552	-11.0318
26.57	-9.145206
26.588	-7.208016
26.606	-5.249906
26.624	-3.223865
26.642	-1.166407
26.66	0.874372
26.678	2.872577
26.696	4.867536
26.714	6.832987
26.732	8.735699
26.75	10.5568
26.768	12.3194
26.786	14.0161
26.804	15.6363
26.822	17.1728
26.84	18.6309
26.858	20.015
26.876	21.3287
26.894	22.5717
26.912	23.7387
26.93	24.8399
26.948	25.8864
26.966	26.9163
26.984	27.9688
27.002	28.9282
27.02	29.6696
27.028	29.8731