File: Bakgrunnsmateriale/MATLAB/FTIR/ftir_data/LPE454/Mapping_121/LPE454_t23.asc
PE IR       SPECTRUM    SPECTRUM    ASCII       PEDS        1.60
  -1
LPCB90~1.ASC
17/05/19
16:18:31.00
17/05/19
16:18:58.00
tln
$LPE454_t0023$<tbV0>[13.0,-7.8,8.0,0.0,27,1,0]
27.028
64

2002,4.07
MIRTGS : RIGHTBACK : INTERNAL 2
MIR : ON : INTERNAL 2
OPTKBR

0.200000
8
8.000000
FILLER
RATIO
SPECTRUM
UNLOCKED 256

DOUBLE
64
COMBINED
1
0
0

0.002000
RATIO

1
0
TRUE
51149
0
LEFT NOT FITTED RIGHT NOT FITTED 0
NONE
NONE
15600
12
4.427000
51148
TRUE
1 0 8 72 0 0 0 0

15798

#HDR
-1
-1
#GR
µM
%T
2.38419e-05
0.0
2.000000
0.002000
12515
8
26.5321
-6.664502
#DATA
2.000000	 0.598549
2.018000	 0.185682
2.036000	 0.176200
2.054000	 0.313058
2.072000	 0.441813
2.090000	 0.262857
2.108000	 -0.113354
2.126000	 0.223303
2.144000	 0.376896
2.162000	 0.031094
2.180000	 0.502113
2.198000	 0.042622
2.216000	 -6.014110
2.234000	 0.888075
2.252000	 0.568760
2.270000	 0.463359
2.288000	 0.392743
2.306000	 0.100066
2.324000	 0.258399
2.342000	 0.225831
2.360000	 0.134539
2.378000	 0.122710
2.396000	 -0.488203
2.414000	 0.200437
2.432000	 0.022457
2.450000	 0.010332
2.468000	 0.043898
2.486000	 0.087996
2.504000	 -0.054949
2.522000	 0.179218
2.540000	 0.055730
2.558000	 -0.014288
2.576000	 0.079795
2.594000	 0.041441
2.612000	 0.224204
2.630000	 0.037964
2.648000	 0.093876
2.666000	 0.041810
2.684000	 0.134400
2.702000	 0.133888
2.720000	 0.119850
2.738000	 -0.071517
2.756000	 -0.020787
2.774000	 0.213375
2.792000	 0.124938
2.810000	 -0.053878
2.828000	 0.204494
2.846000	 -0.139073
2.864000	 0.011763
2.882000	 0.035770
2.900000	 -0.011468
2.918000	 0.100774
2.936000	 -0.060658
2.954000	 0.077969
2.972000	 0.072070
2.990000	 -0.009489
3.008000	 0.134937
3.026000	 0.057295
3.044000	 0.072037
3.062000	 0.062449
3.080000	 0.049068
3.098000	 0.000749
3.116000	 -0.016910
3.134000	 -0.007360
3.152000	 -0.017984
3.170000	 0.045691
3.188000	 0.176581
3.206000	 0.212398
3.224000	 -0.001939
3.242000	 -0.004596
3.260000	 0.067802
3.278000	 -0.071415
3.296000	 -0.007495
3.314000	 0.247570
3.332000	 0.051679
3.350000	 0.139058
3.368000	 0.188550
3.386000	 0.091651
3.404000	 0.116255
3.422000	 0.011881
3.440000	 0.112721
3.458000	 0.058149
3.476000	 -0.015458
3.494000	 0.008943
3.512000	 0.034698
3.530000	 0.005277
3.548000	 0.071405
3.566000	 0.083789
3.584000	 0.056572
3.602000	 0.160620
3.620000	 0.025847
3.638000	 -0.046584
3.656000	 0.026886
3.674000	 -0.002845
3.692000	 0.055092
3.710000	 0.040045
3.728000	 0.030262
3.746000	 0.083254
3.764000	 -0.002969
3.782000	 -0.032443
3.800000	 0.030203
3.818000	 0.087576
3.836000	 0.018614
3.854000	 0.024487
3.872000	 -0.027491
3.890000	 0.100519
3.908000	 0.176510
3.926000	 0.095210
3.944000	 0.127806
3.962000	 0.051340
3.980000	 0.050009
3.998000	 0.133326
4.016000	 0.191721
4.034000	 0.097910
4.052000	 0.127266
4.070000	 0.055053
4.088000	 -0.019859
4.106000	 -0.059552
4.124000	 -0.159194
4.141999	 0.088620
4.160000	 -0.087395
4.178000	 -0.014217
4.196000	 0.083791
4.214000	 0.046206
4.232000	 -0.035687
4.250000	 -0.054963
4.268000	 0.012973
4.286000	 0.083922
4.304000	 0.098688
4.322000	 0.034041
4.340000	 0.128105
4.358000	 0.054975
4.375999	 0.264380
4.394000	 0.260534
4.412000	 0.334406
4.430000	 0.405660
4.448000	 0.675495
4.466000	 0.886028
4.484000	 1.032806
4.502000	 1.326966
4.520000	 1.576710
4.538000	 2.003232
4.556000	 2.379252
4.574000	 2.653267
4.592000	 3.099384
4.609999	 3.696419
4.628000	 4.279959
4.646000	 4.899422
4.664000	 5.542808
4.682000	 6.280758
4.700000	 6.807285
4.718000	 7.596108
4.736000	 8.229982
4.754000	 8.901875
4.772000	 9.574352
4.790000	 10.4312
4.808000	 11.1323
4.826000	 11.6162
4.843999	 12.207
4.862000	 12.9143
4.880000	 13.6507
4.898000	 14.2408
4.916000	 14.7101
4.934000	 15.3021
4.952000	 15.9146
4.970000	 16.3752
4.988000	 16.8865
5.006000	 17.4085
5.024000	 17.7816
5.042000	 18.1676
5.060000	 18.5607
5.077999	 19.0028
5.096000	 19.4718
5.114000	 19.8575
5.132000	 20.1138
5.150000	 20.4225
5.168000	 20.8203
5.186000	 21.1388
5.204000	 21.2737
5.222000	 21.5225
5.240000	 21.7021
5.258000	 21.9364
5.276000	 22.2049
5.294000	 22.3864
5.312000	 22.6915
5.330000	 22.8566
5.348000	 22.9529
5.366000	 23.1344
5.384000	 23.3108
5.402000	 23.3907
5.420000	 23.5222
5.438000	 23.7632
5.456000	 23.9417
5.474000	 24.0806
5.492000	 24.2298
5.510000	 24.3164
5.528000	 24.3996
5.546000	 24.5196
5.564000	 24.6702
5.582000	 24.7291
5.600000	 24.7305
5.618000	 24.8205
5.636000	 24.8709
5.654000	 24.9756
5.672000	 25.0672
5.690000	 25.1037
5.708000	 25.1855
5.726000	 25.2473
5.744000	 25.2421
5.762000	 25.2728
5.780000	 25.3597
5.798000	 25.4766
5.816000	 25.5546
5.834000	 25.6299
5.852000	 25.716
5.870000	 25.731
5.888000	 25.7048
5.906000	 25.7352
5.923999	 25.8881
5.942000	 25.8924
5.960000	 25.7528
5.978000	 25.8133
5.996000	 25.9315
6.014000	 26.0378
6.032000	 26.0803
6.050000	 26.0457
6.068000	 26.0772
6.086000	 26.1141
6.104000	 26.093
6.122000	 26.0737
6.140000	 26.0818
6.158000	 26.1233
6.176000	 26.1781
6.194000	 26.2039
6.212000	 26.2729
6.230000	 26.2684
6.248000	 26.217
6.266000	 26.1958
6.284000	 26.2235
6.302000	 26.2987
6.320000	 26.3168
6.338000	 26.2629
6.356000	 26.248
6.374000	 26.3068
6.392000	 26.3269
6.410000	 26.2575
6.428000	 26.2073
6.446000	 26.2361
6.464000	 26.272
6.482000	 26.2835
6.500000	 26.3362
6.518000	 26.4025
6.536000	 26.3928
6.554000	 26.3268
6.572000	 26.2859
6.590000	 26.2775
6.608000	 26.2846
6.626000	 26.293
6.644000	 26.2988
6.662000	 26.3545
6.680000	 26.4541
6.698000	 26.5293
6.716000	 26.4868
6.734000	 26.3717
6.752000	 26.3293
6.770000	 26.3422
6.788000	 26.3568
6.806000	 26.3965
6.824000	 26.4483
6.842000	 26.4691
6.860000	 26.3862
6.878000	 26.2454
6.896000	 26.229
6.914000	 26.2632
6.932000	 26.1662
6.950000	 26.0611
6.968000	 26.1198
6.986000	 26.2674
7.004000	 26.3529
7.022000	 26.3338
7.040000	 26.2798
7.058000	 26.2684
7.076000	 26.2677
7.094000	 26.2064
7.112000	 26.1381
7.130000	 26.1386
7.148000	 26.1504
7.166000	 26.1274
7.184000	 26.1037
7.202000	 26.0874
7.220000	 26.1053
7.238000	 26.1783
7.256000	 26.2178
7.274000	 26.1544
7.292000	 26.0657
7.310000	 26.039
7.328000	 26.0432
7.346000	 26.0401
7.364000	 26.0692
7.382000	 26.1311
7.400000	 26.1643
7.418000	 26.1745
7.436000	 26.196
7.454000	 26.2047
7.472000	 26.1867
7.490000	 26.1564
7.508000	 26.1076
7.526000	 26.062
7.544000	 26.0516
7.562000	 26.0485
7.580000	 26.0176
7.598000	 25.9838
7.616000	 25.9986
7.634000	 26.0797
7.652000	 26.1641
7.670000	 26.1693
7.688000	 26.106
7.706000	 26.0477
7.724000	 26.023
7.742000	 26.0091
7.760000	 25.985
7.778000	 25.9487
7.796000	 25.9079
7.814000	 25.8675
7.832000	 25.8317
7.850000	 25.8052
7.868000	 25.7915
7.886000	 25.8091
7.904000	 25.8819
7.922000	 25.9831
7.940000	 26.0462
7.958000	 26.0557
7.976000	 26.0434
7.994000	 26.0158
8.012000	 25.9654
8.030000	 25.9136
8.048000	 25.8849
8.065999	 25.8755
8.084000	 25.8765
8.102000	 25.887
8.120000	 25.9029
8.138000	 25.921
8.155999	 25.9474
8.173999	 25.9821
8.192000	 26.0086
8.210000	 26.0116
8.228000	 25.9905
8.246000	 25.9516
8.263999	 25.8973
8.282000	 25.8251
8.300000	 25.739
8.318000	 25.6578
8.336000	 25.6086
8.353999	 25.6008
8.372000	 25.6118
8.390000	 25.613
8.408000	 25.6087
8.426000	 25.6261
8.443999	 25.6671
8.462000	 25.6982
8.480000	 25.6977
8.498000	 25.6881
8.516000	 25.7056
8.533999	 25.7509
8.552000	 25.7811
8.570000	 25.7542
8.588000	 25.6732
8.606000	 25.5827
8.624000	 25.5219
8.641999	 25.489
8.660000	 25.4541
8.678000	 25.4023
8.696000	 25.3512
8.714000	 25.3308
8.731999	 25.355
8.750000	 25.4104
8.768000	 25.4687
8.786000	 25.5029
8.804000	 25.5014
8.821999	 25.4736
8.840000	 25.4434
8.858000	 25.4303
8.876000	 25.4328
8.894000	 25.4327
8.911999	 25.417
8.930000	 25.3893
8.948000	 25.3575
8.966000	 25.3154
8.984000	 25.2488
9.001999	 25.1587
9.020000	 25.0711
9.038000	 25.0145
9.056000	 24.9915
9.074000	 24.9798
9.092000	 24.9648
9.109999	 24.9577
9.128000	 24.9788
9.146000	 25.0269
9.164000	 25.0765
9.182000	 25.1081
9.199999	 25.1301
9.218000	 25.1646
9.236000	 25.2142
9.254000	 25.2508
9.272000	 25.2377
9.289999	 25.1625
9.308000	 25.0448
9.326000	 24.9215
9.344000	 24.8269
9.362000	 24.7819
9.379999	 24.7911
9.398000	 24.8437
9.416000	 24.9173
9.434000	 24.9825
9.452000	 25.0122
9.469999	 24.992
9.488000	 24.9293
9.506000	 24.8499
9.524000	 24.7844
9.542000	 24.7524
9.560000	 24.7546
9.577999	 24.78
9.596000	 24.817
9.614000	 24.8537
9.632000	 24.8768
9.650000	 24.8757
9.667999	 24.8507
9.686000	 24.8083
9.704000	 24.7521
9.722000	 24.6817
9.740000	 24.603
9.757999	 24.5351
9.776000	 24.5016
9.794000	 24.5085
9.812000	 24.533
9.830000	 24.5381
9.847999	 24.5021
9.866000	 24.4345
9.884000	 24.3668
9.902000	 24.33
9.920000	 24.3391
9.937999	 24.3893
9.956000	 24.4635
9.974000	 24.5402
9.992000	 24.6013
10.01	24.6361
10.028	24.6464
10.046	24.6457
10.064	24.6512
10.082	24.6725
10.1	24.7042
10.118	24.7271
10.136	24.7197
10.154	24.6698
10.172	24.5826
10.19	24.4796
10.208	24.3863
10.226	24.3181
10.244	24.2749
10.262	24.2432
10.28	24.2076
10.298	24.1613
10.316	24.1093
10.334	24.0626
10.352	24.0303
10.37	24.0143
10.388	24.0105
10.406	24.0131
10.424	24.019
10.442	24.0271
10.46	24.0379
10.478	24.0518
10.496	24.0684
10.514	24.0882
10.532	24.112
10.55	24.1392
10.568	24.1676
10.586	24.1923
10.604	24.2071
10.622	24.2072
10.64	24.1904
10.658	24.1574
10.676	24.1108
10.694	24.0538
10.712	23.989
10.73	23.9166
10.748	23.8363
10.766	23.7485
10.784	23.6552
10.802	23.5624
10.82	23.4785
10.838	23.4132
10.856	23.3745
10.874	23.3668
10.892	23.3895
10.91	23.437
10.928	23.4993
10.946	23.5638
10.964	23.6191
10.982	23.6572
11	23.6779
11.018	23.6882
11.036	23.6989
11.054	23.7196
11.072	23.7528
11.09	23.7927
11.108	23.8279
11.126	23.8456
11.144	23.838
11.162	23.8042
11.18	23.7497
11.198	23.6837
11.216	23.6157
11.234	23.5533
11.252	23.5023
11.27	23.4651
11.288	23.4416
11.306	23.4276
11.324	23.4151
11.342	23.3942
11.36	23.3564
11.378	23.2976
11.396	23.2211
11.414	23.1367
11.432	23.0586
11.45	22.9993
11.468	22.9672
11.486	22.9645
11.504	22.9867
11.522	23.0252
11.54	23.0707
11.558	23.114
11.576	23.1478
11.594	23.1682
11.612	23.174
11.63	23.1666
11.648	23.1501
11.666	23.13
11.684	23.1118
11.702	23.0988
11.72	23.0919
11.738	23.0889
11.756	23.0858
11.774	23.0778
11.792	23.0617
11.81	23.0365
11.828	23.0043
11.846	22.9688
11.864	22.9352
11.882	22.9081
11.9	22.8911
11.918	22.8857
11.936	22.8902
11.954	22.9003
11.972	22.9091
11.99	22.9092
12.008	22.8945
12.026	22.8624
12.044	22.8147
12.062	22.7578
12.08	22.7004
12.098	22.6508
12.116	22.6148
12.134	22.5936
12.152	22.5837
12.17	22.5799
12.188	22.578
12.206	22.5754
12.224	22.572
12.242	22.5683
12.26	22.5638
12.278	22.5573
12.296	22.5469
12.314	22.5319
12.332	22.5142
12.35	22.4975
12.368	22.4874
12.386	22.4891
12.404	22.5056
12.422	22.5368
12.44	22.5783
12.458	22.6221
12.476	22.658
12.494	22.6751
12.512	22.6647
12.53	22.6216
12.548	22.5455
12.566	22.4417
12.584	22.3199
12.602	22.1927
12.62	22.0739
12.638	21.9752
12.656	21.904
12.674	21.8622
12.692	21.8467
12.71	21.8504
12.728	21.8645
12.746	21.8797
12.764	21.8888
12.782	21.887
12.8	21.8721
12.818	21.8447
12.836	21.8076
12.854	21.7655
12.872	21.7238
12.89	21.6879
12.908	21.6621
12.926	21.6488
12.944	21.6482
12.962	21.658
12.98	21.6742
12.998	21.6917
13.016	21.7059
13.034	21.7134
13.052	21.7129
13.07	21.7054
13.088	21.6933
13.106	21.6798
13.124	21.6684
13.142	21.6619
13.16	21.6617
13.178	21.6677
13.196	21.6791
13.214	21.694
13.232	21.7104
13.25	21.7256
13.268	21.7375
13.286	21.7436
13.304	21.7416
13.322	21.7297
13.34	21.7067
13.358	21.672
13.376	21.6262
13.394	21.571
13.412	21.509
13.43	21.4436
13.448	21.3778
13.466	21.3148
13.484	21.2567
13.502	21.2054
13.52	21.1618
13.538	21.1264
13.556	21.0989
13.574	21.079
13.592	21.0659
13.61	21.0585
13.628	21.0554
13.646	21.0556
13.664	21.0584
13.682	21.0633
13.7	21.0702
13.718	21.0794
13.736	21.0915
13.754	21.1072
13.772	21.1261
13.79	21.1479
13.808	21.171
13.826	21.1933
13.844	21.2119
13.862	21.2242
13.88	21.2276
13.898	21.2204
13.916	21.2018
13.934	21.1724
13.952	21.1334
13.97	21.0873
13.988	21.0371
14.006	20.9857
14.024	20.9358
14.042	20.8895
14.06	20.8479
14.078	20.8112
14.096	20.7782
14.114	20.7471
14.132	20.7158
14.15	20.6819
14.168	20.6435
14.186	20.5994
14.204	20.5496
14.222	20.4953
14.24	20.439
14.258	20.3837
14.276	20.3326
14.294	20.2887
14.312	20.2536
14.33	20.2278
14.348	20.21
14.366	20.1974
14.384	20.1866
14.402	20.1738
14.42	20.1564
14.438	20.1327
14.456	20.1024
14.474	20.0675
14.492	20.0312
14.51	19.998
14.528	19.9723
14.546	19.9575
14.564	19.9556
14.582	19.967
14.6	19.9902
14.618	20.0225
14.636	20.0597
14.654	20.0979
14.672	20.1339
14.69	20.1652
14.708	20.1906
14.726	20.2099
14.744	20.2239
14.762	20.2339
14.78	20.2417
14.798	20.249
14.816	20.2577
14.834	20.2691
14.852	20.2848
14.87	20.3048
14.888	20.3287
14.906	20.3551
14.924	20.3813
14.942	20.4039
14.96	20.4185
14.978	20.4211
14.996	20.4079
15.014	20.3759
15.032	20.3238
15.05	20.2524
15.068	20.1648
15.086	20.0651
15.104	19.959
15.122	19.8543
15.14	19.7575
15.158	19.6741
15.176	19.6081
15.194	19.5622
15.212	19.5364
15.23	19.5289
15.248	19.5365
15.266	19.5554
15.284	19.5807
15.302	19.608
15.32	19.6337
15.338	19.655
15.356	19.6695
15.374	19.6755
15.392	19.6724
15.41	19.6599
15.428	19.6381
15.446	19.6078
15.464	19.57
15.482	19.5257
15.5	19.476
15.518	19.4229
15.536	19.3682
15.554	19.3134
15.572	19.2604
15.59	19.2112
15.608	19.1674
15.626	19.1303
15.644	19.1013
15.662	19.0809
15.68	19.0695
15.698	19.0671
15.716	19.0736
15.734	19.0884
15.752	19.1106
15.77	19.1393
15.788	19.1728
15.806	19.2092
15.824	19.2468
15.842	19.2837
15.86	19.3174
15.878	19.3465
15.896	19.3694
15.914	19.3846
15.932	19.3917
15.95	19.3909
15.968	19.3823
15.986	19.3672
16.004	19.3466
16.022	19.3215
16.04	19.2936
16.058	19.2636
16.076	19.2321
16.094	19.2
16.112	19.1669
16.13	19.1328
16.148	19.0975
16.166	19.0604
16.184	19.0213
16.202	18.9798
16.22	18.9357
16.238	18.8891
16.256	18.8404
16.274	18.7901
16.292	18.7386
16.31	18.6863
16.328	18.634
16.346	18.5822
16.364	18.5313
16.382	18.4825
16.4	18.4365
16.418	18.394
16.436	18.3564
16.454	18.3247
16.472	18.2996
16.49	18.2824
16.508	18.2734
16.526	18.2728
16.544	18.2803
16.562	18.2947
16.58	18.315
16.598	18.3389
16.616	18.3646
16.634	18.3906
16.652	18.414
16.67	18.4336
16.688	18.4478
16.706	18.4556
16.724	18.457
16.742	18.452
16.76	18.4418
16.778	18.4271
16.796	18.4096
16.814	18.3915
16.832	18.3739
16.85	18.3593
16.868	18.3488
16.886	18.3436
16.904	18.3448
16.922	18.3522
16.94	18.3661
16.958	18.3854
16.976	18.4096
16.994	18.4374
17.012	18.4672
17.03	18.4981
17.048	18.5281
17.066	18.5562
17.084	18.5812
17.102	18.602
17.12	18.6184
17.138	18.6294
17.156	18.6349
17.174	18.6346
17.192	18.6285
17.21	18.6165
17.228	18.5987
17.246	18.575
17.264	18.5454
17.282	18.5099
17.3	18.4684
17.318	18.421
17.336	18.3682
17.354	18.3101
17.372	18.2478
17.39	18.1819
17.408	18.1137
17.426	18.0445
17.444	17.9755
17.462	17.9086
17.48	17.8445
17.498	17.7849
17.516	17.7302
17.534	17.6812
17.552	17.6376
17.57	17.5993
17.588	17.5657
17.606	17.536
17.624	17.5093
17.642	17.4846
17.66	17.4616
17.678	17.4391
17.696	17.4172
17.714	17.3959
17.732	17.3753
17.75	17.3559
17.768	17.3384
17.786	17.3234
17.804	17.3119
17.822	17.3039
17.84	17.3003
17.858	17.3008
17.876	17.3055
17.894	17.3135
17.912	17.3245
17.93	17.3367
17.948	17.3497
17.966	17.3614
17.984	17.3715
18.002	17.3783
18.02	17.3814
18.038	17.38
18.056	17.3741
18.074	17.3634
18.092	17.3489
18.11	17.3306
18.128	17.3099
18.146	17.2873
18.164	17.2643
18.182	17.2412
18.2	17.2192
18.218	17.1985
18.236	17.1798
18.254	17.163
18.272	17.1483
18.29	17.1351
18.308	17.1235
18.326	17.1128
18.344	17.1029
18.362	17.093
18.38	17.0831
18.398	17.0729
18.416	17.0625
18.434	17.0519
18.452	17.0418
18.47	17.0322
18.488	17.0242
18.506	17.0181
18.524	17.0148
18.542	17.0148
18.56	17.0186
18.578	17.0265
18.596	17.0386
18.614	17.055
18.632	17.0749
18.65	17.0983
18.668	17.1239
18.686	17.1513
18.704	17.1788
18.722	17.2061
18.74	17.2313
18.758	17.254
18.776	17.2731
18.794	17.2882
18.812	17.2986
18.83	17.3042
18.848	17.305
18.866	17.301
18.884	17.2925
18.902	17.28
18.92	17.2641
18.938	17.2451
18.956	17.2238
18.974	17.2004
18.992	17.1754
19.01	17.1491
19.028	17.1219
19.046	17.0937
19.064	17.0648
19.082	17.0353
19.1	17.0055
19.118	16.9753
19.136	16.9452
19.154	16.9154
19.172	16.8864
19.19	16.8584
19.208	16.8321
19.226	16.8076
19.244	16.7861
19.262	16.7674
19.28	16.7525
19.298	16.7413
19.316	16.7341
19.334	16.7309
19.352	16.7311
19.37	16.7348
19.388	16.7406
19.406	16.7486
19.424	16.7566
19.442	16.7648
19.46	16.7709
19.478	16.7748
19.496	16.7746
19.514	16.7698
19.532	16.7597
19.55	16.7437
19.568	16.7217
19.586	16.6934
19.604	16.6592
19.622	16.6193
19.64	16.5742
19.658	16.5248
19.676	16.4714
19.694	16.4156
19.712	16.3575
19.73	16.2987
19.748	16.2392
19.766	16.1803
19.784	16.1223
19.802	16.0656
19.82	16.0106
19.838	15.9572
19.856	15.9056
19.874	15.8554
19.892	15.8065
19.91	15.7588
19.928	15.7119
19.946	15.6658
19.964	15.6205
19.982	15.5758
20	15.5321
20.018	15.4892
20.036	15.4481
20.054	15.4095
20.072	15.3737
20.09	15.3429
20.108	15.3166
20.126	15.2975
20.144	15.2856
20.162	15.2823
20.18	15.2886
20.198	15.3045
20.216	15.3307
20.234	15.3668
20.252	15.4119
20.27	15.4663
20.288	15.5268
20.306	15.594
20.324	15.6645
20.342	15.7367
20.36	15.8094
20.378	15.8783
20.396	15.9442
20.414	16.0027
20.432	16.0543
20.45	16.0968
20.468	16.1288
20.486	16.151
20.504	16.1627
20.522	16.1643
20.54	16.1582
20.558	16.1436
20.576	16.1244
20.594	16.1016
20.612	16.0767
20.63	16.0539
20.648	16.0323
20.666	16.0164
20.684	16.0059
20.702	16.0028
20.72	16.0088
20.738	16.0232
20.756	16.0464
20.774	16.0785
20.792	16.1174
20.81	16.1635
20.828	16.2144
20.846	16.2671
20.864	16.3223
20.882	16.3746
20.9	16.4249
20.918	16.4696
20.936	16.5062
20.954	16.5351
20.972	16.5529
20.99	16.5602
21.008	16.556
21.026	16.5393
21.044	16.5111
21.062	16.4719
21.08	16.4212
21.098	16.362
21.116	16.2942
21.134	16.2194
21.152	16.1411
21.17	16.0581
21.188	15.9751
21.206	15.8924
21.224	15.8115
21.242	15.7359
21.26	15.6645
21.278	15.6007
21.296	15.5453
21.314	15.4985
21.332	15.4623
21.35	15.4362
21.368	15.4207
21.386	15.4166
21.404	15.4229
21.422	15.4385
21.44	15.4641
21.458	15.497
21.476	15.5371
21.494	15.5835
21.512	15.6321
21.53	15.6842
21.548	15.7358
21.566	15.7842
21.584	15.8302
21.602	15.8677
21.62	15.8978
21.638	15.9175
21.656	15.9226
21.674	15.9148
21.692	15.8905
21.71	15.8484
21.728	15.7891
21.746	15.7113
21.764	15.6146
21.782	15.5009
21.8	15.3707
21.818	15.2238
21.836	15.0652
21.854	14.8936
21.872	14.7121
21.89	14.5267
21.908	14.3347
21.926	14.1425
21.944	13.9542
21.962	13.768
21.98	13.5917
21.998	13.4252
22.016	13.2698
22.034	13.1307
22.052	13.0064
22.07	12.8987
22.088	12.8098
22.106	12.7386
22.124	12.6852
22.142	12.6502
22.16	12.6326
22.178	12.63
22.196	12.6435
22.214	12.6703
22.232	12.707
22.25	12.7553
22.268	12.8109
22.286	12.8716
22.304	12.9386
22.322	13.0074
22.34	13.0777
22.358	13.1494
22.376	13.2193
22.394	13.288
22.412	13.3549
22.43	13.4184
22.448	13.4789
22.466	13.5366
22.484	13.591
22.502	13.6423
22.52	13.6912
22.538	13.7379
22.556	13.7824
22.574	13.826
22.592	13.8689
22.61	13.9111
22.628	13.954
22.646	13.9975
22.664	14.0416
22.682	14.0872
22.7	14.1342
22.718	14.1823
22.736	14.2312
22.754	14.2811
22.772	14.3315
22.79	14.382
22.808	14.4329
22.826	14.4828
22.844	14.5308
22.862	14.5777
22.88	14.6213
22.898	14.6611
22.916	14.6976
22.934	14.7282
22.952	14.7525
22.97	14.7708
22.988	14.7813
23.006	14.7836
23.024	14.778
23.042	14.7632
23.06	14.7389
23.078	14.7056
23.096	14.6628
23.114	14.6103
23.132	14.5485
23.15	14.4782
23.168	14.3987
23.186	14.3109
23.204	14.2177
23.222	14.1183
23.24	14.0136
23.258	13.9066
23.276	13.7966
23.294	13.6843
23.312	13.5725
23.33	13.4608
23.348	13.3495
23.366	13.2404
23.384	13.1333
23.402	13.0283
23.42	12.9271
23.438	12.8304
23.456	12.7373
23.474	12.6476
23.492	12.5618
23.51	12.4795
23.528	12.3985
23.546	12.3189
23.564	12.2408
23.582	12.1613
23.6	12.0794
23.618	11.9962
23.636	11.9086
23.654	11.815
23.672	11.7166
23.69	11.6121
23.708	11.5005
23.726	11.382
23.744	11.2577
23.762	11.128
23.78	10.9916
23.798	10.8516
23.816	10.7112
23.834	10.5675
23.852	10.4244
23.87	10.2871
23.888	10.153
23.906	10.0246
23.924	9.908086
23.942	9.803049
23.96	9.709159
23.978	9.632004
23.996	9.573711
24.014	9.532045
24.032	9.509417
24.05	9.507808
24.068	9.526305
24.086	9.563779
24.104	9.619533
24.122	9.694715
24.14	9.787179
24.158	9.894212
24.176	10.0177
24.194	10.1557
24.212	10.3036
24.23	10.4618
24.248	10.6309
24.266	10.8046
24.284	10.9797
24.302	11.1598
24.32	11.3392
24.338	11.5128
24.356	11.6841
24.374	11.8499
24.392	12.0043
24.41	12.148
24.428	12.2816
24.446	12.402
24.464	12.5082
24.482	12.6017
24.5	12.6803
24.518	12.7417
24.536	12.7858
24.554	12.815
24.572	12.8314
24.59	12.8326
24.608	12.8207
24.626	12.802
24.644	12.7777
24.662	12.7442
24.68	12.711
24.698	12.6866
24.716	12.6634
24.734	12.6485
24.752	12.6541
24.77	12.6797
24.788	12.7226
24.806	12.7934
24.824	12.8994
24.842	13.034
24.86	13.2023
24.878	13.4112
24.896	13.661
24.914	13.9492
24.932	14.2752
24.95	14.6405
24.968	15.0465
24.986	15.4854
25.004	15.9497
25.022	16.447
25.04	16.9709
25.058	17.5062
25.076	18.0482
25.094	18.6066
25.112	19.1642
25.13	19.7044
25.148	20.238
25.166	20.759
25.184	21.2495
25.202	21.7018
25.22	22.1269
25.238	22.5123
25.256	22.8448
25.274	23.1283
25.292	23.3638
25.31	23.5456
25.328	23.6688
25.346	23.7358
25.364	23.75
25.382	23.7146
25.4	23.6257
25.418	23.4856
25.436	23.3045
25.454	23.0889
25.472	22.8298
25.49	22.537
25.508	22.224
25.526	21.8925
25.544	21.5362
25.562	21.167
25.58	20.7958
25.598	20.4176
25.616	20.0331
25.634	19.6487
25.652	19.2687
25.67	18.8893
25.688	18.5121
25.706	18.1398
25.724	17.774
25.742	17.4133
25.76	17.0553
25.778	16.698
25.796	16.3465
25.814	15.9962
25.832	15.6382
25.85	15.2677
25.868	14.8928
25.886	14.5052
25.904	14.0937
25.922	13.6564
25.94	13.1991
25.958	12.7149
25.976	12.1966
25.994	11.6446
26.012	11.0615
26.03	10.4465
26.048	9.798372
26.066	9.114101
26.084	8.398611
26.102	7.658686
26.12	6.897076
26.138	6.105399
26.156	5.294865
26.174	4.478967
26.192	3.659382
26.21	2.825929
26.228	1.995766
26.246	1.186902
26.264	0.396425
26.282	-0.382531
26.3	-1.132915
26.318	-1.838046
26.336	-2.504057
26.354	-3.133442
26.372	-3.715914
26.39	-4.241890
26.408	-4.715469
26.426	-5.138173
26.444	-5.507480
26.462	-5.820346
26.48	-6.072846
26.498	-6.272606
26.516	-6.429312
26.534	-6.549069
26.552	-6.621030
26.57	-6.654919
26.588	-6.664362
26.606	-6.657695
26.624	-6.623446
26.642	-6.569384
26.66	-6.506062
26.678	-6.438864
26.696	-6.358708
26.714	-6.272705
26.732	-6.189624
26.75	-6.115052
26.768	-6.043785
26.786	-5.975623
26.804	-5.910974
26.822	-5.849099
26.84	-5.788534
26.858	-5.732783
26.876	-5.685614
26.894	-5.647207
26.912	-5.612543
26.93	-5.589176
26.948	-5.585441
26.966	-5.612934
26.984	-5.675692
27.002	-5.750038
27.02	-5.810925
27.028	-5.825662