File: Bakgrunnsmateriale/MATLAB/FTIR/ftir_data/LPE454/Mapping_121/LPE454_e122_cm-1.asc
PE IR       SPECTRUM    SPECTRUM    ASCII       PEDS        1.60
  -1
LPE454~1.ASC
17/05/19
14:23:25.00
17/05/19
14:23:25.00
tln
$LPE454_e0122$<ebV0>[-23.3,12.1,10.0,0.0,27,1,0]
370
64

2002,4.07
MIRTGS : RIGHTBACK : INTERNAL 2
MIR : ON : INTERNAL 2
OPTKBR

0.200000
8
8.000000
FILLER
SINGLE
SPECTRUM
UNLOCKED 256

DOUBLE

COMBINED
1
0
0

1.000000
BACKG

1
0
TRUE
51149
0
LEFT NOT FITTED RIGHT NOT FITTED 0
NONE
NONE
15600
12
4.427000
51148
TRUE
1 0 8 72 0 0 0 0

15798

#HDR
-1
-1
#GR
CM-1
EGY
2.38419e-05
0.0
5000
-1.000000
4631
8
2.423286
0.004696
#DATA
5000	0.765895
4996	0.770735
4992	0.773692
4988	0.773334
4984	0.773143
4980	0.774931
4976	0.778150
4972	0.781869
4968	0.783491
4964	0.782775
4960	0.782513
4956	0.783586
4952	0.783205
4948	0.782632
4944	0.786542
4940	0.793457
4936	0.797605
4932	0.798988
4928	0.799489
4924	0.798225
4920	0.799512
4916	0.802469
4912	0.800919
4908	0.799107
4904	0.803184
4900	0.812339
4896	0.814580
4892	0.802707
4888	0.793814
4884	0.796270
4880	0.797605
4876	0.802683
4872	0.818753
4868	0.829815
4864	0.830984
4860	0.832152
4856	0.836086
4852	0.837516
4848	0.833487
4844	0.827908
4840	0.827383
4836	0.833964
4832	0.839233
4828	0.844049
4824	0.850892
4820	0.853753
4816	0.855469
4812	0.857686
4808	0.860381
4804	0.863766
4800	0.864624
4796	0.864720
4792	0.867867
4788	0.872397
4784	0.875043
4780	0.876879
4776	0.880932
4772	0.886368
4768	0.887465
4764	0.886034
4760	0.886178
4756	0.887012
4752	0.888991
4748	0.890159
4744	0.890660
4740	0.892639
4736	0.895237
4732	0.898027
4728	0.901293
4724	0.903630
4720	0.903391
4716	0.901579
4712	0.902509
4708	0.905704
4704	0.906586
4700	0.905823
4696	0.904941
4692	0.905346
4688	0.906753
4684	0.907135
4680	0.906825
4676	0.906515
4672	0.907135
4668	0.909209
4664	0.910949
4660	0.911831
4656	0.912070
4652	0.912451
4648	0.913691
4644	0.915002
4640	0.916934
4636	0.918650
4632	0.918507
4628	0.918316
4624	0.920081
4620	0.921082
4616	0.921177
4612	0.924539
4608	0.930213
4604	0.934267
4600	0.934863
4596	0.933480
4592	0.932931
4588	0.934982
4584	0.938963
4580	0.943517
4576	0.948739
4572	0.952172
4568	0.954437
4564	0.958180
4560	0.962853
4556	0.967621
4552	0.970697
4548	0.971817
4544	0.972270
4540	0.972461
4536	0.974941
4532	0.979661
4528	0.983929
4524	0.988006
4520	0.988936
4516	0.985693
4512	0.985312
4508	0.990414
4504	0.993895
4500	0.992965
4496	0.991964
4492	0.991702
4488	0.993013
4484	0.996494
4480	0.999689
4476	1.003885
4472	1.006579
4468	0.996518
4464	0.963330
4460	0.941371
4456	0.977945
4452	1.041674
4448	1.067304
4444	1.051878
4440	1.035761
4436	1.031088
4432	1.028156
4428	1.025152
4424	1.023602
4420	1.023721
4416	1.020121
4412	1.014900
4408	1.015758
4404	1.019692
4400	1.022624
4396	1.024603
4392	1.023864
4388	1.023030
4384	1.025724
4380	1.030445
4376	1.034426
4372	1.035666
4368	1.035547
4364	1.038241
4360	1.043581
4356	1.047730
4352	1.050329
4348	1.053738
4344	1.058006
4340	1.062417
4336	1.067042
4332	1.071238
4328	1.075267
4324	1.079773
4320	1.084160
4316	1.089382
4312	1.096129
4308	1.102232
4304	1.106739
4300	1.111030
4296	1.114964
4292	1.118850
4288	1.123571
4284	1.128005
4280	1.132583
4276	1.137471
4272	1.140761
4268	1.142501
4264	1.144886
4260	1.148581
4256	1.153707
4252	1.159906
4248	1.164197
4244	1.165676
4240	1.167416
4236	1.171112
4232	1.174378
4228	1.176095
4224	1.178359
4220	1.181530
4216	1.184344
4212	1.185297
4208	1.186037
4204	1.188302
4200	1.190614
4196	1.193404
4192	1.197385
4188	1.200270
4184	1.199579
4180	1.198172
4176	1.202607
4172	1.208972
4168	1.209449
4164	1.207542
4160	1.208519
4156	1.211833
4152	1.215386
4148	1.218628
4144	1.221990
4140	1.224708
4136	1.226902
4132	1.229310
4128	1.232361
4124	1.236772
4120	1.241993
4116	1.245450
4112	1.247382
4108	1.250934
4104	1.255822
4100	1.258969
4096	1.262068
4092	1.267504
4088	1.273226
4084	1.278686
4080	1.283478
4076	1.288247
4072	1.294469
4068	1.300835
4064	1.306748
4060	1.312375
4056	1.317334
4052	1.322150
4048	1.327872
4044	1.333451
4040	1.337695
4036	1.343226
4032	1.349258
4028	1.352071
4024	1.354408
4020	1.359367
4016	1.364040
4012	1.368451
4008	1.374530
4004	1.378726
4000	1.380062
3996	1.383543
3992	1.389455
3988	1.392579
3984	1.394128
3980	1.396918
3976	1.398658
3972	1.399827
3968	1.402091
3964	1.404714
3960	1.406788
3956	1.408576
3952	1.410198
3948	1.411247
3944	1.413726
3940	1.416707
3936	1.416659
3932	1.415824
3928	1.416468
3924	1.416158
3920	1.415777
3916	1.417732
3912	1.419734
3908	1.418375
3904	1.416182
3900	1.418733
3896	1.423573
3892	1.424884
3888	1.424360
3884	1.426625
3880	1.432490
3876	1.435041
3872	1.431608
3868	1.431322
3864	1.438570
3860	1.440739
3856	1.430797
3852	1.432204
3848	1.449680
3844	1.456594
3840	1.453590
3836	1.457452
3832	1.467871
3828	1.474738
3824	1.473665
3820	1.471710
3816	1.479768
3812	1.492381
3808	1.495552
3804	1.493597
3800	1.498746
3796	1.510286
3792	1.520061
3788	1.525139
3784	1.527357
3780	1.530146
3776	1.533842
3772	1.535177
3768	1.536583
3764	1.540374
3760	1.541399
3756	1.533985
3752	1.522517
3748	1.518201
3744	1.525568
3740	1.536393
3736	1.540660
3732	1.545310
3728	1.553440
3724	1.558732
3720	1.561927
3716	1.560711
3712	1.558017
3708	1.562309
3704	1.567173
3700	1.568055
3696	1.565313
3692	1.555752
3688	1.551699
3684	1.558017
3680	1.556658
3676	1.547241
3672	1.546621
3668	1.558160
3664	1.568555
3660	1.567411
3656	1.560211
3652	1.554012
3648	1.555323
3644	1.564121
3640	1.570081
3636	1.567769
3632	1.559495
3628	1.558423
3624	1.565241
3620	1.568174
3616	1.569199
3612	1.570534
3608	1.573610
3604	1.577997
3600	1.579332
3596	1.580381
3592	1.581668
3588	1.583337
3584	1.588273
3580	1.592612
3576	1.593399
3572	1.592326
3568	1.591897
3564	1.595687
3560	1.601982
3556	1.606297
3552	1.606988
3548	1.606488
3544	1.608014
3540	1.609587
3536	1.609826
3532	1.610875
3528	1.612043
3524	1.612353
3520	1.612758
3516	1.613140
3512	1.613259
3508	1.613354
3504	1.612949
3500	1.612257
3496	1.610922
3492	1.608419
3488	1.606321
3484	1.605057
3480	1.603913
3476	1.601767
3472	1.598024
3468	1.595163
3464	1.594448
3460	1.592755
3456	1.589393
3452	1.585817
3448	1.582074
3444	1.578855
3440	1.576471
3436	1.573848
3432	1.572227
3428	1.573085
3424	1.575279
3420	1.577115
3416	1.577544
3412	1.576471
3408	1.576900
3404	1.580023
3400	1.583075
3396	1.586294
3392	1.590180
3388	1.592540
3384	1.594614
3380	1.597476
3376	1.599979
3372	1.603293
3368	1.608037
3364	1.613998
3360	1.621031
3356	1.627302
3352	1.632118
3348	1.637077
3344	1.642107
3340	1.646375
3336	1.652121
3332	1.659560
3328	1.666259
3324	1.671600
3320	1.675724
3316	1.680016
3312	1.686215
3308	1.693058
3304	1.699495
3300	1.705551
3296	1.710200
3292	1.714134
3288	1.719546
3284	1.726245
3280	1.731514
3276	1.734209
3272	1.736974
3268	1.741361
3264	1.746225
3260	1.750349
3256	1.753926
3252	1.757216
3248	1.759481
3244	1.761531
3240	1.763629
3236	1.765084
3232	1.766276
3228	1.768350
3224	1.771044
3220	1.771998
3216	1.771521
3212	1.772284
3208	1.774024
3204	1.775074
3200	1.776337
3196	1.777863
3192	1.778125
3188	1.777386
3184	1.777982
3180	1.780796
3176	1.783585
3172	1.784324
3168	1.783704
3164	1.783919
3160	1.786398
3156	1.791143
3152	1.796030
3148	1.798033
3144	1.798367
3140	1.800608
3136	1.805138
3132	1.810812
3128	1.816391
3124	1.821970
3120	1.827502
3116	1.831221
3112	1.835703
3108	1.843190
3104	1.851487
3100	1.859760
3096	1.867604
3092	1.874804
3088	1.881551
3084	1.887726
3080	1.894950
3076	1.903605
3072	1.909971
3068	1.912641
3064	1.915073
3060	1.920366
3056	1.929426
3052	1.938366
3048	1.944017
3044	1.948785
3040	1.953744
3036	1.957035
3032	1.958036
3028	1.954579
3024	1.945757
3020	1.938724
3016	1.944041
3012	1.961731
3008	1.982283
3004	1.998233
3000	2.006506
2996	2.008843
2992	2.009844
2988	2.010011
2984	2.007150
2980	2.000784
2976	1.989364
2972	1.969671
2968	1.944160
2964	1.922535
2960	1.910519
2956	1.906013
2952	1.903438
2948	1.894140
2944	1.870632
2940	1.836037
2936	1.801156
2932	1.771855
2928	1.751565
2924	1.754426
2920	1.788997
2916	1.838922
2912	1.881527
2908	1.910114
2904	1.928830
2900	1.943278
2896	1.957082
2892	1.969957
2888	1.979422
2884	1.985430
2880	1.988697
2876	1.984310
2872	1.965641
2868	1.933312
2864	1.899600
2860	1.886272
2856	1.903915
2852	1.942276
2848	1.985812
2844	2.022528
2840	2.048659
2836	2.067232
2832	2.081131
2828	2.093195
2824	2.104544
2820	2.115488
2816	2.125716
2812	2.134418
2808	2.142047
2804	2.149367
2800	2.156472
2796	2.162528
2792	2.168035
2788	2.175664
2784	2.185559
2780	2.195119
2776	2.202796
2772	2.208948
2768	2.214169
2764	2.218222
2760	2.221798
2756	2.225708
2752	2.229785
2748	2.232909
2744	2.233958
2740	2.233910
2736	2.234792
2732	2.236223
2728	2.235436
2724	2.233624
2720	2.233457
2716	2.233171
2712	2.230954
2708	2.228689
2704	2.228236
2700	2.228665
2696	2.227115
2692	2.223920
2688	2.221083
2684	2.218627
2680	2.217078
2676	2.215623
2672	2.212858
2668	2.209615
2664	2.206897
2660	2.204060
2656	2.200031
2652	2.196764
2648	2.196121
2644	2.196335
2640	2.195763
2636	2.195167
2632	2.195334
2628	2.195310
2624	2.195048
2620	2.195310
2616	2.196764
2612	2.199506
2608	2.201795
2604	2.202510
2600	2.202463
2596	2.203249
2592	2.205705
2588	2.210092
2584	2.216005
2580	2.222251
2576	2.228164
2572	2.233648
2568	2.238821
2564	2.244329
2560	2.249813
2556	2.255058
2552	2.260065
2548	2.264642
2544	2.269792
2540	2.274537
2536	2.278232
2532	2.282094
2528	2.287220
2524	2.292966
2520	2.296376
2516	2.297782
2512	2.300524
2508	2.304887
2504	2.306866
2500	2.305197
2496	2.302980
2492	2.301359
2488	2.299809
2484	2.298760
2480	2.297973
2476	2.296257
2472	2.293634
2468	2.290987
2464	2.288913
2460	2.287697
2456	2.286005
2452	2.281904
2448	2.276754
2444	2.273082
2440	2.271056
2436	2.267670
2432	2.262759
2428	2.259469
2424	2.257061
2420	2.253508
2416	2.249312
2412	2.244400
2408	2.239036
2404	2.235221
2400	2.233052
2396	2.230334
2392	2.228164
2388	2.227330
2384	2.225589
2380	2.222585
2376	2.218961
2372	2.215170
2368	2.210855
2364	2.207803
2360	2.210164
2356	2.218866
2352	2.229499
2348	2.234745
2344	2.235364
2340	2.237510
2336	2.242803
2332	2.249813
2328	2.257323
2324	2.264475
2320	2.271842
2316	2.280449
2312	2.289581
2308	2.297997
2304	2.305173
2300	2.310991
2296	2.316331
2292	2.321958
2288	2.326774
2284	2.330398
2280	2.334642
2276	2.339458
2272	2.342820
2268	2.344560
2264	2.346205
2260	2.348899
2256	2.351498
2252	2.352595
2248	2.352809
2244	2.353239
2240	2.353572
2236	2.352714
2232	2.350854
2228	2.349376
2224	2.347755
2220	2.346038
2216	2.344512
2212	2.341771
2208	2.338004
2204	2.334189
2200	2.330899
2196	2.327895
2192	2.324342
2188	2.319693
2184	2.315926
2180	2.314209
2176	2.312493
2172	2.310419
2168	2.308630
2164	2.307200
2160	2.306461
2156	2.306056
2152	2.305030
2148	2.303361
2144	2.302861
2140	2.304053
2136	2.304029
2132	2.302336
2128	2.302312
2124	2.303838
2120	2.305340
2116	2.307391
2112	2.309417
2108	2.309632
2104	2.308154
2100	2.307200
2096	2.307415
2092	2.307271
2088	2.306056
2084	2.307367
2080	2.314639
2076	2.322602
2072	2.327036
2068	2.332997
2064	2.342486
2060	2.350831
2056	2.357602
2052	2.366089
2048	2.374744
2044	2.381706
2040	2.388048
2036	2.394342
2032	2.400398
2028	2.405548
2024	2.408838
2020	2.411460
2016	2.415347
2012	2.419042
2008	2.421379
2004	2.422738
2000	2.423262
1996	2.423286
1992	2.423214
1988	2.422094
1984	2.419495
1980	2.416777
1976	2.413511
1972	2.408528
1968	2.404069
1964	2.401995
1960	2.400541
1956	2.397561
1952	2.393198
1948	2.388024
1944	2.384042
1940	2.382659
1936	2.380919
1932	2.376890
1928	2.371788
1924	2.366042
1920	2.359938
1916	2.355909
1912	2.353382
1908	2.349901
1904	2.345252
1900	2.339887
1896	2.335929
1892	2.334666
1888	2.336192
1884	2.339100
1880	2.341294
1876	2.341651
1872	2.339458
1868	2.340197
1864	2.346014
1860	2.351427
1856	2.355861
1852	2.357769
1848	2.354693
1844	2.354145
1840	2.360343
1836	2.365374
1832	2.366137
1828	2.368426
1824	2.374649
1820	2.381229
1816	2.385592
1812	2.387642
1808	2.388858
1804	2.389812
1800	2.389216
1796	2.385354
1792	2.382826
1788	2.385830
1784	2.388143
1780	2.386164
1776	2.377176
1772	2.367091
1768	2.367663
1764	2.370357
1760	2.366733
1756	2.357292
1752	2.343106
1748	2.332043
1744	2.321434
1740	2.301049
1736	2.278709
1732	2.276396
1728	2.289128
1724	2.287364
1720	2.267146
1716	2.256202
1712	2.261662
1708	2.256751
1704	2.231884
1700	2.206110
1696	2.204203
1692	2.215433
1688	2.206373
1684	2.193164
1680	2.196431
1676	2.194571
1672	2.185440
1668	2.180600
1664	2.176737
1660	2.163219
1656	2.131581
1652	2.108931
1648	2.114009
1644	2.123188
1640	2.116036
1636	2.100539
1632	2.094435
1628	2.087998
1624	2.069139
1620	2.038502
1616	2.000689
1612	1.965165
1608	1.943278
1604	1.946067
1600	1.963734
1596	1.978158
1592	1.984143
1588	1.983308
1584	1.975846
1580	1.959347
1576	1.945018
1572	1.941990
1568	1.937556
1564	1.913571
1560	1.883077
1556	1.886463
1552	1.912927
1548	1.920676
1544	1.912856
1540	1.930522
1536	1.986861
1532	2.042531
1528	2.067589
1524	2.068710
1520	2.065420
1516	2.063035
1512	2.048707
1508	2.017021
1504	1.952934
1500	1.816940
1496	1.670932
1492	1.654672
1488	1.761412
1484	1.873159
1480	1.929187
1476	1.940703
1472	1.938748
1468	1.931571
1464	1.904225
1460	1.844620
1456	1.771187
1452	1.734280
1448	1.759696
1444	1.808094
1440	1.831078
1436	1.835346
1432	1.840066
1428	1.842498
1424	1.837944
1420	1.826882
1416	1.813793
1412	1.788020
1408	1.741003
1404	1.702594
1400	1.705217
1396	1.736712
1392	1.761126
1388	1.761126
1384	1.757717
1380	1.769351
1376	1.781868
1372	1.787972
1368	1.791715
1364	1.792001
1360	1.790642
1356	1.789474
1352	1.787996
1348	1.786589
1344	1.785349
1340	1.787137
1336	1.796674
1332	1.810526
1328	1.820492
1324	1.825380
1320	1.827287
1316	1.827859
1312	1.827955
1308	1.827096
1304	1.826715
1300	1.828193
1296	1.829934
1292	1.830339
1288	1.829409
1284	1.826953
1280	1.820611
1276	1.807188
1272	1.781511
1268	1.740312
1264	1.701402
1260	1.698184
1256	1.733350
1252	1.773977
1248	1.798462
1244	1.808571
1240	1.811385
1236	1.810598
1232	1.806402
1228	1.799178
1224	1.789522
1220	1.775193
1216	1.756286
1212	1.738691
1208	1.726841
1204	1.721978
1200	1.721978
1196	1.721978
1192	1.719188
1188	1.713156
1184	1.703166
1180	1.690530
1176	1.678705
1172	1.666474
1168	1.649236
1164	1.628756
1160	1.611208
1156	1.600146
1152	1.593637
1148	1.587080
1144	1.579022
1140	1.569962
1136	1.557564
1132	1.541042
1128	1.522707
1124	1.503157
1120	1.481795
1116	1.459217
1112	1.437568
1108	1.421356
1104	1.413297
1100	1.409554
1096	1.407265
1092	1.407575
1088	1.410055
1084	1.412653
1080	1.413226
1076	1.413536
1072	1.416254
1068	1.420164
1064	1.420569
1060	1.405239
1056	1.355981
1052	1.297140
1048	1.292943
1044	1.336884
1040	1.366257
1036	1.368331
1032	1.361870
1028	1.354479
1024	1.347994
1020	1.346039
1016	1.351833
1012	1.362299
1008	1.371574
1004	1.378464
1000	1.383018
996	 1.383423
992	 1.379132
988	 1.372027
984	 1.365184
980	 1.358723
976	 1.349925
972	 1.338791
968	 1.326918
964	 1.314139
960	 1.300215
956	 1.287746
952	 1.276254
948	 1.263976
944	 1.253747
940	 1.246118
936	 1.238489
932	 1.229286
928	 1.219463
924	 1.211023
920	 1.202988
916	 1.191401
912	 1.174569
908	 1.158642
904	 1.148128
900	 1.140618
896	 1.133680
892	 1.124906
888	 1.108002
884	 1.076602
880	 1.039791
876	 1.019191
872	 1.025056
868	 1.048707
864	 1.071453
860	 1.081538
856	 1.081061
852	 1.076292
848	 1.071000
844	 1.063489
840	 1.047635
836	 1.013517
832	 0.950098
828	 0.872731
824	 0.835227
820	 0.861573
816	 0.907039
812	 0.930547
808	 0.935339
804	 0.933837
800	 0.932955
796	 0.938034
792	 0.949048
788	 0.961089
784	 0.968813
780	 0.970506
776	 0.967741
772	 0.962996
768	 0.958943
764	 0.955152
760	 0.951123
756	 0.948166
752	 0.944757
748	 0.939154
744	 0.932788
740	 0.925230
736	 0.914883
732	 0.903391
728	 0.892448
724	 0.881457
720	 0.870466
716	 0.860071
712	 0.848770
708	 0.835824
704	 0.822091
700	 0.806188
696	 0.783824
692	 0.752997
688	 0.726604
684	 0.720071
680	 0.723981
676	 0.722885
672	 0.717067
668	 0.709295
664	 0.699830
660	 0.689864
656	 0.680303
652	 0.669884
648	 0.658249
644	 0.647497
640	 0.638437
636	 0.628924
632	 0.618243
628	 0.608062
624	 0.597715
620	 0.585150
616	 0.569200
612	 0.550103
608	 0.531077
604	 0.519704
600	 0.517797
596	 0.516581
592	 0.511932
588	 0.506138
584	 0.500893
580	 0.497126
576	 0.493884
572	 0.490546
568	 0.486469
564	 0.480628
560	 0.473546
556	 0.466442
552	 0.460410
548	 0.455212
544	 0.448417
540	 0.438976
536	 0.429630
532	 0.421404
528	 0.413179
524	 0.404691
520	 0.395584
516	 0.385451
512	 0.376176
508	 0.367760
504	 0.356912
500	 0.342607
496	 0.326848
492	 0.312447
488	 0.299692
484	 0.285792
480	 0.271558
476	 0.258874
472	 0.246047
468	 0.232505
464	 0.219345
460	 0.207042
456	 0.194978
452	 0.181722
448	 0.168371
444	 0.158190
440	 0.147604
436	 0.133013
432	 0.119805
428	 0.109052
424	 0.097417
420	 0.087666
416	 0.078153
412	 0.062894
408	 0.046682
404	 0.038051
400	 0.036287
396	 0.035095
392	 0.030326
388	 0.023007
384	 0.017261
380	 0.013804
376	 0.010156
372	 0.006151
370	 0.004696