File: Bakgrunnsmateriale/MATLAB/FTIR/ftir_data/LPE454/Mapping_121/LPE454_t112.asc
PE IR       SPECTRUM    SPECTRUM    ASCII       PEDS        1.60
  -1
LP9BFD~1.ASC
17/05/19
23:37:40.00
17/05/19
23:38:06.00
tln
$LPE454_t0112$<tbV0>[10.4,13.0,8.0,0.0,27,1,0]
27.028
64

2002,4.07
MIRTGS : RIGHTBACK : INTERNAL 2
MIR : ON : INTERNAL 2
OPTKBR

0.200000
8
8.000000
FILLER
RATIO
SPECTRUM
UNLOCKED 256

DOUBLE
64
COMBINED
1
0
0

0.002000
RATIO

1
0
TRUE
51149
0
LEFT NOT FITTED RIGHT NOT FITTED 0
NONE
NONE
15600
12
4.427000
51148
TRUE
1 0 8 72 0 0 0 0

15798

#HDR
-1
-1
#GR
µM
%T
2.38419e-05
0.0
2.000000
0.002000
12515
8
38.8807
-4.534870
#DATA
2.000000	 -0.135278
2.018000	 0.285835
2.036000	 -0.164043
2.054000	 0.292341
2.072000	 0.224396
2.090000	 0.080155
2.108000	 0.236309
2.126000	 -0.094548
2.144000	 -0.174753
2.162000	 0.249124
2.180000	 22.9019
2.198000	 -0.704432
2.216000	 -0.273764
2.234000	 0.085188
2.252000	 -0.337795
2.270000	 0.174971
2.288000	 0.547588
2.306000	 -0.111261
2.324000	 0.205174
2.342000	 -0.040263
2.360000	 0.100064
2.378000	 0.229858
2.396000	 0.101463
2.414000	 0.281704
2.432000	 0.972313
2.450000	 1.034053
2.468000	 0.278507
2.486000	 -0.104626
2.504000	 -0.016268
2.522000	 0.007581
2.540000	 -0.063995
2.558000	 0.023465
2.576000	 0.055764
2.594000	 -0.044928
2.612000	 -0.038970
2.630000	 -0.126450
2.648000	 0.009344
2.666000	 0.164670
2.684000	 0.075891
2.702000	 0.127167
2.720000	 0.066964
2.738000	 0.049225
2.756000	 0.060327
2.774000	 0.116455
2.792000	 0.010003
2.810000	 0.090324
2.828000	 0.012006
2.846000	 0.080262
2.864000	 0.042814
2.882000	 0.019983
2.900000	 0.014612
2.918000	 0.056497
2.936000	 0.034187
2.954000	 0.084911
2.972000	 0.040622
2.990000	 0.057118
3.008000	 0.075642
3.026000	 -0.064480
3.044000	 -0.055362
3.062000	 0.079713
3.080000	 0.055671
3.098000	 0.064794
3.116000	 -0.005182
3.134000	 -0.034680
3.152000	 0.146478
3.170000	 0.042558
3.188000	 0.218410
3.206000	 -0.045674
3.224000	 0.057858
3.242000	 0.089515
3.260000	 0.029096
3.278000	 -0.081272
3.296000	 0.003958
3.314000	 0.004335
3.332000	 0.046487
3.350000	 0.080012
3.368000	 -0.042197
3.386000	 0.074955
3.404000	 0.101326
3.422000	 -0.066436
3.440000	 -0.028344
3.458000	 0.039000
3.476000	 0.080340
3.494000	 0.052926
3.512000	 0.048817
3.530000	 0.071783
3.548000	 0.006288
3.566000	 -0.040562
3.584000	 0.064554
3.602000	 0.038354
3.620000	 0.014737
3.638000	 0.038193
3.656000	 0.055394
3.674000	 0.034411
3.692000	 0.024501
3.710000	 -0.056350
3.728000	 0.010593
3.746000	 0.050810
3.764000	 -0.038503
3.782000	 0.009265
3.800000	 0.059062
3.818000	 0.034279
3.836000	 0.013329
3.854000	 -0.020228
3.872000	 -0.045389
3.890000	 0.088746
3.908000	 0.081639
3.926000	 0.030231
3.944000	 0.040564
3.962000	 0.153404
3.980000	 0.043840
3.998000	 0.072225
4.016000	 -0.055202
4.034000	 0.040735
4.052000	 0.033773
4.070000	 0.133366
4.088000	 0.018329
4.106000	 0.194036
4.124000	 0.149896
4.141999	 0.245175
4.160000	 0.215902
4.178000	 0.232543
4.196000	 0.321481
4.214000	 0.361361
4.232000	 0.589140
4.250000	 0.571427
4.268000	 0.640875
4.286000	 0.868329
4.304000	 1.080154
4.322000	 1.277597
4.340000	 1.512372
4.358000	 1.800055
4.375999	 2.156238
4.394000	 2.601117
4.412000	 2.973334
4.430000	 3.531784
4.448000	 4.188472
4.466000	 4.811317
4.484000	 5.524099
4.502000	 6.225056
4.520000	 7.064136
4.538000	 7.953060
4.556000	 8.947739
4.574000	 9.890179
4.592000	 10.9304
4.609999	 12.0047
4.628000	 13.0469
4.646000	 14.0438
4.664000	 15.1302
4.682000	 16.229
4.700000	 17.1928
4.718000	 18.2721
4.736000	 19.334
4.754000	 20.3763
4.772000	 21.1529
4.790000	 22.0996
4.808000	 23.0097
4.826000	 23.8422
4.843999	 24.6582
4.862000	 25.5345
4.880000	 26.1695
4.898000	 26.983
4.916000	 27.5784
4.934000	 28.0963
4.952000	 28.7549
4.970000	 29.2879
4.988000	 29.7976
5.006000	 30.3318
5.024000	 30.7958
5.042000	 31.1818
5.060000	 31.6215
5.077999	 32.0556
5.096000	 32.4177
5.114000	 32.7626
5.132000	 33.0907
5.150000	 33.4804
5.168000	 33.7322
5.186000	 34.0654
5.204000	 34.4125
5.222000	 34.6443
5.240000	 34.7918
5.258000	 35.0637
5.276000	 35.3722
5.294000	 35.5055
5.312000	 35.6844
5.330000	 35.8518
5.348000	 36.024
5.366000	 36.1409
5.384000	 36.2939
5.402000	 36.512
5.420000	 36.7051
5.438000	 36.8007
5.456000	 36.8732
5.474000	 37.0162
5.492000	 37.1013
5.510000	 37.1853
5.528000	 37.2383
5.546000	 37.366
5.564000	 37.5554
5.582000	 37.6642
5.600000	 37.6418
5.618000	 37.6923
5.636000	 37.7242
5.654000	 37.7572
5.672000	 37.8045
5.690000	 37.8176
5.708000	 37.9355
5.726000	 38.0754
5.744000	 38.0759
5.762000	 38.0898
5.780000	 38.1708
5.798000	 38.2189
5.816000	 38.3226
5.834000	 38.3358
5.852000	 38.2823
5.870000	 38.2909
5.888000	 38.3648
5.906000	 38.3596
5.923999	 38.4059
5.942000	 38.54
5.960000	 38.5822
5.978000	 38.593
5.996000	 38.671
6.014000	 38.7984
6.032000	 38.7933
6.050000	 38.7636
6.068000	 38.7418
6.086000	 38.7639
6.104000	 38.7502
6.122000	 38.7282
6.140000	 38.7055
6.158000	 38.7128
6.176000	 38.8005
6.194000	 38.8735
6.212000	 38.8626
6.230000	 38.8051
6.248000	 38.8104
6.266000	 38.8069
6.284000	 38.7546
6.302000	 38.6686
6.320000	 38.5974
6.338000	 38.622
6.356000	 38.7091
6.374000	 38.74
6.392000	 38.7464
6.410000	 38.7304
6.428000	 38.6811
6.446000	 38.6782
6.464000	 38.6737
6.482000	 38.6222
6.500000	 38.5702
6.518000	 38.5646
6.536000	 38.5719
6.554000	 38.5615
6.572000	 38.5136
6.590000	 38.4576
6.608000	 38.4489
6.626000	 38.4309
6.644000	 38.3995
6.662000	 38.4108
6.680000	 38.4755
6.698000	 38.5254
6.716000	 38.5164
6.734000	 38.5146
6.752000	 38.5283
6.770000	 38.5002
6.788000	 38.4505
6.806000	 38.4284
6.824000	 38.3728
6.842000	 38.3021
6.860000	 38.3052
6.878000	 38.3241
6.896000	 38.3283
6.914000	 38.363
6.932000	 38.3653
6.950000	 38.294
6.968000	 38.2124
6.986000	 38.1825
7.004000	 38.2042
7.022000	 38.244
7.040000	 38.285
7.058000	 38.3016
7.076000	 38.267
7.094000	 38.2003
7.112000	 38.1309
7.130000	 38.1122
7.148000	 38.1728
7.166000	 38.2235
7.184000	 38.1829
7.202000	 38.102
7.220000	 38.0595
7.238000	 38.0556
7.256000	 38.0595
7.274000	 38.0532
7.292000	 38.0293
7.310000	 38.0021
7.328000	 37.9819
7.346000	 37.9586
7.364000	 37.9455
7.382000	 37.9676
7.400000	 38.004
7.418000	 38.0259
7.436000	 38.0487
7.454000	 38.0591
7.472000	 38.0004
7.490000	 37.9016
7.508000	 37.8559
7.526000	 37.8629
7.544000	 37.8631
7.562000	 37.8468
7.580000	 37.8154
7.598000	 37.7566
7.616000	 37.6909
7.634000	 37.6494
7.652000	 37.6471
7.670000	 37.6776
7.688000	 37.7032
7.706000	 37.699
7.724000	 37.6799
7.742000	 37.6445
7.760000	 37.5806
7.778000	 37.5261
7.796000	 37.5211
7.814000	 37.5455
7.832000	 37.5593
7.850000	 37.5485
7.868000	 37.5107
7.886000	 37.4496
7.904000	 37.3864
7.922000	 37.3512
7.940000	 37.3577
7.958000	 37.3813
7.976000	 37.3866
7.994000	 37.3727
8.012000	 37.3627
8.030000	 37.3553
8.048000	 37.3249
8.065999	 37.2686
8.084000	 37.2187
8.102000	 37.2022
8.120000	 37.213
8.138000	 37.2346
8.155999	 37.2607
8.173999	 37.282
8.192000	 37.2829
8.210000	 37.2688
8.228000	 37.2634
8.246000	 37.2676
8.263999	 37.2556
8.282000	 37.2229
8.300000	 37.1961
8.318000	 37.1864
8.336000	 37.1765
8.353999	 37.1582
8.372000	 37.1451
8.390000	 37.1438
8.408000	 37.1405
8.426000	 37.1229
8.443999	 37.0927
8.462000	 37.0603
8.480000	 37.036
8.498000	 37.0249
8.516000	 37.0186
8.533999	 37.0032
8.552000	 36.9767
8.570000	 36.9553
8.588000	 36.9515
8.606000	 36.9606
8.624000	 36.9674
8.641999	 36.9629
8.660000	 36.9496
8.678000	 36.9342
8.696000	 36.919
8.714000	 36.9068
8.731999	 36.9069
8.750000	 36.9269
8.768000	 36.956
8.786000	 36.9661
8.804000	 36.9443
8.821999	 36.9122
8.840000	 36.9016
8.858000	 36.9167
8.876000	 36.9305
8.894000	 36.9104
8.911999	 36.8461
8.930000	 36.7611
8.948000	 36.6987
8.966000	 36.6935
8.984000	 36.741
9.001999	 36.7987
9.020000	 36.8227
9.038000	 36.8001
9.056000	 36.7463
9.074000	 36.6849
9.092000	 36.6376
9.109999	 36.617
9.128000	 36.6181
9.146000	 36.6239
9.164000	 36.6212
9.182000	 36.6145
9.199999	 36.617
9.218000	 36.633
9.236000	 36.6542
9.254000	 36.6727
9.272000	 36.6865
9.289999	 36.693
9.308000	 36.689
9.326000	 36.6746
9.344000	 36.6506
9.362000	 36.6132
9.379999	 36.5576
9.398000	 36.4886
9.416000	 36.4278
9.434000	 36.4003
9.452000	 36.4152
9.469999	 36.4574
9.488000	 36.4981
9.506000	 36.5121
9.524000	 36.4868
9.542000	 36.4252
9.560000	 36.3442
9.577999	 36.2677
9.596000	 36.2152
9.614000	 36.1919
9.632000	 36.1883
9.650000	 36.1927
9.667999	 36.2009
9.686000	 36.2164
9.704000	 36.2421
9.722000	 36.2743
9.740000	 36.3045
9.757999	 36.3235
9.776000	 36.3228
9.794000	 36.2936
9.812000	 36.2297
9.830000	 36.1354
9.847999	 36.0313
9.866000	 35.9447
9.884000	 35.8942
9.902000	 35.8803
9.920000	 35.889
9.937999	 35.9044
9.956000	 35.917
9.974000	 35.9242
9.992000	 35.9262
10.01	35.9237
10.028	35.919
10.046	35.9159
10.064	35.9185
10.082	35.9278
10.1	35.9408
10.118	35.9524
10.136	35.9588
10.154	35.9584
10.172	35.9504
10.19	35.9338
10.208	35.9079
10.226	35.8735
10.244	35.834
10.262	35.7944
10.28	35.7593
10.298	35.7318
10.316	35.7131
10.334	35.7031
10.352	35.7005
10.37	35.7018
10.388	35.7021
10.406	35.6961
10.424	35.6794
10.442	35.6493
10.46	35.6054
10.478	35.5498
10.496	35.4882
10.514	35.4302
10.532	35.3886
10.55	35.3739
10.568	35.3891
10.586	35.4277
10.604	35.476
10.622	35.5184
10.64	35.5436
10.658	35.5482
10.676	35.5359
10.694	35.5137
10.712	35.4894
10.73	35.4674
10.748	35.4492
10.766	35.4338
10.784	35.4183
10.802	35.4008
10.82	35.3815
10.838	35.3634
10.856	35.3505
10.874	35.3457
10.892	35.3485
10.91	35.3544
10.928	35.3578
10.946	35.3547
10.964	35.346
10.982	35.3367
11	35.3339
11.018	35.3428
11.036	35.363
11.054	35.3884
11.072	35.4088
11.09	35.4135
11.108	35.3953
11.126	35.3533
11.144	35.2933
11.162	35.2265
11.18	35.1631
11.198	35.1102
11.216	35.07
11.234	35.0407
11.252	35.0205
11.27	35.0086
11.288	35.0057
11.306	35.0127
11.324	35.0293
11.342	35.0531
11.36	35.0792
11.378	35.0999
11.396	35.1069
11.414	35.0918
11.432	35.0495
11.45	34.9797
11.468	34.8888
11.486	34.7893
11.504	34.6971
11.522	34.6282
11.54	34.5941
11.558	34.5991
11.576	34.6399
11.594	34.7074
11.612	34.7888
11.63	34.8704
11.648	34.9411
11.666	34.9915
11.684	35.0164
11.702	35.0143
11.72	34.9874
11.738	34.9414
11.756	34.8835
11.774	34.8222
11.792	34.7644
11.81	34.7147
11.828	34.6751
11.846	34.6461
11.864	34.6273
11.882	34.6176
11.9	34.6149
11.918	34.6163
11.936	34.6176
11.954	34.6146
11.972	34.6029
11.99	34.5803
12.008	34.5471
12.026	34.5054
12.044	34.4587
12.062	34.4113
12.08	34.3671
12.098	34.3287
12.116	34.298
12.134	34.2756
12.152	34.2611
12.17	34.2526
12.188	34.2473
12.206	34.2419
12.224	34.2339
12.242	34.2232
12.26	34.2119
12.278	34.2047
12.296	34.2065
12.314	34.2211
12.332	34.2481
12.35	34.2835
12.368	34.3195
12.386	34.3469
12.404	34.3579
12.422	34.3487
12.44	34.3205
12.458	34.2788
12.476	34.2315
12.494	34.1864
12.512	34.1491
12.53	34.1218
12.548	34.1029
12.566	34.0891
12.584	34.0756
12.602	34.058
12.62	34.0333
12.638	34.0002
12.656	33.9595
12.674	33.9131
12.692	33.8633
12.71	33.8135
12.728	33.7668
12.746	33.7263
12.764	33.6943
12.782	33.673
12.8	33.6639
12.818	33.6675
12.836	33.6834
12.854	33.7104
12.872	33.7464
12.89	33.7882
12.908	33.8318
12.926	33.8724
12.944	33.9052
12.962	33.9261
12.98	33.9322
12.998	33.9223
13.016	33.8973
13.034	33.8592
13.052	33.8114
13.07	33.7572
13.088	33.6999
13.106	33.6414
13.124	33.5829
13.142	33.5245
13.16	33.4655
13.178	33.4059
13.196	33.346
13.214	33.288
13.232	33.2352
13.25	33.1924
13.268	33.1648
13.286	33.1571
13.304	33.1723
13.322	33.2108
13.34	33.2697
13.358	33.3431
13.376	33.423
13.394	33.5003
13.412	33.5662
13.43	33.6143
13.448	33.6411
13.466	33.6463
13.484	33.6326
13.502	33.6047
13.52	33.5683
13.538	33.5288
13.556	33.4898
13.574	33.4534
13.592	33.4201
13.61	33.3898
13.628	33.3618
13.646	33.3358
13.664	33.3123
13.682	33.2927
13.7	33.2789
13.718	33.2726
13.736	33.2744
13.754	33.2839
13.772	33.2992
13.79	33.3173
13.808	33.3343
13.826	33.3471
13.844	33.3529
13.862	33.3504
13.88	33.3395
13.898	33.3212
13.916	33.2967
13.934	33.2674
13.952	33.234
13.97	33.1967
13.988	33.155
14.006	33.1088
14.024	33.059
14.042	33.0074
14.06	32.9576
14.078	32.9141
14.096	32.8817
14.114	32.8651
14.132	32.8671
14.15	32.8886
14.168	32.9273
14.186	32.9785
14.204	33.0355
14.222	33.0902
14.24	33.1347
14.258	33.163
14.276	33.1712
14.294	33.1583
14.312	33.1262
14.33	33.0789
14.348	33.0223
14.366	32.963
14.384	32.9079
14.402	32.8621
14.42	32.8291
14.438	32.8106
14.456	32.8063
14.474	32.8138
14.492	32.8299
14.51	32.8496
14.528	32.8683
14.546	32.8818
14.564	32.8874
14.582	32.8838
14.6	32.8711
14.618	32.851
14.636	32.8265
14.654	32.8013
14.672	32.7789
14.69	32.7623
14.708	32.7535
14.726	32.7537
14.744	32.7624
14.762	32.778
14.78	32.7981
14.798	32.82
14.816	32.8409
14.834	32.8586
14.852	32.8709
14.87	32.8773
14.888	32.878
14.906	32.8743
14.924	32.8681
14.942	32.8615
14.96	32.8565
14.978	32.8543
14.996	32.8554
15.014	32.8595
15.032	32.8652
15.05	32.8703
15.068	32.8721
15.086	32.8682
15.104	32.8564
15.122	32.835
15.14	32.8038
15.158	32.7639
15.176	32.7168
15.194	32.665
15.212	32.6117
15.23	32.56
15.248	32.5124
15.266	32.471
15.284	32.4372
15.302	32.4109
15.32	32.3915
15.338	32.3779
15.356	32.3683
15.374	32.3607
15.392	32.3536
15.41	32.3455
15.428	32.3351
15.446	32.3219
15.464	32.3055
15.482	32.2862
15.5	32.2645
15.518	32.2413
15.536	32.2178
15.554	32.1952
15.572	32.1745
15.59	32.1571
15.608	32.1436
15.626	32.1347
15.644	32.1304
15.662	32.1302
15.68	32.1333
15.698	32.1385
15.716	32.1439
15.734	32.1474
15.752	32.1475
15.77	32.1423
15.788	32.13
15.806	32.1095
15.824	32.0802
15.842	32.0418
15.86	31.9954
15.878	31.9421
15.896	31.8834
15.914	31.8219
15.932	31.7599
15.95	31.6997
15.968	31.6438
15.986	31.5948
16.004	31.5541
16.022	31.5232
16.04	31.503
16.058	31.4937
16.076	31.4951
16.094	31.5065
16.112	31.5265
16.13	31.554
16.148	31.587
16.166	31.6231
16.184	31.6606
16.202	31.6974
16.22	31.7313
16.238	31.7606
16.256	31.7839
16.274	31.7995
16.292	31.8072
16.31	31.8066
16.328	31.798
16.346	31.7824
16.364	31.7608
16.382	31.7353
16.4	31.7083
16.418	31.6815
16.436	31.6583
16.454	31.6406
16.472	31.6302
16.49	31.6294
16.508	31.6388
16.526	31.6588
16.544	31.689
16.562	31.7278
16.58	31.7741
16.598	31.8246
16.616	31.8767
16.634	31.9281
16.652	31.9746
16.67	32.0145
16.688	32.0455
16.706	32.0654
16.724	32.0738
16.742	32.0699
16.76	32.0547
16.778	32.0288
16.796	31.9939
16.814	31.9522
16.832	31.905
16.85	31.8549
16.868	31.8035
16.886	31.7523
16.904	31.7027
16.922	31.6549
16.94	31.6094
16.958	31.5657
16.976	31.5234
16.994	31.4816
17.012	31.4395
17.03	31.3965
17.048	31.3519
17.066	31.3058
17.084	31.2578
17.102	31.2087
17.12	31.1586
17.138	31.1086
17.156	31.0594
17.174	31.0117
17.192	30.9663
17.21	30.9235
17.228	30.8835
17.246	30.8463
17.264	30.8119
17.282	30.7798
17.3	30.75
17.318	30.7219
17.336	30.6956
17.354	30.6708
17.372	30.6476
17.39	30.6262
17.408	30.6069
17.426	30.5899
17.444	30.5754
17.462	30.5637
17.48	30.5547
17.498	30.5482
17.516	30.5439
17.534	30.5414
17.552	30.5396
17.57	30.5381
17.588	30.5358
17.606	30.5325
17.624	30.5273
17.642	30.5204
17.66	30.512
17.678	30.5027
17.696	30.493
17.714	30.4843
17.732	30.4776
17.75	30.4739
17.768	30.4746
17.786	30.4804
17.804	30.4923
17.822	30.5102
17.84	30.5341
17.858	30.5632
17.876	30.5969
17.894	30.6332
17.912	30.6713
17.93	30.7082
17.948	30.7433
17.966	30.7736
17.984	30.7984
18.002	30.8156
18.02	30.8247
18.038	30.8246
18.056	30.8156
18.074	30.7976
18.092	30.7719
18.11	30.7387
18.128	30.7001
18.146	30.657
18.164	30.6118
18.182	30.5657
18.2	30.5207
18.218	30.4782
18.236	30.4393
18.254	30.405
18.272	30.3755
18.29	30.3512
18.308	30.332
18.326	30.3172
18.344	30.3066
18.362	30.2987
18.38	30.2931
18.398	30.2884
18.416	30.284
18.434	30.2787
18.452	30.2721
18.47	30.2637
18.488	30.253
18.506	30.2397
18.524	30.2241
18.542	30.2061
18.56	30.1863
18.578	30.1647
18.596	30.1423
18.614	30.1191
18.632	30.0958
18.65	30.0726
18.668	30.0498
18.686	30.0273
18.704	30.0051
18.722	29.983
18.74	29.9603
18.758	29.9369
18.776	29.9118
18.794	29.8849
18.812	29.8551
18.83	29.8224
18.848	29.786
18.866	29.7462
18.884	29.703
18.902	29.6571
18.92	29.609
18.938	29.5601
18.956	29.5117
18.974	29.4652
18.992	29.4223
19.01	29.3845
19.028	29.354
19.046	29.3318
19.064	29.3201
19.082	29.3189
19.1	29.3297
19.118	29.3517
19.136	29.3851
19.154	29.4287
19.172	29.4807
19.19	29.5401
19.208	29.6036
19.226	29.6703
19.244	29.7358
19.262	29.7997
19.28	29.8577
19.298	29.91
19.316	29.9537
19.334	29.9889
19.352	30.0151
19.37	30.0324
19.388	30.0427
19.406	30.0457
19.424	30.0453
19.442	30.0412
19.46	30.0375
19.478	30.0346
19.496	30.0352
19.514	30.0403
19.532	30.0507
19.55	30.0677
19.568	30.0904
19.586	30.1189
19.604	30.152
19.622	30.188
19.64	30.2263
19.658	30.2632
19.676	30.299
19.694	30.3295
19.712	30.3553
19.73	30.3732
19.748	30.383
19.766	30.384
19.784	30.3755
19.802	30.3585
19.82	30.3325
19.838	30.2992
19.856	30.2599
19.874	30.215
19.892	30.1671
19.91	30.1158
19.928	30.0636
19.946	30.0101
19.964	29.9565
19.982	29.9033
20	29.8503
20.018	29.798
20.036	29.7457
20.054	29.6932
20.072	29.6403
20.09	29.5856
20.108	29.5295
20.126	29.471
20.144	29.4103
20.162	29.3472
20.18	29.2818
20.198	29.2144
20.216	29.1455
20.234	29.0753
20.252	29.0049
20.27	28.9343
20.288	28.8646
20.306	28.7957
20.324	28.7284
20.342	28.6633
20.36	28.6002
20.378	28.5399
20.396	28.4823
20.414	28.4279
20.432	28.3768
20.45	28.3289
20.468	28.2843
20.486	28.2429
20.504	28.2047
20.522	28.1697
20.54	28.1384
20.558	28.1108
20.576	28.087
20.594	28.0674
20.612	28.0514
20.63	28.0389
20.648	28.0299
20.666	28.0234
20.684	28.0196
20.702	28.017
20.72	28.015
20.738	28.0133
20.756	28.0101
20.774	28.006
20.792	27.9987
20.81	27.9876
20.828	27.9728
20.846	27.9536
20.864	27.9302
20.882	27.9035
20.9	27.8726
20.918	27.8403
20.936	27.8079
20.954	27.7759
20.972	27.749
20.99	27.7258
21.008	27.7116
21.026	27.7081
21.044	27.716
21.062	27.7405
21.08	27.7801
21.098	27.838
21.116	27.9152
21.134	28.011
21.152	28.1256
21.17	28.2593
21.188	28.4078
21.206	28.5719
21.224	28.748
21.242	28.9301
21.26	29.1202
21.278	29.309
21.296	29.4962
21.314	29.6785
21.332	29.8477
21.35	30.0065
21.368	30.1477
21.386	30.2696
21.404	30.3721
21.422	30.4504
21.44	30.5056
21.458	30.5376
21.476	30.5457
21.494	30.5309
21.512	30.496
21.53	30.4396
21.548	30.3658
21.566	30.277
21.584	30.1727
21.602	30.0581
21.62	29.9326
21.638	29.7985
21.656	29.6596
21.674	29.5144
21.692	29.3657
21.71	29.2143
21.728	29.0599
21.746	28.9039
21.764	28.7463
21.782	28.5871
21.8	28.4262
21.818	28.2638
21.836	28.1006
21.854	27.9364
21.872	27.7718
21.89	27.6081
21.908	27.4444
21.926	27.2832
21.944	27.1256
21.962	26.9711
21.98	26.8236
21.998	26.6828
22.016	26.5498
22.034	26.4283
22.052	26.317
22.07	26.2181
22.088	26.1338
22.106	26.0632
22.124	26.0072
22.142	25.9665
22.16	25.9405
22.178	25.9284
22.196	25.9312
22.214	25.9466
22.232	25.9723
22.25	26.0096
22.268	26.0548
22.286	26.1064
22.304	26.1651
22.322	26.2266
22.34	26.2906
22.358	26.3567
22.376	26.4221
22.394	26.487
22.412	26.551
22.43	26.6126
22.448	26.672
22.466	26.7298
22.484	26.7859
22.502	26.8403
22.52	26.8945
22.538	26.949
22.556	27.0036
22.574	27.0602
22.592	27.1191
22.61	27.18
22.628	27.2441
22.646	27.3113
22.664	27.3815
22.682	27.4542
22.7	27.5302
22.718	27.608
22.736	27.6861
22.754	27.7657
22.772	27.8439
22.79	27.9182
22.808	27.9904
22.826	28.0566
22.844	28.1144
22.862	28.1652
22.88	28.2063
22.898	28.2358
22.916	28.2551
22.934	28.2625
22.952	28.2573
22.97	28.2401
22.988	28.2121
23.006	28.1727
23.024	28.1225
23.042	28.065
23.06	27.9997
23.078	27.9272
23.096	27.8519
23.114	27.7733
23.132	27.6921
23.15	27.6132
23.168	27.5359
23.186	27.4611
23.204	27.3934
23.222	27.3323
23.24	27.2782
23.258	27.2341
23.276	27.2003
23.294	27.1762
23.312	27.1629
23.33	27.1609
23.348	27.1694
23.366	27.1873
23.384	27.2153
23.402	27.2526
23.42	27.2968
23.438	27.3487
23.456	27.4075
23.474	27.47
23.492	27.5362
23.51	27.6062
23.528	27.6764
23.546	27.7464
23.564	27.8169
23.582	27.8847
23.6	27.949
23.618	28.0107
23.636	28.0677
23.654	28.1189
23.672	28.1651
23.69	28.2057
23.708	28.2399
23.726	28.268
23.744	28.2904
23.762	28.3072
23.78	28.318
23.798	28.3238
23.816	28.3256
23.834	28.3227
23.852	28.3159
23.87	28.3064
23.888	28.2938
23.906	28.2784
23.924	28.2613
23.942	28.2427
23.96	28.2224
23.978	28.2006
23.996	28.1779
24.014	28.1539
24.032	28.1273
24.05	28.0972
24.068	28.065
24.086	28.0278
24.104	27.9831
24.122	27.9332
24.14	27.8753
24.158	27.8056
24.176	27.7255
24.194	27.6342
24.212	27.5284
24.23	27.4075
24.248	27.2726
24.266	27.1218
24.284	26.9536
24.302	26.7687
24.32	26.5687
24.338	26.3549
24.356	26.1252
24.374	25.8828
24.392	25.6323
24.41	25.3707
24.428	25.1001
24.446	24.829
24.464	24.5595
24.482	24.2874
24.5	24.0232
24.518	23.7752
24.536	23.5357
24.554	23.3125
24.572	23.1171
24.59	22.946
24.608	22.7997
24.626	22.6884
24.644	22.6167
24.662	22.5795
24.68	22.5815
24.698	22.6274
24.716	22.7165
24.734	22.8466
24.752	23.0159
24.77	23.2269
24.788	23.4784
24.806	23.7618
24.824	24.0725
24.842	24.4174
24.86	24.7862
24.878	25.1662
24.896	25.564
24.914	25.9765
24.932	26.388
24.95	26.7915
24.968	27.1975
24.986	27.5911
25.004	27.9567
25.022	28.3015
25.04	28.6232
25.058	28.91
25.076	29.1556
25.094	29.3665
25.112	29.5395
25.13	29.6712
25.148	29.7612
25.166	29.8118
25.184	29.8252
25.202	29.8015
25.22	29.739
25.238	29.6432
25.256	29.5196
25.274	29.3631
25.292	29.1773
25.31	28.9722
25.328	28.7523
25.346	28.5103
25.364	28.2558
25.382	28.0001
25.4	27.7403
25.418	27.4754
25.436	27.2138
25.454	26.9618
25.472	26.7147
25.49	26.4746
25.508	26.2456
25.526	26.0306
25.544	25.8274
25.562	25.6325
25.58	25.4432
25.598	25.2638
25.616	25.0908
25.634	24.916
25.652	24.7361
25.67	24.5582
25.688	24.373
25.706	24.1697
25.724	23.948
25.742	23.7123
25.76	23.4551
25.778	23.1693
25.796	22.8543
25.814	22.5145
25.832	22.1535
25.85	21.7719
25.868	21.3627
25.886	20.938
25.904	20.5118
25.922	20.0815
25.94	19.6388
25.958	19.209
25.976	18.8173
25.994	18.4505
26.012	18.1091
26.03	17.8192
26.048	17.6036
26.066	17.4469
26.084	17.3525
26.102	17.3341
26.12	17.402
26.138	17.5499
26.156	17.7744
26.174	18.0734
26.192	18.4519
26.21	18.9137
26.228	19.4388
26.246	20.0064
26.264	20.6252
26.282	21.3011
26.3	22.002
26.318	22.6967
26.336	23.4026
26.354	24.1195
26.372	24.8161
26.39	25.464
26.408	26.0864
26.426	26.6757
26.444	27.2041
26.462	27.6478
26.48	28.0215
26.498	28.3257
26.516	28.553
26.534	28.698
26.552	28.7658
26.57	28.7557
26.588	28.6653
26.606	28.4928
26.624	28.2397
26.642	27.9071
26.66	27.4962
26.678	27.0082
26.696	26.4438
26.714	25.8013
26.732	25.0791
26.75	24.2781
26.768	23.4025
26.786	22.4453
26.804	21.3989
26.822	20.2606
26.84	19.0377
26.858	17.7243
26.876	16.3133
26.894	14.801
26.912	13.193
26.93	11.488
26.948	9.683787
26.966	7.667384
26.984	5.275385
27.002	2.927617
27.02	1.079696
27.028	0.591802