File: Bakgrunnsmateriale/MATLAB/FTIR/ftir_data/LPE454/Mapping_121/LPE454_t22.asc
PE IR       SPECTRUM    SPECTRUM    ASCII       PEDS        1.60
  -1
LPCB94~1.ASC
17/05/19
16:06:47.00
17/05/19
16:07:13.00
tln
$LPE454_t0022$<tbV0>[-13.0,-10.4,8.0,0.0,27,1,0]
27.028
64

2002,4.07
MIRTGS : RIGHTBACK : INTERNAL 2
MIR : ON : INTERNAL 2
OPTKBR

0.200000
8
8.000000
FILLER
RATIO
SPECTRUM
UNLOCKED 256

DOUBLE
64
COMBINED
1
0
0

0.002000
RATIO

1
0
TRUE
51149
0
LEFT NOT FITTED RIGHT NOT FITTED 0
NONE
NONE
15600
12
4.427000
51148
TRUE
1 0 8 72 0 0 0 0

15798

#HDR
-1
-1
#GR
µM
%T
2.38419e-05
0.0
2.000000
0.002000
12515
8
21.1567
-53.9671
#DATA
2.000000	 0.969696
2.018000	 0.344574
2.036000	 0.183171
2.054000	 -0.069507
2.072000	 0.415933
2.090000	 0.016643
2.108000	 0.260221
2.126000	 0.073091
2.144000	 0.100606
2.162000	 0.326928
2.180000	 -0.563181
2.198000	 0.729318
2.216000	 -0.975659
2.234000	 -1.327703
2.252000	 -0.546979
2.270000	 0.204309
2.288000	 0.434480
2.306000	 -0.128051
2.324000	 0.184711
2.342000	 -0.182051
2.360000	 0.111859
2.378000	 0.045298
2.396000	 -0.092645
2.414000	 0.056162
2.432000	 0.087102
2.450000	 0.175703
2.468000	 0.052269
2.486000	 -0.026641
2.504000	 0.252643
2.522000	 0.005669
2.540000	 -0.030592
2.558000	 0.079538
2.576000	 0.198572
2.594000	 0.198176
2.612000	 0.045278
2.630000	 -0.148599
2.648000	 0.102762
2.666000	 -0.052041
2.684000	 0.140356
2.702000	 0.154551
2.720000	 0.026450
2.738000	 -0.023894
2.756000	 0.037010
2.774000	 -0.110393
2.792000	 0.166774
2.810000	 0.070612
2.828000	 -0.087737
2.846000	 0.189580
2.864000	 0.144221
2.882000	 0.093251
2.900000	 -0.095483
2.918000	 0.100944
2.936000	 -0.133393
2.954000	 0.157248
2.972000	 0.008231
2.990000	 0.150496
3.008000	 0.031593
3.026000	 0.081993
3.044000	 0.010138
3.062000	 0.028552
3.080000	 -0.067797
3.098000	 -0.030386
3.116000	 0.059457
3.134000	 0.033076
3.152000	 0.075251
3.170000	 -0.009781
3.188000	 0.023359
3.206000	 0.281442
3.224000	 -0.062395
3.242000	 -0.016066
3.260000	 0.190451
3.278000	 0.152139
3.296000	 0.100148
3.314000	 0.086343
3.332000	 -0.020555
3.350000	 0.076625
3.368000	 0.072647
3.386000	 -0.030476
3.404000	 0.010476
3.422000	 0.099029
3.440000	 -0.030602
3.458000	 0.020827
3.476000	 0.132017
3.494000	 -0.138621
3.512000	 0.048334
3.530000	 -0.046877
3.548000	 -0.020249
3.566000	 0.035048
3.584000	 0.020601
3.602000	 0.015345
3.620000	 0.030851
3.638000	 0.098426
3.656000	 -0.012950
3.674000	 0.079174
3.692000	 0.044495
3.710000	 0.082605
3.728000	 0.049130
3.746000	 0.085732
3.764000	 0.003229
3.782000	 -0.087421
3.800000	 -0.046111
3.818000	 -0.004668
3.836000	 0.010414
3.854000	 0.077139
3.872000	 0.046490
3.890000	 -0.030430
3.908000	 0.041653
3.926000	 0.092082
3.944000	 -0.002684
3.962000	 -0.005923
3.980000	 0.004264
3.998000	 0.016069
4.016000	 -0.029877
4.034000	 0.015476
4.052000	 -0.044820
4.070000	 0.028066
4.088000	 0.064787
4.106000	 -0.013264
4.124000	 0.131607
4.141999	 0.271350
4.160000	 0.008981
4.178000	 0.033056
4.196000	 0.033652
4.214000	 0.141350
4.232000	 -0.028019
4.250000	 -0.038484
4.268000	 0.025641
4.286000	 -0.066876
4.304000	 -0.014188
4.322000	 -0.021965
4.340000	 0.022770
4.358000	 0.124715
4.375999	 -0.005782
4.394000	 0.012616
4.412000	 0.029138
4.430000	 0.051151
4.448000	 0.020466
4.466000	 0.090945
4.484000	 0.041158
4.502000	 0.067238
4.520000	 -0.031152
4.538000	 -0.020320
4.556000	 -0.022871
4.574000	 0.061842
4.592000	 0.033265
4.609999	 0.075374
4.628000	 0.022273
4.646000	 0.071285
4.664000	 -0.032429
4.682000	 -0.043521
4.700000	 0.058992
4.718000	 -0.028563
4.736000	 0.001784
4.754000	 0.058337
4.772000	 0.088381
4.790000	 0.028100
4.808000	 0.219057
4.826000	 0.066775
4.843999	 0.007872
4.862000	 0.030093
4.880000	 0.098812
4.898000	 0.181076
4.916000	 0.173018
4.934000	 0.085228
4.952000	 0.170071
4.970000	 0.147411
4.988000	 0.150457
5.006000	 0.114085
5.024000	 0.193688
5.042000	 0.187914
5.060000	 0.170507
5.077999	 0.088020
5.096000	 0.137311
5.114000	 0.118916
5.132000	 0.130814
5.150000	 0.075642
5.168000	 0.180489
5.186000	 0.220563
5.204000	 0.281308
5.222000	 0.230322
5.240000	 0.149140
5.258000	 0.122761
5.276000	 0.037819
5.294000	 -0.018874
5.312000	 -0.002386
5.330000	 0.081100
5.348000	 0.169180
5.366000	 0.111778
5.384000	 0.090701
5.402000	 0.133395
5.420000	 0.113235
5.438000	 0.133410
5.456000	 0.136924
5.474000	 0.182194
5.492000	 0.214382
5.510000	 0.228945
5.528000	 0.249113
5.546000	 0.334013
5.564000	 0.207776
5.582000	 0.174637
5.600000	 0.214301
5.618000	 0.166560
5.636000	 0.109487
5.654000	 0.056675
5.672000	 0.114711
5.690000	 0.140987
5.708000	 0.152543
5.726000	 0.142178
5.744000	 0.192240
5.762000	 0.266771
5.780000	 0.315129
5.798000	 0.258209
5.816000	 0.225498
5.834000	 0.124027
5.852000	 0.170633
5.870000	 0.205006
5.888000	 0.200173
5.906000	 0.238366
5.923999	 0.239567
5.942000	 0.213681
5.960000	 0.197980
5.978000	 0.151557
5.996000	 0.123160
6.014000	 0.158047
6.032000	 0.247793
6.050000	 0.291162
6.068000	 0.256570
6.086000	 0.261018
6.104000	 0.255562
6.122000	 0.274749
6.140000	 0.269146
6.158000	 0.235162
6.176000	 0.226485
6.194000	 0.246733
6.212000	 0.346556
6.230000	 0.369913
6.248000	 0.225359
6.266000	 0.145174
6.284000	 0.232505
6.302000	 0.295800
6.320000	 0.241009
6.338000	 0.114544
6.356000	 0.108119
6.374000	 0.203353
6.392000	 0.291634
6.410000	 0.326060
6.428000	 0.297566
6.446000	 0.318624
6.464000	 0.345826
6.482000	 0.366021
6.500000	 0.355980
6.518000	 0.234389
6.536000	 0.115036
6.554000	 0.100041
6.572000	 0.167496
6.590000	 0.212619
6.608000	 0.205879
6.626000	 0.208265
6.644000	 0.211063
6.662000	 0.160396
6.680000	 0.133161
6.698000	 0.164846
6.716000	 0.179370
6.734000	 0.216077
6.752000	 0.293170
6.770000	 0.338806
6.788000	 0.369337
6.806000	 0.404482
6.824000	 0.351676
6.842000	 0.234575
6.860000	 0.164015
6.878000	 0.174726
6.896000	 0.286391
6.914000	 0.412076
6.932000	 0.422211
6.950000	 0.377518
6.968000	 0.355161
6.986000	 0.337869
7.004000	 0.317441
7.022000	 0.291998
7.040000	 0.260091
7.058000	 0.227145
7.076000	 0.207994
7.094000	 0.209420
7.112000	 0.204696
7.130000	 0.178277
7.148000	 0.165983
7.166000	 0.197623
7.184000	 0.242892
7.202000	 0.261491
7.220000	 0.243773
7.238000	 0.207800
7.256000	 0.208926
7.274000	 0.266835
7.292000	 0.316926
7.310000	 0.332725
7.328000	 0.343862
7.346000	 0.331715
7.364000	 0.283520
7.382000	 0.246545
7.400000	 0.249823
7.418000	 0.283287
7.436000	 0.304927
7.454000	 0.266287
7.472000	 0.210582
7.490000	 0.225789
7.508000	 0.282275
7.526000	 0.296690
7.544000	 0.285720
7.562000	 0.303031
7.580000	 0.327977
7.598000	 0.318729
7.616000	 0.280359
7.634000	 0.235703
7.652000	 0.205438
7.670000	 0.217718
7.688000	 0.273621
7.706000	 0.329588
7.724000	 0.358930
7.742000	 0.374613
7.760000	 0.384170
7.778000	 0.386995
7.796000	 0.398138
7.814000	 0.418144
7.832000	 0.420850
7.850000	 0.396619
7.868000	 0.366915
7.886000	 0.358373
7.904000	 0.387118
7.922000	 0.439189
7.940000	 0.467232
7.958000	 0.447844
7.976000	 0.416360
7.994000	 0.415158
8.012000	 0.443078
8.030000	 0.475849
8.048000	 0.497155
8.065999	 0.500487
8.084000	 0.491205
8.102000	 0.485779
8.120000	 0.486541
8.138000	 0.473718
8.155999	 0.435772
8.173999	 0.384906
8.192000	 0.347691
8.210000	 0.356553
8.228000	 0.425806
8.246000	 0.519891
8.263999	 0.579243
8.282000	 0.590395
8.300000	 0.588593
8.318000	 0.591250
8.336000	 0.583283
8.353999	 0.564516
8.372000	 0.562149
8.390000	 0.589223
8.408000	 0.622206
8.426000	 0.628634
8.443999	 0.600425
8.462000	 0.556871
8.480000	 0.523209
8.498000	 0.514954
8.516000	 0.535793
8.533999	 0.580259
8.552000	 0.630952
8.570000	 0.663558
8.588000	 0.669907
8.606000	 0.670206
8.624000	 0.687326
8.641999	 0.711787
8.660000	 0.712200
8.678000	 0.681328
8.696000	 0.646924
8.714000	 0.630025
8.731999	 0.609350
8.750000	 0.548951
8.768000	 0.451242
8.786000	 0.365157
8.804000	 0.343566
8.821999	 0.396120
8.840000	 0.487760
8.858000	 0.574436
8.876000	 0.640050
8.894000	 0.691915
8.911999	 0.735230
8.930000	 0.759606
8.948000	 0.759954
8.966000	 0.755383
8.984000	 0.770908
9.001999	 0.802140
9.020000	 0.815561
9.038000	 0.783455
9.056000	 0.715126
9.074000	 0.656073
9.092000	 0.659443
9.109999	 0.749338
9.128000	 0.896494
9.146000	 1.025976
9.164000	 1.066532
9.182000	 1.009809
9.199999	 0.916030
9.218000	 0.854293
9.236000	 0.843446
9.254000	 0.849124
9.272000	 0.830492
9.289999	 0.780524
9.308000	 0.724203
9.326000	 0.688321
9.344000	 0.678908
9.362000	 0.682837
9.379999	 0.683505
9.398000	 0.674681
9.416000	 0.666748
9.434000	 0.676656
9.452000	 0.713216
9.469999	 0.766517
9.488000	 0.815471
9.506000	 0.844692
9.524000	 0.854878
9.542000	 0.857760
9.560000	 0.860125
9.577999	 0.852793
9.596000	 0.820220
9.614000	 0.759622
9.632000	 0.689900
9.650000	 0.641227
9.667999	 0.632285
9.686000	 0.656755
9.704000	 0.690558
9.722000	 0.710764
9.740000	 0.707651
9.757999	 0.680021
9.776000	 0.628598
9.794000	 0.563442
9.812000	 0.511702
9.830000	 0.505913
9.847999	 0.557769
9.866000	 0.643459
9.884000	 0.718903
9.902000	 0.751891
9.920000	 0.743865
9.937999	 0.724607
9.956000	 0.724907
9.974000	 0.756393
9.992000	 0.809956
10.01	0.867813
10.028	0.913474
10.046	0.935197
10.064	0.928878
10.082	0.899469
10.1	0.859646
10.118	0.825590
10.136	0.809040
10.154	0.812506
10.172	0.829797
10.19	0.850818
10.208	0.868799
10.226	0.881946
10.244	0.891063
10.262	0.894226
10.28	0.885526
10.298	0.857568
10.316	0.807333
10.334	0.742573
10.352	0.680445
10.37	0.640997
10.388	0.636418
10.406	0.665614
10.424	0.717579
10.442	0.778821
10.46	0.841459
10.478	0.904361
10.496	0.968092
10.514	1.029364
10.532	1.079394
10.55	1.108503
10.568	1.112377
10.586	1.096633
10.604	1.073285
10.622	1.055714
10.64	1.051035
10.658	1.058205
10.676	1.068855
10.694	1.072947
10.712	1.062020
10.73	1.032132
10.748	0.984322
10.766	0.926116
10.784	0.869281
10.802	0.827259
10.82	0.809507
10.838	0.818565
10.856	0.849041
10.874	0.889799
10.892	0.929031
10.91	0.956660
10.928	0.967301
10.946	0.960182
10.964	0.939823
10.982	0.914473
11	0.893929
11.018	0.886866
11.036	0.894627
11.054	0.909822
11.072	0.920141
11.09	0.914784
11.108	0.892878
11.126	0.865904
11.144	0.851679
11.162	0.867081
11.18	0.917767
11.198	0.994938
11.216	1.079509
11.234	1.150705
11.252	1.192935
11.27	1.201817
11.288	1.182969
11.306	1.146871
11.324	1.106059
11.342	1.071294
11.36	1.049998
11.378	1.045536
11.396	1.056388
11.414	1.076959
11.432	1.098138
11.45	1.111106
11.468	1.109519
11.486	1.092798
11.504	1.065883
11.522	1.037340
11.54	1.014736
11.558	1.002016
11.576	0.997811
11.594	0.996912
11.612	0.992332
11.63	0.978841
11.648	0.954904
11.666	0.922804
11.684	0.888758
11.702	0.860885
11.72	0.847257
11.738	0.853388
11.756	0.880832
11.774	0.926572
11.792	0.982886
11.81	1.039997
11.828	1.088675
11.846	1.122023
11.864	1.137822
11.882	1.137885
11.9	1.126881
11.918	1.110163
11.936	1.091815
11.954	1.073910
11.972	1.056941
11.99	1.040819
12.008	1.025019
12.026	1.009232
12.044	0.993764
12.062	0.979560
12.08	0.968283
12.098	0.962104
12.116	0.963625
12.134	0.975361
12.152	0.998881
12.17	1.034039
12.188	1.078435
12.206	1.126950
12.224	1.172614
12.242	1.208688
12.26	1.229943
12.278	1.234113
12.296	1.223348
12.314	1.203684
12.332	1.183576
12.35	1.171746
12.368	1.175311
12.386	1.197807
12.404	1.237404
12.422	1.287479
12.44	1.339099
12.458	1.383745
12.476	1.415863
12.494	1.434293
12.512	1.441653
12.53	1.442265
12.548	1.439773
12.566	1.435265
12.584	1.427284
12.602	1.412554
12.62	1.388145
12.638	1.353248
12.656	1.310018
12.674	1.263233
12.692	1.219254
12.71	1.184098
12.728	1.162569
12.746	1.156871
12.764	1.167198
12.782	1.191793
12.8	1.227877
12.818	1.271734
12.836	1.319096
12.854	1.365032
12.872	1.403645
12.89	1.429602
12.908	1.439030
12.926	1.430595
12.944	1.406085
12.962	1.370624
12.98	1.331520
12.998	1.296586
13.016	1.272365
13.034	1.262747
13.052	1.268412
13.07	1.287240
13.088	1.315445
13.106	1.349089
13.124	1.385444
13.142	1.423985
13.16	1.466052
13.178	1.513618
13.196	1.568272
13.214	1.629148
13.232	1.692278
13.25	1.750591
13.268	1.795461
13.286	1.818189
13.304	1.812663
13.322	1.776823
13.34	1.713727
13.358	1.631001
13.376	1.539602
13.394	1.451633
13.412	1.378237
13.43	1.327964
13.448	1.305512
13.466	1.311408
13.484	1.342500
13.502	1.393123
13.52	1.456199
13.538	1.524336
13.556	1.591030
13.574	1.651189
13.592	1.701503
13.61	1.739974
13.628	1.766145
13.646	1.780536
13.664	1.784114
13.682	1.778323
13.7	1.764229
13.718	1.742811
13.736	1.714802
13.754	1.680942
13.772	1.642546
13.79	1.602012
13.808	1.562636
13.826	1.528563
13.844	1.503970
13.862	1.492411
13.88	1.495938
13.898	1.514515
13.916	1.545944
13.934	1.586095
13.952	1.629557
13.97	1.670666
13.988	1.704245
14.006	1.726195
14.024	1.734061
14.042	1.727226
14.06	1.707035
14.078	1.676204
14.096	1.638571
14.114	1.598339
14.132	1.559516
14.15	1.525796
14.168	1.500322
14.186	1.485088
14.204	1.480878
14.222	1.487166
14.24	1.501942
14.258	1.522513
14.276	1.545527
14.294	1.567775
14.312	1.586614
14.33	1.600342
14.348	1.608696
14.366	1.612586
14.384	1.614142
14.402	1.615751
14.42	1.619583
14.438	1.627065
14.456	1.638756
14.474	1.654365
14.492	1.672722
14.51	1.692036
14.528	1.710513
14.546	1.726797
14.564	1.740103
14.582	1.750200
14.6	1.757293
14.618	1.761851
14.636	1.764212
14.654	1.764302
14.672	1.761582
14.69	1.755328
14.708	1.744832
14.726	1.729555
14.744	1.709533
14.762	1.686057
14.78	1.661120
14.798	1.637183
14.816	1.616926
14.834	1.603044
14.852	1.597472
14.87	1.600832
14.888	1.612775
14.906	1.631992
14.924	1.656206
14.942	1.682116
14.96	1.706334
14.978	1.726171
14.996	1.739434
15.014	1.744432
15.032	1.740168
15.05	1.726865
15.068	1.705456
15.086	1.677400
15.104	1.644625
15.122	1.609407
15.14	1.574253
15.158	1.541495
15.176	1.513384
15.194	1.492210
15.212	1.479981
15.23	1.477699
15.248	1.485771
15.266	1.504029
15.284	1.531135
15.302	1.565059
15.32	1.603363
15.338	1.643381
15.356	1.682067
15.374	1.716762
15.392	1.745703
15.41	1.767567
15.428	1.781525
15.446	1.787365
15.464	1.785708
15.482	1.777214
15.5	1.762572
15.518	1.742658
15.536	1.717548
15.554	1.687319
15.572	1.652138
15.59	1.611492
15.608	1.565043
15.626	1.512575
15.644	1.453954
15.662	1.390132
15.68	1.322296
15.698	1.251841
15.716	1.181133
15.734	1.112822
15.752	1.049140
15.77	0.992394
15.788	0.945345
15.806	0.909689
15.824	0.886658
15.842	0.877253
15.86	0.881555
15.878	0.898896
15.896	0.928402
15.914	0.968213
15.932	1.016121
15.95	1.070218
15.968	1.128187
15.986	1.187353
16.004	1.246186
16.022	1.303204
16.04	1.356505
16.058	1.405420
16.076	1.449410
16.094	1.488124
16.112	1.521899
16.13	1.550986
16.148	1.575678
16.166	1.596848
16.184	1.615281
16.202	1.631935
16.22	1.648313
16.238	1.665483
16.256	1.684557
16.274	1.706848
16.292	1.733028
16.31	1.763696
16.328	1.798920
16.346	1.838092
16.364	1.880647
16.382	1.924762
16.4	1.968562
16.418	2.010535
16.436	2.047887
16.454	2.078927
16.472	2.102391
16.49	2.116854
16.508	2.122569
16.526	2.119748
16.544	2.110244
16.562	2.096306
16.58	2.079728
16.598	2.064255
16.616	2.051780
16.634	2.044135
16.652	2.043564
16.67	2.050067
16.688	2.063890
16.706	2.083390
16.724	2.106849
16.742	2.131854
16.76	2.154664
16.778	2.173393
16.796	2.184488
16.814	2.185713
16.832	2.175821
16.85	2.153437
16.868	2.119143
16.886	2.073109
16.904	2.017940
16.922	1.955731
16.94	1.889328
16.958	1.822985
16.976	1.758563
16.994	1.700133
17.012	1.649272
17.03	1.607398
17.048	1.575620
17.066	1.553251
17.084	1.539673
17.102	1.532043
17.12	1.529088
17.138	1.527006
17.156	1.523831
17.174	1.517455
17.192	1.505499
17.21	1.487519
17.228	1.462585
17.246	1.431950
17.264	1.396050
17.282	1.358265
17.3	1.320007
17.318	1.284588
17.336	1.254722
17.354	1.232198
17.372	1.219871
17.39	1.218221
17.408	1.228742
17.426	1.250817
17.444	1.284438
17.462	1.327708
17.48	1.379859
17.498	1.438531
17.516	1.502158
17.534	1.569225
17.552	1.637627
17.57	1.706734
17.588	1.774671
17.606	1.840903
17.624	1.904407
17.642	1.964108
17.66	2.019528
17.678	2.069170
17.696	2.112606
17.714	2.148174
17.732	2.174994
17.75	2.191928
17.768	2.197662
17.786	2.191689
17.804	2.173557
17.822	2.143474
17.84	2.101865
17.858	2.050068
17.876	1.989272
17.894	1.922314
17.912	1.850146
17.93	1.777144
17.948	1.704099
17.966	1.634863
17.984	1.570036
18.002	1.512084
18.02	1.461250
18.038	1.418425
18.056	1.383053
18.074	1.355154
18.092	1.333290
18.11	1.317192
18.128	1.305080
18.146	1.296667
18.164	1.290609
18.182	1.286785
18.2	1.284585
18.218	1.284240
18.236	1.285644
18.254	1.289521
18.272	1.296023
18.29	1.305528
18.308	1.318058
18.326	1.333761
18.344	1.352428
18.362	1.373222
18.38	1.395745
18.398	1.418995
18.416	1.442178
18.434	1.464087
18.452	1.484045
18.47	1.501264
18.488	1.515628
18.506	1.526841
18.524	1.535531
18.542	1.541659
18.56	1.546711
18.578	1.550812
18.596	1.555563
18.614	1.561061
18.632	1.568585
18.65	1.578111
18.668	1.590025
18.686	1.604107
18.704	1.619511
18.722	1.635935
18.74	1.651952
18.758	1.667240
18.776	1.680169
18.794	1.690647
18.812	1.697538
18.83	1.701127
18.848	1.701208
18.866	1.698340
18.884	1.693060
18.902	1.686168
18.92	1.678864
18.938	1.671796
18.956	1.666256
18.974	1.662588
18.992	1.661907
19.01	1.663912
19.028	1.668943
19.046	1.676215
19.064	1.685087
19.082	1.694707
19.1	1.703756
19.118	1.711571
19.136	1.716480
19.154	1.718280
19.172	1.715597
19.19	1.708622
19.208	1.696716
19.226	1.680353
19.244	1.660193
19.262	1.636617
19.28	1.611416
19.298	1.584703
19.316	1.558776
19.334	1.533543
19.352	1.511168
19.37	1.491512
19.388	1.475577
19.406	1.463371
19.424	1.454731
19.442	1.449784
19.46	1.447498
19.478	1.447926
19.496	1.449767
19.514	1.452738
19.532	1.456025
19.55	1.459087
19.568	1.461700
19.586	1.463290
19.604	1.464080
19.622	1.464008
19.64	1.463248
19.658	1.462311
19.676	1.461190
19.694	1.460691
19.712	1.460737
19.73	1.461971
19.748	1.464475
19.766	1.468118
19.784	1.473015
19.802	1.478726
19.82	1.485164
19.838	1.491906
19.856	1.498355
19.874	1.504447
19.892	1.509340
19.91	1.513149
19.928	1.515284
19.946	1.515733
19.964	1.514661
19.982	1.511900
20	1.508140
20.018	1.503545
20.036	1.498612
20.054	1.494163
20.072	1.490209
20.09	1.487997
20.108	1.487350
20.126	1.488940
20.144	1.492879
20.162	1.498980
20.18	1.507398
20.198	1.517676
20.216	1.529408
20.234	1.542477
20.252	1.555693
20.27	1.569288
20.288	1.581794
20.306	1.593226
20.324	1.602720
20.342	1.609564
20.36	1.613858
20.378	1.614971
20.396	1.613051
20.414	1.608261
20.432	1.600502
20.45	1.590283
20.468	1.577600
20.486	1.562940
20.504	1.547150
20.522	1.530098
20.54	1.513126
20.558	1.496004
20.576	1.479878
20.594	1.465237
20.612	1.452223
20.63	1.441713
20.648	1.433497
20.666	1.428366
20.684	1.426350
20.702	1.427514
20.72	1.431974
20.738	1.439696
20.756	1.450831
20.774	1.465333
20.792	1.483240
20.81	1.504539
20.828	1.529243
20.846	1.557432
20.864	1.589050
20.882	1.623878
20.9	1.661929
20.918	1.703060
20.936	1.747185
20.954	1.794269
20.972	1.844086
20.99	1.896800
21.008	1.951594
21.026	2.008444
21.044	2.066851
21.062	2.125420
21.08	2.184642
21.098	2.242458
21.116	2.298740
21.134	2.352675
21.152	2.402235
21.17	2.448102
21.188	2.487846
21.206	2.521287
21.224	2.547779
21.242	2.565505
21.26	2.575050
21.278	2.575127
21.296	2.565423
21.314	2.546077
21.332	2.516601
21.35	2.477067
21.368	2.428314
21.386	2.370216
21.404	2.303433
21.422	2.229406
21.44	2.147546
21.458	2.060034
21.476	1.967556
21.494	1.870283
21.512	1.770692
21.53	1.668133
21.548	1.564287
21.566	1.460439
21.584	1.356150
21.602	1.253287
21.62	1.151782
21.638	1.052018
21.656	0.954825
21.674	0.859876
21.692	0.767911
21.71	0.679072
21.728	0.593390
21.746	0.511421
21.764	0.432814
21.782	0.358468
21.8	0.289057
21.818	0.224269
21.836	0.164954
21.854	0.110703
21.872	0.062356
21.89	0.021535
21.908	-0.012501
21.926	-0.038120
21.944	-0.054482
21.962	-0.061984
21.98	-0.057991
21.998	-0.042413
22.016	-0.015073
22.034	0.025421
22.052	0.078557
22.07	0.145030
22.088	0.225665
22.106	0.320038
22.124	0.427680
22.142	0.548921
22.16	0.683083
22.178	0.828445
22.196	0.985970
22.214	1.153447
22.232	1.328427
22.25	1.512391
22.268	1.701145
22.286	1.892786
22.304	2.088282
22.322	2.281887
22.34	2.473613
22.358	2.662502
22.376	2.842647
22.394	3.015700
22.412	3.178962
22.43	3.327820
22.448	3.464358
22.466	3.585357
22.484	3.687941
22.502	3.773694
22.52	3.840377
22.538	3.886684
22.556	3.913564
22.574	3.920882
22.592	3.907950
22.61	3.875840
22.628	3.826710
22.646	3.759234
22.664	3.675879
22.682	3.580781
22.7	3.471779
22.718	3.352751
22.736	3.228319
22.754	3.095671
22.772	2.960161
22.79	2.826428
22.808	2.691691
22.826	2.560915
22.844	2.437270
22.862	2.318669
22.88	2.209196
22.898	2.111122
22.916	2.022930
22.934	1.945817
22.952	1.880662
22.97	1.826727
22.988	1.782916
23.006	1.750015
23.024	1.727120
23.042	1.710236
23.06	1.700123
23.078	1.695745
23.096	1.691325
23.114	1.687685
23.132	1.683802
23.15	1.673670
23.168	1.657891
23.186	1.635916
23.204	1.603147
23.222	1.559636
23.24	1.505664
23.258	1.439222
23.276	1.360006
23.294	1.268681
23.312	1.165365
23.33	1.048768
23.348	0.920677
23.366	0.784707
23.384	0.639284
23.402	0.486212
23.42	0.331792
23.438	0.174981
23.456	0.016686
23.474	-0.135729
23.492	-0.281873
23.51	-0.422451
23.528	-0.551429
23.546	-0.667595
23.564	-0.772373
23.582	-0.861432
23.6	-0.932934
23.618	-0.988540
23.636	-1.026640
23.654	-1.045950
23.672	-1.047194
23.69	-1.031521
23.708	-0.999243
23.726	-0.949499
23.744	-0.885382
23.762	-0.809199
23.78	-0.718555
23.798	-0.617652
23.816	-0.511037
23.834	-0.395580
23.852	-0.275007
23.87	-0.155257
23.888	-0.034333
23.906	0.086351
23.924	0.201750
23.942	0.311804
23.96	0.417159
23.978	0.514665
23.996	0.603280
24.014	0.684213
24.032	0.755534
24.05	0.815923
24.068	0.866331
24.086	0.906273
24.104	0.935117
24.122	0.952857
24.14	0.960137
24.158	0.957586
24.176	0.944589
24.194	0.921891
24.212	0.891078
24.23	0.852136
24.248	0.804849
24.266	0.751096
24.284	0.691792
24.302	0.625879
24.32	0.555212
24.338	0.481511
24.356	0.403563
24.374	0.322533
24.392	0.240350
24.41	0.156243
24.428	0.070623
24.446	-0.014111
24.464	-0.096968
24.482	-0.179067
24.5	-0.259044
24.518	-0.335908
24.536	-0.411089
24.554	-0.482633
24.572	-0.547931
24.59	-0.608395
24.608	-0.663259
24.626	-0.708799
24.644	-0.744103
24.662	-0.771423
24.68	-0.785638
24.698	-0.782076
24.716	-0.763743
24.734	-0.728809
24.752	-0.673423
24.77	-0.598251
24.788	-0.503971
24.806	-0.386047
24.824	-0.241706
24.842	-0.074437
24.86	0.119662
24.878	0.345444
24.896	0.601781
24.914	0.888175
24.932	1.207218
24.95	1.561257
24.968	1.949468
24.986	2.368729
25.004	2.816149
25.022	3.294684
25.04	3.801634
25.058	4.330988
25.076	4.880928
25.094	5.455136
25.112	6.046616
25.13	6.648511
25.148	7.266588
25.166	7.896654
25.184	8.528479
25.202	9.158169
25.22	9.792193
25.238	10.4215
25.256	11.0367
25.274	11.6458
25.292	12.2439
25.31	12.8164
25.328	13.3564
25.346	13.8756
25.364	14.3592
25.382	14.7898
25.4	15.1737
25.418	15.5117
25.436	15.7872
25.454	15.9878
25.472	16.1255
25.49	16.1927
25.508	16.1776
25.526	16.0758
25.544	15.8937
25.562	15.6305
25.58	15.2852
25.598	14.8525
25.616	14.3396
25.634	13.7576
25.652	13.1102
25.67	12.3854
25.688	11.6032
25.706	10.7866
25.724	9.930856
25.742	9.029094
25.76	8.110988
25.778	7.203599
25.796	6.287782
25.814	5.371469
25.832	4.480493
25.85	3.631639
25.868	2.806130
25.886	2.016436
25.904	1.279786
25.922	0.600707
25.94	-0.030471
25.958	-0.605444
25.976	-1.115658
25.994	-1.560030
26.012	-1.942967
26.03	-2.266839
26.048	-2.533042
26.066	-2.735406
26.084	-2.881300
26.102	-2.981868
26.12	-3.042349
26.138	-3.050550
26.156	-3.021388
26.174	-2.973050
26.192	-2.911206
26.21	-2.823906
26.228	-2.723631
26.246	-2.623730
26.264	-2.520703
26.282	-2.409950
26.3	-2.307298
26.318	-2.228204
26.336	-2.165940
26.354	-2.119097
26.372	-2.099333
26.39	-2.116982
26.408	-2.160391
26.426	-2.235328
26.444	-2.357231
26.462	-2.537841
26.48	-2.759388
26.498	-3.034180
26.516	-3.383689
26.534	-3.822612
26.552	-4.330449
26.57	-4.920389
26.588	-5.612640
26.606	-6.418936
26.624	-7.320265
26.642	-8.329853
26.66	-9.465461
26.678	-10.739
26.696	-12.1393
26.714	-13.6654
26.732	-15.3179
26.75	-17.1009
26.768	-19.0181
26.786	-21.0551
26.804	-23.1966
26.822	-25.4439
26.84	-27.8189
26.858	-30.2822
26.876	-32.7908
26.894	-35.3344
26.912	-37.9593
26.93	-40.6073
26.948	-43.2139
26.966	-45.8389
26.984	-48.6722
27.002	-51.3341
27.02	-53.4072
27.028	-53.9671