File: Bakgrunnsmateriale/MATLAB/FTIR/ftir_data/LPE454/Mapping_121/LPE454_e125_cm-1.asc
PE IR       SPECTRUM    SPECTRUM    ASCII       PEDS        1.60
  -1
LP081C~1.ASC
17/05/19
19:50:42.00
17/05/19
19:50:42.00
tln
$LPE454_e0125$<ebV0>[-23.3,12.1,10.0,0.0,27,1,0]
370
64

2002,4.07
MIRTGS : RIGHTBACK : INTERNAL 2
MIR : ON : INTERNAL 2
OPTKBR

0.200000
8
8.000000
FILLER
SINGLE
SPECTRUM
UNLOCKED 256

DOUBLE

COMBINED
1
0
0

1.000000
BACKG

1
0
TRUE
51149
0
LEFT NOT FITTED RIGHT NOT FITTED 0
NONE
NONE
15600
12
4.427000
51148
TRUE
1 0 8 72 0 0 0 0

15798

#HDR
-1
-1
#GR
CM-1
EGY
2.38419e-05
0.0
5000
-1.000000
4631
8
2.427363
0.005984
#DATA
5000	0.772905
4996	0.774049
4992	0.775480
4988	0.777697
4984	0.779151
4980	0.779581
4976	0.781631
4972	0.784206
4968	0.786280
4964	0.788807
4960	0.790572
4956	0.792312
4952	0.794148
4948	0.794768
4944	0.795292
4940	0.797009
4936	0.798988
4932	0.801229
4928	0.804901
4924	0.808978
4920	0.810790
4916	0.808882
4912	0.806689
4908	0.807785
4904	0.809478
4900	0.810194
4896	0.811815
4892	0.813770
4888	0.815415
4884	0.818920
4880	0.822687
4876	0.823330
4872	0.824451
4868	0.829100
4864	0.833535
4860	0.835013
4856	0.835418
4852	0.836849
4848	0.839447
4844	0.842905
4840	0.847196
4836	0.850439
4832	0.851392
4828	0.852417
4824	0.854992
4820	0.857734
4816	0.860095
4812	0.862693
4808	0.865459
4804	0.867676
4800	0.869464
4796	0.871300
4792	0.872516
4788	0.874257
4784	0.877690
4780	0.880122
4776	0.880193
4772	0.881576
4768	0.885248
4764	0.888156
4760	0.889825
4756	0.890517
4752	0.891828
4748	0.895047
4744	0.897240
4740	0.898170
4736	0.898432
4732	0.897550
4728	0.897431
4724	0.897526
4720	0.896334
4716	0.896239
4712	0.898361
4708	0.899505
4704	0.898814
4700	0.898051
4696	0.898051
4692	0.899338
4688	0.901985
4684	0.903964
4680	0.904846
4676	0.905156
4672	0.904273
4668	0.903725
4664	0.903224
4660	0.901937
4656	0.901579
4652	0.901746
4648	0.902938
4644	0.905609
4640	0.908493
4636	0.910234
4632	0.912046
4628	0.914144
4624	0.914525
4620	0.913667
4616	0.913953
4612	0.918221
4608	0.925970
4604	0.929832
4600	0.930404
4596	0.929188
4592	0.931262
4588	0.940108
4584	0.949406
4580	0.956535
4576	0.965404
4572	0.989556
4568	1.058816
4564	1.182103
4560	1.206135
4556	1.076292
4552	0.971174
4548	0.931167
4544	0.926184
4540	0.948667
4536	0.962376
4532	0.966668
4528	0.964975
4524	0.964498
4520	0.970840
4516	0.979423
4512	0.986218
4508	0.988221
4504	0.987958
4500	0.988459
4496	0.989007
4492	0.989627
4488	0.992965
4484	0.997042
4480	0.998687
4476	0.999116
4472	1.000332
4468	1.002478
4464	1.003789
4460	1.004195
4456	1.004648
4452	1.004385
4448	1.003336
4444	1.003193
4440	1.003789
4436	1.004004
4432	1.004290
4428	1.004028
4424	1.003980
4420	1.007318
4416	1.012182
4412	1.013398
4408	1.012611
4404	1.014590
4400	1.018285
4396	1.021528
4392	1.024198
4388	1.025342
4384	1.025223
4380	1.026487
4376	1.029515
4372	1.033663
4368	1.038360
4364	1.041793
4360	1.045179
4356	1.050734
4352	1.055026
4348	1.056933
4344	1.061558
4340	1.068949
4336	1.074695
4332	1.078796
4328	1.084709
4324	1.089072
4320	1.090312
4316	1.095700
4312	1.102828
4308	1.106595
4304	1.110076
4300	1.113963
4296	1.118898
4292	1.126432
4288	1.135110
4284	1.142525
4280	1.146245
4276	1.146721
4272	1.149296
4268	1.152968
4264	1.156997
4260	1.168084
4256	1.176619
4252	1.168751
4248	1.159787
4244	1.163911
4240	1.171469
4236	1.175212
4232	1.177453
4228	1.181149
4224	1.186585
4220	1.187777
4216	1.185560
4212	1.189517
4208	1.193261
4204	1.191115
4200	1.192593
4196	1.197338
4192	1.199102
4188	1.198458
4184	1.200580
4180	1.206278
4176	1.209354
4172	1.208209
4168	1.208496
4164	1.212620
4160	1.215124
4156	1.215815
4152	1.217818
4148	1.220250
4144	1.223039
4140	1.226091
4136	1.228785
4132	1.231789
4128	1.234555
4124	1.236724
4120	1.241683
4116	1.247501
4112	1.250505
4108	1.252698
4104	1.255941
4100	1.261258
4096	1.267862
4092	1.273083
4088	1.278281
4084	1.284241
4080	1.288604
4076	1.292991
4072	1.297998
4068	1.301765
4064	1.306438
4060	1.312565
4056	1.317763
4052	1.322531
4048	1.327443
4044	1.332664
4040	1.339459
4036	1.345825
4032	1.349997
4028	1.354074
4024	1.357984
4020	1.361560
4016	1.366734
4012	1.371788
4008	1.376104
4004	1.381087
4000	1.384997
3996	1.386928
3992	1.389908
3988	1.393508
3984	1.396274
3980	1.399564
3976	1.402330
3972	1.403045
3968	1.402640
3964	1.404047
3960	1.407957
3956	1.410651
3952	1.410460
3948	1.410150
3944	1.412415
3940	1.415181
3936	1.416110
3932	1.417827
3928	1.420521
3924	1.421523
3920	1.421022
3916	1.422142
3912	1.424455
3908	1.424360
3904	1.422595
3900	1.424217
3896	1.429128
3892	1.432037
3888	1.432871
3884	1.434826
3880	1.437211
3876	1.437473
3872	1.437592
3868	1.440429
3864	1.444482
3860	1.444697
3856	1.438689
3852	1.441383
3848	1.456499
3844	1.464605
3840	1.463651
3836	1.466608
3832	1.476073
3828	1.484608
3824	1.485252
3820	1.482486
3816	1.487469
3812	1.497578
3808	1.501750
3804	1.500988
3800	1.506280
3796	1.518201
3792	1.527428
3788	1.531934
3784	1.535010
3780	1.537752
3776	1.539897
3772	1.542520
3768	1.547193
3764	1.550912
3760	1.550912
3756	1.546454
3752	1.538825
3748	1.534581
3744	1.538681
3740	1.546263
3736	1.550364
3732	1.555633
3728	1.563024
3724	1.567316
3720	1.569151
3716	1.566886
3712	1.563215
3708	1.565217
3704	1.569247
3700	1.570868
3696	1.569366
3692	1.563811
3688	1.562285
3684	1.567006
3680	1.564717
3676	1.555895
3672	1.554775
3668	1.563286
3664	1.570343
3660	1.569104
3656	1.563549
3652	1.557826
3648	1.558804
3644	1.567769
3640	1.574039
3636	1.572322
3632	1.565313
3628	1.563143
3624	1.567673
3620	1.570391
3616	1.572227
3612	1.574015
3608	1.575922
3604	1.579666
3600	1.582384
3596	1.583552
3592	1.584267
3588	1.584935
3584	1.588058
3580	1.593136
3576	1.596546
3572	1.597404
3568	1.598334
3564	1.602530
3560	1.607561
3556	1.609230
3552	1.610088
3548	1.612830
3544	1.615619
3540	1.615929
3536	1.614212
3532	1.613831
3528	1.615548
3524	1.617169
3520	1.617860
3516	1.617336
3512	1.615428
3508	1.614212
3504	1.614952
3500	1.615118
3496	1.612687
3492	1.610255
3488	1.609301
3484	1.607918
3480	1.605105
3476	1.601886
3472	1.600861
3468	1.600980
3464	1.599454
3460	1.596713
3456	1.593875
3452	1.591229
3448	1.587343
3444	1.582527
3440	1.578831
3436	1.577138
3432	1.576304
3428	1.575779
3424	1.576352
3420	1.577496
3416	1.578164
3412	1.579594
3408	1.582717
3404	1.586246
3400	1.589250
3396	1.591944
3392	1.594424
3388	1.597094
3384	1.599693
3380	1.600694
3376	1.602220
3372	1.606631
3368	1.612496
3364	1.618480
3360	1.624512
3356	1.630926
3352	1.637339
3348	1.642704
3344	1.647663
3340	1.652836
3336	1.657605
3332	1.662087
3328	1.667809
3324	1.675319
3320	1.682829
3316	1.689028
3312	1.694369
3308	1.699662
3304	1.705098
3300	1.710224
3296	1.714801
3292	1.719784
3288	1.725912
3284	1.731634
3280	1.735568
3276	1.739001
3272	1.743245
3268	1.747798
3264	1.751923
3260	1.755380
3256	1.757836
3252	1.759886
3248	1.762962
3244	1.766276
3240	1.769137
3236	1.771402
3232	1.772594
3228	1.773762
3224	1.775670
3220	1.776719
3216	1.776742
3212	1.777291
3208	1.777362
3204	1.776576
3200	1.778459
3196	1.781249
3192	1.781845
3188	1.782250
3184	1.783323
3180	1.785182
3176	1.786351
3172	1.786017
3168	1.786279
3164	1.788520
3160	1.792407
3156	1.796197
3152	1.799178
3148	1.800894
3144	1.801609
3140	1.805686
3136	1.812434
3132	1.816010
3128	1.816463
3124	1.819634
3120	1.827406
3116	1.836061
3112	1.843094
3108	1.848912
3104	1.854419
3100	1.861405
3096	1.869821
3092	1.877212
3088	1.884508
3084	1.892542
3080	1.899623
3076	1.905250
3072	1.910042
3068	1.915264
3064	1.922488
3060	1.930665
3056	1.938128
3052	1.943993
3048	1.949095
3044	1.954603
3040	1.959562
3036	1.962685
3032	1.963734
3028	1.961064
3024	1.953172
3020	1.946020
3016	1.951146
3012	1.969337
3008	1.988625
3004	2.001690
3000	2.009010
2996	2.013492
2992	2.017760
2988	2.018761
2984	2.012920
2980	2.002787
2976	1.989221
2972	1.969027
2968	1.945900
2964	1.927661
2960	1.917338
2956	1.912760
2952	1.908636
2948	1.897573
2944	1.873588
2940	1.839613
2936	1.804494
2932	1.774287
2928	1.755189
2924	1.758456
2920	1.790595
2916	1.839470
2912	1.883506
2908	1.912903
2904	1.931619
2900	1.946759
2896	1.960635
2892	1.972270
2888	1.981329
2884	1.986789
2880	1.987886
2876	1.984381
2872	1.970529
2868	1.939225
2864	1.903009
2860	1.890254
2856	1.909160
2852	1.945829
2848	1.986742
2844	2.022957
2840	2.050447
2836	2.070474
2832	2.086281
2828	2.099037
2824	2.109432
2820	2.119684
2816	2.130293
2812	2.139973
2808	2.148675
2804	2.157545
2800	2.165031
2796	2.170944
2792	2.177715
2788	2.186012
2784	2.194619
2780	2.201867
2776	2.206945
2772	2.211689
2768	2.216792
2764	2.221465
2760	2.226281
2756	2.230930
2752	2.234458
2748	2.236032
2744	2.236199
2740	2.237057
2736	2.237987
2732	2.238702
2728	2.239537
2724	2.239251
2720	2.238035
2716	2.236437
2712	2.233648
2708	2.230191
2704	2.227997
2700	2.227640
2696	2.227711
2692	2.226758
2688	2.225661
2684	2.224302
2680	2.220654
2676	2.216935
2672	2.215361
2668	2.212214
2664	2.206802
2660	2.203106
2656	2.201271
2652	2.199530
2648	2.197933
2644	2.197051
2640	2.196907
2636	2.197813
2632	2.199888
2628	2.201700
2624	2.202177
2620	2.201962
2616	2.201700
2612	2.202391
2608	2.204155
2604	2.205634
2600	2.206254
2596	2.207589
2592	2.210855
2588	2.215242
2584	2.219724
2580	2.225208
2576	2.232074
2572	2.238702
2568	2.244615
2564	2.250432
2560	2.255702
2556	2.260112
2552	2.264714
2548	2.270388
2544	2.275609
2540	2.279877
2536	2.284193
2532	2.288341
2528	2.291393
2524	2.294635
2520	2.299070
2516	2.301454
2512	2.301335
2508	2.301430
2504	2.302813
2500	2.304625
2496	2.305650
2492	2.306604
2488	2.307629
2484	2.307510
2480	2.305722
2476	2.302289
2472	2.299118
2468	2.296972
2464	2.294445
2460	2.290034
2456	2.283668
2452	2.278995
2448	2.276325
2444	2.273011
2440	2.269077
2436	2.265620
2432	2.262973
2428	2.259278
2424	2.252984
2420	2.245998
2416	2.242183
2412	2.241039
2408	2.239131
2404	2.236700
2400	2.234697
2396	2.232432
2392	2.229642
2388	2.227210
2384	2.225112
2380	2.221822
2376	2.217054
2372	2.213191
2368	2.211523
2364	2.211642
2360	2.214360
2356	2.221274
2352	2.231383
2348	2.238821
2344	2.240991
2340	2.241945
2336	2.245140
2332	2.252054
2328	2.261519
2324	2.270269
2320	2.277636
2316	2.285146
2312	2.293515
2308	2.300357
2304	2.304863
2300	2.310633
2296	2.318143
2292	2.324509
2288	2.329230
2284	2.333736
2280	2.337908
2276	2.341699
2272	2.344965
2268	2.347397
2264	2.349948
2260	2.352309
2256	2.353048
2252	2.353692
2248	2.355408
2244	2.355980
2240	2.355670
2236	2.356314
2232	2.355980
2228	2.353763
2224	2.351546
2220	2.349567
2216	2.346611
2212	2.343654
2208	2.340579
2204	2.336382
2200	2.332592
2196	2.329587
2192	2.325963
2188	2.321863
2184	2.318215
2180	2.314829
2176	2.311778
2172	2.310347
2168	2.310943
2164	2.310752
2160	2.308607
2156	2.306771
2152	2.306365
2148	2.306437
2144	2.306437
2140	2.307200
2136	2.308154
2132	2.307963
2128	2.307152
2124	2.307868
2120	2.308440
2116	2.307629
2112	2.308273
2108	2.309679
2104	2.309846
2100	2.309250
2096	2.309083
2092	2.309417
2088	2.310228
2084	2.313232
2080	2.318048
2076	2.322411
2072	2.328658
2068	2.337574
2064	2.346181
2060	2.353858
2056	2.361774
2052	2.370548
2048	2.379202
2044	2.387237
2040	2.394533
2036	2.400875
2032	2.406549
2028	2.410936
2024	2.414035
2020	2.417254
2016	2.420282
2012	2.422094
2008	2.423715
2004	2.425408
2000	2.426910
1996	2.427244
1992	2.425861
1988	2.424526
1984	2.422571
1980	2.419304
1976	2.416539
1972	2.413082
1968	2.408385
1964	2.404665
1960	2.401638
1956	2.398681
1952	2.395772
1948	2.391886
1944	2.387380
1940	2.384281
1936	2.381992
1932	2.378344
1928	2.373600
1924	2.368259
1920	2.362608
1916	2.358245
1912	2.354860
1908	2.351331
1904	2.347731
1900	2.343773
1896	2.340316
1892	2.338957
1888	2.339887
1884	2.341580
1880	2.343463
1876	2.344751
1872	2.343392
1868	2.344274
1864	2.350306
1860	2.355432
1856	2.357625
1852	2.358603
1848	2.357912
1844	2.359890
1840	2.367615
1836	2.373266
1832	2.373337
1828	2.374720
1824	2.380204
1820	2.386832
1816	2.391695
1812	2.394890
1808	2.397418
1804	2.397680
1800	2.396345
1796	2.393579
1792	2.391552
1788	2.394342
1784	2.396965
1780	2.394294
1776	2.385282
1772	2.377724
1768	2.379131
1764	2.380251
1760	2.375721
1756	2.366089
1752	2.352094
1748	2.340292
1744	2.329182
1740	2.311229
1736	2.291560
1732	2.286148
1728	2.292609
1724	2.289319
1720	2.273178
1716	2.264857
1712	2.268099
1708	2.262735
1704	2.242159
1700	2.220678
1696	2.216720
1692	2.223348
1688	2.215814
1684	2.204203
1680	2.204680
1676	2.202129
1672	2.193450
1668	2.187848
1664	2.183365
1660	2.170562
1656	2.144193
1652	2.125048
1648	2.125239
1644	2.128338
1640	2.121400
1636	2.108526
1632	2.101731
1628	2.093815
1624	2.074790
1620	2.044796
1616	2.006316
1612	1.968717
1608	1.946473
1604	1.948738
1600	1.965379
1596	1.980423
1592	1.987075
1588	1.985144
1584	1.977443
1580	1.964855
1576	1.955056
1572	1.952338
1568	1.945996
1564	1.923847
1560	1.897883
1556	1.900124
1552	1.921725
1548	1.928806
1544	1.924991
1540	1.945662
1536	1.999831
1532	2.050757
1528	2.074432
1524	2.078700
1520	2.076649
1516	2.072358
1512	2.059364
1508	2.030849
1504	1.965022
1500	1.825690
1496	1.678586
1492	1.660156
1488	1.763868
1484	1.874494
1480	1.932215
1476	1.946258
1472	1.944351
1468	1.935124
1464	1.907896
1460	1.851558
1456	1.777958
1452	1.736545
1448	1.759648
1444	1.807260
1440	1.831173
1436	1.838207
1432	1.843214
1428	1.843976
1424	1.838159
1420	1.828289
1416	1.817107
1412	1.791071
1408	1.742839
1404	1.703739
1400	1.706528
1396	1.738762
1392	1.764225
1388	1.765727
1384	1.762342
1380	1.772165
1376	1.782941
1372	1.787543
1368	1.789879
1364	1.791119
1360	1.792645
1356	1.793360
1352	1.791286
1348	1.788544
1344	1.788210
1340	1.791906
1336	1.801419
1332	1.813411
1328	1.821064
1324	1.824283
1320	1.826667
1316	1.829004
1312	1.830029
1308	1.830291
1304	1.830363
1300	1.830053
1296	1.830625
1292	1.831626
1288	1.831197
1284	1.828718
1280	1.822328
1276	1.808238
1272	1.781511
1268	1.740813
1264	1.702785
1260	1.699042
1256	1.733183
1252	1.774263
1248	1.800107
1244	1.810407
1240	1.812028
1236	1.810455
1232	1.806569
1228	1.800203
1224	1.791071
1220	1.776838
1216	1.756906
1212	1.738095
1208	1.727008
1204	1.723861
1200	1.724934
1196	1.725220
1192	1.721477
1188	1.713562
1184	1.703190
1180	1.692914
1176	1.681852
1172	1.667881
1168	1.650714
1164	1.631593
1160	1.613092
1156	1.599502
1152	1.592350
1148	1.587390
1144	1.580047
1140	1.569914
1136	1.557421
1132	1.542448
1128	1.524591
1124	1.504015
1120	1.482629
1116	1.462101
1112	1.442742
1108	1.427292
1104	1.418042
1100	1.412749
1096	1.409387
1092	1.409292
1088	1.412773
1084	1.415443
1080	1.413726
1076	1.411914
1072	1.415729
1068	1.421737
1064	1.421451
1060	1.404285
1056	1.354742
1052	1.297092
1048	1.293635
1044	1.337718
1040	1.367950
1036	1.370501
1032	1.363301
1028	1.354408
1024	1.346278
1020	1.343011
1016	1.348257
1012	1.360130
1008	1.371788
1004	1.378798
1000	1.382470
996	 1.383042
992	 1.379179
988	 1.372408
984	 1.365065
980	 1.357364
976	 1.349258
972	 1.339960
968	 1.328158
964	 1.314544
960	 1.300072
956	 1.285839
952	 1.272821
948	 1.261281
944	 1.252126
940	 1.245045
936	 1.238107
932	 1.229453
928	 1.219749
924	 1.210474
920	 1.199889
916	 1.185965
912	 1.169800
908	 1.155972
904	 1.146960
900	 1.141285
896	 1.136374
892	 1.127099
888	 1.107001
884	 1.074957
880	 1.040554
876	 1.021242
872	 1.028013
868	 1.051592
864	 1.071906
860	 1.080584
856	 1.081466
852	 1.077795
848	 1.071143
844	 1.061582
840	 1.045608
836	 1.012969
832	 0.951004
828	 0.874781
824	 0.837326
820	 0.863146
816	 0.908207
812	 0.931167
808	 0.935316
804	 0.933766
800	 0.933432
796	 0.938487
792	 0.949192
788	 0.960683
784	 0.967860
780	 0.969696
776	 0.968360
772	 0.965738
768	 0.962138
764	 0.957512
760	 0.952553
756	 0.947546
752	 0.942921
748	 0.938439
744	 0.932240
740	 0.923871
736	 0.915169
732	 0.906109
728	 0.895142
724	 0.882458
720	 0.870156
716	 0.859594
712	 0.848650
708	 0.835800
704	 0.821495
700	 0.805163
696	 0.783371
692	 0.753474
688	 0.728034
684	 0.722718
680	 0.726699
676	 0.724244
672	 0.715899
668	 0.705742
664	 0.695824
660	 0.687003
656	 0.678133
652	 0.668025
648	 0.657391
644	 0.647163
640	 0.636839
636	 0.626349
632	 0.615763
628	 0.604653
624	 0.593972
620	 0.583362
616	 0.569534
612	 0.550603
608	 0.530982
604	 0.520730
600	 0.520324
596	 0.518703
592	 0.512146
588	 0.505280
584	 0.500059
580	 0.496339
576	 0.493931
572	 0.490570
568	 0.485181
564	 0.479507
560	 0.474333
556	 0.468206
552	 0.461363
548	 0.454354
544	 0.446677
540	 0.439190
536	 0.431895
532	 0.423288
528	 0.413274
524	 0.403571
520	 0.394916
516	 0.385689
512	 0.376605
508	 0.367903
504	 0.356554
500	 0.343155
496	 0.329446
492	 0.314736
488	 0.300240
484	 0.286865
480	 0.273466
476	 0.260353
472	 0.248122
468	 0.235652
464	 0.222396
460	 0.208640
456	 0.193715
452	 0.179338
448	 0.167798
444	 0.157737
440	 0.147366
436	 0.135850
432	 0.123167
428	 0.109958
424	 0.098276
420	 0.087451
416	 0.074839
412	 0.061178
408	 0.049662
404	 0.042486
400	 0.038051
396	 0.033330
392	 0.026559
388	 0.019717
384	 0.015544
380	 0.012516
376	 0.009131
372	 0.006580
370	 0.005984