File: Bakgrunnsmateriale/MATLAB/FTIR/ftir_data/LPE454/Mapping_121/LPE454_t115_cm-1.asc
PE IR       SPECTRUM    SPECTRUM    ASCII       PEDS        1.60
  -1
LP0858~1.ASC
17/05/19
23:51:31.00
17/05/19
23:51:31.00
tln
$LPE454_t0115$<tbV0>[2.6,13.0,8.0,0.0,27,1,0]
370
64

2002,4.07
MIRTGS : RIGHTBACK : INTERNAL 2
MIR : ON : INTERNAL 2
OPTKBR

0.200000
8
8.000000
FILLER
RATIO
SPECTRUM
UNLOCKED 256

DOUBLE
64
COMBINED
1
0
0

1.000000
RATIO

1
0
TRUE
51149
0
LEFT NOT FITTED RIGHT NOT FITTED 0
NONE
NONE
15600
12
4.427000
51148
TRUE
1 0 8 72 0 0 0 0

15798

#HDR
-1
-1
#GR
CM-1
%T
2.38419e-05
0.0
5000
-1.000000
4631
8
36.59
-12.6168
#DATA
5000	-0.156950
4996	0.104379
4992	0.210833
4988	0.216341
4984	0.263619
4980	0.124621
4976	-0.040173
4972	-0.069069
4968	-0.139784
4964	-0.163054
4960	0.052332
4956	0.358009
4952	0.356531
4948	0.009775
4944	-0.323891
4940	-0.405216
4936	-0.264310
4932	-0.023293
4928	0.175976
4924	0.222826
4920	0.207662
4916	0.315761
4912	0.515556
4908	0.633215
4904	0.711011
4900	0.764918
4896	0.637912
4892	0.355076
4888	0.035333
4884	-0.103235
4880	-0.007915
4876	-0.006246
4872	-0.038838
4868	0.006008
4864	-0.057721
4860	-0.062179
4856	0.167036
4852	0.393629
4848	0.384545
4844	0.315427
4840	0.311446
4836	0.298118
4832	0.302147
4828	0.314426
4824	0.375437
4820	0.520467
4816	0.652265
4812	0.638270
4808	0.489568
4804	0.395679
4800	0.366377
4796	0.294709
4792	0.167250
4788	0.033354
4784	0.051093
4780	0.116086
4776	0.059390
4772	0.022816
4768	0.032067
4764	0.138783
4760	0.360560
4756	0.496673
4752	0.464534
4748	0.361132
4744	0.247550
4740	0.081014
4736	0.059914
4732	0.233769
4728	0.311589
4724	0.238418
4720	0.131034
4716	0.079703
4712	0.201797
4708	0.380587
4704	0.330352
4700	0.135540
4696	0.166797
4692	0.339245
4688	0.314950
4684	0.210022
4680	0.090980
4676	-0.105690
4672	-0.200104
4668	-0.246715
4664	-0.014352
4660	0.585603
4656	0.907230
4652	0.649690
4648	0.245523
4644	0.039148
4640	-0.061917
4636	-0.038552
4632	0.314378
4628	0.477576
4624	0.431466
4620	0.526499
4616	0.103139
4612	-0.553703
4608	-0.369191
4604	0.195717
4600	0.350809
4596	0.685381
4592	1.833438
4588	8.455729
4584	8.414816
4580	0.125932
4576	1.787567
4572	6.074547
4568	2.939534
4564	-0.061321
4560	-0.056552
4556	-0.042510
4552	-0.089406
4548	0.115323
4544	-0.022482
4540	-0.195336
4536	0.200438
4532	0.733804
4528	0.806689
4524	0.412321
4520	0.077056
4516	0.009298
4512	-0.054526
4508	-0.100088
4504	-0.040984
4500	-0.077223
4496	-0.039720
4492	0.266265
4488	0.481462
4484	0.583004
4480	0.640749
4476	0.506997
4472	0.312995
4468	0.081324
4464	0.007653
4460	0.331997
4456	0.427079
4452	0.149941
4448	0.147247
4444	0.341343
4440	0.271487
4436	0.219202
4432	0.468230
4428	0.567555
4424	0.348281
4420	0.308990
4416	0.434088
4412	0.406575
4408	0.233149
4404	0.029706
4400	-0.003242
4396	0.072026
4392	0.123810
4388	0.201106
4384	0.229835
4380	0.194668
4376	0.182342
4372	0.169944
4368	0.073313
4364	-0.099802
4360	-0.209236
4356	-0.097990
4352	0.110030
4348	0.168824
4344	0.157570
4340	0.225019
4336	0.231504
4332	0.071239
4328	-0.104379
4324	-0.098013
4320	0.023126
4316	0.102996
4312	0.170922
4308	0.206804
4304	0.194239
4300	0.119400
4296	-0.021529
4292	-0.151062
4288	-0.191330
4284	-0.184130
4280	-0.158762
4276	-0.002670
4272	0.128197
4268	0.084805
4264	-0.086998
4260	-0.184416
4256	-0.023818
4252	0.196456
4248	0.273823
4244	0.189352
4240	0.079989
4236	0.024604
4232	-0.008678
4228	-0.026917
4224	-0.082087
4220	-0.055408
4216	0.070166
4212	0.155377
4208	0.273323
4204	0.389099
4200	0.430011
4196	0.376105
4192	0.265145
4188	0.217771
4184	0.121426
4180	-0.131225
4176	-0.206446
4172	-0.035214
4168	-0.053882
4164	-0.241017
4160	-0.218939
4156	-0.055170
4152	0.011062
4148	-0.035786
4144	-0.096821
4140	-0.159025
4136	-0.176405
4132	-0.311064
4128	-0.442671
4124	-0.059318
4120	0.666594
4116	0.902342
4112	0.583767
4108	0.572013
4104	0.788545
4100	0.727653
4096	0.378417
4092	-0.193691
4088	0.027298
4084	0.953364
4080	0.789880
4076	0.013875
4072	0.112128
4068	0.537276
4064	0.376105
4060	-0.110745
4056	-0.411295
4052	-0.282716
4048	0.091862
4044	0.266313
4040	0.257754
4036	0.146460
4032	-0.092053
4028	-0.305962
4024	-0.330233
4020	-0.151920
4016	0.012254
4012	-0.042343
4008	-0.114321
4004	0.085902
4000	0.225567
3996	0.119161
3992	0.109314
3988	0.162696
3984	0.021433
3980	-0.157141
3976	-0.116610
3972	0.048136
3968	0.057673
3964	0.004386
3960	0.014519
3956	-0.008416
3952	0.027418
3948	0.117206
3944	0.083971
3940	0.014352
3936	0.016689
3932	0.013709
3928	0.013256
3924	0.055146
3920	0.050377
3916	-0.030136
3912	-0.064325
3908	-0.009751
3904	0.040793
3900	0.066995
3896	0.090575
3892	0.115871
3888	0.108408
3884	0.067687
3880	0.043821
3876	0.011038
3872	-0.010395
3868	0.025129
3864	0.085186
3860	0.037789
3856	-0.069594
3852	-0.126791
3848	-0.067615
3844	0.086545
3840	0.108480
3836	0.001192
3832	-0.077581
3828	-0.024890
3824	0.157165
3820	0.281238
3816	0.262498
3812	0.152277
3808	0.082254
3804	0.043320
3800	-0.083565
3796	-0.177264
3792	-0.111937
3788	-0.034737
3784	-0.061607
3780	-0.027513
3776	0.070381
3772	0.068140
3768	0.060367
3764	0.143241
3760	0.193524
3756	0.173234
3752	0.144815
3748	0.083971
3744	-0.002717
3740	-0.028872
3736	-0.026011
3732	-0.048136
3728	-0.064253
3724	-0.055193
3720	-0.017166
3716	0.057482
3712	0.089621
3708	0.027561
3704	0.041770
3700	0.135803
3696	0.114011
3692	0.020503
3688	-0.003910
3684	0.045228
3680	0.071024
3676	0.023436
3672	0.002837
3668	0.106382
3664	0.235104
3660	0.283479
3656	0.264072
3652	0.161337
3648	-0.008177
3644	-0.043320
3640	0.099229
3636	0.152969
3632	0.017523
3628	-0.121855
3624	-0.083112
3620	0.026822
3616	0.037455
3612	0.069379
3608	0.101304
3604	0.058007
3600	0.071120
3596	0.058770
3592	-0.019931
3588	-0.011372
3584	0.053310
3580	0.066995
3576	0.061178
3572	0.085163
3568	0.088357
3564	0.124287
3560	0.170660
3556	0.078988
3552	-0.034427
3548	0.005173
3544	0.085616
3540	0.057387
3536	-0.054812
3532	-0.122141
3528	-0.052213
3524	0.054144
3520	0.129270
3516	0.099873
3512	-0.056505
3508	-0.091862
3504	0.017118
3500	0.027537
3496	-0.063705
3492	-0.137591
3488	-0.113701
3484	-0.008583
3480	0.073075
3476	0.116848
3472	0.150012
3468	0.180482
3464	0.189304
3460	0.177025
3456	0.156474
3452	0.160074
3448	0.177979
3444	0.151586
3440	0.109934
3436	0.072097
3432	0.056815
3428	0.083684
3424	0.102806
3420	0.112056
3416	0.117063
3412	0.092482
3408	0.026321
3404	-0.011324
3400	0.045490
3396	0.037264
3392	-0.027942
3388	-0.014567
3384	-0.009250
3380	-0.007724
3376	0.021433
3372	-0.008702
3368	-0.061678
3364	-0.014972
3360	0.064563
3356	0.051927
3352	-0.023674
3348	-0.066280
3344	-0.010395
3340	0.043129
3336	-0.010037
3332	-0.082683
3328	-0.085449
3324	-0.086450
3320	-0.115180
3316	-0.053215
3312	0.074768
3308	0.071191
3304	-0.028944
3300	-0.021386
3296	0.014400
3292	-0.054216
3288	-0.090217
3284	0.012087
3280	0.111913
3276	0.082826
3272	0.043773
3268	0.054097
3264	0.042343
3260	0.019621
3256	0.034284
3252	0.036549
3248	0.028777
3244	0.092220
3240	0.165820
3236	0.147771
3232	0.082421
3228	0.013494
3224	-0.069570
3220	-0.110816
3216	-0.063657
3212	0.008416
3208	0.062727
3204	0.063419
3200	0.005769
3196	-0.000596
3192	0.035119
3188	0.060534
3184	0.086402
3180	0.119328
3176	0.117349
3172	0.072312
3168	0.072407
3164	0.072860
3160	0.059723
3156	0.050806
3152	-0.011777
3148	0.004506
3144	0.144290
3140	0.215029
3136	0.162887
3132	0.108432
3128	0.070476
3124	0.006389
3120	-0.020575
3116	-0.020790
3112	-0.044465
3108	-0.050044
3104	0.008797
3100	0.098371
3096	0.096869
3092	0.018882
3088	0.009846
3084	0.078034
3080	0.122070
3076	0.083827
3072	-0.003600
3068	-0.028800
3064	0.020408
3060	0.031900
3056	-0.024962
3052	-0.079989
3048	-0.062227
3044	0.042557
3040	0.121641
3036	0.113463
3032	0.097441
3028	0.074362
3024	0.049948
3020	0.061941
3016	0.037479
3012	-0.052285
3008	-0.067877
3004	0.053048
3000	0.127315
2996	0.068306
2992	0.016355
2988	0.001192
2984	0.026488
2980	0.094389
2976	0.082921
2972	0.019788
2968	0.047826
2964	0.124907
2960	0.119090
2956	0.073051
2952	0.052714
2948	0.031471
2944	0.016856
2940	0.010585
2936	0.011277
2932	0.020265
2928	0.030398
2924	0.020718
2920	-0.004172
2916	0.000929
2912	-0.010466
2908	-0.019192
2904	0.077772
2900	0.142717
2896	0.086975
2892	0.060462
2888	0.067543
2884	0.057148
2880	0.092244
2876	0.149750
2872	0.125002
2868	0.055718
2864	0.065112
2860	0.107169
2856	0.060415
2852	-0.004124
2848	0.015926
2844	0.049471
2840	0.044226
2836	0.020813
2832	0.006985
2828	0.025248
2824	0.021004
2820	-0.029921
2816	-0.039696
2812	0.050449
2808	0.121140
2804	0.100517
2800	0.096082
2796	0.119686
2792	0.115323
2788	0.116348
2784	0.100183
2780	0.045299
2776	0.014352
2772	-0.006961
2768	-0.027799
2764	-0.047779
2760	-0.078558
2756	-0.058150
2752	-0.006365
2748	0.009799
2744	0.041079
2740	0.094223
2736	0.111269
2732	0.085854
2728	0.052380
2724	0.039148
2720	0.064277
2716	0.078058
2712	0.017976
2708	-0.042557
2704	-0.043106
2700	-0.007581
2696	0.053644
2692	0.110816
2688	0.139570
2684	0.104451
2680	0.046753
2676	0.037288
2672	0.032210
2668	0.020837
2664	0.013017
2660	-0.000905
2656	0.006246
2652	0.042891
2648	0.062155
2644	0.021266
2640	-0.031185
2636	-0.034141
2632	-0.027036
2628	-0.006008
2624	0.052094
2620	0.064587
2616	0.048255
2612	0.044250
2608	0.005793
2604	-0.014138
2600	0.039982
2596	0.080466
2592	0.075674
2588	0.078082
2584	0.091195
2580	0.109863
2576	0.126457
2572	0.071239
2568	-0.011849
2564	-0.046873
2560	0.009489
2556	0.135040
2552	0.160884
2548	0.081777
2544	0.058245
2540	0.098180
2536	0.096774
2532	0.011491
2528	-0.051736
2524	-0.031542
2520	0.011563
2516	0.044608
2512	0.025844
2508	0.004696
2504	0.045275
2500	0.052428
2496	0.035190
2492	0.067019
2488	0.113081
2484	0.114369
2480	0.059890
2476	0.008988
2472	-0.019311
2468	-0.025272
2464	0.015115
2460	0.042772
2456	0.033879
2452	0.050425
2448	0.083804
2444	0.082421
2440	0.062680
2436	0.096511
2432	0.140738
2428	0.136971
2424	0.134587
2420	0.161600
2416	0.195622
2412	0.172090
2408	0.132584
2404	0.153875
2400	0.190973
2396	0.225043
2392	0.263905
2388	0.271511
2384	0.228333
2380	0.224089
2376	0.296044
2372	0.330662
2368	0.328183
2364	0.352716
2360	0.373935
2356	0.422596
2352	0.499606
2348	0.518894
2344	0.537967
2340	0.633502
2336	0.765180
2332	0.838279
2328	0.828337
2324	0.836372
2320	0.880026
2316	0.925827
2312	0.964689
2308	1.031970
2304	1.191425
2300	1.327013
2296	1.370096
2292	1.470446
2288	1.655268
2284	1.819014
2280	1.963281
2276	2.105593
2272	2.253532
2268	2.440190
2264	2.636146
2260	2.820658
2256	3.023171
2252	3.256297
2248	3.496289
2244	3.750681
2240	4.027223
2236	4.290556
2232	4.561519
2228	4.852628
2224	5.151271
2220	5.472469
2216	5.802178
2212	6.160116
2208	6.533336
2204	6.846404
2200	7.171010
2196	7.568454
2192	7.984495
2188	8.437800
2184	8.902072
2180	9.304189
2176	9.699892
2172	10.1535
2168	10.6067
2164	11.0486
2160	11.5671
2156	12.1186
2152	12.6183
2148	13.1026
2144	13.5842
2140	14.0748
2136	14.6161
2132	15.1244
2128	15.5662
2124	16.0452
2120	16.5473
2116	17.0408
2112	17.5404
2108	18.026
2104	18.5094
2100	18.9766
2096	19.4063
2092	19.8614
2088	20.3914
2084	20.9035
2080	21.3277
2076	21.7149
2072	22.0796
2068	22.4241
2064	22.8243
2060	23.3193
2056	23.8405
2052	24.2744
2048	24.604
2044	24.9491
2040	25.3388
2036	25.6916
2032	26.0201
2028	26.358
2024	26.7109
2020	27.0904
2016	27.4247
2012	27.6621
2008	27.9016
2004	28.2102
2000	28.5034
1996	28.744
1992	29.0045
1988	29.3132
1984	29.6157
1980	29.8612
1976	30.0967
1972	30.3661
1968	30.6014
1964	30.7793
1960	30.9405
1956	31.107
1952	31.3107
1948	31.5179
1944	31.6665
1940	31.8151
1936	32.0246
1932	32.2487
1928	32.445
1924	32.6373
1920	32.8082
1916	32.9406
1912	33.0933
1908	33.26
1904	33.4182
1900	33.5279
1896	33.5726
1892	33.6438
1888	33.7396
1884	33.8143
1880	33.8895
1876	34.0155
1872	34.1945
1868	34.3475
1864	34.4503
1860	34.5693
1856	34.7116
1852	34.831
1848	34.9596
1844	35.0788
1840	35.1096
1836	35.0768
1832	35.0327
1828	35.0078
1824	35.0431
1820	35.1273
1816	35.2123
1812	35.298
1808	35.3776
1804	35.438
1800	35.514
1796	35.6534
1792	35.8426
1788	35.9615
1784	35.9319
1780	35.8567
1776	35.8447
1772	35.8538
1768	35.8229
1764	35.795
1760	35.8278
1756	35.8802
1752	35.9193
1748	35.9501
1744	35.9599
1740	36.0337
1736	36.1732
1732	36.2424
1728	36.2555
1724	36.2498
1720	36.2217
1716	36.2065
1712	36.2057
1708	36.1696
1704	36.1071
1700	36.0634
1696	36.0088
1692	35.9813
1688	36.0383
1684	36.1673
1680	36.3113
1676	36.3886
1672	36.4149
1668	36.4501
1664	36.5203
1660	36.545
1656	36.4933
1652	36.4591
1648	36.4289
1644	36.3802
1640	36.3322
1636	36.2782
1632	36.1978
1628	36.1112
1624	36.1372
1620	36.2826
1616	36.3995
1612	36.4218
1608	36.3906
1604	36.4078
1600	36.5188
1596	36.59
1592	36.5522
1588	36.4651
1584	36.3938
1580	36.3413
1576	36.2537
1572	36.1862
1568	36.1875
1564	36.2012
1560	36.1874
1556	36.1336
1552	36.1072
1548	36.2046
1544	36.3871
1540	36.5065
1536	36.547
1532	36.5677
1528	36.535
1524	36.4466
1520	36.3564
1516	36.2812
1512	36.2076
1508	36.1573
1504	36.141
1500	36.1135
1496	36.1011
1492	36.2104
1488	36.3605
1484	36.406
1480	36.4171
1476	36.4611
1472	36.4812
1468	36.4534
1464	36.3985
1460	36.3394
1456	36.2733
1452	36.1814
1448	36.1164
1444	36.0746
1440	35.9884
1436	35.9078
1432	35.9123
1428	36.028
1424	36.1668
1420	36.208
1416	36.2565
1412	36.3324
1408	36.2941
1404	36.2272
1400	36.2351
1396	36.2385
1392	36.1877
1388	36.1019
1384	36.0141
1380	35.9372
1376	35.8849
1372	35.8981
1368	35.9416
1364	35.9498
1360	35.9276
1356	35.9242
1352	35.9939
1348	36.1406
1344	36.3095
1340	36.3583
1336	36.2416
1332	36.0912
1328	35.9882
1324	35.9098
1320	35.8204
1316	35.7227
1312	35.6136
1308	35.5653
1304	35.6471
1300	35.7373
1296	35.7673
1292	35.8251
1288	35.9242
1284	36.0259
1280	36.0994
1276	36.0831
1272	36.0194
1268	36.0066
1264	35.988
1260	35.8895
1256	35.781
1252	35.6766
1248	35.549
1244	35.4707
1240	35.4735
1236	35.4962
1232	35.5007
1228	35.5789
1224	35.774
1220	35.9054
1216	35.9127
1212	35.9161
1208	35.9345
1204	35.9126
1200	35.8264
1196	35.7049
1192	35.5788
1188	35.4755
1184	35.4174
1180	35.3763
1176	35.3266
1172	35.2753
1168	35.2336
1164	35.2796
1160	35.4174
1156	35.4721
1152	35.4534
1148	35.5495
1144	35.6902
1140	35.7022
1136	35.5998
1132	35.441
1128	35.2986
1124	35.2209
1120	35.1438
1116	35.0349
1112	34.9329
1108	34.8987
1104	34.9806
1100	35.074
1096	35.0756
1092	35.1612
1088	35.411
1084	35.594
1080	35.5861
1076	35.4868
1072	35.3789
1068	35.2645
1064	35.111
1060	34.9382
1056	34.7609
1052	34.5376
1048	34.4996
1044	34.6782
1040	34.7142
1036	34.6898
1032	34.7714
1028	34.892
1024	35.0637
1020	35.1919
1016	35.1448
1012	35.049
1008	35.0157
1004	34.9424
1000	34.7335
996	 34.4798
992	 34.3588
988	 34.3589
984	 34.4505
980	 34.4731
976	 34.2734
972	 34.209
968	 34.3651
964	 34.5196
960	 34.6373
956	 34.7365
952	 34.8402
948	 34.8496
944	 34.755
940	 34.6023
936	 34.4153
932	 34.285
928	 34.1861
924	 34.0799
920	 34.0204
916	 33.964
912	 33.8469
908	 33.8529
904	 33.9599
900	 34.0107
896	 34.1087
892	 34.2083
888	 34.2709
884	 34.3406
880	 34.3316
876	 34.1836
872	 33.9082
868	 33.7144
864	 33.7064
860	 33.742
856	 33.7181
852	 33.5607
848	 33.3238
844	 33.1759
840	 33.1731
836	 33.2694
832	 33.4488
828	 33.6839
824	 33.7794
820	 33.7633
816	 33.8153
812	 33.7891
808	 33.6395
804	 33.4703
800	 33.2368
796	 32.9559
792	 32.7224
788	 32.5376
784	 32.4757
780	 32.5495
776	 32.5621
772	 32.5536
768	 32.6579
764	 32.6751
760	 32.5794
756	 32.5755
752	 32.7504
748	 32.9911
744	 32.9006
740	 32.593
736	 32.3925
732	 32.1283
728	 31.8598
724	 31.7251
720	 31.6228
716	 31.5531
712	 31.5981
708	 31.6745
704	 31.6939
700	 31.655
696	 31.6305
692	 31.8852
688	 32.2626
684	 32.3994
680	 32.3344
676	 32.172
672	 32.0799
668	 32.0404
664	 31.8315
660	 31.3648
656	 30.8032
652	 30.5324
648	 30.6405
644	 30.8293
640	 30.85
636	 30.7673
632	 30.7837
628	 30.9129
624	 31.0855
620	 31.1409
616	 30.9076
612	 30.6214
608	 30.4108
604	 30.2069
600	 30.1993
596	 30.1704
592	 29.8802
588	 29.6115
584	 29.4504
580	 29.3386
576	 29.4189
572	 29.6925
568	 29.935
564	 29.9624
560	 29.8282
556	 29.8689
552	 30.247
548	 30.2453
544	 29.5047
540	 28.8425
536	 28.4815
532	 27.8183
528	 27.0407
524	 26.9522
520	 27.5375
516	 28.1012
512	 28.4932
508	 28.5237
504	 28.034
500	 27.987
496	 28.2111
492	 27.6357
488	 27.4109
484	 27.8231
480	 26.9569
476	 25.712
472	 26.1909
468	 26.8828
464	 25.2373
460	 22.6712
456	 22.6907
452	 24.4382
448	 25.2006
444	 25.2029
440	 25.1001
436	 25.0264
432	 24.633
428	 24.6196
424	 25.9459
420	 26.9041
416	 27.783
412	 28.1403
408	 24.1956
404	 18.7751
400	 18.4624
396	 23.0085
392	 25.2529
388	 24.9008
384	 27.9444
380	 26.8413
376	 13.7219
372	 0.436925
370	 -12.6168