File: Bakgrunnsmateriale/MATLAB/FTIR/ftir_data/LPE454/Mapping_121/LPE454_t116.asc
PE IR       SPECTRUM    SPECTRUM    ASCII       PEDS        1.60
  -1
LP9B0E~1.ASC
17/05/20
00:10:35.00
17/05/20
00:11:02.00
tln
$LPE454_t0116$<tbV0>[0.0,13.0,8.0,0.0,27,1,0]
27.028
64

2002,4.07
MIRTGS : RIGHTBACK : INTERNAL 2
MIR : ON : INTERNAL 2
OPTKBR

0.200000
8
8.000000
FILLER
RATIO
SPECTRUM
UNLOCKED 256

DOUBLE
64
COMBINED
1
0
0

0.002000
RATIO

1
0
TRUE
51149
0
LEFT NOT FITTED RIGHT NOT FITTED 0
NONE
NONE
15600
12
4.427000
51148
TRUE
1 0 8 72 0 0 0 0

15798

#HDR
-1
-1
#GR
µM
%T
2.38419e-05
0.0
2.000000
0.002000
12515
8
45.6675
-21.7255
#DATA
2.000000	 0.403785
2.018000	 0.217985
2.036000	 0.205386
2.054000	 0.190920
2.072000	 -0.028866
2.090000	 0.128055
2.108000	 0.313327
2.126000	 0.157224
2.144000	 -0.395431
2.162000	 -0.150774
2.180000	 18.097
2.198000	 0.439942
2.216000	 0.430680
2.234000	 0.431908
2.252000	 0.046535
2.270000	 0.100950
2.288000	 0.097251
2.306000	 -0.076090
2.324000	 0.264385
2.342000	 -0.075649
2.360000	 0.161064
2.378000	 0.109129
2.396000	 -0.028041
2.414000	 0.282647
2.432000	 -0.497674
2.450000	 1.262522
2.468000	 0.124553
2.486000	 0.268175
2.504000	 -0.001140
2.522000	 0.133143
2.540000	 0.145176
2.558000	 0.115504
2.576000	 0.004731
2.594000	 0.142077
2.612000	 0.068156
2.630000	 0.001049
2.648000	 0.097443
2.666000	 -0.170212
2.684000	 -0.098140
2.702000	 0.001717
2.720000	 0.024013
2.738000	 0.103506
2.756000	 0.024635
2.774000	 -0.020647
2.792000	 0.030796
2.810000	 0.093194
2.828000	 0.152938
2.846000	 0.041611
2.864000	 0.129175
2.882000	 0.173534
2.900000	 0.123397
2.918000	 0.200938
2.936000	 0.031438
2.954000	 -0.000782
2.972000	 -0.009347
2.990000	 0.001237
3.008000	 0.102742
3.026000	 -0.015582
3.044000	 -0.002915
3.062000	 0.113881
3.080000	 0.042509
3.098000	 0.042519
3.116000	 -0.026075
3.134000	 0.186943
3.152000	 -0.003627
3.170000	 -0.046306
3.188000	 0.120376
3.206000	 -0.022914
3.224000	 0.040876
3.242000	 0.031964
3.260000	 -0.139131
3.278000	 0.098015
3.296000	 0.020758
3.314000	 -0.058072
3.332000	 0.098061
3.350000	 0.059063
3.368000	 0.074785
3.386000	 0.007847
3.404000	 0.154651
3.422000	 0.169574
3.440000	 -0.032615
3.458000	 0.057719
3.476000	 0.064252
3.494000	 0.004946
3.512000	 0.083816
3.530000	 -0.016478
3.548000	 0.130075
3.566000	 0.039419
3.584000	 0.056015
3.602000	 -0.041180
3.620000	 0.074002
3.638000	 -0.017633
3.656000	 0.132402
3.674000	 0.031560
3.692000	 0.062017
3.710000	 0.004676
3.728000	 0.085536
3.746000	 0.051033
3.764000	 -0.038729
3.782000	 0.031553
3.800000	 0.054430
3.818000	 -0.047272
3.836000	 -0.010670
3.854000	 0.072777
3.872000	 0.055043
3.890000	 0.078616
3.908000	 -0.023745
3.926000	 0.005783
3.944000	 0.054693
3.962000	 0.047657
3.980000	 0.093582
3.998000	 0.036480
4.016000	 0.011273
4.034000	 0.024739
4.052000	 0.003934
4.070000	 -0.001507
4.088000	 -0.003869
4.106000	 0.026162
4.124000	 0.122659
4.141999	 -0.106540
4.160000	 0.121916
4.178000	 0.065197
4.196000	 0.032790
4.214000	 0.192028
4.232000	 0.202801
4.250000	 0.271673
4.268000	 0.396497
4.286000	 0.518483
4.304000	 0.620626
4.322000	 0.825501
4.340000	 0.926657
4.358000	 1.142460
4.375999	 1.492103
4.394000	 1.706880
4.412000	 1.997040
4.430000	 2.412277
4.448000	 2.866539
4.466000	 3.231214
4.484000	 3.806285
4.502000	 4.406528
4.520000	 5.174745
4.538000	 5.798926
4.556000	 6.619315
4.574000	 7.386546
4.592000	 8.144466
4.609999	 8.967352
4.628000	 9.905856
4.646000	 10.9693
4.664000	 11.8422
4.682000	 12.6561
4.700000	 13.5663
4.718000	 14.4232
4.736000	 15.2308
4.754000	 16.1305
4.772000	 17.0205
4.790000	 17.8429
4.808000	 18.6585
4.826000	 19.3618
4.843999	 20.0363
4.862000	 20.8628
4.880000	 21.5273
4.898000	 22.0536
4.916000	 22.7534
4.934000	 23.232
4.952000	 23.7748
4.970000	 24.3371
4.988000	 24.7596
5.006000	 25.237
5.024000	 25.6356
5.042000	 26.073
5.060000	 26.4725
5.077999	 26.9054
5.096000	 27.2765
5.114000	 27.5542
5.132000	 27.8708
5.150000	 28.0622
5.168000	 28.2905
5.186000	 28.6279
5.204000	 28.9649
5.222000	 29.1872
5.240000	 29.5116
5.258000	 29.7266
5.276000	 29.9154
5.294000	 29.9988
5.312000	 30.071
5.330000	 30.2196
5.348000	 30.4164
5.366000	 30.6036
5.384000	 30.8538
5.402000	 31.1099
5.420000	 31.2778
5.438000	 31.3657
5.456000	 31.3981
5.474000	 31.4528
5.492000	 31.5575
5.510000	 31.7045
5.528000	 31.7689
5.546000	 31.9527
5.564000	 32.148
5.582000	 32.2145
5.600000	 32.2906
5.618000	 32.4003
5.636000	 32.508
5.654000	 32.5147
5.672000	 32.4357
5.690000	 32.4273
5.708000	 32.5013
5.726000	 32.6118
5.744000	 32.8046
5.762000	 32.9516
5.780000	 33.0392
5.798000	 33.1238
5.816000	 33.1951
5.834000	 33.1991
5.852000	 33.1085
5.870000	 33.0836
5.888000	 33.1121
5.906000	 33.0688
5.923999	 33.1341
5.942000	 33.3302
5.960000	 33.4635
5.978000	 33.5266
5.996000	 33.5926
6.014000	 33.7014
6.032000	 33.7021
6.050000	 33.6958
6.068000	 33.733
6.086000	 33.6357
6.104000	 33.6322
6.122000	 33.662
6.140000	 33.6579
6.158000	 33.7525
6.176000	 33.831
6.194000	 33.8978
6.212000	 34.1049
6.230000	 34.1497
6.248000	 34.0587
6.266000	 34.0662
6.284000	 34.1025
6.302000	 34.1032
6.320000	 34.0676
6.338000	 34.084
6.356000	 34.1254
6.374000	 34.0749
6.392000	 34.052
6.410000	 34.1057
6.428000	 34.1509
6.446000	 34.244
6.464000	 34.3826
6.482000	 34.4476
6.500000	 34.413
6.518000	 34.4192
6.536000	 34.4472
6.554000	 34.3731
6.572000	 34.2809
6.590000	 34.2711
6.608000	 34.3089
6.626000	 34.3235
6.644000	 34.2849
6.662000	 34.2766
6.680000	 34.3601
6.698000	 34.5394
6.716000	 34.7233
6.734000	 34.7432
6.752000	 34.6471
6.770000	 34.6086
6.788000	 34.6694
6.806000	 34.7362
6.824000	 34.7051
6.842000	 34.6016
6.860000	 34.512
6.878000	 34.4526
6.896000	 34.4109
6.914000	 34.3874
6.932000	 34.405
6.950000	 34.4406
6.968000	 34.4501
6.986000	 34.4983
7.004000	 34.6279
7.022000	 34.7397
7.040000	 34.7757
7.058000	 34.7846
7.076000	 34.7885
7.094000	 34.7507
7.112000	 34.6743
7.130000	 34.6315
7.148000	 34.6273
7.166000	 34.5909
7.184000	 34.5244
7.202000	 34.4845
7.220000	 34.4729
7.238000	 34.4503
7.256000	 34.4303
7.274000	 34.457
7.292000	 34.5227
7.310000	 34.5986
7.328000	 34.6765
7.346000	 34.7627
7.364000	 34.8562
7.382000	 34.9088
7.400000	 34.8881
7.418000	 34.8439
7.436000	 34.7975
7.454000	 34.7124
7.472000	 34.6046
7.490000	 34.5271
7.508000	 34.4952
7.526000	 34.4849
7.544000	 34.4593
7.562000	 34.4422
7.580000	 34.5006
7.598000	 34.6054
7.616000	 34.6538
7.634000	 34.6211
7.652000	 34.5728
7.670000	 34.5803
7.688000	 34.6708
7.706000	 34.8008
7.724000	 34.8956
7.742000	 34.924
7.760000	 34.9035
7.778000	 34.856
7.796000	 34.7901
7.814000	 34.7023
7.832000	 34.5975
7.850000	 34.5044
7.868000	 34.4437
7.886000	 34.3964
7.904000	 34.3373
7.922000	 34.2819
7.940000	 34.2668
7.958000	 34.3039
7.976000	 34.3667
7.994000	 34.4227
8.012000	 34.4668
8.030000	 34.5154
8.048000	 34.5754
8.065999	 34.6317
8.084000	 34.665
8.102000	 34.6754
8.120000	 34.6814
8.138000	 34.6941
8.155999	 34.6967
8.173999	 34.665
8.192000	 34.5961
8.210000	 34.508
8.228000	 34.4273
8.246000	 34.3714
8.263999	 34.3307
8.282000	 34.2805
8.300000	 34.2207
8.318000	 34.176
8.336000	 34.1554
8.353999	 34.1445
8.372000	 34.143
8.390000	 34.1712
8.408000	 34.2368
8.426000	 34.3171
8.443999	 34.3775
8.462000	 34.4031
8.480000	 34.4064
8.498000	 34.4099
8.516000	 34.4274
8.533999	 34.4613
8.552000	 34.5084
8.570000	 34.5569
8.588000	 34.5864
8.606000	 34.5837
8.624000	 34.5513
8.641999	 34.4935
8.660000	 34.4117
8.678000	 34.3184
8.696000	 34.2414
8.714000	 34.1975
8.731999	 34.1697
8.750000	 34.1246
8.768000	 34.0549
8.786000	 33.9882
8.804000	 33.9553
8.821999	 33.9569
8.840000	 33.9676
8.858000	 33.9686
8.876000	 33.9702
8.894000	 33.9951
8.911999	 34.0508
8.930000	 34.1239
8.948000	 34.2005
8.966000	 34.2789
8.984000	 34.3596
9.001999	 34.4282
9.020000	 34.4627
9.038000	 34.4496
9.056000	 34.3955
9.074000	 34.3241
9.092000	 34.2672
9.109999	 34.2509
9.128000	 34.2787
9.146000	 34.3248
9.164000	 34.3481
9.182000	 34.3164
9.199999	 34.224
9.218000	 34.0903
9.236000	 33.9485
9.254000	 33.8327
9.272000	 33.7626
9.289999	 33.7356
9.308000	 33.7277
9.326000	 33.7126
9.344000	 33.6802
9.362000	 33.6406
9.379999	 33.608
9.398000	 33.5872
9.416000	 33.5745
9.434000	 33.5668
9.452000	 33.5672
9.469999	 33.5818
9.488000	 33.6187
9.506000	 33.6896
9.524000	 33.8063
9.542000	 33.9675
9.560000	 34.1442
9.577999	 34.2861
9.596000	 34.3494
9.614000	 34.3231
9.632000	 34.2344
9.650000	 34.1291
9.667999	 34.0457
9.686000	 33.9971
9.704000	 33.9735
9.722000	 33.9536
9.740000	 33.9175
9.757999	 33.8512
9.776000	 33.7468
9.794000	 33.6053
9.812000	 33.4412
9.830000	 33.2816
9.847999	 33.1573
9.866000	 33.0891
9.884000	 33.0794
9.902000	 33.1142
9.920000	 33.1746
9.937999	 33.2479
9.956000	 33.3321
9.974000	 33.4283
9.992000	 33.5313
10.01	33.626
10.028	33.6927
10.046	33.7211
10.064	33.7178
10.082	33.7063
10.1	33.7149
10.118	33.7618
10.136	33.8431
10.154	33.935
10.172	34.007
10.19	34.0369
10.208	34.0221
10.226	33.9771
10.244	33.9216
10.262	33.8692
10.28	33.8217
10.298	33.7751
10.316	33.7258
10.334	33.6734
10.352	33.6173
10.37	33.555
10.388	33.4847
10.406	33.4081
10.424	33.3297
10.442	33.2521
10.46	33.1736
10.478	33.0903
10.496	33.0026
10.514	32.9199
10.532	32.8594
10.55	32.8344
10.568	32.8467
10.586	32.8837
10.604	32.9276
10.622	32.9644
10.64	32.9906
10.658	33.01
10.676	33.0287
10.694	33.0486
10.712	33.0672
10.73	33.0808
10.748	33.0881
10.766	33.0933
10.784	33.1029
10.802	33.1226
10.82	33.1539
10.838	33.1932
10.856	33.2349
10.874	33.2743
10.892	33.3098
10.91	33.3429
10.928	33.375
10.946	33.4061
10.964	33.4335
10.982	33.4523
11	33.4585
11.018	33.45
11.036	33.4265
11.054	33.3875
11.072	33.332
11.09	33.257
11.108	33.1608
11.126	33.0462
11.144	32.9215
11.162	32.8011
11.18	32.6974
11.198	32.6168
11.216	32.5571
11.234	32.5094
11.252	32.4638
11.27	32.4154
11.288	32.3673
11.306	32.3278
11.324	32.3084
11.342	32.3174
11.36	32.3551
11.378	32.4136
11.396	32.479
11.414	32.5353
11.432	32.5701
11.45	32.579
11.468	32.5666
11.486	32.5434
11.504	32.5235
11.522	32.5191
11.54	32.5357
11.558	32.5729
11.576	32.625
11.594	32.6835
11.612	32.7399
11.63	32.788
11.648	32.8238
11.666	32.8453
11.684	32.8517
11.702	32.844
11.72	32.824
11.738	32.7957
11.756	32.7639
11.774	32.7339
11.792	32.71
11.81	32.694
11.828	32.6853
11.846	32.6821
11.864	32.6822
11.882	32.6833
11.9	32.6833
11.918	32.6793
11.936	32.6673
11.954	32.643
11.972	32.602
11.99	32.5415
12.008	32.4619
12.026	32.3668
12.044	32.2628
12.062	32.1591
12.08	32.0646
12.098	31.9869
12.116	31.9312
12.134	31.8991
12.152	31.8885
12.17	31.8941
12.188	31.9083
12.206	31.9229
12.224	31.9306
12.242	31.9262
12.26	31.9076
12.278	31.8763
12.296	31.8359
12.314	31.792
12.332	31.7504
12.35	31.7161
12.368	31.6931
12.386	31.6837
12.404	31.6889
12.422	31.7087
12.44	31.7412
12.458	31.7836
12.476	31.831
12.494	31.8776
12.512	31.9171
12.53	31.9443
12.548	31.956
12.566	31.9526
12.584	31.9381
12.602	31.9191
12.62	31.903
12.638	31.8966
12.656	31.9042
12.674	31.9263
12.692	31.9591
12.71	31.9967
12.728	32.0314
12.746	32.0561
12.764	32.0659
12.782	32.0592
12.8	32.0378
12.818	32.0057
12.836	31.9683
12.854	31.9305
12.872	31.8965
12.89	31.8683
12.908	31.8463
12.926	31.8289
12.944	31.8135
12.962	31.7963
12.98	31.7731
12.998	31.7394
13.016	31.6916
13.034	31.627
13.052	31.5446
13.07	31.4462
13.088	31.3357
13.106	31.2194
13.124	31.1048
13.142	30.999
13.16	30.9075
13.178	30.8331
13.196	30.7754
13.214	30.7323
13.232	30.7001
13.25	30.6758
13.268	30.6574
13.286	30.6447
13.304	30.6386
13.322	30.6411
13.34	30.6537
13.358	30.6773
13.376	30.7111
13.394	30.7541
13.412	30.8041
13.43	30.8592
13.448	30.9176
13.466	30.9778
13.484	31.0378
13.502	31.0951
13.52	31.1464
13.538	31.1876
13.556	31.2146
13.574	31.2248
13.592	31.2175
13.61	31.1949
13.628	31.1617
13.646	31.1246
13.664	31.0908
13.682	31.0666
13.7	31.0566
13.718	31.0624
13.736	31.0831
13.754	31.1156
13.772	31.1555
13.79	31.1981
13.808	31.2394
13.826	31.2763
13.844	31.3068
13.862	31.3299
13.88	31.345
13.898	31.3515
13.916	31.3488
13.934	31.3361
13.952	31.3126
13.97	31.2785
13.988	31.2344
14.006	31.1821
14.024	31.1238
14.042	31.0624
14.06	31.0002
14.078	30.9395
14.096	30.8811
14.114	30.8251
14.132	30.7704
14.15	30.7149
14.168	30.6564
14.186	30.5923
14.204	30.5209
14.222	30.4415
14.24	30.3544
14.258	30.2613
14.276	30.1649
14.294	30.0688
14.312	29.9763
14.33	29.8906
14.348	29.8145
14.366	29.7498
14.384	29.6981
14.402	29.6596
14.42	29.6347
14.438	29.623
14.456	29.6242
14.474	29.638
14.492	29.6638
14.51	29.7007
14.528	29.7469
14.546	29.7997
14.564	29.8558
14.582	29.9112
14.6	29.9615
14.618	30.0027
14.636	30.0313
14.654	30.0459
14.672	30.047
14.69	30.0369
14.708	30.0191
14.726	29.9983
14.744	29.9796
14.762	29.9676
14.78	29.9657
14.798	29.976
14.816	29.999
14.834	30.0343
14.852	30.08
14.87	30.1338
14.888	30.1935
14.906	30.257
14.924	30.3223
14.942	30.3881
14.96	30.453
14.978	30.5155
14.996	30.5739
15.014	30.6259
15.032	30.6687
15.05	30.6993
15.068	30.715
15.086	30.7137
15.104	30.6941
15.122	30.6559
15.14	30.6005
15.158	30.5301
15.176	30.4478
15.194	30.3574
15.212	30.2637
15.23	30.1708
15.248	30.0825
15.266	30.0023
15.284	29.9331
15.302	29.8764
15.32	29.8327
15.338	29.802
15.356	29.7834
15.374	29.7746
15.392	29.7736
15.41	29.778
15.428	29.7852
15.446	29.7929
15.464	29.7995
15.482	29.8036
15.5	29.8047
15.518	29.8028
15.536	29.7986
15.554	29.7926
15.572	29.7857
15.59	29.7783
15.608	29.7703
15.626	29.7614
15.644	29.7508
15.662	29.737
15.68	29.7189
15.698	29.696
15.716	29.6678
15.734	29.6353
15.752	29.5999
15.77	29.5635
15.788	29.529
15.806	29.4984
15.824	29.4734
15.842	29.4552
15.86	29.4438
15.878	29.4379
15.896	29.4361
15.914	29.4352
15.932	29.4326
15.95	29.426
15.968	29.4133
15.986	29.3932
16.004	29.3657
16.022	29.3311
16.04	29.2916
16.058	29.2495
16.076	29.207
16.094	29.1669
16.112	29.1315
16.13	29.1017
16.148	29.0783
16.166	29.061
16.184	29.0491
16.202	29.0414
16.22	29.0364
16.238	29.0328
16.256	29.0297
16.274	29.0262
16.292	29.0226
16.31	29.0189
16.328	29.0164
16.346	29.016
16.364	29.0187
16.382	29.0258
16.4	29.0378
16.418	29.0553
16.436	29.0784
16.454	29.1062
16.472	29.1382
16.49	29.173
16.508	29.209
16.526	29.2452
16.544	29.2796
16.562	29.3113
16.58	29.3393
16.598	29.3631
16.616	29.3826
16.634	29.3978
16.652	29.4097
16.67	29.4188
16.688	29.4257
16.706	29.4313
16.724	29.4359
16.742	29.4395
16.76	29.4417
16.778	29.4421
16.796	29.4392
16.814	29.4318
16.832	29.419
16.85	29.3989
16.868	29.3706
16.886	29.3335
16.904	29.2871
16.922	29.2318
16.94	29.168
16.958	29.0977
16.976	29.0221
16.994	28.9439
17.012	28.8657
17.03	28.7894
17.048	28.7183
17.066	28.6537
17.084	28.5977
17.102	28.5515
17.12	28.5154
17.138	28.4895
17.156	28.4728
17.174	28.4647
17.192	28.4625
17.21	28.4653
17.228	28.4702
17.246	28.4756
17.264	28.48
17.282	28.4814
17.3	28.4796
17.318	28.4736
17.336	28.4636
17.354	28.4497
17.372	28.4329
17.39	28.4135
17.408	28.3926
17.426	28.3709
17.444	28.349
17.462	28.3273
17.48	28.306
17.498	28.2849
17.516	28.2634
17.534	28.2411
17.552	28.2171
17.57	28.1909
17.588	28.1617
17.606	28.1294
17.624	28.0936
17.642	28.0549
17.66	28.0134
17.678	27.9705
17.696	27.9267
17.714	27.8842
17.732	27.844
17.75	27.8076
17.768	27.7771
17.786	27.7533
17.804	27.7378
17.822	27.7309
17.84	27.7334
17.858	27.745
17.876	27.7659
17.894	27.7947
17.912	27.8311
17.93	27.8729
17.948	27.9196
17.966	27.9682
17.984	28.0175
18.002	28.0648
18.02	28.1084
18.038	28.1464
18.056	28.1769
18.074	28.1993
18.092	28.2124
18.11	28.2163
18.128	28.2114
18.146	28.1985
18.164	28.1794
18.182	28.1559
18.2	28.1301
18.218	28.1051
18.236	28.0824
18.254	28.0654
18.272	28.0549
18.29	28.0533
18.308	28.0609
18.326	28.078
18.344	28.1042
18.362	28.1383
18.38	28.1791
18.398	28.224
18.416	28.2709
18.434	28.3172
18.452	28.36
18.47	28.3971
18.488	28.4257
18.506	28.4443
18.524	28.451
18.542	28.4451
18.56	28.4259
18.578	28.3933
18.596	28.3485
18.614	28.2918
18.632	28.2261
18.65	28.1517
18.668	28.0728
18.686	27.9898
18.704	27.907
18.722	27.8248
18.74	27.7472
18.758	27.6748
18.776	27.6107
18.794	27.5552
18.812	27.5106
18.83	27.4768
18.848	27.4551
18.866	27.4452
18.884	27.4474
18.902	27.4608
18.92	27.485
18.938	27.5189
18.956	27.5612
18.974	27.6109
18.992	27.6662
19.01	27.7259
19.028	27.7879
19.046	27.8509
19.064	27.9126
19.082	27.9719
19.1	28.0263
19.118	28.0749
19.136	28.1153
19.154	28.1468
19.172	28.1673
19.19	28.1766
19.208	28.1728
19.226	28.1563
19.244	28.1261
19.262	28.0826
19.28	28.026
19.298	27.9569
19.316	27.8773
19.334	27.7876
19.352	27.691
19.37	27.5875
19.388	27.4816
19.406	27.3732
19.424	27.2662
19.442	27.1607
19.46	27.0599
19.478	26.9645
19.496	26.8756
19.514	26.794
19.532	26.7192
19.55	26.6517
19.568	26.5902
19.586	26.534
19.604	26.482
19.622	26.4321
19.64	26.384
19.658	26.3354
19.676	26.2865
19.694	26.2351
19.712	26.1814
19.73	26.1259
19.748	26.0681
19.766	26.0104
19.784	25.9524
19.802	25.8973
19.82	25.8467
19.838	25.8024
19.856	25.7681
19.874	25.7438
19.892	25.734
19.91	25.7379
19.928	25.7579
19.946	25.7938
19.964	25.8452
19.982	25.9126
20	25.9934
20.018	26.0869
20.036	26.1907
20.054	26.3012
20.072	26.4181
20.09	26.5347
20.108	26.652
20.126	26.7639
20.144	26.8705
20.162	26.9682
20.18	27.0552
20.198	27.1307
20.216	27.1921
20.234	27.2399
20.252	27.2724
20.27	27.2896
20.288	27.2916
20.306	27.2782
20.324	27.25
20.342	27.2072
20.36	27.1502
20.378	27.0805
20.396	26.9978
20.414	26.9043
20.432	26.7995
20.45	26.6857
20.468	26.5636
20.486	26.4341
20.504	26.2997
20.522	26.16
20.54	26.019
20.558	25.8759
20.576	25.7344
20.594	25.5954
20.612	25.4601
20.63	25.3323
20.648	25.2111
20.666	25.1006
20.684	25.0005
20.702	24.9128
20.72	24.8389
20.738	24.7785
20.756	24.7335
20.774	24.7036
20.792	24.6884
20.81	24.6882
20.828	24.7022
20.846	24.7296
20.864	24.7706
20.882	24.8225
20.9	24.8859
20.918	24.9588
20.936	25.0402
20.954	25.13
20.972	25.2252
20.99	25.3265
21.008	25.4323
21.026	25.5418
21.044	25.6551
21.062	25.7709
21.08	25.8895
21.098	26.0105
21.116	26.1339
21.134	26.2596
21.152	26.3875
21.17	26.5175
21.188	26.65
21.206	26.785
21.224	26.9225
21.242	27.0621
21.26	27.2042
21.278	27.3478
21.296	27.4934
21.314	27.6399
21.332	27.7856
21.35	27.9313
21.368	28.074
21.386	28.2138
21.404	28.3494
21.422	28.4769
21.44	28.5978
21.458	28.7081
21.476	28.8063
21.494	28.8925
21.512	28.9618
21.53	29.0155
21.548	29.0512
21.566	29.067
21.584	29.0638
21.602	29.04
21.62	28.9951
21.638	28.9305
21.656	28.8469
21.674	28.7439
21.692	28.6253
21.71	28.4912
21.728	28.3431
21.746	28.1872
21.764	28.0212
21.782	27.8507
21.8	27.6794
21.818	27.5057
21.836	27.3375
21.854	27.1749
21.872	27.0193
21.89	26.8757
21.908	26.7428
21.926	26.6225
21.944	26.5169
21.962	26.425
21.98	26.3462
21.998	26.2814
22.016	26.2287
22.034	26.1852
22.052	26.1525
22.07	26.1265
22.088	26.1044
22.106	26.0876
22.124	26.0708
22.142	26.0531
22.16	26.0346
22.178	26.0112
22.196	25.9835
22.214	25.951
22.232	25.9121
22.25	25.8672
22.268	25.8171
22.286	25.762
22.304	25.7019
22.322	25.6394
22.34	25.5744
22.358	25.5076
22.376	25.4425
22.394	25.3783
22.412	25.3162
22.43	25.259
22.448	25.2055
22.466	25.157
22.484	25.1147
22.502	25.078
22.52	25.0464
22.538	25.0204
22.556	24.9996
22.574	24.9817
22.592	24.9669
22.61	24.9546
22.628	24.9413
22.646	24.9279
22.664	24.9129
22.682	24.8933
22.7	24.8701
22.718	24.842
22.736	24.8072
22.754	24.7663
22.772	24.7192
22.79	24.6652
22.808	24.6044
22.826	24.5384
22.844	24.4679
22.862	24.3923
22.88	24.3148
22.898	24.2361
22.916	24.1557
22.934	24.0778
22.952	24.0031
22.97	23.9311
22.988	23.8663
23.006	23.8094
23.024	23.7598
23.042	23.7208
23.06	23.6929
23.078	23.6754
23.096	23.6694
23.114	23.6754
23.132	23.6926
23.15	23.7192
23.168	23.7561
23.186	23.8021
23.204	23.8534
23.222	23.9114
23.24	23.9743
23.258	24.0371
23.276	24.1008
23.294	24.1643
23.312	24.2224
23.33	24.2757
23.348	24.3238
23.366	24.3624
23.384	24.3918
23.402	24.412
23.42	24.4196
23.438	24.4137
23.456	24.3956
23.474	24.3653
23.492	24.3219
23.51	24.2663
23.528	24.2022
23.546	24.1292
23.564	24.0474
23.582	23.9629
23.6	23.8772
23.618	23.7885
23.636	23.7038
23.654	23.6265
23.672	23.5532
23.69	23.4902
23.708	23.4415
23.726	23.4041
23.744	23.3812
23.762	23.3757
23.78	23.3863
23.798	23.4131
23.816	23.4572
23.834	23.5189
23.852	23.5966
23.87	23.6882
23.888	23.7961
23.906	23.9172
23.924	24.0454
23.942	24.1823
23.96	24.327
23.978	24.4712
23.996	24.6127
24.014	24.7543
24.032	24.8887
24.05	25.0111
24.068	25.1254
24.086	25.2276
24.104	25.3136
24.122	25.3855
24.14	25.4422
24.158	25.4817
24.176	25.503
24.194	25.508
24.212	25.4992
24.23	25.4754
24.248	25.4369
24.266	25.3894
24.284	25.335
24.302	25.2701
24.32	25.2026
24.338	25.1394
24.356	25.0744
24.374	25.0143
24.392	24.97
24.41	24.9388
24.428	24.921
24.446	24.9265
24.464	24.9591
24.482	25.0141
24.5	25.0972
24.518	25.2138
24.536	25.3621
24.554	25.5406
24.572	25.7488
24.59	25.9885
24.608	26.2577
24.626	26.5521
24.644	26.872
24.662	27.2204
24.68	27.5854
24.698	27.9572
24.716	28.3456
24.734	28.7405
24.752	29.125
24.77	29.5021
24.788	29.874
24.806	30.2203
24.824	30.5278
24.842	30.8102
24.86	31.0536
24.878	31.2403
24.896	31.3762
24.914	31.4607
24.932	31.48
24.95	31.4268
24.968	31.3095
24.986	31.1208
25.004	30.8525
25.022	30.5041
25.04	30.0801
25.058	29.5841
25.076	29.0145
25.094	28.368
25.112	27.6597
25.13	26.9041
25.148	26.0868
25.166	25.2195
25.184	24.3287
25.202	23.4229
25.22	22.4847
25.238	21.5431
25.256	20.6279
25.274	19.721
25.292	18.8305
25.31	17.9889
25.328	17.2136
25.346	16.482
25.364	15.8165
25.382	15.2436
25.4	14.757
25.418	14.353
25.436	14.0502
25.454	13.8629
25.472	13.7804
25.49	13.8059
25.508	13.9461
25.526	14.2055
25.544	14.5796
25.562	15.0633
25.58	15.6522
25.598	16.3552
25.616	17.1631
25.634	18.0592
25.652	19.0354
25.67	20.1068
25.688	21.2531
25.706	22.4506
25.724	23.7034
25.742	25.0187
25.76	26.3676
25.778	27.724
25.796	29.1096
25.814	30.5129
25.832	31.9026
25.85	33.26
25.868	34.6115
25.886	35.9333
25.904	37.1944
25.922	38.3906
25.94	39.5391
25.958	40.6145
25.976	41.591
25.994	42.4789
26.012	43.2806
26.03	43.9759
26.048	44.5473
26.066	45.0072
26.084	45.353
26.102	45.5746
26.12	45.6646
26.138	45.6295
26.156	45.4694
26.174	45.1834
26.192	44.7687
26.21	44.2255
26.228	43.562
26.246	42.7861
26.264	41.8938
26.282	40.8838
26.3	39.7711
26.318	38.5704
26.336	37.2675
26.354	35.8676
26.372	34.3974
26.39	32.8811
26.408	31.2986
26.426	29.6577
26.444	27.9839
26.462	26.297
26.48	24.572
26.498	22.8251
26.516	21.0855
26.534	19.3752
26.552	17.6727
26.57	15.9865
26.588	14.3325
26.606	12.7226
26.624	11.1475
26.642	9.606626
26.66	8.100925
26.678	6.633784
26.696	5.208820
26.714	3.814981
26.732	2.440220
26.75	1.082894
26.768	-0.241842
26.786	-1.556451
26.804	-2.885975
26.822	-4.242007
26.84	-5.604793
26.858	-6.987508
26.876	-8.405828
26.894	-9.870139
26.912	-11.3716
26.93	-12.9073
26.948	-14.4749
26.966	-16.1533
26.984	-18.0625
27.002	-19.901
27.02	-21.3415
27.028	-21.7255