File: Bakgrunnsmateriale/MATLAB/FTIR/ftir_data/LPE454/Mapping_121/LPE454_e122.asc
PE IR       SPECTRUM    SPECTRUM    ASCII       PEDS        1.60
  -1
LPE454~2.ASC
17/05/19
14:23:25.00
17/05/19
14:23:52.00
tln
$LPE454_e0122$<ebV0>[-23.3,12.1,10.0,0.0,27,1,0]
27.028
64

2002,4.07
MIRTGS : RIGHTBACK : INTERNAL 2
MIR : ON : INTERNAL 2
OPTKBR

0.200000
8
8.000000
FILLER
SINGLE
SPECTRUM
UNLOCKED 256

DOUBLE

COMBINED
1
0
0

0.002000
BACKG

1
0
TRUE
51149
0
LEFT NOT FITTED RIGHT NOT FITTED 0
NONE
NONE
15600
12
4.427000
51148
TRUE
1 0 8 72 0 0 0 0

15798

#HDR
-1
-1
#GR
µM
EGY
2.38419e-05
0.0
2.000000
0.002000
12515
8
2.423288
0.004696
#DATA
2.000000	 0.765895
2.018000	 0.783675
2.036000	 0.800600
2.054000	 0.829047
2.072000	 0.847212
2.090000	 0.874725
2.108000	 0.890709
2.126000	 0.906562
2.144000	 0.910896
2.162000	 0.919370
2.180000	 0.935720
2.198000	 0.971493
2.216000	 0.984930
2.234000	 1.003566
2.252000	 1.036978
2.270000	 1.018500
2.288000	 1.035541
2.306000	 1.066457
2.324000	 1.107867
2.342000	 1.141748
2.360000	 1.169845
2.378000	 1.187522
2.396000	 1.206849
2.414000	 1.223143
2.432000	 1.247473
2.450000	 1.281668
2.468000	 1.322325
2.486000	 1.355990
2.504000	 1.387150
2.522000	 1.404025
2.540000	 1.416923
2.558000	 1.419177
2.576000	 1.429433
2.594000	 1.429067
2.612000	 1.474356
2.630000	 1.494641
2.648000	 1.533520
2.666000	 1.520308
2.684000	 1.556746
2.702000	 1.568057
2.720000	 1.548164
2.738000	 1.554298
2.756000	 1.557927
2.774000	 1.577210
2.792000	 1.591211
2.810000	 1.603719
2.828000	 1.609818
2.846000	 1.613218
2.864000	 1.608186
2.882000	 1.596171
2.900000	 1.582334
2.918000	 1.573583
2.936000	 1.578311
2.954000	 1.593809
2.972000	 1.612795
2.990000	 1.641567
3.008000	 1.671041
3.026000	 1.698390
3.044000	 1.724319
3.062000	 1.744014
3.080000	 1.760079
3.098000	 1.768427
3.116000	 1.773539
3.134000	 1.777921
3.152000	 1.784366
3.170000	 1.793059
3.188000	 1.804168
3.206000	 1.828420
3.224000	 1.856181
3.242000	 1.886921
3.260000	 1.912898
3.278000	 1.940615
3.296000	 1.957898
3.314000	 1.940259
3.332000	 2.004846
3.350000	 2.008244
3.368000	 1.951358
3.386000	 1.904560
3.404000	 1.815598
3.422000	 1.765912
3.440000	 1.915573
3.458000	 1.970399
3.476000	 1.986307
3.494000	 1.889328
3.512000	 1.992171
3.530000	 2.078389
3.548000	 2.119492
3.566000	 2.148898
3.584000	 2.171177
3.602000	 2.202391
3.620000	 2.219606
3.638000	 2.232447
3.656000	 2.235142
3.674000	 2.233360
3.692000	 2.228914
3.710000	 2.226680
3.728000	 2.217865
3.746000	 2.210830
3.764000	 2.200836
3.782000	 2.196337
3.800000	 2.195357
3.818000	 2.195502
3.836000	 2.202137
3.854000	 2.203827
3.872000	 2.218156
3.890000	 2.235329
3.908000	 2.251318
3.926000	 2.265706
3.944000	 2.278686
3.962000	 2.292994
3.980000	 2.299997
3.998000	 2.305933
4.016000	 2.300587
4.034000	 2.297640
4.052000	 2.290938
4.070000	 2.286602
4.088000	 2.274806
4.106000	 2.267024
4.124000	 2.257640
4.141999	 2.247357
4.160000	 2.235121
4.178000	 2.228737
4.196000	 2.225057
4.214000	 2.216189
4.232000	 2.207765
4.250000	 2.227263
4.268000	 2.235573
4.286000	 2.247652
4.304000	 2.265480
4.322000	 2.285616
4.340000	 2.304932
4.358000	 2.318231
4.375999	 2.329347
4.394000	 2.339640
4.412000	 2.345072
4.430000	 2.350749
4.448000	 2.352798
4.466000	 2.353560
4.484000	 2.350099
4.502000	 2.346512
4.520000	 2.342103
4.538000	 2.333843
4.556000	 2.327032
4.574000	 2.317787
4.592000	 2.313316
4.609999	 2.309144
4.628000	 2.306548
4.646000	 2.305157
4.664000	 2.302849
4.682000	 2.303975
4.700000	 2.302424
4.718000	 2.305520
4.736000	 2.309579
4.754000	 2.307963
4.772000	 2.307450
4.790000	 2.305991
4.808000	 2.314938
4.826000	 2.326923
4.843999	 2.341488
4.862000	 2.356219
4.880000	 2.372367
4.898000	 2.385427
4.916000	 2.397155
4.934000	 2.406804
4.952000	 2.411960
4.970000	 2.418988
4.988000	 2.422528
5.006000	 2.423286
5.024000	 2.423001
5.042000	 2.419037
5.060000	 2.413803
5.077999	 2.405280
5.096000	 2.401454
5.114000	 2.396986
5.132000	 2.388736
5.150000	 2.383090
5.168000	 2.380094
5.186000	 2.372142
5.204000	 2.362274
5.222000	 2.355226
5.240000	 2.350307
5.258000	 2.342372
5.276000	 2.335551
5.294000	 2.335611
5.312000	 2.340031
5.330000	 2.341699
5.348000	 2.339055
5.366000	 2.346661
5.384000	 2.354428
5.402000	 2.357434
5.420000	 2.353543
5.438000	 2.362200
5.456000	 2.366053
5.474000	 2.369975
5.492000	 2.380033
5.510000	 2.386330
5.528000	 2.388557
5.546000	 2.389904
5.564000	 2.386852
5.582000	 2.382979
5.600000	 2.387626
5.618000	 2.386155
5.636000	 2.372096
5.654000	 2.366986
5.672000	 2.370048
5.690000	 2.361559
5.708000	 2.342856
5.726000	 2.328489
5.744000	 2.306774
5.762000	 2.277014
5.780000	 2.282399
5.798000	 2.289538
5.816000	 2.264186
5.834000	 2.258198
5.852000	 2.259589
5.870000	 2.228722
5.888000	 2.201831
5.906000	 2.213236
5.923999	 2.206585
5.942000	 2.192922
5.960000	 2.197162
5.978000	 2.187076
5.996000	 2.180421
6.014000	 2.174408
6.032000	 2.147413
6.050000	 2.111430
6.068000	 2.114041
6.086000	 2.123208
6.104000	 2.108935
6.122000	 2.095600
6.140000	 2.089813
6.158000	 2.068536
6.176000	 2.030978
6.194000	 1.986272
6.212000	 1.950409
6.230000	 1.942863
6.248000	 1.961390
6.266000	 1.978377
6.284000	 1.984422
6.302000	 1.981961
6.320000	 1.969594
6.338000	 1.950060
6.356000	 1.942168
6.374000	 1.939743
6.392000	 1.917340
6.410000	 1.883363
6.428000	 1.888268
6.446000	 1.916110
6.464000	 1.918903
6.482000	 1.913829
6.500000	 1.949064
6.518000	 2.014595
6.536000	 2.059225
6.554000	 2.069903
6.572000	 2.066380
6.590000	 2.064465
6.608000	 2.055389
6.626000	 2.028401
6.644000	 1.976832
6.662000	 1.859138
6.680000	 1.699807
6.698000	 1.643551
6.716000	 1.730318
6.734000	 1.849637
6.752000	 1.920138
6.770000	 1.940055
6.788000	 1.939639
6.806000	 1.935223
6.824000	 1.917355
6.842000	 1.871502
6.860000	 1.801576
6.878000	 1.744228
6.896000	 1.739528
6.914000	 1.780666
6.932000	 1.819917
6.950000	 1.832962
6.968000	 1.836250
6.986000	 1.840729
7.004000	 1.842457
7.022000	 1.838147
7.040000	 1.828262
7.058000	 1.816922
7.076000	 1.798441
7.094000	 1.761789
7.112000	 1.718644
7.130000	 1.698441
7.148000	 1.711778
7.166000	 1.741014
7.184000	 1.761178
7.202000	 1.762015
7.220000	 1.757196
7.238000	 1.763429
7.256000	 1.775975
7.274000	 1.784208
7.292000	 1.788695
7.310000	 1.791721
7.328000	 1.792152
7.346000	 1.791051
7.364000	 1.790058
7.382000	 1.788992
7.400000	 1.787748
7.418000	 1.786614
7.436000	 1.785557
7.454000	 1.785676
7.472000	 1.790096
7.490000	 1.799711
7.508000	 1.810805
7.526000	 1.819122
7.544000	 1.823923
7.562000	 1.826412
7.580000	 1.827453
7.598000	 1.827847
7.616000	 1.828027
7.634000	 1.827581
7.652000	 1.826805
7.670000	 1.826754
7.688000	 1.827840
7.706000	 1.829337
7.724000	 1.830282
7.742000	 1.830304
7.760000	 1.829654
7.778000	 1.828289
7.796000	 1.825460
7.814000	 1.820025
7.832000	 1.810734
7.850000	 1.795583
7.868000	 1.772198
7.886000	 1.741103
7.904000	 1.710498
7.922000	 1.694321
7.940000	 1.701329
7.958000	 1.726855
7.976000	 1.757472
7.994000	 1.782266
8.012000	 1.797942
8.030000	 1.806331
8.048000	 1.810145
8.065999	 1.811423
8.084000	 1.811103
8.102000	 1.809220
8.120000	 1.805680
8.138000	 1.800817
8.155999	 1.794935
8.173999	 1.787703
8.192000	 1.778130
8.210000	 1.766118
8.228000	 1.753225
8.246000	 1.741461
8.263999	 1.732122
8.282000	 1.725725
8.300000	 1.722437
8.318000	 1.721659
8.336000	 1.722047
8.353999	 1.722196
8.372000	 1.721274
8.390000	 1.719071
8.408000	 1.715593
8.426000	 1.710606
8.443999	 1.703967
8.462000	 1.696175
8.480000	 1.688161
8.498000	 1.680801
8.516000	 1.673757
8.533999	 1.665690
8.552000	 1.655516
8.570000	 1.643474
8.588000	 1.630845
8.606000	 1.619155
8.624000	 1.609648
8.641999	 1.602671
8.660000	 1.597799
8.678000	 1.594130
8.696000	 1.590510
8.714000	 1.586278
8.731999	 1.581561
8.750000	 1.576619
8.768000	 1.571265
8.786000	 1.564870
8.804000	 1.557001
8.821999	 1.547736
8.840000	 1.537561
8.858000	 1.527023
8.876000	 1.516209
8.894000	 1.504957
8.911999	 1.493154
8.930000	 1.480799
8.948000	 1.468143
8.966000	 1.455405
8.984000	 1.443169
9.001999	 1.432210
9.020000	 1.423422
9.038000	 1.417350
9.056000	 1.413603
9.074000	 1.411245
9.092000	 1.409453
9.109999	 1.407998
9.128000	 1.407152
9.146000	 1.407159
9.164000	 1.407933
9.182000	 1.409231
9.199999	 1.410874
9.218000	 1.412288
9.236000	 1.413054
9.254000	 1.413249
9.272000	 1.413142
9.289999	 1.413403
9.308000	 1.414345
9.326000	 1.415995
9.344000	 1.418042
9.362000	 1.420042
9.379999	 1.421238
9.398000	 1.420631
9.416000	 1.416285
9.434000	 1.405206
9.452000	 1.384734
9.469999	 1.355443
9.488000	 1.322867
9.506000	 1.296820
9.524000	 1.285986
9.542000	 1.292956
9.560000	 1.312822
9.577999	 1.336224
9.596000	 1.355031
9.614000	 1.365753
9.632000	 1.369366
9.650000	 1.368625
9.667999	 1.365963
9.686000	 1.362623
9.704000	 1.359125
9.722000	 1.355566
9.740000	 1.352163
9.757999	 1.349102
9.776000	 1.346842
9.794000	 1.345875
9.812000	 1.346583
9.830000	 1.349176
9.847999	 1.353175
9.866000	 1.358055
9.884000	 1.362984
9.902000	 1.367472
9.920000	 1.371444
9.937999	 1.374860
9.956000	 1.377827
9.974000	 1.380394
9.992000	 1.382391
10.01	1.383566
10.028	1.383812
10.046	1.383073
10.064	1.381386
10.082	1.378924
10.1	1.375923
10.118	1.372661
10.136	1.369454
10.154	1.366511
10.172	1.363774
10.19	1.361058
10.208	1.358026
10.226	1.354498
10.244	1.350393
10.262	1.345862
10.28	1.341013
10.298	1.336042
10.316	1.331039
10.334	1.325945
10.352	1.320709
10.37	1.315218
10.388	1.309474
10.406	1.303617
10.424	1.297944
10.442	1.292688
10.46	1.287812
10.478	1.283153
10.496	1.278463
10.514	1.273551
10.532	1.268469
10.55	1.263588
10.568	1.259081
10.586	1.255151
10.604	1.251777
10.622	1.248735
10.64	1.245843
10.658	1.242935
10.676	1.239878
10.694	1.236593
10.712	1.233010
10.73	1.229202
10.748	1.225263
10.766	1.221487
10.784	1.217866
10.802	1.214520
10.82	1.211445
10.838	1.208449
10.856	1.205465
10.874	1.202123
10.892	1.198209
10.91	1.193489
10.928	1.187884
10.946	1.181546
10.964	1.174903
10.982	1.168418
11	1.162483
11.018	1.157365
11.036	1.153105
11.054	1.149527
11.072	1.146455
11.09	1.143660
11.108	1.141053
11.126	1.138551
11.144	1.136045
11.162	1.133493
11.18	1.130727
11.198	1.127545
11.216	1.123685
11.234	1.118651
11.252	1.112105
11.27	1.103662
11.288	1.093229
11.306	1.081089
11.324	1.067856
11.342	1.054488
11.36	1.042082
11.378	1.031637
11.396	1.023923
11.414	1.019420
11.432	1.018250
11.45	1.020297
11.468	1.025093
11.486	1.032077
11.504	1.040429
11.522	1.049331
11.54	1.057999
11.558	1.065688
11.576	1.072056
11.594	1.076799
11.612	1.079942
11.63	1.081673
11.648	1.082242
11.666	1.081931
11.684	1.080945
11.702	1.079557
11.72	1.077920
11.738	1.076204
11.756	1.074452
11.774	1.072769
11.792	1.071045
11.81	1.069108
11.828	1.066827
11.846	1.063923
11.864	1.060260
11.882	1.055529
11.9	1.049500
11.918	1.041780
11.936	1.031993
11.954	1.019685
11.972	1.004445
11.99	0.986097
12.008	0.964701
12.026	0.940952
12.044	0.916001
12.062	0.891575
12.08	0.869682
12.098	0.852064
12.116	0.840342
12.134	0.835361
12.152	0.837036
12.17	0.844480
12.188	0.856181
12.206	0.870262
12.224	0.884865
12.242	0.898469
12.26	0.910077
12.278	0.919190
12.296	0.925835
12.314	0.930299
12.332	0.933072
12.35	0.934633
12.368	0.935248
12.386	0.935327
12.404	0.935015
12.422	0.934399
12.44	0.933761
12.458	0.933180
12.476	0.932820
12.494	0.932834
12.512	0.933394
12.53	0.934496
12.548	0.936183
12.566	0.938475
12.584	0.941244
12.602	0.944396
12.62	0.947820
12.638	0.951347
12.656	0.954844
12.674	0.958250
12.692	0.961356
12.71	0.964065
12.728	0.966349
12.746	0.968132
12.764	0.969379
12.782	0.970197
12.8	0.970553
12.818	0.970536
12.836	0.970177
12.854	0.969506
12.872	0.968609
12.89	0.967521
12.908	0.966285
12.926	0.964976
12.944	0.963654
12.962	0.962423
12.98	0.961277
12.998	0.960226
13.016	0.959211
13.034	0.958241
13.052	0.957263
13.07	0.956261
13.088	0.955212
13.106	0.954113
13.124	0.953040
13.142	0.951997
13.16	0.951013
13.178	0.950139
13.196	0.949387
13.214	0.948681
13.232	0.947998
13.25	0.947288
13.268	0.946447
13.286	0.945479
13.304	0.944354
13.322	0.943066
13.34	0.941631
13.358	0.940097
13.376	0.938542
13.394	0.936938
13.412	0.935329
13.43	0.933756
13.448	0.932131
13.466	0.930415
13.484	0.928584
13.502	0.926591
13.52	0.924424
13.538	0.922066
13.556	0.919549
13.574	0.916870
13.592	0.914107
13.61	0.911304
13.628	0.908465
13.646	0.905703
13.664	0.902970
13.682	0.900289
13.7	0.897637
13.718	0.895059
13.736	0.892486
13.754	0.889874
13.772	0.887269
13.79	0.884671
13.808	0.882060
13.826	0.879453
13.844	0.876832
13.862	0.874242
13.88	0.871702
13.898	0.869211
13.916	0.866767
13.934	0.864374
13.952	0.862007
13.97	0.859595
13.988	0.857124
14.006	0.854577
14.024	0.851935
14.042	0.849223
14.06	0.846398
14.078	0.843491
14.096	0.840544
14.114	0.837553
14.132	0.834528
14.15	0.831497
14.168	0.828445
14.186	0.825341
14.204	0.822188
14.222	0.818948
14.24	0.815592
14.258	0.812071
14.276	0.808322
14.294	0.804306
14.312	0.799961
14.33	0.795214
14.348	0.790071
14.366	0.784420
14.384	0.778307
14.402	0.771794
14.42	0.764962
14.438	0.757976
14.456	0.751039
14.474	0.744355
14.492	0.738148
14.51	0.732675
14.528	0.728094
14.546	0.724531
14.564	0.722036
14.582	0.720557
14.6	0.719952
14.618	0.720032
14.636	0.720663
14.654	0.721557
14.672	0.722512
14.69	0.723380
14.708	0.724040
14.726	0.724351
14.744	0.724350
14.762	0.724033
14.78	0.723447
14.798	0.722628
14.816	0.721598
14.834	0.720450
14.852	0.719185
14.87	0.717885
14.888	0.716507
14.906	0.715018
14.924	0.713514
14.942	0.711933
14.96	0.710261
14.978	0.708529
14.996	0.706747
15.014	0.704873
15.032	0.702921
15.05	0.700954
15.068	0.698969
15.086	0.696964
15.104	0.694966
15.122	0.693025
15.14	0.691093
15.158	0.689180
15.176	0.687300
15.194	0.685440
15.212	0.683583
15.23	0.681734
15.248	0.679876
15.266	0.677973
15.284	0.676018
15.302	0.674011
15.32	0.671945
15.338	0.669815
15.356	0.667654
15.374	0.665438
15.392	0.663193
15.41	0.660951
15.428	0.658748
15.446	0.656556
15.464	0.654426
15.482	0.652385
15.5	0.650415
15.518	0.648514
15.536	0.646695
15.554	0.644955
15.572	0.643270
15.59	0.641636
15.608	0.640002
15.626	0.638346
15.644	0.636719
15.662	0.635049
15.68	0.633322
15.698	0.631534
15.716	0.629683
15.734	0.627795
15.752	0.625874
15.77	0.623918
15.788	0.621969
15.806	0.620032
15.824	0.618114
15.842	0.616205
15.86	0.614368
15.878	0.612569
15.896	0.610765
15.914	0.608996
15.932	0.607239
15.95	0.605481
15.968	0.603719
15.986	0.601919
16.004	0.600059
16.022	0.598113
16.04	0.596133
16.058	0.594091
16.076	0.591967
16.094	0.589758
16.112	0.587442
16.13	0.585017
16.148	0.582496
16.166	0.579891
16.184	0.577194
16.202	0.574385
16.22	0.571484
16.238	0.568484
16.256	0.565374
16.274	0.562210
16.292	0.558980
16.31	0.555680
16.328	0.552328
16.346	0.548953
16.364	0.545581
16.382	0.542259
16.4	0.539012
16.418	0.535864
16.436	0.532868
16.454	0.530079
16.472	0.527539
16.49	0.525292
16.508	0.523343
16.526	0.521703
16.544	0.520410
16.562	0.519419
16.58	0.518702
16.598	0.518244
16.616	0.517977
16.634	0.517843
16.652	0.517796
16.67	0.517797
16.688	0.517808
16.706	0.517753
16.724	0.517613
16.742	0.517352
16.76	0.517015
16.778	0.516595
16.796	0.516029
16.814	0.515390
16.832	0.514701
16.85	0.513930
16.868	0.513098
16.886	0.512221
16.904	0.511340
16.922	0.510449
16.94	0.509540
16.958	0.508610
16.976	0.507667
16.994	0.506768
17.012	0.505881
17.03	0.504990
17.048	0.504116
17.066	0.503273
17.084	0.502483
17.102	0.501734
17.12	0.501020
17.138	0.500331
17.156	0.499680
17.174	0.499078
17.192	0.498514
17.21	0.497985
17.228	0.497489
17.246	0.496997
17.264	0.496491
17.282	0.495994
17.3	0.495509
17.318	0.495036
17.336	0.494562
17.354	0.494077
17.372	0.493584
17.39	0.493085
17.408	0.492589
17.426	0.492094
17.444	0.491600
17.462	0.491110
17.48	0.490618
17.498	0.490081
17.516	0.489530
17.534	0.488993
17.552	0.488420
17.57	0.487804
17.588	0.487149
17.606	0.486454
17.624	0.485721
17.642	0.484949
17.66	0.484140
17.678	0.483291
17.696	0.482405
17.714	0.481491
17.732	0.480548
17.75	0.479571
17.768	0.478578
17.786	0.477573
17.804	0.476562
17.822	0.475546
17.84	0.474525
17.858	0.473497
17.876	0.472460
17.894	0.471433
17.912	0.470429
17.93	0.469433
17.948	0.468447
17.966	0.467477
17.984	0.466525
18.002	0.465597
18.02	0.464700
18.038	0.463849
18.056	0.463019
18.074	0.462199
18.092	0.461411
18.11	0.460654
18.128	0.459922
18.146	0.459210
18.164	0.458503
18.182	0.457804
18.2	0.457120
18.218	0.456427
18.236	0.455711
18.254	0.454969
18.272	0.454203
18.29	0.453398
18.308	0.452552
18.326	0.451654
18.344	0.450701
18.362	0.449665
18.38	0.448563
18.398	0.447434
18.416	0.446261
18.434	0.445025
18.452	0.443760
18.47	0.442496
18.488	0.441211
18.506	0.439893
18.524	0.438577
18.542	0.437271
18.56	0.435999
18.578	0.434767
18.596	0.433557
18.614	0.432367
18.632	0.431198
18.65	0.430051
18.668	0.428933
18.686	0.427842
18.704	0.426774
18.722	0.425724
18.74	0.424681
18.758	0.423645
18.776	0.422609
18.794	0.421575
18.812	0.420556
18.83	0.419539
18.848	0.418494
18.866	0.417440
18.884	0.416392
18.902	0.415346
18.92	0.414303
18.938	0.413260
18.956	0.412211
18.974	0.411159
18.992	0.410101
19.01	0.409042
19.028	0.407987
19.046	0.406932
19.064	0.405871
19.082	0.404807
19.1	0.403751
19.118	0.402692
19.136	0.401614
19.154	0.400518
19.172	0.399402
19.19	0.398263
19.208	0.397093
19.226	0.395900
19.244	0.394704
19.262	0.393498
19.28	0.392274
19.298	0.391036
19.316	0.389795
19.334	0.388551
19.352	0.387323
19.37	0.386109
19.388	0.384908
19.406	0.383718
19.424	0.382552
19.442	0.381410
19.46	0.380297
19.478	0.379213
19.496	0.378159
19.514	0.377136
19.532	0.376135
19.55	0.375152
19.568	0.374181
19.586	0.373218
19.604	0.372258
19.622	0.371296
19.64	0.370328
19.658	0.369325
19.676	0.368290
19.694	0.367229
19.712	0.366141
19.73	0.365009
19.748	0.363833
19.766	0.362605
19.784	0.361321
19.802	0.359986
19.82	0.358605
19.838	0.357177
19.856	0.355699
19.874	0.354175
19.892	0.352617
19.91	0.351022
19.928	0.349396
19.946	0.347738
19.964	0.346053
19.982	0.344340
20	0.342607
20.018	0.340858
20.036	0.339097
20.054	0.337330
20.072	0.335557
20.09	0.333789
20.108	0.332024
20.126	0.330267
20.144	0.328513
20.162	0.326780
20.18	0.325078
20.198	0.323403
20.216	0.321753
20.234	0.320128
20.252	0.318541
20.27	0.316989
20.288	0.315473
20.306	0.313995
20.324	0.312544
20.342	0.311107
20.36	0.309693
20.378	0.308308
20.396	0.306950
20.414	0.305593
20.432	0.304238
20.45	0.302879
20.468	0.301513
20.486	0.300139
20.504	0.298748
20.522	0.297342
20.54	0.295912
20.558	0.294456
20.576	0.292979
20.594	0.291482
20.612	0.289969
20.63	0.288447
20.648	0.286915
20.666	0.285377
20.684	0.283829
20.702	0.282285
20.72	0.280755
20.738	0.279238
20.756	0.277741
20.774	0.276264
20.792	0.274809
20.81	0.273378
20.828	0.271971
20.846	0.270587
20.864	0.269226
20.882	0.267884
20.9	0.266561
20.918	0.265254
20.936	0.263961
20.954	0.262682
20.972	0.261413
20.99	0.260157
21.008	0.258903
21.026	0.257645
21.044	0.256384
21.062	0.255111
21.08	0.253828
21.098	0.252535
21.116	0.251233
21.134	0.249922
21.152	0.248600
21.17	0.247269
21.188	0.245931
21.206	0.244589
21.224	0.243241
21.242	0.241894
21.26	0.240545
21.278	0.239195
21.296	0.237841
21.314	0.236487
21.332	0.235142
21.35	0.233805
21.368	0.232470
21.386	0.231134
21.404	0.229802
21.422	0.228481
21.44	0.227168
21.458	0.225870
21.476	0.224593
21.494	0.223332
21.512	0.222079
21.53	0.220834
21.548	0.219599
21.566	0.218374
21.584	0.217158
21.602	0.215947
21.62	0.214738
21.638	0.213538
21.656	0.212353
21.674	0.211181
21.692	0.210021
21.71	0.208879
21.728	0.207746
21.746	0.206604
21.764	0.205450
21.782	0.204299
21.8	0.203164
21.818	0.202039
21.836	0.200912
21.854	0.199783
21.872	0.198651
21.89	0.197514
21.908	0.196374
21.926	0.195224
21.944	0.194062
21.962	0.192888
21.98	0.191700
21.998	0.190496
22.016	0.189277
22.034	0.188044
22.052	0.186794
22.07	0.185534
22.088	0.184267
22.106	0.182992
22.124	0.181715
22.142	0.180436
22.16	0.179157
22.178	0.177884
22.196	0.176612
22.214	0.175351
22.232	0.174116
22.25	0.172900
22.268	0.171711
22.286	0.170556
22.304	0.169431
22.322	0.168336
22.34	0.167268
22.358	0.166231
22.376	0.165234
22.394	0.164283
22.412	0.163365
22.43	0.162466
22.448	0.161587
22.466	0.160731
22.484	0.159902
22.502	0.159101
22.52	0.158303
22.538	0.157500
22.556	0.156697
22.574	0.155872
22.592	0.155020
22.61	0.154146
22.628	0.153240
22.646	0.152303
22.664	0.151334
22.682	0.150323
22.7	0.149270
22.718	0.148180
22.736	0.147054
22.754	0.145890
22.772	0.144694
22.79	0.143468
22.808	0.142208
22.826	0.140930
22.844	0.139645
22.862	0.138345
22.88	0.137042
22.898	0.135739
22.916	0.134432
22.934	0.133140
22.952	0.131866
22.97	0.130608
22.988	0.129376
23.006	0.128171
23.024	0.126992
23.042	0.125852
23.06	0.124756
23.078	0.123697
23.096	0.122663
23.114	0.121653
23.132	0.120668
23.15	0.119707
23.168	0.118772
23.186	0.117858
23.204	0.116956
23.222	0.116067
23.24	0.115188
23.258	0.114310
23.276	0.113433
23.294	0.112556
23.312	0.111673
23.33	0.110783
23.348	0.109886
23.366	0.108975
23.384	0.108043
23.402	0.107098
23.42	0.106149
23.438	0.105200
23.456	0.104248
23.474	0.103292
23.492	0.102329
23.51	0.101362
23.528	0.100401
23.546	0.099446
23.564	0.098497
23.582	0.097565
23.6	0.096656
23.618	0.095765
23.636	0.094896
23.654	0.094054
23.672	0.093236
23.69	0.092439
23.708	0.091662
23.726	0.090906
23.744	0.090171
23.762	0.089457
23.78	0.088771
23.798	0.088098
23.816	0.087423
23.834	0.086753
23.852	0.086083
23.87	0.085406
23.888	0.084726
23.906	0.084038
23.924	0.083328
23.942	0.082600
23.96	0.081852
23.978	0.081069
23.996	0.080245
24.014	0.079385
24.032	0.078486
24.05	0.077545
24.068	0.076565
24.086	0.075543
24.104	0.074478
24.122	0.073368
24.14	0.072219
24.158	0.071036
24.176	0.069816
24.194	0.068563
24.212	0.067286
24.23	0.065985
24.248	0.064659
24.266	0.063326
24.284	0.061996
24.302	0.060662
24.32	0.059331
24.338	0.058012
24.356	0.056694
24.374	0.055390
24.392	0.054117
24.41	0.052873
24.428	0.051656
24.446	0.050481
24.464	0.049354
24.482	0.048268
24.5	0.047228
24.518	0.046235
24.536	0.045283
24.554	0.044382
24.572	0.043541
24.59	0.042766
24.608	0.042049
24.626	0.041383
24.644	0.040762
24.662	0.040191
24.68	0.039667
24.698	0.039193
24.716	0.038770
24.734	0.038394
24.752	0.038059
24.77	0.037769
24.788	0.037522
24.806	0.037305
24.824	0.037110
24.842	0.036940
24.86	0.036797
24.878	0.036678
24.896	0.036590
24.914	0.036526
24.932	0.036472
24.95	0.036415
24.968	0.036363
24.986	0.036318
25.004	0.036279
25.022	0.036253
25.04	0.036232
25.058	0.036202
25.076	0.036156
25.094	0.036099
25.112	0.036033
25.13	0.035958
25.148	0.035876
25.166	0.035785
25.184	0.035676
25.202	0.035548
25.22	0.035404
25.238	0.035242
25.256	0.035057
25.274	0.034850
25.292	0.034623
25.31	0.034377
25.328	0.034113
25.346	0.033833
25.364	0.033534
25.382	0.033211
25.4	0.032864
25.418	0.032495
25.436	0.032107
25.454	0.031702
25.472	0.031277
25.49	0.030836
25.508	0.030382
25.526	0.029918
25.544	0.029441
25.562	0.028954
25.58	0.028460
25.598	0.027955
25.616	0.027442
25.634	0.026927
25.652	0.026413
25.67	0.025896
25.688	0.025380
25.706	0.024869
25.724	0.024363
25.742	0.023859
25.76	0.023363
25.778	0.022879
25.796	0.022402
25.814	0.021935
25.832	0.021481
25.85	0.021045
25.868	0.020624
25.886	0.020218
25.904	0.019823
25.922	0.019440
25.94	0.019068
25.958	0.018710
25.976	0.018369
25.994	0.018047
26.012	0.017741
26.03	0.017447
26.048	0.017161
26.066	0.016885
26.084	0.016618
26.102	0.016364
26.12	0.016124
26.138	0.015901
26.156	0.015688
26.174	0.015474
26.192	0.015254
26.21	0.015033
26.228	0.014814
26.246	0.014599
26.264	0.014390
26.282	0.014185
26.3	0.013982
26.318	0.013779
26.336	0.013578
26.354	0.013379
26.372	0.013174
26.39	0.012959
26.408	0.012732
26.426	0.012497
26.444	0.012258
26.462	0.012018
26.48	0.011777
26.498	0.011532
26.516	0.011285
26.534	0.011035
26.552	0.010782
26.57	0.010526
26.588	0.010268
26.606	0.010006
26.624	0.009739
26.642	0.009470
26.66	0.009204
26.678	0.008945
26.696	0.008692
26.714	0.008442
26.732	0.008190
26.75	0.007934
26.768	0.007672
26.786	0.007412
26.804	0.007158
26.822	0.006914
26.84	0.006676
26.858	0.006444
26.876	0.006220
26.894	0.006004
26.912	0.005794
26.93	0.005593
26.948	0.005403
26.966	0.005219
26.984	0.005032
27.002	0.004863
27.02	0.004732
27.028	0.004696