File: Bakgrunnsmateriale/MATLAB/FTIR/ftir_data/LPE454/Mapping_121/LPE454_t106_cm-1.asc
PE IR       SPECTRUM    SPECTRUM    ASCII       PEDS        1.60
  -1
LP09DC~1.ASC
17/05/19
23:03:48.00
17/05/19
23:03:48.00
tln
$LPE454_t0106$<tbV0>[-2.6,10.4,8.0,0.0,27,1,0]
370
64

2002,4.07
MIRTGS : RIGHTBACK : INTERNAL 2
MIR : ON : INTERNAL 2
OPTKBR

0.200000
8
8.000000
FILLER
RATIO
SPECTRUM
UNLOCKED 256

DOUBLE
64
COMBINED
1
0
0

1.000000
RATIO

1
0
TRUE
51149
0
LEFT NOT FITTED RIGHT NOT FITTED 0
NONE
NONE
15600
12
4.427000
51148
TRUE
1 0 8 72 0 0 0 0

15798

#HDR
-1
-1
#GR
CM-1
%T
2.38419e-05
0.0
5000
-1.000000
4631
8
42.0459
-16.0217
#DATA
5000	-0.053763
4996	0.156664
4992	0.304317
4988	0.039100
4984	-0.241494
4980	-0.199985
4976	0.081872
4972	0.337624
4968	0.274467
4964	0.142693
4960	0.227212
4956	0.213384
4952	0.115489
4948	0.381660
4944	0.611233
4940	0.369119
4936	0.238800
4932	0.491404
4928	0.777745
4924	0.817632
4920	0.659060
4916	0.271821
4912	-0.291872
4908	-0.530028
4904	-0.248670
4900	0.188231
4896	0.468015
4892	0.674510
4888	0.619029
4884	0.091433
4880	-0.190782
4876	0.218415
4872	0.496459
4868	0.383114
4864	0.328564
4860	0.277638
4856	0.205779
4852	0.123310
4848	-0.095701
4844	-0.205659
4840	0.044941
4836	0.335979
4832	0.315046
4828	0.086665
4824	0.074720
4820	0.191903
4816	0.088262
4812	0.024008
4808	0.064325
4804	0.109267
4800	0.247883
4796	0.300312
4792	0.252890
4788	0.287461
4784	0.252604
4780	0.271606
4776	0.458407
4772	0.429391
4768	0.133585
4764	-0.017547
4760	0.200748
4756	0.433421
4752	0.422739
4748	0.293278
4744	0.256204
4740	0.312423
4736	0.289916
4732	0.259041
4728	0.349116
4724	0.567579
4720	0.758481
4716	0.740575
4712	0.640916
4708	0.678944
4704	0.611448
4700	0.421047
4696	0.372695
4692	0.416135
4688	0.610399
4684	0.902819
4680	1.044273
4676	0.983691
4672	0.927472
4668	0.975704
4664	0.916886
4660	0.729632
4656	0.559830
4652	0.563597
4648	0.781941
4644	0.952839
4640	0.794029
4636	0.717544
4632	1.068496
4628	1.123070
4624	0.809907
4620	1.043009
4616	2.012109
4612	2.986764
4608	3.516101
4604	4.053568
4600	5.578851
4596	0.022530
4592	-12.1756
4588	-15.4948
4584	-7.012939
4580	0.051116
4576	1.703143
4572	1.578021
4568	0.944757
4564	0.400161
4560	-0.074553
4556	-0.082564
4552	0.309586
4548	0.294876
4544	-0.032901
4540	-0.040674
4536	0.214290
4532	0.492739
4528	0.724029
4524	0.995969
4520	1.357436
4516	1.154088
4512	0.414299
4508	0.160980
4504	0.426268
4500	0.515007
4496	0.311994
4492	0.181698
4488	0.196385
4484	0.283813
4480	0.347042
4476	0.343847
4472	0.381803
4468	0.458979
4464	0.389480
4460	0.316429
4456	0.404906
4452	0.401639
4448	0.392293
4444	0.439023
4440	0.320887
4436	0.209617
4432	0.153994
4428	0.082540
4424	-0.006842
4420	-0.086283
4416	0.049543
4412	0.351142
4408	0.545454
4404	0.551843
4400	0.484180
4396	0.431346
4392	0.383472
4388	0.315284
4384	0.261187
4380	0.183701
4376	0.103449
4372	0.072979
4368	0.100088
4364	0.229048
4360	0.291776
4356	0.137233
4352	-0.065135
4348	-0.111174
4344	-0.119876
4340	-0.078248
4336	0.090718
4332	0.243473
4328	0.291180
4324	0.148224
4320	-0.040221
4316	-0.139284
4312	-0.078392
4308	-0.032711
4304	-0.031590
4300	0.118780
4296	0.275826
4292	0.272035
4288	0.196385
4284	0.167322
4280	0.165629
4276	0.213861
4272	0.235486
4268	0.093293
4264	-0.006222
4260	0.017166
4256	0.049924
4252	0.086450
4248	0.141882
4244	0.181078
4240	0.174093
4236	0.143766
4232	0.022578
4228	-0.081634
4224	0.032782
4220	0.192666
4216	0.218009
4212	0.120520
4208	-0.007939
4204	-0.028920
4200	-0.054812
4196	-0.182056
4192	-0.233006
4188	0.007414
4184	0.341749
4180	0.363183
4176	0.134825
4172	0.118851
4168	0.315976
4164	0.422334
4160	0.327038
4156	0.190353
4152	0.077247
4148	-0.081062
4144	-0.268077
4140	-0.416231
4136	-0.388884
4132	-0.211668
4128	0.022268
4124	0.237607
4120	0.354027
4116	0.241112
4112	-0.027847
4108	-0.319218
4104	-0.556254
4100	-0.417041
4096	0.002050
4092	0.041604
4088	-0.197196
4084	-0.083374
4080	0.422716
4076	1.063799
4072	1.650643
4068	1.846027
4064	1.384854
4060	0.472450
4056	-0.247550
4052	-0.243449
4048	0.273847
4044	0.789642
4040	1.192879
4036	1.165270
4032	0.651860
4028	0.196623
4024	-0.104546
4020	-0.294637
4016	-0.189995
4012	0.049424
4008	0.064635
4004	-0.044560
4000	0.022625
3996	0.129437
3992	0.054669
3988	-0.082421
3984	-0.116324
3980	0.009775
3976	0.169301
3972	0.202322
3968	0.283837
3964	0.404906
3960	0.334787
3956	0.149416
3952	-0.017547
3948	-0.087380
3944	0.011014
3940	0.093984
3936	0.063538
3932	0.041413
3928	0.058102
3924	0.058102
3920	0.076079
3916	0.170183
3912	0.203752
3908	0.159478
3904	0.111842
3900	0.103306
3896	0.205683
3892	0.303888
3888	0.262069
3884	0.169682
3880	0.154376
3876	0.133490
3872	0.062680
3868	-0.000143
3864	0.036740
3860	0.159573
3856	0.199365
3852	0.134873
3848	0.047802
3844	0.052213
3840	0.169587
3836	0.197267
3832	0.140428
3828	0.200009
3824	0.241065
3820	0.166368
3816	0.067234
3812	0.032401
3808	0.115919
3804	0.138950
3800	0.096416
3796	0.153732
3792	0.173282
3788	0.067210
3784	-0.038218
3780	-0.061130
3776	0.017118
3772	0.111365
3768	0.117468
3764	0.063657
3760	0.064420
3756	0.058412
3752	0.041413
3748	0.145530
3744	0.238800
3740	0.173020
3736	0.072789
3732	0.062274
3728	0.095868
3724	0.084638
3720	0.036358
3716	0.012016
3712	0.060510
3708	0.089311
3704	0.050711
3700	0.086021
3696	0.111865
3692	0.054812
3688	0.079774
3684	0.135421
3680	0.147318
3676	0.153636
3672	0.181841
3668	0.257825
3664	0.247240
3660	0.170898
3656	0.178861
3652	0.211977
3648	0.248098
3644	0.240921
3640	0.171566
3636	0.154709
3632	0.145244
3628	0.118756
3624	0.129675
3620	0.141477
3616	0.107169
3612	0.064158
3608	0.101852
3604	0.190520
3600	0.241947
3596	0.225710
3592	0.147676
3588	0.064444
3584	-0.000405
3580	-0.011730
3576	0.048303
3572	0.089359
3568	0.118088
3564	0.183010
3560	0.180006
3556	0.134015
3552	0.213980
3548	0.319314
3544	0.232100
3540	0.061845
3536	0.013899
3532	0.002288
3528	-0.041031
3524	-0.020694
3520	0.015568
3516	0.027656
3512	0.088739
3508	0.159978
3504	0.161075
3500	0.128769
3496	0.160765
3492	0.220084
3488	0.211310
3484	0.169897
3480	0.118494
3476	0.056743
3472	0.023293
3468	0.029468
3464	0.035309
3460	-0.000691
3456	-0.038099
3452	-0.001120
3448	0.097227
3444	0.147080
3440	0.073814
3436	-0.037097
3432	-0.031399
3428	0.052690
3424	0.101113
3420	0.125288
3416	0.165128
3412	0.188279
3408	0.172758
3404	0.134396
3400	0.050640
3396	-0.008344
3392	0.077271
3388	0.122475
3384	-0.010895
3380	-0.078153
3376	0.019836
3372	0.117874
3368	0.120186
3364	0.040721
3360	-0.053381
3356	-0.056838
3352	0.041580
3348	0.118041
3344	0.085997
3340	0.010728
3336	0.008130
3332	0.074338
3328	0.113248
3324	0.085854
3320	0.030803
3316	0.001263
3312	0.060915
3308	0.185036
3304	0.217270
3300	0.168681
3296	0.116014
3292	0.083684
3288	0.075840
3284	0.062060
3280	0.068688
3276	0.032663
3272	-0.019907
3268	0.026679
3264	0.091123
3260	0.079989
3256	0.001740
3252	-0.041508
3248	-0.001382
3244	0.056052
3240	0.103330
3236	0.127744
3232	0.125408
3228	0.088453
3224	0.022387
3220	0.022101
3216	0.082302
3212	0.078678
3208	0.055480
3204	0.086712
3200	0.087141
3196	-0.008273
3192	-0.092530
3188	-0.059270
3184	0.012922
3180	0.060296
3176	0.090384
3172	0.118494
3168	0.138497
3164	0.131940
3160	0.117659
3156	0.081229
3152	0.053715
3148	0.068902
3144	0.082492
3140	0.042486
3136	-0.029516
3132	-0.020360
3128	0.084710
3124	0.173377
3120	0.169038
3116	0.148916
3112	0.159144
3108	0.143170
3104	0.123739
3100	0.121593
3096	0.118660
3092	0.100564
3088	0.072073
3084	0.090360
3080	0.165605
3076	0.184559
3072	0.071644
3068	-0.028038
3064	0.037169
3060	0.138354
3056	0.134205
3052	0.093722
3048	0.095415
3044	0.135636
3040	0.096559
3036	-0.016236
3032	-0.016403
3028	0.012993
3024	-0.030016
3020	-0.023436
3016	-0.003361
3012	-0.008583
3008	0.036239
3004	0.083589
3000	0.063657
2996	0.022602
2992	0.020766
2988	0.032973
2984	0.028085
2980	0.003075
2976	0.018763
2972	0.076937
2968	0.074458
2964	0.021719
2960	0.013923
2956	0.030708
2952	0.014996
2948	-0.005269
2944	-0.023937
2940	-0.033307
2936	-0.016784
2932	0.017309
2928	0.036025
2924	0.023984
2920	0.057625
2916	0.103354
2912	0.094723
2908	0.047349
2904	-0.029063
2900	-0.004744
2896	0.115537
2892	0.131344
2888	0.053906
2884	-0.014519
2880	-0.060129
2876	-0.067496
2872	-0.070095
2868	-0.052714
2864	-0.016617
2860	-0.023603
2856	0.005817
2852	0.065970
2848	0.052380
2844	0.029730
2840	0.067543
2836	0.032973
2832	-0.112843
2828	-0.132799
2824	-0.019168
2820	0.011754
2816	-0.000023
2812	0.041723
2808	0.084257
2804	0.100588
2800	0.091004
2796	0.074887
2792	0.028157
2788	-0.071835
2784	-0.097727
2780	-0.041365
2776	-0.026917
2772	-0.019288
2768	0.053977
2764	0.129890
2760	0.138878
2756	0.099611
2752	0.043702
2748	0.005078
2744	0.013589
2740	0.065541
2736	0.114274
2732	0.131487
2728	0.127530
2724	0.068664
2720	-0.021648
2716	-0.057816
2712	-0.027894
2708	0.031065
2704	0.029230
2700	-0.054335
2696	-0.090265
2692	-0.047969
2688	-0.005459
2684	0.001597
2680	0.010776
2676	0.068473
2672	0.093197
2668	0.037360
2664	-0.027561
2660	-0.063610
2656	-0.066518
2652	-0.041747
2648	-0.003218
2644	0.001478
2640	-0.063776
2636	-0.122952
2632	-0.100207
2628	-0.023031
2624	0.016307
2620	-0.000023
2616	-0.000643
2612	0.015401
2608	0.025725
2604	0.031328
2600	0.023698
2596	0.022077
2592	0.027894
2588	0.017642
2584	0.020384
2580	0.027465
2576	0.019907
2572	0.031852
2568	0.013327
2564	-0.058102
2560	-0.086355
2556	-0.054097
2552	-0.027799
2548	-0.008058
2544	0.047898
2540	0.106215
2536	0.087332
2532	0.022006
2528	0.004839
2524	0.038051
2520	0.062084
2516	0.037360
2512	-0.027418
2508	-0.077009
2504	-0.056934
2500	0.022339
2496	0.069975
2492	0.026345
2488	-0.042772
2484	-0.023174
2480	0.093173
2476	0.122857
2472	0.044083
2468	0.074815
2464	0.159597
2460	0.128078
2456	0.035381
2452	0.019693
2448	0.084400
2444	0.123977
2440	0.108432
2436	0.047659
2432	0.009512
2428	0.100159
2424	0.197434
2420	0.108146
2416	-0.016045
2412	-0.015258
2408	0.061631
2404	0.208473
2400	0.299811
2396	0.240230
2392	0.180768
2388	0.215077
2384	0.272274
2380	0.272750
2376	0.242614
2372	0.238394
2368	0.250005
2364	0.268936
2360	0.312519
2356	0.381970
2352	0.461792
2348	0.481939
2344	0.484871
2340	0.617122
2336	0.781822
2332	0.865054
2328	0.941181
2324	1.021575
2320	1.074576
2316	1.131319
2312	1.212716
2308	1.317214
2304	1.430249
2300	1.524662
2296	1.640200
2292	1.810050
2288	2.002096
2284	2.179288
2280	2.315592
2276	2.471661
2272	2.711129
2268	2.907657
2264	3.011035
2260	3.172731
2256	3.404831
2252	3.663039
2248	3.948926
2244	4.228329
2240	4.533576
2236	4.893779
2232	5.240678
2228	5.549764
2224	5.881047
2220	6.259679
2216	6.646585
2212	6.999278
2208	7.377552
2204	7.816243
2200	8.266758
2196	8.719611
2192	9.182500
2188	9.661841
2184	10.1549
2180	10.673
2176	11.1946
2172	11.6865
2168	12.1851
2164	12.6988
2160	13.2068
2156	13.7249
2152	14.2639
2148	14.8315
2144	15.3883
2140	15.8706
2136	16.3413
2132	16.9044
2128	17.4832
2124	17.9763
2120	18.4697
2116	18.9894
2112	19.4927
2108	20.0511
2104	20.6446
2100	21.1581
2096	21.63
2092	22.1419
2088	22.6313
2084	23.047
2080	23.5165
2076	24.0916
2072	24.6515
2068	25.1059
2064	25.4749
2060	25.8399
2056	26.2645
2052	26.7339
2048	27.1591
2044	27.5482
2040	27.9378
2036	28.2641
2032	28.5469
2028	28.8917
2024	29.2856
2020	29.6508
2016	29.919
2012	30.13
2008	30.3934
2004	30.671
2000	30.9378
1996	31.2415
1992	31.5348
1988	31.7939
1984	32.0729
1980	32.3507
1976	32.5733
1972	32.7805
1968	32.9999
1964	33.1987
1960	33.38
1956	33.5583
1952	33.7164
1948	33.8277
1944	33.9398
1940	34.1198
1936	34.3434
1932	34.5407
1928	34.6796
1924	34.7921
1920	34.9216
1916	35.0837
1912	35.2256
1908	35.3536
1904	35.507
1900	35.6353
1896	35.7327
1892	35.8022
1888	35.8222
1884	35.8476
1880	35.9536
1876	36.0989
1872	36.1963
1868	36.3018
1864	36.4381
1860	36.5291
1856	36.5964
1852	36.6633
1848	36.7282
1844	36.8106
1840	36.8853
1836	36.9474
1832	36.9571
1828	36.8737
1824	36.8351
1820	36.9205
1816	36.9988
1812	37.0182
1808	37.0571
1804	37.1513
1800	37.2711
1796	37.3737
1792	37.4366
1788	37.5062
1784	37.6131
1780	37.6444
1776	37.5492
1772	37.4697
1768	37.4613
1764	37.4592
1760	37.4704
1756	37.4831
1752	37.4839
1748	37.5201
1744	37.6031
1740	37.6762
1736	37.711
1732	37.7724
1728	37.8338
1724	37.837
1720	37.8451
1716	37.85
1712	37.8168
1708	37.8053
1704	37.781
1700	37.684
1696	37.6097
1692	37.6393
1688	37.7467
1684	37.8607
1680	37.9095
1676	37.9391
1672	38.0324
1668	38.1044
1664	38.1051
1660	38.1231
1656	38.1361
1652	38.0745
1648	37.9982
1644	37.9753
1640	37.9653
1636	37.9352
1632	37.9117
1628	37.93
1624	37.9374
1620	37.8881
1616	37.8884
1612	38.0033
1608	38.1086
1604	38.1398
1600	38.1878
1596	38.2181
1592	38.1867
1588	38.1503
1584	38.0989
1580	38.0275
1576	37.9478
1572	37.8673
1568	37.8186
1564	37.7991
1560	37.7983
1556	37.8197
1552	37.87
1548	37.9991
1544	38.1346
1540	38.1864
1536	38.209
1532	38.2161
1528	38.226
1524	38.216
1520	38.1498
1516	38.0715
1512	37.9931
1508	37.9006
1504	37.7683
1500	37.6508
1496	37.6608
1492	37.7724
1488	37.8543
1484	37.9186
1480	38.0502
1476	38.2248
1472	38.3777
1468	38.4306
1464	38.3188
1460	38.1081
1456	37.981
1452	38.0561
1448	38.1181
1444	38.0013
1440	37.8606
1436	37.7446
1432	37.6547
1428	37.6896
1424	37.8315
1420	37.9766
1416	38.0935
1412	38.1509
1408	38.1314
1404	38.1554
1400	38.2258
1396	38.1861
1392	38.0666
1388	38.0057
1384	37.9724
1380	37.8803
1376	37.7845
1372	37.6927
1368	37.6121
1364	37.6468
1360	37.7631
1356	37.8706
1352	37.9958
1348	38.0909
1344	38.1193
1340	38.1644
1336	38.2228
1332	38.1907
1328	38.1003
1324	38.015
1320	37.9019
1316	37.7447
1312	37.5588
1308	37.471
1304	37.4895
1300	37.5067
1296	37.603
1292	37.7574
1288	37.8285
1284	37.9096
1280	38.0994
1276	38.2457
1272	38.2507
1268	38.1758
1264	38.0452
1260	37.8963
1256	37.7821
1252	37.6641
1248	37.5046
1244	37.3246
1240	37.1994
1236	37.2128
1232	37.3379
1228	37.4822
1224	37.6281
1220	37.8163
1216	37.9703
1212	38.0134
1208	38.0071
1204	37.9942
1200	37.9483
1196	37.8574
1192	37.7061
1188	37.4889
1184	37.3006
1180	37.1861
1176	37.0921
1172	37.074
1168	37.2001
1164	37.3605
1160	37.4801
1156	37.6274
1152	37.7717
1148	37.8506
1144	37.8906
1140	37.8659
1136	37.7982
1132	37.7207
1128	37.5482
1124	37.2988
1120	37.1243
1116	37.046
1112	37.0073
1108	36.9722
1104	36.9226
1100	36.9983
1096	37.2063
1092	37.3731
1088	37.4875
1084	37.5324
1080	37.5201
1076	37.5552
1072	37.6095
1068	37.6211
1064	37.5083
1060	37.2464
1056	36.9722
1052	36.706
1048	36.4329
1044	36.2828
1040	36.3255
1036	36.4623
1032	36.6492
1028	36.9249
1024	37.16
1020	37.271
1016	37.3022
1012	37.2496
1008	37.2184
1004	37.1952
1000	37.0228
996	 36.8177
992	 36.6648
988	 36.4851
984	 36.3072
980	 36.1825
976	 36.118
972	 36.1347
968	 36.2582
964	 36.4761
960	 36.6652
956	 36.762
952	 36.841
948	 36.9507
944	 37.0578
940	 37.0205
936	 36.8399
932	 36.6487
928	 36.4187
924	 36.1406
920	 35.9409
916	 35.8055
912	 35.6686
908	 35.6403
904	 35.7594
900	 35.928
896	 36.1216
892	 36.275
888	 36.2857
884	 36.2997
880	 36.4097
876	 36.4189
872	 36.2892
868	 36.0372
864	 35.7358
860	 35.5294
856	 35.3236
852	 35.1054
848	 35.0086
844	 34.9957
840	 34.9455
836	 34.9448
832	 35.1529
828	 35.5191
824	 35.9065
820	 36.0613
816	 35.9045
812	 35.739
808	 35.622
804	 35.4004
800	 35.1131
796	 34.8154
792	 34.5211
788	 34.2668
784	 34
780	 33.8058
776	 33.8893
772	 34.1458
768	 34.4226
764	 34.7368
760	 35.0902
756	 35.3757
752	 35.2596
748	 34.8702
744	 34.7095
740	 34.7139
736	 34.4881
732	 34.0073
728	 33.6203
724	 33.4033
720	 33.2651
716	 33.2386
712	 33.2771
708	 33.2924
704	 33.3344
700	 33.4337
696	 33.5373
692	 33.6269
688	 33.778
684	 33.9505
680	 33.947
676	 33.7368
672	 33.409
668	 33.0888
664	 32.7295
660	 32.2804
656	 31.9666
652	 31.8714
648	 31.8694
644	 31.9116
640	 31.96
636	 32.081
632	 32.358
628	 32.6091
624	 32.8004
620	 32.9122
616	 32.8595
612	 32.7379
608	 32.4864
604	 32.0652
600	 31.6871
596	 31.3733
592	 30.8992
588	 30.3053
584	 29.8832
580	 29.907
576	 30.2357
572	 30.3481
568	 30.5391
564	 30.9713
560	 31.0288
556	 30.6873
552	 30.2108
548	 30.1313
544	 30.784
540	 31.3932
536	 31.1756
532	 30.5173
528	 29.8455
524	 29.3307
520	 29.6729
516	 30.2175
512	 30.2176
508	 30.1612
504	 29.9508
500	 29.1522
496	 28.3211
492	 28.6731
488	 29.3485
484	 28.8357
480	 28.178
476	 28.3618
472	 28.6911
468	 28.6247
464	 27.8919
460	 26.3944
456	 25.1756
452	 25.2577
448	 26.616
444	 28.073
440	 27.7959
436	 26.275
432	 25.7087
428	 25.7755
424	 25.1575
420	 25.5354
416	 27.1333
412	 27.4368
408	 26.2311
404	 28.179
400	 35.0662
396	 40.6412
392	 41.6809
388	 32.2555
384	 17.0826
380	 10.9632
376	 14.8464
372	 2.721500
370	 -8.003187