File: Bakgrunnsmateriale/MATLAB/FTIR/ftir_data/LPE454/Mapping_121/LPE454_t21.asc
PE IR       SPECTRUM    SPECTRUM    ASCII       PEDS        1.60
  -1
LPCB98~1.ASC
17/05/19
16:02:10.00
17/05/19
16:02:36.00
tln
$LPE454_t0021$<tbV0>[-10.4,-10.4,8.0,0.0,27,1,0]
27.028
64

2002,4.07
MIRTGS : RIGHTBACK : INTERNAL 2
MIR : ON : INTERNAL 2
OPTKBR

0.200000
8
8.000000
FILLER
RATIO
SPECTRUM
UNLOCKED 256

DOUBLE
64
COMBINED
1
0
0

0.002000
RATIO

1
0
TRUE
51149
0
LEFT NOT FITTED RIGHT NOT FITTED 0
NONE
NONE
15600
12
4.427000
51148
TRUE
1 0 8 72 0 0 0 0

15798

#HDR
-1
-1
#GR
µM
%T
2.38419e-05
0.0
2.000000
0.002000
12515
8
38.9519
-3.709710
#DATA
2.000000	 0.611066
2.018000	 0.325187
2.036000	 -0.196532
2.054000	 0.269244
2.072000	 -0.342906
2.090000	 -0.075879
2.108000	 0.035533
2.126000	 0.264057
2.144000	 0.583466
2.162000	 -1.189795
2.180000	 -0.697769
2.198000	 0.254537
2.216000	 3.351654
2.234000	 -0.258735
2.252000	 -0.791682
2.270000	 0.135137
2.288000	 0.224472
2.306000	 0.072521
2.324000	 0.116264
2.342000	 -0.003907
2.360000	 0.000822
2.378000	 0.166752
2.396000	 0.250542
2.414000	 0.021505
2.432000	 0.001696
2.450000	 0.124532
2.468000	 -0.098601
2.486000	 0.190315
2.504000	 0.102233
2.522000	 0.071640
2.540000	 -0.000673
2.558000	 -0.155016
2.576000	 0.007790
2.594000	 0.018329
2.612000	 0.145745
2.630000	 -0.100772
2.648000	 0.157527
2.666000	 -0.126426
2.684000	 0.032396
2.702000	 0.044215
2.720000	 0.209201
2.738000	 0.110940
2.756000	 -0.060201
2.774000	 0.044680
2.792000	 0.102907
2.810000	 0.145030
2.828000	 0.120537
2.846000	 0.005589
2.864000	 0.079031
2.882000	 0.334568
2.900000	 0.106614
2.918000	 0.057607
2.936000	 -0.003050
2.954000	 0.043187
2.972000	 0.006446
2.990000	 0.074783
3.008000	 0.025293
3.026000	 0.114017
3.044000	 0.034721
3.062000	 -0.060811
3.080000	 0.020935
3.098000	 0.002990
3.116000	 0.027095
3.134000	 0.155789
3.152000	 -0.064609
3.170000	 0.060862
3.188000	 0.253778
3.206000	 -0.161235
3.224000	 -0.031218
3.242000	 0.048415
3.260000	 0.019576
3.278000	 -0.014016
3.296000	 0.008968
3.314000	 0.130620
3.332000	 0.001769
3.350000	 -0.038915
3.368000	 -0.027933
3.386000	 0.057164
3.404000	 0.103705
3.422000	 -0.162234
3.440000	 0.076330
3.458000	 0.067781
3.476000	 0.069304
3.494000	 -0.108761
3.512000	 -0.016072
3.530000	 0.097250
3.548000	 0.004508
3.566000	 0.092272
3.584000	 0.011812
3.602000	 0.052084
3.620000	 0.076147
3.638000	 0.130391
3.656000	 -0.063243
3.674000	 0.083318
3.692000	 -0.052870
3.710000	 0.064224
3.728000	 0.015111
3.746000	 -0.047266
3.764000	 0.026539
3.782000	 -0.035119
3.800000	 0.018564
3.818000	 0.103304
3.836000	 -0.034885
3.854000	 0.056672
3.872000	 0.018709
3.890000	 -0.009182
3.908000	 0.040927
3.926000	 0.033089
3.944000	 0.109978
3.962000	 -0.006116
3.980000	 -0.095622
3.998000	 0.135998
4.016000	 0.088405
4.034000	 -0.055360
4.052000	 -0.112190
4.070000	 0.022649
4.088000	 -0.151025
4.106000	 0.075967
4.124000	 0.115844
4.141999	 -0.273291
4.160000	 0.031857
4.178000	 0.083246
4.196000	 -0.014706
4.214000	 0.065283
4.232000	 0.103004
4.250000	 0.165369
4.268000	 0.053911
4.286000	 0.121986
4.304000	 0.214707
4.322000	 0.340603
4.340000	 0.382735
4.358000	 0.450665
4.375999	 0.619940
4.394000	 0.755574
4.412000	 0.851888
4.430000	 1.004422
4.448000	 1.141667
4.466000	 1.413272
4.484000	 1.740724
4.502000	 2.076249
4.520000	 2.330764
4.538000	 2.735504
4.556000	 3.151050
4.574000	 3.514726
4.592000	 3.914785
4.609999	 4.472174
4.628000	 4.820190
4.646000	 5.473251
4.664000	 5.753333
4.682000	 6.361905
4.700000	 6.989874
4.718000	 7.492529
4.736000	 8.015007
4.754000	 8.467930
4.772000	 8.838736
4.790000	 9.548728
4.808000	 9.798016
4.826000	 10.387
4.843999	 10.9951
4.862000	 11.069
4.880000	 11.562
4.898000	 12.0457
4.916000	 12.3075
4.934000	 12.6013
4.952000	 12.9422
4.970000	 13.2572
4.988000	 13.5639
5.006000	 13.8368
5.024000	 14.0829
5.042000	 14.3501
5.060000	 14.6489
5.077999	 14.9176
5.096000	 15.1481
5.114000	 15.2494
5.132000	 15.4695
5.150000	 15.7387
5.168000	 15.8248
5.186000	 15.9315
5.204000	 15.9909
5.222000	 16.1162
5.240000	 16.2715
5.258000	 16.4654
5.276000	 16.6229
5.294000	 16.759
5.312000	 16.771
5.330000	 16.9142
5.348000	 17.0178
5.366000	 17.0486
5.384000	 17.2169
5.402000	 17.3553
5.420000	 17.4398
5.438000	 17.5624
5.456000	 17.651
5.474000	 17.6797
5.492000	 17.7338
5.510000	 17.8184
5.528000	 17.922
5.546000	 17.946
5.564000	 18.1225
5.582000	 18.2282
5.600000	 18.1724
5.618000	 18.202
5.636000	 18.285
5.654000	 18.3491
5.672000	 18.3632
5.690000	 18.396
5.708000	 18.3285
5.726000	 18.3813
5.744000	 18.5442
5.762000	 18.6003
5.780000	 18.5985
5.798000	 18.6962
5.816000	 18.7928
5.834000	 18.8451
5.852000	 18.8189
5.870000	 18.7523
5.888000	 18.7964
5.906000	 18.8065
5.923999	 18.8219
5.942000	 18.9167
5.960000	 18.9564
5.978000	 19.0528
5.996000	 19.125
6.014000	 19.1731
6.032000	 19.1313
6.050000	 19.0841
6.068000	 19.0828
6.086000	 19.1252
6.104000	 19.1186
6.122000	 19.1087
6.140000	 19.1926
6.158000	 19.2728
6.176000	 19.2813
6.194000	 19.2277
6.212000	 19.1736
6.230000	 19.1695
6.248000	 19.178
6.266000	 19.1824
6.284000	 19.1975
6.302000	 19.2452
6.320000	 19.3247
6.338000	 19.4043
6.356000	 19.457
6.374000	 19.4502
6.392000	 19.4762
6.410000	 19.5264
6.428000	 19.4564
6.446000	 19.4744
6.464000	 19.5563
6.482000	 19.5357
6.500000	 19.5425
6.518000	 19.5332
6.536000	 19.5055
6.554000	 19.5733
6.572000	 19.6404
6.590000	 19.6149
6.608000	 19.5533
6.626000	 19.5411
6.644000	 19.5751
6.662000	 19.62
6.680000	 19.6895
6.698000	 19.714
6.716000	 19.6578
6.734000	 19.631
6.752000	 19.6425
6.770000	 19.6627
6.788000	 19.6718
6.806000	 19.6408
6.824000	 19.6428
6.842000	 19.644
6.860000	 19.5814
6.878000	 19.624
6.896000	 19.8101
6.914000	 19.8995
6.932000	 19.825
6.950000	 19.7603
6.968000	 19.7935
6.986000	 19.8493
7.004000	 19.8551
7.022000	 19.8072
7.040000	 19.7481
7.058000	 19.6937
7.076000	 19.646
7.094000	 19.6579
7.112000	 19.7374
7.130000	 19.7993
7.148000	 19.8012
7.166000	 19.7773
7.184000	 19.776
7.202000	 19.8145
7.220000	 19.8392
7.238000	 19.818
7.256000	 19.8134
7.274000	 19.8359
7.292000	 19.8202
7.310000	 19.7682
7.328000	 19.7395
7.346000	 19.7576
7.364000	 19.8007
7.382000	 19.8466
7.400000	 19.8998
7.418000	 19.9591
7.436000	 20.0013
7.454000	 20.0221
7.472000	 20.0313
7.490000	 20.0242
7.508000	 20.0088
7.526000	 20.0025
7.544000	 19.9938
7.562000	 19.9739
7.580000	 19.9553
7.598000	 19.9356
7.616000	 19.9157
7.634000	 19.9186
7.652000	 19.9324
7.670000	 19.9149
7.688000	 19.8732
7.706000	 19.8525
7.724000	 19.8584
7.742000	 19.8688
7.760000	 19.8931
7.778000	 19.9486
7.796000	 20.0022
7.814000	 20.0095
7.832000	 19.9857
7.850000	 19.974
7.868000	 19.9794
7.886000	 19.9915
7.904000	 20.0233
7.922000	 20.073
7.940000	 20.0987
7.958000	 20.0772
7.976000	 20.0414
7.994000	 20.0339
8.012000	 20.0541
8.030000	 20.0575
8.048000	 20.0067
8.065999	 19.9165
8.084000	 19.8429
8.102000	 19.8327
8.120000	 19.8862
8.138000	 19.9727
8.155999	 20.0685
8.173999	 20.1608
8.192000	 20.227
8.210000	 20.2421
8.228000	 20.215
8.246000	 20.1825
8.263999	 20.1583
8.282000	 20.1191
8.300000	 20.0542
8.318000	 19.9974
8.336000	 19.9927
8.353999	 20.0353
8.372000	 20.0742
8.390000	 20.0733
8.408000	 20.0456
8.426000	 20.0226
8.443999	 20.0099
8.462000	 19.9915
8.480000	 19.967
8.498000	 19.956
8.516000	 19.9717
8.533999	 20.0058
8.552000	 20.0439
8.570000	 20.0808
8.588000	 20.1134
8.606000	 20.1287
8.624000	 20.1172
8.641999	 20.095
8.660000	 20.0917
8.678000	 20.1167
8.696000	 20.1507
8.714000	 20.1723
8.731999	 20.1795
8.750000	 20.1814
8.768000	 20.173
8.786000	 20.136
8.804000	 20.0717
8.821999	 20.0174
8.840000	 20.0162
8.858000	 20.0696
8.876000	 20.1374
8.894000	 20.1793
8.911999	 20.1882
8.930000	 20.1804
8.948000	 20.167
8.966000	 20.1522
8.984000	 20.1499
9.001999	 20.1797
9.020000	 20.2351
9.038000	 20.2733
9.056000	 20.2605
9.074000	 20.2196
9.092000	 20.2141
9.109999	 20.2773
9.128000	 20.3713
9.146000	 20.4263
9.164000	 20.4102
9.182000	 20.3465
9.199999	 20.2716
9.218000	 20.1905
9.236000	 20.0835
9.254000	 19.9459
9.272000	 19.8109
9.289999	 19.7278
9.308000	 19.7227
9.326000	 19.7786
9.344000	 19.853
9.362000	 19.9124
9.379999	 19.9503
9.398000	 19.9785
9.416000	 20.0047
9.434000	 20.0212
9.452000	 20.0164
9.469999	 19.9931
9.488000	 19.9712
9.506000	 19.9714
9.524000	 19.9942
9.542000	 20.0205
9.560000	 20.0305
9.577999	 20.0209
9.596000	 20.0059
9.614000	 20.0033
9.632000	 20.0211
9.650000	 20.0549
9.667999	 20.0942
9.686000	 20.1303
9.704000	 20.1596
9.722000	 20.1836
9.740000	 20.204
9.757999	 20.219
9.776000	 20.2225
9.794000	 20.2093
9.812000	 20.1818
9.830000	 20.1518
9.847999	 20.1324
9.866000	 20.1258
9.884000	 20.1207
9.902000	 20.1017
9.920000	 20.0626
9.937999	 20.0123
9.956000	 19.9658
9.974000	 19.931
9.992000	 19.9056
10.01	19.8832
10.028	19.8625
10.046	19.8487
10.064	19.8471
10.082	19.8573
10.1	19.8756
10.118	19.9017
10.136	19.9415
10.154	20.001
10.172	20.0773
10.19	20.1534
10.208	20.2066
10.226	20.2218
10.244	20.1998
10.262	20.1561
10.28	20.109
10.298	20.0687
10.316	20.0347
10.334	20.0011
10.352	19.9652
10.37	19.9321
10.388	19.9121
10.406	19.9119
10.424	19.9283
10.442	19.9464
10.46	19.9478
10.478	19.9192
10.496	19.8602
10.514	19.7827
10.532	19.7055
10.55	19.6463
10.568	19.6171
10.586	19.6221
10.604	19.6584
10.622	19.7179
10.64	19.7867
10.658	19.8487
10.676	19.8888
10.694	19.9001
10.712	19.8851
10.73	19.8547
10.748	19.8216
10.766	19.7948
10.784	19.7758
10.802	19.7612
10.82	19.7472
10.838	19.7335
10.856	19.7245
10.874	19.7262
10.892	19.741
10.91	19.7644
10.928	19.787
10.946	19.7975
10.964	19.788
10.982	19.7567
11	19.7076
11.018	19.6473
11.036	19.5827
11.054	19.5206
11.072	19.4664
11.09	19.4271
11.108	19.4087
11.126	19.4146
11.144	19.4419
11.162	19.4807
11.18	19.5176
11.198	19.5407
11.216	19.5443
11.234	19.5306
11.252	19.5082
11.27	19.4866
11.288	19.4723
11.306	19.4661
11.324	19.4626
11.342	19.4531
11.36	19.4309
11.378	19.3935
11.396	19.3449
11.414	19.2948
11.432	19.2547
11.45	19.2334
11.468	19.2338
11.486	19.2518
11.504	19.2782
11.522	19.302
11.54	19.3165
11.558	19.3205
11.576	19.3193
11.594	19.3217
11.612	19.3358
11.63	19.3658
11.648	19.411
11.666	19.4663
11.684	19.5251
11.702	19.5817
11.72	19.6327
11.738	19.6751
11.756	19.7063
11.774	19.7222
11.792	19.7178
11.81	19.6898
11.828	19.6382
11.846	19.5671
11.864	19.4847
11.882	19.4007
11.9	19.3244
11.918	19.2619
11.936	19.2149
11.954	19.182
11.972	19.1594
11.99	19.1434
12.008	19.1318
12.026	19.1238
12.044	19.1193
12.062	19.1177
12.08	19.117
12.098	19.1142
12.116	19.1066
12.134	19.0943
12.152	19.0802
12.17	19.0702
12.188	19.0716
12.206	19.0905
12.224	19.1288
12.242	19.1829
12.26	19.2445
12.278	19.3024
12.296	19.3455
12.314	19.3664
12.332	19.3638
12.35	19.3416
12.368	19.3086
12.386	19.2753
12.404	19.2504
12.422	19.2377
12.44	19.2364
12.458	19.2407
12.476	19.243
12.494	19.236
12.512	19.216
12.53	19.1843
12.548	19.1468
12.566	19.1116
12.584	19.0873
12.602	19.08
12.62	19.0907
12.638	19.115
12.656	19.1444
12.674	19.1687
12.692	19.1787
12.71	19.1685
12.728	19.137
12.746	19.0875
12.764	19.0271
12.782	18.9643
12.8	18.9066
12.818	18.8584
12.836	18.8205
12.854	18.7906
12.872	18.7651
12.89	18.7402
12.908	18.7133
12.926	18.684
12.944	18.6539
12.962	18.6246
12.98	18.5969
12.998	18.5698
13.016	18.5411
13.034	18.5084
13.052	18.4706
13.07	18.4296
13.088	18.3915
13.106	18.3656
13.124	18.3616
13.142	18.3868
13.16	18.4429
13.178	18.5243
13.196	18.6177
13.214	18.7058
13.232	18.771
13.25	18.8003
13.268	18.7886
13.286	18.7406
13.304	18.6693
13.322	18.5934
13.34	18.5326
13.358	18.5029
13.376	18.5132
13.394	18.5638
13.412	18.6471
13.43	18.7498
13.448	18.8567
13.466	18.9532
13.484	19.028
13.502	19.0739
13.52	19.0881
13.538	19.0711
13.556	19.0259
13.574	18.9564
13.592	18.8672
13.61	18.7637
13.628	18.651
13.646	18.5344
13.664	18.4189
13.682	18.3098
13.7	18.2114
13.718	18.127
13.736	18.0588
13.754	18.0075
13.772	17.9732
13.79	17.9547
13.808	17.9504
13.826	17.958
13.844	17.9744
13.862	17.996
13.88	18.0186
13.898	18.0376
13.916	18.0483
13.934	18.0467
13.952	18.0304
13.97	17.9991
13.988	17.9547
14.006	17.9013
14.024	17.8448
14.042	17.7915
14.06	17.7472
14.078	17.7161
14.096	17.7009
14.114	17.7017
14.132	17.7171
14.15	17.7441
14.168	17.7795
14.186	17.8199
14.204	17.8631
14.222	17.9076
14.24	17.9529
14.258	17.9989
14.276	18.0456
14.294	18.0924
14.312	18.1379
14.33	18.1798
14.348	18.2152
14.366	18.241
14.384	18.2545
14.402	18.2543
14.42	18.2401
14.438	18.2132
14.456	18.1762
14.474	18.1325
14.492	18.0864
14.51	18.0424
14.528	18.0039
14.546	17.9735
14.564	17.9528
14.582	17.9421
14.6	17.9407
14.618	17.9471
14.636	17.9591
14.654	17.974
14.672	17.989
14.69	18.0014
14.708	18.0086
14.726	18.0078
14.744	17.997
14.762	17.9745
14.78	17.9398
14.798	17.8935
14.816	17.8369
14.834	17.7726
14.852	17.7044
14.87	17.6359
14.888	17.5708
14.906	17.5123
14.924	17.4625
14.942	17.4222
14.96	17.3905
14.978	17.3657
14.996	17.3455
15.014	17.3273
15.032	17.3087
15.05	17.2883
15.068	17.2657
15.086	17.2416
15.104	17.2176
15.122	17.1963
15.14	17.18
15.158	17.1702
15.176	17.1681
15.194	17.1734
15.212	17.1847
15.23	17.1998
15.248	17.2161
15.266	17.2309
15.284	17.2416
15.302	17.2467
15.32	17.2461
15.338	17.2402
15.356	17.2307
15.374	17.2203
15.392	17.211
15.41	17.2048
15.428	17.2033
15.446	17.2067
15.464	17.2141
15.482	17.2238
15.5	17.2333
15.518	17.2388
15.536	17.2376
15.554	17.2272
15.572	17.2059
15.59	17.1735
15.608	17.1315
15.626	17.0818
15.644	17.0284
15.662	16.9765
15.68	16.9307
15.698	16.8955
15.716	16.8759
15.734	16.8751
15.752	16.8941
15.77	16.9334
15.788	16.9907
15.806	17.0617
15.824	17.1421
15.842	17.2259
15.86	17.3051
15.878	17.3746
15.896	17.4295
15.914	17.4647
15.932	17.4788
15.95	17.4715
15.968	17.4433
15.986	17.3983
16.004	17.3397
16.022	17.2717
16.04	17.2
16.058	17.1284
16.076	17.0599
16.094	16.9984
16.112	16.9453
16.13	16.9014
16.148	16.8672
16.166	16.8421
16.184	16.8252
16.202	16.8161
16.22	16.8133
16.238	16.8162
16.256	16.824
16.274	16.8357
16.292	16.8506
16.31	16.8677
16.328	16.8857
16.346	16.9031
16.364	16.9185
16.382	16.9301
16.4	16.9364
16.418	16.9364
16.436	16.9288
16.454	16.9134
16.472	16.8901
16.49	16.8591
16.508	16.8211
16.526	16.7766
16.544	16.7269
16.562	16.6729
16.58	16.6153
16.598	16.5552
16.616	16.4933
16.634	16.43
16.652	16.3662
16.67	16.3023
16.688	16.2386
16.706	16.176
16.724	16.1151
16.742	16.0565
16.76	16.0011
16.778	15.9492
16.796	15.9016
16.814	15.8586
16.832	15.8202
16.85	15.7868
16.868	15.7579
16.886	15.7334
16.904	15.713
16.922	15.6964
16.94	15.6833
16.958	15.6734
16.976	15.6667
16.994	15.6629
17.012	15.662
17.03	15.6638
17.048	15.668
17.066	15.6741
17.084	15.6819
17.102	15.6901
17.12	15.6982
17.138	15.7052
17.156	15.7108
17.174	15.7145
17.192	15.7164
17.21	15.7168
17.228	15.7164
17.246	15.7162
17.264	15.7168
17.282	15.7198
17.3	15.7256
17.318	15.7354
17.336	15.7494
17.354	15.7679
17.372	15.7901
17.39	15.8154
17.408	15.8421
17.426	15.8689
17.444	15.8947
17.462	15.9171
17.48	15.9356
17.498	15.9486
17.516	15.9557
17.534	15.9563
17.552	15.9512
17.57	15.9405
17.588	15.9256
17.606	15.9073
17.624	15.8871
17.642	15.866
17.66	15.8447
17.678	15.8242
17.696	15.8045
17.714	15.7855
17.732	15.7665
17.75	15.7471
17.768	15.7255
17.786	15.7011
17.804	15.6721
17.822	15.6381
17.84	15.5974
17.858	15.5499
17.876	15.4951
17.894	15.4334
17.912	15.3648
17.93	15.291
17.948	15.2125
17.966	15.1318
17.984	15.0501
18.002	14.9702
18.02	14.894
18.038	14.8236
18.056	14.7618
18.074	14.7095
18.092	14.6696
18.11	14.6427
18.128	14.6306
18.146	14.6332
18.164	14.6514
18.182	14.6842
18.2	14.7312
18.218	14.7906
18.236	14.8616
18.254	14.9409
18.272	15.0277
18.29	15.1173
18.308	15.209
18.326	15.2975
18.344	15.3822
18.362	15.4582
18.38	15.5248
18.398	15.5786
18.416	15.6188
18.434	15.6432
18.452	15.6515
18.47	15.643
18.488	15.6186
18.506	15.5784
18.524	15.5249
18.542	15.4582
18.56	15.3823
18.578	15.2978
18.596	15.209
18.614	15.1163
18.632	15.0242
18.65	14.9329
18.668	14.8462
18.686	14.7642
18.704	14.6896
18.722	14.6226
18.74	14.5646
18.758	14.5153
18.776	14.4751
18.794	14.4438
18.812	14.4208
18.83	14.4057
18.848	14.3977
18.866	14.3962
18.884	14.4002
18.902	14.4091
18.92	14.4216
18.938	14.4372
18.956	14.4546
18.974	14.4732
18.992	14.492
19.01	14.5104
19.028	14.5274
19.046	14.5425
19.064	14.5547
19.082	14.5639
19.1	14.5693
19.118	14.5706
19.136	14.5671
19.154	14.5588
19.172	14.5448
19.19	14.5253
19.208	14.4992
19.226	14.4668
19.244	14.4273
19.262	14.3807
19.28	14.3267
19.298	14.2652
19.316	14.1963
19.334	14.1201
19.352	14.0373
19.37	13.9479
19.388	13.8534
19.406	13.7538
19.424	13.6518
19.442	13.5473
19.46	13.4434
19.478	13.3403
19.496	13.2415
19.514	13.1479
19.532	13.0619
19.55	12.9851
19.568	12.9189
19.586	12.8657
19.604	12.8255
19.622	12.8005
19.64	12.7901
19.658	12.7954
19.676	12.8159
19.694	12.8505
19.712	12.8993
19.73	12.9595
19.748	13.0313
19.766	13.1107
19.784	13.1974
19.802	13.288
19.82	13.3807
19.838	13.4736
19.856	13.5634
19.874	13.65
19.892	13.7295
19.91	13.8024
19.928	13.8654
19.946	13.9187
19.964	13.9611
19.982	13.9922
20	14.0123
20.018	14.0212
20.036	14.0198
20.054	14.0088
20.072	13.9886
20.09	13.9613
20.108	13.9266
20.126	13.8873
20.144	13.8433
20.162	13.7969
20.18	13.7487
20.198	13.6999
20.216	13.6521
20.234	13.6052
20.252	13.5611
20.27	13.5195
20.288	13.4815
20.306	13.4473
20.324	13.4173
20.342	13.3917
20.36	13.3704
20.378	13.3537
20.396	13.3415
20.414	13.3335
20.432	13.3298
20.45	13.3302
20.468	13.3348
20.486	13.3432
20.504	13.3552
20.522	13.3707
20.54	13.3888
20.558	13.4097
20.576	13.4322
20.594	13.4559
20.612	13.4803
20.63	13.5038
20.648	13.5269
20.666	13.5474
20.684	13.5657
20.702	13.5804
20.72	13.5906
20.738	13.5964
20.756	13.5967
20.774	13.5918
20.792	13.5813
20.81	13.5647
20.828	13.5429
20.846	13.5166
20.864	13.4858
20.882	13.4531
20.9	13.4178
20.918	13.3829
20.936	13.3499
20.954	13.3189
20.972	13.2938
20.99	13.2738
21.008	13.2616
21.026	13.2586
21.044	13.2648
21.062	13.2823
21.08	13.3109
21.098	13.3505
21.116	13.4018
21.134	13.4634
21.152	13.5338
21.17	13.6138
21.188	13.6991
21.206	13.7898
21.224	13.8839
21.242	13.9768
21.26	14.0703
21.278	14.1585
21.296	14.241
21.314	14.3163
21.332	14.3805
21.35	14.4346
21.368	14.4761
21.386	14.504
21.404	14.519
21.422	14.5208
21.44	14.5091
21.458	14.4866
21.476	14.4533
21.494	14.4103
21.512	14.3625
21.53	14.3081
21.548	14.2519
21.566	14.1972
21.584	14.1428
21.602	14.095
21.62	14.053
21.638	14.0192
21.656	13.9975
21.674	13.9866
21.692	13.9883
21.71	14.0034
21.728	14.0311
21.746	14.0711
21.764	14.1243
21.782	14.1872
21.8	14.2576
21.818	14.3364
21.836	14.4172
21.854	14.5009
21.872	14.5843
21.89	14.6604
21.908	14.732
21.926	14.793
21.944	14.8396
21.962	14.8736
21.98	14.8888
21.998	14.885
22.016	14.8617
22.034	14.8157
22.052	14.7472
22.07	14.6573
22.088	14.5452
22.106	14.4113
22.124	14.2598
22.142	14.0902
22.16	13.9043
22.178	13.7092
22.196	13.5023
22.214	13.289
22.232	13.076
22.25	12.8601
22.268	12.6487
22.286	12.4463
22.304	12.2505
22.322	12.0688
22.34	11.9022
22.358	11.7504
22.376	11.6179
22.394	11.5044
22.412	11.4098
22.43	11.3353
22.448	11.2811
22.466	11.245
22.484	11.2259
22.502	11.2247
22.52	11.2367
22.538	11.2607
22.556	11.2972
22.574	11.3403
22.592	11.3897
22.61	11.4449
22.628	11.5008
22.646	11.5581
22.664	11.6156
22.682	11.6693
22.7	11.7203
22.718	11.7677
22.736	11.81
22.754	11.8474
22.772	11.8805
22.79	11.9089
22.808	11.9324
22.826	11.9528
22.844	11.9706
22.862	11.9854
22.88	11.9995
22.898	12.0141
22.916	12.0283
22.934	12.0443
22.952	12.0629
22.97	12.0835
22.988	12.1067
23.006	12.1332
23.024	12.1623
23.042	12.1925
23.06	12.2242
23.078	12.2569
23.096	12.288
23.114	12.3185
23.132	12.3472
23.15	12.3701
23.168	12.3879
23.186	12.4
23.204	12.4027
23.222	12.3967
23.24	12.3814
23.258	12.3535
23.276	12.3134
23.294	12.261
23.312	12.1941
23.33	12.1125
23.348	12.0167
23.366	11.9068
23.384	11.7816
23.402	11.6426
23.42	11.4925
23.438	11.3303
23.456	11.1571
23.474	10.9773
23.492	10.7908
23.51	10.5976
23.528	10.4023
23.546	10.2051
23.564	10.0054
23.582	9.809000
23.6	9.617171
23.618	9.428228
23.636	9.248237
23.654	9.080186
23.672	8.921404
23.69	8.776087
23.708	8.647300
23.726	8.532996
23.744	8.434658
23.762	8.353820
23.78	8.289633
23.798	8.242423
23.816	8.212806
23.834	8.200731
23.852	8.205708
23.87	8.227294
23.888	8.265676
23.906	8.320498
23.924	8.391042
23.942	8.477378
23.96	8.579374
23.978	8.696155
23.996	8.827538
24.014	8.973715
24.032	9.133565
24.05	9.306603
24.068	9.493555
24.086	9.692496
24.104	9.901765
24.122	10.1228
24.14	10.3537
24.158	10.5916
24.176	10.8386
24.194	11.0926
24.212	11.3487
24.23	11.6076
24.248	11.8697
24.266	12.1282
24.284	12.38
24.302	12.6293
24.32	12.8683
24.338	13.0898
24.356	13.2994
24.374	13.4917
24.392	13.6579
24.41	13.8
24.428	13.918
24.446	14.0044
24.464	14.0564
24.482	14.0777
24.5	14.0632
24.518	14.0084
24.536	13.9149
24.554	13.7837
24.572	13.615
24.59	13.406
24.608	13.1597
24.626	12.8828
24.644	12.5759
24.662	12.2352
24.68	11.873
24.698	11.4999
24.716	11.1063
24.734	10.7017
24.752	10.3025
24.77	9.906380
24.788	9.510832
24.806	9.134602
24.824	8.790225
24.842	8.465771
24.86	8.171979
24.878	7.922770
24.896	7.712760
24.914	7.543095
24.932	7.426423
24.95	7.369330
24.968	7.364124
24.986	7.417744
25.004	7.537863
25.022	7.721338
25.04	7.968288
25.058	8.283035
25.076	8.668037
25.094	9.120768
25.112	9.640991
25.13	10.2288
25.148	10.8866
25.166	11.6108
25.184	12.3955
25.202	13.2402
25.22	14.1491
25.238	15.1104
25.256	16.1117
25.274	17.1615
25.292	18.2549
25.31	19.3757
25.328	20.5159
25.346	21.6875
25.364	22.8756
25.382	24.063
25.4	25.258
25.418	26.4593
25.436	27.6451
25.454	28.8
25.472	29.9425
25.49	31.056
25.508	32.1168
25.526	33.1235
25.544	34.0872
25.562	34.9847
25.58	35.7941
25.598	36.5295
25.616	37.186
25.634	37.7445
25.652	38.1932
25.67	38.5447
25.688	38.7924
25.706	38.9272
25.724	38.9455
25.742	38.8526
25.76	38.6519
25.778	38.3457
25.796	37.9238
25.814	37.3976
25.832	36.7863
25.85	36.1001
25.868	35.3201
25.886	34.469
25.904	33.575
25.922	32.6376
25.94	31.6411
25.958	30.6227
25.976	29.6199
25.994	28.6173
26.012	27.6128
26.03	26.6378
26.048	25.7199
26.066	24.8422
26.084	24.0071
26.102	23.2283
26.12	22.5167
26.138	21.8668
26.156	21.2734
26.174	20.7324
26.192	20.2508
26.21	19.835
26.228	19.4559
26.246	19.0828
26.264	18.7212
26.282	18.3823
26.3	18.0359
26.318	17.6527
26.336	17.2421
26.354	16.809
26.372	16.3377
26.39	15.8127
26.408	15.2327
26.426	14.6076
26.444	13.9469
26.462	13.2553
26.48	12.5065
26.498	11.7293
26.516	10.9662
26.534	10.2445
26.552	9.517862
26.57	8.823921
26.588	8.216688
26.606	7.727362
26.624	7.305531
26.642	6.988968
26.66	6.827711
26.678	6.851150
26.696	7.021878
26.714	7.355911
26.732	7.875473
26.75	8.599417
26.768	9.520029
26.786	10.6176
26.804	11.8727
26.822	13.2879
26.84	14.8916
26.858	16.6309
26.876	18.4477
26.894	20.3265
26.912	22.3274
26.93	24.3781
26.948	26.3976
26.966	28.4114
26.984	30.5836
27.002	32.625
27.02	34.2149
27.028	34.6442