File: Bakgrunnsmateriale/MATLAB/FTIR/ftir_data/LPE454/Mapping_121/LPE454_t106.asc
PE IR       SPECTRUM    SPECTRUM    ASCII       PEDS        1.60
  -1
LP9B08~1.ASC
17/05/19
23:03:48.00
17/05/19
23:04:14.00
tln
$LPE454_t0106$<tbV0>[-2.6,10.4,8.0,0.0,27,1,0]
27.028
64

2002,4.07
MIRTGS : RIGHTBACK : INTERNAL 2
MIR : ON : INTERNAL 2
OPTKBR

0.200000
8
8.000000
FILLER
RATIO
SPECTRUM
UNLOCKED 256

DOUBLE
64
COMBINED
1
0
0

0.002000
RATIO

1
0
TRUE
51149
0
LEFT NOT FITTED RIGHT NOT FITTED 0
NONE
NONE
15600
12
4.427000
51148
TRUE
1 0 8 72 0 0 0 0

15798

#HDR
-1
-1
#GR
µM
%T
2.38419e-05
0.0
2.000000
0.002000
12515
8
42.0549
-14.3803
#DATA
2.000000	 -0.053763
2.018000	 0.191731
2.036000	 -0.339500
2.054000	 0.401458
2.072000	 0.039411
2.090000	 0.264855
2.108000	 0.257935
2.126000	 0.595696
2.144000	 0.923229
2.162000	 0.910238
2.180000	 -14.3803
2.198000	 0.381276
2.216000	 0.521628
2.234000	 0.344217
2.252000	 0.340833
2.270000	 0.564730
2.288000	 0.071108
2.306000	 0.067000
2.324000	 -0.006962
2.342000	 0.171873
2.360000	 0.159191
2.378000	 -0.031317
2.396000	 0.085460
2.414000	 -0.335853
2.432000	 -0.039101
2.450000	 0.187840
2.468000	 -0.230975
2.486000	 -0.197677
2.504000	 0.104704
2.522000	 0.384243
2.540000	 0.075189
2.558000	 0.175871
2.576000	 0.154175
2.594000	 0.190780
2.612000	 0.188466
2.630000	 0.115000
2.648000	 0.005571
2.666000	 0.056626
2.684000	 0.096766
2.702000	 0.070061
2.720000	 0.152823
2.738000	 0.209695
2.756000	 0.120227
2.774000	 0.171531
2.792000	 -0.017578
2.810000	 0.160677
2.828000	 0.013912
2.846000	 0.055691
2.864000	 0.222529
2.882000	 0.023335
2.900000	 0.090624
2.918000	 0.069925
2.936000	 0.157306
2.954000	 0.037906
2.972000	 0.059320
2.990000	 0.094684
3.008000	 0.091653
3.026000	 0.220620
3.044000	 0.064786
3.062000	 0.067812
3.080000	 0.017289
3.098000	 0.086766
3.116000	 0.056938
3.134000	 -0.094146
3.152000	 0.114133
3.170000	 0.066833
3.188000	 -0.018598
3.206000	 0.161971
3.224000	 0.121595
3.242000	 0.083718
3.260000	 -0.028995
3.278000	 0.087739
3.296000	 -0.033547
3.314000	 -0.005350
3.332000	 0.075969
3.350000	 0.032135
3.368000	 0.084002
3.386000	 0.022810
3.404000	 -0.026745
3.422000	 0.030514
3.440000	 0.027617
3.458000	 0.129207
3.476000	 -0.067954
3.494000	 -0.016791
3.512000	 0.045938
3.530000	 -0.083162
3.548000	 0.003268
3.566000	 0.100358
3.584000	 -0.016407
3.602000	 -0.026492
3.620000	 0.141714
3.638000	 0.009330
3.656000	 0.119612
3.674000	 0.017275
3.692000	 0.023999
3.710000	 -0.087281
3.728000	 0.000510
3.746000	 0.064024
3.764000	 -0.068406
3.782000	 0.002303
3.800000	 -0.093261
3.818000	 -0.003058
3.836000	 0.028182
3.854000	 0.024899
3.872000	 0.024830
3.890000	 0.033266
3.908000	 -0.080400
3.926000	 0.000514
3.944000	 0.079520
3.962000	 0.038261
3.980000	 -0.017694
3.998000	 -0.004289
4.016000	 -0.011738
4.034000	 0.117728
4.052000	 0.076775
4.070000	 0.055796
4.088000	 0.109601
4.106000	 0.038267
4.124000	 0.190129
4.141999	 -0.029123
4.160000	 0.214299
4.178000	 0.192354
4.196000	 0.277668
4.214000	 0.236664
4.232000	 0.277703
4.250000	 0.445400
4.268000	 0.503984
4.286000	 0.845492
4.304000	 1.030798
4.322000	 1.174446
4.340000	 1.426380
4.358000	 1.693160
4.375999	 2.130291
4.394000	 2.480321
4.412000	 2.948821
4.430000	 3.324221
4.448000	 3.934520
4.466000	 4.607613
4.484000	 5.385000
4.502000	 6.139091
4.520000	 6.965402
4.538000	 7.859786
4.556000	 8.844737
4.574000	 9.873106
4.592000	 10.976
4.609999	 12.0331
4.628000	 13.1101
4.646000	 14.2103
4.664000	 15.3775
4.682000	 16.3619
4.700000	 17.5283
4.718000	 18.5292
4.736000	 19.5596
4.754000	 20.7154
4.772000	 21.6846
4.790000	 22.6662
4.808000	 23.5344
4.826000	 24.6375
4.843999	 25.4387
4.862000	 26.1775
4.880000	 27.0405
4.898000	 27.7802
4.916000	 28.3911
4.934000	 29.0128
4.952000	 29.6993
4.970000	 30.1258
4.988000	 30.617
5.006000	 31.1163
5.024000	 31.6366
5.042000	 32.1209
5.060000	 32.5588
5.077999	 32.9305
5.096000	 33.2754
5.114000	 33.5835
5.132000	 33.8142
5.150000	 34.0323
5.168000	 34.3986
5.186000	 34.6715
5.204000	 34.8653
5.222000	 35.1241
5.240000	 35.3396
5.258000	 35.5811
5.276000	 35.7463
5.294000	 35.8205
5.312000	 35.8759
5.330000	 36.0934
5.348000	 36.246
5.366000	 36.4503
5.384000	 36.5731
5.402000	 36.6761
5.420000	 36.7891
5.438000	 36.9033
5.456000	 36.9638
5.474000	 36.8493
5.492000	 36.8981
5.510000	 37.0075
5.528000	 37.0424
5.546000	 37.1776
5.564000	 37.3453
5.582000	 37.4436
5.600000	 37.5674
5.618000	 37.6443
5.636000	 37.5052
5.654000	 37.461
5.672000	 37.4598
5.690000	 37.4808
5.708000	 37.4841
5.726000	 37.5493
5.744000	 37.6632
5.762000	 37.7161
5.780000	 37.808
5.798000	 37.8384
5.816000	 37.848
5.834000	 37.8358
5.852000	 37.8053
5.870000	 37.7737
5.888000	 37.6434
5.906000	 37.62
5.923999	 37.7452
5.942000	 37.8811
5.960000	 37.9199
5.978000	 38.0106
5.996000	 38.1057
6.014000	 38.1062
6.032000	 38.1374
6.050000	 38.0935
6.068000	 37.9981
6.086000	 37.9742
6.104000	 37.9543
6.122000	 37.9162
6.140000	 37.9251
6.158000	 37.9368
6.176000	 37.8793
6.194000	 37.9226
6.212000	 38.0724
6.230000	 38.1329
6.248000	 38.1803
6.266000	 38.2179
6.284000	 38.1803
6.302000	 38.1378
6.320000	 38.0693
6.338000	 37.9846
6.356000	 37.8918
6.374000	 37.826
6.392000	 37.8005
6.410000	 37.7981
6.428000	 37.822
6.446000	 37.8851
6.464000	 38.0374
6.482000	 38.1589
6.500000	 38.1961
6.518000	 38.2142
6.536000	 38.2195
6.554000	 38.2275
6.572000	 38.1808
6.590000	 38.0994
6.608000	 38.0195
6.626000	 37.9319
6.644000	 37.8085
6.662000	 37.673
6.680000	 37.644
6.698000	 37.7436
6.716000	 37.8395
6.734000	 37.8982
6.752000	 38.0089
6.770000	 38.1764
6.788000	 38.3384
6.806000	 38.4303
6.824000	 38.3761
6.842000	 38.1921
6.860000	 38.0123
6.878000	 38.001
6.896000	 38.1067
6.914000	 38.0853
6.932000	 37.9467
6.950000	 37.827
6.968000	 37.7197
6.986000	 37.6504
7.004000	 37.6962
7.022000	 37.8278
7.040000	 37.9616
7.058000	 38.072
7.076000	 38.1433
7.094000	 38.1427
7.112000	 38.1305
7.130000	 38.1847
7.148000	 38.2298
7.166000	 38.1716
7.184000	 38.0661
7.202000	 38.0092
7.220000	 37.9859
7.238000	 37.9222
7.256000	 37.8336
7.274000	 37.7577
7.292000	 37.6768
7.310000	 37.612
7.328000	 37.6326
7.346000	 37.7252
7.364000	 37.8183
7.382000	 37.9105
7.400000	 38.016
7.418000	 38.0899
7.436000	 38.1151
7.454000	 38.1408
7.472000	 38.1936
7.490000	 38.2255
7.508000	 38.189
7.526000	 38.1164
7.544000	 38.0492
7.562000	 37.9747
7.580000	 37.8766
7.598000	 37.7509
7.616000	 37.6032
7.634000	 37.4937
7.652000	 37.4719
7.670000	 37.4906
7.688000	 37.5016
7.706000	 37.5472
7.724000	 37.657
7.742000	 37.7674
7.760000	 37.8215
7.778000	 37.8621
7.796000	 37.9626
7.814000	 38.1117
7.832000	 38.2277
7.850000	 38.263
7.868000	 38.2369
7.886000	 38.1776
7.904000	 38.0889
7.922000	 37.9799
7.940000	 37.8784
7.958000	 37.7978
7.976000	 37.7205
7.994000	 37.6258
8.012000	 37.5103
8.030000	 37.3834
8.048000	 37.2671
8.065999	 37.196
8.084000	 37.1955
8.102000	 37.2591
8.120000	 37.3554
8.138000	 37.4543
8.155999	 37.5483
8.173999	 37.6541
8.192000	 37.7818
8.210000	 37.9049
8.228000	 37.9842
8.246000	 38.012
8.263999	 38.0115
8.282000	 38.0059
8.300000	 37.9985
8.318000	 37.9792
8.336000	 37.9414
8.353999	 37.8853
8.372000	 37.8082
8.390000	 37.7011
8.408000	 37.5647
8.426000	 37.4243
8.443999	 37.3107
8.462000	 37.2309
8.480000	 37.1674
8.498000	 37.1077
8.516000	 37.0675
8.533999	 37.0774
8.552000	 37.1467
8.570000	 37.2491
8.588000	 37.3461
8.606000	 37.4224
8.624000	 37.4941
8.641999	 37.5812
8.660000	 37.6785
8.678000	 37.762
8.696000	 37.8187
8.714000	 37.8565
8.731999	 37.8832
8.750000	 37.8915
8.768000	 37.873
8.786000	 37.8353
8.804000	 37.7957
8.821999	 37.7559
8.840000	 37.6972
8.858000	 37.5993
8.876000	 37.4641
8.894000	 37.3197
8.911999	 37.1998
8.930000	 37.1192
8.948000	 37.0698
8.966000	 37.0374
8.984000	 37.0153
9.001999	 36.9996
9.020000	 36.98
9.038000	 36.9497
9.056000	 36.9237
9.074000	 36.9351
9.092000	 37.004
9.109999	 37.1147
9.128000	 37.23
9.146000	 37.3242
9.164000	 37.3981
9.182000	 37.4605
9.199999	 37.5085
9.218000	 37.531
9.236000	 37.529
9.254000	 37.5206
9.272000	 37.5259
9.289999	 37.5491
9.308000	 37.58
9.326000	 37.6066
9.344000	 37.6232
9.362000	 37.6222
9.379999	 37.5894
9.398000	 37.5112
9.416000	 37.3899
9.434000	 37.2461
9.452000	 37.103
9.469999	 36.97
9.488000	 36.8401
9.506000	 36.7037
9.524000	 36.5628
9.542000	 36.4328
9.560000	 36.3346
9.577999	 36.2836
9.596000	 36.2825
9.614000	 36.3214
9.632000	 36.3824
9.650000	 36.4521
9.667999	 36.5298
9.686000	 36.6252
9.704000	 36.745
9.722000	 36.8817
9.740000	 37.0149
9.757999	 37.1237
9.776000	 37.2004
9.794000	 37.2508
9.812000	 37.2841
9.830000	 37.3017
9.847999	 37.2991
9.866000	 37.2764
9.884000	 37.2454
9.902000	 37.2233
9.920000	 37.2184
9.937999	 37.2196
9.956000	 37.2036
9.974000	 37.1523
9.992000	 37.0671
10.01	36.9665
10.028	36.8723
10.046	36.7941
10.064	36.7269
10.082	36.6595
10.1	36.5841
10.118	36.5013
10.136	36.4178
10.154	36.3405
10.172	36.2738
10.19	36.2183
10.208	36.1736
10.226	36.14
10.244	36.1193
10.262	36.1134
10.28	36.1241
10.298	36.1531
10.316	36.2027
10.334	36.2732
10.352	36.3611
10.37	36.4577
10.388	36.5503
10.406	36.6282
10.424	36.6867
10.442	36.7288
10.46	36.7616
10.478	36.7922
10.496	36.8248
10.514	36.8621
10.532	36.9055
10.55	36.9549
10.568	37.0053
10.586	37.0465
10.604	37.0668
10.622	37.0567
10.64	37.0154
10.658	36.9502
10.676	36.8737
10.694	36.7961
10.712	36.7215
10.73	36.6471
10.748	36.5665
10.766	36.4744
10.784	36.3705
10.802	36.2608
10.82	36.1545
10.838	36.0617
10.856	35.9868
10.874	35.9274
10.892	35.8764
10.91	35.826
10.928	35.7724
10.946	35.7181
10.964	35.6706
10.982	35.6394
11	35.6309
11.018	35.6469
11.036	35.6837
11.054	35.7343
11.072	35.7924
11.09	35.8535
11.108	35.9167
11.126	35.9835
11.144	36.0544
11.162	36.1267
11.18	36.1942
11.198	36.2485
11.216	36.2826
11.234	36.2952
11.252	36.2911
11.27	36.2808
11.288	36.2778
11.306	36.291
11.324	36.3218
11.342	36.3632
11.36	36.4031
11.378	36.4292
11.396	36.4352
11.414	36.4209
11.432	36.3901
11.45	36.3459
11.468	36.2888
11.486	36.2173
11.504	36.1301
11.522	36.0299
11.54	35.923
11.558	35.8191
11.576	35.7265
11.594	35.6485
11.612	35.5827
11.63	35.5224
11.648	35.46
11.666	35.3914
11.684	35.3161
11.702	35.2383
11.72	35.165
11.738	35.1026
11.756	35.0555
11.774	35.0249
11.792	35.0089
11.81	35.0027
11.828	35.0006
11.846	34.9966
11.864	34.9868
11.882	34.9706
11.9	34.9507
11.918	34.9329
11.936	34.9252
11.954	34.9343
11.972	34.9654
11.99	35.0199
12.008	35.0959
12.026	35.1901
12.044	35.2975
12.062	35.4146
12.08	35.5379
12.098	35.6636
12.116	35.7857
12.134	35.8959
12.152	35.984
12.17	36.0413
12.188	36.0627
12.206	36.0491
12.224	36.0078
12.242	35.9498
12.26	35.8868
12.278	35.8282
12.296	35.7796
12.314	35.7414
12.332	35.7095
12.35	35.6784
12.368	35.6418
12.386	35.5953
12.404	35.5371
12.422	35.4679
12.44	35.3907
12.458	35.3088
12.476	35.2251
12.494	35.1411
12.512	35.057
12.53	34.9723
12.548	34.8866
12.566	34.8001
12.584	34.7137
12.602	34.6291
12.62	34.5482
12.638	34.4719
12.656	34.3996
12.674	34.3298
12.692	34.2604
12.71	34.189
12.728	34.1146
12.746	34.0382
12.764	33.9635
12.782	33.8962
12.8	33.8426
12.818	33.8087
12.836	33.798
12.854	33.8117
12.872	33.8473
12.89	33.9003
12.908	33.9647
12.926	34.0353
12.944	34.1079
12.962	34.1806
12.98	34.2531
12.998	34.3265
13.016	34.4019
13.034	34.4802
13.052	34.5616
13.07	34.6456
13.088	34.7319
13.106	34.8206
13.124	34.9122
13.142	35.0061
13.16	35.1012
13.178	35.1931
13.196	35.276
13.214	35.342
13.232	35.3831
13.25	35.3929
13.268	35.3687
13.286	35.312
13.304	35.2289
13.322	35.1289
13.34	35.0236
13.358	34.9241
13.376	34.8396
13.394	34.7759
13.412	34.7346
13.43	34.7139
13.448	34.7091
13.466	34.7134
13.484	34.7194
13.502	34.7197
13.52	34.7077
13.538	34.6778
13.556	34.6267
13.574	34.5535
13.592	34.4601
13.61	34.3507
13.628	34.2312
13.646	34.1086
13.664	33.9893
13.682	33.8788
13.7	33.78
13.718	33.6943
13.736	33.6213
13.754	33.5589
13.772	33.5049
13.79	33.4567
13.808	33.4129
13.826	33.3725
13.844	33.3358
13.862	33.3033
13.88	33.2762
13.898	33.2555
13.916	33.242
13.934	33.2356
13.952	33.2352
13.97	33.2398
13.988	33.2479
14.006	33.2577
14.024	33.2675
14.042	33.2759
14.06	33.2823
14.078	33.2865
14.096	33.2891
14.114	33.291
14.132	33.2938
14.15	33.2987
14.168	33.3067
14.186	33.3184
14.204	33.3339
14.222	33.3527
14.24	33.374
14.258	33.397
14.276	33.4207
14.294	33.4449
14.312	33.4688
14.33	33.4921
14.348	33.5144
14.366	33.5353
14.384	33.5548
14.402	33.5733
14.42	33.5919
14.438	33.6116
14.456	33.6335
14.474	33.659
14.492	33.689
14.51	33.7237
14.528	33.7624
14.546	33.8036
14.564	33.8452
14.582	33.8848
14.6	33.92
14.618	33.9481
14.636	33.9674
14.654	33.9768
14.672	33.976
14.69	33.9649
14.708	33.9441
14.726	33.9142
14.744	33.876
14.762	33.8304
14.78	33.778
14.798	33.7198
14.816	33.6567
14.834	33.5898
14.852	33.5209
14.87	33.4512
14.888	33.3822
14.906	33.3148
14.924	33.2495
14.942	33.1862
14.96	33.1237
14.978	33.0609
14.996	32.9961
15.014	32.9279
15.032	32.8548
15.05	32.7764
15.068	32.6929
15.086	32.605
15.104	32.5144
15.122	32.4235
15.14	32.3348
15.158	32.2509
15.176	32.1737
15.194	32.1051
15.212	32.0464
15.23	31.9976
15.248	31.9585
15.266	31.9285
15.284	31.906
15.302	31.8898
15.32	31.8786
15.338	31.8712
15.356	31.8667
15.374	31.8644
15.392	31.864
15.41	31.8654
15.428	31.8685
15.446	31.8732
15.464	31.8795
15.482	31.8873
15.5	31.8965
15.518	31.9062
15.536	31.9159
15.554	31.9254
15.572	31.9343
15.59	31.9427
15.608	31.9512
15.626	31.9606
15.644	31.972
15.662	31.9872
15.68	32.0072
15.698	32.0332
15.716	32.066
15.734	32.1053
15.752	32.1504
15.77	32.2005
15.788	32.2535
15.806	32.3077
15.824	32.3616
15.842	32.4136
15.86	32.4625
15.878	32.5081
15.896	32.5502
15.914	32.5893
15.932	32.6262
15.95	32.6613
15.968	32.6955
15.986	32.7291
16.004	32.7621
16.022	32.7941
16.04	32.8243
16.058	32.8515
16.076	32.8747
16.094	32.8929
16.112	32.9056
16.13	32.9124
16.148	32.9134
16.166	32.909
16.184	32.8999
16.202	32.8872
16.22	32.8722
16.238	32.8555
16.256	32.8377
16.274	32.8189
16.292	32.7991
16.31	32.7781
16.328	32.7548
16.346	32.7285
16.364	32.6984
16.382	32.6632
16.4	32.6224
16.418	32.5757
16.436	32.5228
16.454	32.4641
16.472	32.4001
16.49	32.3319
16.508	32.2607
16.526	32.1877
16.544	32.1146
16.562	32.0426
16.58	31.9726
16.598	31.9061
16.616	31.8432
16.634	31.7843
16.652	31.7294
16.67	31.6777
16.688	31.6286
16.706	31.5805
16.724	31.5326
16.742	31.4832
16.76	31.4309
16.778	31.375
16.796	31.3141
16.814	31.248
16.832	31.1762
16.85	31.0987
16.868	31.016
16.886	30.9286
16.904	30.8377
16.922	30.7442
16.94	30.6491
16.958	30.5542
16.976	30.4602
16.994	30.3685
17.012	30.2804
17.03	30.1968
17.048	30.1193
17.066	30.0486
17.084	29.9861
17.102	29.9331
17.12	29.8899
17.138	29.858
17.156	29.8379
17.174	29.8301
17.192	29.8348
17.21	29.8516
17.228	29.8798
17.246	29.9174
17.264	29.9635
17.282	30.0144
17.3	30.0685
17.318	30.1222
17.336	30.1731
17.354	30.2194
17.372	30.2584
17.39	30.2897
17.408	30.3124
17.426	30.328
17.444	30.3369
17.462	30.3429
17.48	30.3473
17.498	30.3538
17.516	30.3646
17.534	30.3817
17.552	30.4075
17.57	30.4425
17.588	30.4871
17.606	30.5403
17.624	30.6012
17.642	30.6665
17.66	30.7348
17.678	30.802
17.696	30.8667
17.714	30.9248
17.732	30.975
17.75	31.0155
17.768	31.0449
17.786	31.0627
17.804	31.0693
17.822	31.0649
17.84	31.0507
17.858	31.0276
17.876	30.9965
17.894	30.9588
17.912	30.915
17.93	30.8662
17.948	30.8124
17.966	30.7546
17.984	30.6929
18.002	30.6281
18.02	30.5609
18.038	30.4918
18.056	30.4229
18.074	30.3545
18.092	30.2897
18.11	30.2291
18.128	30.1761
18.146	30.1316
18.164	30.0985
18.182	30.0779
18.2	30.0717
18.218	30.0807
18.236	30.1056
18.254	30.1462
18.272	30.2027
18.29	30.2729
18.308	30.3565
18.326	30.45
18.344	30.5524
18.362	30.6594
18.38	30.7697
18.398	30.8789
18.416	30.9849
18.434	31.0842
18.452	31.1743
18.47	31.253
18.488	31.318
18.506	31.368
18.524	31.4017
18.542	31.4185
18.56	31.4189
18.578	31.4028
18.596	31.3719
18.614	31.3264
18.632	31.2699
18.65	31.2025
18.668	31.1279
18.686	31.0465
18.704	30.9623
18.722	30.8754
18.74	30.7884
18.758	30.7013
18.776	30.6157
18.794	30.5313
18.812	30.448
18.83	30.3654
18.848	30.2824
18.866	30.1989
18.884	30.1139
18.902	30.0277
18.92	29.9401
18.938	29.8523
18.956	29.7649
18.974	29.6798
18.992	29.5989
19.01	29.5241
19.028	29.4582
19.046	29.4026
19.064	29.3607
19.082	29.3327
19.1	29.3212
19.118	29.3257
19.136	29.3471
19.154	29.384
19.172	29.435
19.19	29.4986
19.208	29.5711
19.226	29.6514
19.244	29.7341
19.262	29.8188
19.28	29.8999
19.298	29.9774
19.316	30.0466
19.334	30.1079
19.352	30.1588
19.37	30.1995
19.388	30.2298
19.406	30.2497
19.424	30.261
19.442	30.2637
19.46	30.261
19.478	30.2528
19.496	30.2422
19.514	30.2298
19.532	30.2171
19.55	30.2055
19.568	30.1949
19.586	30.1863
19.604	30.1794
19.622	30.1743
19.64	30.1708
19.658	30.1671
19.676	30.1636
19.694	30.1585
19.712	30.1521
19.73	30.1418
19.748	30.1278
19.766	30.1081
19.784	30.0826
19.802	30.05
19.82	30.0094
19.838	29.9606
19.856	29.9029
19.874	29.8365
19.892	29.7612
19.91	29.677
19.928	29.5849
19.946	29.4847
19.964	29.3788
19.982	29.2669
20	29.1522
20.018	29.0355
20.036	28.919
20.054	28.8064
20.072	28.6976
20.09	28.5982
20.108	28.5073
20.126	28.4301
20.144	28.3667
20.162	28.3196
20.18	28.2904
20.198	28.279
20.216	28.2867
20.234	28.3128
20.252	28.3558
20.27	28.4161
20.288	28.4886
20.306	28.574
20.324	28.6668
20.342	28.7642
20.36	28.8646
20.378	28.9608
20.396	29.0542
20.414	29.1375
20.432	29.2111
20.45	29.2711
20.468	29.315
20.486	29.3432
20.504	29.3533
20.522	29.3459
20.54	29.322
20.558	29.281
20.576	29.2264
20.594	29.1591
20.612	29.0809
20.63	28.9961
20.648	28.9039
20.666	28.8106
20.684	28.7157
20.702	28.623
20.72	28.5355
20.738	28.4529
20.756	28.3795
20.774	28.3145
20.792	28.2601
20.81	28.2172
20.828	28.1853
20.846	28.1649
20.864	28.1558
20.882	28.1563
20.9	28.167
20.918	28.1858
20.936	28.2113
20.954	28.2434
20.972	28.2791
20.99	28.3191
21.008	28.3608
21.026	28.4033
21.044	28.4463
21.062	28.4873
21.08	28.5268
21.098	28.5635
21.116	28.5968
21.134	28.6268
21.152	28.6527
21.17	28.6746
21.188	28.6924
21.206	28.7061
21.224	28.7155
21.242	28.7206
21.26	28.7212
21.278	28.7173
21.296	28.709
21.314	28.6958
21.332	28.6773
21.35	28.6536
21.368	28.6239
21.386	28.588
21.404	28.5457
21.422	28.4956
21.44	28.4381
21.458	28.3726
21.476	28.2985
21.494	28.216
21.512	28.1246
21.53	28.0242
21.548	27.9154
21.566	27.7981
21.584	27.6727
21.602	27.5405
21.62	27.4012
21.638	27.2563
21.656	27.1076
21.674	26.9542
21.692	26.7997
21.71	26.6444
21.728	26.4889
21.746	26.3368
21.764	26.1868
21.782	26.0418
21.8	25.904
21.818	25.7725
21.836	25.6499
21.854	25.5363
21.872	25.4322
21.89	25.3398
21.908	25.2584
21.926	25.1888
21.944	25.1317
21.962	25.0867
21.98	25.0547
21.998	25.0359
22.016	25.0301
22.034	25.037
22.052	25.0565
22.07	25.0886
22.088	25.1331
22.106	25.1899
22.124	25.2581
22.142	25.3376
22.16	25.4281
22.178	25.5285
22.196	25.6393
22.214	25.7592
22.232	25.8869
22.25	26.0232
22.268	26.1656
22.286	26.3131
22.304	26.4662
22.322	26.6209
22.34	26.7775
22.358	26.9349
22.376	27.0887
22.394	27.2403
22.412	27.3873
22.43	27.5254
22.448	27.6568
22.466	27.7778
22.484	27.8856
22.502	27.9818
22.52	28.063
22.538	28.1277
22.556	28.1769
22.574	28.2087
22.592	28.2225
22.61	28.2189
22.628	28.1981
22.646	28.1594
22.664	28.1042
22.682	28.0345
22.7	27.949
22.718	27.8504
22.736	27.7418
22.754	27.6212
22.772	27.4927
22.79	27.3598
22.808	27.2203
22.826	27.079
22.844	26.9387
22.862	26.7976
22.88	26.6605
22.898	26.5297
22.916	26.4037
22.934	26.2861
22.952	26.1778
22.97	26.0782
22.988	25.9901
23.006	25.9143
23.024	25.8501
23.042	25.7977
23.06	25.7581
23.078	25.7302
23.096	25.7116
23.114	25.7032
23.132	25.7038
23.15	25.7094
23.168	25.7207
23.186	25.7367
23.204	25.7529
23.222	25.7701
23.24	25.7874
23.258	25.801
23.276	25.8115
23.294	25.8183
23.312	25.8179
23.33	25.8102
23.348	25.7956
23.366	25.7733
23.384	25.7426
23.402	25.7045
23.42	25.6607
23.438	25.6104
23.456	25.5544
23.474	25.4969
23.492	25.4375
23.51	25.3763
23.528	25.3178
23.546	25.2625
23.564	25.2096
23.582	25.1638
23.6	25.1268
23.618	25.0969
23.636	25.0776
23.654	25.0707
23.672	25.0748
23.69	25.0914
23.708	25.1219
23.726	25.1658
23.744	25.2225
23.762	25.2921
23.78	25.3754
23.798	25.4701
23.816	25.5739
23.834	25.6889
23.852	25.8121
23.87	25.9388
23.888	26.0709
23.906	26.2068
23.924	26.3417
23.942	26.4759
23.96	26.6096
23.978	26.739
23.996	26.8631
24.014	26.9834
24.032	27.0957
24.05	27.1977
24.068	27.2916
24.086	27.3747
24.104	27.444
24.122	27.5012
24.14	27.5453
24.158	27.5747
24.176	27.5891
24.194	27.5893
24.212	27.5761
24.23	27.5493
24.248	27.5088
24.266	27.4562
24.284	27.3919
24.302	27.3145
24.32	27.2278
24.338	27.1351
24.356	27.0329
24.374	26.9255
24.392	26.8189
24.41	26.7103
24.428	26.6015
24.446	26.5008
24.464	26.4108
24.482	26.3274
24.5	26.259
24.518	26.2124
24.536	26.1818
24.554	26.1727
24.572	26.1931
24.59	26.2412
24.608	26.3168
24.626	26.4255
24.644	26.5701
24.662	26.7477
24.68	26.9601
24.698	27.2092
24.716	27.4959
24.734	27.8171
24.752	28.1693
24.77	28.5541
24.788	28.971
24.806	29.413
24.824	29.8757
24.842	30.3646
24.86	30.8724
24.878	31.3902
24.896	31.922
24.914	32.4663
24.932	33.013
24.95	33.5579
24.968	34.1073
24.986	34.6521
25.004	35.1828
25.022	35.7036
25.04	36.2131
25.058	36.7042
25.076	37.1731
25.094	37.6238
25.112	38.054
25.13	38.4611
25.148	38.8458
25.166	39.2086
25.184	39.5491
25.202	39.8666
25.22	40.161
25.238	40.4344
25.256	40.6889
25.274	40.9253
25.292	41.142
25.31	41.3378
25.328	41.5124
25.346	41.6683
25.364	41.8006
25.382	41.9042
25.4	41.9837
25.418	42.0374
25.436	42.0547
25.454	42.0283
25.472	41.968
25.49	41.8646
25.508	41.705
25.526	41.487
25.544	41.2171
25.562	40.8868
25.58	40.4878
25.598	40.0226
25.616	39.493
25.634	38.8979
25.652	38.2349
25.67	37.5017
25.688	36.7074
25.706	35.8616
25.724	34.9599
25.742	34.0004
25.76	33.0018
25.778	31.9807
25.796	30.9231
25.814	29.8366
25.832	28.7417
25.85	27.6506
25.868	26.5464
25.886	25.4445
25.904	24.3648
25.922	23.312
25.94	22.2749
25.958	21.2658
25.976	20.297
25.994	19.3647
26.012	18.4671
26.03	17.6114
26.048	16.8038
26.066	16.0384
26.084	15.3179
26.102	14.6489
26.12	14.0358
26.138	13.4739
26.156	12.9648
26.174	12.511
26.192	12.112
26.21	11.765
26.228	11.4756
26.246	11.2494
26.264	11.0886
26.282	10.9898
26.3	10.9505
26.318	10.9685
26.336	11.0504
26.354	11.1918
26.372	11.3799
26.39	11.6036
26.408	11.8788
26.426	12.1951
26.444	12.5292
26.462	12.8635
26.48	13.2275
26.498	13.5981
26.516	13.9373
26.534	14.2185
26.552	14.4765
26.57	14.6891
26.588	14.8221
26.606	14.8542
26.624	14.8135
26.642	14.6841
26.66	14.4435
26.678	14.0767
26.696	13.5973
26.714	13.0065
26.732	12.3035
26.75	11.4814
26.768	10.5326
26.786	9.482003
26.804	8.356695
26.822	7.163284
26.84	5.873904
26.858	4.524373
26.876	3.154625
26.894	1.778951
26.912	0.360236
26.93	-1.064757
26.948	-2.454051
26.966	-3.830347
26.984	-5.292825
27.002	-6.656162
27.02	-7.715839
27.028	-8.003187