File: Bakgrunnsmateriale/MATLAB/FTIR/ftir_data/LPE454/Mapping_121/LPE454_t17.asc
PE IR       SPECTRUM    SPECTRUM    ASCII       PEDS        1.60
  -1
LPD790~1.ASC
17/05/19
15:43:44.00
17/05/19
15:44:10.00
tln
$LPE454_t0017$<tbV0>[0.0,-10.4,8.0,0.0,27,1,0]
27.028
64

2002,4.07
MIRTGS : RIGHTBACK : INTERNAL 2
MIR : ON : INTERNAL 2
OPTKBR

0.200000
8
8.000000
FILLER
RATIO
SPECTRUM
UNLOCKED 256

DOUBLE
64
COMBINED
1
0
0

0.002000
RATIO

1
0
TRUE
51149
0
LEFT NOT FITTED RIGHT NOT FITTED 0
NONE
NONE
15600
12
4.427000
51148
TRUE
1 0 8 72 0 0 0 0

15798

#HDR
-1
-1
#GR
µM
%T
2.38419e-05
0.0
2.000000
0.002000
12515
8
45.5944
-3.493237
#DATA
2.000000	 0.143122
2.018000	 0.182255
2.036000	 0.267151
2.054000	 0.977294
2.072000	 0.575519
2.090000	 0.245951
2.108000	 0.074437
2.126000	 0.292064
2.144000	 1.558646
2.162000	 -0.438034
2.180000	 -0.347253
2.198000	 -0.376264
2.216000	 0.546500
2.234000	 0.541112
2.252000	 -0.383612
2.270000	 0.169998
2.288000	 0.087761
2.306000	 0.141624
2.324000	 0.071169
2.342000	 0.125202
2.360000	 0.249435
2.378000	 0.048965
2.396000	 -0.182668
2.414000	 0.086249
2.432000	 -0.047212
2.450000	 0.092291
2.468000	 0.058606
2.486000	 -0.193229
2.504000	 0.103814
2.522000	 0.139376
2.540000	 0.119173
2.558000	 0.316680
2.576000	 0.195936
2.594000	 -0.243121
2.612000	 0.048341
2.630000	 0.227545
2.648000	 0.121801
2.666000	 0.093410
2.684000	 0.037257
2.702000	 0.124625
2.720000	 -0.066624
2.738000	 0.097667
2.756000	 -0.000752
2.774000	 0.075257
2.792000	 0.223530
2.810000	 -0.139273
2.828000	 0.036036
2.846000	 -0.026177
2.864000	 0.016105
2.882000	 0.023474
2.900000	 0.099506
2.918000	 -0.046887
2.936000	 0.234033
2.954000	 0.006537
2.972000	 -0.063609
2.990000	 0.151979
3.008000	 0.043713
3.026000	 0.052859
3.044000	 0.092061
3.062000	 0.082983
3.080000	 0.064366
3.098000	 0.129768
3.116000	 -0.126921
3.134000	 0.027652
3.152000	 -0.007840
3.170000	 0.040832
3.188000	 -0.048854
3.206000	 0.288334
3.224000	 -0.018611
3.242000	 -0.123279
3.260000	 0.103835
3.278000	 0.107913
3.296000	 -0.013356
3.314000	 0.029962
3.332000	 -0.069304
3.350000	 0.037447
3.368000	 0.156945
3.386000	 0.005258
3.404000	 0.087480
3.422000	 0.023024
3.440000	 -0.010724
3.458000	 -0.008947
3.476000	 0.125005
3.494000	 0.045685
3.512000	 0.136353
3.530000	 -0.029512
3.548000	 0.046503
3.566000	 0.120625
3.584000	 -0.107578
3.602000	 -0.013079
3.620000	 -0.026722
3.638000	 0.086786
3.656000	 -0.063962
3.674000	 0.183952
3.692000	 0.101037
3.710000	 0.130056
3.728000	 0.064576
3.746000	 0.097004
3.764000	 -0.008225
3.782000	 0.014295
3.800000	 0.006631
3.818000	 -0.058613
3.836000	 0.100676
3.854000	 0.061064
3.872000	 0.005434
3.890000	 0.031079
3.908000	 -0.084958
3.926000	 -0.036063
3.944000	 0.081125
3.962000	 -0.008360
3.980000	 0.236387
3.998000	 0.309072
4.016000	 -0.078559
4.034000	 0.063429
4.052000	 0.179212
4.070000	 0.059277
4.088000	 -0.085087
4.106000	 0.177066
4.124000	 0.242173
4.141999	 -0.068680
4.160000	 -0.010757
4.178000	 -0.085241
4.196000	 0.120643
4.214000	 0.055299
4.232000	 0.054685
4.250000	 0.112496
4.268000	 0.109137
4.286000	 0.236039
4.304000	 0.226366
4.322000	 0.218980
4.340000	 0.294297
4.358000	 0.231972
4.375999	 0.394252
4.394000	 0.616949
4.412000	 0.718690
4.430000	 0.844987
4.448000	 1.107372
4.466000	 1.316042
4.484000	 1.576785
4.502000	 1.830007
4.520000	 2.361105
4.538000	 2.872303
4.556000	 3.450611
4.574000	 3.958193
4.592000	 4.610369
4.609999	 5.082381
4.628000	 6.016515
4.646000	 6.851015
4.664000	 7.467631
4.682000	 8.481829
4.700000	 9.286632
4.718000	 10.2724
4.736000	 11.0277
4.754000	 11.8735
4.772000	 12.7417
4.790000	 13.5339
4.808000	 14.4648
4.826000	 15.352
4.843999	 15.9879
4.862000	 16.8458
4.880000	 17.7057
4.898000	 18.4186
4.916000	 19.1943
4.934000	 19.8772
4.952000	 20.4263
4.970000	 21.0798
4.988000	 21.6616
5.006000	 22.15
5.024000	 22.7264
5.042000	 23.303
5.060000	 23.7412
5.077999	 24.1802
5.096000	 24.5627
5.114000	 24.9501
5.132000	 25.2772
5.150000	 25.6389
5.168000	 25.938
5.186000	 26.2305
5.204000	 26.4728
5.222000	 26.812
5.240000	 27.1013
5.258000	 27.3257
5.276000	 27.4592
5.294000	 27.6491
5.312000	 27.9409
5.330000	 28.2182
5.348000	 28.2707
5.366000	 28.4227
5.384000	 28.5723
5.402000	 28.6972
5.420000	 28.8198
5.438000	 28.9639
5.456000	 29.0623
5.474000	 29.043
5.492000	 29.1527
5.510000	 29.3053
5.528000	 29.454
5.546000	 29.595
5.564000	 29.6136
5.582000	 29.6196
5.600000	 29.6849
5.618000	 29.6893
5.636000	 29.7467
5.654000	 29.8577
5.672000	 29.9483
5.690000	 30.0375
5.708000	 30.0434
5.726000	 29.9783
5.744000	 30.0331
5.762000	 30.2806
5.780000	 30.4296
5.798000	 30.3326
5.816000	 30.2829
5.834000	 30.2896
5.852000	 30.2091
5.870000	 30.306
5.888000	 30.4018
5.906000	 30.3921
5.923999	 30.5074
5.942000	 30.5441
5.960000	 30.5358
5.978000	 30.5131
5.996000	 30.4681
6.014000	 30.4462
6.032000	 30.5249
6.050000	 30.6674
6.068000	 30.6449
6.086000	 30.5352
6.104000	 30.5194
6.122000	 30.5916
6.140000	 30.5432
6.158000	 30.4764
6.176000	 30.5631
6.194000	 30.6504
6.212000	 30.5772
6.230000	 30.494
6.248000	 30.4937
6.266000	 30.5107
6.284000	 30.4954
6.302000	 30.4537
6.320000	 30.524
6.338000	 30.6158
6.356000	 30.5687
6.374000	 30.5038
6.392000	 30.5492
6.410000	 30.6365
6.428000	 30.6454
6.446000	 30.5882
6.464000	 30.622
6.482000	 30.7285
6.500000	 30.7142
6.518000	 30.6153
6.536000	 30.6152
6.554000	 30.645
6.572000	 30.6064
6.590000	 30.6437
6.608000	 30.7453
6.626000	 30.7337
6.644000	 30.6397
6.662000	 30.562
6.680000	 30.5228
6.698000	 30.4685
6.716000	 30.3958
6.734000	 30.4029
6.752000	 30.4595
6.770000	 30.5059
6.788000	 30.5319
6.806000	 30.4668
6.824000	 30.2994
6.842000	 30.1921
6.860000	 30.2186
6.878000	 30.2526
6.896000	 30.2967
6.914000	 30.3758
6.932000	 30.424
6.950000	 30.4875
6.968000	 30.521
6.986000	 30.465
7.004000	 30.4234
7.022000	 30.4355
7.040000	 30.4532
7.058000	 30.4302
7.076000	 30.371
7.094000	 30.3303
7.112000	 30.3209
7.130000	 30.3539
7.148000	 30.3977
7.166000	 30.399
7.184000	 30.4227
7.202000	 30.4914
7.220000	 30.5068
7.238000	 30.4317
7.256000	 30.3206
7.274000	 30.2397
7.292000	 30.1983
7.310000	 30.1625
7.328000	 30.1465
7.346000	 30.1725
7.364000	 30.1994
7.382000	 30.2041
7.400000	 30.2107
7.418000	 30.228
7.436000	 30.2661
7.454000	 30.3529
7.472000	 30.4455
7.490000	 30.453
7.508000	 30.3912
7.526000	 30.3422
7.544000	 30.3031
7.562000	 30.2429
7.580000	 30.202
7.598000	 30.215
7.616000	 30.2339
7.634000	 30.1877
7.652000	 30.0982
7.670000	 30.0696
7.688000	 30.1336
7.706000	 30.1942
7.724000	 30.1732
7.742000	 30.1012
7.760000	 30.0686
7.778000	 30.1225
7.796000	 30.1961
7.814000	 30.1833
7.832000	 30.079
7.850000	 29.9704
7.868000	 29.9234
7.886000	 29.9471
7.904000	 30.0024
7.922000	 30.033
7.940000	 30.0298
7.958000	 30.0262
7.976000	 30.0274
7.994000	 30.0204
8.012000	 30.0263
8.030000	 30.0586
8.048000	 30.0787
8.065999	 30.0543
8.084000	 30.0035
8.102000	 29.9612
8.120000	 29.9401
8.138000	 29.9386
8.155999	 29.9488
8.173999	 29.9541
8.192000	 29.9457
8.210000	 29.9359
8.228000	 29.9359
8.246000	 29.9389
8.263999	 29.9371
8.282000	 29.936
8.300000	 29.9403
8.318000	 29.9428
8.336000	 29.9337
8.353999	 29.9096
8.372000	 29.8728
8.390000	 29.833
8.408000	 29.8048
8.426000	 29.7948
8.443999	 29.7939
8.462000	 29.7863
8.480000	 29.7638
8.498000	 29.7289
8.516000	 29.6956
8.533999	 29.6845
8.552000	 29.7059
8.570000	 29.7404
8.588000	 29.7491
8.606000	 29.7091
8.624000	 29.6416
8.641999	 29.5947
8.660000	 29.594
8.678000	 29.6216
8.696000	 29.6445
8.714000	 29.6484
8.731999	 29.6361
8.750000	 29.6123
8.768000	 29.5809
8.786000	 29.5529
8.804000	 29.5447
8.821999	 29.5646
8.840000	 29.604
8.858000	 29.6428
8.876000	 29.6649
8.894000	 29.6598
8.911999	 29.6229
8.930000	 29.5631
8.948000	 29.5068
8.966000	 29.4846
8.984000	 29.5102
9.001999	 29.5676
9.020000	 29.6139
9.038000	 29.6053
9.056000	 29.5363
9.074000	 29.4486
9.092000	 29.3968
9.109999	 29.4027
9.128000	 29.4442
9.146000	 29.4843
9.164000	 29.5018
9.182000	 29.4922
9.199999	 29.4545
9.218000	 29.3882
9.236000	 29.2962
9.254000	 29.1848
9.272000	 29.0674
9.289999	 28.9684
9.308000	 28.9173
9.326000	 28.9311
9.344000	 28.9999
9.362000	 29.0921
9.379999	 29.1717
9.398000	 29.2148
9.416000	 29.2112
9.434000	 29.1637
9.452000	 29.0904
9.469999	 29.0223
9.488000	 28.9895
9.506000	 29.0052
9.524000	 29.059
9.542000	 29.1262
9.560000	 29.1841
9.577999	 29.2189
9.596000	 29.2253
9.614000	 29.2016
9.632000	 29.1501
9.650000	 29.0796
9.667999	 29.0035
9.686000	 28.9385
9.704000	 28.897
9.722000	 28.877
9.740000	 28.8604
9.757999	 28.8221
9.776000	 28.7497
9.794000	 28.6564
9.812000	 28.5788
9.830000	 28.5549
9.847999	 28.5985
9.866000	 28.6918
9.884000	 28.795
9.902000	 28.8657
9.920000	 28.8758
9.937999	 28.8203
9.956000	 28.7169
9.974000	 28.5974
9.992000	 28.4943
10.01	28.4318
10.028	28.4206
10.046	28.4591
10.064	28.5366
10.082	28.6345
10.1	28.7261
10.118	28.781
10.136	28.7793
10.154	28.7222
10.172	28.6321
10.19	28.5412
10.208	28.4741
10.226	28.4397
10.244	28.4324
10.262	28.438
10.28	28.4431
10.298	28.4373
10.316	28.4158
10.334	28.3801
10.352	28.3357
10.37	28.2901
10.388	28.248
10.406	28.209
10.424	28.1714
10.442	28.1363
10.46	28.1087
10.478	28.0954
10.496	28.0998
10.514	28.1211
10.532	28.1546
10.55	28.1936
10.568	28.2315
10.586	28.2628
10.604	28.2835
10.622	28.2913
10.64	28.2863
10.658	28.2704
10.676	28.2469
10.694	28.2182
10.712	28.1856
10.73	28.1504
10.748	28.1135
10.766	28.0752
10.784	28.0342
10.802	27.9891
10.82	27.9393
10.838	27.8875
10.856	27.8396
10.874	27.8024
10.892	27.7801
10.91	27.7721
10.928	27.7724
10.946	27.7717
10.964	27.7619
10.982	27.7376
11	27.6985
11.018	27.6489
11.036	27.5959
11.054	27.5483
11.072	27.5142
11.09	27.4994
11.108	27.5049
11.126	27.5272
11.144	27.5597
11.162	27.5938
11.18	27.6229
11.198	27.6439
11.216	27.657
11.234	27.6642
11.252	27.6669
11.27	27.6649
11.288	27.6566
11.306	27.641
11.324	27.62
11.342	27.5987
11.36	27.5838
11.378	27.5806
11.396	27.5894
11.414	27.6041
11.432	27.6129
11.45	27.6039
11.468	27.5678
11.486	27.5019
11.504	27.4119
11.522	27.3109
11.54	27.2141
11.558	27.1356
11.576	27.0837
11.594	27.0586
11.612	27.053
11.63	27.0555
11.648	27.0555
11.666	27.0459
11.684	27.0259
11.702	27.0003
11.72	26.9753
11.738	26.9573
11.756	26.949
11.774	26.9508
11.792	26.9619
11.81	26.9828
11.828	27.0151
11.846	27.0599
11.864	27.1153
11.882	27.1755
11.9	27.2312
11.918	27.2721
11.936	27.2914
11.954	27.2879
11.972	27.266
11.99	27.2344
12.008	27.2007
12.026	27.1677
12.044	27.133
12.062	27.0887
12.08	27.0258
12.098	26.9388
12.116	26.8291
12.134	26.7059
12.152	26.5844
12.17	26.4809
12.188	26.4086
12.206	26.3738
12.224	26.3745
12.242	26.4019
12.26	26.4432
12.278	26.4842
12.296	26.5125
12.314	26.5195
12.332	26.5025
12.35	26.465
12.368	26.4158
12.386	26.3666
12.404	26.3278
12.422	26.3051
12.44	26.2988
12.458	26.3043
12.476	26.3145
12.494	26.3232
12.512	26.327
12.53	26.3253
12.548	26.3198
12.566	26.3125
12.584	26.3049
12.602	26.2967
12.62	26.2871
12.638	26.2748
12.656	26.259
12.674	26.24
12.692	26.2187
12.71	26.1961
12.728	26.172
12.746	26.1455
12.764	26.1161
12.782	26.0845
12.8	26.0533
12.818	26.0266
12.836	26.0084
12.854	26.0008
12.872	26.0033
12.89	26.012
12.908	26.0203
12.926	26.021
12.944	26.0082
12.962	25.9792
12.98	25.9344
12.998	25.8778
13.016	25.815
13.034	25.752
13.052	25.6933
13.07	25.6416
13.088	25.597
13.106	25.5581
13.124	25.5228
13.142	25.4896
13.16	25.4575
13.178	25.4274
13.196	25.4003
13.214	25.3787
13.232	25.3648
13.25	25.3608
13.268	25.3679
13.286	25.3863
13.304	25.4149
13.322	25.4512
13.34	25.4912
13.358	25.5302
13.376	25.5636
13.394	25.587
13.412	25.5972
13.43	25.5934
13.448	25.5771
13.466	25.5522
13.484	25.5238
13.502	25.4977
13.52	25.4792
13.538	25.4719
13.556	25.4768
13.574	25.4927
13.592	25.5159
13.61	25.5414
13.628	25.5637
13.646	25.5779
13.664	25.5807
13.682	25.5706
13.7	25.548
13.718	25.5154
13.736	25.476
13.754	25.4339
13.772	25.3921
13.79	25.3525
13.808	25.3147
13.826	25.2774
13.844	25.2379
13.862	25.1931
13.88	25.1406
13.898	25.0793
13.916	25.0099
13.934	24.9354
13.952	24.8607
13.97	24.7914
13.988	24.7328
14.006	24.6892
14.024	24.6627
14.042	24.6525
14.06	24.6547
14.078	24.6635
14.096	24.6714
14.114	24.6716
14.132	24.6579
14.15	24.6267
14.168	24.5771
14.186	24.5113
14.204	24.4339
14.222	24.352
14.24	24.2732
14.258	24.2051
14.276	24.1536
14.294	24.1228
14.312	24.1143
14.33	24.1272
14.348	24.1581
14.366	24.202
14.384	24.2523
14.402	24.3024
14.42	24.3466
14.438	24.3798
14.456	24.3989
14.474	24.4027
14.492	24.3917
14.51	24.3682
14.528	24.3356
14.546	24.2978
14.564	24.2584
14.582	24.2206
14.6	24.1867
14.618	24.1583
14.636	24.1357
14.654	24.1185
14.672	24.1059
14.69	24.0974
14.708	24.0926
14.726	24.0913
14.744	24.0938
14.762	24.1004
14.78	24.1111
14.798	24.1256
14.816	24.1428
14.834	24.161
14.852	24.1777
14.87	24.1899
14.888	24.1951
14.906	24.1911
14.924	24.176
14.942	24.1494
14.96	24.112
14.978	24.065
14.996	24.0104
15.014	23.9503
15.032	23.8871
15.05	23.8227
15.068	23.7584
15.086	23.6954
15.104	23.6344
15.122	23.5759
15.14	23.5206
15.158	23.4696
15.176	23.4241
15.194	23.3856
15.212	23.3564
15.23	23.3377
15.248	23.3309
15.266	23.3367
15.284	23.3546
15.302	23.3835
15.32	23.4213
15.338	23.4657
15.356	23.5133
15.374	23.5605
15.392	23.6042
15.41	23.6416
15.428	23.6696
15.446	23.686
15.464	23.6892
15.482	23.6785
15.5	23.6533
15.518	23.6146
15.536	23.5639
15.554	23.5031
15.572	23.4347
15.59	23.3623
15.608	23.289
15.626	23.2175
15.644	23.1508
15.662	23.0915
15.68	23.0408
15.698	22.9996
15.716	22.9685
15.734	22.947
15.752	22.9345
15.77	22.9301
15.788	22.9327
15.806	22.9416
15.824	22.9559
15.842	22.9751
15.86	22.9986
15.878	23.0257
15.896	23.0558
15.914	23.0877
15.932	23.1197
15.95	23.1505
15.968	23.1781
15.986	23.2009
16.004	23.2177
16.022	23.2274
16.04	23.2297
16.058	23.225
16.076	23.2137
16.094	23.1968
16.112	23.1756
16.13	23.1507
16.148	23.1234
16.166	23.0942
16.184	23.0635
16.202	23.0318
16.22	22.9991
16.238	22.9652
16.256	22.9304
16.274	22.8944
16.292	22.8573
16.31	22.8194
16.328	22.7807
16.346	22.7417
16.364	22.7027
16.382	22.6639
16.4	22.6253
16.418	22.5869
16.436	22.5487
16.454	22.5106
16.472	22.4726
16.49	22.4349
16.508	22.3982
16.526	22.3628
16.544	22.3296
16.562	22.2993
16.58	22.2726
16.598	22.25
16.616	22.2316
16.634	22.2175
16.652	22.2067
16.67	22.1986
16.688	22.1921
16.706	22.1861
16.724	22.1804
16.742	22.1743
16.76	22.168
16.778	22.1616
16.796	22.1557
16.814	22.151
16.832	22.148
16.85	22.1474
16.868	22.1489
16.886	22.1524
16.904	22.1568
16.922	22.1612
16.94	22.1643
16.958	22.1645
16.976	22.1614
16.994	22.1536
17.012	22.1416
17.03	22.1254
17.048	22.1068
17.066	22.0869
17.084	22.0677
17.102	22.052
17.12	22.0408
17.138	22.0365
17.156	22.039
17.174	22.0489
17.192	22.0644
17.21	22.0846
17.228	22.1063
17.246	22.1266
17.264	22.1434
17.282	22.1526
17.3	22.1531
17.318	22.1426
17.336	22.1214
17.354	22.0893
17.372	22.0483
17.39	21.9994
17.408	21.9455
17.426	21.8892
17.444	21.8322
17.462	21.778
17.48	21.7271
17.498	21.6816
17.516	21.641
17.534	21.6058
17.552	21.5747
17.57	21.5473
17.588	21.5216
17.606	21.4968
17.624	21.4714
17.642	21.4445
17.66	21.4155
17.678	21.3841
17.696	21.3504
17.714	21.3151
17.732	21.2789
17.75	21.2425
17.768	21.2073
17.786	21.1737
17.804	21.1426
17.822	21.114
17.84	21.0884
17.858	21.0653
17.876	21.0445
17.894	21.025
17.912	21.0067
17.93	20.9882
17.948	20.9693
17.966	20.9492
17.984	20.9282
18.002	20.9061
18.02	20.8838
18.038	20.8614
18.056	20.8404
18.074	20.8211
18.092	20.8056
18.11	20.7942
18.128	20.7888
18.146	20.7897
18.164	20.7981
18.182	20.8137
18.2	20.8369
18.218	20.867
18.236	20.9037
18.254	20.9456
18.272	20.9922
18.29	21.0412
18.308	21.0922
18.326	21.1423
18.344	21.1914
18.362	21.237
18.38	21.2789
18.398	21.3155
18.416	21.3467
18.434	21.3718
18.452	21.3911
18.47	21.4044
18.488	21.4123
18.506	21.415
18.524	21.4132
18.542	21.407
18.56	21.3979
18.578	21.3859
18.596	21.3718
18.614	21.3558
18.632	21.3384
18.65	21.3195
18.668	21.2991
18.686	21.2771
18.704	21.2534
18.722	21.2278
18.74	21.1997
18.758	21.1689
18.776	21.1348
18.794	21.0975
18.812	21.0562
18.83	21.0112
18.848	20.9622
18.866	20.9096
18.884	20.8533
18.902	20.7939
18.92	20.7319
18.938	20.6675
18.956	20.6016
18.974	20.5344
18.992	20.4669
19.01	20.3992
19.028	20.3321
19.046	20.2658
19.064	20.2006
19.082	20.1366
19.1	20.074
19.118	20.0126
19.136	19.9522
19.154	19.8928
19.172	19.8337
19.19	19.775
19.208	19.7162
19.226	19.6575
19.244	19.5983
19.262	19.5388
19.28	19.4796
19.298	19.4208
19.316	19.3636
19.334	19.308
19.352	19.2563
19.37	19.2083
19.388	19.1664
19.406	19.1302
19.424	19.1022
19.442	19.0822
19.46	19.0712
19.478	19.0695
19.496	19.077
19.514	19.0942
19.532	19.1193
19.55	19.1522
19.568	19.1912
19.586	19.2351
19.604	19.283
19.622	19.3328
19.64	19.3841
19.658	19.4347
19.676	19.4847
19.694	19.5322
19.712	19.5773
19.73	19.6191
19.748	19.6575
19.766	19.6923
19.784	19.7233
19.802	19.7509
19.82	19.7748
19.838	19.7952
19.856	19.8123
19.874	19.8258
19.892	19.8357
19.91	19.8419
19.928	19.8439
19.946	19.8418
19.964	19.8351
19.982	19.8238
20	19.8077
20.018	19.7867
20.036	19.7613
20.054	19.7317
20.072	19.6983
20.09	19.6624
20.108	19.6239
20.126	19.5852
20.144	19.546
20.162	19.5087
20.18	19.474
20.198	19.4427
20.216	19.4168
20.234	19.3958
20.252	19.3815
20.27	19.3735
20.288	19.372
20.306	19.3773
20.324	19.3883
20.342	19.4047
20.36	19.4257
20.378	19.4494
20.396	19.4762
20.414	19.5028
20.432	19.5298
20.45	19.5545
20.468	19.5762
20.486	19.5942
20.504	19.6062
20.522	19.6127
20.54	19.6119
20.558	19.604
20.576	19.5884
20.594	19.5648
20.612	19.5334
20.63	19.4943
20.648	19.4474
20.666	19.3938
20.684	19.3332
20.702	19.2668
20.72	19.195
20.738	19.1181
20.756	19.0379
20.774	18.9541
20.792	18.869
20.81	18.7828
20.828	18.6968
20.846	18.613
20.864	18.5309
20.882	18.4532
20.9	18.3798
20.918	18.3119
20.936	18.2508
20.954	18.1962
20.972	18.1499
20.99	18.1115
21.008	18.0811
21.026	18.059
21.044	18.0446
21.062	18.0366
21.08	18.0357
21.098	18.0389
21.116	18.0464
21.134	18.0566
21.152	18.0666
21.17	18.0772
21.188	18.0851
21.206	18.0898
21.224	18.0904
21.242	18.0847
21.26	18.0733
21.278	18.0552
21.296	18.0298
21.314	17.9977
21.332	17.9591
21.35	17.9139
21.368	17.864
21.386	17.8096
21.404	17.7515
21.422	17.6923
21.44	17.6311
21.458	17.57
21.476	17.5103
21.494	17.4515
21.512	17.395
21.53	17.341
21.548	17.2888
21.566	17.2388
21.584	17.1906
21.602	17.1425
21.62	17.0952
21.638	17.0471
21.656	16.996
21.674	16.9426
21.692	16.8852
21.71	16.823
21.728	16.7564
21.746	16.6844
21.764	16.6067
21.782	16.5252
21.8	16.4404
21.818	16.3523
21.836	16.2647
21.854	16.1768
21.872	16.0909
21.89	16.0125
21.908	15.9392
21.926	15.8764
21.944	15.8274
21.962	15.7907
21.98	15.7722
21.998	15.7725
22.016	15.7915
22.034	15.8319
22.052	15.8935
22.07	15.9756
22.088	16.0783
22.106	16.2018
22.124	16.342
22.142	16.4993
22.16	16.6722
22.178	16.854
22.196	17.0473
22.214	17.247
22.232	17.4468
22.25	17.6499
22.268	17.8492
22.286	18.0408
22.304	18.2267
22.322	18.4003
22.34	18.5607
22.358	18.708
22.376	18.838
22.394	18.9512
22.412	19.0475
22.43	19.1257
22.448	19.1859
22.466	19.2292
22.484	19.2559
22.502	19.2659
22.52	19.2615
22.538	19.2435
22.556	19.2116
22.574	19.1692
22.592	19.1164
22.61	19.0536
22.628	18.9838
22.646	18.9065
22.664	18.8227
22.682	18.7354
22.7	18.6435
22.718	18.5485
22.736	18.4521
22.754	18.3535
22.772	18.2542
22.79	18.156
22.808	18.0578
22.826	17.9611
22.844	17.8667
22.862	17.7739
22.88	17.6841
22.898	17.5979
22.916	17.5149
22.934	17.4355
22.952	17.36
22.97	17.288
22.988	17.2201
23.006	17.1565
23.024	17.0969
23.042	17.0406
23.06	16.9878
23.078	16.9382
23.096	16.8904
23.114	16.845
23.132	16.8013
23.15	16.757
23.168	16.7127
23.186	16.6677
23.204	16.6192
23.222	16.5679
23.24	16.513
23.258	16.4517
23.276	16.3842
23.294	16.3103
23.312	16.2285
23.33	16.1388
23.348	16.0412
23.366	15.9347
23.384	15.8196
23.402	15.6958
23.42	15.5625
23.438	15.4191
23.456	15.2664
23.474	15.1055
23.492	14.9358
23.51	14.7579
23.528	14.5749
23.546	14.3867
23.564	14.1932
23.582	13.9991
23.6	13.8055
23.618	13.611
23.636	13.4211
23.654	13.2382
23.672	13.0599
23.69	12.8913
23.708	12.7357
23.726	12.5905
23.744	12.459
23.762	12.3441
23.78	12.244
23.798	12.1602
23.816	12.0946
23.834	12.0468
23.852	12.0162
23.87	12.0028
23.888	12.008
23.906	12.0297
23.924	12.0644
23.942	12.1135
23.96	12.176
23.978	12.2458
23.996	12.3218
24.014	12.406
24.032	12.4909
24.05	12.5726
24.068	12.655
24.086	12.7321
24.104	12.7985
24.122	12.858
24.14	12.9068
24.158	12.9391
24.176	12.9562
24.194	12.9581
24.212	12.9421
24.23	12.9067
24.248	12.8535
24.266	12.7837
24.284	12.697
24.302	12.5922
24.32	12.4745
24.338	12.3483
24.356	12.2089
24.374	12.0622
24.392	11.9163
24.41	11.7686
24.428	11.6201
24.446	11.4799
24.464	11.35
24.482	11.2262
24.5	11.1187
24.518	11.0361
24.536	10.9734
24.554	10.933
24.572	10.9196
24.59	10.9347
24.608	10.9756
24.626	11.0399
24.644	11.1288
24.662	11.2443
24.68	11.3756
24.698	11.5132
24.716	11.6672
24.734	11.8269
24.752	11.9747
24.77	12.1132
24.788	12.245
24.806	12.3501
24.824	12.4153
24.842	12.454
24.86	12.4529
24.878	12.3951
24.896	12.2841
24.914	12.1216
24.932	11.8981
24.95	11.6071
24.968	11.2531
24.986	10.8381
25.004	10.3631
25.022	9.822086
25.04	9.222419
25.058	8.577518
25.076	7.890030
25.094	7.151016
25.112	6.381302
25.13	5.601243
25.148	4.795231
25.166	3.973682
25.184	3.163621
25.202	2.375993
25.22	1.594020
25.238	0.838972
25.256	0.133095
25.274	-0.536617
25.292	-1.164942
25.31	-1.728863
25.328	-2.216005
25.346	-2.642519
25.364	-2.992905
25.382	-3.248727
25.4	-3.412697
25.418	-3.488928
25.436	-3.468153
25.454	-3.342475
25.472	-3.115237
25.49	-2.789740
25.508	-2.368311
25.526	-1.846915
25.544	-1.225507
25.562	-0.519196
25.58	0.258359
25.598	1.121546
25.616	2.059714
25.634	3.048596
25.652	4.077308
25.67	5.168679
25.688	6.291774
25.706	7.410234
25.724	8.528099
25.742	9.657660
25.76	10.762
25.778	11.8069
25.796	12.811
25.814	13.771
25.832	14.6652
25.85	15.4778
25.868	16.2202
25.886	16.8926
25.904	17.493
25.922	18.0151
25.94	18.4601
25.958	18.8435
25.976	19.1808
25.994	19.4578
26.012	19.68
26.03	19.8753
26.048	20.067
26.066	20.2309
26.084	20.3819
26.102	20.55
26.12	20.7537
26.138	20.9688
26.156	21.2131
26.174	21.5099
26.192	21.8697
26.21	22.278
26.228	22.7407
26.246	23.2647
26.264	23.855
26.282	24.5069
26.3	25.2122
26.318	25.963
26.336	26.7677
26.354	27.6229
26.372	28.5129
26.39	29.4236
26.408	30.3712
26.426	31.3469
26.444	32.3277
26.462	33.2951
26.48	34.2663
26.498	35.234
26.516	36.182
26.534	37.099
26.552	38.0004
26.57	38.876
26.588	39.7102
26.606	40.4931
26.624	41.2376
26.642	41.9367
26.66	42.5805
26.678	43.1644
26.696	43.6976
26.714	44.1728
26.732	44.5808
26.75	44.9164
26.768	45.186
26.786	45.3883
26.804	45.5213
26.822	45.5858
26.84	45.5863
26.858	45.5153
26.876	45.3651
26.894	45.1343
26.912	44.8324
26.93	44.4478
26.948	43.9674
26.966	43.3314
26.984	42.4719
27.002	41.5833
27.02	40.8755
27.028	40.6934