File: Bakgrunnsmateriale/MATLAB/FTIR/ftir_data/LPE454/Mapping_121/LPE454_t107.asc
PE IR       SPECTRUM    SPECTRUM    ASCII       PEDS        1.60
  -1
LP9F08~1.ASC
17/05/19
23:08:24.00
17/05/19
23:08:50.00
tln
$LPE454_t0107$<tbV0>[-5.2,10.4,8.0,0.0,27,1,0]
27.028
64

2002,4.07
MIRTGS : RIGHTBACK : INTERNAL 2
MIR : ON : INTERNAL 2
OPTKBR

0.200000
8
8.000000
FILLER
RATIO
SPECTRUM
UNLOCKED 256

DOUBLE
64
COMBINED
1
0
0

0.002000
RATIO

1
0
TRUE
51149
0
LEFT NOT FITTED RIGHT NOT FITTED 0
NONE
NONE
15600
12
4.427000
51148
TRUE
1 0 8 72 0 0 0 0

15798

#HDR
-1
-1
#GR
µM
%T
2.38419e-05
0.0
2.000000
0.002000
12515
8
38.6064
-23.4814
#DATA
2.000000	 -0.081825
2.018000	 0.459550
2.036000	 -0.395255
2.054000	 0.010844
2.072000	 -0.032781
2.090000	 0.118016
2.108000	 0.424877
2.126000	 0.470244
2.144000	 -0.168588
2.162000	 -0.677207
2.180000	 26.3691
2.198000	 -0.357674
2.216000	 0.098931
2.234000	 0.369434
2.252000	 -0.015178
2.270000	 0.656322
2.288000	 0.183083
2.306000	 0.020697
2.324000	 0.150119
2.342000	 0.076520
2.360000	 -0.082003
2.378000	 0.274204
2.396000	 0.219325
2.414000	 0.146888
2.432000	 0.156415
2.450000	 0.990320
2.468000	 0.664544
2.486000	 -0.073840
2.504000	 0.084112
2.522000	 -0.237786
2.540000	 -0.178661
2.558000	 0.049138
2.576000	 0.072774
2.594000	 0.057996
2.612000	 -0.133685
2.630000	 -0.002579
2.648000	 0.210975
2.666000	 -0.028480
2.684000	 -0.098443
2.702000	 0.012311
2.720000	 -0.070999
2.738000	 0.119522
2.756000	 0.054525
2.774000	 0.077296
2.792000	 -0.070882
2.810000	 0.129063
2.828000	 -0.031681
2.846000	 0.042304
2.864000	 0.089853
2.882000	 0.126530
2.900000	 0.049236
2.918000	 -0.091070
2.936000	 0.046026
2.954000	 0.209274
2.972000	 0.052965
2.990000	 0.016951
3.008000	 0.075309
3.026000	 0.075611
3.044000	 -0.012796
3.062000	 0.213234
3.080000	 -0.018131
3.098000	 0.031705
3.116000	 0.027904
3.134000	 0.035650
3.152000	 -0.003327
3.170000	 0.130175
3.188000	 -0.059446
3.206000	 0.010156
3.224000	 0.001584
3.242000	 0.003558
3.260000	 -0.074023
3.278000	 0.013872
3.296000	 0.095875
3.314000	 -0.028883
3.332000	 0.027005
3.350000	 -0.056916
3.368000	 0.155810
3.386000	 -0.000470
3.404000	 0.108470
3.422000	 0.062179
3.440000	 0.133155
3.458000	 0.051476
3.476000	 -0.044457
3.494000	 0.048589
3.512000	 0.007313
3.530000	 -0.019760
3.548000	 -0.011320
3.566000	 0.015680
3.584000	 0.048256
3.602000	 -0.020670
3.620000	 0.022744
3.638000	 0.047040
3.656000	 0.073568
3.674000	 0.054351
3.692000	 0.037457
3.710000	 0.178393
3.728000	 -0.007803
3.746000	 0.084844
3.764000	 0.060842
3.782000	 0.025444
3.800000	 0.003416
3.818000	 0.048701
3.836000	 0.001145
3.854000	 0.084241
3.872000	 -0.042637
3.890000	 0.055695
3.908000	 -0.077848
3.926000	 -0.028255
3.944000	 0.032347
3.962000	 0.052301
3.980000	 0.099449
3.998000	 -0.070277
4.016000	 0.108731
4.034000	 -0.053419
4.052000	 0.111954
4.070000	 0.030565
4.088000	 0.090705
4.106000	 0.193252
4.124000	 0.210860
4.141999	 0.093912
4.160000	 0.120155
4.178000	 0.138614
4.196000	 0.332006
4.214000	 0.379176
4.232000	 0.500767
4.250000	 0.614434
4.268000	 0.673137
4.286000	 0.766867
4.304000	 1.003816
4.322000	 1.284060
4.340000	 1.388504
4.358000	 1.801115
4.375999	 2.109180
4.394000	 2.594860
4.412000	 3.020833
4.430000	 3.445564
4.448000	 4.122608
4.466000	 4.830495
4.484000	 5.485948
4.502000	 6.249448
4.520000	 7.072062
4.538000	 7.936777
4.556000	 8.879026
4.574000	 9.868312
4.592000	 10.9531
4.609999	 12.0315
4.628000	 13.2892
4.646000	 14.3525
4.664000	 15.4494
4.682000	 16.4187
4.700000	 17.5462
4.718000	 18.5344
4.736000	 19.6426
4.754000	 20.6759
4.772000	 21.7495
4.790000	 22.694
4.808000	 23.6027
4.826000	 24.2284
4.843999	 25.2762
4.862000	 26.1602
4.880000	 26.7144
4.898000	 27.5712
4.916000	 28.2635
4.934000	 28.8288
4.952000	 29.4807
4.970000	 30.0659
4.988000	 30.5224
5.006000	 30.9853
5.024000	 31.361
5.042000	 31.6635
5.060000	 32.1189
5.077999	 32.7015
5.096000	 33.1511
5.114000	 33.4581
5.132000	 33.7999
5.150000	 34.1463
5.168000	 34.2415
5.186000	 34.4054
5.204000	 34.604
5.222000	 34.811
5.240000	 35.0908
5.258000	 35.3769
5.276000	 35.6261
5.294000	 35.8613
5.312000	 35.9589
5.330000	 35.9723
5.348000	 35.9307
5.366000	 36.0631
5.384000	 36.1735
5.402000	 36.2684
5.420000	 36.4429
5.438000	 36.6687
5.456000	 36.8404
5.474000	 36.9838
5.492000	 37.0505
5.510000	 37.0341
5.528000	 36.9494
5.546000	 36.8936
5.564000	 36.9061
5.582000	 37.0511
5.600000	 37.1826
5.618000	 37.2821
5.636000	 37.4154
5.654000	 37.5858
5.672000	 37.5651
5.690000	 37.5743
5.708000	 37.5997
5.726000	 37.446
5.744000	 37.3029
5.762000	 37.2259
5.780000	 37.2408
5.798000	 37.4211
5.816000	 37.5561
5.834000	 37.7146
5.852000	 37.879
5.870000	 37.9534
5.888000	 37.9773
5.906000	 37.9499
5.923999	 37.8767
5.942000	 37.7853
5.960000	 37.708
5.978000	 37.6457
5.996000	 37.6748
6.014000	 37.7542
6.032000	 37.8019
6.050000	 37.885
6.068000	 37.9762
6.086000	 38.118
6.104000	 38.286
6.122000	 38.2594
6.140000	 38.1663
6.158000	 38.058
6.176000	 37.9256
6.194000	 37.8155
6.212000	 37.7308
6.230000	 37.7277
6.248000	 37.8106
6.266000	 37.8649
6.284000	 37.9055
6.302000	 37.9438
6.320000	 38.0235
6.338000	 38.1561
6.356000	 38.2377
6.374000	 38.2741
6.392000	 38.3275
6.410000	 38.3013
6.428000	 38.1783
6.446000	 38.061
6.464000	 37.9381
6.482000	 37.8711
6.500000	 37.8499
6.518000	 37.7824
6.536000	 37.7439
6.554000	 37.8586
6.572000	 38.0537
6.590000	 38.1824
6.608000	 38.2623
6.626000	 38.3911
6.644000	 38.466
6.662000	 38.4057
6.680000	 38.2977
6.698000	 38.1943
6.716000	 38.1139
6.734000	 37.9927
6.752000	 37.8634
6.770000	 37.8162
6.788000	 37.8042
6.806000	 37.7655
6.824000	 37.7737
6.842000	 37.8887
6.860000	 38.0231
6.878000	 38.1325
6.896000	 38.2373
6.914000	 38.3083
6.932000	 38.3657
6.950000	 38.4722
6.968000	 38.5619
6.986000	 38.4911
7.004000	 38.3092
7.022000	 38.17
7.040000	 38.0861
7.058000	 37.9998
7.076000	 37.8995
7.094000	 37.8027
7.112000	 37.711
7.130000	 37.6563
7.148000	 37.6802
7.166000	 37.7486
7.184000	 37.847
7.202000	 38.0258
7.220000	 38.237
7.238000	 38.3596
7.256000	 38.4153
7.274000	 38.4979
7.292000	 38.5835
7.310000	 38.604
7.328000	 38.5439
7.346000	 38.4164
7.364000	 38.2766
7.382000	 38.1835
7.400000	 38.1151
7.418000	 38.0222
7.436000	 37.9146
7.454000	 37.8111
7.472000	 37.6996
7.490000	 37.6141
7.508000	 37.6282
7.526000	 37.7268
7.544000	 37.8408
7.562000	 37.9765
7.580000	 38.1628
7.598000	 38.3441
7.616000	 38.445
7.634000	 38.4763
7.652000	 38.5085
7.670000	 38.5636
7.688000	 38.5794
7.706000	 38.5073
7.724000	 38.3926
7.742000	 38.3019
7.760000	 38.2208
7.778000	 38.1038
7.796000	 37.964
7.814000	 37.8386
7.832000	 37.7306
7.850000	 37.6431
7.868000	 37.5994
7.886000	 37.5969
7.904000	 37.6067
7.922000	 37.6249
7.940000	 37.6809
7.958000	 37.8023
7.976000	 37.9842
7.994000	 38.1813
8.012000	 38.3317
8.030000	 38.4068
8.048000	 38.4347
8.065999	 38.4613
8.084000	 38.4929
8.102000	 38.4935
8.120000	 38.4421
8.138000	 38.3552
8.155999	 38.2437
8.173999	 38.1035
8.192000	 37.9574
8.210000	 37.8479
8.228000	 37.7767
8.246000	 37.6983
8.263999	 37.5896
8.282000	 37.4837
8.300000	 37.4176
8.318000	 37.3891
8.336000	 37.3861
8.353999	 37.4219
8.372000	 37.5123
8.390000	 37.6416
8.408000	 37.7695
8.426000	 37.8672
8.443999	 37.9411
8.462000	 38.0277
8.480000	 38.1505
8.498000	 38.2796
8.516000	 38.3547
8.533999	 38.3538
8.552000	 38.3183
8.570000	 38.3014
8.588000	 38.3116
8.606000	 38.3154
8.624000	 38.2755
8.641999	 38.1781
8.660000	 38.0357
8.678000	 37.8776
8.696000	 37.7334
8.714000	 37.6107
8.731999	 37.495
8.750000	 37.3761
8.768000	 37.2695
8.786000	 37.2051
8.804000	 37.1949
8.821999	 37.2252
8.840000	 37.2778
8.858000	 37.3418
8.876000	 37.406
8.894000	 37.4614
8.911999	 37.5162
8.930000	 37.5906
8.948000	 37.6914
8.966000	 37.8011
8.984000	 37.9024
9.001999	 37.9958
9.020000	 38.0799
9.038000	 38.1337
9.056000	 38.1396
9.074000	 38.1119
9.092000	 38.0798
9.109999	 38.0496
9.128000	 37.9986
9.146000	 37.907
9.164000	 37.7822
9.182000	 37.6424
9.199999	 37.4943
9.218000	 37.3396
9.236000	 37.1938
9.254000	 37.0842
9.272000	 37.026
9.289999	 37.008
9.308000	 37.0025
9.326000	 36.9891
9.344000	 36.9674
9.362000	 36.9518
9.379999	 36.9571
9.398000	 36.9914
9.416000	 37.0529
9.434000	 37.1333
9.452000	 37.2196
9.469999	 37.3006
9.488000	 37.3705
9.506000	 37.4334
9.524000	 37.5012
9.542000	 37.5821
9.560000	 37.6712
9.577999	 37.7519
9.596000	 37.8073
9.614000	 37.8328
9.632000	 37.8391
9.650000	 37.8476
9.667999	 37.8752
9.686000	 37.9177
9.704000	 37.9448
9.722000	 37.918
9.740000	 37.8186
9.757999	 37.6635
9.776000	 37.4944
9.794000	 37.349
9.812000	 37.2378
9.830000	 37.1456
9.847999	 37.0531
9.866000	 36.9554
9.884000	 36.8631
9.902000	 36.7903
9.920000	 36.7419
9.937999	 36.7097
9.956000	 36.6795
9.974000	 36.6433
9.992000	 36.6051
10.01	36.5778
10.028	36.5736
10.046	36.5955
10.064	36.638
10.082	36.6951
10.1	36.7666
10.118	36.8592
10.136	36.9769
10.154	37.113
10.172	37.2505
10.19	37.3694
10.208	37.4583
10.226	37.5171
10.244	37.5534
10.262	37.5773
10.28	37.5945
10.298	37.6062
10.316	37.6097
10.334	37.6006
10.352	37.5756
10.37	37.533
10.388	37.4735
10.406	37.3993
10.424	37.314
10.442	37.2213
10.46	37.1244
10.478	37.0269
10.496	36.9301
10.514	36.834
10.532	36.7357
10.55	36.6324
10.568	36.5244
10.586	36.4169
10.604	36.3184
10.622	36.2388
10.64	36.1843
10.658	36.1553
10.676	36.146
10.694	36.1474
10.712	36.1509
10.73	36.1514
10.748	36.1491
10.766	36.1487
10.784	36.1566
10.802	36.1793
10.82	36.2193
10.838	36.2765
10.856	36.3483
10.874	36.4309
10.892	36.5203
10.91	36.6108
10.928	36.6956
10.946	36.7681
10.964	36.8249
10.982	36.8667
11	36.8987
11.018	36.9272
11.036	36.9561
11.054	36.9843
11.072	37.0062
11.09	37.0163
11.108	37.0112
11.126	36.9919
11.144	36.962
11.162	36.925
11.18	36.8821
11.198	36.8315
11.216	36.7698
11.234	36.6945
11.252	36.605
11.27	36.5027
11.288	36.3913
11.306	36.2756
11.324	36.1613
11.342	36.0544
11.36	35.9592
11.378	35.8759
11.396	35.8005
11.414	35.7253
11.432	35.6424
11.45	35.5491
11.468	35.4505
11.486	35.3589
11.504	35.2897
11.522	35.2562
11.54	35.2632
11.558	35.3057
11.576	35.3707
11.594	35.4436
11.612	35.5126
11.63	35.5723
11.648	35.624
11.666	35.6729
11.684	35.7233
11.702	35.7755
11.72	35.8261
11.738	35.8698
11.756	35.9026
11.774	35.9249
11.792	35.9415
11.81	35.9595
11.828	35.9849
11.846	36.0201
11.864	36.0617
11.882	36.1028
11.9	36.1351
11.918	36.1534
11.936	36.1577
11.954	36.1539
11.972	36.1515
11.99	36.1588
12.008	36.1802
12.026	36.2127
12.044	36.2468
12.062	36.2691
12.08	36.2671
12.098	36.2336
12.116	36.1683
12.134	36.0783
12.152	35.9749
12.17	35.8686
12.188	35.7663
12.206	35.6694
12.224	35.5757
12.242	35.4815
12.26	35.3856
12.278	35.2898
12.296	35.1981
12.314	35.1148
12.332	35.0422
12.35	34.9793
12.368	34.9224
12.386	34.8668
12.404	34.809
12.422	34.7482
12.44	34.6868
12.458	34.6301
12.476	34.5841
12.494	34.5536
12.512	34.5412
12.53	34.5462
12.548	34.5659
12.566	34.5961
12.584	34.6325
12.602	34.6713
12.62	34.7106
12.638	34.7495
12.656	34.7877
12.674	34.8257
12.692	34.8648
12.71	34.9058
12.728	34.9504
12.746	34.9998
12.764	35.0549
12.782	35.1155
12.8	35.1802
12.818	35.2463
12.836	35.3111
12.854	35.3712
12.872	35.424
12.89	35.4673
12.908	35.4997
12.926	35.5204
12.944	35.5289
12.962	35.5258
12.98	35.513
12.998	35.4935
13.016	35.4715
13.034	35.4514
13.052	35.4373
13.07	35.4311
13.088	35.4332
13.106	35.4414
13.124	35.4513
13.142	35.4572
13.16	35.4539
13.178	35.4371
13.196	35.4048
13.214	35.3565
13.232	35.294
13.25	35.2193
13.268	35.1348
13.286	35.0419
13.304	34.9417
13.322	34.8343
13.34	34.7205
13.358	34.6019
13.376	34.4818
13.394	34.3653
13.412	34.2581
13.43	34.1665
13.448	34.0955
13.466	34.0478
13.484	34.0231
13.502	34.0177
13.52	34.0256
13.538	34.0392
13.556	34.051
13.574	34.0548
13.592	34.0473
13.61	34.0279
13.628	33.9996
13.646	33.9671
13.664	33.9363
13.682	33.9125
13.7	33.8999
13.718	33.9001
13.736	33.9127
13.754	33.935
13.772	33.9633
13.79	33.9932
13.808	34.0213
13.826	34.0452
13.844	34.0642
13.862	34.0789
13.88	34.0909
13.898	34.1024
13.916	34.1158
13.934	34.1329
13.952	34.1549
13.97	34.1824
13.988	34.2156
14.006	34.2543
14.024	34.2981
14.042	34.346
14.06	34.3973
14.078	34.451
14.096	34.5056
14.114	34.5596
14.132	34.6105
14.15	34.6558
14.168	34.6935
14.186	34.7215
14.204	34.7385
14.222	34.7435
14.24	34.7374
14.258	34.7216
14.276	34.6984
14.294	34.6703
14.312	34.6393
14.33	34.607
14.348	34.5742
14.366	34.5409
14.384	34.5065
14.402	34.4702
14.42	34.4316
14.438	34.3904
14.456	34.347
14.474	34.3025
14.492	34.258
14.51	34.2147
14.528	34.1731
14.546	34.1332
14.564	34.094
14.582	34.0541
14.6	34.0116
14.618	33.9644
14.636	33.9106
14.654	33.849
14.672	33.7791
14.69	33.701
14.708	33.6153
14.726	33.5234
14.744	33.427
14.762	33.3279
14.78	33.2284
14.798	33.1309
14.816	33.0381
14.834	32.9533
14.852	32.8803
14.87	32.8226
14.888	32.7828
14.906	32.7628
14.924	32.7635
14.942	32.7837
14.96	32.8206
14.978	32.8696
14.996	32.9255
15.014	32.9826
15.032	33.0345
15.05	33.0763
15.068	33.105
15.086	33.1189
15.104	33.118
15.122	33.1046
15.14	33.0823
15.158	33.0547
15.176	33.0258
15.194	32.9991
15.212	32.9776
15.23	32.9621
15.248	32.9529
15.266	32.9492
15.284	32.9496
15.302	32.9524
15.32	32.9565
15.338	32.9611
15.356	32.9663
15.374	32.9729
15.392	32.9825
15.41	32.9971
15.428	33.0184
15.446	33.0484
15.464	33.0878
15.482	33.1364
15.5	33.1935
15.518	33.2564
15.536	33.3224
15.554	33.3881
15.572	33.4501
15.59	33.5043
15.608	33.5485
15.626	33.5812
15.644	33.6015
15.662	33.6099
15.68	33.608
15.698	33.5974
15.716	33.5812
15.734	33.562
15.752	33.5414
15.77	33.5212
15.788	33.5024
15.806	33.4851
15.824	33.4692
15.842	33.4539
15.86	33.4379
15.878	33.4208
15.896	33.4019
15.914	33.3813
15.932	33.3597
15.95	33.3379
15.968	33.3174
15.986	33.2997
16.004	33.2856
16.022	33.276
16.04	33.271
16.058	33.2693
16.076	33.2698
16.094	33.2696
16.112	33.2654
16.13	33.2545
16.148	33.2338
16.166	33.2002
16.184	33.1525
16.202	33.0898
16.22	33.0127
16.238	32.923
16.256	32.8229
16.274	32.7163
16.292	32.6066
16.31	32.4965
16.328	32.3899
16.346	32.2884
16.364	32.1936
16.382	32.1061
16.4	32.0252
16.418	31.9503
16.436	31.8794
16.454	31.811
16.472	31.7436
16.49	31.6757
16.508	31.6068
16.526	31.5368
16.544	31.4662
16.562	31.3962
16.58	31.3276
16.598	31.2627
16.616	31.203
16.634	31.1501
16.652	31.1057
16.67	31.0706
16.688	31.0456
16.706	31.0312
16.724	31.0272
16.742	31.0336
16.76	31.0494
16.778	31.074
16.796	31.1066
16.814	31.1455
16.832	31.1899
16.85	31.2382
16.868	31.2892
16.886	31.3417
16.904	31.3947
16.922	31.4477
16.94	31.4999
16.958	31.5518
16.976	31.6035
16.994	31.6559
17.012	31.7099
17.03	31.766
17.048	31.8252
17.066	31.8874
17.084	31.9525
17.102	32.0193
17.12	32.0872
17.138	32.153
17.156	32.2144
17.174	32.2691
17.192	32.3124
17.21	32.3427
17.228	32.3565
17.246	32.3525
17.264	32.3292
17.282	32.2864
17.3	32.2252
17.318	32.1472
17.336	32.0562
17.354	31.9543
17.372	31.8483
17.39	31.7407
17.408	31.6374
17.426	31.5426
17.444	31.4592
17.462	31.3913
17.48	31.3396
17.498	31.306
17.516	31.2894
17.534	31.2897
17.552	31.3033
17.57	31.3289
17.588	31.3619
17.606	31.4002
17.624	31.4405
17.642	31.4803
17.66	31.5183
17.678	31.552
17.696	31.5815
17.714	31.6062
17.732	31.6268
17.75	31.6438
17.768	31.6589
17.786	31.6724
17.804	31.6858
17.822	31.6993
17.84	31.7134
17.858	31.7276
17.876	31.7417
17.894	31.7539
17.912	31.7638
17.93	31.769
17.948	31.7689
17.966	31.7611
17.984	31.745
18.002	31.7192
18.02	31.6836
18.038	31.6376
18.056	31.5823
18.074	31.5178
18.092	31.4466
18.11	31.3692
18.128	31.289
18.146	31.2069
18.164	31.1261
18.182	31.0475
18.2	30.9732
18.218	30.9041
18.236	30.8412
18.254	30.784
18.272	30.7326
18.29	30.6852
18.308	30.6416
18.326	30.5981
18.344	30.5542
18.362	30.5058
18.38	30.4522
18.398	30.3898
18.416	30.3179
18.434	30.2342
18.452	30.1386
18.47	30.0305
18.488	29.9111
18.506	29.7801
18.524	29.6415
18.542	29.4955
18.56	29.3476
18.578	29.1981
18.596	29.0542
18.614	28.9162
18.632	28.7907
18.65	28.6779
18.668	28.5838
18.686	28.5084
18.704	28.4552
18.722	28.424
18.74	28.4163
18.758	28.4313
18.776	28.4682
18.794	28.5256
18.812	28.6008
18.83	28.6921
18.848	28.7956
18.866	28.9089
18.884	29.0277
18.902	29.1494
18.92	29.2691
18.938	29.3848
18.956	29.492
18.974	29.5891
18.992	29.6724
19.01	29.741
19.028	29.7922
19.046	29.8259
19.064	29.8403
19.082	29.8361
19.1	29.8133
19.118	29.7728
19.136	29.7159
19.154	29.6439
19.172	29.5593
19.19	29.4632
19.208	29.3589
19.226	29.2474
19.244	29.1329
19.262	29.016
19.28	28.901
19.298	28.788
19.316	28.6807
19.334	28.579
19.352	28.486
19.37	28.4014
19.388	28.3273
19.406	28.2636
19.424	28.2117
19.442	28.1717
19.46	28.1442
19.478	28.1292
19.496	28.127
19.514	28.1379
19.532	28.1615
19.55	28.1977
19.568	28.2461
19.586	28.3064
19.604	28.3779
19.622	28.4591
19.64	28.5495
19.658	28.6472
19.676	28.7519
19.694	28.8598
19.712	28.9713
19.73	29.0826
19.748	29.1939
19.766	29.3022
19.784	29.4066
19.802	29.5061
19.82	29.5994
19.838	29.6865
19.856	29.7667
19.874	29.8403
19.892	29.9079
19.91	29.9694
19.928	30.0265
19.946	30.0791
19.964	30.1288
19.982	30.1758
20	30.2209
20.018	30.2647
20.036	30.3069
20.054	30.3477
20.072	30.3869
20.09	30.4234
20.108	30.4574
20.126	30.4867
20.144	30.5116
20.162	30.5302
20.18	30.5416
20.198	30.5459
20.216	30.5422
20.234	30.5309
20.252	30.5127
20.27	30.4873
20.288	30.4578
20.306	30.4238
20.324	30.3884
20.342	30.3531
20.36	30.3188
20.378	30.2894
20.396	30.264
20.414	30.2457
20.432	30.2345
20.45	30.2307
20.468	30.2353
20.486	30.2469
20.504	30.2643
20.522	30.2875
20.54	30.3124
20.558	30.34
20.576	30.3657
20.594	30.3878
20.612	30.4053
20.63	30.414
20.648	30.4149
20.666	30.4043
20.684	30.3822
20.702	30.348
20.72	30.3007
20.738	30.2412
20.756	30.1703
20.774	30.0877
20.792	29.9966
20.81	29.8968
20.828	29.7906
20.846	29.6813
20.864	29.5682
20.882	29.4564
20.9	29.3451
20.918	29.2374
20.936	29.1355
20.954	29.0388
20.972	28.9502
20.99	28.8693
21.008	28.7968
21.026	28.7334
21.044	28.6784
21.062	28.6319
21.08	28.5938
21.098	28.5626
21.116	28.5381
21.134	28.5195
21.152	28.5045
21.17	28.4939
21.188	28.4851
21.206	28.4777
21.224	28.4711
21.242	28.4635
21.26	28.4553
21.278	28.445
21.296	28.432
21.314	28.4164
21.332	28.3971
21.35	28.3744
21.368	28.3482
21.386	28.3181
21.404	28.2845
21.422	28.2481
21.44	28.2084
21.458	28.1666
21.476	28.1229
21.494	28.0775
21.512	28.0318
21.53	27.9854
21.548	27.9393
21.566	27.8943
21.584	27.8502
21.602	27.8082
21.62	27.7682
21.638	27.7305
21.656	27.6958
21.674	27.6638
21.692	27.635
21.71	27.6094
21.728	27.5869
21.746	27.5677
21.764	27.5516
21.782	27.5386
21.8	27.5286
21.818	27.5216
21.836	27.517
21.854	27.515
21.872	27.5153
21.89	27.5175
21.908	27.5216
21.926	27.5276
21.944	27.5352
21.962	27.5446
21.98	27.5553
21.998	27.5676
22.016	27.5811
22.034	27.595
22.052	27.6097
22.07	27.6244
22.088	27.6388
22.106	27.6531
22.124	27.6664
22.142	27.6787
22.16	27.6898
22.178	27.699
22.196	27.7065
22.214	27.7118
22.232	27.7146
22.25	27.7149
22.268	27.7125
22.286	27.707
22.304	27.6987
22.322	27.6871
22.34	27.6723
22.358	27.6543
22.376	27.6334
22.394	27.6095
22.412	27.5831
22.43	27.5549
22.448	27.5246
22.466	27.4929
22.484	27.4603
22.502	27.4266
22.52	27.3924
22.538	27.3581
22.556	27.3234
22.574	27.2892
22.592	27.2554
22.61	27.222
22.628	27.1899
22.646	27.1588
22.664	27.129
22.682	27.1008
22.7	27.074
22.718	27.0489
22.736	27.0258
22.754	27.0044
22.772	26.9854
22.79	26.9693
22.808	26.9559
22.826	26.9459
22.844	26.94
22.862	26.9377
22.88	26.9395
22.898	26.9459
22.916	26.9566
22.934	26.9712
22.952	26.9896
22.97	27.0119
22.988	27.0378
23.006	27.0676
23.024	27.1009
23.042	27.1358
23.06	27.1729
23.078	27.2115
23.096	27.2485
23.114	27.2847
23.132	27.3192
23.15	27.3472
23.168	27.3697
23.186	27.3857
23.204	27.3907
23.222	27.3855
23.24	27.3692
23.258	27.3375
23.276	27.2909
23.294	27.2291
23.312	27.1491
23.33	27.051
23.348	26.9351
23.366	26.801
23.384	26.648
23.402	26.4772
23.42	26.2904
23.438	26.0862
23.456	25.8662
23.474	25.6357
23.492	25.3937
23.51	25.141
23.528	24.8857
23.546	24.6283
23.564	24.3677
23.582	24.1134
23.6	23.8681
23.618	23.6289
23.636	23.4042
23.654	23.1981
23.672	23.0067
23.69	22.837
23.708	22.6937
23.726	22.5731
23.744	22.4794
23.762	22.4163
23.78	22.3823
23.798	22.3772
23.816	22.4018
23.834	22.4571
23.852	22.5403
23.87	22.6478
23.888	22.7823
23.906	22.9405
23.924	23.1154
23.942	23.3082
23.96	23.5184
23.978	23.7372
23.996	23.9629
24.014	24.1983
24.032	24.4343
24.05	24.6655
24.068	24.8967
24.086	25.122
24.104	25.3354
24.122	25.5397
24.14	25.7336
24.158	25.9142
24.176	26.0807
24.194	26.2349
24.212	26.379
24.23	26.5121
24.248	26.6345
24.266	26.751
24.284	26.8636
24.302	26.9693
24.32	27.0745
24.338	27.1849
24.356	27.2956
24.374	27.4118
24.392	27.5421
24.41	27.6847
24.428	27.8396
24.446	28.0131
24.464	28.2084
24.482	28.4225
24.5	28.6566
24.518	28.9126
24.536	29.1913
24.554	29.4892
24.572	29.802
24.59	30.1324
24.608	30.4785
24.626	30.8333
24.644	31.1952
24.662	31.5683
24.68	31.9423
24.698	32.3079
24.716	32.6727
24.734	33.0301
24.752	33.3684
24.77	33.6886
24.788	33.9929
24.806	34.2702
24.824	34.5128
24.842	34.7275
24.86	34.9091
24.878	35.0504
24.896	35.1528
24.914	35.2173
24.932	35.2402
24.95	35.2187
24.968	35.1542
24.986	35.0494
25.004	34.9069
25.022	34.7242
25.04	34.5036
25.058	34.25
25.076	33.9649
25.094	33.6454
25.112	33.2975
25.13	32.9271
25.148	32.531
25.166	32.1109
25.184	31.6726
25.202	31.2188
25.22	30.7461
25.238	30.2583
25.256	29.7593
25.274	29.2468
25.292	28.7219
25.31	28.1892
25.328	27.6509
25.346	27.1034
25.364	26.5517
25.382	26.0015
25.4	25.4503
25.418	24.8982
25.436	24.3526
25.454	23.8182
25.472	23.2891
25.49	22.7708
25.508	22.271
25.526	21.7909
25.544	21.3269
25.562	20.8844
25.58	20.4687
25.598	20.0777
25.616	19.7111
25.634	19.3711
25.652	19.0601
25.67	18.7782
25.688	18.5214
25.706	18.2855
25.724	18.0729
25.742	17.8844
25.76	17.7101
25.778	17.541
25.796	17.384
25.814	17.2357
25.832	17.0869
25.85	16.9319
25.868	16.7789
25.886	16.6202
25.904	16.4458
25.922	16.2531
25.94	16.0477
25.958	15.8243
25.976	15.5773
25.994	15.3097
26.012	15.0214
26.03	14.7071
26.048	14.3623
26.066	13.9931
26.084	13.5953
26.102	13.1611
26.12	12.686
26.138	12.1769
26.156	11.6282
26.174	11.0327
26.192	10.391
26.21	9.709773
26.228	8.975042
26.246	8.172142
26.264	7.299904
26.282	6.365280
26.3	5.362957
26.318	4.287597
26.336	3.133650
26.354	1.907812
26.372	0.621185
26.39	-0.716883
26.408	-2.123944
26.426	-3.586941
26.444	-5.078777
26.462	-6.579346
26.48	-8.122628
26.498	-9.681927
26.516	-11.2128
26.534	-12.6851
26.552	-14.1413
26.57	-15.552
26.588	-16.873
26.606	-18.0768
26.624	-19.2001
26.642	-20.2217
26.66	-21.1116
26.678	-21.8516
26.696	-22.4629
26.714	-22.9394
26.732	-23.2718
26.75	-23.4496
26.768	-23.4733
26.786	-23.3605
26.804	-23.1297
26.822	-22.7838
26.84	-22.3021
26.858	-21.7153
26.876	-21.0575
26.894	-20.3398
26.912	-19.5293
26.93	-18.6618
26.948	-17.7777
26.966	-16.8602
26.984	-15.821
27.002	-14.8209
27.02	-14.0373
27.028	-13.8284