File: Bakgrunnsmateriale/MATLAB/FTIR/ftir_data/LPE454/Mapping_121/LPE454_t100_cm-1.asc
PE IR       SPECTRUM    SPECTRUM    ASCII       PEDS        1.60
  -1
LP03DC~1.ASC
17/05/19
22:36:08.00
17/05/19
22:36:08.00
tln
$LPE454_t0100$<tbV0>[13.0,10.4,8.0,0.0,27,1,0]
370
64

2002,4.07
MIRTGS : RIGHTBACK : INTERNAL 2
MIR : ON : INTERNAL 2
OPTKBR

0.200000
8
8.000000
FILLER
RATIO
SPECTRUM
UNLOCKED 256

DOUBLE
64
COMBINED
1
0
0

1.000000
RATIO

1
0
TRUE
51149
0
LEFT NOT FITTED RIGHT NOT FITTED 0
NONE
NONE
15600
12
4.427000
51148
TRUE
1 0 8 72 0 0 0 0

15798

#HDR
-1
-1
#GR
CM-1
%T
2.38419e-05
0.0
5000
-1.000000
4631
8
32.2249
-12.9941
#DATA
5000	0.303506
4996	0.039386
4992	-0.290155
4988	-0.407958
4984	-0.106954
4980	0.202417
4976	0.243330
4972	0.324940
4968	0.396704
4964	0.382018
4960	0.480031
4956	0.455355
4952	0.202941
4948	-0.028419
4944	-0.091481
4940	0.178718
4936	0.549125
4932	0.653433
4928	0.575661
4924	0.449085
4920	0.310564
4916	0.239992
4912	0.337743
4908	0.474762
4904	0.473332
4900	0.412559
4896	0.319242
4892	0.131940
4888	-0.133109
4884	-0.255727
4880	-0.088381
4876	0.065708
4872	0.089335
4868	0.244116
4864	0.442934
4860	0.362563
4856	0.187873
4852	0.161767
4848	0.083804
4844	0.030660
4840	0.201797
4836	0.446915
4832	0.501823
4828	0.262618
4824	0.030922
4820	0.079274
4816	0.263953
4812	0.366854
4808	0.379014
4804	0.360321
4800	0.346350
4796	0.394821
4792	0.373291
4788	0.162839
4784	0.027132
4780	0.088882
4776	0.247240
4772	0.418090
4768	0.345540
4764	0.100684
4760	0.044417
4756	0.128436
4752	0.226116
4748	0.300908
4744	0.273251
4740	0.220823
4736	0.181007
4732	0.116539
4728	0.200176
4724	0.394773
4720	0.397992
4716	0.276708
4712	0.200819
4708	0.153112
4704	0.255727
4700	0.398421
4696	0.432467
4692	0.484681
4688	0.339698
4684	0.020170
4680	-0.314426
4676	-0.476384
4672	-0.160956
4668	0.102853
4664	0.025796
4660	-0.057315
4656	-0.164246
4652	-0.180888
4648	0.088381
4644	0.371026
4640	0.274848
4636	-0.216007
4632	-0.368380
4628	-0.310349
4624	-0.427436
4620	-0.254344
4616	0.083065
4612	-0.142025
4608	-0.932693
4604	0.525999
4600	9.120130
4596	18.2718
4592	19.6492
4588	16.9049
4584	9.500503
4580	3.112626
4576	0.543904
4572	-0.859308
4568	-0.197577
4564	0.156807
4560	-0.728964
4556	-1.185679
4552	-0.825476
4548	-0.739550
4544	-0.687432
4540	-0.662994
4536	-0.778293
4532	-0.733065
4528	-0.532126
4524	-0.682616
4520	-1.079368
4516	-0.937509
4512	-0.608777
4508	-0.618004
4504	-0.612711
4500	-0.380706
4496	-0.098681
4492	-0.095486
4488	-0.199627
4484	-0.075173
4480	-0.010180
4476	0.013136
4472	0.071024
4468	0.284481
4464	0.627636
4460	0.573468
4456	0.289607
4452	0.153923
4448	0.250458
4444	0.378990
4440	0.258588
4436	0.255084
4432	0.482225
4428	0.497651
4424	0.320029
4420	0.192427
4416	0.129246
4412	0.128889
4408	0.132799
4404	0.125956
4400	0.168919
4396	0.269913
4392	0.369954
4388	0.313091
4384	0.143051
4380	0.117325
4376	0.118637
4372	0.036096
4368	0.026369
4364	0.039029
4360	0.049185
4356	0.180149
4352	0.240635
4348	0.046777
4344	-0.072336
4340	0.032567
4336	0.186276
4332	0.342869
4328	0.443387
4324	0.454211
4320	0.401163
4316	0.217103
4312	-0.007915
4308	-0.070357
4304	0.020980
4300	0.212478
4296	0.282549
4292	0.224709
4288	0.317597
4284	0.426149
4280	0.332164
4276	0.120162
4272	-0.012445
4268	-0.010728
4264	0.083446
4260	0.131011
4256	0.179457
4252	0.328660
4248	0.317525
4244	0.127196
4240	0.069713
4236	0.201916
4232	0.279712
4228	0.180268
4224	0.084328
4220	0.103425
4216	0.069928
4212	0.006818
4208	-0.005531
4204	-0.015664
4200	0.056004
4196	0.211286
4192	0.390720
4188	0.357127
4184	-0.006818
4180	-0.210165
4176	-0.060462
4172	0.165867
4168	0.351762
4164	0.372529
4160	0.352621
4156	0.431394
4152	0.484108
4148	0.551438
4144	0.549244
4140	0.341200
4136	0.146579
4132	0.169849
4128	0.140523
4124	-0.018334
4120	0.014090
4116	0.070190
4112	-0.067019
4108	-0.271463
4104	-0.257730
4100	0.139188
4096	0.443553
4092	0.309062
4088	-0.339484
4084	-1.132822
4080	-0.896167
4076	0.152015
4072	0.615143
4068	0.099301
4064	-0.452136
4060	-0.118541
4056	0.373029
4052	0.432848
4048	0.680708
4044	0.996947
4040	0.837898
4036	0.407958
4032	0.319409
4028	0.620388
4024	0.830316
4020	0.932002
4016	0.849723
4012	0.416445
4008	0.014114
4004	-0.137662
4000	-0.103473
3996	0.212311
3992	0.589251
3988	0.585508
3984	0.295829
3980	0.059366
3976	-0.062584
3972	-0.097942
3968	-0.024557
3964	0.015926
3960	-0.020456
3956	-0.020933
3952	0.012755
3948	0.046491
3944	-0.011587
3940	-0.092792
3936	-0.045943
3932	0.095653
3928	0.179815
3924	0.105023
3920	0.011730
3916	0.131797
3912	0.364565
3908	0.366353
3904	0.122189
3900	-0.036025
3896	-0.030326
3892	-0.017762
3888	-0.072574
3884	-0.127530
3880	-0.115990
3876	-0.037741
3872	0.109362
3868	0.246548
3864	0.297188
3860	0.216460
3856	0.107240
3852	0.067830
3848	0.074195
3844	0.194120
3840	0.272846
3836	0.110912
3832	-0.013184
3828	0.051927
3824	0.097966
3820	0.085473
3816	0.073027
3812	0.111722
3808	0.176453
3804	0.121903
3800	0.073623
3796	0.176143
3792	0.206637
3788	0.092482
3784	-0.008082
3780	0.014710
3776	0.116968
3772	0.172924
3768	0.176119
3764	0.185322
3760	0.230503
3756	0.287747
3752	0.246500
3748	0.101852
3744	0.018143
3740	0.040102
3736	0.036239
3732	-0.032353
3728	-0.046610
3724	0.039720
3720	0.087285
3716	0.025534
3712	-0.027227
3708	0.013232
3704	0.095486
3700	0.077748
3696	-0.041913
3692	-0.063991
3688	0.020623
3684	0.000333
3680	-0.046610
3676	0.016427
3672	0.040745
3668	0.034546
3664	0.110650
3660	0.134658
3656	0.052952
3652	0.023293
3648	0.076985
3644	0.120067
3640	0.103592
3636	0.050830
3632	0.042462
3628	0.070929
3624	0.053954
3620	0.039148
3616	0.057244
3612	0.103163
3608	0.154781
3604	0.136113
3600	0.063347
3596	0.020694
3592	0.023531
3588	-0.007724
3584	-0.081372
3580	-0.070714
3576	-0.027465
3572	-0.033020
3568	-0.029373
3564	-0.011634
3560	0.027751
3556	0.114512
3552	0.169968
3548	0.155878
3544	0.121617
3540	0.115990
3536	0.073671
3532	-0.031018
3528	-0.045847
3524	0.042796
3520	0.076675
3516	0.002837
3512	-0.063991
3508	-0.074815
3504	-0.042700
3500	0.032687
3496	0.104117
3492	0.136232
3488	0.078463
3484	0.015163
3480	0.045180
3476	0.040531
3472	-0.018239
3468	-0.016522
3464	0.049424
3460	0.076723
3456	0.052833
3452	0.050354
3448	0.068712
3444	0.116920
3440	0.153565
3436	0.144314
3432	0.108766
3428	0.096225
3424	0.166273
3420	0.278830
3416	0.347328
3412	0.277304
3408	0.135493
3404	0.105309
3400	0.102424
3396	0.058937
3392	0.074791
3388	0.100159
3384	0.058865
3380	0.032567
3376	0.103330
3372	0.152921
3368	0.094079
3364	0.026369
3360	0.032496
3356	0.062155
3352	0.042200
3348	0.018429
3344	0.039529
3340	0.089716
3336	0.131583
3332	0.120878
3328	0.059747
3324	0.001668
3320	0.014519
3316	0.134134
3312	0.253653
3308	0.220131
3304	0.124835
3300	0.105953
3296	0.106430
3292	0.063943
3288	0.041866
3284	0.071454
3280	0.100946
3276	0.130558
3272	0.116968
3268	0.039744
3264	0.010871
3260	0.046586
3256	0.056385
3252	0.034117
3248	0.015759
3244	-0.031518
3240	-0.082159
3236	-0.074315
3232	0.023365
3228	0.133752
3224	0.148129
3220	0.106477
3216	0.029897
3212	0.015854
3208	0.053954
3204	-0.006175
3200	-0.047421
3196	0.013661
3192	0.070905
3188	0.044131
3184	-0.028753
3180	-0.044369
3176	0.046730
3172	0.141549
3168	0.153565
3164	0.136947
3160	0.085496
3156	0.037384
3152	0.118494
3148	0.186657
3144	0.102758
3140	0.043940
3136	0.111770
3132	0.213885
3128	0.211238
3124	0.131225
3120	0.140857
3116	0.191235
3112	0.196409
3108	0.175809
3104	0.131726
3100	0.105309
3096	0.107932
3092	0.084829
3088	0.011420
3084	-0.041055
3080	-0.046801
3076	-0.050544
3072	-0.043511
3068	-0.058293
3064	-0.044226
3060	0.062561
3056	0.115013
3052	0.070023
3048	0.059080
3044	0.095224
3040	0.064921
3036	-0.034475
3032	-0.055003
3028	0.020527
3024	0.101375
3020	0.154328
3016	0.128388
3012	0.088500
3008	0.065755
3004	0.020623
3000	0.034260
2996	0.123834
2992	0.175571
2988	0.145959
2984	0.067973
2980	-0.004720
2976	-0.022816
2972	0.006651
2968	0.047945
2964	0.052857
2960	0.037288
2956	0.062394
2952	0.112891
2948	0.136852
2944	0.154042
2940	0.176978
2936	0.114202
2932	-0.025916
2928	-0.083351
2924	0.011920
2920	0.135588
2916	0.154709
2912	0.111794
2908	0.085663
2904	0.065207
2900	0.063824
2896	0.076556
2892	0.079369
2888	0.088047
2884	0.095152
2880	0.106310
2876	0.095677
2872	0.055360
2868	0.030684
2864	0.017714
2860	0.043582
2856	0.057196
2852	-0.008463
2848	0.005006
2844	0.103235
2840	0.154972
2836	0.171971
2832	0.154256
2828	0.131940
2824	0.123739
2820	0.108337
2816	0.078558
2812	0.071573
2808	0.082349
2804	0.031495
2800	-0.017523
2796	0.016307
2792	0.012183
2788	-0.042557
2784	-0.050592
2780	-0.056791
2776	-0.046825
2772	-0.003814
2768	0.007319
2764	0.000452
2760	0.027608
2756	0.075578
2752	0.093102
2748	0.072216
2744	0.059199
2740	0.062131
2736	0.040626
2732	0.002479
2728	0.003266
2724	0.050425
2720	0.059318
2716	0.003147
2712	0.008654
2708	0.054955
2704	0.011038
2700	-0.013375
2696	0.064969
2692	0.104331
2688	0.061798
2684	0.024890
2680	0.004053
2676	-0.034332
2672	-0.037527
2668	-0.003767
2664	-0.007152
2660	-0.000166
2656	0.046467
2652	0.091433
2648	0.103616
2644	0.093698
2640	0.096535
2636	0.088214
2632	0.074410
2628	0.077176
2624	0.056052
2620	0.004720
2616	-0.026345
2612	0.002026
2608	0.049996
2604	0.057029
2600	0.042176
2596	0.039100
2592	0.034761
2588	0.045895
2584	0.090765
2580	0.095176
2576	0.092601
2572	0.122022
2568	0.133252
2564	0.184011
2560	0.219273
2556	0.132226
2552	0.052475
2548	0.054073
2544	0.066566
2540	0.075101
2536	0.060391
2532	0.002026
2528	-0.027823
2524	0.002765
2520	0.044274
2516	0.076127
2512	0.084400
2508	0.060677
2504	-0.005006
2500	-0.102138
2496	-0.125932
2492	-0.038266
2488	0.035047
2484	0.046944
2480	0.047421
2476	0.047063
2472	0.043559
2468	0.025558
2464	-0.001668
2460	-0.004291
2456	-0.006484
2452	-0.032424
2448	-0.047373
2444	-0.037932
2440	-0.014066
2436	0.028824
2432	0.049209
2428	0.024199
2424	0.091409
2420	0.225210
2416	0.173616
2412	0.048875
2408	0.054621
2404	0.054860
2400	0.032138
2396	0.023555
2392	0.020146
2388	0.054168
2384	0.069999
2380	0.025582
2376	0.003862
2372	0.039505
2368	0.085067
2364	0.151538
2360	0.179767
2356	0.117826
2352	0.080299
2348	0.137639
2344	0.203371
2340	0.193190
2336	0.136089
2332	0.099205
2328	0.094485
2324	0.106143
2320	0.149440
2316	0.229144
2312	0.284266
2308	0.272488
2304	0.258469
2300	0.301766
2296	0.381302
2292	0.451397
2288	0.480985
2284	0.530004
2280	0.633454
2276	0.715041
2272	0.791549
2268	0.887465
2264	0.960326
2260	1.030683
2256	1.112103
2252	1.238894
2248	1.414537
2244	1.559472
2240	1.679801
2236	1.824665
2232	2.004003
2228	2.212405
2224	2.433872
2220	2.646851
2216	2.849268
2212	3.062534
2208	3.298974
2204	3.525447
2200	3.748726
2196	4.011631
2192	4.303097
2188	4.626941
2184	4.978179
2180	5.308198
2176	5.579972
2172	5.825662
2168	6.158256
2164	6.612563
2160	7.017374
2156	7.325482
2152	7.716226
2148	8.178520
2144	8.597230
2140	9.030985
2136	9.513688
2132	9.966182
2128	10.366
2124	10.7486
2120	11.1637
2116	11.6054
2112	12.0648
2108	12.5826
2104	13.0806
2100	13.4412
2096	13.7403
2092	14.177
2088	14.717
2084	15.1566
2080	15.5437
2076	15.9675
2072	16.3644
2068	16.7241
2064	17.1388
2060	17.6221
2056	18.0498
2052	18.4032
2048	18.7571
2044	19.1702
2040	19.6203
2036	20.0274
2032	20.3883
2028	20.7289
2024	21.0825
2020	21.4145
2016	21.6752
2012	21.9654
2008	22.3283
2004	22.677
2000	22.9884
1996	23.3068
1992	23.6231
1988	23.8651
1984	24.0513
1980	24.2699
1976	24.5209
1972	24.7816
1968	25.0449
1964	25.2709
1960	25.5177
1956	25.832
1952	26.0907
1948	26.2869
1944	26.5041
1940	26.7205
1936	26.9014
1932	27.0801
1928	27.2954
1924	27.4755
1920	27.6332
1916	27.8271
1912	27.975
1908	28.1037
1904	28.2807
1900	28.4461
1896	28.5429
1892	28.6127
1888	28.7374
1884	28.9008
1880	29.0355
1876	29.1433
1872	29.2735
1868	29.4235
1864	29.5579
1860	29.6651
1856	29.7906
1852	29.9621
1848	30.1033
1844	30.1512
1840	30.1187
1836	30.1209
1832	30.2469
1828	30.4217
1824	30.5859
1820	30.723
1816	30.7824
1812	30.766
1808	30.7543
1804	30.8056
1800	30.8733
1796	30.9619
1792	31.0658
1788	31.0927
1784	31.1104
1780	31.1865
1776	31.2516
1772	31.2745
1768	31.3049
1764	31.3959
1760	31.4954
1756	31.4894
1752	31.4408
1748	31.4718
1744	31.532
1740	31.6275
1736	31.7343
1732	31.7469
1728	31.751
1724	31.7933
1720	31.796
1716	31.797
1712	31.824
1708	31.8527
1704	31.8995
1700	31.9158
1696	31.8633
1692	31.8151
1688	31.8421
1684	31.9337
1680	32.0511
1676	32.1007
1672	32.0669
1668	32.0675
1664	32.1069
1660	32.1328
1656	32.1297
1652	32.114
1648	32.1311
1644	32.1559
1640	32.1471
1636	32.1338
1632	32.1519
1628	32.2066
1624	32.2192
1620	32.1657
1616	32.1486
1612	32.1182
1608	32.028
1604	32.0135
1600	32.0907
1596	32.1578
1592	32.1584
1588	32.12
1584	32.1286
1580	32.1609
1576	32.1644
1572	32.1758
1568	32.1609
1564	32.1078
1560	32.1052
1556	32.1061
1552	32.0318
1548	31.9938
1544	32.0091
1540	31.9831
1536	31.9571
1532	31.9401
1528	31.903
1524	31.9076
1520	31.94
1516	31.9474
1512	31.9513
1508	31.936
1504	31.9162
1500	31.9156
1496	31.882
1492	31.8518
1488	31.8713
1484	31.884
1480	31.8838
1476	31.8685
1472	31.8429
1468	31.8321
1464	31.829
1460	31.7928
1456	31.7237
1452	31.7076
1448	31.7483
1444	31.7556
1440	31.7115
1436	31.689
1432	31.7273
1428	31.7213
1424	31.6739
1420	31.7116
1416	31.7624
1412	31.7145
1408	31.6172
1404	31.5585
1400	31.539
1396	31.5249
1392	31.496
1388	31.465
1384	31.5104
1380	31.5738
1376	31.5392
1372	31.4478
1368	31.3751
1364	31.3435
1360	31.3417
1356	31.3858
1352	31.4293
1348	31.393
1344	31.3209
1340	31.2896
1336	31.2967
1332	31.2845
1328	31.2383
1324	31.1897
1320	31.189
1316	31.2484
1312	31.2241
1308	31.116
1304	31.1114
1300	31.1585
1296	31.1559
1292	31.1585
1288	31.1374
1284	31.0967
1280	31.131
1276	31.1279
1272	31.0323
1268	30.9453
1264	30.8712
1260	30.8592
1256	30.908
1252	30.9339
1248	30.9682
1244	31.0047
1240	30.9282
1236	30.8038
1232	30.7914
1228	30.7944
1224	30.7288
1220	30.687
1216	30.6823
1212	30.6822
1208	30.6612
1204	30.6388
1200	30.6299
1196	30.5921
1192	30.5517
1188	30.553
1184	30.5287
1180	30.4152
1176	30.3235
1172	30.2932
1168	30.2918
1164	30.3677
1160	30.4407
1156	30.4189
1152	30.373
1148	30.3553
1144	30.3647
1140	30.3762
1136	30.3352
1132	30.2613
1128	30.21
1124	30.1886
1120	30.2037
1116	30.2176
1112	30.1451
1108	30.0482
1104	29.9762
1100	29.8758
1096	29.8274
1092	29.8263
1088	29.8204
1084	29.8348
1080	29.8366
1076	29.8348
1072	29.8119
1068	29.7554
1064	29.7154
1060	29.6588
1056	29.5972
1052	29.5879
1048	29.5208
1044	29.394
1040	29.3897
1036	29.5025
1032	29.6277
1028	29.6938
1024	29.6328
1020	29.4259
1016	29.2091
1012	29.182
1008	29.3294
1004	29.4509
1000	29.3667
996	 29.13
992	 28.9928
988	 29.0317
984	 29.1569
980	 29.2097
976	 29.0956
972	 28.9479
968	 28.8208
964	 28.7371
960	 28.7281
956	 28.7478
952	 28.8587
948	 28.9626
944	 28.8902
940	 28.7563
936	 28.7095
932	 28.7448
928	 28.7704
924	 28.7337
920	 28.6349
916	 28.4913
912	 28.335
908	 28.2116
904	 28.187
900	 28.1743
896	 28.1176
892	 28.0941
888	 27.9829
884	 27.8121
880	 27.7876
876	 27.8461
872	 27.9045
868	 27.9016
864	 27.8167
860	 27.7098
856	 27.5923
852	 27.5223
848	 27.5011
844	 27.5244
840	 27.5949
836	 27.5594
832	 27.4786
828	 27.4863
824	 27.4667
820	 27.393
816	 27.3464
812	 27.2732
808	 27.0495
804	 26.8508
800	 26.874
796	 26.9557
792	 26.9409
788	 26.8487
784	 26.7357
780	 26.5771
776	 26.4778
772	 26.5539
768	 26.6272
764	 26.6248
760	 26.6856
756	 26.8283
752	 26.7234
748	 26.3887
744	 26.1273
740	 25.8925
736	 25.7934
732	 25.8024
728	 25.7469
724	 25.6673
720	 25.557
716	 25.466
712	 25.4429
708	 25.4388
704	 25.4151
700	 25.3162
696	 25.1642
692	 25.0371
688	 24.8682
684	 24.7423
680	 24.7809
676	 24.7314
672	 24.4634
668	 24.2894
664	 24.322
660	 24.3413
656	 24.4074
652	 24.5258
648	 24.4599
644	 24.2904
640	 24.0017
636	 23.5301
632	 23.3439
628	 23.56
624	 23.7591
620	 23.6942
616	 23.6802
612	 23.958
608	 23.9928
604	 23.6571
600	 23.3302
596	 23.0544
592	 22.8729
588	 22.9637
584	 23.1663
580	 23.3299
576	 23.5536
572	 23.3925
568	 22.7226
564	 21.9228
560	 21.5295
556	 22.0946
552	 22.7584
548	 22.6404
544	 22.2434
540	 21.8529
536	 21.5035
532	 21.0666
528	 20.9107
524	 21.6296
520	 21.743
516	 21.1739
512	 21.2733
508	 21.6416
504	 22.0921
500	 22.1584
496	 21.6364
492	 20.8687
488	 19.7494
484	 19.0732
480	 19.4763
476	 20.2772
472	 20.482
468	 19.9789
464	 19.0938
460	 18.4398
456	 18.5317
452	 18.9294
448	 19.4465
444	 19.6212
440	 18.4032
436	 16.8457
432	 17.3369
428	 18.2483
424	 18.0832
420	 17.9851
416	 16.5679
412	 13.931
408	 13.4263
404	 16.0476
400	 16.1597
396	 10.9452
392	 6.702232
388	 7.021379
384	 6.139683
380	 3.242063
376	 -10.9963
372	 -2.230453
370	 13.4183