File: Bakgrunnsmateriale/MATLAB/FTIR/ftir_data/LPE454/Mapping_121/LPE454_e123.asc
PE IR       SPECTRUM    SPECTRUM    ASCII       PEDS        1.60
  -1
LP8FF4~1.ASC
17/05/19
16:12:42.00
17/05/19
16:13:08.00
tln
$LPE454_e0123$<ebV0>[-23.3,12.1,10.0,0.0,27,1,0]
27.028
64

2002,4.07
MIRTGS : RIGHTBACK : INTERNAL 2
MIR : ON : INTERNAL 2
OPTKBR

0.200000
8
8.000000
FILLER
SINGLE
SPECTRUM
UNLOCKED 256

DOUBLE

COMBINED
1
0
0

0.002000
BACKG

1
0
TRUE
51149
0
LEFT NOT FITTED RIGHT NOT FITTED 0
NONE
NONE
15600
12
4.427000
51148
TRUE
1 0 8 72 0 0 0 0

15798

#HDR
-1
-1
#GR
µM
EGY
2.38419e-05
0.0
2.000000
0.002000
12515
8
2.425860
0.007486
#DATA
2.000000	 0.769782
2.018000	 0.790443
2.036000	 0.806801
2.054000	 0.832221
2.072000	 0.855076
2.090000	 0.880163
2.108000	 0.895195
2.126000	 0.904065
2.144000	 0.902867
2.162000	 0.908623
2.180000	 0.937063
2.198000	 0.951259
2.216000	 1.260809
2.234000	 0.994520
2.252000	 0.996413
2.270000	 1.008502
2.288000	 1.031520
2.306000	 1.066758
2.324000	 1.105816
2.342000	 1.147133
2.360000	 1.176736
2.378000	 1.192669
2.396000	 1.210544
2.414000	 1.226185
2.432000	 1.251147
2.450000	 1.285880
2.468000	 1.323481
2.486000	 1.361830
2.504000	 1.386574
2.522000	 1.403035
2.540000	 1.415726
2.558000	 1.425388
2.576000	 1.432194
2.594000	 1.437118
2.612000	 1.480443
2.630000	 1.499774
2.648000	 1.538890
2.666000	 1.534264
2.684000	 1.564449
2.702000	 1.569760
2.720000	 1.558315
2.738000	 1.563342
2.756000	 1.566115
2.774000	 1.580164
2.792000	 1.592007
2.810000	 1.605367
2.828000	 1.611139
2.846000	 1.616366
2.864000	 1.610405
2.882000	 1.598239
2.900000	 1.584676
2.918000	 1.573443
2.936000	 1.582150
2.954000	 1.596763
2.972000	 1.615906
2.990000	 1.645378
3.008000	 1.673649
3.026000	 1.703997
3.044000	 1.730208
3.062000	 1.749041
3.080000	 1.761646
3.098000	 1.772288
3.116000	 1.775614
3.134000	 1.778581
3.152000	 1.783899
3.170000	 1.790410
3.188000	 1.808433
3.206000	 1.827838
3.224000	 1.853973
3.242000	 1.888943
3.260000	 1.910541
3.278000	 1.940010
3.296000	 1.959039
3.314000	 1.942542
3.332000	 2.005417
3.350000	 2.010043
3.368000	 1.952931
3.386000	 1.908429
3.404000	 1.816403
3.422000	 1.769353
3.440000	 1.918104
3.458000	 1.970387
3.476000	 1.986521
3.494000	 1.889935
3.512000	 1.995617
3.530000	 2.083158
3.548000	 2.125112
3.566000	 2.153494
3.584000	 2.177797
3.602000	 2.205892
3.620000	 2.223886
3.638000	 2.232609
3.656000	 2.237877
3.674000	 2.238241
3.692000	 2.234197
3.710000	 2.224554
3.728000	 2.218477
3.746000	 2.209903
3.764000	 2.201665
3.782000	 2.198369
3.800000	 2.198852
3.818000	 2.199382
3.836000	 2.203573
3.854000	 2.203837
3.872000	 2.219039
3.890000	 2.239161
3.908000	 2.252603
3.926000	 2.267725
3.944000	 2.282417
3.962000	 2.289214
3.980000	 2.302023
3.998000	 2.301830
4.016000	 2.303317
4.034000	 2.302098
4.052000	 2.295680
4.070000	 2.286531
4.088000	 2.274531
4.106000	 2.263616
4.124000	 2.255478
4.141999	 2.245456
4.160000	 2.236809
4.178000	 2.230528
4.196000	 2.224254
4.214000	 2.216155
4.232000	 2.210976
4.250000	 2.229238
4.268000	 2.239789
4.286000	 2.249191
4.304000	 2.269156
4.322000	 2.290412
4.340000	 2.306287
4.358000	 2.318480
4.375999	 2.329475
4.394000	 2.340659
4.412000	 2.345104
4.430000	 2.348669
4.448000	 2.353505
4.466000	 2.353055
4.484000	 2.351252
4.502000	 2.346039
4.520000	 2.340287
4.538000	 2.333906
4.556000	 2.326115
4.574000	 2.320447
4.592000	 2.313957
4.609999	 2.308613
4.628000	 2.305103
4.646000	 2.302836
4.664000	 2.304673
4.682000	 2.304935
4.700000	 2.305395
4.718000	 2.304315
4.736000	 2.305972
4.754000	 2.309234
4.772000	 2.305478
4.790000	 2.306861
4.808000	 2.313812
4.826000	 2.326489
4.843999	 2.340888
4.862000	 2.356153
4.880000	 2.369993
4.898000	 2.386508
4.916000	 2.400625
4.934000	 2.408974
4.952000	 2.413985
4.970000	 2.421773
4.988000	 2.424478
5.006000	 2.425324
5.024000	 2.424954
5.042000	 2.421210
5.060000	 2.416749
5.077999	 2.406545
5.096000	 2.403475
5.114000	 2.397878
5.132000	 2.389820
5.150000	 2.381517
5.168000	 2.376829
5.186000	 2.370362
5.204000	 2.364145
5.222000	 2.355884
5.240000	 2.351014
5.258000	 2.345582
5.276000	 2.340547
5.294000	 2.337832
5.312000	 2.340189
5.330000	 2.342745
5.348000	 2.342581
5.366000	 2.348231
5.384000	 2.354678
5.402000	 2.357879
5.420000	 2.356877
5.438000	 2.365513
5.456000	 2.369841
5.474000	 2.372243
5.492000	 2.383700
5.510000	 2.390695
5.528000	 2.393237
5.546000	 2.395167
5.564000	 2.391234
5.582000	 2.389731
5.600000	 2.393272
5.618000	 2.389134
5.636000	 2.378410
5.654000	 2.376510
5.672000	 2.376243
5.690000	 2.367164
5.708000	 2.349415
5.726000	 2.334372
5.744000	 2.314991
5.762000	 2.287901
5.780000	 2.287309
5.798000	 2.289831
5.816000	 2.271113
5.834000	 2.265035
5.852000	 2.260702
5.870000	 2.234210
5.888000	 2.214556
5.906000	 2.222034
5.923999	 2.213536
5.942000	 2.199081
5.960000	 2.201400
5.978000	 2.192692
5.996000	 2.184742
6.014000	 2.176973
6.032000	 2.153436
6.050000	 2.124602
6.068000	 2.123083
6.086000	 2.125488
6.104000	 2.113358
6.122000	 2.102588
6.140000	 2.094204
6.158000	 2.072301
6.176000	 2.036270
6.194000	 1.990005
6.212000	 1.950283
6.230000	 1.940336
6.248000	 1.957999
6.266000	 1.976387
6.284000	 1.983843
6.302000	 1.980566
6.320000	 1.969884
6.338000	 1.955485
6.356000	 1.949351
6.374000	 1.945031
6.392000	 1.923533
6.410000	 1.894618
6.428000	 1.898263
6.446000	 1.921486
6.464000	 1.925999
6.482000	 1.926256
6.500000	 1.962628
6.518000	 2.024269
6.536000	 2.065539
6.554000	 2.076616
6.572000	 2.074840
6.590000	 2.072804
6.608000	 2.064352
6.626000	 2.040118
6.644000	 1.987640
6.662000	 1.866204
6.680000	 1.705626
6.698000	 1.647449
6.716000	 1.731622
6.734000	 1.851067
6.752000	 1.923501
6.770000	 1.945259
6.788000	 1.945658
6.806000	 1.940045
6.824000	 1.920857
6.842000	 1.876714
6.860000	 1.808336
6.878000	 1.747864
6.896000	 1.739176
6.914000	 1.779160
6.932000	 1.819152
6.950000	 1.834489
6.968000	 1.839006
6.986000	 1.841709
7.004000	 1.841187
7.022000	 1.837031
7.040000	 1.829305
7.058000	 1.819024
7.076000	 1.799798
7.094000	 1.762121
7.112000	 1.718385
7.130000	 1.698513
7.148000	 1.712685
7.166000	 1.741834
7.184000	 1.761200
7.202000	 1.762599
7.220000	 1.759168
7.238000	 1.764814
7.256000	 1.775770
7.274000	 1.783615
7.292000	 1.787908
7.310000	 1.789810
7.328000	 1.789787
7.346000	 1.789631
7.364000	 1.789733
7.382000	 1.789089
7.400000	 1.788254
7.418000	 1.787796
7.436000	 1.786780
7.454000	 1.786415
7.472000	 1.790449
7.490000	 1.799578
7.508000	 1.809329
7.526000	 1.816079
7.544000	 1.820234
7.562000	 1.823792
7.580000	 1.826880
7.598000	 1.828208
7.616000	 1.827841
7.634000	 1.827431
7.652000	 1.827760
7.670000	 1.827869
7.688000	 1.827170
7.706000	 1.826046
7.724000	 1.825309
7.742000	 1.825264
7.760000	 1.825546
7.778000	 1.825355
7.796000	 1.823730
7.814000	 1.819518
7.832000	 1.810863
7.850000	 1.795074
7.868000	 1.769938
7.886000	 1.737286
7.904000	 1.706605
7.922000	 1.691046
7.940000	 1.698137
7.958000	 1.723176
7.976000	 1.753729
7.994000	 1.779136
8.012000	 1.795469
8.030000	 1.803940
8.048000	 1.807620
8.065999	 1.808849
8.084000	 1.808599
8.102000	 1.807114
8.120000	 1.804443
8.138000	 1.800909
8.155999	 1.796037
8.173999	 1.788942
8.192000	 1.778972
8.210000	 1.766740
8.228000	 1.753519
8.246000	 1.741210
8.263999	 1.731685
8.282000	 1.726082
8.300000	 1.724016
8.318000	 1.723965
8.336000	 1.724362
8.353999	 1.724041
8.372000	 1.722015
8.390000	 1.717914
8.408000	 1.712466
8.426000	 1.706543
8.443999	 1.700730
8.462000	 1.695082
8.480000	 1.689293
8.498000	 1.682701
8.516000	 1.674782
8.533999	 1.665418
8.552000	 1.655008
8.570000	 1.643710
8.588000	 1.631693
8.606000	 1.619794
8.624000	 1.609695
8.641999	 1.602524
8.660000	 1.597937
8.678000	 1.594605
8.696000	 1.591329
8.714000	 1.587587
8.731999	 1.583136
8.750000	 1.577891
8.768000	 1.571753
8.786000	 1.564734
8.804000	 1.556799
8.821999	 1.547908
8.840000	 1.538116
8.858000	 1.527665
8.876000	 1.516651
8.894000	 1.505093
8.911999	 1.493108
8.930000	 1.481015
8.948000	 1.469378
8.966000	 1.458445
8.984000	 1.448285
9.001999	 1.438878
9.020000	 1.430453
9.038000	 1.423322
9.056000	 1.417646
9.074000	 1.413403
9.092000	 1.410462
9.109999	 1.408805
9.128000	 1.408372
9.146000	 1.408886
9.164000	 1.410085
9.182000	 1.411750
9.199999	 1.413324
9.218000	 1.414068
9.236000	 1.413335
9.254000	 1.411541
9.272000	 1.409946
9.289999	 1.409935
9.308000	 1.412005
9.326000	 1.415492
9.344000	 1.419141
9.362000	 1.421924
9.379999	 1.423203
9.398000	 1.422219
9.416000	 1.417176
9.434000	 1.405348
9.452000	 1.384325
9.469999	 1.354924
9.488000	 1.323001
9.506000	 1.297835
9.524000	 1.287636
9.542000	 1.294815
9.560000	 1.314377
9.577999	 1.337377
9.596000	 1.356029
9.614000	 1.366965
9.632000	 1.371036
9.650000	 1.370753
9.667999	 1.368219
9.686000	 1.364495
9.704000	 1.360016
9.722000	 1.355261
9.740000	 1.350869
9.757999	 1.347376
9.776000	 1.345234
9.794000	 1.344583
9.812000	 1.345438
9.830000	 1.347827
9.847999	 1.351492
9.866000	 1.356110
9.884000	 1.361255
9.902000	 1.366370
9.920000	 1.371109
9.937999	 1.375123
9.956000	 1.378139
9.974000	 1.380038
9.992000	 1.380904
10.01	1.381063
10.028	1.380795
10.046	1.380383
10.064	1.379708
10.082	1.378572
10.1	1.376819
10.118	1.374398
10.136	1.371642
10.154	1.368742
10.172	1.365792
10.19	1.362796
10.208	1.359477
10.226	1.355777
10.244	1.351609
10.262	1.347051
10.28	1.342233
10.298	1.337192
10.316	1.331944
10.334	1.326425
10.352	1.320613
10.37	1.314492
10.388	1.308278
10.406	1.302136
10.424	1.296256
10.442	1.290661
10.46	1.285269
10.478	1.279984
10.496	1.274687
10.514	1.269498
10.532	1.264654
10.55	1.260328
10.568	1.256537
10.586	1.253239
10.604	1.250221
10.622	1.247326
10.64	1.244410
10.658	1.241392
10.676	1.238209
10.694	1.234832
10.712	1.231236
10.73	1.227391
10.748	1.223494
10.766	1.219566
10.784	1.215855
10.802	1.212403
10.82	1.209239
10.838	1.206134
10.856	1.202916
10.874	1.199314
10.892	1.195016
10.91	1.189954
10.928	1.184188
10.946	1.178031
10.964	1.171870
10.982	1.166016
11	1.160778
11.018	1.156129
11.036	1.152074
11.054	1.148448
11.072	1.145270
11.09	1.142470
11.108	1.140146
11.126	1.138188
11.144	1.136428
11.162	1.134634
11.18	1.132299
11.198	1.129099
11.216	1.124583
11.234	1.118536
11.252	1.110767
11.27	1.101315
11.288	1.090239
11.306	1.077872
11.324	1.064769
11.342	1.051637
11.36	1.039402
11.378	1.028940
11.396	1.021211
11.414	1.016780
11.432	1.015986
11.45	1.018732
11.468	1.024455
11.486	1.032432
11.504	1.041630
11.522	1.051071
11.54	1.059893
11.558	1.067375
11.576	1.073236
11.594	1.077328
11.612	1.079708
11.63	1.080743
11.648	1.080769
11.666	1.080103
11.684	1.078988
11.702	1.077705
11.72	1.076298
11.738	1.074860
11.756	1.073406
11.774	1.071967
11.792	1.070489
11.81	1.068932
11.828	1.067162
11.846	1.064890
11.864	1.061811
11.882	1.057566
11.9	1.051756
11.918	1.044031
11.936	1.033848
11.954	1.020973
11.972	1.005092
11.99	0.986133
12.008	0.964330
12.026	0.940323
12.044	0.915290
12.062	0.890838
12.08	0.868862
12.098	0.851171
12.116	0.839315
12.134	0.834141
12.152	0.835670
12.17	0.843073
12.188	0.854833
12.206	0.869160
12.224	0.884108
12.242	0.898089
12.26	0.910147
12.278	0.919665
12.296	0.926584
12.314	0.931201
12.332	0.933947
12.35	0.935344
12.368	0.935675
12.386	0.935475
12.404	0.934903
12.422	0.934209
12.44	0.933553
12.458	0.933100
12.476	0.932922
12.494	0.933104
12.512	0.933765
12.53	0.934883
12.548	0.936409
12.566	0.938394
12.584	0.940774
12.602	0.943433
12.62	0.946320
12.638	0.949350
12.656	0.952438
12.674	0.955442
12.692	0.958290
12.71	0.960938
12.728	0.963290
12.746	0.965314
12.764	0.966917
12.782	0.968052
12.8	0.968755
12.818	0.969063
12.836	0.968993
12.854	0.968633
12.872	0.968074
12.89	0.967326
12.908	0.966457
12.926	0.965539
12.944	0.964579
12.962	0.963578
12.98	0.962580
12.998	0.961643
13.016	0.960778
13.034	0.960037
13.052	0.959413
13.07	0.958898
13.088	0.958443
13.106	0.957993
13.124	0.957492
13.142	0.956859
13.16	0.955985
13.178	0.954787
13.196	0.953362
13.214	0.951688
13.232	0.949805
13.25	0.947800
13.268	0.945769
13.286	0.943764
13.304	0.941857
13.322	0.940099
13.34	0.938511
13.358	0.937083
13.376	0.935806
13.394	0.934618
13.412	0.933478
13.43	0.932323
13.448	0.931094
13.466	0.929737
13.484	0.928234
13.502	0.926572
13.52	0.924727
13.538	0.922668
13.556	0.920412
13.574	0.917923
13.592	0.915264
13.61	0.912435
13.628	0.909472
13.646	0.906464
13.664	0.903447
13.682	0.900445
13.7	0.897523
13.718	0.894720
13.736	0.892057
13.754	0.889486
13.772	0.887033
13.79	0.884633
13.808	0.882270
13.826	0.879844
13.844	0.877340
13.862	0.874741
13.88	0.872059
13.898	0.869288
13.916	0.866426
13.934	0.863511
13.952	0.860605
13.97	0.857756
13.988	0.854972
14.006	0.852214
14.024	0.849527
14.042	0.846867
14.06	0.844220
14.078	0.841528
14.096	0.838801
14.114	0.836018
14.132	0.833164
14.15	0.830227
14.168	0.827179
14.186	0.824020
14.204	0.820714
14.222	0.817308
14.24	0.813748
14.258	0.809978
14.276	0.806009
14.294	0.801821
14.312	0.797363
14.33	0.792587
14.348	0.787452
14.366	0.781966
14.384	0.776109
14.402	0.769924
14.42	0.763511
14.438	0.756987
14.456	0.750493
14.474	0.744212
14.492	0.738373
14.51	0.733192
14.528	0.728856
14.546	0.725440
14.564	0.723020
14.582	0.721598
14.6	0.721054
14.618	0.721214
14.636	0.721957
14.654	0.723008
14.672	0.724195
14.69	0.725354
14.708	0.726320
14.726	0.726992
14.744	0.727316
14.762	0.727285
14.78	0.726873
14.798	0.726081
14.816	0.724947
14.834	0.723532
14.852	0.721861
14.87	0.719973
14.888	0.717915
14.906	0.715737
14.924	0.713474
14.942	0.711166
14.96	0.708882
14.978	0.706645
14.996	0.704468
15.014	0.702377
15.032	0.700368
15.05	0.698428
15.068	0.696544
15.086	0.694705
15.104	0.692900
15.122	0.691081
15.14	0.689251
15.158	0.687412
15.176	0.685560
15.194	0.683680
15.212	0.681807
15.23	0.679920
15.248	0.678005
15.266	0.676067
15.284	0.674127
15.302	0.672126
15.32	0.670071
15.338	0.667981
15.356	0.665839
15.374	0.663627
15.392	0.661382
15.41	0.659137
15.428	0.656897
15.446	0.654670
15.464	0.652495
15.482	0.650401
15.5	0.648396
15.518	0.646461
15.536	0.644599
15.554	0.642804
15.572	0.641065
15.59	0.639373
15.608	0.637708
15.626	0.636056
15.644	0.634404
15.662	0.632772
15.68	0.631142
15.698	0.629502
15.716	0.627868
15.734	0.626225
15.752	0.624583
15.77	0.622961
15.788	0.621330
15.806	0.619680
15.824	0.618011
15.842	0.616336
15.86	0.614646
15.878	0.612918
15.896	0.611128
15.914	0.609265
15.932	0.607351
15.95	0.605398
15.968	0.603418
15.986	0.601381
16.004	0.599303
16.022	0.597213
16.04	0.595079
16.058	0.592901
16.076	0.590683
16.094	0.588459
16.112	0.586169
16.13	0.583807
16.148	0.581419
16.166	0.578926
16.184	0.576330
16.202	0.573658
16.22	0.570856
16.238	0.567929
16.256	0.564888
16.274	0.561743
16.292	0.558494
16.31	0.555142
16.328	0.551726
16.346	0.548292
16.364	0.544873
16.382	0.541483
16.4	0.538192
16.418	0.535048
16.436	0.532128
16.454	0.529458
16.472	0.527064
16.49	0.524994
16.508	0.523257
16.526	0.521859
16.544	0.520755
16.562	0.519919
16.58	0.519327
16.598	0.518941
16.616	0.518690
16.634	0.518510
16.652	0.518355
16.67	0.518192
16.688	0.517984
16.706	0.517710
16.724	0.517356
16.742	0.516896
16.76	0.516352
16.778	0.515741
16.796	0.515108
16.814	0.514455
16.832	0.513785
16.85	0.513109
16.868	0.512423
16.886	0.511727
16.904	0.511062
16.922	0.510394
16.94	0.509648
16.958	0.508892
16.976	0.508130
16.994	0.507325
17.012	0.506491
17.03	0.505632
17.048	0.504743
17.066	0.503840
17.084	0.502949
17.102	0.502092
17.12	0.501275
17.138	0.500510
17.156	0.499782
17.174	0.499074
17.192	0.498422
17.21	0.497824
17.228	0.497273
17.246	0.496757
17.264	0.496268
17.282	0.495788
17.3	0.495317
17.318	0.494860
17.336	0.494397
17.354	0.493914
17.372	0.493405
17.39	0.492874
17.408	0.492334
17.426	0.491758
17.444	0.491123
17.462	0.490464
17.48	0.489784
17.498	0.489082
17.516	0.488353
17.534	0.487584
17.552	0.486814
17.57	0.486049
17.588	0.485273
17.606	0.484498
17.624	0.483746
17.642	0.483011
17.66	0.482295
17.678	0.481589
17.696	0.480891
17.714	0.480195
17.732	0.479496
17.75	0.478791
17.768	0.478074
17.786	0.477342
17.804	0.476588
17.822	0.475812
17.84	0.475027
17.858	0.474223
17.876	0.473383
17.894	0.472525
17.912	0.471656
17.93	0.470774
17.948	0.469878
17.966	0.468979
17.984	0.468073
18.002	0.467151
18.02	0.466220
18.038	0.465284
18.056	0.464345
18.074	0.463403
18.092	0.462433
18.11	0.461433
18.128	0.460424
18.146	0.459402
18.164	0.458370
18.182	0.457323
18.2	0.456251
18.218	0.455172
18.236	0.454100
18.254	0.453030
18.272	0.451959
18.29	0.450903
18.308	0.449865
18.326	0.448851
18.344	0.447859
18.362	0.446879
18.38	0.445918
18.398	0.444993
18.416	0.444088
18.434	0.443183
18.452	0.442298
18.47	0.441451
18.488	0.440614
18.506	0.439770
18.524	0.438940
18.542	0.438129
18.56	0.437321
18.578	0.436514
18.596	0.435696
18.614	0.434865
18.632	0.434024
18.65	0.433171
18.668	0.432302
18.686	0.431414
18.704	0.430495
18.722	0.429544
18.74	0.428558
18.758	0.427534
18.776	0.426469
18.794	0.425360
18.812	0.424201
18.83	0.422997
18.848	0.421766
18.866	0.420495
18.884	0.419161
18.902	0.417784
18.92	0.416385
18.938	0.414959
18.956	0.413503
18.974	0.412025
18.992	0.410529
19.01	0.409028
19.028	0.407540
19.046	0.406063
19.064	0.404598
19.082	0.403154
19.1	0.401744
19.118	0.400369
19.136	0.399042
19.154	0.397756
19.172	0.396504
19.19	0.395290
19.208	0.394121
19.226	0.392993
19.244	0.391894
19.262	0.390824
19.28	0.389770
19.298	0.388735
19.316	0.387720
19.334	0.386724
19.352	0.385726
19.37	0.384728
19.388	0.383745
19.406	0.382778
19.424	0.381808
19.442	0.380831
19.46	0.379852
19.478	0.378871
19.496	0.377879
19.514	0.376867
19.532	0.375848
19.55	0.374831
19.568	0.373805
19.586	0.372764
19.604	0.371708
19.622	0.370630
19.64	0.369534
19.658	0.368427
19.676	0.367308
19.694	0.366157
19.712	0.364972
19.73	0.363776
19.748	0.362573
19.766	0.361343
19.784	0.360081
19.802	0.358794
19.82	0.357486
19.838	0.356155
19.856	0.354803
19.874	0.353427
19.892	0.352023
19.91	0.350592
19.928	0.349134
19.946	0.347651
19.964	0.346136
19.982	0.344587
20	0.343012
20.018	0.341415
20.036	0.339802
20.054	0.338187
20.072	0.336566
20.09	0.334930
20.108	0.333279
20.126	0.331636
20.144	0.330000
20.162	0.328382
20.18	0.326787
20.198	0.325216
20.216	0.323671
20.234	0.322152
20.252	0.320664
20.27	0.319204
20.288	0.317784
20.306	0.316410
20.324	0.315064
20.342	0.313736
20.36	0.312426
20.378	0.311120
20.396	0.309821
20.414	0.308521
20.432	0.307223
20.45	0.305907
20.468	0.304559
20.486	0.303189
20.504	0.301803
20.522	0.300400
20.54	0.298957
20.558	0.297472
20.576	0.295960
20.594	0.294429
20.612	0.292874
20.63	0.291288
20.648	0.289671
20.666	0.288050
20.684	0.286421
20.702	0.284797
20.72	0.283189
20.738	0.281593
20.756	0.280007
20.774	0.278428
20.792	0.276872
20.81	0.275341
20.828	0.273835
20.846	0.272358
20.864	0.270908
20.882	0.269481
20.9	0.268073
20.918	0.266693
20.936	0.265351
20.954	0.264037
20.972	0.262730
20.99	0.261427
21.008	0.260143
21.026	0.258888
21.044	0.257652
21.062	0.256423
21.08	0.255202
21.098	0.253995
21.116	0.252802
21.134	0.251623
21.152	0.250458
21.17	0.249307
21.188	0.248166
21.206	0.247037
21.224	0.245914
21.242	0.244793
21.26	0.243674
21.278	0.242550
21.296	0.241419
21.314	0.240282
21.332	0.239140
21.35	0.237995
21.368	0.236837
21.386	0.235667
21.404	0.234483
21.422	0.233277
21.44	0.232050
21.458	0.230803
21.476	0.229537
21.494	0.228252
21.512	0.226942
21.53	0.225609
21.548	0.224253
21.566	0.222874
21.584	0.221471
21.602	0.220050
21.62	0.218608
21.638	0.217150
21.656	0.215682
21.674	0.214203
21.692	0.212714
21.71	0.211218
21.728	0.209714
21.746	0.208207
21.764	0.206693
21.782	0.205178
21.8	0.203669
21.818	0.202162
21.836	0.200657
21.854	0.199152
21.872	0.197652
21.89	0.196166
21.908	0.194690
21.926	0.193234
21.944	0.191802
21.962	0.190392
21.98	0.189011
21.998	0.187661
22.016	0.186339
22.034	0.185041
22.052	0.183763
22.07	0.182517
22.088	0.181315
22.106	0.180151
22.124	0.179021
22.142	0.177926
22.16	0.176864
22.178	0.175833
22.196	0.174832
22.214	0.173860
22.232	0.172916
22.25	0.172002
22.268	0.171106
22.286	0.170220
22.304	0.169349
22.322	0.168486
22.34	0.167629
22.358	0.166779
22.376	0.165938
22.394	0.165109
22.412	0.164283
22.43	0.163443
22.448	0.162591
22.466	0.161736
22.484	0.160887
22.502	0.160040
22.52	0.159191
22.538	0.158341
22.556	0.157488
22.574	0.156634
22.592	0.155778
22.61	0.154921
22.628	0.154062
22.646	0.153201
22.664	0.152338
22.682	0.151478
22.7	0.150621
22.718	0.149764
22.736	0.148904
22.754	0.148043
22.772	0.147180
22.79	0.146316
22.808	0.145452
22.826	0.144584
22.844	0.143706
22.862	0.142822
22.88	0.141928
22.898	0.141024
22.916	0.140111
22.934	0.139185
22.952	0.138249
22.97	0.137302
22.988	0.136331
23.006	0.135331
23.024	0.134307
23.042	0.133269
23.06	0.132221
23.078	0.131158
23.096	0.130072
23.114	0.128958
23.132	0.127822
23.15	0.126672
23.168	0.125510
23.186	0.124334
23.204	0.123143
23.222	0.121939
23.24	0.120720
23.258	0.119487
23.276	0.118237
23.294	0.116974
23.312	0.115708
23.33	0.114443
23.348	0.113174
23.366	0.111901
23.384	0.110621
23.402	0.109339
23.42	0.108066
23.438	0.106808
23.456	0.105559
23.474	0.104320
23.492	0.103088
23.51	0.101865
23.528	0.100658
23.546	0.099469
23.564	0.098297
23.582	0.097147
23.6	0.096024
23.618	0.094925
23.636	0.093852
23.654	0.092806
23.672	0.091787
23.69	0.090794
23.708	0.089826
23.726	0.088884
23.744	0.087968
23.762	0.087083
23.78	0.086228
23.798	0.085398
23.816	0.084587
23.834	0.083795
23.852	0.083023
23.87	0.082269
23.888	0.081534
23.906	0.080816
23.924	0.080110
23.942	0.079419
23.96	0.078742
23.978	0.078068
23.996	0.077393
24.014	0.076721
24.032	0.076054
24.05	0.075396
24.068	0.074746
24.086	0.074096
24.104	0.073440
24.122	0.072778
24.14	0.072112
24.158	0.071447
24.176	0.070783
24.194	0.070118
24.212	0.069444
24.23	0.068758
24.248	0.068064
24.266	0.067365
24.284	0.066666
24.302	0.065963
24.32	0.065257
24.338	0.064544
24.356	0.063827
24.374	0.063103
24.392	0.062369
24.41	0.061625
24.428	0.060871
24.446	0.060105
24.464	0.059325
24.482	0.058534
24.5	0.057732
24.518	0.056922
24.536	0.056104
24.554	0.055275
24.572	0.054432
24.59	0.053573
24.608	0.052700
24.626	0.051817
24.644	0.050926
24.662	0.050026
24.68	0.049118
24.698	0.048203
24.716	0.047278
24.734	0.046347
24.752	0.045419
24.77	0.044493
24.788	0.043567
24.806	0.042647
24.824	0.041736
24.842	0.040827
24.86	0.039930
24.878	0.039058
24.896	0.038211
24.914	0.037385
24.932	0.036582
24.95	0.035801
24.968	0.035040
24.986	0.034306
25.004	0.033608
25.022	0.032945
25.04	0.032314
25.058	0.031716
25.076	0.031151
25.094	0.030620
25.112	0.030118
25.13	0.029640
25.148	0.029188
25.166	0.028761
25.184	0.028358
25.202	0.027979
25.22	0.027624
25.238	0.027291
25.256	0.026977
25.274	0.026687
25.292	0.026416
25.31	0.026153
25.328	0.025891
25.346	0.025635
25.364	0.025384
25.382	0.025135
25.4	0.024887
25.418	0.024642
25.436	0.024397
25.454	0.024152
25.472	0.023907
25.49	0.023662
25.508	0.023418
25.526	0.023174
25.544	0.022931
25.562	0.022688
25.58	0.022445
25.598	0.022200
25.616	0.021957
25.634	0.021716
25.652	0.021482
25.67	0.021252
25.688	0.021026
25.706	0.020801
25.724	0.020577
25.742	0.020354
25.76	0.020135
25.778	0.019923
25.796	0.019717
25.814	0.019517
25.832	0.019322
25.85	0.019134
25.868	0.018952
25.886	0.018775
25.904	0.018599
25.922	0.018424
25.94	0.018252
25.958	0.018081
25.976	0.017910
25.994	0.017740
26.012	0.017570
26.03	0.017398
26.048	0.017222
26.066	0.017041
26.084	0.016858
26.102	0.016672
26.12	0.016487
26.138	0.016301
26.156	0.016112
26.174	0.015921
26.192	0.015727
26.21	0.015530
26.228	0.015329
26.246	0.015124
26.264	0.014910
26.282	0.014690
26.3	0.014469
26.318	0.014255
26.336	0.014049
26.354	0.013846
26.372	0.013644
26.39	0.013439
26.408	0.013230
26.426	0.013019
26.444	0.012810
26.462	0.012604
26.48	0.012397
26.498	0.012193
26.516	0.011995
26.534	0.011805
26.552	0.011624
26.57	0.011450
26.588	0.011278
26.606	0.011109
26.624	0.010944
26.642	0.010781
26.66	0.010621
26.678	0.010461
26.696	0.010304
26.714	0.010149
26.732	0.009993
26.75	0.009837
26.768	0.009680
26.786	0.009524
26.804	0.009370
26.822	0.009218
26.84	0.009070
26.858	0.008922
26.876	0.008774
26.894	0.008622
26.912	0.008468
26.93	0.008313
26.948	0.008159
26.966	0.007998
26.984	0.007821
27.002	0.007653
27.02	0.007521
27.028	0.007486