File: Bakgrunnsmateriale/MATLAB/FTIR/ftir_data/LPE454/Mapping_121/LPE454_t13.asc
PE IR       SPECTRUM    SPECTRUM    ASCII       PEDS        1.60
  -1
LPC790~1.ASC
17/05/19
15:25:18.00
17/05/19
15:25:44.00
tln
$LPE454_t0013$<tbV0>[10.4,-10.4,8.0,0.0,27,1,0]
27.028
64

2002,4.07
MIRTGS : RIGHTBACK : INTERNAL 2
MIR : ON : INTERNAL 2
OPTKBR

0.200000
8
8.000000
FILLER
RATIO
SPECTRUM
UNLOCKED 256

DOUBLE
64
COMBINED
1
0
0

0.002000
RATIO

1
0
TRUE
51149
0
LEFT NOT FITTED RIGHT NOT FITTED 0
NONE
NONE
15600
12
4.427000
51148
TRUE
1 0 8 72 0 0 0 0

15798

#HDR
-1
-1
#GR
µM
%T
2.38419e-05
0.0
2.000000
0.002000
12515
8
121.224
-3.775029
#DATA
2.000000	 0.424432
2.018000	 0.384475
2.036000	 0.321356
2.054000	 0.180829
2.072000	 0.280814
2.090000	 1.113019
2.108000	 1.222032
2.126000	 -0.147558
2.144000	 0.086645
2.162000	 0.631471
2.180000	 0.126244
2.198000	 0.240191
2.216000	 -1.355800
2.234000	 17.5291
2.252000	 -0.875942
2.270000	 0.168324
2.288000	 0.007946
2.306000	 0.314483
2.324000	 0.205284
2.342000	 0.356550
2.360000	 -0.096209
2.378000	 0.161387
2.396000	 0.564549
2.414000	 0.036585
2.432000	 0.010808
2.450000	 0.093825
2.468000	 0.107264
2.486000	 -0.036049
2.504000	 -0.013198
2.522000	 0.067246
2.540000	 0.198536
2.558000	 0.088180
2.576000	 0.204157
2.594000	 -0.133828
2.612000	 0.419246
2.630000	 0.168364
2.648000	 0.064148
2.666000	 -0.067896
2.684000	 0.181879
2.702000	 0.099320
2.720000	 0.078319
2.738000	 0.005568
2.756000	 -0.031789
2.774000	 0.090260
2.792000	 0.113111
2.810000	 -0.011327
2.828000	 0.052658
2.846000	 -0.026250
2.864000	 0.109026
2.882000	 -0.186787
2.900000	 0.094511
2.918000	 -0.037210
2.936000	 0.051997
2.954000	 0.191302
2.972000	 0.023235
2.990000	 0.030817
3.008000	 0.156399
3.026000	 -0.044573
3.044000	 0.238399
3.062000	 0.020729
3.080000	 0.031071
3.098000	 0.096002
3.116000	 0.087098
3.134000	 0.181501
3.152000	 0.028370
3.170000	 0.040383
3.188000	 0.176547
3.206000	 0.048322
3.224000	 0.063624
3.242000	 0.081698
3.260000	 0.025606
3.278000	 0.154692
3.296000	 -0.030594
3.314000	 0.022170
3.332000	 0.045272
3.350000	 0.102913
3.368000	 0.053397
3.386000	 -0.002651
3.404000	 -0.008270
3.422000	 -0.001949
3.440000	 0.142910
3.458000	 -0.105550
3.476000	 0.003666
3.494000	 0.058523
3.512000	 0.146239
3.530000	 0.073081
3.548000	 0.026066
3.566000	 0.100895
3.584000	 0.026029
3.602000	 0.071020
3.620000	 0.140433
3.638000	 0.039547
3.656000	 -0.018871
3.674000	 0.052131
3.692000	 0.054118
3.710000	 0.012069
3.728000	 0.032937
3.746000	 0.076938
3.764000	 -0.008915
3.782000	 0.090138
3.800000	 -0.105472
3.818000	 -0.013280
3.836000	 -0.033443
3.854000	 0.034832
3.872000	 0.051086
3.890000	 0.098049
3.908000	 -0.095019
3.926000	 0.102856
3.944000	 0.067824
3.962000	 -0.079243
3.980000	 -0.119829
3.998000	 0.189569
4.016000	 0.129721
4.034000	 0.042004
4.052000	 -0.042591
4.070000	 0.167377
4.088000	 -0.014375
4.106000	 0.028275
4.124000	 -0.289710
4.141999	 0.103957
4.160000	 -0.177480
4.178000	 0.055812
4.196000	 0.023645
4.214000	 0.177686
4.232000	 0.106129
4.250000	 0.006419
4.268000	 -0.006809
4.286000	 0.141865
4.304000	 0.157728
4.322000	 0.356996
4.340000	 0.243079
4.358000	 0.360381
4.375999	 0.546052
4.394000	 0.713333
4.412000	 1.020899
4.430000	 1.294647
4.448000	 1.521105
4.466000	 1.879655
4.484000	 2.262423
4.502000	 2.729327
4.520000	 3.221810
4.538000	 3.858543
4.556000	 4.355700
4.574000	 4.897689
4.592000	 5.638589
4.609999	 6.453294
4.628000	 7.238915
4.646000	 8.154861
4.664000	 9.012200
4.682000	 9.703829
4.700000	 10.7034
4.718000	 11.4378
4.736000	 12.3463
4.754000	 13.2498
4.772000	 14.1428
4.790000	 14.9504
4.808000	 16.0433
4.826000	 16.7206
4.843999	 17.3131
4.862000	 18.2433
4.880000	 18.8015
4.898000	 19.4261
4.916000	 20.0869
4.934000	 20.8961
4.952000	 21.3349
4.970000	 21.8899
4.988000	 22.4245
5.006000	 23.0157
5.024000	 23.5058
5.042000	 23.9268
5.060000	 24.3834
5.077999	 24.825
5.096000	 25.1983
5.114000	 25.5197
5.132000	 25.9592
5.150000	 26.2808
5.168000	 26.4453
5.186000	 26.7775
5.204000	 27.1696
5.222000	 27.3934
5.240000	 27.707
5.258000	 27.9138
5.276000	 28.0678
5.294000	 28.2909
5.312000	 28.4896
5.330000	 28.657
5.348000	 28.9336
5.366000	 29.079
5.384000	 29.2429
5.402000	 29.4176
5.420000	 29.5739
5.438000	 29.7336
5.456000	 29.9497
5.474000	 29.9114
5.492000	 29.9941
5.510000	 30.2245
5.528000	 30.3397
5.546000	 30.3321
5.564000	 30.5046
5.582000	 30.6273
5.600000	 30.6735
5.618000	 30.6987
5.636000	 30.8297
5.654000	 30.8643
5.672000	 30.8849
5.690000	 30.9386
5.708000	 30.9985
5.726000	 31.0424
5.744000	 31.1183
5.762000	 31.3437
5.780000	 31.2093
5.798000	 31.1039
5.816000	 31.1556
5.834000	 31.2792
5.852000	 31.4372
5.870000	 31.5096
5.888000	 31.5508
5.906000	 31.4334
5.923999	 31.468
5.942000	 31.5414
5.960000	 31.4851
5.978000	 31.409
5.996000	 31.3578
6.014000	 31.4391
6.032000	 31.6523
6.050000	 31.7568
6.068000	 31.7473
6.086000	 31.7091
6.104000	 31.6956
6.122000	 31.7334
6.140000	 31.738
6.158000	 31.6977
6.176000	 31.652
6.194000	 31.6489
6.212000	 31.6824
6.230000	 31.7306
6.248000	 31.6503
6.266000	 31.5794
6.284000	 31.5579
6.302000	 31.5921
6.320000	 31.6925
6.338000	 31.7177
6.356000	 31.651
6.374000	 31.6429
6.392000	 31.702
6.410000	 31.7577
6.428000	 31.7562
6.446000	 31.7498
6.464000	 31.8007
6.482000	 31.8942
6.500000	 31.9012
6.518000	 31.7701
6.536000	 31.728
6.554000	 31.8336
6.572000	 31.8971
6.590000	 31.7922
6.608000	 31.6936
6.626000	 31.7055
6.644000	 31.6792
6.662000	 31.6172
6.680000	 31.5558
6.698000	 31.5197
6.716000	 31.5644
6.734000	 31.5669
6.752000	 31.5364
6.770000	 31.5806
6.788000	 31.6498
6.806000	 31.6361
6.824000	 31.565
6.842000	 31.5597
6.860000	 31.5925
6.878000	 31.5779
6.896000	 31.5356
6.914000	 31.4899
6.932000	 31.4892
6.950000	 31.5379
6.968000	 31.5766
6.986000	 31.6156
7.004000	 31.6442
7.022000	 31.6229
7.040000	 31.5887
7.058000	 31.5826
7.076000	 31.5904
7.094000	 31.5599
7.112000	 31.4899
7.130000	 31.4648
7.148000	 31.5149
7.166000	 31.5591
7.184000	 31.5369
7.202000	 31.4987
7.220000	 31.5252
7.238000	 31.6146
7.256000	 31.6975
7.274000	 31.6914
7.292000	 31.5696
7.310000	 31.4108
7.328000	 31.3385
7.346000	 31.3759
7.364000	 31.4189
7.382000	 31.4025
7.400000	 31.3787
7.418000	 31.3918
7.436000	 31.4181
7.454000	 31.43
7.472000	 31.4195
7.490000	 31.3886
7.508000	 31.3622
7.526000	 31.3697
7.544000	 31.3987
7.562000	 31.4275
7.580000	 31.4675
7.598000	 31.5038
7.616000	 31.4749
7.634000	 31.3711
7.652000	 31.2631
7.670000	 31.2165
7.688000	 31.2329
7.706000	 31.2654
7.724000	 31.2772
7.742000	 31.2639
7.760000	 31.2326
7.778000	 31.2047
7.796000	 31.2246
7.814000	 31.3068
7.832000	 31.3968
7.850000	 31.4203
7.868000	 31.3543
7.886000	 31.2426
7.904000	 31.1539
7.922000	 31.1188
7.940000	 31.1161
7.958000	 31.1225
7.976000	 31.1352
7.994000	 31.1449
8.012000	 31.1414
8.030000	 31.14
8.048000	 31.1514
8.065999	 31.1481
8.084000	 31.1085
8.102000	 31.0651
8.120000	 31.0628
8.138000	 31.098
8.155999	 31.1349
8.173999	 31.1566
8.192000	 31.1697
8.210000	 31.1779
8.228000	 31.1753
8.246000	 31.158
8.263999	 31.1334
8.282000	 31.1165
8.300000	 31.1106
8.318000	 31.1
8.336000	 31.0732
8.353999	 31.0367
8.372000	 30.9976
8.390000	 30.9498
8.408000	 30.8939
8.426000	 30.8529
8.443999	 30.8531
8.462000	 30.8896
8.480000	 30.9262
8.498000	 30.9303
8.516000	 30.906
8.533999	 30.8899
8.552000	 30.9152
8.570000	 30.9807
8.588000	 31.048
8.606000	 31.0638
8.624000	 31.0075
8.641999	 30.9176
8.660000	 30.8614
8.678000	 30.8703
8.696000	 30.9171
8.714000	 30.9489
8.731999	 30.9313
8.750000	 30.8661
8.768000	 30.7824
8.786000	 30.7191
8.804000	 30.7015
8.821999	 30.7204
8.840000	 30.7359
8.858000	 30.7146
8.876000	 30.6645
8.894000	 30.6174
8.911999	 30.5887
8.930000	 30.5696
8.948000	 30.5562
8.966000	 30.5671
8.984000	 30.6265
9.001999	 30.7348
9.020000	 30.8545
9.038000	 30.926
9.056000	 30.9036
9.074000	 30.7855
9.092000	 30.6198
9.109999	 30.4753
9.128000	 30.4019
9.146000	 30.4045
9.164000	 30.4513
9.182000	 30.5041
9.199999	 30.5385
9.218000	 30.5448
9.236000	 30.5173
9.254000	 30.4539
9.272000	 30.3654
9.289999	 30.2799
9.308000	 30.2324
9.326000	 30.241
9.344000	 30.2923
9.362000	 30.3492
9.379999	 30.375
9.398000	 30.3566
9.416000	 30.3067
9.434000	 30.2487
9.452000	 30.1992
9.469999	 30.1635
9.488000	 30.141
9.506000	 30.1289
9.524000	 30.121
9.542000	 30.1095
9.560000	 30.0926
9.577999	 30.0801
9.596000	 30.0859
9.614000	 30.1134
9.632000	 30.1469
9.650000	 30.1625
9.667999	 30.147
9.686000	 30.1077
9.704000	 30.0633
9.722000	 30.0281
9.740000	 30.0011
9.757999	 29.9693
9.776000	 29.9184
9.794000	 29.8451
9.812000	 29.7617
9.830000	 29.6917
9.847999	 29.658
9.866000	 29.6718
9.884000	 29.7275
9.902000	 29.8079
9.920000	 29.8921
9.937999	 29.9617
9.956000	 29.9999
9.974000	 29.9935
9.992000	 29.9393
10.01	29.8491
10.028	29.7493
10.046	29.6695
10.064	29.6291
10.082	29.6309
10.1	29.665
10.118	29.7171
10.136	29.7752
10.154	29.8294
10.172	29.8709
10.19	29.892
10.208	29.8886
10.226	29.8626
10.244	29.8204
10.262	29.7708
10.28	29.7196
10.298	29.6667
10.316	29.6089
10.334	29.5464
10.352	29.4877
10.37	29.4473
10.388	29.4355
10.406	29.449
10.424	29.4687
10.442	29.4691
10.46	29.4362
10.478	29.3768
10.496	29.3172
10.514	29.286
10.532	29.2985
10.55	29.3494
10.568	29.4192
10.586	29.4842
10.604	29.529
10.622	29.5478
10.64	29.543
10.658	29.5205
10.676	29.4869
10.694	29.4483
10.712	29.4107
10.73	29.378
10.748	29.352
10.766	29.3316
10.784	29.3135
10.802	29.2927
10.82	29.2639
10.838	29.2222
10.856	29.1664
10.874	29.0998
10.892	29.0301
10.91	28.9671
10.928	28.9187
10.946	28.8891
10.964	28.8778
10.982	28.8818
11	28.8987
11.018	28.9272
11.036	28.9661
11.054	29.0114
11.072	29.0562
11.09	29.091
11.108	29.1087
11.126	29.1066
11.144	29.0876
11.162	29.0589
11.18	29.0284
11.198	29.0026
11.216	28.9851
11.234	28.9765
11.252	28.9754
11.27	28.9786
11.288	28.9809
11.306	28.9761
11.324	28.9584
11.342	28.925
11.36	28.8778
11.378	28.8238
11.396	28.772
11.414	28.7312
11.432	28.7045
11.45	28.6892
11.468	28.6772
11.486	28.659
11.504	28.6268
11.522	28.5776
11.54	28.5146
11.558	28.4448
11.576	28.3775
11.594	28.3205
11.612	28.2793
11.63	28.2548
11.648	28.2443
11.666	28.2421
11.684	28.2425
11.702	28.2427
11.72	28.2427
11.738	28.2464
11.756	28.2602
11.774	28.2898
11.792	28.3373
11.81	28.3992
11.828	28.4669
11.846	28.5271
11.864	28.566
11.882	28.5737
11.9	28.5464
11.918	28.4885
11.936	28.4111
11.954	28.3294
11.972	28.2587
11.99	28.2093
12.008	28.1829
12.026	28.1731
12.044	28.1674
12.062	28.1532
12.08	28.1226
12.098	28.0753
12.116	28.0194
12.134	27.9687
12.152	27.9365
12.17	27.9313
12.188	27.9544
12.206	27.999
12.224	28.0531
12.242	28.1037
12.26	28.1406
12.278	28.1573
12.296	28.1519
12.314	28.1255
12.332	28.0811
12.35	28.023
12.368	27.9559
12.386	27.8857
12.404	27.8172
12.422	27.7539
12.44	27.6977
12.458	27.6485
12.476	27.6041
12.494	27.5616
12.512	27.518
12.53	27.4717
12.548	27.422
12.566	27.3697
12.584	27.3174
12.602	27.2691
12.62	27.2295
12.638	27.2031
12.656	27.1938
12.674	27.2039
12.692	27.2324
12.71	27.2756
12.728	27.3263
12.746	27.3756
12.764	27.4143
12.782	27.4357
12.8	27.4372
12.818	27.4206
12.836	27.391
12.854	27.3552
12.872	27.3206
12.89	27.2921
12.908	27.2716
12.926	27.2577
12.944	27.2465
12.962	27.2323
12.98	27.2093
12.998	27.1732
13.016	27.1217
13.034	27.0551
13.052	26.9764
13.07	26.8912
13.088	26.8066
13.106	26.7306
13.124	26.6709
13.142	26.6333
13.16	26.6205
13.178	26.632
13.196	26.6638
13.214	26.71
13.232	26.7639
13.25	26.8201
13.268	26.8745
13.286	26.9247
13.304	26.9694
13.322	27.0072
13.34	27.0359
13.358	27.0524
13.376	27.0528
13.394	27.034
13.412	26.9946
13.43	26.9357
13.448	26.862
13.466	26.7805
13.484	26.7004
13.502	26.6304
13.52	26.5774
13.538	26.5453
13.556	26.5341
13.574	26.5406
13.592	26.5589
13.61	26.5824
13.628	26.605
13.646	26.6223
13.664	26.6325
13.682	26.6354
13.7	26.6334
13.718	26.6296
13.736	26.6273
13.754	26.6294
13.772	26.6372
13.79	26.651
13.808	26.6693
13.826	26.6898
13.844	26.7091
13.862	26.7234
13.88	26.729
13.898	26.7225
13.916	26.7018
13.934	26.6658
13.952	26.6149
13.97	26.5511
13.988	26.4777
14.006	26.3989
14.024	26.3191
14.042	26.2427
14.06	26.1732
14.078	26.1125
14.096	26.0612
14.114	26.0182
14.132	25.9816
14.15	25.9488
14.168	25.9169
14.186	25.8837
14.204	25.8477
14.222	25.8085
14.24	25.7671
14.258	25.7257
14.276	25.687
14.294	25.6541
14.312	25.6304
14.33	25.6184
14.348	25.6202
14.366	25.6364
14.384	25.6662
14.402	25.7071
14.42	25.7551
14.438	25.8054
14.456	25.8525
14.474	25.891
14.492	25.9162
14.51	25.9243
14.528	25.9141
14.546	25.8863
14.564	25.8435
14.582	25.7902
14.6	25.7314
14.618	25.673
14.636	25.6201
14.654	25.5759
14.672	25.5422
14.69	25.5191
14.708	25.5049
14.726	25.497
14.744	25.492
14.762	25.4872
14.78	25.4807
14.798	25.472
14.816	25.4615
14.834	25.4509
14.852	25.4426
14.87	25.4389
14.888	25.4416
14.906	25.4518
14.924	25.4697
14.942	25.4943
14.96	25.5231
14.978	25.5535
14.996	25.5826
15.014	25.6071
15.032	25.6244
15.05	25.6323
15.068	25.6299
15.086	25.6166
15.104	25.5925
15.122	25.5582
15.14	25.5149
15.158	25.4639
15.176	25.4066
15.194	25.3449
15.212	25.2807
15.23	25.2164
15.248	25.1541
15.266	25.0961
15.284	25.0453
15.302	25.0038
15.32	24.9727
15.338	24.9527
15.356	24.9434
15.374	24.943
15.392	24.9493
15.41	24.9595
15.428	24.9703
15.446	24.978
15.464	24.98
15.482	24.9745
15.5	24.9599
15.518	24.9359
15.536	24.903
15.554	24.8623
15.572	24.8151
15.59	24.7637
15.608	24.7103
15.626	24.6568
15.644	24.6053
15.662	24.5578
15.68	24.5153
15.698	24.479
15.716	24.4497
15.734	24.4272
15.752	24.4111
15.77	24.4007
15.788	24.395
15.806	24.3926
15.824	24.3927
15.842	24.3939
15.86	24.3948
15.878	24.3949
15.896	24.3938
15.914	24.3912
15.932	24.3876
15.95	24.3836
15.968	24.38
15.986	24.3779
16.004	24.3779
16.022	24.3805
16.04	24.3864
16.058	24.3957
16.076	24.4085
16.094	24.4247
16.112	24.4438
16.13	24.4653
16.148	24.489
16.166	24.5137
16.184	24.5385
16.202	24.5624
16.22	24.5837
16.238	24.6011
16.256	24.6133
16.274	24.6186
16.292	24.6164
16.31	24.6064
16.328	24.5884
16.346	24.5636
16.364	24.5327
16.382	24.4972
16.4	24.4585
16.418	24.4175
16.436	24.3752
16.454	24.3321
16.472	24.2884
16.49	24.2438
16.508	24.1979
16.526	24.1502
16.544	24.1004
16.562	24.0487
16.58	23.9952
16.598	23.9412
16.616	23.8883
16.634	23.8377
16.652	23.7921
16.67	23.753
16.688	23.722
16.706	23.7007
16.724	23.6892
16.742	23.688
16.76	23.6955
16.778	23.7103
16.796	23.73
16.814	23.7515
16.832	23.7729
16.85	23.7906
16.868	23.8026
16.886	23.8073
16.904	23.8031
16.922	23.7899
16.94	23.7677
16.958	23.7381
16.976	23.702
16.994	23.6617
17.012	23.6193
17.03	23.5763
17.048	23.5357
17.066	23.4983
17.084	23.4661
17.102	23.4401
17.12	23.4208
17.138	23.4087
17.156	23.4034
17.174	23.405
17.192	23.4123
17.21	23.4249
17.228	23.4416
17.246	23.4614
17.264	23.4834
17.282	23.5058
17.3	23.528
17.318	23.5484
17.336	23.5658
17.354	23.5793
17.372	23.5871
17.39	23.5889
17.408	23.5835
17.426	23.5703
17.444	23.549
17.462	23.5196
17.48	23.4823
17.498	23.4378
17.516	23.3869
17.534	23.3303
17.552	23.2703
17.57	23.2075
17.588	23.1443
17.606	23.0814
17.624	23.0204
17.642	22.9627
17.66	22.9087
17.678	22.8595
17.696	22.8151
17.714	22.7761
17.732	22.7425
17.75	22.7144
17.768	22.6918
17.786	22.6748
17.804	22.6634
17.822	22.6575
17.84	22.6575
17.858	22.6634
17.876	22.6756
17.894	22.6941
17.912	22.7189
17.93	22.7498
17.948	22.7865
17.966	22.8278
17.984	22.8733
18.002	22.9212
18.02	22.9702
18.038	23.0188
18.056	23.0645
18.074	23.1065
18.092	23.1416
18.11	23.1694
18.128	23.1871
18.146	23.1945
18.164	23.1902
18.182	23.1743
18.2	23.1465
18.218	23.1081
18.236	23.0593
18.254	23.0028
18.272	22.9391
18.29	22.8719
18.308	22.802
18.326	22.7334
18.344	22.6668
18.362	22.6061
18.38	22.5517
18.398	22.5061
18.416	22.4696
18.434	22.4437
18.452	22.4275
18.47	22.4215
18.488	22.4237
18.506	22.4341
18.524	22.4493
18.542	22.4691
18.56	22.4896
18.578	22.5106
18.596	22.5282
18.614	22.5422
18.632	22.5495
18.65	22.5501
18.668	22.542
18.686	22.5256
18.704	22.5005
18.722	22.4669
18.74	22.426
18.758	22.3784
18.776	22.3258
18.794	22.2691
18.812	22.2106
18.83	22.1508
18.848	22.0921
18.866	22.0349
18.884	21.9811
18.902	21.9309
18.92	21.8858
18.938	21.8456
18.956	21.811
18.974	21.7819
18.992	21.7582
19.01	21.7397
19.028	21.7263
19.046	21.7176
19.064	21.7134
19.082	21.7135
19.1	21.7175
19.118	21.7251
19.136	21.736
19.154	21.75
19.172	21.7667
19.19	21.7859
19.208	21.8073
19.226	21.8306
19.244	21.855
19.262	21.8803
19.28	21.9057
19.298	21.931
19.316	21.9552
19.334	21.9782
19.352	21.9992
19.37	22.0182
19.388	22.0347
19.406	22.0487
19.424	22.0603
19.442	22.0694
19.46	22.0766
19.478	22.082
19.496	22.0862
19.514	22.0893
19.532	22.0921
19.55	22.095
19.568	22.0983
19.586	22.1025
19.604	22.1074
19.622	22.1133
19.64	22.1201
19.658	22.1272
19.676	22.1347
19.694	22.1415
19.712	22.1478
19.73	22.152
19.748	22.1542
19.766	22.1535
19.784	22.1496
19.802	22.142
19.82	22.1301
19.838	22.1142
19.856	22.0939
19.874	22.0696
19.892	22.0415
19.91	22.0095
19.928	21.9747
19.946	21.9368
19.964	21.8969
19.982	21.8551
20	21.8122
20.018	21.7686
20.036	21.7246
20.054	21.6809
20.072	21.6373
20.09	21.5945
20.108	21.5524
20.126	21.5112
20.144	21.4708
20.162	21.4313
20.18	21.3927
20.198	21.355
20.216	21.3184
20.234	21.2828
20.252	21.2485
20.27	21.2156
20.288	21.1841
20.306	21.1542
20.324	21.126
20.342	21.0995
20.36	21.0748
20.378	21.0521
20.396	21.0313
20.414	21.0124
20.432	20.9956
20.45	20.9804
20.468	20.9667
20.486	20.9542
20.504	20.9424
20.522	20.9315
20.54	20.9207
20.558	20.9102
20.576	20.8994
20.594	20.8883
20.612	20.8767
20.63	20.864
20.648	20.8506
20.666	20.8359
20.684	20.8199
20.702	20.8026
20.72	20.7838
20.738	20.7635
20.756	20.7417
20.774	20.7184
20.792	20.6935
20.81	20.6669
20.828	20.6387
20.846	20.6093
20.864	20.5784
20.882	20.5467
20.9	20.5138
20.918	20.4807
20.936	20.4476
20.954	20.4149
20.972	20.3838
20.99	20.354
21.008	20.327
21.026	20.3032
21.044	20.2828
21.062	20.267
21.08	20.2556
21.098	20.249
21.116	20.2477
21.134	20.2512
21.152	20.2593
21.17	20.2723
21.188	20.2883
21.206	20.3076
21.224	20.3289
21.242	20.3498
21.26	20.3713
21.278	20.3898
21.296	20.4052
21.314	20.4164
21.332	20.4205
21.35	20.4185
21.368	20.4079
21.386	20.3879
21.404	20.3587
21.422	20.3189
21.44	20.2686
21.458	20.2085
21.476	20.1385
21.494	20.0592
21.512	19.9729
21.53	19.8785
21.548	19.779
21.566	19.676
21.584	19.5692
21.602	19.4625
21.62	19.3555
21.638	19.2499
21.656	19.1487
21.674	19.0509
21.692	18.9588
21.71	18.8732
21.728	18.7937
21.746	18.7213
21.764	18.6558
21.782	18.5969
21.8	18.5442
21.818	18.4978
21.836	18.456
21.854	18.4189
21.872	18.3859
21.89	18.3553
21.908	18.3278
21.926	18.3021
21.944	18.2773
21.962	18.2537
21.98	18.2312
21.998	18.2095
22.016	18.1889
22.034	18.1702
22.052	18.1527
22.07	18.138
22.088	18.1269
22.106	18.119
22.124	18.1163
22.142	18.119
22.16	18.1272
22.178	18.1422
22.196	18.164
22.214	18.1924
22.232	18.2272
22.25	18.2688
22.268	18.3157
22.286	18.3675
22.304	18.4245
22.322	18.4839
22.34	18.5461
22.358	18.6102
22.376	18.6731
22.394	18.7359
22.412	18.7968
22.43	18.8534
22.448	18.9067
22.466	18.9552
22.484	18.9976
22.502	19.0345
22.52	19.0655
22.538	19.09
22.556	19.1086
22.574	19.1225
22.592	19.1313
22.61	19.1358
22.628	19.1387
22.646	19.1394
22.664	19.1388
22.682	19.1393
22.7	19.1403
22.718	19.1427
22.736	19.148
22.754	19.1557
22.772	19.1665
22.79	19.1817
22.808	19.2007
22.826	19.2235
22.844	19.2508
22.862	19.2823
22.88	19.3165
22.898	19.3528
22.916	19.3918
22.934	19.431
22.952	19.4698
22.97	19.5087
22.988	19.5458
23.006	19.5808
23.024	19.614
23.042	19.6445
23.06	19.6719
23.078	19.6966
23.096	19.7197
23.114	19.7405
23.132	19.7596
23.15	19.779
23.168	19.7985
23.186	19.8181
23.204	19.8396
23.222	19.8626
23.24	19.8874
23.258	19.915
23.276	19.9451
23.294	19.9782
23.312	20.0161
23.33	20.0592
23.348	20.1068
23.366	20.1585
23.384	20.2152
23.402	20.2758
23.42	20.3371
23.438	20.4004
23.456	20.4645
23.474	20.5244
23.492	20.5801
23.51	20.6318
23.528	20.6742
23.546	20.7065
23.564	20.7298
23.582	20.7385
23.6	20.7308
23.618	20.7087
23.636	20.6677
23.654	20.6056
23.672	20.5241
23.69	20.4222
23.708	20.2987
23.726	20.1536
23.744	19.9898
23.762	19.8089
23.78	19.6083
23.798	19.3935
23.816	19.1698
23.834	18.9328
23.852	18.6883
23.87	18.4451
23.888	18.1992
23.906	17.9542
23.924	17.7203
23.942	17.4963
23.96	17.2821
23.978	17.0875
23.996	16.9156
24.014	16.7627
24.032	16.6358
24.05	16.5394
24.068	16.4697
24.086	16.4305
24.104	16.4257
24.122	16.4529
24.14	16.5138
24.158	16.6112
24.176	16.7444
24.194	16.9132
24.212	17.1184
24.23	17.3602
24.248	17.6381
24.266	17.9518
24.284	18.3018
24.302	18.6886
24.32	19.1088
24.338	19.5594
24.356	20.0435
24.374	20.557
24.392	21.0938
24.41	21.6583
24.428	22.2469
24.446	22.8476
24.464	23.4573
24.482	24.082
24.5	24.7066
24.518	25.32
24.536	25.9343
24.554	26.5349
24.572	27.1009
24.59	27.6407
24.608	28.151
24.626	28.6087
24.644	29.0054
24.662	29.354
24.68	29.6336
24.698	29.8247
24.716	29.9382
24.734	29.9695
24.752	29.9062
24.77	29.747
24.788	29.4964
24.806	29.1496
24.824	28.7032
24.842	28.1594
24.86	27.5194
24.878	26.7842
24.896	25.9481
24.914	25.0173
24.932	24.0049
24.95	22.9133
24.968	21.732
24.986	20.4872
25.004	19.206
25.022	17.8704
25.04	16.4918
25.058	15.1037
25.076	13.7181
25.094	12.3149
25.112	10.9241
25.13	9.576010
25.148	8.254175
25.166	6.965344
25.184	5.735053
25.202	4.575786
25.22	3.472781
25.238	2.437380
25.256	1.482043
25.274	0.602676
25.292	-0.201678
25.31	-0.925199
25.328	-1.564094
25.346	-2.121885
25.364	-2.598313
25.382	-2.992598
25.4	-3.301656
25.418	-3.528720
25.436	-3.681089
25.454	-3.763351
25.472	-3.767877
25.49	-3.704452
25.508	-3.586039
25.526	-3.411600
25.544	-3.175720
25.562	-2.897101
25.58	-2.593066
25.598	-2.250376
25.616	-1.876240
25.634	-1.491024
25.652	-1.105432
25.67	-0.702803
25.688	-0.301339
25.706	0.076995
25.724	0.432717
25.742	0.774025
25.76	1.083525
25.778	1.344816
25.796	1.562544
25.814	1.740059
25.832	1.875179
25.85	1.964741
25.868	2.006649
25.886	2.009218
25.904	1.981629
25.922	1.921627
25.94	1.823947
25.958	1.706891
25.976	1.588726
25.994	1.459973
26.012	1.321149
26.03	1.191375
26.048	1.087897
26.066	1.004057
26.084	0.936709
26.102	0.887310
26.12	0.857499
26.138	0.847654
26.156	0.854812
26.174	0.875791
26.192	0.916210
26.21	0.981418
26.228	1.048270
26.246	1.092923
26.264	1.111864
26.282	1.116251
26.3	1.100077
26.318	1.057254
26.336	0.978843
26.354	0.873857
26.372	0.759043
26.39	0.647964
26.408	0.506705
26.426	0.361770
26.444	0.265981
26.462	0.258902
26.48	0.276289
26.498	0.366209
26.516	0.610059
26.534	1.062477
26.552	1.642387
26.57	2.407269
26.588	3.442711
26.606	4.799367
26.624	6.399581
26.642	8.296328
26.66	10.5612
26.678	13.2397
26.696	16.284
26.714	19.7006
26.732	23.5038
26.75	27.7145
26.768	32.3388
26.786	37.3278
26.804	42.6297
26.822	48.2452
26.84	54.243
26.858	60.5053
26.876	66.9029
26.894	73.4013
26.912	80.135
26.93	86.9424
26.948	93.6421
26.966	100.378
26.984	107.645
27.002	114.472
27.02	119.788
27.028	121.224