File: Bakgrunnsmateriale/MATLAB/FTIR/ftir_data/LPE454/Mapping_121/LPE454_t118.asc
PE IR       SPECTRUM    SPECTRUM    ASCII       PEDS        1.60
  -1
LP931E~1.ASC
17/05/20
00:19:49.00
17/05/20
00:20:15.00
tln
$LPE454_t0118$<tbV0>[-5.2,13.0,8.0,0.0,27,1,0]
27.028
64

2002,4.07
MIRTGS : RIGHTBACK : INTERNAL 2
MIR : ON : INTERNAL 2
OPTKBR

0.200000
8
8.000000
FILLER
RATIO
SPECTRUM
UNLOCKED 256

DOUBLE
64
COMBINED
1
0
0

0.002000
RATIO

1
0
TRUE
51149
0
LEFT NOT FITTED RIGHT NOT FITTED 0
NONE
NONE
15600
12
4.427000
51148
TRUE
1 0 8 72 0 0 0 0

15798

#HDR
-1
-1
#GR
µM
%T
2.38419e-05
0.0
2.000000
0.002000
12515
8
34.3058
-2.216630
#DATA
2.000000	 -0.100803
2.018000	 0.575760
2.036000	 0.246946
2.054000	 0.226128
2.072000	 -0.119249
2.090000	 0.516666
2.108000	 0.649924
2.126000	 0.760486
2.144000	 0.381967
2.162000	 -0.113268
2.180000	 4.347772
2.198000	 -2.216630
2.216000	 -0.773695
2.234000	 0.678561
2.252000	 0.510622
2.270000	 0.208052
2.288000	 0.000042
2.306000	 -0.075700
2.324000	 0.161271
2.342000	 0.391642
2.360000	 0.130736
2.378000	 0.324477
2.396000	 0.087284
2.414000	 -0.487960
2.432000	 0.024347
2.450000	 0.309937
2.468000	 0.413093
2.486000	 0.210458
2.504000	 0.153546
2.522000	 0.057766
2.540000	 0.029874
2.558000	 0.142324
2.576000	 0.228620
2.594000	 0.038086
2.612000	 0.311648
2.630000	 -0.073539
2.648000	 0.113840
2.666000	 0.127464
2.684000	 -0.032297
2.702000	 -0.085805
2.720000	 0.094148
2.738000	 0.053983
2.756000	 0.160106
2.774000	 0.031487
2.792000	 -0.031689
2.810000	 0.200753
2.828000	 -0.078414
2.846000	 -0.080298
2.864000	 0.197886
2.882000	 0.192897
2.900000	 0.120101
2.918000	 -0.125531
2.936000	 0.073910
2.954000	 0.091053
2.972000	 0.185418
2.990000	 -0.025881
3.008000	 0.024213
3.026000	 -0.004981
3.044000	 0.031631
3.062000	 0.103240
3.080000	 0.030074
3.098000	 -0.009695
3.116000	 0.055509
3.134000	 -0.011678
3.152000	 -0.007251
3.170000	 -0.013813
3.188000	 -0.032188
3.206000	 0.157492
3.224000	 -0.047975
3.242000	 0.038388
3.260000	 -0.036327
3.278000	 0.068642
3.296000	 0.166916
3.314000	 0.011444
3.332000	 0.100197
3.350000	 -0.015183
3.368000	 0.106289
3.386000	 0.017531
3.404000	 0.210279
3.422000	 0.031814
3.440000	 -0.050003
3.458000	 0.003359
3.476000	 0.187438
3.494000	 -0.005243
3.512000	 0.052582
3.530000	 0.044525
3.548000	 -0.053710
3.566000	 -0.024354
3.584000	 0.039704
3.602000	 0.093124
3.620000	 0.091285
3.638000	 0.032180
3.656000	 0.100502
3.674000	 0.029720
3.692000	 0.058451
3.710000	 0.008876
3.728000	 0.026944
3.746000	 0.044648
3.764000	 0.135553
3.782000	 -0.019988
3.800000	 0.017668
3.818000	 -0.007073
3.836000	 -0.017498
3.854000	 -0.056250
3.872000	 0.043960
3.890000	 0.119962
3.908000	 0.081139
3.926000	 -0.060984
3.944000	 0.136146
3.962000	 -0.021210
3.980000	 0.144372
3.998000	 -0.150148
4.016000	 -0.062385
4.034000	 0.034475
4.052000	 0.087873
4.070000	 0.044408
4.088000	 0.024883
4.106000	 0.067174
4.124000	 -0.043743
4.141999	 -0.135229
4.160000	 0.139239
4.178000	 0.130910
4.196000	 0.171170
4.214000	 0.115315
4.232000	 0.179841
4.250000	 0.255013
4.268000	 0.374183
4.286000	 0.440396
4.304000	 0.577084
4.322000	 0.826667
4.340000	 0.813556
4.358000	 1.017956
4.375999	 1.340936
4.394000	 1.614105
4.412000	 1.807605
4.430000	 2.197091
4.448000	 2.620505
4.466000	 3.130029
4.484000	 3.728691
4.502000	 4.137964
4.520000	 4.884942
4.538000	 5.595729
4.556000	 6.263464
4.574000	 7.113967
4.592000	 7.993475
4.609999	 8.881745
4.628000	 9.805822
4.646000	 10.4737
4.664000	 11.5149
4.682000	 12.5437
4.700000	 13.4029
4.718000	 14.4148
4.736000	 15.2519
4.754000	 16.1532
4.772000	 17.039
4.790000	 17.9735
4.808000	 18.8146
4.826000	 19.5679
4.843999	 20.2168
4.862000	 20.9333
4.880000	 21.696
4.898000	 22.4621
4.916000	 23.0975
4.934000	 23.7435
4.952000	 24.3059
4.970000	 24.8007
4.988000	 25.3173
5.006000	 25.7788
5.024000	 26.2498
5.042000	 26.685
5.060000	 27.1628
5.077999	 27.5672
5.096000	 27.8936
5.114000	 28.2305
5.132000	 28.5966
5.150000	 28.9047
5.168000	 29.1779
5.186000	 29.5405
5.204000	 29.9601
5.222000	 30.2532
5.240000	 30.3864
5.258000	 30.4521
5.276000	 30.6101
5.294000	 30.7763
5.312000	 31.0029
5.330000	 31.3025
5.348000	 31.4391
5.366000	 31.6447
5.384000	 31.8628
5.402000	 31.984
5.420000	 32.0463
5.438000	 32.1156
5.456000	 32.1946
5.474000	 32.3121
5.492000	 32.4918
5.510000	 32.6377
5.528000	 32.7655
5.546000	 32.8715
5.564000	 32.9708
5.582000	 33.0953
5.600000	 33.0902
5.618000	 33.0483
5.636000	 33.1779
5.654000	 33.2379
5.672000	 33.2477
5.690000	 33.2625
5.708000	 33.3187
5.726000	 33.4165
5.744000	 33.4479
5.762000	 33.5034
5.780000	 33.6428
5.798000	 33.6279
5.816000	 33.4559
5.834000	 33.4323
5.852000	 33.4563
5.870000	 33.5002
5.888000	 33.673
5.906000	 33.8085
5.923999	 33.8253
5.942000	 33.8333
5.960000	 33.8997
5.978000	 33.9485
5.996000	 33.8761
6.014000	 33.9185
6.032000	 33.8757
6.050000	 33.7717
6.068000	 33.8083
6.086000	 33.888
6.104000	 33.9404
6.122000	 34.041
6.140000	 34.0675
6.158000	 33.992
6.176000	 33.9771
6.194000	 34.0476
6.212000	 34.0455
6.230000	 33.9477
6.248000	 33.9421
6.266000	 33.9969
6.284000	 33.9989
6.302000	 34.0147
6.320000	 34.025
6.338000	 34.0411
6.356000	 34.1003
6.374000	 34.1217
6.392000	 34.1272
6.410000	 34.1556
6.428000	 34.156
6.446000	 34.1143
6.464000	 34.0775
6.482000	 33.9933
6.500000	 33.8729
6.518000	 33.8691
6.536000	 33.9582
6.554000	 33.9969
6.572000	 34.0046
6.590000	 34.0718
6.608000	 34.1871
6.626000	 34.283
6.644000	 34.3013
6.662000	 34.2272
6.680000	 34.0804
6.698000	 33.9519
6.716000	 33.9557
6.734000	 34.027
6.752000	 34.0637
6.770000	 34.0472
6.788000	 33.994
6.806000	 33.9486
6.824000	 33.9104
6.842000	 33.8629
6.860000	 33.8623
6.878000	 33.923
6.896000	 33.997
6.914000	 34.0569
6.932000	 34.1094
6.950000	 34.1578
6.968000	 34.1896
6.986000	 34.1943
7.004000	 34.1246
7.022000	 33.9908
7.040000	 33.9006
7.058000	 33.8809
7.076000	 33.8653
7.094000	 33.8119
7.112000	 33.7584
7.130000	 33.769
7.148000	 33.8307
7.166000	 33.9206
7.184000	 34.0282
7.202000	 34.0829
7.220000	 34.06
7.238000	 34.0135
7.256000	 33.9739
7.274000	 33.9438
7.292000	 33.9248
7.310000	 33.9043
7.328000	 33.8762
7.346000	 33.8631
7.364000	 33.8726
7.382000	 33.8633
7.400000	 33.8173
7.418000	 33.7992
7.436000	 33.8439
7.454000	 33.8811
7.472000	 33.8708
7.490000	 33.8664
7.508000	 33.8948
7.526000	 33.9404
7.544000	 34.0058
7.562000	 34.0719
7.580000	 34.0878
7.598000	 34.0536
7.616000	 34.019
7.634000	 34.0036
7.652000	 33.9985
7.670000	 33.992
7.688000	 33.9655
7.706000	 33.9183
7.724000	 33.8729
7.742000	 33.8311
7.760000	 33.7829
7.778000	 33.7457
7.796000	 33.7385
7.814000	 33.7488
7.832000	 33.7551
7.850000	 33.7577
7.868000	 33.7771
7.886000	 33.8274
7.904000	 33.8865
7.922000	 33.9192
7.940000	 33.9298
7.958000	 33.945
7.976000	 33.9632
7.994000	 33.9614
8.012000	 33.9293
8.030000	 33.873
8.048000	 33.8027
8.065999	 33.7239
8.084000	 33.637
8.102000	 33.5555
8.120000	 33.5081
8.138000	 33.5043
8.155999	 33.5235
8.173999	 33.5402
8.192000	 33.5475
8.210000	 33.5526
8.228000	 33.5711
8.246000	 33.6206
8.263999	 33.7004
8.282000	 33.7814
8.300000	 33.8311
8.318000	 33.842
8.336000	 33.8301
8.353999	 33.8149
8.372000	 33.8064
8.390000	 33.7956
8.408000	 33.7624
8.426000	 33.6989
8.443999	 33.6195
8.462000	 33.5458
8.480000	 33.4853
8.498000	 33.435
8.516000	 33.393
8.533999	 33.3591
8.552000	 33.3294
8.570000	 33.3019
8.588000	 33.2858
8.606000	 33.2975
8.624000	 33.3416
8.641999	 33.3957
8.660000	 33.4243
8.678000	 33.4111
8.696000	 33.3759
8.714000	 33.3611
8.731999	 33.3955
8.750000	 33.4672
8.768000	 33.5363
8.786000	 33.5744
8.804000	 33.5842
8.821999	 33.5779
8.840000	 33.5527
8.858000	 33.4999
8.876000	 33.4311
8.894000	 33.3745
8.911999	 33.3427
8.930000	 33.3173
8.948000	 33.2719
8.966000	 33.2015
8.984000	 33.1259
9.001999	 33.0665
9.020000	 33.0272
9.038000	 32.9961
9.056000	 32.9637
9.074000	 32.9352
9.092000	 32.9276
9.109999	 32.9574
9.128000	 33.0257
9.146000	 33.1113
9.164000	 33.1817
9.182000	 33.2172
9.199999	 33.2267
9.218000	 33.239
9.236000	 33.2759
9.254000	 33.3332
9.272000	 33.3873
9.289999	 33.4184
9.308000	 33.4223
9.326000	 33.4062
9.344000	 33.3798
9.362000	 33.3507
9.379999	 33.3227
9.398000	 33.2935
9.416000	 33.2537
9.434000	 33.1913
9.452000	 33.1014
9.469999	 32.9933
9.488000	 32.8884
9.506000	 32.8101
9.524000	 32.7727
9.542000	 32.7758
9.560000	 32.8054
9.577999	 32.8414
9.596000	 32.8653
9.614000	 32.8661
9.632000	 32.8436
9.650000	 32.8082
9.667999	 32.7789
9.686000	 32.7745
9.704000	 32.8041
9.722000	 32.8601
9.740000	 32.919
9.757999	 32.9521
9.776000	 32.9415
9.794000	 32.8937
9.812000	 32.8383
9.830000	 32.8077
9.847999	 32.8143
9.866000	 32.8454
9.884000	 32.8764
9.902000	 32.8902
9.920000	 32.8865
9.937999	 32.8752
9.956000	 32.8663
9.974000	 32.8616
9.992000	 32.8572
10.01	32.8486
10.028	32.8322
10.046	32.8066
10.064	32.7735
10.082	32.7372
10.1	32.7025
10.118	32.6692
10.136	32.63
10.154	32.5743
10.172	32.4959
10.19	32.3995
10.208	32.3015
10.226	32.2229
10.244	32.1803
10.262	32.1808
10.28	32.2198
10.298	32.2849
10.316	32.3599
10.334	32.4294
10.352	32.4828
10.37	32.516
10.388	32.5335
10.406	32.5447
10.424	32.5603
10.442	32.588
10.46	32.628
10.478	32.6737
10.496	32.7115
10.514	32.7259
10.532	32.7041
10.55	32.6446
10.568	32.5595
10.586	32.4727
10.604	32.4073
10.622	32.3755
10.64	32.3704
10.658	32.3702
10.676	32.3493
10.694	32.2942
10.712	32.2082
10.73	32.108
10.748	32.0136
10.766	31.938
10.784	31.8843
10.802	31.8479
10.82	31.8225
10.838	31.8041
10.856	31.7923
10.874	31.7878
10.892	31.7902
10.91	31.7972
10.928	31.806
10.946	31.8154
10.964	31.8275
10.982	31.8482
11	31.8837
11.018	31.9378
11.036	32.0088
11.054	32.0881
11.072	32.1632
11.09	32.2217
11.108	32.2562
11.126	32.2659
11.144	32.2545
11.162	32.2279
11.18	32.1906
11.198	32.1453
11.216	32.0941
11.234	32.0416
11.252	31.9963
11.27	31.9686
11.288	31.9676
11.306	31.9958
11.324	32.0463
11.342	32.103
11.36	32.1463
11.378	32.1573
11.396	32.1256
11.414	32.0512
11.432	31.9447
11.45	31.8226
11.468	31.7038
11.486	31.6024
11.504	31.5261
11.522	31.4756
11.54	31.4471
11.558	31.4341
11.576	31.4311
11.594	31.4353
11.612	31.4458
11.63	31.4625
11.648	31.4843
11.666	31.5078
11.684	31.5273
11.702	31.5363
11.72	31.5298
11.738	31.5073
11.756	31.473
11.774	31.435
11.792	31.4022
11.81	31.3818
11.828	31.3763
11.846	31.3831
11.864	31.3956
11.882	31.4065
11.9	31.4091
11.918	31.4001
11.936	31.3813
11.954	31.3577
11.972	31.3373
11.99	31.327
12.008	31.3317
12.026	31.3513
12.044	31.3802
12.062	31.4077
12.08	31.422
12.098	31.4134
12.116	31.3794
12.134	31.3271
12.152	31.2716
12.17	31.2296
12.188	31.2148
12.206	31.2321
12.224	31.2759
12.242	31.3328
12.26	31.387
12.278	31.4238
12.296	31.4339
12.314	31.4141
12.332	31.3662
12.35	31.2948
12.368	31.2059
12.386	31.1055
12.404	30.9997
12.422	30.8952
12.44	30.7994
12.458	30.7194
12.476	30.6613
12.494	30.6277
12.512	30.6173
12.53	30.6251
12.548	30.6438
12.566	30.6657
12.584	30.6849
12.602	30.6982
12.62	30.7052
12.638	30.707
12.656	30.7052
12.674	30.7007
12.692	30.6935
12.71	30.6837
12.728	30.6717
12.746	30.6595
12.764	30.6495
12.782	30.6446
12.8	30.6466
12.818	30.6557
12.836	30.6703
12.854	30.6877
12.872	30.705
12.89	30.7202
12.908	30.7321
12.926	30.7412
12.944	30.749
12.962	30.7574
12.98	30.768
12.998	30.7813
13.016	30.7971
13.034	30.8139
13.052	30.8293
13.07	30.8403
13.088	30.8442
13.106	30.8389
13.124	30.8229
13.142	30.796
13.16	30.76
13.178	30.7181
13.196	30.6746
13.214	30.6339
13.232	30.5998
13.25	30.5737
13.268	30.5552
13.286	30.541
13.304	30.5261
13.322	30.5047
13.34	30.4721
13.358	30.4253
13.376	30.3643
13.394	30.2919
13.412	30.2134
13.43	30.1348
13.448	30.062
13.466	29.9992
13.484	29.9484
13.502	29.9087
13.52	29.877
13.538	29.8491
13.556	29.8208
13.574	29.7885
13.592	29.7505
13.61	29.7067
13.628	29.6587
13.646	29.6092
13.664	29.5617
13.682	29.5189
13.7	29.4836
13.718	29.4569
13.736	29.4398
13.754	29.4321
13.772	29.4335
13.79	29.4429
13.808	29.4593
13.826	29.4815
13.844	29.5086
13.862	29.5402
13.88	29.5761
13.898	29.6164
13.916	29.6611
13.934	29.7105
13.952	29.7642
13.97	29.8216
13.988	29.8811
14.006	29.9404
14.024	29.9965
14.042	30.0461
14.06	30.0862
14.078	30.1142
14.096	30.1287
14.114	30.1293
14.132	30.1171
14.15	30.0941
14.168	30.0631
14.186	30.0273
14.204	29.9901
14.222	29.9546
14.24	29.9236
14.258	29.8984
14.276	29.8803
14.294	29.869
14.312	29.8632
14.33	29.8607
14.348	29.8583
14.366	29.8522
14.384	29.8386
14.402	29.8147
14.42	29.7787
14.438	29.7304
14.456	29.6714
14.474	29.6047
14.492	29.5342
14.51	29.4646
14.528	29.3998
14.546	29.3425
14.564	29.2937
14.582	29.2528
14.6	29.2175
14.618	29.1845
14.636	29.1506
14.654	29.1138
14.672	29.0734
14.69	29.0302
14.708	28.9866
14.726	28.9456
14.744	28.9114
14.762	28.8866
14.78	28.8728
14.798	28.8702
14.816	28.8775
14.834	28.8923
14.852	28.9109
14.87	28.9299
14.888	28.9465
14.906	28.9588
14.924	28.9662
14.942	28.969
14.96	28.9696
14.978	28.9706
14.996	28.975
15.014	28.9858
15.032	29.0052
15.05	29.0344
15.068	29.073
15.086	29.12
15.104	29.1729
15.122	29.2282
15.14	29.2818
15.158	29.3301
15.176	29.3696
15.194	29.3974
15.212	29.4117
15.23	29.4121
15.248	29.3995
15.266	29.3753
15.284	29.3426
15.302	29.3049
15.32	29.2656
15.338	29.2275
15.356	29.1934
15.374	29.1651
15.392	29.1428
15.41	29.1264
15.428	29.1151
15.446	29.1069
15.464	29.1002
15.482	29.0932
15.5	29.0843
15.518	29.0723
15.536	29.0566
15.554	29.0369
15.572	29.0131
15.59	28.985
15.608	28.953
15.626	28.9173
15.644	28.878
15.662	28.8348
15.68	28.7878
15.698	28.7372
15.716	28.6833
15.734	28.6272
15.752	28.57
15.77	28.5132
15.788	28.459
15.806	28.4095
15.824	28.3661
15.842	28.3306
15.86	28.3041
15.878	28.2867
15.896	28.2782
15.914	28.2776
15.932	28.283
15.95	28.2928
15.968	28.3046
15.986	28.316
16.004	28.3252
16.022	28.3307
16.04	28.331
16.058	28.3255
16.076	28.3138
16.094	28.2959
16.112	28.272
16.13	28.2424
16.148	28.2075
16.166	28.1677
16.184	28.123
16.202	28.0734
16.22	28.019
16.238	27.96
16.256	27.8966
16.274	27.8296
16.292	27.7601
16.31	27.6893
16.328	27.6193
16.346	27.5522
16.364	27.4899
16.382	27.4351
16.4	27.3898
16.418	27.3553
16.436	27.3332
16.454	27.3238
16.472	27.3273
16.49	27.3429
16.508	27.3693
16.526	27.4054
16.544	27.4488
16.562	27.4976
16.58	27.5499
16.598	27.6028
16.616	27.6543
16.634	27.7026
16.652	27.7449
16.67	27.7799
16.688	27.8061
16.706	27.8216
16.724	27.8259
16.742	27.8184
16.76	27.799
16.778	27.7681
16.796	27.7267
16.814	27.6772
16.832	27.6208
16.85	27.561
16.868	27.5008
16.886	27.4425
16.904	27.3902
16.922	27.3455
16.94	27.3108
16.958	27.2875
16.976	27.2759
16.994	27.2759
17.012	27.286
17.03	27.3053
17.048	27.3305
17.066	27.3599
17.084	27.3909
17.102	27.4204
17.12	27.4473
17.138	27.4689
17.156	27.4846
17.174	27.4934
17.192	27.4951
17.21	27.4901
17.228	27.4789
17.246	27.4627
17.264	27.4424
17.282	27.4197
17.3	27.3955
17.318	27.3715
17.336	27.3486
17.354	27.3273
17.372	27.3088
17.39	27.293
17.408	27.28
17.426	27.2695
17.444	27.2612
17.462	27.2537
17.48	27.2467
17.498	27.2389
17.516	27.2293
17.534	27.2172
17.552	27.2016
17.57	27.182
17.588	27.1579
17.606	27.1296
17.624	27.097
17.642	27.0611
17.66	27.0221
17.678	26.9818
17.696	26.9406
17.714	26.9002
17.732	26.861
17.75	26.8242
17.768	26.7902
17.786	26.7593
17.804	26.7315
17.822	26.7067
17.84	26.6842
17.858	26.6634
17.876	26.6437
17.894	26.6242
17.912	26.6045
17.93	26.584
17.948	26.5627
17.966	26.5402
17.984	26.5169
18.002	26.493
18.02	26.4689
18.038	26.4449
18.056	26.4218
18.074	26.3998
18.092	26.3795
18.11	26.3608
18.128	26.3438
18.146	26.3283
18.164	26.314
18.182	26.3005
18.2	26.2873
18.218	26.2738
18.236	26.2597
18.254	26.2447
18.272	26.2286
18.29	26.2115
18.308	26.1932
18.326	26.1746
18.344	26.1556
18.362	26.1372
18.38	26.1198
18.398	26.1043
18.416	26.091
18.434	26.0806
18.452	26.0732
18.47	26.0689
18.488	26.0676
18.506	26.0691
18.524	26.0726
18.542	26.0779
18.56	26.0836
18.578	26.0895
18.596	26.0939
18.614	26.0967
18.632	26.0965
18.65	26.0932
18.668	26.0861
18.686	26.0751
18.704	26.0601
18.722	26.0416
18.74	26.0202
18.758	25.9963
18.776	25.9712
18.794	25.9454
18.812	25.9207
18.83	25.8976
18.848	25.8779
18.866	25.8622
18.884	25.8522
18.902	25.8485
18.92	25.8526
18.938	25.8646
18.956	25.8855
18.974	25.9149
18.992	25.9528
19.01	25.9982
19.028	26.0504
19.046	26.108
19.064	26.1691
19.082	26.2323
19.1	26.2949
19.118	26.3555
19.136	26.4108
19.154	26.4601
19.172	26.5002
19.19	26.5308
19.208	26.5492
19.226	26.5561
19.244	26.5503
19.262	26.5325
19.28	26.5035
19.298	26.4636
19.316	26.4156
19.334	26.3594
19.352	26.2986
19.37	26.2329
19.388	26.1662
19.406	26.0984
19.424	26.0324
19.442	25.9682
19.46	25.9074
19.478	25.8502
19.496	25.797
19.514	25.748
19.532	25.7028
19.55	25.6614
19.568	25.6235
19.586	25.5885
19.604	25.5568
19.622	25.5282
19.64	25.5029
19.658	25.4813
19.676	25.4633
19.694	25.4499
19.712	25.4412
19.73	25.4373
19.748	25.4382
19.766	25.4433
19.784	25.4529
19.802	25.4648
19.82	25.4783
19.838	25.4916
19.856	25.5018
19.874	25.5083
19.892	25.5062
19.91	25.4962
19.928	25.4733
19.946	25.4377
19.964	25.387
19.982	25.3202
20	25.2383
20.018	25.1403
20.036	25.0285
20.054	24.905
20.072	24.7705
20.09	24.6316
20.108	24.4869
20.126	24.3454
20.144	24.2063
20.162	24.0766
20.18	23.9588
20.198	23.8552
20.216	23.771
20.234	23.7053
20.252	23.662
20.27	23.6406
20.288	23.6405
20.306	23.6626
20.324	23.7036
20.342	23.7622
20.36	23.8367
20.378	23.9222
20.396	24.0195
20.414	24.1214
20.432	24.2287
20.45	24.3363
20.468	24.442
20.486	24.5447
20.504	24.64
20.522	24.7287
20.54	24.8072
20.558	24.8756
20.576	24.9327
20.594	24.9777
20.612	25.0108
20.63	25.0311
20.648	25.0387
20.666	25.0343
20.684	25.0175
20.702	24.9896
20.72	24.951
20.738	24.9022
20.756	24.8452
20.774	24.7795
20.792	24.7081
20.81	24.6311
20.828	24.55
20.846	24.4675
20.864	24.3829
20.882	24.3002
20.9	24.2189
20.918	24.1415
20.936	24.0696
20.954	24.0032
20.972	23.9448
20.99	23.8941
21.008	23.8525
21.026	23.8207
21.044	23.7986
21.062	23.7868
21.08	23.7853
21.098	23.794
21.116	23.8129
21.134	23.8417
21.152	23.8799
21.17	23.9276
21.188	23.9833
21.206	24.0473
21.224	24.1183
21.242	24.1946
21.26	24.2767
21.278	24.3622
21.296	24.4509
21.314	24.5418
21.332	24.6324
21.35	24.7237
21.368	24.8117
21.386	24.8961
21.404	24.9759
21.422	25.047
21.44	25.1108
21.458	25.1637
21.476	25.2041
21.494	25.2322
21.512	25.245
21.53	25.2428
21.548	25.2253
21.566	25.1916
21.584	25.1424
21.602	25.0791
21.62	25.0007
21.638	24.9101
21.656	24.81
21.674	24.6992
21.692	24.5829
21.71	24.4616
21.728	24.3365
21.746	24.2136
21.764	24.0915
21.782	23.9733
21.8	23.862
21.818	23.7563
21.836	23.6589
21.854	23.5706
21.872	23.4904
21.89	23.418
21.908	23.3542
21.926	23.2962
21.944	23.2431
21.962	23.1951
21.98	23.1476
21.998	23.1008
22.016	23.0533
22.034	23.0011
22.052	22.9454
22.07	22.8841
22.088	22.815
22.106	22.739
22.124	22.6552
22.142	22.5625
22.16	22.462
22.178	22.3558
22.196	22.2424
22.214	22.1248
22.232	22.0062
22.25	21.8843
22.268	21.7653
22.286	21.6519
22.304	21.5426
22.322	21.4447
22.34	21.3584
22.358	21.2846
22.376	21.2298
22.394	21.1928
22.412	21.1753
22.43	21.1813
22.448	21.2091
22.466	21.2603
22.484	21.3367
22.502	21.4374
22.52	21.5614
22.538	21.7089
22.556	21.8796
22.574	22.0692
22.592	22.2788
22.61	22.5063
22.628	22.7444
22.646	22.9958
22.664	23.256
22.682	23.5166
22.7	23.7818
22.718	24.0445
22.736	24.2961
22.754	24.5416
22.772	24.7723
22.79	24.981
22.808	25.1721
22.826	25.3374
22.844	25.4714
22.862	25.5778
22.88	25.6505
22.898	25.6865
22.916	25.6879
22.934	25.6532
22.952	25.5807
22.97	25.4718
22.988	25.3293
23.006	25.1519
23.024	24.9411
23.042	24.7047
23.06	24.4411
23.078	24.1525
23.096	23.8504
23.114	23.5327
23.132	23.2023
23.15	22.8729
23.168	22.5422
23.186	22.2129
23.204	21.8985
23.222	21.5966
23.24	21.3094
23.258	21.0489
23.276	20.8133
23.294	20.6038
23.312	20.4288
23.33	20.2882
23.348	20.1814
23.366	20.1124
23.384	20.0818
23.402	20.0883
23.42	20.1315
23.438	20.2132
23.456	20.3311
23.474	20.4798
23.492	20.6605
23.51	20.872
23.528	21.1048
23.546	21.3583
23.564	21.6336
23.582	21.9183
23.6	22.2093
23.618	22.5102
23.636	22.8084
23.654	23.098
23.672	23.3847
23.69	23.6573
23.708	23.9082
23.726	24.1436
23.744	24.3553
23.762	24.5361
23.78	24.6902
23.798	24.8143
23.816	24.9035
23.834	24.9591
23.852	24.9815
23.87	24.9702
23.888	24.9239
23.906	24.8449
23.924	24.7365
23.942	24.5975
23.96	24.4289
23.978	24.2374
23.996	24.0237
24.014	23.786
24.032	23.5332
24.05	23.2706
24.068	22.9928
24.086	22.7083
24.104	22.4249
24.122	22.1371
24.14	21.8505
24.158	21.5736
24.176	21.3041
24.194	21.0427
24.212	20.7952
24.23	20.5625
24.248	20.3429
24.266	20.1394
24.284	19.9544
24.302	19.7868
24.32	19.635
24.338	19.4983
24.356	19.3788
24.374	19.2729
24.392	19.176
24.41	19.0908
24.428	19.0153
24.446	18.9423
24.464	18.8698
24.482	18.8014
24.5	18.7286
24.518	18.6447
24.536	18.5549
24.554	18.4547
24.572	18.3371
24.59	18.2033
24.608	18.0538
24.626	17.8845
24.644	17.6927
24.662	17.4801
24.68	17.2482
24.698	16.9979
24.716	16.7269
24.734	16.4385
24.752	16.1375
24.77	15.8216
24.788	15.4912
24.806	15.1559
24.824	14.8216
24.842	14.4807
24.86	14.143
24.878	13.8206
24.896	13.5082
24.914	13.2076
24.932	12.9312
24.95	12.6853
24.968	12.4624
24.986	12.2702
25.004	12.117
25.022	12
25.04	11.9191
25.058	11.8781
25.076	11.8801
25.094	11.9231
25.112	12.005
25.13	12.1243
25.148	12.2846
25.166	12.4818
25.184	12.7088
25.202	12.9639
25.22	13.2522
25.238	13.5629
25.256	13.8851
25.274	14.2251
25.292	14.5801
25.31	14.9387
25.328	15.2944
25.346	15.6551
25.364	16.0133
25.382	16.3603
25.4	16.6972
25.418	17.0258
25.436	17.3412
25.454	17.6395
25.472	17.9228
25.49	18.1915
25.508	18.4447
25.526	18.6809
25.544	18.9006
25.562	19.108
25.58	19.3068
25.598	19.4929
25.616	19.6692
25.634	19.8429
25.652	20.0181
25.67	20.1897
25.688	20.3621
25.706	20.5406
25.724	20.726
25.742	20.916
25.76	21.1128
25.778	21.3185
25.796	21.5321
25.814	21.7536
25.832	21.9839
25.85	22.2239
25.868	22.474
25.886	22.7324
25.904	22.9969
25.922	23.2682
25.94	23.5475
25.958	23.8304
25.976	24.113
25.994	24.3984
26.012	24.6857
26.03	24.9686
26.048	25.2419
26.066	25.5109
26.084	25.7725
26.102	26.0203
26.12	26.2507
26.138	26.4694
26.156	26.6714
26.174	26.8499
26.192	27.0017
26.21	27.1309
26.228	27.2366
26.246	27.3183
26.264	27.3757
26.282	27.4095
26.3	27.4194
26.318	27.4053
26.336	27.369
26.354	27.3094
26.372	27.2234
26.39	27.1084
26.408	26.9671
26.426	26.7984
26.444	26.5991
26.462	26.366
26.48	26.1003
26.498	25.8033
26.516	25.4756
26.534	25.1176
26.552	24.7285
26.57	24.3094
26.588	23.8619
26.606	23.3867
26.624	22.8822
26.642	22.3504
26.66	21.7938
26.678	21.2132
26.696	20.6058
26.714	19.9753
26.732	19.326
26.75	18.6589
26.768	17.9692
26.786	17.2635
26.804	16.5495
26.822	15.8297
26.84	15.0975
26.858	14.3596
26.876	13.6239
26.894	12.8935
26.912	12.1612
26.93	11.4336
26.948	10.7183
26.966	9.992054
26.984	9.208633
27.002	8.473221
27.02	7.900611
27.028	7.745909