File: Bakgrunnsmateriale/MATLAB/FTIR/ftir_data/LPE454/Mapping_121/LPE454_e125.asc
PE IR       SPECTRUM    SPECTRUM    ASCII       PEDS        1.60
  -1
LP8705~1.ASC
17/05/19
19:50:42.00
17/05/19
19:51:08.00
tln
$LPE454_e0125$<ebV0>[-23.3,12.1,10.0,0.0,27,1,0]
27.028
64

2002,4.07
MIRTGS : RIGHTBACK : INTERNAL 2
MIR : ON : INTERNAL 2
OPTKBR

0.200000
8
8.000000
FILLER
SINGLE
SPECTRUM
UNLOCKED 256

DOUBLE

COMBINED
1
0
0

0.002000
BACKG

1
0
TRUE
51149
0
LEFT NOT FITTED RIGHT NOT FITTED 0
NONE
NONE
15600
12
4.427000
51148
TRUE
1 0 8 72 0 0 0 0

15798

#HDR
-1
-1
#GR
µM
EGY
2.38419e-05
0.0
2.000000
0.002000
12515
8
2.427364
0.005984
#DATA
2.000000	 0.772905
2.018000	 0.792631
2.036000	 0.806638
2.054000	 0.828352
2.072000	 0.853442
2.090000	 0.877067
2.108000	 0.897292
2.126000	 0.898739
2.144000	 0.903273
2.162000	 0.914671
2.180000	 0.942164
2.198000	 0.942815
2.216000	 0.985419
2.234000	 0.999072
2.252000	 1.003738
2.270000	 1.013601
2.288000	 1.035289
2.306000	 1.074115
2.324000	 1.111102
2.342000	 1.151436
2.360000	 1.174327
2.378000	 1.191829
2.396000	 1.208878
2.414000	 1.224219
2.432000	 1.250586
2.450000	 1.287031
2.468000	 1.322699
2.486000	 1.359222
2.504000	 1.388495
2.522000	 1.403320
2.540000	 1.415942
2.558000	 1.424777
2.576000	 1.436169
2.594000	 1.437829
2.612000	 1.483937
2.630000	 1.502091
2.648000	 1.539700
2.666000	 1.537039
2.684000	 1.565821
2.702000	 1.570687
2.720000	 1.556758
2.738000	 1.558129
2.756000	 1.562915
2.774000	 1.578785
2.792000	 1.591048
2.810000	 1.608465
2.828000	 1.614239
2.846000	 1.616327
2.864000	 1.610125
2.882000	 1.601016
2.900000	 1.587660
2.918000	 1.575803
2.936000	 1.584534
2.954000	 1.598976
2.972000	 1.617391
2.990000	 1.647048
3.008000	 1.674392
3.026000	 1.704157
3.044000	 1.730143
3.062000	 1.750156
3.080000	 1.764028
3.098000	 1.773808
3.116000	 1.777516
3.134000	 1.781900
3.152000	 1.786068
3.170000	 1.797311
3.188000	 1.811250
3.206000	 1.829309
3.224000	 1.858076
3.242000	 1.891528
3.260000	 1.916078
3.278000	 1.945728
3.296000	 1.963549
3.314000	 1.947333
3.332000	 2.007268
3.350000	 2.015084
3.368000	 1.952195
3.386000	 1.910378
3.404000	 1.819267
3.422000	 1.769064
3.440000	 1.918386
3.458000	 1.972672
3.476000	 1.985694
3.494000	 1.892539
3.512000	 1.992843
3.530000	 2.083151
3.548000	 2.123706
3.566000	 2.156978
3.584000	 2.181369
3.602000	 2.206674
3.620000	 2.223308
3.638000	 2.235898
3.656000	 2.238114
3.674000	 2.238648
3.692000	 2.230649
3.710000	 2.227637
3.728000	 2.223117
3.746000	 2.213791
3.764000	 2.201572
3.782000	 2.197066
3.800000	 2.200123
3.818000	 2.201882
3.836000	 2.204657
3.854000	 2.208418
3.872000	 2.221395
3.890000	 2.240652
3.908000	 2.257034
3.926000	 2.271625
3.944000	 2.284744
3.962000	 2.294658
3.980000	 2.301401
3.998000	 2.304115
4.016000	 2.307189
4.034000	 2.304927
4.052000	 2.296928
4.070000	 2.285246
4.088000	 2.274949
4.106000	 2.265226
4.124000	 2.254455
4.141999	 2.241637
4.160000	 2.236616
4.178000	 2.230681
4.196000	 2.224621
4.214000	 2.213965
4.232000	 2.212023
4.250000	 2.228984
4.268000	 2.241155
4.286000	 2.249607
4.304000	 2.271398
4.322000	 2.289864
4.340000	 2.304696
4.358000	 2.320579
4.375999	 2.332397
4.394000	 2.341847
4.412000	 2.348271
4.430000	 2.352970
4.448000	 2.355330
4.466000	 2.355726
4.484000	 2.355138
4.502000	 2.350263
4.520000	 2.343922
4.538000	 2.335963
4.556000	 2.328723
4.574000	 2.320188
4.592000	 2.312982
4.609999	 2.310660
4.628000	 2.309080
4.646000	 2.306362
4.664000	 2.306432
4.682000	 2.308175
4.700000	 2.307146
4.718000	 2.308363
4.736000	 2.308464
4.754000	 2.309777
4.772000	 2.309111
4.790000	 2.310364
4.808000	 2.318201
4.826000	 2.328442
4.843999	 2.345373
4.862000	 2.360197
4.880000	 2.376743
4.898000	 2.391620
4.916000	 2.403583
4.934000	 2.411994
4.952000	 2.417799
4.970000	 2.422066
4.988000	 2.425058
5.006000	 2.427364
5.024000	 2.425275
5.042000	 2.422079
5.060000	 2.416731
5.077999	 2.409890
5.096000	 2.403403
5.114000	 2.398263
5.132000	 2.392506
5.150000	 2.385402
5.168000	 2.381216
5.186000	 2.373935
5.204000	 2.364831
5.222000	 2.357342
5.240000	 2.351673
5.258000	 2.345640
5.276000	 2.339958
5.294000	 2.339506
5.312000	 2.342219
5.330000	 2.344752
5.348000	 2.343157
5.366000	 2.350996
5.384000	 2.357042
5.402000	 2.358552
5.420000	 2.358753
5.438000	 2.369754
5.456000	 2.373456
5.474000	 2.376015
5.492000	 2.385510
5.510000	 2.392677
5.528000	 2.396956
5.546000	 2.397446
5.564000	 2.394647
5.582000	 2.391659
5.600000	 2.396294
5.618000	 2.394284
5.636000	 2.381122
5.654000	 2.378587
5.672000	 2.379622
5.690000	 2.370338
5.708000	 2.351842
5.726000	 2.336317
5.744000	 2.316161
5.762000	 2.289861
5.780000	 2.289031
5.798000	 2.291259
5.816000	 2.270920
5.834000	 2.266052
5.852000	 2.265257
5.870000	 2.239572
5.888000	 2.216466
5.906000	 2.222058
5.923999	 2.215986
5.942000	 2.203419
5.960000	 2.204649
5.978000	 2.195094
5.996000	 2.187630
6.014000	 2.180960
6.032000	 2.157105
6.050000	 2.127468
6.068000	 2.125251
6.086000	 2.127806
6.104000	 2.115685
6.122000	 2.103486
6.140000	 2.095797
6.158000	 2.074192
6.176000	 2.037342
6.194000	 1.991057
6.212000	 1.953593
6.230000	 1.945849
6.248000	 1.963092
6.266000	 1.980665
6.284000	 1.987274
6.302000	 1.983438
6.320000	 1.972394
6.338000	 1.958440
6.356000	 1.952906
6.374000	 1.948463
6.392000	 1.927134
6.410000	 1.898128
6.428000	 1.901569
6.446000	 1.924387
6.464000	 1.927724
6.482000	 1.927323
6.500000	 1.964004
6.518000	 2.025427
6.536000	 2.066016
6.554000	 2.078247
6.572000	 2.077665
6.590000	 2.074403
6.608000	 2.065043
6.626000	 2.041613
6.644000	 1.989918
6.662000	 1.868520
6.680000	 1.707700
6.698000	 1.649762
6.716000	 1.733428
6.734000	 1.850996
6.752000	 1.922521
6.770000	 1.945049
6.788000	 1.945560
6.806000	 1.939445
6.824000	 1.920504
6.842000	 1.877132
6.860000	 1.809211
6.878000	 1.748723
6.896000	 1.740285
6.914000	 1.780271
6.932000	 1.819088
6.950000	 1.833861
6.968000	 1.839431
6.986000	 1.843689
7.004000	 1.843821
7.022000	 1.838367
7.040000	 1.829419
7.058000	 1.819968
7.076000	 1.801746
7.094000	 1.764093
7.112000	 1.720042
7.130000	 1.699543
7.148000	 1.713234
7.166000	 1.743175
7.184000	 1.764284
7.202000	 1.766462
7.220000	 1.762065
7.238000	 1.767095
7.256000	 1.777911
7.274000	 1.784817
7.292000	 1.788008
7.310000	 1.789884
7.328000	 1.790904
7.346000	 1.792123
7.364000	 1.793297
7.382000	 1.792933
7.400000	 1.790793
7.418000	 1.788579
7.436000	 1.788023
7.454000	 1.789857
7.472000	 1.795169
7.490000	 1.804164
7.508000	 1.813639
7.526000	 1.820091
7.544000	 1.823304
7.562000	 1.825221
7.580000	 1.827142
7.598000	 1.828943
7.616000	 1.829906
7.634000	 1.830176
7.652000	 1.830347
7.670000	 1.830350
7.688000	 1.830100
7.706000	 1.830266
7.724000	 1.831016
7.742000	 1.831655
7.760000	 1.831382
7.778000	 1.830087
7.796000	 1.827224
7.814000	 1.821728
7.832000	 1.811957
7.850000	 1.795953
7.868000	 1.772126
7.886000	 1.741585
7.904000	 1.711758
7.922000	 1.695699
7.940000	 1.702018
7.958000	 1.726775
7.976000	 1.757364
7.994000	 1.782884
8.012000	 1.799554
8.030000	 1.808305
8.048000	 1.811607
8.065999	 1.811995
8.084000	 1.811057
8.102000	 1.809107
8.120000	 1.805923
8.138000	 1.801651
8.155999	 1.796283
8.173999	 1.789315
8.192000	 1.779835
8.210000	 1.767460
8.228000	 1.753601
8.246000	 1.740989
8.263999	 1.731608
8.282000	 1.726145
8.300000	 1.723993
8.318000	 1.724104
8.336000	 1.725063
8.353999	 1.725462
8.372000	 1.724330
8.390000	 1.721318
8.408000	 1.716602
8.426000	 1.710578
8.443999	 1.703911
8.462000	 1.697388
8.480000	 1.690980
8.498000	 1.684096
8.516000	 1.676197
8.533999	 1.667021
8.552000	 1.656634
8.570000	 1.645360
8.588000	 1.633595
8.606000	 1.621892
8.624000	 1.611255
8.641999	 1.602665
8.660000	 1.596625
8.678000	 1.592782
8.696000	 1.589958
8.714000	 1.586778
8.731999	 1.582604
8.750000	 1.577416
8.768000	 1.571321
8.786000	 1.564493
8.804000	 1.556902
8.821999	 1.548508
8.840000	 1.539198
8.858000	 1.528977
8.876000	 1.517847
8.894000	 1.505910
8.911999	 1.493706
8.930000	 1.481688
8.948000	 1.470038
8.966000	 1.458693
8.984000	 1.447793
9.001999	 1.437808
9.020000	 1.429392
9.038000	 1.422996
9.056000	 1.418449
9.074000	 1.415174
9.092000	 1.412609
9.109999	 1.410531
9.128000	 1.409172
9.146000	 1.408833
9.164000	 1.409771
9.182000	 1.411660
9.199999	 1.413765
9.218000	 1.415203
9.236000	 1.415351
9.254000	 1.414173
9.272000	 1.412655
9.289999	 1.411880
9.308000	 1.412733
9.326000	 1.415309
9.344000	 1.418669
9.362000	 1.421582
9.379999	 1.422854
9.398000	 1.421538
9.416000	 1.416153
9.434000	 1.404251
9.452000	 1.383422
9.469999	 1.354209
9.488000	 1.322211
9.506000	 1.296782
9.524000	 1.286419
9.542000	 1.293647
9.560000	 1.313561
9.577999	 1.337052
9.596000	 1.356200
9.614000	 1.367408
9.632000	 1.371437
9.650000	 1.370801
9.667999	 1.367974
9.686000	 1.364188
9.704000	 1.360074
9.722000	 1.355750
9.740000	 1.351550
9.757999	 1.347689
9.776000	 1.344714
9.794000	 1.343143
9.812000	 1.343351
9.830000	 1.345630
9.847999	 1.349664
9.866000	 1.355034
9.884000	 1.360984
9.902000	 1.366751
9.920000	 1.371635
9.937999	 1.375402
9.956000	 1.378257
9.974000	 1.380353
9.992000	 1.381950
10.01	1.382970
10.028	1.383318
10.046	1.382747
10.064	1.381253
10.082	1.378986
10.1	1.376154
10.118	1.373022
10.136	1.369832
10.154	1.366617
10.172	1.363354
10.19	1.360032
10.208	1.356613
10.226	1.353156
10.244	1.349639
10.262	1.345937
10.28	1.341901
10.298	1.337416
10.316	1.332442
10.334	1.327116
10.352	1.321495
10.37	1.315673
10.388	1.309717
10.406	1.303662
10.424	1.297586
10.442	1.291649
10.46	1.285917
10.478	1.280415
10.496	1.275136
10.514	1.270110
10.532	1.265329
10.55	1.260937
10.568	1.256956
10.586	1.253431
10.604	1.250270
10.622	1.247441
10.64	1.244795
10.658	1.242150
10.676	1.239386
10.694	1.236317
10.712	1.232985
10.73	1.229373
10.748	1.225561
10.766	1.221773
10.784	1.218109
10.802	1.214537
10.82	1.210981
10.838	1.207265
10.856	1.203216
10.874	1.198734
10.892	1.193766
10.91	1.188256
10.928	1.182285
10.946	1.176138
10.964	1.170098
10.982	1.164378
11	1.159241
11.018	1.154884
11.036	1.151179
11.054	1.148126
11.072	1.145595
11.09	1.143466
11.108	1.141589
11.126	1.139905
11.144	1.138171
11.162	1.136218
11.18	1.133677
11.198	1.130245
11.216	1.125601
11.234	1.119449
11.252	1.111666
11.27	1.102221
11.288	1.091331
11.306	1.079282
11.324	1.066689
11.342	1.054228
11.36	1.042692
11.378	1.032948
11.396	1.025674
11.414	1.021446
11.432	1.020597
11.45	1.022935
11.468	1.028051
11.486	1.035257
11.504	1.043619
11.522	1.052179
11.54	1.060184
11.558	1.067026
11.576	1.072413
11.594	1.076391
11.612	1.079093
11.63	1.080731
11.648	1.081578
11.666	1.081772
11.684	1.081410
11.702	1.080588
11.72	1.079333
11.738	1.077704
11.756	1.075773
11.774	1.073615
11.792	1.071207
11.81	1.068493
11.828	1.065446
11.846	1.062063
11.864	1.058045
11.882	1.053223
11.9	1.047388
11.918	1.040040
11.936	1.030734
11.954	1.018917
11.972	1.004175
11.99	0.986254
12.008	0.965331
12.026	0.942014
12.044	0.917500
12.062	0.893447
12.08	0.871762
12.098	0.854288
12.116	0.842577
12.134	0.837476
12.152	0.838979
12.17	0.846254
12.188	0.857808
12.206	0.871784
12.224	0.886279
12.242	0.899739
12.26	0.911213
12.278	0.920189
12.296	0.926663
12.314	0.930933
12.332	0.933508
12.35	0.934878
12.368	0.935313
12.386	0.935220
12.404	0.934825
12.422	0.934278
12.44	0.933702
12.458	0.933275
12.476	0.933103
12.494	0.933274
12.512	0.933890
12.53	0.935043
12.548	0.936704
12.566	0.938914
12.584	0.941602
12.602	0.944673
12.62	0.948001
12.638	0.951420
12.656	0.954815
12.674	0.958015
12.692	0.960934
12.71	0.963452
12.728	0.965524
12.746	0.967184
12.764	0.968384
12.782	0.969162
12.8	0.969596
12.818	0.969700
12.836	0.969588
12.854	0.969279
12.872	0.968828
12.89	0.968251
12.908	0.967635
12.926	0.966930
12.944	0.966172
12.962	0.965339
12.98	0.964460
12.998	0.963479
13.016	0.962430
13.034	0.961312
13.052	0.960114
13.07	0.958862
13.088	0.957584
13.106	0.956284
13.124	0.954987
13.142	0.953716
13.16	0.952401
13.178	0.951116
13.196	0.949829
13.214	0.948522
13.232	0.947236
13.25	0.946016
13.268	0.944799
13.286	0.943636
13.304	0.942543
13.322	0.941428
13.34	0.940312
13.358	0.939167
13.376	0.937941
13.394	0.936570
13.412	0.935037
13.43	0.933334
13.448	0.931484
13.466	0.929500
13.484	0.927419
13.502	0.925257
13.52	0.923092
13.538	0.920942
13.556	0.918816
13.574	0.916693
13.592	0.914578
13.61	0.912459
13.628	0.910293
13.646	0.908061
13.664	0.905739
13.682	0.903290
13.7	0.900735
13.718	0.898009
13.736	0.895184
13.754	0.892258
13.772	0.889250
13.79	0.886203
13.808	0.883158
13.826	0.880136
13.844	0.877179
13.862	0.874270
13.88	0.871476
13.898	0.868846
13.916	0.866330
13.934	0.863876
13.952	0.861489
13.97	0.859122
13.988	0.856679
14.006	0.854246
14.024	0.851714
14.042	0.849090
14.06	0.846355
14.078	0.843506
14.096	0.840558
14.114	0.837546
14.132	0.834475
14.15	0.831340
14.168	0.828157
14.186	0.824922
14.204	0.821596
14.222	0.818205
14.24	0.814738
14.258	0.811106
14.276	0.807298
14.294	0.803291
14.312	0.799016
14.33	0.794408
14.348	0.789434
14.366	0.783948
14.384	0.778058
14.402	0.771778
14.42	0.765150
14.438	0.758336
14.456	0.751567
14.474	0.745069
14.492	0.739046
14.51	0.733773
14.528	0.729427
14.546	0.726125
14.564	0.723885
14.582	0.722651
14.6	0.722310
14.618	0.722657
14.636	0.723445
14.654	0.724425
14.672	0.725399
14.69	0.726212
14.708	0.726743
14.726	0.726918
14.744	0.726673
14.762	0.726079
14.78	0.725126
14.798	0.723871
14.816	0.722426
14.834	0.720792
14.852	0.718996
14.87	0.717092
14.888	0.715126
14.906	0.713118
14.924	0.711050
14.942	0.708973
14.96	0.706901
14.978	0.704821
14.996	0.702746
15.014	0.700728
15.032	0.698779
15.05	0.696882
15.068	0.695033
15.086	0.693235
15.104	0.691485
15.122	0.689771
15.14	0.688080
15.158	0.686392
15.176	0.684692
15.194	0.683003
15.212	0.681271
15.23	0.679514
15.248	0.677714
15.266	0.675826
15.284	0.673902
15.302	0.671954
15.32	0.669976
15.338	0.667959
15.356	0.665898
15.374	0.663869
15.392	0.661859
15.41	0.659850
15.428	0.657844
15.446	0.655870
15.464	0.653930
15.482	0.652015
15.5	0.650100
15.518	0.648205
15.536	0.646321
15.554	0.644435
15.572	0.642523
15.59	0.640585
15.608	0.638650
15.626	0.636732
15.644	0.634803
15.662	0.632860
15.68	0.630931
15.698	0.629034
15.716	0.627120
15.734	0.625223
15.752	0.623330
15.77	0.621411
15.788	0.619483
15.806	0.617558
15.824	0.615632
15.842	0.613666
15.86	0.611677
15.878	0.609680
15.896	0.607691
15.914	0.605704
15.932	0.603729
15.95	0.601776
15.968	0.599867
15.986	0.598000
16.004	0.596162
16.022	0.594336
16.04	0.592561
16.058	0.590782
16.076	0.588964
16.094	0.587140
16.112	0.585242
16.13	0.583253
16.148	0.581199
16.166	0.579019
16.184	0.576702
16.202	0.574243
16.22	0.571634
16.238	0.568868
16.256	0.565940
16.274	0.562861
16.292	0.559651
16.31	0.556333
16.328	0.552903
16.346	0.549409
16.364	0.545888
16.382	0.542417
16.4	0.539041
16.418	0.535801
16.436	0.532768
16.454	0.529996
16.472	0.527525
16.49	0.525411
16.508	0.523661
16.526	0.522280
16.544	0.521247
16.562	0.520540
16.58	0.520142
16.598	0.519962
16.616	0.519952
16.634	0.520073
16.652	0.520213
16.67	0.520345
16.688	0.520441
16.706	0.520397
16.724	0.520206
16.742	0.519868
16.76	0.519374
16.778	0.518724
16.796	0.517911
16.814	0.516979
16.832	0.515949
16.85	0.514855
16.868	0.513711
16.886	0.512532
16.904	0.511353
16.922	0.510190
16.94	0.509076
16.958	0.507991
16.976	0.506939
16.994	0.505950
17.012	0.505015
17.03	0.504129
17.048	0.503258
17.066	0.502414
17.084	0.501623
17.102	0.500881
17.12	0.500184
17.138	0.499497
17.156	0.498847
17.174	0.498262
17.192	0.497705
17.21	0.497174
17.228	0.496682
17.246	0.496225
17.264	0.495803
17.282	0.495431
17.3	0.495095
17.318	0.494752
17.336	0.494409
17.354	0.494071
17.372	0.493710
17.39	0.493318
17.408	0.492866
17.426	0.492382
17.444	0.491885
17.462	0.491311
17.48	0.490663
17.498	0.489983
17.516	0.489259
17.534	0.488481
17.552	0.487677
17.57	0.486853
17.588	0.486015
17.606	0.485164
17.624	0.484289
17.642	0.483430
17.66	0.482605
17.678	0.481787
17.696	0.480979
17.714	0.480201
17.732	0.479444
17.75	0.478705
17.768	0.477978
17.786	0.477260
17.804	0.476536
17.822	0.475805
17.84	0.475060
17.858	0.474296
17.876	0.473496
17.894	0.472679
17.912	0.471854
17.93	0.471000
17.948	0.470116
17.966	0.469212
17.984	0.468289
18.002	0.467354
18.02	0.466409
18.038	0.465457
18.056	0.464512
18.074	0.463582
18.092	0.462637
18.11	0.461678
18.128	0.460732
18.146	0.459794
18.164	0.458847
18.182	0.457897
18.2	0.456955
18.218	0.456001
18.236	0.455023
18.254	0.454032
18.272	0.453030
18.29	0.452016
18.308	0.450990
18.326	0.449951
18.344	0.448901
18.362	0.447854
18.38	0.446812
18.398	0.445779
18.416	0.444757
18.434	0.443754
18.452	0.442762
18.47	0.441776
18.488	0.440803
18.506	0.439847
18.524	0.438906
18.542	0.437986
18.56	0.437055
18.578	0.436108
18.596	0.435158
18.614	0.434204
18.632	0.433241
18.65	0.432267
18.668	0.431258
18.686	0.430219
18.704	0.429158
18.722	0.428074
18.74	0.426968
18.758	0.425838
18.776	0.424678
18.794	0.423488
18.812	0.422265
18.83	0.421021
18.848	0.419783
18.866	0.418535
18.884	0.417257
18.902	0.415963
18.92	0.414667
18.938	0.413373
18.956	0.412098
18.974	0.410839
18.992	0.409604
19.01	0.408386
19.028	0.407178
19.046	0.405989
19.064	0.404828
19.082	0.403693
19.1	0.402584
19.118	0.401499
19.136	0.400447
19.154	0.399411
19.172	0.398363
19.19	0.397312
19.208	0.396257
19.226	0.395198
19.244	0.394129
19.262	0.393050
19.28	0.391963
19.298	0.390867
19.316	0.389746
19.334	0.388605
19.352	0.387461
19.37	0.386315
19.388	0.385170
19.406	0.384026
19.424	0.382900
19.442	0.381795
19.46	0.380707
19.478	0.379637
19.496	0.378589
19.514	0.377568
19.532	0.376564
19.55	0.375572
19.568	0.374588
19.586	0.373606
19.604	0.372622
19.622	0.371623
19.64	0.370608
19.658	0.369553
19.676	0.368462
19.694	0.367345
19.712	0.366204
19.73	0.365009
19.748	0.363754
19.766	0.362450
19.784	0.361094
19.802	0.359700
19.82	0.358276
19.838	0.356821
19.856	0.355338
19.874	0.353829
19.892	0.352310
19.91	0.350779
19.928	0.349252
19.946	0.347732
19.964	0.346209
19.982	0.344682
20	0.343155
20.018	0.341633
20.036	0.340114
20.054	0.338599
20.072	0.337086
20.09	0.335565
20.108	0.334038
20.126	0.332499
20.144	0.330949
20.162	0.329384
20.18	0.327801
20.198	0.326204
20.216	0.324596
20.234	0.322977
20.252	0.321358
20.27	0.319740
20.288	0.318115
20.306	0.316479
20.324	0.314845
20.342	0.313222
20.36	0.311607
20.378	0.309997
20.396	0.308393
20.414	0.306811
20.432	0.305250
20.45	0.303712
20.468	0.302203
20.486	0.300717
20.504	0.299244
20.522	0.297786
20.54	0.296340
20.558	0.294906
20.576	0.293479
20.594	0.292056
20.612	0.290642
20.63	0.289249
20.648	0.287875
20.666	0.286489
20.684	0.285085
20.702	0.283678
20.72	0.282279
20.738	0.280882
20.756	0.279475
20.774	0.278058
20.792	0.276650
20.81	0.275260
20.828	0.273877
20.846	0.272486
20.864	0.271093
20.882	0.269706
20.9	0.268323
20.918	0.266954
20.936	0.265609
20.954	0.264281
20.972	0.262968
20.99	0.261669
21.008	0.260381
21.026	0.259102
21.044	0.257833
21.062	0.256579
21.08	0.255342
21.098	0.254112
21.116	0.252888
21.134	0.251668
21.152	0.250449
21.17	0.249232
21.188	0.248017
21.206	0.246807
21.224	0.245597
21.242	0.244373
21.26	0.243138
21.278	0.241897
21.296	0.240652
21.314	0.239402
21.332	0.238147
21.35	0.236887
21.368	0.235619
21.386	0.234338
21.404	0.233050
21.422	0.231763
21.44	0.230475
21.458	0.229184
21.476	0.227886
21.494	0.226582
21.512	0.225278
21.53	0.223972
21.548	0.222666
21.566	0.221365
21.584	0.220067
21.602	0.218764
21.62	0.217454
21.638	0.216139
21.656	0.214820
21.674	0.213497
21.692	0.212166
21.71	0.210827
21.728	0.209479
21.746	0.208119
21.764	0.206748
21.782	0.205364
21.8	0.203960
21.818	0.202541
21.836	0.201120
21.854	0.199701
21.872	0.198282
21.89	0.196861
21.908	0.195438
21.926	0.194016
21.944	0.192594
21.962	0.191173
21.98	0.189771
21.998	0.188392
22.016	0.187032
22.034	0.185690
22.052	0.184363
22.07	0.183060
22.088	0.181788
22.106	0.180544
22.124	0.179331
22.142	0.178151
22.16	0.177001
22.178	0.175878
22.196	0.174784
22.214	0.173715
22.232	0.172669
22.25	0.171648
22.268	0.170649
22.286	0.169671
22.304	0.168714
22.322	0.167769
22.34	0.166830
22.358	0.165903
22.376	0.164991
22.394	0.164099
22.412	0.163216
22.43	0.162320
22.448	0.161414
22.466	0.160511
22.484	0.159621
22.502	0.158741
22.52	0.157861
22.538	0.156977
22.556	0.156092
22.574	0.155202
22.592	0.154308
22.61	0.153409
22.628	0.152502
22.646	0.151588
22.664	0.150665
22.682	0.149736
22.7	0.148799
22.718	0.147855
22.736	0.146904
22.754	0.145946
22.772	0.144980
22.79	0.144008
22.808	0.143030
22.826	0.142042
22.844	0.141043
22.862	0.140032
22.88	0.139017
22.898	0.138000
22.916	0.136981
22.934	0.135953
22.952	0.134912
22.97	0.133862
22.988	0.132805
23.006	0.131741
23.024	0.130670
23.042	0.129596
23.06	0.128520
23.078	0.127440
23.096	0.126353
23.114	0.125259
23.132	0.124159
23.15	0.123052
23.168	0.121936
23.186	0.120815
23.204	0.119696
23.222	0.118580
23.24	0.117466
23.258	0.116356
23.276	0.115249
23.294	0.114147
23.312	0.113058
23.33	0.111983
23.348	0.110921
23.366	0.109870
23.384	0.108830
23.402	0.107801
23.42	0.106791
23.438	0.105799
23.456	0.104825
23.474	0.103864
23.492	0.102916
23.51	0.101982
23.528	0.101065
23.546	0.100169
23.564	0.099290
23.582	0.098417
23.6	0.097541
23.618	0.096669
23.636	0.095804
23.654	0.094953
23.672	0.094116
23.69	0.093275
23.708	0.092419
23.726	0.091552
23.744	0.090678
23.762	0.089800
23.78	0.088919
23.798	0.088029
23.816	0.087124
23.834	0.086205
23.852	0.085273
23.87	0.084325
23.888	0.083359
23.906	0.082379
23.924	0.081389
23.942	0.080391
23.96	0.079382
23.978	0.078362
23.996	0.077325
24.014	0.076274
24.032	0.075218
24.05	0.074162
24.068	0.073104
24.086	0.072043
24.104	0.070979
24.122	0.069910
24.14	0.068839
24.158	0.067770
24.176	0.066700
24.194	0.065632
24.212	0.064578
24.23	0.063540
24.248	0.062516
24.266	0.061504
24.284	0.060503
24.302	0.059511
24.32	0.058537
24.338	0.057588
24.356	0.056660
24.374	0.055755
24.392	0.054870
24.41	0.054003
24.428	0.053157
24.446	0.052338
24.464	0.051548
24.482	0.050785
24.5	0.050050
24.518	0.049345
24.536	0.048671
24.554	0.048024
24.572	0.047401
24.59	0.046800
24.608	0.046223
24.626	0.045672
24.644	0.045149
24.662	0.044653
24.68	0.044180
24.698	0.043728
24.716	0.043301
24.734	0.042894
24.752	0.042496
24.77	0.042103
24.788	0.041721
24.806	0.041353
24.824	0.041007
24.842	0.040683
24.86	0.040371
24.878	0.040060
24.896	0.039751
24.914	0.039446
24.932	0.039146
24.95	0.038852
24.968	0.038564
24.986	0.038278
25.004	0.037985
25.022	0.037689
25.04	0.037388
25.058	0.037082
25.076	0.036771
25.094	0.036454
25.112	0.036131
25.13	0.035800
25.148	0.035463
25.166	0.035118
25.184	0.034764
25.202	0.034401
25.22	0.034032
25.238	0.033650
25.256	0.033252
25.274	0.032836
25.292	0.032405
25.31	0.031964
25.328	0.031517
25.346	0.031061
25.364	0.030596
25.382	0.030126
25.4	0.029649
25.418	0.029167
25.436	0.028676
25.454	0.028175
25.472	0.027662
25.49	0.027143
25.508	0.026623
25.526	0.026102
25.544	0.025578
25.562	0.025057
25.58	0.024548
25.598	0.024048
25.616	0.023556
25.634	0.023073
25.652	0.022600
25.67	0.022136
25.688	0.021682
25.706	0.021241
25.724	0.020814
25.742	0.020399
25.76	0.019999
25.778	0.019617
25.796	0.019253
25.814	0.018905
25.832	0.018571
25.85	0.018247
25.868	0.017936
25.886	0.017637
25.904	0.017351
25.922	0.017078
25.94	0.016817
25.958	0.016568
25.976	0.016329
25.994	0.016103
26.012	0.015888
26.03	0.015679
26.048	0.015471
26.066	0.015266
26.084	0.015065
26.102	0.014866
26.12	0.014668
26.138	0.014474
26.156	0.014281
26.174	0.014086
26.192	0.013888
26.21	0.013688
26.228	0.013488
26.246	0.013287
26.264	0.013089
26.282	0.012892
26.3	0.012694
26.318	0.012491
26.336	0.012285
26.354	0.012076
26.372	0.011864
26.39	0.011648
26.408	0.011430
26.426	0.011208
26.444	0.010985
26.462	0.010760
26.48	0.010533
26.498	0.010304
26.516	0.010079
26.534	0.009858
26.552	0.009641
26.57	0.009428
26.588	0.009219
26.606	0.009016
26.624	0.008818
26.642	0.008625
26.66	0.008436
26.678	0.008253
26.696	0.008073
26.714	0.007899
26.732	0.007731
26.75	0.007570
26.768	0.007415
26.786	0.007266
26.804	0.007124
26.822	0.006987
26.84	0.006854
26.858	0.006729
26.876	0.006614
26.894	0.006513
26.912	0.006425
26.93	0.006346
26.948	0.006271
26.966	0.006196
26.984	0.006120
27.002	0.006052
27.02	0.005998
27.028	0.005984