File: Bakgrunnsmateriale/MATLAB/FTIR/ftir_data/LPE454/Mapping_121/LPE454_e123_cm-1.asc
PE IR       SPECTRUM    SPECTRUM    ASCII       PEDS        1.60
  -1
LP061C~1.ASC
17/05/19
16:12:42.00
17/05/19
16:12:42.00
tln
$LPE454_e0123$<ebV0>[-23.3,12.1,10.0,0.0,27,1,0]
370
64

2002,4.07
MIRTGS : RIGHTBACK : INTERNAL 2
MIR : ON : INTERNAL 2
OPTKBR

0.200000
8
8.000000
FILLER
SINGLE
SPECTRUM
UNLOCKED 256

DOUBLE

COMBINED
1
0
0

1.000000
BACKG

1
0
TRUE
51149
0
LEFT NOT FITTED RIGHT NOT FITTED 0
NONE
NONE
15600
12
4.427000
51148
TRUE
1 0 8 72 0 0 0 0

15798

#HDR
-1
-1
#GR
CM-1
EGY
2.38419e-05
0.0
5000
-1.000000
4631
8
2.425861
0.007486
#DATA
5000	0.769782
4996	0.773096
4992	0.774478
4988	0.774955
4984	0.775933
4980	0.778222
4976	0.781536
4972	0.783562
4968	0.783944
4964	0.786018
4960	0.789785
4956	0.790667
4952	0.788927
4948	0.789785
4944	0.793623
4940	0.796866
4936	0.798463
4932	0.798702
4928	0.799059
4924	0.801062
4920	0.803399
4916	0.805068
4912	0.806641
4908	0.807976
4904	0.809550
4900	0.812196
4896	0.815010
4892	0.815820
4888	0.815296
4884	0.816750
4880	0.820350
4876	0.824666
4872	0.829339
4868	0.832486
4864	0.832843
4860	0.832557
4856	0.833892
4852	0.836038
4848	0.838160
4844	0.841879
4840	0.846290
4836	0.849676
4832	0.853228
4828	0.855183
4824	0.854778
4820	0.856280
4816	0.860023
4812	0.863194
4808	0.865578
4804	0.868201
4800	0.870919
4796	0.873899
4792	0.877118
4788	0.879025
4784	0.880432
4780	0.882029
4776	0.882720
4772	0.884056
4768	0.886511
4764	0.888800
4760	0.890302
4756	0.890779
4752	0.892043
4748	0.893950
4744	0.895142
4740	0.897145
4736	0.900387
4732	0.902462
4728	0.902605
4724	0.902509
4720	0.901889
4716	0.901126
4712	0.901246
4708	0.902581
4704	0.904011
4700	0.903773
4696	0.903248
4692	0.904846
4688	0.906729
4684	0.904512
4680	0.898957
4676	0.897002
4672	0.900483
4668	0.903081
4664	0.902843
4660	0.902605
4656	0.902533
4652	0.902915
4648	0.903916
4644	0.905871
4640	0.908160
4636	0.909352
4632	0.911474
4628	0.910878
4624	0.908160
4620	0.912547
4616	0.919389
4612	0.922179
4608	0.923562
4604	0.924897
4600	0.929379
4596	0.935983
4592	0.938749
4588	0.937843
4584	0.931715
4580	0.924611
4576	0.928425
4572	0.935912
4568	0.935864
4564	0.937628
4560	0.944089
4556	0.947713
4552	0.950574
4548	0.950169
4544	0.944852
4540	0.951480
4536	0.966668
4532	0.975394
4528	0.972604
4524	0.956630
4520	0.983810
4516	1.128745
4512	1.274371
4508	1.252627
4504	1.160788
4500	1.092720
4496	1.025748
4492	0.996875
4488	1.002025
4484	1.002478
4480	0.996232
4476	0.994658
4472	0.998520
4468	1.001739
4464	1.004147
4460	1.004695
4456	1.001358
4452	0.997877
4448	0.996375
4444	0.995755
4440	0.996565
4436	0.997304
4432	0.998449
4428	1.002001
4424	1.003813
4420	1.002907
4416	1.003241
4412	1.006031
4408	1.008367
4404	1.008439
4400	1.009559
4396	1.012682
4392	1.014542
4388	1.015925
4384	1.017236
4380	1.019310
4376	1.025247
4372	1.030659
4368	1.032161
4364	1.033067
4360	1.035594
4356	1.039958
4352	1.044631
4348	1.048851
4344	1.054096
4340	1.060914
4336	1.067495
4332	1.071619
4328	1.074457
4324	1.079964
4320	1.086735
4316	1.092243
4312	1.097726
4308	1.102423
4304	1.105070
4300	1.108717
4296	1.114368
4292	1.119089
4288	1.123142
4284	1.127576
4280	1.132225
4276	1.138019
4272	1.144289
4268	1.149177
4264	1.152801
4260	1.155781
4256	1.159214
4252	1.164031
4248	1.168751
4244	1.172184
4240	1.175045
4236	1.177477
4232	1.179742
4228	1.181507
4224	1.184272
4220	1.188206
4216	1.189303
4212	1.188588
4208	1.190257
4204	1.193690
4200	1.196098
4196	1.197957
4192	1.200556
4188	1.201224
4184	1.200532
4180	1.203894
4176	1.209115
4172	1.210761
4168	1.210880
4164	1.213026
4160	1.216483
4156	1.218509
4152	1.219391
4148	1.221585
4144	1.225090
4140	1.227569
4136	1.229500
4132	1.232528
4128	1.236224
4124	1.239562
4120	1.242947
4116	1.247215
4112	1.251029
4108	1.253628
4104	1.257371
4100	1.262736
4096	1.267862
4092	1.271843
4088	1.276326
4084	1.282358
4080	1.288056
4076	1.292777
4072	1.297688
4068	1.303720
4064	1.309609
4060	1.314020
4056	1.318621
4052	1.323342
4048	1.327228
4044	1.331996
4040	1.338124
4036	1.343011
4032	1.347303
4028	1.353478
4024	1.360058
4020	1.363897
4016	1.366090
4012	1.370453
4008	1.376533
4004	1.381254
4000	1.384282
3996	1.385807
3992	1.387381
3988	1.390504
3984	1.393413
3980	1.395082
3976	1.396250
3972	1.397800
3968	1.400923
3964	1.403522
3960	1.404237
3956	1.405811
3952	1.408314
3948	1.410365
3944	1.412320
3940	1.414394
3936	1.416158
3932	1.417732
3928	1.418852
3924	1.419472
3920	1.420068
3916	1.421952
3912	1.425170
3908	1.424551
3904	1.421189
3900	1.423239
3896	1.428151
3892	1.429009
3888	1.428389
3884	1.430153
3880	1.434516
3876	1.437306
3872	1.436734
3868	1.437878
3864	1.442337
3860	1.443076
3856	1.437616
3852	1.441621
3848	1.455903
3844	1.461124
3840	1.458835
3836	1.462388
3832	1.472997
3828	1.480960
3824	1.480960
3820	1.480460
3816	1.487398
3812	1.496052
3808	1.497912
3804	1.497793
3800	1.505136
3796	1.518011
3792	1.526880
3788	1.530599
3784	1.533341
3780	1.536059
3776	1.539206
3772	1.541709
3768	1.545119
3764	1.549649
3760	1.549410
3756	1.542735
3752	1.535439
3748	1.533794
3744	1.540160
3740	1.548266
3736	1.551651
3732	1.556324
3728	1.562547
3724	1.565456
3720	1.567625
3716	1.566553
3712	1.563191
3708	1.564860
3704	1.568388
3700	1.570034
3696	1.568889
3692	1.563143
3688	1.561021
3684	1.564884
3680	1.563405
3676	1.557850
3672	1.558780
3668	1.566481
3664	1.572632
3660	1.571774
3656	1.567316
3652	1.563119
3648	1.563549
3644	1.569080
3640	1.571869
3636	1.569437
3632	1.565623
3628	1.566529
3624	1.570653
3620	1.570677
3616	1.570057
3612	1.572394
3608	1.576685
3604	1.580977
3600	1.583409
3596	1.585006
3592	1.585388
3588	1.585841
3584	1.589393
3580	1.593565
3576	1.596093
3572	1.596832
3568	1.597070
3564	1.600098
3560	1.604294
3556	1.607012
3552	1.608371
3548	1.608800
3544	1.609420
3540	1.610255
3536	1.611161
3532	1.612949
3528	1.614832
3524	1.614952
3520	1.615095
3516	1.616406
3512	1.615619
3508	1.612806
3504	1.611351
3500	1.611375
3496	1.611566
3492	1.610612
3488	1.607489
3484	1.604628
3480	1.604056
3476	1.602816
3472	1.599812
3468	1.597261
3464	1.595401
3460	1.592063
3456	1.587867
3452	1.585674
3448	1.584577
3444	1.582527
3440	1.579165
3436	1.575636
3432	1.573896
3428	1.573514
3424	1.573371
3420	1.574063
3416	1.575088
3412	1.576828
3408	1.580238
3404	1.583909
3400	1.587128
3396	1.589918
3392	1.592588
3388	1.595282
3384	1.597332
3380	1.599431
3376	1.602435
3372	1.606941
3368	1.612114
3364	1.616716
3360	1.621365
3356	1.627492
3352	1.634716
3348	1.641035
3344	1.645970
3340	1.651811
3336	1.658344
3332	1.664257
3328	1.669383
3324	1.674246
3320	1.679563
3316	1.684617
3312	1.690530
3308	1.698160
3304	1.705074
3300	1.710343
3296	1.715779
3292	1.721858
3288	1.727104
3284	1.731443
3280	1.735544
3276	1.738810
3272	1.742243
3268	1.746678
3264	1.750850
3260	1.754164
3256	1.756525
3252	1.758408
3248	1.760721
3244	1.763725
3240	1.765942
3236	1.767492
3232	1.769828
3228	1.772236
3224	1.773405
3220	1.773190
3216	1.773047
3212	1.774239
3208	1.776242
3204	1.777672
3200	1.778435
3196	1.778554
3192	1.778459
3188	1.779270
3184	1.780462
3180	1.781463
3176	1.782655
3172	1.784157
3168	1.786327
3164	1.787590
3160	1.787686
3156	1.789331
3152	1.792573
3148	1.796245
3144	1.800656
3140	1.805567
3136	1.808738
3132	1.809000
3128	1.811242
3124	1.818108
3120	1.826214
3116	1.833462
3112	1.840305
3108	1.846480
3104	1.851010
3100	1.856899
3096	1.864671
3092	1.872372
3088	1.881027
3084	1.890039
3080	1.897692
3076	1.903700
3072	1.907491
3068	1.910161
3064	1.914095
3060	1.920676
3056	1.928973
3052	1.937413
3048	1.944375
3044	1.949667
3040	1.954722
3036	1.958441
3032	1.958727
3028	1.955223
3024	1.947665
3020	1.941299
3016	1.945948
3012	1.962947
3008	1.983308
3004	1.998710
3000	2.007508
2996	2.011871
2992	2.013111
2988	2.012181
2984	2.008724
2980	2.000474
2976	1.987099
2972	1.968836
2968	1.946592
2964	1.926350
2960	1.914381
2956	1.910233
2952	1.906824
2948	1.895332
2944	1.871156
2940	1.837110
2936	1.801419
2932	1.771807
2928	1.754117
2924	1.758384
2920	1.791262
2916	1.840114
2912	1.883316
2908	1.912474
2904	1.931762
2900	1.946234
2896	1.958680
2892	1.969981
2888	1.979351
2884	1.986289
2880	1.989102
2876	1.984763
2872	1.968145
2868	1.935696
2864	1.900148
2860	1.887941
2856	1.909208
2852	1.948571
2848	1.989603
2844	2.025532
2840	2.052927
2836	2.072167
2832	2.085733
2828	2.096724
2824	2.108764
2820	2.121138
2816	2.130651
2812	2.138638
2808	2.146792
2804	2.153921
2800	2.160382
2796	2.167677
2792	2.174901
2788	2.181172
2784	2.188515
2780	2.197790
2776	2.206325
2772	2.212405
2768	2.217912
2764	2.222585
2760	2.225637
2756	2.228665
2752	2.231192
2748	2.232956
2744	2.234888
2740	2.236437
2736	2.237606
2732	2.239060
2728	2.239489
2724	2.238702
2720	2.237820
2716	2.236270
2712	2.234864
2708	2.234053
2704	2.231788
2700	2.228021
2696	2.224922
2692	2.222657
2688	2.220559
2684	2.218890
2680	2.218055
2676	2.216410
2672	2.212500
2668	2.208566
2664	2.206087
2660	2.203679
2656	2.201318
2652	2.200126
2648	2.199101
2644	2.198362
2640	2.198266
2636	2.198410
2632	2.198815
2628	2.198600
2624	2.197837
2620	2.198839
2616	2.201819
2612	2.203559
2608	2.203655
2604	2.203226
2600	2.202320
2596	2.202892
2592	2.207064
2588	2.213048
2584	2.217698
2580	2.222180
2576	2.229332
2572	2.237129
2568	2.242708
2564	2.247285
2560	2.251505
2556	2.255558
2552	2.260613
2548	2.266407
2544	2.272415
2540	2.278137
2536	2.282071
2532	2.284502
2528	2.286911
2524	2.289199
2520	2.293062
2516	2.298688
2512	2.302289
2508	2.302527
2504	2.302074
2500	2.301573
2496	2.300906
2492	2.302217
2488	2.304100
2484	2.303791
2480	2.302455
2476	2.301049
2472	2.298951
2468	2.295756
2464	2.292132
2460	2.288913
2456	2.285623
2452	2.281236
2448	2.276468
2444	2.272439
2440	2.268671
2436	2.264237
2432	2.260112
2428	2.257537
2424	2.254819
2420	2.251195
2416	2.247333
2412	2.242732
2408	2.238845
2404	2.236866
2400	2.235293
2396	2.232766
2392	2.229118
2388	2.226376
2384	2.224707
2380	2.221751
2376	2.218341
2372	2.215385
2368	2.212262
2364	2.210640
2360	2.214145
2356	2.222394
2352	2.231073
2348	2.236652
2344	2.239274
2340	2.241778
2336	2.245569
2332	2.251076
2328	2.259063
2324	2.267932
2320	2.276086
2316	2.284908
2312	2.294468
2308	2.301549
2304	2.306461
2300	2.311253
2296	2.316617
2292	2.321910
2288	2.326297
2284	2.330923
2280	2.336049
2276	2.340507
2272	2.343368
2268	2.344775
2264	2.345609
2260	2.347040
2256	2.349638
2252	2.352046
2248	2.353572
2244	2.354288
2240	2.353405
2236	2.352046
2232	2.351546
2228	2.350449
2224	2.347874
2220	2.345275
2216	2.342772
2212	2.340030
2208	2.337503
2204	2.334284
2200	2.330231
2196	2.326869
2192	2.324271
2188	2.321696
2184	2.318596
2180	2.315425
2176	2.312970
2172	2.310442
2168	2.307868
2164	2.305960
2160	2.304959
2156	2.303934
2152	2.302742
2148	2.302718
2144	2.304720
2140	2.305984
2136	2.304983
2132	2.304530
2128	2.305340
2124	2.305364
2120	2.304410
2116	2.304315
2112	2.305746
2108	2.307820
2104	2.309203
2100	2.308320
2096	2.305746
2092	2.304458
2088	2.306580
2084	2.310085
2080	2.313661
2076	2.319526
2072	2.326679
2068	2.333688
2064	2.341747
2060	2.349972
2056	2.357578
2052	2.364706
2048	2.372431
2044	2.381372
2040	2.389907
2036	2.397537
2032	2.403736
2028	2.407979
2024	2.410840
2020	2.413487
2016	2.417564
2012	2.421832
2008	2.423906
2004	2.424573
2000	2.424931
1996	2.425646
1992	2.425575
1988	2.423477
1984	2.421450
1980	2.420020
1976	2.416372
1972	2.410197
1968	2.405405
1964	2.403855
1960	2.402400
1956	2.398586
1952	2.393841
1948	2.389121
1944	2.383923
1940	2.380156
1936	2.377605
1932	2.374029
1928	2.370119
1924	2.366662
1920	2.362108
1916	2.356958
1912	2.353429
1908	2.350735
1904	2.347517
1900	2.343940
1896	2.340936
1892	2.338647
1888	2.337837
1884	2.339339
1880	2.341651
1876	2.342748
1872	2.342295
1868	2.343678
1864	2.347755
1860	2.352166
1856	2.355861
1852	2.357864
1848	2.356886
1844	2.357625
1840	2.363681
1836	2.368855
1832	2.369856
1828	2.371048
1824	2.376914
1820	2.385330
1816	2.390146
1812	2.391719
1808	2.393817
1804	2.395200
1800	2.393722
1796	2.390122
1792	2.389407
1788	2.392482
1784	2.392864
1780	2.389144
1776	2.381682
1772	2.375817
1768	2.376937
1764	2.377033
1760	2.372288
1756	2.363228
1752	2.349662
1748	2.338099
1744	2.327752
1740	2.309966
1736	2.289628
1732	2.284264
1728	2.290940
1724	2.288055
1720	2.273225
1716	2.264809
1712	2.265667
1708	2.257800
1704	2.236676
1700	2.217483
1696	2.216267
1692	2.223062
1688	2.213335
1684	2.199935
1680	2.200865
1676	2.199339
1672	2.191042
1668	2.185010
1664	2.179598
1660	2.166604
1656	2.140831
1652	2.122354
1648	2.123069
1644	2.126145
1640	2.118825
1636	2.106928
1632	2.100872
1628	2.092051
1624	2.072882
1620	2.043604
1616	2.005410
1612	1.966810
1608	1.942038
1604	1.943135
1600	1.960396
1596	1.976132
1592	1.983499
1588	1.982212
1584	1.974844
1580	1.962304
1576	1.951742
1572	1.948785
1568	1.942539
1564	1.920247
1560	1.894378
1556	1.896810
1552	1.918721
1548	1.926803
1544	1.923847
1540	1.944398
1536	1.998448
1532	2.050089
1528	2.073645
1524	2.076292
1520	2.074074
1516	2.071285
1512	2.058529
1508	2.029085
1504	1.962614
1500	1.823449
1496	1.676487
1492	1.657843
1488	1.762461
1484	1.875019
1480	1.933073
1476	1.946306
1472	1.944613
1468	1.935744
1464	1.907968
1460	1.850867
1456	1.777052
1452	1.735615
1448	1.758408
1444	1.806807
1440	1.831817
1436	1.838111
1432	1.841473
1428	1.841330
1424	1.836872
1420	1.828169
1416	1.815843
1412	1.789021
1408	1.740980
1404	1.702404
1400	1.705908
1396	1.737618
1392	1.761150
1388	1.761937
1384	1.759743
1380	1.769948
1376	1.781296
1372	1.787281
1368	1.789808
1364	1.789712
1360	1.789689
1356	1.789426
1352	1.788401
1348	1.787781
1344	1.786494
1340	1.787614
1336	1.796770
1332	1.809096
1328	1.817178
1324	1.821970
1320	1.826262
1316	1.828217
1312	1.827645
1308	1.827597
1304	1.827883
1300	1.826906
1296	1.825523
1292	1.825237
1288	1.825571
1284	1.824688
1280	1.820015
1276	1.807308
1272	1.779937
1268	1.736474
1264	1.697731
1260	1.695060
1256	1.729607
1252	1.770591
1248	1.796007
1244	1.806116
1240	1.808810
1236	1.808190
1232	1.804971
1228	1.799631
1224	1.790809
1220	1.775956
1216	1.756668
1212	1.738309
1208	1.726937
1204	1.723861
1200	1.724314
1196	1.723480
1192	1.718115
1188	1.709342
1184	1.700115
1180	1.691079
1176	1.680469
1172	1.666283
1168	1.649045
1164	1.629614
1160	1.611351
1156	1.600122
1152	1.594161
1148	1.588296
1144	1.580548
1140	1.570296
1136	1.557350
1132	1.541519
1128	1.523303
1124	1.503252
1120	1.481962
1116	1.461648
1112	1.443600
1108	1.428246
1104	1.417112
1100	1.410603
1096	1.408386
1092	1.409578
1088	1.412582
1084	1.413965
1080	1.410961
1076	1.410198
1072	1.415991
1068	1.422071
1064	1.422142
1060	1.405382
1056	1.355457
1052	1.298141
1048	1.294803
1044	1.338028
1040	1.367497
1036	1.370501
1032	1.363563
1028	1.353812
1024	1.346302
1020	1.344847
1016	1.350259
1012	1.360511
1008	1.371264
1004	1.378679
1000	1.381039
996	 1.380538
992	 1.378679
988	 1.373887
984	 1.367330
980	 1.360225
976	 1.351141
972	 1.340007
968	 1.327490
964	 1.313304
960	 1.298618
956	 1.285195
952	 1.272296
948	 1.260662
944	 1.252007
940	 1.244688
936	 1.236772
932	 1.227474
928	 1.217484
924	 1.208806
920	 1.200270
916	 1.187777
912	 1.171565
908	 1.157307
904	 1.146984
900	 1.139783
896	 1.134777
892	 1.126050
888	 1.106119
884	 1.073408
880	 1.037120
876	 1.016569
872	 1.024413
868	 1.050424
864	 1.072692
860	 1.080679
856	 1.079106
852	 1.074934
848	 1.070451
844	 1.064538
840	 1.049900
836	 1.014542
832	 0.949549
828	 0.871920
824	 0.833988
820	 0.860285
816	 0.906991
812	 0.931453
808	 0.935626
804	 0.933623
800	 0.933265
796	 0.938010
792	 0.947356
788	 0.958037
784	 0.966167
780	 0.969076
776	 0.967478
772	 0.964069
768	 0.960564
764	 0.958418
760	 0.956106
756	 0.950288
752	 0.942492
748	 0.936293
744	 0.931596
740	 0.925421
736	 0.916028
732	 0.903916
728	 0.892019
724	 0.881719
720	 0.870704
716	 0.858306
712	 0.846433
708	 0.834393
704	 0.820612
700	 0.803780
696	 0.781393
692	 0.752329
688	 0.727438
684	 0.721263
680	 0.726222
676	 0.726342
672	 0.718736
668	 0.707626
664	 0.697350
660	 0.688076
656	 0.678443
652	 0.668048
648	 0.656390
644	 0.645422
640	 0.636148
636	 0.627207
632	 0.618124
628	 0.608253
624	 0.596785
620	 0.583934
616	 0.568628
612	 0.549459
608	 0.530409
604	 0.520157
600	 0.518226
596	 0.515723
592	 0.511503
588	 0.506734
584	 0.501132
580	 0.496888
576	 0.493717
572	 0.489687
568	 0.484514
564	 0.479555
560	 0.474262
556	 0.467991
552	 0.461101
548	 0.453376
544	 0.445795
540	 0.439190
536	 0.432848
532	 0.425171
528	 0.414848
524	 0.402998
520	 0.392699
516	 0.384187
512	 0.375890
508	 0.366735
504	 0.355911
500	 0.343012
496	 0.328445
492	 0.314974
488	 0.302743
484	 0.288486
480	 0.273394
476	 0.260114
472	 0.248265
468	 0.236868
464	 0.223970
460	 0.208783
456	 0.192928
452	 0.179028
448	 0.168514
444	 0.159072
440	 0.149321
436	 0.139093
432	 0.126791
428	 0.112009
424	 0.096964
420	 0.084877
416	 0.075817
412	 0.067138
408	 0.057291
404	 0.045394
400	 0.033760
396	 0.027036
392	 0.023388
388	 0.019979
384	 0.017285
380	 0.014281
376	 0.011205
372	 0.008726
370	 0.007486