File: Bakgrunnsmateriale/MATLAB/FTIR/ftir_data/LPE454/Mapping_121/LPE454_t15_cm-1.asc
PE IR       SPECTRUM    SPECTRUM    ASCII       PEDS        1.60
  -1
LPE73B~1.ASC
17/05/19
15:34:31.00
17/05/19
15:34:31.00
tln
$LPE454_t0015$<tbV0>[5.2,-10.4,8.0,0.0,27,1,0]
370
64

2002,4.07
MIRTGS : RIGHTBACK : INTERNAL 2
MIR : ON : INTERNAL 2
OPTKBR

0.200000
8
8.000000
FILLER
RATIO
SPECTRUM
UNLOCKED 256

DOUBLE
64
COMBINED
1
0
0

1.000000
RATIO

1
0
TRUE
51149
0
LEFT NOT FITTED RIGHT NOT FITTED 0
NONE
NONE
15600
12
4.427000
51148
TRUE
1 0 8 72 0 0 0 0

15798

#HDR
-1
-1
#GR
CM-1
%T
2.38419e-05
0.0
5000
-1.000000
4631
8
77.049
-13.3221
#DATA
5000	0.053191
4996	0.037360
4992	-0.013756
4988	0.036072
4984	0.285339
4980	0.651097
4976	0.685024
4972	0.109243
4968	-0.400042
4964	-0.215244
4960	0.189566
4956	0.404405
4952	0.487446
4948	0.501680
4944	0.384235
4940	0.011563
4936	-0.276780
4932	-0.221204
4928	0.119495
4924	0.497865
4920	0.442147
4916	0.252866
4912	0.426554
4908	0.473761
4904	0.180196
4900	0.025844
4896	0.129652
4892	0.104665
4888	-0.171899
4884	-0.499391
4880	-0.477552
4876	0.166177
4872	0.843858
4868	0.900173
4864	0.466918
4860	0.157785
4856	0.272297
4852	0.520420
4848	0.530409
4844	0.247287
4840	0.082850
4836	0.137615
4832	0.180101
4828	0.083470
4824	0.022792
4820	0.218129
4816	0.386905
4812	0.531911
4808	0.555443
4804	0.089001
4800	-0.217127
4796	-0.217437
4792	-0.640773
4788	-0.724267
4784	0.094008
4780	0.558876
4776	0.184059
4772	-0.288295
4768	-0.177597
4764	0.542092
4760	1.271295
4756	1.625061
4752	1.680159
4748	1.464295
4744	1.298880
4740	1.655769
4736	1.523065
4732	0.673818
4728	0.413942
4724	0.628685
4720	0.596809
4716	0.365829
4712	0.298428
4708	0.150275
4704	-0.435042
4700	-1.003026
4696	-0.812172
4692	-0.017404
4688	0.578117
4684	0.872516
4680	0.754213
4676	0.350308
4672	0.266528
4668	0.465703
4664	0.547719
4660	0.412297
4656	0.091004
4652	-0.065875
4648	0.128173
4644	0.374984
4640	0.317478
4636	0.215864
4632	0.368762
4628	0.321793
4624	0.189876
4620	0.227141
4616	0.194835
4612	0.257325
4608	0.537347
4604	0.662136
4600	0.546169
4596	0.379824
4592	0.410175
4588	0.598478
4584	0.726628
4580	0.860190
4576	0.875163
4572	0.646781
4568	0.384092
4564	0.289011
4560	0.372457
4556	0.423717
4552	0.323152
4548	0.332570
4544	0.425457
4540	0.125694
4536	-0.217485
4532	-0.162267
4528	-0.268507
4524	-0.583267
4520	-0.318622
4516	0.396537
4512	0.734138
4508	0.902771
4504	1.513195
4500	2.255439
4496	2.400994
4492	2.660202
4488	2.793502
4484	2.142930
4480	1.329374
4476	1.420760
4472	3.009915
4468	2.485513
4464	-0.272965
4460	-0.789284
4456	-0.075602
4452	-0.219273
4448	-0.533938
4444	-0.446152
4440	-0.073122
4436	0.222110
4432	0.229406
4428	0.072050
4424	0.081467
4420	0.295305
4416	0.424671
4412	0.366735
4408	0.265669
4404	0.210952
4400	0.233530
4396	0.469803
4392	0.682735
4388	0.681471
4384	0.671744
4380	0.619459
4376	0.506019
4372	0.377559
4368	0.290727
4364	0.297594
4360	0.286650
4356	0.263738
4352	0.370526
4348	0.610971
4344	0.738358
4340	0.646591
4336	0.617837
4332	0.668191
4328	0.482845
4324	0.254893
4320	0.333213
4316	0.372314
4312	0.107717
4308	-0.097894
4304	-0.148296
4300	-0.188159
4296	-0.146794
4292	0.000691
4288	0.181269
4284	0.195646
4280	0.031685
4276	-0.056457
4272	-0.094866
4268	-0.000810
4264	0.157642
4260	0.024175
4256	-0.207877
4252	-0.220990
4248	-0.097322
4244	0.087237
4240	0.166082
4236	0.203299
4232	0.328421
4228	0.298976
4224	0.157880
4220	-0.071501
4216	-0.398707
4212	-0.416326
4208	-0.138449
4204	-0.033354
4200	-0.082921
4196	0.023245
4192	0.187087
4188	-0.121402
4184	-0.505495
4180	-0.015592
4176	0.496053
4172	0.375628
4168	0.466656
4164	0.678873
4160	0.422000
4156	0.132918
4152	0.240874
4148	0.339746
4144	0.163602
4140	0.026249
4136	0.098085
4132	0.233674
4128	0.369310
4124	0.448393
4120	0.485968
4116	0.456023
4112	0.293946
4108	0.171780
4104	0.044012
4100	-0.016617
4096	0.132966
4092	0.205492
4088	0.141048
4084	-0.002574
4080	-0.143766
4076	-0.054168
4072	0.118136
4068	0.147843
4064	0.008964
4060	-0.200200
4056	-0.231909
4052	-0.126695
4048	-0.110197
4044	-0.120091
4040	-0.044012
4036	-0.008177
4032	-0.106787
4028	-0.196695
4024	-0.126409
4020	-0.030732
4016	-0.022387
4012	0.051736
4008	0.186657
4004	0.203847
4000	0.169825
3996	0.176382
3992	0.144004
3988	0.183963
3984	0.237441
3980	0.152778
3976	0.124049
3972	0.206732
3968	0.263929
3964	0.285959
3960	0.241661
3956	0.134229
3952	0.083780
3948	0.048589
3944	-0.066924
3940	-0.166058
3936	-0.143671
3932	0.012683
3928	0.174427
3924	0.144553
3920	-0.024390
3916	-0.030922
3912	0.093126
3908	0.079655
3904	0.051808
3900	0.107479
3896	0.123238
3892	0.059223
3888	-0.103402
3884	-0.221610
3880	-0.130391
3876	0.060272
3872	0.155687
3868	0.055146
3864	-0.133299
3860	-0.171685
3856	-0.097036
3852	-0.050854
3848	-0.014138
3844	0.026202
3840	0.137710
3836	0.214099
3832	0.158286
3828	0.127935
3824	0.170946
3820	0.172829
3816	0.068330
3812	0.034403
3808	0.098752
3804	0.077462
3800	0.051498
3796	0.154972
3792	0.204014
3788	0.091481
3784	0.014185
3780	0.055027
3776	0.130152
3772	0.166559
3768	0.136756
3764	0.061655
3760	-0.012016
3756	-0.044441
3752	-0.022292
3748	0.020885
3744	0.011205
3740	-0.010704
3736	0.052905
3732	0.115799
3728	0.093102
3724	0.099515
3720	0.184392
3716	0.228452
3712	0.137162
3708	0.018739
3704	0.004696
3700	0.032186
3696	0.076150
3692	0.128650
3688	0.143408
3684	0.177264
3680	0.223612
3676	0.204515
3672	0.149250
3668	0.108528
3664	0.057435
3660	-0.017237
3656	-0.053119
3652	0.042700
3648	0.141072
3644	0.037908
3640	-0.112748
3636	-0.059628
3632	0.101900
3628	0.170850
3624	0.187253
3620	0.167298
3616	0.070476
3612	-0.001716
3608	0.051140
3604	0.123906
3600	0.088024
3596	0.052070
3592	0.070047
3588	0.116872
3584	0.190854
3580	0.233960
3576	0.194358
3572	0.122046
3568	0.139069
3564	0.137233
3560	0.002312
3556	-0.061511
3552	0.073695
3548	0.201916
3544	0.150752
3540	0.056505
3536	0.046873
3532	0.100708
3528	0.113725
3524	0.009083
3520	-0.071477
3516	0.006175
3512	0.141048
3508	0.199484
3504	0.192356
3500	0.146055
3496	0.115871
3492	0.162482
3488	0.152611
3484	0.022220
3480	-0.018954
3476	0.091981
3472	0.152444
3468	0.101208
3464	0.075578
3460	0.093293
3456	0.078415
3452	0.068259
3448	0.061392
3444	0.021529
3440	0.011849
3436	0.037932
3432	0.018477
3428	-0.018143
3424	0.018620
3420	0.101757
3416	0.179147
3412	0.188064
3408	0.117778
3404	0.036597
3400	-0.054740
3396	-0.090217
3392	-0.011825
3388	0.092744
3384	0.107741
3380	0.045776
3376	0.045251
3372	0.118565
3368	0.134038
3364	0.069117
3360	0.027704
3356	0.045824
3352	0.082325
3348	0.117826
3344	0.085854
3340	-0.004959
3336	0.013971
3332	0.093269
3328	0.094866
3324	0.081062
3320	0.112009
3316	0.163769
3312	0.144791
3308	0.099229
3304	0.203347
3300	0.350666
3296	0.328660
3292	0.188302
3288	0.105857
3284	0.144600
3280	0.139093
3276	0.039219
3272	0.022864
3268	0.077152
3264	0.135922
3260	0.166988
3256	0.099492
3252	0.011610
3248	0.013375
3244	0.073075
3240	0.074124
3236	0.028800
3232	0.014185
3228	0.022244
3224	0.070858
3220	0.091814
3216	0.056743
3212	0.079417
3208	0.062441
3204	-0.057530
3200	-0.062894
3196	0.094914
3192	0.182747
3188	0.070142
3184	-0.067210
3180	-0.038814
3176	0.076913
3172	0.116729
3168	0.053524
3164	0.004458
3160	0.027298
3156	0.050902
3152	0.115585
3148	0.279712
3144	0.402116
3140	0.315713
3136	0.069212
3132	-0.047874
3128	0.063896
3124	0.159358
3120	0.157713
3116	0.099897
3112	0.019383
3108	0.040030
3104	0.098395
3100	0.082874
3096	0.045704
3092	0.036692
3088	0.027990
3084	-0.017023
3080	-0.035238
3076	0.017833
3072	0.097227
3068	0.133967
3064	0.061178
3060	-0.062060
3056	-0.124096
3052	-0.062918
3048	0.060892
3044	0.086927
3040	0.055718
3036	0.026965
3032	-0.063729
3028	-0.127863
3024	-0.021839
3020	0.158429
3016	0.174570
3012	0.045299
3008	-0.028634
3004	0.007510
3000	0.071835
2996	0.061225
2992	0.010681
2988	0.029516
2984	0.051069
2980	-0.002837
2976	-0.008940
2972	0.051903
2968	0.063443
2964	0.043964
2960	0.050711
2956	0.018787
2952	-0.013685
2948	0.026011
2944	0.016188
2940	0.008940
2936	0.067281
2932	0.038433
2928	-0.020146
2924	0.014543
2920	0.098657
2916	0.146102
2912	0.101709
2908	-0.018382
2904	-0.101161
2900	-0.076580
2896	-0.013542
2892	0.036215
2888	0.054979
2884	0.053358
2880	0.066995
2876	0.107073
2872	0.117301
2868	0.054860
2864	0.000381
2860	0.022721
2856	0.097298
2852	0.134086
2848	0.095748
2844	0.105953
2840	0.170087
2836	0.138044
2832	0.042152
2828	-0.004053
2824	0.033783
2820	0.103831
2816	0.103187
2812	0.031542
2808	-0.007772
2804	0.050568
2800	0.077080
2796	-0.002217
2792	-0.063443
2788	-0.053954
2784	-0.025510
2780	0.007367
2776	0.026655
2772	-0.009369
2768	-0.088858
2764	-0.143337
2760	-0.107407
2756	-0.075292
2752	-0.114488
2748	-0.102996
2744	-0.037360
2740	0.021529
2736	0.082468
2732	0.118565
2728	0.143337
2724	0.164198
2720	0.147914
2716	0.129485
2712	0.132560
2708	0.118613
2704	0.078177
2700	0.046730
2696	0.063705
2692	0.082921
2688	0.078868
2684	0.082373
2680	0.069856
2676	0.061345
2672	0.061202
2668	0.025820
2664	0.006580
2660	0.043630
2656	0.077891
2652	0.041961
2648	0.001287
2644	0.002264
2640	-0.044631
2636	-0.073432
2632	-0.019598
2628	0.017189
2624	0.037360
2620	0.056910
2616	0.030779
2612	-0.002837
2608	-0.009369
2604	-0.005149
2600	-0.009846
2596	0.002717
2592	0.063443
2588	0.107073
2584	0.058341
2580	0.011539
2576	0.049543
2572	0.089192
2568	0.104665
2564	0.163125
2560	0.207424
2556	0.108289
2552	-0.047039
2548	-0.088357
2544	-0.037288
2540	-0.000381
2536	0.031709
2532	0.034189
2528	-0.067257
2524	-0.105166
2520	0.028204
2516	0.182437
2512	0.304293
2508	0.311064
2504	0.116062
2500	-0.021767
2496	-0.005269
2492	-0.018191
2488	-0.039410
2484	-0.011396
2480	0.039792
2476	0.087594
2472	0.128960
2468	0.109624
2464	0.009679
2460	-0.035524
2456	0.014853
2452	0.051927
2448	-0.049233
2444	-0.143527
2440	0.006318
2436	0.138735
2432	0.001573
2428	-0.159335
2424	-0.141549
2420	-0.008368
2416	0.151371
2412	0.209498
2408	0.119924
2404	0.025677
2400	-0.026440
2396	-0.036764
2392	0.019001
2388	0.088000
2384	0.117635
2380	0.128173
2376	0.139141
2372	0.136137
2368	0.140213
2364	0.156283
2360	0.136351
2356	0.142979
2352	0.206375
2348	0.200223
2344	0.176548
2340	0.235295
2336	0.267028
2332	0.267148
2328	0.321054
2324	0.391054
2320	0.425004
2316	0.440239
2312	0.465130
2308	0.506496
2304	0.574827
2300	0.609850
2296	0.628471
2292	0.707006
2288	0.767683
2284	0.823688
2280	0.905609
2276	0.981163
2272	1.108193
2268	1.256895
2264	1.381039
2260	1.495957
2256	1.640367
2252	1.832318
2248	2.031326
2244	2.216625
2240	2.347588
2236	2.472567
2232	2.709674
2228	2.997851
2224	3.223061
2220	3.439831
2216	3.692340
2212	3.923368
2208	4.167556
2204	4.487586
2200	4.828381
2196	5.180191
2192	5.576539
2188	5.960726
2184	6.311106
2180	6.683707
2176	7.116317
2172	7.548546
2168	7.955884
2164	8.419108
2160	8.909630
2156	9.306526
2152	9.649705
2148	10.1252
2144	10.6613
2140	11.0801
2136	11.5474
2132	12.1534
2128	12.6894
2124	13.1379
2120	13.6394
2116	14.1464
2112	14.5903
2108	15.053
2104	15.6035
2100	16.1557
2096	16.6489
2092	17.1471
2088	17.6593
2084	18.1752
2080	18.7556
2076	19.363
2072	19.866
2068	20.3135
2064	20.6954
2060	20.8961
2056	21.1541
2052	21.6425
2048	22.1384
2044	22.5587
2040	23.0194
2036	23.4853
2032	23.9136
2028	24.3032
2024	24.5757
2020	24.814
2016	25.1512
2012	25.5348
2008	25.8877
2004	26.2285
2000	26.5772
1996	26.8864
1992	27.1458
1988	27.4057
1984	27.666
1980	27.8946
1976	28.1555
1972	28.4398
1968	28.6696
1964	28.8926
1960	29.1077
1956	29.2828
1952	29.4726
1948	29.7025
1944	29.9335
1940	30.1254
1936	30.2598
1932	30.3979
1928	30.5688
1924	30.7234
1920	30.8699
1916	31.0037
1912	31.0947
1908	31.2116
1904	31.4233
1900	31.651
1896	31.828
1892	31.9257
1888	31.9624
1884	32.0544
1880	32.1881
1876	32.3086
1872	32.4551
1868	32.5598
1864	32.6037
1860	32.6503
1856	32.6873
1852	32.788
1848	32.9351
1844	33.0035
1840	33.0862
1836	33.2363
1832	33.3422
1828	33.3726
1824	33.3713
1820	33.3586
1816	33.3799
1812	33.4999
1808	33.6275
1804	33.6449
1800	33.6469
1796	33.7289
1792	33.7639
1788	33.7307
1784	33.7756
1780	33.8372
1776	33.8601
1772	33.9411
1768	34.054
1764	34.0966
1760	34.06
1756	34.0343
1752	34.0427
1748	34.0232
1744	33.9832
1740	33.9899
1736	34.0967
1732	34.2178
1728	34.1731
1724	34.0423
1720	34.1251
1716	34.313
1712	34.3301
1708	34.3137
1704	34.3671
1700	34.3929
1696	34.3293
1692	34.2846
1688	34.3671
1684	34.4181
1680	34.3462
1676	34.2902
1672	34.3192
1668	34.3628
1664	34.3477
1660	34.3291
1656	34.437
1652	34.5814
1648	34.5685
1644	34.4813
1640	34.4823
1636	34.5066
1632	34.4526
1628	34.3929
1624	34.394
1620	34.4264
1616	34.4098
1612	34.3569
1608	34.3613
1604	34.3711
1600	34.3304
1596	34.3381
1592	34.3423
1588	34.2316
1584	34.1835
1580	34.276
1576	34.3433
1572	34.3937
1568	34.4676
1564	34.5414
1560	34.6323
1556	34.5682
1552	34.395
1548	34.3537
1544	34.4277
1540	34.4931
1536	34.4503
1532	34.3724
1528	34.3737
1524	34.3882
1520	34.3568
1516	34.3325
1512	34.3471
1508	34.3864
1504	34.3811
1500	34.3729
1496	34.4418
1492	34.4221
1488	34.2443
1484	34.1067
1480	34.0824
1476	34.1017
1472	34.146
1468	34.2099
1464	34.2802
1460	34.3142
1456	34.242
1452	34.2053
1448	34.2526
1444	34.2816
1440	34.3682
1436	34.3629
1432	34.1779
1428	34.0807
1424	34.1257
1420	34.1543
1416	34.0958
1412	34.0621
1408	34.1258
1404	34.201
1400	34.2274
1396	34.2143
1392	34.1624
1388	34.1023
1384	34.0835
1380	34.0321
1376	33.8878
1372	33.7721
1368	33.7636
1364	33.7926
1360	33.8012
1356	33.757
1352	33.707
1348	33.7406
1344	33.8387
1340	33.9194
1336	33.9002
1332	33.8368
1328	33.8718
1324	33.9574
1320	33.9643
1316	33.8319
1312	33.6839
1308	33.6905
1304	33.7578
1300	33.7959
1296	33.7721
1292	33.6686
1288	33.6148
1284	33.6639
1280	33.7085
1276	33.7067
1272	33.6923
1268	33.6409
1264	33.5644
1260	33.5591
1256	33.5759
1252	33.5001
1248	33.4654
1244	33.5157
1240	33.4993
1236	33.4318
1232	33.4242
1228	33.5242
1224	33.6165
1220	33.5724
1216	33.4858
1212	33.4745
1208	33.5033
1204	33.4899
1200	33.4212
1196	33.3516
1192	33.3253
1188	33.3344
1184	33.3169
1180	33.313
1176	33.3018
1172	33.1907
1168	33.1247
1164	33.1671
1160	33.2062
1156	33.2454
1152	33.2677
1148	33.2386
1144	33.1729
1140	33.0487
1136	32.9711
1132	32.9745
1128	32.9123
1124	32.8304
1120	32.8543
1116	32.9544
1112	33.1156
1108	33.157
1104	33.0017
1100	32.9804
1096	33.098
1092	32.9731
1088	32.6964
1084	32.6306
1080	32.6711
1076	32.6189
1072	32.5507
1068	32.4782
1064	32.46
1060	32.5795
1056	32.6478
1052	32.5711
1048	32.548
1044	32.6198
1040	32.5597
1036	32.346
1032	32.2055
1028	32.1784
1024	32.1365
1020	32.1121
1016	32.1529
1012	32.1738
1008	32.0844
1004	31.9726
1000	32.062
996	 32.2461
992	 32.3359
988	 32.4167
984	 32.4163
980	 32.2539
976	 32.0803
972	 31.9636
968	 31.8931
964	 31.8277
960	 31.7522
956	 31.6968
952	 31.6215
948	 31.6172
944	 31.6678
940	 31.6693
936	 31.6888
932	 31.5948
928	 31.3708
924	 31.268
920	 31.2229
916	 31.0774
912	 30.8717
908	 30.7399
904	 30.8896
900	 31.1356
896	 31.1756
892	 31.1723
888	 31.2429
884	 31.2638
880	 31.1444
876	 30.9358
872	 30.9108
868	 31.0431
864	 30.9676
860	 30.7493
856	 30.6037
852	 30.5177
848	 30.3883
844	 30.2004
840	 30.1382
836	 30.2284
832	 30.3299
828	 30.4139
824	 30.442
820	 30.4089
816	 30.429
812	 30.43
808	 30.1882
804	 29.8492
800	 29.6375
796	 29.4691
792	 29.3569
788	 29.2968
784	 29.2301
780	 29.2019
776	 29.3076
772	 29.5181
768	 29.4815
764	 29.1452
760	 29.002
756	 29.1695
752	 29.2238
748	 29.0677
744	 28.8658
740	 28.6786
736	 28.6017
732	 28.4988
728	 28.3872
724	 28.5154
720	 28.7043
716	 28.8082
712	 28.8038
708	 28.6625
704	 28.5533
700	 28.406
696	 28.2188
692	 28.1794
688	 27.9879
684	 27.6113
680	 27.4326
676	 27.4792
672	 27.458
668	 27.2153
664	 27.187
660	 27.4828
656	 27.6726
652	 27.6206
648	 27.3535
644	 27.0476
640	 26.9045
636	 26.9562
632	 27.0258
628	 26.7706
624	 26.3649
620	 26.2644
616	 26.3561
612	 26.3335
608	 26.1739
604	 26.1345
600	 26.2808
596	 26.2983
592	 26.1037
588	 26.0499
584	 26.159
580	 26.1288
576	 25.9658
572	 25.7016
568	 25.4481
564	 25.2918
560	 24.9286
556	 24.5369
552	 24.4979
548	 24.4711
544	 24.4245
540	 24.7046
536	 24.9818
532	 25.0332
528	 24.8294
524	 24.2281
520	 23.8884
516	 24.1052
512	 24.1481
508	 23.6896
504	 23.1263
500	 22.7915
496	 22.6574
492	 22.7644
488	 22.8871
484	 22.8054
480	 23.0105
476	 23.4328
472	 23.8898
468	 24.8342
464	 25.0724
460	 23.2162
456	 21.1404
452	 20.889
448	 21.219
444	 20.9115
440	 20.8583
436	 21.2862
432	 21.7812
428	 22.5797
424	 22.7841
420	 22.4785
416	 23.3789
412	 24.8251
408	 21.0625
404	 9.873986
400	 1.038002
396	 -3.508162
392	 -6.633925
388	 -11.4866
384	 -11.7973
380	 -2.400016
376	 -2.973198
372	 34.4433
370	 77.049