File: Bakgrunnsmateriale/MATLAB/FTIR/ftir_data/LPE454/Mapping_121/LPE454_t23_cm-1.asc
PE IR       SPECTRUM    SPECTRUM    ASCII       PEDS        1.60
  -1
LP5830~1.ASC
17/05/19
16:18:31.00
17/05/19
16:18:31.00
tln
$LPE454_t0023$<tbV0>[13.0,-7.8,8.0,0.0,27,1,0]
370
64

2002,4.07
MIRTGS : RIGHTBACK : INTERNAL 2
MIR : ON : INTERNAL 2
OPTKBR

0.200000
8
8.000000
FILLER
RATIO
SPECTRUM
UNLOCKED 256

DOUBLE
64
COMBINED
1
0
0

1.000000
RATIO

1
0
TRUE
51149
0
LEFT NOT FITTED RIGHT NOT FITTED 0
NONE
NONE
15600
12
4.427000
51148
TRUE
1 0 8 72 0 0 0 0

15798

#HDR
-1
-1
#GR
CM-1
%T
2.38419e-05
0.0
5000
-1.000000
4631
8
26.5319
-7.032299
#DATA
5000	0.598549
4996	0.438332
4992	0.228714
4988	0.180125
4984	0.240254
4980	0.145697
4976	0.155925
4972	0.462794
4968	0.495195
4964	0.155973
4960	0.149035
4956	0.214815
4952	-0.089263
4948	-0.160241
4944	0.045800
4940	0.024056
4936	-0.122594
4932	-0.121617
4928	0.088381
4924	0.340080
4920	0.329279
4916	0.194835
4912	0.173926
4908	0.196671
4904	0.190019
4900	0.188755
4896	0.251793
4892	0.220918
4888	0.104665
4884	0.104069
4880	0.248599
4876	0.288963
4872	0.210356
4868	0.338745
4864	0.379276
4860	0.090289
4856	-0.153827
4852	-0.074696
4848	0.205636
4844	0.289630
4840	0.258278
4836	0.439810
4832	0.539231
4828	0.464630
4824	0.427627
4820	0.450515
4816	0.547218
4812	0.480508
4808	0.260162
4804	0.243520
4800	0.240421
4796	-0.025105
4792	-0.099062
4788	0.167346
4784	0.248980
4780	0.062847
4776	0.042867
4772	0.175452
4768	0.194048
4764	0.278520
4760	0.365185
4756	0.282168
4752	0.034070
4748	-0.198531
4744	-0.120067
4740	-0.018954
4736	-0.053858
4732	-0.059247
4728	0.094127
4724	0.355195
4720	0.363230
4716	0.164341
4712	0.132536
4708	0.171160
4704	0.217390
4700	0.247931
4696	0.128650
4692	-0.017213
4688	-0.076293
4684	0.178027
4680	0.486803
4676	0.395393
4672	0.228881
4668	0.313568
4664	0.374627
4660	0.226950
4656	0.046730
4652	-0.032472
4648	0.115227
4644	0.363421
4640	0.672864
4636	0.960326
4632	0.731229
4628	0.143122
4624	0.083112
4620	0.146412
4616	-0.207495
4612	0.086522
4608	0.724124
4604	0.420045
4600	-0.330805
4596	-0.696921
4592	-0.432443
4588	0.370550
4584	0.701951
4580	1.092648
4576	1.674842
4572	0.766205
4568	-0.420665
4564	-0.695991
4560	-0.278902
4556	0.581383
4552	0.439047
4548	-0.090718
4544	0.118541
4540	-0.126409
4536	-1.377344
4532	-1.490736
4528	-0.120091
4524	0.367641
4520	-0.705838
4516	-5.818462
4512	-4.947257
4508	7.778143
4504	17.1209
4500	12.449
4496	1.478433
4492	-2.351021
4488	0.305461
4484	1.008534
4480	0.839376
4476	0.880980
4472	0.568628
4468	0.257968
4464	0.380277
4460	0.612401
4456	0.485491
4452	0.767779
4448	0.863552
4444	0.552868
4440	0.590085
4436	0.754332
4432	0.868654
4428	1.008820
4424	1.090764
4420	1.080083
4416	1.061367
4412	0.757765
4408	0.412654
4404	0.554990
4400	0.818586
4396	0.774121
4392	0.577640
4388	0.553488
4384	0.599217
4380	0.519680
4376	0.508689
4372	0.458002
4368	0.262618
4364	0.269484
4360	0.407433
4356	0.391244
4352	0.279068
4348	0.146222
4344	0.133514
4340	0.177955
4336	0.086998
4332	0.100302
4328	0.252223
4324	0.313949
4320	0.312137
4316	0.262260
4312	0.217342
4308	0.239777
4304	0.260901
4300	0.223708
4296	0.117254
4292	0.037503
4288	0.062012
4284	0.101089
4280	0.093960
4276	0.156784
4272	0.226473
4268	0.218224
4264	0.190544
4260	0.038290
4256	-0.116539
4252	-0.040268
4248	0.138068
4244	0.209689
4240	0.176930
4236	0.116133
4232	0.122356
4228	0.206136
4224	0.130176
4220	-0.004935
4216	0.064826
4212	0.236344
4208	0.261020
4204	0.043487
4200	-0.128006
4196	-0.095272
4192	-0.016474
4188	0.149869
4184	0.214815
4180	-0.120615
4176	-0.415778
4172	-0.547075
4168	-0.739741
4164	-0.644707
4160	-0.268435
4156	-0.065994
4152	0.020337
4148	0.154018
4144	0.203204
4140	0.190782
4136	0.155901
4132	0.146603
4128	0.198435
4124	0.204849
4120	0.175786
4116	0.075840
4112	0.020337
4108	0.159382
4104	0.287127
4100	0.257635
4096	0.135731
4092	0.043630
4088	0.056529
4084	0.059413
4080	-0.038743
4076	-0.136160
4072	-0.066804
4068	0.146460
4064	0.208115
4060	0.049734
4056	-0.045680
4052	0.039339
4048	0.179004
4044	0.313472
4040	0.361347
4036	0.211882
4032	0.056290
4028	0.069832
4024	0.095486
4020	0.077724
4016	0.104498
4012	0.107097
4008	0.048446
4004	0.022244
4000	0.032806
3996	0.006556
3992	-0.113582
3988	-0.247693
3984	-0.266671
3980	-0.148701
3976	0.072002
3972	0.220632
3968	0.218725
3964	0.159668
3960	0.060939
3956	-0.015592
3952	0.074362
3948	0.223588
3944	0.239157
3940	0.136065
3936	0.038743
3932	0.013446
3928	-0.001168
3924	0.027418
3920	0.115084
3916	0.107574
3912	0.020194
3908	-0.022459
3904	-0.013208
3900	0.103402
3896	0.259661
3892	0.249981
3888	0.114536
3884	0.067496
3880	0.083780
3876	0.044989
3872	0.032448
3868	0.045561
3864	0.068902
3860	0.113010
3856	0.071024
3852	-0.080919
3848	-0.173068
3844	-0.087022
3840	-0.048089
3836	-0.082540
3832	0.074505
3828	0.231146
3824	0.171518
3820	0.088024
3816	0.090241
3812	0.115656
3808	0.118207
3804	0.067019
3800	0.021028
3796	0.078845
3792	0.115251
3788	0.083923
3784	0.118660
3780	0.129055
3776	0.090241
3772	0.062108
3768	0.022339
3764	0.012159
3760	0.005888
3756	-0.008153
3752	0.026869
3748	0.086569
3744	0.139784
3740	0.126314
3736	0.111055
3732	0.160002
3728	0.153446
3724	0.127935
3720	0.135350
3716	0.160551
3712	0.202727
3708	0.192236
3704	0.142192
3700	0.139999
3696	0.175452
3692	0.161004
3688	0.171208
3684	0.237178
3680	0.209999
3676	0.108528
3672	0.049400
3668	0.072479
3664	0.128746
3660	0.084090
3656	-0.045371
3652	-0.066828
3648	0.059103
3644	0.175881
3640	0.182628
3636	0.115537
3632	0.038671
3628	-0.027775
3624	-0.075674
3620	-0.044846
3616	0.067520
3612	0.149726
3608	0.195789
3604	0.211262
3600	0.158762
3596	0.075221
3592	0.047898
3588	0.110483
3584	0.144243
3580	0.107240
3576	0.112795
3572	0.175285
3568	0.151419
3564	0.030446
3560	-0.047993
3556	-0.044393
3552	-0.015521
3548	0.013947
3544	0.082826
3540	0.145673
3536	0.206065
3532	0.323033
3528	0.366878
3524	0.241923
3520	0.005650
3516	-0.154995
3512	-0.083422
3508	0.070118
3504	0.100255
3500	-0.021028
3496	-0.100183
3492	0.000381
3488	0.042223
3484	-0.093555
3480	-0.217390
3476	-0.189161
3472	-0.048851
3468	0.096750
3464	0.150370
3460	0.064635
3456	-0.013160
3452	-0.004315
3448	-0.014567
3444	-0.070357
3440	-0.034999
3436	0.091171
3432	0.149655
3428	0.114870
3424	0.064110
3420	0.034117
3416	0.020313
3412	0.028681
3408	-0.014257
3404	-0.099802
3400	-0.107860
3396	-0.052332
3392	0.024962
3388	0.074291
3384	0.078368
3380	0.090599
3376	0.106048
3372	0.139307
3368	0.139570
3364	0.054979
3360	0.024986
3356	0.131392
3352	0.245714
3348	0.172615
3344	-0.029778
3340	-0.055122
3336	0.084042
3332	0.134253
3328	0.119709
3324	0.138282
3320	0.178337
3316	0.244617
3312	0.220775
3308	0.088739
3304	0.065279
3300	0.139689
3296	0.154352
3292	0.112724
3288	0.071597
3284	0.081324
3280	0.128126
3276	0.132513
3272	0.070738
3268	0.030612
3264	0.115728
3260	0.218820
3256	0.220131
3252	0.156402
3248	0.065875
3244	0.052475
3240	0.102949
3236	0.097608
3232	0.051450
3228	0.002169
3224	-0.043725
3220	-0.062274
3216	-0.071620
3212	-0.060749
3208	0.010371
3204	0.098156
3200	0.119686
3196	0.051450
3192	-0.000619
3188	-0.023984
3184	-0.041413
3180	-0.036859
3176	-0.042629
3172	-0.009727
3168	0.056433
3164	0.119566
3160	0.124406
3156	0.064754
3152	0.024747
3148	0.007963
3144	-0.001454
3140	0.056624
3136	0.207495
3132	0.292968
3128	0.199580
3124	0.131034
3120	0.198173
3116	0.217080
3112	0.149059
3108	0.091147
3104	0.029683
3100	-0.014400
3096	0.004315
3092	0.032830
3088	0.015830
3084	-0.005316
3080	0.016689
3076	0.077462
3072	0.107121
3068	0.071811
3064	0.076985
3060	0.117397
3056	0.041770
3052	-0.066757
3048	-0.027537
3044	0.066685
3040	0.051689
3036	-0.012874
3032	0.025415
3028	0.096797
3024	0.144124
3020	0.224471
3016	0.237059
3012	0.155568
3008	0.090646
3004	0.056004
3000	0.059556
2996	0.115728
2992	0.145649
2988	0.139379
2984	0.137948
2980	0.119662
2976	0.112962
2972	0.154519
2968	0.194025
2964	0.158333
2960	0.089859
2956	0.077509
2952	0.098323
2948	0.109481
2944	0.121593
2940	0.126504
2936	0.107336
2932	0.115656
2928	0.123739
2924	0.047969
2920	-0.011801
2916	0.015830
2912	0.088572
2908	0.120282
2904	0.079941
2900	0.097441
2896	0.129842
2892	0.061893
2888	-0.022959
2884	-0.066447
2880	-0.071239
2876	0.012063
2872	0.159764
2868	0.191473
2864	0.067734
2860	-0.021743
2856	0.003099
2852	0.039339
2848	0.035643
2844	0.033617
2840	0.014448
2836	-0.010347
2832	0.015616
2828	0.085735
2824	0.143003
2820	0.102353
2816	0.032234
2812	0.023198
2808	0.048542
2804	0.086307
2800	0.113749
2796	0.102162
2792	0.063467
2788	0.069141
2784	0.138115
2780	0.188660
2776	0.156569
2772	0.075674
2768	0.037717
2764	0.035166
2760	0.000262
2756	-0.035786
2752	-0.040626
2748	-0.048923
2744	-0.047826
2740	-0.017189
2736	0.020194
2732	0.043797
2728	0.025129
2724	-0.002050
2720	0.008296
2716	0.058269
2712	0.075578
2708	0.051569
2704	0.042605
2700	0.056934
2696	0.045394
2692	0.007581
2688	0.004935
2684	0.023198
2680	0.047206
2676	0.092720
2672	0.103163
2668	0.070476
2664	0.056385
2660	0.032091
2656	-0.008416
2652	-0.017333
2648	-0.033497
2644	-0.031805
2640	-0.004005
2636	-0.001883
2632	0.024056
2628	0.098013
2624	0.151205
2620	0.106120
2616	0.025534
2612	0.006341
2608	0.015306
2604	0.034117
2600	0.067043
2596	0.050115
2592	-0.044274
2588	-0.099182
2584	-0.054812
2580	0.029063
2576	0.091385
2572	0.101852
2568	0.104594
2564	0.141716
2560	0.179123
2556	0.137734
2552	0.078344
2548	0.089597
2544	0.107955
2540	0.130605
2536	0.133371
2532	0.067472
2528	0.034332
2524	0.051212
2520	0.075054
2516	0.072860
2512	0.049376
2508	0.088214
2504	0.127005
2500	0.141286
2496	0.199127
2492	0.219631
2488	0.148892
2484	0.091791
2480	0.096058
2476	0.088787
2472	0.074672
2468	0.125861
2464	0.155496
2460	0.094890
2456	0.044584
2452	0.000047
2448	-0.021743
2444	-0.023674
2440	-0.065827
2436	-0.066041
2432	-0.032997
2428	-0.121140
2424	-0.142526
2420	0.044870
2416	0.123929
2412	0.014901
2408	-0.085091
2404	-0.088763
2400	-0.046372
2396	-0.024008
2392	-0.004458
2388	0.039005
2384	0.078868
2380	0.094413
2376	0.083494
2372	0.026464
2368	-0.046300
2364	-0.045919
2360	-0.012254
2356	-0.024628
2352	-0.063252
2348	-0.066733
2344	-0.006723
2340	0.066614
2336	0.092363
2332	0.079917
2328	0.083184
2324	0.098252
2320	0.083732
2316	0.043129
2312	0.042438
2308	0.096440
2304	0.127959
2300	0.086474
2296	0.047707
2292	0.095963
2288	0.187230
2284	0.296044
2280	0.334715
2276	0.263285
2272	0.256538
2268	0.322484
2264	0.332736
2260	0.343251
2256	0.450658
2252	0.583577
2248	0.680232
2244	0.784182
2240	0.873255
2236	0.922775
2232	0.987267
2228	1.098322
2224	1.240921
2220	1.355695
2216	1.433634
2212	1.598143
2208	1.829433
2204	1.990246
2200	2.141046
2196	2.329540
2192	2.495050
2188	2.609896
2184	2.726721
2180	2.942872
2176	3.214359
2172	3.481841
2168	3.795242
2164	4.098439
2160	4.320430
2156	4.587507
2152	4.932785
2148	5.244517
2144	5.549645
2140	5.913257
2136	6.268358
2132	6.531500
2128	6.781911
2124	7.135605
2120	7.551312
2116	7.896733
2112	8.189773
2108	8.524441
2104	8.861112
2100	9.179997
2096	9.530806
2092	9.962773
2088	10.4005
2084	10.7561
2080	11.1202
2076	11.4257
2072	11.6218
2068	11.8908
2064	12.2441
2060	12.611
2056	12.9865
2052	13.371
2048	13.7636
2044	14.0898
2040	14.3388
2036	14.5844
2032	14.8739
2028	15.1995
2024	15.5291
2020	15.8648
2016	16.1556
2012	16.3793
2008	16.6372
2004	16.9518
2000	17.2559
1996	17.4958
1992	17.6962
1988	17.9248
1984	18.1369
1980	18.3292
1976	18.5802
1972	18.8446
1968	19.0776
1964	19.3473
1960	19.6325
1956	19.8349
1952	19.9804
1948	20.137
1944	20.3133
1940	20.515
1936	20.7562
1932	20.9937
1928	21.1457
1924	21.2222
1920	21.3211
1916	21.4798
1912	21.6256
1908	21.7099
1904	21.833
1900	22.0312
1896	22.1877
1892	22.2871
1888	22.4261
1884	22.6248
1880	22.7783
1876	22.8594
1872	22.9187
1868	22.9926
1864	23.1197
1860	23.2493
1856	23.3351
1852	23.3832
1848	23.4345
1844	23.5617
1840	23.7233
1836	23.8578
1832	23.9609
1828	24.0499
1824	24.159
1820	24.2435
1816	24.2998
1812	24.3586
1808	24.4144
1804	24.4969
1800	24.6016
1796	24.6963
1792	24.7302
1788	24.7178
1784	24.7545
1780	24.8204
1776	24.8563
1772	24.9036
1768	24.9906
1764	25.0584
1760	25.0856
1756	25.1199
1752	25.1843
1748	25.2392
1744	25.2467
1740	25.2432
1736	25.2677
1732	25.323
1728	25.4056
1724	25.4908
1720	25.5481
1716	25.5966
1712	25.6703
1708	25.7224
1704	25.7315
1700	25.716
1696	25.6991
1692	25.7663
1688	25.8893
1684	25.9136
1680	25.8026
1676	25.748
1672	25.8355
1668	25.9272
1664	26.011
1660	26.0791
1656	26.0663
1652	26.0457
1648	26.0771
1644	26.1117
1640	26.105
1636	26.0792
1632	26.0745
1628	26.0845
1624	26.122
1620	26.1722
1616	26.1919
1612	26.2392
1608	26.2853
1604	26.2547
1600	26.213
1596	26.1959
1592	26.2152
1588	26.2794
1584	26.3221
1580	26.2922
1576	26.2465
1572	26.2609
1568	26.3181
1564	26.3229
1560	26.2563
1556	26.208
1552	26.2289
1548	26.2673
1544	26.2786
1540	26.3108
1536	26.38
1532	26.4089
1528	26.3631
1524	26.3036
1520	26.2805
1516	26.2782
1512	26.2886
1508	26.293
1504	26.3076
1500	26.3781
1496	26.4789
1492	26.5319
1488	26.4588
1484	26.3513
1480	26.3314
1476	26.3456
1472	26.3658
1468	26.4141
1464	26.4628
1460	26.451
1456	26.3177
1452	26.2172
1448	26.2584
1444	26.217
1440	26.0797
1436	26.092
1432	26.2459
1428	26.3507
1424	26.3324
1420	26.2753
1416	26.2708
1412	26.254
1408	26.1688
1404	26.1311
1400	26.1509
1396	26.1317
1392	26.1038
1388	26.0866
1384	26.1235
1380	26.2083
1376	26.187
1372	26.0787
1368	26.039
1364	26.0428
1360	26.0451
1356	26.106
1352	26.1611
1348	26.1748
1344	26.201
1340	26.1981
1336	26.1662
1332	26.1091
1328	26.0565
1324	26.0525
1320	26.027
1316	25.9831
1312	26.0195
1308	26.1386
1304	26.172
1300	26.0893
1296	26.0309
1292	26.011
1288	25.9778
1284	25.9258
1280	25.8708
1276	25.8234
1272	25.7942
1268	25.8102
1264	25.9238
1260	26.0389
1256	26.054
1252	26.0289
1248	25.9628
1244	25.8967
1240	25.8759
1236	25.8794
1232	25.9
1228	25.9276
1224	25.9742
1220	26.012
1216	25.9974
1212	25.9386
1208	25.842
1204	25.7117
1200	25.6131
1196	25.6049
1192	25.6132
1188	25.614
1184	25.6716
1180	25.7007
1176	25.6894
1172	25.7468
1168	25.7749
1164	25.6571
1160	25.5304
1156	25.4744
1152	25.3943
1148	25.3312
1144	25.3812
1140	25.479
1136	25.5025
1132	25.4524
1128	25.4303
1124	25.4313
1120	25.3916
1116	25.3301
1112	25.2064
1108	25.0505
1104	24.9901
1100	24.9657
1096	24.9713
1092	25.0602
1088	25.1191
1084	25.1834
1080	25.2534
1076	25.1409
1072	24.9069
1068	24.7808
1064	24.8456
1060	24.9824
1056	24.9927
1052	24.8511
1048	24.7524
1044	24.781
1040	24.8561
1036	24.8735
1032	24.7972
1028	24.6573
1024	24.5157
1020	24.5221
1016	24.5175
1012	24.3751
1008	24.3402
1004	24.4817
1000	24.6202
996	 24.646
992	 24.6704
988	 24.7286
984	 24.6317
980	 24.4047
976	 24.2712
972	 24.1881
968	 24.0705
964	 24.0128
960	 24.0163
956	 24.0381
952	 24.077
948	 24.1369
944	 24.1997
940	 24.1927
936	 24.0873
932	 23.9182
928	 23.6978
924	 23.4681
920	 23.3658
916	 23.4602
912	 23.6215
908	 23.6859
904	 23.7328
900	 23.8324
896	 23.8074
892	 23.6351
888	 23.4813
884	 23.4236
880	 23.3462
876	 23.1297
872	 22.9673
868	 23.0222
864	 23.1448
860	 23.168
856	 23.1134
852	 23.0891
848	 23.0612
844	 22.9642
840	 22.8886
836	 22.9047
832	 22.8766
828	 22.7086
824	 22.5921
820	 22.5771
816	 22.5652
812	 22.5307
808	 22.4864
804	 22.573
800	 22.6751
796	 22.4617
792	 22.0368
788	 21.8473
784	 21.8855
780	 21.84
776	 21.6939
772	 21.6522
768	 21.7087
764	 21.6925
760	 21.6614
756	 21.7064
752	 21.7434
748	 21.6453
744	 21.4037
740	 21.1766
736	 21.069
732	 21.0579
728	 21.0917
724	 21.1762
720	 21.2254
716	 21.0967
712	 20.8823
708	 20.7294
704	 20.5481
700	 20.3078
696	 20.1963
692	 20.1117
688	 19.9652
684	 20.0261
680	 20.188
676	 20.2468
672	 20.3189
668	 20.4218
664	 20.2044
660	 19.7021
656	 19.5337
652	 19.6544
648	 19.632
644	 19.3927
640	 19.1322
636	 19.0786
632	 19.2443
628	 19.3894
624	 19.3161
620	 19.1347
616	 18.9003
612	 18.5997
608	 18.3356
604	 18.2895
600	 18.4304
596	 18.4266
592	 18.3433
588	 18.4585
584	 18.6208
580	 18.5816
576	 18.286
572	 17.836
568	 17.5366
564	 17.377
560	 17.3007
556	 17.3722
552	 17.3241
548	 17.1682
544	 17.0818
540	 17.0155
536	 17.1076
532	 17.2903
528	 17.2436
524	 17.0321
520	 16.8017
516	 16.7377
512	 16.7603
508	 16.4437
504	 15.9477
500	 15.5321
496	 15.2822
492	 15.6692
488	 16.156
484	 16.02
480	 16.2297
476	 16.5557
472	 15.9822
468	 15.421
464	 15.7458
460	 15.7433
456	 14.1025
452	 12.6854
448	 13.0052
444	 13.6979
440	 14.2073
436	 14.7309
432	 14.4858
428	 13.2495
424	 12.1481
420	 10.7618
416	 9.506416
412	 10.8609
408	 12.716
404	 12.6546
400	 15.8443
396	 22.7851
392	 22.185
388	 16.7931
384	 10.0304
380	 -1.754236
376	 -6.664276
372	 -5.673027
370	 -5.825662