File: Bakgrunnsmateriale/MATLAB/FTIR/ftir_data/LPE453/Mapping_121/LPE453_e122.asc
PE IR       SPECTRUM    SPECTRUM    ASCII       PEDS        1.60
  -1
LPE453~2.ASC
17/05/16
14:22:06.00
17/05/16
14:22:32.00
tln
$LPE453_e0122$<ebV0>[-23.3,12.1,10.0,0.0,27,1,0]
27.028
64

2002,4.07
MIRTGS : RIGHTBACK : INTERNAL 2
MIR : ON : INTERNAL 2
OPTKBR

0.200000
8
8.000000
FILLER
SINGLE
SPECTRUM
UNLOCKED 256

DOUBLE

COMBINED
1
0
0

0.002000
BACKG

1
0
TRUE
51149
0
LEFT NOT FITTED RIGHT NOT FITTED 0
NONE
NONE
15600
12
4.427000
51148
TRUE
1 0 8 72 0 0 0 0

15798

#HDR
-1
-1
#GR
µM
EGY
2.38419e-05
0.0
2.000000
0.002000
12515
8
2.391579
0.011110
#DATA
2.000000	 0.749111
2.018000	 0.766873
2.036000	 0.780576
2.054000	 0.798174
2.072000	 0.820169
2.090000	 0.853186
2.108000	 0.872455
2.126000	 0.881376
2.144000	 0.884859
2.162000	 0.893504
2.180000	 0.913236
2.198000	 0.936054
2.216000	 0.956827
2.234000	 0.970029
2.252000	 1.050860
2.270000	 0.983687
2.288000	 1.001841
2.306000	 1.037621
2.324000	 1.077117
2.342000	 1.117307
2.360000	 1.144554
2.378000	 1.166151
2.396000	 1.181137
2.414000	 1.195117
2.432000	 1.221845
2.450000	 1.254254
2.468000	 1.293710
2.486000	 1.329214
2.504000	 1.352754
2.522000	 1.372246
2.540000	 1.383472
2.558000	 1.389007
2.576000	 1.395165
2.594000	 1.394713
2.612000	 1.443437
2.630000	 1.461057
2.648000	 1.501988
2.666000	 1.486268
2.684000	 1.526822
2.702000	 1.534415
2.720000	 1.514124
2.738000	 1.522019
2.756000	 1.530952
2.774000	 1.546361
2.792000	 1.558718
2.810000	 1.569571
2.828000	 1.576068
2.846000	 1.583223
2.864000	 1.574705
2.882000	 1.565525
2.900000	 1.547963
2.918000	 1.541782
2.936000	 1.549984
2.954000	 1.560725
2.972000	 1.581924
2.990000	 1.611879
3.008000	 1.636803
3.026000	 1.668891
3.044000	 1.691481
3.062000	 1.712674
3.080000	 1.728830
3.098000	 1.737168
3.116000	 1.741602
3.134000	 1.745176
3.152000	 1.750075
3.170000	 1.757367
3.188000	 1.775812
3.206000	 1.794586
3.224000	 1.822445
3.242000	 1.854590
3.260000	 1.876968
3.278000	 1.904918
3.296000	 1.922966
3.314000	 1.906660
3.332000	 1.968980
3.350000	 1.975482
3.368000	 1.915495
3.386000	 1.875624
3.404000	 1.785477
3.422000	 1.734884
3.440000	 1.886132
3.458000	 1.936643
3.476000	 1.952170
3.494000	 1.858452
3.512000	 1.961239
3.530000	 2.045441
3.548000	 2.086865
3.566000	 2.117216
3.584000	 2.142987
3.602000	 2.167004
3.620000	 2.184100
3.638000	 2.194957
3.656000	 2.197842
3.674000	 2.201503
3.692000	 2.197497
3.710000	 2.190904
3.728000	 2.183921
3.746000	 2.177934
3.764000	 2.166783
3.782000	 2.165916
3.800000	 2.164087
3.818000	 2.166903
3.836000	 2.168307
3.854000	 2.170427
3.872000	 2.186671
3.890000	 2.202602
3.908000	 2.219398
3.926000	 2.231416
3.944000	 2.248045
3.962000	 2.256270
3.980000	 2.262559
3.998000	 2.265486
4.016000	 2.270496
4.034000	 2.267298
4.052000	 2.261981
4.070000	 2.252580
4.088000	 2.243633
4.106000	 2.232574
4.124000	 2.219503
4.141999	 2.209564
4.160000	 2.203112
4.178000	 2.195013
4.196000	 2.191915
4.214000	 2.182191
4.232000	 2.170918
4.250000	 2.193295
4.268000	 2.205107
4.286000	 2.214030
4.304000	 2.233273
4.322000	 2.255338
4.340000	 2.272543
4.358000	 2.286142
4.375999	 2.297849
4.394000	 2.307108
4.412000	 2.314288
4.430000	 2.317331
4.448000	 2.320392
4.466000	 2.323690
4.484000	 2.321180
4.502000	 2.316672
4.520000	 2.308722
4.538000	 2.302768
4.556000	 2.294837
4.574000	 2.288881
4.592000	 2.282858
4.609999	 2.278157
4.628000	 2.276253
4.646000	 2.275155
4.664000	 2.277605
4.682000	 2.277661
4.700000	 2.274563
4.718000	 2.274417
4.736000	 2.279713
4.754000	 2.278821
4.772000	 2.278828
4.790000	 2.278157
4.808000	 2.283635
4.826000	 2.293309
4.843999	 2.310061
4.862000	 2.324558
4.880000	 2.341275
4.898000	 2.354750
4.916000	 2.367026
4.934000	 2.376029
4.952000	 2.381487
4.970000	 2.387921
4.988000	 2.391485
5.006000	 2.390851
5.024000	 2.389392
5.042000	 2.387128
5.060000	 2.383191
5.077999	 2.377239
5.096000	 2.369197
5.114000	 2.363379
5.132000	 2.358498
5.150000	 2.351980
5.168000	 2.348843
5.186000	 2.342671
5.204000	 2.332843
5.222000	 2.325299
5.240000	 2.319027
5.258000	 2.312351
5.276000	 2.308211
5.294000	 2.307384
5.312000	 2.309640
5.330000	 2.310383
5.348000	 2.308310
5.366000	 2.317608
5.384000	 2.324980
5.402000	 2.325805
5.420000	 2.322064
5.438000	 2.334715
5.456000	 2.338774
5.474000	 2.340146
5.492000	 2.352331
5.510000	 2.357744
5.528000	 2.361341
5.546000	 2.362648
5.564000	 2.356412
5.582000	 2.351646
5.600000	 2.357405
5.618000	 2.355540
5.636000	 2.340138
5.654000	 2.337801
5.672000	 2.341151
5.690000	 2.334352
5.708000	 2.314747
5.726000	 2.296835
5.744000	 2.276818
5.762000	 2.249674
5.780000	 2.253022
5.798000	 2.259722
5.816000	 2.236041
5.834000	 2.230464
5.852000	 2.229301
5.870000	 2.194991
5.888000	 2.167736
5.906000	 2.182378
5.923999	 2.176796
5.942000	 2.162059
5.960000	 2.168584
5.978000	 2.158986
5.996000	 2.153384
6.014000	 2.149051
6.032000	 2.119026
6.050000	 2.080510
6.068000	 2.084863
6.086000	 2.095320
6.104000	 2.081728
6.122000	 2.069452
6.140000	 2.063643
6.158000	 2.041657
6.176000	 2.003457
6.194000	 1.958550
6.212000	 1.924529
6.230000	 1.918075
6.248000	 1.936832
6.266000	 1.953947
6.284000	 1.960502
6.302000	 1.957128
6.320000	 1.944018
6.338000	 1.924295
6.356000	 1.916617
6.374000	 1.916065
6.392000	 1.893066
6.410000	 1.855574
6.428000	 1.860777
6.446000	 1.891986
6.464000	 1.895072
6.482000	 1.888085
6.500000	 1.922851
6.518000	 1.988269
6.536000	 2.032521
6.554000	 2.041970
6.572000	 2.036119
6.590000	 2.034568
6.608000	 2.028200
6.626000	 2.002081
6.644000	 1.951146
6.662000	 1.836678
6.680000	 1.680326
6.698000	 1.623324
6.716000	 1.707347
6.734000	 1.825366
6.752000	 1.896479
6.770000	 1.916563
6.788000	 1.915351
6.806000	 1.910840
6.824000	 1.893796
6.842000	 1.848736
6.860000	 1.778640
6.878000	 1.720421
6.896000	 1.715872
6.914000	 1.757997
6.932000	 1.796981
6.950000	 1.809797
6.968000	 1.815103
6.986000	 1.821714
7.004000	 1.822232
7.022000	 1.814496
7.040000	 1.803719
7.058000	 1.794838
7.076000	 1.778454
7.094000	 1.741738
7.112000	 1.697933
7.130000	 1.677618
7.148000	 1.690557
7.166000	 1.718783
7.184000	 1.738482
7.202000	 1.740322
7.220000	 1.737108
7.238000	 1.743544
7.256000	 1.755051
7.274000	 1.762241
7.292000	 1.765054
7.310000	 1.765871
7.328000	 1.765901
7.346000	 1.766938
7.364000	 1.768702
7.382000	 1.769512
7.400000	 1.769037
7.418000	 1.767836
7.436000	 1.766220
7.454000	 1.766320
7.472000	 1.771046
7.490000	 1.779771
7.508000	 1.788739
7.526000	 1.795443
7.544000	 1.799912
7.562000	 1.802963
7.580000	 1.805170
7.598000	 1.806847
7.616000	 1.807686
7.634000	 1.807706
7.652000	 1.807205
7.670000	 1.806616
7.688000	 1.806613
7.706000	 1.807185
7.724000	 1.807680
7.742000	 1.807715
7.760000	 1.807103
7.778000	 1.805694
7.796000	 1.803523
7.814000	 1.799863
7.832000	 1.792286
7.850000	 1.777373
7.868000	 1.753405
7.886000	 1.721981
7.904000	 1.691617
7.922000	 1.675884
7.940000	 1.683268
7.958000	 1.708949
7.976000	 1.739149
7.994000	 1.762956
8.012000	 1.777752
8.030000	 1.785802
8.048000	 1.789404
8.065999	 1.790175
8.084000	 1.789218
8.102000	 1.787174
8.120000	 1.784089
8.138000	 1.780043
8.155999	 1.774980
8.173999	 1.768396
8.192000	 1.759361
8.210000	 1.747570
8.228000	 1.734355
8.246000	 1.721973
8.263999	 1.712584
8.282000	 1.707154
8.300000	 1.705293
8.318000	 1.705557
8.336000	 1.706352
8.353999	 1.706604
8.372000	 1.705459
8.390000	 1.702479
8.408000	 1.697627
8.426000	 1.691395
8.443999	 1.684527
8.462000	 1.677916
8.480000	 1.671722
8.498000	 1.665306
8.516000	 1.657573
8.533999	 1.647803
8.552000	 1.636441
8.570000	 1.624348
8.588000	 1.612362
8.606000	 1.601325
8.624000	 1.592144
8.641999	 1.585313
8.660000	 1.580463
8.678000	 1.576903
8.696000	 1.573739
8.714000	 1.570276
8.731999	 1.565890
8.750000	 1.560207
8.768000	 1.553261
8.786000	 1.545756
8.804000	 1.538234
8.821999	 1.530512
8.840000	 1.521832
8.858000	 1.511659
8.876000	 1.500060
8.894000	 1.487678
8.911999	 1.475232
8.930000	 1.463243
8.948000	 1.451792
8.966000	 1.440983
8.984000	 1.430924
9.001999	 1.421757
9.020000	 1.413684
9.038000	 1.407043
9.056000	 1.401920
9.074000	 1.398160
9.092000	 1.395309
9.109999	 1.393044
9.128000	 1.391575
9.146000	 1.391149
9.164000	 1.391849
9.182000	 1.393480
9.199999	 1.395381
9.218000	 1.396830
9.236000	 1.397246
9.254000	 1.396739
9.272000	 1.395957
9.289999	 1.395949
9.308000	 1.397224
9.326000	 1.399710
9.344000	 1.402664
9.362000	 1.405213
9.379999	 1.406577
9.398000	 1.405808
9.416000	 1.401032
9.434000	 1.389446
9.452000	 1.368639
9.469999	 1.339281
9.488000	 1.307068
9.506000	 1.281425
9.524000	 1.270872
9.542000	 1.277864
9.560000	 1.297542
9.577999	 1.320868
9.596000	 1.339897
9.614000	 1.351139
9.632000	 1.355299
9.650000	 1.354943
9.667999	 1.352266
9.686000	 1.348554
9.704000	 1.344430
9.722000	 1.340159
9.740000	 1.336182
9.757999	 1.332772
9.776000	 1.330286
9.794000	 1.329096
9.812000	 1.329363
9.830000	 1.331416
9.847999	 1.335153
9.866000	 1.340288
9.884000	 1.346175
9.902000	 1.352001
9.920000	 1.357063
9.937999	 1.360967
9.956000	 1.363798
9.974000	 1.365783
9.992000	 1.367226
10.01	1.368212
10.028	1.368642
10.046	1.368202
10.064	1.366795
10.082	1.364429
10.1	1.361425
10.118	1.358282
10.136	1.355454
10.154	1.353015
10.172	1.350670
10.19	1.348143
10.208	1.344904
10.226	1.340950
10.244	1.336306
10.262	1.331289
10.28	1.326149
10.298	1.320979
10.316	1.315860
10.334	1.310685
10.352	1.305283
10.37	1.299594
10.388	1.293634
10.406	1.287520
10.424	1.281367
10.442	1.275315
10.46	1.269327
10.478	1.263551
10.496	1.258005
10.514	1.252869
10.532	1.248291
10.55	1.244476
10.568	1.241398
10.586	1.238908
10.604	1.236640
10.622	1.234218
10.64	1.231408
10.658	1.228180
10.676	1.224648
10.694	1.221013
10.712	1.217422
10.73	1.213930
10.748	1.210605
10.766	1.207401
10.784	1.204269
10.802	1.201245
10.82	1.198220
10.838	1.195059
10.856	1.191598
10.874	1.187627
10.892	1.183019
10.91	1.177766
10.928	1.171981
10.946	1.165828
10.964	1.159598
10.982	1.153598
11	1.148087
11.018	1.143247
11.036	1.139229
11.054	1.135981
11.072	1.133411
11.09	1.131283
11.108	1.129411
11.126	1.127643
11.144	1.125858
11.162	1.123896
11.18	1.121468
11.198	1.118250
11.216	1.113858
11.234	1.107901
11.252	1.100121
11.27	1.090530
11.288	1.079286
11.306	1.066836
11.324	1.053793
11.342	1.040863
11.36	1.028895
11.378	1.018758
11.396	1.011195
11.414	1.006791
11.432	1.005887
11.45	1.008415
11.468	1.013891
11.486	1.021544
11.504	1.030385
11.522	1.039381
11.54	1.047717
11.558	1.054750
11.576	1.060180
11.594	1.064043
11.612	1.066454
11.63	1.067735
11.648	1.068114
11.666	1.067820
11.684	1.067092
11.702	1.065933
11.72	1.064537
11.738	1.062902
11.756	1.061119
11.774	1.059324
11.792	1.057458
11.81	1.055482
11.828	1.053383
11.846	1.050926
11.864	1.047879
11.882	1.043965
11.9	1.038727
11.918	1.031712
11.936	1.022370
11.954	1.010313
11.972	0.995127
11.99	0.976774
12.008	0.955504
12.026	0.932004
12.044	0.907441
12.062	0.883408
12.08	0.861748
12.098	0.844210
12.116	0.832322
12.134	0.826927
12.152	0.828082
12.17	0.835058
12.188	0.846458
12.206	0.860414
12.224	0.875104
12.242	0.888969
12.26	0.900980
12.278	0.910600
12.296	0.917722
12.314	0.922640
12.332	0.925776
12.35	0.927517
12.368	0.928184
12.386	0.928135
12.404	0.927652
12.422	0.926868
12.44	0.926013
12.458	0.925287
12.476	0.924830
12.494	0.924696
12.512	0.925013
12.53	0.925820
12.548	0.927098
12.566	0.928839
12.584	0.931037
12.602	0.933618
12.62	0.936482
12.638	0.939562
12.656	0.942700
12.674	0.945832
12.692	0.948705
12.71	0.951324
12.728	0.953574
12.746	0.955362
12.764	0.956708
12.782	0.957629
12.8	0.958197
12.818	0.958395
12.836	0.958243
12.854	0.957856
12.872	0.957268
12.89	0.956440
12.908	0.955479
12.926	0.954386
12.944	0.953214
12.962	0.952043
12.98	0.950933
12.998	0.949926
13.016	0.949037
13.034	0.948191
13.052	0.947464
13.07	0.946787
13.088	0.946019
13.106	0.945146
13.124	0.944221
13.142	0.943170
13.16	0.942023
13.178	0.940859
13.196	0.939702
13.214	0.938573
13.232	0.937489
13.25	0.936505
13.268	0.935544
13.286	0.934545
13.304	0.933531
13.322	0.932436
13.34	0.931218
13.358	0.929846
13.376	0.928342
13.394	0.926677
13.412	0.924883
13.43	0.922984
13.448	0.921005
13.466	0.918959
13.484	0.916883
13.502	0.914826
13.52	0.912755
13.538	0.910696
13.556	0.908613
13.574	0.906450
13.592	0.904240
13.61	0.901950
13.628	0.899572
13.646	0.897011
13.664	0.894396
13.682	0.891700
13.7	0.888945
13.718	0.886110
13.736	0.883263
13.754	0.880446
13.772	0.877633
13.79	0.874892
13.808	0.872182
13.826	0.869521
13.844	0.866879
13.862	0.864227
13.88	0.861561
13.898	0.858868
13.916	0.856159
13.934	0.853452
13.952	0.850730
13.97	0.847998
13.988	0.845276
14.006	0.842583
14.024	0.839874
14.042	0.837152
14.06	0.834424
14.078	0.831613
14.096	0.828738
14.114	0.825814
14.132	0.822832
14.15	0.819770
14.168	0.816625
14.186	0.813438
14.204	0.810244
14.222	0.806980
14.24	0.803633
14.258	0.800186
14.276	0.796632
14.294	0.792896
14.312	0.788929
14.33	0.784692
14.348	0.780008
14.366	0.774901
14.384	0.769314
14.402	0.763273
14.42	0.756876
14.438	0.750256
14.456	0.743610
14.474	0.737184
14.492	0.731201
14.51	0.725955
14.528	0.721568
14.546	0.718167
14.564	0.715778
14.582	0.714345
14.6	0.713752
14.618	0.713795
14.636	0.714283
14.654	0.714957
14.672	0.715658
14.69	0.716259
14.708	0.716641
14.726	0.716696
14.744	0.716422
14.762	0.715819
14.78	0.714908
14.798	0.713733
14.816	0.712344
14.834	0.710747
14.852	0.709023
14.87	0.707197
14.888	0.705314
14.906	0.703410
14.924	0.701477
14.942	0.699583
14.96	0.697739
14.978	0.695945
14.996	0.694202
15.014	0.692508
15.032	0.690884
15.05	0.689299
15.068	0.687740
15.086	0.686191
15.104	0.684627
15.122	0.683054
15.14	0.681458
15.158	0.679835
15.176	0.678187
15.194	0.676516
15.212	0.674789
15.23	0.673022
15.248	0.671202
15.266	0.669296
15.284	0.667323
15.302	0.665297
15.32	0.663214
15.338	0.661065
15.356	0.658864
15.374	0.656639
15.392	0.654389
15.41	0.652128
15.428	0.649905
15.446	0.647709
15.464	0.645580
15.482	0.643541
15.5	0.641589
15.518	0.639705
15.536	0.637911
15.554	0.636210
15.572	0.634581
15.59	0.632971
15.608	0.631364
15.626	0.629738
15.644	0.628044
15.662	0.626281
15.68	0.624431
15.698	0.622480
15.716	0.620427
15.734	0.618310
15.752	0.616136
15.77	0.613900
15.788	0.611689
15.806	0.609492
15.824	0.607322
15.842	0.605226
15.86	0.603195
15.878	0.601231
15.896	0.599332
15.914	0.597485
15.932	0.595684
15.95	0.593918
15.968	0.592162
15.986	0.590441
16.004	0.588718
16.022	0.586940
16.04	0.585177
16.058	0.583382
16.076	0.581528
16.094	0.579656
16.112	0.577706
16.13	0.575669
16.148	0.573579
16.166	0.571384
16.184	0.569075
16.202	0.566649
16.22	0.564084
16.238	0.561370
16.256	0.558491
16.274	0.555462
16.292	0.552292
16.31	0.548988
16.328	0.545563
16.346	0.542065
16.364	0.538528
16.382	0.534977
16.4	0.531489
16.418	0.528119
16.436	0.524924
16.454	0.521957
16.472	0.519261
16.49	0.516889
16.508	0.514856
16.526	0.513175
16.544	0.511833
16.562	0.510801
16.58	0.510054
16.598	0.509563
16.616	0.509269
16.634	0.509122
16.652	0.509046
16.67	0.509021
16.688	0.509035
16.706	0.508964
16.724	0.508818
16.742	0.508633
16.76	0.508369
16.778	0.508032
16.796	0.507665
16.814	0.507251
16.832	0.506788
16.85	0.506326
16.868	0.505844
16.886	0.505328
16.904	0.504829
16.922	0.504330
16.94	0.503797
16.958	0.503238
16.976	0.502651
16.994	0.502028
17.012	0.501364
17.03	0.500654
17.048	0.499896
17.066	0.499101
17.084	0.498275
17.102	0.497461
17.12	0.496672
17.138	0.495900
17.156	0.495155
17.174	0.494450
17.192	0.493788
17.21	0.493175
17.228	0.492632
17.246	0.492139
17.264	0.491688
17.282	0.491295
17.3	0.490947
17.318	0.490600
17.336	0.490263
17.354	0.489936
17.372	0.489611
17.39	0.489283
17.408	0.488935
17.426	0.488573
17.444	0.488198
17.462	0.487783
17.48	0.487325
17.498	0.486804
17.516	0.486232
17.534	0.485616
17.552	0.484937
17.57	0.484192
17.588	0.483396
17.606	0.482541
17.624	0.481606
17.642	0.480617
17.66	0.479583
17.678	0.478529
17.696	0.477454
17.714	0.476354
17.732	0.475242
17.75	0.474138
17.768	0.473036
17.786	0.471936
17.804	0.470836
17.822	0.469740
17.84	0.468667
17.858	0.467607
17.876	0.466558
17.894	0.465512
17.912	0.464466
17.93	0.463431
17.948	0.462407
17.966	0.461373
17.984	0.460335
18.002	0.459298
18.02	0.458271
18.038	0.457269
18.056	0.456264
18.074	0.455247
18.092	0.454254
18.11	0.453288
18.128	0.452327
18.146	0.451377
18.164	0.450456
18.182	0.449552
18.2	0.448653
18.218	0.447767
18.236	0.446898
18.254	0.446044
18.272	0.445205
18.29	0.444390
18.308	0.443599
18.326	0.442808
18.344	0.442017
18.362	0.441217
18.38	0.440415
18.398	0.439627
18.416	0.438842
18.434	0.438050
18.452	0.437249
18.47	0.436439
18.488	0.435606
18.506	0.434741
18.524	0.433874
18.542	0.433014
18.56	0.432144
18.578	0.431258
18.596	0.430375
18.614	0.429495
18.632	0.428618
18.65	0.427742
18.668	0.426853
18.686	0.425952
18.704	0.425052
18.722	0.424145
18.74	0.423202
18.758	0.422229
18.776	0.421232
18.794	0.420199
18.812	0.419105
18.83	0.417960
18.848	0.416769
18.866	0.415531
18.884	0.414243
18.902	0.412916
18.92	0.411563
18.938	0.410186
18.956	0.408793
18.974	0.407393
18.992	0.406001
19.01	0.404629
19.028	0.403305
19.046	0.402016
19.064	0.400755
19.082	0.399529
19.1	0.398353
19.118	0.397215
19.136	0.396107
19.154	0.395027
19.172	0.393970
19.19	0.392939
19.208	0.391948
19.226	0.390980
19.244	0.389992
19.262	0.388994
19.28	0.387988
19.298	0.386972
19.316	0.385941
19.334	0.384895
19.352	0.383829
19.37	0.382743
19.388	0.381626
19.406	0.380476
19.424	0.379300
19.442	0.378099
19.46	0.376878
19.478	0.375639
19.496	0.374380
19.514	0.373101
19.532	0.371807
19.55	0.370497
19.568	0.369179
19.586	0.367856
19.604	0.366537
19.622	0.365242
19.64	0.363965
19.658	0.362697
19.676	0.361442
19.694	0.360215
19.712	0.359017
19.73	0.357857
19.748	0.356737
19.766	0.355651
19.784	0.354601
19.802	0.353573
19.82	0.352558
19.838	0.351560
19.856	0.350582
19.874	0.349619
19.892	0.348656
19.91	0.347696
19.928	0.346716
19.946	0.345718
19.964	0.344694
19.982	0.343647
20	0.342559
20.018	0.341416
20.036	0.340233
20.054	0.339023
20.072	0.337783
20.09	0.336498
20.108	0.335172
20.126	0.333814
20.144	0.332429
20.162	0.331011
20.18	0.329556
20.198	0.328067
20.216	0.326541
20.234	0.324982
20.252	0.323400
20.27	0.321795
20.288	0.320162
20.306	0.318501
20.324	0.316806
20.342	0.315070
20.36	0.313297
20.378	0.311484
20.396	0.309631
20.414	0.307765
20.432	0.305888
20.45	0.303996
20.468	0.302088
20.486	0.300168
20.504	0.298241
20.522	0.296307
20.54	0.294396
20.558	0.292509
20.576	0.290645
20.594	0.288801
20.612	0.286988
20.63	0.285228
20.648	0.283515
20.666	0.281840
20.684	0.280202
20.702	0.278596
20.72	0.277016
20.738	0.275464
20.756	0.273934
20.774	0.272429
20.792	0.270943
20.81	0.269478
20.828	0.268028
20.846	0.266587
20.864	0.265157
20.882	0.263736
20.9	0.262325
20.918	0.260927
20.936	0.259544
20.954	0.258175
20.972	0.256826
20.99	0.255494
21.008	0.254183
21.026	0.252897
21.044	0.251633
21.062	0.250378
21.08	0.249135
21.098	0.247915
21.116	0.246729
21.134	0.245563
21.152	0.244405
21.17	0.243257
21.188	0.242109
21.206	0.240957
21.224	0.239802
21.242	0.238643
21.26	0.237480
21.278	0.236298
21.296	0.235091
21.314	0.233864
21.332	0.232620
21.35	0.231359
21.368	0.230087
21.386	0.228807
21.404	0.227519
21.422	0.226231
21.44	0.224943
21.458	0.223653
21.476	0.222359
21.494	0.221065
21.512	0.219778
21.53	0.218499
21.548	0.217224
21.566	0.215951
21.584	0.214681
21.602	0.213405
21.62	0.212124
21.638	0.210837
21.656	0.209541
21.674	0.208238
21.692	0.206921
21.71	0.205587
21.728	0.204238
21.746	0.202869
21.764	0.201478
21.782	0.200074
21.8	0.198664
21.818	0.197246
21.836	0.195827
21.854	0.194404
21.872	0.192983
21.89	0.191577
21.908	0.190180
21.926	0.188805
21.944	0.187459
21.962	0.186138
21.98	0.184849
21.998	0.183595
22.016	0.182372
22.034	0.181173
22.052	0.179997
22.07	0.178846
22.088	0.177723
22.106	0.176627
22.124	0.175541
22.142	0.174460
22.16	0.173386
22.178	0.172314
22.196	0.171244
22.214	0.170173
22.232	0.169095
22.25	0.168010
22.268	0.166925
22.286	0.165841
22.304	0.164758
22.322	0.163688
22.34	0.162630
22.358	0.161588
22.376	0.160581
22.394	0.159609
22.412	0.158671
22.43	0.157771
22.448	0.156904
22.466	0.156085
22.484	0.155329
22.502	0.154629
22.52	0.153985
22.538	0.153398
22.556	0.152868
22.574	0.152380
22.592	0.151938
22.61	0.151536
22.628	0.151154
22.646	0.150796
22.664	0.150454
22.682	0.150105
22.7	0.149758
22.718	0.149399
22.736	0.149009
22.754	0.148597
22.772	0.148150
22.79	0.147656
22.808	0.147121
22.826	0.146538
22.844	0.145902
22.862	0.145215
22.88	0.144478
22.898	0.143690
22.916	0.142850
22.934	0.141971
22.952	0.141054
22.97	0.140098
22.988	0.139121
23.006	0.138124
23.024	0.137107
23.042	0.136083
23.06	0.135056
23.078	0.134022
23.096	0.132985
23.114	0.131941
23.132	0.130894
23.15	0.129855
23.168	0.128828
23.186	0.127808
23.204	0.126788
23.222	0.125769
23.24	0.124751
23.258	0.123735
23.276	0.122727
23.294	0.121719
23.312	0.120692
23.33	0.119644
23.348	0.118580
23.366	0.117496
23.384	0.116394
23.402	0.115272
23.42	0.114127
23.438	0.112956
23.456	0.111761
23.474	0.110543
23.492	0.109301
23.51	0.108037
23.528	0.106746
23.546	0.105425
23.564	0.104076
23.582	0.102716
23.6	0.101346
23.618	0.099964
23.636	0.098584
23.654	0.097213
23.672	0.095847
23.69	0.094487
23.708	0.093132
23.726	0.091779
23.744	0.090443
23.762	0.089136
23.78	0.087856
23.798	0.086599
23.816	0.085365
23.834	0.084153
23.852	0.082965
23.87	0.081807
23.888	0.080679
23.906	0.079578
23.924	0.078502
23.942	0.077450
23.96	0.076424
23.978	0.075423
23.996	0.074446
24.014	0.073494
24.032	0.072567
24.05	0.071666
24.068	0.070792
24.086	0.069938
24.104	0.069095
24.122	0.068264
24.14	0.067450
24.158	0.066656
24.176	0.065884
24.194	0.065131
24.212	0.064392
24.23	0.063665
24.248	0.062952
24.266	0.062257
24.284	0.061585
24.302	0.060935
24.32	0.060298
24.338	0.059665
24.356	0.059038
24.374	0.058419
24.392	0.057804
24.41	0.057193
24.428	0.056587
24.446	0.055989
24.464	0.055401
24.482	0.054824
24.5	0.054247
24.518	0.053663
24.536	0.053072
24.554	0.052479
24.572	0.051886
24.59	0.051290
24.608	0.050692
24.626	0.050097
24.644	0.049509
24.662	0.048925
24.68	0.048341
24.698	0.047750
24.716	0.047151
24.734	0.046551
24.752	0.045958
24.77	0.045378
24.788	0.044805
24.806	0.044237
24.824	0.043669
24.842	0.043100
24.86	0.042537
24.878	0.041984
24.896	0.041443
24.914	0.040910
24.932	0.040385
24.95	0.039864
24.968	0.039348
24.986	0.038841
25.004	0.038348
25.022	0.037872
25.04	0.037407
25.058	0.036952
25.076	0.036504
25.094	0.036066
25.112	0.035634
25.13	0.035205
25.148	0.034779
25.166	0.034358
25.184	0.033943
25.202	0.033536
25.22	0.033135
25.238	0.032740
25.256	0.032349
25.274	0.031963
25.292	0.031581
25.31	0.031201
25.328	0.030824
25.346	0.030450
25.364	0.030078
25.382	0.029703
25.4	0.029325
25.418	0.028946
25.436	0.028567
25.454	0.028189
25.472	0.027813
25.49	0.027436
25.508	0.027059
25.526	0.026680
25.544	0.026300
25.562	0.025917
25.58	0.025532
25.598	0.025144
25.616	0.024753
25.634	0.024356
25.652	0.023950
25.67	0.023535
25.688	0.023115
25.706	0.022695
25.724	0.022275
25.742	0.021853
25.76	0.021432
25.778	0.021011
25.796	0.020593
25.814	0.020175
25.832	0.019756
25.85	0.019333
25.868	0.018905
25.886	0.018479
25.904	0.018062
25.922	0.017658
25.94	0.017261
25.958	0.016876
25.976	0.016506
25.994	0.016151
26.012	0.015809
26.03	0.015483
26.048	0.015176
26.066	0.014887
26.084	0.014615
26.102	0.014360
26.12	0.014122
26.138	0.013898
26.156	0.013692
26.174	0.013508
26.192	0.013350
26.21	0.013219
26.228	0.013104
26.246	0.012998
26.264	0.012897
26.282	0.012806
26.3	0.012725
26.318	0.012651
26.336	0.012585
26.354	0.012528
26.372	0.012478
26.39	0.012434
26.408	0.012399
26.426	0.012370
26.444	0.012344
26.462	0.012314
26.48	0.012286
26.498	0.012258
26.516	0.012226
26.534	0.012186
26.552	0.012140
26.57	0.012090
26.588	0.012038
26.606	0.011986
26.624	0.011932
26.642	0.011877
26.66	0.011821
26.678	0.011767
26.696	0.011713
26.714	0.011659
26.732	0.011605
26.75	0.011550
26.768	0.011493
26.786	0.011437
26.804	0.011387
26.822	0.011343
26.84	0.011304
26.858	0.011270
26.876	0.011239
26.894	0.011209
26.912	0.011182
26.93	0.011158
26.948	0.011139
26.966	0.011125
26.984	0.011118
27.002	0.011113
27.02	0.011111
27.028	0.011110