File: Bakgrunnsmateriale/MATLAB/FTIR/ftir_data/LPE453/Mapping_121/LPE453_t66.asc
PE IR       SPECTRUM    SPECTRUM    ASCII       PEDS        1.60
  -1
LPDBA1~1.ASC
17/05/16
19:43:44.00
17/05/16
19:44:10.00
tln
$LPE453_t0066$<tbV0>[-13.0,0.0,8.0,0.0,27,1,0]
27.028
64

2002,4.07
MIRTGS : RIGHTBACK : INTERNAL 2
MIR : ON : INTERNAL 2
OPTKBR

0.200000
8
8.000000
FILLER
RATIO
SPECTRUM
UNLOCKED 256

DOUBLE
64
COMBINED
1
0
0

0.002000
RATIO

1
0
TRUE
51149
0
LEFT NOT FITTED RIGHT NOT FITTED 0
NONE
NONE
15600
12
4.427000
51148
TRUE
1 0 8 72 0 0 0 0

15798

#HDR
-1
-1
#GR
µM
%T
2.38419e-05
0.0
2.000000
0.002000
12515
8
40.0426
-3.688245
#DATA
2.000000	 0.444149
2.018000	 -0.151156
2.036000	 -0.219744
2.054000	 -0.161608
2.072000	 0.070878
2.090000	 -0.400208
2.108000	 0.179885
2.126000	 -0.040452
2.144000	 0.594792
2.162000	 -0.370005
2.180000	 -0.437721
2.198000	 0.150385
2.216000	 -0.250851
2.234000	 4.319906
2.252000	 -0.077196
2.270000	 -0.175963
2.288000	 0.187445
2.306000	 0.358309
2.324000	 -0.087126
2.342000	 0.320868
2.360000	 0.289434
2.378000	 -0.319916
2.396000	 0.508262
2.414000	 0.061804
2.432000	 0.045677
2.450000	 0.129873
2.468000	 0.030964
2.486000	 -0.142903
2.504000	 0.051529
2.522000	 -0.076712
2.540000	 0.012685
2.558000	 0.091638
2.576000	 0.099872
2.594000	 0.050187
2.612000	 0.115636
2.630000	 0.209466
2.648000	 0.011475
2.666000	 0.001045
2.684000	 0.075643
2.702000	 0.140996
2.720000	 0.017037
2.738000	 -0.057233
2.756000	 -0.035986
2.774000	 -0.019831
2.792000	 0.040886
2.810000	 0.201536
2.828000	 0.058062
2.846000	 0.062513
2.864000	 0.018911
2.882000	 -0.054609
2.900000	 -0.030230
2.918000	 0.133680
2.936000	 0.122330
2.954000	 -0.043944
2.972000	 0.126190
2.990000	 0.054510
3.008000	 0.093530
3.026000	 -0.073985
3.044000	 0.101766
3.062000	 -0.076220
3.080000	 0.165592
3.098000	 0.061043
3.116000	 0.076953
3.134000	 -0.077964
3.152000	 0.019091
3.170000	 0.208895
3.188000	 0.087260
3.206000	 -0.034318
3.224000	 -0.095305
3.242000	 0.152907
3.260000	 -0.013103
3.278000	 -0.034214
3.296000	 -0.032642
3.314000	 0.001679
3.332000	 0.069736
3.350000	 0.008977
3.368000	 0.207693
3.386000	 0.027026
3.404000	 0.141426
3.422000	 0.100351
3.440000	 0.145188
3.458000	 -0.006161
3.476000	 -0.075559
3.494000	 -0.061447
3.512000	 -0.034508
3.530000	 0.144604
3.548000	 -0.063289
3.566000	 -0.017584
3.584000	 -0.002070
3.602000	 -0.057391
3.620000	 0.088399
3.638000	 0.024593
3.656000	 0.078230
3.674000	 0.036309
3.692000	 -0.100170
3.710000	 0.101730
3.728000	 0.037608
3.746000	 0.058733
3.764000	 0.018625
3.782000	 0.128173
3.800000	 0.075435
3.818000	 0.046235
3.836000	 -0.005868
3.854000	 0.000056
3.872000	 0.029676
3.890000	 0.034647
3.908000	 -0.039266
3.926000	 -0.010603
3.944000	 0.123818
3.962000	 0.012483
3.980000	 0.126946
3.998000	 -0.057181
4.016000	 0.014384
4.034000	 0.003301
4.052000	 0.044525
4.070000	 0.039023
4.088000	 0.123499
4.106000	 0.219943
4.124000	 -0.079056
4.141999	 -0.083394
4.160000	 0.112856
4.178000	 0.048217
4.196000	 0.019916
4.214000	 -0.008355
4.232000	 0.005600
4.250000	 0.032382
4.268000	 -0.133735
4.286000	 0.071740
4.304000	 0.010580
4.322000	 0.106630
4.340000	 0.137450
4.358000	 0.065730
4.375999	 0.210533
4.394000	 0.265345
4.412000	 0.286522
4.430000	 0.420885
4.448000	 0.568963
4.466000	 0.693291
4.484000	 0.850331
4.502000	 1.175567
4.520000	 1.486013
4.538000	 1.659060
4.556000	 2.091637
4.574000	 2.550265
4.592000	 2.984119
4.609999	 3.503369
4.628000	 4.002921
4.646000	 4.479234
4.664000	 5.173118
4.682000	 5.860931
4.700000	 6.645314
4.718000	 7.297623
4.736000	 8.015607
4.754000	 8.844962
4.772000	 9.661075
4.790000	 10.3051
4.808000	 11.1453
4.826000	 11.8607
4.843999	 12.7536
4.862000	 13.4106
4.880000	 14.1871
4.898000	 14.9215
4.916000	 15.6867
4.934000	 16.4131
4.952000	 17.1598
4.970000	 17.6452
4.988000	 18.1953
5.006000	 18.7438
5.024000	 19.2838
5.042000	 19.8688
5.060000	 20.4046
5.077999	 20.8962
5.096000	 21.2789
5.114000	 21.7201
5.132000	 22.1831
5.150000	 22.5937
5.168000	 22.9493
5.186000	 23.3113
5.204000	 23.6238
5.222000	 23.8657
5.240000	 24.1606
5.258000	 24.5136
5.276000	 24.7835
5.294000	 24.9991
5.312000	 25.2723
5.330000	 25.4528
5.348000	 25.6099
5.366000	 25.7983
5.384000	 26.0037
5.402000	 26.266
5.420000	 26.425
5.438000	 26.6134
5.456000	 26.7107
5.474000	 26.8035
5.492000	 26.9026
5.510000	 27.0897
5.528000	 27.2778
5.546000	 27.4876
5.564000	 27.6577
5.582000	 27.7929
5.600000	 27.8445
5.618000	 27.8264
5.636000	 27.8235
5.654000	 27.9185
5.672000	 28.1337
5.690000	 28.298
5.708000	 28.4356
5.726000	 28.4372
5.744000	 28.4007
5.762000	 28.3727
5.780000	 28.2675
5.798000	 28.3182
5.816000	 28.5781
5.834000	 28.7128
5.852000	 28.8957
5.870000	 28.9863
5.888000	 28.9645
5.906000	 28.9812
5.923999	 28.8967
5.942000	 28.8519
5.960000	 28.9275
5.978000	 28.9829
5.996000	 29.1249
6.014000	 29.2993
6.032000	 29.3822
6.050000	 29.3259
6.068000	 29.2656
6.086000	 29.1726
6.104000	 29.0758
6.122000	 29.1467
6.140000	 29.2524
6.158000	 29.285
6.176000	 29.3596
6.194000	 29.4691
6.212000	 29.507
6.230000	 29.45
6.248000	 29.4126
6.266000	 29.3759
6.284000	 29.3254
6.302000	 29.2761
6.320000	 29.294
6.338000	 29.3768
6.356000	 29.4933
6.374000	 29.6177
6.392000	 29.694
6.410000	 29.7137
6.428000	 29.6678
6.446000	 29.6429
6.464000	 29.5957
6.482000	 29.5082
6.500000	 29.4711
6.518000	 29.4759
6.536000	 29.519
6.554000	 29.6542
6.572000	 29.819
6.590000	 29.8571
6.608000	 29.7882
6.626000	 29.6991
6.644000	 29.6005
6.662000	 29.4922
6.680000	 29.4166
6.698000	 29.4548
6.716000	 29.5521
6.734000	 29.6385
6.752000	 29.7184
6.770000	 29.7892
6.788000	 29.8509
6.806000	 29.8897
6.824000	 29.931
6.842000	 29.9484
6.860000	 29.8404
6.878000	 29.639
6.896000	 29.4795
6.914000	 29.4247
6.932000	 29.4649
6.950000	 29.5347
6.968000	 29.5929
6.986000	 29.6832
7.004000	 29.7764
7.022000	 29.7973
7.040000	 29.7594
7.058000	 29.6985
7.076000	 29.6457
7.094000	 29.6108
7.112000	 29.5436
7.130000	 29.4321
7.148000	 29.3445
7.166000	 29.3382
7.184000	 29.4104
7.202000	 29.4889
7.220000	 29.5004
7.238000	 29.4857
7.256000	 29.5184
7.274000	 29.5744
7.292000	 29.5901
7.310000	 29.567
7.328000	 29.5343
7.346000	 29.4804
7.364000	 29.3871
7.382000	 29.2753
7.400000	 29.1762
7.418000	 29.1236
7.436000	 29.1598
7.454000	 29.2834
7.472000	 29.4246
7.490000	 29.5133
7.508000	 29.5326
7.526000	 29.5023
7.544000	 29.4645
7.562000	 29.4554
7.580000	 29.4541
7.598000	 29.4116
7.616000	 29.327
7.634000	 29.231
7.652000	 29.1331
7.670000	 29.0412
7.688000	 28.9862
7.706000	 28.9871
7.724000	 29.03
7.742000	 29.098
7.760000	 29.1897
7.778000	 29.2961
7.796000	 29.3856
7.814000	 29.4316
7.832000	 29.4224
7.850000	 29.3516
7.868000	 29.2344
7.886000	 29.1244
7.904000	 29.0722
7.922000	 29.0648
7.940000	 29.0383
7.958000	 28.9613
7.976000	 28.8872
7.994000	 28.8906
8.012000	 28.9656
8.030000	 29.0352
8.048000	 29.0623
8.065999	 29.0784
8.084000	 29.1098
8.102000	 29.1447
8.120000	 29.1623
8.138000	 29.1517
8.155999	 29.1163
8.173999	 29.0635
8.192000	 28.9858
8.210000	 28.8684
8.228000	 28.734
8.246000	 28.6395
8.263999	 28.6053
8.282000	 28.5954
8.300000	 28.575
8.318000	 28.5593
8.336000	 28.5946
8.353999	 28.689
8.372000	 28.7912
8.390000	 28.8491
8.408000	 28.867
8.426000	 28.8863
8.443999	 28.922
8.462000	 28.9441
8.480000	 28.9184
8.498000	 28.8429
8.516000	 28.7417
8.533999	 28.6362
8.552000	 28.5302
8.570000	 28.4136
8.588000	 28.2795
8.606000	 28.1492
8.624000	 28.0672
8.641999	 28.0594
8.660000	 28.1091
8.678000	 28.1835
8.696000	 28.2665
8.714000	 28.3539
8.731999	 28.4287
8.750000	 28.4657
8.768000	 28.4631
8.786000	 28.4519
8.804000	 28.459
8.821999	 28.4769
8.840000	 28.4767
8.858000	 28.444
8.876000	 28.3877
8.894000	 28.3227
8.911999	 28.2552
8.930000	 28.1822
8.948000	 28.0952
8.966000	 27.9851
8.984000	 27.8592
9.001999	 27.7532
9.020000	 27.7132
9.038000	 27.7544
9.056000	 27.8428
9.074000	 27.9225
9.092000	 27.9623
9.109999	 27.9757
9.128000	 27.996
9.146000	 28.0392
9.164000	 28.0917
9.182000	 28.1295
9.199999	 28.1419
9.218000	 28.1337
9.236000	 28.1086
9.254000	 28.0594
9.272000	 27.9769
9.289999	 27.8665
9.308000	 27.7478
9.326000	 27.6394
9.344000	 27.5467
9.362000	 27.4653
9.379999	 27.3938
9.398000	 27.3394
9.416000	 27.3133
9.434000	 27.3197
9.452000	 27.3517
9.469999	 27.3935
9.488000	 27.4301
9.506000	 27.4579
9.524000	 27.487
9.542000	 27.5301
9.560000	 27.5882
9.577999	 27.6464
9.596000	 27.6853
9.614000	 27.6918
9.632000	 27.6654
9.650000	 27.6153
9.667999	 27.5576
9.686000	 27.5068
9.704000	 27.4693
9.722000	 27.4365
9.740000	 27.3883
9.757999	 27.3081
9.776000	 27.1981
9.794000	 27.0816
9.812000	 26.9883
9.830000	 26.9329
9.847999	 26.9067
9.866000	 26.8902
9.884000	 26.8715
9.902000	 26.8555
9.920000	 26.8577
9.937999	 26.8873
9.956000	 26.9385
9.974000	 26.9948
9.992000	 27.0404
10.01	27.0689
10.028	27.0823
10.046	27.0853
10.064	27.0791
10.082	27.0626
10.1	27.0337
10.118	26.9934
10.136	26.9444
10.154	26.8892
10.172	26.8287
10.19	26.7612
10.208	26.6843
10.226	26.5964
10.244	26.4992
10.262	26.4004
10.28	26.312
10.298	26.2455
10.316	26.2063
10.334	26.1911
10.352	26.191
10.37	26.1956
10.388	26.1999
10.406	26.2039
10.424	26.2111
10.442	26.2246
10.46	26.2448
10.478	26.2704
10.496	26.2999
10.514	26.3329
10.532	26.3704
10.55	26.4136
10.568	26.4629
10.586	26.5144
10.604	26.5595
10.622	26.5854
10.64	26.5789
10.658	26.5321
10.676	26.446
10.694	26.3314
10.712	26.2073
10.73	26.093
10.748	26.0027
10.766	25.9388
10.784	25.8922
10.802	25.8453
10.82	25.7813
10.838	25.6908
10.856	25.578
10.874	25.4594
10.892	25.3565
10.91	25.2895
10.928	25.2666
10.946	25.285
10.964	25.3329
10.982	25.3937
11	25.4542
11.018	25.5059
11.036	25.5472
11.054	25.5812
11.072	25.6125
11.09	25.6442
11.108	25.6762
11.126	25.7057
11.144	25.728
11.162	25.7399
11.18	25.7392
11.198	25.725
11.216	25.696
11.234	25.6502
11.252	25.5847
11.27	25.4977
11.288	25.39
11.306	25.2675
11.324	25.1415
11.342	25.0265
11.36	24.9353
11.378	24.8766
11.396	24.8506
11.414	24.8492
11.432	24.8601
11.45	24.871
11.468	24.8736
11.486	24.8673
11.504	24.8569
11.522	24.8489
11.54	24.8477
11.558	24.8528
11.576	24.8599
11.594	24.864
11.612	24.8618
11.63	24.8535
11.648	24.8423
11.666	24.8314
11.684	24.8223
11.702	24.8144
11.72	24.8063
11.738	24.797
11.756	24.7876
11.774	24.7814
11.792	24.7808
11.81	24.7854
11.828	24.7919
11.846	24.7945
11.864	24.7886
11.882	24.7718
11.9	24.7452
11.918	24.7117
11.936	24.6735
11.954	24.6305
11.972	24.5794
11.99	24.5156
12.008	24.4354
12.026	24.339
12.044	24.2315
12.062	24.1236
12.08	24.0282
12.098	23.9564
12.116	23.9151
12.134	23.9037
12.152	23.915
12.17	23.9379
12.188	23.9603
12.206	23.9727
12.224	23.9702
12.242	23.9533
12.26	23.9262
12.278	23.8958
12.296	23.8705
12.314	23.8576
12.332	23.8617
12.35	23.8838
12.368	23.9208
12.386	23.966
12.404	24.0112
12.422	24.0487
12.44	24.0733
12.458	24.0829
12.476	24.0788
12.494	24.0649
12.512	24.0464
12.53	24.0278
12.548	24.0125
12.566	24.0018
12.584	23.9943
12.602	23.9862
12.62	23.9727
12.638	23.9495
12.656	23.9138
12.674	23.8654
12.692	23.8065
12.71	23.7421
12.728	23.6779
12.746	23.6191
12.764	23.569
12.782	23.5276
12.8	23.4924
12.818	23.4586
12.836	23.4211
12.854	23.3754
12.872	23.3195
12.89	23.2548
12.908	23.1853
12.926	23.1178
12.944	23.0593
12.962	23.017
12.98	22.9967
12.998	23.001
13.016	23.0291
13.034	23.0773
13.052	23.1386
13.07	23.2043
13.088	23.2648
13.106	23.3115
13.124	23.3385
13.142	23.3432
13.16	23.3268
13.178	23.2946
13.196	23.2545
13.214	23.2154
13.232	23.1856
13.25	23.171
13.268	23.1743
13.286	23.1942
13.304	23.2264
13.322	23.2636
13.34	23.298
13.358	23.3219
13.376	23.329
13.394	23.3145
13.412	23.2762
13.43	23.2133
13.448	23.1266
13.466	23.0189
13.484	22.8945
13.502	22.7597
13.52	22.6223
13.538	22.4916
13.556	22.3772
13.574	22.2878
13.592	22.2296
13.61	22.2052
13.628	22.213
13.646	22.2474
13.664	22.3003
13.682	22.3609
13.7	22.4193
13.718	22.4667
13.736	22.4976
13.754	22.5094
13.772	22.5032
13.79	22.4819
13.808	22.4505
13.826	22.4136
13.844	22.3753
13.862	22.3386
13.88	22.3054
13.898	22.2762
13.916	22.2511
13.934	22.2301
13.952	22.2136
13.97	22.2023
13.988	22.1969
14.006	22.1988
14.024	22.2086
14.042	22.2265
14.06	22.2518
14.078	22.2825
14.096	22.3156
14.114	22.3478
14.132	22.376
14.15	22.3972
14.168	22.4096
14.186	22.4121
14.204	22.4055
14.222	22.3912
14.24	22.3715
14.258	22.3481
14.276	22.3225
14.294	22.2954
14.312	22.2661
14.33	22.2337
14.348	22.196
14.366	22.1512
14.384	22.0976
14.402	22.0349
14.42	21.9642
14.438	21.8875
14.456	21.8084
14.474	21.7308
14.492	21.6587
14.51	21.596
14.528	21.5454
14.546	21.5079
14.564	21.4832
14.582	21.4698
14.6	21.4649
14.618	21.4654
14.636	21.4675
14.654	21.4684
14.672	21.4657
14.69	21.4582
14.708	21.4457
14.726	21.429
14.744	21.4104
14.762	21.3923
14.78	21.3771
14.798	21.3669
14.816	21.3635
14.834	21.3677
14.852	21.3791
14.87	21.3957
14.888	21.4148
14.906	21.4334
14.924	21.4477
14.942	21.4539
14.96	21.4497
14.978	21.4339
14.996	21.4069
15.014	21.3706
15.032	21.3284
15.05	21.2853
15.068	21.2461
15.086	21.2155
15.104	21.1978
15.122	21.1961
15.14	21.2113
15.158	21.2428
15.176	21.2884
15.194	21.3449
15.212	21.4073
15.23	21.4705
15.248	21.5299
15.266	21.5805
15.284	21.6181
15.302	21.6394
15.32	21.6429
15.338	21.6276
15.356	21.5935
15.374	21.5422
15.392	21.4758
15.41	21.3965
15.428	21.3074
15.446	21.2119
15.464	21.1132
15.482	21.0143
15.5	20.9181
15.518	20.8276
15.536	20.7442
15.554	20.6694
15.572	20.6039
15.59	20.548
15.608	20.501
15.626	20.4622
15.644	20.4303
15.662	20.4036
15.68	20.3807
15.698	20.3604
15.716	20.3414
15.734	20.3231
15.752	20.3052
15.77	20.2877
15.788	20.2714
15.806	20.2568
15.824	20.2447
15.842	20.2359
15.86	20.2306
15.878	20.2286
15.896	20.2295
15.914	20.232
15.932	20.2344
15.95	20.2353
15.968	20.2329
15.986	20.2259
16.004	20.2142
16.022	20.1977
16.04	20.1776
16.058	20.1558
16.076	20.1338
16.094	20.1146
16.112	20.1006
16.13	20.0931
16.148	20.094
16.166	20.1032
16.184	20.1202
16.202	20.1438
16.22	20.1712
16.238	20.2002
16.256	20.2284
16.274	20.2527
16.292	20.2718
16.31	20.2841
16.328	20.2892
16.346	20.2876
16.364	20.28
16.382	20.2681
16.4	20.2535
16.418	20.2374
16.436	20.2213
16.454	20.2058
16.472	20.1913
16.49	20.1777
16.508	20.1648
16.526	20.1521
16.544	20.1391
16.562	20.1253
16.58	20.1106
16.598	20.0949
16.616	20.0785
16.634	20.0615
16.652	20.0446
16.67	20.0281
16.688	20.0124
16.706	19.9977
16.724	19.9839
16.742	19.9712
16.76	19.959
16.778	19.9471
16.796	19.9352
16.814	19.9229
16.832	19.9098
16.85	19.8958
16.868	19.8808
16.886	19.8649
16.904	19.8483
16.922	19.831
16.94	19.8132
16.958	19.7951
16.976	19.7765
16.994	19.7575
17.012	19.7379
17.03	19.7175
17.048	19.6961
17.066	19.6733
17.084	19.6489
17.102	19.6226
17.12	19.5945
17.138	19.5641
17.156	19.5313
17.174	19.496
17.192	19.4578
17.21	19.4168
17.228	19.3726
17.246	19.3254
17.264	19.275
17.282	19.2221
17.3	19.167
17.318	19.1106
17.336	19.0539
17.354	18.9977
17.372	18.944
17.39	18.8934
17.408	18.8479
17.426	18.8086
17.444	18.7762
17.462	18.752
17.48	18.7359
17.498	18.7283
17.516	18.7286
17.534	18.7368
17.552	18.751
17.57	18.771
17.588	18.7947
17.606	18.8212
17.624	18.8489
17.642	18.8766
17.66	18.9036
17.678	18.9285
17.696	18.9512
17.714	18.9711
17.732	18.9882
17.75	19.0022
17.768	19.0134
17.786	19.0221
17.804	19.0288
17.822	19.0336
17.84	19.0375
17.858	19.0408
17.876	19.0441
17.894	19.0482
17.912	19.0534
17.93	19.0606
17.948	19.0698
17.966	19.0814
17.984	19.0951
18.002	19.1108
18.02	19.1274
18.038	19.1444
18.056	19.16
18.074	19.1736
18.092	19.1828
18.11	19.1873
18.128	19.1847
18.146	19.175
18.164	19.1567
18.182	19.13
18.2	19.0946
18.218	19.0516
18.236	19.0012
18.254	18.9459
18.272	18.8858
18.29	18.8246
18.308	18.7624
18.326	18.7029
18.344	18.6462
18.362	18.595
18.38	18.5493
18.398	18.5106
18.416	18.4786
18.434	18.4537
18.452	18.4351
18.47	18.4225
18.488	18.4145
18.506	18.4106
18.524	18.4094
18.542	18.4106
18.56	18.4127
18.578	18.4155
18.596	18.4186
18.614	18.4219
18.632	18.4252
18.65	18.4287
18.668	18.4329
18.686	18.4379
18.704	18.4439
18.722	18.451
18.74	18.4594
18.758	18.469
18.776	18.4796
18.794	18.4908
18.812	18.5022
18.83	18.5131
18.848	18.5228
18.866	18.5304
18.884	18.5349
18.902	18.5356
18.92	18.5313
18.938	18.5216
18.956	18.5053
18.974	18.4822
18.992	18.4515
19.01	18.4134
19.028	18.3676
19.046	18.3147
19.064	18.2551
19.082	18.1895
19.1	18.1191
19.118	18.0448
19.136	17.9686
19.154	17.8913
19.172	17.8153
19.19	17.7413
19.208	17.6722
19.226	17.6084
19.244	17.5526
19.262	17.505
19.28	17.4677
19.298	17.4406
19.316	17.4249
19.334	17.4205
19.352	17.4271
19.37	17.4448
19.388	17.4718
19.406	17.5084
19.424	17.5517
19.442	17.6019
19.46	17.6557
19.478	17.713
19.496	17.7707
19.514	17.8281
19.532	17.8829
19.55	17.934
19.568	17.9801
19.586	18.0198
19.604	18.053
19.622	18.0782
19.64	18.0958
19.658	18.1054
19.676	18.1072
19.694	18.1016
19.712	18.0888
19.73	18.07
19.748	18.0452
19.766	18.016
19.784	17.9826
19.802	17.9462
19.82	17.9076
19.838	17.8672
19.856	17.8265
19.874	17.7854
19.892	17.7449
19.91	17.7051
19.928	17.6665
19.946	17.6293
19.964	17.5934
19.982	17.5589
20	17.5258
20.018	17.4941
20.036	17.4636
20.054	17.4341
20.072	17.4058
20.09	17.3787
20.108	17.3526
20.126	17.3279
20.144	17.3044
20.162	17.2826
20.18	17.2627
20.198	17.245
20.216	17.2299
20.234	17.2175
20.252	17.2085
20.27	17.2029
20.288	17.2013
20.306	17.2037
20.324	17.2103
20.342	17.2212
20.36	17.2362
20.378	17.2549
20.396	17.2773
20.414	17.3022
20.432	17.3297
20.45	17.3582
20.468	17.3872
20.486	17.4161
20.504	17.4427
20.522	17.4675
20.54	17.4881
20.558	17.5049
20.576	17.5163
20.594	17.5217
20.612	17.5211
20.63	17.5134
20.648	17.4987
20.666	17.4773
20.684	17.449
20.702	17.4148
20.72	17.3751
20.738	17.3304
20.756	17.2832
20.774	17.2326
20.792	17.1819
20.81	17.131
20.828	17.0815
20.846	17.0358
20.864	16.9933
20.882	16.9568
20.9	16.9263
20.918	16.9027
20.936	16.8871
20.954	16.879
20.972	16.8788
20.99	16.8867
21.008	16.9012
21.026	16.9224
21.044	16.9494
21.062	16.9798
21.08	17.0144
21.098	17.0497
21.116	17.0854
21.134	17.1202
21.152	17.1509
21.17	17.1785
21.188	17.2001
21.206	17.2152
21.224	17.2237
21.242	17.2243
21.26	17.2173
21.278	17.2032
21.296	17.1816
21.314	17.1536
21.332	17.1209
21.35	17.0827
21.368	17.0424
21.386	17.0005
21.404	16.9578
21.422	16.9179
21.44	16.8797
21.458	16.8459
21.476	16.8179
21.494	16.7952
21.512	16.7791
21.53	16.7699
21.548	16.7668
21.566	16.77
21.584	16.7791
21.602	16.7914
21.62	16.8077
21.638	16.8256
21.656	16.8423
21.674	16.859
21.692	16.8716
21.71	16.8792
21.728	16.8815
21.746	16.8746
21.764	16.8594
21.782	16.8346
21.8	16.7988
21.818	16.7527
21.836	16.6967
21.854	16.6302
21.872	16.5547
21.89	16.4728
21.908	16.3833
21.926	16.29
21.944	16.1951
21.962	16.0978
21.98	16.0037
21.998	15.9126
22.016	15.826
22.034	15.7488
22.052	15.6795
22.07	15.6204
22.088	15.5737
22.106	15.5383
22.124	15.5147
22.142	15.5037
22.16	15.504
22.178	15.5133
22.196	15.533
22.214	15.5601
22.232	15.591
22.25	15.6278
22.268	15.6654
22.286	15.7012
22.304	15.7365
22.322	15.766
22.34	15.7893
22.358	15.8061
22.376	15.8125
22.394	15.809
22.412	15.7952
22.43	15.7692
22.448	15.7313
22.466	15.6823
22.484	15.6219
22.502	15.5502
22.52	15.4692
22.538	15.3797
22.556	15.2815
22.574	15.1773
22.592	15.0673
22.61	14.9518
22.628	14.8336
22.646	14.7122
22.664	14.5885
22.682	14.4651
22.7	14.3409
22.718	14.2175
22.736	14.0968
22.754	13.9779
22.772	13.8622
22.79	13.7507
22.808	13.6427
22.826	13.5398
22.844	13.4429
22.862	13.3513
22.88	13.2666
22.898	13.1894
22.916	13.119
22.934	13.0578
22.952	13.0059
22.97	12.9632
22.988	12.9318
23.006	12.9118
23.024	12.903
23.042	12.9076
23.06	12.9261
23.078	12.9578
23.096	13.0034
23.114	13.0629
23.132	13.1359
23.15	13.2223
23.168	13.3224
23.186	13.4356
23.204	13.5599
23.222	13.6961
23.24	13.8433
23.258	13.9988
23.276	14.1636
23.294	14.3365
23.312	14.514
23.33	14.6969
23.348	14.8842
23.366	15.0722
23.384	15.2614
23.402	15.4514
23.42	15.6386
23.438	15.8234
23.456	16.0056
23.474	16.1819
23.492	16.3522
23.51	16.5167
23.528	16.6727
23.546	16.8198
23.564	16.9587
23.582	17.0866
23.6	17.2029
23.618	17.3083
23.636	17.4008
23.654	17.4796
23.672	17.5455
23.69	17.5967
23.708	17.6322
23.726	17.6528
23.744	17.6575
23.762	17.6451
23.78	17.6164
23.798	17.5709
23.816	17.5082
23.834	17.4281
23.852	17.3315
23.87	17.219
23.888	17.0904
23.906	16.946
23.924	16.7866
23.942	16.6121
23.96	16.4225
23.978	16.2189
23.996	16.0011
24.014	15.7692
24.032	15.5249
24.05	15.2694
24.068	15.0013
24.086	14.7236
24.104	14.4393
24.122	14.1463
24.14	13.8468
24.158	13.5443
24.176	13.2367
24.194	12.9259
24.212	12.6164
24.23	12.3079
24.248	11.9999
24.266	11.6982
24.284	11.4057
24.302	11.1185
24.32	10.8435
24.338	10.5866
24.356	10.3433
24.374	10.1179
24.392	9.917463
24.41	9.739904
24.428	9.585714
24.446	9.461617
24.464	9.370530
24.482	9.309165
24.5	9.280535
24.518	9.287370
24.536	9.328244
24.554	9.403124
24.572	9.512581
24.59	9.657217
24.608	9.835974
24.626	10.0472
24.644	10.2909
24.662	10.5682
24.68	10.8743
24.698	11.2053
24.716	11.5659
24.734	11.9504
24.752	12.3503
24.77	12.7668
24.788	13.2012
24.806	13.6425
24.824	14.0839
24.842	14.5331
24.86	14.9811
24.878	15.4166
24.896	15.844
24.914	16.262
24.932	16.6601
24.95	17.0327
24.968	17.3866
24.986	17.7144
25.004	18.008
25.022	18.2708
25.04	18.5022
25.058	18.6974
25.076	18.8537
25.094	18.9739
25.112	19.0572
25.13	19.1028
25.148	19.1093
25.166	19.079
25.184	19.0156
25.202	18.9197
25.22	18.7887
25.238	18.6291
25.256	18.4475
25.274	18.2385
25.292	18.0057
25.31	17.7596
25.328	17.5049
25.346	17.2338
25.364	16.9568
25.382	16.686
25.4	16.4167
25.418	16.1489
25.436	15.8956
25.454	15.6661
25.472	15.4505
25.49	15.2566
25.508	15.0967
25.526	14.972
25.544	14.8766
25.562	14.8207
25.58	14.8137
25.598	14.8502
25.616	14.9313
25.634	15.0641
25.652	15.2528
25.67	15.4924
25.688	15.7857
25.706	16.1368
25.724	16.5468
25.742	17.0136
25.76	17.536
25.778	18.1133
25.796	18.748
25.814	19.437
25.832	20.1752
25.85	20.9603
25.868	21.7991
25.886	22.6814
25.904	23.5952
25.922	24.5405
25.94	25.5241
25.958	26.5299
25.976	27.542
25.994	28.5718
26.012	29.6165
26.03	30.6532
26.048	31.6633
26.066	32.6675
26.084	33.6526
26.102	34.5925
26.12	35.4723
26.138	36.3156
26.156	37.1016
26.174	37.8033
26.192	38.4141
26.21	38.9529
26.228	39.3975
26.246	39.724
26.264	39.9328
26.282	40.0348
26.3	40.0159
26.318	39.8626
26.336	39.5759
26.354	39.1616
26.372	38.6197
26.39	37.9497
26.408	37.143
26.426	36.2098
26.444	35.1666
26.462	34.025
26.48	32.762
26.498	31.3982
26.516	29.9667
26.534	28.4889
26.552	26.9296
26.57	25.3178
26.588	23.695
26.606	22.0846
26.624	20.447
26.642	18.8144
26.66	17.2288
26.678	15.7117
26.696	14.2267
26.714	12.8011
26.732	11.4688
26.75	10.2467
26.768	9.107575
26.786	8.068225
26.804	7.149187
26.822	6.362347
26.84	5.693895
26.858	5.145134
26.876	4.718833
26.894	4.420013
26.912	4.250593
26.93	4.197545
26.948	4.247177
26.966	4.423673
26.984	4.783684
27.002	5.202786
27.02	5.544880
27.028	5.628299