File: Bakgrunnsmateriale/MATLAB/FTIR/ftir_data/LPE453/Mapping_121/LPE453_t118_cm-1.asc
PE IR       SPECTRUM    SPECTRUM    ASCII       PEDS        1.60
  -1
LP0BFC~1.ASC
17/05/17
00:18:36.00
17/05/17
00:18:36.00
tln
$LPE453_t0118$<tbV0>[-5.2,13.0,8.0,0.0,27,1,0]
370
64

2002,4.07
MIRTGS : RIGHTBACK : INTERNAL 2
MIR : ON : INTERNAL 2
OPTKBR

0.200000
8
8.000000
FILLER
RATIO
SPECTRUM
UNLOCKED 256

DOUBLE
64
COMBINED
1
0
0

1.000000
RATIO

1
0
TRUE
51149
0
LEFT NOT FITTED RIGHT NOT FITTED 0
NONE
NONE
15600
12
4.427000
51148
TRUE
1 0 8 72 0 0 0 0

15798

#HDR
-1
-1
#GR
CM-1
%T
2.38419e-05
0.0
5000
-1.000000
4631
8
35.4883
-1.961374
#DATA
5000	0.307250
4996	0.860953
4992	1.068854
4988	0.776553
4984	0.162577
4980	-0.258207
4976	-0.104475
4972	0.283861
4968	0.312757
4964	0.042295
4960	-0.139355
4956	-0.149703
4952	0.040817
4948	0.290441
4944	0.328159
4940	0.123023
4936	-0.252819
4932	-0.612545
4928	-0.512480
4924	-0.000619
4920	0.114750
4916	-0.161290
4912	-0.158929
4908	0.042438
4904	0.206995
4900	0.285339
4896	0.339388
4892	0.358915
4888	0.160527
4884	-0.157499
4880	-0.365591
4876	-0.273966
4872	0.084471
4868	0.328683
4864	0.236463
4860	0.116467
4856	0.199651
4852	0.292849
4848	0.304007
4844	0.230121
4840	0.038552
4836	-0.136804
4832	-0.080776
4828	0.182962
4824	0.344944
4820	0.238752
4816	0.068736
4812	0.112056
4808	0.216269
4804	0.165629
4800	0.026011
4796	-0.166940
4792	-0.214314
4788	0.082588
4784	0.433492
4780	0.452136
4776	0.209450
4772	0.015163
4768	-0.051450
4764	0.042819
4760	0.281739
4756	0.270295
4752	-0.042152
4748	-0.266003
4744	-0.292253
4740	-0.233459
4736	-0.092124
4732	-0.055217
4728	-0.213861
4724	-0.231242
4720	0.113677
4716	0.608396
4712	0.837898
4708	0.520014
4704	0.257730
4700	0.267171
4696	-0.001597
4692	0.028109
4688	0.584197
4684	0.909280
4680	0.736236
4676	0.547885
4672	0.679016
4668	0.054907
4664	-1.298093
4660	-1.266431
4656	-0.293827
4652	0.132870
4648	0.818109
4644	2.162027
4640	2.500963
4636	1.180434
4632	0.264549
4628	0.185585
4624	-0.317978
4620	-0.551700
4616	-0.033187
4612	0.641059
4608	1.072883
4604	1.042842
4600	0.342202
4596	-0.258040
4592	-0.223875
4588	-0.030422
4584	0.001430
4580	-0.225043
4576	-0.837159
4572	-1.256680
4568	-0.857019
4564	-0.080132
4560	0.754094
4556	1.205706
4552	1.019048
4548	0.667881
4544	0.568461
4540	0.395059
4536	-0.244975
4532	-0.806641
4528	-0.742459
4524	-0.502824
4520	0.274133
4516	2.069997
4512	4.292464
4508	5.421853
4504	3.448796
4500	-1.080656
4496	-0.433754
4492	6.491565
4488	7.229208
4484	4.004502
4480	2.175641
4476	0.284647
4472	0.425815
4468	0.698614
4464	0.479817
4460	0.661468
4456	0.697040
4452	0.301599
4448	-0.092029
4444	-0.192546
4440	-0.313258
4436	-0.373339
4432	-0.086641
4428	0.328445
4424	0.448274
4420	0.233626
4416	-0.075030
4412	-0.372457
4408	-0.558972
4404	-0.634932
4400	-0.608515
4396	-0.345396
4392	-0.162577
4388	-0.179505
4384	-0.163674
4380	-0.289154
4376	-0.495028
4372	-0.220036
4368	0.288677
4364	0.390434
4360	0.378918
4356	0.463843
4352	0.335097
4348	0.216960
4344	0.364017
4340	0.449013
4336	0.105953
4332	-0.372624
4328	-0.351500
4324	-0.098490
4320	0.005006
4316	0.143218
4312	0.355529
4308	0.300383
4304	-0.006055
4300	-0.124096
4296	0.014233
4292	0.101709
4288	0.078368
4284	0.075960
4280	0.161457
4276	0.184226
4272	0.116920
4268	0.099229
4264	0.096249
4260	0.078582
4256	0.097203
4252	0.216746
4248	0.335192
4244	0.299429
4240	0.215554
4236	0.111174
4232	0.085163
4228	0.203466
4224	0.191116
4220	0.033307
4216	-0.001525
4212	-0.008559
4208	-0.072264
4204	0.036096
4200	0.273132
4196	0.397801
4192	0.308156
4188	0.090718
4184	-0.070118
4180	-0.164270
4176	-0.090003
4172	0.143170
4168	0.165820
4164	0.027680
4160	-0.027275
4156	-0.021171
4152	-0.060701
4148	-0.169587
4144	-0.190305
4140	-0.109577
4136	0.026297
4132	0.141859
4128	0.073504
4124	-0.070261
4120	-0.101280
4116	-0.001931
4112	0.075435
4108	0.027227
4104	-0.031185
4100	0.014781
4096	0.069379
4092	0.033497
4088	0.015616
4084	0.023818
4080	0.098752
4076	0.245285
4072	0.209331
4068	0.037932
4064	-0.096130
4060	-0.126767
4056	-0.044727
4052	0.014257
4048	0.032377
4044	0.034379
4040	-0.074386
4036	-0.168681
4032	-0.081491
4028	0.030636
4024	0.106525
4020	0.162553
4016	0.161433
4012	0.096058
4008	0.005483
4004	0.010967
4000	-0.007510
3996	-0.002598
3992	0.164103
3988	0.257229
3984	0.192523
3980	0.092029
3976	-0.035738
3972	-0.113391
3968	-0.149893
3964	-0.212597
3960	-0.192523
3956	-0.047111
3952	0.073599
3948	0.067925
3944	-0.009822
3940	-0.067639
3936	-0.077867
3932	-0.065374
3928	-0.015521
3924	0.082015
3920	0.164079
3916	0.185608
3912	0.157785
3908	0.099849
3904	0.069046
3900	0.102567
3896	0.145888
3892	0.146436
3888	0.129699
3884	0.115108
3880	0.052690
3876	0.063157
3872	0.189685
3868	0.216555
3864	0.117874
3860	0.054001
3856	0.073528
3852	0.068783
3848	0.079727
3844	0.161552
3840	0.188827
3836	0.187516
3832	0.173449
3828	0.080943
3824	0.015473
3820	0.029683
3816	0.042867
3812	0.017452
3808	0.001335
3804	0.028133
3800	0.038909
3796	-0.026178
3792	-0.074386
3788	0.011277
3784	0.074005
3780	0.025629
3776	0.004673
3772	0.016880
3768	0.063729
3764	0.128817
3760	0.121402
3756	0.025129
3752	-0.029850
3748	0.019240
3744	0.080060
3740	0.128126
3736	0.146365
3732	0.094485
3728	0.045084
3724	0.006580
3720	0.028109
3716	0.126290
3712	0.134968
3708	0.038480
3704	-0.052928
3700	-0.071978
3696	0.023913
3692	0.146603
3688	0.193715
3684	0.173974
3680	0.085425
3676	0.012826
3672	0.045228
3668	0.065517
3664	0.067710
3660	0.109362
3656	0.131607
3652	0.092267
3648	-0.008153
3644	-0.055480
3640	-0.022697
3636	-0.007271
3632	0.035595
3628	0.075745
3624	0.040578
3620	0.028061
3616	0.061297
3612	0.091338
3608	0.093173
3604	0.032854
3600	-0.014853
3596	-0.008511
3592	-0.012087
3588	-0.031161
3584	-0.040626
3580	0.014138
3576	0.111317
3572	0.141477
3568	0.107645
3564	0.102758
3560	0.162887
3556	0.179147
3552	0.101876
3548	0.014972
3544	-0.064587
3540	-0.063323
3536	0.099968
3532	0.254654
3528	0.224208
3524	0.108528
3520	0.030446
3516	-0.012564
3512	0.005149
3508	0.103378
3504	0.221538
3500	0.216627
3496	0.077033
3492	0.024318
3488	0.105929
3484	0.143599
3480	0.106883
3476	0.110912
3472	0.140213
3468	0.144505
3464	0.127601
3460	0.060153
3456	0.028967
3452	0.126838
3448	0.203943
3444	0.156044
3440	0.083494
3436	-0.001358
3432	-0.070786
3428	-0.075006
3424	-0.029826
3420	0.031280
3416	0.047183
3412	0.106358
3408	0.180029
3404	0.155138
3400	0.116395
3396	0.056481
3392	-0.022053
3388	-0.006771
3384	0.027966
3380	0.007867
3376	0.024533
3372	0.035262
3368	-0.047755
3364	-0.117945
3360	-0.063800
3356	0.016260
3352	-0.010967
3348	-0.090312
3344	-0.098800
3340	-0.026941
3336	0.052356
3332	0.115728
3328	0.148439
3324	0.124120
3320	0.110673
3316	0.117683
3312	0.087666
3308	0.060272
3304	0.040125
3300	0.017905
3296	0.057053
3292	0.122475
3288	0.101447
3284	-0.007057
3280	-0.080084
3276	-0.038480
3272	0.020480
3268	0.011110
3264	-0.025320
3260	-0.033402
3256	-0.002479
3252	0.060987
3248	0.179123
3244	0.279402
3240	0.259804
3236	0.135636
3232	-0.024819
3228	-0.088834
3224	0.014996
3220	0.139284
3216	0.121879
3212	0.021362
3208	0.003123
3204	0.042200
3200	0.018739
3196	-0.019574
3192	-0.020861
3188	-0.026774
3184	0.000882
3180	0.070738
3176	0.072050
3172	0.007677
3168	0.039768
3164	0.157690
3160	0.177931
3156	0.137376
3152	0.167942
3148	0.221204
3144	0.227332
3140	0.196981
3136	0.132441
3132	0.050210
3128	-0.008130
3124	-0.045466
3120	-0.051665
3116	0.028109
3112	0.166678
3108	0.219440
3104	0.123739
3100	-0.044846
3096	-0.143337
3092	-0.093746
3088	-0.018906
3084	0.003457
3080	-0.021028
3076	-0.050234
3072	0.014448
3068	0.080466
3064	0.087475
3060	0.116586
3056	0.158405
3052	0.179100
3048	0.116515
3044	0.045824
3040	0.097227
3036	0.149869
3032	0.121521
3028	0.117135
3024	0.197076
3020	0.259637
3016	0.208735
3012	0.113868
3008	0.073003
3004	0.046324
3000	-0.050401
2996	-0.127840
2992	-0.112986
2988	-0.065493
2984	-0.030016
2980	-0.018763
2976	-0.013685
2972	0.010991
2968	0.082778
2964	0.129914
2960	0.117659
2956	0.108289
2952	0.081038
2948	0.078582
2944	0.066280
2940	-0.007390
2936	-0.036764
2932	-0.007033
2928	0.065803
2924	0.125288
2920	0.081539
2916	0.024676
2912	0.027704
2908	0.031065
2904	0.030589
2900	0.044369
2896	0.063204
2892	0.100064
2888	0.135850
2884	0.121068
2880	0.062155
2876	0.049710
2872	0.082516
2868	0.072717
2864	0.056147
2860	0.083971
2856	0.106287
2852	0.071907
2848	0.019931
2844	0.010657
2840	0.024986
2836	0.037002
2832	0.056338
2828	0.042319
2824	-0.010776
2820	-0.070500
2816	-0.105500
2812	-0.062441
2808	-0.012636
2804	-0.025057
2800	-0.012183
2796	0.038266
2792	0.052475
2788	0.041460
2784	0.013685
2780	-0.031232
2776	-0.048422
2772	-0.027418
2768	0.019574
2764	0.056862
2760	0.053381
2756	0.045752
2752	0.047707
2748	0.053191
2744	0.070500
2740	0.043821
2736	0.033521
2732	0.096583
2728	0.104999
2724	0.031542
2720	-0.039672
2716	-0.063419
2712	-0.047445
2708	-0.029373
2704	-0.037074
2700	-0.046586
2696	-0.039815
2692	-0.013923
2688	0.006532
2684	-0.025105
2680	-0.047278
2676	-0.008440
2672	0.031805
2668	0.019764
2664	0.025653
2660	0.105404
2656	0.153255
2652	0.092649
2648	0.020742
2644	0.061964
2640	0.140023
2636	0.114011
2632	0.054550
2628	0.052809
2624	0.010108
2620	-0.100088
2616	-0.143456
2612	-0.048255
2608	0.071144
2604	0.100708
2600	0.078129
2596	0.021076
2592	-0.070071
2588	-0.088834
2584	-0.032234
2580	-0.013208
2576	-0.025582
2572	0.005459
2568	0.054574
2564	0.058841
2560	0.042891
2556	0.033998
2552	0.025296
2548	0.059771
2544	0.104713
2540	0.075030
2536	0.014662
2532	-0.012397
2528	-0.000286
2524	0.041890
2520	0.071668
2516	0.043034
2512	0.040221
2508	0.100755
2504	0.077843
2500	-0.005984
2496	-0.043654
2492	-0.062513
2488	-0.067305
2484	-0.058197
2480	-0.065827
2476	-0.070118
2472	-0.020074
2468	0.054383
2464	0.047636
2460	-0.021266
2456	-0.053644
2452	-0.025963
2448	-0.007796
2444	-0.012779
2440	-0.041317
2436	-0.067353
2432	-0.060248
2428	-0.062608
2424	-0.081491
2420	-0.086498
2416	-0.068974
2412	-0.021886
2408	0.056505
2404	0.142073
2400	0.137090
2396	0.063300
2392	0.052428
2388	0.057148
2384	0.052571
2380	0.097322
2376	0.130057
2372	0.143504
2368	0.183057
2364	0.200271
2360	0.203371
2356	0.221490
2352	0.217199
2348	0.189447
2344	0.187611
2340	0.222110
2336	0.239276
2332	0.250554
2328	0.316953
2324	0.388431
2320	0.422573
2316	0.496411
2312	0.577759
2308	0.557398
2304	0.522017
2300	0.593686
2296	0.698018
2292	0.748729
2288	0.802469
2284	0.907421
2280	1.023912
2276	1.110577
2272	1.176095
2268	1.268887
2264	1.386022
2260	1.463866
2256	1.523590
2252	1.661610
2248	1.864647
2244	2.049827
2240	2.188611
2236	2.351784
2232	2.599716
2228	2.835512
2224	3.022241
2220	3.240847
2216	3.484916
2212	3.686451
2208	3.887486
2204	4.180359
2200	4.518508
2196	4.813337
2192	5.082416
2188	5.392718
2184	5.751991
2180	6.105780
2176	6.466460
2172	6.874680
2168	7.277321
2164	7.656478
2160	8.047628
2156	8.440017
2152	8.822345
2148	9.229755
2144	9.697484
2140	10.2051
2136	10.7085
2132	11.194
2128	11.7001
2124	12.1984
2120	12.5967
2116	12.9564
2112	13.3733
2108	13.8487
2104	14.349
2100	14.8509
2096	15.3396
2092	15.8144
2088	16.3181
2084	16.8238
2080	17.2946
2076	17.7141
2072	18.1187
2068	18.6094
2064	19.1049
2060	19.4798
2056	19.8089
2052	20.1861
2048	20.605
2044	21.0667
2040	21.5304
2036	21.9754
2032	22.4184
2028	22.7882
2024	23.0886
2020	23.4459
2016	23.8721
2012	24.253
2008	24.5791
2004	24.8884
2000	25.1793
1996	25.4604
1992	25.7363
1988	26.0536
1984	26.3769
1980	26.606
1976	26.8202
1972	27.1234
1968	27.4428
1964	27.7273
1960	28.0045
1956	28.2449
1952	28.4127
1948	28.5514
1944	28.745
1940	28.9639
1936	29.1431
1932	29.3063
1928	29.49
1924	29.7326
1920	29.9969
1916	30.2293
1912	30.4184
1908	30.5759
1904	30.7432
1900	30.8909
1896	31.0144
1892	31.1219
1888	31.1977
1884	31.2995
1880	31.4498
1876	31.5842
1872	31.6758
1868	31.8135
1864	32.0356
1860	32.2377
1856	32.3797
1852	32.5068
1848	32.5945
1844	32.6401
1840	32.6984
1836	32.7692
1832	32.8346
1828	32.8859
1824	32.9088
1820	32.9341
1816	33.0327
1812	33.1762
1808	33.3244
1804	33.4697
1800	33.5655
1796	33.6409
1792	33.7194
1788	33.7925
1784	33.8507
1780	33.8377
1776	33.7754
1772	33.7522
1768	33.778
1764	33.8019
1760	33.8263
1756	33.9083
1752	34.0735
1748	34.2424
1744	34.3248
1740	34.3849
1736	34.4871
1732	34.5726
1728	34.6101
1724	34.6067
1720	34.5429
1716	34.4627
1712	34.4302
1708	34.4291
1704	34.4465
1700	34.4534
1696	34.474
1692	34.5752
1688	34.7062
1684	34.8209
1680	34.8712
1676	34.854
1672	34.8708
1668	34.8821
1664	34.831
1660	34.8092
1656	34.8345
1652	34.8516
1648	34.8498
1644	34.8773
1640	34.9549
1636	35.0046
1632	35.0155
1628	35.0694
1624	35.1543
1620	35.1825
1616	35.1992
1612	35.2524
1608	35.2662
1604	35.1976
1600	35.0936
1596	35.0193
1592	34.9826
1588	34.952
1584	34.944
1580	34.9556
1576	34.9816
1572	35.073
1568	35.2528
1564	35.4303
1560	35.4883
1556	35.4437
1552	35.364
1548	35.3024
1544	35.2643
1540	35.1729
1536	35.0561
1532	35.0027
1528	34.998
1524	35.0061
1520	35.0402
1516	35.042
1512	35.0401
1508	35.1642
1504	35.3052
1500	35.3519
1496	35.313
1492	35.2648
1488	35.2902
1484	35.255
1480	35.1805
1476	35.1331
1472	35.0258
1468	34.8793
1464	34.7878
1460	34.7464
1456	34.7726
1452	34.9292
1448	35.1049
1444	35.2011
1440	35.2796
1436	35.3586
1432	35.3577
1428	35.2617
1424	35.1406
1420	35.037
1416	34.9722
1412	34.876
1408	34.7253
1404	34.6564
1400	34.7132
1396	34.7708
1392	34.7395
1388	34.7383
1384	34.8737
1380	35.0061
1376	35.0613
1372	35.0796
1368	35.0491
1364	34.9686
1360	34.8737
1356	34.7837
1352	34.6699
1348	34.5518
1344	34.4276
1340	34.3523
1336	34.442
1332	34.5734
1328	34.6636
1324	34.768
1320	34.8339
1316	34.8176
1312	34.7702
1308	34.7194
1304	34.6181
1300	34.5016
1296	34.4272
1292	34.3457
1288	34.2353
1284	34.1614
1280	34.1714
1276	34.2525
1272	34.3723
1268	34.4576
1264	34.4712
1260	34.5139
1256	34.6074
1252	34.6125
1248	34.5114
1244	34.3979
1240	34.279
1236	34.1636
1232	34.0711
1228	33.9738
1224	33.8861
1220	33.8088
1216	33.7663
1212	33.8204
1208	33.925
1204	34.0001
1200	34.0741
1196	34.1929
1192	34.2589
1188	34.1998
1184	34.0843
1180	33.9589
1176	33.8047
1172	33.6266
1168	33.5434
1164	33.558
1160	33.539
1156	33.55
1152	33.6603
1148	33.7381
1144	33.7303
1140	33.7623
1136	33.8435
1132	33.8586
1128	33.8268
1124	33.7743
1120	33.6606
1116	33.5303
1112	33.429
1108	33.3332
1104	33.2066
1100	33.0918
1096	33.073
1092	33.0977
1088	33.1151
1084	33.1937
1080	33.3228
1076	33.4396
1072	33.4871
1068	33.4427
1064	33.3429
1060	33.2169
1056	33.0502
1052	32.8439
1048	32.686
1044	32.5842
1040	32.5481
1036	32.5879
1032	32.6374
1028	32.6879
1024	32.7453
1020	32.8141
1016	32.8651
1012	32.8685
1008	32.8407
1004	32.8413
1000	32.8613
996	 32.7648
992	 32.5563
988	 32.3485
984	 32.1357
980	 31.971
976	 31.9304
972	 31.9714
968	 32.08
964	 32.168
960	 32.2186
956	 32.3576
952	 32.4781
948	 32.4863
944	 32.4704
940	 32.4263
936	 32.3001
932	 32.0879
928	 31.8774
924	 31.7274
920	 31.5751
916	 31.44
912	 31.3975
908	 31.4461
904	 31.5121
900	 31.5622
896	 31.6902
892	 31.8773
888	 31.998
884	 31.9666
880	 31.759
876	 31.5268
872	 31.3497
868	 31.2106
864	 31.1605
860	 31.0412
856	 30.7575
852	 30.5354
848	 30.4812
844	 30.598
840	 30.8312
836	 30.968
832	 30.9144
828	 30.8244
824	 30.8724
820	 30.9541
816	 30.9093
812	 30.7639
808	 30.6252
804	 30.5056
800	 30.285
796	 30.0281
792	 29.8878
788	 29.8616
784	 29.9366
780	 30.038
776	 30.0464
772	 30.0422
768	 30.1374
764	 30.2473
760	 30.3046
756	 30.2865
752	 30.0771
748	 29.7481
744	 29.4977
740	 29.3087
736	 29.135
732	 29.0492
728	 29.0435
724	 29.0454
720	 29.0245
716	 29.0607
712	 29.2264
708	 29.3087
704	 29.1491
700	 29.0176
696	 29.1288
692	 29.2059
688	 29.0448
684	 28.7962
680	 28.6028
676	 28.4016
672	 28.0895
668	 27.9035
664	 27.9842
660	 28.0834
656	 28.0704
652	 28.0845
648	 28.1965
644	 28.228
640	 28.079
636	 27.8295
632	 27.528
628	 27.4107
624	 27.5068
620	 27.4168
616	 27.1138
612	 26.9237
608	 26.9356
604	 26.8364
600	 26.6367
596	 26.6283
592	 26.7684
588	 26.9829
584	 27.0475
580	 26.8755
576	 26.8727
572	 27.0525
568	 26.9292
564	 26.4993
560	 26.1546
556	 25.9275
552	 25.6933
548	 25.6435
544	 25.7624
540	 25.755
536	 25.6472
532	 25.5741
528	 25.5824
524	 25.6555
520	 25.8002
516	 25.9311
512	 25.6527
508	 24.951
504	 24.4682
500	 24.4104
496	 24.2901
492	 23.8443
488	 23.3251
484	 23.2015
480	 23.5268
476	 24.0599
472	 24.4362
468	 24.3332
464	 24.1814
460	 24.0543
456	 23.8131
452	 23.7689
448	 23.3007
444	 22.4912
440	 22.3851
436	 22.9986
432	 23.4126
428	 22.1739
424	 20.2041
420	 20.0271
416	 21.9339
412	 23.2488
408	 21.6721
404	 19.5721
400	 17.7033
396	 14.0441
392	 9.979557
388	 13.3682
384	 27.6028
380	 32.8797
376	 32.5599
372	 24.1695
370	 15.0027