File: Bakgrunnsmateriale/MATLAB/FTIR/ftir_data/LPE453/Mapping_121/LPE453_t83.asc
PE IR       SPECTRUM    SPECTRUM    ASCII       PEDS        1.60
  -1
LPC3B5~1.ASC
17/05/16
21:09:28.00
17/05/16
21:09:54.00
tln
$LPE453_t0083$<tbV0>[0.0,5.2,8.0,0.0,27,1,0]
27.028
64

2002,4.07
MIRTGS : RIGHTBACK : INTERNAL 2
MIR : ON : INTERNAL 2
OPTKBR

0.200000
8
8.000000
FILLER
RATIO
SPECTRUM
UNLOCKED 256

DOUBLE
64
COMBINED
1
0
0

0.002000
RATIO

1
0
TRUE
51149
0
LEFT NOT FITTED RIGHT NOT FITTED 0
NONE
NONE
15600
12
4.427000
51148
TRUE
1 0 8 72 0 0 0 0

15798

#HDR
-1
-1
#GR
µM
%T
2.38419e-05
0.0
2.000000
0.002000
12515
8
35.2099
-2.187054
#DATA
2.000000	 0.232791
2.018000	 0.339133
2.036000	 -0.115780
2.054000	 0.335565
2.072000	 0.645919
2.090000	 0.273702
2.108000	 0.196192
2.126000	 0.716428
2.144000	 -1.316497
2.162000	 -0.106682
2.180000	 -0.440636
2.198000	 -0.378572
2.216000	 -1.440762
2.234000	 -1.134513
2.252000	 -0.776325
2.270000	 0.150066
2.288000	 0.804061
2.306000	 0.420880
2.324000	 0.450622
2.342000	 0.010329
2.360000	 0.150503
2.378000	 0.303096
2.396000	 0.592992
2.414000	 0.227580
2.432000	 0.054925
2.450000	 0.037640
2.468000	 0.139781
2.486000	 -0.033460
2.504000	 -0.128676
2.522000	 0.149663
2.540000	 -0.029303
2.558000	 -0.050708
2.576000	 0.019819
2.594000	 -0.048031
2.612000	 0.155377
2.630000	 -0.021128
2.648000	 0.089205
2.666000	 0.067520
2.684000	 -0.075120
2.702000	 0.142917
2.720000	 0.220797
2.738000	 0.097729
2.756000	 0.072683
2.774000	 0.134458
2.792000	 -0.048671
2.810000	 0.178009
2.828000	 -0.012160
2.846000	 0.198793
2.864000	 0.272797
2.882000	 0.101946
2.900000	 0.207113
2.918000	 -0.095534
2.936000	 0.131016
2.954000	 0.047629
2.972000	 0.074366
2.990000	 -0.030034
3.008000	 0.037752
3.026000	 0.042137
3.044000	 0.087277
3.062000	 0.047962
3.080000	 0.053528
3.098000	 0.139025
3.116000	 0.058247
3.134000	 0.074163
3.152000	 0.008408
3.170000	 0.147242
3.188000	 -0.035654
3.206000	 0.086923
3.224000	 0.019304
3.242000	 0.111964
3.260000	 -0.108154
3.278000	 0.155305
3.296000	 -0.034213
3.314000	 -0.013915
3.332000	 -0.081786
3.350000	 0.028258
3.368000	 0.128405
3.386000	 0.039356
3.404000	 -0.087848
3.422000	 -0.038207
3.440000	 0.085731
3.458000	 0.015560
3.476000	 -0.007992
3.494000	 0.019001
3.512000	 -0.043617
3.530000	 -0.059024
3.548000	 0.064146
3.566000	 0.042667
3.584000	 0.067750
3.602000	 0.053534
3.620000	 0.064833
3.638000	 0.015805
3.656000	 -0.038694
3.674000	 0.042571
3.692000	 0.088000
3.710000	 0.083338
3.728000	 0.064003
3.746000	 -0.000813
3.764000	 -0.098391
3.782000	 -0.006067
3.800000	 -0.078569
3.818000	 0.017177
3.836000	 0.024528
3.854000	 0.067565
3.872000	 0.073803
3.890000	 0.095628
3.908000	 -0.114535
3.926000	 0.024925
3.944000	 0.060781
3.962000	 0.055681
3.980000	 0.046564
3.998000	 0.008252
4.016000	 0.116092
4.034000	 -0.003815
4.052000	 0.003654
4.070000	 -0.025271
4.088000	 -0.045493
4.106000	 -0.025905
4.124000	 -0.078955
4.141999	 0.000845
4.160000	 -0.000791
4.178000	 -0.048313
4.196000	 0.029662
4.214000	 0.032640
4.232000	 0.183281
4.250000	 0.090909
4.268000	 0.196247
4.286000	 0.235105
4.304000	 0.293004
4.322000	 0.502329
4.340000	 0.551467
4.358000	 0.627872
4.375999	 0.749296
4.394000	 1.034988
4.412000	 1.257822
4.430000	 1.478876
4.448000	 1.864516
4.466000	 2.182027
4.484000	 2.647797
4.502000	 3.165885
4.520000	 3.830298
4.538000	 4.361266
4.556000	 5.075148
4.574000	 5.914574
4.592000	 6.685620
4.609999	 7.508104
4.628000	 8.446351
4.646000	 9.357165
4.664000	 10.4513
4.682000	 11.4388
4.700000	 12.3829
4.718000	 13.4263
4.736000	 14.5084
4.754000	 15.5854
4.772000	 16.5271
4.790000	 17.5179
4.808000	 18.4356
4.826000	 19.4308
4.843999	 20.4128
4.862000	 21.2005
4.880000	 22.0168
4.898000	 22.9428
4.916000	 23.6895
4.934000	 24.3661
4.952000	 25.1069
4.970000	 25.7859
4.988000	 26.3924
5.006000	 26.8532
5.024000	 27.3681
5.042000	 27.8934
5.060000	 28.4093
5.077999	 28.9827
5.096000	 29.4892
5.114000	 29.8631
5.132000	 30.1088
5.150000	 30.3602
5.168000	 30.6015
5.186000	 30.9485
5.204000	 31.3599
5.222000	 31.7413
5.240000	 32.0799
5.258000	 32.2777
5.276000	 32.4031
5.294000	 32.5534
5.312000	 32.573
5.330000	 32.7471
5.348000	 33.0271
5.366000	 33.3071
5.384000	 33.537
5.402000	 33.6451
5.420000	 33.6075
5.438000	 33.5036
5.456000	 33.5776
5.474000	 33.7003
5.492000	 33.8334
5.510000	 34.0564
5.528000	 34.304
5.546000	 34.5035
5.564000	 34.6118
5.582000	 34.5701
5.600000	 34.3816
5.618000	 34.2159
5.636000	 34.3171
5.654000	 34.4633
5.672000	 34.5872
5.690000	 34.7552
5.708000	 34.8853
5.726000	 34.8605
5.744000	 34.7817
5.762000	 34.6749
5.780000	 34.6375
5.798000	 34.6021
5.816000	 34.6677
5.834000	 34.8349
5.852000	 34.9349
5.870000	 35.0687
5.888000	 35.1084
5.906000	 35.0968
5.923999	 35.0604
5.942000	 34.9124
5.960000	 34.7745
5.978000	 34.6938
5.996000	 34.755
6.014000	 34.8397
6.032000	 34.9098
6.050000	 35.031
6.068000	 35.1738
6.086000	 35.2099
6.104000	 35.1775
6.122000	 35.0132
6.140000	 34.8698
6.158000	 34.8355
6.176000	 34.7814
6.194000	 34.6974
6.212000	 34.6282
6.230000	 34.7235
6.248000	 34.8831
6.266000	 34.9684
6.284000	 35.0275
6.302000	 35.1282
6.320000	 35.1506
6.338000	 35.018
6.356000	 34.8525
6.374000	 34.7651
6.392000	 34.7196
6.410000	 34.6696
6.428000	 34.5834
6.446000	 34.5942
6.464000	 34.7287
6.482000	 34.8819
6.500000	 35.0035
6.518000	 35.0313
6.536000	 34.9949
6.554000	 34.9394
6.572000	 34.8975
6.590000	 34.8287
6.608000	 34.7024
6.626000	 34.6207
6.644000	 34.5933
6.662000	 34.5364
6.680000	 34.5118
6.698000	 34.6428
6.716000	 34.8523
6.734000	 34.9492
6.752000	 34.9233
6.770000	 34.9343
6.788000	 34.9773
6.806000	 34.9176
6.824000	 34.7712
6.842000	 34.6104
6.860000	 34.4236
6.878000	 34.2584
6.896000	 34.1976
6.914000	 34.1994
6.932000	 34.2944
6.950000	 34.5001
6.968000	 34.6831
6.986000	 34.8003
7.004000	 34.8734
7.022000	 34.8817
7.040000	 34.8644
7.058000	 34.8388
7.076000	 34.728
7.094000	 34.5391
7.112000	 34.3776
7.130000	 34.2887
7.148000	 34.2318
7.166000	 34.1717
7.184000	 34.14
7.202000	 34.1838
7.220000	 34.2994
7.238000	 34.4404
7.256000	 34.5496
7.274000	 34.6135
7.292000	 34.6681
7.310000	 34.7064
7.328000	 34.6918
7.346000	 34.633
7.364000	 34.5321
7.382000	 34.3727
7.400000	 34.1872
7.418000	 34.0295
7.436000	 33.9287
7.454000	 33.8786
7.472000	 33.8569
7.490000	 33.8793
7.508000	 33.9683
7.526000	 34.0895
7.544000	 34.2064
7.562000	 34.3226
7.580000	 34.4247
7.598000	 34.4808
7.616000	 34.4909
7.634000	 34.4737
7.652000	 34.4287
7.670000	 34.3514
7.688000	 34.2456
7.706000	 34.1206
7.724000	 33.9979
7.742000	 33.8951
7.760000	 33.804
7.778000	 33.7281
7.796000	 33.6988
7.814000	 33.7218
7.832000	 33.7775
7.850000	 33.8699
7.868000	 34.002
7.886000	 34.1387
7.904000	 34.2478
7.922000	 34.3291
7.940000	 34.3823
7.958000	 34.3973
7.976000	 34.3664
7.994000	 34.2807
8.012000	 34.1424
8.030000	 33.9873
8.048000	 33.8593
8.065999	 33.765
8.084000	 33.6808
8.102000	 33.5961
8.120000	 33.5222
8.138000	 33.4692
8.155999	 33.4376
8.173999	 33.438
8.192000	 33.4932
8.210000	 33.6059
8.228000	 33.7426
8.246000	 33.8553
8.263999	 33.9233
8.282000	 33.9759
8.300000	 34.0456
8.318000	 34.1126
8.336000	 34.1296
8.353999	 34.0789
8.372000	 33.9794
8.390000	 33.8595
8.408000	 33.7395
8.426000	 33.6271
8.443999	 33.5156
8.462000	 33.3974
8.480000	 33.2795
8.498000	 33.1803
8.516000	 33.1104
8.533999	 33.0716
8.552000	 33.0711
8.570000	 33.1256
8.588000	 33.2417
8.606000	 33.3974
8.624000	 33.5456
8.641999	 33.6395
8.660000	 33.6622
8.678000	 33.6392
8.696000	 33.6175
8.714000	 33.6301
8.731999	 33.6754
8.750000	 33.7241
8.768000	 33.7441
8.786000	 33.7152
8.804000	 33.6318
8.821999	 33.5005
8.840000	 33.3426
8.858000	 33.1902
8.876000	 33.0694
8.894000	 32.9866
8.911999	 32.9299
8.930000	 32.8858
8.948000	 32.855
8.966000	 32.8503
8.984000	 32.8819
9.001999	 32.9433
9.020000	 33.0159
9.038000	 33.0829
9.056000	 33.1431
9.074000	 33.2059
9.092000	 33.2781
9.109999	 33.355
9.128000	 33.4222
9.146000	 33.4619
9.164000	 33.4622
9.182000	 33.426
9.199999	 33.3705
9.218000	 33.3151
9.236000	 33.2654
9.254000	 33.2103
9.272000	 33.1354
9.289999	 33.0378
9.308000	 32.9289
9.326000	 32.825
9.344000	 32.738
9.362000	 32.6711
9.379999	 32.6175
9.398000	 32.5652
9.416000	 32.5068
9.434000	 32.4472
9.452000	 32.4024
9.469999	 32.3916
9.488000	 32.4278
9.506000	 32.5092
9.524000	 32.6187
9.542000	 32.7321
9.560000	 32.8298
9.577999	 32.903
9.596000	 32.9525
9.614000	 32.9827
9.632000	 32.9965
9.650000	 32.9932
9.667999	 32.9714
9.686000	 32.9314
9.704000	 32.8789
9.722000	 32.8252
9.740000	 32.7812
9.757999	 32.7494
9.776000	 32.72
9.794000	 32.677
9.812000	 32.6103
9.830000	 32.5214
9.847999	 32.4182
9.866000	 32.3084
9.884000	 32.1974
9.902000	 32.0929
9.920000	 32.009
9.937999	 31.9623
9.956000	 31.9605
9.974000	 31.9946
9.992000	 32.0427
10.01	32.084
10.028	32.1132
10.046	32.1419
10.064	32.1884
10.082	32.2616
10.1	32.3542
10.118	32.4476
10.136	32.525
10.154	32.5818
10.172	32.6228
10.19	32.6543
10.208	32.6753
10.226	32.6787
10.244	32.6556
10.262	32.6007
10.28	32.5152
10.298	32.4061
10.316	32.2846
10.334	32.1629
10.352	32.0505
10.37	31.952
10.388	31.8669
10.406	31.792
10.424	31.7237
10.442	31.6591
10.46	31.5954
10.478	31.5296
10.496	31.4611
10.514	31.3964
10.532	31.3496
10.55	31.3356
10.568	31.3611
10.586	31.4191
10.604	31.4921
10.622	31.5602
10.64	31.6121
10.658	31.6484
10.676	31.6794
10.694	31.7156
10.712	31.7622
10.73	31.8169
10.748	31.8733
10.766	31.9254
10.784	31.9697
10.802	32.0044
10.82	32.0282
10.838	32.0374
10.856	32.0272
10.874	31.9931
10.892	31.9349
10.91	31.8576
10.928	31.7704
10.946	31.6829
10.964	31.6003
10.982	31.5222
11	31.4443
11.018	31.3618
11.036	31.2731
11.054	31.1804
11.072	31.0878
11.09	30.9971
11.108	30.9064
11.126	30.8122
11.144	30.7144
11.162	30.6196
11.18	30.5391
11.198	30.4861
11.216	30.4694
11.234	30.4896
11.252	30.5396
11.27	30.608
11.288	30.6826
11.306	30.7543
11.324	30.8181
11.342	30.8727
11.36	30.9199
11.378	30.9637
11.396	31.0093
11.414	31.0606
11.432	31.1181
11.45	31.1773
11.468	31.2308
11.486	31.2719
11.504	31.2976
11.522	31.3104
11.54	31.3156
11.558	31.3186
11.576	31.3217
11.594	31.322
11.612	31.3135
11.63	31.289
11.648	31.2436
11.666	31.1763
11.684	31.0899
11.702	30.9893
11.72	30.8811
11.738	30.7719
11.756	30.668
11.774	30.5751
11.792	30.4975
11.81	30.4358
11.828	30.3877
11.846	30.3483
11.864	30.3115
11.882	30.2725
11.9	30.2284
11.918	30.1792
11.936	30.1276
11.954	30.0772
11.972	30.0325
11.99	29.998
12.008	29.9775
12.026	29.9745
12.044	29.9916
12.062	30.0303
12.08	30.0902
12.098	30.1675
12.116	30.2556
12.134	30.3456
12.152	30.4276
12.17	30.4925
12.188	30.5338
12.206	30.5482
12.224	30.5372
12.242	30.5058
12.26	30.4618
12.278	30.4147
12.296	30.3743
12.314	30.3486
12.332	30.3423
12.35	30.3565
12.368	30.3872
12.386	30.427
12.404	30.4654
12.422	30.491
12.44	30.4945
12.458	30.4693
12.476	30.4129
12.494	30.3272
12.512	30.2181
12.53	30.0939
12.548	29.9635
12.566	29.8349
12.584	29.7138
12.602	29.6034
12.62	29.504
12.638	29.4142
12.656	29.3322
12.674	29.2564
12.692	29.1865
12.71	29.1231
12.728	29.0682
12.746	29.0232
12.764	28.9893
12.782	28.9665
12.8	28.9534
12.818	28.9484
12.836	28.9493
12.854	28.9551
12.872	28.9646
12.89	28.9781
12.908	28.9954
12.926	29.0166
12.944	29.0407
12.962	29.0664
12.98	29.0927
12.998	29.1186
13.016	29.1444
13.034	29.1713
13.052	29.2011
13.07	29.236
13.088	29.2775
13.106	29.3254
13.124	29.378
13.142	29.4317
13.16	29.4819
13.178	29.5235
13.196	29.5526
13.214	29.5667
13.232	29.5651
13.25	29.5492
13.268	29.5218
13.286	29.4866
13.304	29.4476
13.322	29.4084
13.34	29.3714
13.358	29.3378
13.376	29.3071
13.394	29.278
13.412	29.2485
13.43	29.2166
13.448	29.1807
13.466	29.14
13.484	29.0941
13.502	29.043
13.52	28.9862
13.538	28.9236
13.556	28.8546
13.574	28.7787
13.592	28.6958
13.61	28.607
13.628	28.5142
13.646	28.4211
13.664	28.3318
13.682	28.2505
13.7	28.1807
13.718	28.1243
13.736	28.0818
13.754	28.051
13.772	28.0289
13.79	28.0117
13.808	27.9968
13.826	27.9822
13.844	27.9679
13.862	27.9547
13.88	27.9446
13.898	27.9398
13.916	27.9421
13.934	27.9531
13.952	27.9731
13.97	28.0019
13.988	28.0389
14.006	28.0832
14.024	28.1338
14.042	28.1897
14.06	28.2498
14.078	28.3123
14.096	28.3752
14.114	28.4353
14.132	28.4891
14.15	28.5329
14.168	28.563
14.186	28.5766
14.204	28.5722
14.222	28.5495
14.24	28.51
14.258	28.4562
14.276	28.3921
14.294	28.3223
14.312	28.2516
14.33	28.1848
14.348	28.1261
14.366	28.0794
14.384	28.047
14.402	28.0295
14.42	28.026
14.438	28.0339
14.456	28.0496
14.474	28.0687
14.492	28.0862
14.51	28.0975
14.528	28.0986
14.546	28.0872
14.564	28.0623
14.582	28.0241
14.6	27.974
14.618	27.9138
14.636	27.8462
14.654	27.773
14.672	27.6956
14.69	27.6149
14.708	27.5314
14.726	27.4455
14.744	27.3578
14.762	27.2695
14.78	27.1826
14.798	27.0997
14.816	27.0235
14.834	26.9575
14.852	26.9046
14.87	26.8672
14.888	26.8463
14.906	26.8419
14.924	26.853
14.942	26.877
14.96	26.9107
14.978	26.9499
14.996	26.9906
15.014	27.029
15.032	27.0612
15.05	27.0851
15.068	27.0995
15.086	27.1041
15.104	27.0998
15.122	27.0883
15.14	27.0722
15.158	27.0539
15.176	27.0359
15.194	27.0202
15.212	27.0085
15.23	27.0013
15.248	26.9989
15.266	27.0011
15.284	27.007
15.302	27.0156
15.32	27.0261
15.338	27.0377
15.356	27.05
15.374	27.0629
15.392	27.0768
15.41	27.092
15.428	27.109
15.446	27.1281
15.464	27.1496
15.482	27.1734
15.5	27.1993
15.518	27.2264
15.536	27.2537
15.554	27.2803
15.572	27.3054
15.59	27.3277
15.608	27.3464
15.626	27.3607
15.644	27.3695
15.662	27.3724
15.68	27.3688
15.698	27.3579
15.716	27.3393
15.734	27.3123
15.752	27.2764
15.77	27.2313
15.788	27.1765
15.806	27.1123
15.824	27.0391
15.842	26.9573
15.86	26.8684
15.878	26.7736
15.896	26.6743
15.914	26.5726
15.932	26.4704
15.95	26.3692
15.968	26.2709
15.986	26.1769
16.004	26.088
16.022	26.0053
16.04	25.9294
16.058	25.8605
16.076	25.7989
16.094	25.7446
16.112	25.6979
16.13	25.6589
16.148	25.6274
16.166	25.604
16.184	25.5886
16.202	25.5812
16.22	25.582
16.238	25.5906
16.256	25.6063
16.274	25.6281
16.292	25.6547
16.31	25.6851
16.328	25.717
16.346	25.7484
16.364	25.7779
16.382	25.8028
16.4	25.8219
16.418	25.834
16.436	25.8378
16.454	25.8332
16.472	25.82
16.49	25.7989
16.508	25.7711
16.526	25.7376
16.544	25.7007
16.562	25.6621
16.58	25.6233
16.598	25.5865
16.616	25.5534
16.634	25.5252
16.652	25.5036
16.67	25.4892
16.688	25.4828
16.706	25.4848
16.724	25.4952
16.742	25.514
16.76	25.5409
16.778	25.5755
16.796	25.617
16.814	25.6643
16.832	25.7166
16.85	25.772
16.868	25.8287
16.886	25.8857
16.904	25.9399
16.922	25.9897
16.94	26.0331
16.958	26.0674
16.976	26.0915
16.994	26.1034
17.012	26.1026
17.03	26.0884
17.048	26.0612
17.066	26.0216
17.084	25.9705
17.102	25.9106
17.12	25.8429
17.138	25.7706
17.156	25.6955
17.174	25.6194
17.192	25.5448
17.21	25.4722
17.228	25.4033
17.246	25.3378
17.264	25.2759
17.282	25.2164
17.3	25.1586
17.318	25.1009
17.336	25.0422
17.354	24.9816
17.372	24.9179
17.39	24.8511
17.408	24.7812
17.426	24.709
17.444	24.635
17.462	24.5616
17.48	24.4894
17.498	24.4207
17.516	24.3567
17.534	24.2987
17.552	24.2476
17.57	24.2037
17.588	24.1673
17.606	24.1376
17.624	24.1142
17.642	24.0957
17.66	24.0814
17.678	24.0695
17.696	24.0596
17.714	24.0501
17.732	24.0409
17.75	24.0311
17.768	24.0212
17.786	24.0109
17.804	24.0008
17.822	23.9909
17.84	23.9822
17.858	23.9749
17.876	23.9696
17.894	23.9668
17.912	23.9668
17.93	23.9697
17.948	23.9755
17.966	23.9845
17.984	23.9965
18.002	24.0116
18.02	24.03
18.038	24.0517
18.056	24.077
18.074	24.1057
18.092	24.1378
18.11	24.1733
18.128	24.2113
18.146	24.2514
18.164	24.2926
18.182	24.3339
18.2	24.3742
18.218	24.4118
18.236	24.446
18.254	24.4751
18.272	24.4984
18.29	24.515
18.308	24.5245
18.326	24.527
18.344	24.5225
18.362	24.5122
18.38	24.4967
18.398	24.4776
18.416	24.4559
18.434	24.4335
18.452	24.4117
18.47	24.3917
18.488	24.3749
18.506	24.362
18.524	24.3536
18.542	24.3501
18.56	24.3511
18.578	24.3568
18.596	24.3658
18.614	24.3781
18.632	24.3916
18.65	24.4064
18.668	24.4201
18.686	24.4326
18.704	24.4421
18.722	24.4486
18.74	24.4508
18.758	24.4487
18.776	24.4418
18.794	24.4302
18.812	24.4139
18.83	24.3935
18.848	24.3694
18.866	24.3422
18.884	24.3127
18.902	24.2816
18.92	24.2498
18.938	24.2178
18.956	24.1865
18.974	24.1563
18.992	24.1278
19.01	24.1011
19.028	24.0766
19.046	24.054
19.064	24.0333
19.082	24.014
19.1	23.9955
19.118	23.9771
19.136	23.9578
19.154	23.9369
19.172	23.9132
19.19	23.8863
19.208	23.8547
19.226	23.8185
19.244	23.7766
19.262	23.729
19.28	23.6753
19.298	23.6157
19.316	23.5506
19.334	23.4801
19.352	23.4055
19.37	23.3268
19.388	23.2458
19.406	23.1625
19.424	23.0792
19.442	22.9959
19.46	22.9145
19.478	22.8353
19.496	22.7597
19.514	22.6882
19.532	22.6216
19.55	22.5604
19.568	22.505
19.586	22.4561
19.604	22.4134
19.622	22.3772
19.64	22.3475
19.658	22.3244
19.676	22.3078
19.694	22.2976
19.712	22.2937
19.73	22.2959
19.748	22.3043
19.766	22.3185
19.784	22.3386
19.802	22.3639
19.82	22.3945
19.838	22.4296
19.856	22.4687
19.874	22.5114
19.892	22.5561
19.91	22.6028
19.928	22.6492
19.946	22.6956
19.964	22.739
19.982	22.7795
20	22.8149
20.018	22.844
20.036	22.8661
20.054	22.8792
20.072	22.8836
20.09	22.8779
20.108	22.8624
20.126	22.8372
20.144	22.8021
20.162	22.7587
20.18	22.7072
20.198	22.6492
20.216	22.5871
20.234	22.5209
20.252	22.4552
20.27	22.3891
20.288	22.3271
20.306	22.2694
20.324	22.2183
20.342	22.1758
20.36	22.142
20.378	22.1193
20.396	22.1072
20.414	22.1062
20.432	22.1169
20.45	22.1377
20.468	22.1689
20.486	22.2092
20.504	22.2565
20.522	22.3112
20.54	22.3696
20.558	22.4322
20.576	22.4961
20.594	22.5601
20.612	22.6238
20.63	22.6843
20.648	22.7424
20.666	22.7961
20.684	22.8453
20.702	22.8896
20.72	22.9284
20.738	22.962
20.756	22.9905
20.774	23.0137
20.792	23.0326
20.81	23.0471
20.828	23.0578
20.846	23.0653
20.864	23.0695
20.882	23.0712
20.9	23.0703
20.918	23.0668
20.936	23.061
20.954	23.0527
20.972	23.0417
20.99	23.0282
21.008	23.0114
21.026	22.9913
21.044	22.9677
21.062	22.9399
21.08	22.9082
21.098	22.8719
21.116	22.8308
21.134	22.785
21.152	22.7342
21.17	22.6786
21.188	22.6182
21.206	22.553
21.224	22.4831
21.242	22.4091
21.26	22.3308
21.278	22.2488
21.296	22.1633
21.314	22.0745
21.332	21.9832
21.35	21.8891
21.368	21.7933
21.386	21.6959
21.404	21.5973
21.422	21.4985
21.44	21.3992
21.458	21.3004
21.476	21.2026
21.494	21.1056
21.512	21.0108
21.53	20.9177
21.548	20.827
21.566	20.739
21.584	20.6536
21.602	20.5715
21.62	20.4926
21.638	20.4171
21.656	20.3452
21.674	20.2768
21.692	20.2123
21.71	20.152
21.728	20.0957
21.746	20.0437
21.764	19.9957
21.782	19.9522
21.8	19.9134
21.818	19.8793
21.836	19.8505
21.854	19.827
21.872	19.8089
21.89	19.7971
21.908	19.7913
21.926	19.7917
21.944	19.7984
21.962	19.8112
21.98	19.8299
21.998	19.8547
22.016	19.8851
22.034	19.9199
22.052	19.9597
22.07	20.003
22.088	20.0487
22.106	20.0974
22.124	20.1462
22.142	20.195
22.16	20.2435
22.178	20.2888
22.196	20.3316
22.214	20.3706
22.232	20.4036
22.25	20.4313
22.268	20.4528
22.286	20.467
22.304	20.4745
22.322	20.4753
22.34	20.469
22.358	20.4562
22.376	20.4382
22.394	20.4144
22.412	20.386
22.43	20.355
22.448	20.3203
22.466	20.2839
22.484	20.2472
22.502	20.2096
22.52	20.1727
22.538	20.1374
22.556	20.1032
22.574	20.071
22.592	20.0412
22.61	20.0134
22.628	19.9874
22.646	19.9636
22.664	19.9414
22.682	19.9197
22.7	19.8991
22.718	19.8787
22.736	19.8577
22.754	19.8363
22.772	19.8141
22.79	19.7903
22.808	19.7651
22.826	19.739
22.844	19.7119
22.862	19.6837
22.88	19.6558
22.898	19.6284
22.916	19.6013
22.934	19.5773
22.952	19.5568
22.97	19.5395
22.988	19.5288
23.006	19.525
23.024	19.5279
23.042	19.5411
23.06	19.565
23.078	19.5992
23.096	19.6452
23.114	19.7035
23.132	19.7734
23.15	19.8555
23.168	19.95
23.186	20.0563
23.204	20.1736
23.222	20.3025
23.24	20.4419
23.258	20.5895
23.276	20.7461
23.294	20.9105
23.312	21.0791
23.33	21.2529
23.348	21.4308
23.366	21.6081
23.384	21.7855
23.402	21.9625
23.42	22.1348
23.438	22.3029
23.456	22.4665
23.474	22.6211
23.492	22.7666
23.51	22.9035
23.528	23.0282
23.546	23.1403
23.564	23.2406
23.582	23.3259
23.6	23.3953
23.618	23.4498
23.636	23.4869
23.654	23.5049
23.672	23.5052
23.69	23.487
23.708	23.4495
23.726	23.3928
23.744	23.3187
23.762	23.2284
23.78	23.1205
23.798	22.9978
23.816	22.8633
23.834	22.7147
23.852	22.5551
23.87	22.3889
23.888	22.2137
23.906	22.0319
23.924	21.8498
23.942	21.6664
23.96	21.4819
23.978	21.3027
23.996	21.1307
24.014	20.9635
24.032	20.8059
24.05	20.6607
24.068	20.5257
24.086	20.4028
24.104	20.294
24.122	20.1988
24.14	20.1165
24.158	20.0463
24.176	19.9893
24.194	19.9441
24.212	19.9081
24.23	19.8818
24.248	19.8654
24.266	19.8541
24.284	19.8455
24.302	19.842
24.32	19.8406
24.338	19.838
24.356	19.8359
24.374	19.8335
24.392	19.8295
24.41	19.8224
24.428	19.814
24.446	19.8067
24.464	19.8007
24.482	19.7947
24.5	19.7934
24.518	19.8003
24.536	19.8112
24.554	19.8314
24.572	19.868
24.59	19.9184
24.608	19.9835
24.626	20.0707
24.644	20.1835
24.662	20.3177
24.68	20.4781
24.698	20.6692
24.716	20.8892
24.734	21.1379
24.752	21.4159
24.77	21.7253
24.788	22.0645
24.806	22.4283
24.824	22.8139
24.842	23.2264
24.86	23.6573
24.878	24.0968
24.896	24.5512
24.914	25.0168
24.932	25.4788
24.95	25.9305
24.968	26.3811
24.986	26.8184
25.004	27.2293
25.022	27.6221
25.04	27.9922
25.058	28.3245
25.076	28.6132
25.094	28.8673
25.112	29.0753
25.13	29.2255
25.148	29.324
25.166	29.3689
25.184	29.3514
25.202	29.2667
25.22	29.1202
25.238	28.9095
25.256	28.6318
25.274	28.2859
25.292	27.8748
25.31	27.402
25.328	26.8678
25.346	26.2685
25.364	25.6134
25.382	24.9123
25.4	24.1605
25.418	23.359
25.436	22.5216
25.454	21.6579
25.472	20.7565
25.49	19.8282
25.508	18.8884
25.526	17.9378
25.544	16.9694
25.562	15.9995
25.58	15.0431
25.598	14.0896
25.616	13.144
25.634	12.2215
25.652	11.3308
25.67	10.4604
25.688	9.620553
25.706	8.824132
25.724	8.071271
25.742	7.356821
25.76	6.689513
25.778	6.077494
25.796	5.517215
25.814	5.008050
25.832	4.552968
25.85	4.154622
25.868	3.812245
25.886	3.523056
25.904	3.284291
25.922	3.096944
25.94	2.962382
25.958	2.873754
25.976	2.824259
25.994	2.818840
26.012	2.855924
26.03	2.925228
26.048	3.018317
26.066	3.144914
26.084	3.298182
26.102	3.465196
26.12	3.638467
26.138	3.829215
26.156	4.027475
26.174	4.220452
26.192	4.405015
26.21	4.590100
26.228	4.764418
26.246	4.915996
26.264	5.045053
26.282	5.156704
26.3	5.243589
26.318	5.298526
26.336	5.325518
26.354	5.324772
26.372	5.289516
26.39	5.213272
26.408	5.096452
26.426	4.942455
26.444	4.753671
26.462	4.531665
26.48	4.272263
26.498	3.979784
26.516	3.660769
26.534	3.318222
26.552	2.940825
26.57	2.541746
26.588	2.138306
26.606	1.738799
26.624	1.323178
26.642	0.912007
26.66	0.530988
26.678	0.191796
26.696	-0.130314
26.714	-0.412649
26.732	-0.627898
26.75	-0.764568
26.768	-0.847070
26.786	-0.854504
26.804	-0.762370
26.822	-0.557891
26.84	-0.259035
26.858	0.141155
26.876	0.651733
26.894	1.280305
26.912	2.023404
26.93	2.872668
26.948	3.819807
26.966	4.931714
26.984	6.319731
27.002	7.712308
27.02	8.814020
27.028	9.101724