File: Bakgrunnsmateriale/MATLAB/FTIR/ftir_data/LPE453/Mapping_121/LPE453_t50.asc
PE IR       SPECTRUM    SPECTRUM    ASCII       PEDS        1.60
  -1
LPC7A9~1.ASC
17/05/16
18:29:20.00
17/05/16
18:29:46.00
tln
$LPE453_t0050$<tbV0>[0.0,-2.6,8.0,0.0,27,1,0]
27.028
64

2002,4.07
MIRTGS : RIGHTBACK : INTERNAL 2
MIR : ON : INTERNAL 2
OPTKBR

0.200000
8
8.000000
FILLER
RATIO
SPECTRUM
UNLOCKED 256

DOUBLE
64
COMBINED
1
0
0

0.002000
RATIO

1
0
TRUE
51149
0
LEFT NOT FITTED RIGHT NOT FITTED 0
NONE
NONE
15600
12
4.427000
51148
TRUE
1 0 8 72 0 0 0 0

15798

#HDR
-1
-1
#GR
µM
%T
2.38419e-05
0.0
2.000000
0.002000
12515
8
28.3565
-14.6397
#DATA
2.000000	 -0.219249
2.018000	 0.234607
2.036000	 -0.094623
2.054000	 -0.158846
2.072000	 0.063816
2.090000	 0.070688
2.108000	 0.131276
2.126000	 0.157090
2.144000	 0.652837
2.162000	 0.104424
2.180000	 0.151251
2.198000	 -0.780458
2.216000	 11.1102
2.234000	 -0.331186
2.252000	 -0.249367
2.270000	 0.306210
2.288000	 0.392673
2.306000	 -0.037095
2.324000	 -0.188509
2.342000	 -0.227195
2.360000	 0.245747
2.378000	 0.011145
2.396000	 -0.186587
2.414000	 0.147317
2.432000	 0.235526
2.450000	 0.223688
2.468000	 -0.079359
2.486000	 0.030328
2.504000	 -0.111605
2.522000	 0.235339
2.540000	 0.048067
2.558000	 -0.068853
2.576000	 -0.043086
2.594000	 0.188863
2.612000	 -0.054339
2.630000	 -0.021452
2.648000	 0.008692
2.666000	 0.128576
2.684000	 -0.006577
2.702000	 0.256086
2.720000	 -0.092170
2.738000	 0.078675
2.756000	 0.005929
2.774000	 -0.185021
2.792000	 0.079643
2.810000	 0.214701
2.828000	 0.038681
2.846000	 0.106962
2.864000	 0.131678
2.882000	 0.029724
2.900000	 -0.034925
2.918000	 0.072478
2.936000	 0.087089
2.954000	 0.089487
2.972000	 0.059875
2.990000	 0.132883
3.008000	 -0.041779
3.026000	 0.053491
3.044000	 -0.066469
3.062000	 0.036280
3.080000	 -0.017785
3.098000	 0.090369
3.116000	 -0.019083
3.134000	 -0.071821
3.152000	 -0.067057
3.170000	 -0.010629
3.188000	 -0.042909
3.206000	 0.128085
3.224000	 0.024748
3.242000	 0.011291
3.260000	 0.094679
3.278000	 -0.103289
3.296000	 0.026467
3.314000	 0.024187
3.332000	 0.106696
3.350000	 -0.040775
3.368000	 0.038715
3.386000	 -0.000219
3.404000	 -0.053364
3.422000	 0.012268
3.440000	 0.009311
3.458000	 0.116562
3.476000	 0.003892
3.494000	 0.049658
3.512000	 0.016859
3.530000	 0.013878
3.548000	 0.069591
3.566000	 0.037109
3.584000	 0.015308
3.602000	 0.050662
3.620000	 0.007900
3.638000	 -0.021930
3.656000	 0.042915
3.674000	 -0.004201
3.692000	 -0.019581
3.710000	 -0.020870
3.728000	 0.086602
3.746000	 -0.044981
3.764000	 0.041199
3.782000	 -0.060407
3.800000	 0.040823
3.818000	 0.093126
3.836000	 0.155420
3.854000	 0.045874
3.872000	 -0.072631
3.890000	 -0.044485
3.908000	 -0.018086
3.926000	 -0.034918
3.944000	 0.118585
3.962000	 0.039637
3.980000	 0.115116
3.998000	 0.033628
4.016000	 -0.131664
4.034000	 0.136606
4.052000	 0.086586
4.070000	 -0.004502
4.088000	 0.014708
4.106000	 0.018033
4.124000	 -0.026350
4.141999	 -0.145898
4.160000	 0.049593
4.178000	 0.142416
4.196000	 0.054812
4.214000	 -0.011762
4.232000	 0.029274
4.250000	 -0.077131
4.268000	 -0.000270
4.286000	 -0.023255
4.304000	 0.095505
4.322000	 0.124801
4.340000	 0.020812
4.358000	 0.079944
4.375999	 0.080837
4.394000	 0.170242
4.412000	 0.200750
4.430000	 0.317698
4.448000	 0.427765
4.466000	 0.555807
4.484000	 0.734414
4.502000	 1.018525
4.520000	 1.157899
4.538000	 1.458981
4.556000	 1.705778
4.574000	 2.291776
4.592000	 2.684952
4.609999	 3.089032
4.628000	 3.705250
4.646000	 4.325343
4.664000	 4.930686
4.682000	 5.786448
4.700000	 6.487401
4.718000	 7.174516
4.736000	 7.991460
4.754000	 8.731781
4.772000	 9.489246
4.790000	 10.3374
4.808000	 11.3365
4.826000	 12.2149
4.843999	 12.8003
4.862000	 13.6485
4.880000	 14.5425
4.898000	 15.1658
4.916000	 15.8111
4.934000	 16.5887
4.952000	 17.2483
4.970000	 17.9269
4.988000	 18.5673
5.006000	 19.1432
5.024000	 19.7463
5.042000	 20.1883
5.060000	 20.6334
5.077999	 21.223
5.096000	 21.6357
5.114000	 22.0734
5.132000	 22.5492
5.150000	 22.9421
5.168000	 23.3396
5.186000	 23.623
5.204000	 23.9165
5.222000	 24.2604
5.240000	 24.629
5.258000	 24.8433
5.276000	 25.0446
5.294000	 25.2671
5.312000	 25.4557
5.330000	 25.7288
5.348000	 25.9026
5.366000	 26.0756
5.384000	 26.2416
5.402000	 26.3508
5.420000	 26.4844
5.438000	 26.5844
5.456000	 26.7536
5.474000	 26.9537
5.492000	 27.0314
5.510000	 27.1349
5.528000	 27.1878
5.546000	 27.324
5.564000	 27.422
5.582000	 27.4962
5.600000	 27.5371
5.618000	 27.521
5.636000	 27.6052
5.654000	 27.7209
5.672000	 27.7436
5.690000	 27.7583
5.708000	 27.8496
5.726000	 27.8628
5.744000	 27.8579
5.762000	 27.8995
5.780000	 27.9924
5.798000	 28.0483
5.816000	 28.0168
5.834000	 28.0493
5.852000	 28.107
5.870000	 28.0527
5.888000	 28.1042
5.906000	 28.1953
5.923999	 28.1578
5.942000	 28.0797
5.960000	 28.0724
5.978000	 28.1051
5.996000	 28.1503
6.014000	 28.1116
6.032000	 28.1553
6.050000	 28.2444
6.068000	 28.2634
6.086000	 28.2649
6.104000	 28.2533
6.122000	 28.2962
6.140000	 28.3301
6.158000	 28.3282
6.176000	 28.3097
6.194000	 28.2962
6.212000	 28.3557
6.230000	 28.2798
6.248000	 28.1685
6.266000	 28.2206
6.284000	 28.3047
6.302000	 28.2902
6.320000	 28.25
6.338000	 28.1866
6.356000	 28.1872
6.374000	 28.2197
6.392000	 28.1904
6.410000	 28.2098
6.428000	 28.2973
6.446000	 28.3023
6.464000	 28.2045
6.482000	 28.1589
6.500000	 28.1736
6.518000	 28.1883
6.536000	 28.1768
6.554000	 28.1305
6.572000	 28.133
6.590000	 28.1511
6.608000	 28.1116
6.626000	 28.0966
6.644000	 28.1064
6.662000	 28.0892
6.680000	 28.0576
6.698000	 28.009
6.716000	 27.9667
6.734000	 27.952
6.752000	 27.9703
6.770000	 27.9925
6.788000	 28.0203
6.806000	 28.0597
6.824000	 28.0577
6.842000	 27.9905
6.860000	 27.9036
6.878000	 27.8813
6.896000	 27.8958
6.914000	 27.8494
6.932000	 27.803
6.950000	 27.835
6.968000	 27.8714
6.986000	 27.8524
7.004000	 27.7975
7.022000	 27.7462
7.040000	 27.7749
7.058000	 27.8499
7.076000	 27.8518
7.094000	 27.7999
7.112000	 27.7481
7.130000	 27.6567
7.148000	 27.545
7.166000	 27.5049
7.184000	 27.5434
7.202000	 27.5804
7.220000	 27.5721
7.238000	 27.5448
7.256000	 27.5096
7.274000	 27.4649
7.292000	 27.4496
7.310000	 27.4839
7.328000	 27.5325
7.346000	 27.5649
7.364000	 27.5628
7.382000	 27.5071
7.400000	 27.4292
7.418000	 27.4021
7.436000	 27.4217
7.454000	 27.4168
7.472000	 27.3821
7.490000	 27.3619
7.508000	 27.3534
7.526000	 27.3446
7.544000	 27.3578
7.562000	 27.3947
7.580000	 27.4174
7.598000	 27.4051
7.616000	 27.3695
7.634000	 27.3144
7.652000	 27.2478
7.670000	 27.2134
7.688000	 27.2353
7.706000	 27.2645
7.724000	 27.2505
7.742000	 27.2153
7.760000	 27.2106
7.778000	 27.2335
7.796000	 27.2368
7.814000	 27.2117
7.832000	 27.1915
7.850000	 27.1844
7.868000	 27.1751
7.886000	 27.1762
7.904000	 27.2016
7.922000	 27.2304
7.940000	 27.2445
7.958000	 27.2414
7.976000	 27.2149
7.994000	 27.1682
8.012000	 27.123
8.030000	 27.0834
8.048000	 27.0283
8.065999	 26.9573
8.084000	 26.9059
8.102000	 26.9082
8.120000	 26.9508
8.138000	 26.9846
8.155999	 26.9826
8.173999	 26.9615
8.192000	 26.9463
8.210000	 26.944
8.228000	 26.9492
8.246000	 26.9446
8.263999	 26.908
8.282000	 26.851
8.300000	 26.8245
8.318000	 26.8571
8.336000	 26.913
8.353999	 26.9397
8.372000	 26.9302
8.390000	 26.9118
8.408000	 26.8911
8.426000	 26.8462
8.443999	 26.7675
8.462000	 26.6843
8.480000	 26.6374
8.498000	 26.6423
8.516000	 26.6836
8.533999	 26.7356
8.552000	 26.7719
8.570000	 26.7689
8.588000	 26.7196
8.606000	 26.6495
8.624000	 26.601
8.641999	 26.5931
8.660000	 26.6007
8.678000	 26.5834
8.696000	 26.5301
8.714000	 26.4713
8.731999	 26.4463
8.750000	 26.4646
8.768000	 26.5026
8.786000	 26.5329
8.804000	 26.5487
8.821999	 26.5586
8.840000	 26.5642
8.858000	 26.5524
8.876000	 26.5073
8.894000	 26.4282
8.911999	 26.3348
8.930000	 26.2598
8.948000	 26.2261
8.966000	 26.2302
8.984000	 26.2502
9.001999	 26.2703
9.020000	 26.294
9.038000	 26.3316
9.056000	 26.3834
9.074000	 26.4365
9.092000	 26.4735
9.109999	 26.4781
9.128000	 26.4401
9.146000	 26.3678
9.164000	 26.2928
9.182000	 26.2493
9.199999	 26.2419
9.218000	 26.2416
9.236000	 26.219
9.254000	 26.1774
9.272000	 26.1446
9.289999	 26.1341
9.308000	 26.124
9.326000	 26.0796
9.344000	 25.9898
9.362000	 25.8775
9.379999	 25.7809
9.398000	 25.7253
9.416000	 25.7153
9.434000	 25.7396
9.452000	 25.7786
9.469999	 25.8142
9.488000	 25.8386
9.506000	 25.8574
9.524000	 25.8808
9.542000	 25.9085
9.560000	 25.9251
9.577999	 25.9109
9.596000	 25.8591
9.614000	 25.7836
9.632000	 25.7076
9.650000	 25.6498
9.667999	 25.6163
9.686000	 25.6006
9.704000	 25.5905
9.722000	 25.5747
9.740000	 25.5477
9.757999	 25.5108
9.776000	 25.4714
9.794000	 25.442
9.812000	 25.4349
9.830000	 25.4514
9.847999	 25.4742
9.866000	 25.4724
9.884000	 25.4206
9.902000	 25.32
9.920000	 25.2035
9.937999	 25.1191
9.956000	 25.1004
9.974000	 25.1486
9.992000	 25.237
10.01	25.3268
10.028	25.3855
10.046	25.398
10.064	25.3692
10.082	25.3202
10.1	25.2793
10.118	25.2702
10.136	25.2986
10.154	25.349
10.172	25.3931
10.19	25.4045
10.208	25.3727
10.226	25.304
10.244	25.2151
10.262	25.1231
10.28	25.0397
10.298	24.9718
10.316	24.9222
10.334	24.8925
10.352	24.8832
10.37	24.8922
10.388	24.9152
10.406	24.9445
10.424	24.9689
10.442	24.9767
10.46	24.9596
10.478	24.917
10.496	24.8581
10.514	24.7973
10.532	24.7483
10.55	24.715
10.568	24.6917
10.586	24.6664
10.604	24.6303
10.622	24.582
10.64	24.5269
10.658	24.473
10.676	24.4273
10.694	24.3942
10.712	24.3763
10.73	24.3752
10.748	24.3897
10.766	24.4147
10.784	24.4425
10.802	24.4655
10.82	24.4812
10.838	24.4921
10.856	24.5004
10.874	24.5028
10.892	24.49
10.91	24.451
10.928	24.3824
10.946	24.2926
10.964	24.1998
10.982	24.1243
11	24.0773
11.018	24.0569
11.036	24.0505
11.054	24.0415
11.072	24.0196
11.09	23.9824
11.108	23.9353
11.126	23.8878
11.144	23.8485
11.162	23.8234
11.18	23.8137
11.198	23.815
11.216	23.8195
11.234	23.8181
11.252	23.8034
11.27	23.7729
11.288	23.7294
11.306	23.6794
11.324	23.6306
11.342	23.5888
11.36	23.5559
11.378	23.5312
11.396	23.5137
11.414	23.5044
11.432	23.5065
11.45	23.5233
11.468	23.556
11.486	23.6013
11.504	23.651
11.522	23.6931
11.54	23.717
11.558	23.7158
11.576	23.6892
11.594	23.6423
11.612	23.5847
11.63	23.526
11.648	23.4719
11.666	23.4242
11.684	23.38
11.702	23.3344
11.72	23.2838
11.738	23.2283
11.756	23.1724
11.774	23.1233
11.792	23.0886
11.81	23.0723
11.828	23.0732
11.846	23.0851
11.864	23.0982
11.882	23.1029
11.9	23.0919
11.918	23.062
11.936	23.0149
11.954	22.9556
11.972	22.8914
11.99	22.8298
12.008	22.7773
12.026	22.7384
12.044	22.715
12.062	22.7057
12.08	22.706
12.098	22.7096
12.116	22.7099
12.134	22.7018
12.152	22.6833
12.17	22.6563
12.188	22.626
12.206	22.5992
12.224	22.5823
12.242	22.5791
12.26	22.5901
12.278	22.6123
12.296	22.6396
12.314	22.6648
12.332	22.681
12.35	22.6837
12.368	22.6708
12.386	22.6434
12.404	22.6052
12.422	22.5614
12.44	22.5173
12.458	22.4773
12.476	22.4441
12.494	22.4177
12.512	22.3964
12.53	22.3768
12.548	22.3555
12.566	22.3296
12.584	22.2982
12.602	22.2626
12.62	22.226
12.638	22.1922
12.656	22.1642
12.674	22.1439
12.692	22.1307
12.71	22.123
12.728	22.1184
12.746	22.1148
12.764	22.1112
12.782	22.1079
12.8	22.1059
12.818	22.1059
12.836	22.1077
12.854	22.1094
12.872	22.108
12.89	22.0988
12.908	22.0774
12.926	22.0403
12.944	21.9861
12.962	21.9159
12.98	21.833
12.998	21.743
13.016	21.6528
13.034	21.5696
13.052	21.4999
13.07	21.4477
13.088	21.4145
13.106	21.3986
13.124	21.3949
13.142	21.3972
13.16	21.3986
13.178	21.3942
13.196	21.3811
13.214	21.3599
13.232	21.3337
13.25	21.3081
13.268	21.2884
13.286	21.2794
13.304	21.2835
13.322	21.301
13.34	21.3296
13.358	21.3655
13.376	21.4049
13.394	21.4441
13.412	21.4806
13.43	21.5123
13.448	21.538
13.466	21.5565
13.484	21.5665
13.502	21.5664
13.52	21.5546
13.538	21.5302
13.556	21.4931
13.574	21.444
13.592	21.3849
13.61	21.3187
13.628	21.2494
13.646	21.1812
13.664	21.1181
13.682	21.0637
13.7	21.0205
13.718	20.9903
13.736	20.9735
13.754	20.9688
13.772	20.9738
13.79	20.9848
13.808	20.9975
13.826	21.0076
13.844	21.0111
13.862	21.0055
13.88	20.9901
13.898	20.9658
13.916	20.9351
13.934	20.9017
13.952	20.8693
13.97	20.8411
13.988	20.8191
14.006	20.8044
14.024	20.7966
14.042	20.7947
14.06	20.7964
14.078	20.8
14.096	20.8032
14.114	20.8044
14.132	20.802
14.15	20.7945
14.168	20.7809
14.186	20.7605
14.204	20.7327
14.222	20.6974
14.24	20.6553
14.258	20.6078
14.276	20.5573
14.294	20.5065
14.312	20.4587
14.33	20.4171
14.348	20.3844
14.366	20.3624
14.384	20.3516
14.402	20.3513
14.42	20.3597
14.438	20.3739
14.456	20.3905
14.474	20.406
14.492	20.4173
14.51	20.4216
14.528	20.4173
14.546	20.4037
14.564	20.381
14.582	20.3501
14.6	20.3128
14.618	20.2709
14.636	20.2264
14.654	20.1805
14.672	20.134
14.69	20.0875
14.708	20.0413
14.726	19.9953
14.744	19.9495
14.762	19.9042
14.78	19.8597
14.798	19.8164
14.816	19.7752
14.834	19.7366
14.852	19.7012
14.87	19.6691
14.888	19.6403
14.906	19.6143
14.924	19.5906
14.942	19.568
14.96	19.5454
14.978	19.5216
14.996	19.4957
15.014	19.4668
15.032	19.4344
15.05	19.3987
15.068	19.3604
15.086	19.3207
15.104	19.2815
15.122	19.2451
15.14	19.2141
15.158	19.1908
15.176	19.1774
15.194	19.1756
15.212	19.1862
15.23	19.2084
15.248	19.241
15.266	19.2818
15.284	19.3272
15.302	19.3736
15.32	19.4174
15.338	19.4557
15.356	19.4852
15.374	19.5043
15.392	19.5126
15.41	19.5098
15.428	19.4968
15.446	19.4747
15.464	19.4449
15.482	19.4088
15.5	19.3675
15.518	19.322
15.536	19.2726
15.554	19.22
15.572	19.1645
15.59	19.1067
15.608	19.0474
15.626	18.9873
15.644	18.9276
15.662	18.8698
15.68	18.8154
15.698	18.7657
15.716	18.7225
15.734	18.6869
15.752	18.6593
15.77	18.6402
15.788	18.6293
15.806	18.626
15.824	18.6296
15.842	18.6386
15.86	18.6515
15.878	18.6667
15.896	18.6829
15.914	18.6984
15.932	18.7118
15.95	18.7222
15.968	18.7286
15.986	18.73
16.004	18.7265
16.022	18.7178
16.04	18.7042
16.058	18.6862
16.076	18.6644
16.094	18.6399
16.112	18.6139
16.13	18.5873
16.148	18.5614
16.166	18.5373
16.184	18.5158
16.202	18.4976
16.22	18.4834
16.238	18.473
16.256	18.4666
16.274	18.4634
16.292	18.4627
16.31	18.4637
16.328	18.4647
16.346	18.4645
16.364	18.4621
16.382	18.4559
16.4	18.4449
16.418	18.4284
16.436	18.4056
16.454	18.3763
16.472	18.3407
16.49	18.2991
16.508	18.2522
16.526	18.2005
16.544	18.1453
16.562	18.0876
16.58	18.0283
16.598	17.9691
16.616	17.9111
16.634	17.855
16.652	17.8026
16.67	17.7543
16.688	17.711
16.706	17.6735
16.724	17.6421
16.742	17.6172
16.76	17.5985
16.778	17.5857
16.796	17.5782
16.814	17.5751
16.832	17.5758
16.85	17.5789
16.868	17.5833
16.886	17.588
16.904	17.5914
16.922	17.5928
16.94	17.5911
16.958	17.5855
16.976	17.5757
16.994	17.5613
17.012	17.5427
17.03	17.5199
17.048	17.4941
17.066	17.466
17.084	17.4368
17.102	17.4081
17.12	17.3805
17.138	17.3557
17.156	17.3345
17.174	17.3176
17.192	17.3056
17.21	17.2983
17.228	17.2957
17.246	17.2969
17.264	17.3017
17.282	17.3085
17.3	17.3168
17.318	17.3254
17.336	17.3333
17.354	17.3401
17.372	17.3448
17.39	17.3473
17.408	17.3472
17.426	17.3446
17.444	17.3398
17.462	17.3328
17.48	17.3238
17.498	17.313
17.516	17.3004
17.534	17.2861
17.552	17.2698
17.57	17.2515
17.588	17.2309
17.606	17.208
17.624	17.1828
17.642	17.1553
17.66	17.1256
17.678	17.0946
17.696	17.0624
17.714	17.0299
17.732	16.9977
17.75	16.9665
17.768	16.9367
17.786	16.9086
17.804	16.8825
17.822	16.8583
17.84	16.8357
17.858	16.8143
17.876	16.7936
17.894	16.773
17.912	16.7521
17.93	16.7299
17.948	16.7066
17.966	16.6814
17.984	16.6546
18.002	16.6262
18.02	16.5967
18.038	16.5664
18.056	16.5364
18.074	16.507
18.092	16.4795
18.11	16.4542
18.128	16.4322
18.146	16.4135
18.164	16.399
18.182	16.3884
18.2	16.3819
18.218	16.3789
18.236	16.3791
18.254	16.3814
18.272	16.3854
18.29	16.3894
18.308	16.3931
18.326	16.3948
18.344	16.3941
18.362	16.3894
18.38	16.3804
18.398	16.366
18.416	16.3463
18.434	16.3204
18.452	16.289
18.47	16.2521
18.488	16.2108
18.506	16.1652
18.524	16.1174
18.542	16.0677
18.56	16.0188
18.578	15.9707
18.596	15.9261
18.614	15.8852
18.632	15.8499
18.65	15.8202
18.668	15.7971
18.686	15.7805
18.704	15.7701
18.722	15.7656
18.74	15.7658
18.758	15.7702
18.776	15.7772
18.794	15.786
18.812	15.795
18.83	15.8038
18.848	15.8108
18.866	15.8159
18.884	15.8184
18.902	15.8184
18.92	15.8157
18.938	15.8108
18.956	15.8041
18.974	15.7963
18.992	15.7881
19.01	15.7802
19.028	15.7735
19.046	15.7684
19.064	15.7658
19.082	15.7657
19.1	15.7688
19.118	15.7748
19.136	15.7839
19.154	15.7957
19.172	15.81
19.19	15.8265
19.208	15.8445
19.226	15.8638
19.244	15.8839
19.262	15.9044
19.28	15.9246
19.298	15.9445
19.316	15.9633
19.334	15.9811
19.352	15.9971
19.37	16.0114
19.388	16.0232
19.406	16.0326
19.424	16.039
19.442	16.0423
19.46	16.0419
19.478	16.0379
19.496	16.0297
19.514	16.0174
19.532	16.0009
19.55	15.9801
19.568	15.9554
19.586	15.9268
19.604	15.8947
19.622	15.8597
19.64	15.8221
19.658	15.7831
19.676	15.7426
19.694	15.7022
19.712	15.6618
19.73	15.6229
19.748	15.5856
19.766	15.551
19.784	15.5194
19.802	15.4914
19.82	15.4674
19.838	15.4475
19.856	15.4322
19.874	15.4211
19.892	15.414
19.91	15.411
19.928	15.4109
19.946	15.414
19.964	15.4187
19.982	15.425
20	15.4318
20.018	15.4384
20.036	15.4443
20.054	15.4481
20.072	15.4501
20.09	15.4487
20.108	15.4443
20.126	15.4358
20.144	15.4232
20.162	15.4063
20.18	15.3848
20.198	15.359
20.216	15.3287
20.234	15.2943
20.252	15.2565
20.27	15.2151
20.288	15.1714
20.306	15.1253
20.324	15.0778
20.342	15.0298
20.36	14.9814
20.378	14.9343
20.396	14.8882
20.414	14.845
20.432	14.8044
20.45	14.7676
20.468	14.7353
20.486	14.7075
20.504	14.6852
20.522	14.668
20.54	14.6563
20.558	14.6503
20.576	14.6492
20.594	14.6531
20.612	14.6613
20.63	14.6726
20.648	14.6872
20.666	14.7028
20.684	14.7197
20.702	14.7361
20.72	14.7508
20.738	14.7636
20.756	14.7726
20.774	14.7781
20.792	14.7785
20.81	14.7734
20.828	14.7632
20.846	14.7474
20.864	14.7263
20.882	14.7015
20.9	14.6722
20.918	14.6409
20.936	14.6088
20.954	14.576
20.972	14.5463
20.99	14.5186
21.008	14.4961
21.026	14.4798
21.044	14.4699
21.062	14.4686
21.08	14.4757
21.098	14.4912
21.116	14.5159
21.134	14.5487
21.152	14.5884
21.17	14.6354
21.188	14.6862
21.206	14.7411
21.224	14.798
21.242	14.8534
21.26	14.9084
21.278	14.9585
21.296	15.0031
21.314	15.0412
21.332	15.0695
21.35	15.0889
21.368	15.0978
21.386	15.0952
21.404	15.0821
21.422	15.0586
21.44	15.0244
21.458	14.9818
21.476	14.931
21.494	14.8728
21.512	14.8109
21.53	14.7441
21.548	14.6758
21.566	14.6085
21.584	14.5413
21.602	14.4784
21.62	14.4195
21.638	14.3659
21.656	14.3201
21.674	14.2814
21.692	14.2507
21.71	14.2286
21.728	14.2146
21.746	14.2082
21.764	14.2102
21.782	14.2183
21.8	14.2315
21.818	14.2502
21.836	14.2713
21.854	14.2953
21.872	14.3206
21.89	14.3442
21.908	14.3672
21.926	14.3869
21.944	14.4012
21.962	14.4111
21.98	14.4138
21.998	14.4091
22.016	14.397
22.034	14.3761
22.052	14.3466
22.07	14.3089
22.088	14.2631
22.106	14.2091
22.124	14.1488
22.142	14.082
22.16	14.0093
22.178	13.9337
22.196	13.8542
22.214	13.7726
22.232	13.6917
22.25	13.6102
22.268	13.5305
22.286	13.4542
22.304	13.3805
22.322	13.3116
22.34	13.2479
22.358	13.1891
22.376	13.1353
22.394	13.0871
22.412	13.0433
22.43	13.0026
22.448	12.966
22.466	12.9311
22.484	12.8961
22.502	12.8621
22.52	12.8258
22.538	12.7861
22.556	12.7435
22.574	12.6949
22.592	12.6398
22.61	12.5784
22.628	12.5087
22.646	12.4308
22.664	12.3449
22.682	12.2509
22.7	12.1481
22.718	12.0382
22.736	11.9226
22.754	11.8002
22.772	11.6738
22.79	11.5458
22.808	11.4143
22.826	11.2838
22.844	11.1567
22.862	11.0312
22.88	10.9118
22.898	10.8001
22.916	10.6949
22.934	10.6
22.952	10.5171
22.97	10.4449
22.988	10.3853
23.006	10.3387
23.024	10.3046
23.042	10.2837
23.06	10.2761
23.078	10.2815
23.096	10.2993
23.114	10.3296
23.132	10.3722
23.15	10.426
23.168	10.4915
23.186	10.568
23.204	10.6535
23.222	10.7482
23.24	10.8518
23.258	10.9624
23.276	11.0802
23.294	11.205
23.312	11.3361
23.33	11.4737
23.348	11.6174
23.366	11.7659
23.384	11.9199
23.402	12.0784
23.42	12.239
23.438	12.4024
23.456	12.5679
23.474	12.7315
23.492	12.8936
23.51	13.0542
23.528	13.2087
23.546	13.3572
23.564	13.5001
23.582	13.6317
23.6	13.7507
23.618	13.8588
23.636	13.9505
23.654	14.0231
23.672	14.0793
23.69	14.1142
23.708	14.1248
23.726	14.1134
23.744	14.0774
23.762	14.0143
23.78	13.9249
23.798	13.81
23.816	13.6698
23.834	13.5025
23.852	13.3118
23.87	13.102
23.888	12.8703
23.906	12.6199
23.924	12.3582
23.942	12.0838
23.96	11.7973
23.978	11.508
23.996	11.2174
24.014	10.9226
24.032	10.6342
24.05	10.3584
24.068	10.0891
24.086	9.835167
24.104	9.604919
24.122	9.393222
24.14	9.204238
24.158	9.044910
24.176	8.914126
24.194	8.811276
24.212	8.738804
24.23	8.698106
24.248	8.687690
24.266	8.705807
24.284	8.752522
24.302	8.829410
24.32	8.930209
24.338	9.049575
24.356	9.192759
24.374	9.353292
24.392	9.521487
24.41	9.701309
24.428	9.890582
24.446	10.077
24.464	10.2566
24.482	10.4352
24.5	10.6017
24.518	10.747
24.536	10.8785
24.554	10.9892
24.572	11.0687
24.59	11.1188
24.608	11.1402
24.626	11.1263
24.644	11.0739
24.662	10.9865
24.68	10.8611
24.698	10.6943
24.716	10.4874
24.734	10.2409
24.752	9.954523
24.77	9.627258
24.788	9.260067
24.806	8.855633
24.824	8.415159
24.842	7.935907
24.86	7.423255
24.878	6.883400
24.896	6.313185
24.914	5.714329
24.932	5.094709
24.95	4.457889
24.968	3.798894
24.986	3.124925
25.004	2.443536
25.022	1.749885
25.04	1.046933
25.058	0.343540
25.076	-0.357224
25.094	-1.060765
25.112	-1.758611
25.13	-2.442314
25.148	-3.117667
25.166	-3.781363
25.184	-4.423824
25.202	-5.041087
25.22	-5.639135
25.238	-6.210935
25.256	-6.749171
25.274	-7.259851
25.292	-7.739616
25.31	-8.177663
25.328	-8.568963
25.346	-8.922171
25.364	-9.226562
25.382	-9.469773
25.4	-9.655985
25.418	-9.786173
25.436	-9.849110
25.454	-9.836301
25.472	-9.755248
25.49	-9.602276
25.508	-9.370965
25.526	-9.059306
25.544	-8.670911
25.562	-8.204758
25.58	-7.659615
25.598	-7.033050
25.616	-6.329196
25.634	-5.554119
25.652	-4.709060
25.67	-3.786087
25.688	-2.800525
25.706	-1.769808
25.724	-0.688934
25.742	0.446645
25.76	1.611227
25.778	2.781460
25.796	3.975171
25.814	5.183906
25.832	6.382739
25.85	7.556352
25.868	8.724722
25.886	9.871185
25.904	10.9739
25.922	12.0286
25.94	13.0477
25.958	14.0157
25.976	14.9173
25.994	15.7571
26.012	16.5377
26.03	17.2499
26.048	17.8856
26.066	18.4497
26.084	18.9423
26.102	19.3605
26.12	19.7021
26.138	19.9684
26.156	20.1612
26.174	20.2816
26.192	20.3278
26.21	20.2984
26.228	20.2018
26.246	20.0471
26.264	19.8331
26.282	19.5567
26.3	19.2267
26.318	18.8514
26.336	18.4269
26.354	17.9533
26.372	17.4377
26.39	16.8872
26.408	16.2982
26.426	15.6708
26.444	15.0092
26.462	14.3164
26.48	13.5902
26.498	12.8315
26.516	12.0423
26.534	11.2243
26.552	10.3757
26.57	9.497909
26.588	8.592821
26.606	7.660724
26.624	6.697850
26.642	5.710034
26.66	4.704182
26.678	3.683167
26.696	2.640022
26.714	1.582156
26.732	0.518330
26.75	-0.550553
26.768	-1.635944
26.786	-2.720465
26.804	-3.784779
26.822	-4.819385
26.84	-5.838901
26.858	-6.835190
26.876	-7.798317
26.894	-8.720847
26.912	-9.607326
26.93	-10.4628
26.948	-11.2921
26.966	-12.1278
26.984	-13.0108
27.002	-13.8304
27.02	-14.4668
27.028	-14.6397