File: Bakgrunnsmateriale/MATLAB/FTIR/ftir_data/LPE453/Mapping_121/LPE453_t73_cm-1.asc
PE IR       SPECTRUM    SPECTRUM    ASCII       PEDS        1.60
  -1
LPDAD5~1.ASC
17/05/16
20:22:44.00
17/05/16
20:22:44.00
tln
$LPE453_t0073$<tbV0>[-2.6,2.6,8.0,0.0,27,1,0]
370
64

2002,4.07
MIRTGS : RIGHTBACK : INTERNAL 2
MIR : ON : INTERNAL 2
OPTKBR

0.200000
8
8.000000
FILLER
RATIO
SPECTRUM
UNLOCKED 256

DOUBLE
64
COMBINED
1
0
0

1.000000
RATIO

1
0
TRUE
51149
0
LEFT NOT FITTED RIGHT NOT FITTED 0
NONE
NONE
15600
12
4.427000
51148
TRUE
1 0 8 72 0 0 0 0

15798

#HDR
-1
-1
#GR
CM-1
%T
2.38419e-05
0.0
5000
-1.000000
4631
8
33.4359
-2.370214
#DATA
5000	0.027704
4996	0.279641
4992	0.427484
4988	0.478529
4984	0.707864
4980	0.935673
4976	0.794029
4972	0.535202
4968	0.350856
4964	0.003933
4960	-0.246405
4956	-0.286412
4952	-0.296306
4948	-0.146317
4944	0.122809
4940	0.279664
4936	0.216984
4932	0.063276
4928	-0.078463
4924	-0.172758
4920	-0.056195
4916	0.172114
4912	0.188803
4908	0.132250
4904	0.264167
4900	0.315022
4896	0.326633
4892	0.495791
4888	0.629305
4884	0.705671
4880	0.569105
4876	0.169181
4872	-0.049734
4868	0.061893
4864	0.054478
4860	-0.073456
4856	0.098538
4852	0.334453
4848	0.315713
4844	0.045108
4840	-0.222539
4836	-0.209045
4832	0.072050
4828	0.303649
4824	0.270700
4820	0.296592
4816	0.464010
4812	0.431108
4808	0.295424
4804	0.334048
4800	0.430750
4796	0.437664
4792	0.295639
4788	0.059413
4784	-0.062108
4780	-0.154781
4776	-0.243496
4772	-0.059437
4768	0.246691
4764	0.371026
4760	0.389313
4756	0.233650
4752	0.033450
4748	0.369167
4744	1.108717
4740	1.270723
4736	0.157332
4732	-0.853061
4728	-0.336503
4724	0.088572
4720	-0.364589
4716	-0.874662
4712	-1.143670
4708	-0.698947
4704	0.244855
4700	0.628900
4696	0.422143
4692	0.523257
4688	0.786423
4684	0.812745
4680	1.250791
4676	1.899623
4672	1.623272
4668	0.509881
4664	-0.342845
4660	0.101971
4656	1.324701
4652	2.026486
4648	2.327036
4644	2.134060
4640	1.066064
4636	0.178122
4632	0.212740
4628	0.606656
4624	0.344395
4620	-0.273513
4616	-0.330281
4612	-0.124764
4608	0.045752
4604	0.225853
4600	0.512361
4596	0.684785
4592	0.877833
4588	0.969767
4584	0.589513
4580	0.250959
4576	0.219774
4572	0.179719
4568	-0.104665
4564	-0.352883
4560	-0.440239
4556	-0.408029
4552	-0.158333
4548	-0.192427
4544	-0.473546
4540	-0.271749
4536	0.088953
4532	0.066256
4528	0.340318
4524	0.569677
4520	0.131750
4516	-0.011777
4512	0.129508
4508	0.574064
4504	1.347017
4500	0.874233
4496	-2.223396
4492	2.185034
4488	14.8949
4484	16.7155
4480	9.293651
4476	2.345871
4472	-2.000093
4468	-1.925301
4464	-0.677013
4460	0.004196
4456	-0.116562
4452	-0.841355
4448	-1.191997
4444	-0.953674
4440	-0.472927
4436	-0.303101
4432	-0.636386
4428	-1.010775
4424	-0.984883
4420	-0.668692
4416	-0.244712
4412	0.238084
4408	0.507354
4404	0.527167
4400	0.401115
4396	0.217509
4392	0.342869
4388	0.654602
4384	0.673246
4380	0.456738
4376	0.297546
4372	0.189423
4368	0.066590
4364	0.044465
4360	0.214195
4356	0.372123
4352	0.282239
4348	0.228166
4344	0.429391
4340	0.476336
4336	0.350666
4332	0.431776
4328	0.530743
4324	0.364089
4320	0.054287
4316	-0.236845
4312	-0.321960
4308	-0.092387
4304	0.096487
4300	0.077342
4296	0.149488
4292	0.306653
4288	0.211167
4284	-0.034284
4280	-0.117802
4276	-0.093770
4272	0.100684
4268	0.439667
4264	0.508379
4260	0.357389
4256	0.305008
4252	0.248670
4248	0.121855
4244	0.087308
4240	0.190043
4236	0.263142
4232	0.024032
4228	-0.190615
4224	-0.026130
4220	0.040388
4216	-0.149750
4212	-0.212264
4208	-0.047492
4204	0.105190
4200	0.298166
4196	0.398182
4192	0.240755
4188	0.208687
4184	0.140190
4180	-0.048232
4176	-0.067114
4172	-0.000762
4168	-0.012612
4164	-0.165581
4160	-0.132179
4156	0.144600
4152	0.220870
4148	0.089931
4144	0.036907
4140	0.089073
4136	0.106287
4132	0.117087
4128	0.240802
4124	0.303673
4120	0.118947
4116	-0.103259
4112	-0.080823
4108	0.139117
4104	0.300097
4100	0.315165
4096	0.239443
4092	0.136923
4088	0.070381
4084	0.070428
4080	0.145173
4076	0.172472
4072	0.102925
4068	0.056767
4064	0.037097
4060	-0.021767
4056	-0.113630
4052	-0.155544
4048	-0.029420
4044	0.154042
4040	0.211000
4036	0.182962
4032	0.113058
4028	0.056600
4024	0.032663
4020	-0.004720
4016	-0.031518
4012	-0.010752
4008	0.047588
4004	0.103068
4000	0.167822
3996	0.159740
3992	-0.046443
3988	-0.275278
3984	-0.290989
3980	-0.137090
3976	0.018262
3972	0.088667
3968	0.139713
3964	0.288677
3960	0.352025
3956	0.179505
3952	0.054526
3948	0.067257
3944	0.072407
3940	0.045657
3936	-0.017046
3932	-0.028276
3928	0.005483
3924	-0.011730
3920	-0.022840
3916	-0.058603
3912	-0.102376
3908	-0.040745
3904	0.051045
3900	0.088667
3896	0.143074
3892	0.169730
3888	0.102257
3884	-0.004673
3880	-0.110888
3876	-0.117564
3872	-0.011682
3868	0.052070
3864	0.034165
3860	0.009441
3856	0.019431
3852	0.049018
3848	0.004220
3844	-0.063824
3840	0.026869
3836	0.151658
3832	0.093054
3828	-0.050854
3824	-0.156140
3820	-0.167560
3816	-0.044560
3812	0.071024
3808	0.055742
3804	0.022315
3800	0.076174
3796	0.090098
3792	0.027203
3788	0.020337
3784	0.071716
3780	0.081992
3776	0.041675
3772	0.043821
3768	0.060653
3764	0.069928
3760	0.048637
3756	-0.038385
3752	-0.090718
3748	-0.108957
3744	-0.084471
3740	-0.023484
3736	-0.003528
3732	0.038146
3728	0.115561
3724	0.123548
3720	0.047612
3716	0.008106
3712	0.056457
3708	0.065445
3704	0.001144
3700	-0.045251
3696	-0.026726
3692	0.052523
3688	0.072860
3684	-0.004696
3680	-0.025916
3676	0.030660
3672	0.036168
3668	0.012373
3664	0.026369
3660	0.018239
3656	-0.021481
3652	-0.040936
3648	-0.046730
3644	-0.003480
3640	0.080418
3636	0.129508
3632	0.107169
3628	0.031256
3624	0.035023
3620	0.122690
3616	0.096368
3612	-0.068879
3608	-0.177288
3604	-0.117874
3600	-0.019145
3596	0.047636
3592	0.136494
3588	0.155472
3584	0.109982
3580	0.106883
3576	0.126433
3572	0.127077
3568	0.067925
3564	0.006341
3560	0.046014
3556	0.157284
3552	0.170016
3548	0.093674
3544	0.066804
3540	0.050115
3536	0.063705
3532	0.105929
3528	0.048470
3524	-0.004434
3520	0.063943
3516	0.079679
3512	0.001430
3508	-0.041985
3504	0.010180
3500	0.158381
3496	0.312495
3492	0.354027
3488	0.257134
3484	0.136423
3480	0.012207
3476	-0.142860
3472	-0.159597
3468	-0.016069
3464	0.099134
3460	0.124692
3456	0.076770
3452	-0.049400
3448	-0.149059
3444	-0.139951
3440	-0.036501
3436	0.019311
3432	-0.029850
3428	-0.027441
3424	0.098824
3420	0.228667
3416	0.284266
3412	0.195717
3408	0.037336
3404	-0.014138
3400	0.021338
3396	0.059366
3392	0.055694
3388	-0.017738
3384	-0.105381
3380	-0.114727
3376	-0.027465
3372	0.090718
3368	0.137519
3364	0.091934
3360	0.053405
3356	0.037455
3352	0.061655
3348	0.083208
3344	-0.003170
3340	-0.035572
3336	0.013256
3332	0.028753
3328	0.050878
3324	0.080442
3320	0.091814
3316	0.102758
3312	0.122261
3308	0.119209
3304	0.120139
3300	0.146079
3296	0.151395
3292	0.132036
3288	0.121021
3284	0.145387
3280	0.179553
3276	0.112414
3272	-0.035095
3268	-0.128221
3264	-0.121307
3260	-0.040674
3256	0.000095
3252	0.016427
3248	0.073981
3244	0.055837
3240	-0.002861
3236	0.058054
3232	0.146937
3228	0.086236
3224	-0.034809
3220	-0.086736
3216	-0.113248
3212	-0.136017
3208	-0.147533
3204	-0.088834
3200	0.025248
3196	0.111341
3192	0.193047
3188	0.184440
3184	0.052309
3180	-0.046396
3176	-0.064682
3172	-0.073218
3168	-0.062227
3164	-0.084805
3160	-0.099039
3156	-0.002074
3152	0.057220
3148	0.060486
3144	0.094819
3140	0.135469
3136	0.209999
3132	0.255966
3128	0.162696
3124	0.023412
3120	-0.014019
3116	0.044298
3112	0.053000
3108	-0.006103
3104	0.008010
3100	0.103998
3096	0.114417
3092	-0.010681
3088	-0.085687
3084	-0.056290
3080	-0.022816
3076	-0.004196
3072	0.012803
3068	0.036764
3064	0.020360
3060	-0.001978
3056	0.056290
3052	0.100898
3048	0.038456
3044	-0.036883
3040	-0.020289
3036	0.045323
3032	0.077891
3028	0.063419
3024	0.076484
3020	0.109791
3016	0.071096
3012	-0.008416
3008	-0.069594
3004	-0.111293
3000	-0.126028
2996	-0.115132
2992	-0.126099
2988	-0.128555
2984	-0.083518
2980	-0.029730
2976	0.028896
2972	0.092911
2968	0.103998
2964	0.032806
2960	-0.005412
2956	0.026059
2952	0.030541
2948	0.031971
2944	0.073432
2940	0.094246
2936	0.101733
2932	0.178956
2928	0.211238
2924	0.115990
2920	0.040817
2916	0.041294
2912	0.113534
2908	0.133657
2904	0.009489
2900	-0.059747
2896	0.010251
2892	0.093603
2888	0.116086
2884	0.132942
2880	0.182342
2876	0.196337
2872	0.152230
2868	0.067377
2864	0.024080
2860	0.036001
2856	0.021672
2852	0.029826
2848	0.054311
2844	0.020194
2840	-0.033497
2836	-0.013709
2832	0.046801
2828	0.049805
2824	0.037717
2820	0.066614
2816	0.070261
2812	0.036787
2808	0.026082
2804	0.022816
2800	0.012922
2796	0.031805
2792	0.062012
2788	0.053715
2784	0.005745
2780	-0.004410
2776	0.038361
2772	0.041866
2768	-0.019073
2764	-0.045514
2760	0.020098
2756	0.075745
2752	0.056147
2748	-0.006532
2744	-0.077056
2740	-0.102615
2736	-0.055980
2732	0.005841
2728	0.012755
2724	-0.008964
2720	0.007176
2716	0.044250
2712	0.052523
2708	0.019025
2704	-0.025367
2700	-0.023531
2696	0.024962
2692	0.050878
2688	0.018835
2684	0.004196
2680	0.072765
2676	0.129127
2672	0.090861
2668	0.032639
2664	0.035548
2660	0.077128
2656	0.081729
2652	0.027179
2648	0.011730
2644	0.068068
2640	0.070333
2636	0.012850
2632	-0.010275
2628	0.004768
2624	0.019240
2620	0.038242
2616	0.055193
2612	0.047683
2608	0.040769
2604	0.011014
2600	0.006198
2596	0.074529
2592	0.110745
2588	0.094699
2584	0.062322
2580	0.020527
2576	0.030970
2572	0.046110
2568	0.009298
2564	0.008606
2560	0.012326
2556	-0.006508
2552	0.031638
2548	0.051379
2544	0.019812
2540	-0.002455
2536	-0.012302
2532	-0.026845
2528	-0.038647
2524	-0.003480
2520	0.042319
2516	0.018668
2512	-0.042009
2508	-0.018429
2504	0.104641
2500	0.175762
2496	0.128841
2492	0.071167
2488	0.054073
2484	0.045132
2480	0.048089
2476	0.051188
2472	0.013184
2468	-0.013637
2464	-0.020337
2460	-0.054025
2456	-0.011420
2452	0.095582
2448	0.122761
2444	0.068283
2440	-0.015950
2436	-0.031423
2432	-0.009632
2428	0.007414
2424	0.128078
2420	0.165581
2416	0.018739
2412	0.015974
2408	0.146484
2404	0.100898
2400	-0.012230
2396	-0.035309
2392	-0.021266
2388	-0.012063
2384	-0.012040
2380	0.024867
2376	0.057744
2372	0.055146
2368	0.060415
2364	0.038266
2360	-0.039124
2356	-0.070357
2352	-0.004339
2348	0.079894
2344	0.134944
2340	0.170564
2336	0.189924
2332	0.196504
2328	0.220656
2324	0.262093
2320	0.266313
2316	0.212764
2312	0.166177
2308	0.187635
2304	0.267291
2300	0.367498
2296	0.450611
2292	0.510144
2288	0.566840
2284	0.607848
2280	0.644111
2276	0.690913
2272	0.734615
2268	0.822377
2264	0.953483
2260	1.055288
2256	1.129412
2252	1.209306
2248	1.334595
2244	1.492857
2240	1.612830
2236	1.786518
2232	2.066016
2228	2.293491
2224	2.425742
2220	2.592110
2216	2.834177
2212	3.062415
2208	3.268241
2204	3.513002
2200	3.783869
2196	4.086017
2192	4.443955
2188	4.781055
2184	5.029749
2180	5.283117
2176	5.637288
2172	6.032323
2168	6.413555
2164	6.803917
2160	7.251763
2156	7.714462
2152	8.120417
2148	8.538818
2144	9.018826
2140	9.483623
2136	9.883999
2132	10.3088
2128	10.8266
2124	11.3474
2120	11.8216
2116	12.2846
2112	12.7532
2108	13.2419
2104	13.734
2100	14.202
2096	14.6669
2092	15.1617
2088	15.7103
2084	16.3064
2080	16.7837
2076	17.1522
2072	17.7026
2068	18.3163
2064	18.7439
2060	19.092
2056	19.4815
2052	19.9328
2048	20.3712
2044	20.7722
2040	21.1673
2036	21.5569
2032	21.9613
2028	22.3512
2024	22.7119
2020	23.0515
2016	23.41
2012	23.8266
2008	24.2096
2004	24.5091
2000	24.8276
1996	25.1971
1992	25.5412
1988	25.8376
1984	26.1015
1980	26.3602
1976	26.637
1972	26.8864
1968	27.1056
1964	27.3101
1960	27.5104
1956	27.739
1952	28.0062
1948	28.2829
1944	28.4932
1940	28.7081
1936	28.9768
1932	29.1883
1928	29.3551
1924	29.5373
1920	29.6937
1916	29.7879
1912	29.8997
1908	30.0508
1904	30.2077
1900	30.3922
1896	30.5705
1892	30.6865
1888	30.7853
1884	30.924
1880	31.0392
1876	31.1259
1872	31.2159
1868	31.2878
1864	31.396
1860	31.5196
1856	31.6192
1852	31.7388
1848	31.8223
1844	31.8495
1840	31.9221
1836	32.074
1832	32.2005
1828	32.2139
1824	32.1758
1820	32.1591
1816	32.1825
1812	32.2536
1808	32.3551
1804	32.4642
1800	32.5626
1796	32.6379
1792	32.7056
1788	32.7728
1784	32.812
1780	32.8056
1776	32.7662
1772	32.7274
1768	32.7072
1764	32.7304
1760	32.777
1756	32.8275
1752	32.9468
1748	33.0623
1744	33.0843
1740	33.0962
1736	33.1677
1732	33.196
1728	33.1158
1724	33.0603
1720	33.0914
1716	33.1378
1712	33.1456
1708	33.1228
1704	33.1309
1700	33.193
1696	33.2304
1692	33.2211
1688	33.2477
1684	33.2615
1680	33.2
1676	33.1625
1672	33.1439
1668	33.1106
1664	33.1287
1660	33.1761
1656	33.2125
1652	33.2564
1648	33.3233
1644	33.3704
1640	33.3679
1636	33.3359
1632	33.2811
1628	33.2066
1624	33.134
1620	33.1141
1616	33.1323
1612	33.0997
1608	33.0714
1604	33.1627
1600	33.2756
1596	33.3516
1592	33.4282
1588	33.4069
1584	33.301
1580	33.2184
1576	33.1249
1572	33.0112
1568	32.9801
1564	33.0198
1560	33.0482
1556	33.0931
1552	33.1349
1548	33.1435
1544	33.1722
1540	33.2193
1536	33.2444
1532	33.2132
1528	33.1463
1524	33.0751
1520	32.9566
1516	32.8369
1512	32.8318
1508	32.9285
1504	33.0194
1500	33.0922
1496	33.1729
1492	33.1677
1488	33.0911
1484	33.0298
1480	32.9901
1476	32.9602
1472	32.9042
1468	32.8127
1464	32.6972
1460	32.6239
1456	32.6493
1452	32.7301
1448	32.8035
1444	32.8579
1440	32.9317
1436	32.9987
1432	33.0262
1428	33.0157
1424	32.9424
1420	32.8447
1416	32.7438
1412	32.6438
1408	32.5962
1404	32.5791
1400	32.6166
1396	32.7247
1392	32.7944
1388	32.8192
1384	32.8468
1380	32.8674
1376	32.8093
1372	32.6173
1368	32.4236
1364	32.3559
1360	32.3293
1356	32.3056
1352	32.4116
1348	32.5985
1344	32.6877
1340	32.7311
1336	32.7983
1332	32.7839
1328	32.6687
1324	32.536
1320	32.3772
1316	32.2183
1312	32.1257
1308	32.0799
1304	32.1196
1300	32.2316
1296	32.3295
1292	32.4231
1288	32.5209
1284	32.6052
1280	32.5657
1276	32.3908
1272	32.2877
1268	32.2432
1264	32.1676
1260	32.0863
1256	31.9907
1252	31.9705
1248	32.0542
1244	32.129
1240	32.1987
1236	32.2749
1232	32.2983
1228	32.2958
1224	32.2132
1220	32.0109
1216	31.856
1212	31.8008
1208	31.7483
1204	31.6862
1200	31.6657
1196	31.7154
1192	31.8174
1188	31.9862
1184	32.1476
1180	32.2233
1176	32.1954
1172	32.0584
1168	31.8557
1164	31.6383
1160	31.4972
1156	31.4405
1152	31.377
1148	31.2809
1144	31.3036
1140	31.4963
1136	31.6671
1132	31.7097
1128	31.7003
1124	31.7262
1120	31.715
1116	31.5888
1112	31.4082
1108	31.291
1104	31.1589
1100	30.9465
1096	30.8673
1092	30.9833
1088	31.1491
1084	31.2576
1080	31.2394
1076	31.1948
1072	31.2416
1068	31.2603
1064	31.1793
1060	31.0536
1056	30.9064
1052	30.7463
1048	30.6448
1044	30.6469
1040	30.6982
1036	30.7539
1032	30.7907
1028	30.8303
1024	30.9313
1020	30.9957
1016	30.8854
1012	30.6662
1008	30.4107
1004	30.1639
1000	30.0048
996	 30.0039
992	 30.0885
988	 30.1278
984	 30.2104
980	 30.386
976	 30.5227
972	 30.5594
968	 30.5296
964	 30.3719
960	 30.0686
956	 29.8308
952	 29.6809
948	 29.5121
944	 29.4731
940	 29.5999
936	 29.6597
932	 29.6261
928	 29.7233
924	 29.9137
920	 29.9664
916	 29.9066
912	 29.8514
908	 29.7042
904	 29.4168
900	 29.1653
896	 28.9573
892	 28.7848
888	 28.7897
884	 28.901
880	 28.9667
876	 28.9397
872	 28.9572
868	 29.0962
864	 29.1594
860	 29.0958
856	 28.9882
852	 28.8022
848	 28.5348
844	 28.2704
840	 28.0701
836	 28.017
832	 28.0967
828	 28.2334
824	 28.4009
820	 28.4918
816	 28.5427
812	 28.5362
808	 28.3509
804	 28.122
800	 27.9582
796	 27.7601
792	 27.4751
788	 27.2588
784	 27.2088
780	 27.2278
776	 27.2694
772	 27.3676
768	 27.4049
764	 27.3206
760	 27.3311
756	 27.4028
752	 27.251
748	 26.929
744	 26.7053
740	 26.6101
736	 26.46
732	 26.2367
728	 26.1381
724	 26.2807
720	 26.5203
716	 26.5891
712	 26.5222
708	 26.4467
704	 26.3623
700	 26.2792
696	 26.0595
692	 25.6995
688	 25.4043
684	 25.1983
680	 25.0858
676	 25.0098
672	 24.9191
668	 25.0069
664	 25.1791
660	 25.2444
656	 25.2574
652	 25.145
648	 25.0164
644	 24.8846
640	 24.522
636	 24.1202
632	 23.8293
628	 23.7097
624	 23.8567
620	 24.0084
616	 24.1159
612	 24.3437
608	 24.4986
604	 24.4313
600	 24.1806
596	 23.7878
592	 23.4288
588	 23.0936
584	 22.6979
580	 22.475
576	 22.444
572	 22.3299
568	 22.1672
564	 22.1658
560	 22.3367
556	 22.4625
552	 22.2824
548	 22.0867
544	 22.2996
540	 22.3833
536	 21.9632
532	 21.586
528	 21.5202
524	 21.6749
520	 21.8628
516	 21.694
512	 21.2555
508	 21.116
504	 21.1735
500	 21.0422
496	 20.7949
492	 20.3727
488	 20.0213
484	 19.8823
480	 19.4937
476	 19.0416
472	 19.1681
468	 19.5307
464	 19.4578
460	 18.8121
456	 18.0022
452	 18.3038
448	 19.5997
444	 20.2665
440	 19.5056
436	 18.2442
432	 18.23
428	 19.1319
424	 19.6765
420	 19.0663
416	 16.9962
412	 15.9119
408	 17.8196
404	 18.0437
400	 13.8981
396	 13.415
392	 17.363
388	 17.5957
384	 13.56
380	 6.805539
376	 1.184034
372	 3.026270
370	 3.775787