File: Bakgrunnsmateriale/MATLAB/FTIR/ftir_data/LPE453/Mapping_121/LPE453_t40_cm-1.asc
PE IR       SPECTRUM    SPECTRUM    ASCII       PEDS        1.60
  -1
LP5955~1.ASC
17/05/16
17:36:16.00
17/05/16
17:36:16.00
tln
$LPE453_t0040$<tbV0>[-2.6,-5.2,8.0,0.0,27,1,0]
370
64

2002,4.07
MIRTGS : RIGHTBACK : INTERNAL 2
MIR : ON : INTERNAL 2
OPTKBR

0.200000
8
8.000000
FILLER
RATIO
SPECTRUM
UNLOCKED 256

DOUBLE
64
COMBINED
1
0
0

1.000000
RATIO

1
0
TRUE
51149
0
LEFT NOT FITTED RIGHT NOT FITTED 0
NONE
NONE
15600
12
4.427000
51148
TRUE
1 0 8 72 0 0 0 0

15798

#HDR
-1
-1
#GR
CM-1
%T
2.38419e-05
0.0
5000
-1.000000
4631
8
35.535
-13.3731
#DATA
5000	0.362753
4996	0.144648
4992	-0.182342
4988	-0.183510
4984	0.086116
4980	0.191402
4976	0.192403
4972	0.462174
4968	0.774812
4964	1.004433
4960	0.982713
4956	0.557327
4952	0.363707
4948	0.387740
4944	0.129890
4940	-0.180745
4936	-0.271368
4932	-0.147032
4928	0.074505
4924	0.168037
4920	0.023555
4916	-0.033402
4912	0.120615
4908	0.208544
4904	0.304841
4900	0.447416
4896	0.463676
4892	0.510597
4888	0.720930
4884	0.772476
4880	0.522875
4876	0.340604
4872	0.399351
4868	0.474047
4864	0.468611
4860	0.470519
4856	0.265693
4852	-0.050735
4848	0.018000
4844	0.242590
4840	0.307512
4836	0.393009
4832	0.390648
4828	0.275135
4824	0.326132
4820	0.323867
4816	0.121593
4812	0.106143
4808	0.209021
4804	0.213432
4800	0.305843
4796	0.274181
4792	-0.045371
4788	-0.192356
4784	-0.007414
4780	0.223016
4776	0.357341
4772	0.374460
4768	0.201129
4764	0.015497
4760	-0.061845
4756	-0.103092
4752	-0.095772
4748	0.011253
4744	0.186085
4740	0.050163
4736	-0.285148
4732	-0.188970
4728	0.109601
4724	0.150156
4720	0.174570
4716	0.232219
4712	0.078296
4708	-0.166821
4704	-0.156855
4700	0.059366
4696	0.204133
4692	0.307631
4688	0.358700
4684	0.417470
4680	0.475215
4676	0.343418
4672	0.254273
4668	0.462651
4664	0.738620
4660	0.732779
4656	0.624227
4652	0.720739
4648	0.880551
4644	0.952196
4640	0.785470
4636	0.485014
4632	0.354766
4628	0.430178
4624	0.570106
4620	0.635266
4616	0.432300
4612	0.140213
4608	0.045394
4604	0.106239
4600	0.076341
4596	-0.089216
4592	-0.264835
4588	-0.233006
4584	0.244045
4580	0.275015
4576	-0.581026
4572	-1.426601
4568	-1.858758
4564	-1.754093
4560	-1.099991
4556	-0.676584
4552	-0.778436
4548	-0.856924
4544	-1.025366
4540	-1.450109
4536	-1.745700
4532	-2.164149
4528	-0.961232
4524	8.361101
4520	26.9664
4516	35.5134
4512	22.2171
4508	6.313419
4504	1.802873
4500	0.715494
4496	-1.175498
4492	-2.816343
4488	-3.085732
4484	-2.256989
4480	-1.308393
4476	-0.975990
4472	-1.314449
4468	-1.654672
4464	-1.846122
4460	-1.954197
4456	-1.848149
4452	-1.435923
4448	-1.008248
4444	-0.823307
4440	-0.757241
4436	-0.677156
4432	-0.432205
4428	-0.324249
4424	-0.391435
4420	-0.143384
4416	0.233793
4412	0.320219
4408	0.343084
4404	0.399303
4400	0.230765
4396	0.071048
4392	0.149583
4388	0.356841
4384	0.496244
4380	0.445437
4376	0.398230
4372	0.400185
4368	0.387811
4364	0.530219
4360	0.681161
4356	0.589585
4352	0.475811
4348	0.323224
4344	0.074434
4340	-0.053358
4336	-0.018739
4332	0.073289
4328	0.140070
4324	0.255012
4320	0.313901
4316	0.319671
4312	0.402784
4308	0.317168
4304	0.132536
4300	0.172090
4296	0.163841
4292	0.054669
4288	0.136899
4284	0.335717
4280	0.409555
4276	0.254917
4272	-0.037407
4268	-0.220298
4264	-0.058221
4260	0.145387
4256	0.039339
4252	-0.159931
4248	-0.231170
4244	-0.097584
4240	0.085234
4236	0.134944
4232	0.138401
4228	0.127506
4224	0.129556
4220	0.180792
4216	0.174665
4212	0.052714
4208	0.020241
4204	0.193476
4200	0.327682
4196	0.265145
4192	0.168538
4188	0.223898
4184	0.258970
4180	0.163745
4176	0.231671
4172	0.256514
4168	-0.017976
4164	-0.181484
4160	-0.120162
4156	-0.050449
4152	-0.028991
4148	0.048613
4144	0.183701
4140	0.161218
4136	0.058913
4132	0.111699
4128	0.263857
4124	0.318169
4120	0.244879
4116	0.198316
4112	0.249695
4108	0.333189
4104	0.366854
4100	0.283765
4096	0.107192
4092	-0.033330
4088	-0.085401
4084	-0.063586
4080	0.003695
4076	0.057530
4072	0.126981
4068	0.276327
4064	0.440382
4060	0.411725
4056	0.134658
4052	-0.147390
4048	-0.249648
4044	-0.178909
4040	-0.052118
4036	0.040745
4032	0.152063
4028	0.204420
4024	0.112867
4020	0.052571
4016	0.043773
4012	0.034785
4008	0.084781
4004	0.165200
4000	0.167584
3996	0.134515
3992	0.213527
3988	0.306797
3984	0.296902
3980	0.302338
3976	0.383400
3972	0.375199
3968	0.244069
3964	0.178647
3960	0.107622
3956	0.012063
3952	0.099396
3948	0.239872
3944	0.271582
3940	0.260925
3936	0.262212
3932	0.234937
3928	0.085878
3924	-0.101733
3920	-0.166130
3916	-0.117564
3912	-0.095081
3908	-0.053119
3904	0.083804
3900	0.130486
3896	0.070142
3892	0.045108
3888	0.027823
3884	-0.080585
3880	-0.213599
3876	-0.237345
3872	-0.099205
3868	0.043535
3864	0.128173
3860	0.234007
3856	0.264620
3852	0.167822
3848	0.099587
3844	0.145459
3840	0.176262
3836	0.094151
3832	-0.022745
3828	-0.040459
3824	0.081896
3820	0.190019
3816	0.096750
3812	-0.050044
3808	-0.050616
3804	-0.008797
3800	0.033545
3796	0.130987
3792	0.194859
3788	0.126290
3784	0.009369
3780	-0.026011
3776	-0.008773
3772	0.016880
3768	0.029635
3764	0.021672
3760	0.008773
3756	0.012087
3752	0.054335
3748	0.083780
3744	0.071716
3740	0.055932
3736	0.072383
3732	0.120592
3728	0.152778
3724	0.134205
3720	0.046825
3716	-0.013947
3712	0.049924
3708	0.104832
3704	0.074434
3700	0.031471
3696	-0.010085
3692	0.018405
3688	0.125098
3684	0.121998
3680	-0.014209
3676	-0.096344
3672	-0.069499
3668	-0.049138
3664	-0.085330
3660	-0.078058
3656	-0.018358
3652	0.044703
3648	0.087285
3644	0.046873
3640	0.000333
3636	0.044369
3632	0.123882
3628	0.118494
3624	0.055098
3620	0.051283
3616	0.083255
3612	0.103497
3608	0.065398
3604	-0.031566
3600	-0.085592
3596	-0.041103
3592	-0.004911
3588	-0.026202
3584	0.033164
3580	0.064778
3576	0.002145
3572	0.064110
3568	0.211572
3564	0.208926
3560	0.059604
3556	-0.011754
3552	0.024271
3548	0.031542
3544	0.015854
3540	0.052261
3536	0.073075
3532	0.019788
3528	0.023269
3524	0.087714
3520	0.068044
3516	-0.031661
3512	-0.025200
3508	0.111961
3504	0.171136
3500	0.148701
3496	0.105834
3492	0.071167
3488	0.118112
3484	0.105094
3480	-0.026416
3476	0.019454
3472	0.248718
3468	0.320982
3464	0.244975
3460	0.200939
3456	0.135445
3452	-0.006651
3448	-0.029182
3444	0.064516
3440	0.057101
3436	0.022602
3432	0.072813
3428	0.169277
3424	0.205540
3420	0.110340
3416	0.031447
3412	-0.009560
3408	-0.094890
3404	-0.067281
3400	0.030851
3396	0.000882
3392	-0.035190
3388	0.045156
3384	0.131440
3380	0.135064
3376	0.090122
3372	0.062513
3368	0.054121
3364	0.034546
3360	0.065493
3356	0.144743
3352	0.183200
3348	0.195598
3344	0.155687
3340	0.073695
3336	0.032877
3332	-0.001811
3328	-0.017333
3324	0.042009
3320	0.102400
3316	0.126957
3312	0.162434
3308	0.182175
3304	0.167775
3300	0.125479
3296	0.038385
3292	0.001120
3288	0.060701
3284	0.086951
3280	0.043106
3276	-0.034379
3272	-0.102829
3268	-0.068521
3264	0.044059
3260	0.092744
3256	0.057363
3252	0.049948
3248	0.128769
3244	0.191187
3240	0.163507
3236	0.089502
3232	0.028324
3228	0.004863
3224	0.018405
3220	0.046014
3216	0.062298
3212	0.070834
3208	0.045585
3204	0.057220
3200	0.174427
3196	0.257635
3192	0.261282
3188	0.216269
3184	0.082921
3180	-0.030851
3176	0.008440
3172	0.079703
3168	0.079607
3164	0.022768
3160	-0.049066
3156	-0.045561
3152	-0.013041
3148	-0.029873
3144	-0.027370
3140	0.036859
3136	0.132560
3132	0.207495
3128	0.225210
3124	0.240206
3120	0.324606
3116	0.348281
3112	0.212454
3108	0.086474
3104	0.032353
3100	0.000452
3096	0.037336
3092	0.098156
3088	0.113129
3084	0.079512
3080	0.012731
3076	0.002622
3072	0.022840
3068	-0.021100
3064	-0.088500
3060	-0.088882
3056	-0.002217
3052	0.090241
3048	0.105524
3044	0.050139
3040	0.002622
3036	-0.000309
3032	0.029134
3028	0.040745
3024	-0.009489
3020	-0.011301
3016	0.074577
3012	0.096940
3008	0.029587
3004	-0.036454
3000	-0.099182
2996	-0.138068
2992	-0.053524
2988	0.057530
2984	0.026583
2980	-0.040459
2976	-0.028562
2972	0.009989
2968	0.054001
2964	0.074744
2960	0.067591
2956	0.061655
2952	0.077486
2948	0.082564
2944	0.037312
2940	-0.055456
2936	-0.103020
2932	-0.070285
2928	-0.070524
2924	-0.095009
2920	-0.084114
2916	-0.018978
2912	0.018453
2908	0.007176
2904	0.034785
2900	0.064492
2896	0.094270
2892	0.134730
2888	0.173902
2884	0.186991
2880	0.101637
2876	-0.027632
2872	-0.082516
2868	-0.077962
2864	-0.041103
2860	-0.004029
2856	-0.010800
2852	-0.015521
2848	0.050997
2844	0.098109
2840	0.085997
2836	0.078988
2832	0.056695
2828	-0.001382
2824	-0.055265
2820	-0.062727
2816	-0.047302
2812	-0.034880
2808	-0.009489
2804	0.019884
2800	0.066876
2796	0.095200
2792	0.072121
2788	0.040841
2784	0.009894
2780	-0.015878
2776	-0.015020
2772	-0.004220
2768	0.000357
2764	0.037693
2760	0.075316
2756	0.043106
2752	-0.036406
2748	-0.082421
2744	-0.042581
2740	0.012469
2736	0.027847
2732	0.082087
2728	0.162839
2724	0.158667
2720	0.061798
2716	-0.026965
2712	-0.055623
2708	-0.056409
2704	-0.017809
2700	0.056481
2696	0.078105
2692	0.057005
2688	0.076293
2684	0.099372
2680	0.095582
2676	0.101375
2672	0.120973
2668	0.118017
2664	0.088882
2660	0.087523
2656	0.111269
2652	0.124764
2648	0.109767
2644	0.101661
2640	0.085330
2636	-0.007033
2632	-0.061821
2628	0.027155
2624	0.119042
2620	0.115251
2616	0.087642
2612	0.070691
2608	0.064897
2604	0.030088
2600	-0.012803
2596	0.044822
2592	0.143671
2588	0.185036
2584	0.173473
2580	0.149011
2576	0.139856
2572	0.114631
2568	0.077629
2564	0.084948
2560	0.138211
2556	0.170397
2552	0.165438
2548	0.155019
2544	0.104951
2540	0.030589
2536	-0.002002
2532	0.004482
2528	0.038743
2524	0.103878
2520	0.135874
2516	0.093030
2512	0.020337
2508	0.002050
2504	0.086045
2500	0.172185
2496	0.116896
2492	-0.015616
2488	-0.034928
2484	0.018119
2480	0.083017
2476	0.146079
2472	0.146031
2468	0.121808
2464	0.078511
2460	0.034070
2456	0.029134
2452	0.032615
2448	0.005984
2444	-0.029325
2440	-0.006794
2436	-0.036501
2432	-0.123381
2428	-0.042033
2424	0.190663
2420	0.375914
2416	0.333809
2412	0.152230
2408	0.117993
2404	0.144529
2400	0.055861
2396	0.000238
2392	0.045752
2388	0.066328
2384	0.037717
2380	-0.020718
2376	-0.113511
2372	-0.164699
2368	-0.106191
2364	0.019860
2360	0.080180
2356	0.029373
2352	0.011181
2348	0.055527
2344	0.072360
2340	0.098514
2336	0.172400
2332	0.209212
2328	0.187349
2324	0.196695
2320	0.225472
2316	0.214147
2312	0.160193
2308	0.098299
2304	0.095987
2300	0.153279
2296	0.235557
2292	0.341463
2288	0.441956
2284	0.452637
2280	0.414800
2276	0.433349
2272	0.449752
2268	0.474667
2264	0.536203
2260	0.558423
2256	0.604605
2252	0.743627
2248	0.913405
2244	1.073527
2240	1.215291
2236	1.367092
2232	1.567101
2228	1.740074
2224	1.839375
2220	1.972055
2216	2.180647
2212	2.390766
2208	2.584290
2204	2.793741
2200	3.043627
2196	3.322315
2192	3.588128
2188	3.835558
2184	4.097723
2180	4.384398
2176	4.697966
2172	5.041861
2168	5.386567
2164	5.692601
2160	5.986928
2156	6.365036
2152	6.819200
2148	7.294774
2144	7.769513
2140	8.210444
2136	8.631706
2132	9.060359
2128	9.495711
2124	9.938621
2120	10.4034
2116	10.886
2112	11.3668
2108	11.8599
2104	12.3586
2100	12.8423
2096	13.345
2092	13.8764
2088	14.3952
2084	14.8869
2080	15.3863
2076	15.8855
2072	16.3925
2068	16.9372
2064	17.3973
2060	17.7529
2056	18.192
2052	18.7306
2048	19.2016
2044	19.574
2040	19.9485
2036	20.3576
2032	20.7636
2028	21.1817
2024	21.6397
2020	22.0814
2016	22.4644
2012	22.7934
2008	23.0978
2004	23.4394
2000	23.7973
1996	24.0977
1992	24.369
1988	24.7132
1984	25.0956
1980	25.4162
1976	25.7441
1972	26.1106
1968	26.3948
1964	26.5985
1960	26.8272
1956	27.0816
1952	27.3181
1948	27.541
1944	27.7539
1940	28.0059
1936	28.2764
1932	28.4436
1928	28.5707
1924	28.773
1920	28.9898
1916	29.1688
1912	29.3375
1908	29.5045
1904	29.666
1900	29.8317
1896	30.0032
1892	30.1577
1888	30.2788
1884	30.3934
1880	30.532
1876	30.6605
1872	30.7589
1868	30.8418
1864	30.9297
1860	31.0334
1856	31.1242
1852	31.2211
1848	31.4082
1844	31.6159
1840	31.685
1836	31.6558
1832	31.6899
1828	31.8226
1824	31.9144
1820	31.9293
1816	31.9956
1812	32.1054
1808	32.167
1804	32.1795
1800	32.2222
1796	32.3009
1792	32.3442
1788	32.4157
1784	32.489
1780	32.4734
1776	32.4816
1772	32.5258
1768	32.5314
1764	32.53
1760	32.5327
1756	32.5704
1752	32.6382
1748	32.6645
1744	32.7039
1740	32.8201
1736	32.917
1732	32.9705
1728	33.0385
1724	33.1079
1720	33.157
1716	33.1296
1712	33.0627
1708	33.0402
1704	32.9881
1700	32.9469
1696	33.0184
1692	33.1084
1688	33.14
1684	33.1402
1680	33.1198
1676	33.0475
1672	32.9777
1668	33.0071
1664	33.0715
1660	33.1135
1656	33.1749
1652	33.2112
1648	33.1891
1644	33.1428
1640	33.099
1636	33.1137
1632	33.1662
1628	33.1556
1624	33.092
1620	33.1172
1616	33.2335
1612	33.2683
1608	33.2225
1604	33.2133
1600	33.2126
1596	33.1834
1592	33.1443
1588	33.1475
1584	33.1794
1580	33.1722
1576	33.1551
1572	33.1459
1568	33.1167
1564	33.0943
1560	33.0939
1556	33.0974
1552	33.0998
1548	33.1496
1544	33.2196
1540	33.2138
1536	33.1505
1532	33.0615
1528	32.9973
1524	33.0448
1520	33.1581
1516	33.2256
1512	33.2065
1508	33.1413
1504	33.1388
1500	33.1464
1496	33.0171
1492	32.9258
1488	33.024
1484	33.1292
1480	33.1702
1476	33.121
1472	32.9711
1468	32.8649
1464	32.8777
1460	32.9557
1456	33.0272
1452	32.9893
1448	32.9144
1444	32.9264
1440	32.9808
1436	33.0157
1432	33.0127
1428	32.9548
1424	32.9183
1420	32.9298
1416	32.8872
1412	32.8421
1408	32.7735
1404	32.6171
1400	32.5526
1396	32.6091
1392	32.639
1388	32.6705
1384	32.7295
1380	32.6921
1376	32.5912
1372	32.6018
1368	32.684
1364	32.6771
1360	32.6315
1356	32.6439
1352	32.6339
1348	32.567
1344	32.5315
1340	32.5667
1336	32.6176
1332	32.6266
1328	32.6086
1324	32.5871
1320	32.5725
1316	32.5956
1312	32.5917
1308	32.5113
1304	32.4785
1300	32.5115
1296	32.503
1292	32.4825
1288	32.4483
1284	32.3436
1280	32.2526
1276	32.2644
1272	32.3528
1268	32.4313
1264	32.4219
1260	32.3376
1256	32.2953
1252	32.2916
1248	32.2358
1244	32.153
1240	32.0616
1236	32.0116
1232	32.0721
1228	32.1456
1224	32.1266
1220	32.0688
1216	32.0874
1212	32.1438
1208	32.1408
1204	32.1038
1200	32.0553
1196	32.0022
1192	31.9617
1188	31.9263
1184	31.8822
1180	31.8812
1176	31.9749
1172	32.0778
1168	32.1418
1164	32.1079
1160	31.9609
1156	31.8672
1152	31.7924
1148	31.6928
1144	31.7065
1140	31.754
1136	31.7033
1132	31.5801
1128	31.502
1124	31.5404
1120	31.6061
1116	31.6505
1112	31.6464
1108	31.5763
1104	31.5573
1100	31.5674
1096	31.493
1092	31.4462
1088	31.4851
1084	31.5095
1080	31.5029
1076	31.4655
1072	31.4159
1068	31.3935
1064	31.3965
1060	31.4141
1056	31.4292
1052	31.4954
1048	31.4479
1044	31.1575
1040	30.9469
1036	30.8608
1032	30.7496
1028	30.7162
1024	30.8297
1020	30.8853
1016	30.7473
1012	30.6873
1008	30.7823
1004	30.8338
1000	30.8598
996	 30.8038
992	 30.5877
988	 30.3801
984	 30.2626
980	 30.1824
976	 30.1984
972	 30.3485
968	 30.4624
964	 30.5169
960	 30.6415
956	 30.7348
952	 30.6491
948	 30.4235
944	 30.2555
940	 30.2104
936	 30.1139
932	 29.9518
928	 29.9018
924	 29.8711
920	 29.7688
916	 29.7947
912	 29.9263
908	 29.9526
904	 29.8078
900	 29.6737
896	 29.7021
892	 29.6283
888	 29.3939
884	 29.2318
880	 29.1319
876	 29.0836
872	 29.0605
868	 28.9748
864	 28.962
860	 29.1566
856	 29.3483
852	 29.3816
848	 29.422
844	 29.3927
840	 29.1341
836	 28.9
832	 28.8041
828	 28.6158
824	 28.3812
820	 28.2336
816	 28.1767
812	 28.3283
808	 28.5426
804	 28.5744
800	 28.4843
796	 28.476
792	 28.4304
788	 28.162
784	 27.9181
780	 27.8202
776	 27.698
772	 27.6089
768	 27.6081
764	 27.5925
760	 27.5129
756	 27.4671
752	 27.6704
748	 27.9603
744	 27.8409
740	 27.2953
736	 26.9316
732	 26.886
728	 26.744
724	 26.5717
720	 26.5751
716	 26.5466
712	 26.4336
708	 26.4641
704	 26.6349
700	 26.7597
696	 26.7499
692	 26.5794
688	 26.3285
684	 26.0539
680	 25.8283
676	 25.7307
672	 25.6615
668	 25.6711
664	 25.6891
660	 25.4374
656	 25.1194
652	 25.123
648	 25.4181
644	 25.5996
640	 25.4741
636	 25.1587
632	 24.6677
628	 24.2949
624	 24.2418
620	 24.0996
616	 23.8253
612	 23.8121
608	 23.9467
604	 24.0689
600	 24.2991
596	 24.3843
592	 24.1385
588	 23.8745
584	 23.6702
580	 23.4407
576	 23.4324
572	 23.6462
568	 23.5605
564	 23.0457
560	 22.7538
556	 22.9078
552	 22.8553
548	 22.6222
544	 22.7121
540	 22.7196
536	 22.4322
532	 22.1833
528	 22.036
524	 21.5965
520	 20.6372
516	 20.2049
512	 20.7062
508	 21.1508
504	 21.2824
500	 21.2459
496	 21.1501
492	 21.3517
488	 21.5068
484	 21.1153
480	 20.3286
476	 19.6629
472	 19.6408
468	 19.9861
464	 20.2152
460	 20.2078
456	 20.0615
452	 19.9833
448	 19.7023
444	 19.3567
440	 19.4368
436	 20.2533
432	 22.0435
428	 22.9011
424	 21.477
420	 19.7581
416	 20.5297
412	 22.5339
408	 19.894
404	 18.136
400	 22.4083
396	 20.3573
392	 13.9508
388	 14.5667
384	 15.7465
380	 17.0228
376	 17.0766
372	 -2.269291
370	 -13.3731