File: Bakgrunnsmateriale/MATLAB/FTIR/ftir_data/LPE453/Mapping_121/LPE453_t108_cm-1.asc
PE IR       SPECTRUM    SPECTRUM    ASCII       PEDS        1.60
  -1
LP0B78~1.ASC
17/05/16
23:11:49.00
17/05/16
23:11:49.00
tln
$LPE453_t0108$<tbV0>[-7.8,10.4,8.0,0.0,27,1,0]
370
64

2002,4.07
MIRTGS : RIGHTBACK : INTERNAL 2
MIR : ON : INTERNAL 2
OPTKBR

0.200000
8
8.000000
FILLER
RATIO
SPECTRUM
UNLOCKED 256

DOUBLE
64
COMBINED
1
0
0

1.000000
RATIO

1
0
TRUE
51149
0
LEFT NOT FITTED RIGHT NOT FITTED 0
NONE
NONE
15600
12
4.427000
51148
TRUE
1 0 8 72 0 0 0 0

15798

#HDR
-1
-1
#GR
CM-1
%T
2.38419e-05
0.0
5000
-1.000000
4631
8
37.2319
-4.727029
#DATA
5000	0.448870
4996	0.620675
4992	0.103831
4988	-0.476241
4984	-0.541019
4980	-0.553035
4976	-0.535798
4972	-0.227260
4968	0.051307
4964	0.079393
4960	0.180816
4956	0.367164
4952	0.448131
4948	0.416946
4944	0.306057
4940	0.223994
4936	0.202989
4932	0.232672
4928	0.162458
4924	-0.048327
4920	-0.263190
4916	-0.310087
4912	-0.251007
4908	-0.244569
4904	-0.170993
4900	-0.039601
4896	-0.016212
4892	-0.006914
4888	0.098347
4884	0.206708
4880	0.254178
4876	0.253462
4872	0.122356
4868	-0.021028
4864	0.068140
4860	0.133037
4856	0.141787
4852	0.090146
4848	-0.211000
4844	-0.358247
4840	-0.265312
4836	-0.169658
4832	-0.010013
4828	0.234961
4824	0.258755
4820	-0.056028
4816	-0.166749
4812	0.146651
4808	0.388765
4804	0.289845
4800	0.013756
4796	-0.140213
4792	-0.107693
4788	-0.071215
4784	-0.107002
4780	-0.199222
4776	-0.345253
4772	-0.398707
4768	-0.286722
4764	-0.239515
4760	-0.219464
4756	-0.232458
4752	-0.067949
4748	0.192093
4744	0.183677
4740	-0.054430
4736	-0.242781
4732	-0.070238
4728	0.230097
4724	0.147151
4720	-0.050210
4716	0.139379
4712	0.492811
4708	0.457382
4704	0.043463
4700	-0.040245
4696	0.388193
4692	0.634670
4688	0.735282
4684	0.485706
4680	-0.142431
4676	-0.250387
4672	-0.064611
4668	0.258445
4664	0.480651
4660	0.001883
4656	-0.783348
4652	-0.538682
4648	0.803923
4644	1.351308
4640	1.205539
4636	1.196384
4632	0.756978
4628	0.614666
4624	1.238751
4620	1.464200
4616	1.049065
4612	1.089096
4608	1.461815
4604	1.695513
4600	1.916432
4596	1.651620
4592	1.076197
4588	0.754046
4584	0.359869
4580	0.329780
4576	0.749373
4572	0.774598
4568	0.230836
4564	-0.298786
4560	-0.375604
4556	-0.387716
4552	-0.248908
4548	0.284743
4544	0.689649
4540	0.532364
4536	0.141835
4532	0.166702
4528	0.320196
4524	0.081205
4520	0.228309
4516	0.716662
4512	1.268172
4508	2.242755
4504	-0.803160
4500	-2.749347
4496	10.2021
4492	22.0318
4488	12.4393
4484	-1.968932
4480	-4.649305
4476	-3.324460
4472	-2.048015
4468	-1.611971
4464	-1.703023
4460	-1.386833
4456	-0.604844
4452	0.007224
4448	0.225830
4444	0.318646
4440	0.106143
4436	-0.177788
4432	-0.225353
4428	-0.445604
4424	-0.591969
4420	-0.335955
4416	0.046396
4412	0.213980
4408	0.174093
4404	0.382494
4400	0.495266
4396	0.097465
4392	-0.245690
4388	-0.346612
4384	-0.209832
4380	0.047206
4376	0.021934
4372	-0.218129
4368	-0.242519
4364	0.051212
4360	0.319337
4356	0.405573
4352	0.443506
4348	0.300693
4344	0.060319
4340	0.083303
4336	0.084328
4332	0.050663
4328	0.196814
4324	0.239324
4320	0.343322
4316	0.492596
4312	0.293040
4308	-0.029683
4304	-0.155329
4300	-0.060796
4296	0.077033
4292	0.067901
4288	-0.056099
4284	-0.136613
4280	-0.090718
4276	-0.013613
4272	0.117373
4268	0.236272
4264	0.187516
4260	0.047302
4256	-0.021767
4252	0.002336
4248	-0.022745
4244	-0.039219
4240	-0.020718
4236	-0.086545
4232	-0.147914
4228	-0.102591
4224	-0.009822
4220	0.027918
4216	0.039982
4212	0.048208
4208	0.061345
4204	0.207662
4200	0.319457
4196	0.283765
4192	0.241327
4188	0.186657
4184	0.211071
4180	0.294923
4176	0.238418
4172	0.165152
4168	0.238108
4164	0.256371
4160	0.140953
4156	0.022816
4152	-0.072503
4148	-0.104975
4144	-0.071954
4140	-0.030422
4136	-0.028944
4132	-0.054907
4128	0.004196
4124	0.084519
4120	0.042390
4116	-0.047731
4112	-0.120115
4108	-0.146293
4104	-0.044894
4100	0.046634
4096	0.005054
4092	-0.090241
4088	-0.078773
4084	-0.038933
4080	-0.081014
4076	-0.082707
4072	-0.054788
4068	-0.011229
4064	0.038337
4060	-0.055027
4056	-0.099802
4052	0.019311
4048	0.134801
4044	0.181794
4040	0.167179
4036	0.111174
4032	0.099539
4028	0.134801
4024	0.153923
4020	0.138568
4016	0.082468
4012	0.046348
4008	0.072336
4004	0.023484
4000	-0.021886
3996	0.078511
3992	0.121521
3988	0.080704
3984	0.088906
3980	0.125145
3976	0.038909
3972	-0.163054
3968	-0.159168
3964	0.069904
3960	0.245857
3956	0.259113
3952	0.204062
3948	0.186038
3944	0.130915
3940	-0.027275
3936	-0.164771
3932	-0.175189
3928	-0.093698
3924	-0.046133
3920	-0.065732
3916	-0.054764
3912	0.056338
3908	0.202083
3904	0.263762
3900	0.198554
3896	0.053715
3892	0.039792
3888	0.140810
3884	0.143098
3880	0.088953
3876	0.068879
3872	0.085687
3868	0.128412
3864	0.151109
3860	0.050044
3856	-0.077366
3852	-0.095200
3848	-0.099492
3844	-0.080847
3840	-0.009346
3836	0.038528
3832	0.018405
3828	0.005626
3824	0.044298
3820	0.072169
3816	0.152182
3812	0.191164
3808	0.079560
3804	0.014019
3800	-0.023841
3796	-0.079131
3792	-0.022482
3788	0.071978
3784	0.097918
3780	-0.004529
3776	-0.155639
3772	-0.119042
3768	0.010108
3764	-0.007152
3760	-0.066876
3756	-0.001668
3752	0.097179
3748	0.096869
3744	0.096440
3740	0.132751
3736	0.138711
3732	0.136137
3728	0.087952
3724	0.002264
3720	-0.008249
3716	0.038194
3712	0.083637
3708	0.097751
3704	0.093054
3700	0.116801
3696	0.150036
3692	0.175595
3688	0.170326
3684	0.102663
3680	-0.010228
3676	-0.063562
3672	-0.057625
3668	-0.078368
3664	-0.072741
3660	0.002312
3656	0.061440
3652	-0.012803
3648	-0.099658
3644	-0.045919
3640	0.042510
3636	0.048589
3632	-0.019192
3628	-0.051188
3624	0.008773
3620	0.071287
3616	0.101518
3612	0.100398
3608	0.047254
3604	0.017547
3600	0.086402
3596	0.111508
3592	0.053191
3588	0.012516
3584	0.023198
3580	0.037503
3576	0.014448
3572	-0.023794
3568	-0.020241
3564	0.014328
3560	0.019001
3556	0.073361
3552	0.118494
3548	0.035285
3544	-0.013256
3540	0.076723
3536	0.164723
3532	0.185012
3528	0.185751
3524	0.185894
3520	0.192761
3516	0.112366
3512	-0.030279
3508	-0.052881
3504	-0.025105
3500	-0.010013
3496	0.064849
3492	0.101518
3488	0.068950
3484	0.047564
3480	0.026202
3476	-0.035142
3472	-0.074744
3468	0.007152
3464	0.099730
3460	0.116753
3456	0.106096
3452	0.064444
3448	0.038766
3444	0.002002
3440	-0.009155
3436	0.046586
3432	0.082445
3428	0.084066
3424	0.044584
3420	-0.014400
3416	-0.041699
3412	-0.028228
3408	0.037193
3404	0.082588
3400	0.074052
3396	0.035452
3392	-0.021147
3388	-0.043082
3384	0.002551
3380	0.032019
3376	-0.027537
3372	-0.091075
3368	-0.071024
3364	-0.041270
3360	-0.013375
3356	0.042748
3352	0.012516
3348	-0.069332
3344	-0.022864
3340	0.077962
3336	0.121045
3332	0.113391
3328	0.019788
3324	-0.094866
3320	-0.129652
3316	-0.083160
3312	0.005865
3308	0.037360
3304	-0.007987
3300	-0.023579
3296	-0.002264
3292	-0.009655
3288	-0.023746
3284	-0.011467
3280	0.024867
3276	0.084710
3272	0.107336
3268	0.074315
3264	0.072097
3260	0.094413
3256	0.067210
3252	0.037455
3248	0.087237
3244	0.139570
3240	0.096702
3236	0.038409
3232	0.010418
3228	-0.066375
3224	-0.077676
3220	0.014328
3216	0.024795
3212	0.000572
3208	0.071120
3204	0.192499
3200	0.252604
3196	0.199389
3192	0.083351
3188	-0.041627
3184	-0.111985
3180	-0.113058
3176	-0.090479
3172	-0.110387
3168	-0.137233
3164	-0.126433
3160	-0.086236
3156	-0.031709
3152	-0.016927
3148	0.004696
3144	0.072932
3140	0.093340
3136	0.065588
3132	0.080418
3128	0.108313
3124	0.052475
3120	0.054883
3116	0.141835
3112	0.087404
3108	-0.031232
3104	-0.053811
3100	-0.039458
3096	0.005125
3092	0.092077
3088	0.105667
3084	0.054025
3080	-0.005245
3076	-0.050878
3072	-0.006842
3068	0.041961
3064	0.020480
3060	0.032758
3056	0.064516
3052	0.032353
3048	-0.005769
3044	0.002741
3040	0.018048
3036	0.057268
3032	0.072002
3028	0.038599
3024	0.038170
3020	0.068068
3016	0.088000
3012	0.069022
3008	0.022840
3004	-0.008440
3000	-0.011515
2996	0.028944
2992	0.039887
2988	-0.036716
2984	-0.066137
2980	-0.038623
2976	-0.074005
2972	-0.102114
2968	-0.071406
2964	-0.040555
2960	-0.014543
2956	-0.015664
2952	-0.038456
2948	-0.021886
2944	0.012421
2940	0.025558
2936	0.035667
2932	0.038170
2928	0.067496
2924	0.083088
2920	0.020432
2916	0.048327
2912	0.130224
2908	0.098943
2904	0.070071
2900	0.111532
2896	0.123167
2892	0.097393
2888	0.053191
2884	0.005698
2880	0.036168
2876	0.088047
2872	0.049614
2868	-0.005936
2864	-0.008201
2860	-0.025677
2856	0.011944
2852	0.126838
2848	0.170898
2844	0.146055
2840	0.112676
2836	0.079679
2832	0.050759
2828	-0.001072
2824	-0.062036
2820	-0.019550
2816	0.079369
2812	0.077033
2808	0.046372
2804	0.080633
2800	0.105834
2796	0.039172
2792	-0.037217
2788	-0.015401
2784	0.001001
2780	-0.019788
2776	-0.010323
2772	-0.007200
2768	-0.009012
2764	0.026130
2760	0.063967
2756	0.055074
2752	0.025343
2748	-0.001859
2744	-0.025725
2740	-0.007987
2736	0.046873
2732	0.059199
2728	0.010585
2724	-0.032615
2720	-0.059437
2716	-0.061988
2712	-0.004839
2708	0.038528
2704	0.011515
2700	-0.001358
2696	-0.016760
2692	-0.058484
2688	-0.024986
2684	0.051569
2680	0.079178
2676	0.052428
2672	-0.006866
2668	-0.057697
2664	-0.046634
2660	0.021481
2656	0.073552
2652	0.055503
2648	-0.007128
2644	-0.010752
2640	0.072431
2636	0.083780
2632	-0.013780
2628	-0.011897
2624	0.097370
2620	0.119924
2616	0.060415
2612	0.014662
2608	-0.017118
2604	-0.020837
2600	0.009346
2596	0.031256
2592	0.048136
2588	0.051116
2584	0.007915
2580	-0.036191
2576	-0.038838
2572	0.009489
2568	0.056934
2564	0.004339
2560	-0.082063
2556	-0.035762
2552	0.061035
2548	0.048351
2544	-0.001645
2540	-0.030159
2536	-0.043106
2532	-0.005459
2528	0.014495
2524	0.004363
2520	0.032210
2516	0.002884
2512	-0.075435
2508	-0.066876
2504	0.003576
2500	0.038123
2496	0.023984
2492	0.003385
2488	-0.009894
2484	0.037026
2480	0.089240
2476	0.055813
2472	0.043225
2468	0.076889
2464	0.040578
2460	0.006031
2456	0.041747
2452	0.042772
2448	0.021481
2444	-0.001668
2440	-0.058364
2436	-0.035429
2432	0.051522
2428	0.028371
2424	-0.038576
2420	0.038528
2416	0.226974
2412	0.303888
2408	0.172448
2404	0.038027
2400	0.034141
2396	0.096011
2392	0.152015
2388	0.167632
2384	0.177788
2380	0.150704
2376	0.112462
2372	0.135803
2368	0.145387
2364	0.139999
2360	0.150251
2356	0.155973
2352	0.196266
2348	0.261235
2344	0.275444
2340	0.245785
2336	0.263643
2332	0.331878
2328	0.378489
2324	0.408959
2320	0.450134
2316	0.475239
2312	0.510072
2308	0.607633
2304	0.706005
2300	0.750303
2296	0.795125
2292	0.869488
2288	0.938820
2284	1.010298
2280	1.096272
2276	1.170825
2272	1.270556
2268	1.390862
2264	1.482748
2260	1.614761
2256	1.812410
2252	2.021932
2248	2.220749
2244	2.387118
2240	2.509140
2236	2.638006
2232	2.827382
2228	3.038334
2224	3.255558
2220	3.502440
2216	3.778839
2212	4.106593
2208	4.448318
2204	4.740977
2200	5.042695
2196	5.395221
2192	5.741405
2188	6.117224
2184	6.544804
2180	6.947207
2176	7.328414
2172	7.724690
2168	8.124041
2164	8.522057
2160	8.974170
2156	9.484481
2152	9.937262
2148	10.2791
2144	10.6699
2140	11.2335
2136	11.8576
2132	12.4073
2128	12.9065
2124	13.4624
2120	14.0242
2116	14.5238
2112	15.0192
2108	15.5569
2104	16.1247
2100	16.6316
2096	17.0795
2092	17.5917
2088	18.1769
2084	18.7592
2080	19.2773
2076	19.7409
2072	20.198
2068	20.7014
2064	21.2617
2060	21.772
2056	22.2369
2052	22.7167
2048	23.1582
2044	23.5274
2040	23.9014
2036	24.3778
2032	24.9022
2028	25.3636
2024	25.7716
2020	26.1932
2016	26.6135
2012	27.0103
2008	27.3927
2004	27.7446
2000	28.0538
1996	28.3254
1992	28.5892
1988	28.8352
1984	29.0835
1980	29.3973
1976	29.715
1972	30.005
1968	30.3467
1964	30.7256
1960	31.0694
1956	31.3724
1952	31.6293
1948	31.8261
1944	31.9578
1940	32.0292
1936	32.0925
1932	32.1891
1928	32.3524
1924	32.6139
1920	32.9144
1916	33.1623
1912	33.3638
1908	33.5989
1904	33.8493
1900	34.0556
1896	34.2439
1892	34.3986
1888	34.4354
1884	34.3847
1880	34.3569
1876	34.3857
1872	34.4679
1868	34.5669
1864	34.6506
1860	34.7924
1856	35.0398
1852	35.3045
1848	35.5091
1844	35.6569
1840	35.7545
1836	35.8168
1832	35.8654
1828	35.8285
1824	35.6858
1820	35.5597
1816	35.5075
1812	35.5371
1808	35.6299
1804	35.7178
1800	35.8191
1796	36.0086
1792	36.2607
1788	36.4726
1784	36.5817
1780	36.5849
1776	36.5371
1772	36.4857
1768	36.3827
1764	36.206
1760	36.0679
1756	36.0435
1752	36.0871
1748	36.1703
1744	36.3071
1740	36.4563
1736	36.5704
1732	36.6921
1728	36.8328
1724	36.9152
1720	36.8701
1716	36.7398
1712	36.6169
1708	36.494
1704	36.356
1700	36.2456
1696	36.2077
1692	36.2607
1688	36.3703
1684	36.5087
1680	36.7007
1676	36.9314
1672	37.1136
1668	37.17
1664	37.132
1660	37.0719
1656	36.9448
1652	36.7176
1648	36.527
1644	36.4542
1640	36.4166
1636	36.3703
1632	36.3639
1628	36.4422
1624	36.6021
1620	36.7768
1616	36.903
1612	36.9936
1608	37.0616
1604	37.0826
1600	37.0679
1596	36.9874
1592	36.7887
1588	36.5745
1584	36.4128
1580	36.2765
1576	36.2556
1572	36.361
1568	36.4652
1564	36.5748
1560	36.7557
1556	36.9778
1552	37.1626
1548	37.2319
1544	37.1833
1540	37.0325
1536	36.8561
1532	36.6934
1528	36.4739
1524	36.2593
1520	36.1736
1516	36.2151
1512	36.2612
1508	36.3165
1504	36.4832
1500	36.6678
1496	36.7552
1492	36.7932
1488	36.8601
1484	36.9066
1480	36.8474
1476	36.7173
1472	36.578
1468	36.4007
1464	36.1825
1460	35.9907
1456	35.9379
1452	36.0969
1448	36.2711
1444	36.2851
1440	36.3447
1436	36.5734
1432	36.8023
1428	36.9106
1424	36.867
1420	36.7151
1416	36.4942
1412	36.2144
1408	35.9674
1404	35.811
1400	35.7492
1396	35.7637
1392	35.7992
1388	35.8886
1384	36.082
1380	36.3013
1376	36.5059
1372	36.69
1368	36.7451
1364	36.6291
1360	36.4618
1356	36.3371
1352	36.1722
1348	35.9268
1344	35.7019
1340	35.548
1336	35.5092
1332	35.6112
1328	35.7836
1324	35.9753
1320	36.166
1316	36.3516
1312	36.4866
1308	36.4813
1304	36.407
1300	36.3106
1296	36.1375
1292	35.9013
1288	35.6476
1284	35.4413
1280	35.2962
1276	35.2153
1272	35.2602
1268	35.4616
1264	35.6979
1260	35.8697
1256	36.037
1252	36.1945
1248	36.2453
1244	36.1612
1240	36.0638
1236	35.9807
1232	35.7699
1228	35.4692
1224	35.2597
1220	35.1667
1216	35.1271
1212	35.1762
1208	35.3346
1204	35.5224
1200	35.7024
1196	35.8921
1192	36.0469
1188	36.093
1184	36.0197
1180	35.8773
1176	35.7336
1172	35.5647
1168	35.2871
1164	34.9678
1160	34.7727
1156	34.7823
1152	34.9204
1148	35.0393
1144	35.1396
1140	35.3593
1136	35.6971
1132	35.9143
1128	35.9306
1124	35.8557
1120	35.6633
1116	35.4434
1112	35.33
1108	35.215
1104	34.9614
1100	34.6598
1096	34.4939
1092	34.5348
1088	34.7128
1084	34.8965
1080	35.0948
1076	35.296
1072	35.4513
1068	35.6089
1064	35.7051
1060	35.6101
1056	35.33
1052	34.9614
1048	34.6974
1044	34.5974
1040	34.4865
1036	34.3724
1032	34.3468
1028	34.383
1024	34.4963
1020	34.7661
1016	35.1351
1012	35.3697
1008	35.3843
1004	35.2882
1000	35.1456
996	 35.0072
992	 34.8213
988	 34.5725
984	 34.3797
980	 34.147
976	 33.8618
972	 33.7508
968	 33.834
964	 34.0307
960	 34.2793
956	 34.4819
952	 34.6525
948	 34.7959
944	 34.8557
940	 34.7851
936	 34.5748
932	 34.3079
928	 34.0165
924	 33.7034
920	 33.4404
916	 33.2743
912	 33.2155
908	 33.244
904	 33.2967
900	 33.4078
896	 33.6547
892	 33.922
888	 34.139
884	 34.3037
880	 34.249
876	 33.9998
872	 33.7416
868	 33.4517
864	 33.1104
860	 32.8637
856	 32.8178
852	 32.7905
848	 32.6757
844	 32.6794
840	 32.7963
836	 32.9552
832	 33.1995
828	 33.3898
824	 33.433
820	 33.4591
816	 33.4271
812	 33.1944
808	 32.87
804	 32.551
800	 32.2663
796	 32.1008
792	 31.9864
788	 31.8929
784	 31.9072
780	 32.0049
776	 32.1422
772	 32.3022
768	 32.4193
764	 32.4349
760	 32.3915
756	 32.3545
752	 32.2691
748	 32.009
744	 31.6733
740	 31.4683
736	 31.2414
732	 30.9611
728	 30.794
724	 30.6762
720	 30.7514
716	 31.0549
712	 31.27
708	 31.3896
704	 31.5303
700	 31.5629
696	 31.4643
692	 31.3513
688	 31.1616
684	 30.8196
680	 30.4242
676	 30.0564
672	 29.7864
668	 29.7635
664	 29.8761
660	 29.971
656	 30.1051
652	 30.2862
648	 30.4898
644	 30.6223
640	 30.6355
636	 30.5829
632	 30.3204
628	 29.8633
624	 29.5364
620	 29.36
616	 29.2739
612	 29.1718
608	 28.8463
604	 28.6886
600	 28.9873
596	 29.1917
592	 29.0711
588	 29.0533
584	 29.1587
580	 29.126
576	 29.0694
572	 28.961
568	 28.7573
564	 28.5033
560	 28.1598
556	 27.8083
552	 27.5311
548	 27.43
544	 27.3481
540	 27.1575
536	 27.1431
532	 27.3547
528	 27.397
524	 27.1805
520	 27.2512
516	 27.6382
512	 27.5069
508	 26.9028
504	 26.3999
500	 26.0393
496	 25.9714
492	 26.0109
488	 25.7481
484	 25.4872
480	 25.5357
476	 25.6634
472	 25.7789
468	 25.9285
464	 26.2874
460	 26.4077
456	 25.7069
452	 24.8556
448	 24.465
444	 24.4905
440	 24.6189
436	 25.0009
432	 24.9809
428	 23.0824
424	 21.0101
420	 21.128
416	 22.4341
412	 22.9994
408	 21.7878
404	 18.9339
400	 15.8698
396	 14.61
392	 17.4113
388	 26.8347
384	 31.4348
380	 19.4628
376	 9.996485
372	 17.2362
370	 24.4389