File: Bakgrunnsmateriale/MATLAB/FTIR/ftir_data/LPE453/Mapping_121/LPE453_t95_cm-1.asc
PE IR       SPECTRUM    SPECTRUM    ASCII       PEDS        1.60
  -1
LPEBDA~1.ASC
17/05/16
22:11:16.00
17/05/16
22:11:16.00
tln
$LPE453_t0095$<tbV0>[-2.6,7.8,8.0,0.0,27,1,0]
370
64

2002,4.07
MIRTGS : RIGHTBACK : INTERNAL 2
MIR : ON : INTERNAL 2
OPTKBR

0.200000
8
8.000000
FILLER
RATIO
SPECTRUM
UNLOCKED 256

DOUBLE
64
COMBINED
1
0
0

1.000000
RATIO

1
0
TRUE
51149
0
LEFT NOT FITTED RIGHT NOT FITTED 0
NONE
NONE
15600
12
4.427000
51148
TRUE
1 0 8 72 0 0 0 0

15798

#HDR
-1
-1
#GR
CM-1
%T
2.38419e-05
0.0
5000
-1.000000
4631
8
37.5821
-2.152156
#DATA
5000	-0.306487
4996	-0.326919
4992	-0.250887
4988	-0.223469
4984	-0.099301
4980	0.053596
4976	0.052285
4972	0.091648
4968	0.305080
4964	0.454449
4960	0.376343
4956	0.259041
4952	0.153827
4948	-0.011730
4944	-0.129842
4940	-0.289583
4936	-0.462722
4932	-0.201725
4928	0.315093
4924	0.355029
4920	0.070190
4916	-0.068664
4912	-0.074553
4908	0.004291
4904	0.138115
4900	0.245857
4896	0.194263
4892	-0.006222
4888	-0.106239
4884	-0.034403
4880	0.015997
4876	0.137162
4872	0.281429
4868	0.261330
4864	0.296378
4860	0.401592
4856	0.439262
4852	0.362181
4848	0.186681
4844	0.101876
4840	0.275802
4836	0.586581
4832	0.766754
4828	0.694656
4824	0.332856
4820	0.077676
4816	0.157928
4812	0.165915
4808	0.181865
4804	0.399756
4800	0.562071
4796	0.534009
4792	0.366735
4788	0.270628
4784	0.216889
4780	0.016379
4776	-0.190758
4772	-0.155830
4768	0.137424
4764	0.234723
4760	0.162148
4756	0.285601
4752	0.346732
4748	0.488233
4744	0.811505
4740	0.627803
4736	0.267338
4732	0.107574
4728	-0.131440
4724	-0.240182
4720	-0.192904
4716	-0.170683
4712	-0.238370
4708	-0.575995
4704	-0.850129
4700	-0.972127
4696	-0.939583
4692	-0.697350
4688	-0.556325
4684	-0.483655
4680	0.057125
4676	1.107478
4672	1.705932
4668	1.344442
4664	0.366306
4660	-0.214004
4656	0.483465
4652	1.637077
4648	1.777172
4644	1.041889
4640	0.887584
4636	1.272916
4632	1.408314
4628	1.164960
4624	0.869297
4620	1.234483
4616	1.860690
4612	2.038264
4608	1.878333
4604	1.327657
4600	0.740885
4596	0.613784
4592	0.480031
4588	0.454902
4584	0.355982
4580	-0.148701
4576	-0.363588
4572	-0.554394
4568	-1.070380
4564	-1.157212
4560	-1.342558
4556	-1.635599
4552	-1.455783
4548	-1.173281
4544	-0.901484
4540	-0.674200
4536	-0.461196
4532	-0.237059
4528	-0.588655
4524	-1.128125
4520	-1.006269
4516	-1.118206
4512	-2.111649
4508	3.290057
4504	17.4952
4500	25.5241
4496	23.5294
4492	15.0923
4488	2.994680
4484	-2.147889
4480	-1.631164
4476	-1.636672
4472	-1.097583
4468	-0.589084
4464	-0.502896
4460	-0.511670
4456	-0.747084
4452	-0.974202
4448	-0.943541
4444	-0.825452
4440	-0.759983
4436	-0.972795
4432	-1.061701
4428	-0.698280
4424	-0.307774
4420	-0.418663
4416	-0.349879
4412	0.145697
4408	0.419831
4404	0.431227
4400	0.505733
4396	0.688815
4392	0.852060
4388	1.028680
4384	1.095867
4380	0.833129
4376	0.603437
4372	0.676178
4368	0.694370
4364	0.493574
4360	0.461435
4356	0.760698
4352	0.777435
4348	0.534892
4344	0.436758
4340	0.327658
4336	0.365042
4332	0.380063
4328	0.036263
4324	-0.207519
4320	-0.157690
4316	-0.120067
4312	-0.197315
4308	-0.172019
4304	-0.080823
4300	-0.044727
4296	-0.008440
4292	-0.070738
4288	-0.034856
4284	0.066709
4280	0.066447
4276	0.126767
4272	0.187897
4268	0.190901
4264	0.167512
4260	0.197672
4256	0.183844
4252	0.045990
4248	-0.007295
4244	-0.035572
4240	-0.078511
4236	0.016069
4232	0.176644
4228	0.229620
4224	0.189685
4220	0.224065
4216	0.325131
4212	0.346779
4208	0.270700
4204	0.182533
4200	0.122976
4196	-0.008058
4192	-0.151801
4188	-0.085639
4184	0.215506
4180	0.519299
4176	0.576210
4172	0.538158
4168	0.478625
4164	0.204205
4160	-0.054788
4156	-0.002002
4152	0.114321
4148	-0.036096
4144	-0.244140
4140	-0.184464
4136	0.002312
4132	0.112318
4128	0.176548
4124	0.140142
4120	0.018692
4116	0.008416
4112	0.195002
4108	0.393390
4104	0.371098
4100	0.205326
4096	0.060272
4092	-0.033736
4088	-0.074505
4084	-0.041127
4080	0.028800
4076	0.058674
4072	0.061440
4068	0.148320
4064	0.291633
4060	0.263023
4056	0.188159
4052	0.246953
4048	0.201249
4044	0.069499
4040	0.027561
4036	0.035381
4032	0.078535
4028	0.150775
4024	0.164389
4020	0.057530
4016	-0.012898
4012	0.050234
4008	0.184130
4004	0.330471
4000	0.362372
3996	0.293922
3992	0.192761
3988	0.050759
3984	-0.048995
3980	-0.024628
3976	0.022101
3972	0.025629
3968	0.097250
3964	0.233840
3960	0.304031
3956	0.318741
3952	0.351524
3948	0.305938
3944	0.174665
3940	0.107598
3936	0.089907
3932	0.075721
3928	0.109195
3924	0.143718
3920	0.090360
3916	0.037384
3912	0.073456
3908	0.110197
3904	0.146055
3900	0.170612
3896	0.079298
3892	-0.049781
3888	-0.108695
3884	-0.091505
3880	0.072431
3876	0.222969
3872	0.156188
3868	-0.016355
3864	-0.068736
3860	-0.031328
3856	0.031566
3852	0.059986
3848	0.086426
3844	0.070476
3840	0.053715
3836	0.132393
3832	0.224256
3828	0.225806
3824	0.150299
3820	0.120091
3816	0.091218
3812	0.044465
3808	0.027775
3804	0.013661
3800	0.014591
3796	0.059533
3792	0.084495
3788	0.085735
3784	0.156474
3780	0.228428
3776	0.252389
3772	0.228309
3768	0.128602
3764	0.100946
3760	0.167918
3756	0.132966
3752	0.055885
3748	0.077414
3744	0.064325
3740	-0.018024
3736	0.012063
3732	0.168848
3728	0.255608
3724	0.210285
3720	0.149846
3716	0.149226
3712	0.149822
3708	0.111055
3704	0.071883
3700	0.036072
3696	0.013923
3692	0.034952
3688	0.094604
3684	0.117540
3680	0.063204
3676	-0.024700
3672	-0.043630
3668	0.034141
3664	0.123858
3660	0.123953
3656	-0.000500
3652	-0.036764
3648	0.071978
3644	0.101351
3640	0.066518
3636	0.077939
3632	0.093150
3628	0.073933
3624	0.055789
3620	0.068950
3616	0.115180
3612	0.101113
3608	0.015687
3604	0.009441
3600	0.099039
3596	0.169777
3592	0.133466
3588	0.046539
3584	-0.018835
3580	-0.120043
3576	-0.189852
3572	-0.112271
3568	0.011157
3564	0.007843
3560	-0.060701
3556	-0.040626
3552	-0.006437
3548	0.001907
3544	0.087118
3540	0.192236
3536	0.218248
3532	0.208616
3528	0.183892
3524	0.150132
3520	0.146627
3516	0.132846
3512	0.074768
3508	0.010895
3504	-0.017452
3500	-0.025272
3496	-0.018906
3492	0.066184
3488	0.173830
3484	0.177335
3480	0.131964
3476	0.112962
3472	0.085020
3468	0.040626
3464	-0.021195
3460	-0.068855
3456	-0.009346
3452	0.062561
3448	0.046038
3444	0.025582
3440	0.022411
3436	0.042676
3432	0.056409
3428	0.003314
3424	-0.009512
3420	0.048851
3416	0.028371
3412	-0.015497
3408	0.076055
3404	0.187110
3400	0.168704
3396	0.095629
3392	0.066709
3388	0.031065
3384	-0.059700
3380	-0.064587
3376	0.010418
3372	0.028753
3368	0.057744
3364	0.093531
3360	-0.023126
3356	-0.201869
3352	-0.196671
3348	-0.022339
3344	0.114631
3340	0.141024
3336	0.142455
3332	0.106883
3328	-0.004649
3324	-0.076723
3320	-0.025606
3316	0.045156
3312	0.043058
3308	0.070619
3304	0.113654
3300	0.027370
3296	-0.090003
3292	-0.077152
3288	-0.010514
3284	-0.026059
3280	-0.065469
3276	-0.005984
3272	0.111913
3268	0.192523
3264	0.262451
3260	0.265240
3256	0.146865
3252	0.061249
3248	0.047206
3244	0.022697
3240	0.025272
3236	0.071287
3232	0.133037
3228	0.162291
3224	0.090789
3220	-0.005960
3216	-0.038170
3212	-0.027298
3208	-0.008606
3204	0.010180
3200	0.035238
3196	0.021886
3192	-0.023555
3188	-0.020599
3184	0.002622
3180	0.000596
3176	-0.034809
3172	-0.070762
3168	-0.047278
3164	-0.015115
3160	-0.008225
3156	0.021910
3152	0.059103
3148	0.034356
3144	-0.026440
3140	-0.096154
3136	-0.202631
3132	-0.260972
3128	-0.199174
3124	-0.098824
3120	-0.019526
3116	0.074815
3112	0.181317
3108	0.188946
3104	0.060987
3100	-0.063252
3096	-0.051283
3092	0.046133
3088	0.085949
3084	0.042128
3080	0.009489
3076	0.053930
3072	0.134801
3068	0.186467
3064	0.152802
3060	0.090694
3056	0.101232
3052	0.116705
3048	0.060009
3044	-0.018024
3040	-0.051903
3036	-0.010561
3032	0.067949
3028	0.103688
3024	0.108647
3020	0.130271
3016	0.145602
3012	0.101470
3008	0.039505
3004	0.023436
3000	0.050997
2996	0.112676
2992	0.135707
2988	0.075912
2984	0.062608
2980	0.147819
2976	0.214433
2972	0.226712
2968	0.185036
2964	0.085234
2960	0.008392
2956	0.021481
2952	0.078487
2948	0.097107
2944	0.110411
2940	0.130796
2936	0.113701
2932	0.137972
2928	0.177335
2924	0.126314
2920	0.051641
2916	0.043106
2912	0.108647
2908	0.164079
2904	0.128936
2900	0.042247
2896	0.018239
2892	0.067567
2888	0.060844
2884	0.019836
2880	0.064802
2876	0.131392
2872	0.124812
2868	0.088238
2864	0.094938
2860	0.113701
2856	0.080156
2852	0.043606
2848	0.049567
2844	0.062608
2840	0.037527
2836	-0.042414
2832	-0.107455
2828	-0.099301
2824	-0.067543
2820	-0.037288
2816	0.024843
2812	0.074410
2808	0.032496
2804	-0.029301
2800	-0.006961
2796	-0.002574
2792	-0.069522
2788	-0.047802
2784	0.037670
2780	0.070977
2776	0.046491
2772	0.020575
2768	0.035476
2764	0.033807
2760	0.030946
2756	0.066876
2752	0.103592
2748	0.130605
2744	0.110626
2740	0.059247
2736	0.028610
2732	0.024986
2728	0.033116
2724	0.013065
2720	0.012230
2716	0.048089
2712	0.049638
2708	0.002455
2704	-0.085496
2700	-0.110268
2696	-0.050091
2692	-0.036072
2688	-0.018334
2684	0.050473
2680	0.074481
2676	0.046372
2672	0.010967
2668	0.024557
2664	0.041604
2660	-0.023078
2656	-0.051283
2652	-0.008010
2648	0.029110
2644	0.072121
2640	0.090861
2636	0.090909
2632	0.073099
2628	-0.015163
2624	-0.094032
2620	-0.112009
2616	-0.099134
2612	-0.042200
2608	0.021982
2604	0.095129
2600	0.164103
2596	0.147461
2592	0.115966
2588	0.094175
2584	0.039458
2580	0.027966
2576	0.045609
2572	0.041270
2568	0.026535
2564	-0.004816
2560	-0.037813
2556	-0.019550
2552	0.012707
2548	0.027656
2544	0.029683
2540	0.006556
2536	-0.003504
2532	0.015950
2528	0.070643
2524	0.092482
2520	0.056886
2516	0.025796
2512	0.013542
2508	0.017976
2504	-0.030422
2500	-0.097489
2496	-0.072979
2492	-0.041604
2488	-0.079107
2484	-0.071406
2480	0.005149
2476	0.040602
2472	0.000739
2468	-0.074696
2464	-0.089716
2460	-0.032305
2456	-0.009274
2452	-0.022530
2448	-0.041794
2444	-0.072479
2440	-0.112414
2436	-0.170540
2432	-0.225925
2428	-0.173377
2424	-0.012445
2420	0.079941
2416	0.081110
2412	0.126147
2408	0.139093
2404	0.043964
2400	0.002241
2396	0.023317
2392	0.062966
2388	0.136780
2384	0.163221
2380	0.141549
2376	0.156474
2372	0.208759
2368	0.221633
2364	0.173473
2360	0.152063
2356	0.201988
2352	0.234603
2348	0.230121
2344	0.269603
2340	0.336527
2336	0.382161
2332	0.406312
2328	0.387287
2324	0.382089
2320	0.480246
2316	0.626134
2312	0.689387
2308	0.635099
2304	0.611567
2300	0.744223
2296	0.921344
2292	1.027202
2288	1.154589
2284	1.308870
2280	1.378107
2276	1.447057
2272	1.601791
2268	1.772737
2264	1.920104
2260	2.051687
2256	2.160620
2252	2.284049
2248	2.497792
2244	2.773523
2240	3.034329
2236	3.275322
2232	3.495287
2228	3.692603
2224	3.933620
2220	4.227399
2216	4.491567
2212	4.766249
2208	5.109214
2204	5.494642
2200	5.892729
2196	6.207585
2192	6.458854
2188	6.823468
2184	7.296204
2180	7.753300
2176	8.220601
2172	8.715915
2168	9.155678
2164	9.600329
2160	10.1479
2156	10.7007
2152	11.1961
2148	11.6771
2144	12.1534
2140	12.6472
2136	13.1716
2132	13.7097
2128	14.2704
2124	14.8555
2120	15.3987
2116	15.8641
2112	16.3647
2108	16.9464
2104	17.5159
2100	18.063
2096	18.5906
2092	19.086
2088	19.6217
2084	20.1688
2080	20.6154
2076	21.0724
2072	21.5917
2068	22.0808
2064	22.5776
2060	23.0309
2056	23.4676
2052	24.002
2048	24.5169
2044	24.9427
2040	25.3623
2036	25.8073
2032	26.2545
2028	26.6601
2024	27.0122
2020	27.3618
2016	27.6919
2012	27.9725
2008	28.2643
2004	28.6123
2000	28.9823
1996	29.3324
1992	29.6566
1988	29.9826
1984	30.3369
1980	30.6774
1976	30.9452
1972	31.1591
1968	31.3623
1964	31.5238
1960	31.6597
1956	31.8283
1952	32.0209
1948	32.2704
1944	32.5711
1940	32.8285
1936	33.0524
1932	33.2804
1928	33.4916
1924	33.7052
1920	33.8985
1916	33.9977
1912	34.0417
1908	34.1116
1904	34.2006
1900	34.295
1896	34.4089
1892	34.5161
1888	34.6211
1884	34.8038
1880	35.0209
1876	35.1981
1872	35.3806
1868	35.5482
1864	35.641
1860	35.7019
1856	35.7746
1852	35.8173
1848	35.7997
1844	35.7873
1840	35.8113
1836	35.8232
1832	35.8044
1828	35.8543
1824	36.0744
1820	36.3083
1816	36.4378
1812	36.5571
1808	36.6562
1804	36.6685
1800	36.6268
1796	36.6007
1792	36.5817
1788	36.5421
1784	36.5053
1780	36.4721
1776	36.464
1772	36.4959
1768	36.5622
1764	36.6805
1760	36.816
1756	36.9544
1752	37.0946
1748	37.1514
1744	37.1293
1740	37.0809
1736	36.9945
1732	36.9527
1728	36.9731
1724	36.9423
1720	36.9042
1716	36.9446
1712	36.9701
1708	36.9393
1704	36.9637
1700	37.0483
1696	37.1777
1692	37.3473
1688	37.4238
1684	37.4016
1680	37.3396
1676	37.2178
1672	37.084
1668	37.0194
1664	36.9844
1660	36.9253
1656	36.8919
1652	36.9184
1648	36.99
1644	37.0978
1640	37.2414
1636	37.3597
1632	37.4445
1628	37.5326
1624	37.5564
1620	37.4923
1616	37.382
1612	37.2414
1608	37.1003
1604	36.991
1600	36.904
1596	36.8264
1592	36.8412
1588	36.9889
1584	37.1475
1580	37.2274
1576	37.2623
1572	37.322
1568	37.4079
1564	37.4494
1560	37.4042
1556	37.3028
1552	37.2106
1548	37.1122
1544	36.9548
1540	36.7731
1536	36.6812
1532	36.771
1528	36.9717
1524	37.1461
1520	37.3208
1516	37.5136
1512	37.5821
1508	37.5178
1504	37.4732
1500	37.4265
1496	37.2355
1492	37.0122
1488	36.9133
1484	36.8694
1480	36.832
1476	36.7825
1472	36.7911
1468	36.8741
1464	36.9242
1460	36.9655
1456	37.064
1452	37.2549
1448	37.4178
1444	37.3974
1440	37.2963
1436	37.152
1432	36.9937
1428	36.848
1424	36.6858
1420	36.6029
1416	36.601
1412	36.6181
1408	36.6633
1404	36.7681
1400	36.9509
1396	37.1527
1392	37.2576
1388	37.2561
1384	37.2702
1380	37.2603
1376	37.0982
1372	36.8699
1368	36.6721
1364	36.4841
1360	36.3723
1356	36.3529
1352	36.3497
1348	36.4155
1344	36.597
1340	36.8206
1336	36.9986
1332	37.1342
1328	37.2303
1324	37.2437
1320	37.2052
1316	37.098
1312	36.9036
1308	36.6887
1304	36.4835
1300	36.3098
1296	36.1606
1292	36.1082
1288	36.2357
1284	36.4127
1280	36.5698
1276	36.7439
1272	36.8732
1268	36.9352
1264	36.9672
1260	36.9753
1256	36.9234
1252	36.7376
1248	36.475
1244	36.2331
1240	36.0517
1236	35.9791
1232	35.9771
1228	36.0047
1224	36.0508
1220	36.1543
1216	36.345
1212	36.5271
1208	36.6784
1204	36.7855
1200	36.781
1196	36.6907
1192	36.5533
1188	36.3486
1184	36.0955
1180	35.8907
1176	35.7622
1172	35.713
1168	35.7239
1164	35.7409
1160	35.8832
1156	36.1422
1152	36.3245
1148	36.4297
1144	36.5025
1140	36.5506
1136	36.5327
1132	36.3492
1128	36.0614
1124	35.8134
1120	35.6064
1116	35.4445
1112	35.4583
1108	35.5634
1104	35.5762
1100	35.5927
1096	35.6929
1092	35.8143
1088	35.9392
1084	36.0857
1080	36.1773
1076	36.1517
1072	36.0772
1068	35.9046
1064	35.6067
1060	35.2962
1056	35.0723
1052	35.0062
1048	34.9942
1044	34.9667
1040	35.0726
1036	35.3166
1032	35.5062
1028	35.6015
1024	35.6664
1020	35.7489
1016	35.8756
1012	35.8782
1008	35.6731
1004	35.3825
1000	35.0825
996	 34.7852
992	 34.5516
988	 34.4676
984	 34.5232
980	 34.6372
976	 34.7617
972	 34.9322
968	 35.1126
964	 35.2484
960	 35.4092
956	 35.5232
952	 35.4357
948	 35.2342
944	 35.027
940	 34.732
936	 34.4098
932	 34.179
928	 33.9962
924	 33.8899
920	 33.9013
916	 34.0189
912	 34.2181
908	 34.4174
904	 34.5992
900	 34.7082
896	 34.6773
892	 34.6705
888	 34.7428
884	 34.6357
880	 34.2659
876	 33.912
872	 33.6728
868	 33.4056
864	 33.1888
860	 33.1476
856	 33.2103
852	 33.3364
848	 33.4962
844	 33.6735
840	 33.9046
836	 34.0001
832	 33.9272
828	 33.8474
824	 33.6643
820	 33.4331
816	 33.2155
812	 32.9
808	 32.563
804	 32.3824
800	 32.394
796	 32.4708
792	 32.5888
788	 32.7136
784	 32.7937
780	 32.8646
776	 32.9163
772	 32.9396
768	 32.9871
764	 33.0023
760	 32.8278
756	 32.4971
752	 32.1719
748	 31.9229
744	 31.6952
740	 31.4036
736	 31.1754
732	 31.1841
728	 31.3509
724	 31.5861
720	 31.8589
716	 32.0475
712	 32.102
708	 32.0929
704	 32.0396
700	 31.8373
696	 31.5191
692	 31.2114
688	 30.8705
684	 30.5229
680	 30.2408
676	 30.0539
672	 29.9872
668	 29.9982
664	 30.0962
660	 30.2626
656	 30.4415
652	 30.6544
648	 30.8206
644	 30.8348
640	 30.6885
636	 30.3905
632	 30.0925
628	 29.8182
624	 29.4404
620	 29.0678
616	 28.915
612	 28.8518
608	 28.6222
604	 28.5665
600	 28.8335
596	 28.9916
592	 29.0342
588	 29.2058
584	 29.5549
580	 29.6818
576	 29.2783
572	 28.7951
568	 28.5643
564	 28.3663
560	 27.9339
556	 27.382
552	 26.9392
548	 26.9514
544	 27.4307
540	 27.6609
536	 27.595
532	 27.6739
528	 27.8819
524	 28.0254
520	 27.9491
516	 27.6761
512	 27.4178
508	 27.0768
504	 26.4494
500	 26.0062
496	 26.0794
492	 26.058
488	 25.5727
484	 25.2257
480	 25.5219
476	 26.0906
472	 26.4011
468	 26.4313
464	 26.3384
460	 26.1162
456	 25.7061
452	 25.3965
448	 25.23
444	 24.9378
440	 24.987
436	 25.3023
432	 25.2672
428	 24.4889
424	 22.8319
420	 21.8894
416	 23.5368
412	 26.2339
408	 26.8008
404	 27.5091
400	 28.2249
396	 25.0375
392	 20.3537
388	 16.9772
384	 15.0322
380	 11.8519
376	 8.508682
372	 10.2027
370	 12.469