File: Bakgrunnsmateriale/MATLAB/FTIR/ftir_data/LPE453/Mapping_121/LPE453_t80_cm-1.asc
PE IR       SPECTRUM    SPECTRUM    ASCII       PEDS        1.60
  -1
LP5B55~1.ASC
17/05/16
20:55:38.00
17/05/16
20:55:38.00
tln
$LPE453_t0080$<tbV0>[7.8,5.2,8.0,0.0,27,1,0]
370
64

2002,4.07
MIRTGS : RIGHTBACK : INTERNAL 2
MIR : ON : INTERNAL 2
OPTKBR

0.200000
8
8.000000
FILLER
RATIO
SPECTRUM
UNLOCKED 256

DOUBLE
64
COMBINED
1
0
0

1.000000
RATIO

1
0
TRUE
51149
0
LEFT NOT FITTED RIGHT NOT FITTED 0
NONE
NONE
15600
12
4.427000
51148
TRUE
1 0 8 72 0 0 0 0

15798

#HDR
-1
-1
#GR
CM-1
%T
2.38419e-05
0.0
5000
-1.000000
4631
8
31.2418
-11.2108
#DATA
5000	0.062441
4996	0.321960
4992	0.328016
4988	0.325298
4984	0.406980
4980	0.358343
4976	0.282406
4972	0.148677
4968	0.034809
4964	0.224256
4960	0.300812
4956	-0.091195
4952	-0.372743
4948	-0.311017
4944	-0.165772
4940	-0.096082
4936	-0.199198
4932	-0.298047
4928	-0.164270
4924	0.050282
4920	0.055027
4916	-0.005125
4912	0.050830
4908	0.043392
4904	0.003695
4900	0.206804
4896	0.369310
4892	0.311493
4888	0.284171
4884	0.172352
4880	0.068163
4876	0.329399
4872	0.544071
4868	0.239825
4864	-0.200176
4860	-0.418639
4856	-0.225806
4852	0.363540
4848	0.716090
4844	0.603556
4840	0.461649
4836	0.393247
4832	0.300192
4828	0.326776
4824	0.494670
4820	0.521564
4816	0.298571
4812	0.125861
4808	0.099182
4804	0.035977
4800	-0.056409
4796	-0.066685
4792	-0.018239
4788	-0.002479
4784	0.099563
4780	0.398826
4776	0.395607
4772	0.035858
4768	-0.177431
4764	-0.280022
4760	-0.274109
4756	-0.047183
4752	0.160527
4748	0.047492
4744	-0.233793
4740	-0.442528
4736	-0.585889
4732	-0.499033
4728	-0.320672
4724	-0.235033
4720	-0.079369
4716	0.057530
4712	0.091481
4708	0.107812
4704	0.269770
4700	0.516700
4696	0.619316
4692	0.686597
4688	0.606942
4684	0.173783
4680	0.079560
4676	0.922036
4672	1.728487
4668	1.665234
4664	1.192402
4660	0.673484
4656	0.343513
4652	0.357103
4648	0.753855
4644	1.147794
4640	1.338553
4636	1.877474
4632	1.652288
4628	0.085401
4624	-0.988841
4620	-0.789642
4616	-0.102138
4612	0.220274
4608	0.056219
4604	0.060319
4600	0.524759
4596	0.572705
4592	-0.216627
4588	-0.697755
4584	-0.380063
4580	-0.269389
4576	-0.356984
4572	-0.037908
4568	0.020980
4564	-0.120091
4560	0.013709
4556	0.468850
4552	1.301980
4548	1.430463
4544	0.555419
4540	-0.368833
4536	-0.839900
4532	-1.146697
4528	-1.147532
4524	-1.010489
4520	-0.580215
4516	0.243091
4512	0.994586
4508	-0.656938
4504	-0.729799
4500	0.504302
4496	2.177309
4492	7.918548
4488	4.398584
4484	-2.707433
4480	-1.243281
4476	0.095295
4472	0.447368
4468	0.165176
4464	-0.429272
4460	-0.430059
4456	0.112223
4452	0.500941
4448	0.454211
4444	0.478410
4440	0.563764
4436	0.451254
4432	0.473856
4428	0.615191
4424	0.408363
4420	0.143742
4416	0.246953
4412	0.484967
4408	0.521564
4404	0.423574
4400	0.338935
4396	0.288224
4392	0.338697
4388	0.250458
4384	-0.032734
4380	-0.156331
4376	-0.009870
4372	0.197744
4368	0.119495
4364	-0.029873
4360	0.194740
4356	0.348639
4352	0.041937
4348	-0.206971
4344	-0.117206
4340	-0.051784
4336	-0.154137
4332	-0.213313
4328	-0.071382
4324	0.220489
4320	0.406455
4316	0.309944
4312	0.261807
4308	0.356483
4304	0.297784
4300	0.195050
4296	0.127434
4292	0.158166
4288	0.346970
4284	0.362229
4280	0.154185
4276	-0.001597
4272	-0.089263
4268	-0.099444
4264	-0.090670
4260	-0.171160
4256	-0.189447
4252	-0.093650
4248	-0.084352
4244	-0.170421
4240	-0.265192
4236	-0.375461
4232	-0.401139
4228	-0.359582
4224	-0.282263
4220	-0.201535
4216	-0.154113
4212	-0.071406
4208	0.030660
4204	0.112009
4200	0.236129
4196	0.335645
4192	0.344395
4188	0.475430
4184	0.549554
4180	0.412344
4176	0.195455
4172	-0.011968
4168	-0.044727
4164	0.011706
4160	-0.068545
4156	-0.151133
4152	-0.116395
4148	-0.093579
4144	-0.058150
4140	0.094819
4136	0.258541
4132	0.273108
4128	0.264358
4124	0.269031
4120	0.147604
4116	0.067114
4112	0.222682
4108	0.336027
4104	0.260329
4100	0.178909
4096	0.158452
4092	0.219178
4088	0.235462
4084	0.142192
4080	0.037670
4076	-0.026750
4072	-0.028681
4068	-0.023722
4064	-0.065922
4060	-0.107598
4056	-0.131177
4052	-0.102901
4048	0.036692
4044	0.155735
4040	0.168347
4036	0.160932
4032	0.170183
4028	0.185418
4024	0.206923
4020	0.237989
4016	0.204205
4012	0.062179
4008	-0.039196
4004	-0.034403
4000	0.055074
3996	0.193595
3992	0.222134
3988	0.162196
3984	0.153994
3980	0.185728
3976	0.179290
3972	0.185632
3968	0.237321
3964	0.239133
3960	0.171422
3956	0.059747
3952	-0.026655
3948	-0.056838
3944	-0.070762
3940	0.030970
3936	0.208806
3932	0.222420
3928	0.165867
3924	0.120949
3920	-0.009274
3916	-0.034618
3912	0.067520
3908	0.121760
3904	0.152182
3900	0.156116
3896	0.109601
3892	0.089263
3888	0.106382
3884	0.081753
3880	0.065469
3876	0.082111
3872	0.031566
3868	0.008416
3864	0.044393
3860	0.056099
3856	0.065469
3852	0.041699
3848	0.017642
3844	0.032258
3840	0.041699
3836	0.041389
3832	-0.014662
3828	-0.098729
3824	-0.078821
3820	0.009942
3816	0.028085
3812	-0.010371
3808	0.015878
3804	0.076842
3800	0.020265
3796	-0.062966
3792	0.019335
3788	0.146651
3784	0.167202
3780	0.139355
3776	0.073099
3772	-0.016665
3768	-0.002551
3764	0.113368
3760	0.144076
3756	0.058126
3752	-0.016212
3748	-0.089859
3744	-0.126576
3740	-0.070023
3736	-0.017452
3732	-0.032019
3728	-0.031089
3724	0.003314
3720	0.046586
3716	0.058412
3712	-0.049686
3708	-0.105404
3704	-0.029301
3700	0.022697
3696	0.040841
3692	0.024938
3688	0.014996
3684	0.065183
3680	0.129437
3676	0.139832
3672	0.083279
3668	0.087285
3664	0.122094
3660	0.082254
3656	0.043559
3652	0.071048
3648	0.117969
3644	0.067615
3640	-0.026631
3636	0.029492
3632	0.170230
3628	0.146412
3624	0.025820
3620	0.002360
3616	0.034332
3612	0.019741
3608	-0.031661
3604	-0.042748
3600	0.028157
3596	0.115728
3592	0.149035
3588	0.139689
3584	0.199770
3580	0.290393
3576	0.208497
3572	0.090789
3568	0.104689
3564	0.124406
3560	0.107622
3556	0.124096
3552	0.207424
3548	0.273728
3544	0.250506
3540	0.198864
3536	0.141525
3532	0.064253
3528	0.001597
3524	0.021433
3520	0.082325
3516	0.107574
3512	0.120210
3508	0.134229
3504	0.151419
3500	0.136542
3496	0.120377
3492	0.146603
3488	0.150108
3484	0.104093
3480	0.032114
3476	0.007510
3472	0.039839
3468	0.041651
3464	0.039434
3460	0.086903
3456	0.145459
3452	0.145649
3448	0.086760
3444	0.042653
3440	0.032043
3436	0.086355
3432	0.146055
3428	0.061488
3424	-0.046372
3420	-0.070095
3416	-0.038123
3412	0.037240
3408	0.061225
3404	0.028657
3400	-0.006031
3396	0.015687
3392	0.073671
3388	0.142407
3384	0.229454
3380	0.230312
3376	0.109910
3372	0.000572
3368	0.028204
3364	0.137162
3360	0.212407
3356	0.177097
3352	0.065612
3348	-0.020599
3344	-0.062727
3340	-0.055646
3336	-0.009059
3332	0.087308
3328	0.162482
3324	0.119900
3320	0.036287
3316	-0.061058
3312	-0.131750
3308	-0.058054
3304	0.105476
3300	0.172328
3296	0.123786
3292	0.103259
3288	0.133895
3284	0.150203
3280	0.082516
3276	-0.023436
3272	-0.039982
3268	0.020480
3264	0.071406
3260	0.041532
3256	-0.019478
3252	0.015258
3248	0.148177
3244	0.259351
3240	0.234675
3236	0.102972
3232	-0.011062
3228	-0.048184
3224	-0.022554
3220	-0.003600
3216	-0.025749
3212	-0.067472
3208	-0.092482
3204	-0.075054
3200	-0.050878
3196	0.025510
3192	0.155925
3188	0.192689
3184	0.148916
3180	0.132727
3176	0.098586
3172	0.028705
3168	-0.016975
3164	0.019669
3160	0.081467
3156	0.071072
3152	0.067090
3148	0.132155
3144	0.197958
3140	0.158905
3136	0.027561
3132	-0.035333
3128	0.076842
3124	0.229048
3120	0.172877
3116	-0.019407
3112	-0.069546
3108	0.007796
3104	0.016903
3100	-0.083565
3096	-0.154662
3092	-0.095415
3088	0.023436
3084	0.104212
3080	0.108742
3076	0.099921
3072	0.137519
3068	0.137925
3064	0.097775
3060	0.061798
3056	0.025987
3052	0.025796
3048	0.071310
3044	0.102663
3040	0.067019
3036	0.057339
3032	0.104832
3028	0.073051
3024	-0.069427
3020	-0.163269
3016	-0.052952
3012	0.156426
3008	0.193238
3004	0.085258
3000	0.072002
2996	0.083923
2992	0.002884
2988	-0.064206
2984	-0.071454
2980	-0.006508
2976	0.114011
2972	0.171947
2968	0.097131
2964	0.004339
2960	-0.011110
2956	-0.038003
2952	-0.059938
2948	-0.016975
2944	0.033545
2940	0.040721
2936	0.008130
2932	-0.012826
2928	-0.040388
2924	-0.061058
2920	-0.019860
2916	0.005316
2912	0.009036
2908	0.083374
2904	0.177168
2900	0.156474
2896	0.051093
2892	0.008320
2888	0.054764
2884	0.096201
2880	0.112104
2876	0.133633
2872	0.099706
2868	0.017070
2864	0.002837
2860	0.051307
2856	0.049018
2852	-0.014662
2848	-0.044417
2844	-0.004863
2840	0.036287
2836	0.083279
2832	0.133132
2828	0.102829
2824	0.001931
2820	-0.069808
2816	-0.050568
2812	0.010180
2808	0.046277
2804	0.016689
2800	-0.082588
2796	-0.142550
2792	-0.091481
2788	0.017833
2784	0.061345
2780	-0.012445
2776	-0.056123
2772	0.005769
2768	0.089812
2764	0.140309
2760	0.144028
2756	0.087285
2752	0.030326
2748	0.043344
2744	0.044155
2740	0.012016
2736	0.041007
2732	0.070929
2728	0.051116
2724	0.089287
2720	0.155997
2716	0.125861
2712	0.050354
2708	0.029325
2704	0.038814
2700	0.013852
2696	-0.039815
2692	-0.058007
2688	-0.019884
2684	0.020051
2680	0.012922
2676	-0.024580
2672	-0.038027
2668	0.010085
2664	0.090575
2660	0.142121
2656	0.140404
2652	0.127577
2648	0.120472
2644	0.100660
2640	0.063037
2636	-0.012850
2632	-0.109982
2628	-0.118565
2624	-0.011754
2620	0.039911
2616	-0.006079
2612	-0.025987
2608	0.013065
2604	0.034499
2600	0.059342
2596	0.072479
2592	0.022220
2588	0.013113
2584	0.072431
2580	0.068926
2576	0.007963
2572	-0.008630
2568	0.003027
2564	0.035905
2560	0.085306
2556	0.098156
2552	0.084829
2548	0.072169
2544	0.039410
2540	-0.015115
2536	-0.066518
2532	-0.066065
2528	0.001144
2524	0.053644
2520	0.091314
2516	0.135493
2512	0.106549
2508	0.021409
2504	0.013232
2500	0.109052
2496	0.212168
2492	0.217151
2488	0.115919
2484	0.053548
2480	0.089859
2476	0.115966
2472	0.083923
2468	0.054621
2464	0.085163
2460	0.148272
2456	0.174236
2452	0.114464
2448	-0.000047
2444	-0.069808
2440	-0.065660
2436	-0.039911
2432	-0.049901
2428	-0.059843
2424	-0.005888
2420	0.087952
2416	0.145792
2412	0.085473
2408	0.015401
2404	0.075197
2400	0.115966
2396	0.062227
2392	0.031375
2388	0.013899
2384	-0.027012
2380	-0.045824
2376	-0.006675
2372	0.059199
2368	0.078463
2364	0.027728
2360	-0.003528
2356	0.047612
2352	0.111341
2348	0.133681
2344	0.134181
2340	0.118947
2336	0.075531
2332	0.056958
2328	0.069260
2324	0.080037
2320	0.085902
2316	0.061678
2312	0.060701
2308	0.101709
2304	0.098967
2300	0.085878
2296	0.152611
2292	0.245380
2288	0.285458
2284	0.312328
2280	0.338649
2276	0.286316
2272	0.226831
2268	0.300741
2264	0.420308
2260	0.481700
2256	0.535249
2252	0.633072
2248	0.760173
2244	0.805687
2240	0.810980
2236	0.921225
2232	1.074266
2228	1.191687
2224	1.284408
2220	1.393270
2216	1.554226
2212	1.724362
2208	1.871585
2204	2.038764
2200	2.264046
2196	2.511715
2192	2.737665
2188	2.949476
2184	3.190231
2180	3.496074
2176	3.802657
2172	4.043197
2168	4.275798
2164	4.534983
2160	4.823374
2156	5.202245
2152	5.663275
2148	6.104278
2144	6.466507
2140	6.822538
2136	7.241582
2132	7.659530
2128	8.032822
2124	8.385753
2120	8.746433
2116	9.164452
2112	9.637832
2108	10.1292
2104	10.601
2100	11.0453
2096	11.5155
2092	11.9452
2088	12.2964
2084	12.7091
2080	13.22
2076	13.7372
2072	14.205
2068	14.6706
2064	15.1168
2060	15.4738
2056	15.8232
2052	16.2639
2048	16.7729
2044	17.2745
2040	17.7494
2036	18.1756
2032	18.5501
2028	18.9196
2024	19.3098
2020	19.7329
2016	20.128
2012	20.4752
2008	20.8758
2004	21.2861
2000	21.5929
1996	21.8728
1992	22.1917
1988	22.5383
1984	22.8765
1980	23.1597
1976	23.4476
1972	23.7385
1968	23.9803
1964	24.2225
1960	24.4931
1956	24.7786
1952	25.0761
1948	25.3219
1944	25.4657
1940	25.6226
1936	25.8899
1932	26.1625
1928	26.3436
1924	26.5149
1920	26.7362
1916	26.9436
1912	27.1208
1908	27.2583
1904	27.3944
1900	27.5953
1896	27.804
1892	27.9729
1888	28.1092
1884	28.2249
1880	28.3572
1876	28.5231
1872	28.6756
1868	28.7595
1864	28.7835
1860	28.8331
1856	28.9684
1852	29.15
1848	29.2902
1844	29.3751
1840	29.4515
1836	29.507
1832	29.5447
1828	29.5961
1824	29.682
1820	29.7586
1816	29.7911
1812	29.8476
1808	29.9812
1804	30.176
1800	30.3131
1796	30.3204
1792	30.2974
1788	30.3251
1784	30.3811
1780	30.4083
1776	30.3934
1772	30.402
1768	30.4644
1764	30.5333
1760	30.5764
1756	30.58
1752	30.5785
1748	30.6262
1744	30.689
1740	30.7119
1736	30.7244
1732	30.7094
1728	30.6736
1724	30.715
1720	30.806
1716	30.8949
1712	30.9577
1708	30.9603
1704	30.9503
1700	30.9679
1696	30.9892
1692	30.9683
1688	30.8975
1684	30.8631
1680	30.9323
1676	31.0177
1672	30.9985
1668	30.9817
1664	31.0787
1660	31.1527
1656	31.1191
1652	31.081
1648	31.111
1644	31.1289
1640	31.0835
1636	31.0476
1632	31.0251
1628	30.9985
1624	31.0024
1620	31.0418
1616	31.1321
1612	31.2261
1608	31.2273
1604	31.1367
1600	31.0626
1596	31.0585
1592	31.0879
1588	31.0915
1584	31.055
1580	31.0335
1576	31.0234
1572	31.006
1568	30.998
1564	31.0252
1560	31.0673
1556	31.0682
1552	31.0675
1548	31.0653
1544	31.0258
1540	30.9998
1536	30.9822
1532	30.9461
1528	30.9347
1524	30.9658
1520	31.0034
1516	30.9895
1512	30.9461
1508	30.9535
1504	30.9783
1500	30.9876
1496	30.9679
1492	30.8926
1488	30.8468
1484	30.8424
1480	30.8528
1476	30.8763
1472	30.8814
1468	30.8689
1464	30.8147
1460	30.7186
1456	30.6382
1452	30.6072
1448	30.6408
1444	30.7182
1440	30.7602
1436	30.7341
1432	30.7072
1428	30.7141
1424	30.7469
1420	30.7863
1416	30.7931
1412	30.7232
1408	30.6251
1404	30.6269
1400	30.6386
1396	30.5561
1392	30.5495
1388	30.6322
1384	30.655
1380	30.6225
1376	30.593
1372	30.6091
1368	30.6716
1364	30.6454
1360	30.4911
1356	30.3952
1352	30.3948
1348	30.3902
1344	30.3791
1340	30.4022
1336	30.4505
1332	30.4452
1328	30.3766
1324	30.3374
1320	30.3199
1316	30.2537
1312	30.2049
1308	30.2036
1304	30.2303
1300	30.2745
1296	30.2808
1292	30.2657
1288	30.253
1284	30.2431
1280	30.2499
1276	30.2273
1272	30.1638
1268	30.104
1264	30.0678
1260	30.0503
1256	30.0703
1252	30.1099
1248	30.0726
1244	29.9943
1240	29.96
1236	29.9667
1232	29.9935
1228	29.9832
1224	29.9591
1220	29.9984
1216	30.017
1212	29.9141
1208	29.7725
1204	29.7424
1200	29.8035
1196	29.851
1192	29.8355
1188	29.8073
1184	29.8108
1180	29.7875
1176	29.7108
1172	29.6284
1168	29.5958
1164	29.599
1160	29.5738
1156	29.5367
1152	29.5226
1148	29.4811
1144	29.4052
1140	29.3556
1136	29.3537
1132	29.3435
1128	29.3042
1124	29.2998
1120	29.3119
1116	29.3285
1112	29.3115
1108	29.2228
1104	29.1859
1100	29.2303
1096	29.2692
1092	29.2539
1088	29.1767
1084	29.0756
1080	28.9666
1076	28.8802
1072	28.8661
1068	28.8893
1064	28.8878
1060	28.879
1056	28.8849
1052	28.8735
1048	28.9003
1044	28.9102
1040	28.7674
1036	28.669
1032	28.6642
1028	28.5665
1024	28.4356
1020	28.3395
1016	28.3402
1012	28.415
1008	28.4016
1004	28.364
1000	28.3789
996	 28.3791
992	 28.3463
988	 28.2988
984	 28.2307
980	 28.1174
976	 27.9382
972	 27.8182
968	 27.9044
964	 28.0174
960	 27.9857
956	 27.9302
952	 27.8787
948	 27.7703
944	 27.6824
940	 27.5941
936	 27.4479
932	 27.3999
928	 27.4475
924	 27.4208
920	 27.3587
916	 27.3864
912	 27.4614
908	 27.4297
904	 27.2741
900	 27.1175
896	 26.99
892	 26.821
888	 26.6676
884	 26.6856
880	 26.8183
876	 26.8245
872	 26.6635
868	 26.5322
864	 26.5799
860	 26.6808
856	 26.6799
852	 26.6241
848	 26.5605
844	 26.4389
840	 26.2282
836	 26.0325
832	 25.9135
828	 25.8952
824	 25.9749
820	 26.0208
816	 25.8792
812	 25.632
808	 25.5566
804	 25.6151
800	 25.6446
796	 25.6928
792	 25.6753
788	 25.4788
784	 25.2861
780	 25.1845
776	 25.1489
772	 25.1869
768	 25.1863
764	 25.1289
760	 25.0461
756	 25.0509
752	 25.0716
748	 24.8684
744	 24.5581
740	 24.3218
736	 24.1948
732	 24.1482
728	 24.1235
724	 24.1205
720	 24.1648
716	 24.1789
712	 24.1044
708	 23.9588
704	 23.7813
700	 23.6204
696	 23.4556
692	 23.4223
688	 23.5163
684	 23.4511
680	 23.2652
676	 23.1625
672	 23.265
668	 23.467
664	 23.4175
660	 23.1708
656	 22.9953
652	 22.8417
648	 22.7146
644	 22.5563
640	 22.3465
636	 22.3043
632	 22.3109
628	 22.0427
624	 21.7962
620	 21.8818
616	 21.8069
612	 21.4337
608	 21.2478
604	 21.35
600	 21.3301
596	 21.1015
592	 21.0366
588	 21.1571
584	 21.0003
580	 20.4808
576	 20.2178
572	 20.4581
568	 20.6961
564	 20.5839
560	 20.2653
556	 19.9054
552	 19.5681
548	 19.4518
544	 19.6125
540	 19.6545
536	 19.5064
532	 19.4562
528	 19.3925
524	 19.3053
520	 19.3448
516	 19.4437
512	 19.4524
508	 19.325
504	 19.0596
500	 18.5723
496	 18.0121
492	 17.6938
488	 17.5794
484	 17.5348
480	 17.6304
476	 17.7097
472	 17.886
468	 18.2036
464	 18.0186
460	 17.5783
456	 17.8071
452	 17.769
448	 16.3831
444	 15.5192
440	 16.0017
436	 16.1336
432	 15.2989
428	 14.0677
424	 13.4145
420	 13.8247
416	 14.6229
412	 14.5798
408	 13.9943
404	 15.745
400	 17.9366
396	 15.4712
392	 11.3792
388	 13.4328
384	 15.8689
380	 7.718682
376	 -3.230595
372	 -7.320761
370	 -11.2108