File: Bakgrunnsmateriale/MATLAB/FTIR/ftir_data/LPE453/Mapping_121/LPE453_t23.asc
PE IR       SPECTRUM    SPECTRUM    ASCII       PEDS        1.60
  -1
LPCB95~1.ASC
17/05/16
16:17:16.00
17/05/16
16:17:42.00
tln
$LPE453_t0023$<tbV0>[13.0,-7.8,8.0,0.0,27,1,0]
27.028
64

2002,4.07
MIRTGS : RIGHTBACK : INTERNAL 2
MIR : ON : INTERNAL 2
OPTKBR

0.200000
8
8.000000
FILLER
RATIO
SPECTRUM
UNLOCKED 256

DOUBLE
64
COMBINED
1
0
0

0.002000
RATIO

1
0
TRUE
51149
0
LEFT NOT FITTED RIGHT NOT FITTED 0
NONE
NONE
15600
12
4.427000
51148
TRUE
1 0 8 72 0 0 0 0

15798

#HDR
-1
-1
#GR
µM
%T
2.38419e-05
0.0
2.000000
0.002000
12515
8
27.3301
-55.3728
#DATA
2.000000	 0.240468
2.018000	 0.250619
2.036000	 0.142325
2.054000	 -0.156368
2.072000	 0.323075
2.090000	 0.467621
2.108000	 -0.065164
2.126000	 0.463075
2.144000	 0.147627
2.162000	 0.632788
2.180000	 -0.692332
2.198000	 -1.848083
2.216000	 5.604023
2.234000	 0.501346
2.252000	 -0.286231
2.270000	 0.043086
2.288000	 0.544033
2.306000	 0.202010
2.324000	 0.082377
2.342000	 0.234438
2.360000	 -0.140296
2.378000	 0.320067
2.396000	 0.224542
2.414000	 0.324248
2.432000	 0.088337
2.450000	 -0.057572
2.468000	 0.016122
2.486000	 -0.127189
2.504000	 -0.282487
2.522000	 -0.020406
2.540000	 0.135184
2.558000	 -0.020651
2.576000	 -0.031931
2.594000	 -0.128760
2.612000	 0.229801
2.630000	 0.005006
2.648000	 0.111414
2.666000	 0.119051
2.684000	 0.063820
2.702000	 -0.016845
2.720000	 0.012410
2.738000	 -0.076597
2.756000	 0.045460
2.774000	 0.038376
2.792000	 -0.009817
2.810000	 0.202321
2.828000	 0.134924
2.846000	 -0.081360
2.864000	 -0.006081
2.882000	 0.188155
2.900000	 -0.054975
2.918000	 0.152635
2.936000	 0.084207
2.954000	 0.038775
2.972000	 0.067931
2.990000	 0.116095
3.008000	 0.144682
3.026000	 0.021630
3.044000	 0.041296
3.062000	 0.024773
3.080000	 0.103873
3.098000	 0.148084
3.116000	 0.154855
3.134000	 0.020128
3.152000	 0.124267
3.170000	 0.017750
3.188000	 0.070435
3.206000	 0.004191
3.224000	 0.132276
3.242000	 -0.034461
3.260000	 0.060446
3.278000	 0.035295
3.296000	 0.092682
3.314000	 0.074485
3.332000	 0.035373
3.350000	 -0.012680
3.368000	 0.168315
3.386000	 0.149237
3.404000	 0.087926
3.422000	 0.089837
3.440000	 0.022339
3.458000	 -0.009616
3.476000	 -0.016890
3.494000	 0.130241
3.512000	 0.097812
3.530000	 0.099438
3.548000	 -0.058660
3.566000	 -0.052011
3.584000	 0.013598
3.602000	 0.020810
3.620000	 0.038574
3.638000	 0.071104
3.656000	 -0.052208
3.674000	 0.068343
3.692000	 0.016966
3.710000	 0.087072
3.728000	 0.092827
3.746000	 0.075072
3.764000	 -0.036264
3.782000	 -0.042212
3.800000	 0.061546
3.818000	 0.148847
3.836000	 -0.025721
3.854000	 0.083689
3.872000	 0.061883
3.890000	 0.024235
3.908000	 -0.027477
3.926000	 -0.061189
3.944000	 0.126819
3.962000	 -0.010209
3.980000	 0.103163
3.998000	 -0.028603
4.016000	 -0.028593
4.034000	 0.076148
4.052000	 0.026409
4.070000	 0.051828
4.088000	 0.150685
4.106000	 0.004125
4.124000	 -0.354803
4.141999	 0.124787
4.160000	 0.092848
4.178000	 0.121621
4.196000	 -0.033745
4.214000	 0.059443
4.232000	 0.165727
4.250000	 -0.006053
4.268000	 0.010820
4.286000	 0.090572
4.304000	 0.070042
4.322000	 0.116436
4.340000	 0.084115
4.358000	 0.260779
4.375999	 0.265443
4.394000	 0.191090
4.412000	 0.268385
4.430000	 0.370947
4.448000	 0.542580
4.466000	 0.634809
4.484000	 0.863127
4.502000	 1.024865
4.520000	 1.277281
4.538000	 1.670311
4.556000	 1.965234
4.574000	 2.301610
4.592000	 2.699572
4.609999	 3.168794
4.628000	 3.694928
4.646000	 4.236938
4.664000	 4.890238
4.682000	 5.576136
4.700000	 6.182806
4.718000	 6.847515
4.736000	 7.596191
4.754000	 8.326781
4.772000	 8.972498
4.790000	 9.783204
4.808000	 10.5567
4.826000	 11.4536
4.843999	 12.077
4.862000	 12.5646
4.880000	 13.2976
4.898000	 13.9057
4.916000	 14.7615
4.934000	 15.2258
4.952000	 15.8642
4.970000	 16.4792
4.988000	 17.0408
5.006000	 17.6343
5.024000	 18.0426
5.042000	 18.5655
5.060000	 18.9809
5.077999	 19.4015
5.096000	 19.8734
5.114000	 20.2455
5.132000	 20.533
5.150000	 20.8732
5.168000	 21.2426
5.186000	 21.6946
5.204000	 21.9932
5.222000	 22.3172
5.240000	 22.592
5.258000	 22.7934
5.276000	 22.9887
5.294000	 23.2455
5.312000	 23.5628
5.330000	 23.763
5.348000	 23.9731
5.366000	 24.1307
5.384000	 24.3264
5.402000	 24.4808
5.420000	 24.6355
5.438000	 24.7951
5.456000	 24.9605
5.474000	 24.9713
5.492000	 25.1106
5.510000	 25.1956
5.528000	 25.362
5.546000	 25.5559
5.564000	 25.5588
5.582000	 25.6563
5.600000	 25.7933
5.618000	 25.8219
5.636000	 25.9447
5.654000	 25.9938
5.672000	 26.0645
5.690000	 26.203
5.708000	 26.1776
5.726000	 26.168
5.744000	 26.2053
5.762000	 26.2372
5.780000	 26.3249
5.798000	 26.4865
5.816000	 26.5393
5.834000	 26.6569
5.852000	 26.6715
5.870000	 26.6483
5.888000	 26.6966
5.906000	 26.6797
5.923999	 26.7213
5.942000	 26.8026
5.960000	 26.7908
5.978000	 26.7521
5.996000	 26.7821
6.014000	 26.8128
6.032000	 26.8223
6.050000	 26.9427
6.068000	 27.1622
6.086000	 27.2041
6.104000	 27.1107
6.122000	 27.0938
6.140000	 27.0654
6.158000	 27.0639
6.176000	 27.1064
6.194000	 27.1076
6.212000	 27.0935
6.230000	 27.0637
6.248000	 27.0158
6.266000	 27.0664
6.284000	 27.154
6.302000	 27.103
6.320000	 27.0312
6.338000	 27.0657
6.356000	 27.0866
6.374000	 27.0168
6.392000	 27.0052
6.410000	 27.1141
6.428000	 27.2183
6.446000	 27.2517
6.464000	 27.2584
6.482000	 27.235
6.500000	 27.1936
6.518000	 27.1886
6.536000	 27.2298
6.554000	 27.2179
6.572000	 27.1646
6.590000	 27.1806
6.608000	 27.213
6.626000	 27.2126
6.644000	 27.1979
6.662000	 27.2043
6.680000	 27.2312
6.698000	 27.1998
6.716000	 27.2057
6.734000	 27.2958
6.752000	 27.3263
6.770000	 27.2474
6.788000	 27.14
6.806000	 27.0895
6.824000	 27.1104
6.842000	 27.1636
6.860000	 27.1992
6.878000	 27.2099
6.896000	 27.2411
6.914000	 27.2806
6.932000	 27.2452
6.950000	 27.1927
6.968000	 27.1788
6.986000	 27.1196
7.004000	 27.0611
7.022000	 27.0874
7.040000	 27.1481
7.058000	 27.1847
7.076000	 27.1767
7.094000	 27.1368
7.112000	 27.0945
7.130000	 27.0706
7.148000	 27.0541
7.166000	 27.0048
7.184000	 26.9508
7.202000	 26.9693
7.220000	 27.0416
7.238000	 27.0748
7.256000	 27.0457
7.274000	 27.0241
7.292000	 27.0555
7.310000	 27.0925
7.328000	 27.0981
7.346000	 27.1154
7.364000	 27.1572
7.382000	 27.1727
7.400000	 27.1455
7.418000	 27.0942
7.436000	 27.0412
7.454000	 27.0202
7.472000	 27.0249
7.490000	 27.004
7.508000	 26.9564
7.526000	 26.9321
7.544000	 26.943
7.562000	 26.9462
7.580000	 26.9093
7.598000	 26.8675
7.616000	 26.8963
7.634000	 26.9928
7.652000	 27.0447
7.670000	 26.989
7.688000	 26.9083
7.706000	 26.8948
7.724000	 26.9267
7.742000	 26.9344
7.760000	 26.8947
7.778000	 26.8304
7.796000	 26.7786
7.814000	 26.7668
7.832000	 26.7857
7.850000	 26.8018
7.868000	 26.8124
7.886000	 26.8476
7.904000	 26.9056
7.922000	 26.9368
7.940000	 26.9089
7.958000	 26.8415
7.976000	 26.7693
7.994000	 26.7195
8.012000	 26.7144
8.030000	 26.7413
8.048000	 26.7485
8.065999	 26.7129
8.084000	 26.6768
8.102000	 26.6847
8.120000	 26.726
8.138000	 26.7664
8.155999	 26.7934
8.173999	 26.8102
8.192000	 26.819
8.210000	 26.8204
8.228000	 26.8092
8.246000	 26.7767
8.263999	 26.7296
8.282000	 26.692
8.300000	 26.6795
8.318000	 26.6847
8.336000	 26.6877
8.353999	 26.669
8.372000	 26.6147
8.390000	 26.5329
8.408000	 26.4596
8.426000	 26.4282
8.443999	 26.4326
8.462000	 26.4406
8.480000	 26.4387
8.498000	 26.4401
8.516000	 26.4519
8.533999	 26.4622
8.552000	 26.4604
8.570000	 26.4516
8.588000	 26.4393
8.606000	 26.4111
8.624000	 26.3583
8.641999	 26.2969
8.660000	 26.2539
8.678000	 26.2352
8.696000	 26.2237
8.714000	 26.2102
8.731999	 26.2114
8.750000	 26.2474
8.768000	 26.304
8.786000	 26.3329
8.804000	 26.2976
8.821999	 26.2134
8.840000	 26.1347
8.858000	 26.1075
8.876000	 26.1355
8.894000	 26.1893
8.911999	 26.2343
8.930000	 26.2484
8.948000	 26.2232
8.966000	 26.1604
8.984000	 26.0728
9.001999	 25.9847
9.020000	 25.9243
9.038000	 25.9085
9.056000	 25.927
9.074000	 25.9479
9.092000	 25.9421
9.109999	 25.9047
9.128000	 25.8544
9.146000	 25.8192
9.164000	 25.818
9.182000	 25.8525
9.199999	 25.9098
9.218000	 25.9719
9.236000	 26.0259
9.254000	 26.0664
9.272000	 26.0885
9.289999	 26.0828
9.308000	 26.0434
9.326000	 25.9787
9.344000	 25.9112
9.362000	 25.8633
9.379999	 25.845
9.398000	 25.8553
9.416000	 25.8877
9.434000	 25.9287
9.452000	 25.952
9.469999	 25.9237
9.488000	 25.8242
9.506000	 25.6704
9.524000	 25.51
9.542000	 25.3882
9.560000	 25.3177
9.577999	 25.2861
9.596000	 25.2832
9.614000	 25.3116
9.632000	 25.3714
9.650000	 25.4469
9.667999	 25.5164
9.686000	 25.5719
9.704000	 25.6249
9.722000	 25.689
9.740000	 25.7604
9.757999	 25.8169
9.776000	 25.8375
9.794000	 25.8192
9.812000	 25.7759
9.830000	 25.7205
9.847999	 25.6529
9.866000	 25.5667
9.884000	 25.4628
9.902000	 25.3561
9.920000	 25.2671
9.937999	 25.208
9.956000	 25.1774
9.974000	 25.1662
9.992000	 25.1662
10.01	25.1741
10.028	25.1892
10.046	25.2094
10.064	25.2305
10.082	25.2466
10.1	25.2515
10.118	25.2385
10.136	25.2017
10.154	25.1414
10.172	25.0686
10.19	25.0047
10.208	24.9726
10.226	24.9843
10.244	25.0339
10.262	25.0993
10.28	25.1557
10.298	25.186
10.316	25.1854
10.334	25.1583
10.352	25.1113
10.37	25.0511
10.388	24.9843
10.406	24.9198
10.424	24.8668
10.442	24.8304
10.46	24.8073
10.478	24.7876
10.496	24.7597
10.514	24.7173
10.532	24.6628
10.55	24.6058
10.568	24.5576
10.586	24.529
10.604	24.5266
10.622	24.5529
10.64	24.6062
10.658	24.6796
10.676	24.7605
10.694	24.8333
10.712	24.882
10.73	24.8967
10.748	24.8757
10.766	24.8276
10.784	24.7664
10.802	24.7067
10.82	24.6553
10.838	24.6109
10.856	24.5656
10.874	24.5105
10.892	24.4428
10.91	24.3674
10.928	24.2944
10.946	24.2337
10.964	24.1894
10.982	24.157
11	24.1275
11.018	24.09
11.036	24.039
11.054	23.9749
11.072	23.9037
11.09	23.8349
11.108	23.7774
11.126	23.739
11.144	23.7244
11.162	23.736
11.18	23.7734
11.198	23.8327
11.216	23.9064
11.234	23.9839
11.252	24.0526
11.27	24.1022
11.288	24.1262
11.306	24.1245
11.324	24.102
11.342	24.0672
11.36	24.0293
11.378	23.9958
11.396	23.9712
11.414	23.9578
11.432	23.9551
11.45	23.9613
11.468	23.9719
11.486	23.9798
11.504	23.977
11.522	23.9557
11.54	23.9115
11.558	23.8448
11.576	23.7613
11.594	23.67
11.612	23.5806
11.63	23.5023
11.648	23.4412
11.666	23.3998
11.684	23.3784
11.702	23.3749
11.72	23.3853
11.738	23.4047
11.756	23.4285
11.774	23.4525
11.792	23.4753
11.81	23.4984
11.828	23.525
11.846	23.559
11.864	23.6022
11.882	23.6523
11.9	23.703
11.918	23.7453
11.936	23.7703
11.954	23.7725
11.972	23.7506
11.99	23.7085
12.008	23.6532
12.026	23.592
12.044	23.5322
12.062	23.4783
12.08	23.4318
12.098	23.3925
12.116	23.3571
12.134	23.3206
12.152	23.2767
12.17	23.2206
12.188	23.1495
12.206	23.0645
12.224	22.9716
12.242	22.8802
12.26	22.8001
12.278	22.7395
12.296	22.7027
12.314	22.6884
12.332	22.6907
12.35	22.7018
12.368	22.7145
12.386	22.724
12.404	22.7296
12.422	22.734
12.44	22.7408
12.458	22.7535
12.476	22.7732
12.494	22.799
12.512	22.8279
12.53	22.8566
12.548	22.8825
12.566	22.9049
12.584	22.9236
12.602	22.9389
12.62	22.9503
12.638	22.9558
12.656	22.9518
12.674	22.9342
12.692	22.9002
12.71	22.8487
12.728	22.7814
12.746	22.7036
12.764	22.6232
12.782	22.5489
12.8	22.489
12.818	22.4491
12.836	22.4313
12.854	22.433
12.872	22.4477
12.89	22.4667
12.908	22.4813
12.926	22.4837
12.944	22.4693
12.962	22.437
12.98	22.3891
12.998	22.3305
13.016	22.2674
13.034	22.2068
13.052	22.1545
13.07	22.1152
13.088	22.0915
13.106	22.0843
13.124	22.0926
13.142	22.1136
13.16	22.1433
13.178	22.1771
13.196	22.21
13.214	22.2373
13.232	22.2553
13.25	22.2617
13.268	22.2556
13.286	22.2374
13.304	22.2085
13.322	22.171
13.34	22.1279
13.358	22.0823
13.376	22.0374
13.394	21.9962
13.412	21.9615
13.43	21.9352
13.448	21.9183
13.466	21.9104
13.484	21.9101
13.502	21.9149
13.52	21.9223
13.538	21.9295
13.556	21.9342
13.574	21.9341
13.592	21.9277
13.61	21.9142
13.628	21.8934
13.646	21.8655
13.664	21.8317
13.682	21.794
13.7	21.7544
13.718	21.7159
13.736	21.6815
13.754	21.6538
13.772	21.6346
13.79	21.6249
13.808	21.6242
13.826	21.6306
13.844	21.6405
13.862	21.6493
13.88	21.6521
13.898	21.6441
13.916	21.6218
13.934	21.5835
13.952	21.5296
13.97	21.4628
13.988	21.3877
14.006	21.3105
14.024	21.238
14.042	21.1762
14.06	21.1297
14.078	21.1007
14.096	21.0889
14.114	21.0917
14.132	21.1045
14.15	21.1221
14.168	21.1389
14.186	21.1507
14.204	21.1543
14.222	21.1484
14.24	21.1336
14.258	21.1119
14.276	21.0857
14.294	21.0576
14.312	21.0301
14.33	21.005
14.348	20.9833
14.366	20.9657
14.384	20.9515
14.402	20.9399
14.42	20.9295
14.438	20.9187
14.456	20.9062
14.474	20.8904
14.492	20.8704
14.51	20.8456
14.528	20.8161
14.546	20.7824
14.564	20.7455
14.582	20.7069
14.6	20.6685
14.618	20.6321
14.636	20.5995
14.654	20.5718
14.672	20.5498
14.69	20.5334
14.708	20.522
14.726	20.5146
14.744	20.5092
14.762	20.5042
14.78	20.4978
14.798	20.4887
14.816	20.4759
14.834	20.459
14.852	20.438
14.87	20.4133
14.888	20.3853
14.906	20.3547
14.924	20.3221
14.942	20.288
14.96	20.2524
14.978	20.2154
14.996	20.177
15.014	20.1371
15.032	20.0963
15.05	20.0555
15.068	20.0162
15.086	19.9802
15.104	19.9494
15.122	19.9263
15.14	19.9126
15.158	19.9093
15.176	19.9169
15.194	19.9348
15.212	19.961
15.23	19.993
15.248	20.0278
15.266	20.0623
15.284	20.0931
15.302	20.1177
15.32	20.1348
15.338	20.1436
15.356	20.1441
15.374	20.1377
15.392	20.1258
15.41	20.11
15.428	20.092
15.446	20.0735
15.464	20.0552
15.482	20.0375
15.5	20.0205
15.518	20.0039
15.536	19.9874
15.554	19.9708
15.572	19.9541
15.59	19.9377
15.608	19.9217
15.626	19.9066
15.644	19.8928
15.662	19.8808
15.68	19.8704
15.698	19.8614
15.716	19.8527
15.734	19.8429
15.752	19.8308
15.77	19.8152
15.788	19.7946
15.806	19.7683
15.824	19.736
15.842	19.6978
15.86	19.6548
15.878	19.6082
15.896	19.5596
15.914	19.5112
15.932	19.465
15.95	19.4222
15.968	19.3843
15.986	19.3522
16.004	19.3259
16.022	19.3054
16.04	19.2896
16.058	19.2772
16.076	19.2672
16.094	19.2577
16.112	19.2474
16.13	19.2356
16.148	19.2209
16.166	19.2035
16.184	19.184
16.202	19.1629
16.22	19.1428
16.238	19.1256
16.256	19.1131
16.274	19.1087
16.292	19.1142
16.31	19.131
16.328	19.1609
16.346	19.2036
16.364	19.2588
16.382	19.3246
16.4	19.3978
16.418	19.4761
16.436	19.5545
16.454	19.6289
16.472	19.6963
16.49	19.7515
16.508	19.7918
16.526	19.8151
16.544	19.8194
16.562	19.805
16.58	19.7723
16.598	19.7237
16.616	19.6618
16.634	19.5889
16.652	19.5103
16.67	19.4289
16.688	19.3478
16.706	19.2714
16.724	19.2009
16.742	19.1383
16.76	19.0844
16.778	19.0391
16.796	19.0017
16.814	18.9702
16.832	18.9438
16.85	18.9196
16.868	18.8956
16.886	18.8703
16.904	18.8416
16.922	18.8091
16.94	18.772
16.958	18.7311
16.976	18.687
16.994	18.6409
17.012	18.5947
17.03	18.5497
17.048	18.5086
17.066	18.4722
17.084	18.4425
17.102	18.4204
17.12	18.4064
17.138	18.4009
17.156	18.4036
17.174	18.4145
17.192	18.4324
17.21	18.4568
17.228	18.4863
17.246	18.5197
17.264	18.5561
17.282	18.5939
17.3	18.6325
17.318	18.6703
17.336	18.7065
17.354	18.7402
17.372	18.7709
17.39	18.7984
17.408	18.8224
17.426	18.8432
17.444	18.861
17.462	18.8761
17.48	18.8885
17.498	18.8987
17.516	18.9065
17.534	18.9116
17.552	18.9136
17.57	18.9122
17.588	18.9061
17.606	18.8948
17.624	18.8773
17.642	18.8529
17.66	18.821
17.678	18.7814
17.696	18.7345
17.714	18.6808
17.732	18.6216
17.75	18.5578
17.768	18.4921
17.786	18.4252
17.804	18.3604
17.822	18.2986
17.84	18.2425
17.858	18.1928
17.876	18.151
17.894	18.1174
17.912	18.0922
17.93	18.0745
17.948	18.064
17.966	18.0587
17.984	18.0578
18.002	18.0594
18.02	18.062
18.038	18.0646
18.056	18.0655
18.074	18.0643
18.092	18.06
18.11	18.0525
18.128	18.0414
18.146	18.027
18.164	18.0096
18.182	17.9894
18.2	17.967
18.218	17.943
18.236	17.9177
18.254	17.8917
18.272	17.8653
18.29	17.8388
18.308	17.8126
18.326	17.7865
18.344	17.7605
18.362	17.7347
18.38	17.7088
18.398	17.6825
18.416	17.6556
18.434	17.6276
18.452	17.5982
18.47	17.5673
18.488	17.5346
18.506	17.4999
18.524	17.4634
18.542	17.4251
18.56	17.3855
18.578	17.3449
18.596	17.304
18.614	17.2628
18.632	17.2225
18.65	17.183
18.668	17.1451
18.686	17.1086
18.704	17.074
18.722	17.041
18.74	17.0093
18.758	16.9786
18.776	16.9477
18.794	16.9164
18.812	16.8834
18.83	16.8483
18.848	16.8099
18.866	16.7683
18.884	16.7229
18.902	16.6743
18.92	16.6229
18.938	16.5697
18.956	16.5161
18.974	16.4636
18.992	16.4142
19.01	16.3696
19.028	16.3324
19.046	16.3034
19.064	16.2854
19.082	16.2784
19.1	16.2839
19.118	16.3014
19.136	16.3308
19.154	16.371
19.172	16.4202
19.19	16.4772
19.208	16.5385
19.226	16.6032
19.244	16.6667
19.262	16.7287
19.28	16.7845
19.298	16.8344
19.316	16.8746
19.334	16.9055
19.352	16.9256
19.37	16.9351
19.388	16.9348
19.406	16.9245
19.424	16.9073
19.442	16.8828
19.46	16.8548
19.478	16.8233
19.496	16.7917
19.514	16.7608
19.532	16.7328
19.55	16.7089
19.568	16.6897
19.586	16.6767
19.604	16.6694
19.622	16.6683
19.64	16.6729
19.658	16.6822
19.676	16.6961
19.694	16.7129
19.712	16.7327
19.73	16.753
19.748	16.7739
19.766	16.7936
19.784	16.8116
19.802	16.8268
19.82	16.8384
19.838	16.8462
19.856	16.8493
19.874	16.8478
19.892	16.8413
19.91	16.8298
19.928	16.8134
19.946	16.7921
19.964	16.7662
19.982	16.7358
20	16.7013
20.018	16.6628
20.036	16.6207
20.054	16.5754
20.072	16.527
20.09	16.4763
20.108	16.423
20.126	16.3682
20.144	16.3116
20.162	16.2542
20.18	16.1962
20.198	16.138
20.216	16.0804
20.234	16.0235
20.252	15.9686
20.27	15.9155
20.288	15.8652
20.306	15.818
20.324	15.7744
20.342	15.735
20.36	15.6999
20.378	15.6698
20.396	15.6446
20.414	15.6248
20.432	15.6104
20.45	15.6011
20.468	15.597
20.486	15.5977
20.504	15.603
20.522	15.6128
20.54	15.626
20.558	15.6427
20.576	15.662
20.594	15.6836
20.612	15.707
20.63	15.7311
20.648	15.7561
20.666	15.7809
20.684	15.8056
20.702	15.8295
20.72	15.852
20.738	15.8734
20.756	15.893
20.774	15.9108
20.792	15.9267
20.81	15.9407
20.828	15.9527
20.846	15.9626
20.864	15.9705
20.882	15.9761
20.9	15.9796
20.918	15.9806
20.936	15.9791
20.954	15.975
20.972	15.968
20.99	15.9582
21.008	15.9453
21.026	15.929
21.044	15.9094
21.062	15.8863
21.08	15.8598
21.098	15.8298
21.116	15.7963
21.134	15.7597
21.152	15.72
21.17	15.6774
21.188	15.6326
21.206	15.5856
21.224	15.537
21.242	15.4878
21.26	15.4377
21.278	15.3879
21.296	15.3386
21.314	15.2901
21.332	15.2433
21.35	15.1979
21.368	15.1545
21.386	15.1134
21.404	15.0743
21.422	15.0378
21.44	15.0036
21.458	14.9717
21.476	14.9421
21.494	14.9148
21.512	14.8898
21.53	14.8671
21.548	14.8465
21.566	14.8278
21.584	14.8109
21.602	14.7961
21.62	14.783
21.638	14.7721
21.656	14.7635
21.674	14.7571
21.692	14.7537
21.71	14.7535
21.728	14.7565
21.746	14.7637
21.764	14.7748
21.782	14.7904
21.8	14.8111
21.818	14.8366
21.836	14.867
21.854	14.9024
21.872	14.9426
21.89	14.9871
21.908	15.0362
21.926	15.0889
21.944	15.1448
21.962	15.2041
21.98	15.2649
21.998	15.3276
22.016	15.3913
22.034	15.4538
22.052	15.5159
22.07	15.5761
22.088	15.6329
22.106	15.6871
22.124	15.7372
22.142	15.7831
22.16	15.8248
22.178	15.8615
22.196	15.8932
22.214	15.9199
22.232	15.9415
22.25	15.958
22.268	15.9694
22.286	15.9757
22.304	15.9768
22.322	15.9728
22.34	15.9639
22.358	15.9498
22.376	15.9301
22.394	15.9051
22.412	15.8744
22.43	15.8375
22.448	15.7948
22.466	15.7455
22.484	15.6891
22.502	15.6259
22.52	15.5556
22.538	15.4779
22.556	15.3931
22.574	15.3019
22.592	15.2038
22.61	15.0996
22.628	14.9918
22.646	14.8789
22.664	14.7633
22.682	14.6491
22.7	14.534
22.718	14.4221
22.736	14.3183
22.754	14.2198
22.772	14.1312
22.79	14.0565
22.808	13.9931
22.826	13.9451
22.844	13.9149
22.862	13.9007
22.88	13.9057
22.898	13.9317
22.916	13.9775
22.934	14.0429
22.952	14.129
22.97	14.2349
22.988	14.3562
23.006	14.4938
23.024	14.6465
23.042	14.8065
23.06	14.9745
23.078	15.1493
23.096	15.3211
23.114	15.4914
23.132	15.6584
23.15	15.8119
23.168	15.953
23.186	16.0808
23.204	16.1874
23.222	16.2737
23.24	16.3393
23.258	16.3791
23.276	16.3931
23.294	16.3819
23.312	16.3437
23.33	16.2775
23.348	16.185
23.366	16.068
23.384	15.9251
23.402	15.7581
23.42	15.5723
23.438	15.3665
23.456	15.1419
23.474	14.9059
23.492	14.6582
23.51	14.3988
23.528	14.1358
23.546	13.8705
23.564	13.6013
23.582	13.3357
23.6	13.0761
23.618	12.8201
23.636	12.5731
23.654	12.3378
23.672	12.1118
23.69	11.8989
23.708	11.7019
23.726	11.5187
23.744	11.3515
23.762	11.2023
23.78	11.0697
23.798	10.955
23.816	10.8597
23.834	10.7832
23.852	10.7257
23.87	10.688
23.888	10.6702
23.906	10.6718
23.924	10.6919
23.942	10.7315
23.96	10.7897
23.978	10.863
23.996	10.9513
24.014	11.0555
24.032	11.1699
24.05	11.2921
24.068	11.4257
24.086	11.5626
24.104	11.6955
24.122	11.8312
24.14	11.9612
24.158	12.0739
24.176	12.1753
24.194	12.2608
24.212	12.3163
24.23	12.3422
24.248	12.3409
24.266	12.2972
24.284	12.2028
24.302	12.0661
24.32	11.877
24.338	11.6255
24.356	11.3161
24.374	10.948
24.392	10.5171
24.41	10.0202
24.428	9.461883
24.446	8.849787
24.464	8.184473
24.482	7.462441
24.5	6.697971
24.518	5.901389
24.536	5.059338
24.554	4.190204
24.572	3.318603
24.59	2.432688
24.608	1.538827
24.626	0.669632
24.644	-0.163077
24.662	-0.977238
24.68	-1.742372
24.698	-2.430569
24.716	-3.061065
24.734	-3.620437
24.752	-4.082321
24.77	-4.443978
24.788	-4.713943
24.806	-4.879543
24.824	-4.930425
24.842	-4.871224
24.86	-4.706525
24.878	-4.439812
24.896	-4.061927
24.914	-3.581945
24.932	-3.021238
24.95	-2.386720
24.968	-1.662646
24.986	-0.880653
25.004	-0.073187
25.022	0.781729
25.04	1.670089
25.058	2.551500
25.076	3.411152
25.094	4.273326
25.112	5.102614
25.13	5.863129
25.148	6.572230
25.166	7.224596
25.184	7.794335
25.202	8.267838
25.22	8.659609
25.238	8.962047
25.256	9.166154
25.274	9.268190
25.292	9.276296
25.31	9.200189
25.328	9.042154
25.346	8.792058
25.364	8.470966
25.382	8.102174
25.4	7.672569
25.418	7.185625
25.436	6.675520
25.454	6.166501
25.472	5.631085
25.49	5.093412
25.508	4.588387
25.526	4.120968
25.544	3.674653
25.562	3.276083
25.58	2.950689
25.598	2.688038
25.616	2.487462
25.634	2.360224
25.652	2.315270
25.67	2.348115
25.688	2.453699
25.706	2.627510
25.724	2.876864
25.742	3.200566
25.76	3.576672
25.778	3.985722
25.796	4.448786
25.814	4.951636
25.832	5.461598
25.85	5.960398
25.868	6.478140
25.886	6.983463
25.904	7.436845
25.922	7.833130
25.94	8.194600
25.958	8.486630
25.976	8.674285
25.994	8.771493
26.012	8.781298
26.03	8.676422
26.048	8.433377
26.066	8.070193
26.084	7.581366
26.102	6.950136
26.12	6.164165
26.138	5.232947
26.156	4.157998
26.174	2.938973
26.192	1.571244
26.21	0.053554
26.228	-1.598578
26.246	-3.369277
26.264	-5.268368
26.282	-7.298860
26.3	-9.427853
26.318	-11.6234
26.336	-13.9069
26.354	-16.275
26.372	-18.6882
26.39	-21.1113
26.408	-23.5789
26.426	-26.075
26.444	-28.5538
26.462	-30.9794
26.48	-33.397
26.498	-35.7784
26.516	-38.0721
26.534	-40.2414
26.552	-42.3311
26.57	-44.3158
26.588	-46.1545
26.606	-47.8202
26.624	-49.3437
26.642	-50.713
26.66	-51.9093
26.678	-52.9198
26.696	-53.7559
26.714	-54.4202
26.732	-54.9137
26.75	-55.2312
26.768	-55.3651
26.786	-55.3387
26.804	-55.1774
26.822	-54.8892
26.84	-54.4505
26.858	-53.8889
26.876	-53.2357
26.894	-52.503
26.912	-51.6639
26.93	-50.7435
26.948	-49.7705
26.966	-48.7051
26.984	-47.4434
27.002	-46.2048
27.02	-45.2299
27.028	-44.9725