File: Bakgrunnsmateriale/MATLAB/FTIR/ftir_data/LPE453/Mapping_121/LPE453_t56_cm-1.asc
PE IR       SPECTRUM    SPECTRUM    ASCII       PEDS        1.60
  -1
LPE95A~1.ASC
17/05/16
18:57:37.00
17/05/16
18:57:37.00
tln
$LPE453_t0056$<tbV0>[13.0,0.0,8.0,0.0,27,1,0]
370
64

2002,4.07
MIRTGS : RIGHTBACK : INTERNAL 2
MIR : ON : INTERNAL 2
OPTKBR

0.200000
8
8.000000
FILLER
RATIO
SPECTRUM
UNLOCKED 256

DOUBLE
64
COMBINED
1
0
0

1.000000
RATIO

1
0
TRUE
51149
0
LEFT NOT FITTED RIGHT NOT FITTED 0
NONE
NONE
15600
12
4.427000
51148
TRUE
1 0 8 72 0 0 0 0

15798

#HDR
-1
-1
#GR
CM-1
%T
2.38419e-05
0.0
5000
-1.000000
4631
8
24.9625
-11.8752
#DATA
5000	0.447511
4996	0.463414
4992	0.314116
4988	0.262188
4984	0.385475
4980	0.311517
4976	0.231981
4972	0.406908
4968	0.449824
4964	0.265431
4960	0.144457
4956	0.157785
4952	0.037646
4948	-0.145816
4944	-0.105977
4940	0.024867
4936	0.185322
4932	0.410509
4928	0.470185
4924	0.323152
4920	0.128650
4916	-0.108146
4912	-0.327873
4908	-0.344967
4904	-0.176596
4900	-0.008654
4896	0.177526
4892	0.283503
4888	0.167679
4884	0.100469
4880	0.021910
4876	0.118637
4872	0.467634
4868	0.581192
4864	0.558328
4860	0.539064
4856	0.452709
4852	0.358629
4848	0.220990
4844	0.003743
4840	-0.129938
4836	-0.151968
4832	-0.147151
4828	-0.003719
4824	-0.031208
4820	-0.156092
4816	0.150060
4812	0.439357
4808	0.482702
4804	0.641179
4800	0.561237
4796	0.274538
4792	0.299739
4788	0.402021
4784	0.436925
4780	0.425767
4776	0.360989
4772	0.440526
4768	0.515556
4764	0.446748
4760	0.270199
4756	0.158882
4752	0.095295
4748	-0.143098
4744	-0.198531
4740	-0.088787
4736	-0.118780
4732	0.325465
4728	1.001954
4724	0.816941
4720	0.274133
4716	0.241231
4712	0.860285
4708	1.384615
4704	0.579786
4700	-0.819206
4696	-0.583887
4692	0.929403
4688	1.253533
4684	1.057720
4680	1.518368
4676	1.635026
4672	1.167178
4668	0.847887
4664	0.541090
4660	0.016593
4656	0.181174
4652	0.458431
4648	0.510120
4644	1.274919
4640	1.517915
4636	0.934934
4632	0.979328
4628	1.009750
4624	0.182223
4620	-0.425386
4616	-0.272059
4612	-0.039649
4608	-0.047206
4604	-0.048041
4600	0.218272
4596	0.643086
4592	0.902819
4588	1.000761
4584	1.208734
4580	1.148676
4576	0.751852
4572	0.562119
4568	0.597286
4564	0.835394
4560	1.056861
4556	1.051187
4552	1.037478
4548	0.595116
4544	0.023460
4540	-0.338292
4536	-0.652956
4532	-0.750517
4528	-0.365877
4524	-0.365614
4520	-0.965905
4516	-1.649689
4512	-2.437663
4508	-3.206825
4504	-3.335380
4500	-2.678036
4496	3.491830
4492	17.7952
4488	24.9625
4484	15.2071
4480	1.329922
4476	-4.325222
4472	-3.490138
4468	-1.849126
4464	-0.707721
4460	0.491452
4456	1.180028
4452	0.589489
4448	-0.451302
4444	-0.932526
4440	-0.997972
4436	-0.690603
4432	-0.341868
4428	-0.265574
4424	-0.286793
4420	-0.507164
4416	-0.640439
4412	-0.179147
4408	0.180172
4404	0.054049
4400	0.013995
4396	0.322318
4392	0.735187
4388	0.839304
4384	0.806236
4380	0.792312
4376	0.600337
4372	0.379085
4368	0.403308
4364	0.589251
4360	0.544571
4356	0.352334
4352	0.346612
4348	0.480461
4344	0.500321
4340	0.441980
4336	0.507354
4332	0.560927
4328	0.571012
4324	0.606226
4320	0.532889
4316	0.295472
4312	0.021147
4308	0.009703
4304	0.149178
4300	0.104761
4296	0.087165
4292	0.174188
4288	0.172448
4284	0.256252
4280	0.413584
4276	0.428271
4272	0.367236
4268	0.340557
4264	0.394296
4260	0.428700
4256	0.400066
4252	0.280094
4248	0.148677
4244	0.245118
4240	0.231504
4236	0.032067
4232	0.115823
4228	0.240063
4224	0.143957
4220	0.084114
4216	0.166869
4212	0.287246
4208	0.321674
4204	0.239491
4200	0.183033
4196	0.206017
4192	0.093078
4188	-0.029087
4184	0.081372
4180	0.110507
4176	0.092172
4172	0.391721
4168	0.699043
4164	0.635457
4160	0.425887
4156	0.372672
4152	0.459432
4148	0.531125
4144	0.504493
4140	0.451683
4136	0.409650
4132	0.271248
4128	0.137305
4124	0.131797
4120	0.143170
4116	0.126075
4112	0.191736
4108	0.292468
4104	0.209689
4100	0.067687
4096	0.051736
4092	0.116848
4088	0.227427
4084	0.260591
4080	0.152921
4076	0.109314
4072	0.203442
4068	0.202107
4064	0.117349
4060	0.144624
4056	0.141429
4052	0.055003
4048	0.005602
4044	0.037217
4040	0.094056
4036	0.069332
4032	0.013947
4028	0.019478
4024	0.068616
4020	0.105857
4016	0.104594
4012	0.115489
4008	0.151491
4004	0.139021
4000	0.137662
3996	0.067567
3992	-0.121736
3988	-0.193643
3984	-0.052833
3980	0.057435
3976	0.035572
3972	0.021457
3968	0.027370
3964	0.054693
3960	0.163316
3956	0.278472
3952	0.367212
3948	0.416135
3944	0.344133
3940	0.184106
3936	0.015616
3932	-0.025939
3928	0.097346
3924	0.232529
3920	0.260996
3916	0.183510
3912	0.107383
3908	0.084495
3904	0.029730
3900	-0.012993
3896	0.057005
3892	0.142526
3888	0.157523
3884	0.139164
3880	0.169706
3876	0.160670
3872	0.121116
3868	0.167965
3864	0.204992
3860	0.179767
3856	0.110435
3852	0.053524
3848	0.065779
3844	0.054550
3840	0.067782
3836	0.208449
3832	0.362753
3828	0.331711
3824	0.155377
3820	0.058293
3816	0.102353
3812	0.115799
3808	0.062799
3804	0.054168
3800	0.099277
3796	0.154137
3792	0.178050
3788	0.173258
3784	0.125002
3780	0.122618
3776	0.132226
3772	0.056076
3768	0.030875
3764	0.072550
3760	0.148987
3756	0.241947
3752	0.220346
3748	0.164747
3744	0.196480
3740	0.189328
3736	0.147557
3732	0.133490
3728	0.098967
3724	0.067448
3720	0.046014
3716	0.028252
3712	0.055432
3708	0.062966
3704	0.043034
3700	0.111937
3696	0.237798
3692	0.271344
3688	0.187969
3684	0.165510
3680	0.210332
3676	0.114560
3672	0.015640
3668	0.104522
3664	0.184798
3660	0.170588
3656	0.104045
3652	0.002455
3648	-0.048661
3644	-0.019121
3640	0.061631
3636	0.083518
3632	0.025725
3628	0.017762
3624	0.061082
3620	0.060915
3616	0.031733
3612	0.052571
3608	0.116491
3604	0.139093
3600	0.104022
3596	0.109481
3592	0.165128
3588	0.178766
3584	0.105023
3580	-0.020051
3576	-0.098204
3572	-0.054478
3568	0.050902
3564	0.095343
3560	0.093460
3556	0.124716
3552	0.121903
3548	0.056171
3544	-0.002074
3540	-0.036311
3536	-0.037074
3532	-0.013566
3528	0.031018
3524	0.049042
3520	0.028705
3516	0.006794
3512	0.002098
3508	0.066184
3504	0.116562
3500	0.102806
3496	0.098657
3492	0.114607
3488	0.133752
3484	0.120639
3480	0.124263
3476	0.163984
3472	0.148653
3468	0.167989
3464	0.261521
3460	0.291538
3456	0.201416
3452	0.052666
3448	-0.007820
3444	0.015759
3440	0.052499
3436	0.070333
3432	-0.005435
3428	-0.041007
3424	-0.015449
3420	-0.015282
3416	0.082755
3412	0.164151
3408	0.126194
3404	0.067138
3400	-0.065350
3396	-0.204992
3392	-0.199031
3388	-0.116872
3384	-0.032734
3380	0.045132
3376	0.054526
3372	-0.004100
3368	-0.040173
3364	-0.030231
3360	-0.011491
3356	0.003194
3352	0.051522
3348	0.106120
3344	0.080227
3340	0.031256
3336	0.008320
3332	-0.023269
3328	-0.010180
3324	0.080227
3320	0.084161
3316	-0.020074
3312	-0.040483
3308	0.040340
3304	0.143742
3300	0.192785
3296	0.127649
3292	0.003743
3288	-0.019907
3284	0.066709
3280	0.090289
3276	0.028491
3272	-0.000548
3268	0.018548
3264	0.060296
3260	0.089144
3256	0.038838
3252	-0.018501
3248	-0.013327
3244	-0.001955
3240	0.002837
3236	-0.009250
3232	-0.040125
3228	-0.011801
3224	0.080728
3220	0.184154
3216	0.216388
3212	0.119924
3208	0.049042
3204	0.062370
3200	0.052380
3196	0.034809
3192	0.046133
3188	0.053596
3184	0.016713
3180	0.001120
3176	0.077795
3172	0.143146
3168	0.159859
3164	0.136327
3160	0.012230
3156	-0.049519
3152	0.045514
3148	0.146317
3144	0.220417
3140	0.215983
3136	0.124263
3132	0.097203
3128	0.129556
3124	0.122857
3120	0.050210
3116	0.025844
3112	0.067734
3108	0.052738
3104	0.063633
3100	0.122737
3096	0.140333
3092	0.107955
3088	0.035738
3084	-0.034976
3080	-0.005674
3076	0.084733
3072	0.050902
3068	-0.051331
3064	-0.055575
3060	0.005555
3056	0.062036
3052	0.105142
3048	0.091314
3044	0.025892
3040	-0.015234
3036	-0.031661
3032	-0.051021
3028	-0.050520
3024	-0.007009
3020	0.025486
3016	-0.003886
3012	-0.042009
3008	-0.042796
3004	-0.026679
3000	-0.040292
2996	-0.048708
2992	0.011372
2988	0.073790
2984	0.065350
2980	0.027656
2976	0.004005
2972	-0.024390
2968	-0.023150
2964	0.031518
2960	0.084233
2956	0.132536
2952	0.165653
2948	0.108742
2944	0.041675
2940	0.044870
2936	0.010466
2932	-0.036406
2928	0.001835
2924	0.046229
2920	0.035977
2916	-0.000429
2912	-0.027871
2908	-0.011825
2904	0.020051
2900	0.022578
2896	-0.000548
2892	-0.016784
2888	0.003266
2884	0.071620
2880	0.147294
2876	0.132250
2872	0.011587
2868	-0.107550
2864	-0.110554
2860	-0.031423
2856	-0.007367
2852	-0.057172
2848	-0.083780
2844	-0.018692
2840	0.077390
2836	0.109291
2832	0.073122
2828	0.027179
2824	0.029897
2820	0.049161
2816	0.036239
2812	0.022697
2808	0.021457
2804	0.039196
2800	0.100278
2796	0.137376
2792	0.081300
2788	0.035119
2784	0.082969
2780	0.113964
2776	0.043988
2772	-0.054574
2768	-0.125980
2764	-0.171971
2760	-0.128531
2756	0.004601
2752	0.049734
2748	-0.042724
2744	-0.098991
2740	-0.058960
2736	-0.003170
2732	0.056004
2728	0.123691
2724	0.136566
2720	0.093913
2716	0.066518
2712	0.058054
2708	0.043702
2704	-0.018739
2700	-0.062513
2696	-0.007128
2692	-0.002646
2688	-0.068020
2684	-0.052833
2680	0.013899
2676	0.040125
2672	0.066304
2668	0.126767
2664	0.143241
2660	0.072741
2656	0.007295
2652	0.018119
2648	0.028061
2644	-0.020909
2640	-0.052738
2636	-0.011301
2632	0.029349
2628	0.013136
2624	0.010323
2620	0.045871
2616	0.059008
2612	0.049924
2608	0.055932
2604	0.084614
2600	0.084495
2596	0.033450
2592	-0.027441
2588	-0.040268
2584	0.021004
2580	0.047278
2576	-0.005817
2572	-0.012350
2568	0.067043
2564	0.116086
2560	0.093817
2556	0.082015
2552	0.084829
2548	0.082659
2544	0.102615
2540	0.134921
2536	0.130534
2532	0.121974
2528	0.158810
2524	0.150489
2520	0.077724
2516	0.040984
2512	0.077247
2508	0.109171
2504	0.090169
2500	0.084352
2496	0.118875
2492	0.132060
2488	0.112485
2484	0.092864
2480	0.043225
2476	-0.006651
2472	-0.010561
2468	-0.025749
2464	-0.075960
2460	-0.073790
2456	-0.010871
2452	0.030326
2448	0.036406
2444	0.002670
2440	-0.013780
2436	-0.005316
2432	-0.078105
2428	-0.137472
2424	0.007796
2420	0.243735
2416	0.263047
2412	0.089287
2408	-0.049328
2404	-0.048208
2400	0.032734
2396	0.080227
2392	0.117564
2388	0.162172
2384	0.169897
2380	0.150179
2376	0.151729
2372	0.140953
2368	0.075125
2364	0.041675
2360	0.062870
2356	0.063538
2352	0.041317
2348	0.013566
2344	-0.010681
2340	-0.000953
2336	0.005650
2332	-0.042057
2328	-0.069069
2324	-0.014185
2320	0.036311
2316	0.031495
2312	0.018548
2308	-0.000262
2304	-0.009179
2300	0.034880
2296	0.078511
2292	0.046849
2288	-0.008821
2284	-0.030469
2280	-0.030636
2276	0.029087
2272	0.136542
2268	0.203013
2264	0.195670
2260	0.168061
2256	0.178170
2252	0.227117
2248	0.278520
2244	0.325322
2240	0.386714
2236	0.435018
2232	0.435757
2228	0.426054
2224	0.478219
2220	0.571203
2216	0.648427
2212	0.708127
2208	0.790143
2204	0.873136
2200	0.906181
2196	0.987744
2192	1.144742
2188	1.281070
2184	1.402711
2180	1.527857
2176	1.673030
2172	1.876950
2168	2.106523
2164	2.328920
2160	2.492022
2156	2.592945
2152	2.753829
2148	3.003239
2144	3.278541
2140	3.501915
2136	3.690862
2132	3.972911
2128	4.304099
2124	4.558563
2120	4.757404
2116	5.009293
2112	5.315947
2108	5.602025
2104	5.915522
2100	6.275343
2096	6.637930
2092	6.970024
2088	7.248878
2084	7.562136
2080	7.925105
2076	8.272552
2072	8.632349
2068	8.938217
2064	9.154915
2060	9.504818
2056	10.0187
2052	10.4017
2048	10.6405
2044	10.9442
2040	11.2898
2036	11.5862
2032	11.8494
2028	12.1674
2024	12.5178
2020	12.8192
2016	13.1077
2012	13.4447
2008	13.7911
2004	14.0625
2000	14.3147
1996	14.6095
1992	14.9311
1988	15.229
1984	15.4673
1980	15.7292
1976	16.0442
1972	16.3203
1968	16.5243
1964	16.7236
1960	16.9596
1956	17.1972
1952	17.4185
1948	17.6506
1944	17.8455
1940	17.9883
1936	18.1556
1932	18.3528
1928	18.594
1924	18.8224
1920	18.9842
1916	19.1539
1912	19.3369
1908	19.4844
1904	19.6062
1900	19.7572
1896	19.9131
1892	20.0451
1888	20.1987
1884	20.3538
1880	20.471
1876	20.5824
1872	20.7163
1868	20.8186
1864	20.8894
1860	21.0137
1856	21.209
1852	21.3672
1848	21.4065
1844	21.4425
1840	21.5312
1836	21.608
1832	21.6965
1828	21.7994
1824	21.9102
1820	21.9989
1816	22.0482
1812	22.1433
1808	22.2774
1804	22.4063
1800	22.5041
1796	22.5209
1792	22.5062
1788	22.5472
1784	22.6339
1780	22.709
1776	22.7742
1772	22.8243
1768	22.8371
1764	22.8662
1760	22.9556
1756	23.0313
1752	23.0414
1748	23.0686
1744	23.1351
1740	23.1916
1736	23.2446
1732	23.3164
1728	23.3812
1724	23.4423
1720	23.5115
1716	23.5245
1712	23.4966
1708	23.5002
1704	23.5227
1700	23.5455
1696	23.603
1692	23.6841
1688	23.7209
1684	23.7045
1680	23.67
1676	23.676
1672	23.7148
1668	23.6817
1664	23.632
1660	23.6653
1656	23.7187
1652	23.7759
1648	23.8519
1644	23.8707
1640	23.8387
1636	23.8492
1632	23.8711
1628	23.8649
1624	23.8735
1620	23.8738
1616	23.874
1612	23.9288
1608	23.9899
1604	24.0178
1600	24.0304
1596	24.0402
1592	24.0465
1588	24.0365
1584	24.0185
1580	24.031
1576	24.0615
1572	24.0983
1568	24.1694
1564	24.1857
1560	24.1062
1556	24.0034
1552	23.9494
1548	23.9583
1544	23.9974
1540	24.0372
1536	24.0508
1532	24.0767
1528	24.0993
1524	24.1008
1520	24.1106
1516	24.0957
1512	24.0561
1508	24.0486
1504	24.0574
1500	24.0074
1496	23.9912
1492	24.1116
1488	24.1839
1484	24.1462
1480	24.0783
1476	24.0126
1472	23.9983
1468	24.0087
1464	23.9792
1460	23.9198
1456	23.9407
1452	24.0234
1448	24.0408
1444	24.0843
1440	24.1651
1436	24.1543
1432	24.0752
1428	23.9888
1424	23.9604
1420	24.0076
1416	24.0459
1412	24.0421
1408	24.0572
1404	24.0744
1400	23.9874
1396	23.8869
1392	23.867
1388	23.8444
1384	23.8435
1380	23.9041
1376	23.9383
1372	23.9402
1368	23.9449
1364	23.9424
1360	23.9097
1356	23.8457
1352	23.7486
1348	23.6373
1344	23.6157
1340	23.6805
1336	23.7334
1332	23.7564
1328	23.7656
1324	23.7692
1320	23.7774
1316	23.7633
1312	23.6957
1308	23.6029
1304	23.5573
1300	23.5678
1296	23.5397
1292	23.5237
1288	23.6178
1284	23.6852
1280	23.6431
1276	23.5706
1272	23.4946
1268	23.4197
1264	23.4129
1260	23.452
1256	23.4489
1252	23.4636
1248	23.5604
1244	23.6511
1240	23.6216
1236	23.5126
1232	23.4019
1228	23.2929
1224	23.231
1220	23.2407
1216	23.2792
1212	23.3457
1208	23.4229
1204	23.4132
1200	23.3709
1196	23.3384
1192	23.2235
1188	23.1177
1184	23.0987
1180	23.1117
1176	23.121
1172	23.1493
1168	23.2227
1164	23.2851
1160	23.3031
1156	23.2821
1152	23.1678
1148	23.0083
1144	22.9055
1140	22.8901
1136	22.8859
1132	22.8248
1128	22.8656
1124	23.0333
1120	23.0914
1116	22.9896
1112	22.8625
1108	22.7367
1104	22.5709
1100	22.4359
1096	22.3992
1092	22.4217
1088	22.4786
1084	22.5406
1080	22.5479
1076	22.566
1072	22.6129
1068	22.5993
1064	22.5255
1060	22.4267
1056	22.3899
1052	22.3897
1048	22.3506
1044	22.2909
1040	22.2154
1036	22.2109
1032	22.2347
1028	22.1953
1024	22.1078
1020	21.9685
1016	21.9086
1012	21.9343
1008	21.92
1004	21.9116
1000	21.951
996	 22.0058
992	 22.0272
988	 21.9834
984	 21.8691
980	 21.689
976	 21.5093
972	 21.4045
968	 21.3268
964	 21.2941
960	 21.3766
956	 21.5026
952	 21.641
948	 21.6769
944	 21.4627
940	 21.2062
936	 21.1066
932	 21.0247
928	 20.8156
924	 20.6409
920	 20.6581
916	 20.7786
912	 20.8563
908	 20.8053
904	 20.7529
900	 20.769
896	 20.674
892	 20.4126
888	 20.1444
884	 20.0133
880	 20.0459
876	 20.1804
872	 20.3476
868	 20.4393
864	 20.3302
860	 20.0874
856	 19.9029
852	 19.7995
848	 19.7175
844	 19.6605
840	 19.6056
836	 19.5462
832	 19.5278
828	 19.5834
824	 19.651
820	 19.6635
816	 19.6009
812	 19.4215
808	 19.1854
804	 19.0438
800	 19.0567
796	 19.1007
792	 19.0313
788	 18.8847
784	 18.8053
780	 18.8403
776	 18.8448
772	 18.6936
768	 18.4582
764	 18.237
760	 18.1794
756	 18.2685
752	 18.2642
748	 18.2907
744	 18.297
740	 18.1324
736	 18.1632
732	 18.238
728	 17.9417
724	 17.5979
720	 17.5109
716	 17.4876
712	 17.4467
708	 17.4932
704	 17.5569
700	 17.538
696	 17.3549
692	 16.9894
688	 16.6914
684	 16.637
680	 16.7005
676	 16.6582
672	 16.5003
668	 16.3853
664	 16.3945
660	 16.4196
656	 16.4057
652	 16.5214
648	 16.6665
644	 16.659
640	 16.4634
636	 16.0326
632	 15.5745
628	 15.4006
624	 15.4505
620	 15.4908
616	 15.5632
612	 15.6701
608	 15.5195
604	 15.2423
600	 15.0833
596	 14.9721
592	 14.9353
588	 14.9264
584	 14.9069
580	 14.901
576	 14.8165
572	 14.6484
568	 14.4823
564	 14.1907
560	 13.7617
556	 13.5052
552	 13.7064
548	 14.1248
544	 14.2052
540	 13.9938
536	 13.8472
532	 13.6414
528	 13.3198
524	 13.2981
520	 13.4247
516	 13.3616
512	 13.3575
508	 13.3052
504	 13.0511
500	 12.9705
496	 12.9516
492	 12.7747
488	 12.5484
484	 12.2356
480	 12.107
476	 12.0456
472	 11.7765
468	 11.8297
464	 12.2167
460	 12.3063
456	 12.2248
452	 11.7738
448	 10.7935
444	 10.3131
440	 10.5551
436	 10.7062
432	 10.2153
428	 10.0444
424	 10.2862
420	 10.359
416	 10.7441
412	 9.569454
408	 6.523323
404	 5.108428
400	 7.233285
396	 13.0574
392	 15.8343
388	 11.1094
384	 10.9447
380	 10.0487
376	 -6.707882
372	 -9.560632
370	 -2.791261