File: Bakgrunnsmateriale/MATLAB/FTIR/ftir_data/LPE453/Mapping_121/LPE453_t85_cm-1.asc
PE IR       SPECTRUM    SPECTRUM    ASCII       PEDS        1.60
  -1
LP6BDA~1.ASC
17/05/16
21:18:41.00
17/05/16
21:18:41.00
tln
$LPE453_t0085$<tbV0>[-5.2,5.2,8.0,0.0,27,1,0]
370
64

2002,4.07
MIRTGS : RIGHTBACK : INTERNAL 2
MIR : ON : INTERNAL 2
OPTKBR

0.200000
8
8.000000
FILLER
RATIO
SPECTRUM
UNLOCKED 256

DOUBLE
64
COMBINED
1
0
0

1.000000
RATIO

1
0
TRUE
51149
0
LEFT NOT FITTED RIGHT NOT FITTED 0
NONE
NONE
15600
12
4.427000
51148
TRUE
1 0 8 72 0 0 0 0

15798

#HDR
-1
-1
#GR
CM-1
%T
2.38419e-05
0.0
5000
-1.000000
4631
8
36.8858
-9.361505
#DATA
5000	0.027561
4996	-0.189924
4992	0.073981
4988	0.518536
4984	0.605416
4980	0.315260
4976	0.037097
4972	-0.005865
4968	-0.120186
4964	-0.400805
4960	-0.460624
4956	-0.286221
4952	0.007200
4948	0.208187
4944	0.108313
4940	0.123476
4936	0.383472
4932	0.517559
4928	0.460910
4924	0.394439
4920	0.350356
4916	0.211429
4912	0.065422
4908	-0.097250
4904	-0.190830
4900	0.001478
4896	0.113844
4892	0.017786
4888	0.072860
4884	0.068998
4880	-0.124859
4876	0.059819
4872	0.267124
4868	-0.059247
4864	-0.296974
4860	-0.247168
4856	-0.165009
4852	-0.035810
4848	0.107932
4844	0.165295
4840	0.134277
4836	0.103712
4832	0.081562
4828	0.142812
4824	0.278282
4820	0.364661
4816	0.293588
4812	0.125837
4808	-0.021791
4804	-0.084185
4800	0.084042
4796	0.334382
4792	0.389051
4788	0.363039
4784	0.496649
4780	0.557208
4776	0.320148
4772	0.091958
4768	-0.041055
4764	-0.184583
4760	-0.124001
4756	-0.052165
4752	-0.173234
4748	-0.045847
4744	0.230407
4740	0.373959
4736	0.364685
4732	0.144886
4728	-0.158715
4724	-0.397801
4720	-0.417542
4716	-0.076174
4712	0.325965
4708	0.168490
4704	0.068068
4700	0.471568
4696	0.381898
4692	0.116395
4688	0.358057
4684	0.673198
4680	1.121377
4676	0.884962
4672	-0.122857
4668	-0.259661
4664	0.626420
4660	0.823855
4656	-0.264787
4652	-0.533509
4648	0.805711
4644	1.713085
4640	1.059436
4636	0.102257
4632	-0.120782
4628	0.013279
4624	-0.212168
4620	-0.507116
4616	-0.241756
4612	0.128817
4608	0.173592
4604	0.216245
4600	0.118947
4596	-0.000047
4592	0.243687
4588	-0.213360
4584	-1.364469
4580	-1.687526
4576	-1.293158
4572	-1.122641
4568	-0.979876
4564	-1.017642
4560	-1.296091
4556	-1.224088
4552	-0.950551
4548	-0.749802
4544	-0.855684
4540	-1.173329
4536	-1.109671
4532	-0.597596
4528	-0.489449
4524	-0.516724
4520	-0.245165
4516	-0.394487
4512	-0.582170
4508	-0.839447
4504	0.260376
4500	8.700180
4496	16.0607
4492	15.6228
4488	15.5957
4484	9.250116
4480	0.540852
4476	-0.527286
4472	-0.409340
4468	-1.190328
4464	-1.374673
4460	-1.041817
4456	-0.540280
4452	-0.215435
4448	-0.272989
4444	-0.235342
4440	-0.007271
4436	-0.175452
4432	-0.373721
4428	-0.342774
4424	-0.551819
4420	-0.405573
4416	0.135970
4412	0.234031
4408	0.032281
4404	-0.122523
4400	-0.333118
4396	-0.357198
4392	-0.124096
4388	0.117063
4384	0.310373
4380	0.316619
4376	0.279712
4372	0.462913
4368	0.588846
4364	0.350928
4360	-0.163936
4356	-0.420951
4352	-0.006079
4348	0.482606
4344	0.525379
4340	0.395798
4336	0.208568
4332	0.244426
4328	0.661659
4324	0.751280
4320	0.499629
4316	0.518298
4312	0.603652
4308	0.476956
4304	0.290703
4300	0.021958
4296	-0.253963
4292	-0.262188
4288	-0.104212
4284	0.044345
4280	0.145673
4276	0.178790
4272	0.197958
4268	0.253176
4264	0.306868
4260	0.250864
4256	0.165224
4252	0.136923
4248	0.139689
4244	0.194549
4240	0.153875
4236	-0.102090
4232	-0.213050
4228	0.010561
4224	0.139594
4220	0.080442
4216	0.041913
4212	0.049924
4208	0.164318
4204	0.247621
4200	0.173234
4196	0.273895
4192	0.643992
4188	0.778317
4184	0.513577
4180	0.406265
4176	0.559711
4172	0.420665
4168	0.018167
4164	-0.157880
4160	-0.088596
4156	0.059366
4152	0.148081
4148	0.070476
4144	0.040674
4140	0.133061
4136	0.112843
4132	0.021195
4128	-0.001597
4124	-0.003314
4120	-0.041389
4116	-0.046873
4112	0.088453
4108	0.251650
4104	0.278282
4100	0.172519
4096	0.029492
4092	-0.062012
4088	0.017857
4084	0.134706
4080	0.060701
4076	0.008058
4072	0.100445
4068	0.188899
4064	0.197649
4060	0.195336
4056	0.268292
4052	0.270128
4048	0.129151
4044	-0.033736
4040	-0.119853
4036	-0.105452
4032	-0.125002
4028	-0.171947
4024	-0.111436
4020	0.032591
4016	0.100612
4012	0.125932
4008	0.119924
4004	0.066614
4000	0.042581
3996	-0.042295
3992	-0.054287
3988	0.016164
3984	-0.044417
3980	-0.083494
3976	-0.004982
3972	0.075149
3968	0.134134
3964	0.133419
3960	0.077128
3956	0.065159
3952	0.074505
3948	0.105452
3944	0.126242
3940	0.095176
3936	0.074100
3932	-0.001621
3928	-0.112414
3924	-0.085687
3920	0.072169
3916	0.111079
3912	-0.008988
3908	-0.081634
3904	-0.060367
3900	0.039601
3896	0.132036
3892	0.105905
3888	0.055503
3884	0.058889
3880	0.060844
3876	0.068855
3872	0.035572
3868	-0.023603
3864	0.007843
3860	0.026845
3856	-0.053668
3852	-0.091004
3848	-0.019097
3844	0.066423
3840	0.088357
3836	0.063681
3832	0.029969
3828	-0.026750
3824	-0.024724
3820	0.029540
3816	0.004863
3812	-0.066852
3808	-0.082540
3804	0.003767
3800	0.137948
3796	0.227713
3792	0.195884
3788	0.061178
3784	-0.022959
3780	0.002336
3776	0.026917
3772	-0.047206
3768	-0.052523
3764	0.108933
3760	0.203371
3756	0.187158
3752	0.143098
3748	0.105595
3744	0.056290
3740	0.020265
3736	0.064325
3732	0.124096
3728	0.116705
3724	0.080227
3720	0.080561
3716	0.127625
3712	0.150370
3708	0.098419
3704	-0.026035
3700	-0.132346
3696	-0.128054
3692	-0.083947
3688	-0.082755
3684	-0.071096
3680	0.039935
3676	0.147628
3672	0.123548
3668	0.055861
3664	0.027489
3660	0.067520
3656	0.137567
3652	0.151205
3648	0.086379
3644	0.015354
3640	-0.007581
3636	-0.031399
3632	-0.043773
3628	-0.011014
3624	0.032544
3620	0.058889
3616	0.060200
3612	0.048828
3608	0.061726
3604	0.070357
3600	0.033950
3596	0.007295
3592	0.014233
3588	0.007724
3584	0.001811
3580	0.010776
3576	0.032806
3572	0.070977
3568	0.083088
3564	0.059890
3560	0.039148
3556	0.073695
3552	0.119447
3548	0.073862
3544	-0.039792
3540	-0.058245
3536	-0.044107
3532	-0.079369
3528	-0.001025
3524	0.076961
3520	0.054478
3516	0.041556
3512	0.041460
3508	0.043845
3504	0.058436
3500	0.083851
3496	0.069999
3492	0.061082
3488	0.075054
3484	0.037717
3480	0.003314
3476	-0.039219
3472	-0.069117
3468	-0.010228
3464	0.011444
3460	-0.009059
3456	-0.010585
3452	-0.012636
3448	0.033569
3444	0.097537
3440	0.050282
3436	-0.059223
3432	-0.039339
3428	0.063633
3424	0.115942
3420	0.163364
3416	0.171947
3412	0.117444
3408	0.086140
3404	0.054836
3400	0.047159
3396	0.097227
3392	0.092840
3388	0.038814
3384	0.040984
3380	0.091433
3376	0.123047
3372	0.082635
3368	0.037622
3364	0.077509
3360	0.144982
3356	0.153303
3352	0.079846
3348	0.017547
3344	0.049042
3340	0.072264
3336	0.014090
3332	-0.056934
3328	-0.070524
3324	-0.024032
3320	0.023198
3316	0.066184
3312	0.119233
3308	0.141859
3304	0.144314
3300	0.101518
3296	0.044035
3292	0.053811
3288	0.012063
3284	-0.102710
3280	-0.157237
3276	-0.127911
3272	-0.010037
3268	0.094723
3264	0.068306
3260	0.024151
3256	0.035500
3252	0.069785
3248	0.061368
3244	-0.016760
3240	-0.034356
3236	0.003337
3232	0.010275
3228	0.015521
3224	0.053620
3220	0.110721
3216	0.088620
3212	0.025773
3208	0.058078
3204	0.084424
3200	-0.004339
3196	-0.065875
3192	-0.026965
3188	-0.020551
3184	-0.087308
3180	-0.097656
3176	0.027251
3172	0.182747
3168	0.214815
3164	0.200915
3160	0.230908
3156	0.223231
3152	0.192379
3148	0.150632
3144	0.090360
3140	0.005364
3136	-0.047588
3132	0.022292
3128	0.123524
3124	0.111770
3120	0.089263
3116	0.146865
3112	0.135111
3108	0.026988
3104	-0.052618
3100	-0.060129
3096	-0.027513
3092	0.001049
3088	-0.012350
3084	-0.046658
3080	-0.040769
3076	-0.005316
3072	0.021481
3068	-0.007605
3064	-0.070929
3060	-0.068759
3056	-0.006580
3052	0.044226
3048	0.067520
3044	0.086307
3040	0.106739
3036	0.141429
3032	0.175714
3028	0.153732
3024	0.053691
3020	-0.016236
3016	0.031614
3012	0.041961
3008	-0.022888
3004	-0.012111
3000	0.012588
2996	-0.000452
2992	0.034165
2988	0.085067
2984	0.071811
2980	0.023078
2976	-0.003528
2972	-0.001382
2968	0.006055
2964	0.004220
2960	0.033092
2956	0.057101
2952	0.023579
2948	-0.014209
2944	-0.033473
2940	-0.072193
2936	-0.109648
2932	-0.091981
2928	-0.064587
2924	-0.038194
2920	0.041007
2916	0.113487
2912	0.114107
2908	0.124096
2904	0.134682
2900	0.070476
2896	-0.021505
2892	-0.119924
2888	-0.144052
2884	-0.057125
2880	0.020575
2876	0.040745
2872	0.028920
2868	0.006961
2864	-0.006031
2860	0.004076
2856	0.044226
2852	0.059938
2848	0.054597
2844	0.052380
2840	-0.013184
2836	-0.065255
2832	-0.026130
2828	-0.008487
2824	-0.050997
2820	-0.119447
2816	-0.167012
2812	-0.136446
2808	-0.059413
2804	-0.002169
2800	0.056886
2796	0.116014
2792	0.117969
2788	0.075125
2784	0.037288
2780	0.025773
2776	-0.000834
2772	-0.020217
2768	0.011777
2764	0.010776
2760	-0.013542
2756	0.044226
2752	0.120949
2748	0.104832
2744	0.051331
2740	0.022244
2736	0.033688
2732	0.091624
2728	0.097560
2724	0.032281
2720	0.007843
2716	0.044679
2712	0.082111
2708	0.061178
2704	0.026178
2700	0.033020
2696	0.034976
2692	0.009679
2688	-0.043249
2684	-0.108027
2680	-0.108742
2676	-0.033974
2672	0.010657
2668	0.047826
2664	0.129222
2660	0.133776
2656	0.084161
2652	0.076079
2648	0.043463
2644	-0.032234
2640	-0.054621
2636	-0.031280
2632	-0.059986
2628	-0.110030
2624	-0.089049
2620	-0.034999
2616	-0.018382
2612	-0.000739
2608	-0.021266
2604	-0.062608
2600	-0.017881
2596	0.041365
2592	0.043153
2588	0.064396
2584	0.086665
2580	0.040388
2576	-0.025582
2572	0.011920
2568	0.072145
2564	0.087428
2560	0.100350
2556	0.065398
2552	-0.021982
2548	-0.072884
2544	-0.021839
2540	0.068616
2536	0.088191
2532	0.011754
2528	-0.051999
2524	-0.001025
2520	0.073766
2516	0.098538
2512	0.078487
2508	0.042414
2504	0.008726
2500	-0.051999
2496	-0.088810
2492	-0.069069
2488	-0.031876
2484	0.012445
2480	0.029659
2476	0.010681
2472	0.026464
2468	0.103735
2464	0.151276
2460	0.139141
2456	0.096201
2452	0.036668
2448	0.029087
2444	0.076103
2440	0.101208
2436	0.097060
2432	0.069689
2428	0.024533
2424	0.027441
2420	0.089073
2416	0.150084
2412	0.167512
2408	0.159072
2404	0.108957
2400	0.052905
2396	0.037884
2392	0.005555
2388	0.015807
2384	0.099110
2380	0.179004
2376	0.169944
2372	0.075507
2368	0.022983
2364	0.071549
2360	0.157284
2356	0.165271
2352	0.132322
2348	0.204753
2344	0.336742
2340	0.372648
2336	0.321388
2332	0.287532
2328	0.337409
2324	0.430750
2320	0.459814
2316	0.482273
2312	0.572991
2308	0.622010
2304	0.594806
2300	0.587701
2296	0.627589
2292	0.719809
2288	0.863218
2284	0.989341
2280	1.092863
2276	1.179385
2272	1.248025
2268	1.318788
2264	1.396417
2260	1.541137
2256	1.739573
2252	1.945281
2248	2.120327
2244	2.247810
2240	2.406048
2236	2.630782
2232	2.884244
2228	3.089213
2224	3.274941
2220	3.535079
2216	3.845405
2212	4.156613
2208	4.470586
2204	4.793906
2200	5.113363
2196	5.447673
2192	5.807614
2188	6.186366
2184	6.564116
2180	6.931352
2176	7.355022
2172	7.835125
2168	8.337593
2164	8.835935
2160	9.249830
2156	9.662628
2152	10.1966
2148	10.7306
2144	11.1823
2140	11.6742
2136	12.2525
2132	12.8478
2128	13.4114
2124	13.9253
2120	14.3852
2116	14.8268
2112	15.382
2108	16.0276
2104	16.5685
2100	17.0352
2096	17.5596
2092	18.0836
2088	18.5797
2084	19.0992
2080	19.628
2076	20.1343
2072	20.6185
2068	21.1561
2064	21.6761
2060	22.0739
2056	22.4969
2052	23.0013
2048	23.4706
2044	23.8921
2040	24.3376
2036	24.813
2032	25.2711
2028	25.6875
2024	26.0836
2020	26.4804
2016	26.8465
2012	27.1779
2008	27.5357
2004	27.9479
2000	28.3271
1996	28.6016
1992	28.8438
1988	29.1615
1984	29.5417
1980	29.8801
1976	30.1405
1972	30.3839
1968	30.6654
1964	30.9037
1960	31.0507
1956	31.2203
1952	31.4338
1948	31.6469
1944	31.8644
1940	32.0858
1936	32.3183
1932	32.5555
1928	32.7824
1924	32.9769
1920	33.1261
1916	33.2643
1912	33.4108
1908	33.5431
1904	33.6683
1900	33.7805
1896	33.9042
1892	34.0439
1888	34.1382
1884	34.2258
1880	34.3637
1876	34.4999
1872	34.6258
1868	34.7939
1864	34.9654
1860	35.0641
1856	35.093
1852	35.1104
1848	35.1427
1844	35.2028
1840	35.2598
1836	35.3124
1832	35.3986
1828	35.4881
1824	35.5828
1820	35.6895
1816	35.7851
1812	35.8512
1808	35.9121
1804	35.9839
1800	36.0136
1796	35.9722
1792	35.9002
1788	35.8898
1784	35.9446
1780	35.9908
1776	36.0432
1772	36.1367
1768	36.2189
1764	36.2749
1760	36.3381
1756	36.3775
1752	36.39
1748	36.3815
1744	36.3323
1740	36.2908
1736	36.2582
1732	36.185
1728	36.1857
1724	36.2899
1720	36.4126
1716	36.5476
1712	36.6289
1708	36.6856
1704	36.6905
1700	36.5714
1696	36.4938
1692	36.5215
1688	36.5241
1684	36.4511
1680	36.3655
1676	36.3334
1672	36.3415
1668	36.3784
1664	36.4547
1660	36.5307
1656	36.5974
1652	36.6903
1648	36.7997
1644	36.8727
1640	36.8813
1636	36.8076
1632	36.6556
1628	36.5136
1624	36.4486
1620	36.4293
1616	36.4366
1612	36.4919
1608	36.5597
1604	36.6228
1600	36.703
1596	36.7772
1592	36.8311
1588	36.8195
1584	36.7569
1580	36.7162
1576	36.6415
1572	36.5284
1568	36.4557
1564	36.4094
1560	36.3543
1556	36.3441
1552	36.4218
1548	36.5007
1544	36.5633
1540	36.6411
1536	36.695
1532	36.7294
1528	36.7245
1524	36.6654
1520	36.5728
1516	36.4403
1512	36.3308
1508	36.3079
1504	36.3329
1500	36.3435
1496	36.3423
1492	36.4072
1488	36.4806
1484	36.5066
1480	36.5523
1476	36.5507
1472	36.4751
1468	36.4349
1464	36.3996
1460	36.2785
1456	36.1322
1452	36.0105
1448	35.9481
1444	36.0073
1440	36.1329
1436	36.2392
1432	36.3177
1428	36.414
1424	36.5119
1420	36.537
1416	36.4681
1412	36.3512
1408	36.2402
1404	36.1202
1400	36
1396	35.9494
1392	35.9683
1388	36.0075
1384	36.0718
1380	36.1486
1376	36.1924
1372	36.2401
1368	36.2989
1364	36.3403
1360	36.3546
1356	36.3146
1352	36.2224
1348	36.047
1344	35.8091
1340	35.6444
1336	35.6229
1332	35.7055
1328	35.8305
1324	35.9708
1320	36.0434
1316	36.0481
1312	36.1517
1308	36.2965
1304	36.3381
1300	36.3092
1296	36.1906
1292	35.9902
1288	35.822
1284	35.6538
1280	35.4681
1276	35.4371
1272	35.5794
1268	35.7191
1264	35.7852
1260	35.8615
1256	35.9713
1252	36.0368
1248	36.0288
1244	35.9703
1240	35.8815
1236	35.7691
1232	35.6263
1228	35.48
1224	35.3708
1220	35.2653
1216	35.1876
1212	35.2237
1208	35.3487
1204	35.4726
1200	35.6055
1196	35.7733
1192	35.8044
1188	35.7205
1184	35.6551
1180	35.5548
1176	35.4085
1172	35.2204
1168	35.0247
1164	34.9613
1160	35.041
1156	35.0965
1152	35.092
1148	35.1431
1144	35.2594
1140	35.4027
1136	35.5534
1132	35.604
1128	35.5246
1124	35.4072
1120	35.2491
1116	35.0671
1112	34.9036
1108	34.7239
1104	34.594
1100	34.5957
1096	34.7175
1092	34.8834
1088	35.0044
1084	35.1231
1080	35.2163
1076	35.2452
1072	35.2467
1068	35.1857
1064	35.0138
1060	34.7289
1056	34.5171
1052	34.4024
1048	34.258
1044	34.2459
1040	34.3227
1036	34.3401
1032	34.3834
1028	34.5375
1024	34.7889
1020	34.8811
1016	34.7846
1012	34.7115
1008	34.5442
1004	34.2959
1000	34.1234
996	 34.0079
992	 33.9657
988	 33.9402
984	 33.9026
980	 33.9513
976	 34.0049
972	 34.0418
968	 34.1949
964	 34.3424
960	 34.3651
956	 34.3237
952	 34.2341
948	 34.0866
944	 33.8571
940	 33.6253
936	 33.4396
932	 33.2668
928	 33.1793
924	 33.2422
920	 33.3122
916	 33.3431
912	 33.4775
908	 33.6337
904	 33.7459
900	 33.7245
896	 33.5348
892	 33.3359
888	 33.1152
884	 32.882
880	 32.6519
876	 32.4308
872	 32.3435
868	 32.3538
864	 32.3593
860	 32.4689
856	 32.7529
852	 32.9984
848	 33.1417
844	 33.227
840	 33.1458
836	 32.9272
832	 32.6795
828	 32.3648
824	 32.0415
820	 31.8954
816	 31.7128
812	 31.4337
808	 31.4516
804	 31.7101
800	 31.9418
796	 32.2033
792	 32.3616
788	 32.3013
784	 32.219
780	 32.1057
776	 31.9261
772	 31.7425
768	 31.4796
764	 31.2041
760	 31.0105
756	 30.893
752	 30.8712
748	 30.7938
744	 30.7353
740	 30.9726
736	 31.2739
732	 31.3884
728	 31.3778
724	 31.2711
720	 31.134
716	 30.9276
712	 30.6347
708	 30.312
704	 29.8373
700	 29.4329
696	 29.4138
692	 29.563
688	 29.7511
684	 29.9054
680	 29.9698
676	 30.182
672	 30.4822
668	 30.5852
664	 30.4879
660	 30.2123
656	 29.7736
652	 29.3637
648	 29.0822
644	 28.829
640	 28.6739
636	 28.6639
632	 28.5497
628	 28.4262
624	 28.4075
620	 28.414
616	 28.4779
612	 28.5582
608	 28.6876
604	 28.6969
600	 28.4154
596	 28.11
592	 27.8043
588	 27.4102
584	 27.075
580	 26.9525
576	 26.9814
572	 26.9639
568	 27.0457
564	 27.2829
560	 27.4204
556	 27.4842
552	 27.5978
548	 27.6491
544	 27.5838
540	 27.4405
536	 27.0513
532	 26.3509
528	 25.7287
524	 25.3728
520	 25.201
516	 25.1687
512	 25.2666
508	 25.567
504	 25.7859
500	 25.8564
496	 25.816
492	 25.3914
488	 25.1168
484	 25.1632
480	 25.0265
476	 24.8361
472	 24.7474
468	 24.7317
464	 24.2286
460	 23.2558
456	 22.9383
452	 22.8313
448	 22.2157
444	 22.3292
440	 22.5842
436	 21.8155
432	 21.3993
428	 22.0247
424	 22.9922
420	 24.3016
416	 23.9164
412	 21.6171
408	 23.1924
404	 28.2217
400	 29.3703
396	 23.1809
392	 16.4103
388	 19.6775
384	 24.724
380	 25.7586
376	 14.7965
372	 -1.473879
370	 -9.361505