File: Bakgrunnsmateriale/MATLAB/FTIR/ftir_data/LPE453/Mapping_121/LPE453_t82_cm-1.asc
PE IR       SPECTRUM    SPECTRUM    ASCII       PEDS        1.60
  -1
LP5B50~1.ASC
17/05/16
21:04:51.00
17/05/16
21:04:51.00
tln
$LPE453_t0082$<tbV0>[2.6,5.2,8.0,0.0,27,1,0]
370
64

2002,4.07
MIRTGS : RIGHTBACK : INTERNAL 2
MIR : ON : INTERNAL 2
OPTKBR

0.200000
8
8.000000
FILLER
RATIO
SPECTRUM
UNLOCKED 256

DOUBLE
64
COMBINED
1
0
0

1.000000
RATIO

1
0
TRUE
51149
0
LEFT NOT FITTED RIGHT NOT FITTED 0
NONE
NONE
15600
12
4.427000
51148
TRUE
1 0 8 72 0 0 0 0

15798

#HDR
-1
-1
#GR
CM-1
%T
2.38419e-05
0.0
5000
-1.000000
4631
8
33.047
-1.407837
#DATA
5000	-0.358366
4996	-0.270605
4992	-0.227713
4988	0.088739
4984	0.470376
4980	0.111579
4976	-0.238990
4972	-0.026392
4968	0.316429
4964	0.441670
4960	0.289940
4956	0.252223
4952	0.361442
4948	0.270199
4944	0.262379
4940	0.377321
4936	0.285530
4932	0.171375
4928	0.068330
4924	-0.040483
4920	0.026082
4916	0.144004
4912	0.168108
4908	0.115299
4904	0.035858
4900	0.064992
4896	0.143003
4892	0.141072
4888	0.200128
4884	0.297975
4880	0.233626
4876	0.122737
4872	0.293588
4868	0.623846
4864	0.728178
4860	0.592994
4856	0.407123
4852	0.203251
4848	-0.019121
4844	0.021982
4840	0.213718
4836	0.155282
4832	0.058960
4828	0.029325
4824	-0.065898
4820	-0.159955
4816	-0.206327
4812	-0.194668
4808	-0.068616
4804	0.156235
4800	0.353074
4796	0.510168
4792	0.577640
4788	0.450563
4784	0.305223
4780	0.331711
4776	0.344133
4772	0.189709
4768	0.147581
4764	0.296664
4760	0.244927
4756	0.122666
4752	0.224614
4748	0.343060
4744	0.399923
4740	0.288486
4736	0.137424
4732	0.181341
4728	0.382542
4724	0.636768
4720	0.429558
4716	-0.083088
4712	-0.068306
4708	0.349092
4704	0.675010
4700	0.950431
4696	0.920915
4692	0.173926
4688	-0.279474
4684	0.476026
4680	1.078939
4676	0.707769
4672	0.626969
4668	1.067924
4664	0.938725
4660	0.474929
4656	0.841450
4652	1.282954
4648	0.239038
4644	-1.083064
4640	-1.179242
4636	-0.671648
4632	0.140976
4628	0.816869
4624	0.731229
4620	0.487804
4616	0.398349
4612	0.178647
4608	0.242257
4604	0.682520
4600	0.827002
4596	0.363111
4592	-0.028610
4588	0.218510
4584	0.848388
4580	1.171898
4576	0.779294
4572	-0.003933
4568	-0.413465
4564	-0.161361
4560	0.052404
4556	0.101280
4552	0.059795
4548	-0.342297
4544	-0.767540
4540	-0.548386
4536	-0.231909
4532	-0.453877
4528	-0.577902
4524	-0.284361
4520	0.394296
4516	1.046752
4512	1.731014
4508	1.718211
4504	1.902580
4500	1.390600
4496	2.033567
4492	13.3398
4488	24.4859
4484	17.082
4480	4.709815
4476	0.525283
4472	-0.252294
4468	-1.031970
4464	-1.407837
4460	-1.145124
4456	-0.849413
4452	-0.848865
4448	-0.979018
4444	-1.203250
4440	-1.273941
4436	-1.107192
4432	-0.751757
4428	-0.484275
4424	-0.139760
4420	-0.082063
4416	-0.305795
4412	-0.273060
4408	-0.053548
4404	0.112462
4400	0.189709
4396	0.513410
4392	0.708007
4388	0.566816
4384	0.575757
4380	0.731039
4376	0.797438
4372	0.748229
4368	0.663995
4364	0.527167
4360	0.412845
4356	0.400114
4352	0.401973
4348	0.383877
4344	0.278568
4340	0.224518
4336	0.460624
4332	0.801157
4328	0.813627
4324	0.336790
4320	-0.035619
4316	-0.001645
4312	0.016307
4308	0.097036
4304	0.204253
4300	-0.005316
4296	-0.221228
4292	-0.082397
4288	0.176715
4284	0.222158
4280	0.100612
4276	0.051069
4272	0.044584
4268	0.032973
4264	0.038695
4260	0.037884
4256	-0.010323
4252	-0.132417
4248	-0.036931
4244	0.237178
4240	0.289702
4236	0.235915
4232	0.279998
4228	0.301146
4224	0.210213
4220	0.109505
4216	0.157189
4212	0.248456
4208	0.179386
4204	0.092387
4200	0.141882
4196	0.257754
4192	0.361514
4188	0.441813
4184	0.449132
4180	0.299096
4176	0.117373
4172	0.201559
4168	0.392580
4164	0.392270
4160	0.263881
4156	0.075578
4152	-0.055575
4148	-0.037455
4144	0.010538
4140	0.033354
4136	0.054049
4132	0.067853
4128	0.064539
4124	0.102663
4120	0.190114
4116	0.214743
4112	0.169897
4108	0.159382
4104	0.236201
4100	0.262188
4096	0.128531
4092	-0.003647
4088	0.004601
4084	0.109410
4080	0.194382
4076	0.128436
4072	0.030779
4068	0.028228
4064	-0.037550
4060	-0.111842
4056	-0.135350
4052	-0.146150
4048	-0.065159
4044	0.015377
4040	-0.017070
4036	-0.089359
4032	-0.110745
4028	-0.072836
4024	0.050091
4020	0.138497
4016	0.072097
4012	0.034236
4008	0.053286
4004	0.075674
4000	0.206780
3996	0.308084
3992	0.250840
3988	0.168061
3984	0.147795
3980	0.168609
3976	0.128221
3972	0.058674
3968	0.050640
3964	0.054836
3960	0.056409
3956	0.105547
3952	0.180292
3948	0.182008
3944	0.140810
3940	0.173401
3936	0.207567
3932	0.145196
3928	0.066208
3924	0.121688
3920	0.200724
3916	0.123357
3912	0.127863
3908	0.273752
3904	0.286054
3900	0.213980
3896	0.159549
3892	0.068950
3888	-0.025057
3884	-0.032854
3880	0.105667
3876	0.220417
3872	0.148320
3868	0.026440
3864	0.060415
3860	0.190901
3856	0.160932
3852	0.017666
3848	-0.051045
3844	-0.056624
3840	-0.024843
3836	0.046491
3832	0.111603
3828	0.100302
3824	0.044178
3820	-0.009918
3816	-0.006818
3812	0.074505
3808	0.144410
3804	0.258851
3800	0.394940
3796	0.369024
3792	0.215268
3788	0.068259
3784	-0.026822
3780	-0.075364
3776	-0.050330
3772	0.009131
3768	0.019764
3764	0.021743
3760	0.046396
3756	0.058007
3752	0.048780
3748	0.046682
3744	0.068664
3740	0.063252
3736	-0.017118
3732	-0.085425
3728	-0.001978
3724	0.161957
3720	0.187730
3716	0.086116
3712	0.017499
3708	0.005269
3704	-0.003433
3700	0.041699
3696	0.149965
3692	0.162124
3688	0.038671
3684	-0.085568
3680	-0.080513
3676	0.022840
3672	0.109219
3668	0.155591
3664	0.152420
3660	0.100827
3656	0.015997
3652	-0.045299
3648	-0.014448
3644	0.054788
3640	0.112295
3636	0.158524
3632	0.130152
3628	0.085043
3624	0.136208
3620	0.176048
3616	0.112295
3612	0.018429
3608	0.003099
3604	0.049638
3600	0.016212
3596	-0.030374
3592	-0.030040
3588	-0.046944
3584	-0.026297
3580	0.064158
3576	0.178647
3572	0.224542
3568	0.166392
3564	0.064039
3560	-0.029468
3556	-0.013017
3552	0.091648
3548	0.097179
3544	0.049972
3540	0.097680
3536	0.213742
3532	0.281357
3528	0.211095
3524	0.116944
3520	0.088071
3516	0.077342
3512	0.073528
3508	0.064229
3504	0.113940
3500	0.197529
3496	0.202155
3492	0.144934
3488	0.101947
3484	0.090241
3480	0.057244
3476	0.077772
3472	0.128054
3468	0.047016
3464	-0.002861
3460	0.065183
3456	0.018358
3452	-0.098323
3448	-0.145196
3444	-0.155210
3440	-0.103402
3436	-0.012397
3432	0.038242
3428	0.050997
3424	0.055360
3420	0.061106
3416	0.053954
3412	0.070738
3408	0.175595
3404	0.290250
3400	0.256037
3396	0.121259
3392	0.052595
3388	0.036907
3384	0.057768
3380	0.105381
3376	0.101709
3372	0.072360
3368	0.096035
3364	0.121116
3360	0.082516
3356	0.022077
3352	0.002121
3348	0.032806
3344	0.065445
3340	0.088977
3336	0.106191
3332	0.121045
3328	0.114607
3324	0.096607
3320	0.082468
3316	0.041699
3312	0.018095
3308	-0.014829
3304	-0.062108
3300	-0.030326
3296	0.046658
3292	0.056505
3288	0.015807
3284	0.036954
3280	0.109767
3276	0.112295
3272	0.069475
3268	0.092411
3264	0.161623
3260	0.201797
3256	0.109744
3252	-0.027346
3248	-0.017857
3244	0.046229
3240	0.026988
3236	-0.032138
3232	-0.057625
3228	-0.119733
3224	-0.175976
3220	-0.085616
3216	0.054311
3212	0.109148
3208	0.099325
3204	0.131630
3200	0.187706
3196	0.167822
3192	0.096988
3188	0.049114
3184	0.060629
3180	0.090432
3176	0.090289
3172	0.112843
3168	0.111722
3164	0.041675
3160	0.037598
3156	0.080776
3152	0.103425
3148	0.159263
3144	0.188422
3140	0.126791
3136	0.113153
3132	0.185823
3128	0.175809
3124	0.068068
3120	-0.008368
3116	0.010919
3112	0.054216
3108	0.082516
3104	0.127410
3100	0.167751
3096	0.172281
3092	0.110435
3088	0.038409
3084	-0.009298
3080	-0.029730
3076	0.020098
3072	0.097274
3068	0.150585
3064	0.123119
3060	-0.001072
3056	-0.111174
3052	-0.144672
3048	-0.077581
3044	0.055694
3040	0.126886
3036	0.104570
3032	0.060415
3028	0.047421
3024	0.071501
3020	0.142693
3016	0.184679
3012	0.126075
3008	0.075745
3004	0.020170
3000	-0.041794
2996	-0.013113
2992	-0.018072
2988	-0.037932
2984	0.045251
2980	0.101041
2976	0.109124
2972	0.118851
2968	0.064373
2964	-0.028657
2960	-0.035095
2956	0.029754
2952	0.078248
2948	0.104689
2944	0.088334
2940	0.026082
2936	0.000047
2932	-0.011229
2928	-0.062775
2924	-0.080895
2920	-0.060915
2916	-0.031709
2912	-0.003051
2908	-0.010848
2904	0.004148
2900	0.074982
2896	0.122523
2892	0.126719
2888	0.081229
2884	0.036954
2880	0.081181
2876	0.148701
2872	0.171136
2868	0.183677
2864	0.192379
2860	0.152349
2856	0.072574
2852	-0.002145
2848	-0.032234
2844	-0.005245
2840	-0.013065
2836	-0.077033
2832	-0.081634
2828	-0.035429
2824	0.000739
2820	0.049638
2816	0.118160
2812	0.167393
2808	0.157952
2804	0.103592
2800	0.072956
2796	0.105094
2792	0.110197
2788	0.042390
2784	0.013351
2780	0.051498
2776	0.100302
2772	0.119352
2768	0.097060
2764	0.052571
2760	0.012016
2756	0.016164
2752	0.039267
2748	0.058078
2744	0.110292
2740	0.168347
2736	0.180077
2732	0.178003
2728	0.190472
2724	0.170683
2720	0.137996
2716	0.131034
2712	0.093078
2708	0.045824
2704	0.021123
2700	-0.041151
2696	-0.112056
2692	-0.112509
2688	-0.020742
2684	0.065517
2680	0.067901
2676	0.058722
2672	0.078105
2668	0.100660
2664	0.092887
2660	0.048851
2656	0.016522
2652	0.028514
2648	0.047421
2644	0.052595
2640	0.052523
2636	0.017619
2632	-0.004792
2628	0.029277
2624	0.063872
2620	0.057864
2616	0.018858
2612	-0.012993
2608	-0.009393
2604	0.046467
2600	0.105834
2596	0.069069
2592	-0.001811
2588	-0.014662
2584	0.012922
2580	0.050449
2576	0.042748
2572	0.024652
2568	0.020956
2564	-0.022339
2560	-0.022125
2556	0.045013
2552	0.048637
2548	0.002026
2544	0.024175
2540	0.092244
2536	0.105047
2532	0.029563
2528	-0.071072
2524	-0.098609
2520	-0.051808
2516	0.043010
2512	0.126099
2508	0.079178
2504	-0.021982
2500	0.003194
2496	0.085949
2492	0.059390
2488	-0.035738
2484	-0.055313
2480	-0.005984
2476	0.003981
2472	-0.026607
2468	-0.049042
2464	-0.083231
2460	-0.094175
2456	-0.007748
2452	0.050544
2448	0.030136
2444	0.041103
2440	0.084710
2436	0.086331
2432	0.035667
2428	0.038957
2424	0.074720
2420	0.068187
2416	0.065231
2412	0.062346
2408	0.047755
2404	0.049781
2400	0.060439
2396	0.047945
2392	0.060963
2388	0.099205
2384	0.087428
2380	0.070166
2376	0.066518
2372	0.028157
2368	0.005531
2364	0.033092
2360	0.047326
2356	0.049424
2352	0.078153
2348	0.128102
2344	0.164842
2340	0.127530
2336	0.058722
2332	0.074744
2328	0.147342
2324	0.179004
2320	0.210571
2316	0.224828
2312	0.171542
2308	0.156784
2304	0.205564
2300	0.288724
2296	0.376892
2292	0.404930
2288	0.409722
2284	0.501871
2280	0.668072
2276	0.726866
2272	0.696039
2268	0.767517
2264	0.890779
2260	0.984668
2256	1.075363
2252	1.151728
2248	1.253962
2244	1.411318
2240	1.592373
2236	1.759624
2232	1.929283
2228	2.122879
2224	2.308940
2220	2.512145
2216	2.720236
2212	2.908134
2208	3.099441
2204	3.308796
2200	3.588461
2196	3.918385
2192	4.242014
2188	4.537820
2184	4.788327
2180	5.057740
2176	5.419993
2172	5.834460
2168	6.249833
2164	6.644821
2160	7.022690
2156	7.435393
2152	7.876849
2148	8.281874
2144	8.649969
2140	9.069442
2136	9.539389
2132	10.0134
2128	10.5055
2124	10.9724
2120	11.4293
2116	11.9802
2112	12.5708
2108	13.0636
2104	13.5115
2100	14.003
2096	14.4935
2092	14.9918
2088	15.4911
2084	15.9243
2080	16.3532
2076	16.8691
2072	17.4105
2068	17.8217
2064	18.2108
2060	18.7344
2056	19.1954
2052	19.5701
2048	20.0197
2044	20.4659
2040	20.8393
2036	21.1934
2032	21.5578
2028	21.9442
2024	22.3625
2020	22.7695
2016	23.1511
2012	23.5351
2008	23.8951
2004	24.2351
2000	24.5419
1996	24.7976
1992	25.0978
1988	25.4291
1984	25.6901
1980	25.9203
1976	26.1609
1972	26.4255
1968	26.7182
1964	26.9764
1960	27.2119
1956	27.4686
1952	27.7468
1948	27.9964
1944	28.1814
1940	28.3589
1936	28.5544
1932	28.7707
1928	28.9714
1924	29.111
1920	29.2171
1916	29.3464
1912	29.522
1908	29.7292
1904	29.9819
1900	30.1742
1896	30.2469
1892	30.3166
1888	30.4355
1884	30.5341
1880	30.5782
1876	30.6626
1872	30.8243
1868	31.0059
1864	31.1602
1860	31.271
1856	31.3451
1852	31.3769
1848	31.3791
1844	31.4122
1840	31.4849
1836	31.557
1832	31.6367
1828	31.7425
1824	31.8787
1820	31.9901
1816	32.0196
1812	32.0243
1808	32.0888
1804	32.1973
1800	32.241
1796	32.2365
1792	32.2402
1788	32.2193
1784	32.2315
1780	32.2568
1776	32.2567
1772	32.3391
1768	32.4693
1764	32.5488
1760	32.575
1756	32.585
1752	32.6252
1748	32.6561
1744	32.6163
1740	32.5552
1736	32.5518
1732	32.5836
1728	32.6412
1724	32.6908
1720	32.7232
1716	32.8522
1712	32.979
1708	32.9565
1704	32.8624
1700	32.8001
1696	32.7838
1692	32.7504
1688	32.7225
1684	32.7689
1680	32.8077
1676	32.8162
1672	32.8695
1668	32.928
1664	32.9346
1660	32.9335
1656	32.9667
1652	32.9793
1648	32.9183
1644	32.811
1640	32.7685
1636	32.8247
1632	32.8726
1628	32.893
1624	32.9222
1620	32.9157
1616	32.8456
1612	32.7965
1608	32.7993
1604	32.8012
1600	32.8103
1596	32.8103
1592	32.7938
1588	32.8107
1584	32.8577
1580	32.8594
1576	32.8754
1572	32.9799
1568	33.0457
1564	33.0279
1560	32.9605
1556	32.8489
1552	32.7924
1548	32.7939
1544	32.7351
1540	32.6926
1536	32.737
1532	32.7568
1528	32.7391
1524	32.7417
1520	32.749
1516	32.7815
1512	32.8477
1508	32.8915
1504	32.863
1500	32.715
1496	32.5319
1492	32.4459
1488	32.4374
1484	32.4903
1480	32.5692
1476	32.6257
1472	32.6648
1468	32.6502
1464	32.5862
1460	32.5063
1456	32.4502
1452	32.5187
1448	32.59
1444	32.4528
1440	32.2584
1436	32.2031
1432	32.2366
1428	32.3066
1424	32.3934
1420	32.4605
1416	32.5159
1412	32.5475
1408	32.4989
1404	32.3748
1400	32.2954
1396	32.3059
1392	32.3
1388	32.2097
1384	32.1283
1380	32.1737
1376	32.2977
1372	32.4306
1368	32.5182
1364	32.5092
1360	32.4597
1356	32.4075
1352	32.3498
1348	32.2781
1344	32.1695
1340	32.0736
1336	32.0197
1332	31.9588
1328	31.907
1324	31.9138
1320	31.9864
1316	32.0741
1312	32.1251
1308	32.1369
1304	32.101
1300	32.0516
1296	31.9566
1292	31.7946
1288	31.6822
1284	31.6617
1280	31.7079
1276	31.7629
1272	31.8213
1268	31.8901
1264	31.9173
1260	31.9364
1256	31.9535
1252	31.8938
1248	31.7872
1244	31.7381
1240	31.6849
1236	31.5527
1232	31.4663
1228	31.5127
1224	31.6126
1220	31.6778
1216	31.6944
1212	31.7313
1208	31.7484
1204	31.6445
1200	31.5203
1196	31.4502
1192	31.3509
1188	31.2772
1184	31.3098
1180	31.3294
1176	31.2921
1172	31.3479
1168	31.48
1164	31.5627
1160	31.5649
1156	31.4614
1152	31.2785
1148	31.1277
1144	31.0756
1140	31.033
1136	30.9428
1132	30.8454
1128	30.7906
1124	30.8587
1120	31.0664
1116	31.2693
1112	31.3134
1108	31.2376
1104	31.1404
1100	31.0596
1096	30.9563
1092	30.8011
1088	30.6556
1084	30.5748
1080	30.5657
1076	30.6503
1072	30.763
1068	30.8114
1064	30.8398
1060	30.8552
1056	30.7501
1052	30.5007
1048	30.3233
1044	30.2832
1040	30.2431
1036	30.168
1032	30.0835
1028	30.0753
1024	30.22
1020	30.4274
1016	30.4848
1012	30.4249
1008	30.3568
1004	30.2643
1000	30.1815
996	 30.1205
992	 30.0415
988	 29.9336
984	 29.7649
980	 29.5679
976	 29.533
972	 29.6361
968	 29.6818
964	 29.7219
960	 29.8333
956	 29.896
952	 29.837
948	 29.7031
944	 29.5107
940	 29.2755
936	 29.0721
932	 28.9803
928	 28.9576
924	 28.9428
920	 28.9826
916	 29.0569
912	 29.1305
908	 29.1831
904	 29.1878
900	 29.1345
896	 28.9162
892	 28.6837
888	 28.6364
884	 28.5515
880	 28.3503
876	 28.2275
872	 28.2164
868	 28.2603
864	 28.3395
860	 28.4211
856	 28.5281
852	 28.6047
848	 28.5332
844	 28.3743
840	 28.2196
836	 28.0344
832	 27.7723
828	 27.5199
824	 27.2907
820	 27.1727
816	 27.2954
812	 27.45
808	 27.5459
804	 27.5965
800	 27.5731
796	 27.5485
792	 27.5147
788	 27.3757
784	 27.0689
780	 26.827
776	 26.7751
772	 26.6527
768	 26.552
764	 26.6427
760	 26.7438
756	 26.7915
752	 26.8508
748	 26.8563
744	 26.8658
740	 26.941
736	 26.779
732	 26.3162
728	 25.9937
724	 25.9101
720	 25.7931
716	 25.6619
712	 25.6045
708	 25.5746
704	 25.4842
700	 25.2587
696	 25.0699
692	 25.0924
688	 25.1279
684	 24.9915
680	 24.7998
676	 24.6287
672	 24.5884
668	 24.729
664	 24.8317
660	 24.7063
656	 24.4902
652	 24.482
648	 24.5106
644	 24.2508
640	 23.9322
636	 23.8694
632	 23.691
628	 23.272
624	 23.1637
620	 23.2113
616	 23.1153
612	 23.1699
608	 23.4194
604	 23.4882
600	 23.304
596	 23.2252
592	 23.1828
588	 22.901
584	 22.5588
580	 22.4053
576	 22.2745
572	 22.0243
568	 21.7961
564	 21.6027
560	 21.5743
556	 21.8513
552	 22.1903
548	 22.3287
544	 22.0545
540	 21.4859
536	 21.0853
532	 20.9868
528	 21.0379
524	 20.862
520	 20.3503
516	 20.0323
512	 20.0435
508	 20.262
504	 20.5663
500	 20.5842
496	 20.2705
492	 20.1794
488	 20.3053
484	 19.9742
480	 19.4999
476	 19.2198
472	 18.8802
468	 18.7639
464	 19.0476
460	 18.976
456	 18.4912
452	 18.6064
448	 18.7597
444	 18.1669
440	 17.5288
436	 17.5158
432	 17.6259
428	 17.0001
424	 16.7471
420	 17.5592
416	 17.0884
412	 14.3897
408	 14.8775
404	 19.159
400	 17.1382
396	 9.955239
392	 9.884667
388	 17.7915
384	 26.1787
380	 32.4334
376	 30.1073
372	 24.3932
370	 20.2991