File: Bakgrunnsmateriale/MATLAB/FTIR/ftir_data/LPE453/Mapping_121/LPE453_t48_cm-1.asc
PE IR       SPECTRUM    SPECTRUM    ASCII       PEDS        1.60
  -1
LP6959~1.ASC
17/05/16
18:20:06.00
17/05/16
18:20:06.00
tln
$LPE453_t0048$<tbV0>[5.2,-2.6,8.0,0.0,27,1,0]
370
64

2002,4.07
MIRTGS : RIGHTBACK : INTERNAL 2
MIR : ON : INTERNAL 2
OPTKBR

0.200000
8
8.000000
FILLER
RATIO
SPECTRUM
UNLOCKED 256

DOUBLE
64
COMBINED
1
0
0

1.000000
RATIO

1
0
TRUE
51149
0
LEFT NOT FITTED RIGHT NOT FITTED 0
NONE
NONE
15600
12
4.427000
51148
TRUE
1 0 8 72 0 0 0 0

15798

#HDR
-1
-1
#GR
CM-1
%T
2.38419e-05
0.0
5000
-1.000000
4631
8
24.9333
-18.3967
#DATA
5000	0.189781
4996	0.322580
4992	0.107073
4988	-0.217485
4984	-0.232338
4980	-0.116801
4976	-0.046706
4972	0.119018
4968	0.173258
4964	0.022292
4960	-0.154972
4956	-0.265932
4952	-0.114011
4948	0.152397
4944	0.354123
4940	0.433397
4936	0.228333
4932	0.134253
4928	0.438570
4924	0.499868
4920	0.209593
4916	0.083422
4912	-0.024628
4908	-0.216746
4904	-0.275921
4900	-0.144577
4896	-0.040173
4892	-0.262713
4888	-0.502824
4884	-0.234103
4880	0.324320
4876	0.594234
4872	0.458431
4868	0.281238
4864	0.275826
4860	0.242829
4856	0.193715
4852	0.181913
4848	0.092482
4844	0.217342
4840	0.531315
4836	0.485706
4832	0.275063
4828	0.175380
4824	0.108790
4820	0.111985
4816	0.044512
4812	-0.121545
4808	-0.077295
4804	0.199389
4800	0.268816
4796	0.079154
4792	-0.063467
4788	-0.073337
4784	0.082445
4780	0.237989
4776	0.261926
4772	0.208950
4768	0.193834
4764	0.255632
4760	0.257468
4756	0.225257
4752	0.233364
4748	0.180649
4744	-0.002765
4740	-0.134348
4736	-0.202727
4732	-0.265026
4728	-0.240921
4724	-0.118803
4720	0.108885
4716	0.358247
4712	0.447106
4708	0.463199
4704	0.505757
4700	0.410294
4696	0.184822
4692	0.113248
4688	0.253009
4684	0.304841
4680	0.210094
4676	0.170516
4672	0.159716
4668	0.222945
4664	0.364017
4660	0.386333
4656	0.364542
4652	0.262331
4648	0.155377
4644	0.247478
4640	0.300621
4636	0.180244
4632	0.011348
4628	-0.109863
4624	-0.067687
4620	0.258636
4616	0.407004
4612	0.092601
4608	-0.202441
4604	-0.352883
4600	-0.366592
4596	-0.304031
4592	-0.433373
4588	-0.540995
4584	-0.468873
4580	-0.444483
4576	-0.534415
4572	-0.688743
4568	-0.560069
4564	-0.353145
4560	-0.564742
4556	-0.767302
4552	-0.601935
4548	-0.778007
4544	-0.939846
4540	-0.610280
4536	-0.393795
4532	-0.814890
4528	-1.753759
4524	-1.335263
4520	6.180453
4516	17.8866
4512	16.6694
4508	6.767940
4504	2.090549
4500	1.701521
4496	0.367546
4492	-0.403475
4488	-0.506114
4484	0.276589
4480	0.624966
4476	0.113797
4472	-0.181722
4468	-0.187158
4464	-0.340485
4460	-0.424385
4456	-0.426888
4452	-0.726819
4448	-0.922727
4444	-0.623869
4440	-0.277805
4436	-0.150394
4432	-0.227093
4428	-0.171661
4424	0.147223
4420	0.155997
4416	-0.129389
4412	-0.151538
4408	-0.034236
4404	-0.094795
4400	-0.245189
4396	-0.279188
4392	0.022864
4388	0.444197
4384	0.451302
4380	0.349831
4376	0.369143
4372	0.114488
4368	-0.191926
4364	-0.164198
4360	-0.033140
4356	0.077581
4352	0.240302
4348	0.326251
4344	0.250029
4340	0.167942
4336	0.188255
4332	0.153589
4328	0.099992
4324	0.159716
4320	0.202298
4316	0.142097
4312	-0.042700
4308	-0.174880
4304	-0.084614
4300	0.004076
4296	0.077152
4292	0.198721
4288	0.227713
4284	0.214362
4280	0.254178
4276	0.218534
4272	0.100326
4268	0.008082
4264	-0.008511
4260	-0.003552
4256	0.025939
4252	0.176620
4248	0.281119
4244	0.231146
4240	0.255656
4236	0.377678
4232	0.282859
4228	0.144529
4224	0.212669
4220	0.235271
4216	0.184512
4212	0.147438
4208	0.087404
4204	0.097417
4200	0.177836
4196	0.261282
4192	0.333666
4188	0.314044
4184	0.183749
4180	-0.128364
4176	-0.326275
4172	-0.124096
4168	0.111079
4164	0.265693
4160	0.351810
4156	0.323128
4152	0.226211
4148	0.090599
4144	0.114679
4140	0.237035
4136	0.220251
4132	0.103163
4128	0.037240
4124	0.034332
4120	0.069475
4116	0.093388
4112	0.046968
4108	-0.048232
4104	-0.121617
4100	-0.097107
4096	-0.051403
4092	-0.013875
4088	0.074625
4084	0.166916
4080	0.155925
4076	0.067353
4072	0.135183
4068	0.311350
4064	0.315284
4060	0.217938
4056	0.184321
4052	0.124931
4048	0.025701
4044	0.052237
4040	0.166368
4036	0.110530
4032	-0.030755
4028	-0.009608
4024	0.051212
4020	0.070142
4016	0.099873
4012	0.064468
4008	0.013279
4004	0.030231
4000	0.061845
3996	0.073671
3992	0.058174
3988	0.012421
3984	-0.045895
3980	-0.060701
3976	0.031709
3972	0.171113
3968	0.211572
3964	0.150632
3960	0.105762
3956	0.045776
3952	-0.004196
3948	0.022053
3944	0.086450
3940	0.190758
3936	0.199604
3932	0.061726
3928	-0.043630
3924	-0.059366
3920	0.003933
3916	0.141763
3912	0.180768
3908	0.063323
3904	0.008702
3900	0.127816
3896	0.262618
3892	0.263047
3888	0.255846
3884	0.260090
3880	0.132131
3876	0.027871
3872	0.033760
3868	0.015044
3864	-0.055694
3860	-0.107860
3856	-0.049161
3852	0.078606
3848	0.104069
3844	0.022196
3840	0.032424
3836	0.124788
3832	0.085592
3828	-0.000786
3824	0.013899
3820	-0.027608
3816	-0.094366
3812	0.019884
3808	0.093436
3804	0.041580
3800	0.126814
3796	0.193786
3792	0.048112
3788	-0.036168
3784	0.065946
3780	0.134062
3776	0.090932
3772	0.039100
3768	0.030636
3764	0.026392
3760	-0.039958
3756	-0.069952
3752	0.033688
3748	0.098490
3744	0.041937
3740	0.001502
3736	0.014591
3732	0.023508
3728	0.021052
3724	0.014662
3720	-0.017571
3716	-0.045132
3712	-0.065684
3708	-0.062894
3704	-0.016379
3700	-0.021338
3696	-0.034546
3692	0.037050
3688	0.105047
3684	0.113463
3680	0.099110
3676	0.086450
3672	0.117230
3668	0.116086
3664	0.035762
3660	-0.031995
3656	-0.013971
3652	0.063681
3648	0.118303
3644	0.154376
3640	0.179910
3636	0.158238
3632	0.126218
3628	0.132846
3624	0.122451
3620	0.082445
3616	0.055408
3612	0.009417
3608	-0.025391
3604	0.050258
3600	0.159597
3596	0.150012
3592	0.059127
3588	0.066947
3584	0.140023
3580	0.107789
3576	0.041508
3572	0.037527
3568	0.015854
3564	-0.048184
3560	-0.010514
3556	0.125050
3552	0.180125
3548	0.178551
3544	0.158476
3540	0.066590
3536	-0.009655
3532	-0.000715
3528	0.035786
3524	0.050854
3520	0.097489
3516	0.139284
3512	0.096440
3508	-0.004649
3504	-0.099134
3500	-0.106739
3496	-0.049066
3492	0.011754
3488	0.046205
3484	0.044512
3480	0.065279
3476	0.125336
3472	0.120639
3468	0.033450
3464	0.067496
3460	0.173640
3456	0.147557
3452	0.099420
3448	0.136756
3444	0.136113
3440	0.013828
3436	-0.048947
3432	0.005650
3428	0.045394
3424	0.027012
3420	-0.014209
3416	-0.041985
3412	-0.059795
3408	-0.023126
3404	0.045108
3400	0.098347
3396	0.134825
3392	0.112485
3388	0.063920
3384	0.045728
3380	0.024604
3376	-0.071978
3372	-0.123643
3368	-0.079226
3364	-0.079607
3360	-0.036382
3356	0.034737
3352	0.008273
3348	-0.008153
3344	0.040912
3340	0.081396
3336	0.052237
3332	-0.031280
3328	-0.058960
3324	0.033378
3320	0.092482
3316	0.049090
3312	0.057387
3308	0.071215
3304	0.012946
3300	0.029134
3296	0.089836
3292	0.072526
3288	0.050592
3284	0.038862
3280	0.006270
3276	-0.006771
3272	0.002813
3268	0.057411
3264	0.103282
3260	0.039625
3256	-0.052499
3252	-0.033807
3248	0.042104
3244	0.036358
3240	-0.000572
3236	0.011014
3232	0.068664
3228	0.097107
3224	0.044941
3220	-0.042533
3216	-0.088357
3212	-0.044798
3208	0.007009
3204	-0.027418
3200	-0.088953
3196	-0.042128
3192	0.044012
3188	0.034737
3184	-0.042104
3180	-0.083899
3176	0.019240
3172	0.176954
3168	0.189375
3164	0.118637
3160	0.101780
3156	0.082778
3152	0.020670
3148	-0.024771
3144	-0.024652
3140	0.074982
3136	0.186085
3132	0.177526
3128	0.147747
3124	0.182366
3120	0.149893
3116	-0.027084
3112	-0.085783
3108	0.017023
3104	0.026035
3100	-0.006294
3096	0.056195
3092	0.106883
3088	0.079536
3084	0.042271
3080	-0.011968
3076	-0.043559
3072	-0.018095
3068	-0.010538
3064	0.014877
3060	0.033235
3056	-0.025677
3052	-0.092315
3048	-0.103282
3044	-0.063109
3040	-0.022387
3036	0.028514
3032	0.061964
3028	0.029277
3024	0.004386
3020	0.006675
3016	-0.009131
3012	-0.017523
3008	0.005269
3004	0.038266
3000	0.029873
2996	-0.007987
2992	-0.036048
2988	-0.023818
2984	-0.008344
2980	-0.031518
2976	-0.018072
2972	0.023031
2968	0.032973
2964	0.083637
2960	0.140571
2956	0.115966
2952	0.053191
2948	-0.008821
2944	-0.050282
2940	-0.060796
2936	-0.045251
2932	-0.032043
2928	-0.039124
2924	-0.032806
2920	-0.030469
2916	-0.012493
2912	0.049853
2908	0.040316
2904	-0.007247
2900	0.032711
2896	0.064349
2892	0.014710
2888	-0.016331
2884	0.021123
2880	0.068283
2876	0.118160
2872	0.157189
2868	0.139284
2864	0.137639
2860	0.180649
2856	0.147604
2852	0.042819
2848	-0.034832
2844	-0.025844
2840	0.089859
2836	0.162029
2832	0.065445
2828	-0.043129
2824	-0.055718
2820	-0.044989
2816	-0.038981
2812	-0.037693
2808	-0.033140
2804	0.004744
2800	0.038504
2796	0.012063
2792	-0.009226
2788	0.009846
2784	0.025129
2780	0.047779
2776	0.064420
2772	0.053668
2768	0.026702
2764	-0.017452
2760	-0.055289
2756	-0.056982
2752	-0.004076
2748	0.057196
2744	0.082397
2740	0.106978
2736	0.102400
2732	0.066065
2728	0.058889
2724	0.062155
2720	0.045347
2716	0.036263
2712	0.043892
2708	0.040388
2704	0.033235
2700	0.004529
2696	-0.035095
2692	-0.011372
2688	0.055503
2684	0.081968
2680	0.044441
2676	0.000452
2672	-0.006008
2668	0.002551
2664	0.006556
2660	-0.005888
2656	-0.036478
2652	-0.078248
2648	-0.099325
2644	-0.053071
2640	0.026893
2636	0.100493
2632	0.123786
2628	0.060510
2624	-0.013327
2620	-0.030326
2616	0.002503
2612	0.055074
2608	0.095558
2604	0.111317
2600	0.108623
2596	0.050544
2592	-0.055575
2588	-0.105357
2584	-0.082635
2580	-0.036931
2576	0.041532
2572	0.108027
2568	0.118112
2564	0.092697
2560	0.071167
2556	0.032973
2552	-0.009775
2548	0.023698
2544	0.100111
2540	0.069618
2536	-0.044369
2532	-0.057077
2528	0.002861
2524	-0.005960
2520	-0.053000
2516	-0.031638
2512	0.012230
2508	0.035619
2504	0.068545
2500	0.127053
2496	0.193738
2492	0.135064
2488	0.003147
2484	-0.027799
2480	0.012350
2476	0.049114
2472	0.061631
2468	0.062203
2464	0.068783
2460	0.061655
2456	0.009727
2452	-0.060915
2448	-0.069189
2444	-0.045084
2440	-0.003647
2436	0.078821
2432	0.095438
2428	0.074148
2424	0.149679
2420	0.169634
2416	0.038290
2412	-0.044989
2408	-0.059580
2404	-0.039505
2400	0.034999
2396	0.052332
2392	0.028491
2388	0.033593
2384	-0.024914
2380	-0.113463
2376	-0.085616
2372	-0.010633
2368	0.019717
2364	0.049400
2360	0.080513
2356	0.075769
2352	0.036048
2348	0.003314
2344	0.033760
2340	0.111794
2336	0.128793
2332	0.077414
2328	0.046324
2324	0.058460
2320	0.074410
2316	0.065374
2312	0.034832
2308	-0.009775
2304	-0.021862
2300	0.030946
2296	0.088548
2292	0.059366
2288	-0.004649
2284	0.001978
2280	0.035834
2276	0.060772
2272	0.091457
2268	0.093674
2264	0.152134
2260	0.298953
2256	0.337004
2252	0.242638
2248	0.187015
2244	0.212574
2240	0.230336
2236	0.239443
2232	0.312542
2228	0.401902
2224	0.444054
2220	0.494861
2216	0.567007
2212	0.630688
2208	0.723123
2204	0.831985
2200	0.893330
2196	0.944328
2192	1.048660
2188	1.164150
2184	1.284575
2180	1.440286
2176	1.618838
2172	1.790952
2168	1.968431
2164	2.167797
2160	2.307200
2156	2.401208
2152	2.539157
2148	2.720761
2144	2.976822
2140	3.305435
2136	3.583741
2132	3.795027
2128	4.058504
2124	4.369640
2120	4.675030
2116	4.998040
2112	5.297350
2108	5.552577
2104	5.831599
2100	6.167817
2096	6.512784
2092	6.814479
2088	7.068228
2084	7.352709
2080	7.771110
2076	8.164262
2072	8.479785
2068	8.950304
2064	9.479212
2060	9.876203
2056	10.2083
2052	10.5132
2048	10.8129
2044	11.1365
2040	11.4889
2036	11.8635
2032	12.2166
2028	12.5557
2024	12.8865
2020	13.1989
2016	13.5401
2012	13.9067
2008	14.2048
2004	14.4542
2000	14.7745
1996	15.12
1992	15.3817
1988	15.6099
1984	15.881
1980	16.1472
1976	16.4068
1972	16.7527
1968	17.1096
1964	17.3434
1960	17.5323
1956	17.7702
1952	18.0055
1948	18.2014
1944	18.4397
1940	18.7391
1936	18.9784
1932	19.1359
1928	19.2818
1924	19.4292
1920	19.5775
1916	19.76
1912	19.9852
1908	20.191
1904	20.3292
1900	20.4793
1896	20.6728
1892	20.8166
1888	20.9239
1884	21.078
1880	21.2445
1876	21.3663
1872	21.4739
1868	21.5678
1864	21.6401
1860	21.7168
1856	21.8342
1852	21.9894
1848	22.1121
1844	22.194
1840	22.2673
1836	22.3765
1832	22.5073
1828	22.5707
1824	22.6038
1820	22.6989
1816	22.8371
1812	22.932
1808	22.9524
1804	22.9599
1800	22.9973
1796	23.0581
1792	23.1336
1788	23.1984
1784	23.251
1780	23.2995
1776	23.3541
1772	23.4254
1768	23.4458
1764	23.4025
1760	23.4011
1756	23.4627
1752	23.4911
1748	23.5157
1744	23.5802
1740	23.5604
1736	23.5269
1732	23.6161
1728	23.6763
1724	23.6787
1720	23.7064
1716	23.7088
1712	23.7424
1708	23.8379
1704	23.8836
1700	23.8702
1696	23.8765
1692	23.9077
1688	23.8892
1684	23.8355
1680	23.8425
1676	23.904
1672	23.9119
1668	23.8775
1664	23.8866
1660	23.8682
1656	23.8527
1652	23.9279
1648	23.9557
1644	23.9207
1640	23.9414
1636	23.9654
1632	23.9562
1628	23.9571
1624	23.9395
1620	23.9086
1616	23.9029
1612	23.9168
1608	23.9159
1604	23.8564
1600	23.8279
1596	23.8904
1592	23.9368
1588	23.9621
1584	23.9969
1580	24.0196
1576	24.0576
1572	24.0462
1568	23.9262
1564	23.8338
1560	23.8494
1556	23.903
1552	23.9237
1548	23.8902
1544	23.8421
1540	23.7866
1536	23.7468
1532	23.7649
1528	23.7833
1524	23.7562
1520	23.7183
1516	23.7055
1512	23.7277
1508	23.7462
1504	23.7223
1500	23.679
1496	23.6509
1492	23.6465
1488	23.6319
1484	23.6135
1480	23.5969
1476	23.5724
1472	23.6056
1468	23.6913
1464	23.6893
1460	23.5954
1456	23.5776
1452	23.5659
1448	23.4575
1444	23.4603
1440	23.5245
1436	23.4576
1432	23.393
1428	23.437
1424	23.5185
1420	23.5386
1416	23.4571
1412	23.3848
1408	23.408
1404	23.4572
1400	23.4369
1396	23.356
1392	23.3111
1388	23.3058
1384	23.3088
1380	23.328
1376	23.3002
1372	23.2537
1368	23.2463
1364	23.2074
1360	23.1518
1356	23.1784
1352	23.2333
1348	23.2013
1344	23.1135
1340	23.0572
1336	23.011
1332	22.9569
1328	22.9826
1324	23.0551
1320	23.025
1316	22.9716
1312	23.0234
1308	23.0685
1304	23.0643
1300	23.0609
1296	23.0101
1292	22.947
1288	22.9494
1284	22.9803
1280	22.9691
1276	22.925
1272	22.916
1268	22.925
1264	22.9011
1260	22.8823
1256	22.8801
1252	22.8448
1248	22.7679
1244	22.6528
1240	22.5407
1236	22.5454
1232	22.5966
1228	22.5624
1224	22.5304
1220	22.501
1216	22.4644
1212	22.4906
1208	22.5394
1204	22.5635
1200	22.54
1196	22.4682
1192	22.3901
1188	22.3593
1184	22.3446
1180	22.3304
1176	22.3224
1172	22.2671
1168	22.205
1164	22.1575
1160	22.073
1156	22.0123
1152	22.0536
1148	22.153
1144	22.2327
1140	22.2196
1136	22.0907
1132	21.9656
1128	21.9223
1124	21.8973
1120	21.8392
1116	21.8292
1112	21.9513
1108	22.0529
1104	22.0223
1100	21.9725
1096	21.9869
1092	21.9963
1088	21.876
1084	21.712
1080	21.6084
1076	21.5055
1072	21.4429
1068	21.4463
1064	21.4786
1060	21.4921
1056	21.3425
1052	21.1211
1048	21.1402
1044	21.2477
1040	21.2129
1036	21.1581
1032	21.131
1028	21.1847
1024	21.231
1020	21.1056
1016	21.0261
1012	21.096
1008	21.0895
1004	21.0077
1000	20.984
996	 20.9542
992	 20.8456
988	 20.7528
984	 20.7151
980	 20.6441
976	 20.5248
972	 20.4363
968	 20.3707
964	 20.2569
960	 20.2029
956	 20.2829
952	 20.337
948	 20.2861
944	 20.217
940	 20.1411
936	 20.0173
932	 19.8933
928	 19.7709
924	 19.7482
920	 19.8813
916	 19.9209
912	 19.8146
908	 19.7152
904	 19.5951
900	 19.4281
896	 19.3297
892	 19.3627
888	 19.4154
884	 19.3464
880	 19.2088
876	 19.1637
872	 19.1316
868	 19.0188
864	 18.9691
860	 18.967
856	 18.9188
852	 18.8547
848	 18.7716
844	 18.6811
840	 18.6653
836	 18.6442
832	 18.5174
828	 18.3408
824	 18.1214
820	 17.9596
816	 17.9264
812	 17.9615
808	 17.9448
804	 17.8534
800	 17.8751
796	 17.9613
792	 17.9425
788	 17.7985
784	 17.5038
780	 17.1865
776	 17.0731
772	 17.2127
768	 17.3834
764	 17.2821
760	 17.0814
756	 17.0416
752	 17.0076
748	 16.8185
744	 16.6853
740	 16.7196
736	 16.5396
732	 16.2337
728	 16.2104
724	 16.339
720	 16.3622
716	 16.2933
712	 16.2521
708	 16.191
704	 15.995
700	 15.8604
696	 15.9115
692	 15.8393
688	 15.6313
684	 15.5878
680	 15.599
676	 15.5681
672	 15.4824
668	 15.1841
664	 14.9173
660	 14.8496
656	 14.9315
652	 15.0694
648	 14.9848
644	 14.8922
640	 14.9848
636	 14.7791
632	 14.2791
628	 14.0934
624	 14.0852
620	 14.0316
616	 14.1642
612	 14.4323
608	 14.4967
604	 14.0746
600	 13.5842
596	 13.4441
592	 13.3441
588	 13.0884
584	 12.9718
580	 13.1249
576	 13.2784
572	 13.2716
568	 13.1113
564	 12.7738
560	 12.4401
556	 12.3999
552	 12.4911
548	 12.4812
544	 12.4089
540	 12.2072
536	 11.994
532	 11.9917
528	 12.0738
524	 12.0518
520	 11.8845
516	 11.7438
512	 11.5123
508	 10.8715
504	 10.53
500	 10.703
496	 10.5069
492	 10.0471
488	 9.888911
484	 10.2006
480	 10.7122
476	 10.796
472	 10.7454
468	 10.8448
464	 10.3878
460	 9.612727
456	 9.514331
452	 9.958720
448	 9.986996
444	 9.440493
440	 8.804678
436	 8.014965
432	 6.725597
428	 6.594944
424	 9.112381
420	 12.0923
416	 13.2015
412	 12.2941
408	 10.0547
404	 6.850147
400	 1.725125
396	 0.508475
392	 11.5154
388	 24.1996
384	 17.5032
380	 -8.525061
376	 -16.6716
372	 4.618501
370	 9.872722