File: Bakgrunnsmateriale/MATLAB/FTIR/ftir_data/LPE453/Mapping_121/LPE453_t89.asc
PE IR       SPECTRUM    SPECTRUM    ASCII       PEDS        1.60
  -1
LPE3BD~1.ASC
17/05/16
21:43:36.00
17/05/16
21:44:02.00
tln
$LPE453_t0089$<tbV0>[13.0,7.8,8.0,0.0,27,1,0]
27.028
64

2002,4.07
MIRTGS : RIGHTBACK : INTERNAL 2
MIR : ON : INTERNAL 2
OPTKBR

0.200000
8
8.000000
FILLER
RATIO
SPECTRUM
UNLOCKED 256

DOUBLE
64
COMBINED
1
0
0

0.002000
RATIO

1
0
TRUE
51149
0
LEFT NOT FITTED RIGHT NOT FITTED 0
NONE
NONE
15600
12
4.427000
51148
TRUE
1 0 8 72 0 0 0 0

15798

#HDR
-1
-1
#GR
µM
%T
2.38419e-05
0.0
2.000000
0.002000
12515
8
24.8753
-5.700245
#DATA
2.000000	 -0.293803
2.018000	 0.027518
2.036000	 -0.058068
2.054000	 0.126501
2.072000	 0.073473
2.090000	 0.452389
2.108000	 0.101371
2.126000	 0.517866
2.144000	 0.668917
2.162000	 2.133012
2.180000	 1.517879
2.198000	 0.696831
2.216000	 0.179486
2.234000	 0.955012
2.252000	 -0.222088
2.270000	 0.102555
2.288000	 0.149014
2.306000	 0.554099
2.324000	 -0.080433
2.342000	 0.052496
2.360000	 0.146279
2.378000	 0.195747
2.396000	 0.213011
2.414000	 0.169688
2.432000	 0.243625
2.450000	 0.214997
2.468000	 -0.003351
2.486000	 0.268744
2.504000	 -0.139613
2.522000	 0.070608
2.540000	 -0.021384
2.558000	 -0.082544
2.576000	 0.011993
2.594000	 0.132671
2.612000	 0.081988
2.630000	 -0.029105
2.648000	 0.108424
2.666000	 0.174258
2.684000	 -0.003636
2.702000	 -0.038313
2.720000	 0.050974
2.738000	 0.002481
2.756000	 0.052667
2.774000	 0.067314
2.792000	 0.005145
2.810000	 0.089771
2.828000	 0.107672
2.846000	 -0.052369
2.864000	 0.151242
2.882000	 0.073102
2.900000	 0.070458
2.918000	 -0.068998
2.936000	 -0.078767
2.954000	 0.057586
2.972000	 0.072294
2.990000	 0.034081
3.008000	 -0.077514
3.026000	 0.123533
3.044000	 -0.010690
3.062000	 0.101333
3.080000	 -0.025432
3.098000	 0.088815
3.116000	 -0.083299
3.134000	 -0.065604
3.152000	 -0.034472
3.170000	 0.053498
3.188000	 0.013076
3.206000	 0.005859
3.224000	 -0.066213
3.242000	 0.072006
3.260000	 0.080582
3.278000	 0.076835
3.296000	 0.040169
3.314000	 0.138434
3.332000	 0.110305
3.350000	 -0.020746
3.368000	 -0.166483
3.386000	 -0.042959
3.404000	 0.141633
3.422000	 0.108046
3.440000	 0.073896
3.458000	 0.087746
3.476000	 0.026267
3.494000	 0.080781
3.512000	 -0.009068
3.530000	 0.102800
3.548000	 0.120329
3.566000	 0.128278
3.584000	 -0.026256
3.602000	 0.018499
3.620000	 0.051803
3.638000	 -0.081553
3.656000	 0.014527
3.674000	 -0.001401
3.692000	 0.082178
3.710000	 0.007422
3.728000	 0.068211
3.746000	 0.066192
3.764000	 -0.014621
3.782000	 0.125209
3.800000	 0.012385
3.818000	 0.057001
3.836000	 0.059013
3.854000	 0.159147
3.872000	 -0.039405
3.890000	 -0.050123
3.908000	 0.102884
3.926000	 -0.022648
3.944000	 0.065366
3.962000	 0.016258
3.980000	 -0.131326
3.998000	 0.137845
4.016000	 -0.097773
4.034000	 0.048052
4.052000	 -0.043664
4.070000	 -0.060488
4.088000	 0.105831
4.106000	 0.210376
4.124000	 0.020468
4.141999	 0.118559
4.160000	 -0.177764
4.178000	 0.041697
4.196000	 -0.020872
4.214000	 0.025214
4.232000	 -0.011765
4.250000	 -0.018110
4.268000	 -0.094527
4.286000	 0.054839
4.304000	 0.002213
4.322000	 0.085712
4.340000	 -0.009904
4.358000	 0.081903
4.375999	 0.094899
4.394000	 0.155882
4.412000	 0.187949
4.430000	 0.359007
4.448000	 0.352670
4.466000	 0.438296
4.484000	 0.603014
4.502000	 0.713681
4.520000	 0.973692
4.538000	 1.238402
4.556000	 1.420098
4.574000	 1.611660
4.592000	 2.000687
4.609999	 2.492374
4.628000	 2.856468
4.646000	 3.399551
4.664000	 3.957489
4.682000	 4.371287
4.700000	 4.900590
4.718000	 5.534817
4.736000	 6.218591
4.754000	 6.767077
4.772000	 7.379065
4.790000	 8.050689
4.808000	 8.830111
4.826000	 9.350092
4.843999	 9.894939
4.862000	 10.4926
4.880000	 11.2086
4.898000	 11.83
4.916000	 12.4338
4.934000	 12.9778
4.952000	 13.4693
4.970000	 14.1149
4.988000	 14.5634
5.006000	 15.0593
5.024000	 15.5137
5.042000	 15.9724
5.060000	 16.3432
5.077999	 16.7912
5.096000	 17.1987
5.114000	 17.6873
5.132000	 17.9555
5.150000	 18.2921
5.168000	 18.6012
5.186000	 18.895
5.204000	 19.1826
5.222000	 19.434
5.240000	 19.7675
5.258000	 19.9532
5.276000	 20.19
5.294000	 20.4577
5.312000	 20.6736
5.330000	 20.9218
5.348000	 21.0484
5.366000	 21.1814
5.384000	 21.3202
5.402000	 21.5412
5.420000	 21.6788
5.438000	 21.8724
5.456000	 21.9786
5.474000	 22.0933
5.492000	 22.1937
5.510000	 22.2634
5.528000	 22.4513
5.546000	 22.567
5.564000	 22.6875
5.582000	 22.8326
5.600000	 22.8005
5.618000	 22.8752
5.636000	 23.022
5.654000	 23.1439
5.672000	 23.1332
5.690000	 23.1454
5.708000	 23.2852
5.726000	 23.3168
5.744000	 23.254
5.762000	 23.3231
5.780000	 23.3803
5.798000	 23.4674
5.816000	 23.6831
5.834000	 23.8223
5.852000	 23.7285
5.870000	 23.7037
5.888000	 23.8172
5.906000	 23.9181
5.923999	 23.8804
5.942000	 23.9463
5.960000	 24.0232
5.978000	 24.0131
5.996000	 24.011
6.014000	 24.0836
6.032000	 24.1231
6.050000	 24.1994
6.068000	 24.2913
6.086000	 24.2785
6.104000	 24.2605
6.122000	 24.2797
6.140000	 24.2959
6.158000	 24.3602
6.176000	 24.3808
6.194000	 24.3362
6.212000	 24.3764
6.230000	 24.4419
6.248000	 24.5295
6.266000	 24.558
6.284000	 24.4966
6.302000	 24.4772
6.320000	 24.4703
6.338000	 24.4425
6.356000	 24.3842
6.374000	 24.3709
6.392000	 24.4876
6.410000	 24.5631
6.428000	 24.5283
6.446000	 24.5068
6.464000	 24.5303
6.482000	 24.5763
6.500000	 24.5787
6.518000	 24.5828
6.536000	 24.6274
6.554000	 24.6362
6.572000	 24.6211
6.590000	 24.6263
6.608000	 24.614
6.626000	 24.5638
6.644000	 24.5673
6.662000	 24.6488
6.680000	 24.6786
6.698000	 24.6701
6.716000	 24.7327
6.734000	 24.7944
6.752000	 24.7783
6.770000	 24.7
6.788000	 24.6581
6.806000	 24.7197
6.824000	 24.8094
6.842000	 24.8206
6.860000	 24.759
6.878000	 24.728
6.896000	 24.7822
6.914000	 24.8425
6.932000	 24.8674
6.950000	 24.8743
6.968000	 24.8341
6.986000	 24.7445
7.004000	 24.6899
7.022000	 24.7339
7.040000	 24.8026
7.058000	 24.8036
7.076000	 24.773
7.094000	 24.7712
7.112000	 24.7844
7.130000	 24.7973
7.148000	 24.7976
7.166000	 24.7703
7.184000	 24.7515
7.202000	 24.7547
7.220000	 24.745
7.238000	 24.7493
7.256000	 24.7932
7.274000	 24.8071
7.292000	 24.7346
7.310000	 24.6245
7.328000	 24.5807
7.346000	 24.6472
7.364000	 24.735
7.382000	 24.7337
7.400000	 24.674
7.418000	 24.6575
7.436000	 24.6879
7.454000	 24.7018
7.472000	 24.6928
7.490000	 24.7014
7.508000	 24.7413
7.526000	 24.7959
7.544000	 24.8311
7.562000	 24.8004
7.580000	 24.7171
7.598000	 24.6794
7.616000	 24.7325
7.634000	 24.7971
7.652000	 24.8002
7.670000	 24.7572
7.688000	 24.7069
7.706000	 24.6751
7.724000	 24.6743
7.742000	 24.6758
7.760000	 24.6405
7.778000	 24.5902
7.796000	 24.5752
7.814000	 24.5894
7.832000	 24.586
7.850000	 24.5514
7.868000	 24.5195
7.886000	 24.5288
7.904000	 24.5729
7.922000	 24.606
7.940000	 24.6021
7.958000	 24.5863
7.976000	 24.5923
7.994000	 24.6151
8.012000	 24.6275
8.030000	 24.6227
8.048000	 24.6237
8.065999	 24.6434
8.084000	 24.6539
8.102000	 24.625
8.120000	 24.5681
8.138000	 24.5153
8.155999	 24.4801
8.173999	 24.46
8.192000	 24.4554
8.210000	 24.4651
8.228000	 24.4813
8.246000	 24.4947
8.263999	 24.4991
8.282000	 24.4926
8.300000	 24.4808
8.318000	 24.4708
8.336000	 24.4612
8.353999	 24.4479
8.372000	 24.4348
8.390000	 24.427
8.408000	 24.4177
8.426000	 24.3958
8.443999	 24.3615
8.462000	 24.3238
8.480000	 24.2933
8.498000	 24.2838
8.516000	 24.3012
8.533999	 24.3252
8.552000	 24.3274
8.570000	 24.3113
8.588000	 24.3124
8.606000	 24.3479
8.624000	 24.3902
8.641999	 24.4051
8.660000	 24.393
8.678000	 24.3817
8.696000	 24.3928
8.714000	 24.4228
8.731999	 24.45
8.750000	 24.4506
8.768000	 24.4134
8.786000	 24.3479
8.804000	 24.276
8.821999	 24.2146
8.840000	 24.1675
8.858000	 24.1342
8.876000	 24.1196
8.894000	 24.128
8.911999	 24.1494
8.930000	 24.1591
8.948000	 24.1401
8.966000	 24.1044
8.984000	 24.0852
9.001999	 24.1049
9.020000	 24.1516
9.038000	 24.1882
9.056000	 24.1827
9.074000	 24.1326
9.092000	 24.0638
9.109999	 24.0114
9.128000	 23.9972
9.146000	 24.0178
9.164000	 24.0505
9.182000	 24.0748
9.199999	 24.0861
9.218000	 24.0923
9.236000	 24.0986
9.254000	 24.1006
9.272000	 24.0904
9.289999	 24.0661
9.308000	 24.0334
9.326000	 23.9994
9.344000	 23.9681
9.362000	 23.9415
9.379999	 23.9215
9.398000	 23.9094
9.416000	 23.9054
9.434000	 23.9079
9.452000	 23.9137
9.469999	 23.9181
9.488000	 23.9166
9.506000	 23.9043
9.524000	 23.8787
9.542000	 23.8442
9.560000	 23.8139
9.577999	 23.8031
9.596000	 23.8187
9.614000	 23.8509
9.632000	 23.8772
9.650000	 23.8756
9.667999	 23.8374
9.686000	 23.7706
9.704000	 23.6939
9.722000	 23.6301
9.740000	 23.5977
9.757999	 23.6033
9.776000	 23.6387
9.794000	 23.6866
9.812000	 23.7311
9.830000	 23.7648
9.847999	 23.7868
9.866000	 23.7967
9.884000	 23.7916
9.902000	 23.7686
9.920000	 23.7289
9.937999	 23.6764
9.956000	 23.6136
9.974000	 23.5423
9.992000	 23.4701
10.01	23.4122
10.028	23.3853
10.046	23.3948
10.064	23.4289
10.082	23.4642
10.1	23.4796
10.118	23.468
10.136	23.4391
10.154	23.4099
10.172	23.3936
10.19	23.3923
10.208	23.3991
10.226	23.4036
10.244	23.399
10.262	23.3843
10.28	23.3629
10.298	23.3386
10.316	23.312
10.334	23.2811
10.352	23.2439
10.37	23.2015
10.388	23.1585
10.406	23.1219
10.424	23.1005
10.442	23.101
10.46	23.1249
10.478	23.1656
10.496	23.2097
10.514	23.2428
10.532	23.2542
10.55	23.2433
10.568	23.2167
10.586	23.1849
10.604	23.1555
10.622	23.1313
10.64	23.111
10.658	23.0924
10.676	23.0734
10.694	23.0522
10.712	23.0266
10.73	22.9959
10.748	22.9615
10.766	22.9288
10.784	22.904
10.802	22.8909
10.82	22.888
10.838	22.8878
10.856	22.8821
10.874	22.8659
10.892	22.8407
10.91	22.8142
10.928	22.7944
10.946	22.7867
10.964	22.7914
10.982	22.8045
11	22.821
11.018	22.8371
11.036	22.8504
11.054	22.858
11.072	22.8553
11.09	22.8359
11.108	22.7949
11.126	22.7321
11.144	22.654
11.162	22.5744
11.18	22.5074
11.198	22.4636
11.216	22.4448
11.234	22.4443
11.252	22.4497
11.27	22.4493
11.288	22.4362
11.306	22.4111
11.324	22.382
11.342	22.3599
11.36	22.3524
11.378	22.3603
11.396	22.3758
11.414	22.3849
11.432	22.3745
11.45	22.3379
11.468	22.279
11.486	22.2101
11.504	22.1485
11.522	22.1099
11.54	22.1019
11.558	22.1224
11.576	22.1592
11.594	22.1959
11.612	22.2161
11.63	22.2093
11.648	22.1744
11.666	22.1185
11.684	22.0538
11.702	21.9924
11.72	21.9434
11.738	21.9104
11.756	21.892
11.774	21.8843
11.792	21.8836
11.81	21.8877
11.828	21.896
11.846	21.9075
11.864	21.9195
11.882	21.9277
11.9	21.9271
11.918	21.9137
11.936	21.887
11.954	21.8495
11.972	21.8062
11.99	21.763
12.008	21.7246
12.026	21.6933
12.044	21.6695
12.062	21.6524
12.08	21.6411
12.098	21.6351
12.116	21.6343
12.134	21.6389
12.152	21.648
12.17	21.6602
12.188	21.6734
12.206	21.6852
12.224	21.6932
12.242	21.6944
12.26	21.6863
12.278	21.667
12.296	21.6361
12.314	21.5957
12.332	21.5494
12.35	21.5026
12.368	21.4603
12.386	21.4263
12.404	21.4022
12.422	21.3868
12.44	21.377
12.458	21.369
12.476	21.3588
12.494	21.3441
12.512	21.3244
12.53	21.3004
12.548	21.2738
12.566	21.2465
12.584	21.2203
12.602	21.1966
12.62	21.1761
12.638	21.1591
12.656	21.1456
12.674	21.1348
12.692	21.1256
12.71	21.1172
12.728	21.1088
12.746	21.0996
12.764	21.0891
12.782	21.0763
12.8	21.0604
12.818	21.0411
12.836	21.0186
12.854	20.9944
12.872	20.9714
12.89	20.9529
12.908	20.9426
12.926	20.9428
12.944	20.954
12.962	20.9743
12.98	21.0001
12.998	21.026
13.016	21.0471
13.034	21.06
13.052	21.0632
13.07	21.057
13.088	21.0432
13.106	21.0235
13.124	20.9991
13.142	20.9704
13.16	20.9372
13.178	20.8996
13.196	20.8589
13.214	20.818
13.232	20.781
13.25	20.7528
13.268	20.738
13.286	20.7391
13.304	20.7562
13.322	20.7861
13.34	20.8235
13.358	20.8617
13.376	20.894
13.394	20.9153
13.412	20.9224
13.43	20.915
13.448	20.8942
13.466	20.8627
13.484	20.8231
13.502	20.7775
13.52	20.7273
13.538	20.6732
13.556	20.6154
13.574	20.5544
13.592	20.4916
13.61	20.4291
13.628	20.3703
13.646	20.3187
13.664	20.2778
13.682	20.2502
13.7	20.237
13.718	20.2374
13.736	20.2489
13.754	20.2677
13.772	20.2891
13.79	20.3086
13.808	20.3223
13.826	20.3277
13.844	20.3236
13.862	20.3101
13.88	20.2884
13.898	20.2602
13.916	20.2272
13.934	20.191
13.952	20.153
13.97	20.1139
13.988	20.0744
14.006	20.0353
14.024	19.9981
14.042	19.9647
14.06	19.9368
14.078	19.9164
14.096	19.9047
14.114	19.9022
14.132	19.9081
14.15	19.9206
14.168	19.937
14.186	19.9543
14.204	19.9695
14.222	19.9802
14.24	19.985
14.258	19.9837
14.276	19.9772
14.294	19.9668
14.312	19.9545
14.33	19.9422
14.348	19.9318
14.366	19.924
14.384	19.9193
14.402	19.9174
14.42	19.9177
14.438	19.9192
14.456	19.9206
14.474	19.9204
14.492	19.9167
14.51	19.9078
14.528	19.8918
14.546	19.8673
14.564	19.8332
14.582	19.7892
14.6	19.7359
14.618	19.6751
14.636	19.6096
14.654	19.5431
14.672	19.4794
14.69	19.4224
14.708	19.3755
14.726	19.3413
14.744	19.3211
14.762	19.3142
14.78	19.3186
14.798	19.3308
14.816	19.3469
14.834	19.3616
14.852	19.3696
14.87	19.3668
14.888	19.3502
14.906	19.3181
14.924	19.2707
14.942	19.2096
14.96	19.1385
14.978	19.0619
14.996	18.9847
15.014	18.9123
15.032	18.8498
15.05	18.8014
15.068	18.7693
15.086	18.7545
15.104	18.7572
15.122	18.7755
15.14	18.8066
15.158	18.8473
15.176	18.894
15.194	18.9429
15.212	18.9901
15.23	19.0329
15.248	19.0688
15.266	19.0959
15.284	19.1125
15.302	19.1181
15.32	19.1127
15.338	19.0964
15.356	19.0703
15.374	19.0363
15.392	18.9962
15.41	18.952
15.428	18.9062
15.446	18.861
15.464	18.8182
15.482	18.7792
15.5	18.7451
15.518	18.7161
15.536	18.6921
15.554	18.6725
15.572	18.6564
15.59	18.6432
15.608	18.6326
15.626	18.6246
15.644	18.6198
15.662	18.619
15.68	18.6231
15.698	18.6332
15.716	18.65
15.734	18.6734
15.752	18.7027
15.77	18.7368
15.788	18.773
15.806	18.8084
15.824	18.8402
15.842	18.8653
15.86	18.8805
15.878	18.8842
15.896	18.8751
15.914	18.8525
15.932	18.8176
15.95	18.7716
15.968	18.7164
15.986	18.6553
16.004	18.5905
16.022	18.5242
16.04	18.4596
16.058	18.3979
16.076	18.3405
16.094	18.2887
16.112	18.2426
16.13	18.2025
16.148	18.1687
16.166	18.1406
16.184	18.1177
16.202	18.0996
16.22	18.0849
16.238	18.0728
16.256	18.0621
16.274	18.0514
16.292	18.0394
16.31	18.0252
16.328	18.0073
16.346	17.9852
16.364	17.9584
16.382	17.9266
16.4	17.8903
16.418	17.8499
16.436	17.8065
16.454	17.7613
16.472	17.7153
16.49	17.6703
16.508	17.6278
16.526	17.5887
16.544	17.5549
16.562	17.5267
16.58	17.5047
16.598	17.4892
16.616	17.4798
16.634	17.4762
16.652	17.4772
16.67	17.4818
16.688	17.4891
16.706	17.4974
16.724	17.5062
16.742	17.5147
16.76	17.5223
16.778	17.529
16.796	17.5351
16.814	17.5411
16.832	17.5475
16.85	17.5553
16.868	17.5652
16.886	17.5779
16.904	17.594
16.922	17.6132
16.94	17.6356
16.958	17.6599
16.976	17.6854
16.994	17.7105
17.012	17.7334
17.03	17.7529
17.048	17.7667
17.066	17.7738
17.084	17.7727
17.102	17.7625
17.12	17.743
17.138	17.7141
17.156	17.6763
17.174	17.6303
17.192	17.5775
17.21	17.5189
17.228	17.4562
17.246	17.391
17.264	17.3242
17.282	17.2579
17.3	17.1926
17.318	17.1299
17.336	17.0708
17.354	17.0159
17.372	16.9665
17.39	16.9228
17.408	16.8857
17.426	16.8559
17.444	16.8336
17.462	16.8194
17.48	16.8133
17.498	16.8154
17.516	16.8251
17.534	16.8424
17.552	16.8655
17.57	16.8941
17.588	16.926
17.606	16.9602
17.624	16.9948
17.642	17.028
17.66	17.059
17.678	17.0854
17.696	17.1069
17.714	17.1221
17.732	17.1311
17.75	17.1337
17.768	17.1303
17.786	17.1212
17.804	17.1078
17.822	17.0902
17.84	17.0698
17.858	17.0469
17.876	17.0226
17.894	16.9969
17.912	16.9701
17.93	16.9421
17.948	16.9129
17.966	16.8819
17.984	16.8491
18.002	16.814
18.02	16.7769
18.038	16.7375
18.056	16.6967
18.074	16.6545
18.092	16.6126
18.11	16.5713
18.128	16.5328
18.146	16.4976
18.164	16.4676
18.182	16.4436
18.2	16.4268
18.218	16.4178
18.236	16.417
18.254	16.4242
18.272	16.4396
18.29	16.4617
18.308	16.4905
18.326	16.5237
18.344	16.561
18.362	16.5998
18.38	16.6395
18.398	16.6777
18.416	16.7138
18.434	16.746
18.452	16.7734
18.47	16.7952
18.488	16.8104
18.506	16.8189
18.524	16.8201
18.542	16.8139
18.56	16.8004
18.578	16.7797
18.596	16.7523
18.614	16.7183
18.632	16.6789
18.65	16.6344
18.668	16.5862
18.686	16.5347
18.704	16.4819
18.722	16.4279
18.74	16.3747
18.758	16.3226
18.776	16.2733
18.794	16.2271
18.812	16.1851
18.83	16.1473
18.848	16.1145
18.866	16.0863
18.884	16.0627
18.902	16.0431
18.92	16.027
18.938	16.0135
18.956	16.0017
18.974	15.9907
18.992	15.9795
19.01	15.9674
19.028	15.9531
19.046	15.9365
19.064	15.9165
19.082	15.8933
19.1	15.8662
19.118	15.8356
19.136	15.8016
19.154	15.7647
19.172	15.7255
19.19	15.6847
19.208	15.6433
19.226	15.6018
19.244	15.5617
19.262	15.523
19.28	15.4872
19.298	15.4541
19.316	15.4248
19.334	15.399
19.352	15.3771
19.37	15.359
19.388	15.3441
19.406	15.3325
19.424	15.323
19.442	15.3158
19.46	15.3097
19.478	15.3044
19.496	15.2992
19.514	15.2937
19.532	15.2874
19.55	15.2798
19.568	15.2709
19.586	15.2603
19.604	15.2481
19.622	15.2344
19.64	15.2193
19.658	15.2032
19.676	15.1863
19.694	15.1691
19.712	15.1518
19.73	15.1352
19.748	15.1193
19.766	15.1049
19.784	15.0921
19.802	15.0813
19.82	15.0728
19.838	15.0668
19.856	15.0636
19.874	15.063
19.892	15.0653
19.91	15.0704
19.928	15.0779
19.946	15.088
19.964	15.0999
19.982	15.1136
20	15.1283
20.018	15.1438
20.036	15.1592
20.054	15.1735
20.072	15.1866
20.09	15.1967
20.108	15.2042
20.126	15.2071
20.144	15.2055
20.162	15.1986
20.18	15.1857
20.198	15.1671
20.216	15.1424
20.234	15.1118
20.252	15.0763
20.27	15.0355
20.288	14.9917
20.306	14.9445
20.324	14.8959
20.342	14.847
20.36	14.7983
20.378	14.7519
20.396	14.7076
20.414	14.6672
20.432	14.6307
20.45	14.5986
20.468	14.5713
20.486	14.5485
20.504	14.53
20.522	14.5157
20.54	14.5045
20.558	14.4964
20.576	14.4904
20.594	14.4858
20.612	14.4826
20.63	14.4795
20.648	14.4769
20.666	14.4742
20.684	14.4713
20.702	14.4684
20.72	14.4654
20.738	14.4626
20.756	14.4605
20.774	14.4589
20.792	14.4585
20.81	14.4595
20.828	14.4617
20.846	14.4656
20.864	14.471
20.882	14.4773
20.9	14.4847
20.918	14.4922
20.936	14.4992
20.954	14.5055
20.972	14.5092
20.99	14.5108
21.008	14.5088
21.026	14.5024
21.044	14.4918
21.062	14.4759
21.08	14.4548
21.098	14.4287
21.116	14.3972
21.134	14.361
21.152	14.3211
21.17	14.2772
21.188	14.2313
21.206	14.1835
21.224	14.1347
21.242	14.0872
21.26	14.0402
21.278	13.9957
21.296	13.9541
21.314	13.9155
21.332	13.881
21.35	13.8501
21.368	13.8232
21.386	13.8003
21.404	13.7812
21.422	13.7652
21.44	13.7526
21.458	13.7422
21.476	13.7335
21.494	13.7265
21.512	13.7196
21.53	13.7133
21.548	13.7065
21.566	13.6984
21.584	13.6894
21.602	13.6786
21.62	13.6662
21.638	13.6521
21.656	13.6363
21.674	13.6187
21.692	13.6002
21.71	13.5808
21.728	13.5608
21.746	13.5412
21.764	13.5215
21.782	13.5028
21.8	13.4858
21.818	13.4702
21.836	13.4575
21.854	13.4476
21.872	13.4408
21.89	13.438
21.908	13.4391
21.926	13.444
21.944	13.4532
21.962	13.4664
21.98	13.4832
21.998	13.5037
22.016	13.5274
22.034	13.5534
22.052	13.5821
22.07	13.6123
22.088	13.6428
22.106	13.6743
22.124	13.7047
22.142	13.734
22.16	13.7619
22.178	13.7866
22.196	13.8084
22.214	13.8267
22.232	13.8404
22.25	13.8498
22.268	13.8544
22.286	13.8534
22.304	13.8472
22.322	13.8355
22.34	13.818
22.358	13.7949
22.376	13.7664
22.394	13.7323
22.412	13.693
22.43	13.6489
22.448	13.6
22.466	13.5465
22.484	13.4888
22.502	13.4268
22.52	13.361
22.538	13.2914
22.556	13.218
22.574	13.141
22.592	13.0605
22.61	12.9764
22.628	12.8891
22.646	12.7984
22.664	12.7047
22.682	12.6084
22.7	12.509
22.718	12.4075
22.736	12.305
22.754	12.2007
22.772	12.0962
22.79	11.9925
22.808	11.8888
22.826	11.7876
22.844	11.6903
22.862	11.5958
22.88	11.5075
22.898	11.4268
22.916	11.3527
22.934	11.289
22.952	11.2369
22.97	11.1956
22.988	11.1678
23.006	11.1542
23.024	11.1542
23.042	11.1692
23.06	11.1996
23.078	11.2448
23.096	11.3049
23.114	11.3806
23.132	11.4709
23.15	11.5734
23.168	11.6896
23.186	11.8176
23.204	11.9525
23.222	12.0956
23.24	12.2451
23.258	12.3948
23.276	12.5461
23.294	12.6975
23.312	12.8428
23.33	12.983
23.348	13.1174
23.366	13.2407
23.384	13.3533
23.402	13.4551
23.42	13.5425
23.438	13.6147
23.456	13.6728
23.474	13.7158
23.492	13.7427
23.51	13.7546
23.528	13.7531
23.546	13.7376
23.564	13.7086
23.582	13.6699
23.6	13.6222
23.618	13.5647
23.636	13.5023
23.654	13.4372
23.672	13.3672
23.69	13.2976
23.708	13.2316
23.726	13.1665
23.744	13.1062
23.762	13.0543
23.78	13.0085
23.798	12.971
23.816	12.9444
23.834	12.9278
23.852	12.9213
23.87	12.9259
23.888	12.9423
23.906	12.9691
23.924	13.0044
23.942	13.0492
23.96	13.1028
23.978	13.1609
23.996	13.2227
24.014	13.2896
24.032	13.3566
24.05	13.4208
24.068	13.4852
24.086	13.5454
24.104	13.5972
24.122	13.6433
24.14	13.6814
24.158	13.708
24.176	13.7243
24.194	13.7298
24.212	13.7225
24.23	13.7014
24.248	13.6676
24.266	13.6212
24.284	13.5622
24.302	13.4904
24.32	13.4066
24.338	13.3112
24.356	13.2038
24.374	13.0852
24.392	12.9568
24.41	12.819
24.428	12.6712
24.446	12.5136
24.464	12.3463
24.482	12.1695
24.5	11.9824
24.518	11.7844
24.536	11.5769
24.554	11.3579
24.572	11.1251
24.59	10.8796
24.608	10.621
24.626	10.346
24.644	10.0535
24.662	9.745053
24.68	9.418615
24.698	9.071965
24.716	8.705556
24.734	8.320249
24.752	7.916576
24.77	7.493354
24.788	7.051293
24.806	6.594097
24.824	6.123714
24.842	5.636804
24.86	5.138734
24.878	4.635804
24.896	4.124144
24.914	3.605930
24.932	3.090285
24.95	2.581170
24.968	2.072541
24.986	1.573179
25.004	1.092315
25.022	0.624610
25.04	0.172703
25.058	-0.254147
25.076	-0.651967
25.094	-1.026156
25.112	-1.371044
25.13	-1.680752
25.148	-1.957735
25.166	-2.201848
25.184	-2.409965
25.202	-2.579970
25.22	-2.713458
25.238	-2.811602
25.256	-2.875386
25.274	-2.903208
25.292	-2.896751
25.31	-2.859568
25.328	-2.793146
25.346	-2.694631
25.364	-2.568752
25.382	-2.420840
25.4	-2.249002
25.418	-2.053302
25.436	-1.839359
25.454	-1.611224
25.472	-1.364661
25.49	-1.103322
25.508	-0.832537
25.526	-0.553419
25.544	-0.263510
25.562	0.033956
25.58	0.335907
25.598	0.643860
25.616	0.957463
25.634	1.274681
25.652	1.594462
25.67	1.918489
25.688	2.244833
25.706	2.571184
25.724	2.898355
25.742	3.226941
25.76	3.553235
25.778	3.873964
25.796	4.192928
25.814	4.507569
25.832	4.812063
25.85	5.103175
25.868	5.386371
25.886	5.656043
25.904	5.905113
25.922	6.133300
25.94	6.344729
25.958	6.531490
25.976	6.685628
25.994	6.810041
26.012	6.905702
26.03	6.967021
26.048	6.988997
26.066	6.973953
26.084	6.922695
26.102	6.834536
26.12	6.707972
26.138	6.541356
26.156	6.339946
26.174	6.109601
26.192	5.849833
26.21	5.555755
26.228	5.238926
26.246	4.911378
26.264	4.569178
26.282	4.208480
26.3	3.845432
26.318	3.495751
26.336	3.149740
26.354	2.808106
26.372	2.488038
26.39	2.205162
26.408	1.947571
26.426	1.718523
26.444	1.531797
26.462	1.398990
26.48	1.311152
26.498	1.270079
26.516	1.282241
26.534	1.353056
26.552	1.479763
26.57	1.660214
26.588	1.893025
26.606	2.178703
26.624	2.521374
26.642	2.913360
26.66	3.345743
26.678	3.815298
26.696	4.331776
26.714	4.883453
26.732	5.456650
26.75	6.045978
26.768	6.663910
26.786	7.298080
26.804	7.934205
26.822	8.566727
26.84	9.208135
26.858	9.847049
26.876	10.4704
26.894	11.0724
26.912	11.6641
26.93	12.2373
26.948	12.7828
26.966	13.31
26.984	13.8481
27.002	14.3387
27.02	14.7179
27.028	14.822