File: Bakgrunnsmateriale/MATLAB/FTIR/ftir_data/LPE453/Mapping_121/LPE453_t84_cm-1.asc
PE IR       SPECTRUM    SPECTRUM    ASCII       PEDS        1.60
  -1
LP6B5B~1.ASC
17/05/16
21:14:04.00
17/05/16
21:14:04.00
tln
$LPE453_t0084$<tbV0>[-2.6,5.2,8.0,0.0,27,1,0]
370
64

2002,4.07
MIRTGS : RIGHTBACK : INTERNAL 2
MIR : ON : INTERNAL 2
OPTKBR

0.200000
8
8.000000
FILLER
RATIO
SPECTRUM
UNLOCKED 256

DOUBLE
64
COMBINED
1
0
0

1.000000
RATIO

1
0
TRUE
51149
0
LEFT NOT FITTED RIGHT NOT FITTED 0
NONE
NONE
15600
12
4.427000
51148
TRUE
1 0 8 72 0 0 0 0

15798

#HDR
-1
-1
#GR
CM-1
%T
2.38419e-05
0.0
5000
-1.000000
4631
8
35.813
-4.240179
#DATA
5000	-0.178670
4996	-0.451231
4992	-0.310182
4988	0.170874
4984	0.407505
4980	0.400161
4976	0.413322
4972	0.425267
4968	0.323653
4964	0.206685
4960	0.204014
4956	0.142431
4952	0.027012
4948	-0.005555
4944	-0.015783
4940	0.129866
4936	0.396442
4932	0.446391
4928	0.334620
4924	0.167846
4920	0.041055
4916	0.061488
4912	0.118136
4908	0.166606
4904	0.212430
4900	0.281572
4896	0.233101
4892	0.017142
4888	0.005960
4884	0.238561
4880	0.460052
4876	0.550103
4872	0.451946
4868	0.419831
4864	0.566005
4860	0.709795
4856	0.568890
4852	0.051450
4848	-0.303792
4844	-0.325322
4840	-0.284361
4836	-0.197744
4832	-0.128746
4828	-0.110888
4824	-0.014805
4820	0.140094
4816	0.141763
4812	-0.014257
4808	0.046372
4804	0.335669
4800	0.375247
4796	0.225138
4792	0.294661
4788	0.485110
4784	0.544643
4780	0.293040
4776	-0.072979
4772	-0.032448
4768	0.208353
4764	0.199103
4760	-0.159311
4756	-0.513339
4752	-0.418043
4748	-0.171518
4744	-0.121712
4740	-0.170779
4736	0.101304
4732	0.233745
4728	-0.103688
4724	-0.350284
4720	-0.404334
4716	-0.288748
4712	-0.151300
4708	-0.093746
4704	0.101161
4700	0.339245
4696	0.511670
4692	0.624179
4688	0.713419
4684	0.743603
4680	0.549173
4676	0.176358
4672	0.215983
4668	0.355529
4664	0.888347
4660	2.392625
4656	2.789521
4652	2.095484
4648	2.071547
4644	1.869511
4640	0.533986
4636	-0.350761
4632	0.240039
4628	0.830078
4624	1.095032
4620	1.392340
4616	0.999474
4612	0.273156
4608	0.725317
4604	1.781010
4600	1.674652
4596	0.773382
4592	0.246691
4588	0.282883
4584	0.445914
4580	0.102519
4576	-0.364446
4572	-0.348019
4568	0.070858
4564	0.327515
4560	0.169467
4556	-0.020909
4552	-0.277519
4548	-0.539088
4544	-0.605320
4540	-0.208258
4536	0.322270
4532	0.290012
4528	-0.209546
4524	-1.188755
4520	-2.274870
4516	-3.566527
4512	-4.201126
4508	-1.860260
4504	3.927588
4500	10.652
4496	15.8127
4492	21.3764
4488	20.4686
4484	8.702874
4480	0.762271
4476	0.188994
4472	0.160622
4468	-0.552773
4464	-0.988888
4460	-1.503014
4456	-1.842713
4452	-1.065826
4448	-0.464200
4444	-0.790071
4440	-0.992918
4436	-0.697803
4432	-0.207972
4428	-0.072050
4424	-0.246071
4420	-0.162482
4416	0.121736
4412	0.308537
4408	0.301623
4404	0.161290
4400	-0.019192
4396	0.036382
4392	0.462055
4388	0.628542
4384	0.428605
4380	0.443053
4376	0.658154
4372	0.630927
4368	0.329923
4364	0.257802
4360	0.417232
4356	0.379490
4352	0.195789
4348	0.223088
4344	0.508475
4340	0.759792
4336	0.769400
4332	0.503921
4328	0.113463
4324	-0.078415
4320	0.066113
4316	0.304365
4312	0.342583
4308	0.275135
4304	0.394153
4300	0.455689
4296	0.186324
4292	-0.032877
4288	-0.048303
4284	-0.080943
4280	0.018310
4276	0.228071
4272	0.194597
4268	0.144505
4264	0.215363
4260	0.052070
4256	-0.149011
4252	-0.166225
4248	-0.150775
4244	-0.131011
4240	-0.076293
4236	0.045132
4232	0.148010
4228	0.171494
4224	0.203132
4220	0.285053
4216	0.312709
4212	0.172519
4208	-0.018477
4204	-0.019717
4200	0.127673
4196	0.229358
4192	0.258350
4188	0.274229
4184	0.339436
4180	0.396394
4176	0.369119
4172	0.262665
4168	0.193142
4164	0.214791
4160	0.285553
4156	0.279331
4152	0.161576
4148	0.081634
4144	0.153255
4140	0.241851
4136	0.200772
4132	0.171923
4128	0.242400
4124	0.189256
4120	0.050973
4116	-0.008010
4112	-0.058388
4108	-0.165891
4104	-0.205183
4100	-0.131797
4096	0.042581
4092	0.282764
4088	0.262975
4084	0.049471
4080	0.008654
4076	0.050854
4072	0.017285
4068	-0.058102
4064	-0.095510
4060	-0.068426
4056	0.000333
4052	0.055289
4048	0.048995
4044	0.050854
4040	0.091576
4036	0.136184
4032	0.211787
4028	0.251483
4024	0.206303
4020	0.239682
4016	0.324773
4012	0.220298
4008	0.071954
4004	0.144386
4000	0.296497
3996	0.319623
3992	0.139617
3988	-0.048875
3984	-0.103712
3980	-0.135755
3976	-0.053930
3972	0.133657
3968	0.225043
3964	0.210285
3960	0.160264
3956	0.081539
3952	-0.008249
3948	0.002074
3944	0.051856
3940	0.028157
3936	0.016546
3932	0.045061
3928	0.076222
3924	0.134801
3920	0.207734
3916	0.190281
3912	0.178956
3908	0.238156
3904	0.184369
3900	0.072050
3896	0.086188
3892	0.211668
3888	0.271129
3884	0.188970
3880	0.083017
3876	0.024437
3872	0.033330
3868	0.136566
3864	0.280952
3860	0.304245
3856	0.180673
3852	0.040626
3848	0.051951
3844	0.173473
3840	0.201773
3836	0.149965
3832	0.152373
3828	0.222563
3824	0.151205
3820	-0.060701
3816	-0.155544
3812	-0.128102
3808	-0.049114
3804	0.015640
3800	-0.024414
3796	-0.075888
3792	-0.031471
3788	0.033950
3784	0.045990
3780	0.055313
3776	0.097227
3772	0.160050
3768	0.190639
3764	0.104975
3760	-0.036954
3756	-0.087141
3752	-0.020813
3748	0.073122
3744	0.093460
3740	0.089716
3736	0.161719
3732	0.186347
3728	0.099515
3724	0.064539
3720	0.113248
3716	0.171113
3712	0.182962
3708	0.135779
3704	0.068783
3700	0.005722
3696	0.009369
3692	0.079441
3688	0.121784
3684	0.137162
3680	0.174188
3676	0.145792
3672	0.036406
3668	0.025439
3664	0.106787
3660	0.123834
3656	0.053787
3652	-0.053286
3648	-0.081682
3644	0.053477
3640	0.187182
3636	0.160884
3632	0.046777
3628	-0.027155
3624	-0.015902
3620	0.070619
3616	0.101566
3612	-0.008821
3608	-0.092101
3604	-0.065040
3600	-0.005245
3596	0.032401
3592	-0.030541
3588	-0.145387
3584	-0.160193
3580	-0.083136
3576	-0.006794
3572	0.049328
3568	0.095438
3564	0.154447
3560	0.142908
3556	-0.004792
3552	-0.128793
3548	-0.076103
3544	0.041866
3540	0.063371
3536	0.068783
3532	0.109934
3528	0.125503
3524	0.123023
3520	0.088286
3516	0.072574
3512	0.077390
3508	0.069475
3504	0.126576
3500	0.181365
3496	0.163555
3492	0.133562
3488	0.108170
3484	0.076150
3480	0.052428
3476	0.041294
3472	0.074291
3468	0.164842
3464	0.162672
3460	0.068807
3456	0.065207
3452	0.114822
3448	0.092267
3444	0.051164
3440	0.039696
3436	0.019168
3432	0.014686
3428	0.053286
3424	0.112247
3420	0.103211
3416	0.049543
3412	0.039410
3408	0.041007
3404	0.071787
3400	0.107192
3396	0.091385
3392	0.054979
3388	0.055313
3384	0.065183
3380	0.028371
3376	0.018191
3372	0.073599
3368	0.127840
3364	0.126886
3360	0.061631
3356	-0.025582
3352	-0.080442
3348	-0.055694
3344	0.044465
3340	0.128459
3336	0.135469
3332	0.058507
3328	-0.060868
3324	-0.055599
3320	0.031852
3316	0.035929
3312	0.081968
3308	0.191259
3304	0.217866
3300	0.139403
3296	0.037693
3292	0.009965
3288	0.062680
3284	0.122475
3280	0.116586
3276	0.047254
3272	0.013971
3268	0.058627
3264	0.079250
3260	0.030589
3256	0.042057
3252	0.143742
3248	0.175452
3244	0.120496
3240	0.073838
3236	0.044035
3232	0.057768
3228	0.099539
3224	0.098681
3220	0.089955
3216	0.070095
3212	-0.015711
3208	-0.068354
3204	-0.021481
3200	0.054574
3196	0.099968
3192	0.111126
3188	0.033378
3184	-0.071334
3180	-0.021338
3176	0.047516
3172	0.021982
3168	0.042891
3164	0.076794
3160	0.043225
3156	0.023841
3152	-0.003099
3148	0.004625
3144	0.123214
3140	0.170040
3136	0.145673
3132	0.147223
3128	0.095558
3124	0.029253
3120	0.036287
3116	0.033640
3112	-0.002002
3108	0.022864
3104	0.043511
3100	0.030469
3096	0.047683
3092	0.061535
3088	0.060772
3084	0.067496
3080	0.039649
3076	0.036549
3072	0.107789
3068	0.077581
3064	-0.015616
3060	0.044798
3056	0.098299
3052	-0.001287
3048	-0.097155
3044	-0.118803
3040	-0.088834
3036	-0.060462
3032	-0.042891
3028	0.003671
3024	0.018906
3020	0.005197
3016	-0.029134
3012	-0.093340
3008	-0.086998
3004	-0.002884
3000	0.086975
2996	0.141954
2992	0.124573
2988	0.037193
2984	-0.057005
2980	-0.059390
2976	0.018191
2972	0.061821
2968	0.056076
2964	0.064158
2960	0.072336
2956	0.033116
2952	0.034737
2948	0.105857
2944	0.082063
2940	-0.012159
2936	0.012159
2932	0.116634
2928	0.192260
2924	0.199985
2920	0.110888
2916	0.020647
2912	0.059294
2908	0.159621
2904	0.138425
2900	0.032401
2896	-0.000810
2892	0.020527
2888	0.044417
2884	0.047683
2880	-0.017261
2876	-0.060248
2872	-0.005078
2868	0.002408
2864	-0.061082
2860	-0.035357
2856	0.059676
2852	0.113677
2848	0.140571
2844	0.164055
2840	0.093698
2836	-0.049400
2832	-0.035476
2828	0.124049
2824	0.192475
2820	0.150084
2816	0.129890
2812	0.124001
2808	0.075745
2804	0.074410
2800	0.125122
2796	0.102353
2792	0.021338
2788	0.004434
2784	0.048589
2780	0.047683
2776	0.022768
2772	0.021553
2768	-0.006341
2764	-0.030064
2760	0.007987
2756	0.063467
2752	0.133037
2748	0.164699
2744	0.074648
2740	-0.033235
2736	-0.104045
2732	-0.123620
2728	-0.037074
2724	0.052189
2720	0.048041
2716	0.008749
2712	0.023102
2708	0.075864
2704	0.105166
2700	0.127720
2696	0.145936
2692	0.153279
2688	0.159716
2684	0.099849
2680	0.018644
2676	0.023722
2672	0.043869
2668	-0.012111
2664	-0.080251
2660	-0.065469
2656	0.004243
2652	0.068712
2648	0.111293
2644	0.108480
2640	0.078892
2636	0.078582
2632	0.073146
2628	0.033617
2624	-0.007176
2620	-0.064420
2616	-0.093531
2612	-0.030112
2608	0.043320
2604	0.060224
2600	0.031185
2596	-0.027751
2592	-0.033760
2588	0.022959
2584	0.031709
2580	0.027179
2576	0.079178
2572	0.089693
2568	0.064849
2564	0.070309
2560	0.050830
2556	0.036931
2552	0.094747
2548	0.117635
2544	0.053596
2540	-0.004029
2536	0.009536
2532	0.089812
2528	0.130915
2524	0.048565
2520	-0.054383
2516	-0.044441
2512	0.019454
2508	0.028157
2504	-0.008511
2500	-0.027775
2496	0.023221
2492	0.113201
2488	0.122737
2484	0.036573
2480	-0.013279
2476	-0.009894
2472	-0.033450
2468	-0.086903
2464	-0.098347
2460	-0.026369
2456	0.074505
2452	0.107264
2448	0.044035
2444	-0.015926
2440	-0.015187
2436	0.025773
2432	0.034880
2428	-0.032687
2424	-0.079321
2420	-0.010824
2416	0.103998
2412	0.123977
2408	0.051021
2404	-0.002956
2400	0.019502
2396	0.004339
2392	-0.089430
2388	-0.106358
2384	-0.029253
2380	0.051617
2376	0.121688
2372	0.143599
2368	0.130891
2364	0.187206
2360	0.273609
2356	0.262093
2352	0.210475
2348	0.215220
2344	0.231885
2340	0.193476
2336	0.145077
2332	0.199890
2328	0.317096
2324	0.411510
2320	0.468659
2316	0.482058
2312	0.485634
2308	0.520610
2304	0.611090
2300	0.739812
2296	0.821518
2292	0.823330
2288	0.846695
2284	0.912880
2280	0.978040
2276	1.057124
2272	1.128888
2268	1.213121
2264	1.362538
2260	1.543760
2256	1.702165
2252	1.855015
2248	1.978111
2244	2.057552
2240	2.191114
2236	2.425885
2232	2.701926
2228	2.938508
2224	3.178930
2220	3.475618
2216	3.788971
2212	4.063844
2208	4.270339
2204	4.512095
2200	4.869008
2196	5.248665
2192	5.570125
2188	5.905485
2184	6.305432
2180	6.734132
2176	7.177209
2172	7.616615
2168	8.047270
2164	8.466601
2160	8.909845
2156	9.371113
2152	9.814476
2148	10.2956
2144	10.7975
2140	11.253
2136	11.7041
2132	12.2092
2128	12.7531
2124	13.3261
2120	13.9126
2116	14.4377
2112	14.9429
2108	15.4652
2104	15.926
2100	16.3612
2096	16.8418
2092	17.3712
2088	17.9368
2084	18.4755
2080	18.9715
2076	19.5326
2072	20.1627
2068	20.6369
2064	20.9703
2060	21.4102
2056	21.9368
2052	22.4309
2048	22.8792
2044	23.3199
2040	23.7211
2036	24.0659
2032	24.4439
2028	24.8422
2024	25.2237
2020	25.6302
2016	26.0245
2012	26.3443
2008	26.6852
2004	27.0866
2000	27.4374
1996	27.7297
1992	28.0162
1988	28.3034
1984	28.5906
1980	28.8626
1976	29.1055
1972	29.37
1968	29.7104
1964	30.0349
1960	30.2678
1956	30.4745
1952	30.6944
1948	30.8661
1944	30.9694
1940	31.0751
1936	31.228
1932	31.4712
1928	31.7598
1924	31.9953
1920	32.1642
1916	32.3056
1912	32.4516
1908	32.5911
1904	32.735
1900	32.883
1896	32.9885
1892	33.059
1888	33.1683
1884	33.2923
1880	33.385
1876	33.4805
1872	33.5879
1868	33.7332
1864	33.9008
1860	34.0184
1856	34.1115
1852	34.1948
1848	34.2223
1844	34.2242
1840	34.2648
1836	34.3376
1832	34.393
1828	34.4507
1824	34.5473
1820	34.6509
1816	34.7229
1812	34.7693
1808	34.837
1804	34.9506
1800	35.0468
1796	35.0529
1792	35.0029
1788	34.9596
1784	34.9596
1780	34.9995
1776	35.0534
1772	35.1328
1768	35.2242
1764	35.3138
1760	35.395
1756	35.4401
1752	35.4359
1748	35.391
1744	35.3601
1740	35.3924
1736	35.4467
1732	35.4269
1728	35.3236
1724	35.2098
1720	35.207
1716	35.3594
1712	35.5408
1708	35.6296
1704	35.6297
1700	35.6591
1696	35.7107
1692	35.6712
1688	35.6088
1684	35.5935
1680	35.5454
1676	35.4572
1672	35.3936
1668	35.4028
1664	35.4888
1660	35.5788
1656	35.6587
1652	35.734
1648	35.7843
1644	35.7946
1640	35.7402
1636	35.643
1632	35.5534
1628	35.5124
1624	35.4703
1620	35.4271
1616	35.4423
1612	35.4452
1608	35.4511
1604	35.5423
1600	35.6306
1596	35.6726
1592	35.7477
1588	35.8118
1584	35.7711
1580	35.6394
1576	35.5099
1572	35.4337
1568	35.3968
1564	35.3993
1560	35.4021
1556	35.3958
1552	35.4246
1548	35.4707
1544	35.5355
1540	35.6039
1536	35.6155
1532	35.6203
1528	35.6281
1524	35.5748
1520	35.4737
1516	35.3811
1512	35.3388
1508	35.362
1504	35.3979
1500	35.3443
1496	35.2523
1492	35.3291
1488	35.478
1484	35.5133
1480	35.527
1476	35.551
1472	35.5364
1468	35.4291
1464	35.2486
1460	35.1161
1456	35.0366
1452	35.0003
1448	35.0565
1444	35.1677
1440	35.2912
1436	35.3884
1432	35.4349
1428	35.4568
1424	35.4368
1420	35.3801
1416	35.3192
1412	35.2095
1408	35.0928
1404	35.0572
1400	35.035
1396	35.0232
1392	35.0632
1388	35.0766
1384	35.062
1380	35.0893
1376	35.1118
1372	35.105
1368	35.1176
1364	35.0655
1360	34.9614
1356	34.9269
1352	34.8744
1348	34.7728
1344	34.7315
1340	34.7521
1336	34.7714
1332	34.783
1328	34.8525
1324	34.9662
1320	35.0274
1316	35.0264
1312	35.0207
1308	34.981
1304	34.8573
1300	34.704
1296	34.573
1292	34.5165
1288	34.5416
1284	34.6225
1280	34.7302
1276	34.7614
1272	34.7539
1268	34.8093
1264	34.8184
1260	34.7383
1256	34.7242
1252	34.7486
1248	34.6746
1244	34.521
1240	34.3661
1236	34.2461
1232	34.1901
1228	34.2068
1224	34.236
1220	34.3163
1216	34.4637
1212	34.5247
1208	34.4862
1204	34.4866
1200	34.4936
1196	34.4575
1192	34.4381
1188	34.4101
1184	34.3171
1180	34.2008
1176	34.138
1172	34.1188
1168	34.119
1164	34.1709
1160	34.2334
1156	34.2403
1152	34.1629
1148	34.0447
1144	33.9611
1140	33.9271
1136	33.9245
1132	33.9118
1128	33.8948
1124	33.8252
1120	33.7343
1116	33.7962
1112	33.9168
1108	33.984
1104	33.9707
1100	33.8048
1096	33.7325
1092	33.8758
1088	33.9141
1084	33.7372
1080	33.5026
1076	33.3888
1072	33.3931
1068	33.3663
1064	33.326
1060	33.3197
1056	33.3459
1052	33.3621
1048	33.3683
1044	33.4093
1040	33.4214
1036	33.3217
1032	33.1889
1028	33.1665
1024	33.2265
1020	33.2285
1016	33.0812
1012	32.8911
1008	32.7807
1004	32.8054
1000	33.0091
996	 33.228
992	 33.2766
988	 33.2069
984	 33.1875
980	 33.2014
976	 33.1188
972	 32.9739
968	 32.7949
964	 32.6192
960	 32.5151
956	 32.4243
952	 32.2892
948	 32.2116
944	 32.3423
940	 32.5335
936	 32.5996
932	 32.6233
928	 32.5307
924	 32.3182
920	 32.3176
916	 32.4106
912	 32.2895
908	 32.1538
904	 32.0414
900	 31.898
896	 31.8606
892	 31.872
888	 31.8708
884	 31.8782
880	 31.9339
876	 32.0064
872	 31.8864
868	 31.6039
864	 31.4393
860	 31.4023
856	 31.3115
852	 31.114
848	 30.9463
844	 30.9307
840	 31.0005
836	 31.1046
832	 31.1707
828	 31.1354
824	 31.1019
820	 31.1434
816	 31.1834
812	 31.0681
808	 30.8083
804	 30.5646
800	 30.3938
796	 30.2681
792	 30.2388
788	 30.203
784	 30.0301
780	 29.9181
776	 29.9322
772	 29.9867
768	 30.068
764	 30.1008
760	 30.0353
756	 29.8715
752	 29.6696
748	 29.5226
744	 29.37
740	 29.225
736	 29.1392
732	 29.0837
728	 29.1071
724	 29.1096
720	 29.0486
716	 29.0222
712	 29.0017
708	 28.9689
704	 28.9325
700	 28.8408
696	 28.7019
692	 28.5008
688	 28.2641
684	 28.1337
680	 28.0408
676	 28.0247
672	 28.0839
668	 28.0396
664	 27.9904
660	 27.9471
656	 27.9365
652	 28.0041
648	 27.9716
644	 27.9617
640	 27.983
636	 27.5975
632	 26.9028
628	 26.4704
624	 26.3987
620	 26.5147
616	 26.6214
612	 26.4502
608	 26.1674
604	 26.0954
600	 26.1136
596	 26.2525
592	 26.5828
588	 26.7817
584	 26.6547
580	 26.2502
576	 25.6347
572	 25.0619
568	 24.9169
564	 25.049
560	 25.0635
556	 24.9426
552	 24.8641
548	 24.952
544	 25.0744
540	 25.2447
536	 25.402
532	 25.2646
528	 24.965
524	 24.5922
520	 24.1268
516	 23.6811
512	 23.4789
508	 23.7899
504	 24.0871
500	 23.9712
496	 23.9617
492	 24.0985
488	 23.841
484	 23.26
480	 22.8654
476	 22.7615
472	 23.1529
468	 23.7918
464	 23.5186
460	 22.5601
456	 22.1906
452	 22.042
448	 21.3678
444	 20.7695
440	 20.7843
436	 20.8587
432	 20.2824
428	 19.9346
424	 20.6325
420	 20.7145
416	 19.6743
412	 17.4693
408	 12.2079
404	 9.418869
400	 15.9244
396	 23.0015
392	 20.1053
388	 13.5043
384	 16.3367
380	 23.9544
376	 13.0159
372	 -0.116944
370	 4.850792