File: Bakgrunnsmateriale/MATLAB/FTIR/ftir_data/LPE453/Mapping_121/LPE453_t120_cm-1.asc
PE IR       SPECTRUM    SPECTRUM    ASCII       PEDS        1.60
  -1
LP0377~1.ASC
17/05/17
00:27:50.00
17/05/17
00:27:50.00
tln
$LPE453_t0120$<tbV0>[-10.4,13.0,8.0,0.0,27,1,0]
370
64

2002,4.07
MIRTGS : RIGHTBACK : INTERNAL 2
MIR : ON : INTERNAL 2
OPTKBR

0.200000
8
8.000000
FILLER
RATIO
SPECTRUM
UNLOCKED 256

DOUBLE
64
COMBINED
1
0
0

1.000000
RATIO

1
0
TRUE
51149
0
LEFT NOT FITTED RIGHT NOT FITTED 0
NONE
NONE
15600
12
4.427000
51148
TRUE
1 0 8 72 0 0 0 0

15798

#HDR
-1
-1
#GR
CM-1
%T
2.38419e-05
0.0
5000
-1.000000
4631
8
35.4139
-27.547
#DATA
5000	0.173974
4996	0.469684
4992	0.479745
4988	0.384569
4984	0.490713
4980	0.513768
4976	0.385689
4972	0.283241
4968	0.047278
4964	-0.243854
4960	-0.218534
4956	0.027155
4952	0.113201
4948	0.079107
4944	0.097823
4940	0.122928
4936	0.214385
4932	0.271129
4928	0.109171
4924	0.022625
4920	0.012016
4916	-0.138473
4912	-0.105166
4908	0.229001
4904	0.485467
4900	0.550651
4896	0.401401
4892	0.083661
4888	-0.000405
4884	0.221824
4880	0.354290
4876	0.160932
4872	-0.141572
4868	-0.329685
4864	-0.281858
4860	0.024342
4856	0.277280
4852	0.361800
4848	0.359702
4844	0.230836
4840	0.147819
4836	0.113868
4832	0.103831
4828	0.227785
4824	0.397586
4820	0.425362
4816	0.237631
4812	0.081324
4808	0.241541
4804	0.537109
4800	0.638556
4796	0.559234
4792	0.516557
4788	0.447082
4784	0.240898
4780	0.080490
4776	-0.056385
4772	-0.205254
4768	-0.290513
4764	-0.316429
4760	-0.227093
4756	0.087451
4752	0.231647
4748	-0.074696
4744	-0.301527
4740	-0.189828
4736	-0.019598
4732	0.059747
4728	0.356364
4724	0.863790
4720	0.958776
4716	0.496506
4712	0.277328
4708	0.400733
4704	-0.136852
4700	-0.549268
4696	-0.123786
4692	-0.036931
4688	-0.037431
4684	-0.162148
4680	-0.758957
4676	-0.332260
4672	0.385332
4668	-0.001788
4664	-0.373387
4660	0.064468
4656	0.815987
4652	1.061367
4648	0.495195
4644	-0.394773
4640	0.060391
4636	1.679039
4632	1.736640
4628	0.560426
4624	-0.048160
4620	-0.001025
4616	0.550699
4612	0.943922
4608	0.913667
4604	0.787901
4600	0.604891
4596	0.513219
4592	0.505733
4588	0.149464
4584	-0.288796
4580	-0.026369
4576	0.318074
4572	0.183463
4568	0.081229
4564	0.014352
4560	0.052332
4556	0.218462
4552	-0.087046
4548	-0.438785
4544	-0.509953
4540	-0.568771
4536	-0.190782
4532	0.304245
4528	0.166320
4524	-0.350141
4520	-0.629234
4516	-1.063203
4512	-1.271557
4508	-0.650477
4504	1.280093
4500	0.958871
4496	-0.934910
4492	4.271626
4488	10.0607
4484	9.092736
4480	3.948044
4476	-0.749826
4472	-0.542116
4468	0.524353
4464	0.682449
4460	0.796532
4456	0.691318
4452	-0.179982
4448	-0.947356
4444	-0.785326
4440	-0.532722
4436	-0.760483
4432	-0.970458
4428	-0.584077
4424	-0.108098
4420	-0.007677
4416	-0.099515
4412	-0.278949
4408	-0.221824
4404	0.205421
4400	0.565123
4396	0.650215
4392	0.524878
4388	0.262522
4384	0.159263
4380	0.316643
4376	0.371623
4372	0.274610
4368	0.179624
4364	0.046277
4360	-0.034856
4356	0.162243
4352	0.440716
4348	0.541400
4344	0.561428
4340	0.463747
4336	0.108265
4332	-0.168204
4328	-0.085353
4324	0.082397
4320	0.108528
4316	0.030517
4312	0.093173
4308	0.228691
4304	0.227117
4300	0.078725
4296	-0.144934
4292	0.035119
4288	0.440812
4284	0.289344
4280	-0.109815
4276	-0.224733
4272	-0.036931
4268	0.083494
4264	-0.135564
4260	-0.348949
4256	-0.288271
4252	-0.080204
4248	0.033473
4244	0.106430
4240	0.294113
4236	0.378155
4232	0.213265
4228	0.108623
4224	0.194406
4220	0.268101
4216	0.262618
4212	0.266742
4208	0.213813
4204	0.160956
4200	0.103449
4196	-0.081467
4192	-0.141501
4188	-0.088834
4184	-0.076866
4180	-0.068926
4176	-0.200963
4172	-0.429749
4168	-0.407147
4164	-0.107383
4160	0.197839
4156	0.330138
4152	0.269651
4148	0.126981
4144	0.072216
4140	0.151371
4136	0.204968
4132	0.136947
4128	0.119829
4124	0.149631
4120	0.098109
4116	0.111079
4112	0.208139
4108	0.230360
4104	0.202107
4100	0.202894
4096	0.189733
4092	0.171303
4088	0.106096
4084	-0.017285
4080	-0.025057
4076	0.041651
4072	0.087881
4068	0.143289
4064	0.191259
4060	0.240945
4056	0.278210
4052	0.250887
4048	0.115513
4044	-0.025129
4040	-0.023889
4036	-0.011157
4032	-0.055766
4028	-0.032424
4024	0.066542
4020	0.146961
4016	0.160765
4012	0.170493
4008	0.174045
4004	0.131988
4000	0.095963
3996	0.089025
3992	0.057125
3988	-0.005435
3984	-0.019288
3980	0.075054
3976	0.114941
3972	0.000691
3968	-0.000190
3964	0.047445
3960	0.069355
3956	0.216913
3952	0.233316
3948	0.118398
3944	0.124287
3940	0.191092
3936	0.216794
3932	0.197815
3928	0.099301
3924	-0.028562
3920	-0.028872
3916	0.029897
3912	0.037360
3908	0.017642
3904	-0.052452
3900	-0.127410
3896	-0.086903
3892	0.008201
3888	0.029063
3884	0.076270
3880	0.205421
3876	0.216865
3872	0.130462
3868	0.098848
3864	0.097680
3860	0.120902
3856	0.202178
3852	0.219917
3848	0.109219
3844	-0.000858
3840	-0.033378
3836	0.072288
3832	0.247383
3828	0.306797
3824	0.251126
3820	0.159263
3816	0.166249
3812	0.217175
3808	0.137305
3804	0.052571
3800	0.044703
3796	0.112771
3792	0.222063
3788	0.235891
3784	0.183892
3780	0.168633
3776	0.153851
3772	0.038266
3768	-0.048017
3764	-0.006675
3760	0.040006
3756	0.092124
3752	0.075387
3748	0.023531
3744	0.067138
3740	0.146341
3736	0.160908
3732	0.158786
3728	0.144696
3724	0.037550
3720	-0.028967
3716	0.047469
3712	0.133204
3708	0.203394
3704	0.231790
3700	0.145030
3696	0.027418
3692	-0.060319
3688	-0.079345
3684	-0.006389
3680	0.035405
3676	0.026369
3672	0.087165
3668	0.192284
3664	0.219297
3660	0.161600
3656	0.076293
3652	0.046753
3648	0.050544
3644	0.041103
3640	0.073671
3636	0.064802
3632	0.019788
3628	0.042581
3624	0.090765
3620	0.126457
3616	0.123929
3612	0.036001
3608	-0.077700
3604	-0.089073
3600	0.005841
3596	0.109195
3592	0.091743
3588	-0.004005
3584	-0.044631
3580	-0.003409
3576	0.056505
3572	0.055575
3568	0.057864
3564	0.164699
3560	0.267601
3556	0.242471
3552	0.160241
3548	0.097084
3544	0.041103
3540	0.004100
3536	0.014638
3532	0.048255
3528	0.035309
3524	-0.022292
3520	0.021362
3516	0.168776
3512	0.248599
3508	0.212574
3504	0.110721
3500	0.054669
3496	0.089716
3492	0.067067
3488	-0.020933
3484	0.012540
3480	0.093412
3476	0.059819
3472	-0.016260
3468	-0.067782
3464	-0.101709
3460	-0.125932
3456	-0.110459
3452	0.006747
3448	0.077819
3444	0.011873
3440	-0.018215
3436	-0.026702
3432	-0.016570
3428	0.020694
3424	-0.029873
3420	-0.085115
3416	0.009322
3412	0.095772
3408	0.032806
3404	-0.031661
3400	0.012850
3396	0.097274
3392	0.075936
3388	-0.022363
3384	-0.036382
3380	-0.017213
3376	-0.056433
3372	-0.038456
3368	0.042676
3364	0.040292
3360	0.001764
3356	0.043678
3352	0.080466
3348	0.068426
3344	0.058627
3340	0.047874
3336	0.015830
3332	-0.029063
3328	-0.080466
3324	-0.080704
3320	-0.007939
3316	0.081133
3312	0.144386
3308	0.074696
3304	-0.032258
3300	-0.017976
3296	-0.002074
3292	-0.004792
3288	0.080370
3284	0.172829
3280	0.143337
3276	0.054407
3272	0.034332
3268	0.014209
3264	-0.026679
3260	0.009036
3256	0.064444
3252	0.093150
3248	0.133514
3244	0.122809
3240	0.028848
3236	-0.028729
3232	-0.020313
3228	-0.033330
3224	-0.022864
3220	0.037646
3216	0.039434
3212	0.047492
3208	0.075292
3204	0.072932
3200	0.127935
3196	0.122332
3192	0.043058
3188	0.047755
3184	0.073671
3180	0.062513
3176	0.035953
3172	0.016951
3168	0.018143
3164	0.007104
3160	0.022268
3156	0.096201
3152	0.138092
3148	0.099182
3144	0.001335
3140	-0.123643
3136	-0.161123
3132	-0.087952
3128	-0.054121
3124	-0.060081
3120	0.024223
3116	0.139713
3112	0.113916
3108	0.004553
3104	-0.000238
3100	0.047087
3096	0.054812
3092	0.074052
3088	0.088310
3084	0.086140
3080	0.082492
3076	0.075984
3072	0.098919
3068	0.114417
3064	0.091552
3060	0.056290
3056	0.016427
3052	-0.005507
3048	0.000381
3044	0.013995
3040	0.010395
3036	-0.027775
3032	-0.030159
3028	0.011229
3024	0.014638
3020	0.036668
3016	0.057601
3012	0.011777
3008	-0.051712
3004	-0.132274
3000	-0.159811
2996	-0.082206
2992	-0.001978
2988	0.017642
2984	-0.010752
2980	0.012373
2976	0.087714
2972	0.081729
2968	0.023627
2964	-0.018453
2960	-0.028085
2956	-0.016736
2952	-0.026845
2948	-0.010633
2944	0.021076
2940	-0.003600
2936	-0.011777
2932	0.057172
2928	0.103020
2924	0.057697
2920	-0.008273
2916	-0.020599
2912	-0.001978
2908	-0.023102
2904	-0.044107
2900	-0.000119
2896	0.024580
2892	0.013089
2888	0.019907
2884	-0.006008
2880	-0.041770
2876	0.012660
2872	0.110673
2868	0.139713
2864	0.150585
2860	0.198721
2856	0.208520
2852	0.179171
2848	0.150704
2844	0.108528
2840	0.060582
2836	0.025939
2832	-0.009369
2828	-0.062727
2824	-0.098800
2820	-0.059032
2816	0.003075
2812	-0.003695
2808	-0.032091
2804	-0.040221
2800	-0.040698
2796	0.000500
2792	0.086021
2788	0.121164
2784	0.049090
2780	-0.009393
2776	0.004792
2772	0.017118
2768	0.044465
2764	0.057721
2760	0.004601
2756	-0.057935
2752	-0.102281
2748	-0.071859
2744	0.032544
2740	0.077152
2736	0.042200
2732	0.019240
2728	0.013351
2724	0.013017
2720	-0.011682
2716	-0.072693
2712	-0.061941
2708	0.000238
2704	0.011563
2700	0.016331
2696	0.033068
2692	0.024580
2688	0.031137
2684	0.084900
2680	0.140452
2676	0.133037
2672	0.051593
2668	-0.049328
2664	-0.073957
2660	-0.013613
2656	0.032019
2652	0.027990
2648	-0.001358
2644	-0.026679
2640	-0.036120
2636	-0.024247
2632	0.045275
2628	0.126051
2624	0.173068
2620	0.171041
2616	0.116229
2612	0.051808
2608	-0.008344
2604	-0.059533
2600	-0.100469
2596	-0.067830
2592	0.028204
2588	0.054931
2584	0.023698
2580	0.013685
2576	0.023174
2572	0.033068
2568	0.041031
2564	0.046205
2560	0.047802
2556	0.046324
2552	0.031471
2548	0.014972
2544	0.008535
2540	-0.003290
2536	-0.000071
2532	0.066709
2528	0.135397
2524	0.121951
2520	0.056934
2516	-0.003314
2512	-0.016784
2508	0.004601
2504	0.032162
2500	0.071811
2496	0.087857
2492	0.030946
2488	-0.048446
2484	-0.074863
2480	-0.061726
2476	-0.021028
2472	0.022935
2468	0.023269
2464	0.000929
2460	0.006508
2456	0.010919
2452	-0.018477
2448	-0.015902
2444	0.051808
2440	0.101566
2436	0.102591
2432	0.128245
2428	0.152373
2424	0.133323
2420	0.121951
2416	0.151920
2412	0.164937
2408	0.062179
2404	-0.067043
2400	-0.063228
2396	0.044393
2392	0.110697
2388	0.070738
2384	0.051212
2380	0.107645
2376	0.136518
2372	0.142168
2368	0.111556
2364	0.049400
2360	0.065612
2356	0.127911
2352	0.139904
2348	0.136470
2344	0.207328
2340	0.269317
2336	0.207400
2332	0.134348
2328	0.166034
2324	0.258779
2320	0.343394
2316	0.402069
2312	0.444293
2308	0.497031
2304	0.561714
2300	0.585722
2296	0.599598
2292	0.657153
2288	0.737833
2284	0.843763
2280	0.958800
2276	1.045489
2272	1.107978
2268	1.155853
2264	1.193284
2260	1.262784
2256	1.370692
2252	1.527810
2248	1.766371
2244	1.961970
2240	2.078318
2236	2.240777
2232	2.438855
2228	2.626442
2224	2.828931
2220	3.071188
2216	3.316164
2212	3.500008
2208	3.695225
2204	3.946542
2200	4.174685
2196	4.409122
2192	4.708957
2188	5.054664
2184	5.428957
2180	5.772066
2176	6.081986
2172	6.410861
2168	6.748747
2164	7.159495
2160	7.652378
2156	8.156585
2152	8.584952
2148	8.910202
2144	9.279632
2140	9.737467
2136	10.2132
2132	10.6843
2128	11.1422
2124	11.5757
2120	11.9689
2116	12.3738
2112	12.8231
2108	13.2937
2104	13.7902
2100	14.2798
2096	14.719
2092	15.1387
2088	15.5794
2084	16.0413
2080	16.5334
2076	17.04
2072	17.5332
2068	18.0035
2064	18.3837
2060	18.7311
2056	19.1814
2052	19.678
2048	20.1383
2044	20.5566
2040	20.9612
2036	21.3677
2032	21.7477
2028	22.0976
2024	22.4284
2020	22.7637
2016	23.1205
2012	23.4715
2008	23.7961
2004	24.1226
2000	24.4759
1996	24.8057
1992	25.0803
1988	25.382
1984	25.7038
1980	25.9778
1976	26.2414
1972	26.4853
1968	26.6897
1964	26.9396
1960	27.2626
1956	27.54
1952	27.7325
1948	27.9674
1944	28.2509
1940	28.4421
1936	28.5526
1932	28.6886
1928	28.8797
1924	29.0781
1920	29.2525
1916	29.451
1912	29.6626
1908	29.8604
1904	30.0683
1900	30.2602
1896	30.408
1892	30.5337
1888	30.6503
1884	30.77
1880	30.9161
1876	31.0549
1872	31.1472
1868	31.2381
1864	31.3575
1860	31.4638
1856	31.5866
1852	31.7501
1848	31.8521
1844	31.9134
1840	32.0045
1836	32.0848
1832	32.1896
1828	32.3312
1824	32.4301
1820	32.4867
1816	32.5884
1812	32.7048
1808	32.7202
1804	32.6889
1800	32.7305
1796	32.8252
1792	32.9294
1788	33.0645
1784	33.197
1780	33.2781
1776	33.3406
1772	33.4049
1768	33.4527
1764	33.4648
1760	33.475
1756	33.5088
1752	33.5271
1748	33.5415
1744	33.5675
1740	33.6108
1736	33.6719
1732	33.7134
1728	33.7913
1724	33.9614
1720	34.1146
1716	34.1466
1712	34.1203
1708	34.1307
1704	34.1793
1700	34.2103
1696	34.1964
1692	34.1857
1688	34.2065
1684	34.2403
1680	34.2502
1676	34.2797
1672	34.3835
1668	34.4898
1664	34.5751
1660	34.6559
1656	34.6637
1652	34.6081
1648	34.6131
1644	34.6421
1640	34.6445
1636	34.6763
1632	34.693
1628	34.6728
1624	34.6468
1620	34.6322
1616	34.6868
1612	34.7765
1608	34.8235
1604	34.8559
1600	34.9039
1596	34.9396
1592	34.973
1588	35.0053
1584	35.0172
1580	35.0081
1576	34.9599
1572	34.9149
1568	34.9385
1564	34.9766
1560	34.9724
1556	34.953
1552	34.9751
1548	35.0476
1544	35.1211
1540	35.174
1536	35.2363
1532	35.2763
1528	35.242
1524	35.1889
1520	35.1794
1516	35.2011
1512	35.2188
1508	35.2086
1504	35.2086
1500	35.2005
1496	35.1289
1492	35.1084
1488	35.1607
1484	35.2032
1480	35.2522
1476	35.3078
1472	35.3565
1468	35.3418
1464	35.2386
1460	35.0953
1456	34.9982
1452	35.0075
1448	35.0622
1444	35.0757
1440	35.0907
1436	35.1718
1432	35.2583
1428	35.2899
1424	35.2885
1420	35.2716
1416	35.2201
1412	35.1822
1408	35.1911
1404	35.1816
1400	35.1607
1396	35.1423
1392	35.0503
1388	34.9605
1384	34.9956
1380	35.1172
1376	35.2562
1372	35.2915
1368	35.2113
1364	35.2035
1360	35.3261
1356	35.4139
1352	35.3657
1348	35.2366
1344	35.0835
1340	35.0056
1336	34.9886
1332	34.9015
1328	34.7934
1324	34.7698
1320	34.8396
1316	34.9162
1312	34.9489
1308	34.9879
1304	35.0112
1300	35.0057
1296	34.9945
1292	34.9467
1288	34.8605
1284	34.7737
1280	34.7055
1276	34.652
1272	34.656
1268	34.6923
1264	34.6364
1260	34.5703
1256	34.6219
1252	34.7178
1248	34.806
1244	34.8729
1240	34.8613
1236	34.7764
1232	34.7171
1228	34.6714
1224	34.5615
1220	34.4292
1216	34.3441
1212	34.3007
1208	34.2709
1204	34.2929
1200	34.3871
1196	34.483
1192	34.5003
1188	34.4537
1184	34.4158
1180	34.3897
1176	34.3746
1172	34.3571
1168	34.2948
1164	34.1931
1160	34.0815
1156	33.9695
1152	33.8565
1148	33.8356
1144	33.914
1140	33.9493
1136	33.9355
1132	33.9162
1128	33.9235
1124	34.0291
1120	34.1246
1116	34.0667
1112	33.9489
1108	33.9369
1104	33.9179
1100	33.709
1096	33.4641
1092	33.281
1088	33.1468
1084	33.1406
1080	33.2155
1076	33.2952
1072	33.3682
1068	33.3833
1064	33.3933
1060	33.497
1056	33.5603
1052	33.441
1048	33.209
1044	33.009
1040	32.9504
1036	32.9429
1032	32.851
1028	32.7339
1024	32.6052
1020	32.5188
1016	32.4871
1012	32.4348
1008	32.4798
1004	32.6488
1000	32.8255
996	 32.8608
992	 32.7206
988	 32.6102
984	 32.6387
980	 32.6565
976	 32.4934
972	 32.2499
968	 32.1149
964	 32.0529
960	 31.9958
956	 31.9527
952	 31.9616
948	 32.066
944	 32.138
940	 32.0867
936	 32.0248
932	 32.0151
928	 32.0112
924	 31.9273
920	 31.7412
916	 31.5271
912	 31.3565
908	 31.2538
904	 31.1975
900	 31.2159
896	 31.3133
892	 31.3345
888	 31.2632
884	 31.1943
880	 31.1265
876	 31.1142
872	 31.0863
868	 31.0158
864	 30.9928
860	 30.8821
856	 30.6318
852	 30.4934
848	 30.5011
844	 30.4206
840	 30.2823
836	 30.2213
832	 30.1827
828	 30.1147
824	 30.078
820	 30.1697
816	 30.2725
812	 30.1825
808	 30.0468
804	 30.0056
800	 29.8796
796	 29.6985
792	 29.5706
788	 29.4399
784	 29.3392
780	 29.3032
776	 29.3166
772	 29.2968
768	 29.2806
764	 29.3833
760	 29.5152
756	 29.5622
752	 29.4732
748	 29.3461
744	 29.2481
740	 29.1226
736	 28.9527
732	 28.7451
728	 28.6522
724	 28.598
720	 28.3903
716	 28.2035
712	 28.0724
708	 28.0224
704	 28.1951
700	 28.3298
696	 28.3214
692	 28.3273
688	 28.2973
684	 28.2601
680	 28.1179
676	 27.8058
672	 27.5985
668	 27.4465
664	 27.1992
660	 27.139
656	 27.1616
652	 26.9458
648	 26.7814
644	 26.8278
640	 26.895
636	 26.9957
632	 27.0335
628	 26.8566
624	 26.6918
620	 26.6531
616	 26.5424
612	 26.314
608	 26.0975
604	 26.1112
600	 26.2303
596	 26.0556
592	 25.6844
588	 25.5531
584	 25.758
580	 25.9659
576	 26.0303
572	 26.0873
568	 26.0885
564	 25.8636
560	 25.6804
556	 25.6992
552	 25.5143
548	 25.2101
544	 24.9491
540	 24.6033
536	 24.4357
532	 24.498
528	 24.4915
524	 24.3597
520	 24.2038
516	 24.2339
512	 24.3583
508	 24.2259
504	 24.1667
500	 24.3321
496	 24.2739
492	 23.9871
488	 23.662
484	 23.1083
480	 22.4227
476	 22.1426
472	 22.4233
468	 22.8014
464	 22.7329
460	 22.556
456	 22.5399
452	 22.5902
448	 23.0795
444	 23.1818
440	 22.5331
436	 22.3461
432	 21.6006
428	 19.4861
424	 18.0466
420	 18.4938
416	 20.1442
412	 20.0628
408	 17.6508
404	 18.5409
400	 22.7443
396	 24.9874
392	 26.5733
388	 28.4575
384	 26.7156
380	 17.0248
376	 -7.628297
372	 -26.9721
370	 -26.5445