File: Bakgrunnsmateriale/MATLAB/FTIR/ftir_data/LPE453/Mapping_121/LPE453_t119_cm-1.asc
PE IR       SPECTRUM    SPECTRUM    ASCII       PEDS        1.60
  -1
LP0CFC~1.ASC
17/05/17
00:23:13.00
17/05/17
00:23:13.00
tln
$LPE453_t0119$<tbV0>[-7.8,13.0,8.0,0.0,27,1,0]
370
64

2002,4.07
MIRTGS : RIGHTBACK : INTERNAL 2
MIR : ON : INTERNAL 2
OPTKBR

0.200000
8
8.000000
FILLER
RATIO
SPECTRUM
UNLOCKED 256

DOUBLE
64
COMBINED
1
0
0

1.000000
RATIO

1
0
TRUE
51149
0
LEFT NOT FITTED RIGHT NOT FITTED 0
NONE
NONE
15600
12
4.427000
51148
TRUE
1 0 8 72 0 0 0 0

15798

#HDR
-1
-1
#GR
CM-1
%T
2.38419e-05
0.0
5000
-1.000000
4631
8
34.7155
-2.741217
#DATA
5000	0.275731
4996	0.257778
4992	0.087475
4988	-0.057768
4984	-0.046277
4980	0.011539
4976	0.020670
4972	0.091004
4968	0.205540
4964	0.249695
4960	0.262951
4956	0.212192
4952	0.102734
4948	0.111436
4944	0.160050
4940	0.125432
4936	0.126409
4932	0.085258
4928	-0.073289
4924	-0.113034
4920	-0.046777
4916	-0.097870
4912	-0.214624
4908	-0.212788
4904	-0.122022
4900	-0.050067
4896	0.133347
4892	0.319433
4888	0.268936
4884	0.229668
4880	0.316715
4876	0.268745
4872	0.220251
4868	0.358581
4864	0.431823
4860	0.263142
4856	0.172710
4852	0.104522
4848	-0.009250
4844	0.037050
4840	0.064420
4836	0.157141
4832	0.432944
4828	0.484585
4824	0.242304
4820	0.095772
4816	0.046205
4812	0.008320
4808	0.101757
4804	0.185704
4800	0.238108
4796	0.348806
4792	0.307607
4788	0.047636
4784	-0.093722
4780	-0.005674
4776	0.179791
4772	0.313901
4768	0.155162
4764	-0.094437
4760	-0.247693
4756	-0.166797
4752	-0.040459
4748	-0.174903
4744	-0.253963
4740	0.170254
4736	0.635647
4732	0.666165
4728	0.340604
4724	0.005888
4720	-0.113749
4716	-0.023746
4712	0.271272
4708	0.656676
4704	0.945854
4700	0.916552
4696	0.596404
4692	0.337958
4688	0.133109
4684	0.044679
4680	0.191855
4676	0.583624
4672	1.133179
4668	1.290965
4664	1.519489
4660	2.215909
4656	1.962327
4652	0.652003
4648	0.078868
4644	1.063823
4640	2.124714
4636	1.706743
4632	0.813961
4628	0.662732
4624	0.973367
4620	0.843048
4616	0.752639
4612	0.840640
4608	0.354838
4604	-0.119090
4600	0.049448
4596	0.261950
4592	0.068712
4588	-0.199007
4584	-0.304675
4580	0.094413
4576	0.698947
4572	0.588345
4568	-0.046205
4564	-0.672793
4560	-1.089262
4556	-1.066899
4552	-0.887918
4548	-0.592112
4544	-0.275516
4540	-0.318741
4536	-0.165295
4532	-0.173711
4528	-0.589632
4524	-0.930333
4520	-0.961661
4516	-1.074600
4512	-1.174616
4508	0.602340
4504	7.775306
4500	14.8064
4496	15.4957
4492	15.6567
4488	14.5488
4484	9.049367
4480	1.735687
4476	-2.502632
4472	-2.338790
4468	-1.502037
4464	-1.262426
4460	-1.288914
4456	-1.554536
4452	-1.661944
4448	-1.339292
4444	-0.819802
4440	-0.266122
4436	-0.117039
4432	-0.398588
4428	-0.619912
4424	-0.468420
4420	-0.124096
4416	0.136470
4412	0.410914
4408	0.653719
4404	0.847911
4400	1.056909
4396	0.986194
4392	0.770998
4388	0.852489
4384	1.034069
4380	0.963449
4376	0.857257
4372	0.889778
4368	0.979065
4364	0.931549
4360	0.672221
4356	0.512599
4352	0.578546
4348	0.744891
4344	0.848221
4340	0.603389
4336	0.253105
4332	0.285124
4328	0.470018
4324	0.491881
4320	0.504946
4316	0.444245
4312	0.214767
4308	0.180268
4304	0.372338
4300	0.466084
4296	0.438785
4292	0.367498
4288	0.287222
4284	0.274109
4280	0.209712
4276	0.206398
4272	0.258326
4268	0.119662
4264	-0.004959
4260	0.005507
4256	0.092363
4252	0.095772
4248	-0.046277
4244	-0.118088
4240	-0.115370
4236	-0.063729
4232	-0.020742
4228	-0.012731
4224	0.055146
4220	0.122094
4216	0.219607
4212	0.300455
4208	0.219488
4204	0.184798
4200	0.261950
4196	0.251746
4192	0.142407
4188	-0.019145
4184	-0.037264
4180	0.229525
4176	0.368285
4172	0.250554
4168	0.175309
4164	0.287270
4160	0.464367
4156	0.437235
4152	0.232744
4148	0.188350
4144	0.279760
4140	0.357580
4136	0.432777
4132	0.391387
4128	0.309658
4124	0.319910
4120	0.301432
4116	0.258302
4112	0.322961
4108	0.354933
4104	0.205516
4100	0.088906
4096	0.113749
4092	0.136303
4088	0.083827
4084	-0.021290
4080	-0.065159
4076	0.010228
4072	0.095200
4068	0.093770
4064	0.009131
4060	0.009727
4056	0.090146
4052	0.090527
4048	0.067257
4044	0.057935
4040	0.009202
4036	0.030970
4032	0.119280
4028	0.086188
4024	0.043034
4020	0.069308
4016	0.082445
4012	0.058960
4008	0.076270
4004	0.158214
4000	0.113010
3996	0.004410
3992	-0.012755
3988	0.020360
3984	0.077366
3980	0.165152
3976	0.232791
3972	0.216388
3968	0.128149
3964	0.088906
3960	0.140643
3956	0.172805
3952	0.172138
3948	0.215649
3944	0.245285
3940	0.198864
3936	0.144910
3932	0.066232
3928	0.038409
3924	0.180816
3920	0.288176
3916	0.219249
3912	0.131344
3908	0.125813
3904	0.160121
3900	0.192594
3896	0.203347
3892	0.236248
3888	0.269198
3884	0.156903
3880	0.020813
3876	0.030779
3872	0.094318
3868	0.039029
3864	-0.049114
3860	-0.007939
3856	0.092530
3852	0.191569
3848	0.265145
3844	0.181555
3840	0.057077
3836	0.034785
3832	-0.026178
3828	-0.080180
3824	-0.055646
3820	-0.072526
3816	-0.098299
3812	-0.020360
3808	0.049948
3804	0.067257
3800	0.132727
3796	0.163173
3792	0.122690
3788	0.056076
3784	0.006008
3780	0.019812
3776	0.059485
3772	0.080776
3768	0.138449
3764	0.232195
3760	0.263404
3756	0.247883
3752	0.225758
3748	0.203585
3744	0.190997
3740	0.191569
3736	0.211095
3732	0.174880
3728	0.057387
3724	-0.012373
3720	0.032138
3716	0.144410
3712	0.136494
3708	-0.058293
3704	-0.171327
3700	-0.116705
3696	-0.001597
3692	0.121045
3688	0.168156
3684	0.137400
3680	0.100135
3676	0.034284
3672	-0.073981
3668	-0.112414
3664	-0.042247
3660	0.049662
3656	0.157976
3652	0.196719
3648	0.053071
3644	-0.060057
3640	0.005626
3636	0.081944
3632	0.095343
3628	0.105714
3624	0.111293
3620	0.086069
3616	0.010919
3612	-0.061178
3608	-0.067710
3604	-0.022220
3600	0.054860
3596	0.108623
3592	0.091123
3588	0.074410
3584	0.115728
3580	0.105738
3576	0.020742
3572	-0.034236
3568	0.006985
3564	0.075459
3560	0.098276
3556	0.168061
3552	0.195384
3548	0.109815
3544	0.133037
3540	0.222897
3536	0.169301
3532	0.090670
3528	0.136208
3524	0.214457
3520	0.182962
3516	0.092005
3512	0.028777
3508	-0.026440
3504	-0.043988
3500	-0.078272
3496	-0.111317
3492	-0.048875
3488	0.038528
3484	0.152206
3480	0.248742
3476	0.176525
3472	0.022578
3468	-0.044846
3464	-0.077700
3460	-0.165271
3456	-0.209188
3452	-0.130939
3448	-0.046324
3444	-0.001955
3440	0.026750
3436	0.038409
3432	0.068044
3428	0.125455
3424	0.150513
3420	0.067710
3416	-0.006747
3412	0.020194
3408	0.063800
3404	0.091576
3400	0.101590
3396	0.105118
3392	0.100898
3388	0.080847
3384	0.100350
3380	0.132298
3376	0.083327
3372	0.004267
3368	0.004482
3364	0.051212
3360	0.058484
3356	0.046229
3352	0.030255
3348	-0.009703
3344	-0.071787
3340	-0.090122
3336	-0.027012
3332	0.014257
3328	0.014925
3324	0.035285
3320	0.048375
3316	0.048494
3312	0.100874
3308	0.131940
3304	0.030803
3300	-0.062298
3296	-0.080156
3292	-0.079441
3288	0.032162
3284	0.175333
3280	0.180196
3276	0.144886
3272	0.103330
3268	0.062370
3264	0.110054
3260	0.195407
3256	0.204443
3252	0.148940
3248	0.091958
3244	0.074911
3240	0.046634
3236	-0.048160
3232	-0.132274
3228	-0.160384
3224	-0.097298
3220	-0.005626
3216	0.006747
3212	0.033617
3208	0.048899
3204	0.002241
3200	-0.022339
3196	0.010466
3192	0.108885
3188	0.170540
3184	0.128984
3180	0.048160
3176	0.029778
3172	0.037860
3168	-0.011992
3164	-0.020837
3160	0.039339
3156	0.041508
3152	-0.012445
3148	0.023579
3144	0.120520
3140	0.145602
3136	0.122094
3132	0.148677
3128	0.192236
3124	0.147461
3120	0.111150
3116	0.147938
3112	0.112390
3108	0.001502
3104	-0.002121
3100	0.062465
3096	0.068545
3092	0.043034
3088	0.027894
3084	0.042796
3080	0.034737
3076	0.016689
3072	0.030684
3068	0.045347
3064	0.071454
3060	0.106024
3056	0.115132
3052	0.082564
3048	0.055146
3044	0.085926
3040	0.111246
3036	0.099587
3032	0.113821
3028	0.146007
3024	0.134015
3020	0.086903
3016	0.034832
3012	-0.016331
3008	-0.043725
3004	-0.089764
3000	-0.113010
2996	-0.066518
2992	-0.040888
2988	0.020098
2984	0.137758
2980	0.172781
2976	0.131154
2972	0.102782
2968	0.088620
2964	0.091361
2960	0.079512
2956	-0.018525
2952	-0.099992
2948	-0.062084
2944	-0.039005
2940	-0.104331
2936	-0.110769
2932	-0.021672
2928	0.052380
2924	0.092911
2920	0.097823
2916	0.061821
2912	0.045514
2908	0.057554
2904	0.059723
2900	0.050401
2896	0.052022
2892	0.080060
2888	0.061130
2884	-0.035119
2880	-0.055003
2876	0.014948
2872	0.040793
2868	0.055217
2864	0.103688
2860	0.117349
2856	0.087332
2852	0.075721
2848	0.048708
2844	-0.016021
2840	-0.011849
2836	0.044298
2832	0.059700
2828	0.053262
2824	0.036740
2820	0.037264
2816	0.035238
2812	-0.026035
2808	-0.078129
2804	-0.082325
2800	-0.024938
2796	0.081396
2792	0.106191
2788	0.084090
2784	0.102496
2780	0.085401
2776	0.047111
2772	0.042796
2768	0.039339
2764	0.011897
2760	-0.024485
2756	-0.053548
2752	-0.063753
2748	-0.035929
2744	0.019168
2740	0.083422
2736	0.142240
2732	0.167775
2728	0.141024
2724	0.084757
2720	0.053882
2716	0.052499
2712	0.065255
2708	0.039744
2704	-0.030565
2700	-0.075197
2696	-0.062704
2692	-0.003910
2688	0.041437
2684	0.036072
2680	0.014638
2676	0.004577
2672	0.025725
2668	0.044226
2664	0.023579
2660	0.004243
2656	0.016307
2652	0.022649
2648	-0.003838
2644	0.000000
2640	0.066661
2636	0.105881
2632	0.102591
2628	0.109434
2624	0.070834
2620	-0.007748
2616	-0.046515
2612	-0.012159
2608	0.043630
2604	0.047278
2600	0.050902
2596	0.024986
2592	0.004935
2588	0.121521
2584	0.216698
2580	0.147032
2576	0.040578
2572	0.019955
2568	0.045728
2564	0.076961
2560	0.108027
2556	0.080037
2552	0.030922
2548	0.058054
2544	0.111842
2540	0.086641
2536	0.005459
2532	-0.052714
2528	-0.072312
2524	-0.010395
2520	0.082635
2516	0.061845
2512	0.020837
2508	0.032258
2504	0.008440
2500	0.019907
2496	0.052118
2492	0.007009
2488	-0.031852
2484	-0.013804
2480	0.000309
2476	-0.014948
2472	-0.000834
2468	0.051569
2464	0.042700
2460	-0.002145
2456	-0.001478
2452	0.040435
2448	0.093007
2444	0.120210
2440	0.089359
2436	0.032043
2432	0.027680
2428	0.114536
2424	0.213003
2420	0.220131
2416	0.157880
2412	0.077342
2408	0.029206
2404	0.032424
2400	0.063323
2396	0.094604
2392	0.057649
2388	0.024390
2384	0.052714
2380	0.053000
2376	0.050663
2372	0.088071
2368	0.094747
2364	0.076055
2360	0.063323
2356	0.053882
2352	0.103712
2348	0.223541
2344	0.323462
2340	0.338029
2336	0.333428
2332	0.343489
2328	0.352549
2324	0.381445
2320	0.421810
2316	0.464892
2312	0.483703
2308	0.483250
2304	0.493288
2300	0.503110
2296	0.545978
2292	0.621986
2288	0.689005
2284	0.751590
2280	0.821900
2276	0.904417
2272	0.991892
2268	1.087498
2264	1.210212
2260	1.334309
2256	1.441264
2252	1.579165
2248	1.732444
2244	1.862597
2240	1.996016
2236	2.172756
2232	2.404737
2228	2.656221
2224	2.867794
2220	3.015470
2216	3.163313
2212	3.365063
2208	3.637552
2204	3.958797
2200	4.254055
2196	4.503035
2192	4.744935
2188	5.033349
2184	5.403089
2180	5.817890
2176	6.190395
2172	6.516838
2168	6.880640
2164	7.286047
2160	7.642865
2156	7.979273
2152	8.391976
2148	8.857798
2144	9.325146
2140	9.760928
2136	10.1637
2132	10.5613
2128	10.9788
2124	11.4251
2120	11.8837
2116	12.3582
2112	12.8523
2108	13.382
2104	13.9211
2100	14.3692
2096	14.7432
2092	15.1594
2088	15.6337
2084	16.1433
2080	16.6012
2076	16.9016
2072	17.2202
2068	17.7043
2064	18.258
2060	18.804
2056	19.26
2052	19.6129
2048	19.9854
2044	20.3895
2040	20.7635
2036	21.1184
2032	21.459
2028	21.836
2024	22.257
2020	22.6344
2016	22.9421
2012	23.2493
2008	23.6332
2004	24.0599
2000	24.4396
1996	24.6876
1992	24.8448
1988	25.0685
1984	25.342
1980	25.5912
1976	25.8632
1972	26.1755
1968	26.4931
1964	26.7893
1960	27.0913
1956	27.4186
1952	27.6882
1948	27.8858
1944	28.0721
1940	28.2675
1936	28.4577
1932	28.6141
1928	28.7632
1924	28.9071
1920	29.0496
1916	29.2221
1912	29.4049
1908	29.6138
1904	29.8207
1900	29.9736
1896	30.1257
1892	30.3056
1888	30.4691
1884	30.5706
1880	30.6472
1876	30.75
1872	30.8153
1868	30.8557
1864	30.9578
1860	31.098
1856	31.2313
1852	31.3583
1848	31.506
1844	31.6686
1840	31.8136
1836	31.9309
1832	32.0228
1828	32.0964
1824	32.1652
1820	32.2489
1816	32.3334
1812	32.38
1808	32.3825
1804	32.3708
1800	32.4341
1796	32.5646
1792	32.681
1788	32.8396
1784	32.9923
1780	33.0485
1776	33.1028
1772	33.1593
1768	33.1515
1764	33.1294
1760	33.1416
1756	33.1443
1752	33.0958
1748	33.0882
1744	33.1776
1740	33.2736
1736	33.3631
1732	33.5081
1728	33.6834
1724	33.7946
1720	33.8091
1716	33.7935
1712	33.7828
1708	33.7877
1704	33.8014
1700	33.7919
1696	33.7619
1692	33.7581
1688	33.8259
1684	33.896
1680	33.9211
1676	33.9585
1672	34.0245
1668	34.0727
1664	34.1163
1660	34.2247
1656	34.3143
1652	34.2887
1648	34.2322
1644	34.1707
1640	34.1063
1636	34.097
1632	34.1026
1628	34.0957
1624	34.1119
1620	34.1546
1616	34.2458
1612	34.345
1608	34.4231
1604	34.5614
1600	34.6899
1596	34.6436
1592	34.4756
1588	34.3546
1584	34.2952
1580	34.233
1576	34.2173
1572	34.2512
1568	34.2964
1564	34.3519
1560	34.4226
1556	34.4911
1552	34.5464
1548	34.6323
1544	34.7048
1540	34.7098
1536	34.6601
1532	34.6029
1528	34.5687
1524	34.5007
1520	34.4214
1516	34.3691
1512	34.3249
1508	34.3377
1504	34.3997
1500	34.4255
1496	34.4147
1492	34.508
1488	34.6487
1484	34.6194
1480	34.5277
1476	34.5519
1472	34.5878
1468	34.5001
1464	34.3692
1460	34.2401
1456	34.1748
1452	34.2531
1448	34.3653
1444	34.4352
1440	34.4691
1436	34.4652
1432	34.4377
1428	34.3903
1424	34.3439
1420	34.3467
1416	34.3895
1412	34.4099
1408	34.3515
1404	34.2279
1400	34.1277
1396	34.0585
1392	34.004
1388	33.9928
1384	34.0484
1380	34.1668
1376	34.2698
1372	34.3268
1368	34.3388
1364	34.2892
1360	34.2531
1356	34.2511
1352	34.1954
1348	34.0533
1344	33.888
1340	33.7723
1336	33.7221
1332	33.745
1328	33.8156
1324	33.8865
1320	33.9538
1316	33.998
1312	34.043
1308	34.1176
1304	34.1518
1300	34.1093
1296	34.0124
1292	33.9014
1288	33.7979
1284	33.6768
1280	33.5505
1276	33.5016
1272	33.549
1268	33.5706
1264	33.5136
1260	33.4914
1256	33.57
1252	33.6794
1248	33.7239
1244	33.7448
1240	33.8093
1236	33.7836
1232	33.6219
1228	33.4656
1224	33.3727
1220	33.3014
1216	33.219
1212	33.1912
1208	33.2262
1204	33.2229
1200	33.2325
1196	33.3456
1192	33.4758
1188	33.494
1184	33.473
1180	33.465
1176	33.4106
1172	33.3247
1168	33.2073
1164	33.0325
1160	32.917
1156	32.8918
1152	32.8591
1148	32.8437
1144	32.8872
1140	32.9759
1136	33.0501
1132	33.0407
1128	33.0297
1124	33.0959
1120	33.1323
1116	33.017
1112	32.8388
1108	32.679
1104	32.5515
1100	32.4767
1096	32.3674
1092	32.2761
1088	32.3358
1084	32.5044
1080	32.5931
1076	32.5457
1072	32.516
1068	32.5513
1064	32.6171
1060	32.6508
1056	32.5684
1052	32.3989
1048	32.2021
1044	31.9968
1040	31.9118
1036	31.967
1032	32.0039
1028	31.9809
1024	31.9215
1020	31.9419
1016	32.0608
1012	32.117
1008	32.1075
1004	32.09
1000	32.1026
996	 32.1119
992	 32.0312
988	 31.8794
984	 31.7682
980	 31.7435
976	 31.6707
972	 31.5186
968	 31.4134
964	 31.3602
960	 31.3315
956	 31.3568
952	 31.3602
948	 31.3406
944	 31.4236
940	 31.5999
936	 31.7341
932	 31.6337
928	 31.3317
924	 31.1061
920	 31.0414
916	 30.9526
912	 30.7463
908	 30.5721
904	 30.502
900	 30.5377
896	 30.6226
892	 30.6385
888	 30.5989
884	 30.6306
880	 30.7653
876	 30.8345
872	 30.7442
868	 30.5825
864	 30.4606
860	 30.3758
856	 30.2572
852	 30.0832
848	 29.9175
844	 29.8385
840	 29.8448
836	 29.8765
832	 29.8735
828	 29.8729
824	 29.9739
820	 30.1432
816	 30.1482
812	 29.9562
808	 29.8784
804	 29.8796
800	 29.7071
796	 29.4702
792	 29.3049
788	 29.2233
784	 29.1126
780	 28.9713
776	 28.9994
772	 29.1211
768	 29.2032
764	 29.2698
760	 29.3633
756	 29.4319
752	 29.3201
748	 29.0895
744	 28.8587
740	 28.6611
736	 28.5167
732	 28.404
728	 28.3553
724	 28.3364
720	 28.3672
716	 28.4208
712	 28.3148
708	 28.2254
704	 28.32
700	 28.4279
696	 28.4769
692	 28.3851
688	 28.1514
684	 28.0136
680	 27.9346
676	 27.6843
672	 27.3602
668	 27.2449
664	 27.2293
660	 27.1926
656	 27.2281
652	 27.277
648	 27.3996
644	 27.5234
640	 27.4841
636	 27.3215
632	 27.2102
628	 27.3303
624	 27.3633
620	 27.004
616	 26.6549
612	 26.4612
608	 26.1713
604	 25.9402
600	 25.8926
596	 25.8499
592	 25.8183
588	 25.8757
584	 25.9441
580	 26.1177
576	 26.2481
572	 26.1682
568	 25.9705
564	 25.6637
560	 25.5338
556	 25.4768
552	 25.227
548	 25.0687
544	 24.9826
540	 24.8984
536	 24.8122
532	 24.5262
528	 24.3389
524	 24.4081
520	 24.6308
516	 24.8342
512	 24.5944
508	 24.1308
504	 24.0867
500	 24.3673
496	 24.3289
492	 23.6531
488	 22.687
484	 22.0649
480	 22.1811
476	 22.8205
472	 23.3039
468	 23.0908
464	 22.3834
460	 22.0168
456	 22.2805
452	 22.7169
448	 22.7001
444	 22.3811
440	 22.4315
436	 22.8332
432	 22.7826
428	 21.974
424	 20.7708
420	 18.2318
416	 15.4451
412	 14.8833
408	 15.7244
404	 16.3681
400	 16.9003
396	 20.6151
392	 24.876
388	 20.1494
384	 12.8444
380	 11.2444
376	 15.2276
372	 19.7472
370	 14.5922