File: Bakgrunnsmateriale/MATLAB/FTIR/ftir_data/LPE453/Mapping_121/LPE453_e127.asc
PE IR       SPECTRUM    SPECTRUM    ASCII       PEDS        1.60
  -1
LP8F83~1.ASC
17/05/16
23:26:29.00
17/05/16
23:26:55.00
tln
$LPE453_e0127$<ebV0>[-23.3,12.1,10.0,0.0,27,1,0]
27.028
64

2002,4.07
MIRTGS : RIGHTBACK : INTERNAL 2
MIR : ON : INTERNAL 2
OPTKBR

0.200000
8
8.000000
FILLER
SINGLE
SPECTRUM
UNLOCKED 256

DOUBLE

COMBINED
1
0
0

0.002000
BACKG

1
0
TRUE
51149
0
LEFT NOT FITTED RIGHT NOT FITTED 0
NONE
NONE
15600
12
4.427000
51148
TRUE
1 0 8 72 0 0 0 0

15798

#HDR
-1
-1
#GR
µM
EGY
2.38419e-05
0.0
2.000000
0.002000
12515
8
2.419396
0.007241
#DATA
2.000000	 0.767540
2.018000	 0.789142
2.036000	 0.806440
2.054000	 0.824009
2.072000	 0.849154
2.090000	 0.877852
2.108000	 0.892139
2.126000	 0.901329
2.144000	 0.920187
2.162000	 0.914552
2.180000	 0.939490
2.198000	 0.964184
2.216000	 0.971355
2.234000	 0.996319
2.252000	 0.997874
2.270000	 1.009971
2.288000	 1.035296
2.306000	 1.057877
2.324000	 1.103236
2.342000	 1.142145
2.360000	 1.169573
2.378000	 1.188719
2.396000	 1.206034
2.414000	 1.222020
2.432000	 1.247636
2.450000	 1.279455
2.468000	 1.321046
2.486000	 1.358237
2.504000	 1.381111
2.522000	 1.400343
2.540000	 1.412508
2.558000	 1.422616
2.576000	 1.433052
2.594000	 1.437885
2.612000	 1.479200
2.630000	 1.501907
2.648000	 1.534291
2.666000	 1.534480
2.684000	 1.558564
2.702000	 1.567109
2.720000	 1.555918
2.738000	 1.560003
2.756000	 1.563934
2.774000	 1.578257
2.792000	 1.587565
2.810000	 1.601851
2.828000	 1.607977
2.846000	 1.612699
2.864000	 1.605970
2.882000	 1.595609
2.900000	 1.579247
2.918000	 1.570751
2.936000	 1.580812
2.954000	 1.592496
2.972000	 1.612057
2.990000	 1.639106
3.008000	 1.670662
3.026000	 1.698887
3.044000	 1.722844
3.062000	 1.741683
3.080000	 1.758945
3.098000	 1.769874
3.116000	 1.770149
3.134000	 1.773566
3.152000	 1.779886
3.170000	 1.789618
3.188000	 1.806186
3.206000	 1.826845
3.224000	 1.851666
3.242000	 1.886295
3.260000	 1.910972
3.278000	 1.939492
3.296000	 1.957062
3.314000	 1.937349
3.332000	 2.000191
3.350000	 2.004468
3.368000	 1.944557
3.386000	 1.903595
3.404000	 1.812643
3.422000	 1.763017
3.440000	 1.913010
3.458000	 1.965098
3.476000	 1.984095
3.494000	 1.886074
3.512000	 1.991930
3.530000	 2.078497
3.548000	 2.120802
3.566000	 2.148481
3.584000	 2.172714
3.602000	 2.201136
3.620000	 2.219311
3.638000	 2.229406
3.656000	 2.235090
3.674000	 2.235495
3.692000	 2.227760
3.710000	 2.224330
3.728000	 2.218260
3.746000	 2.209032
3.764000	 2.201308
3.782000	 2.198462
3.800000	 2.197715
3.818000	 2.199392
3.836000	 2.203331
3.854000	 2.205935
3.872000	 2.217334
3.890000	 2.236258
3.908000	 2.249178
3.926000	 2.265738
3.944000	 2.277778
3.962000	 2.289481
3.980000	 2.294516
3.998000	 2.299918
4.016000	 2.301159
4.034000	 2.300223
4.052000	 2.290945
4.070000	 2.282526
4.088000	 2.271645
4.106000	 2.261555
4.124000	 2.251867
4.141999	 2.240168
4.160000	 2.233971
4.178000	 2.226707
4.196000	 2.224212
4.214000	 2.215665
4.232000	 2.210956
4.250000	 2.228709
4.268000	 2.240056
4.286000	 2.250900
4.304000	 2.266558
4.322000	 2.286856
4.340000	 2.304360
4.358000	 2.317317
4.375999	 2.328290
4.394000	 2.337103
4.412000	 2.345135
4.430000	 2.349144
4.448000	 2.351317
4.466000	 2.351043
4.484000	 2.348930
4.502000	 2.344606
4.520000	 2.337528
4.538000	 2.331355
4.556000	 2.325154
4.574000	 2.318723
4.592000	 2.310457
4.609999	 2.306964
4.628000	 2.305241
4.646000	 2.303110
4.664000	 2.303534
4.682000	 2.300248
4.700000	 2.300511
4.718000	 2.302998
4.736000	 2.307075
4.754000	 2.306566
4.772000	 2.306086
4.790000	 2.306365
4.808000	 2.309536
4.826000	 2.321985
4.843999	 2.337213
4.862000	 2.352735
4.880000	 2.370424
4.898000	 2.385599
4.916000	 2.395713
4.934000	 2.404165
4.952000	 2.410189
4.970000	 2.416126
4.988000	 2.418246
5.006000	 2.419074
5.024000	 2.418939
5.042000	 2.416763
5.060000	 2.411467
5.077999	 2.404045
5.096000	 2.398316
5.114000	 2.393662
5.132000	 2.388891
5.150000	 2.380292
5.168000	 2.374924
5.186000	 2.368452
5.204000	 2.358430
5.222000	 2.353461
5.240000	 2.347056
5.258000	 2.340544
5.276000	 2.335414
5.294000	 2.332635
5.312000	 2.336787
5.330000	 2.338274
5.348000	 2.339003
5.366000	 2.344350
5.384000	 2.351668
5.402000	 2.354415
5.420000	 2.356724
5.438000	 2.365898
5.456000	 2.368970
5.474000	 2.371413
5.492000	 2.379750
5.510000	 2.384319
5.528000	 2.388908
5.546000	 2.391843
5.564000	 2.389632
5.582000	 2.388191
5.600000	 2.390661
5.618000	 2.389352
5.636000	 2.378812
5.654000	 2.374130
5.672000	 2.374964
5.690000	 2.366319
5.708000	 2.348438
5.726000	 2.332229
5.744000	 2.313643
5.762000	 2.290172
5.780000	 2.287644
5.798000	 2.287387
5.816000	 2.268670
5.834000	 2.262995
5.852000	 2.260590
5.870000	 2.236599
5.888000	 2.216072
5.906000	 2.221095
5.923999	 2.213760
5.942000	 2.202936
5.960000	 2.204628
5.978000	 2.195061
5.996000	 2.187078
6.014000	 2.180195
6.032000	 2.158153
6.050000	 2.130475
6.068000	 2.126317
6.086000	 2.126083
6.104000	 2.113467
6.122000	 2.100735
6.140000	 2.091467
6.158000	 2.070515
6.176000	 2.036575
6.194000	 1.991002
6.212000	 1.949813
6.230000	 1.939921
6.248000	 1.957825
6.266000	 1.975522
6.284000	 1.980729
6.302000	 1.976495
6.320000	 1.966819
6.338000	 1.954805
6.356000	 1.949402
6.374000	 1.944823
6.392000	 1.924534
6.410000	 1.897865
6.428000	 1.901180
6.446000	 1.922720
6.464000	 1.926665
6.482000	 1.927703
6.500000	 1.963852
6.518000	 2.022215
6.536000	 2.062085
6.554000	 2.076086
6.572000	 2.075945
6.590000	 2.070586
6.608000	 2.060550
6.626000	 2.038881
6.644000	 1.986753
6.662000	 1.863733
6.680000	 1.703930
6.698000	 1.647790
6.716000	 1.732693
6.734000	 1.850424
6.752000	 1.920629
6.770000	 1.942175
6.788000	 1.942664
6.806000	 1.936959
6.824000	 1.918709
6.842000	 1.876551
6.860000	 1.809956
6.878000	 1.748724
6.896000	 1.737869
6.914000	 1.777270
6.932000	 1.818143
6.950000	 1.833916
6.968000	 1.838221
6.986000	 1.841339
7.004000	 1.841174
7.022000	 1.836063
7.040000	 1.827294
7.058000	 1.816993
7.076000	 1.798420
7.094000	 1.761478
7.112000	 1.718236
7.130000	 1.698424
7.148000	 1.711992
7.166000	 1.740179
7.184000	 1.759845
7.202000	 1.761914
7.220000	 1.757679
7.238000	 1.762500
7.256000	 1.773654
7.274000	 1.781514
7.292000	 1.785149
7.310000	 1.786519
7.328000	 1.786446
7.346000	 1.786705
7.364000	 1.787234
7.382000	 1.786696
7.400000	 1.785345
7.418000	 1.784311
7.436000	 1.784467
7.454000	 1.786388
7.472000	 1.791124
7.490000	 1.798866
7.508000	 1.807703
7.526000	 1.814588
7.544000	 1.818383
7.562000	 1.820739
7.580000	 1.822897
7.598000	 1.824701
7.616000	 1.825497
7.634000	 1.825249
7.652000	 1.824819
7.670000	 1.824945
7.688000	 1.825282
7.706000	 1.825430
7.724000	 1.825428
7.742000	 1.825396
7.760000	 1.825139
7.778000	 1.824400
7.796000	 1.822370
7.814000	 1.817385
7.832000	 1.807522
7.850000	 1.790788
7.868000	 1.765628
7.886000	 1.733714
7.904000	 1.703619
7.922000	 1.688674
7.940000	 1.696775
7.958000	 1.722963
7.976000	 1.753750
7.994000	 1.778425
8.012000	 1.794036
8.030000	 1.802318
8.048000	 1.806013
8.065999	 1.807171
8.084000	 1.806670
8.102000	 1.804539
8.120000	 1.801054
8.138000	 1.796712
8.155999	 1.791125
8.173999	 1.783522
8.192000	 1.773749
8.210000	 1.762061
8.228000	 1.749307
8.246000	 1.737095
8.263999	 1.727537
8.282000	 1.721918
8.300000	 1.719923
8.318000	 1.720063
8.336000	 1.720713
8.353999	 1.720560
8.372000	 1.718495
8.390000	 1.714612
8.408000	 1.709431
8.426000	 1.703546
8.443999	 1.697211
8.462000	 1.690675
8.480000	 1.684080
8.498000	 1.677229
8.516000	 1.669716
8.533999	 1.660895
8.552000	 1.650498
8.570000	 1.638826
8.588000	 1.626797
8.606000	 1.615484
8.624000	 1.605691
8.641999	 1.597887
8.660000	 1.592141
8.678000	 1.588107
8.696000	 1.584897
8.714000	 1.581452
8.731999	 1.577179
8.750000	 1.571616
8.768000	 1.564860
8.786000	 1.557092
8.804000	 1.548915
8.821999	 1.540500
8.840000	 1.531508
8.858000	 1.521516
8.876000	 1.510302
8.894000	 1.498284
8.911999	 1.486209
8.930000	 1.474600
8.948000	 1.463578
8.966000	 1.452918
8.984000	 1.442465
9.001999	 1.432453
9.020000	 1.423693
9.038000	 1.416839
9.056000	 1.412105
9.074000	 1.408993
9.092000	 1.406815
9.109999	 1.405120
9.128000	 1.403948
9.146000	 1.403425
9.164000	 1.403670
9.182000	 1.404592
9.199999	 1.405958
9.218000	 1.407145
9.236000	 1.407690
9.254000	 1.407796
9.272000	 1.408032
9.289999	 1.409157
9.308000	 1.411132
9.326000	 1.413431
9.344000	 1.415440
9.362000	 1.416830
9.379999	 1.417377
9.398000	 1.416302
9.416000	 1.411523
9.434000	 1.399864
9.452000	 1.378719
9.469999	 1.348907
9.488000	 1.316534
9.506000	 1.291182
9.524000	 1.280935
9.542000	 1.287972
9.560000	 1.307228
9.577999	 1.330036
9.596000	 1.348792
9.614000	 1.360176
9.632000	 1.364727
9.650000	 1.364595
9.667999	 1.361997
9.686000	 1.358220
9.704000	 1.353932
9.722000	 1.349483
9.740000	 1.345239
9.757999	 1.341549
9.776000	 1.339070
9.794000	 1.338265
9.812000	 1.339310
9.830000	 1.342040
9.847999	 1.346084
9.866000	 1.350931
9.884000	 1.356257
9.902000	 1.361697
9.920000	 1.366963
9.937999	 1.371647
9.956000	 1.375324
9.974000	 1.377763
9.992000	 1.378974
10.01	1.379227
10.028	1.378849
10.046	1.378040
10.064	1.376874
10.082	1.375175
10.1	1.373002
10.118	1.370211
10.136	1.367056
10.154	1.363637
10.172	1.360124
10.19	1.356566
10.208	1.352986
10.226	1.349352
10.244	1.345608
10.262	1.341679
10.28	1.337379
10.298	1.332633
10.316	1.327406
10.334	1.321755
10.352	1.315916
10.37	1.310055
10.388	1.304251
10.406	1.298588
10.424	1.292998
10.442	1.287519
10.46	1.282123
10.478	1.276716
10.496	1.271397
10.514	1.266211
10.532	1.261268
10.55	1.256840
10.568	1.252938
10.586	1.249484
10.604	1.246339
10.622	1.243261
10.64	1.239983
10.658	1.236506
10.676	1.232912
10.694	1.229283
10.712	1.225782
10.73	1.222494
10.748	1.219432
10.766	1.216459
10.784	1.213473
10.802	1.210378
10.82	1.207088
10.838	1.203615
10.856	1.199844
10.874	1.195737
10.892	1.191229
10.91	1.186223
10.928	1.180760
10.946	1.174940
10.964	1.169070
10.982	1.163332
11	1.158020
11.018	1.153242
11.036	1.149180
11.054	1.145790
11.072	1.143000
11.09	1.140688
11.108	1.138697
11.126	1.136820
11.144	1.134857
11.162	1.132700
11.18	1.130008
11.198	1.126526
11.216	1.122007
11.234	1.116088
11.252	1.108483
11.27	1.099137
11.288	1.088042
11.306	1.075560
11.324	1.062297
11.342	1.049029
11.36	1.036691
11.378	1.026244
11.396	1.018447
11.414	1.013930
11.432	1.012936
11.45	1.015403
11.468	1.020805
11.486	1.028349
11.504	1.037157
11.522	1.046207
11.54	1.054709
11.558	1.062016
11.576	1.067912
11.594	1.072331
11.612	1.075343
11.63	1.077118
11.648	1.077987
11.666	1.078075
11.684	1.077526
11.702	1.076447
11.72	1.074976
11.738	1.073216
11.756	1.071163
11.774	1.068972
11.792	1.066696
11.81	1.064225
11.828	1.061589
11.846	1.058575
11.864	1.055063
11.882	1.050739
11.9	1.045297
11.918	1.038239
11.936	1.029172
11.954	1.017535
11.972	1.002910
11.99	0.985085
12.008	0.964160
12.026	0.940796
12.044	0.916137
12.062	0.891906
12.08	0.869956
12.098	0.852172
12.116	0.840075
12.134	0.834564
12.152	0.835659
12.17	0.842582
12.188	0.853965
12.206	0.867937
12.224	0.882704
12.242	0.896711
12.26	0.908868
12.278	0.918589
12.296	0.925653
12.314	0.930319
12.332	0.933005
12.35	0.934205
12.368	0.934363
12.386	0.933930
12.404	0.933145
12.422	0.932279
12.44	0.931594
12.458	0.931124
12.476	0.930983
12.494	0.931271
12.512	0.932033
12.53	0.933234
12.548	0.934788
12.566	0.936760
12.584	0.939014
12.602	0.941486
12.62	0.944157
12.638	0.946933
12.656	0.949771
12.674	0.952583
12.692	0.955266
12.71	0.957689
12.728	0.959875
12.746	0.961609
12.764	0.962932
12.782	0.963821
12.8	0.964351
12.818	0.964539
12.836	0.964505
12.854	0.964298
12.872	0.963902
12.89	0.963421
12.908	0.962829
12.926	0.962120
12.944	0.961269
12.962	0.960320
12.98	0.959307
12.998	0.958243
13.016	0.957191
13.034	0.956189
13.052	0.955264
13.07	0.954445
13.088	0.953735
13.106	0.953084
13.124	0.952409
13.142	0.951682
13.16	0.950824
13.178	0.949816
13.196	0.948676
13.214	0.947373
13.232	0.946014
13.25	0.944640
13.268	0.943285
13.286	0.941979
13.304	0.940707
13.322	0.939484
13.34	0.938282
13.358	0.937049
13.376	0.935718
13.394	0.934266
13.412	0.932657
13.43	0.930891
13.448	0.928945
13.466	0.926851
13.484	0.924612
13.502	0.922235
13.52	0.919792
13.538	0.917320
13.556	0.914838
13.574	0.912373
13.592	0.909927
13.61	0.907466
13.628	0.905015
13.646	0.902559
13.664	0.900042
13.682	0.897484
13.7	0.894842
13.718	0.892096
13.736	0.889294
13.754	0.886478
13.772	0.883645
13.79	0.880859
13.808	0.878123
13.826	0.875439
13.844	0.872787
13.862	0.870164
13.88	0.867559
13.898	0.864934
13.916	0.862291
13.934	0.859648
13.952	0.857007
13.97	0.854419
13.988	0.851876
14.006	0.849358
14.024	0.846866
14.042	0.844423
14.06	0.841997
14.078	0.839494
14.096	0.836899
14.114	0.834189
14.132	0.831360
14.15	0.828394
14.168	0.825254
14.186	0.822010
14.204	0.818619
14.222	0.815084
14.24	0.811429
14.258	0.807625
14.276	0.803624
14.294	0.799403
14.312	0.794919
14.33	0.790100
14.348	0.784922
14.366	0.779353
14.384	0.773391
14.402	0.767134
14.42	0.760657
14.438	0.754082
14.456	0.747605
14.474	0.741469
14.492	0.735859
14.51	0.730959
14.528	0.726941
14.546	0.723859
14.564	0.721734
14.582	0.720521
14.6	0.720082
14.618	0.720265
14.636	0.720909
14.654	0.721757
14.672	0.722652
14.69	0.723440
14.708	0.723984
14.726	0.724259
14.744	0.724222
14.762	0.723845
14.78	0.723129
14.798	0.722128
14.816	0.720915
14.834	0.719494
14.852	0.717933
14.87	0.716241
14.888	0.714450
14.906	0.712599
14.924	0.710726
14.942	0.708843
14.96	0.706944
14.978	0.705060
14.996	0.703220
15.014	0.701432
15.032	0.699662
15.05	0.697899
15.068	0.696140
15.086	0.694382
15.104	0.692612
15.122	0.690796
15.14	0.688973
15.158	0.687101
15.176	0.685147
15.194	0.683178
15.212	0.681167
15.23	0.679128
15.248	0.677066
15.266	0.674980
15.284	0.672883
15.302	0.670803
15.32	0.668729
15.338	0.666647
15.356	0.664605
15.374	0.662581
15.392	0.660574
15.41	0.658592
15.428	0.656678
15.446	0.654795
15.464	0.652945
15.482	0.651120
15.5	0.649293
15.518	0.647501
15.536	0.645726
15.554	0.643945
15.572	0.642122
15.59	0.640263
15.608	0.638376
15.626	0.636471
15.644	0.634562
15.662	0.632616
15.68	0.630652
15.698	0.628701
15.716	0.626796
15.734	0.624932
15.752	0.623119
15.77	0.621378
15.788	0.619681
15.806	0.617998
15.824	0.616318
15.842	0.614661
15.86	0.612985
15.878	0.611284
15.896	0.609549
15.914	0.607724
15.932	0.605835
15.95	0.603897
15.968	0.601939
15.986	0.599888
16.004	0.597767
16.022	0.595624
16.04	0.593464
16.058	0.591278
16.076	0.589062
16.094	0.586836
16.112	0.584555
16.13	0.582210
16.148	0.579819
16.166	0.577346
16.184	0.574784
16.202	0.572126
16.22	0.569350
16.238	0.566461
16.256	0.563471
16.274	0.560364
16.292	0.557142
16.31	0.553804
16.328	0.550411
16.346	0.546971
16.364	0.543498
16.382	0.540061
16.4	0.536719
16.418	0.533511
16.436	0.530458
16.454	0.527645
16.472	0.525127
16.49	0.522919
16.508	0.521031
16.526	0.519473
16.544	0.518257
16.562	0.517350
16.58	0.516730
16.598	0.516339
16.616	0.516136
16.634	0.516083
16.652	0.516103
16.67	0.516161
16.688	0.516217
16.706	0.516215
16.724	0.516141
16.742	0.515974
16.76	0.515720
16.778	0.515377
16.796	0.514935
16.814	0.514396
16.832	0.513762
16.85	0.513049
16.868	0.512283
16.886	0.511485
16.904	0.510650
16.922	0.509784
16.94	0.508901
16.958	0.508017
16.976	0.507138
16.994	0.506265
17.012	0.505426
17.03	0.504643
17.048	0.503885
17.066	0.503161
17.084	0.502489
17.102	0.501856
17.12	0.501260
17.138	0.500703
17.156	0.500178
17.174	0.499679
17.192	0.499211
17.21	0.498766
17.228	0.498309
17.246	0.497838
17.264	0.497351
17.282	0.496838
17.3	0.496300
17.318	0.495737
17.336	0.495149
17.354	0.494537
17.372	0.493902
17.39	0.493241
17.408	0.492542
17.426	0.491826
17.444	0.491108
17.462	0.490376
17.48	0.489627
17.498	0.488845
17.516	0.488065
17.534	0.487324
17.552	0.486587
17.57	0.485849
17.588	0.485120
17.606	0.484404
17.624	0.483710
17.642	0.483023
17.66	0.482336
17.678	0.481641
17.696	0.480939
17.714	0.480244
17.732	0.479543
17.75	0.478827
17.768	0.478089
17.786	0.477327
17.804	0.476562
17.822	0.475789
17.84	0.474994
17.858	0.474174
17.876	0.473321
17.894	0.472450
17.912	0.471566
17.93	0.470678
17.948	0.469785
17.966	0.468870
17.984	0.467933
18.002	0.466973
18.02	0.466001
18.038	0.465033
18.056	0.464036
18.074	0.462996
18.092	0.461944
18.11	0.460882
18.128	0.459809
18.146	0.458722
18.164	0.457612
18.182	0.456488
18.2	0.455361
18.218	0.454234
18.236	0.453106
18.254	0.451993
18.272	0.450898
18.29	0.449818
18.308	0.448754
18.326	0.447715
18.344	0.446699
18.362	0.445687
18.38	0.444684
18.398	0.443698
18.416	0.442730
18.434	0.441792
18.452	0.440860
18.47	0.439918
18.488	0.438971
18.506	0.438017
18.524	0.437066
18.542	0.436119
18.56	0.435161
18.578	0.434190
18.596	0.433217
18.614	0.432241
18.632	0.431230
18.65	0.430187
18.668	0.429143
18.686	0.428096
18.704	0.427047
18.722	0.425992
18.74	0.424917
18.758	0.423826
18.776	0.422716
18.794	0.421592
18.812	0.420459
18.83	0.419316
18.848	0.418164
18.866	0.417000
18.884	0.415817
18.902	0.414620
18.92	0.413415
18.938	0.412200
18.956	0.410972
18.974	0.409741
18.992	0.408525
19.01	0.407314
19.028	0.406092
19.046	0.404872
19.064	0.403659
19.082	0.402460
19.1	0.401293
19.118	0.400149
19.136	0.399022
19.154	0.397916
19.172	0.396838
19.19	0.395784
19.208	0.394745
19.226	0.393727
19.244	0.392738
19.262	0.391771
19.28	0.390810
19.298	0.389856
19.316	0.388888
19.334	0.387909
19.352	0.386929
19.37	0.385947
19.388	0.384950
19.406	0.383940
19.424	0.382899
19.442	0.381823
19.46	0.380726
19.478	0.379614
19.496	0.378475
19.514	0.377300
19.532	0.376102
19.55	0.374887
19.568	0.373655
19.586	0.372407
19.604	0.371151
19.622	0.369903
19.64	0.368656
19.658	0.367397
19.676	0.366129
19.694	0.364872
19.712	0.363626
19.73	0.362372
19.748	0.361108
19.766	0.359836
19.784	0.358559
19.802	0.357268
19.82	0.355958
19.838	0.354629
19.856	0.353277
19.874	0.351901
19.892	0.350497
19.91	0.349065
19.928	0.347611
19.946	0.346138
19.964	0.344638
19.982	0.343105
20	0.341558
20.018	0.340008
20.036	0.338453
20.054	0.336896
20.072	0.335337
20.09	0.333787
20.108	0.332242
20.126	0.330720
20.144	0.329221
20.162	0.327743
20.18	0.326287
20.198	0.324852
20.216	0.323440
20.234	0.322048
20.252	0.320672
20.27	0.319314
20.288	0.317963
20.306	0.316622
20.324	0.315279
20.342	0.313927
20.36	0.312567
20.378	0.311196
20.396	0.309813
20.414	0.308416
20.432	0.307005
20.45	0.305572
20.468	0.304112
20.486	0.302629
20.504	0.301126
20.522	0.299603
20.54	0.298076
20.558	0.296547
20.576	0.295006
20.594	0.293446
20.612	0.291873
20.63	0.290296
20.648	0.288712
20.666	0.287131
20.684	0.285554
20.702	0.283981
20.72	0.282417
20.738	0.280860
20.756	0.279308
20.774	0.277759
20.792	0.276232
20.81	0.274735
20.828	0.273257
20.846	0.271792
20.864	0.270340
20.882	0.268907
20.9	0.267491
20.918	0.266099
20.936	0.264735
20.954	0.263397
20.972	0.262091
20.99	0.260815
21.008	0.259570
21.026	0.258355
21.044	0.257169
21.062	0.256009
21.08	0.254876
21.098	0.253761
21.116	0.252662
21.134	0.251580
21.152	0.250518
21.17	0.249477
21.188	0.248436
21.206	0.247388
21.224	0.246338
21.242	0.245287
21.26	0.244235
21.278	0.243175
21.296	0.242107
21.314	0.241026
21.332	0.239921
21.35	0.238795
21.368	0.237648
21.386	0.236483
21.404	0.235296
21.422	0.234085
21.44	0.232849
21.458	0.231591
21.476	0.230305
21.494	0.228998
21.512	0.227681
21.53	0.226358
21.548	0.225015
21.566	0.223637
21.584	0.222232
21.602	0.220815
21.62	0.219389
21.638	0.217952
21.656	0.216508
21.674	0.215055
21.692	0.213597
21.71	0.212134
21.728	0.210667
21.746	0.209201
21.764	0.207734
21.782	0.206265
21.8	0.204788
21.818	0.203304
21.836	0.201830
21.854	0.200370
21.872	0.198918
21.89	0.197467
21.908	0.196014
21.926	0.194569
21.944	0.193134
21.962	0.191707
21.98	0.190294
21.998	0.188888
22.016	0.187498
22.034	0.186137
22.052	0.184805
22.07	0.183494
22.088	0.182198
22.106	0.180918
22.124	0.179664
22.142	0.178442
22.16	0.177248
22.178	0.176080
22.196	0.174938
22.214	0.173826
22.232	0.172750
22.25	0.171708
22.268	0.170698
22.286	0.169717
22.304	0.168767
22.322	0.167841
22.34	0.166937
22.358	0.166056
22.376	0.165195
22.394	0.164357
22.412	0.163535
22.43	0.162717
22.448	0.161904
22.466	0.161099
22.484	0.160303
22.502	0.159517
22.52	0.158730
22.538	0.157942
22.556	0.157152
22.574	0.156349
22.592	0.155528
22.61	0.154694
22.628	0.153850
22.646	0.152998
22.664	0.152135
22.682	0.151253
22.7	0.150352
22.718	0.149438
22.736	0.148516
22.754	0.147586
22.772	0.146643
22.79	0.145682
22.808	0.144702
22.826	0.143711
22.844	0.142713
22.862	0.141705
22.88	0.140687
22.898	0.139659
22.916	0.138621
22.934	0.137575
22.952	0.136523
22.97	0.135463
22.988	0.134402
23.006	0.133339
23.024	0.132275
23.042	0.131218
23.06	0.130174
23.078	0.129136
23.096	0.128097
23.114	0.127050
23.132	0.126002
23.15	0.124969
23.168	0.123955
23.186	0.122952
23.204	0.121950
23.222	0.120943
23.24	0.119938
23.258	0.118946
23.276	0.117973
23.294	0.117011
23.312	0.116052
23.33	0.115097
23.348	0.114145
23.366	0.113192
23.384	0.112235
23.402	0.111277
23.42	0.110321
23.438	0.109371
23.456	0.108422
23.474	0.107464
23.492	0.106494
23.51	0.105514
23.528	0.104528
23.546	0.103538
23.564	0.102542
23.582	0.101538
23.6	0.100523
23.618	0.099499
23.636	0.098471
23.654	0.097442
23.672	0.096411
23.69	0.095373
23.708	0.094324
23.726	0.093263
23.744	0.092199
23.762	0.091140
23.78	0.090081
23.798	0.089027
23.816	0.087984
23.834	0.086951
23.852	0.085927
23.87	0.084909
23.888	0.083895
23.906	0.082888
23.924	0.081889
23.942	0.080901
23.96	0.079922
23.978	0.078949
23.996	0.077981
24.014	0.077020
24.032	0.076064
24.05	0.075108
24.068	0.074153
24.086	0.073207
24.104	0.072281
24.122	0.071378
24.14	0.070485
24.158	0.069591
24.176	0.068690
24.194	0.067792
24.212	0.066905
24.23	0.066030
24.248	0.065165
24.266	0.064313
24.284	0.063473
24.302	0.062647
24.32	0.061832
24.338	0.061030
24.356	0.060243
24.374	0.059467
24.392	0.058694
24.41	0.057921
24.428	0.057152
24.446	0.056401
24.464	0.055676
24.482	0.054971
24.5	0.054280
24.518	0.053594
24.536	0.052914
24.554	0.052246
24.572	0.051594
24.59	0.050962
24.608	0.050346
24.626	0.049742
24.644	0.049145
24.662	0.048557
24.68	0.047985
24.698	0.047436
24.716	0.046912
24.734	0.046405
24.752	0.045908
24.77	0.045420
24.788	0.044942
24.806	0.044475
24.824	0.044018
24.842	0.043570
24.86	0.043135
24.878	0.042718
24.896	0.042323
24.914	0.041944
24.932	0.041575
24.95	0.041212
24.968	0.040856
24.986	0.040509
25.004	0.040170
25.022	0.039842
25.04	0.039523
25.058	0.039206
25.076	0.038890
25.094	0.038577
25.112	0.038265
25.13	0.037951
25.148	0.037635
25.166	0.037318
25.184	0.036996
25.202	0.036667
25.22	0.036334
25.238	0.035994
25.256	0.035647
25.274	0.035294
25.292	0.034934
25.31	0.034563
25.328	0.034180
25.346	0.033788
25.364	0.033383
25.382	0.032966
25.4	0.032535
25.418	0.032092
25.436	0.031638
25.454	0.031173
25.472	0.030697
25.49	0.030211
25.508	0.029719
25.526	0.029221
25.544	0.028714
25.562	0.028204
25.58	0.027694
25.598	0.027183
25.616	0.026671
25.634	0.026161
25.652	0.025655
25.67	0.025151
25.688	0.024650
25.706	0.024153
25.724	0.023660
25.742	0.023169
25.76	0.022686
25.778	0.022215
25.796	0.021753
25.814	0.021300
25.832	0.020858
25.85	0.020428
25.868	0.020009
25.886	0.019601
25.904	0.019204
25.922	0.018817
25.94	0.018441
25.958	0.018076
25.976	0.017724
25.994	0.017387
26.012	0.017063
26.03	0.016747
26.048	0.016437
26.066	0.016134
26.084	0.015838
26.102	0.015547
26.12	0.015262
26.138	0.014983
26.156	0.014709
26.174	0.014437
26.192	0.014165
26.21	0.013894
26.228	0.013626
26.246	0.013361
26.264	0.013103
26.282	0.012848
26.3	0.012595
26.318	0.012342
26.336	0.012087
26.354	0.011832
26.372	0.011579
26.39	0.011331
26.408	0.011087
26.426	0.010846
26.444	0.010609
26.462	0.010376
26.48	0.010144
26.498	0.009916
26.516	0.009694
26.534	0.009480
26.552	0.009271
26.57	0.009069
26.588	0.008877
26.606	0.008695
26.624	0.008522
26.642	0.008359
26.66	0.008207
26.678	0.008066
26.696	0.007937
26.714	0.007818
26.732	0.007710
26.75	0.007612
26.768	0.007525
26.786	0.007449
26.804	0.007384
26.822	0.007333
26.84	0.007296
26.858	0.007269
26.876	0.007252
26.894	0.007242
26.912	0.007242
26.93	0.007251
26.948	0.007265
26.966	0.007287
26.984	0.007319
27.002	0.007355
27.02	0.007383
27.028	0.007390