File: Bakgrunnsmateriale/MATLAB/FTIR/ftir_data/LPE453/Mapping_121/LPE453_t87.asc
PE IR       SPECTRUM    SPECTRUM    ASCII       PEDS        1.60
  -1
LPD3B5~1.ASC
17/05/16
21:27:55.00
17/05/16
21:28:21.00
tln
$LPE453_t0087$<tbV0>[-10.4,5.2,8.0,0.0,27,1,0]
27.028
64

2002,4.07
MIRTGS : RIGHTBACK : INTERNAL 2
MIR : ON : INTERNAL 2
OPTKBR

0.200000
8
8.000000
FILLER
RATIO
SPECTRUM
UNLOCKED 256

DOUBLE
64
COMBINED
1
0
0

0.002000
RATIO

1
0
TRUE
51149
0
LEFT NOT FITTED RIGHT NOT FITTED 0
NONE
NONE
15600
12
4.427000
51148
TRUE
1 0 8 72 0 0 0 0

15798

#HDR
-1
-1
#GR
µM
%T
2.38419e-05
0.0
2.000000
0.002000
12515
8
51.8504
-7.415131
#DATA
2.000000	 -0.188159
2.018000	 0.338369
2.036000	 -0.210481
2.054000	 0.110378
2.072000	 0.090774
2.090000	 0.135890
2.108000	 0.229506
2.126000	 0.505523
2.144000	 0.429366
2.162000	 1.063801
2.180000	 1.385994
2.198000	 0.600982
2.216000	 -6.791307
2.234000	 -0.205202
2.252000	 -0.485687
2.270000	 0.040219
2.288000	 0.556897
2.306000	 0.131985
2.324000	 0.081273
2.342000	 -0.175282
2.360000	 0.032790
2.378000	 0.080574
2.396000	 -0.096626
2.414000	 0.296496
2.432000	 -0.099575
2.450000	 0.215058
2.468000	 -0.077543
2.486000	 -0.015270
2.504000	 0.080492
2.522000	 0.030339
2.540000	 0.089410
2.558000	 0.148155
2.576000	 -0.072225
2.594000	 0.165373
2.612000	 0.158599
2.630000	 -0.045585
2.648000	 0.200473
2.666000	 0.140084
2.684000	 -0.096534
2.702000	 0.070817
2.720000	 0.081354
2.738000	 0.205770
2.756000	 0.025987
2.774000	 0.065234
2.792000	 0.089370
2.810000	 0.102253
2.828000	 0.252921
2.846000	 0.131737
2.864000	 0.013615
2.882000	 -0.018727
2.900000	 0.069255
2.918000	 0.035027
2.936000	 0.010753
2.954000	 -0.022618
2.972000	 -0.051090
2.990000	 -0.100669
3.008000	 0.084959
3.026000	 -0.005187
3.044000	 0.153243
3.062000	 -0.005804
3.080000	 0.015654
3.098000	 0.018871
3.116000	 0.025399
3.134000	 0.118137
3.152000	 0.037006
3.170000	 0.072325
3.188000	 -0.175783
3.206000	 0.228593
3.224000	 -0.004651
3.242000	 0.036419
3.260000	 0.014004
3.278000	 0.051377
3.296000	 -0.034156
3.314000	 -0.024981
3.332000	 0.104888
3.350000	 0.186120
3.368000	 0.028940
3.386000	 0.058596
3.404000	 0.110068
3.422000	 0.057374
3.440000	 0.085139
3.458000	 0.006747
3.476000	 -0.126650
3.494000	 -0.048409
3.512000	 -0.066135
3.530000	 -0.016644
3.548000	 0.039788
3.566000	 0.058850
3.584000	 0.075166
3.602000	 0.187206
3.620000	 0.053037
3.638000	 0.011448
3.656000	 -0.059604
3.674000	 -0.068983
3.692000	 0.036839
3.710000	 0.002784
3.728000	 0.083750
3.746000	 0.058616
3.764000	 0.068131
3.782000	 0.090214
3.800000	 0.090644
3.818000	 -0.073670
3.836000	 0.003519
3.854000	 0.127288
3.872000	 -0.049158
3.890000	 0.060229
3.908000	 -0.071160
3.926000	 0.005014
3.944000	 0.033777
3.962000	 0.028960
3.980000	 0.073938
3.998000	 0.103319
4.016000	 -0.119934
4.034000	 0.003781
4.052000	 0.042594
4.070000	 0.098534
4.088000	 0.028365
4.106000	 0.089634
4.124000	 0.299831
4.141999	 0.160521
4.160000	 0.136765
4.178000	 -0.022324
4.196000	 0.012212
4.214000	 0.081204
4.232000	 0.090733
4.250000	 0.164279
4.268000	 0.155377
4.286000	 0.203718
4.304000	 0.379763
4.322000	 0.397344
4.340000	 0.487597
4.358000	 0.597729
4.375999	 0.799473
4.394000	 0.894323
4.412000	 1.193575
4.430000	 1.362649
4.448000	 1.667714
4.466000	 2.075174
4.484000	 2.541685
4.502000	 2.954228
4.520000	 3.517594
4.538000	 4.010615
4.556000	 4.738401
4.574000	 5.340817
4.592000	 5.969821
4.609999	 6.836321
4.628000	 7.758771
4.646000	 8.703859
4.664000	 9.598904
4.682000	 10.606
4.700000	 11.3594
4.718000	 12.2525
4.736000	 13.2749
4.754000	 14.4315
4.772000	 15.3746
4.790000	 16.3064
4.808000	 17.1937
4.826000	 18.0707
4.843999	 19.0377
4.862000	 19.8759
4.880000	 20.8112
4.898000	 21.68
4.916000	 22.4231
4.934000	 23.0695
4.952000	 23.7893
4.970000	 24.4138
4.988000	 25.1572
5.006000	 25.7538
5.024000	 26.3031
5.042000	 26.8393
5.060000	 27.2306
5.077999	 27.6933
5.096000	 28.1587
5.114000	 28.4516
5.132000	 28.9404
5.150000	 29.3347
5.168000	 29.6578
5.186000	 29.9126
5.204000	 30.2306
5.222000	 30.5019
5.240000	 30.6754
5.258000	 30.9575
5.276000	 31.2434
5.294000	 31.43
5.312000	 31.581
5.330000	 31.7027
5.348000	 31.9094
5.366000	 32.0802
5.384000	 32.1965
5.402000	 32.3589
5.420000	 32.4934
5.438000	 32.5938
5.456000	 32.8004
5.474000	 32.9394
5.492000	 32.9848
5.510000	 32.9541
5.528000	 33.0216
5.546000	 33.1146
5.564000	 33.2195
5.582000	 33.2799
5.600000	 33.3781
5.618000	 33.4294
5.636000	 33.4785
5.654000	 33.5906
5.672000	 33.5878
5.690000	 33.5521
5.708000	 33.5415
5.726000	 33.5491
5.744000	 33.5961
5.762000	 33.5715
5.780000	 33.5683
5.798000	 33.7293
5.816000	 33.8331
5.834000	 33.8027
5.852000	 33.7278
5.870000	 33.6967
5.888000	 33.682
5.906000	 33.7801
5.923999	 33.8412
5.942000	 33.825
5.960000	 33.8096
5.978000	 33.8834
5.996000	 33.9441
6.014000	 33.9217
6.032000	 33.9269
6.050000	 33.8807
6.068000	 33.8469
6.086000	 33.8357
6.104000	 33.8323
6.122000	 33.8394
6.140000	 33.8522
6.158000	 33.9446
6.176000	 33.9785
6.194000	 33.9491
6.212000	 33.9688
6.230000	 34.0086
6.248000	 33.9917
6.266000	 33.9374
6.284000	 33.925
6.302000	 33.9777
6.320000	 33.9726
6.338000	 33.8218
6.356000	 33.7334
6.374000	 33.8114
6.392000	 33.9369
6.410000	 34.047
6.428000	 34.0853
6.446000	 34.0495
6.464000	 34.0221
6.482000	 33.9576
6.500000	 33.8521
6.518000	 33.7847
6.536000	 33.7618
6.554000	 33.7454
6.572000	 33.7209
6.590000	 33.7353
6.608000	 33.776
6.626000	 33.8129
6.644000	 33.8445
6.662000	 33.8108
6.680000	 33.7443
6.698000	 33.7969
6.716000	 33.8683
6.734000	 33.7709
6.752000	 33.6163
6.770000	 33.5553
6.788000	 33.5939
6.806000	 33.6299
6.824000	 33.59
6.842000	 33.5764
6.860000	 33.6238
6.878000	 33.592
6.896000	 33.5322
6.914000	 33.6001
6.932000	 33.6937
6.950000	 33.679
6.968000	 33.6263
6.986000	 33.6549
7.004000	 33.7029
7.022000	 33.6944
7.040000	 33.6822
7.058000	 33.6502
7.076000	 33.5504
7.094000	 33.4337
7.112000	 33.3489
7.130000	 33.3155
7.148000	 33.3487
7.166000	 33.4099
7.184000	 33.4595
7.202000	 33.5404
7.220000	 33.679
7.238000	 33.7871
7.256000	 33.7806
7.274000	 33.6818
7.292000	 33.5773
7.310000	 33.5286
7.328000	 33.4991
7.346000	 33.4148
7.364000	 33.2993
7.382000	 33.2415
7.400000	 33.2601
7.418000	 33.2944
7.436000	 33.3146
7.454000	 33.3559
7.472000	 33.4424
7.490000	 33.5265
7.508000	 33.5435
7.526000	 33.5108
7.544000	 33.5027
7.562000	 33.5349
7.580000	 33.5607
7.598000	 33.5507
7.616000	 33.5052
7.634000	 33.4392
7.652000	 33.3749
7.670000	 33.3127
7.688000	 33.2287
7.706000	 33.1243
7.724000	 33.0391
7.742000	 33.0044
7.760000	 33.0209
7.778000	 33.0863
7.796000	 33.1949
7.814000	 33.3025
7.832000	 33.3613
7.850000	 33.3883
7.868000	 33.4231
7.886000	 33.4442
7.904000	 33.4247
7.922000	 33.4142
7.940000	 33.4561
7.958000	 33.493
7.976000	 33.4516
7.994000	 33.3527
8.012000	 33.2685
8.030000	 33.232
8.048000	 33.2177
8.065999	 33.1888
8.084000	 33.1394
8.102000	 33.0827
8.120000	 33.0334
8.138000	 33.0113
8.155999	 33.0333
8.173999	 33.0897
8.192000	 33.1492
8.210000	 33.1998
8.228000	 33.2615
8.246000	 33.3475
8.263999	 33.4353
8.282000	 33.4921
8.300000	 33.5041
8.318000	 33.4734
8.336000	 33.4125
8.353999	 33.3418
8.372000	 33.2781
8.390000	 33.2246
8.408000	 33.1718
8.426000	 33.112
8.443999	 33.052
8.462000	 33.0003
8.480000	 32.9497
8.498000	 32.8871
8.516000	 32.8142
8.533999	 32.7477
8.552000	 32.7067
8.570000	 32.7114
8.588000	 32.7813
8.606000	 32.9126
8.624000	 33.0613
8.641999	 33.1701
8.660000	 33.2168
8.678000	 33.2254
8.696000	 33.2285
8.714000	 33.2303
8.731999	 33.213
8.750000	 33.1648
8.768000	 33.0953
8.786000	 33.0274
8.804000	 32.9788
8.821999	 32.9497
8.840000	 32.9223
8.858000	 32.8689
8.876000	 32.7686
8.894000	 32.6287
8.911999	 32.4931
8.930000	 32.4167
8.948000	 32.4253
8.966000	 32.4983
8.984000	 32.5971
9.001999	 32.701
9.020000	 32.81
9.038000	 32.9205
9.056000	 33.0134
9.074000	 33.0672
9.092000	 33.0752
9.109999	 33.051
9.128000	 33.0197
9.146000	 33.0045
9.164000	 33.0161
9.182000	 33.0469
9.199999	 33.0768
9.218000	 33.0886
9.236000	 33.0776
9.254000	 33.0509
9.272000	 33.0172
9.289999	 32.979
9.308000	 32.9296
9.326000	 32.8598
9.344000	 32.7691
9.362000	 32.6713
9.379999	 32.5869
9.398000	 32.5307
9.416000	 32.5034
9.434000	 32.4948
9.452000	 32.4932
9.469999	 32.4921
9.488000	 32.492
9.506000	 32.499
9.524000	 32.5222
9.542000	 32.568
9.560000	 32.634
9.577999	 32.7079
9.596000	 32.7744
9.614000	 32.8222
9.632000	 32.8492
9.650000	 32.8606
9.667999	 32.8657
9.686000	 32.8721
9.704000	 32.8841
9.722000	 32.9011
9.740000	 32.9165
9.757999	 32.9156
9.776000	 32.879
9.794000	 32.7928
9.812000	 32.661
9.830000	 32.5079
9.847999	 32.3662
9.866000	 32.2586
9.884000	 32.1866
9.902000	 32.1364
9.920000	 32.0934
9.937999	 32.0549
9.956000	 32.0296
9.974000	 32.0264
9.992000	 32.0448
10.01	32.0731
10.028	32.0959
10.046	32.1031
10.064	32.0953
10.082	32.0826
10.1	32.0813
10.118	32.1075
10.136	32.1694
10.154	32.2631
10.172	32.3725
10.19	32.4745
10.208	32.55
10.226	32.5915
10.244	32.6037
10.262	32.5992
10.28	32.59
10.298	32.5834
10.316	32.5805
10.334	32.578
10.352	32.5697
10.37	32.5486
10.388	32.5098
10.406	32.4525
10.424	32.3798
10.442	32.2974
10.46	32.2097
10.478	32.1182
10.496	32.023
10.514	31.9267
10.532	31.8372
10.55	31.7652
10.568	31.7197
10.586	31.7016
10.604	31.7021
10.622	31.7067
10.64	31.7028
10.658	31.687
10.676	31.6677
10.694	31.6594
10.712	31.6757
10.73	31.7204
10.748	31.7859
10.766	31.8573
10.784	31.9206
10.802	31.9688
10.82	32.0052
10.838	32.0395
10.856	32.0812
10.874	32.1338
10.892	32.1919
10.91	32.2439
10.928	32.2789
10.946	32.2912
10.964	32.2844
10.982	32.2684
11	32.2529
11.018	32.242
11.036	32.2301
11.054	32.2039
11.072	32.1499
11.09	32.06
11.108	31.9375
11.126	31.7966
11.144	31.6558
11.162	31.5326
11.18	31.4358
11.198	31.3652
11.216	31.3141
11.234	31.2747
11.252	31.2426
11.27	31.2182
11.288	31.2056
11.306	31.2081
11.324	31.2242
11.342	31.2466
11.36	31.2657
11.378	31.2727
11.396	31.2652
11.414	31.2476
11.432	31.2292
11.45	31.219
11.468	31.2236
11.486	31.2445
11.504	31.2788
11.522	31.3208
11.54	31.3639
11.558	31.4024
11.576	31.4321
11.594	31.4522
11.612	31.4648
11.63	31.4764
11.648	31.4955
11.666	31.5304
11.684	31.585
11.702	31.6563
11.72	31.7335
11.738	31.801
11.756	31.8444
11.774	31.8538
11.792	31.827
11.81	31.7697
11.828	31.6924
11.846	31.6077
11.864	31.5262
11.882	31.4536
11.9	31.3906
11.918	31.3332
11.936	31.276
11.954	31.2141
11.972	31.1449
11.99	31.0691
12.008	30.9908
12.026	30.9154
12.044	30.8483
12.062	30.792
12.08	30.7462
12.098	30.7084
12.116	30.676
12.134	30.6485
12.152	30.6272
12.17	30.6147
12.188	30.6123
12.206	30.6189
12.224	30.6308
12.242	30.6431
12.26	30.6519
12.278	30.6552
12.296	30.6532
12.314	30.6477
12.332	30.6416
12.35	30.6368
12.368	30.6352
12.386	30.6383
12.404	30.6485
12.422	30.6696
12.44	30.7053
12.458	30.7585
12.476	30.8295
12.494	30.9145
12.512	31.0059
12.53	31.0941
12.548	31.1696
12.566	31.225
12.584	31.2564
12.602	31.2634
12.62	31.2481
12.638	31.215
12.656	31.1684
12.674	31.1136
12.692	31.0545
12.71	30.995
12.728	30.9379
12.746	30.8852
12.764	30.8373
12.782	30.7929
12.8	30.7493
12.818	30.703
12.836	30.6509
12.854	30.5912
12.872	30.5245
12.89	30.4528
12.908	30.3799
12.926	30.3095
12.944	30.2443
12.962	30.1851
12.98	30.131
12.998	30.0798
13.016	30.0289
13.034	29.9762
13.052	29.921
13.07	29.8645
13.088	29.8094
13.106	29.7598
13.124	29.7199
13.142	29.6935
13.16	29.683
13.178	29.6892
13.196	29.7109
13.214	29.7457
13.232	29.7893
13.25	29.8369
13.268	29.8831
13.286	29.9232
13.304	29.9535
13.322	29.9723
13.34	29.9796
13.358	29.9781
13.376	29.9724
13.394	29.9686
13.412	29.9731
13.43	29.9915
13.448	30.0279
13.466	30.0835
13.484	30.1565
13.502	30.2425
13.52	30.3348
13.538	30.4257
13.556	30.5077
13.574	30.5746
13.592	30.6219
13.61	30.6478
13.628	30.6526
13.646	30.6382
13.664	30.6074
13.682	30.5641
13.7	30.5114
13.718	30.4523
13.736	30.3887
13.754	30.3227
13.772	30.255
13.79	30.1866
13.808	30.1176
13.826	30.0478
13.844	29.9769
13.862	29.9049
13.88	29.8315
13.898	29.7568
13.916	29.6809
13.934	29.6047
13.952	29.5292
13.97	29.4559
13.988	29.3863
14.006	29.3223
14.024	29.2658
14.042	29.2182
14.06	29.1806
14.078	29.1534
14.096	29.1365
14.114	29.1292
14.132	29.1301
14.15	29.1377
14.168	29.1506
14.186	29.1675
14.204	29.1872
14.222	29.2087
14.24	29.2316
14.258	29.2551
14.276	29.2788
14.294	29.3019
14.312	29.3233
14.33	29.3416
14.348	29.3553
14.366	29.3634
14.384	29.3651
14.402	29.3604
14.42	29.35
14.438	29.3355
14.456	29.3189
14.474	29.3021
14.492	29.2867
14.51	29.2739
14.528	29.2641
14.546	29.257
14.564	29.2522
14.582	29.2488
14.6	29.2464
14.618	29.2448
14.636	29.2445
14.654	29.2464
14.672	29.2513
14.69	29.26
14.708	29.2731
14.726	29.2904
14.744	29.3113
14.762	29.3342
14.78	29.357
14.798	29.3782
14.816	29.3961
14.834	29.4094
14.852	29.4177
14.87	29.421
14.888	29.4198
14.906	29.4151
14.924	29.4076
14.942	29.3981
14.96	29.3867
14.978	29.3736
14.996	29.3584
15.014	29.3408
15.032	29.3203
15.05	29.2964
15.068	29.2689
15.086	29.2377
15.104	29.2028
15.122	29.1644
15.14	29.1225
15.158	29.0772
15.176	29.0286
15.194	28.9768
15.212	28.922
15.23	28.8644
15.248	28.8044
15.266	28.7426
15.284	28.6802
15.302	28.6182
15.32	28.558
15.338	28.5008
15.356	28.4479
15.374	28.4003
15.392	28.3586
15.41	28.3232
15.428	28.2939
15.446	28.2705
15.464	28.2524
15.482	28.2389
15.5	28.2293
15.518	28.2226
15.536	28.2182
15.554	28.2153
15.572	28.2132
15.59	28.2113
15.608	28.2092
15.626	28.2065
15.644	28.2029
15.662	28.1978
15.68	28.191
15.698	28.1823
15.716	28.1716
15.734	28.159
15.752	28.1449
15.77	28.1295
15.788	28.1141
15.806	28.0998
15.824	28.0881
15.842	28.0806
15.86	28.079
15.878	28.0844
15.896	28.0978
15.914	28.1197
15.932	28.1495
15.95	28.1864
15.968	28.2289
15.986	28.2742
16.004	28.3201
16.022	28.3644
16.04	28.404
16.058	28.4375
16.076	28.4641
16.094	28.4833
16.112	28.4961
16.13	28.5039
16.148	28.5088
16.166	28.5133
16.184	28.5189
16.202	28.5276
16.22	28.5397
16.238	28.5548
16.256	28.5723
16.274	28.5891
16.292	28.6027
16.31	28.6104
16.328	28.608
16.346	28.5934
16.364	28.5648
16.382	28.5206
16.4	28.4617
16.418	28.3889
16.436	28.3048
16.454	28.2131
16.472	28.1163
16.49	28.0196
16.508	27.9261
16.526	27.8385
16.544	27.7602
16.562	27.6924
16.58	27.6362
16.598	27.5917
16.616	27.5581
16.634	27.5348
16.652	27.5198
16.67	27.5118
16.688	27.5092
16.706	27.5097
16.724	27.5124
16.742	27.5158
16.76	27.5184
16.778	27.5194
16.796	27.518
16.814	27.5136
16.832	27.5061
16.85	27.4955
16.868	27.4819
16.886	27.4656
16.904	27.4473
16.922	27.4273
16.94	27.4063
16.958	27.3851
16.976	27.3639
16.994	27.3433
17.012	27.3234
17.03	27.3043
17.048	27.286
17.066	27.2685
17.084	27.2517
17.102	27.2357
17.12	27.2205
17.138	27.2064
17.156	27.194
17.174	27.1835
17.192	27.1761
17.21	27.1722
17.228	27.1729
17.246	27.1787
17.264	27.1899
17.282	27.2066
17.3	27.2284
17.318	27.2546
17.336	27.2835
17.354	27.3145
17.372	27.3447
17.39	27.3731
17.408	27.3969
17.426	27.4148
17.444	27.4253
17.462	27.4273
17.48	27.4205
17.498	27.4048
17.516	27.3812
17.534	27.3503
17.552	27.3145
17.57	27.2747
17.588	27.2337
17.606	27.1929
17.624	27.1546
17.642	27.1203
17.66	27.0911
17.678	27.0681
17.696	27.0511
17.714	27.0402
17.732	27.0347
17.75	27.0342
17.768	27.037
17.786	27.0427
17.804	27.0494
17.822	27.0567
17.84	27.0632
17.858	27.0688
17.876	27.0729
17.894	27.0758
17.912	27.0776
17.93	27.0789
17.948	27.0802
17.966	27.0825
17.984	27.0862
18.002	27.0924
18.02	27.1011
18.038	27.1131
18.056	27.128
18.074	27.1461
18.092	27.1664
18.11	27.1887
18.128	27.2115
18.146	27.2344
18.164	27.2557
18.182	27.2747
18.2	27.2899
18.218	27.3004
18.236	27.3054
18.254	27.3039
18.272	27.2956
18.29	27.28
18.308	27.2571
18.326	27.2269
18.344	27.1894
18.362	27.1452
18.38	27.0947
18.398	27.0385
18.416	26.9771
18.434	26.9114
18.452	26.8418
18.47	26.7691
18.488	26.6939
18.506	26.6167
18.524	26.5385
18.542	26.4593
18.56	26.3804
18.578	26.3018
18.596	26.2248
18.614	26.1495
18.632	26.077
18.65	26.0076
18.668	25.9425
18.686	25.8818
18.704	25.8266
18.722	25.777
18.74	25.7339
18.758	25.6974
18.776	25.6677
18.794	25.6449
18.812	25.6291
18.83	25.6199
18.848	25.6168
18.866	25.6195
18.884	25.6273
18.902	25.6398
18.92	25.6562
18.938	25.676
18.956	25.6984
18.974	25.723
18.992	25.7489
19.01	25.7756
19.028	25.8026
19.046	25.8294
19.064	25.8553
19.082	25.8799
19.1	25.9026
19.118	25.923
19.136	25.9403
19.154	25.9544
19.172	25.9644
19.19	25.9702
19.208	25.9711
19.226	25.9671
19.244	25.9578
19.262	25.9433
19.28	25.9237
19.298	25.8991
19.316	25.8703
19.334	25.8374
19.352	25.8017
19.37	25.7633
19.388	25.7241
19.406	25.6839
19.424	25.6448
19.442	25.6066
19.46	25.5713
19.478	25.5389
19.496	25.5107
19.514	25.487
19.532	25.468
19.55	25.4541
19.568	25.4451
19.586	25.4409
19.604	25.4412
19.622	25.4453
19.64	25.4531
19.658	25.4632
19.676	25.4758
19.694	25.4894
19.712	25.5041
19.73	25.5186
19.748	25.5331
19.766	25.5468
19.784	25.5595
19.802	25.5711
19.82	25.5814
19.838	25.5906
19.856	25.5986
19.874	25.6057
19.892	25.6119
19.91	25.6173
19.928	25.6221
19.946	25.6263
19.964	25.6299
19.982	25.6329
20	25.6351
20.018	25.6366
20.036	25.6371
20.054	25.6366
20.072	25.635
20.09	25.6323
20.108	25.6284
20.126	25.6236
20.144	25.6178
20.162	25.6115
20.18	25.6047
20.198	25.5979
20.216	25.5916
20.234	25.5858
20.252	25.5814
20.27	25.5781
20.288	25.5765
20.306	25.5768
20.324	25.5786
20.342	25.5819
20.36	25.5863
20.378	25.5909
20.396	25.5958
20.414	25.5989
20.432	25.6004
20.45	25.5983
20.468	25.5919
20.486	25.5807
20.504	25.5624
20.522	25.5375
20.54	25.5043
20.558	25.4627
20.576	25.4126
20.594	25.3532
20.612	25.2854
20.63	25.2097
20.648	25.1262
20.666	25.0371
20.684	24.942
20.702	24.8434
20.72	24.7427
20.738	24.6401
20.756	24.5393
20.774	24.4394
20.792	24.3435
20.81	24.2522
20.828	24.1663
20.846	24.0877
20.864	24.0161
20.882	23.9526
20.9	23.8975
20.918	23.8505
20.936	23.812
20.954	23.7816
20.972	23.7584
20.99	23.7428
21.008	23.7332
21.026	23.7293
21.044	23.7306
21.062	23.7353
21.08	23.7439
21.098	23.7545
21.116	23.7668
21.134	23.7804
21.152	23.7938
21.17	23.8076
21.188	23.8203
21.206	23.8319
21.224	23.8421
21.242	23.8502
21.26	23.8565
21.278	23.8605
21.296	23.8622
21.314	23.8616
21.332	23.8588
21.35	23.8537
21.368	23.847
21.386	23.8385
21.404	23.8287
21.422	23.8184
21.44	23.8072
21.458	23.7964
21.476	23.7862
21.494	23.7768
21.512	23.7694
21.53	23.7636
21.548	23.7602
21.566	23.7598
21.584	23.7621
21.602	23.7675
21.62	23.7763
21.638	23.7881
21.656	23.8026
21.674	23.8201
21.692	23.8395
21.71	23.8609
21.728	23.884
21.746	23.9076
21.764	23.9321
21.782	23.9565
21.8	23.9801
21.818	24.0032
21.836	24.0248
21.854	24.0449
21.872	24.0633
21.89	24.0793
21.908	24.0932
21.926	24.1048
21.944	24.1136
21.962	24.1199
21.98	24.1238
21.998	24.1252
22.016	24.1244
22.034	24.1214
22.052	24.116
22.07	24.1091
22.088	24.101
22.106	24.0914
22.124	24.0816
22.142	24.0715
22.16	24.0614
22.178	24.0529
22.196	24.0455
22.214	24.0402
22.232	24.0384
22.25	24.0394
22.268	24.0445
22.286	24.0546
22.304	24.0693
22.322	24.0894
22.34	24.1151
22.358	24.1464
22.376	24.1833
22.394	24.226
22.412	24.274
22.43	24.3268
22.448	24.3847
22.466	24.4464
22.484	24.5111
22.502	24.5793
22.52	24.6488
22.538	24.7188
22.556	24.7899
22.574	24.8594
22.592	24.9272
22.61	24.9931
22.628	25.0549
22.646	25.1128
22.664	25.1663
22.682	25.2137
22.7	25.2554
22.718	25.291
22.736	25.3192
22.754	25.3406
22.772	25.3548
22.79	25.3618
22.808	25.3615
22.826	25.3543
22.844	25.3404
22.862	25.3198
22.88	25.293
22.898	25.2601
22.916	25.2212
22.934	25.1771
22.952	25.1279
22.97	25.0736
22.988	25.0157
23.006	24.9543
23.024	24.8895
23.042	24.823
23.06	24.7547
23.078	24.6848
23.096	24.6149
23.114	24.5451
23.132	24.4754
23.15	24.4074
23.168	24.3408
23.186	24.276
23.204	24.2149
23.222	24.1573
23.24	24.1034
23.258	24.0544
23.276	24.0104
23.294	23.9712
23.312	23.9369
23.33	23.9078
23.348	23.8835
23.366	23.8635
23.384	23.848
23.402	23.8366
23.42	23.8281
23.438	23.8225
23.456	23.8197
23.474	23.8181
23.492	23.8177
23.51	23.8185
23.528	23.819
23.546	23.8187
23.564	23.818
23.582	23.816
23.6	23.8123
23.618	23.8073
23.636	23.8004
23.654	23.7913
23.672	23.7801
23.69	23.7677
23.708	23.7543
23.726	23.7394
23.744	23.7247
23.762	23.7117
23.78	23.6992
23.798	23.6886
23.816	23.6814
23.834	23.677
23.852	23.6758
23.87	23.6785
23.888	23.6852
23.906	23.6957
23.924	23.7101
23.942	23.7287
23.96	23.7512
23.978	23.777
23.996	23.8064
24.014	23.8393
24.032	23.8742
24.05	23.9103
24.068	23.9485
24.086	23.9873
24.104	24.0255
24.122	24.0638
24.14	24.1016
24.158	24.1377
24.176	24.1722
24.194	24.2052
24.212	24.2373
24.23	24.2675
24.248	24.2963
24.266	24.3259
24.284	24.3573
24.302	24.3887
24.32	24.4237
24.338	24.4654
24.356	24.5118
24.374	24.5644
24.392	24.626
24.41	24.696
24.428	24.7744
24.446	24.8633
24.464	24.9639
24.482	25.0749
24.5	25.1973
24.518	25.3318
24.536	25.4782
24.554	25.636
24.572	25.8049
24.59	25.9857
24.608	26.1775
24.626	26.3786
24.644	26.5884
24.662	26.8079
24.68	27.0347
24.698	27.2667
24.716	27.5055
24.734	27.7495
24.752	27.9957
24.77	28.2444
24.788	28.496
24.806	28.7478
24.824	28.9981
24.842	29.2486
24.86	29.4975
24.878	29.7424
24.896	29.9842
24.914	30.2227
24.932	30.4559
24.95	30.6822
24.968	30.9023
24.986	31.1175
25.004	31.3291
25.022	31.5377
25.04	31.7422
25.058	31.9407
25.076	32.1339
25.094	32.3231
25.112	32.5032
25.13	32.6687
25.148	32.8242
25.166	32.9666
25.184	33.0883
25.202	33.1865
25.22	33.2661
25.238	33.3205
25.256	33.3427
25.274	33.3362
25.292	33.3001
25.31	33.2288
25.328	33.1186
25.346	32.9726
25.364	32.7903
25.382	32.5702
25.4	32.3119
25.418	32.0164
25.436	31.685
25.454	31.3185
25.472	30.9147
25.49	30.4771
25.508	30.0101
25.526	29.5125
25.544	28.9826
25.562	28.4294
25.58	27.8609
25.598	27.2689
25.616	26.6591
25.634	26.0454
25.652	25.4356
25.67	24.8196
25.688	24.2065
25.706	23.6078
25.724	23.0225
25.742	22.4466
25.76	21.8909
25.778	21.3651
25.796	20.8595
25.814	20.3798
25.832	19.9402
25.85	19.5491
25.868	19.1938
25.886	18.8859
25.904	18.6405
25.922	18.4586
25.94	18.3316
25.958	18.2743
25.976	18.3014
25.994	18.4088
26.012	18.5934
26.03	18.8637
26.048	19.2271
26.066	19.6807
26.084	20.2222
26.102	20.851
26.12	21.5689
26.138	22.381
26.156	23.275
26.174	24.2371
26.192	25.2703
26.21	26.3873
26.228	27.5545
26.246	28.7371
26.264	29.9437
26.282	31.1864
26.3	32.4249
26.318	33.6201
26.336	34.7937
26.354	35.9458
26.372	37.0382
26.39	38.0362
26.408	38.9605
26.426	39.8098
26.444	40.5628
26.462	41.2013
26.48	41.734
26.498	42.1649
26.516	42.4936
26.534	42.7162
26.552	42.8218
26.57	42.8308
26.588	42.7677
26.606	42.6441
26.624	42.4306
26.642	42.1591
26.66	41.8695
26.678	41.5779
26.696	41.2437
26.714	40.9095
26.732	40.6257
26.75	40.4141
26.768	40.2304
26.786	40.1124
26.804	40.1041
26.822	40.2243
26.84	40.4358
26.858	40.767
26.876	41.2511
26.894	41.9038
26.912	42.6982
26.93	43.6496
26.948	44.777
26.966	46.1977
26.984	48.0555
27.002	49.953
27.02	51.4602
27.028	51.8504