File: Bakgrunnsmateriale/MATLAB/FTIR/ftir_data/LPE453/Mapping_121/LPE453_t116_cm-1.asc
PE IR       SPECTRUM    SPECTRUM    ASCII       PEDS        1.60
  -1
LP09FC~1.ASC
17/05/17
00:09:23.00
17/05/17
00:09:23.00
tln
$LPE453_t0116$<tbV0>[0.0,13.0,8.0,0.0,27,1,0]
370
64

2002,4.07
MIRTGS : RIGHTBACK : INTERNAL 2
MIR : ON : INTERNAL 2
OPTKBR

0.200000
8
8.000000
FILLER
RATIO
SPECTRUM
UNLOCKED 256

DOUBLE
64
COMBINED
1
0
0

1.000000
RATIO

1
0
TRUE
51149
0
LEFT NOT FITTED RIGHT NOT FITTED 0
NONE
NONE
15600
12
4.427000
51148
TRUE
1 0 8 72 0 0 0 0

15798

#HDR
-1
-1
#GR
CM-1
%T
2.38419e-05
0.0
5000
-1.000000
4631
8
36.1502
-2.264118
#DATA
5000	0.855875
4996	0.920367
4992	0.759530
4988	0.346279
4984	0.138115
4980	0.224828
4976	0.245285
4972	0.201630
4968	0.021505
4964	-0.245714
4960	-0.352025
4956	-0.462746
4952	-0.391030
4948	0.063633
4944	0.323104
4940	0.317049
4936	0.307583
4932	0.253391
4928	0.179147
4924	0.171494
4920	0.217938
4916	0.041651
4912	-0.176835
4908	-0.087857
4904	-0.016593
4900	-0.075936
4896	0.087332
4892	0.404930
4888	0.466299
4884	0.357794
4880	0.299668
4876	0.377631
4872	0.470161
4868	0.275421
4864	0.113582
4860	0.125885
4856	0.183963
4852	0.422883
4848	0.629472
4844	0.534749
4840	0.355029
4836	0.303888
4832	0.357055
4828	0.492453
4824	0.551581
4820	0.467848
4816	0.317811
4812	0.221538
4808	0.281715
4804	0.201559
4800	0.027179
4796	0.174760
4792	0.433206
4788	0.485420
4784	0.485563
4780	0.510025
4776	0.478768
4772	0.449490
4768	0.389456
4764	0.245141
4760	0.153684
4756	0.150871
4752	0.135636
4748	0.129580
4744	0.330877
4740	0.385403
4736	0.163269
4732	0.105786
4728	-0.041127
4724	-0.401520
4720	-0.613522
4716	-0.434350
4712	0.100660
4708	0.544452
4704	0.756001
4700	0.517821
4696	-0.115203
4692	-0.252866
4688	-0.017118
4684	0.063252
4680	0.001287
4676	-0.059962
4672	0.345635
4668	0.809645
4664	0.677871
4660	0.419569
4656	0.176286
4652	-0.238466
4648	-0.193905
4644	0.560998
4640	1.423144
4636	1.628684
4632	1.365900
4628	1.455283
4624	1.411628
4620	0.902318
4616	0.848674
4612	0.895071
4608	0.643467
4604	0.623917
4600	1.015281
4596	0.763010
4592	-0.447773
4588	-1.215481
4584	-1.274275
4580	-1.234841
4576	-0.784802
4572	-0.220060
4568	-0.263142
4564	-0.428652
4560	-0.630450
4556	-0.903153
4552	-0.950860
4548	-0.657415
4544	-0.255584
4540	-0.591278
4536	-1.273655
4532	-1.572299
4528	-1.649284
4524	-1.866102
4520	-2.058506
4516	-2.264118
4512	0.242781
4508	8.511328
4504	12.9637
4500	14.0319
4496	20.9356
4492	17.1927
4488	5.765128
4484	3.186988
4480	1.771616
4476	-0.828409
4472	-1.763319
4468	-1.334714
4464	-1.097989
4460	-1.285648
4456	-1.237082
4452	-0.845003
4448	-0.696539
4444	-1.043462
4440	-1.417684
4436	-1.699495
4432	-1.582288
4428	-0.941824
4424	-0.532221
4420	-0.272226
4416	-0.023555
4412	0.186514
4408	0.466942
4404	0.772047
4400	1.068472
4396	1.181459
4392	1.172018
4388	0.986289
4384	0.653696
4380	0.559377
4376	0.794363
4372	1.029634
4368	0.946736
4364	0.714278
4360	0.597023
4356	0.652885
4352	0.632977
4348	0.506091
4344	0.567030
4340	0.507616
4336	0.226378
4332	0.171113
4328	0.414490
4324	0.599193
4320	0.532746
4316	0.470995
4312	0.528430
4308	0.516581
4304	0.388360
4300	0.284194
4296	0.350093
4292	0.349450
4288	0.128674
4284	-0.014066
4280	0.046086
4276	0.137710
4272	0.204610
4268	0.134181
4264	-0.059008
4260	-0.053238
4256	0.176763
4252	0.227022
4248	0.113368
4244	0.198364
4240	0.428032
4236	0.574827
4232	0.466918
4228	0.223135
4224	0.127458
4220	0.105595
4216	0.077366
4212	0.119566
4208	0.169777
4204	0.135135
4200	0.025677
4196	0.004243
4192	0.212645
4188	0.450062
4184	0.415444
4180	0.206613
4176	0.179767
4172	0.294971
4168	0.330781
4164	0.327873
4160	0.308370
4156	0.281000
4152	0.340008
4148	0.393605
4144	0.418090
4140	0.452733
4136	0.312995
4132	0.076699
4128	0.011348
4124	0.129318
4120	0.225591
4116	0.178766
4112	0.152397
4108	0.240755
4104	0.317239
4100	0.254654
4096	0.127363
4092	0.089335
4088	0.064492
4084	-0.005125
4080	-0.064444
4076	-0.062108
4072	0.078654
4068	0.154733
4064	0.040817
4060	-0.013780
4056	0.007057
4052	-0.039863
4048	-0.051403
4044	0.056195
4040	0.132107
4036	0.110793
4032	0.037741
4028	0.040626
4024	0.122809
4020	0.168347
4016	0.121140
4012	0.011634
4008	0.062108
4004	0.342917
4000	0.425004
3996	0.246691
3992	0.155305
3988	0.141477
3984	0.179719
3980	0.219464
3976	0.167417
3972	0.181746
3968	0.207614
3964	0.144648
3960	0.060009
3956	-0.006318
3952	0.071406
3948	0.215315
3944	0.251340
3940	0.252103
3936	0.287938
3932	0.280141
3928	0.234937
3924	0.246763
3920	0.228524
3916	0.191164
3912	0.205492
3908	0.134801
3904	0.041842
3900	0.120282
3896	0.276136
3892	0.366139
3888	0.385117
3884	0.259733
3880	0.035738
3876	-0.036382
3872	0.018572
3868	0.012850
3864	-0.021958
3860	-0.002050
3856	0.078010
3852	0.127673
3848	0.080299
3844	0.000023
3840	-0.054907
3836	-0.026679
3832	-0.012707
3828	-0.054812
3824	-0.044703
3820	-0.022220
3816	0.012707
3812	0.005054
3808	-0.045466
3804	0.010967
3800	0.067996
3796	0.020456
3792	-0.023555
3788	0.001788
3784	0.025343
3780	0.055193
3776	0.169801
3772	0.202059
3768	0.073647
3764	0.009942
3760	0.094985
3756	0.230264
3752	0.302386
3748	0.259518
3744	0.167393
3740	0.193524
3736	0.224423
3732	0.078940
3728	0.010824
3724	0.138044
3720	0.200104
3716	0.183820
3712	0.184583
3708	0.175857
3704	0.148415
3700	0.113725
3696	0.108480
3692	0.114226
3688	0.062751
3684	-0.024485
3680	-0.067138
3676	-0.014352
3672	0.087523
3668	0.134420
3664	0.112152
3660	0.088763
3656	0.102305
3652	-0.010871
3648	-0.220394
3644	-0.171017
3640	0.020241
3636	0.056910
3632	0.035548
3628	0.049448
3624	-0.008606
3620	-0.106024
3616	-0.092649
3612	-0.013399
3608	0.099873
3604	0.156688
3600	0.038361
3596	-0.091671
3592	-0.107741
3588	-0.027251
3584	0.121736
3580	0.189137
3576	0.144147
3572	0.090289
3568	0.008535
3564	-0.088691
3560	-0.066089
3556	0.033903
3552	0.065851
3548	0.024056
3544	0.006699
3540	0.074696
3536	0.149488
3532	0.165128
3528	0.137686
3524	0.054001
3520	-0.023818
3516	-0.008010
3512	0.089192
3508	0.195288
3504	0.252079
3500	0.312733
3496	0.330257
3492	0.189161
3488	0.018858
3484	-0.062751
3480	-0.059604
3476	0.002741
3472	0.015234
3468	-0.036668
3464	-0.041103
3460	0.064611
3456	0.191617
3452	0.193929
3448	0.085902
3444	0.058674
3440	0.128221
3436	0.114846
3432	0.051641
3428	0.033903
3424	0.057077
3420	0.096416
3416	0.113320
3412	0.066375
3408	-0.031900
3404	-0.061178
3400	0.012993
3396	0.056385
3392	0.003051
3388	0.016736
3384	0.127983
3380	0.153183
3376	0.108647
3372	0.041699
3368	-0.059294
3364	-0.050425
3360	0.064730
3356	0.126552
3352	0.145912
3348	0.148415
3344	0.117254
3340	0.086760
3336	0.080776
3332	0.099110
3328	0.084710
3324	0.072455
3320	0.101280
3316	0.074243
3312	0.017595
3308	-0.009226
3304	-0.040626
3300	-0.053143
3296	0.017762
3292	0.161480
3288	0.236487
3284	0.166630
3280	0.086879
3276	0.071620
3272	0.061726
3268	0.052332
3264	0.035881
3260	0.023317
3256	0.061893
3252	0.109624
3248	0.110340
3244	0.090575
3240	0.069665
3236	0.045752
3232	0.056099
3228	0.051403
3224	-0.000739
3220	0.005960
3216	0.052714
3212	0.065064
3208	0.061368
3204	0.006866
3200	-0.075554
3196	-0.126957
3192	-0.149512
3188	-0.091266
3184	-0.027775
3180	-0.023221
3176	0.021171
3172	0.106549
3168	0.132679
3164	0.085783
3160	0.073075
3156	0.147747
3152	0.178217
3148	0.100636
3144	0.041818
3140	-0.004649
3136	-0.023150
3132	0.101566
3128	0.226497
3124	0.157856
3120	0.063943
3116	0.100588
3112	0.146937
3108	0.131416
3104	0.069069
3100	0.043606
3096	0.065708
3092	0.034737
3088	-0.023770
3084	-0.034284
3080	-0.012302
3076	-0.004053
3072	0.005531
3068	0.052285
3064	0.074815
3060	0.015306
3056	-0.013804
3052	0.027251
3048	0.039839
3044	0.061011
3040	0.093889
3036	0.078296
3032	0.043416
3028	0.010895
3024	-0.011873
3020	-0.035309
3016	-0.037145
3012	0.073051
3008	0.143694
3004	0.039505
3000	-0.014758
2996	0.028729
2992	0.012326
2988	-0.024271
2984	-0.030803
2980	0.021696
2976	0.066351
2972	-0.013756
2968	-0.046157
2964	0.068116
2960	0.128674
2956	0.059103
2952	0.028157
2948	0.161981
2944	0.317907
2940	0.319623
2936	0.177955
2932	0.027894
2928	-0.018644
2924	0.016593
2920	0.056791
2916	0.051784
2912	0.067114
2908	0.108265
2904	0.112938
2900	0.113153
2896	0.094175
2892	0.056719
2888	0.054955
2884	0.085020
2880	0.107598
2876	0.105667
2872	0.040221
2868	-0.108313
2864	-0.174760
2860	-0.089907
2856	0.024199
2852	0.140357
2848	0.199747
2844	0.173544
2840	0.104117
2836	0.016427
2832	0.000476
2828	0.045561
2824	0.044846
2820	-0.006914
2816	-0.047063
2812	-0.049138
2808	-0.011610
2804	0.013542
2800	-0.009918
2796	-0.031924
2792	-0.028347
2788	0.013065
2784	0.071430
2780	0.064086
2776	0.017404
2772	0.000381
2768	-0.000071
2764	-0.002574
2760	-0.001978
2756	0.038170
2752	0.094389
2748	0.107026
2744	0.094485
2740	0.064706
2736	0.030803
2732	0.011086
2728	0.007963
2724	0.024342
2720	0.042986
2716	0.046038
2712	0.024342
2708	0.026154
2704	0.067901
2700	0.069570
2696	0.020289
2692	-0.017023
2688	-0.028634
2684	0.005388
2680	0.041723
2676	0.019431
2672	-0.023341
2668	-0.034022
2664	0.001955
2660	0.035071
2656	0.035762
2652	0.027632
2648	0.044703
2644	0.061750
2640	0.034642
2636	-0.007653
2632	-0.029444
2628	-0.006961
2624	0.062155
2620	0.119400
2616	0.117802
2612	0.107932
2608	0.088596
2604	0.044298
2600	-0.007152
2596	-0.093007
2592	-0.167870
2588	-0.105643
2584	0.015330
2580	0.030279
2576	-0.004744
2572	-0.001072
2568	0.016403
2564	0.046396
2560	0.074148
2556	0.055336
2552	-0.026869
2548	-0.113010
2544	-0.092387
2540	-0.006151
2536	0.025534
2532	0.003671
2528	-0.012564
2524	-0.021290
2520	-0.030922
2516	-0.015926
2512	0.014328
2508	0.035619
2504	0.030136
2500	0.043821
2496	0.102567
2492	0.127410
2488	0.101518
2484	0.054979
2480	0.010299
2476	-0.001215
2472	0.018358
2468	0.050497
2464	0.051116
2460	-0.001668
2456	-0.039362
2452	-0.016260
2448	0.033950
2444	0.072383
2440	0.079703
2436	0.080537
2432	0.089311
2428	0.125503
2424	0.186395
2420	0.147533
2416	0.087404
2412	0.143456
2408	0.182008
2404	0.131320
2400	0.096154
2396	0.126886
2392	0.165629
2388	0.157451
2384	0.120973
2380	0.110483
2376	0.130748
2372	0.133895
2368	0.142383
2364	0.172424
2360	0.202989
2356	0.245833
2352	0.298666
2348	0.378203
2344	0.399923
2340	0.347471
2336	0.366282
2332	0.449538
2328	0.498962
2324	0.535249
2320	0.596547
2316	0.611519
2312	0.625181
2308	0.727581
2304	0.825285
2300	0.835704
2296	0.839710
2292	0.959157
2288	1.132726
2284	1.235723
2280	1.320838
2276	1.441907
2272	1.572751
2268	1.707887
2264	1.822805
2260	1.916050
2256	2.028727
2252	2.199172
2248	2.407026
2244	2.579522
2240	2.721118
2236	2.915978
2232	3.147554
2228	3.340768
2224	3.561711
2220	3.846979
2216	4.146099
2212	4.445695
2208	4.747700
2204	5.052185
2200	5.349016
2196	5.665183
2192	6.005620
2188	6.348562
2184	6.702613
2180	7.077097
2176	7.473850
2172	7.855653
2168	8.236908
2164	8.682823
2160	9.160447
2156	9.626579
2152	10.0769
2148	10.4887
2144	10.9101
2140	11.4055
2136	11.9222
2132	12.3618
2128	12.7464
2124	13.2175
2120	13.7718
2116	14.2762
2112	14.7134
2108	15.153
2104	15.6331
2100	16.144
2096	16.6442
2092	17.1198
2088	17.5843
2084	18.0292
2080	18.4441
2076	18.8705
2072	19.3609
2068	19.8543
2064	20.282
2060	20.7051
2056	21.1417
2052	21.5552
2048	21.9595
2044	22.3729
2040	22.7904
2036	23.1945
2032	23.5708
2028	23.9087
2024	24.2566
2020	24.642
2016	25.0141
2012	25.3695
2008	25.6921
2004	25.9707
2000	26.2564
1996	26.5567
1992	26.8522
1988	27.1146
1984	27.3699
1980	27.6589
1976	27.9652
1972	28.28
1968	28.5475
1964	28.727
1960	28.9047
1956	29.1134
1952	29.3023
1948	29.5299
1944	29.8009
1940	30.0212
1936	30.1935
1932	30.3553
1928	30.5209
1924	30.6994
1920	30.8658
1916	31.0125
1912	31.1848
1908	31.3839
1904	31.5595
1900	31.7146
1896	31.9201
1892	32.16
1888	32.336
1884	32.422
1880	32.4725
1876	32.5205
1872	32.5663
1868	32.6593
1864	32.798
1860	32.9108
1856	33.0295
1852	33.1734
1848	33.2476
1844	33.2805
1840	33.3933
1836	33.5906
1832	33.785
1828	33.9114
1824	33.989
1820	34.0617
1816	34.1248
1812	34.1332
1808	34.0933
1804	34.1192
1800	34.2197
1796	34.2723
1792	34.3113
1788	34.4009
1784	34.4582
1780	34.4939
1776	34.6234
1772	34.7842
1768	34.8799
1764	34.9099
1760	34.9005
1756	34.9145
1752	34.9599
1748	35.0114
1744	35.0168
1740	34.9612
1736	34.9579
1732	35.028
1728	35.0946
1724	35.1396
1720	35.1808
1716	35.2443
1712	35.3215
1708	35.3714
1704	35.4051
1700	35.4662
1696	35.5086
1692	35.5189
1688	35.5439
1684	35.5614
1680	35.5162
1676	35.451
1672	35.467
1668	35.5049
1664	35.5155
1660	35.5545
1656	35.6224
1652	35.7036
1648	35.7815
1644	35.826
1640	35.8308
1636	35.7995
1632	35.7844
1628	35.8166
1624	35.8294
1620	35.7628
1616	35.6593
1612	35.6362
1608	35.6843
1604	35.7189
1600	35.7619
1596	35.7904
1592	35.8249
1588	35.9386
1584	36.0432
1580	36.0722
1576	36.0606
1572	36.0131
1568	35.9855
1564	35.9924
1560	35.9489
1556	35.8487
1552	35.8075
1548	35.8562
1544	35.8641
1540	35.8154
1536	35.8464
1532	35.9269
1528	35.9652
1524	35.9757
1520	36.0001
1516	36.0908
1512	36.1502
1508	36.0869
1504	35.9788
1500	35.8365
1496	35.7159
1492	35.7486
1488	35.8298
1484	35.8199
1480	35.7588
1476	35.7197
1472	35.753
1468	35.8026
1464	35.8519
1460	35.9445
1456	35.9899
1452	35.9766
1448	36.0022
1444	36.0212
1440	35.9669
1436	35.8936
1432	35.8273
1428	35.7905
1424	35.7929
1420	35.7401
1416	35.6445
1412	35.5954
1408	35.6105
1404	35.6801
1400	35.7549
1396	35.8071
1392	35.857
1388	35.9089
1384	35.9456
1380	35.9767
1376	35.955
1372	35.8482
1368	35.7229
1364	35.5965
1360	35.5329
1356	35.5154
1352	35.4784
1348	35.485
1344	35.5217
1340	35.5883
1336	35.6821
1332	35.7199
1328	35.7169
1324	35.7075
1320	35.6708
1316	35.6562
1312	35.7046
1308	35.683
1304	35.5565
1300	35.4932
1296	35.4969
1292	35.4551
1288	35.3715
1284	35.296
1280	35.2726
1276	35.3153
1272	35.3724
1268	35.3816
1264	35.3811
1260	35.4283
1256	35.4674
1252	35.4739
1248	35.4311
1244	35.3363
1240	35.2283
1236	35.1155
1232	35.0653
1228	35.0653
1224	35.0208
1220	34.9453
1216	34.9088
1212	34.9367
1208	34.9662
1204	34.9868
1200	35.0675
1196	35.1718
1192	35.2466
1188	35.2479
1184	35.1568
1180	34.9998
1176	34.8321
1172	34.7005
1168	34.6159
1164	34.5351
1160	34.4814
1156	34.5214
1152	34.6181
1148	34.6998
1144	34.7926
1140	34.9218
1136	34.915
1132	34.7781
1128	34.7775
1124	34.8097
1120	34.6914
1116	34.5406
1112	34.4205
1108	34.3071
1104	34.2591
1100	34.2902
1096	34.254
1092	34.1514
1088	34.1663
1084	34.262
1080	34.2596
1076	34.1662
1072	34.232
1068	34.4624
1064	34.5688
1060	34.5468
1056	34.5374
1052	34.4685
1048	34.2412
1044	34.0175
1040	33.9159
1036	33.8355
1032	33.7596
1028	33.7284
1024	33.746
1020	33.8131
1016	33.8725
1012	33.9311
1008	33.9821
1004	33.9679
1000	33.9949
996	 34.04
992	 33.9653
988	 33.8527
984	 33.744
980	 33.6504
976	 33.6282
972	 33.5855
968	 33.4375
964	 33.2505
960	 33.2034
956	 33.2698
952	 33.268
948	 33.3012
944	 33.4437
940	 33.569
936	 33.6334
932	 33.6411
928	 33.6272
924	 33.5452
920	 33.323
916	 33.0988
912	 33.014
908	 32.9781
904	 32.8445
900	 32.6473
896	 32.5343
892	 32.5779
888	 32.7472
884	 32.9281
880	 33.0398
876	 33.1494
872	 33.1862
868	 33.1196
864	 33.0579
860	 32.9217
856	 32.693
852	 32.4607
848	 32.2706
844	 32.1485
840	 32.0187
836	 31.9321
832	 31.9426
828	 31.8854
824	 31.8501
820	 31.9611
816	 32.0292
812	 32.0688
808	 32.1657
804	 32.1679
800	 32.089
796	 32.0887
792	 32.0518
788	 31.8598
784	 31.6458
780	 31.546
776	 31.45
772	 31.2889
768	 31.1931
764	 31.1582
760	 31.1551
756	 31.2494
752	 31.3534
748	 31.3594
744	 31.4457
740	 31.5659
736	 31.424
732	 31.1998
728	 31.1311
724	 31.0844
720	 30.9633
716	 30.8201
712	 30.6845
708	 30.5621
704	 30.4002
700	 30.1683
696	 29.9916
692	 30.0169
688	 30.2137
684	 30.3622
680	 30.4227
676	 30.4378
672	 30.3804
668	 30.2776
664	 30.1445
660	 30.0292
656	 29.9236
652	 29.7564
648	 29.4668
644	 29.1253
640	 28.9526
636	 28.9672
632	 28.9202
628	 28.8406
624	 28.9671
620	 29.2053
616	 29.3265
612	 29.2333
608	 29.0709
604	 29.0938
600	 29.1548
596	 28.9732
592	 28.7621
588	 28.6511
584	 28.4095
580	 28.1743
576	 28.061
572	 28.0154
568	 27.9926
564	 27.7363
560	 27.4835
556	 27.5554
552	 27.7366
548	 27.9141
544	 28.0385
540	 28.1065
536	 28.1848
532	 27.9696
528	 27.335
524	 26.8662
520	 26.8672
516	 26.9419
512	 27.0489
508	 27.0487
504	 26.7011
500	 26.4174
496	 26.2868
492	 26.2543
488	 26.4945
484	 26.7495
480	 26.4049
476	 25.4979
472	 25.1134
468	 25.4716
464	 25.6659
460	 25.479
456	 25.1616
452	 24.5667
448	 23.7305
444	 23.592
440	 24.4834
436	 25.3911
432	 25.4764
428	 24.6934
424	 23.303
420	 22.3625
416	 22.6167
412	 22.5688
408	 21.2089
404	 20.6158
400	 20.9376
396	 20.375
392	 21.1816
388	 22.1785
384	 19.9209
380	 20.45
376	 31.392
372	 33.6419
370	 28.3298