File: Bakgrunnsmateriale/MATLAB/FTIR/ftir_data/LPE453/Mapping_121/LPE453_t81_cm-1.asc
PE IR       SPECTRUM    SPECTRUM    ASCII       PEDS        1.60
  -1
LP5BD0~1.ASC
17/05/16
21:00:14.00
17/05/16
21:00:14.00
tln
$LPE453_t0081$<tbV0>[5.2,5.2,8.0,0.0,27,1,0]
370
64

2002,4.07
MIRTGS : RIGHTBACK : INTERNAL 2
MIR : ON : INTERNAL 2
OPTKBR

0.200000
8
8.000000
FILLER
RATIO
SPECTRUM
UNLOCKED 256

DOUBLE
64
COMBINED
1
0
0

1.000000
RATIO

1
0
TRUE
51149
0
LEFT NOT FITTED RIGHT NOT FITTED 0
NONE
NONE
15600
12
4.427000
51148
TRUE
1 0 8 72 0 0 0 0

15798

#HDR
-1
-1
#GR
CM-1
%T
2.38419e-05
0.0
5000
-1.000000
4631
8
31.7959
-15.8376
#DATA
5000	0.067949
4996	0.335311
4992	0.232505
4988	-0.041770
4984	-0.225424
4980	-0.214219
4976	-0.060486
4972	0.080060
4968	0.116467
4964	0.025963
4960	-0.053358
4956	-0.067257
4952	-0.072717
4948	-0.012135
4944	0.055241
4940	0.173306
4936	0.314879
4932	0.288558
4928	0.311589
4924	0.446486
4920	0.441098
4916	0.223493
4912	0.097894
4908	0.286293
4904	0.496053
4900	0.441408
4896	0.100445
4892	-0.147223
4888	0.057053
4884	0.310850
4880	0.239682
4876	0.213789
4872	0.435853
4868	0.458431
4864	0.106358
4860	-0.218176
4856	-0.248074
4852	-0.157403
4848	-0.066328
4844	0.087976
4840	0.141906
4836	-0.042200
4832	-0.168156
4828	0.016212
4824	0.092959
4820	-0.102424
4816	-0.201845
4812	-0.070047
4808	0.233292
4804	0.451874
4800	0.510334
4796	0.432848
4792	0.310349
4788	0.358676
4784	0.339412
4780	0.242805
4776	0.159215
4772	-0.099682
4768	-0.359344
4764	-0.334501
4760	-0.198101
4756	-0.261378
4752	-0.363206
4748	-0.323486
4744	-0.211143
4740	-0.176334
4736	-0.213241
4732	0.179576
4728	0.753450
4724	0.433111
4720	-0.195145
4716	-0.438189
4712	-0.529980
4708	-0.279951
4704	-0.127148
4700	-0.000095
4696	0.439953
4692	0.349426
4688	-0.166344
4684	0.005674
4680	0.691723
4676	1.057314
4672	1.099252
4668	0.842976
4664	0.408005
4660	0.077080
4656	0.078892
4652	0.673747
4648	1.283264
4644	1.562643
4640	1.633787
4636	1.244091
4632	1.118183
4628	1.422977
4624	0.788545
4620	-0.367951
4616	-0.887918
4612	-0.880885
4608	-0.681209
4604	-0.804471
4600	-1.055073
4596	-0.806713
4592	-0.126147
4588	0.503087
4584	0.597810
4580	0.332450
4576	0.014185
4572	-0.186157
4568	-0.116133
4564	-0.025129
4560	-0.053906
4556	0.000882
4552	0.165605
4548	0.439548
4544	0.601077
4540	0.511026
4536	0.237870
4532	0.113344
4528	0.138998
4524	0.095224
4520	0.051307
4516	-0.092077
4512	0.427579
4508	0.816297
4504	-3.029513
4500	-10.4763
4496	-7.973146
4492	9.955048
4488	21.0454
4484	11.7407
4480	-0.421833
4476	-3.067994
4472	-1.261711
4468	-0.456094
4464	-0.250720
4460	-0.120520
4456	0.138092
4452	0.311803
4448	-0.100135
4444	-0.543260
4440	-0.670409
4436	-0.568318
4432	-0.380587
4428	-0.073289
4424	0.280451
4420	0.510501
4416	0.511932
4412	0.234723
4408	0.127792
4404	0.348305
4400	0.365710
4396	0.124812
4392	-0.002360
4388	0.074839
4384	0.241351
4380	0.401997
4376	0.570178
4372	0.592875
4368	0.367903
4364	0.313162
4360	0.391769
4356	0.235795
4352	-0.015449
4348	0.009489
4344	0.358462
4340	0.621676
4336	0.527834
4332	0.289177
4328	0.146770
4324	0.188589
4320	0.383138
4316	0.491952
4312	0.375247
4308	0.130248
4304	0.034117
4300	0.118684
4296	0.019907
4292	-0.100708
4288	-0.061464
4284	-0.061011
4280	-0.027346
4276	0.006985
4272	0.002312
4268	0.014758
4264	-0.109887
4260	-0.191688
4256	0.012803
4252	0.176858
4248	0.177001
4244	0.231742
4240	0.314879
4236	0.339579
4232	0.234317
4228	0.090551
4224	0.096201
4220	0.123453
4216	0.105428
4212	0.123977
4208	0.043702
4204	-0.055599
4200	0.081706
4196	0.212049
4192	0.154328
4188	0.221729
4184	0.389099
4180	0.288081
4176	0.018835
4172	-0.022339
4168	0.130963
4164	0.201582
4160	0.197696
4156	0.121855
4152	-0.018978
4148	-0.064682
4144	0.021719
4140	0.122594
4136	0.131177
4132	0.063323
4128	-0.023269
4124	-0.141501
4120	-0.073504
4116	0.274205
4112	0.401091
4108	0.232219
4104	0.123667
4100	0.058722
4096	0.037074
4092	0.114083
4088	0.141882
4084	0.047659
4080	-0.079989
4076	-0.105428
4072	0.048589
4068	0.226163
4064	0.237369
4060	0.165510
4056	0.152850
4052	0.148153
4048	0.072312
4044	-0.039005
4040	-0.121593
4036	-0.183367
4032	-0.209879
4028	-0.175142
4024	-0.084638
4020	0.007724
4016	0.040841
4012	0.083684
4008	0.106716
4004	0.084352
4000	0.112867
3996	0.155353
3992	0.141263
3988	0.038027
3984	-0.067114
3980	-0.054621
3976	-0.005054
3972	-0.004029
3968	-0.029587
3964	-0.057339
3960	-0.063824
3956	-0.001120
3952	0.025629
3948	-0.040364
3944	-0.051617
3940	0.027680
3936	0.111460
3932	0.126361
3928	0.116252
3924	0.031924
3920	-0.117874
3916	-0.093078
3912	0.070405
3908	0.193953
3904	0.152683
3900	0.046372
3896	0.069808
3892	0.145387
3888	0.199985
3884	0.224256
3880	0.251674
3876	0.273346
3872	0.263500
3868	0.242567
3864	0.169634
3860	0.051856
3856	-0.004744
3852	0.044369
3848	0.063991
3844	-0.013828
3840	-0.088667
3836	-0.107336
3832	-0.040125
3828	0.068140
3824	0.027585
3820	-0.055909
3816	0.010848
3812	0.048708
3808	0.019049
3804	0.027585
3800	0.041651
3796	0.025081
3792	0.006699
3788	0.054454
3784	0.109863
3780	0.076866
3776	0.007748
3772	0.030875
3768	0.083708
3764	0.029039
3760	-0.024390
3756	-0.019884
3752	-0.011324
3748	0.016713
3744	0.048446
3740	0.043129
3736	0.027680
3732	0.053596
3728	0.125241
3724	0.195050
3720	0.161361
3716	0.086855
3712	0.089335
3708	0.106930
3704	0.101900
3700	0.078535
3696	0.074124
3692	0.137710
3688	0.155830
3684	0.095009
3680	0.036692
3676	-0.027799
3672	-0.060486
3668	-0.036692
3664	0.003933
3660	0.046658
3656	0.069785
3652	0.070786
3648	0.039935
3644	-0.031781
3640	-0.041079
3636	0.013709
3632	-0.005006
3628	-0.048804
3624	-0.047016
3620	-0.050735
3616	-0.038433
3612	0.041937
3608	0.139188
3604	0.154113
3600	0.112390
3596	0.094509
3592	0.100278
3588	0.128531
3584	0.153183
3580	0.189256
3576	0.178122
3572	0.054931
3568	-0.004315
3564	0.056314
3560	0.068879
3556	-0.035572
3552	-0.119495
3548	-0.081992
3544	0.016760
3540	0.097680
3536	0.093579
3532	0.027489
3528	0.013160
3524	0.044727
3520	0.004410
3516	-0.064492
3512	-0.041007
3508	0.045776
3504	0.120902
3500	0.138807
3496	0.134420
3492	0.094676
3488	-0.007820
3484	-0.006675
3480	0.131821
3476	0.199818
3472	0.103640
3468	0.001406
3464	0.051450
3460	0.142407
3456	0.154352
3452	0.153398
3448	0.159001
3444	0.103378
3440	-0.009059
3436	-0.066161
3432	-0.021362
3428	0.020575
3424	0.014615
3420	0.021457
3416	0.016856
3412	-0.040102
3408	-0.025582
3404	0.082325
3400	0.087428
3396	0.000452
3392	0.006031
3388	0.062346
3384	0.077199
3380	0.099563
3376	0.137233
3372	0.097656
3368	0.032305
3364	-0.014686
3360	-0.057506
3356	-0.040054
3352	-0.022840
3348	0.023794
3344	0.096726
3340	0.090646
3336	0.019192
3332	-0.028204
3328	0.010275
3324	0.117659
3320	0.221514
3316	0.239515
3312	0.161957
3308	0.033235
3304	-0.035524
3300	0.002098
3296	0.012469
3292	-0.012183
3288	0.020599
3284	0.066471
3280	0.056791
3276	0.036978
3272	0.086236
3268	0.136756
3264	0.126600
3260	0.118708
3256	0.114107
3252	0.108218
3248	0.095653
3244	0.065135
3240	0.021719
3236	-0.029754
3232	-0.015354
3228	-0.014472
3224	-0.118088
3220	-0.117731
3216	0.029158
3212	0.130701
3208	0.149178
3204	0.138139
3200	0.157523
3196	0.211930
3192	0.169396
3188	0.025725
3184	-0.076818
3180	-0.081849
3176	-0.056242
3172	-0.072288
3168	-0.094866
3164	-0.112795
3160	-0.140285
3156	-0.132799
3152	-0.061869
3148	0.022506
3144	0.029587
3140	0.003242
3136	0.041151
3132	0.053501
3128	-0.029349
3124	-0.034189
3120	0.031995
3116	0.057792
3112	0.064516
3108	0.019240
3104	-0.034403
3100	-0.076317
3096	-0.110673
3092	-0.043749
3088	0.051546
3084	0.071835
3080	0.071787
3076	0.035166
3072	-0.017118
3068	0.024461
3064	0.091338
3060	0.133347
3056	0.151467
3052	0.083613
3048	0.047278
3044	0.156259
3040	0.272202
3036	0.241684
3032	0.135445
3028	0.110960
3024	0.116419
3020	0.046753
3016	0.004720
3012	0.032353
3008	0.027799
3004	-0.039219
3000	-0.051665
2996	0.015211
2992	0.003075
2988	-0.082588
2984	-0.090146
2980	-0.013685
2976	0.069522
2972	0.146079
2968	0.147366
2964	0.082850
2960	0.057220
2956	0.045394
2952	0.027203
2948	0.028324
2944	0.067663
2940	0.090456
2936	0.036597
2932	0.001668
2928	0.030064
2924	0.009036
2920	-0.046515
2916	-0.033974
2912	0.014734
2908	0.054907
2904	0.063014
2900	0.006604
2896	-0.038385
2892	-0.021505
2888	-0.016641
2884	-0.008654
2880	0.036239
2876	0.025868
2872	0.014376
2868	0.093913
2864	0.149822
2860	0.155591
2856	0.155520
2852	0.108885
2848	0.045418
2844	0.035047
2840	0.044298
2836	0.006675
2832	-0.023555
2828	0.014901
2824	0.084495
2820	0.124692
2816	0.089240
2812	0.061583
2808	0.109219
2804	0.113964
2800	0.042581
2796	-0.001931
2792	-0.000953
2788	0.033855
2784	0.066947
2780	0.037145
2776	0.029277
2772	0.061416
2768	0.059580
2764	0.059723
2760	0.085759
2756	0.071978
2752	-0.004386
2748	-0.041127
2744	-0.001430
2740	0.012373
2736	-0.001692
2732	0.008893
2728	-0.014448
2724	-0.026369
2720	0.007224
2716	0.005364
2712	0.015234
2708	0.031733
2704	-0.019121
2700	-0.028753
2696	0.048327
2692	0.081443
2688	0.053858
2684	0.028061
2680	0.015425
2676	0.014424
2672	0.001192
2668	-0.007677
2664	0.023460
2660	0.053501
2656	0.084018
2652	0.120115
2648	0.078082
2644	0.005888
2640	-0.026082
2636	-0.047063
2632	-0.043416
2628	-0.042414
2624	-0.047206
2620	-0.008940
2616	0.032901
2612	0.066637
2608	0.110864
2604	0.112700
2600	0.077533
2596	0.072765
2592	0.118350
2588	0.112795
2584	0.029134
2580	-0.014591
2576	-0.020122
2572	-0.037288
2568	-0.054216
2564	-0.050878
2560	-0.028848
2556	-0.005698
2552	0.015068
2548	0.005507
2544	-0.005507
2540	0.014972
2536	0.024342
2532	0.026845
2528	0.052380
2524	0.076127
2520	0.110936
2516	0.157141
2512	0.152420
2508	0.080943
2504	-0.018429
2500	-0.089550
2496	-0.137376
2492	-0.153851
2488	-0.116467
2484	-0.080275
2480	-0.033855
2476	0.035071
2472	0.039601
2468	0.007581
2464	0.014519
2460	0.040364
2456	0.059294
2452	0.059843
2448	0.024223
2444	-0.035619
2440	-0.065779
2436	-0.053882
2432	-0.003886
2428	0.024247
2424	0.023984
2420	0.032162
2416	-0.029063
2412	-0.036239
2408	0.021719
2404	0.012683
2400	0.007152
2396	-0.004434
2392	-0.036835
2388	-0.012302
2384	0.048756
2380	0.058269
2376	0.040626
2372	0.050354
2368	0.084877
2364	0.097560
2360	0.087928
2356	0.096344
2352	0.096583
2348	0.104808
2344	0.081515
2340	-0.051665
2336	-0.161027
2332	-0.123548
2328	-0.050878
2324	0.031614
2320	0.141429
2316	0.188875
2312	0.176787
2308	0.186681
2304	0.221681
2300	0.203919
2296	0.163888
2292	0.185561
2288	0.258398
2284	0.353240
2280	0.418949
2276	0.425720
2272	0.451731
2268	0.533652
2264	0.605154
2260	0.635385
2256	0.673723
2252	0.770664
2248	0.910353
2244	1.018238
2240	1.084685
2236	1.168847
2232	1.270127
2228	1.414394
2224	1.605439
2220	1.781105
2216	1.965332
2212	2.192592
2208	2.406787
2204	2.602672
2200	2.818036
2196	3.039002
2192	3.284931
2188	3.560209
2184	3.831076
2180	4.117321
2176	4.457378
2172	4.808306
2168	5.113196
2164	5.405163
2160	5.765628
2156	6.181597
2152	6.550526
2148	6.895613
2144	7.260799
2140	7.656669
2136	8.137798
2132	8.612132
2128	8.997154
2124	9.392237
2120	9.838366
2116	10.3123
2112	10.7902
2108	11.2351
2104	11.6736
2100	12.1407
2096	12.6148
2092	13.0637
2088	13.5123
2084	13.9931
2080	14.4753
2076	14.9147
2072	15.3503
2068	15.8597
2064	16.375
2060	16.7911
2056	17.1952
2052	17.6775
2048	18.1499
2044	18.5484
2040	18.9387
2036	19.364
2032	19.7964
2028	20.2255
2024	20.652
2020	21.0474
2016	21.3851
2012	21.7038
2008	22.0584
2004	22.4158
2000	22.7368
1996	23.0546
1992	23.3926
1988	23.7258
1984	24.0235
1980	24.3085
1976	24.5976
1972	24.8664
1968	25.1577
1964	25.4675
1960	25.6729
1956	25.8047
1952	26.0274
1948	26.318
1944	26.5587
1940	26.7498
1936	26.9622
1932	27.1841
1928	27.3541
1924	27.5244
1920	27.7317
1916	27.9318
1912	28.1004
1908	28.2219
1904	28.3409
1900	28.521
1896	28.7042
1892	28.815
1888	28.927
1884	29.0885
1880	29.261
1876	29.3988
1872	29.4733
1868	29.5208
1864	29.6069
1860	29.737
1856	29.8349
1852	29.8959
1848	29.9931
1844	30.1235
1840	30.2165
1836	30.289
1832	30.4063
1828	30.4829
1824	30.4718
1820	30.4829
1816	30.5524
1812	30.6419
1808	30.7109
1804	30.7777
1800	30.8974
1796	30.9853
1792	30.9835
1788	30.9708
1784	30.9832
1780	31.0187
1776	31.0938
1772	31.1921
1768	31.2773
1764	31.3397
1760	31.3537
1756	31.3198
1752	31.2991
1748	31.3368
1744	31.3991
1740	31.4352
1736	31.4445
1732	31.4228
1728	31.3959
1724	31.3862
1720	31.3858
1716	31.4182
1712	31.4816
1708	31.5645
1704	31.6389
1700	31.6786
1696	31.6926
1692	31.6983
1688	31.7067
1684	31.6723
1680	31.617
1676	31.6076
1672	31.6402
1668	31.6915
1664	31.7532
1660	31.7946
1656	31.7801
1652	31.7463
1648	31.7086
1644	31.675
1640	31.6868
1636	31.6828
1632	31.6301
1628	31.6239
1624	31.6523
1620	31.6299
1616	31.5798
1612	31.5809
1608	31.6155
1604	31.6506
1600	31.6798
1596	31.6723
1592	31.673
1588	31.6779
1584	31.6531
1580	31.6649
1576	31.7218
1572	31.7148
1568	31.656
1564	31.6506
1560	31.6754
1556	31.6583
1552	31.6103
1548	31.588
1544	31.6304
1540	31.6885
1536	31.6617
1532	31.5925
1528	31.5461
1524	31.4929
1520	31.428
1516	31.3664
1512	31.3714
1508	31.4464
1504	31.4744
1500	31.4204
1496	31.3264
1492	31.2966
1488	31.3596
1484	31.3623
1480	31.321
1476	31.3466
1472	31.3813
1468	31.3623
1464	31.3137
1460	31.2331
1456	31.1285
1452	31.0382
1448	31.0516
1444	31.1345
1440	31.1934
1436	31.202
1432	31.1694
1428	31.2217
1424	31.3127
1420	31.296
1416	31.2361
1412	31.1984
1408	31.2023
1404	31.222
1400	31.1861
1396	31.1127
1392	31.0678
1388	31.1014
1384	31.1862
1380	31.1992
1376	31.087
1372	31.0074
1368	31.0312
1364	31.0281
1360	30.9771
1356	30.9391
1352	30.9199
1348	30.9198
1344	30.9271
1340	30.963
1336	31.0477
1332	31.0622
1328	30.9456
1324	30.8478
1320	30.8352
1316	30.8243
1312	30.7912
1308	30.7653
1304	30.7607
1300	30.7819
1296	30.8203
1292	30.8257
1288	30.7587
1284	30.6841
1280	30.6915
1276	30.6972
1272	30.6587
1268	30.6614
1264	30.6207
1260	30.5369
1256	30.5703
1252	30.6421
1248	30.6607
1244	30.6723
1240	30.6128
1236	30.4936
1232	30.4241
1228	30.3898
1224	30.3751
1220	30.3832
1216	30.3826
1212	30.3605
1208	30.2964
1204	30.2488
1200	30.3243
1196	30.4328
1192	30.4016
1188	30.3318
1184	30.3082
1180	30.2837
1176	30.2592
1172	30.1965
1168	30.0973
1164	30.0098
1160	29.9701
1156	29.967
1152	29.9421
1148	29.9222
1144	30.0055
1140	30.0979
1136	30.0421
1132	29.929
1128	29.8511
1124	29.7795
1120	29.7648
1116	29.7861
1112	29.747
1108	29.718
1104	29.6586
1100	29.5337
1096	29.5132
1092	29.5927
1088	29.6331
1084	29.5778
1080	29.4933
1076	29.4561
1072	29.4136
1068	29.3663
1064	29.4175
1060	29.5069
1056	29.503
1052	29.3681
1048	29.2046
1044	29.1915
1040	29.2815
1036	29.2814
1032	29.1311
1028	28.9923
1024	28.9723
1020	28.9776
1016	28.9563
1012	28.9715
1008	29.0055
1004	28.9721
1000	28.9411
996	 28.9525
992	 28.8537
988	 28.6518
984	 28.5447
980	 28.5969
976	 28.6971
972	 28.7042
968	 28.5691
964	 28.4347
960	 28.4844
956	 28.5735
952	 28.5111
948	 28.3901
944	 28.2698
940	 28.1184
936	 28.0009
932	 28.0002
928	 28.0214
924	 28.012
920	 28.0155
916	 27.9156
912	 27.7808
908	 27.764
904	 27.7809
900	 27.825
896	 27.7915
892	 27.5911
888	 27.4647
884	 27.4847
880	 27.4599
876	 27.41
872	 27.3633
868	 27.2181
864	 27.1374
860	 27.194
856	 27.2114
852	 27.1619
848	 27.1402
844	 27.1283
840	 27.0094
836	 26.7853
832	 26.6042
828	 26.5852
824	 26.6234
820	 26.6202
816	 26.651
812	 26.5829
808	 26.3441
804	 26.1523
800	 26.1262
796	 26.19
792	 26.0786
788	 25.8459
784	 25.8304
780	 25.8673
776	 25.6995
772	 25.4701
768	 25.4214
764	 25.5037
760	 25.5388
756	 25.5385
752	 25.5785
748	 25.4812
744	 25.2074
740	 25.1117
736	 25.1484
732	 25.0858
728	 24.8926
724	 24.5856
720	 24.4084
716	 24.542
712	 24.6712
708	 24.6067
704	 24.4501
700	 24.1881
696	 24.0127
692	 23.8919
688	 23.6827
684	 23.6307
680	 23.6641
676	 23.6037
672	 23.5654
668	 23.5531
664	 23.4751
660	 23.4096
656	 23.3536
652	 23.173
648	 22.9366
644	 22.7067
640	 22.6039
636	 22.7649
632	 22.7749
628	 22.4786
624	 22.2811
620	 22.2464
616	 22.2472
612	 22.1519
608	 21.7824
604	 21.4337
600	 21.441
596	 21.5106
592	 21.3388
588	 21.1342
584	 21.179
580	 21.2143
576	 21.1159
572	 21.189
568	 21.2828
564	 20.9755
560	 20.5165
556	 20.3385
552	 20.3024
548	 20.2844
544	 20.0437
540	 19.8494
536	 20.1112
532	 20.1801
528	 20.0681
524	 20.1368
520	 20.0221
516	 19.6456
512	 19.2539
508	 18.9715
504	 18.9373
500	 18.9452
496	 18.4874
492	 17.9581
488	 18.0152
484	 18.1704
480	 18.2641
476	 18.5318
472	 18.426
468	 18.1689
464	 18.1193
460	 17.5218
456	 16.5933
452	 16.2703
448	 16.0983
444	 15.9097
440	 15.9258
436	 16.2344
432	 16.2511
428	 14.771
424	 13.7408
420	 14.2751
416	 14.8529
412	 16.2534
408	 16.5683
404	 14.1489
400	 14.9705
396	 20.811
392	 22.6302
388	 14.8787
384	 6.423664
380	 -5.598473
376	 -15.7162
372	 -10.7517
370	 -5.098295