File: Bakgrunnsmateriale/MATLAB/FTIR/ftir_data/LPE453/Mapping_121/LPE453_t22.asc
PE IR       SPECTRUM    SPECTRUM    ASCII       PEDS        1.60
  -1
LPCB91~1.ASC
17/05/16
16:05:31.00
17/05/16
16:05:57.00
tln
$LPE453_t0022$<tbV0>[-13.0,-10.4,8.0,0.0,27,1,0]
27.028
64

2002,4.07
MIRTGS : RIGHTBACK : INTERNAL 2
MIR : ON : INTERNAL 2
OPTKBR

0.200000
8
8.000000
FILLER
RATIO
SPECTRUM
UNLOCKED 256

DOUBLE
64
COMBINED
1
0
0

0.002000
RATIO

1
0
TRUE
51149
0
LEFT NOT FITTED RIGHT NOT FITTED 0
NONE
NONE
15600
12
4.427000
51148
TRUE
1 0 8 72 0 0 0 0

15798

#HDR
-1
-1
#GR
µM
%T
2.38419e-05
0.0
2.000000
0.002000
12515
8
35.6956
-3.278283
#DATA
2.000000	 0.190281
2.018000	 0.418839
2.036000	 -0.206383
2.054000	 -0.388159
2.072000	 -0.184549
2.090000	 0.511213
2.108000	 0.300469
2.126000	 0.400266
2.144000	 1.004996
2.162000	 0.637518
2.180000	 0.499354
2.198000	 -0.814430
2.216000	 13.6699
2.234000	 -0.453762
2.252000	 0.792578
2.270000	 0.848855
2.288000	 0.541475
2.306000	 0.167990
2.324000	 0.380553
2.342000	 0.172661
2.360000	 0.223567
2.378000	 0.333100
2.396000	 0.515730
2.414000	 0.341153
2.432000	 -0.010362
2.450000	 -0.048348
2.468000	 -0.100417
2.486000	 0.240982
2.504000	 0.054300
2.522000	 0.174062
2.540000	 0.158944
2.558000	 0.169189
2.576000	 0.134187
2.594000	 0.148132
2.612000	 0.054539
2.630000	 0.006097
2.648000	 0.002144
2.666000	 0.071177
2.684000	 0.146740
2.702000	 0.184262
2.720000	 -0.128716
2.738000	 -0.003279
2.756000	 0.026781
2.774000	 0.056044
2.792000	 0.035982
2.810000	 0.071714
2.828000	 0.057607
2.846000	 -0.012447
2.864000	 0.124729
2.882000	 0.043986
2.900000	 0.163473
2.918000	 0.173401
2.936000	 0.050752
2.954000	 -0.108554
2.972000	 -0.138574
2.990000	 0.119543
3.008000	 0.105603
3.026000	 -0.027078
3.044000	 0.076119
3.062000	 0.228950
3.080000	 0.203398
3.098000	 0.095121
3.116000	 0.208340
3.134000	 0.017664
3.152000	 0.160729
3.170000	 0.025091
3.188000	 -0.233194
3.206000	 0.039363
3.224000	 0.019117
3.242000	 0.059048
3.260000	 0.110664
3.278000	 0.108820
3.296000	 0.052661
3.314000	 0.022292
3.332000	 0.220278
3.350000	 0.114050
3.368000	 0.156463
3.386000	 0.046003
3.404000	 0.048745
3.422000	 -0.097507
3.440000	 -0.026282
3.458000	 0.076130
3.476000	 -0.010944
3.494000	 0.315590
3.512000	 0.066960
3.530000	 0.055815
3.548000	 0.036016
3.566000	 0.124196
3.584000	 0.083175
3.602000	 -0.012597
3.620000	 0.104624
3.638000	 -0.036007
3.656000	 -0.054809
3.674000	 0.004612
3.692000	 0.059008
3.710000	 0.105991
3.728000	 -0.003888
3.746000	 -0.072597
3.764000	 0.084240
3.782000	 0.025841
3.800000	 0.041223
3.818000	 0.045945
3.836000	 0.048714
3.854000	 -0.048251
3.872000	 -0.054739
3.890000	 0.037002
3.908000	 0.078244
3.926000	 0.048882
3.944000	 0.004476
3.962000	 0.094123
3.980000	 0.013350
3.998000	 0.219046
4.016000	 0.267446
4.034000	 0.119744
4.052000	 0.132246
4.070000	 -0.058957
4.088000	 0.108038
4.106000	 -0.104250
4.124000	 -0.118105
4.141999	 -0.065510
4.160000	 0.256800
4.178000	 0.008902
4.196000	 0.139529
4.214000	 -0.014555
4.232000	 0.158430
4.250000	 0.131475
4.268000	 0.117074
4.286000	 0.246081
4.304000	 0.214535
4.322000	 0.287025
4.340000	 0.420134
4.358000	 0.588329
4.375999	 0.805317
4.394000	 0.934046
4.412000	 1.039945
4.430000	 1.264701
4.448000	 1.671250
4.466000	 2.032368
4.484000	 2.372287
4.502000	 2.810909
4.520000	 3.223381
4.538000	 3.798252
4.556000	 4.444586
4.574000	 4.958790
4.592000	 5.754552
4.609999	 6.544213
4.628000	 7.263737
4.646000	 8.132252
4.664000	 8.905072
4.682000	 9.764385
4.700000	 10.7363
4.718000	 11.6544
4.736000	 12.3847
4.754000	 13.3572
4.772000	 14.1082
4.790000	 15.005
4.808000	 15.8641
4.826000	 16.9136
4.843999	 17.5303
4.862000	 18.4614
4.880000	 19.1135
4.898000	 19.896
4.916000	 20.6917
4.934000	 21.4173
4.952000	 22.1726
4.970000	 22.7656
4.988000	 23.2826
5.006000	 23.6931
5.024000	 24.1196
5.042000	 24.8184
5.060000	 25.2671
5.077999	 25.7637
5.096000	 26.2314
5.114000	 26.5835
5.132000	 26.909
5.150000	 27.1925
5.168000	 27.5542
5.186000	 27.9362
5.204000	 28.2324
5.222000	 28.6093
5.240000	 28.9394
5.258000	 29.2552
5.276000	 29.4509
5.294000	 29.5246
5.312000	 29.5992
5.330000	 29.7873
5.348000	 30.1681
5.366000	 30.457
5.384000	 30.6617
5.402000	 30.855
5.420000	 31.1533
5.438000	 31.1758
5.456000	 31.1538
5.474000	 31.2859
5.492000	 31.3056
5.510000	 31.5313
5.528000	 31.8378
5.546000	 32.0424
5.564000	 32.3488
5.582000	 32.5528
5.600000	 32.4984
5.618000	 32.4078
5.636000	 32.4581
5.654000	 32.5152
5.672000	 32.5909
5.690000	 32.7323
5.708000	 32.96
5.726000	 33.1289
5.744000	 33.2601
5.762000	 33.3914
5.780000	 33.2874
5.798000	 33.2385
5.816000	 33.3655
5.834000	 33.2323
5.852000	 33.2551
5.870000	 33.6011
5.888000	 33.9607
5.906000	 33.9884
5.923999	 34.0763
5.942000	 34.1662
5.960000	 34.076
5.978000	 34.0853
5.996000	 33.9619
6.014000	 33.8261
6.032000	 33.9078
6.050000	 34.1518
6.068000	 34.1365
6.086000	 34.124
6.104000	 34.2216
6.122000	 34.2687
6.140000	 34.3609
6.158000	 34.4871
6.176000	 34.5542
6.194000	 34.4378
6.212000	 34.2786
6.230000	 34.2314
6.248000	 34.2218
6.266000	 34.2646
6.284000	 34.3586
6.302000	 34.4875
6.320000	 34.681
6.338000	 34.875
6.356000	 34.9109
6.374000	 34.9269
6.392000	 35.078
6.410000	 35.2099
6.428000	 34.9864
6.446000	 34.7318
6.464000	 34.7393
6.482000	 34.837
6.500000	 34.8461
6.518000	 34.749
6.536000	 34.7449
6.554000	 34.951
6.572000	 35.1704
6.590000	 35.2499
6.608000	 35.3267
6.626000	 35.4842
6.644000	 35.525
6.662000	 35.357
6.680000	 35.2203
6.698000	 35.1398
6.716000	 35.052
6.734000	 34.9855
6.752000	 34.8961
6.770000	 34.9052
6.788000	 35.0417
6.806000	 35.1664
6.824000	 35.3247
6.842000	 35.5478
6.860000	 35.69
6.878000	 35.631
6.896000	 35.446
6.914000	 35.3403
6.932000	 35.3143
6.950000	 35.23
6.968000	 35.0557
6.986000	 34.8901
7.004000	 34.8496
7.022000	 34.9139
7.040000	 34.9715
7.058000	 34.9918
7.076000	 35.0428
7.094000	 35.1593
7.112000	 35.2936
7.130000	 35.4362
7.148000	 35.5726
7.166000	 35.6168
7.184000	 35.5839
7.202000	 35.5566
7.220000	 35.5019
7.238000	 35.362
7.256000	 35.1824
7.274000	 35.0614
7.292000	 35.0397
7.310000	 35.046
7.328000	 34.9963
7.346000	 34.9111
7.364000	 34.8655
7.382000	 34.8991
7.400000	 34.9934
7.418000	 35.094
7.436000	 35.1794
7.454000	 35.2838
7.472000	 35.4116
7.490000	 35.5106
7.508000	 35.547
7.526000	 35.521
7.544000	 35.4194
7.562000	 35.2423
7.580000	 35.0452
7.598000	 34.8974
7.616000	 34.819
7.634000	 34.772
7.652000	 34.7132
7.670000	 34.6588
7.688000	 34.662
7.706000	 34.7464
7.724000	 34.8968
7.742000	 35.0619
7.760000	 35.1789
7.778000	 35.2451
7.796000	 35.3057
7.814000	 35.3557
7.832000	 35.3578
7.850000	 35.3167
7.868000	 35.255
7.886000	 35.1727
7.904000	 35.0626
7.922000	 34.9369
7.940000	 34.8311
7.958000	 34.763
7.976000	 34.6927
7.994000	 34.5824
8.012000	 34.4778
8.030000	 34.445
8.048000	 34.4686
8.065999	 34.4892
8.084000	 34.5006
8.102000	 34.5531
8.120000	 34.6804
8.138000	 34.8568
8.155999	 35.0142
8.173999	 35.0918
8.192000	 35.0844
8.210000	 35.038
8.228000	 34.9954
8.246000	 34.9562
8.263999	 34.8985
8.282000	 34.815
8.300000	 34.7115
8.318000	 34.5902
8.336000	 34.4567
8.353999	 34.3281
8.372000	 34.2177
8.390000	 34.1235
8.408000	 34.0462
8.426000	 34.0026
8.443999	 34.0047
8.462000	 34.0423
8.480000	 34.0987
8.498000	 34.1725
8.516000	 34.2743
8.533999	 34.4043
8.552000	 34.5426
8.570000	 34.6638
8.588000	 34.755
8.606000	 34.8121
8.624000	 34.8303
8.641999	 34.8066
8.660000	 34.7422
8.678000	 34.6393
8.696000	 34.5042
8.714000	 34.3566
8.731999	 34.2244
8.750000	 34.1206
8.768000	 34.0265
8.786000	 33.9122
8.804000	 33.7785
8.821999	 33.6645
8.840000	 33.6036
8.858000	 33.5882
8.876000	 33.5879
8.894000	 33.5859
8.911999	 33.5873
8.930000	 33.6001
8.948000	 33.6266
8.966000	 33.6691
8.984000	 33.7358
9.001999	 33.8323
9.020000	 33.9525
9.038000	 34.0776
9.056000	 34.1791
9.074000	 34.2225
9.092000	 34.1826
9.109999	 34.074
9.128000	 33.9571
9.146000	 33.8941
9.164000	 33.8872
9.182000	 33.8737
9.199999	 33.7887
9.218000	 33.6304
9.236000	 33.458
9.254000	 33.3322
9.272000	 33.2647
9.289999	 33.2245
9.308000	 33.1778
9.326000	 33.1152
9.344000	 33.0506
9.362000	 33.0031
9.379999	 32.9817
9.398000	 32.9849
9.416000	 33.0052
9.434000	 33.0356
9.452000	 33.0716
9.469999	 33.1147
9.488000	 33.1729
9.506000	 33.2537
9.524000	 33.3559
9.542000	 33.465
9.560000	 33.56
9.577999	 33.6263
9.596000	 33.6616
9.614000	 33.6726
9.632000	 33.6635
9.650000	 33.6282
9.667999	 33.554
9.686000	 33.4303
9.704000	 33.2582
9.722000	 33.055
9.740000	 32.8507
9.757999	 32.6814
9.776000	 32.5774
9.794000	 32.5494
9.812000	 32.5793
9.830000	 32.6224
9.847999	 32.6275
9.866000	 32.5662
9.884000	 32.4501
9.902000	 32.3252
9.920000	 32.2439
9.937999	 32.2359
9.956000	 32.2945
9.974000	 32.3878
9.992000	 32.479
10.01	32.5447
10.028	32.5817
10.046	32.6029
10.064	32.6245
10.082	32.6569
10.1	32.6991
10.118	32.7384
10.136	32.7594
10.154	32.7524
10.172	32.7186
10.19	32.6696
10.208	32.6204
10.226	32.5819
10.244	32.5558
10.262	32.532
10.28	32.4957
10.298	32.4383
10.316	32.3633
10.334	32.2839
10.352	32.2128
10.37	32.1542
10.388	32.1017
10.406	32.0466
10.424	31.9845
10.442	31.918
10.46	31.8512
10.478	31.7838
10.496	31.7122
10.514	31.6358
10.532	31.5622
10.55	31.5049
10.568	31.4755
10.586	31.478
10.604	31.509
10.622	31.5617
10.64	31.6319
10.658	31.7183
10.676	31.8187
10.694	31.9269
10.712	32.0316
10.73	32.121
10.748	32.188
10.766	32.2329
10.784	32.2607
10.802	32.2777
10.82	32.2866
10.838	32.286
10.856	32.2724
10.874	32.2435
10.892	32.1998
10.91	32.1449
10.928	32.0829
10.946	32.0166
10.964	31.9462
10.982	31.8701
11	31.7879
11.018	31.7014
11.036	31.6149
11.054	31.5343
11.072	31.462
11.09	31.3967
11.108	31.3325
11.126	31.2605
11.144	31.1752
11.162	31.0766
11.18	30.9718
11.198	30.8739
11.216	30.7957
11.234	30.7445
11.252	30.7195
11.27	30.7133
11.288	30.7141
11.306	30.7129
11.324	30.7052
11.342	30.6922
11.36	30.6782
11.378	30.6685
11.396	30.6661
11.414	30.6718
11.432	30.6855
11.45	30.7074
11.468	30.7379
11.486	30.7774
11.504	30.8252
11.522	30.8797
11.54	30.9389
11.558	31.0006
11.576	31.0617
11.594	31.1183
11.612	31.1651
11.63	31.1965
11.648	31.2086
11.666	31.2004
11.684	31.1738
11.702	31.1321
11.72	31.0792
11.738	31.0182
11.756	30.9506
11.774	30.878
11.792	30.8023
11.81	30.7261
11.828	30.6523
11.846	30.5822
11.864	30.5142
11.882	30.4447
11.9	30.3697
11.918	30.2874
11.936	30.1999
11.954	30.1128
11.972	30.0339
11.99	29.9703
12.008	29.9267
12.026	29.9046
12.044	29.9018
12.062	29.9134
12.08	29.9336
12.098	29.9569
12.116	29.9789
12.134	29.9974
12.152	30.0119
12.17	30.0236
12.188	30.0351
12.206	30.0498
12.224	30.0715
12.242	30.1033
12.26	30.147
12.278	30.2021
12.296	30.2659
12.314	30.3327
12.332	30.395
12.35	30.4449
12.368	30.4753
12.386	30.4813
12.404	30.4629
12.422	30.4247
12.44	30.3746
12.458	30.322
12.476	30.2754
12.494	30.2403
12.512	30.2179
12.53	30.2058
12.548	30.1987
12.566	30.1905
12.584	30.1759
12.602	30.151
12.62	30.1138
12.638	30.0634
12.656	30
12.674	29.9247
12.692	29.8395
12.71	29.7471
12.728	29.6507
12.746	29.554
12.764	29.4596
12.782	29.3689
12.8	29.2808
12.818	29.1931
12.836	29.1037
12.854	29.012
12.872	28.9199
12.89	28.8327
12.908	28.7573
12.926	28.7009
12.944	28.6681
12.962	28.6589
12.98	28.6684
12.998	28.6878
13.016	28.7077
13.034	28.7209
13.052	28.7255
13.07	28.7255
13.088	28.7296
13.106	28.7485
13.124	28.7906
13.142	28.8595
13.16	28.9522
13.178	29.0592
13.196	29.1666
13.214	29.2597
13.232	29.3268
13.25	29.3614
13.268	29.3637
13.286	29.3406
13.304	29.3032
13.322	29.2643
13.34	29.2354
13.358	29.2241
13.376	29.2329
13.394	29.2594
13.412	29.2978
13.43	29.3402
13.448	29.379
13.466	29.4081
13.484	29.4242
13.502	29.4268
13.52	29.4176
13.538	29.3994
13.556	29.3753
13.574	29.3475
13.592	29.3166
13.61	29.2821
13.628	29.2419
13.646	29.1934
13.664	29.1343
13.682	29.0632
13.7	28.9799
13.718	28.8854
13.736	28.7823
13.754	28.6741
13.772	28.565
13.79	28.46
13.808	28.3637
13.826	28.2801
13.844	28.212
13.862	28.1605
13.88	28.1252
13.898	28.1046
13.916	28.0957
13.934	28.0949
13.952	28.098
13.97	28.1013
13.988	28.1021
14.006	28.0981
14.024	28.0881
14.042	28.0715
14.06	28.0483
14.078	28.0192
14.096	27.9855
14.114	27.949
14.132	27.9122
14.15	27.8783
14.168	27.8509
14.186	27.8332
14.204	27.8285
14.222	27.8386
14.24	27.8632
14.258	27.9001
14.276	27.9449
14.294	27.9925
14.312	28.0372
14.33	28.0741
14.348	28.1005
14.366	28.1156
14.384	28.1224
14.402	28.1257
14.42	28.132
14.438	28.1477
14.456	28.1779
14.474	28.2259
14.492	28.292
14.51	28.3728
14.528	28.4623
14.546	28.5527
14.564	28.6364
14.582	28.7066
14.6	28.7581
14.618	28.788
14.636	28.7968
14.654	28.7871
14.672	28.7633
14.69	28.73
14.708	28.692
14.726	28.6534
14.744	28.617
14.762	28.584
14.78	28.5543
14.798	28.5268
14.816	28.5
14.834	28.472
14.852	28.4412
14.87	28.4069
14.888	28.3689
14.906	28.328
14.924	28.2852
14.942	28.2423
14.96	28.2003
14.978	28.16
14.996	28.1214
15.014	28.084
15.032	28.0464
15.05	28.0064
15.068	27.9625
15.086	27.913
15.104	27.8568
15.122	27.7938
15.14	27.7246
15.158	27.6506
15.176	27.5737
15.194	27.4962
15.212	27.4207
15.23	27.3493
15.248	27.2838
15.266	27.2254
15.284	27.1745
15.302	27.1309
15.32	27.0939
15.338	27.0629
15.356	27.0368
15.374	27.0146
15.392	26.9957
15.41	26.9792
15.428	26.9645
15.446	26.9514
15.464	26.9395
15.482	26.9287
15.5	26.9192
15.518	26.9111
15.536	26.9051
15.554	26.9018
15.572	26.9016
15.59	26.9054
15.608	26.9133
15.626	26.9255
15.644	26.9422
15.662	26.9629
15.68	26.9875
15.698	27.0157
15.716	27.0473
15.734	27.0825
15.752	27.1217
15.77	27.1653
15.788	27.2141
15.806	27.2681
15.824	27.3271
15.842	27.3903
15.86	27.4558
15.878	27.5213
15.896	27.5843
15.914	27.6405
15.932	27.6869
15.95	27.7209
15.968	27.7396
15.986	27.7418
16.004	27.7274
16.022	27.6965
16.04	27.6521
16.058	27.5968
16.076	27.533
16.094	27.4651
16.112	27.3956
16.13	27.3264
16.148	27.2595
16.166	27.1953
16.184	27.1334
16.202	27.0731
16.22	27.0129
16.238	26.9521
16.256	26.8897
16.274	26.8256
16.292	26.761
16.31	26.6968
16.328	26.636
16.346	26.5809
16.364	26.5337
16.382	26.4975
16.4	26.4734
16.418	26.4619
16.436	26.4625
16.454	26.4728
16.472	26.4907
16.49	26.5117
16.508	26.5318
16.526	26.5481
16.544	26.5558
16.562	26.5529
16.58	26.538
16.598	26.5106
16.616	26.4722
16.634	26.4239
16.652	26.3697
16.67	26.3119
16.688	26.2535
16.706	26.1983
16.724	26.1477
16.742	26.1038
16.76	26.0671
16.778	26.0374
16.796	26.014
16.814	25.9953
16.832	25.9805
16.85	25.9674
16.868	25.9556
16.886	25.944
16.904	25.9328
16.922	25.9223
16.94	25.9128
16.958	25.9058
16.976	25.9021
16.994	25.9031
17.012	25.9096
17.03	25.9222
17.048	25.941
17.066	25.9656
17.084	25.9955
17.102	26.0293
17.12	26.0662
17.138	26.1043
17.156	26.1424
17.174	26.1794
17.192	26.2135
17.21	26.2445
17.228	26.2712
17.246	26.2934
17.264	26.3111
17.282	26.3242
17.3	26.3329
17.318	26.3375
17.336	26.3381
17.354	26.3347
17.372	26.3276
17.39	26.3168
17.408	26.3025
17.426	26.2847
17.444	26.2635
17.462	26.2388
17.48	26.2111
17.498	26.1808
17.516	26.1488
17.534	26.1158
17.552	26.0832
17.57	26.0515
17.588	26.0227
17.606	25.9976
17.624	25.9774
17.642	25.9633
17.66	25.9559
17.678	25.956
17.696	25.9637
17.714	25.9792
17.732	26.0019
17.75	26.0316
17.768	26.067
17.786	26.1079
17.804	26.1521
17.822	26.199
17.84	26.2467
17.858	26.2941
17.876	26.3399
17.894	26.3826
17.912	26.4213
17.93	26.4546
17.948	26.4821
17.966	26.5024
17.984	26.5154
18.002	26.5204
18.02	26.517
18.038	26.505
18.056	26.4842
18.074	26.4546
18.092	26.4164
18.11	26.3697
18.128	26.3149
18.146	26.2523
18.164	26.1827
18.182	26.1066
18.2	26.0244
18.218	25.9374
18.236	25.846
18.254	25.7517
18.272	25.6549
18.29	25.5574
18.308	25.4595
18.326	25.3631
18.344	25.2685
18.362	25.1774
18.38	25.09
18.398	25.0075
18.416	24.9303
18.434	24.8592
18.452	24.7944
18.47	24.7362
18.488	24.684
18.506	24.6378
18.524	24.5965
18.542	24.5602
18.56	24.5272
18.578	24.4971
18.596	24.4688
18.614	24.4421
18.632	24.4155
18.65	24.3892
18.668	24.3628
18.686	24.3365
18.704	24.3105
18.722	24.2851
18.74	24.2616
18.758	24.2401
18.776	24.2221
18.794	24.2078
18.812	24.1985
18.83	24.1941
18.848	24.1956
18.866	24.2024
18.884	24.2145
18.902	24.2311
18.92	24.2514
18.938	24.2742
18.956	24.2978
18.974	24.3209
18.992	24.3416
19.01	24.3586
19.028	24.3698
19.046	24.3744
19.064	24.3708
19.082	24.3588
19.1	24.3372
19.118	24.3068
19.136	24.2675
19.154	24.2203
19.172	24.1665
19.19	24.1071
19.208	24.0451
19.226	23.981
19.244	23.9188
19.262	23.8588
19.28	23.8056
19.298	23.759
19.316	23.7231
19.334	23.6976
19.352	23.6854
19.37	23.6864
19.388	23.7018
19.406	23.7317
19.424	23.7754
19.442	23.833
19.46	23.9022
19.478	23.9829
19.496	24.0716
19.514	24.1681
19.532	24.2685
19.55	24.3713
19.568	24.4741
19.586	24.574
19.604	24.6702
19.622	24.7592
19.64	24.8411
19.658	24.9132
19.676	24.976
19.694	25.0284
19.712	25.0703
19.73	25.1027
19.748	25.1253
19.766	25.1402
19.784	25.1473
19.802	25.1489
19.82	25.1459
19.838	25.1393
19.856	25.1312
19.874	25.1217
19.892	25.1128
19.91	25.1042
19.928	25.097
19.946	25.0914
19.964	25.087
19.982	25.0841
20	25.0818
20.018	25.0797
20.036	25.0773
20.054	25.073
20.072	25.067
20.09	25.0575
20.108	25.0448
20.126	25.0277
20.144	25.006
20.162	24.98
20.18	24.9493
20.198	24.9148
20.216	24.8773
20.234	24.8371
20.252	24.7966
20.27	24.7553
20.288	24.7165
20.306	24.6801
20.324	24.6479
20.342	24.6214
20.36	24.6005
20.378	24.5868
20.396	24.58
20.414	24.5798
20.432	24.5866
20.45	24.5985
20.468	24.6155
20.486	24.636
20.504	24.6575
20.522	24.6805
20.54	24.7006
20.558	24.7185
20.576	24.7312
20.594	24.7376
20.612	24.7373
20.63	24.7286
20.648	24.7117
20.666	24.6868
20.684	24.6533
20.702	24.613
20.72	24.5665
20.738	24.5143
20.756	24.4596
20.774	24.4015
20.792	24.3437
20.81	24.2864
20.828	24.2309
20.846	24.1794
20.864	24.1312
20.882	24.0879
20.9	24.0496
20.918	24.0157
20.936	23.9864
20.954	23.9611
20.972	23.9381
20.99	23.9177
21.008	23.8978
21.026	23.8777
21.044	23.857
21.062	23.8338
21.08	23.8085
21.098	23.7803
21.116	23.7487
21.134	23.7144
21.152	23.6777
21.17	23.6383
21.188	23.5983
21.206	23.5577
21.224	23.5175
21.242	23.4802
21.26	23.445
21.278	23.4141
21.296	23.3878
21.314	23.3661
21.332	23.35
21.35	23.3392
21.368	23.3334
21.386	23.3326
21.404	23.3362
21.422	23.343
21.44	23.3535
21.458	23.3656
21.476	23.3782
21.494	23.3915
21.512	23.4031
21.53	23.4135
21.548	23.4221
21.566	23.4281
21.584	23.4319
21.602	23.4344
21.62	23.435
21.638	23.4349
21.656	23.4357
21.674	23.4366
21.692	23.4402
21.71	23.447
21.728	23.4572
21.746	23.4732
21.764	23.4944
21.782	23.5216
21.8	23.5559
21.818	23.5967
21.836	23.6432
21.854	23.696
21.872	23.7538
21.89	23.8148
21.908	23.8798
21.926	23.9461
21.944	24.0122
21.962	24.0787
21.98	24.142
21.998	24.2023
22.016	24.2589
22.034	24.309
22.052	24.3535
22.07	24.3916
22.088	24.4224
22.106	24.4462
22.124	24.4642
22.142	24.4762
22.16	24.4828
22.178	24.4861
22.196	24.4855
22.214	24.4826
22.232	24.4797
22.25	24.4759
22.268	24.4728
22.286	24.4714
22.304	24.4713
22.322	24.4724
22.34	24.4754
22.358	24.4795
22.376	24.4828
22.394	24.4865
22.412	24.4884
22.43	24.4858
22.448	24.4803
22.466	24.4685
22.484	24.4477
22.502	24.4196
22.52	24.3801
22.538	24.3275
22.556	24.263
22.574	24.1839
22.592	24.0895
22.61	23.9807
22.628	23.8568
22.646	23.7176
22.664	23.564
22.682	23.3974
22.7	23.2167
22.718	23.0243
22.736	22.8229
22.754	22.6108
22.772	22.3916
22.79	22.1681
22.808	21.9384
22.826	21.7071
22.844	21.4767
22.862	21.2456
22.88	21.0183
22.898	20.7969
22.916	20.5799
22.934	20.3716
22.952	20.1731
22.97	19.9835
22.988	19.8067
23.006	19.6432
23.024	19.4925
23.042	19.3565
23.06	19.2355
23.078	19.1291
23.096	19.0378
23.114	18.9624
23.132	18.9018
23.15	18.8543
23.168	18.8208
23.186	18.8
23.204	18.7876
23.222	18.785
23.24	18.7904
23.258	18.7981
23.276	18.8096
23.294	18.8232
23.312	18.8326
23.33	18.839
23.348	18.8414
23.366	18.8342
23.384	18.8181
23.402	18.7925
23.42	18.7526
23.438	18.6975
23.456	18.6284
23.474	18.5437
23.492	18.4424
23.51	18.3256
23.528	18.1956
23.546	18.0517
23.564	17.8943
23.582	17.729
23.6	17.557
23.618	17.3768
23.636	17.1954
23.654	17.0155
23.672	16.834
23.69	16.659
23.708	16.4957
23.726	16.3396
23.744	16.1977
23.762	16.0765
23.78	15.9719
23.798	15.8877
23.816	15.8291
23.834	15.7944
23.852	15.7837
23.87	15.7987
23.888	15.8403
23.906	15.9066
23.924	15.9953
23.942	16.1078
23.96	16.2428
23.978	16.3945
23.996	16.5621
24.014	16.7474
24.032	16.9426
24.05	17.1435
24.068	17.3544
24.086	17.5684
24.104	17.7791
24.122	17.9909
24.14	18.1994
24.158	18.3981
24.176	18.5888
24.194	18.7709
24.212	18.9401
24.23	19.0952
24.248	19.2376
24.266	19.367
24.284	19.4824
24.302	19.5839
24.32	19.6736
24.338	19.7532
24.356	19.821
24.374	19.8791
24.392	19.9306
24.41	19.9749
24.428	20.012
24.446	20.0445
24.464	20.0733
24.482	20.097
24.5	20.1182
24.518	20.1392
24.536	20.1594
24.554	20.1782
24.572	20.1953
24.59	20.2119
24.608	20.227
24.626	20.2377
24.644	20.2435
24.662	20.2464
24.68	20.2411
24.698	20.2226
24.716	20.1945
24.734	20.1542
24.752	20.0971
24.77	20.0236
24.788	19.9348
24.806	19.8255
24.824	19.692
24.842	19.5373
24.86	19.3598
24.878	19.1574
24.896	18.9304
24.914	18.6793
24.932	18.403
24.95	18.1008
24.968	17.7729
24.986	17.4208
25.004	17.0455
25.022	16.6458
25.04	16.2231
25.058	15.78
25.076	15.3172
25.094	14.8329
25.112	14.3314
25.13	13.8172
25.148	13.2874
25.166	12.7437
25.184	12.1911
25.202	11.6313
25.22	11.0614
25.238	10.4856
25.256	9.908465
25.274	9.327481
25.292	8.743638
25.31	8.161274
25.328	7.582606
25.346	7.004484
25.364	6.430481
25.382	5.864755
25.4	5.305833
25.418	4.753546
25.436	4.211966
25.454	3.683954
25.472	3.166106
25.49	2.661343
25.508	2.173899
25.526	1.703537
25.544	1.248251
25.562	0.813477
25.58	0.404231
25.598	0.016168
25.616	-0.348405
25.634	-0.683062
25.652	-0.984413
25.67	-1.257846
25.688	-1.497986
25.706	-1.698278
25.724	-1.859260
25.742	-1.983487
25.76	-2.065205
25.778	-2.099002
25.796	-2.086630
25.814	-2.029300
25.832	-1.926315
25.85	-1.776790
25.868	-1.580467
25.886	-1.339652
25.904	-1.056848
25.922	-0.730684
25.94	-0.359858
25.958	0.048135
25.976	0.485839
25.994	0.957155
26.012	1.461591
26.03	1.990935
26.048	2.538130
26.066	3.108581
26.084	3.699940
26.102	4.306353
26.12	4.923955
26.138	5.556767
26.156	6.202512
26.174	6.857947
26.192	7.521159
26.21	8.193788
26.228	8.876389
26.246	9.569436
26.264	10.2733
26.282	10.9875
26.3	11.7115
26.318	12.4449
26.336	13.189
26.354	13.9429
26.372	14.7039
26.39	15.4696
26.408	16.2458
26.426	17.028
26.444	17.8071
26.462	18.5767
26.48	19.3484
26.498	20.1129
26.516	20.8547
26.534	21.5638
26.552	22.2568
26.57	22.9206
26.588	23.536
26.606	24.0916
26.624	24.6048
26.642	25.0637
26.66	25.4524
26.678	25.7625
26.696	26.0076
26.714	26.1789
26.732	26.2651
26.75	26.2596
26.768	26.1703
26.786	25.996
26.804	25.7347
26.822	25.3834
26.84	24.9416
26.858	24.4164
26.876	23.8154
26.894	23.1389
26.912	22.3769
26.93	21.5461
26.948	20.6646
26.966	19.6897
26.984	18.5302
27.002	17.3901
27.02	16.4923
27.028	16.2555