File: Bakgrunnsmateriale/MATLAB/FTIR/ftir_data/LPE453/Mapping_121/LPE453_t103_cm-1.asc
PE IR       SPECTRUM    SPECTRUM    ASCII       PEDS        1.60
  -1
LP0678~1.ASC
17/05/16
22:48:46.00
17/05/16
22:48:46.00
tln
$LPE453_t0103$<tbV0>[5.2,10.4,8.0,0.0,27,1,0]
370
64

2002,4.07
MIRTGS : RIGHTBACK : INTERNAL 2
MIR : ON : INTERNAL 2
OPTKBR

0.200000
8
8.000000
FILLER
RATIO
SPECTRUM
UNLOCKED 256

DOUBLE
64
COMBINED
1
0
0

1.000000
RATIO

1
0
TRUE
51149
0
LEFT NOT FITTED RIGHT NOT FITTED 0
NONE
NONE
15600
12
4.427000
51148
TRUE
1 0 8 72 0 0 0 0

15798

#HDR
-1
-1
#GR
CM-1
%T
2.38419e-05
0.0
5000
-1.000000
4631
8
40.005
-2.487182
#DATA
5000	0.216054
4996	0.117206
4992	-0.059938
4988	-0.224447
4984	-0.232625
4980	0.061655
4976	0.161957
4972	-0.142359
4968	-0.293898
4964	-0.112390
4960	-0.041627
4956	-0.134229
4952	-0.105762
4948	-0.105118
4944	-0.055122
4940	0.207018
4936	0.327610
4932	0.259399
4928	0.090956
4924	-0.178956
4920	-0.181317
4916	0.118732
4912	0.302648
4908	0.282931
4904	0.156903
4900	0.130414
4896	0.271606
4892	0.253176
4888	0.346636
4884	0.748348
4880	0.723361
4876	0.172615
4872	-0.145363
4868	-0.089073
4864	0.051999
4860	0.257563
4856	0.383782
4852	0.303435
4848	0.192785
4844	0.155782
4840	0.157046
4836	0.145602
4832	0.097703
4828	0.055575
4824	0.093483
4820	0.183415
4816	0.197529
4812	0.133848
4808	0.020122
4804	-0.080418
4800	-0.039649
4796	0.073981
4792	0.113701
4788	-0.005292
4784	-0.279569
4780	-0.497126
4776	-0.523781
4772	-0.501632
4768	-0.508570
4764	-0.442814
4760	-0.191307
4756	0.184559
4752	0.398230
4748	0.271081
4744	0.124430
4740	0.124049
4736	-0.153160
4732	-0.487971
4728	-0.372838
4724	0.132727
4720	0.803995
4716	0.845217
4712	0.389981
4708	0.292205
4704	0.375795
4700	0.510764
4696	0.408411
4692	0.019955
4688	0.272917
4684	0.979042
4680	0.816369
4676	0.154662
4672	-0.087571
4668	-0.109934
4664	-0.026702
4660	0.153732
4656	0.383234
4652	0.435519
4648	0.342297
4644	-0.051617
4640	-0.775194
4636	-0.560164
4632	0.407385
4628	1.049900
4624	1.767468
4620	2.087283
4616	1.196694
4612	0.108242
4608	-0.591206
4604	-1.022100
4600	-0.408220
4596	0.591278
4592	0.738716
4588	0.382184
4584	0.092649
4580	-0.011825
4576	0.122451
4572	0.296401
4568	0.206446
4564	0.082206
4560	0.138330
4556	0.054645
4552	-0.185775
4548	-0.087666
4544	0.232124
4540	0.483155
4536	0.660586
4532	0.495791
4528	0.001811
4524	-0.498557
4520	-0.462722
4516	-0.628376
4512	-1.500988
4508	-2.248620
4504	-2.473783
4500	-1.027750
4496	4.660105
4492	12.4823
4488	12.0742
4484	3.142261
4480	-1.907634
4476	-1.733970
4472	-0.386810
4468	0.701260
4464	0.775742
4460	0.611567
4456	0.673556
4452	0.651168
4448	0.531029
4444	0.293946
4440	0.186896
4436	0.619053
4432	1.004219
4428	0.768661
4424	0.426077
4420	0.233817
4416	0.099921
4412	0.110936
4408	0.124812
4404	0.247311
4400	0.431084
4396	0.336003
4392	0.176286
4388	0.290560
4384	0.476408
4380	0.492453
4376	0.545334
4372	0.662207
4368	0.551223
4364	0.225448
4360	-0.050282
4356	-0.216960
4352	-0.287389
4348	-0.089979
4344	0.196313
4340	0.318574
4336	0.293946
4332	0.187349
4328	0.161123
4324	0.176978
4320	0.284767
4316	0.546240
4312	0.665712
4308	0.527524
4304	0.340533
4300	0.126719
4296	0.047707
4292	0.035405
4288	0.013852
4284	0.173187
4280	0.356030
4276	0.394463
4272	0.292778
4268	0.201439
4264	0.231719
4260	0.186848
4256	0.085568
4252	0.046467
4248	0.029206
4244	0.073146
4240	0.152063
4236	0.145912
4232	0.062823
4228	0.047683
4224	0.165581
4220	0.285148
4216	0.311231
4212	0.310468
4208	0.285744
4204	0.180387
4200	0.088644
4196	0.126361
4192	0.284600
4188	0.359296
4184	0.220203
4180	0.064826
4176	-0.002455
4172	-0.027084
4168	0.041532
4164	0.170087
4160	0.222396
4156	0.196504
4152	0.158119
4148	0.124764
4144	0.143408
4140	0.171446
4136	0.184392
4132	0.189900
4128	0.069713
4124	-0.055956
4120	-0.034618
4116	0.051903
4112	0.095772
4108	0.054025
4104	0.001096
4100	-0.060892
4096	-0.079822
4092	0.023913
4088	0.095772
4084	0.062751
4080	0.024986
4076	-0.006818
4072	-0.074172
4068	-0.031781
4064	0.128960
4060	0.200605
4056	0.172638
4052	0.091505
4048	0.044989
4044	0.010538
4040	-0.099611
4036	-0.116825
4032	-0.034403
4028	-0.049233
4024	-0.074648
4020	0.034928
4016	0.147986
4012	0.149202
4008	0.046682
4004	-0.016760
4000	0.110363
3996	0.204873
3992	0.158405
3988	0.163817
3984	0.237774
3980	0.253057
3976	0.162625
3972	0.029277
3968	-0.061678
3964	-0.018572
3960	0.179147
3956	0.318694
3952	0.273442
3948	0.181818
3944	0.162100
3940	0.175809
3936	0.141024
3932	0.104522
3928	0.101971
3924	0.054121
3920	0.052475
3916	0.158023
3912	0.192117
3908	0.163626
3904	0.176882
3900	0.202083
3896	0.178122
3892	0.134444
3888	0.142335
3884	0.086236
3880	-0.002884
3876	0.069880
3872	0.157594
3868	0.138998
3864	0.118398
3860	0.069355
3856	-0.040030
3852	-0.088238
3848	-0.044107
3844	-0.006055
3840	0.076937
3836	0.186777
3832	0.170779
3828	0.132083
3824	0.119018
3820	0.066733
3816	0.018310
3812	-0.033164
3808	-0.020217
3804	0.048685
3800	0.064539
3796	0.022697
3792	-0.030755
3788	-0.029754
3784	0.011467
3780	0.025582
3776	0.020718
3772	-0.015187
3768	-0.057649
3764	0.054430
3760	0.200390
3756	0.174951
3752	0.103855
3748	0.087785
3744	0.102233
3740	0.091695
3736	0.015711
3732	-0.056433
3728	-0.091242
3724	-0.143504
3720	-0.156044
3716	-0.060224
3712	0.072407
3708	0.174117
3704	0.190162
3700	0.155711
3696	0.163960
3692	0.153470
3688	0.084471
3684	0.085806
3680	0.170040
3676	0.207519
3672	0.191974
3668	0.153827
3664	0.077509
3660	0.004625
3656	0.009155
3652	0.077176
3648	0.095129
3644	0.081086
3640	0.069785
3636	0.024294
3632	-0.010371
3628	-0.059509
3624	-0.077271
3620	-0.022482
3616	-0.006914
3612	-0.045609
3608	-0.036263
3604	0.000882
3600	0.003671
3596	-0.025916
3592	-0.049448
3588	-0.012946
3584	0.053119
3580	0.068068
3576	0.041413
3572	0.070214
3568	0.151276
3564	0.139951
3560	0.050997
3556	-0.014662
3552	-0.024437
3548	-0.017952
3544	-0.013494
3540	-0.000858
3536	-0.000429
3532	0.019145
3528	0.091981
3524	0.171518
3520	0.178360
3516	0.117540
3512	0.093102
3508	0.155925
3504	0.196814
3500	0.089287
3496	-0.079488
3492	-0.116634
3488	0.008201
3484	0.093984
3480	0.076818
3476	0.118446
3472	0.151395
3468	0.033783
3464	-0.063014
3460	0.019240
3456	0.107479
3452	0.060820
3448	-0.016379
3444	-0.038981
3440	-0.022506
3436	-0.003409
3432	0.038647
3428	0.126361
3424	0.127243
3420	-0.024080
3416	-0.118327
3412	-0.065207
3408	-0.027680
3404	-0.040555
3400	-0.037217
3396	-0.033187
3392	-0.034046
3388	0.007414
3384	0.049138
3380	0.089621
3376	0.111651
3372	0.001835
3368	-0.104236
3364	-0.096821
3360	-0.074172
3356	-0.058937
3352	-0.028657
3348	0.059533
3344	0.149655
3340	0.135588
3336	0.059127
3332	0.031471
3328	0.077700
3324	0.098443
3320	0.087261
3316	0.057816
3312	-0.001811
3308	-0.036835
3304	-0.075340
3300	-0.101327
3296	-0.059080
3292	0.016379
3288	0.037980
3284	0.003528
3280	-0.000166
3276	0.015354
3272	0.008559
3268	0.000452
3264	-0.019931
3260	-0.008988
3256	0.086069
3252	0.160169
3248	0.153803
3244	0.055503
3240	-0.065970
3236	-0.054335
3232	-0.011205
3228	-0.023698
3224	-0.015020
3220	-0.059580
3216	-0.098276
3212	0.027728
3208	0.153899
3204	0.200104
3200	0.201988
3196	0.080943
3192	-0.028371
3188	-0.035190
3184	0.012397
3180	0.068688
3176	0.047397
3172	0.018644
3168	0.009727
3164	-0.047183
3160	-0.066685
3156	0.002980
3152	0.101065
3148	0.180721
3144	0.194025
3140	0.120544
3136	0.049233
3132	0.049233
3128	0.080943
3124	0.041103
3120	-0.048518
3116	-0.024414
3112	0.065994
3108	0.103187
3104	0.060820
3100	-0.045514
3096	-0.113224
3092	-0.068593
3088	0.040912
3084	0.088024
3080	0.065517
3076	0.042390
3072	0.025057
3068	0.043988
3064	0.033831
3060	-0.050950
3056	-0.086379
3052	-0.013327
3048	0.089788
3044	0.102853
3040	0.012230
3036	0.001287
3032	0.106406
3028	0.153231
3024	0.107812
3020	0.070118
3016	0.090622
3012	0.070619
3008	0.004053
3004	-0.000119
3000	0.027132
2996	0.031399
2992	0.021338
2988	0.013637
2984	-0.008296
2980	-0.028800
2976	0.039887
2972	0.133132
2968	0.153064
2964	0.112724
2960	0.010418
2956	-0.054931
2952	-0.018930
2948	0.051760
2944	0.107359
2940	0.094962
2936	0.042033
2932	0.031208
2928	0.021004
2924	0.002169
2920	0.034308
2916	0.088953
2912	0.105929
2908	0.077962
2904	0.059914
2900	0.025796
2896	-0.052022
2892	-0.080895
2888	-0.027346
2884	0.025725
2880	0.023937
2876	0.000119
2872	-0.025844
2868	-0.028157
2864	0.042843
2860	0.111341
2856	0.090217
2852	0.009393
2848	-0.071358
2844	-0.070381
2840	-0.028276
2836	-0.028109
2832	-0.036382
2828	-0.043177
2824	-0.030589
2820	-0.001621
2816	-0.001645
2812	-0.014972
2808	-0.016999
2804	0.020051
2800	0.068402
2796	0.071787
2792	0.044488
2788	0.027298
2784	0.045943
2780	0.085902
2776	0.077486
2772	0.016570
2768	0.014257
2764	0.068879
2760	0.104188
2756	0.118708
2752	0.103473
2748	0.082421
2744	0.063633
2740	0.027561
2736	0.010251
2732	0.007295
2728	0.033879
2724	0.105690
2720	0.166702
2716	0.145721
2712	0.028634
2708	-0.028586
2704	-0.003051
2700	0.013160
2696	0.023007
2692	-0.007534
2688	-0.027298
2684	-0.016188
2680	-0.016832
2676	-0.001931
2672	0.004196
2668	-0.018095
2664	-0.033283
2660	0.006699
2656	0.086212
2652	0.121378
2648	0.124883
2644	0.123906
2640	0.105404
2636	0.082421
2632	0.042033
2628	0.007820
2624	0.021028
2620	0.047969
2616	0.034260
2612	0.008225
2608	0.029349
2604	0.082898
2600	0.097775
2596	0.061774
2592	0.017452
2588	-0.021314
2584	-0.052976
2580	-0.053668
2576	-0.019502
2572	0.018405
2568	0.062465
2564	0.117254
2560	0.118660
2556	0.034976
2552	-0.040507
2548	-0.033068
2544	0.004601
2540	-0.008726
2536	-0.040292
2532	-0.044250
2528	-0.038361
2524	-0.015711
2520	-0.010156
2516	0.006580
2512	0.068950
2508	0.072765
2504	0.057220
2500	0.114870
2496	0.139713
2492	0.085639
2488	0.035262
2484	-0.000524
2480	-0.010514
2476	0.030660
2472	0.057816
2468	0.075292
2464	0.085854
2460	0.040555
2456	0.010347
2452	0.041341
2448	0.076389
2444	0.081253
2440	0.092196
2436	0.124073
2432	0.141191
2428	0.175285
2424	0.228357
2420	0.211000
2416	0.171470
2412	0.151658
2408	0.108504
2404	0.101041
2400	0.149035
2396	0.207424
2392	0.233960
2388	0.208330
2384	0.211310
2380	0.280070
2376	0.346994
2372	0.377511
2368	0.382256
2364	0.410461
2360	0.446057
2356	0.459885
2352	0.500297
2348	0.529265
2344	0.513124
2340	0.540208
2336	0.622868
2332	0.696897
2328	0.780558
2324	0.884246
2320	0.984120
2316	1.040554
2312	1.052212
2308	1.118969
2304	1.256155
2300	1.388669
2296	1.499533
2292	1.611971
2288	1.731038
2284	1.849842
2280	1.960515
2276	2.057290
2272	2.176690
2268	2.374601
2264	2.634763
2260	2.843284
2256	2.981400
2252	3.170657
2248	3.443264
2244	3.705549
2240	3.931808
2236	4.179239
2232	4.443120
2228	4.741597
2224	5.090951
2220	5.411219
2216	5.703353
2212	6.010890
2208	6.317281
2204	6.677007
2200	7.118678
2196	7.564234
2192	7.997465
2188	8.440351
2184	8.893465
2180	9.341764
2176	9.774470
2172	10.2258
2168	10.701
2164	11.1958
2160	11.7033
2156	12.2178
2152	12.7251
2148	13.2118
2144	13.7631
2140	14.3767
2136	14.958
2132	15.5496
2128	16.1376
2124	16.6309
2120	17.1067
2116	17.6647
2112	18.2497
2108	18.8135
2104	19.3623
2100	19.8801
2096	20.4136
2092	20.9734
2088	21.489
2084	21.9746
2080	22.5266
2076	23.14
2072	23.7137
2068	24.2439
2064	24.726
2060	25.1497
2056	25.5808
2052	26.0449
2048	26.5491
2044	27.046
2040	27.466
2036	27.8936
2032	28.3505
2028	28.7267
2024	29.0568
2020	29.436
2016	29.8535
2012	30.232
2008	30.5242
2004	30.8266
2000	31.2289
1996	31.6489
1992	31.9541
1988	32.1683
1984	32.4229
1980	32.7284
1976	33.0251
1972	33.2949
1968	33.5659
1964	33.8845
1960	34.2008
1956	34.4207
1952	34.5474
1948	34.6886
1944	34.9351
1940	35.1973
1936	35.4056
1932	35.6039
1928	35.7462
1924	35.842
1920	35.9698
1916	36.133
1912	36.334
1908	36.5507
1904	36.7291
1900	36.8712
1896	37.0038
1892	37.1119
1888	37.1672
1884	37.2192
1880	37.3265
1876	37.4418
1872	37.5736
1868	37.7555
1864	37.8699
1860	37.9459
1856	38.0956
1852	38.2103
1848	38.2462
1844	38.3338
1840	38.4663
1836	38.5579
1832	38.6159
1828	38.6255
1824	38.6023
1820	38.6162
1816	38.6439
1812	38.6877
1808	38.7818
1804	38.8459
1800	38.8902
1796	38.9786
1792	39.0568
1788	39.1106
1784	39.1746
1780	39.2578
1776	39.363
1772	39.4305
1768	39.3894
1764	39.2904
1760	39.2309
1756	39.2349
1752	39.2428
1748	39.2342
1744	39.2442
1740	39.2473
1736	39.2224
1732	39.257
1728	39.3707
1724	39.4579
1720	39.5312
1716	39.6162
1712	39.695
1708	39.76
1704	39.731
1700	39.6588
1696	39.6383
1692	39.6185
1688	39.6003
1684	39.6004
1680	39.5633
1676	39.5264
1672	39.5793
1668	39.6625
1664	39.681
1660	39.6788
1656	39.7121
1652	39.7947
1648	39.8747
1644	39.9029
1640	39.8976
1636	39.8558
1632	39.8465
1628	39.8868
1624	39.9062
1620	39.8733
1616	39.7548
1612	39.617
1608	39.5764
1604	39.6065
1600	39.6243
1596	39.6593
1592	39.7395
1588	39.8263
1584	39.8683
1580	39.8372
1576	39.8238
1572	39.8813
1568	39.9369
1564	39.9383
1560	39.8993
1556	39.8862
1552	39.8666
1548	39.7601
1544	39.6353
1540	39.5608
1536	39.5096
1532	39.4925
1528	39.5373
1524	39.61
1520	39.6852
1516	39.7788
1512	39.8576
1508	39.8891
1504	39.9176
1500	39.925
1496	39.8391
1492	39.7452
1488	39.7364
1484	39.7381
1480	39.7023
1476	39.6303
1472	39.5546
1468	39.4791
1464	39.4163
1460	39.466
1456	39.5646
1452	39.5761
1448	39.6073
1444	39.7238
1440	39.8812
1436	39.9953
1432	39.9879
1428	39.924
1424	39.8496
1420	39.7854
1416	39.7362
1412	39.6456
1408	39.5467
1404	39.4907
1400	39.4605
1396	39.3968
1392	39.274
1388	39.2672
1384	39.4547
1380	39.6683
1376	39.7722
1372	39.7675
1368	39.7386
1364	39.7728
1360	39.8329
1356	39.8134
1352	39.7267
1348	39.6091
1344	39.4916
1340	39.4132
1336	39.3438
1332	39.2711
1328	39.2587
1324	39.2938
1320	39.2882
1316	39.3341
1312	39.4741
1308	39.5774
1304	39.6386
1300	39.6838
1296	39.6878
1292	39.638
1288	39.5816
1284	39.5061
1280	39.3917
1276	39.3541
1272	39.3515
1268	39.2452
1264	39.069
1260	38.9597
1256	38.9408
1252	38.9656
1248	39.032
1244	39.1451
1240	39.2947
1236	39.3986
1232	39.4517
1228	39.5067
1224	39.5344
1220	39.5013
1216	39.4192
1212	39.3619
1208	39.3247
1204	39.2106
1200	39.0369
1196	38.9199
1192	38.8771
1188	38.7917
1184	38.7305
1180	38.7865
1176	38.8729
1172	38.9438
1168	39.0737
1164	39.2209
1160	39.2972
1156	39.2724
1152	39.2086
1148	39.184
1144	39.1196
1140	38.9962
1136	38.8963
1132	38.8181
1128	38.6742
1124	38.4863
1120	38.4127
1116	38.4121
1112	38.3658
1108	38.3479
1104	38.4781
1100	38.7218
1096	38.9542
1092	39.1152
1088	39.2092
1084	39.2411
1080	39.1797
1076	39.0854
1072	38.9807
1068	38.8132
1064	38.6673
1060	38.5349
1056	38.3304
1052	38.1276
1048	38.0124
1044	38.0239
1040	38.1249
1036	38.2735
1032	38.4295
1028	38.5012
1024	38.5544
1020	38.6324
1016	38.6868
1012	38.7181
1008	38.671
1004	38.5808
1000	38.4869
996	 38.3814
992	 38.2874
988	 38.1195
984	 37.9019
980	 37.8103
976	 37.8301
972	 37.7964
968	 37.7285
964	 37.768
960	 37.9279
956	 38.0989
952	 38.2009
948	 38.2786
944	 38.3781
940	 38.4068
936	 38.3279
932	 38.2254
928	 38.0803
924	 37.9148
920	 37.7661
916	 37.5971
912	 37.4115
908	 37.2262
904	 37.1624
900	 37.2846
896	 37.4373
892	 37.4913
888	 37.4804
884	 37.5346
880	 37.7068
876	 37.8483
872	 37.8815
868	 37.8435
864	 37.709
860	 37.5309
856	 37.3118
852	 37.0265
848	 36.771
844	 36.5562
840	 36.3901
836	 36.3608
832	 36.3807
828	 36.4033
824	 36.549
820	 36.6885
816	 36.7006
812	 36.7846
808	 36.98
804	 37.1464
800	 37.2318
796	 37.097
792	 36.8139
788	 36.5781
784	 36.3327
780	 36.1711
776	 36.0195
772	 35.7055
768	 35.465
764	 35.3453
760	 35.3131
756	 35.4386
752	 35.6111
748	 35.7401
744	 35.7295
740	 35.7206
736	 35.9572
732	 36.2356
728	 36.2429
724	 36.0482
720	 35.8159
716	 35.4753
712	 35.0918
708	 34.8784
704	 34.8012
700	 34.6875
696	 34.4614
692	 34.1983
688	 34.1233
684	 34.3304
680	 34.619
676	 34.885
672	 35.1479
668	 35.2834
664	 35.2371
660	 35.0336
656	 34.8278
652	 34.7419
648	 34.6028
644	 34.4493
640	 34.2192
636	 33.7708
632	 33.3765
628	 33.1399
624	 32.9941
620	 32.9396
616	 32.9389
612	 32.9916
608	 33.2406
604	 33.7964
600	 34.1856
596	 34.1115
592	 33.8751
588	 33.5649
584	 33.2936
580	 33.1273
576	 32.9387
572	 32.7062
568	 32.4806
564	 32.2834
560	 32.0385
556	 31.6927
552	 31.2214
548	 30.8997
544	 31.0663
540	 31.4381
536	 31.5802
532	 31.5693
528	 31.6808
524	 31.7571
520	 31.5341
516	 31.1868
512	 31.1074
508	 31.2752
504	 31.2693
500	 31.0872
496	 30.6524
492	 29.7352
488	 29.0229
484	 29.0352
480	 29.2793
476	 29.3882
472	 29.366
468	 29.0227
464	 28.5527
460	 28.9186
456	 30.0502
452	 30.7156
448	 30.4591
444	 29.8687
440	 29.2681
436	 28.9442
432	 29.266
428	 29.3643
424	 28.5492
420	 27.1904
416	 26.5048
412	 27.4311
408	 29.9597
404	 31.1621
400	 24.1579
396	 14.7665
392	 14.2686
388	 17.2355
384	 19.8883
380	 21.9465
376	 16.4697
372	 11.1387
370	 12.1032