File: Bakgrunnsmateriale/MATLAB/FTIR/ftir_data/LPE453/Mapping_121/LPE453_t93_cm-1.asc
PE IR       SPECTRUM    SPECTRUM    ASCII       PEDS        1.60
  -1
LPDBD5~1.ASC
17/05/16
22:02:03.00
17/05/16
22:02:03.00
tln
$LPE453_t0093$<tbV0>[2.6,7.8,8.0,0.0,27,1,0]
370
64

2002,4.07
MIRTGS : RIGHTBACK : INTERNAL 2
MIR : ON : INTERNAL 2
OPTKBR

0.200000
8
8.000000
FILLER
RATIO
SPECTRUM
UNLOCKED 256

DOUBLE
64
COMBINED
1
0
0

1.000000
RATIO

1
0
TRUE
51149
0
LEFT NOT FITTED RIGHT NOT FITTED 0
NONE
NONE
15600
12
4.427000
51148
TRUE
1 0 8 72 0 0 0 0

15798

#HDR
-1
-1
#GR
CM-1
%T
2.38419e-05
0.0
5000
-1.000000
4631
8
35.2691
-36.1992
#DATA
5000	0.520515
4996	0.581169
4992	0.035476
4988	-0.014090
4984	0.205540
4980	0.031113
4976	0.123262
4972	0.284671
4968	0.288248
4964	0.333285
4960	0.287723
4956	0.263571
4952	0.265717
4948	0.131702
4944	0.093221
4940	0.142550
4936	0.145459
4932	0.200819
4928	0.308179
4924	0.310659
4920	0.201058
4916	0.052833
4912	-0.180888
4908	-0.316357
4904	-0.079560
4900	0.288271
4896	0.195026
4892	-0.249910
4888	-0.316977
4884	0.022482
4880	0.221896
4876	0.307321
4872	0.385403
4868	0.368094
4864	0.332093
4860	0.325536
4856	0.454521
4852	0.587153
4848	0.517296
4844	0.378131
4840	0.354647
4836	0.374364
4832	0.366616
4828	0.496459
4824	0.713253
4820	0.650238
4816	0.297403
4812	0.136733
4808	0.308895
4804	0.375342
4800	0.272989
4796	0.343084
4792	0.463438
4788	0.523042
4784	0.566029
4780	0.406312
4776	0.264668
4772	0.275588
4768	0.289297
4764	0.428366
4760	0.530171
4756	0.491476
4752	0.365233
4748	0.081110
4744	-0.158715
4740	0.043201
4736	0.726556
4732	1.003527
4728	0.579190
4724	0.265216
4720	0.207567
4716	0.294137
4712	0.551152
4708	0.717282
4704	0.557446
4700	0.380659
4696	0.512003
4692	0.528311
4688	0.491857
4684	0.842809
4680	1.424145
4676	1.785373
4672	1.598572
4668	0.725102
4664	-0.428009
4660	-0.888061
4656	-0.641870
4652	-0.763344
4648	-0.826811
4644	0.087690
4640	0.882673
4636	1.112914
4632	1.594877
4628	1.933670
4624	1.487183
4620	0.971221
4616	0.654768
4612	0.364804
4608	0.260043
4604	0.381398
4600	0.335264
4596	-0.551700
4592	-1.070857
4588	-0.077962
4584	1.191020
4580	1.134705
4576	-0.030779
4572	-0.806450
4568	-1.027655
4564	-1.153707
4560	-1.120424
4556	-1.209783
4552	-1.539254
4548	-1.406955
4544	-1.144981
4540	-1.058769
4536	-1.469588
4532	-1.897263
4528	-1.472330
4524	-0.903439
4520	-0.804448
4516	0.018429
4512	1.778650
4508	6.320190
4504	10.4595
4500	10.1733
4496	13.7336
4492	18.659
4488	18.6014
4484	10.7028
4480	0.858044
4476	-2.113628
4472	-1.840734
4468	-1.606011
4464	-1.425266
4460	-1.256012
4456	-1.290941
4452	-1.850175
4448	-2.148938
4444	-1.833033
4440	-1.631116
4436	-1.263904
4432	-0.637745
4428	-0.153279
4424	0.037217
4420	0.027441
4416	0.210142
4412	0.480198
4408	0.565958
4404	0.417995
4400	0.503969
4396	1.051568
4392	1.333308
4388	1.171207
4384	1.011395
4380	0.775861
4376	0.561952
4372	0.562620
4368	0.499439
4364	0.420808
4360	0.478577
4356	0.602746
4352	0.720858
4348	0.706982
4344	0.556898
4340	0.373959
4336	0.321626
4332	0.492215
4328	0.542354
4324	0.333714
4320	0.146603
4316	0.039958
4312	-0.028276
4308	0.008916
4304	0.260543
4300	0.478219
4296	0.395202
4292	0.125932
4288	-0.029301
4284	0.004029
4280	-0.005650
4276	-0.038003
4272	0.016093
4268	0.063061
4264	0.201272
4260	0.390744
4256	0.502705
4252	0.555706
4248	0.540137
4244	0.479722
4240	0.447440
4236	0.487732
4232	0.481963
4228	0.372290
4224	0.276350
4220	0.186610
4216	0.109648
4212	0.136399
4208	0.132060
4204	0.021815
4200	0.022840
4196	0.091385
4192	0.072431
4188	0.018906
4184	-0.091528
4180	-0.119256
4176	0.073909
4172	0.223731
4168	0.103306
4164	0.002694
4160	0.167346
4156	0.298833
4152	0.267148
4148	0.185465
4144	0.137352
4140	0.172400
4136	0.127482
4132	0.042486
4128	0.078892
4124	0.140571
4120	0.158357
4116	0.200605
4112	0.266718
4108	0.262022
4104	0.189709
4100	0.201988
4096	0.274038
4092	0.252747
4088	0.200176
4084	0.166296
4080	0.084400
4076	0.029444
4072	0.092768
4068	0.146937
4064	0.076699
4060	0.024628
4056	0.056767
4052	0.032353
4048	-0.010681
4044	-0.000333
4040	-0.006246
4036	-0.022029
4032	0.013875
4028	0.063753
4024	0.055170
4020	0.037956
4016	0.087404
4012	0.149774
4008	0.150537
4004	0.037503
4000	-0.091004
3996	-0.032138
3992	0.019073
3988	-0.104212
3984	-0.147628
3980	-0.007319
3976	0.158905
3972	0.209021
3968	0.140905
3964	0.030469
3960	-0.043749
3956	0.006389
3952	0.147533
3948	0.154089
3944	0.035166
3940	0.039505
3936	0.201272
3932	0.356125
3928	0.370645
3924	0.233507
3920	0.015115
3916	-0.140285
3912	-0.133132
3908	0.037908
3904	0.181317
3900	0.172805
3896	0.113272
3892	0.012755
3888	-0.098228
3884	-0.083065
3880	0.073719
3876	0.197029
3872	0.184869
3868	0.070714
3864	-0.010561
3860	0.020098
3856	0.055789
3852	0.063037
3848	0.120472
3844	0.090503
3840	-0.020885
3836	0.028491
3832	0.150394
3828	0.189542
3824	0.152397
3820	0.073623
3816	-0.005793
3812	-0.061464
3808	-0.078439
3804	-0.057864
3800	-0.044655
3796	-0.029301
3792	0.047087
3788	0.110816
3784	0.093626
3780	0.063490
3776	0.066971
3772	0.101876
3768	0.171709
3764	0.221848
3760	0.209403
3756	0.161790
3752	0.121593
3748	0.118184
3744	0.121688
3740	0.098371
3736	0.091695
3732	0.116300
3728	0.117301
3724	0.136089
3720	0.201272
3716	0.227212
3712	0.163412
3708	0.095272
3704	0.103330
3700	0.102448
3696	0.052976
3692	0.014996
3688	-0.002503
3684	0.018095
3680	0.106859
3676	0.219607
3672	0.248265
3668	0.171542
3664	0.098156
3660	0.054359
3656	-0.002980
3652	-0.033187
3648	-0.019812
3644	-0.044155
3640	-0.066304
3636	0.000143
3632	0.043845
3628	0.013065
3624	-0.035166
3620	-0.066757
3616	0.001454
3612	0.064754
3608	0.012803
3604	-0.032234
3600	-0.028181
3596	-0.030112
3592	-0.004744
3588	-0.005435
3584	-0.035881
3580	0.037074
3576	0.123476
3572	0.135660
3568	0.123929
3564	0.202870
3560	0.198721
3556	0.041127
3552	-0.028872
3548	0.021004
3544	0.094151
3540	0.129318
3536	0.106692
3532	0.094985
3528	0.112247
3524	0.157618
3520	0.171232
3516	0.055027
3512	-0.053882
3508	-0.070571
3504	-0.071287
3500	-0.028371
3496	0.038266
3492	0.063037
3488	0.089669
3484	0.083088
3480	0.003385
3476	-0.007414
3472	0.047159
3468	0.021028
3464	-0.070381
3460	-0.093889
3456	0.028848
3452	0.188136
3448	0.246357
3444	0.215625
3440	0.171089
3436	0.125336
3432	0.079107
3428	0.092530
3424	0.089454
3420	-0.017404
3416	-0.089693
3412	-0.057816
3408	0.039577
3404	0.127959
3400	0.142765
3396	0.104355
3392	-0.005722
3388	-0.056385
3384	-0.014066
3380	-0.056934
3376	-0.123977
3372	-0.095343
3368	-0.036954
3364	-0.020670
3360	-0.000905
3356	0.020503
3352	-0.053119
3348	-0.163650
3344	-0.170540
3340	-0.047874
3336	0.116777
3332	0.138926
3328	0.041222
3324	0.015664
3320	0.060081
3316	0.098824
3312	0.157165
3308	0.149798
3304	0.060987
3300	0.012087
3296	-0.015449
3292	-0.036454
3288	-0.019574
3284	0.015950
3280	-0.012135
3276	-0.057101
3272	-0.018048
3268	0.038456
3264	0.058317
3260	0.053501
3256	0.038242
3252	0.039267
3248	0.059604
3244	0.079393
3240	0.060105
3236	-0.008296
3232	-0.057458
3228	-0.028133
3224	0.031423
3220	-0.005960
3216	-0.054264
3212	-0.012969
3208	-0.024795
3204	-0.042676
3200	0.012040
3196	0.035095
3192	-0.010895
3188	-0.024557
3184	0.034260
3180	0.043892
3176	0.029444
3172	0.078344
3168	0.131821
3164	0.139856
3160	0.107741
3156	0.106620
3152	0.159478
3148	0.183558
3144	0.123977
3140	0.050210
3136	0.094580
3132	0.177240
3128	0.174522
3124	0.144958
3120	0.136852
3116	0.179243
3112	0.239586
3108	0.243520
3104	0.205683
3100	0.167560
3096	0.170302
3092	0.142836
3088	0.059509
3084	0.058388
3080	0.090456
3076	0.042009
3072	-0.033283
3068	-0.039458
3064	0.042748
3060	0.072288
3056	0.021219
3052	0.017094
3048	0.062680
3044	0.076103
3040	0.033640
3036	-0.005030
3032	-0.014662
3028	0.019240
3024	0.081920
3020	0.060200
3016	-0.051808
3012	-0.124001
3008	-0.078392
3004	0.039172
3000	0.104522
2996	0.063705
2992	0.029969
2988	0.081467
2984	0.126171
2980	0.113272
2976	0.094485
2972	0.075173
2968	0.024676
2964	-0.016379
2960	-0.019049
2956	-0.052881
2952	-0.074505
2948	0.045180
2944	0.143003
2940	0.050520
2936	-0.028061
2932	-0.016236
2928	-0.034451
2924	-0.005841
2920	0.085330
2916	0.107121
2912	0.072956
2908	0.074028
2904	0.108528
2900	0.136947
2896	0.102162
2892	-0.000095
2888	-0.044059
2884	-0.027537
2880	-0.005459
2876	0.014567
2872	-0.018954
2868	-0.048089
2864	-0.006961
2860	0.058722
2856	0.083136
2852	0.079298
2848	0.111126
2844	0.139689
2840	0.097489
2836	0.026011
2832	0.007557
2828	0.052785
2824	0.074434
2820	0.037097
2816	0.030064
2812	0.072503
2808	0.073838
2804	0.063896
2800	0.067520
2796	0.007009
2792	-0.032067
2788	-0.007772
2784	0.036811
2780	0.111508
2776	0.123190
2772	0.065183
2768	0.024032
2764	0.026321
2760	0.053071
2756	0.047683
2752	0.018000
2748	-0.004053
2744	-0.012254
2740	-0.004863
2736	0.052309
2732	0.132060
2728	0.130438
2724	0.056672
2720	-0.025057
2716	-0.065326
2712	-0.054574
2708	-0.029659
2704	-0.033831
2700	-0.093364
2696	-0.139307
2692	-0.086450
2688	0.058913
2684	0.129961
2680	0.086307
2676	0.059676
2672	0.040650
2668	-0.027012
2664	-0.086426
2660	-0.050878
2656	0.034999
2652	0.066018
2648	0.050163
2644	0.038099
2640	0.040054
2636	0.044202
2632	0.017333
2628	0.001716
2624	0.037646
2620	0.034689
2616	-0.020718
2612	-0.046300
2608	-0.031208
2604	-0.012636
2600	-0.013351
2596	0.013446
2592	0.077915
2588	0.093460
2584	0.034785
2580	-0.035524
2576	-0.031423
2572	0.041580
2568	0.066089
2564	0.055980
2560	0.089693
2556	0.134181
2552	0.103640
2548	0.022864
2544	0.010633
2540	0.053834
2536	0.061631
2532	0.020217
2528	-0.044083
2524	-0.098443
2520	-0.127720
2516	-0.113844
2512	-0.046753
2508	0.009107
2504	0.040602
2500	0.047445
2496	0.009489
2492	-0.036430
2488	-0.074744
2484	-0.087285
2480	-0.043082
2476	0.041007
2472	0.098729
2468	0.099396
2464	0.124573
2460	0.199270
2456	0.207424
2452	0.117373
2448	0.037097
2444	-0.017738
2440	-0.056147
2436	-0.024843
2432	0.004935
2428	-0.012612
2424	-0.021433
2420	0.023174
2416	0.131320
2412	0.172090
2408	0.101876
2404	0.012636
2400	-0.061202
2396	-0.064110
2392	-0.009107
2388	0.037026
2384	0.044059
2380	0.017166
2376	0.004267
2372	0.003027
2368	0.027275
2364	0.092148
2360	0.124263
2356	0.114774
2352	0.112414
2348	0.091242
2344	0.074791
2340	0.117826
2336	0.186944
2332	0.218057
2328	0.199270
2324	0.229716
2320	0.313210
2316	0.346708
2312	0.354266
2308	0.390076
2304	0.437188
2300	0.492358
2296	0.562310
2292	0.624656
2288	0.713467
2284	0.815105
2280	0.849485
2276	0.862693
2272	0.945639
2268	1.087951
2264	1.249861
2260	1.429629
2256	1.568198
2252	1.669716
2248	1.804542
2244	1.941752
2240	2.074933
2236	2.238392
2232	2.468299
2228	2.737450
2224	2.966666
2220	3.149366
2216	3.334021
2212	3.559184
2208	3.801631
2204	4.058957
2200	4.374480
2196	4.714798
2192	5.010294
2188	5.356788
2184	5.790376
2180	6.203484
2176	6.623363
2172	7.028412
2168	7.385349
2164	7.783150
2160	8.232879
2156	8.676958
2152	9.079980
2148	9.516739
2144	10.0329
2140	10.5269
2136	11.0004
2132	11.4874
2128	11.9444
2124	12.3757
2120	12.8416
2116	13.3821
2112	13.9353
2108	14.4725
2104	15.0453
2100	15.6383
2096	16.1484
2092	16.6095
2088	17.1207
2084	17.5667
2080	17.9393
2076	18.3762
2072	18.8729
2068	19.3702
2064	19.8875
2060	20.4299
2056	20.9177
2052	21.4083
2048	21.8941
2044	22.2639
2040	22.6041
2036	23.0003
2032	23.4184
2028	23.7903
2024	24.1364
2020	24.5139
2016	24.9037
2012	25.2999
2008	25.7057
2004	26.1002
2000	26.451
1996	26.7818
1992	27.0961
1988	27.3121
1984	27.4638
1980	27.6837
1976	27.9612
1972	28.1914
1968	28.3869
1964	28.6176
1960	28.9075
1956	29.2461
1952	29.5889
1948	29.8712
1944	30.0592
1940	30.1975
1936	30.3385
1932	30.464
1928	30.5597
1924	30.6872
1920	30.8692
1916	31.0494
1912	31.2261
1908	31.4448
1904	31.6567
1900	31.8648
1896	32.1193
1892	32.2951
1888	32.3514
1884	32.3774
1880	32.3916
1876	32.4058
1872	32.4795
1868	32.611
1864	32.7027
1860	32.7892
1856	32.9732
1852	33.1669
1848	33.314
1844	33.4508
1840	33.5682
1836	33.662
1832	33.6841
1828	33.6304
1824	33.5666
1820	33.5241
1816	33.5101
1812	33.5558
1808	33.6572
1804	33.7627
1800	33.8867
1796	34.0301
1792	34.1519
1788	34.2588
1784	34.3535
1780	34.4156
1776	34.428
1772	34.3733
1768	34.2683
1764	34.1451
1760	34.0798
1756	34.1368
1752	34.2239
1748	34.2895
1744	34.3951
1740	34.5466
1736	34.7002
1732	34.7616
1728	34.7629
1724	34.7646
1720	34.7276
1716	34.6699
1712	34.559
1708	34.4124
1704	34.3083
1700	34.2711
1696	34.3389
1692	34.5079
1688	34.7265
1684	34.9256
1680	35.0404
1676	35.0442
1672	34.9691
1668	34.8971
1664	34.8054
1660	34.6802
1656	34.598
1652	34.5141
1648	34.4089
1644	34.383
1640	34.4791
1636	34.6533
1632	34.8156
1628	34.9601
1624	35.1022
1620	35.1396
1616	35.0836
1612	35.0294
1608	34.9543
1604	34.8198
1600	34.6331
1596	34.4821
1592	34.4563
1588	34.5111
1584	34.5815
1580	34.6817
1576	34.8673
1572	35.0998
1568	35.2509
1564	35.2429
1560	35.089
1556	34.9347
1552	34.8652
1548	34.8195
1544	34.7225
1540	34.5793
1536	34.4824
1532	34.4699
1528	34.5342
1524	34.6541
1520	34.8474
1516	35.1005
1512	35.2432
1508	35.1953
1504	35.0776
1500	34.9798
1496	34.8209
1492	34.6053
1488	34.5169
1484	34.4959
1480	34.4284
1476	34.3966
1472	34.4494
1468	34.5054
1464	34.5791
1460	34.7606
1456	34.982
1452	35.0979
1448	35.0413
1444	34.859
1440	34.6375
1436	34.4125
1432	34.241
1428	34.1669
1424	34.1477
1420	34.1858
1416	34.3163
1412	34.478
1408	34.6073
1404	34.73
1400	34.8219
1396	34.826
1392	34.7937
1388	34.7117
1384	34.5695
1380	34.4536
1376	34.3454
1372	34.2435
1368	34.174
1364	34.1293
1360	34.1779
1356	34.3302
1352	34.5248
1348	34.6993
1344	34.7969
1340	34.7784
1336	34.6411
1332	34.5112
1328	34.4417
1324	34.3076
1320	34.1286
1316	34.0373
1312	34.0203
1308	34.0213
1304	34.0464
1300	34.137
1296	34.325
1292	34.5174
1288	34.618
1284	34.6393
1280	34.5843
1276	34.4891
1272	34.371
1268	34.1559
1264	33.8788
1260	33.7119
1256	33.6713
1252	33.6749
1248	33.738
1244	33.8772
1240	34.085
1236	34.3001
1232	34.4539
1228	34.524
1224	34.5214
1220	34.4136
1216	34.1643
1212	33.9061
1208	33.6797
1204	33.4801
1200	33.4065
1196	33.3884
1192	33.4173
1188	33.6001
1184	33.855
1180	34.044
1176	34.1787
1172	34.3201
1168	34.354
1164	34.1432
1160	33.8396
1156	33.6464
1152	33.5201
1148	33.356
1144	33.2188
1140	33.2086
1136	33.2714
1132	33.3641
1128	33.4958
1124	33.6442
1120	33.8127
1116	33.9226
1112	33.9171
1108	33.8861
1104	33.7309
1100	33.3508
1096	33.0333
1092	32.9299
1088	32.9149
1084	32.9678
1080	33.039
1076	33.1046
1072	33.2079
1068	33.3369
1064	33.4725
1060	33.6038
1056	33.6653
1052	33.5626
1048	33.4477
1044	33.3794
1040	33.1234
1036	32.8187
1032	32.6603
1028	32.5191
1024	32.3908
1020	32.4276
1016	32.6611
1012	32.9527
1008	33.148
1004	33.2053
1000	33.1953
996	 33.1531
992	 33.0602
988	 32.9497
984	 32.8166
980	 32.5728
976	 32.1996
972	 31.9041
968	 31.853
964	 31.9873
960	 32.2037
956	 32.4233
952	 32.5883
948	 32.6529
944	 32.6329
940	 32.5932
936	 32.5298
932	 32.4067
928	 32.2206
924	 31.9922
920	 31.7549
916	 31.5841
912	 31.495
908	 31.4133
904	 31.3937
900	 31.5211
896	 31.7166
892	 31.9177
888	 32.1454
884	 32.24
880	 32.128
876	 31.9701
872	 31.6043
868	 31.1228
864	 30.8692
860	 30.6852
856	 30.5599
852	 30.6164
848	 30.7091
844	 30.8394
840	 31.0573
836	 31.2789
832	 31.3712
828	 31.2954
824	 31.1718
820	 30.9825
816	 30.6661
812	 30.3186
808	 30.0296
804	 29.8685
800	 29.8282
796	 29.7562
792	 29.7557
788	 30.001
784	 30.3137
780	 30.5796
776	 30.7007
772	 30.6068
768	 30.4002
764	 30.1533
760	 29.9263
756	 29.6755
752	 29.3884
748	 29.1337
744	 28.9528
740	 28.9055
736	 29.0538
732	 29.2681
728	 29.3541
724	 29.4136
720	 29.5285
716	 29.621
712	 29.5313
708	 29.2531
704	 28.9982
700	 28.7668
696	 28.5868
692	 28.4143
688	 28.0474
684	 27.6679
680	 27.5132
676	 27.5499
672	 27.5524
668	 27.5998
664	 27.9527
660	 28.251
656	 28.2163
652	 28.1231
648	 28.0305
644	 27.7518
640	 27.2813
636	 26.8472
632	 26.6821
628	 26.578
624	 26.5145
620	 26.6879
616	 26.7018
612	 26.4907
608	 26.4967
604	 26.7067
600	 26.8888
596	 26.8574
592	 26.5043
588	 26.0856
584	 25.7865
580	 25.6554
576	 25.6958
572	 25.5417
568	 25.1877
564	 25.0391
560	 25.1312
556	 25.1366
552	 24.8794
548	 24.663
544	 24.8267
540	 25.1797
536	 25.1237
532	 24.7331
528	 24.4557
524	 24.1955
520	 23.9616
516	 23.9352
512	 23.933
508	 23.6307
504	 23.2632
500	 23.445
496	 23.9152
492	 24.1017
488	 24.2342
484	 24.2613
480	 24.0765
476	 24.0375
472	 23.728
468	 23.0263
464	 22.4897
460	 21.9967
456	 21.563
452	 21.2538
448	 20.972
444	 21.0551
440	 21.3549
436	 22.0299
432	 21.9365
428	 20.6761
424	 20.9715
420	 22.1719
416	 21.5928
412	 20.397
408	 18.9591
404	 17.6045
400	 21.0047
396	 25.2863
392	 19.5375
388	 0.381827
384	 -21.3947
380	 -34.4022
376	 -34.3661
372	 -25.1778
370	 -21.5941