File: Bakgrunnsmateriale/MATLAB/FTIR/ftir_data/LPE453/Mapping_121/LPE453_t43.asc
PE IR       SPECTRUM    SPECTRUM    ASCII       PEDS        1.60
  -1
LPC3A5~1.ASC
17/05/16
17:50:06.00
17/05/16
17:50:32.00
tln
$LPE453_t0043$<tbV0>[-10.4,-5.2,8.0,0.0,27,1,0]
27.028
64

2002,4.07
MIRTGS : RIGHTBACK : INTERNAL 2
MIR : ON : INTERNAL 2
OPTKBR

0.200000
8
8.000000
FILLER
RATIO
SPECTRUM
UNLOCKED 256

DOUBLE
64
COMBINED
1
0
0

0.002000
RATIO

1
0
TRUE
51149
0
LEFT NOT FITTED RIGHT NOT FITTED 0
NONE
NONE
15600
12
4.427000
51148
TRUE
1 0 8 72 0 0 0 0

15798

#HDR
-1
-1
#GR
µM
%T
2.38419e-05
0.0
2.000000
0.002000
12515
8
47.6744
-1.815913
#DATA
2.000000	 0.005578
2.018000	 0.173182
2.036000	 0.079182
2.054000	 0.116844
2.072000	 0.193427
2.090000	 -0.040042
2.108000	 -0.108646
2.126000	 0.055456
2.144000	 0.435512
2.162000	 0.499273
2.180000	 -0.574914
2.198000	 -0.959649
2.216000	 32.4225
2.234000	 -1.676476
2.252000	 -1.060483
2.270000	 0.491174
2.288000	 0.227043
2.306000	 0.319718
2.324000	 -0.023890
2.342000	 0.049276
2.360000	 0.431969
2.378000	 0.274774
2.396000	 0.129949
2.414000	 0.248921
2.432000	 0.128046
2.450000	 -0.012684
2.468000	 0.091275
2.486000	 0.239158
2.504000	 0.014888
2.522000	 0.388218
2.540000	 0.153531
2.558000	 0.041208
2.576000	 0.085289
2.594000	 0.089685
2.612000	 0.044052
2.630000	 -0.045021
2.648000	 0.153989
2.666000	 0.262574
2.684000	 0.077857
2.702000	 0.078324
2.720000	 0.034799
2.738000	 0.046689
2.756000	 0.162364
2.774000	 -0.025454
2.792000	 0.116013
2.810000	 0.169012
2.828000	 0.057440
2.846000	 -0.059238
2.864000	 0.179392
2.882000	 -0.006399
2.900000	 -0.128590
2.918000	 -0.019916
2.936000	 0.067128
2.954000	 0.024158
2.972000	 -0.024470
2.990000	 -0.009453
3.008000	 0.195492
3.026000	 0.244513
3.044000	 0.180850
3.062000	 0.030834
3.080000	 0.069542
3.098000	 0.133449
3.116000	 0.025509
3.134000	 0.173316
3.152000	 0.042209
3.170000	 -0.061303
3.188000	 0.028182
3.206000	 0.171674
3.224000	 -0.057576
3.242000	 0.069615
3.260000	 -0.066888
3.278000	 0.013624
3.296000	 0.066462
3.314000	 -0.018980
3.332000	 0.003477
3.350000	 0.092982
3.368000	 -0.132456
3.386000	 0.008409
3.404000	 -0.022214
3.422000	 0.032151
3.440000	 -0.035651
3.458000	 0.010227
3.476000	 -0.000531
3.494000	 -0.005674
3.512000	 0.096572
3.530000	 -0.125823
3.548000	 -0.030958
3.566000	 0.051722
3.584000	 -0.085943
3.602000	 -0.048199
3.620000	 0.160019
3.638000	 0.013695
3.656000	 0.023761
3.674000	 0.032423
3.692000	 -0.044014
3.710000	 0.009385
3.728000	 0.026705
3.746000	 -0.010989
3.764000	 0.051926
3.782000	 0.014812
3.800000	 0.011271
3.818000	 0.041533
3.836000	 0.037652
3.854000	 -0.108703
3.872000	 -0.088660
3.890000	 0.033755
3.908000	 0.025603
3.926000	 0.053675
3.944000	 0.142616
3.962000	 0.159852
3.980000	 0.041565
3.998000	 0.021386
4.016000	 0.035821
4.034000	 0.075072
4.052000	 -0.032044
4.070000	 0.040772
4.088000	 -0.080044
4.106000	 -0.057641
4.124000	 0.018239
4.141999	 0.378979
4.160000	 0.128420
4.178000	 0.027381
4.196000	 0.009768
4.214000	 0.023333
4.232000	 0.110874
4.250000	 0.125831
4.268000	 0.127377
4.286000	 0.196930
4.304000	 0.275139
4.322000	 0.406011
4.340000	 0.500302
4.358000	 0.536799
4.375999	 0.804927
4.394000	 1.030204
4.412000	 1.226585
4.430000	 1.445329
4.448000	 1.747955
4.466000	 2.133162
4.484000	 2.549208
4.502000	 3.125359
4.520000	 3.631602
4.538000	 4.159440
4.556000	 4.876419
4.574000	 5.584547
4.592000	 6.322403
4.609999	 7.321641
4.628000	 8.158851
4.646000	 9.063123
4.664000	 10.2491
4.682000	 11.2838
4.700000	 12.1172
4.718000	 13.0804
4.736000	 14.2639
4.754000	 15.3141
4.772000	 16.3282
4.790000	 17.3822
4.808000	 18.1634
4.826000	 19.1311
4.843999	 20.2041
4.862000	 21.1455
4.880000	 22.1225
4.898000	 22.8892
4.916000	 23.606
4.934000	 24.4306
4.952000	 25.2296
4.970000	 25.8552
4.988000	 26.4761
5.006000	 27.0678
5.024000	 27.6119
5.042000	 28.1707
5.060000	 28.7167
5.077999	 29.2549
5.096000	 29.7187
5.114000	 30.0774
5.132000	 30.3723
5.150000	 30.8784
5.168000	 31.1243
5.186000	 31.4833
5.204000	 31.8719
5.222000	 32.0799
5.240000	 32.3694
5.258000	 32.5487
5.276000	 32.6909
5.294000	 32.9384
5.312000	 33.2045
5.330000	 33.4568
5.348000	 33.6392
5.366000	 33.7977
5.384000	 33.9377
5.402000	 33.9974
5.420000	 34.006
5.438000	 34.0859
5.456000	 34.2584
5.474000	 34.3768
5.492000	 34.4519
5.510000	 34.6641
5.528000	 34.8675
5.546000	 34.9522
5.564000	 34.9219
5.582000	 34.8861
5.600000	 34.9414
5.618000	 34.9016
5.636000	 34.9361
5.654000	 35.1234
5.672000	 35.1735
5.690000	 35.221
5.708000	 35.1887
5.726000	 35.1952
5.744000	 35.2073
5.762000	 35.1576
5.780000	 35.1934
5.798000	 35.322
5.816000	 35.403
5.834000	 35.5232
5.852000	 35.5642
5.870000	 35.5392
5.888000	 35.4805
5.906000	 35.4498
5.923999	 35.3891
5.942000	 35.3219
5.960000	 35.278
5.978000	 35.2431
5.996000	 35.2545
6.014000	 35.3467
6.032000	 35.4296
6.050000	 35.495
6.068000	 35.5679
6.086000	 35.5837
6.104000	 35.5801
6.122000	 35.5788
6.140000	 35.5343
6.158000	 35.4233
6.176000	 35.3372
6.194000	 35.3483
6.212000	 35.4198
6.230000	 35.4607
6.248000	 35.5141
6.266000	 35.5542
6.284000	 35.5641
6.302000	 35.5613
6.320000	 35.5481
6.338000	 35.4852
6.356000	 35.3498
6.374000	 35.3301
6.392000	 35.3424
6.410000	 35.2717
6.428000	 35.2723
6.446000	 35.3876
6.464000	 35.5384
6.482000	 35.6467
6.500000	 35.6919
6.518000	 35.6705
6.536000	 35.5707
6.554000	 35.4355
6.572000	 35.334
6.590000	 35.3448
6.608000	 35.3369
6.626000	 35.2123
6.644000	 35.1324
6.662000	 35.1717
6.680000	 35.246
6.698000	 35.3359
6.716000	 35.4339
6.734000	 35.4934
6.752000	 35.4783
6.770000	 35.4036
6.788000	 35.3278
6.806000	 35.2791
6.824000	 35.2363
6.842000	 35.1523
6.860000	 35.0685
6.878000	 35.0516
6.896000	 35.0407
6.914000	 35.0101
6.932000	 34.9779
6.950000	 34.8881
6.968000	 34.8447
6.986000	 34.9853
7.004000	 35.1714
7.022000	 35.2726
7.040000	 35.3203
7.058000	 35.3355
7.076000	 35.3197
7.094000	 35.2457
7.112000	 35.0978
7.130000	 34.9658
7.148000	 34.9359
7.166000	 34.9454
7.184000	 34.8731
7.202000	 34.7399
7.220000	 34.6659
7.238000	 34.6872
7.256000	 34.7815
7.274000	 34.9224
7.292000	 35.0493
7.310000	 35.1176
7.328000	 35.1379
7.346000	 35.1259
7.364000	 35.082
7.382000	 35.0088
7.400000	 34.9271
7.418000	 34.8569
7.436000	 34.793
7.454000	 34.7203
7.472000	 34.6381
7.490000	 34.5652
7.508000	 34.5319
7.526000	 34.5492
7.544000	 34.5971
7.562000	 34.658
7.580000	 34.7369
7.598000	 34.8406
7.616000	 34.961
7.634000	 35.0636
7.652000	 35.0919
7.670000	 35.0359
7.688000	 34.9592
7.706000	 34.9028
7.724000	 34.8354
7.742000	 34.7361
7.760000	 34.6345
7.778000	 34.5589
7.796000	 34.5069
7.814000	 34.4573
7.832000	 34.4015
7.850000	 34.3647
7.868000	 34.3744
7.886000	 34.426
7.904000	 34.5145
7.922000	 34.6324
7.940000	 34.7204
7.958000	 34.7217
7.976000	 34.6681
7.994000	 34.6298
8.012000	 34.6243
8.030000	 34.6344
8.048000	 34.6437
8.065999	 34.6302
8.084000	 34.587
8.102000	 34.5375
8.120000	 34.4877
8.138000	 34.409
8.155999	 34.298
8.173999	 34.1992
8.192000	 34.1463
8.210000	 34.1326
8.228000	 34.1424
8.246000	 34.1714
8.263999	 34.2157
8.282000	 34.2757
8.300000	 34.3541
8.318000	 34.4356
8.336000	 34.4954
8.353999	 34.5431
8.372000	 34.6154
8.390000	 34.7096
8.408000	 34.7709
8.426000	 34.7554
8.443999	 34.6733
8.462000	 34.573
8.480000	 34.4989
8.498000	 34.4595
8.516000	 34.422
8.533999	 34.3447
8.552000	 34.2192
8.570000	 34.0789
8.588000	 33.9655
8.606000	 33.8928
8.624000	 33.851
8.641999	 33.8329
8.660000	 33.8455
8.678000	 33.8963
8.696000	 33.9835
8.714000	 34.0933
8.731999	 34.2019
8.750000	 34.2833
8.768000	 34.3277
8.786000	 34.3524
8.804000	 34.3843
8.821999	 34.4263
8.840000	 34.4481
8.858000	 34.4168
8.876000	 34.3329
8.894000	 34.2309
8.911999	 34.1493
8.930000	 34.1072
8.948000	 34.0988
8.966000	 34.0956
8.984000	 34.0605
9.001999	 33.9722
9.020000	 33.8426
9.038000	 33.7104
9.056000	 33.6127
9.074000	 33.5582
9.092000	 33.5281
9.109999	 33.5045
9.128000	 33.499
9.146000	 33.5521
9.164000	 33.6936
9.182000	 33.9
9.199999	 34.0975
9.218000	 34.2144
9.236000	 34.2333
9.254000	 34.1954
9.272000	 34.1585
9.289999	 34.1527
9.308000	 34.1689
9.326000	 34.1803
9.344000	 34.1657
9.362000	 34.12
9.379999	 34.0523
9.398000	 33.979
9.416000	 33.9145
9.434000	 33.8618
9.452000	 33.8093
9.469999	 33.7388
9.488000	 33.642
9.506000	 33.5322
9.524000	 33.4389
9.542000	 33.3846
9.560000	 33.367
9.577999	 33.3637
9.596000	 33.3548
9.614000	 33.3391
9.632000	 33.3295
9.650000	 33.3373
9.667999	 33.3616
9.686000	 33.394
9.704000	 33.4292
9.722000	 33.4757
9.740000	 33.5493
9.757999	 33.6565
9.776000	 33.783
9.794000	 33.8983
9.812000	 33.9752
9.830000	 34.0045
9.847999	 33.995
9.866000	 33.9626
9.884000	 33.9196
9.902000	 33.8697
9.920000	 33.8093
9.937999	 33.7315
9.956000	 33.6292
9.974000	 33.501
9.992000	 33.3556
10.01	33.2107
10.028	33.0862
10.046	32.9955
10.064	32.9419
10.082	32.9195
10.1	32.918
10.118	32.9261
10.136	32.9364
10.154	32.9483
10.172	32.9665
10.19	32.997
10.208	33.04
10.226	33.0878
10.244	33.1298
10.262	33.1617
10.28	33.1904
10.298	33.2271
10.316	33.2765
10.334	33.3298
10.352	33.3695
10.37	33.3803
10.388	33.36
10.406	33.3208
10.424	33.2843
10.442	33.2698
10.46	33.2846
10.478	33.3209
10.496	33.3584
10.514	33.3745
10.532	33.3515
10.55	33.2862
10.568	33.1887
10.586	33.0792
10.604	32.9763
10.622	32.8916
10.64	32.8247
10.658	32.7666
10.676	32.7051
10.694	32.6328
10.712	32.5501
10.73	32.466
10.748	32.3946
10.766	32.3501
10.784	32.3414
10.802	32.3709
10.82	32.4337
10.838	32.518
10.856	32.611
10.874	32.6999
10.892	32.775
10.91	32.8304
10.928	32.8645
10.946	32.8787
10.964	32.8768
10.982	32.8638
11	32.8447
11.018	32.8249
11.036	32.8111
11.054	32.8113
11.072	32.8314
11.09	32.8712
11.108	32.9217
11.126	32.964
11.144	32.9778
11.162	32.9474
11.18	32.8709
11.198	32.7624
11.216	32.6453
11.234	32.5423
11.252	32.4669
11.27	32.4173
11.288	32.3805
11.306	32.3407
11.324	32.2862
11.342	32.2148
11.36	32.1336
11.378	32.0552
11.396	31.9909
11.414	31.9479
11.432	31.9266
11.45	31.9219
11.468	31.925
11.486	31.9274
11.504	31.9222
11.522	31.9065
11.54	31.8819
11.558	31.8537
11.576	31.8298
11.594	31.8177
11.612	31.8224
11.63	31.8454
11.648	31.8839
11.666	31.9328
11.684	31.9866
11.702	32.0416
11.72	32.096
11.738	32.1508
11.756	32.2074
11.774	32.2654
11.792	32.321
11.81	32.3672
11.828	32.396
11.846	32.4014
11.864	32.3818
11.882	32.341
11.9	32.2874
11.918	32.2306
11.936	32.1781
11.954	32.1336
11.972	32.0957
11.99	32.0597
12.008	32.0187
12.026	31.9663
12.044	31.8984
12.062	31.8141
12.08	31.7164
12.098	31.6114
12.116	31.5077
12.134	31.4148
12.152	31.3402
12.17	31.2881
12.188	31.2582
12.206	31.2452
12.224	31.2402
12.242	31.2335
12.26	31.2172
12.278	31.1878
12.296	31.1469
12.314	31.1008
12.332	31.058
12.35	31.0259
12.368	31.0093
12.386	31.0089
12.404	31.022
12.422	31.0435
12.44	31.0687
12.458	31.095
12.476	31.1217
12.494	31.1502
12.512	31.1818
12.53	31.2171
12.548	31.2554
12.566	31.2948
12.584	31.3337
12.602	31.3717
12.62	31.4102
12.638	31.4516
12.656	31.4976
12.674	31.5476
12.692	31.5984
12.71	31.6443
12.728	31.6788
12.746	31.6965
12.764	31.6946
12.782	31.6744
12.8	31.6407
12.818	31.599
12.836	31.5556
12.854	31.5139
12.872	31.4748
12.89	31.4351
12.908	31.3899
12.926	31.3337
12.944	31.2629
12.962	31.1765
12.98	31.0768
12.998	30.9693
13.016	30.861
13.034	30.7587
13.052	30.6681
13.07	30.5926
13.088	30.5332
13.106	30.4886
13.124	30.4556
13.142	30.4301
13.16	30.407
13.178	30.3812
13.196	30.3471
13.214	30.3
13.232	30.236
13.25	30.1538
13.268	30.0543
13.286	29.943
13.304	29.8289
13.322	29.7248
13.34	29.6441
13.358	29.5995
13.376	29.6001
13.394	29.6497
13.412	29.7454
13.43	29.8786
13.448	30.0367
13.466	30.2045
13.484	30.3678
13.502	30.5147
13.52	30.6374
13.538	30.7325
13.556	30.8005
13.574	30.8447
13.592	30.8695
13.61	30.8802
13.628	30.8808
13.646	30.874
13.664	30.8609
13.682	30.8426
13.7	30.8186
13.718	30.7893
13.736	30.754
13.754	30.7136
13.772	30.6682
13.79	30.6186
13.808	30.565
13.826	30.5075
13.844	30.4464
13.862	30.3817
13.88	30.3136
13.898	30.2428
13.916	30.1704
13.934	30.0977
13.952	30.0263
13.97	29.9577
13.988	29.893
14.006	29.8329
14.024	29.7775
14.042	29.7261
14.06	29.6777
14.078	29.6312
14.096	29.5863
14.114	29.5428
14.132	29.5013
14.15	29.4632
14.168	29.4301
14.186	29.4042
14.204	29.3876
14.222	29.3819
14.24	29.3872
14.258	29.4031
14.276	29.4278
14.294	29.4587
14.312	29.4926
14.33	29.5258
14.348	29.555
14.366	29.5769
14.384	29.5893
14.402	29.5905
14.42	29.5799
14.438	29.5581
14.456	29.5265
14.474	29.4877
14.492	29.4451
14.51	29.4027
14.528	29.3649
14.546	29.3352
14.564	29.3166
14.582	29.3107
14.6	29.318
14.618	29.3375
14.636	29.3671
14.654	29.4042
14.672	29.4458
14.69	29.4896
14.708	29.5337
14.726	29.5769
14.744	29.619
14.762	29.6601
14.78	29.7004
14.798	29.7398
14.816	29.7779
14.834	29.8136
14.852	29.8451
14.87	29.8704
14.888	29.8878
14.906	29.8961
14.924	29.8946
14.942	29.8844
14.96	29.8669
14.978	29.8444
14.996	29.8193
15.014	29.7938
15.032	29.7698
15.05	29.7476
15.068	29.7267
15.086	29.7058
15.104	29.6827
15.122	29.6552
15.14	29.6212
15.158	29.5795
15.176	29.5298
15.194	29.4727
15.212	29.4102
15.23	29.345
15.248	29.2797
15.266	29.2172
15.284	29.1601
15.302	29.1096
15.32	29.0658
15.338	29.0285
15.356	28.9963
15.374	28.9668
15.392	28.9379
15.41	28.9077
15.428	28.8746
15.446	28.8379
15.464	28.7978
15.482	28.7549
15.5	28.7107
15.518	28.6671
15.536	28.6263
15.554	28.5899
15.572	28.5594
15.59	28.5358
15.608	28.5195
15.626	28.5104
15.644	28.5083
15.662	28.5121
15.68	28.521
15.698	28.5342
15.716	28.5508
15.734	28.5702
15.752	28.5919
15.77	28.6155
15.788	28.64
15.806	28.6644
15.824	28.6877
15.842	28.7081
15.86	28.7237
15.878	28.733
15.896	28.7345
15.914	28.7267
15.932	28.7094
15.95	28.6827
15.968	28.6472
15.986	28.6047
16.004	28.5573
16.022	28.5071
16.04	28.4576
16.058	28.4115
16.076	28.371
16.094	28.3388
16.112	28.3163
16.13	28.304
16.148	28.3026
16.166	28.3105
16.184	28.3264
16.202	28.3484
16.22	28.3729
16.238	28.3972
16.256	28.4185
16.274	28.4332
16.292	28.4394
16.31	28.4357
16.328	28.4209
16.346	28.3959
16.364	28.3613
16.382	28.3197
16.4	28.2737
16.418	28.2256
16.436	28.179
16.454	28.1358
16.472	28.0977
16.49	28.0656
16.508	28.0388
16.526	28.0165
16.544	27.996
16.562	27.9744
16.58	27.9497
16.598	27.9181
16.616	27.8783
16.634	27.829
16.652	27.7702
16.67	27.7036
16.688	27.6308
16.706	27.5563
16.724	27.4828
16.742	27.4144
16.76	27.3552
16.778	27.3069
16.796	27.2723
16.814	27.251
16.832	27.2428
16.85	27.2454
16.868	27.2557
16.886	27.2712
16.904	27.2868
16.922	27.3003
16.94	27.3081
16.958	27.3078
16.976	27.299
16.994	27.281
17.012	27.2554
17.03	27.2231
17.048	27.1873
17.066	27.1497
17.084	27.1128
17.102	27.079
17.12	27.0492
17.138	27.0247
17.156	27.005
17.174	26.9899
17.192	26.9776
17.21	26.9673
17.228	26.957
17.246	26.9455
17.264	26.9319
17.282	26.9157
17.3	26.8973
17.318	26.8772
17.336	26.8573
17.354	26.8384
17.372	26.8235
17.39	26.8134
17.408	26.8106
17.426	26.8157
17.444	26.8297
17.462	26.8522
17.48	26.883
17.498	26.9205
17.516	26.9629
17.534	27.0086
17.552	27.0542
17.57	27.0986
17.588	27.1385
17.606	27.1728
17.624	27.1994
17.642	27.2177
17.66	27.2271
17.678	27.2276
17.696	27.2197
17.714	27.2049
17.732	27.1844
17.75	27.1596
17.768	27.1333
17.786	27.1065
17.804	27.0824
17.822	27.0617
17.84	27.0472
17.858	27.0396
17.876	27.0405
17.894	27.0502
17.912	27.069
17.93	27.0965
17.948	27.1324
17.966	27.1747
17.984	27.2223
18.002	27.2728
18.02	27.3238
18.038	27.3734
18.056	27.4179
18.074	27.4563
18.092	27.4851
18.11	27.5038
18.128	27.5103
18.146	27.5048
18.164	27.4867
18.182	27.457
18.2	27.4164
18.218	27.3672
18.236	27.3105
18.254	27.2499
18.272	27.1861
18.29	27.123
18.308	27.0613
18.326	27.0039
18.344	26.951
18.362	26.9043
18.38	26.8635
18.398	26.8288
18.416	26.7996
18.434	26.7753
18.452	26.7548
18.47	26.7372
18.488	26.7209
18.506	26.7052
18.524	26.6887
18.542	26.6711
18.56	26.6514
18.578	26.6296
18.596	26.6057
18.614	26.5797
18.632	26.5526
18.65	26.5243
18.668	26.4964
18.686	26.4687
18.704	26.4424
18.722	26.4174
18.74	26.3948
18.758	26.3743
18.776	26.3565
18.794	26.3411
18.812	26.3279
18.83	26.3168
18.848	26.3072
18.866	26.2986
18.884	26.2902
18.902	26.2814
18.92	26.2714
18.938	26.2594
18.956	26.2444
18.974	26.2259
18.992	26.2029
19.01	26.1749
19.028	26.1409
19.046	26.1007
19.064	26.0539
19.082	26.0004
19.1	25.9399
19.118	25.8729
19.136	25.7997
19.154	25.7212
19.172	25.6388
19.19	25.5533
19.208	25.4676
19.226	25.3823
19.244	25.3008
19.262	25.2237
19.28	25.1552
19.298	25.0951
19.316	25.048
19.334	25.0134
19.352	24.9948
19.37	24.9919
19.388	25.0061
19.406	25.0376
19.424	25.0852
19.442	25.1492
19.46	25.2262
19.478	25.3165
19.496	25.415
19.514	25.5213
19.532	25.6303
19.55	25.74
19.568	25.847
19.586	25.9473
19.604	26.0397
19.622	26.1192
19.64	26.1863
19.658	26.2369
19.676	26.2718
19.694	26.2894
19.712	26.2897
19.73	26.2742
19.748	26.2423
19.766	26.1974
19.784	26.1392
19.802	26.0715
19.82	25.9957
19.838	25.9141
19.856	25.8302
19.874	25.7445
19.892	25.6615
19.91	25.5807
19.928	25.506
19.946	25.4372
19.964	25.3763
19.982	25.3238
20	25.28
20.018	25.2454
20.036	25.2194
20.054	25.2014
20.072	25.1911
20.09	25.1863
20.108	25.1873
20.126	25.1907
20.144	25.1968
20.162	25.2024
20.18	25.2066
20.198	25.2079
20.216	25.2035
20.234	25.1939
20.252	25.1761
20.27	25.1506
20.288	25.1159
20.306	25.0714
20.324	25.0177
20.342	24.9545
20.36	24.8826
20.378	24.8035
20.396	24.7171
20.414	24.6271
20.432	24.533
20.45	24.4384
20.468	24.3448
20.486	24.2533
20.504	24.1679
20.522	24.0878
20.54	24.0166
20.558	23.9541
20.576	23.9015
20.594	23.86
20.612	23.8288
20.63	23.8081
20.648	23.7978
20.666	23.796
20.684	23.8032
20.702	23.8172
20.72	23.8365
20.738	23.8609
20.756	23.8874
20.774	23.9166
20.792	23.9461
20.81	23.9752
20.828	24.0036
20.846	24.0299
20.864	24.0544
20.882	24.077
20.9	24.0973
20.918	24.1159
20.936	24.1331
20.954	24.1489
20.972	24.1638
20.99	24.1777
21.008	24.1912
21.026	24.2045
21.044	24.2175
21.062	24.2303
21.08	24.2431
21.098	24.2553
21.116	24.2669
21.134	24.2776
21.152	24.2863
21.17	24.2933
21.188	24.2972
21.206	24.298
21.224	24.2949
21.242	24.2867
21.26	24.2737
21.278	24.2549
21.296	24.2302
21.314	24.1994
21.332	24.1622
21.35	24.1188
21.368	24.0692
21.386	24.0134
21.404	23.9518
21.422	23.8849
21.44	23.8125
21.458	23.7359
21.476	23.6552
21.494	23.5708
21.512	23.4846
21.53	23.396
21.548	23.3064
21.566	23.2166
21.584	23.1264
21.602	23.0381
21.62	22.9512
21.638	22.8669
21.656	22.787
21.674	22.7108
21.692	22.6406
21.71	22.577
21.728	22.5201
21.746	22.4719
21.764	22.4318
21.782	22.4009
21.8	22.3801
21.818	22.3689
21.836	22.3682
21.854	22.3783
21.872	22.3986
21.89	22.4287
21.908	22.4691
21.926	22.518
21.944	22.5746
21.962	22.6393
21.98	22.7083
21.998	22.7821
22.016	22.8591
22.034	22.935
22.052	23.0116
22.07	23.085
22.088	23.152
22.106	23.2142
22.124	23.2666
22.142	23.3084
22.16	23.3397
22.178	23.3565
22.196	23.3595
22.214	23.348
22.232	23.3202
22.25	23.2766
22.268	23.218
22.286	23.1442
22.304	23.0554
22.322	22.9549
22.34	22.8423
22.358	22.7188
22.376	22.5898
22.394	22.4534
22.412	22.313
22.43	22.174
22.448	22.0339
22.466	21.8973
22.484	21.7682
22.502	21.6444
22.52	21.5303
22.538	21.4279
22.556	21.336
22.574	21.2572
22.592	21.1922
22.61	21.1403
22.628	21.1021
22.646	21.0782
22.664	21.0673
22.682	21.0684
22.7	21.0821
22.718	21.1068
22.736	21.1409
22.754	21.1854
22.772	21.2382
22.79	21.2974
22.808	21.3641
22.826	21.4368
22.844	21.5144
22.862	21.5974
22.88	21.6852
22.898	21.7772
22.916	21.8736
22.934	21.9748
22.952	22.0805
22.97	22.1909
22.988	22.3064
23.006	22.427
23.024	22.5526
23.042	22.683
23.06	22.8186
23.078	22.9589
23.096	23.1025
23.114	23.2499
23.132	23.4004
23.15	23.5508
23.168	23.7022
23.186	23.8533
23.204	23.9993
23.222	24.1414
23.24	24.2783
23.258	24.4048
23.276	24.5217
23.294	24.6283
23.312	24.7206
23.33	24.7991
23.348	24.8637
23.366	24.9119
23.384	24.9431
23.402	24.9583
23.42	24.9576
23.438	24.9402
23.456	24.9071
23.474	24.8604
23.492	24.7997
23.51	24.7255
23.528	24.6414
23.546	24.5475
23.564	24.4434
23.582	24.3344
23.6	24.2216
23.618	24.1034
23.636	23.9861
23.654	23.8723
23.672	23.7597
23.69	23.6526
23.708	23.5543
23.726	23.4626
23.744	23.3797
23.762	23.3074
23.78	23.2445
23.798	23.1921
23.816	23.1514
23.834	23.122
23.852	23.1039
23.87	23.0977
23.888	23.1038
23.906	23.1213
23.924	23.149
23.942	23.1875
23.96	23.2363
23.978	23.2928
23.996	23.3565
24.014	23.4283
24.032	23.505
24.05	23.5848
24.068	23.6695
24.086	23.7561
24.104	23.8418
24.122	23.9287
24.14	24.0146
24.158	24.0961
24.176	24.1743
24.194	24.2488
24.212	24.317
24.23	24.3788
24.248	24.4347
24.266	24.4824
24.284	24.5203
24.302	24.5497
24.32	24.5695
24.338	24.5785
24.356	24.576
24.374	24.564
24.392	24.5451
24.41	24.5182
24.428	24.4839
24.446	24.4455
24.464	24.404
24.482	24.3579
24.5	24.3107
24.518	24.2654
24.536	24.2207
24.554	24.1768
24.572	24.1349
24.59	24.0957
24.608	24.0581
24.626	24.021
24.644	23.9848
24.662	23.9505
24.68	23.9137
24.698	23.8706
24.716	23.8262
24.734	23.7749
24.752	23.7077
24.77	23.6249
24.788	23.5286
24.806	23.4116
24.824	23.2689
24.842	23.1048
24.86	22.9165
24.878	22.6999
24.896	22.453
24.914	22.1791
24.932	21.8829
24.95	21.5648
24.968	21.2207
24.986	20.8616
25.004	20.4983
25.022	20.1203
25.04	19.7359
25.058	19.3654
25.076	19.015
25.094	18.6719
25.112	18.3581
25.13	18.0955
25.148	17.8704
25.166	17.6896
25.184	17.5751
25.202	17.5373
25.22	17.5631
25.238	17.6637
25.256	17.8515
25.274	18.1229
25.292	18.4764
25.31	18.9166
25.328	19.4476
25.346	20.0682
25.364	20.7728
25.382	21.5562
25.4	22.4245
25.418	23.3739
25.436	24.389
25.454	25.4594
25.472	26.6006
25.49	27.795
25.508	29.019
25.526	30.2729
25.544	31.5672
25.562	32.873
25.58	34.1635
25.598	35.459
25.616	36.7492
25.634	38.0034
25.652	39.2052
25.67	40.3785
25.688	41.4997
25.706	42.5395
25.724	43.4992
25.742	44.3898
25.76	45.1879
25.778	45.8714
25.796	46.4507
25.814	46.9263
25.832	47.2884
25.85	47.5294
25.868	47.6542
25.886	47.6654
25.904	47.5643
25.922	47.3477
25.94	47.0152
25.958	46.579
25.976	46.0515
25.994	45.4245
26.012	44.7005
26.03	43.8965
26.048	43.027
26.066	42.0781
26.084	41.0584
26.102	39.9852
26.12	38.8693
26.138	37.6964
26.156	36.4783
26.174	35.2297
26.192	33.9556
26.21	32.6463
26.228	31.3117
26.246	29.9622
26.264	28.5965
26.282	27.2105
26.3	25.8143
26.318	24.4174
26.336	23.0128
26.354	21.6018
26.372	20.1972
26.39	18.8105
26.408	17.4297
26.426	16.0605
26.444	14.7188
26.462	13.4163
26.48	12.1339
26.498	10.8858
26.516	9.695758
26.534	8.580551
26.552	7.518914
26.57	6.523346
26.588	5.613607
26.606	4.802280
26.624	4.073419
26.642	3.434828
26.66	2.897977
26.678	2.471500
26.696	2.149732
26.714	1.927956
26.732	1.802081
26.75	1.774434
26.768	1.853626
26.786	2.020422
26.804	2.253867
26.822	2.549706
26.84	2.930694
26.858	3.365616
26.876	3.819834
26.894	4.282699
26.912	4.788593
26.93	5.299364
26.948	5.771894
26.966	6.186007
26.984	6.579320
27.002	6.924556
27.02	7.188705
27.028	7.262730