File: Bakgrunnsmateriale/MATLAB/FTIR/ftir_data/LPE453/Mapping_121/LPE453_e125_cm-1.asc
PE IR       SPECTRUM    SPECTRUM    ASCII       PEDS        1.60
  -1
LP08BB~1.ASC
17/05/16
19:49:28.00
17/05/16
19:49:28.00
tln
$LPE453_e0125$<ebV0>[-23.3,12.1,10.0,0.0,27,1,0]
370
64

2002,4.07
MIRTGS : RIGHTBACK : INTERNAL 2
MIR : ON : INTERNAL 2
OPTKBR

0.200000
8
8.000000
FILLER
SINGLE
SPECTRUM
UNLOCKED 256

DOUBLE

COMBINED
1
0
0

1.000000
BACKG

1
0
TRUE
51149
0
LEFT NOT FITTED RIGHT NOT FITTED 0
NONE
NONE
15600
12
4.427000
51148
TRUE
1 0 8 72 0 0 0 0

15798

#HDR
-1
-1
#GR
CM-1
EGY
2.38419e-05
0.0
5000
-1.000000
4631
8
2.421069
0.007271
#DATA
5000	0.766324
4996	0.770473
4992	0.773358
4988	0.775837
4984	0.778579
4980	0.779056
4976	0.779008
4972	0.781011
4968	0.782632
4964	0.784111
4960	0.786495
4956	0.787496
4952	0.788092
4948	0.788927
4944	0.788879
4940	0.789642
4936	0.791406
4932	0.793170
4928	0.794100
4924	0.795078
4920	0.797486
4916	0.799727
4912	0.801229
4908	0.803256
4904	0.805377
4900	0.806164
4896	0.807213
4892	0.810837
4888	0.814080
4884	0.814867
4880	0.814914
4876	0.816726
4872	0.819921
4868	0.821709
4864	0.822496
4860	0.822758
4856	0.824880
4852	0.830936
4848	0.835585
4844	0.836706
4840	0.838208
4836	0.841093
4832	0.843191
4828	0.844264
4824	0.846672
4820	0.849866
4816	0.852012
4812	0.854349
4808	0.858187
4804	0.861310
4800	0.861716
4796	0.863027
4792	0.866246
4788	0.868511
4784	0.871419
4780	0.875854
4776	0.879645
4772	0.880742
4768	0.879096
4764	0.879430
4760	0.884699
4756	0.891017
4752	0.894117
4748	0.892734
4744	0.888681
4740	0.887894
4736	0.888037
4732	0.888276
4728	0.894284
4724	0.899958
4720	0.902152
4716	0.903034
4712	0.905704
4708	0.915765
4704	0.924444
4700	0.919342
4696	0.907182
4692	0.901794
4688	0.901699
4684	0.897979
4680	0.894713
4676	0.895786
4672	0.895166
4668	0.893473
4664	0.896191
4660	0.904464
4656	0.917410
4652	0.927019
4648	0.926065
4644	0.924611
4640	0.925993
4636	0.921225
4632	0.918698
4628	0.923466
4624	0.924968
4620	0.922012
4616	0.920486
4612	0.924348
4608	0.930619
4604	0.934147
4600	0.935626
4596	0.937509
4592	0.941085
4588	0.945115
4584	0.948667
4580	0.950646
4576	0.950694
4572	0.951766
4568	0.955247
4564	0.959658
4560	0.962042
4556	0.963211
4552	0.967001
4548	0.972604
4544	0.974106
4540	0.974726
4536	0.979351
4532	0.985360
4528	0.987339
4524	0.990605
4520	0.999069
4516	1.004004
4512	1.001667
4508	1.002335
4504	1.004147
4500	1.001906
4496	0.972032
4492	0.895214
4488	0.852012
4484	0.899195
4480	0.998806
4476	1.064205
4472	1.049351
4468	1.014685
4464	1.005887
4460	1.010751
4456	1.013183
4452	1.013660
4448	1.014590
4444	1.014590
4440	1.014852
4436	1.016020
4432	1.018762
4428	1.020956
4424	1.020097
4420	1.019740
4416	1.021647
4412	1.021957
4408	1.021528
4404	1.022601
4400	1.023769
4396	1.025176
4392	1.025867
4388	1.026773
4384	1.029825
4380	1.033496
4376	1.036286
4372	1.039195
4368	1.042485
4364	1.044702
4360	1.047229
4356	1.050400
4352	1.053810
4348	1.056647
4344	1.058340
4340	1.062822
4336	1.069021
4332	1.073741
4328	1.079559
4324	1.085472
4320	1.089453
4316	1.092648
4312	1.095533
4308	1.099514
4304	1.104402
4300	1.109433
4296	1.113510
4292	1.116919
4288	1.122355
4284	1.127672
4280	1.131510
4276	1.135110
4272	1.139688
4268	1.145148
4264	1.147508
4260	1.148986
4256	1.153635
4252	1.157259
4248	1.159071
4244	1.162576
4240	1.166105
4236	1.168465
4232	1.170969
4228	1.171898
4224	1.171541
4220	1.174855
4216	1.180553
4212	1.183652
4208	1.185488
4204	1.188182
4200	1.189994
4196	1.190495
4192	1.190233
4188	1.189470
4184	1.191020
4180	1.197195
4176	1.203775
4172	1.206016
4168	1.205754
4164	1.206302
4160	1.208257
4156	1.211929
4152	1.215791
4148	1.217818
4144	1.219487
4140	1.221895
4136	1.224350
4132	1.227545
4128	1.231646
4124	1.235985
4120	1.240658
4116	1.244211
4112	1.246786
4108	1.250147
4104	1.254439
4100	1.258325
4096	1.260566
4092	1.263213
4088	1.267886
4084	1.273870
4080	1.280570
4076	1.287555
4072	1.294016
4068	1.298952
4064	1.302456
4060	1.306414
4056	1.312994
4052	1.320338
4048	1.325106
4044	1.328945
4040	1.334118
4036	1.340484
4032	1.346302
4028	1.350450
4024	1.354360
4020	1.358938
4016	1.364183
4012	1.370263
4008	1.375699
4004	1.379513
4000	1.382279
3996	1.384067
3992	1.385569
3988	1.388835
3984	1.392745
3980	1.394486
3976	1.396250
3972	1.399421
3968	1.401734
3964	1.403880
3960	1.406216
3956	1.407456
3952	1.408839
3948	1.410651
3944	1.411724
3940	1.412725
3936	1.414251
3932	1.415729
3928	1.417255
3924	1.418375
3920	1.419305
3916	1.421976
3912	1.424551
3908	1.423287
3904	1.421070
3900	1.422977
3896	1.427125
3892	1.429343
3888	1.430034
3884	1.432180
3880	1.435494
3876	1.435899
3872	1.434659
3868	1.436781
3864	1.441073
3860	1.440644
3856	1.434946
3852	1.438355
3848	1.452279
3844	1.458978
3840	1.456904
3836	1.460027
3832	1.470589
3828	1.478004
3824	1.479005
3820	1.480269
3816	1.486730
3812	1.495027
3808	1.498126
3804	1.498770
3800	1.504302
3796	1.512885
3792	1.519083
3788	1.524138
3784	1.528692
3780	1.531243
3776	1.533365
3772	1.535248
3768	1.539444
3764	1.544904
3760	1.545715
3756	1.541233
3752	1.534748
3748	1.532626
3744	1.538538
3740	1.545882
3736	1.549267
3732	1.553678
3728	1.558923
3724	1.561975
3720	1.563072
3716	1.559686
3712	1.556372
3708	1.558876
3704	1.563024
3700	1.565217
3696	1.564502
3692	1.559853
3688	1.558709
3684	1.562929
3680	1.561570
3676	1.555252
3672	1.553821
3668	1.558923
3664	1.564645
3660	1.565504
3656	1.562166
3652	1.557826
3648	1.558780
3644	1.565694
3640	1.570105
3636	1.568889
3632	1.565408
3628	1.565766
3624	1.568651
3620	1.569223
3616	1.569986
3612	1.571536
3608	1.574754
3604	1.579546
3600	1.582264
3596	1.583933
3592	1.585102
3588	1.585268
3584	1.587080
3580	1.590323
3576	1.592850
3572	1.593756
3568	1.593732
3564	1.596307
3560	1.601266
3556	1.604294
3552	1.604962
3548	1.605105
3544	1.605343
3540	1.605582
3536	1.605439
3532	1.605963
3528	1.607823
3524	1.609897
3520	1.611161
3516	1.610660
3512	1.608991
3508	1.607751
3504	1.607179
3500	1.606583
3496	1.605391
3492	1.603412
3488	1.602077
3484	1.601052
3480	1.597356
3476	1.593708
3472	1.592898
3468	1.593065
3464	1.591730
3460	1.588153
3456	1.585125
3452	1.583814
3448	1.581263
3444	1.577758
3440	1.575398
3436	1.573467
3432	1.570820
3428	1.568651
3424	1.568269
3420	1.569533
3416	1.573038
3412	1.576948
3408	1.578688
3404	1.578736
3400	1.578879
3396	1.581835
3392	1.586842
3388	1.590108
3384	1.591324
3380	1.592826
3376	1.595568
3372	1.600027
3368	1.606130
3364	1.611471
3360	1.616120
3356	1.622223
3352	1.628732
3348	1.634812
3344	1.641297
3340	1.648139
3336	1.653289
3332	1.657915
3328	1.664018
3324	1.669263
3320	1.674246
3316	1.680350
3312	1.685690
3308	1.690506
3304	1.696491
3300	1.702713
3296	1.707363
3292	1.712512
3288	1.718568
3284	1.723456
3280	1.727294
3276	1.731061
3272	1.735353
3268	1.739573
3264	1.743769
3260	1.747465
3256	1.749086
3252	1.751089
3248	1.754951
3244	1.758289
3240	1.760149
3236	1.762080
3232	1.764559
3228	1.765966
3224	1.766180
3220	1.766371
3216	1.767086
3212	1.768469
3208	1.770305
3204	1.771759
3200	1.772165
3196	1.772642
3192	1.773405
3188	1.773881
3184	1.775431
3180	1.777744
3176	1.778531
3172	1.778745
3168	1.780104
3164	1.781678
3160	1.784348
3156	1.788616
3152	1.792359
3148	1.794052
3144	1.795864
3140	1.800537
3136	1.805663
3132	1.808166
3128	1.810956
3124	1.817870
3120	1.826596
3116	1.832938
3112	1.835846
3108	1.838731
3104	1.844763
3100	1.852917
3096	1.861476
3092	1.870346
3088	1.878237
3084	1.884412
3080	1.891589
3076	1.899361
3072	1.904940
3068	1.909184
3064	1.913714
3060	1.919245
3056	1.926565
3052	1.934409
3048	1.940703
3044	1.946377
3040	1.951861
3036	1.955366
3032	1.955461
3028	1.951122
3024	1.942396
3020	1.935815
3016	1.941633
3012	1.960086
3008	1.980233
3004	1.994228
3000	2.002716
2996	2.007532
2992	2.009963
2988	2.010440
2984	2.007055
2980	1.998901
2976	1.984930
2972	1.963853
2968	1.938986
2964	1.918649
2960	1.908230
2956	1.905202
2952	1.902675
2948	1.892518
2944	1.868200
2940	1.832747
2936	1.798009
2932	1.769614
2928	1.750373
2924	1.753616
2920	1.786756
2916	1.834845
2912	1.877284
2908	1.907348
2904	1.928782
2900	1.945209
2896	1.958179
2892	1.968908
2888	1.977539
2884	1.983451
2880	1.985073
2876	1.979851
2872	1.963496
2868	1.933121
2864	1.899719
2860	1.888203
2856	1.909756
2852	1.948499
2848	1.987218
2844	2.020478
2840	2.046990
2836	2.067565
2832	2.083325
2828	2.095127
2824	2.105641
2820	2.115821
2816	2.125406
2812	2.134728
2808	2.143645
2804	2.152824
2800	2.160954
2796	2.166509
2792	2.171611
2788	2.178096
2784	2.185559
2780	2.193784
2776	2.200722
2772	2.205824
2768	2.210783
2764	2.215862
2760	2.221536
2756	2.226424
2752	2.228569
2748	2.229261
2744	2.230048
2740	2.231717
2736	2.233576
2732	2.233934
2728	2.233219
2724	2.233076
2720	2.233266
2716	2.231907
2712	2.229762
2708	2.227210
2704	2.224707
2700	2.223873
2696	2.223396
2692	2.222704
2688	2.222323
2684	2.220797
2680	2.217149
2676	2.212738
2672	2.209377
2668	2.206516
2664	2.203989
2660	2.202725
2656	2.201247
2652	2.199673
2648	2.199292
2644	2.198624
2640	2.197432
2636	2.197766
2632	2.199053
2628	2.199172
2624	2.198219
2620	2.198338
2616	2.200031
2612	2.200937
2608	2.200627
2604	2.200913
2600	2.202653
2596	2.204990
2592	2.207279
2588	2.210426
2584	2.215290
2580	2.221632
2576	2.228379
2572	2.234292
2568	2.239155
2564	2.243709
2560	2.248334
2556	2.253246
2552	2.258419
2548	2.263426
2544	2.268910
2540	2.275323
2536	2.280950
2532	2.284526
2528	2.287888
2524	2.290391
2520	2.291560
2516	2.293491
2512	2.296996
2508	2.298855
2504	2.297616
2500	2.296376
2496	2.297234
2492	2.299141
2488	2.300834
2484	2.300071
2480	2.297401
2476	2.295565
2472	2.293133
2468	2.289319
2464	2.286100
2460	2.283239
2456	2.279376
2452	2.274918
2448	2.270460
2444	2.267146
2440	2.265262
2436	2.262282
2432	2.257251
2428	2.252006
2424	2.248167
2420	2.245283
2416	2.242088
2412	2.238917
2408	2.237915
2404	2.237939
2400	2.234506
2396	2.229619
2392	2.227401
2388	2.226066
2384	2.224040
2380	2.221655
2376	2.219033
2372	2.215242
2368	2.210807
2364	2.208900
2360	2.211833
2356	2.219676
2352	2.228951
2348	2.234411
2344	2.235817
2340	2.237582
2336	2.242183
2332	2.249097
2328	2.257633
2324	2.266311
2320	2.274036
2316	2.280616
2312	2.286958
2308	2.294087
2304	2.300381
2300	2.305769
2296	2.312469
2292	2.319407
2288	2.324390
2284	2.327609
2280	2.330660
2276	2.334570
2272	2.338671
2268	2.341318
2264	2.342486
2260	2.343678
2256	2.345371
2252	2.347111
2248	2.349758
2244	2.352166
2240	2.352261
2236	2.350497
2232	2.348303
2228	2.346801
2224	2.345705
2220	2.343630
2216	2.340722
2212	2.338194
2208	2.335906
2204	2.333211
2200	2.329516
2196	2.324795
2192	2.320861
2188	2.318501
2184	2.317094
2180	2.314329
2176	2.309656
2172	2.306556
2168	2.305293
2164	2.304053
2160	2.302813
2156	2.302980
2152	2.303981
2148	2.303576
2144	2.303743
2140	2.304363
2136	2.303457
2132	2.302336
2128	2.302217
2124	2.303886
2120	2.305483
2116	2.305221
2112	2.304601
2108	2.304673
2104	2.305126
2100	2.305674
2096	2.305197
2092	2.304291
2088	2.305388
2084	2.308702
2080	2.311873
2076	2.315425
2072	2.322459
2068	2.331852
2064	2.341437
2060	2.349734
2056	2.356576
2052	2.364110
2048	2.372336
2044	2.379369
2040	2.385616
2036	2.392220
2032	2.398157
2028	2.402663
2024	2.406358
2020	2.410030
2016	2.413630
2012	2.416443
2008	2.418422
2004	2.419757
2000	2.420711
1996	2.421021
1992	2.420115
1988	2.418422
1984	2.416682
1980	2.414298
1976	2.410316
1972	2.405548
1968	2.401375
1964	2.398276
1960	2.395725
1956	2.393770
1952	2.391242
1948	2.386641
1944	2.382469
1940	2.380061
1936	2.377605
1932	2.373886
1928	2.368831
1924	2.362942
1920	2.357268
1916	2.353286
1912	2.350044
1908	2.346253
1904	2.341961
1900	2.337527
1896	2.334046
1892	2.332496
1888	2.333402
1884	2.336025
1880	2.338242
1876	2.339291
1872	2.339410
1868	2.340316
1864	2.343583
1860	2.346825
1856	2.349638
1852	2.352833
1848	2.354407
1844	2.357196
1840	2.363705
1836	2.367544
1832	2.366971
1828	2.368831
1824	2.374672
1820	2.380895
1816	2.385568
1812	2.389430
1808	2.391958
1804	2.391695
1800	2.390122
1796	2.388334
1792	2.387332
1788	2.388882
1784	2.390384
1780	2.389454
1776	2.383470
1772	2.375674
1768	2.373552
1764	2.372145
1760	2.367734
1756	2.360272
1752	2.348279
1748	2.336502
1744	2.325034
1740	2.308344
1736	2.290034
1732	2.285194
1728	2.291440
1724	2.288579
1720	2.273464
1716	2.263069
1712	2.262902
1708	2.256488
1704	2.237820
1700	2.219724
1696	2.216744
1692	2.221965
1688	2.214121
1684	2.202939
1680	2.203059
1676	2.201128
1672	2.194023
1668	2.187848
1664	2.180886
1660	2.167868
1656	2.143359
1652	2.124071
1648	2.123260
1644	2.126169
1640	2.118110
1636	2.104973
1632	2.099418
1628	2.092075
1624	2.073192
1620	2.044653
1616	2.008104
1612	1.969003
1608	1.943540
1604	1.945042
1600	1.961731
1596	1.975941
1592	1.981306
1588	1.979351
1584	1.973652
1580	1.962804
1576	1.952123
1572	1.948523
1568	1.943135
1564	1.921844
1560	1.897335
1556	1.900100
1552	1.920437
1548	1.927423
1544	1.924991
1540	1.945257
1536	1.997160
1532	2.047801
1528	2.072763
1524	2.076458
1520	2.073311
1516	2.069091
1512	2.056550
1508	2.027559
1504	1.960706
1500	1.822185
1496	1.676487
1492	1.657938
1488	1.761794
1484	1.872992
1480	1.930618
1476	1.944899
1472	1.943826
1468	1.935195
1464	1.908159
1460	1.851916
1456	1.778459
1452	1.736283
1448	1.758456
1444	1.806783
1440	1.831054
1436	1.837658
1432	1.843404
1428	1.844096
1424	1.837229
1420	1.826190
1416	1.813554
1412	1.787543
1408	1.740789
1404	1.703238
1400	1.706314
1396	1.737260
1392	1.760387
1388	1.759648
1384	1.755809
1380	1.766538
1376	1.779961
1372	1.786994
1368	1.788806
1364	1.788306
1360	1.788330
1356	1.787710
1352	1.785874
1348	1.785111
1344	1.786208
1340	1.789498
1336	1.797366
1332	1.808023
1328	1.816558
1324	1.820635
1320	1.822400
1316	1.824712
1312	1.826095
1308	1.825475
1304	1.824426
1300	1.824259
1296	1.825261
1292	1.825809
1288	1.825070
1284	1.822352
1280	1.815629
1276	1.802182
1272	1.774930
1268	1.731586
1264	1.693677
1260	1.692795
1256	1.728773
1252	1.769614
1248	1.794195
1244	1.803994
1240	1.806497
1236	1.805663
1232	1.802158
1228	1.795792
1224	1.786136
1220	1.771497
1216	1.752614
1212	1.734876
1208	1.723933
1204	1.720190
1200	1.720333
1196	1.719617
1192	1.714825
1188	1.706814
1184	1.696014
1180	1.684617
1176	1.673913
1172	1.661419
1168	1.644968
1164	1.625227
1160	1.606154
1156	1.594662
1152	1.590585
1148	1.586532
1144	1.578426
1140	1.567053
1136	1.553058
1132	1.536965
1128	1.519489
1124	1.500272
1120	1.479148
1116	1.457405
1112	1.436829
1108	1.420569
1104	1.411914
1100	1.408338
1096	1.405358
1092	1.404452
1088	1.407623
1084	1.410365
1080	1.408958
1076	1.408028
1072	1.411771
1068	1.416230
1064	1.415181
1060	1.398873
1056	1.350736
1052	1.294302
1048	1.289772
1044	1.330542
1040	1.360774
1036	1.366043
1032	1.360511
1028	1.351594
1024	1.342105
1020	1.338481
1016	1.344108
1012	1.355290
1008	1.368141
1004	1.377534
1000	1.380300
996	 1.379013
992	 1.375102
988	 1.368784
984	 1.360797
980	 1.352238
976	 1.343441
972	 1.333355
968	 1.321625
964	 1.308536
960	 1.294374
956	 1.280474
952	 1.267862
948	 1.256942
944	 1.247501
940	 1.239943
936	 1.233625
932	 1.225590
928	 1.216006
924	 1.207137
920	 1.197433
916	 1.184153
912	 1.167702
908	 1.152563
904	 1.142573
900	 1.137471
896	 1.133894
892	 1.125216
888	 1.104593
884	 1.070666
880	 1.034474
876	 1.015591
872	 1.023626
868	 1.047921
864	 1.068854
860	 1.077103
856	 1.075911
852	 1.070880
848	 1.065135
844	 1.057624
840	 1.042866
836	 1.009607
832	 0.947284
828	 0.870847
824	 0.831675
820	 0.856852
816	 0.904607
812	 0.930500
808	 0.933837
804	 0.929999
800	 0.929093
796	 0.934433
792	 0.944805
788	 0.955724
784	 0.962805
780	 0.964879
776	 0.963544
772	 0.960803
768	 0.957989
764	 0.954866
760	 0.950551
756	 0.944662
752	 0.937914
748	 0.932812
744	 0.928044
740	 0.919628
736	 0.909280
732	 0.899529
728	 0.888895
724	 0.877523
720	 0.867247
716	 0.857067
712	 0.844693
708	 0.830864
704	 0.817203
700	 0.802254
696	 0.781607
692	 0.752663
688	 0.727438
684	 0.720810
680	 0.723695
676	 0.721311
672	 0.713825
668	 0.704431
664	 0.694870
660	 0.687074
656	 0.679135
652	 0.668573
648	 0.656723
644	 0.644731
640	 0.632643
636	 0.622057
632	 0.613498
628	 0.605273
624	 0.595855
620	 0.584793
616	 0.570154
612	 0.549960
608	 0.528407
604	 0.515747
600	 0.514507
596	 0.515532
592	 0.511765
588	 0.504994
584	 0.499558
580	 0.495815
576	 0.492620
572	 0.489711
568	 0.485754
564	 0.480175
560	 0.473785
556	 0.467133
552	 0.459837
548	 0.451803
544	 0.444483
540	 0.437307
536	 0.428509
532	 0.419831
528	 0.411057
524	 0.400924
520	 0.391221
516	 0.382900
512	 0.375199
508	 0.365829
504	 0.353670
500	 0.340676
496	 0.328421
492	 0.316143
488	 0.301408
484	 0.284957
480	 0.270724
476	 0.259923
472	 0.249242
468	 0.236582
464	 0.223517
460	 0.210142
456	 0.195097
452	 0.179791
448	 0.167727
444	 0.158715
440	 0.149154
436	 0.137186
432	 0.123119
428	 0.108933
424	 0.096249
420	 0.084710
416	 0.074481
412	 0.064563
408	 0.054430
404	 0.046300
400	 0.039768
396	 0.032472
392	 0.025820
388	 0.021147
384	 0.016593
380	 0.011920
376	 0.009608
372	 0.008463
370	 0.007271