File: Bakgrunnsmateriale/MATLAB/FTIR/ftir_data/LPE453/Mapping_121/LPE453_t33_cm-1.asc
PE IR       SPECTRUM    SPECTRUM    ASCII       PEDS        1.60
  -1
LPD8D0~1.ASC
17/05/16
17:03:23.00
17/05/16
17:03:23.00
tln
$LPE453_t0033$<tbV0>[-13.0,-7.8,8.0,0.0,27,1,0]
370
64

2002,4.07
MIRTGS : RIGHTBACK : INTERNAL 2
MIR : ON : INTERNAL 2
OPTKBR

0.200000
8
8.000000
FILLER
RATIO
SPECTRUM
UNLOCKED 256

DOUBLE
64
COMBINED
1
0
0

1.000000
RATIO

1
0
TRUE
51149
0
LEFT NOT FITTED RIGHT NOT FITTED 0
NONE
NONE
15600
12
4.427000
51148
TRUE
1 0 8 72 0 0 0 0

15798

#HDR
-1
-1
#GR
CM-1
%T
2.38419e-05
0.0
5000
-1.000000
4631
8
44.3628
-74.1541
#DATA
5000	-0.035691
4996	-0.196194
4992	-0.061035
4988	0.158977
4984	0.113940
4980	0.108098
4976	0.420808
4972	0.455474
4968	0.123476
4964	0.070548
4960	0.338149
4956	0.642132
4952	0.663018
4948	0.515389
4944	0.603079
4940	0.650072
4936	0.286269
4932	-0.141620
4928	-0.010037
4924	0.274276
4920	0.073289
4916	-0.215578
4912	-0.259256
4908	-0.283575
4904	-0.244140
4900	0.005078
4896	-0.041937
4892	-0.249147
4888	-0.054430
4884	0.138020
4880	0.211429
4876	0.184655
4872	-0.071406
4868	-0.076150
4864	0.257825
4860	0.353908
4856	0.199007
4852	0.081634
4848	0.054335
4844	0.208473
4840	0.352835
4836	0.209069
4832	-0.046777
4828	-0.121593
4824	-0.067996
4820	0.000619
4816	0.087594
4812	0.087666
4808	0.063729
4804	0.248503
4800	0.515413
4796	0.501871
4792	0.276994
4788	0.192594
4784	0.276875
4780	0.345873
4776	0.306177
4772	0.181484
4768	0.084042
4764	0.035953
4760	-0.058245
4756	-0.133395
4752	-0.189661
4748	-0.197863
4744	-0.085902
4740	0.031661
4736	0.107574
4732	0.064253
4728	0.010895
4724	0.168275
4720	0.232267
4716	0.078153
4712	-0.087809
4708	-0.122785
4704	0.050830
4700	0.210809
4696	0.306749
4692	0.406360
4688	0.450539
4684	0.449776
4680	0.384521
4676	0.419998
4672	0.537753
4668	0.424265
4664	0.210356
4660	0.035810
4656	-0.130772
4652	-0.216221
4648	-0.125050
4644	0.193881
4640	0.313973
4636	0.077986
4632	0.053381
4628	0.177931
4624	0.042176
4620	-0.043177
4616	0.159287
4612	0.425577
4608	0.404095
4604	0.277614
4600	0.376796
4596	0.447058
4592	0.419425
4588	0.621128
4584	0.804996
4580	0.256323
4576	-0.414133
4572	-0.526571
4568	-0.488495
4564	-0.408458
4560	0.081491
4556	0.948119
4552	1.354289
4548	1.344823
4544	0.537943
4540	-0.668811
4536	-0.815439
4532	-1.079964
4528	-1.059031
4524	3.087019
4520	7.561659
4516	5.438661
4512	3.402924
4508	4.504776
4504	3.129076
4500	1.013374
4496	0.056862
4492	-0.852894
4488	-1.054859
4484	-0.625085
4480	-0.202703
4476	-0.356674
4472	-0.224065
4468	0.174188
4464	0.310587
4460	0.417804
4456	0.494718
4452	0.384259
4448	0.355148
4444	0.394320
4440	0.291824
4436	0.429129
4432	0.732970
4428	0.676894
4424	0.384354
4420	0.369358
4416	0.376987
4412	0.279283
4408	0.448131
4404	0.652313
4400	0.707674
4396	0.655913
4392	0.588941
4388	0.596451
4384	0.554633
4380	0.591230
4376	0.574350
4372	0.370383
4368	0.308394
4364	0.396609
4360	0.413918
4356	0.386977
4352	0.377011
4348	0.394439
4344	0.326013
4340	0.186181
4336	0.257992
4332	0.447344
4328	0.350499
4324	0.033831
4320	-0.167131
4316	-0.227904
4312	-0.191545
4308	-0.039887
4304	0.121307
4300	0.145149
4296	0.101304
4292	0.089621
4288	0.086927
4284	0.023221
4280	-0.031208
4276	0.055074
4272	0.049281
4268	-0.088620
4264	-0.041365
4260	0.085043
4256	0.066995
4252	0.049018
4248	0.148510
4244	0.188350
4240	0.073170
4236	-0.046706
4232	-0.042319
4228	0.119447
4224	0.195407
4220	0.171947
4216	0.210595
4212	0.184035
4208	0.070786
4204	-0.081586
4200	-0.195312
4196	-0.087332
4192	0.091266
4188	0.048089
4184	0.328397
4180	0.755143
4176	0.261116
4172	-0.329303
4168	-0.161004
4164	0.072407
4160	0.136375
4156	0.120735
4152	-0.041365
4148	-0.155663
4144	-0.180339
4140	-0.200033
4136	-0.104904
4132	0.053644
4128	0.081753
4124	0.027513
4120	0.044894
4116	0.047898
4112	-0.073480
4108	-0.125598
4104	-0.069189
4100	-0.076246
4096	-0.033211
4092	0.149464
4088	0.236153
4084	0.167036
4080	0.117182
4076	0.146102
4072	0.185012
4068	0.175452
4064	0.220417
4060	0.228261
4056	0.123429
4052	0.139427
4048	0.190234
4044	0.139379
4040	0.139331
4036	0.123453
4032	0.055646
4028	0.032711
4024	0.049734
4020	0.056338
4016	0.034999
4012	0.103306
4008	0.223803
4004	0.185203
4000	0.000977
3996	-0.118088
3992	-0.104069
3988	-0.131082
3984	-0.168013
3980	-0.124549
3976	-0.085473
3972	-0.115704
3968	-0.117325
3964	-0.013685
3960	0.095272
3956	0.150704
3952	0.249576
3948	0.268101
3944	0.126004
3940	0.073885
3936	0.099706
3932	0.149703
3928	0.210189
3924	0.131225
3920	0.010538
3916	0.051474
3912	0.174856
3908	0.224590
3904	0.190877
3900	0.099229
3896	0.015878
3892	-0.024700
3888	-0.049471
3884	0.033998
3880	0.174951
3876	0.190973
3872	0.030303
3868	-0.206542
3864	-0.334930
3860	-0.215816
3856	0.051808
3852	0.104403
3848	0.001525
3844	0.053191
3840	0.158905
3836	0.084900
3832	-0.127530
3828	-0.052547
3824	0.157666
3820	0.161266
3816	0.090408
3812	0.019168
3808	-0.035095
3804	-0.031709
3800	-0.015401
3796	-0.021648
3792	-0.031208
3788	-0.005459
3784	0.115752
3780	0.219249
3776	0.173950
3772	0.093340
3768	-0.012946
3764	-0.145339
3760	-0.142145
3756	-0.066709
3752	-0.019168
3748	0.044012
3744	0.093436
3740	0.032877
3736	-0.049066
3732	0.026226
3728	0.146698
3724	0.109124
3720	-0.017786
3716	-0.030493
3712	0.097322
3708	0.168299
3704	0.103020
3700	0.048542
3696	0.074934
3692	0.072360
3688	0.050425
3684	0.063943
3680	0.079584
3676	0.114464
3672	0.192523
3668	0.257015
3664	0.207328
3660	0.137782
3656	0.121998
3652	0.027966
3648	-0.081038
3644	-0.091290
3640	-0.094056
3636	-0.092697
3632	-0.005674
3628	0.075173
3624	0.080466
3620	0.065326
3616	0.059676
3612	0.062966
3608	0.042748
3604	0.011587
3600	-0.000190
3596	-0.003337
3592	0.009727
3588	0.093889
3584	0.218653
3580	0.222563
3576	0.087046
3572	-0.046944
3568	-0.044393
3564	0.052309
3560	0.072789
3556	0.037956
3552	-0.002694
3548	-0.069451
3544	-0.111413
3540	-0.117993
3536	-0.077271
3532	0.070428
3528	0.207614
3524	0.175595
3520	0.123715
3516	0.065660
3512	-0.071191
3508	-0.121736
3504	-0.063276
3500	0.018215
3496	0.047254
3492	-0.003743
3488	-0.059962
3484	-0.067782
3480	-0.062012
3476	-0.056624
3472	0.016784
3468	0.138449
3464	0.173354
3460	0.090289
3456	0.066041
3452	0.089502
3448	0.009274
3444	-0.080466
3440	-0.034427
3436	0.111961
3432	0.178337
3428	0.165724
3424	0.190591
3420	0.210642
3416	0.136113
3412	0.030732
3408	0.013947
3404	0.079441
3400	0.179171
3396	0.190067
3392	0.126934
3388	0.155568
3384	0.184249
3380	0.120735
3376	0.124430
3372	0.196218
3368	0.184750
3364	0.124835
3360	0.119018
3356	0.165486
3352	0.202131
3348	0.211882
3344	0.154995
3340	-0.003147
3336	-0.102639
3332	-0.029349
3328	0.071144
3324	0.078487
3320	0.052833
3316	0.072193
3312	0.122141
3308	0.161170
3304	0.150322
3300	0.098896
3296	0.101709
3292	0.176310
3288	0.186896
3284	0.116419
3280	0.108075
3276	0.153899
3272	0.136876
3268	0.053596
3264	-0.033926
3260	-0.021076
3256	0.096273
3252	0.159072
3248	0.133967
3244	0.087499
3240	-0.008797
3236	-0.090408
3232	-0.080657
3228	-0.053405
3224	-0.050401
3220	-0.043582
3216	0.003385
3212	-0.055217
3208	-0.153660
3204	-0.072407
3200	0.002694
3196	0.034356
3192	0.099492
3188	0.073170
3184	0.036239
3180	0.084710
3176	0.138068
3172	0.115180
3168	-0.005817
3164	-0.089335
3160	-0.069689
3156	-0.017213
3152	0.053954
3148	0.058102
3144	0.049734
3140	0.174665
3136	0.308680
3132	0.270485
3128	0.144839
3124	0.214552
3120	0.311541
3116	0.105142
3112	-0.099229
3108	-0.117754
3104	-0.161933
3100	-0.187897
3096	-0.133299
3092	-0.085186
3088	-0.076699
3084	-0.081181
3080	-0.085639
3076	-0.074505
3072	-0.007557
3068	0.062918
3064	0.057625
3060	0.030016
3056	0.043654
3052	0.058245
3048	0.078558
3044	0.093078
3040	0.038266
3036	-0.015497
3032	0.020718
3028	0.067234
3024	0.090217
3020	0.122642
3016	0.093245
3012	0.051116
3008	0.053429
3004	0.065112
3000	0.075101
2996	0.074172
2992	0.115227
2988	0.193548
2984	0.201296
2980	0.141477
2976	0.121569
2972	0.145602
2968	0.148558
2964	0.085830
2960	0.020217
2956	0.043821
2952	0.074362
2948	0.049185
2944	-0.004625
2940	-0.037956
2936	0.027513
2932	0.175404
2928	0.233793
2924	0.142478
2920	0.064921
2916	0.060629
2912	0.031065
2908	-0.008940
2904	0.046086
2900	0.122237
2896	0.091505
2892	0.001525
2888	-0.005769
2884	0.065326
2880	0.079870
2876	0.044584
2872	0.037813
2868	0.043821
2864	0.035548
2860	-0.009751
2856	-0.068736
2852	-0.054240
2848	0.054812
2844	0.147509
2840	0.134325
2836	0.088787
2832	0.095915
2828	0.096106
2824	0.046658
2820	0.002050
2816	-0.037240
2812	0.004673
2808	0.129365
2804	0.117039
2800	0.039243
2796	0.037264
2792	0.058817
2788	0.090217
2784	0.091004
2780	0.052690
2776	0.047731
2772	0.074005
2768	0.066804
2764	0.027251
2760	0.042057
2756	0.105714
2752	0.139164
2748	0.125741
2744	0.067949
2740	0.025749
2736	0.058984
2732	0.076103
2728	0.008320
2724	-0.046586
2720	-0.021839
2716	0.022459
2712	0.005841
2708	-0.082492
2704	-0.146985
2700	-0.105166
2696	-0.042176
2692	-0.005197
2688	0.035810
2684	0.029945
2680	0.015425
2676	0.041627
2672	0.038313
2668	0.018548
2664	0.030970
2660	0.042724
2656	0.043487
2652	0.049781
2648	0.039434
2644	0.034761
2640	0.041818
2636	0.047588
2632	0.108885
2628	0.200009
2624	0.226545
2620	0.159096
2616	0.089144
2612	0.094127
2608	0.108122
2604	0.098299
2600	0.081276
2596	0.053071
2592	0.032520
2588	0.020098
2584	0.011706
2580	0.040698
2576	0.105571
2572	0.122761
2568	0.056719
2564	-0.020503
2560	-0.060915
2556	-0.069546
2552	-0.045084
2548	0.015020
2544	0.063848
2540	0.045275
2536	-0.015830
2532	-0.068283
2528	-0.034809
2524	0.066184
2520	0.072479
2516	0.029397
2512	0.016641
2508	-0.000762
2504	0.066518
2500	0.176763
2496	0.173687
2492	0.087380
2488	0.036334
2484	0.059652
2480	0.080156
2476	0.023579
2472	-0.032591
2468	-0.011086
2464	0.039386
2460	0.042963
2456	0.017833
2452	0.041413
2448	0.065660
2444	0.074386
2440	0.181794
2436	0.246787
2432	0.053548
2428	-0.185966
2424	-0.191497
2420	0.020885
2416	0.251984
2412	0.281000
2408	0.204777
2404	0.168108
2400	0.061583
2396	-0.044155
2392	-0.019788
2388	0.027155
2384	0.034785
2380	-0.002813
2376	-0.040841
2372	0.020575
2368	0.100708
2364	0.104808
2360	0.051188
2356	-0.025773
2352	-0.077438
2348	-0.094556
2344	-0.065493
2340	0.003671
2336	0.092840
2332	0.143718
2328	0.098824
2324	0.071167
2320	0.105190
2316	0.116991
2312	0.156927
2308	0.201869
2304	0.170326
2300	0.158190
2296	0.202465
2292	0.276350
2288	0.334477
2284	0.297355
2280	0.268793
2276	0.324440
2272	0.373101
2268	0.424027
2264	0.483274
2260	0.551557
2256	0.659823
2252	0.744867
2248	0.798463
2244	0.843572
2240	0.923347
2236	1.061153
2232	1.217055
2228	1.392054
2224	1.513838
2220	1.532244
2216	1.552677
2212	1.667714
2208	1.869559
2204	2.096319
2200	2.326416
2196	2.548360
2192	2.706003
2188	2.872347
2184	3.130817
2180	3.392338
2176	3.595280
2172	3.791308
2168	4.017186
2164	4.333901
2160	4.766511
2156	5.225753
2152	5.517792
2148	5.589652
2144	5.784773
2140	6.230092
2136	6.696534
2132	7.112336
2128	7.499885
2124	7.854676
2120	8.229041
2116	8.646345
2112	9.034562
2108	9.407806
2104	9.832048
2100	10.2327
2096	10.6052
2092	11.0225
2088	11.4272
2084	11.8722
2080	12.451
2076	12.9397
2072	13.3061
2068	13.815
2064	14.2909
2060	14.5674
2056	14.8627
2052	15.2879
2048	15.7566
2044	16.1638
2040	16.5434
2036	16.926
2032	17.2702
2028	17.6077
2024	18.0068
2020	18.421
2016	18.7695
2012	19.1141
2008	19.4754
2004	19.7829
2000	20.027
1996	20.2712
1992	20.5535
1988	20.8761
1984	21.2362
1980	21.5958
1976	21.9626
1972	22.3241
1968	22.5876
1964	22.8098
1960	23.0724
1956	23.2776
1952	23.4559
1948	23.7435
1944	24.0559
1940	24.2228
1936	24.3072
1932	24.4991
1928	24.8017
1924	25.0529
1920	25.2112
1916	25.4005
1912	25.6287
1908	25.8175
1904	25.9789
1900	26.147
1896	26.3197
1892	26.4787
1888	26.6195
1884	26.7376
1880	26.8472
1876	26.9831
1872	27.1477
1868	27.2856
1864	27.4159
1860	27.5833
1856	27.7316
1852	27.8611
1848	28.0004
1844	28.1395
1840	28.2643
1836	28.3358
1832	28.41
1828	28.5298
1824	28.5949
1820	28.6513
1816	28.7853
1812	28.918
1808	29.037
1804	29.1607
1800	29.2549
1796	29.3491
1792	29.4405
1788	29.462
1784	29.4286
1780	29.4159
1776	29.4979
1772	29.6573
1768	29.777
1764	29.8452
1760	29.8997
1756	29.9527
1752	30.0111
1748	30.0601
1744	30.1636
1740	30.286
1736	30.3004
1732	30.2999
1728	30.3553
1724	30.3524
1720	30.3219
1716	30.37
1712	30.4426
1708	30.4866
1704	30.5365
1700	30.6063
1696	30.649
1692	30.6603
1688	30.7198
1684	30.7849
1680	30.7624
1676	30.7157
1672	30.723
1668	30.7866
1664	30.84
1660	30.8755
1656	30.9618
1652	31.0768
1648	31.1349
1644	31.0763
1640	31.008
1636	31.0356
1632	31.083
1628	31.0848
1624	31.0772
1620	31.1136
1616	31.1625
1612	31.1682
1608	31.1604
1604	31.1916
1600	31.2541
1596	31.3145
1592	31.3633
1588	31.3724
1584	31.3385
1580	31.3416
1576	31.3386
1572	31.3318
1568	31.3973
1564	31.4338
1560	31.4257
1556	31.4806
1552	31.5593
1548	31.602
1544	31.6146
1540	31.6116
1536	31.5933
1532	31.5385
1528	31.45
1524	31.4379
1520	31.5545
1516	31.6601
1512	31.6809
1508	31.6396
1504	31.6088
1500	31.6652
1496	31.7186
1492	31.7015
1488	31.6655
1484	31.5925
1480	31.5293
1476	31.5263
1472	31.5316
1468	31.5576
1464	31.5984
1460	31.5558
1456	31.5078
1452	31.5853
1448	31.6437
1444	31.5789
1440	31.5484
1436	31.6049
1432	31.6118
1428	31.5588
1424	31.5038
1420	31.4466
1416	31.4563
1412	31.5068
1408	31.5309
1404	31.5549
1400	31.5618
1396	31.5549
1392	31.5207
1388	31.4598
1384	31.4368
1380	31.3872
1376	31.2971
1372	31.2897
1368	31.3071
1364	31.275
1360	31.2811
1356	31.3098
1352	31.2631
1348	31.2222
1344	31.295
1340	31.404
1336	31.376
1332	31.1951
1328	31.0524
1324	31.0167
1320	31.0495
1316	31.1496
1312	31.2145
1308	31.1656
1304	31.1263
1300	31.1297
1296	31.12
1292	31.1303
1288	31.1548
1284	31.1636
1280	31.0883
1276	30.9749
1272	30.9611
1268	30.9949
1264	30.9842
1260	30.9682
1256	30.9869
1252	30.9828
1248	30.9645
1244	30.9782
1240	30.959
1236	30.8854
1232	30.7988
1228	30.7105
1224	30.6944
1220	30.7183
1216	30.6392
1212	30.5255
1208	30.5529
1204	30.6382
1200	30.6228
1196	30.5824
1192	30.5465
1188	30.4736
1184	30.4518
1180	30.4513
1176	30.4105
1172	30.4022
1168	30.4037
1164	30.3529
1160	30.3042
1156	30.2544
1152	30.1768
1148	30.1384
1144	30.0853
1140	29.9772
1136	29.9155
1132	29.938
1128	29.9349
1124	29.9106
1120	30.0056
1116	30.0608
1112	29.9628
1108	29.8666
1104	29.7297
1100	29.5408
1096	29.5577
1092	29.781
1088	29.8304
1084	29.6494
1080	29.6085
1076	29.712
1072	29.6274
1068	29.3905
1064	29.3176
1060	29.3942
1056	29.3796
1052	29.3008
1048	29.2219
1044	29.1367
1040	29.0995
1036	29.0848
1032	29.0413
1028	28.909
1024	28.7056
1020	28.5743
1016	28.6039
1012	28.7797
1008	28.9655
1004	28.9961
1000	28.8223
996	 28.6312
992	 28.6523
988	 28.6993
984	 28.6099
980	 28.4989
976	 28.4182
972	 28.3848
968	 28.412
964	 28.4829
960	 28.4456
956	 28.3605
952	 28.3138
948	 28.1685
944	 27.9975
940	 27.8639
936	 27.7712
932	 27.7626
928	 27.815
924	 27.8467
920	 27.8201
916	 27.7425
912	 27.6608
908	 27.6401
904	 27.5678
900	 27.387
896	 27.2417
892	 27.1658
888	 27.0648
884	 26.9479
880	 26.977
876	 27.1863
872	 27.3111
868	 27.179
864	 27.0516
860	 27.0624
856	 27.0109
852	 26.8851
848	 26.731
844	 26.5005
840	 26.2766
836	 26.2058
832	 26.3139
828	 26.3804
824	 26.2267
820	 26.026
816	 26.0302
812	 26.2085
808	 26.2193
804	 26.0482
800	 26.0133
796	 26.0979
792	 26.0753
788	 25.913
784	 25.7486
780	 25.7405
776	 25.8749
772	 25.9207
768	 25.7393
764	 25.5329
760	 25.6707
756	 25.966
752	 25.983
748	 25.7934
744	 25.4674
740	 25.0955
736	 24.9224
732	 24.8705
728	 24.7087
724	 24.4496
720	 24.4459
716	 24.7492
712	 24.9017
708	 24.7633
704	 24.5543
700	 24.3673
696	 24.3209
692	 24.3123
688	 24.0419
684	 23.7558
680	 23.7256
676	 23.6983
672	 23.603
668	 23.5851
664	 23.5377
660	 23.3896
656	 23.4318
652	 23.6344
648	 23.5158
644	 23.2984
640	 23.4092
636	 23.3975
632	 23.0074
628	 22.7273
624	 22.6883
620	 22.731
616	 22.723
612	 22.5495
608	 22.4124
604	 22.2957
600	 22.2284
596	 22.474
592	 22.6443
588	 22.5857
584	 22.5458
580	 22.4068
576	 22.2194
572	 21.9907
568	 21.794
564	 21.7467
560	 21.5872
556	 21.451
552	 21.6245
548	 21.7726
544	 21.6516
540	 21.5404
536	 21.5085
532	 21.2664
528	 20.5885
524	 19.821
520	 19.7251
516	 20.1665
512	 20.4375
508	 20.3388
504	 20.1643
500	 20.247
496	 20.361
492	 20.0773
488	 19.4652
484	 18.9984
480	 19.0521
476	 19.3526
472	 19.3899
468	 19.6436
464	 20.1454
460	 19.9104
456	 19.4917
452	 19.4993
448	 19.5302
444	 19.8387
440	 20.5854
436	 21.8473
432	 22.7179
428	 20.952
424	 17.232
420	 16.5512
416	 18.1194
412	 16.7583
408	 13.8634
404	 13.8766
400	 18.5496
396	 20.8211
392	 13.9928
388	 9.957170
384	 26.0267
380	 44.3628
376	 8.042335
372	 -59.1769
370	 -74.1541