File: Bakgrunnsmateriale/MATLAB/FTIR/ftir_data/LPE453/Mapping_121/LPE453_t63.asc
PE IR       SPECTRUM    SPECTRUM    ASCII       PEDS        1.60
  -1
LPCBA5~1.ASC
17/05/16
19:29:54.00
17/05/16
19:30:20.00
tln
$LPE453_t0063$<tbV0>[-5.2,0.0,8.0,0.0,27,1,0]
27.028
64

2002,4.07
MIRTGS : RIGHTBACK : INTERNAL 2
MIR : ON : INTERNAL 2
OPTKBR

0.200000
8
8.000000
FILLER
RATIO
SPECTRUM
UNLOCKED 256

DOUBLE
64
COMBINED
1
0
0

0.002000
RATIO

1
0
TRUE
51149
0
LEFT NOT FITTED RIGHT NOT FITTED 0
NONE
NONE
15600
12
4.427000
51148
TRUE
1 0 8 72 0 0 0 0

15798

#HDR
-1
-1
#GR
µM
%T
2.38419e-05
0.0
2.000000
0.002000
12515
8
49.1889
-1.451560
#DATA
2.000000	 -0.086164
2.018000	 0.216233
2.036000	 0.425707
2.054000	 -0.214667
2.072000	 0.278803
2.090000	 0.451443
2.108000	 0.725644
2.126000	 1.097955
2.144000	 0.571092
2.162000	 0.645924
2.180000	 -0.538199
2.198000	 -0.124025
2.216000	 -0.161370
2.234000	 11.6762
2.252000	 -1.300471
2.270000	 -0.766850
2.288000	 -0.398668
2.306000	 0.285274
2.324000	 -0.048068
2.342000	 0.170954
2.360000	 0.175150
2.378000	 0.091672
2.396000	 0.170340
2.414000	 0.096925
2.432000	 0.412342
2.450000	 0.127859
2.468000	 -0.012437
2.486000	 0.003298
2.504000	 0.083603
2.522000	 -0.095828
2.540000	 0.015477
2.558000	 -0.128968
2.576000	 -0.076897
2.594000	 -0.050958
2.612000	 -0.033409
2.630000	 0.000822
2.648000	 0.080185
2.666000	 0.199608
2.684000	 0.018553
2.702000	 0.158380
2.720000	 -0.096811
2.738000	 0.065809
2.756000	 -0.004657
2.774000	 -0.009076
2.792000	 -0.102294
2.810000	 0.128660
2.828000	 0.056616
2.846000	 -0.113333
2.864000	 0.016760
2.882000	 0.147408
2.900000	 0.092889
2.918000	 0.103082
2.936000	 -0.015884
2.954000	 -0.025563
2.972000	 0.032652
2.990000	 0.054765
3.008000	 0.219502
3.026000	 0.037962
3.044000	 -0.013761
3.062000	 -0.072869
3.080000	 0.078067
3.098000	 0.110035
3.116000	 0.079121
3.134000	 0.083861
3.152000	 -0.033556
3.170000	 -0.104376
3.188000	 -0.053980
3.206000	 -0.117527
3.224000	 0.057996
3.242000	 0.110895
3.260000	 0.058260
3.278000	 0.101081
3.296000	 0.027685
3.314000	 0.058233
3.332000	 -0.008270
3.350000	 -0.056391
3.368000	 -0.040917
3.386000	 0.027130
3.404000	 -0.017703
3.422000	 0.111945
3.440000	 0.150559
3.458000	 -0.074924
3.476000	 0.043771
3.494000	 -0.051933
3.512000	 0.102438
3.530000	 0.030570
3.548000	 0.152346
3.566000	 -0.044289
3.584000	 -0.009604
3.602000	 -0.056216
3.620000	 -0.019626
3.638000	 0.160125
3.656000	 0.028905
3.674000	 0.124402
3.692000	 -0.067095
3.710000	 -0.100264
3.728000	 -0.021086
3.746000	 0.075165
3.764000	 0.142720
3.782000	 0.104534
3.800000	 0.044230
3.818000	 -0.056915
3.836000	 0.048986
3.854000	 0.085427
3.872000	 0.002409
3.890000	 0.045261
3.908000	 0.028585
3.926000	 -0.001403
3.944000	 -0.000188
3.962000	 0.116275
3.980000	 0.114768
3.998000	 0.097901
4.016000	 0.035588
4.034000	 -0.051705
4.052000	 -0.170574
4.070000	 0.010074
4.088000	 0.017902
4.106000	 0.067705
4.124000	 0.050556
4.141999	 -0.034398
4.160000	 -0.059638
4.178000	 0.010188
4.196000	 0.081619
4.214000	 0.124147
4.232000	 -0.076130
4.250000	 0.037745
4.268000	 0.032409
4.286000	 0.101482
4.304000	 0.119115
4.322000	 0.116502
4.340000	 0.142252
4.358000	 0.340896
4.375999	 0.546142
4.394000	 0.606644
4.412000	 0.683394
4.430000	 0.911741
4.448000	 1.199941
4.466000	 1.510129
4.484000	 1.828203
4.502000	 2.148241
4.520000	 2.577091
4.538000	 3.107873
4.556000	 3.613297
4.574000	 4.237211
4.592000	 4.880779
4.609999	 5.649263
4.628000	 6.405681
4.646000	 7.162873
4.664000	 8.150528
4.682000	 9.125790
4.700000	 10.0883
4.718000	 11.0679
4.736000	 12.0154
4.754000	 13.0282
4.772000	 13.9723
4.790000	 14.8531
4.808000	 15.9833
4.826000	 16.8573
4.843999	 17.6555
4.862000	 18.499
4.880000	 19.4311
4.898000	 20.2387
4.916000	 21.0654
4.934000	 21.9516
4.952000	 22.6303
4.970000	 23.3075
4.988000	 23.9471
5.006000	 24.4607
5.024000	 25.0365
5.042000	 25.546
5.060000	 26.0877
5.077999	 26.7013
5.096000	 27.2089
5.114000	 27.605
5.132000	 27.8834
5.150000	 28.2444
5.168000	 28.6175
5.186000	 28.9373
5.204000	 29.2838
5.222000	 29.6562
5.240000	 29.9011
5.258000	 30.1477
5.276000	 30.2881
5.294000	 30.4034
5.312000	 30.681
5.330000	 31.0291
5.348000	 31.2738
5.366000	 31.4015
5.384000	 31.4843
5.402000	 31.6112
5.420000	 31.6393
5.438000	 31.8277
5.456000	 32.0105
5.474000	 32.1827
5.492000	 32.2732
5.510000	 32.3047
5.528000	 32.3504
5.546000	 32.4144
5.564000	 32.4128
5.582000	 32.4894
5.600000	 32.6005
5.618000	 32.824
5.636000	 32.9694
5.654000	 32.9684
5.672000	 32.9274
5.690000	 32.8582
5.708000	 32.7948
5.726000	 32.8398
5.744000	 32.8755
5.762000	 32.9944
5.780000	 33.1023
5.798000	 33.2051
5.816000	 33.3144
5.834000	 33.1961
5.852000	 33.1534
5.870000	 33.0965
5.888000	 33.0206
5.906000	 33.0574
5.923999	 33.1506
5.942000	 33.257
5.960000	 33.3789
5.978000	 33.4305
5.996000	 33.3814
6.014000	 33.2703
6.032000	 33.1628
6.050000	 33.0844
6.068000	 33.0734
6.086000	 33.1083
6.104000	 33.206
6.122000	 33.4098
6.140000	 33.5432
6.158000	 33.5455
6.176000	 33.5293
6.194000	 33.4576
6.212000	 33.2977
6.230000	 33.1717
6.248000	 33.1686
6.266000	 33.1476
6.284000	 33.0972
6.302000	 33.1788
6.320000	 33.272
6.338000	 33.2798
6.356000	 33.3238
6.374000	 33.3758
6.392000	 33.4118
6.410000	 33.3705
6.428000	 33.2033
6.446000	 33.0791
6.464000	 33.0887
6.482000	 33.1333
6.500000	 33.1323
6.518000	 33.1853
6.536000	 33.2879
6.554000	 33.3752
6.572000	 33.4177
6.590000	 33.3997
6.608000	 33.3031
6.626000	 33.1749
6.644000	 33.0798
6.662000	 33.0285
6.680000	 33.0581
6.698000	 33.093
6.716000	 33.0459
6.734000	 33.0421
6.752000	 33.124
6.770000	 33.2065
6.788000	 33.2866
6.806000	 33.3302
6.824000	 33.2427
6.842000	 33.091
6.860000	 32.9935
6.878000	 32.8942
6.896000	 32.6759
6.914000	 32.4773
6.932000	 32.5516
6.950000	 32.8208
6.968000	 33.0461
6.986000	 33.1496
7.004000	 33.1676
7.022000	 33.1992
7.040000	 33.2788
7.058000	 33.2862
7.076000	 33.1701
7.094000	 33.0488
7.112000	 32.9507
7.130000	 32.7896
7.148000	 32.6122
7.166000	 32.5298
7.184000	 32.5588
7.202000	 32.6451
7.220000	 32.6965
7.238000	 32.7107
7.256000	 32.7849
7.274000	 32.9321
7.292000	 33.0478
7.310000	 33.043
7.328000	 32.9394
7.346000	 32.8192
7.364000	 32.7077
7.382000	 32.5938
7.400000	 32.5023
7.418000	 32.454
7.436000	 32.4318
7.454000	 32.4273
7.472000	 32.4655
7.490000	 32.5576
7.508000	 32.6623
7.526000	 32.7226
7.544000	 32.7266
7.562000	 32.7128
7.580000	 32.7292
7.598000	 32.762
7.616000	 32.7267
7.634000	 32.5948
7.652000	 32.4513
7.670000	 32.3508
7.688000	 32.2593
7.706000	 32.1742
7.724000	 32.1345
7.742000	 32.1327
7.760000	 32.1434
7.778000	 32.186
7.796000	 32.2795
7.814000	 32.398
7.832000	 32.4989
7.850000	 32.563
7.868000	 32.6037
7.886000	 32.6399
7.904000	 32.6522
7.922000	 32.591
7.940000	 32.444
7.958000	 32.2598
7.976000	 32.102
7.994000	 32.0077
8.012000	 31.9733
8.030000	 31.9554
8.048000	 31.9216
8.065999	 31.8993
8.084000	 31.9405
8.102000	 32.051
8.120000	 32.186
8.138000	 32.3002
8.155999	 32.3745
8.173999	 32.4077
8.192000	 32.4078
8.210000	 32.3858
8.228000	 32.3515
8.246000	 32.3075
8.263999	 32.2503
8.282000	 32.1761
8.300000	 32.0833
8.318000	 31.9736
8.336000	 31.8574
8.353999	 31.7493
8.372000	 31.6633
8.390000	 31.6179
8.408000	 31.6265
8.426000	 31.6795
8.443999	 31.7554
8.462000	 31.8407
8.480000	 31.932
8.498000	 32.0303
8.516000	 32.1348
8.533999	 32.2391
8.552000	 32.3309
8.570000	 32.3913
8.588000	 32.4025
8.606000	 32.3599
8.624000	 32.2715
8.641999	 32.1466
8.660000	 31.9966
8.678000	 31.8418
8.696000	 31.7046
8.714000	 31.5947
8.731999	 31.5092
8.750000	 31.4451
8.768000	 31.4048
8.786000	 31.3944
8.804000	 31.4206
8.821999	 31.4872
8.840000	 31.586
8.858000	 31.6929
8.876000	 31.783
8.894000	 31.8491
8.911999	 31.9034
8.930000	 31.959
8.948000	 32.0141
8.966000	 32.0536
8.984000	 32.0691
9.001999	 32.0677
9.020000	 32.0541
9.038000	 32.0129
9.056000	 31.9159
9.074000	 31.7475
9.092000	 31.5225
9.109999	 31.2882
9.128000	 31.1074
9.146000	 31.0279
9.164000	 31.0557
9.182000	 31.1529
9.199999	 31.2621
9.218000	 31.3405
9.236000	 31.3735
9.254000	 31.3689
9.272000	 31.3482
9.289999	 31.3391
9.308000	 31.3613
9.326000	 31.4148
9.344000	 31.4865
9.362000	 31.5628
9.379999	 31.631
9.398000	 31.6748
9.416000	 31.6751
9.434000	 31.6242
9.452000	 31.5347
9.469999	 31.4303
9.488000	 31.3262
9.506000	 31.2255
9.524000	 31.1308
9.542000	 31.0491
9.560000	 30.9833
9.577999	 30.925
9.596000	 30.8625
9.614000	 30.7954
9.632000	 30.7392
9.650000	 30.7149
9.667999	 30.7327
9.686000	 30.7849
9.704000	 30.8529
9.722000	 30.9193
9.740000	 30.9743
9.757999	 31.0162
9.776000	 31.0474
9.794000	 31.0716
9.812000	 31.0913
9.830000	 31.1054
9.847999	 31.1106
9.866000	 31.1064
9.884000	 31.0997
9.902000	 31.1035
9.920000	 31.1276
9.937999	 31.167
9.956000	 31.199
9.974000	 31.1945
9.992000	 31.1339
10.01	31.0181
10.028	30.8669
10.046	30.7069
10.064	30.5586
10.082	30.4314
10.1	30.3245
10.118	30.2334
10.136	30.1563
10.154	30.0975
10.172	30.0658
10.19	30.07
10.208	30.1105
10.226	30.1782
10.244	30.2555
10.262	30.3266
10.28	30.3849
10.298	30.4347
10.316	30.4858
10.334	30.5435
10.352	30.6033
10.37	30.6527
10.388	30.6776
10.406	30.6723
10.424	30.6406
10.442	30.5938
10.46	30.5441
10.478	30.4985
10.496	30.4556
10.514	30.4065
10.532	30.3405
10.55	30.2523
10.568	30.1468
10.586	30.04
10.604	29.9514
10.622	29.8959
10.64	29.8748
10.658	29.8762
10.676	29.8827
10.694	29.8822
10.712	29.8722
10.73	29.8593
10.748	29.8507
10.766	29.8489
10.784	29.8505
10.802	29.8502
10.82	29.846
10.838	29.8419
10.856	29.8445
10.874	29.8596
10.892	29.8881
10.91	29.9259
10.928	29.9655
10.946	29.9968
10.964	30.0088
10.982	29.9926
11	29.9455
11.018	29.8731
11.036	29.7894
11.054	29.7135
11.072	29.6607
11.09	29.6377
11.108	29.6391
11.126	29.6505
11.144	29.6561
11.162	29.6435
11.18	29.6081
11.198	29.5519
11.216	29.481
11.234	29.4023
11.252	29.3227
11.27	29.2464
11.288	29.1741
11.306	29.1038
11.324	29.032
11.342	28.957
11.36	28.881
11.378	28.8119
11.396	28.7611
11.414	28.7397
11.432	28.7537
11.45	28.8005
11.468	28.8702
11.486	28.9501
11.504	29.029
11.522	29.1002
11.54	29.1632
11.558	29.22
11.576	29.2739
11.594	29.3272
11.612	29.3802
11.63	29.4303
11.648	29.4735
11.666	29.5045
11.684	29.5179
11.702	29.5097
11.72	29.4787
11.738	29.4272
11.756	29.361
11.774	29.2888
11.792	29.2187
11.81	29.1561
11.828	29.1018
11.846	29.0517
11.864	28.9981
11.882	28.9331
11.9	28.8505
11.918	28.7484
11.936	28.6296
11.954	28.5006
11.972	28.3702
11.99	28.2474
12.008	28.1391
12.026	28.0496
12.044	27.9806
12.062	27.9318
12.08	27.9022
12.098	27.8901
12.116	27.8943
12.134	27.9138
12.152	27.9462
12.17	27.9889
12.188	28.0378
12.206	28.0879
12.224	28.1339
12.242	28.1724
12.26	28.202
12.278	28.2246
12.296	28.2454
12.314	28.2717
12.332	28.3103
12.35	28.3654
12.368	28.4369
12.386	28.5206
12.404	28.608
12.422	28.6886
12.44	28.7538
12.458	28.7977
12.476	28.8182
12.494	28.8166
12.512	28.7954
12.53	28.7561
12.548	28.6973
12.566	28.6163
12.584	28.5096
12.602	28.3758
12.62	28.2174
12.638	28.0419
12.656	27.8607
12.674	27.6866
12.692	27.5318
12.71	27.4054
12.728	27.3126
12.746	27.2546
12.764	27.2292
12.782	27.2322
12.8	27.2579
12.818	27.2998
12.836	27.3508
12.854	27.4035
12.872	27.4499
12.89	27.4837
12.908	27.501
12.926	27.5015
12.944	27.488
12.962	27.4661
12.98	27.4421
12.998	27.4214
13.016	27.4071
13.034	27.4001
13.052	27.3992
13.07	27.403
13.088	27.411
13.106	27.4249
13.124	27.4485
13.142	27.487
13.16	27.5448
13.178	27.6239
13.196	27.7229
13.214	27.8361
13.232	27.9537
13.25	28.0644
13.268	28.1569
13.286	28.2214
13.304	28.2521
13.322	28.2474
13.34	28.2099
13.358	28.1456
13.376	28.0628
13.394	27.97
13.412	27.875
13.43	27.7829
13.448	27.6959
13.466	27.6134
13.484	27.5333
13.502	27.4521
13.52	27.3671
13.538	27.277
13.556	27.1828
13.574	27.0876
13.592	26.9956
13.61	26.9117
13.628	26.8397
13.646	26.7815
13.664	26.7367
13.682	26.7016
13.7	26.6713
13.718	26.6397
13.736	26.6021
13.754	26.5547
13.772	26.4969
13.79	26.4309
13.808	26.362
13.826	26.296
13.844	26.2396
13.862	26.1987
13.88	26.1774
13.898	26.1773
13.916	26.1974
13.934	26.2345
13.952	26.2841
13.97	26.341
13.988	26.4003
14.006	26.4581
14.024	26.5115
14.042	26.5594
14.06	26.6017
14.078	26.6389
14.096	26.6716
14.114	26.6999
14.132	26.7237
14.15	26.7418
14.168	26.7528
14.186	26.7549
14.204	26.747
14.222	26.7285
14.24	26.7001
14.258	26.6629
14.276	26.6197
14.294	26.5734
14.312	26.5269
14.33	26.4828
14.348	26.4425
14.366	26.4071
14.384	26.3756
14.402	26.3465
14.42	26.3173
14.438	26.2859
14.456	26.2503
14.474	26.2092
14.492	26.162
14.51	26.1093
14.528	26.0524
14.546	25.993
14.564	25.9328
14.582	25.8732
14.6	25.8149
14.618	25.7583
14.636	25.7032
14.654	25.6494
14.672	25.5966
14.69	25.5448
14.708	25.4941
14.726	25.4452
14.744	25.3996
14.762	25.3582
14.78	25.3226
14.798	25.2942
14.816	25.2743
14.834	25.2643
14.852	25.2649
14.87	25.2765
14.888	25.299
14.906	25.3317
14.924	25.3737
14.942	25.423
14.96	25.4771
14.978	25.5335
14.996	25.5892
15.014	25.6411
15.032	25.6862
15.05	25.722
15.068	25.7469
15.086	25.7602
15.104	25.7619
15.122	25.753
15.14	25.7355
15.158	25.7116
15.176	25.6837
15.194	25.6548
15.212	25.6273
15.23	25.6032
15.248	25.5837
15.266	25.5697
15.284	25.5616
15.302	25.5587
15.32	25.56
15.338	25.5643
15.356	25.5697
15.374	25.5741
15.392	25.5761
15.41	25.5743
15.428	25.5674
15.446	25.5547
15.464	25.5365
15.482	25.5131
15.5	25.4851
15.518	25.4538
15.536	25.4203
15.554	25.3854
15.572	25.3503
15.59	25.3153
15.608	25.2801
15.626	25.2445
15.644	25.2074
15.662	25.168
15.68	25.1254
15.698	25.0788
15.716	25.0278
15.734	24.9725
15.752	24.9132
15.77	24.8507
15.788	24.7861
15.806	24.7208
15.824	24.6556
15.842	24.5916
15.86	24.5295
15.878	24.4696
15.896	24.4126
15.914	24.3589
15.932	24.3089
15.95	24.2629
15.968	24.2213
15.986	24.1843
16.004	24.1523
16.022	24.1255
16.04	24.1034
16.058	24.0857
16.076	24.072
16.094	24.0609
16.112	24.0518
16.13	24.0442
16.148	24.0368
16.166	24.0295
16.184	24.0227
16.202	24.0163
16.22	24.0121
16.238	24.0113
16.256	24.0151
16.274	24.0261
16.292	24.0458
16.31	24.0753
16.328	24.1164
16.346	24.1688
16.364	24.2324
16.382	24.3059
16.4	24.3868
16.418	24.4734
16.436	24.5615
16.454	24.6476
16.472	24.7289
16.49	24.8005
16.508	24.8594
16.526	24.9032
16.544	24.9288
16.562	24.9354
16.58	24.9226
16.598	24.8907
16.616	24.8416
16.634	24.7766
16.652	24.7
16.67	24.6146
16.688	24.5236
16.706	24.4322
16.724	24.3428
16.742	24.2586
16.76	24.1831
16.778	24.1174
16.796	24.0631
16.814	24.0205
16.832	23.9895
16.85	23.969
16.868	23.9577
16.886	23.9543
16.904	23.956
16.922	23.9613
16.94	23.9682
16.958	23.9741
16.976	23.9779
16.994	23.9773
17.012	23.9713
17.03	23.9588
17.048	23.9385
17.066	23.9103
17.084	23.8737
17.102	23.8285
17.12	23.7749
17.138	23.7136
17.156	23.6457
17.174	23.5722
17.192	23.4956
17.21	23.4168
17.228	23.3385
17.246	23.2627
17.264	23.1906
17.282	23.1245
17.3	23.0649
17.318	23.0131
17.336	22.9689
17.354	22.9323
17.372	22.9021
17.39	22.8777
17.408	22.8574
17.426	22.8397
17.444	22.8233
17.462	22.8064
17.48	22.7884
17.498	22.7679
17.516	22.7451
17.534	22.7198
17.552	22.6928
17.57	22.6642
17.588	22.6359
17.606	22.6084
17.624	22.583
17.642	22.5609
17.66	22.543
17.678	22.5302
17.696	22.5227
17.714	22.5209
17.732	22.5242
17.75	22.5325
17.768	22.5443
17.786	22.5592
17.804	22.575
17.822	22.5912
17.84	22.6055
17.858	22.6168
17.876	22.6237
17.894	22.6247
17.912	22.6192
17.93	22.6063
17.948	22.5858
17.966	22.5582
17.984	22.5241
18.002	22.4849
18.02	22.4426
18.038	22.3988
18.056	22.3572
18.074	22.3187
18.092	22.2878
18.11	22.2651
18.128	22.2541
18.146	22.2549
18.164	22.2695
18.182	22.297
18.2	22.3376
18.218	22.3889
18.236	22.45
18.254	22.5163
18.272	22.5868
18.29	22.6555
18.308	22.7217
18.326	22.7793
18.344	22.8279
18.362	22.8628
18.38	22.8839
18.398	22.8888
18.416	22.8783
18.434	22.8521
18.452	22.8123
18.47	22.7597
18.488	22.698
18.506	22.6284
18.524	22.5554
18.542	22.48
18.56	22.4066
18.578	22.336
18.596	22.2712
18.614	22.2127
18.632	22.1621
18.65	22.1194
18.668	22.0845
18.686	22.0571
18.704	22.036
18.722	22.0207
18.74	22.009
18.758	22.0006
18.776	21.9932
18.794	21.9866
18.812	21.979
18.83	21.9702
18.848	21.9593
18.866	21.9464
18.884	21.9313
18.902	21.9143
18.92	21.8958
18.938	21.8763
18.956	21.8564
18.974	21.8365
18.992	21.8173
19.01	21.799
19.028	21.7818
19.046	21.7655
19.064	21.75
19.082	21.7348
19.1	21.7194
19.118	21.7034
19.136	21.6861
19.154	21.6673
19.172	21.6464
19.19	21.6236
19.208	21.5986
19.226	21.5719
19.244	21.5442
19.262	21.5159
19.28	21.4883
19.298	21.4616
19.316	21.4379
19.334	21.417
19.352	21.4006
19.37	21.3885
19.388	21.3812
19.406	21.3787
19.424	21.38
19.442	21.3852
19.46	21.392
19.478	21.4007
19.496	21.4085
19.514	21.4151
19.532	21.4183
19.55	21.417
19.568	21.4105
19.586	21.3971
19.604	21.3772
19.622	21.3501
19.64	21.3162
19.658	21.2766
19.676	21.2315
19.694	21.1835
19.712	21.1325
19.73	21.0821
19.748	21.0323
19.766	20.9864
19.784	20.9447
19.802	20.9093
19.82	20.8813
19.838	20.861
19.856	20.8495
19.874	20.8463
19.892	20.8515
19.91	20.8649
19.928	20.8852
19.946	20.9124
19.964	20.9446
19.982	20.9817
20	21.0219
20.018	21.0645
20.036	21.1088
20.054	21.1536
20.072	21.1991
20.09	21.2442
20.108	21.2892
20.126	21.3335
20.144	21.3773
20.162	21.4203
20.18	21.4624
20.198	21.5035
20.216	21.5432
20.234	21.5816
20.252	21.6174
20.27	21.6512
20.288	21.681
20.306	21.7071
20.324	21.728
20.342	21.7428
20.36	21.7513
20.378	21.7517
20.396	21.7444
20.414	21.7282
20.432	21.7029
20.45	21.669
20.468	21.6262
20.486	21.5755
20.504	21.5179
20.522	21.4535
20.54	21.3853
20.558	21.3128
20.576	21.239
20.594	21.1648
20.612	21.0913
20.63	21.0219
20.648	20.9559
20.666	20.8961
20.684	20.8427
20.702	20.7965
20.72	20.7587
20.738	20.7285
20.756	20.706
20.774	20.6914
20.792	20.6827
20.81	20.6803
20.828	20.6826
20.846	20.6874
20.864	20.6952
20.882	20.7028
20.9	20.7106
20.918	20.7166
20.936	20.7192
20.954	20.7187
20.972	20.7129
20.99	20.7022
21.008	20.6857
21.026	20.6629
21.044	20.634
21.062	20.5987
21.08	20.5571
21.098	20.5097
21.116	20.4565
21.134	20.3979
21.152	20.3348
21.17	20.267
21.188	20.1956
21.206	20.1207
21.224	20.0427
21.242	19.9626
21.26	19.88
21.278	19.7961
21.296	19.711
21.314	19.625
21.332	19.5392
21.35	19.4532
21.368	19.3683
21.386	19.2845
21.404	19.2022
21.422	19.123
21.44	19.0462
21.458	18.9732
21.476	18.9043
21.494	18.8396
21.512	18.7808
21.53	18.7275
21.548	18.6807
21.566	18.6411
21.584	18.6085
21.602	18.5841
21.62	18.568
21.638	18.5603
21.656	18.5615
21.674	18.5715
21.692	18.59
21.71	18.6173
21.728	18.653
21.746	18.6962
21.764	18.7476
21.782	18.8054
21.8	18.8687
21.818	18.938
21.836	19.0103
21.854	19.086
21.872	19.1637
21.89	19.2403
21.908	19.317
21.926	19.3906
21.944	19.4592
21.962	19.5237
21.98	19.5801
21.998	19.6286
22.016	19.6684
22.034	19.6964
22.052	19.7135
22.07	19.7188
22.088	19.7111
22.106	19.6909
22.124	19.6588
22.142	19.6142
22.16	19.5581
22.178	19.4933
22.196	19.4183
22.214	19.3361
22.232	19.2502
22.25	19.1587
22.268	19.0663
22.286	18.9757
22.304	18.8854
22.322	18.801
22.34	18.7229
22.358	18.6513
22.376	18.5907
22.394	18.5404
22.412	18.5012
22.43	18.4757
22.448	18.4632
22.466	18.4634
22.484	18.4767
22.502	18.5032
22.52	18.5403
22.538	18.5875
22.556	18.645
22.574	18.7087
22.592	18.7788
22.61	18.8547
22.628	18.9318
22.646	19.0115
22.664	19.0917
22.682	19.1683
22.7	19.2428
22.718	19.3131
22.736	19.3763
22.754	19.4336
22.772	19.4837
22.79	19.5253
22.808	19.559
22.826	19.5849
22.844	19.603
22.862	19.6131
22.88	19.6167
22.898	19.614
22.916	19.6049
22.934	19.5915
22.952	19.5741
22.97	19.5525
22.988	19.5291
23.006	19.5042
23.024	19.4775
23.042	19.4506
23.06	19.4234
23.078	19.396
23.096	19.3697
23.114	19.345
23.132	19.3212
23.15	19.2981
23.168	19.2765
23.186	19.2554
23.204	19.2328
23.222	19.2095
23.24	19.1846
23.258	19.1553
23.276	19.1217
23.294	19.0837
23.312	19.04
23.33	18.9907
23.348	18.9357
23.366	18.8737
23.384	18.805
23.402	18.7294
23.42	18.6458
23.438	18.5539
23.456	18.4541
23.474	18.3474
23.492	18.233
23.51	18.1116
23.528	17.9854
23.546	17.8541
23.564	17.7177
23.582	17.5806
23.6	17.4437
23.618	17.3056
23.636	17.1717
23.654	17.0441
23.672	16.9205
23.69	16.8065
23.708	16.7058
23.726	16.6152
23.744	16.5393
23.762	16.4824
23.78	16.4414
23.798	16.4193
23.816	16.42
23.834	16.4417
23.852	16.4853
23.87	16.5526
23.888	16.6433
23.906	16.7572
23.924	16.8944
23.942	17.0555
23.96	17.2399
23.978	17.4457
23.996	17.6731
24.014	17.9224
24.032	18.1903
24.05	18.4752
24.068	18.779
24.086	19.0976
24.104	19.4271
24.122	19.7712
24.14	20.1251
24.158	20.4825
24.176	20.8467
24.194	21.2151
24.212	21.5801
24.23	21.9408
24.248	22.2991
24.266	22.649
24.284	22.9874
24.302	23.3176
24.32	23.6348
24.338	23.9344
24.356	24.2192
24.374	24.4872
24.392	24.7345
24.41	24.9627
24.428	25.1713
24.446	25.3552
24.464	25.512
24.482	25.6439
24.5	25.7505
24.518	25.8319
24.536	25.8896
24.554	25.921
24.572	25.9224
24.59	25.8966
24.608	25.842
24.626	25.7524
24.644	25.6264
24.662	25.4678
24.68	25.2681
24.698	25.02
24.716	24.7297
24.734	24.3921
24.752	23.9977
24.77	23.5458
24.788	23.0394
24.806	22.4736
24.824	21.8441
24.842	21.1524
24.86	20.4017
24.878	19.5947
24.896	18.7255
24.914	17.7998
24.932	16.8315
24.95	15.8246
24.968	14.7685
24.986	13.6858
25.004	12.5993
25.022	11.4924
25.04	10.3763
25.058	9.281667
25.076	8.219423
25.094	7.170622
25.112	6.164157
25.13	5.229151
25.148	4.350041
25.166	3.532728
25.184	2.800989
25.202	2.166818
25.22	1.616526
25.238	1.158940
25.256	0.804100
25.274	0.552826
25.292	0.399626
25.31	0.340452
25.328	0.375676
25.346	0.510975
25.364	0.730937
25.382	1.018770
25.4	1.384926
25.418	1.825866
25.436	2.314441
25.454	2.831689
25.472	3.400338
25.49	3.998949
25.508	4.597091
25.526	5.191894
25.544	5.797422
25.562	6.386070
25.58	6.931763
25.598	7.448408
25.616	7.932757
25.634	8.366710
25.652	8.738368
25.67	9.058802
25.688	9.323731
25.706	9.526738
25.724	9.662467
25.742	9.735508
25.76	9.754805
25.778	9.727936
25.796	9.642000
25.814	9.508097
25.832	9.348113
25.85	9.173510
25.868	8.962493
25.886	8.740278
25.904	8.538112
25.922	8.357913
25.94	8.181978
25.958	8.044030
25.976	7.977976
25.994	7.969353
26.012	8.016160
26.03	8.147029
26.048	8.386750
26.066	8.717506
26.084	9.144054
26.102	9.682412
26.12	10.3449
26.138	11.1238
26.156	12.0152
26.174	13.0164
26.192	14.1321
26.21	15.3661
26.228	16.6985
26.246	18.1087
26.264	19.6068
26.282	21.198
26.3	22.8466
26.318	24.5177
26.336	26.2345
26.354	27.9938
26.372	29.754
26.39	31.4774
26.408	33.1965
26.426	34.8992
26.444	36.5451
26.462	38.1013
26.48	39.5984
26.498	41.0243
26.516	42.3507
26.534	43.5564
26.552	44.6627
26.57	45.6619
26.588	46.5396
26.606	47.2848
26.624	47.9057
26.642	48.4049
26.66	48.7834
26.678	49.0393
26.696	49.168
26.714	49.1815
26.732	49.0933
26.75	48.907
26.768	48.6082
26.786	48.2166
26.804	47.7542
26.822	47.2288
26.84	46.6208
26.858	45.9506
26.876	45.2417
26.894	44.5035
26.912	43.7159
26.93	42.8965
26.948	42.066
26.966	41.1977
26.984	40.2203
27.002	39.2829
27.02	38.5492
27.028	38.3532