File: Bakgrunnsmateriale/MATLAB/FTIR/ftir_data/LPE453/Mapping_121/LPE453_t48.asc
PE IR       SPECTRUM    SPECTRUM    ASCII       PEDS        1.60
  -1
LPE3A9~1.ASC
17/05/16
18:20:06.00
17/05/16
18:20:33.00
tln
$LPE453_t0048$<tbV0>[5.2,-2.6,8.0,0.0,27,1,0]
27.028
64

2002,4.07
MIRTGS : RIGHTBACK : INTERNAL 2
MIR : ON : INTERNAL 2
OPTKBR

0.200000
8
8.000000
FILLER
RATIO
SPECTRUM
UNLOCKED 256

DOUBLE
64
COMBINED
1
0
0

0.002000
RATIO

1
0
TRUE
51149
0
LEFT NOT FITTED RIGHT NOT FITTED 0
NONE
NONE
15600
12
4.427000
51148
TRUE
1 0 8 72 0 0 0 0

15798

#HDR
-1
-1
#GR
µM
%T
2.38419e-05
0.0
2.000000
0.002000
12515
8
24.9339
-18.4242
#DATA
2.000000	 0.189781
2.018000	 -0.261856
2.036000	 -0.043728
2.054000	 0.294315
2.072000	 0.140559
2.090000	 0.048136
2.108000	 -0.010465
2.126000	 0.505357
2.144000	 0.359614
2.162000	 -0.114905
2.180000	 -0.535219
2.198000	 -0.658705
2.216000	 17.8524
2.234000	 0.152771
2.252000	 -0.310000
2.270000	 -0.055350
2.288000	 -0.015657
2.306000	 0.184934
2.324000	 -0.052130
2.342000	 0.043015
2.360000	 0.349305
2.378000	 0.082377
2.396000	 -0.236448
2.414000	 0.165022
2.432000	 0.043858
2.450000	 0.177780
2.468000	 0.121495
2.486000	 0.058192
2.504000	 0.068358
2.522000	 0.169345
2.540000	 0.214958
2.558000	 0.107387
2.576000	 0.209148
2.594000	 -0.018918
2.612000	 0.004145
2.630000	 0.057512
2.648000	 0.097919
2.666000	 0.063954
2.684000	 0.019996
2.702000	 -0.013727
2.720000	 0.085863
2.738000	 0.057970
2.756000	 0.131517
2.774000	 0.023946
2.792000	 0.135118
2.810000	 0.031409
2.828000	 -0.009074
2.846000	 0.124819
2.864000	 0.016667
2.882000	 0.071317
2.900000	 0.133195
2.918000	 0.045854
2.936000	 0.012183
2.954000	 0.047928
2.972000	 -0.077753
2.990000	 0.033739
3.008000	 0.020051
3.026000	 0.022119
3.044000	 0.044957
3.062000	 0.092121
3.080000	 0.050572
3.098000	 0.096695
3.116000	 -0.002398
3.134000	 0.052810
3.152000	 0.159973
3.170000	 0.062668
3.188000	 0.173085
3.206000	 0.119286
3.224000	 -0.001139
3.242000	 0.047352
3.260000	 -0.009726
3.278000	 -0.103572
3.296000	 0.053222
3.314000	 -0.001749
3.332000	 0.037300
3.350000	 -0.008175
3.368000	 0.029889
3.386000	 0.074926
3.404000	 -0.054182
3.422000	 -0.029560
3.440000	 0.024461
3.458000	 0.012372
3.476000	 0.106329
3.494000	 0.159949
3.512000	 -0.040636
3.530000	 0.095345
3.548000	 -0.042593
3.566000	 0.001485
3.584000	 -0.002434
3.602000	 0.064270
3.620000	 -0.034968
3.638000	 0.048495
3.656000	 0.095713
3.674000	 0.054567
3.692000	 0.041391
3.710000	 -0.036664
3.728000	 0.072715
3.746000	 -0.000622
3.764000	 -0.029769
3.782000	 -0.054952
3.800000	 0.120781
3.818000	 -0.026782
3.836000	 0.101986
3.854000	 0.017157
3.872000	 -0.069901
3.890000	 0.117915
3.908000	 0.063335
3.926000	 0.041828
3.944000	 -0.054064
3.962000	 -0.006222
3.980000	 0.007851
3.998000	 0.104409
4.016000	 0.065550
4.034000	 0.023956
4.052000	 0.062288
4.070000	 0.027553
4.088000	 -0.057947
4.106000	 0.087284
4.124000	 0.129425
4.141999	 -0.011436
4.160000	 -0.037258
4.178000	 0.033948
4.196000	 -0.045445
4.214000	 -0.026342
4.232000	 0.059161
4.250000	 0.046787
4.268000	 0.052196
4.286000	 0.093883
4.304000	 0.061750
4.322000	 0.050788
4.340000	 -0.022614
4.358000	 0.089851
4.375999	 -0.007080
4.394000	 0.062129
4.412000	 0.100759
4.430000	 0.344958
4.448000	 0.187381
4.466000	 0.230025
4.484000	 0.358407
4.502000	 0.475042
4.520000	 0.623943
4.538000	 0.840453
4.556000	 0.967858
4.574000	 1.212981
4.592000	 1.542086
4.609999	 1.911685
4.628000	 2.287339
4.646000	 2.523587
4.664000	 2.970556
4.682000	 3.592853
4.700000	 4.084363
4.718000	 4.710983
4.736000	 5.331554
4.754000	 5.871486
4.772000	 6.548729
4.790000	 7.087714
4.808000	 7.785950
4.826000	 8.469800
4.843999	 9.430454
4.862000	 10.1464
4.880000	 10.7224
4.898000	 11.3393
4.916000	 12.0286
4.934000	 12.661
4.952000	 13.2481
4.970000	 13.9004
4.988000	 14.4006
5.006000	 14.988
5.024000	 15.4677
5.042000	 15.9273
5.060000	 16.3861
5.077999	 17.0059
5.096000	 17.4192
5.114000	 17.8068
5.132000	 18.174
5.150000	 18.6079
5.168000	 19.0233
5.186000	 19.2718
5.204000	 19.5163
5.222000	 19.8149
5.240000	 20.1737
5.258000	 20.4014
5.276000	 20.7004
5.294000	 20.8966
5.312000	 21.1426
5.330000	 21.3616
5.348000	 21.5276
5.366000	 21.6473
5.384000	 21.788
5.402000	 22.0195
5.420000	 22.1752
5.438000	 22.2917
5.456000	 22.483
5.474000	 22.5784
5.492000	 22.6732
5.510000	 22.8713
5.528000	 22.9518
5.546000	 22.9656
5.564000	 23.0366
5.582000	 23.1433
5.600000	 23.2287
5.618000	 23.2996
5.636000	 23.3846
5.654000	 23.4485
5.672000	 23.3945
5.690000	 23.439
5.708000	 23.4913
5.726000	 23.542
5.744000	 23.5746
5.762000	 23.5322
5.780000	 23.6579
5.798000	 23.6766
5.816000	 23.7091
5.834000	 23.7141
5.852000	 23.8189
5.870000	 23.8837
5.888000	 23.8672
5.906000	 23.9003
5.923999	 23.8898
5.942000	 23.8288
5.960000	 23.8754
5.978000	 23.9172
5.996000	 23.8768
6.014000	 23.8878
6.032000	 23.849
6.050000	 23.9088
6.068000	 23.9556
6.086000	 23.9195
6.104000	 23.9573
6.122000	 23.9597
6.140000	 23.9569
6.158000	 23.9387
6.176000	 23.9051
6.194000	 23.9068
6.212000	 23.9224
6.230000	 23.8768
6.248000	 23.8254
6.266000	 23.8918
6.284000	 23.9405
6.302000	 23.9729
6.320000	 24.0069
6.338000	 24.0393
6.356000	 24.0631
6.374000	 23.9564
6.392000	 23.8385
6.410000	 23.8486
6.428000	 23.9064
6.446000	 23.9213
6.464000	 23.8786
6.482000	 23.8259
6.500000	 23.7657
6.518000	 23.749
6.536000	 23.7795
6.554000	 23.7726
6.572000	 23.732
6.590000	 23.7058
6.608000	 23.7178
6.626000	 23.7446
6.644000	 23.7326
6.662000	 23.6902
6.680000	 23.655
6.698000	 23.6473
6.716000	 23.6371
6.734000	 23.6171
6.752000	 23.6027
6.770000	 23.577
6.788000	 23.5863
6.806000	 23.666
6.824000	 23.7065
6.842000	 23.6315
6.860000	 23.5719
6.878000	 23.5855
6.896000	 23.5169
6.914000	 23.4364
6.932000	 23.4911
6.950000	 23.5181
6.968000	 23.436
6.986000	 23.3932
7.004000	 23.4418
7.022000	 23.5169
7.040000	 23.542
7.058000	 23.4786
7.076000	 23.3974
7.094000	 23.3889
7.112000	 23.4356
7.130000	 23.4604
7.148000	 23.4187
7.166000	 23.3465
7.184000	 23.311
7.202000	 23.3063
7.220000	 23.3057
7.238000	 23.3219
7.256000	 23.3235
7.274000	 23.2828
7.292000	 23.2507
7.310000	 23.2463
7.328000	 23.2173
7.346000	 23.1639
7.364000	 23.1539
7.382000	 23.2011
7.400000	 23.2353
7.418000	 23.2026
7.436000	 23.1304
7.454000	 23.0744
7.472000	 23.0404
7.490000	 22.9975
7.508000	 22.9563
7.526000	 22.9701
7.544000	 23.0327
7.562000	 23.0578
7.580000	 23.0104
7.598000	 22.9717
7.616000	 23.0042
7.634000	 23.0559
7.652000	 23.0688
7.670000	 23.0642
7.688000	 23.0633
7.706000	 23.0388
7.724000	 22.9851
7.742000	 22.9444
7.760000	 22.9448
7.778000	 22.9693
7.796000	 22.9831
7.814000	 22.9666
7.832000	 22.9329
7.850000	 22.914
7.868000	 22.9198
7.886000	 22.9251
7.904000	 22.9105
7.922000	 22.8894
7.940000	 22.8821
7.958000	 22.8815
7.976000	 22.8661
7.994000	 22.828
8.012000	 22.7709
8.030000	 22.6951
8.048000	 22.6055
8.065999	 22.5371
8.084000	 22.5321
8.102000	 22.5744
8.120000	 22.5968
8.138000	 22.5731
8.155999	 22.5418
8.173999	 22.5279
8.192000	 22.5088
8.210000	 22.4779
8.228000	 22.4641
8.246000	 22.4821
8.263999	 22.5156
8.282000	 22.5448
8.300000	 22.5617
8.318000	 22.5598
8.336000	 22.5349
8.353999	 22.4898
8.372000	 22.435
8.390000	 22.3886
8.408000	 22.3648
8.426000	 22.3558
8.443999	 22.3459
8.462000	 22.3342
8.480000	 22.3299
8.498000	 22.3263
8.516000	 22.3046
8.533999	 22.2632
8.552000	 22.2218
8.570000	 22.1926
8.588000	 22.1638
8.606000	 22.1189
8.624000	 22.0628
8.641999	 22.0204
8.660000	 22.0143
8.678000	 22.0467
8.696000	 22.1026
8.714000	 22.1635
8.731999	 22.2149
8.750000	 22.2417
8.768000	 22.2287
8.786000	 22.1706
8.804000	 22.0849
8.821999	 22.0041
8.840000	 21.9515
8.858000	 21.9273
8.876000	 21.9162
8.894000	 21.9009
8.911999	 21.8721
8.930000	 21.8366
8.948000	 21.8178
8.966000	 21.8417
8.984000	 21.9102
9.001999	 21.9919
9.020000	 22.046
9.038000	 22.0532
9.056000	 22.0261
9.074000	 21.992
9.092000	 21.9719
9.109999	 21.9737
9.128000	 21.9912
9.146000	 22.0037
9.164000	 21.9844
9.182000	 21.921
9.199999	 21.8297
9.218000	 21.7412
9.236000	 21.6743
9.254000	 21.623
9.272000	 21.5712
9.289999	 21.5162
9.308000	 21.4702
9.326000	 21.4447
9.344000	 21.439
9.362000	 21.4455
9.379999	 21.459
9.398000	 21.4781
9.416000	 21.4957
9.434000	 21.492
9.452000	 21.4424
9.469999	 21.3405
9.488000	 21.2152
9.506000	 21.12
9.524000	 21.0961
9.542000	 21.1402
9.560000	 21.2071
9.577999	 21.2472
9.596000	 21.2441
9.614000	 21.2154
9.632000	 21.1847
9.650000	 21.161
9.667999	 21.1422
9.686000	 21.1313
9.704000	 21.1392
9.722000	 21.1714
9.740000	 21.2134
9.757999	 21.2348
9.776000	 21.2116
9.794000	 21.1474
9.812000	 21.0742
9.830000	 21.0299
9.847999	 21.031
9.866000	 21.0645
9.884000	 21.0999
9.902000	 21.1108
9.920000	 21.0907
9.937999	 21.052
9.956000	 21.0146
9.974000	 20.9919
9.992000	 20.9847
10.01	20.9826
10.028	20.9718
10.046	20.9425
10.064	20.8958
10.082	20.8415
10.1	20.7925
10.118	20.7577
10.136	20.737
10.154	20.7226
10.172	20.7049
10.19	20.676
10.208	20.634
10.226	20.5829
10.244	20.5301
10.262	20.4839
10.28	20.4487
10.298	20.4226
10.316	20.3972
10.334	20.3633
10.352	20.3177
10.37	20.2662
10.388	20.223
10.406	20.2018
10.424	20.2095
10.442	20.2409
10.46	20.2824
10.478	20.3178
10.496	20.3359
10.514	20.3328
10.532	20.3128
10.55	20.2836
10.568	20.2536
10.586	20.227
10.604	20.2021
10.622	20.1739
10.64	20.1372
10.658	20.0913
10.676	20.0399
10.694	19.9882
10.712	19.9394
10.73	19.8923
10.748	19.8437
10.766	19.795
10.784	19.7542
10.802	19.7341
10.82	19.7443
10.838	19.7838
10.856	19.84
10.874	19.893
10.892	19.9253
10.91	19.9277
10.928	19.9031
10.946	19.8621
10.964	19.8168
10.982	19.7757
11	19.7401
11.018	19.7059
11.036	19.6672
11.054	19.6194
11.072	19.5622
11.09	19.4996
11.108	19.438
11.126	19.3853
11.144	19.3476
11.162	19.329
11.18	19.3296
11.198	19.3456
11.216	19.3703
11.234	19.3954
11.252	19.4122
11.27	19.4139
11.288	19.3969
11.306	19.3618
11.324	19.3139
11.342	19.2622
11.36	19.2165
11.378	19.1846
11.396	19.1684
11.414	19.1639
11.432	19.162
11.45	19.1532
11.468	19.1314
11.486	19.0966
11.504	19.0551
11.522	19.0164
11.54	18.988
11.558	18.973
11.576	18.969
11.594	18.9706
11.612	18.9711
11.63	18.9661
11.648	18.9545
11.666	18.9371
11.684	18.9167
11.702	18.8957
11.72	18.8749
11.738	18.8536
11.756	18.8301
11.774	18.8031
11.792	18.7724
11.81	18.7398
11.828	18.7088
11.846	18.6837
11.864	18.668
11.882	18.6625
11.9	18.6644
11.918	18.6678
11.936	18.6659
11.954	18.6535
11.972	18.6283
11.99	18.5919
12.008	18.5476
12.026	18.4986
12.044	18.4466
12.062	18.3914
12.08	18.3314
12.098	18.2662
12.116	18.1973
12.134	18.1285
12.152	18.0652
12.17	18.0119
12.188	17.9718
12.206	17.945
12.224	17.9302
12.242	17.9251
12.26	17.9278
12.278	17.9364
12.296	17.9486
12.314	17.9607
12.332	17.9682
12.35	17.9668
12.368	17.9542
12.386	17.9311
12.404	17.9018
12.422	17.8729
12.44	17.8515
12.458	17.8426
12.476	17.8482
12.494	17.8668
12.512	17.8937
12.53	17.9225
12.548	17.9471
12.566	17.9634
12.584	17.9692
12.602	17.9644
12.62	17.9498
12.638	17.9261
12.656	17.8928
12.674	17.8489
12.692	17.7929
12.71	17.724
12.728	17.6428
12.746	17.552
12.764	17.456
12.782	17.3609
12.8	17.2724
12.818	17.1959
12.836	17.1357
12.854	17.0948
12.872	17.0745
12.89	17.0747
12.908	17.0947
12.926	17.1322
12.944	17.1829
12.962	17.241
12.98	17.2986
12.998	17.3471
13.016	17.3786
13.034	17.3879
13.052	17.3734
13.07	17.3372
13.088	17.2852
13.106	17.2255
13.124	17.1668
13.142	17.1159
13.16	17.0776
13.178	17.0533
13.196	17.0419
13.214	17.0399
13.232	17.0421
13.25	17.0432
13.268	17.0383
13.286	17.0237
13.304	16.997
13.322	16.9581
13.34	16.9086
13.358	16.853
13.376	16.7971
13.394	16.7476
13.412	16.7107
13.43	16.6898
13.448	16.6854
13.466	16.6937
13.484	16.7076
13.502	16.7183
13.52	16.7171
13.538	16.6973
13.556	16.6558
13.574	16.5939
13.592	16.5171
13.61	16.4332
13.628	16.3515
13.646	16.2805
13.664	16.2267
13.682	16.1937
13.7	16.182
13.718	16.1889
13.736	16.21
13.754	16.24
13.772	16.2735
13.79	16.3058
13.808	16.3336
13.826	16.3542
13.844	16.3666
13.862	16.3704
13.88	16.3665
13.898	16.3563
13.916	16.3417
13.934	16.3245
13.952	16.3067
13.97	16.2903
13.988	16.2766
14.006	16.2661
14.024	16.2587
14.042	16.253
14.06	16.2473
14.078	16.2391
14.096	16.2262
14.114	16.2061
14.132	16.1777
14.15	16.1407
14.168	16.0962
14.186	16.0469
14.204	15.9965
14.222	15.9493
14.24	15.9097
14.258	15.8807
14.276	15.8642
14.294	15.86
14.312	15.8665
14.33	15.8802
14.348	15.8966
14.366	15.9105
14.384	15.917
14.402	15.9127
14.42	15.8959
14.438	15.8668
14.456	15.8272
14.474	15.7805
14.492	15.7312
14.51	15.6844
14.528	15.6443
14.546	15.6137
14.564	15.5938
14.582	15.5841
14.6	15.5829
14.618	15.5872
14.636	15.5937
14.654	15.5995
14.672	15.6026
14.69	15.6022
14.708	15.5985
14.726	15.5923
14.744	15.5852
14.762	15.5784
14.78	15.5723
14.798	15.5663
14.816	15.5591
14.834	15.5481
14.852	15.5304
14.87	15.5037
14.888	15.4664
14.906	15.4181
14.924	15.3595
14.942	15.2934
14.96	15.2235
14.978	15.1537
14.996	15.0876
15.014	15.0283
15.032	14.9778
15.05	14.9366
15.068	14.9046
15.086	14.8811
15.104	14.8649
15.122	14.8547
15.14	14.8499
15.158	14.8504
15.176	14.8562
15.194	14.868
15.212	14.8859
15.23	14.9097
15.248	14.9383
15.266	14.9703
15.284	15.0025
15.302	15.0317
15.32	15.055
15.338	15.0697
15.356	15.0737
15.374	15.0664
15.392	15.0489
15.41	15.0232
15.428	14.992
15.446	14.96
15.464	14.9308
15.482	14.9077
15.5	14.8935
15.518	14.89
15.536	14.8963
15.554	14.911
15.572	14.9319
15.59	14.9542
15.608	14.9733
15.626	14.985
15.644	14.9844
15.662	14.9677
15.68	14.9334
15.698	14.8808
15.716	14.8111
15.734	14.728
15.752	14.6354
15.77	14.5379
15.788	14.4421
15.806	14.353
15.824	14.2742
15.842	14.2095
15.86	14.1602
15.878	14.1257
15.896	14.1051
15.914	14.0954
15.932	14.093
15.95	14.0948
15.968	14.0973
15.986	14.0974
16.004	14.0942
16.022	14.0871
16.04	14.0763
16.058	14.0636
16.076	14.0505
16.094	14.0394
16.112	14.0327
16.13	14.0318
16.148	14.0378
16.166	14.0513
16.184	14.0722
16.202	14.1004
16.22	14.1345
16.238	14.1739
16.256	14.2177
16.274	14.2641
16.292	14.3118
16.31	14.3595
16.328	14.4047
16.346	14.4456
16.364	14.4807
16.382	14.5068
16.4	14.5219
16.418	14.5245
16.436	14.5122
16.454	14.4847
16.472	14.4415
16.49	14.3833
16.508	14.312
16.526	14.2293
16.544	14.1389
16.562	14.0446
16.58	13.9491
16.598	13.8575
16.616	13.7721
16.634	13.6953
16.652	13.6295
16.67	13.575
16.688	13.5323
16.706	13.5002
16.724	13.4775
16.742	13.4623
16.76	13.4518
16.778	13.4443
16.796	13.4373
16.814	13.4286
16.832	13.417
16.85	13.4012
16.868	13.3803
16.886	13.3539
16.904	13.3222
16.922	13.2858
16.94	13.2453
16.958	13.2028
16.976	13.1594
16.994	13.117
17.012	13.0775
17.03	13.042
17.048	13.0128
17.066	12.9903
17.084	12.9758
17.102	12.9693
17.12	12.9708
17.138	12.9797
17.156	12.9952
17.174	13.0167
17.192	13.0423
17.21	13.0713
17.228	13.1018
17.246	13.1327
17.264	13.163
17.282	13.1913
17.3	13.2172
17.318	13.2397
17.336	13.2586
17.354	13.2736
17.372	13.2846
17.39	13.2916
17.408	13.2948
17.426	13.2943
17.444	13.2904
17.462	13.2834
17.48	13.2732
17.498	13.2602
17.516	13.244
17.534	13.2245
17.552	13.2015
17.57	13.1751
17.588	13.1448
17.606	13.1105
17.624	13.0721
17.642	13.0297
17.66	12.9833
17.678	12.9334
17.696	12.8805
17.714	12.8254
17.732	12.7692
17.75	12.7125
17.768	12.6573
17.786	12.604
17.804	12.5548
17.822	12.5099
17.84	12.4711
17.858	12.4388
17.876	12.4135
17.894	12.3953
17.912	12.3843
17.93	12.3799
17.948	12.3816
17.966	12.3881
17.984	12.3988
18.002	12.412
18.02	12.4268
18.038	12.4421
18.056	12.4565
18.074	12.4696
18.092	12.4804
18.11	12.4889
18.128	12.4946
18.146	12.4978
18.164	12.4987
18.182	12.4975
18.2	12.4946
18.218	12.4904
18.236	12.4852
18.254	12.4793
18.272	12.4728
18.29	12.4656
18.308	12.4577
18.326	12.4486
18.344	12.4381
18.362	12.4256
18.38	12.411
18.398	12.3936
18.416	12.3734
18.434	12.3502
18.452	12.3241
18.47	12.295
18.488	12.2638
18.506	12.2307
18.524	12.197
18.542	12.1628
18.56	12.1297
18.578	12.0978
18.596	12.0684
18.614	12.0418
18.632	12.019
18.65	12
18.668	11.9853
18.686	11.975
18.704	11.9689
18.722	11.9669
18.74	11.9684
18.758	11.9733
18.776	11.9806
18.794	11.9901
18.812	12.0008
18.83	12.0124
18.848	12.0243
18.866	12.036
18.884	12.0471
18.902	12.0572
18.92	12.066
18.938	12.0733
18.956	12.0787
18.974	12.0822
18.992	12.0835
19.01	12.0825
19.028	12.079
19.046	12.073
19.064	12.0644
19.082	12.0532
19.1	12.0394
19.118	12.0231
19.136	12.0045
19.154	11.9838
19.172	11.9617
19.19	11.9383
19.208	11.9146
19.226	11.8906
19.244	11.8677
19.262	11.8457
19.28	11.8256
19.298	11.8071
19.316	11.7907
19.334	11.7762
19.352	11.7629
19.37	11.7507
19.388	11.738
19.406	11.7249
19.424	11.7091
19.442	11.6907
19.46	11.6672
19.478	11.6384
19.496	11.6029
19.514	11.5602
19.532	11.5101
19.55	11.4519
19.568	11.3869
19.586	11.3154
19.604	11.2384
19.622	11.158
19.64	11.0747
19.658	10.9923
19.676	10.9106
19.694	10.834
19.712	10.7622
19.73	10.6989
19.748	10.6441
19.766	10.5996
19.784	10.5661
19.802	10.5432
19.82	10.5314
19.838	10.5295
19.856	10.5364
19.874	10.5512
19.892	10.5708
19.91	10.5955
19.928	10.6205
19.946	10.6465
19.964	10.6694
19.982	10.6889
20	10.703
20.018	10.7102
20.036	10.7106
20.054	10.7027
20.072	10.6869
20.09	10.6636
20.108	10.6326
20.126	10.5957
20.144	10.5524
20.162	10.505
20.18	10.4539
20.198	10.4004
20.216	10.3462
20.234	10.2912
20.252	10.238
20.27	10.1862
20.288	10.1374
20.306	10.0917
20.324	10.0497
20.342	10.0121
20.36	9.978725
20.378	9.950244
20.396	9.926505
20.414	9.907965
20.432	9.894564
20.45	9.886521
20.468	9.883898
20.486	9.886759
20.504	9.895365
20.522	9.909618
20.54	9.929584
20.558	9.955303
20.576	9.986463
20.594	10.0231
20.612	10.0649
20.63	10.111
20.648	10.1617
20.666	10.2153
20.684	10.2723
20.702	10.3307
20.72	10.3896
20.738	10.4487
20.756	10.5056
20.774	10.5608
20.792	10.6121
20.81	10.659
20.828	10.701
20.846	10.7367
20.864	10.7666
20.882	10.79
20.9	10.8066
20.918	10.8171
20.936	10.8218
20.954	10.8208
20.972	10.8162
20.99	10.8072
21.008	10.7962
21.026	10.7839
21.044	10.7706
21.062	10.7587
21.08	10.7477
21.098	10.7393
21.116	10.7339
21.134	10.7316
21.152	10.7331
21.17	10.7382
21.188	10.7462
21.206	10.7576
21.224	10.7713
21.242	10.7858
21.26	10.8018
21.278	10.8164
21.296	10.8298
21.314	10.8407
21.332	10.8468
21.35	10.8488
21.368	10.8446
21.386	10.8335
21.404	10.8157
21.422	10.7899
21.44	10.7563
21.458	10.7151
21.476	10.666
21.494	10.6095
21.512	10.5468
21.53	10.4775
21.548	10.4034
21.566	10.3258
21.584	10.2444
21.602	10.1628
21.62	10.0802
21.638	9.998460
21.656	9.919914
21.674	9.843597
21.692	9.772226
21.71	9.706393
21.728	9.646161
21.746	9.593598
21.764	9.548251
21.782	9.510761
21.8	9.481877
21.818	9.461229
21.836	9.449009
21.854	9.445536
21.872	9.450188
21.89	9.462215
21.908	9.482130
21.926	9.508203
21.944	9.539582
21.962	9.576566
21.98	9.616481
21.998	9.659544
22.016	9.704867
22.034	9.750010
22.052	9.795915
22.07	9.840663
22.088	9.882758
22.106	9.922949
22.124	9.958915
22.142	9.990206
22.16	10.0169
22.178	10.0376
22.196	10.0524
22.214	10.0612
22.232	10.0637
22.25	10.0599
22.268	10.0501
22.286	10.0344
22.304	10.0129
22.322	9.986073
22.34	9.953985
22.358	9.916920
22.376	9.876028
22.394	9.830929
22.412	9.782358
22.43	9.731426
22.448	9.677591
22.466	9.621917
22.484	9.565279
22.502	9.507208
22.52	9.448672
22.538	9.390049
22.556	9.331129
22.574	9.272771
22.592	9.215165
22.61	9.158159
22.628	9.102005
22.646	9.046827
22.664	8.992379
22.682	8.938425
22.7	8.885290
22.718	8.832271
22.736	8.778668
22.754	8.725085
22.772	8.670153
22.79	8.612780
22.808	8.553707
22.826	8.491410
22.844	8.424931
22.862	8.354916
22.88	8.280139
22.898	8.199818
22.916	8.114466
22.934	8.024161
22.952	7.928737
22.97	7.828361
22.988	7.723795
23.006	7.614464
23.024	7.501001
23.042	7.386249
23.06	7.269587
23.078	7.151816
23.096	7.037239
23.114	6.924791
23.132	6.815768
23.15	6.715858
23.168	6.624357
23.186	6.541929
23.204	6.473237
23.222	6.417342
23.24	6.375119
23.258	6.350902
23.276	6.344240
23.294	6.355274
23.312	6.386746
23.33	6.438676
23.348	6.510657
23.366	6.603592
23.384	6.718218
23.402	6.853387
23.42	7.007323
23.438	7.180859
23.456	7.372978
23.474	7.579861
23.492	7.802181
23.51	8.039347
23.528	8.285425
23.546	8.539713
23.564	8.803119
23.582	9.069513
23.6	9.336985
23.618	9.607479
23.636	9.875851
23.654	10.1397
23.672	10.4013
23.69	10.6564
23.708	10.9021
23.726	11.1408
23.744	11.3692
23.762	11.5842
23.78	11.7875
23.798	11.978
23.816	12.1538
23.834	12.3155
23.852	12.4633
23.87	12.5972
23.888	12.7171
23.906	12.8232
23.924	12.916
23.942	12.9955
23.96	13.0618
23.978	13.1151
23.996	13.1558
24.014	13.1836
24.032	13.199
24.05	13.2022
24.068	13.1932
24.086	13.1719
24.104	13.138
24.122	13.0913
24.14	13.0327
24.158	12.9634
24.176	12.8829
24.194	12.7916
24.212	12.6912
24.23	12.5818
24.248	12.4631
24.266	12.3366
24.284	12.2033
24.302	12.0624
24.32	11.9145
24.338	11.7602
24.356	11.5983
24.374	11.4305
24.392	11.2591
24.41	11.084
24.428	10.9048
24.446	10.7225
24.464	10.5378
24.482	10.3503
24.5	10.1598
24.518	9.966333
24.536	9.770777
24.554	9.571556
24.572	9.366798
24.59	9.157929
24.608	8.944001
24.626	8.721434
24.644	8.488834
24.662	8.248172
24.68	7.996535
24.698	7.731172
24.716	7.453541
24.734	7.163120
24.752	6.858400
24.77	6.538114
24.788	6.203468
24.806	5.856708
24.824	5.498956
24.842	5.128070
24.86	4.747699
24.878	4.362062
24.896	3.966938
24.914	3.565407
24.932	3.167096
24.95	2.776070
24.968	2.385853
24.986	2.006189
25.004	1.647180
25.022	1.300829
25.04	0.972534
25.058	0.676853
25.076	0.418873
25.094	0.189545
25.112	0.002268
25.13	-0.129483
25.148	-0.213701
25.166	-0.246969
25.184	-0.217005
25.202	-0.117785
25.22	0.043412
25.238	0.271590
25.256	0.572367
25.274	0.945399
25.292	1.388297
25.31	1.900187
25.328	2.482098
25.346	3.136263
25.364	3.854539
25.382	4.628166
25.4	5.463328
25.418	6.357456
25.436	7.294598
25.454	8.264056
25.472	9.280643
25.49	10.3286
25.508	11.3863
25.526	12.4532
25.544	13.5391
25.562	14.6199
25.58	15.6735
25.598	16.7165
25.616	17.7406
25.634	18.721
25.652	19.6438
25.67	20.5286
25.688	21.3568
25.706	22.1057
25.724	22.7765
25.742	23.378
25.76	23.8909
25.778	24.2976
25.796	24.6093
25.814	24.8234
25.832	24.9264
25.85	24.9095
25.868	24.7817
25.886	24.5397
25.904	24.178
25.922	23.6944
25.94	23.0926
25.958	22.3732
25.976	21.5369
25.994	20.5784
26.012	19.5024
26.03	18.3204
26.048	17.0415
26.066	15.6508
26.084	14.162
26.102	12.5975
26.12	10.9685
26.138	9.251035
26.156	7.473149
26.174	5.669083
26.192	3.843810
26.21	1.971904
26.228	0.094801
26.246	-1.743954
26.264	-3.553261
26.282	-5.349097
26.3	-7.085904
26.318	-8.719247
26.336	-10.2725
26.354	-11.7472
26.372	-13.1027
26.39	-14.302
26.408	-15.3695
26.426	-16.302
26.444	-17.0741
26.462	-17.6644
26.48	-18.087
26.498	-18.3425
26.516	-18.4242
26.534	-18.3245
26.552	-18.0395
26.57	-17.5844
26.588	-16.9761
26.606	-16.2209
26.624	-15.2945
26.642	-14.2286
26.66	-13.0617
26.678	-11.8089
26.696	-10.4302
26.714	-8.969918
26.732	-7.479819
26.75	-5.980593
26.768	-4.424937
26.786	-2.858542
26.804	-1.334309
26.822	0.126943
26.84	1.571418
26.858	2.958272
26.876	4.240482
26.894	5.398273
26.912	6.472250
26.93	7.430855
26.948	8.237142
26.966	8.855348
26.984	9.290925
27.002	9.590878
27.02	9.803257
27.028	9.872722