File: Bakgrunnsmateriale/MATLAB/FTIR/ftir_data/LPE453/Mapping_121/LPE453_t18_cm-1.asc
PE IR       SPECTRUM    SPECTRUM    ASCII       PEDS        1.60
  -1
LPE759~1.ASC
17/05/16
15:47:04.00
17/05/16
15:47:04.00
tln
$LPE453_t0018$<tbV0>[-2.6,-10.4,8.0,0.0,27,1,0]
370
64

2002,4.07
MIRTGS : RIGHTBACK : INTERNAL 2
MIR : ON : INTERNAL 2
OPTKBR

0.200000
8
8.000000
FILLER
RATIO
SPECTRUM
UNLOCKED 256

DOUBLE
64
COMBINED
1
0
0

1.000000
RATIO

1
0
TRUE
51149
0
LEFT NOT FITTED RIGHT NOT FITTED 0
NONE
NONE
15600
12
4.427000
51148
TRUE
1 0 8 72 0 0 0 0

15798

#HDR
-1
-1
#GR
CM-1
%T
2.38419e-05
0.0
5000
-1.000000
4631
8
42.5348
-8.097982
#DATA
5000	0.158143
4996	0.474929
4992	0.535893
4988	0.244379
4984	-0.059914
4980	0.082135
4976	0.406122
4972	0.268912
4968	0.089979
4964	0.326585
4960	0.655722
4956	0.777721
4952	0.575780
4948	0.223660
4944	0.036239
4940	-0.000381
4936	-0.036072
4932	-0.098729
4928	-0.146698
4924	-0.063872
4920	-0.004553
4916	-0.104832
4912	-0.249433
4908	-0.308990
4904	-0.350522
4900	-0.312018
4896	0.044870
4892	0.422072
4888	0.310921
4884	-0.131893
4880	-0.206494
4876	0.004291
4872	0.229740
4868	0.331640
4864	0.315570
4860	0.232744
4856	0.206232
4852	0.306606
4848	0.203156
4844	-0.087523
4840	-0.039887
4836	0.190711
4832	0.291275
4828	0.165367
4824	-0.137662
4820	-0.154876
4816	0.078940
4812	0.220632
4808	0.300240
4804	0.412821
4800	0.359940
4796	0.170087
4792	0.122427
4788	0.205874
4784	0.295042
4780	0.212240
4776	0.059175
4772	-0.007605
4768	0.011563
4764	-0.043225
4760	-0.245690
4756	-0.130987
4752	0.170588
4748	0.170159
4744	0.020861
4740	0.005173
4736	0.176954
4732	0.328063
4728	0.280809
4724	0.129747
4720	0.029826
4716	0.108575
4712	0.272345
4708	0.332236
4704	0.327730
4700	0.381016
4696	0.396823
4692	0.314688
4688	0.355553
4684	0.579977
4680	0.721311
4676	0.682044
4672	0.710678
4668	0.712919
4664	0.551867
4660	0.568604
4656	0.703930
4652	0.719070
4648	0.706124
4644	0.692009
4640	0.595784
4636	0.360131
4632	0.197315
4628	0.170588
4624	0.361061
4620	0.669574
4616	0.747609
4612	0.964045
4608	1.304101
4604	1.317787
4600	1.117992
4596	0.744295
4592	0.654339
4588	1.070332
4584	1.315474
4580	1.030516
4576	0.565743
4572	0.210785
4568	0.315070
4564	0.930142
4560	1.159906
4556	0.761914
4552	0.595140
4548	0.392818
4544	-0.374698
4540	-0.738739
4536	-0.326776
4532	0.238013
4528	0.250029
4524	-1.155567
4520	-2.858352
4516	0.345921
4512	4.302358
4508	2.440166
4504	0.412869
4500	0.603151
4496	0.942087
4492	1.170229
4488	1.053166
4484	1.043963
4480	1.124024
4476	1.083159
4472	1.039576
4468	0.897479
4464	0.914645
4460	0.950002
4456	0.735473
4452	0.515675
4448	0.530982
4444	0.826907
4440	1.163172
4436	1.200199
4432	1.008439
4428	0.822973
4424	0.636935
4420	0.581789
4416	0.506830
4412	0.432968
4408	0.546693
4404	0.644159
4400	0.472593
4396	0.090980
4392	-0.082087
4388	0.039505
4384	0.260734
4380	0.440025
4376	0.535678
4372	0.555586
4368	0.512909
4364	0.363945
4360	0.205206
4356	0.193309
4352	0.176000
4348	0.138497
4344	0.263142
4340	0.463128
4336	0.460076
4332	0.220298
4328	-0.049948
4324	-0.145769
4320	-0.057339
4316	-0.015902
4312	-0.079417
4308	-0.094962
4304	-0.121426
4300	-0.133991
4296	-0.068569
4292	-0.040388
4288	-0.021457
4284	0.132417
4280	0.193953
4276	0.076603
4272	0.169372
4268	0.424575
4264	0.434446
4260	0.226402
4256	0.076127
4252	-0.032758
4248	-0.173187
4244	-0.163292
4240	0.023055
4236	0.188803
4232	0.189542
4228	0.177216
4224	0.199913
4220	0.195288
4216	0.251054
4212	0.326991
4208	0.309252
4204	0.112771
4200	-0.108528
4196	-0.138711
4192	-0.187897
4188	-0.168085
4184	-0.003457
4180	-0.164365
4176	-0.247573
4172	0.018000
4168	-0.104665
4164	-0.506210
4160	-0.448369
4156	-0.091266
4152	0.070452
4148	0.108647
4144	0.158810
4140	0.221490
4136	0.321793
4132	0.397753
4128	0.386190
4124	0.285458
4120	0.189590
4116	0.222396
4112	0.310516
4108	0.306320
4104	0.252580
4100	0.242042
4096	0.176763
4092	0.090718
4088	0.101113
4084	0.065422
4080	-0.015926
4076	-0.019359
4072	0.021505
4068	0.021147
4064	-0.013780
4060	-0.071668
4056	-0.167584
4052	-0.140690
4048	-0.019359
4044	0.032496
4040	0.034093
4036	0.067734
4032	0.074553
4028	-0.045228
4024	-0.158333
4020	-0.098085
4016	0.080704
4012	0.108742
4008	-0.013566
4004	-0.050306
4000	0.030684
3996	0.132179
3992	0.172519
3988	0.140833
3984	0.135731
3980	0.133490
3976	0.052022
3972	0.043749
3968	0.086832
3964	0.080466
3960	0.050282
3956	0.001335
3952	0.072526
3948	0.091099
3944	0.018310
3940	0.098943
3936	0.077700
3932	-0.015830
3928	0.060534
3924	0.127077
3920	0.104331
3916	0.074529
3912	0.082826
3908	0.056481
3904	0.019216
3900	0.036072
3896	0.046992
3892	0.042271
3888	0.005602
3884	-0.014281
3880	0.104093
3876	0.248146
3872	0.182986
3868	0.005984
3864	-0.030922
3860	-0.020790
3856	-0.068092
3852	-0.013780
3848	0.147318
3844	0.264382
3840	0.263237
3836	0.108003
3832	0.010323
3828	0.088071
3824	0.085544
3820	0.014543
3816	0.046849
3812	0.089597
3808	0.090432
3804	0.103449
3800	0.155687
3796	0.178265
3792	0.102901
3788	0.047659
3784	0.093269
3780	0.090050
3776	-0.013327
3772	-0.049614
3768	0.007247
3764	0.060820
3760	0.071072
3756	-0.003290
3752	-0.081110
3748	-0.026059
3744	0.057435
3740	0.116872
3736	0.186038
3732	0.167942
3728	0.102925
3724	0.075936
3720	0.012278
3716	-0.076985
3712	-0.081253
3708	-0.011014
3704	0.049853
3700	0.044441
3696	-0.015401
3692	-0.019621
3688	0.009584
3684	0.014996
3680	0.087141
3676	0.196862
3672	0.260663
3668	0.281786
3664	0.230836
3660	0.092983
3656	-0.034570
3652	-0.118923
3648	-0.140619
3644	-0.016832
3640	0.145363
3636	0.242614
3632	0.310635
3628	0.272607
3624	0.212788
3620	0.228691
3616	0.204110
3612	0.135707
3608	0.119161
3604	0.172042
3600	0.164961
3596	0.063848
3592	0.006818
3588	0.026440
3584	0.063776
3580	0.053334
3576	0.050091
3572	0.115537
3568	0.168919
3564	0.151848
3560	0.069093
3556	-0.007152
3552	-0.001072
3548	0.050377
3544	0.054574
3540	0.052642
3536	0.116634
3532	0.137019
3528	0.111889
3524	0.158619
3520	0.212788
3516	0.195240
3512	0.170063
3508	0.163841
3504	0.122404
3500	0.057435
3496	0.034761
3492	0.038075
3488	0.097441
3484	0.236415
3480	0.260853
3476	0.166320
3472	0.105857
3468	0.090289
3464	0.032114
3460	-0.047492
3456	0.018215
3452	0.101613
3448	0.107097
3444	0.121116
3440	0.099062
3436	0.053358
3432	0.042152
3428	0.033020
3424	0.029850
3420	0.037622
3416	-0.055003
3412	-0.129652
3408	0.075221
3404	0.317883
3400	0.259113
3396	0.083780
3392	0.002765
3388	-0.010561
3384	0.005078
3380	0.059700
3376	0.190639
3372	0.275444
3368	0.179648
3364	0.098538
3360	0.206565
3356	0.203490
3352	0.002503
3348	-0.019025
3344	0.162458
3340	0.265884
3336	0.204682
3332	0.110435
3328	0.099563
3324	0.116634
3320	0.098395
3316	0.126886
3312	0.185155
3308	0.122618
3304	0.077462
3300	0.167369
3296	0.206637
3292	0.139880
3288	0.063490
3284	0.062036
3280	0.116038
3276	0.106382
3272	0.079369
3268	0.065279
3264	-0.010991
3260	-0.085926
3256	-0.115919
3252	-0.075793
3248	0.029802
3244	0.122165
3240	0.145101
3236	0.091767
3232	0.020265
3228	-0.063371
3224	-0.064730
3220	0.040173
3216	0.029087
3212	-0.071096
3208	-0.069904
3204	-0.032591
3200	-0.011873
3196	0.072193
3192	0.105357
3188	0.032162
3184	-0.021743
3180	-0.043869
3176	0.043272
3172	0.180888
3168	0.191068
3164	0.122356
3160	0.053644
3156	0.009632
3152	-0.023961
3148	-0.056815
3144	0.008749
3140	0.079798
3136	0.079131
3132	0.101661
3128	0.093483
3124	-0.033044
3120	-0.109553
3116	-0.084590
3112	-0.077581
3108	-0.047707
3104	-0.010800
3100	0.020289
3096	0.112462
3092	0.142002
3088	0.043606
3084	-0.073957
3080	-0.101423
3076	-0.008773
3072	0.058245
3068	0.034737
3064	0.018191
3060	0.025844
3056	0.018596
3052	0.012469
3048	0.003314
3044	0.010490
3040	0.046515
3036	0.017952
3032	-0.058317
3028	-0.073790
3024	-0.008368
3020	0.068831
3016	0.058364
3012	0.032377
3008	0.056624
3004	0.041437
3000	-0.023317
2996	-0.022506
2992	0.026750
2988	0.020384
2984	0.011897
2980	0.036311
2976	0.065803
2972	0.077104
2968	0.065445
2964	0.076937
2960	0.083422
2956	0.061678
2952	0.061106
2948	0.042366
2944	0.020551
2940	0.023794
2936	0.019073
2932	0.017642
2928	0.001740
2924	-0.022196
2920	-0.020837
2916	0.027561
2912	0.106811
2908	0.147318
2904	0.107121
2900	0.039005
2896	0.016450
2892	0.013160
2888	-0.032925
2884	-0.075006
2880	-0.082945
2876	-0.097131
2872	-0.041151
2868	0.081467
2864	0.147581
2860	0.150394
2856	0.128650
2852	0.052499
2848	0.017690
2844	0.079035
2840	0.083971
2836	0.021791
2832	-0.007438
2828	-0.017428
2824	-0.048542
2820	-0.065422
2816	0.002050
2812	0.088405
2808	0.077748
2804	0.022649
2800	0.040793
2796	0.091814
2792	0.076532
2788	0.036716
2784	0.029921
2780	0.044059
2776	0.042629
2772	0.044369
2768	0.048804
2764	-0.026082
2760	-0.102186
2756	-0.082087
2752	-0.047993
2748	-0.019979
2744	0.045728
2740	0.115847
2736	0.114345
2732	0.033783
2728	-0.010347
2724	-0.016355
2720	-0.043153
2716	-0.021338
2712	0.012063
2708	0.010991
2704	0.025415
2700	0.067257
2696	0.087666
2692	0.050449
2688	0.011944
2684	0.031852
2680	0.069737
2676	0.101685
2672	0.136756
2668	0.118947
2664	0.059509
2660	0.039601
2656	0.041937
2652	0.074505
2648	0.127983
2644	0.116944
2640	0.032782
2636	-0.056862
2632	-0.070810
2628	0.007319
2624	0.095129
2620	0.116801
2616	0.105190
2612	0.103712
2608	0.094938
2604	0.070405
2600	0.084543
2596	0.158262
2592	0.211596
2588	0.171685
2584	0.072145
2580	0.015044
2576	0.006818
2572	-0.003147
2568	-0.005960
2564	0.030565
2560	0.084400
2556	0.087738
2552	0.105381
2548	0.106287
2544	-0.006079
2540	-0.077128
2536	-0.031423
2532	0.051140
2528	0.069594
2524	-0.032043
2520	-0.078058
2516	0.011324
2512	0.007510
2508	-0.103497
2504	-0.110983
2500	0.024533
2496	0.135397
2492	0.141215
2488	0.142621
2484	0.090098
2480	0.005173
2476	0.035262
2472	0.063419
2468	-0.022649
2464	-0.055932
2460	0.043416
2456	0.108575
2452	0.073790
2448	0.029921
2444	-0.052809
2440	-0.209403
2436	-0.275969
2432	-0.197792
2428	-0.130009
2424	-0.058436
2420	0.077056
2416	0.099182
2412	0.064945
2408	0.131368
2404	0.106406
2400	-0.022482
2396	-0.039887
2392	0.031948
2388	0.018239
2384	-0.031518
2380	0.040721
2376	0.175595
2372	0.200200
2368	0.084161
2364	-0.009512
2360	0.003576
2356	0.023627
2352	0.046730
2348	0.133538
2344	0.212264
2340	0.229239
2336	0.183868
2332	0.155353
2328	0.218892
2324	0.292968
2320	0.308012
2316	0.317525
2312	0.374770
2308	0.440788
2304	0.495624
2300	0.552916
2296	0.583195
2292	0.586605
2288	0.622081
2284	0.712561
2280	0.820660
2276	0.906753
2272	0.985956
2268	1.052880
2264	1.122784
2260	1.223278
2256	1.344180
2252	1.532077
2248	1.715540
2244	1.831245
2240	1.987981
2236	2.223992
2232	2.474927
2228	2.690291
2224	2.888703
2220	3.122091
2216	3.343987
2212	3.516006
2208	3.729367
2204	4.015088
2200	4.334950
2196	4.641962
2192	4.936146
2188	5.310559
2184	5.711889
2180	6.051969
2176	6.422472
2172	6.844997
2168	7.297134
2164	7.777476
2160	8.232593
2156	8.666849
2152	9.142518
2148	9.678101
2144	10.1286
2140	10.4354
2136	10.8204
2132	11.3909
2128	12.0065
2124	12.5262
2120	12.938
2116	13.3583
2112	13.8964
2108	14.5043
2104	15.0791
2100	15.6241
2096	16.1425
2092	16.6481
2088	17.2313
2084	17.8929
2080	18.4019
2076	18.6854
2072	19.1109
2068	19.7218
2064	20.2162
2060	20.653
2056	21.1455
2052	21.6218
2048	22.0522
2044	22.4863
2040	22.9342
2036	23.3851
2032	23.8277
2028	24.2245
2024	24.5408
2020	24.837
2016	25.2239
2012	25.6201
2008	25.9815
2004	26.3715
2000	26.7599
1996	27.1394
1992	27.5013
1988	27.792
1984	28.0423
1980	28.2926
1976	28.5518
1972	28.8653
1968	29.1874
1964	29.4795
1960	29.7865
1956	30.0652
1952	30.2601
1948	30.4235
1944	30.5799
1940	30.7297
1936	30.9577
1932	31.2199
1928	31.3945
1924	31.5352
1920	31.7072
1916	31.8829
1912	32.0646
1908	32.2431
1904	32.3705
1900	32.4584
1896	32.5639
1892	32.6876
1888	32.8041
1884	32.978
1880	33.1654
1876	33.2859
1872	33.4315
1868	33.571
1864	33.6359
1860	33.6928
1856	33.7763
1852	33.9298
1848	34.1099
1844	34.1782
1840	34.1566
1836	34.1862
1832	34.2821
1828	34.3826
1824	34.4622
1820	34.4841
1816	34.4918
1812	34.5182
1808	34.5484
1804	34.5972
1800	34.6672
1796	34.7891
1792	34.8774
1788	34.8825
1784	34.9174
1780	34.9864
1776	35.0911
1772	35.2056
1768	35.2393
1764	35.226
1760	35.2169
1756	35.2349
1752	35.3145
1748	35.3883
1744	35.4141
1740	35.4762
1736	35.5536
1732	35.5864
1728	35.6196
1724	35.6613
1720	35.6678
1716	35.6272
1712	35.6117
1708	35.6522
1704	35.6965
1700	35.7684
1696	35.7991
1692	35.7523
1688	35.7966
1684	35.8623
1680	35.8085
1676	35.7427
1672	35.7003
1668	35.6616
1664	35.6402
1660	35.7269
1656	35.9924
1652	36.1401
1648	36.0173
1644	35.8681
1640	35.8367
1636	35.8413
1632	35.7985
1628	35.7845
1624	35.8015
1620	35.8581
1616	35.9063
1612	35.8311
1608	35.807
1604	35.8782
1600	35.8667
1596	35.7789
1592	35.7258
1588	35.7545
1584	35.8289
1580	35.9188
1576	35.9711
1572	35.9246
1568	35.8772
1564	36.0195
1560	36.2931
1556	36.2719
1552	36.0296
1548	36.0433
1544	36.2526
1540	36.2911
1536	36.1078
1532	35.9194
1528	35.8727
1524	35.9545
1520	35.9916
1516	35.9216
1512	35.9623
1508	36.1065
1504	36.0823
1500	35.9747
1496	36.002
1492	36.0364
1488	35.9415
1484	35.8276
1480	35.8295
1476	35.9445
1472	35.9834
1468	35.8835
1464	35.8876
1460	36.0425
1456	36.017
1452	35.8336
1448	35.7734
1444	35.7838
1440	35.7785
1436	35.8009
1432	35.898
1428	35.9751
1424	35.9269
1420	35.8349
1416	35.7582
1412	35.7033
1408	35.6663
1404	35.6611
1400	35.7347
1396	35.8008
1392	35.798
1388	35.8266
1384	35.911
1380	35.9331
1376	35.8501
1372	35.7849
1368	35.8034
1364	35.7436
1360	35.6342
1356	35.6245
1352	35.6405
1348	35.6706
1344	35.6794
1340	35.6719
1336	35.7428
1332	35.8059
1328	35.822
1324	35.8281
1320	35.7544
1316	35.6376
1312	35.5841
1308	35.5657
1304	35.5584
1300	35.542
1296	35.484
1292	35.4161
1288	35.3738
1284	35.3815
1280	35.447
1276	35.5517
1272	35.6351
1268	35.6122
1264	35.5463
1260	35.5142
1256	35.4764
1252	35.464
1248	35.489
1244	35.4824
1240	35.4481
1236	35.4137
1232	35.341
1228	35.2699
1224	35.2894
1220	35.3716
1216	35.4857
1212	35.603
1208	35.6673
1204	35.6312
1200	35.506
1196	35.4212
1192	35.4191
1188	35.3684
1184	35.2448
1180	35.1792
1176	35.1977
1172	35.2415
1168	35.3307
1164	35.4477
1160	35.4898
1156	35.4836
1152	35.5163
1148	35.5591
1144	35.6036
1140	35.5997
1136	35.5131
1132	35.4088
1128	35.2724
1124	35.1223
1120	35.005
1116	34.8662
1112	34.8182
1108	34.9471
1104	35.099
1100	35.1315
1096	35.0953
1092	35.2453
1088	35.4617
1084	35.4515
1080	35.3937
1076	35.3108
1072	35.1211
1068	34.9001
1064	34.6811
1060	34.5981
1056	34.6874
1052	34.8035
1048	34.7965
1044	34.7721
1040	34.9302
1036	35.168
1032	35.2733
1028	35.1425
1024	35.0047
1020	35.1225
1016	35.1285
1012	34.8158
1008	34.5864
1004	34.5258
1000	34.4468
996	 34.3412
992	 34.3641
988	 34.4894
984	 34.493
980	 34.495
976	 34.6716
972	 34.8854
968	 34.9511
964	 34.8925
960	 34.7367
956	 34.4428
952	 34.1635
948	 34.0042
944	 33.8971
940	 33.8842
936	 33.9776
932	 34.0581
928	 34.1581
924	 34.2758
920	 34.3378
916	 34.3993
912	 34.437
908	 34.3709
904	 34.3143
900	 34.2656
896	 34.0228
892	 33.7362
888	 33.6353
884	 33.5398
880	 33.2815
876	 33.1119
872	 33.1705
868	 33.3573
864	 33.6535
860	 33.8924
856	 33.9535
852	 33.9072
848	 33.7274
844	 33.534
840	 33.4994
836	 33.3709
832	 33.0556
828	 32.863
824	 32.8707
820	 32.8621
816	 32.8404
812	 32.9458
808	 33.07
804	 33.0969
800	 33.1485
796	 33.3057
792	 33.4534
788	 33.4145
784	 33.1738
780	 32.9692
776	 32.8337
772	 32.5498
768	 32.154
764	 31.8892
760	 31.96
756	 32.1959
752	 32.2962
748	 32.2657
744	 32.2024
740	 32.3728
736	 32.5652
732	 32.3362
728	 32.0415
724	 31.9779
720	 31.8931
716	 31.677
712	 31.5058
708	 31.3811
704	 31.1881
700	 31.0448
696	 31.035
692	 31.1019
688	 31.2547
684	 31.4959
680	 31.6051
676	 31.5244
672	 31.4516
668	 31.3688
664	 31.2752
660	 31.0558
656	 30.6319
652	 30.3667
648	 30.2113
644	 30.0209
640	 30.015
636	 30.277
632	 30.4925
628	 30.3278
624	 30.1404
620	 30.1593
616	 30.2138
612	 30.1909
608	 29.9781
604	 29.6631
600	 29.478
596	 29.308
592	 28.7983
588	 28.2789
584	 28.2774
580	 28.484
576	 28.4844
572	 28.454
568	 28.6225
564	 28.7745
560	 28.7116
556	 28.7993
552	 29.167
548	 28.9941
544	 28.2782
540	 28.0062
536	 27.9201
532	 27.3845
528	 26.864
524	 26.8584
520	 26.9267
516	 26.8841
512	 27.201
508	 27.3755
504	 27.1868
500	 26.9971
496	 26.6098
492	 26.3632
488	 26.373
484	 25.8965
480	 25.2986
476	 25.8375
472	 26.6234
468	 26.4845
464	 26.1668
460	 25.6749
456	 24.4644
452	 24.1822
448	 25.6455
444	 26.0472
440	 25.0218
436	 23.8526
432	 22.2806
428	 22.0126
424	 23.5667
420	 24.1862
416	 21.8639
412	 20.3833
408	 22.0577
404	 24.1268
400	 33.701
396	 42.5348
392	 26.965
388	 2.942466
384	 2.333378
380	 8.063364
376	 -1.540064
372	 -8.097982
370	 -6.927180