File: Bakgrunnsmateriale/MATLAB/FTIR/ftir_data/LPE453/Mapping_121/LPE453_t08_cm-1.asc
PE IR       SPECTRUM    SPECTRUM    ASCII       PEDS        1.60
  -1
LP6759~1.ASC
17/05/16
15:00:19.00
17/05/16
15:00:19.00
tln
$LPE453_t0008$<tbV0>[-5.2,-13.0,8.0,0.0,27,1,0]
370
64

2002,4.07
MIRTGS : RIGHTBACK : INTERNAL 2
MIR : ON : INTERNAL 2
OPTKBR

0.200000
8
8.000000
FILLER
RATIO
SPECTRUM
UNLOCKED 256

DOUBLE
64
COMBINED
1
0
0

1.000000
RATIO

1
0
TRUE
51149
0
LEFT NOT FITTED RIGHT NOT FITTED 0
NONE
NONE
15600
12
4.427000
51148
TRUE
1 0 8 72 0 0 0 0

15798

#HDR
-1
-1
#GR
CM-1
%T
2.38419e-05
0.0
5000
-1.000000
4631
8
38.8246
-2.723741
#DATA
5000	0.135898
4996	0.130629
4992	0.094342
4988	-0.124096
4984	-0.194025
4980	-0.342941
4976	-0.559282
4972	-0.353240
4968	-0.088334
4964	0.248599
4960	0.447273
4956	0.403237
4952	0.489544
4948	0.514340
4944	0.386190
4940	0.173068
4936	0.047492
4932	0.005388
4928	-0.052857
4924	-0.068950
4920	-0.053071
4916	-0.017380
4912	-0.081181
4908	-0.241947
4904	-0.170993
4900	0.063872
4896	0.066566
4892	-0.168752
4888	-0.400972
4884	-0.367093
4880	-0.028085
4876	0.253677
4872	0.332617
4868	0.476145
4864	0.559282
4860	0.526857
4856	0.462412
4852	0.263381
4848	0.013470
4844	-0.079774
4840	0.003433
4836	0.177669
4832	0.250220
4828	0.137042
4824	0.094199
4820	0.094151
4816	0.114250
4812	0.312805
4808	0.395226
4804	0.325131
4800	0.408172
4796	0.478196
4792	0.357317
4788	0.267910
4784	0.258612
4780	0.123620
4776	-0.034570
4772	-0.131511
4768	-0.155663
4764	-0.007963
4760	0.094890
4756	0.058531
4752	0.106620
4748	0.224709
4744	0.235676
4740	0.162172
4736	0.114369
4732	0.041675
4728	-0.042963
4724	-0.056171
4720	0.049233
4716	0.121951
4712	0.081562
4708	0.195765
4704	0.340533
4700	0.307416
4696	0.215411
4692	0.023269
4688	-0.107026
4684	0.026273
4680	0.135827
4676	-0.047755
4672	-0.196838
4668	-0.014424
4664	0.259971
4660	0.355362
4656	0.264358
4652	0.220251
4648	0.313019
4644	0.511550
4640	0.654911
4636	0.569367
4632	0.268840
4628	0.011968
4624	0.053477
4620	-0.065994
4616	-0.386428
4612	-0.172924
4608	0.196886
4604	0.031471
4600	-0.005388
4596	0.102448
4592	-0.426363
4588	-0.601053
4584	0.070452
4580	0.574636
4576	0.220799
4572	-1.067256
4568	-2.415227
4564	-2.354454
4560	-1.336622
4556	-1.056075
4552	-1.308917
4548	-1.067256
4544	-0.537085
4540	-0.002384
4536	0.291132
4532	-0.453186
4528	-1.440334
4524	-1.299428
4520	7.251048
4516	26.2084
4512	28.2255
4508	8.785128
4504	-2.081251
4500	-2.608752
4496	-2.358675
4492	-1.198101
4488	-0.824832
4484	-1.158475
4480	-0.625276
4476	0.541830
4472	0.533390
4468	-0.230884
4464	-0.649189
4460	-0.813531
4456	-0.542926
4452	-0.084757
4448	0.062465
4444	-0.129652
4440	-0.417590
4436	-0.410103
4432	-0.141453
4428	-0.048065
4424	0.043034
4420	0.027656
4416	-0.205564
4412	-0.359320
4408	-0.347900
4404	-0.210618
4400	-0.003767
4396	0.023531
4392	-0.061917
4388	-0.180244
4384	-0.264382
4380	-0.121688
4376	0.125408
4372	0.248861
4368	0.225138
4364	0.176000
4360	0.055241
4356	-0.180983
4352	-0.231242
4348	-0.055122
4344	0.007486
4340	-0.129127
4336	-0.161147
4332	0.017595
4328	0.115299
4324	-0.022149
4320	-0.235342
4316	-0.245690
4312	-0.023722
4308	0.138854
4304	0.068116
4300	-0.014591
4296	0.123238
4292	0.294232
4288	0.262999
4284	0.108933
4280	-0.047373
4276	-0.215458
4272	-0.229668
4268	0.118207
4264	0.513458
4260	0.548505
4256	0.333070
4252	0.078344
4248	-0.063967
4244	0.046682
4240	0.227212
4236	0.076508
4232	-0.241208
4228	-0.212645
4224	0.036382
4220	0.280737
4216	0.483298
4212	0.451159
4208	0.291132
4204	0.234341
4200	0.287580
4196	0.310277
4192	0.252556
4188	0.317692
4184	0.560092
4180	0.662803
4176	0.480079
4172	0.097250
4168	-0.217533
4164	-0.231003
4160	-0.206565
4156	-0.156092
4152	-0.088453
4148	0.011634
4144	0.240397
4140	0.345349
4136	0.268006
4132	0.113582
4128	0.013303
4124	0.013375
4120	0.037431
4116	0.002360
4112	-0.040555
4108	-0.064945
4104	-0.033569
4100	0.087189
4096	0.124049
4092	0.117063
4088	0.165200
4084	0.155234
4080	0.070929
4076	0.020623
4072	0.059890
4068	0.115394
4064	0.100660
4060	0.090169
4056	0.089550
4052	0.040221
4048	0.063157
4044	0.076317
4040	0.003743
4036	0.011587
4032	0.087022
4028	0.171732
4024	0.245237
4020	0.303268
4016	0.311303
4012	0.153970
4008	-0.052380
4004	-0.091433
4000	-0.047254
3996	-0.062179
3992	0.005626
3988	0.133013
3984	0.103950
3980	0.035977
3976	0.036048
3972	0.014090
3968	-0.006914
3964	0.039720
3960	0.153613
3956	0.266051
3952	0.285911
3948	0.210022
3944	0.178432
3940	0.202202
3936	0.129318
3932	0.035357
3928	0.036478
3924	0.039553
3920	-0.017309
3916	-0.038433
3912	-0.019073
3908	-0.083041
3904	-0.113582
3900	-0.031018
3896	0.045037
3892	0.102496
3888	0.103950
3884	0.122165
3880	0.189042
3876	0.167989
3872	0.115323
3868	0.055527
3864	-0.041317
3860	-0.071597
3856	-0.032114
3852	-0.018501
3848	-0.039458
3844	-0.066614
3840	-0.039458
3836	0.061011
3832	0.104165
3828	0.095272
3824	0.134587
3820	0.169301
3816	0.162029
3812	0.062775
3808	-0.049614
3804	-0.019359
3800	0.055742
3796	0.098204
3792	0.111675
3788	0.114202
3784	0.102615
3780	0.014257
3776	-0.053715
3772	-0.078940
3768	-0.039958
3764	0.073003
3760	0.103974
3756	0.131082
3752	0.216174
3748	0.226545
3744	0.118541
3740	0.019955
3736	0.093269
3732	0.227332
3728	0.218367
3724	0.096082
3720	-0.010895
3716	-0.025439
3712	-0.044751
3708	-0.065231
3704	0.021743
3700	0.123500
3696	0.174736
3692	0.114774
3688	-0.037598
3684	-0.081515
3680	-0.005435
3676	0.026369
3672	-0.002574
3668	0.012969
3664	-0.005745
3660	-0.076436
3656	-0.052237
3652	0.103831
3648	0.179171
3644	0.101685
3640	0.071620
3636	0.143384
3632	0.206971
3628	0.198960
3624	0.126338
3620	0.106215
3616	0.164818
3612	0.167298
3608	0.075864
3604	-0.001859
3600	0.032854
3596	0.140547
3592	0.215840
3588	0.208449
3584	0.164365
3580	0.173425
3576	0.256896
3572	0.244617
3568	0.109720
3564	0.029253
3560	0.044131
3556	0.090551
3552	0.061202
3548	-0.033760
3544	-0.021457
3540	0.045585
3536	0.013399
3532	-0.031733
3528	-0.028896
3524	-0.018119
3520	0.012373
3516	-0.003790
3512	-0.119948
3508	-0.157833
3504	-0.084495
3500	-0.038146
3496	-0.011920
3492	0.023341
3488	0.055694
3484	0.085473
3480	0.099205
3476	0.078749
3472	0.044131
3468	0.052428
3464	0.075149
3460	0.031852
3456	0.022029
3452	0.072193
3448	0.149774
3444	0.256228
3440	0.231599
3436	0.116443
3432	0.083422
3428	0.053262
3424	-0.023293
3420	0.005602
3416	0.102925
3412	0.122380
3408	0.085663
3404	0.039553
3400	0.054764
3396	0.136876
3392	0.119042
3388	0.078129
3384	0.120592
3380	0.035214
3376	-0.038099
3372	0.010871
3368	-0.019311
3364	-0.004124
3360	0.091552
3356	0.099110
3352	0.078225
3348	0.079035
3344	0.057339
3340	0.058650
3336	0.109362
3332	0.158739
3328	0.191807
3324	0.177335
3320	0.087070
3316	0.046229
3312	0.099778
3308	0.086092
3304	0.019478
3300	0.042510
3296	0.098276
3292	0.091385
3288	0.037598
3284	0.032877
3280	0.132107
3276	0.191760
3272	0.115108
3268	0.000286
3264	-0.056672
3260	-0.093626
3256	-0.118541
3252	-0.033521
3248	0.060057
3244	0.075340
3240	0.058245
3236	-0.005674
3232	-0.056457
3228	-0.088095
3224	-0.114583
3220	-0.108456
3216	-0.038671
3212	0.088167
3208	0.061845
3204	-0.086593
3200	-0.062537
3196	0.063610
3192	0.126171
3188	0.121116
3184	0.102591
3180	0.122284
3176	0.124287
3172	0.124406
3168	0.091457
3164	-0.008821
3160	-0.054144
3156	-0.072979
3152	-0.057005
3148	0.012111
3144	-0.021052
3140	-0.067687
3136	-0.038743
3132	-0.135350
3128	-0.197911
3124	-0.084400
3120	-0.008130
3116	0.061130
3112	0.116539
3108	0.060915
3104	0.001764
3100	-0.003671
3096	-0.015020
3092	-0.055003
3088	-0.025916
3084	0.064492
3080	0.093436
3076	0.143456
3072	0.197243
3068	0.174689
3064	0.189065
3060	0.224828
3056	0.189638
3052	0.101852
3048	0.064682
3044	0.066828
3040	0.064945
3036	0.132226
3032	0.191569
3028	0.174498
3024	0.151896
3020	0.139665
3016	0.109553
3012	0.039052
3008	-0.008487
3004	-0.026059
3000	-0.026154
2996	0.009989
2992	-0.016283
2988	-0.094747
2984	-0.123667
2980	-0.110316
2976	-0.075173
2972	-0.050330
2968	0.003600
2964	0.045037
2960	0.016498
2956	0.029277
2952	0.072121
2948	0.053358
2944	0.022459
2940	0.058269
2936	0.143241
2932	0.206756
2928	0.177693
2924	0.103068
2920	0.052356
2916	0.022792
2912	0.035905
2908	0.070619
2904	0.088977
2900	0.095939
2896	0.145030
2892	0.212717
2888	0.194668
2884	0.147604
2880	0.137281
2876	0.115180
2872	0.064921
2868	-0.033378
2864	-0.089073
2860	-0.042176
2856	0.006127
2852	0.044775
2848	0.031137
2844	-0.023818
2840	-0.002574
2836	0.051140
2832	0.044727
2828	0.030064
2824	0.058865
2820	0.094628
2816	0.110816
2812	0.068449
2808	0.047230
2804	0.115585
2800	0.136423
2796	0.087213
2792	0.037717
2788	0.021910
2784	0.042486
2780	0.064349
2776	0.105929
2772	0.112819
2768	0.057530
2764	0.012636
2760	-0.028014
2756	-0.059866
2752	-0.027918
2748	0.085115
2744	0.186109
2740	0.178003
2736	0.109004
2732	0.034570
2728	-0.005435
2724	0.037646
2720	0.104045
2716	0.087213
2712	0.086927
2708	0.154209
2704	0.105357
2700	-0.001144
2696	-0.014519
2692	-0.003647
2688	0.027894
2684	0.097370
2680	0.142359
2676	0.160670
2672	0.126242
2668	0.034761
2664	-0.010609
2660	0.025129
2656	0.079274
2652	0.090742
2648	0.059175
2644	0.049948
2640	0.128531
2636	0.224018
2632	0.192332
2628	0.102615
2624	0.035977
2620	-0.045061
2616	-0.078773
2612	-0.045275
2608	-0.003099
2604	0.032210
2600	0.030755
2596	0.031161
2592	0.100374
2588	0.183486
2584	0.206637
2580	0.169730
2576	0.090193
2572	0.033617
2568	-0.010991
2564	-0.079774
2560	-0.123548
2556	-0.126290
2552	-0.120449
2548	-0.104856
2544	-0.046491
2540	0.040555
2536	0.088095
2532	0.063967
2528	0.032758
2524	0.050950
2520	0.065207
2516	0.043487
2512	0.046157
2508	0.069141
2504	0.095009
2500	0.098037
2496	0.068020
2492	0.085568
2488	0.093460
2484	0.040388
2480	0.015306
2476	0.048279
2472	0.058627
2468	0.023365
2464	-0.010466
2460	-0.000810
2456	0.063586
2452	0.102782
2448	0.082850
2444	0.056099
2440	0.042390
2436	0.046992
2432	0.080180
2428	0.106859
2424	0.203442
2420	0.350737
2416	0.311160
2412	0.124812
2408	0.005030
2404	0.019335
2400	0.123906
2396	0.226974
2392	0.219154
2388	0.163149
2384	0.176644
2380	0.172901
2376	0.111317
2372	0.082254
2368	0.115275
2364	0.145554
2360	0.161600
2356	0.197148
2352	0.196337
2348	0.126934
2344	0.105881
2340	0.196075
2336	0.325393
2332	0.411677
2328	0.409317
2324	0.371193
2320	0.392341
2316	0.425577
2312	0.420165
2308	0.489902
2304	0.615191
2300	0.663781
2296	0.701522
2292	0.811815
2288	0.914883
2284	0.937342
2280	0.909852
2276	0.953388
2272	1.110935
2268	1.251482
2264	1.321554
2260	1.399350
2256	1.541686
2252	1.710486
2248	1.816773
2244	1.914572
2240	2.114462
2236	2.353191
2232	2.564287
2228	2.748179
2224	2.903532
2220	3.101754
2216	3.332591
2212	3.560853
2208	3.824257
2204	4.079747
2200	4.284858
2196	4.544758
2192	4.886603
2188	5.198931
2184	5.519366
2180	5.858135
2176	6.173610
2172	6.520080
2168	6.927061
2164	7.377028
2160	7.793045
2156	8.139896
2152	8.452510
2148	8.830404
2144	9.294319
2140	9.728050
2136	10.1393
2132	10.599
2128	11.0857
2124	11.5475
2120	11.9494
2116	12.3154
2112	12.7563
2108	13.2859
2104	13.794
2100	14.2307
2096	14.6784
2092	15.1586
2088	15.6578
2084	16.1835
2080	16.5152
2076	16.6673
2072	16.9733
2068	17.4554
2064	17.9808
2060	18.4337
2056	18.8079
2052	19.1975
2048	19.6011
2044	20.0629
2040	20.559
2036	20.9907
2032	21.3436
2028	21.6703
2024	21.9616
2020	22.2015
2016	22.4511
2012	22.6978
2008	22.9457
2004	23.2705
2000	23.6596
1996	24.0283
1992	24.3668
1988	24.7307
1984	25.1223
1980	25.4648
1976	25.7045
1972	25.859
1968	25.987
1964	26.1124
1960	26.1947
1956	26.2815
1952	26.4425
1948	26.6402
1944	26.8991
1940	27.2338
1936	27.546
1932	27.8539
1928	28.1453
1924	28.3225
1920	28.4597
1916	28.604
1912	28.6697
1908	28.6348
1904	28.6289
1900	28.6833
1896	28.7072
1892	28.7873
1888	28.9876
1884	29.2188
1880	29.4378
1876	29.673
1872	29.9603
1868	30.1958
1864	30.2915
1860	30.3035
1856	30.262
1852	30.2294
1848	30.2224
1844	30.1567
1840	30.0825
1836	30.1027
1832	30.2004
1828	30.3703
1824	30.5763
1820	30.7422
1816	30.8748
1812	30.9775
1808	31.0599
1804	31.1538
1800	31.2072
1796	31.2006
1792	31.1516
1788	31.0301
1784	30.9051
1780	30.8334
1776	30.8098
1772	30.8785
1768	31.013
1764	31.1386
1760	31.2792
1756	31.4844
1752	31.7055
1748	31.8278
1744	31.7958
1740	31.6747
1736	31.5417
1732	31.3356
1728	31.0777
1724	30.9576
1720	30.9843
1716	31.0699
1712	31.2085
1708	31.4223
1704	31.7379
1700	32.0388
1696	32.1424
1692	32.106
1688	32.1405
1684	32.1702
1680	32.0124
1676	31.7671
1672	31.5376
1668	31.3441
1664	31.2216
1660	31.2528
1656	31.4568
1652	31.6004
1648	31.6165
1644	31.6971
1640	31.9447
1636	32.19
1632	32.2133
1628	32.1241
1624	32.0243
1620	31.9284
1616	31.8094
1612	31.6083
1608	31.4219
1604	31.2968
1600	31.2017
1596	31.1965
1592	31.3198
1588	31.4929
1584	31.6728
1580	31.9181
1576	32.1605
1572	32.2258
1568	32.1689
1564	32.2052
1560	32.2101
1556	31.9299
1552	31.602
1548	31.4892
1544	31.52
1540	31.4967
1536	31.3974
1532	31.3716
1528	31.4746
1524	31.7111
1520	31.9933
1516	32.133
1512	32.1335
1508	32.1694
1504	32.1558
1500	31.987
1496	31.7611
1492	31.5641
1488	31.4088
1484	31.24
1480	31.1208
1476	31.152
1472	31.3204
1468	31.5001
1464	31.681
1460	31.9353
1456	32.1209
1452	32.1154
1448	32.0283
1444	31.9546
1440	31.8321
1436	31.626
1432	31.4
1428	31.1682
1424	30.999
1420	30.9392
1416	30.9347
1412	31.0342
1408	31.1723
1404	31.2924
1400	31.551
1396	31.8465
1392	32.008
1388	32.1031
1384	32.1401
1380	31.9897
1376	31.6536
1372	31.4097
1368	31.3359
1364	31.2214
1360	31.0531
1356	30.9409
1352	30.9354
1348	31.0591
1344	31.3199
1340	31.6455
1336	31.892
1332	32.0095
1328	32.0399
1324	31.972
1320	31.8206
1316	31.6536
1312	31.4641
1308	31.288
1304	31.1453
1300	30.9958
1296	30.923
1292	30.9974
1288	31.1374
1284	31.2702
1280	31.4342
1276	31.6674
1272	31.9048
1268	32.053
1264	32.0801
1260	31.9435
1256	31.6963
1252	31.5195
1248	31.4063
1244	31.2438
1240	31.0765
1236	30.9577
1232	30.8719
1228	30.9034
1224	31.1334
1220	31.4295
1216	31.6548
1212	31.7875
1208	31.8698
1204	31.9086
1200	31.8381
1196	31.7093
1192	31.5779
1188	31.4087
1184	31.2169
1180	31.0541
1176	30.9131
1172	30.7894
1168	30.7644
1164	30.9595
1160	31.2859
1156	31.5663
1152	31.8004
1148	31.9751
1144	32.0106
1140	31.9137
1136	31.78
1132	31.6568
1128	31.554
1124	31.4581
1120	31.3118
1116	31.0797
1112	30.8652
1108	30.8166
1104	30.8734
1100	31.0214
1096	31.3308
1092	31.6309
1088	31.7644
1084	31.8623
1080	31.9965
1076	32.0186
1072	31.9521
1068	31.8505
1064	31.6719
1060	31.425
1056	31.146
1052	30.9919
1048	30.9468
1044	30.9387
1040	31.0754
1036	31.3221
1032	31.5481
1028	31.7057
1024	31.9184
1020	32.2059
1016	32.2916
1012	32.0849
1008	31.8107
1004	31.5741
1000	31.4058
996	 31.1793
992	 30.8638
988	 30.7869
984	 30.8617
980	 30.9541
976	 31.2356
972	 31.5487
968	 31.7422
964	 31.8401
960	 31.8943
956	 31.9741
952	 31.9779
948	 31.8156
944	 31.5206
940	 31.2121
936	 31.0304
932	 30.917
928	 30.8077
924	 30.7374
920	 30.7502
916	 30.9411
912	 31.2584
908	 31.5695
904	 31.7631
900	 31.809
896	 31.834
892	 31.889
888	 31.8208
884	 31.6206
880	 31.3874
876	 31.1126
872	 30.887
868	 30.6767
864	 30.5777
860	 30.7194
856	 30.9345
852	 31.1231
848	 31.2929
844	 31.5311
840	 31.7337
836	 31.7284
832	 31.658
828	 31.6698
824	 31.7041
820	 31.5248
816	 31.177
812	 30.9271
808	 30.7719
804	 30.6372
800	 30.5785
796	 30.6817
792	 30.7914
788	 30.8122
784	 30.8484
780	 30.9977
776	 31.2708
772	 31.5304
768	 31.5481
764	 31.3137
760	 31.049
756	 30.6892
752	 30.4322
748	 30.406
744	 30.252
740	 29.9232
736	 29.68
732	 29.7546
728	 30.0654
724	 30.4076
720	 30.5882
716	 30.6484
712	 30.7955
708	 30.9751
704	 31.0417
700	 30.9034
696	 30.6072
692	 30.2197
688	 29.8072
684	 29.5276
680	 29.3946
676	 29.3609
672	 29.4601
668	 29.688
664	 29.89
660	 29.9903
656	 30.1475
652	 30.3341
648	 30.4322
644	 30.3903
640	 30.0363
636	 29.6751
632	 29.6801
628	 29.6011
624	 29.1791
620	 28.8276
616	 28.6335
612	 28.5617
608	 28.6484
604	 28.766
600	 28.8902
596	 28.95
592	 28.8649
588	 28.7983
584	 28.7987
580	 28.7876
576	 28.6716
572	 28.3346
568	 28.0979
564	 28.0242
560	 27.7179
556	 27.4408
552	 27.4284
548	 27.4266
544	 27.3405
540	 27.2913
536	 27.6162
532	 28.2329
528	 28.5929
524	 28.4629
520	 28.0524
516	 27.5343
512	 27.1692
508	 27.0511
504	 26.7169
500	 26.1036
496	 25.5719
492	 25.3758
488	 25.8304
484	 26.7548
480	 27.5483
476	 27.8765
472	 27.8503
468	 28.4382
464	 28.7504
460	 27.9967
456	 27.8454
452	 27.8485
448	 27.4782
444	 26.8991
440	 25.6479
436	 25.3626
432	 26.279
428	 26.3919
424	 25.7017
420	 25.5064
416	 26.5003
412	 29.433
408	 32.1487
404	 34.6402
400	 38.8246
396	 32.6251
392	 19.0244
388	 17.1021
384	 20.9171
380	 26.7846
376	 29.1324
372	 20.7199
370	 15.1355