File: Bakgrunnsmateriale/MATLAB/FTIR/ftir_data/LPE453/Mapping_121/LPE453_t109.asc
PE IR       SPECTRUM    SPECTRUM    ASCII       PEDS        1.60
  -1
LP9796~1.ASC
17/05/16
23:16:25.00
17/05/16
23:16:51.00
tln
$LPE453_t0109$<tbV0>[-10.4,10.4,8.0,0.0,27,1,0]
27.028
64

2002,4.07
MIRTGS : RIGHTBACK : INTERNAL 2
MIR : ON : INTERNAL 2
OPTKBR

0.200000
8
8.000000
FILLER
RATIO
SPECTRUM
UNLOCKED 256

DOUBLE
64
COMBINED
1
0
0

0.002000
RATIO

1
0
TRUE
51149
0
LEFT NOT FITTED RIGHT NOT FITTED 0
NONE
NONE
15600
12
4.427000
51148
TRUE
1 0 8 72 0 0 0 0

15798

#HDR
-1
-1
#GR
µM
%T
2.38419e-05
0.0
2.000000
0.002000
12515
8
27.9026
-4.461801
#DATA
2.000000	 0.004339
2.018000	 0.089421
2.036000	 0.146638
2.054000	 0.422247
2.072000	 0.062934
2.090000	 0.337517
2.108000	 -0.008384
2.126000	 0.577455
2.144000	 0.822114
2.162000	 1.637641
2.180000	 0.585363
2.198000	 -0.765834
2.216000	 -0.173393
2.234000	 -0.327398
2.252000	 -1.182225
2.270000	 0.742789
2.288000	 0.422927
2.306000	 0.127928
2.324000	 0.152779
2.342000	 0.350198
2.360000	 -0.111215
2.378000	 0.046168
2.396000	 0.063521
2.414000	 0.242735
2.432000	 0.213429
2.450000	 -0.048029
2.468000	 0.035518
2.486000	 -0.104822
2.504000	 0.024681
2.522000	 -0.018571
2.540000	 0.271897
2.558000	 -0.004209
2.576000	 -0.055542
2.594000	 0.228704
2.612000	 0.061844
2.630000	 -0.016262
2.648000	 0.040020
2.666000	 -0.133101
2.684000	 0.096663
2.702000	 0.095878
2.720000	 0.041770
2.738000	 0.067050
2.756000	 0.026557
2.774000	 -0.010661
2.792000	 -0.016851
2.810000	 0.111952
2.828000	 0.164900
2.846000	 0.252370
2.864000	 0.018010
2.882000	 -0.042518
2.900000	 -0.086080
2.918000	 0.034233
2.936000	 0.086203
2.954000	 0.255720
2.972000	 0.013545
2.990000	 0.061333
3.008000	 0.147010
3.026000	 0.095626
3.044000	 0.063000
3.062000	 0.190660
3.080000	 -0.065655
3.098000	 0.050624
3.116000	 0.031907
3.134000	 -0.035198
3.152000	 0.084531
3.170000	 0.008249
3.188000	 0.033648
3.206000	 0.100303
3.224000	 0.033642
3.242000	 -0.046427
3.260000	 0.108017
3.278000	 0.039689
3.296000	 0.147610
3.314000	 0.100745
3.332000	 0.121294
3.350000	 0.141243
3.368000	 -0.121414
3.386000	 0.025523
3.404000	 0.116272
3.422000	 -0.054817
3.440000	 0.071771
3.458000	 0.078235
3.476000	 -0.015383
3.494000	 -0.047961
3.512000	 0.065598
3.530000	 0.014555
3.548000	 -0.064200
3.566000	 0.041449
3.584000	 0.027034
3.602000	 -0.019757
3.620000	 0.041083
3.638000	 0.013868
3.656000	 0.038830
3.674000	 0.061778
3.692000	 0.032544
3.710000	 0.043780
3.728000	 -0.056927
3.746000	 0.115365
3.764000	 -0.048991
3.782000	 0.035685
3.800000	 0.026361
3.818000	 0.099817
3.836000	 -0.020966
3.854000	 0.046960
3.872000	 -0.020130
3.890000	 0.071615
3.908000	 0.033873
3.926000	 0.001221
3.944000	 -0.009049
3.962000	 0.047899
3.980000	 -0.041177
3.998000	 0.091250
4.016000	 0.131772
4.034000	 0.028514
4.052000	 -0.050501
4.070000	 0.078512
4.088000	 -0.041772
4.106000	 0.080276
4.124000	 0.041678
4.141999	 0.202957
4.160000	 0.114008
4.178000	 -0.072659
4.196000	 -0.019907
4.214000	 0.050585
4.232000	 0.104273
4.250000	 0.275935
4.268000	 0.276620
4.286000	 0.256793
4.304000	 0.262918
4.322000	 0.373995
4.340000	 0.508724
4.358000	 0.533049
4.375999	 0.650191
4.394000	 0.789862
4.412000	 0.944863
4.430000	 1.092609
4.448000	 1.391783
4.466000	 1.597747
4.484000	 1.793980
4.502000	 2.245412
4.520000	 2.588583
4.538000	 2.929464
4.556000	 3.441691
4.574000	 3.837818
4.592000	 4.373126
4.609999	 4.973744
4.628000	 5.602138
4.646000	 6.201845
4.664000	 6.843510
4.682000	 7.548180
4.700000	 8.195266
4.718000	 8.781015
4.736000	 9.515197
4.754000	 10.2289
4.772000	 10.8427
4.790000	 11.5432
4.808000	 12.1023
4.826000	 12.8183
4.843999	 13.4993
4.862000	 13.882
4.880000	 14.4986
4.898000	 15.091
4.916000	 15.6245
4.934000	 16.0351
4.952000	 16.4041
4.970000	 16.954
4.988000	 17.3931
5.006000	 18.0013
5.024000	 18.3827
5.042000	 18.6681
5.060000	 18.9472
5.077999	 19.1262
5.096000	 19.3629
5.114000	 19.7139
5.132000	 20.0722
5.150000	 20.3871
5.168000	 20.6929
5.186000	 20.9155
5.204000	 20.9668
5.222000	 21.0902
5.240000	 21.1983
5.258000	 21.3047
5.276000	 21.5414
5.294000	 21.8418
5.312000	 22.1108
5.330000	 22.3286
5.348000	 22.4167
5.366000	 22.4048
5.384000	 22.4002
5.402000	 22.3606
5.420000	 22.3903
5.438000	 22.57
5.456000	 22.7493
5.474000	 22.9175
5.492000	 23.1176
5.510000	 23.2175
5.528000	 23.2122
5.546000	 23.1495
5.564000	 23.0417
5.582000	 22.9191
5.600000	 22.9459
5.618000	 23.057
5.636000	 23.1936
5.654000	 23.3867
5.672000	 23.5794
5.690000	 23.695
5.708000	 23.6591
5.726000	 23.4707
5.744000	 23.3816
5.762000	 23.2909
5.780000	 23.2131
5.798000	 23.2574
5.816000	 23.3226
5.834000	 23.5148
5.852000	 23.6777
5.870000	 23.7426
5.888000	 23.7744
5.906000	 23.7596
5.923999	 23.6702
5.942000	 23.5166
5.960000	 23.3874
5.978000	 23.2646
5.996000	 23.2692
6.014000	 23.3804
6.032000	 23.4537
6.050000	 23.5239
6.068000	 23.6658
6.086000	 23.8213
6.104000	 23.8885
6.122000	 23.829
6.140000	 23.713
6.158000	 23.5907
6.176000	 23.468
6.194000	 23.3289
6.212000	 23.2449
6.230000	 23.3232
6.248000	 23.468
6.266000	 23.5882
6.284000	 23.7204
6.302000	 23.8277
6.320000	 23.8414
6.338000	 23.8403
6.356000	 23.8644
6.374000	 23.8283
6.392000	 23.7029
6.410000	 23.5493
6.428000	 23.401
6.446000	 23.2877
6.464000	 23.2548
6.482000	 23.3162
6.500000	 23.3871
6.518000	 23.4728
6.536000	 23.637
6.554000	 23.8195
6.572000	 23.9247
6.590000	 23.9507
6.608000	 23.9546
6.626000	 23.8829
6.644000	 23.7072
6.662000	 23.534
6.680000	 23.3475
6.698000	 23.1844
6.716000	 23.2135
6.734000	 23.3325
6.752000	 23.4255
6.770000	 23.4964
6.788000	 23.5549
6.806000	 23.6493
6.824000	 23.7746
6.842000	 23.8786
6.860000	 23.9433
6.878000	 23.9474
6.896000	 23.8924
6.914000	 23.8268
6.932000	 23.7449
6.950000	 23.5683
6.968000	 23.306
6.986000	 23.1107
7.004000	 23.0791
7.022000	 23.1318
7.040000	 23.1782
7.058000	 23.2437
7.076000	 23.3333
7.094000	 23.4162
7.112000	 23.5321
7.130000	 23.6905
7.148000	 23.8028
7.166000	 23.8102
7.184000	 23.7504
7.202000	 23.699
7.220000	 23.6609
7.238000	 23.5707
7.256000	 23.4291
7.274000	 23.2898
7.292000	 23.1777
7.310000	 23.1029
7.328000	 23.0737
7.346000	 23.1036
7.364000	 23.1985
7.382000	 23.3211
7.400000	 23.4395
7.418000	 23.5509
7.436000	 23.6424
7.454000	 23.7202
7.472000	 23.8129
7.490000	 23.8899
7.508000	 23.8834
7.526000	 23.8027
7.544000	 23.7276
7.562000	 23.681
7.580000	 23.6009
7.598000	 23.4592
7.616000	 23.3168
7.634000	 23.2237
7.652000	 23.1533
7.670000	 23.0923
7.688000	 23.0836
7.706000	 23.1377
7.724000	 23.2152
7.742000	 23.3008
7.760000	 23.4018
7.778000	 23.5095
7.796000	 23.6221
7.814000	 23.7359
7.832000	 23.8198
7.850000	 23.8529
7.868000	 23.855
7.886000	 23.8438
7.904000	 23.803
7.922000	 23.7055
7.940000	 23.5521
7.958000	 23.3883
7.976000	 23.2671
7.994000	 23.1986
8.012000	 23.1551
8.030000	 23.1189
8.048000	 23.1021
8.065999	 23.1223
8.084000	 23.1792
8.102000	 23.2586
8.120000	 23.3546
8.138000	 23.4676
8.155999	 23.5803
8.173999	 23.6656
8.192000	 23.7288
8.210000	 23.8052
8.228000	 23.9019
8.246000	 23.9799
8.263999	 24.0067
8.282000	 23.9866
8.300000	 23.9338
8.318000	 23.8506
8.336000	 23.7372
8.353999	 23.604
8.372000	 23.4665
8.390000	 23.3405
8.408000	 23.2408
8.426000	 23.176
8.443999	 23.141
8.462000	 23.1275
8.480000	 23.1318
8.498000	 23.1469
8.516000	 23.1654
8.533999	 23.1918
8.552000	 23.2349
8.570000	 23.2972
8.588000	 23.385
8.606000	 23.5133
8.624000	 23.6813
8.641999	 23.8531
8.660000	 23.9807
8.678000	 24.045
8.696000	 24.0582
8.714000	 24.0339
8.731999	 23.9758
8.750000	 23.8957
8.768000	 23.816
8.786000	 23.7452
8.804000	 23.6683
8.821999	 23.5716
8.840000	 23.463
8.858000	 23.3603
8.876000	 23.2665
8.894000	 23.1746
8.911999	 23.0902
8.930000	 23.0348
8.948000	 23.0226
8.966000	 23.0447
8.984000	 23.0814
9.001999	 23.1297
9.020000	 23.2113
9.038000	 23.3494
9.056000	 23.5374
9.074000	 23.7285
9.092000	 23.8645
9.109999	 23.9197
9.128000	 23.9202
9.146000	 23.9177
9.164000	 23.9469
9.182000	 24.0078
9.199999	 24.0751
9.218000	 24.1167
9.236000	 24.1048
9.254000	 24.0276
9.272000	 23.8992
9.289999	 23.7574
9.308000	 23.6403
9.326000	 23.5611
9.344000	 23.5069
9.362000	 23.4571
9.379999	 23.4029
9.398000	 23.3511
9.416000	 23.3156
9.434000	 23.3072
9.452000	 23.3233
9.469999	 23.3499
9.488000	 23.3711
9.506000	 23.3847
9.524000	 23.408
9.542000	 23.4615
9.560000	 23.5481
9.577999	 23.6494
9.596000	 23.7443
9.614000	 23.8274
9.632000	 23.9081
9.650000	 23.9969
9.667999	 24.0911
9.686000	 24.175
9.704000	 24.2324
9.722000	 24.2588
9.740000	 24.2616
9.757999	 24.2503
9.776000	 24.2279
9.794000	 24.1927
9.812000	 24.1467
9.830000	 24.0983
9.847999	 24.0563
9.866000	 24.0201
9.884000	 23.9798
9.902000	 23.9236
9.920000	 23.849
9.937999	 23.7649
9.956000	 23.6846
9.974000	 23.6171
9.992000	 23.5646
10.01	23.5247
10.028	23.4936
10.046	23.4679
10.064	23.4451
10.082	23.4248
10.1	23.4099
10.118	23.4077
10.136	23.4257
10.154	23.4672
10.172	23.5295
10.19	23.6047
10.208	23.6852
10.226	23.7682
10.244	23.8547
10.262	23.9462
10.28	24.0396
10.298	24.1255
10.316	24.1904
10.334	24.2245
10.352	24.2265
10.37	24.2054
10.388	24.1777
10.406	24.1571
10.424	24.1484
10.442	24.1436
10.46	24.1269
10.478	24.0834
10.496	24.0089
10.514	23.9131
10.532	23.8151
10.55	23.7335
10.568	23.6778
10.586	23.6438
10.604	23.6185
10.622	23.5877
10.64	23.5432
10.658	23.4864
10.676	23.4252
10.694	23.3684
10.712	23.3228
10.73	23.2915
10.748	23.2756
10.766	23.2755
10.784	23.2911
10.802	23.3203
10.82	23.3588
10.838	23.4012
10.856	23.4446
10.874	23.4905
10.892	23.5448
10.91	23.6151
10.928	23.7054
10.946	23.8147
10.964	23.9361
10.982	24.0581
11	24.1682
11.018	24.2538
11.036	24.3049
11.054	24.3157
11.072	24.2875
11.09	24.2314
11.108	24.1656
11.126	24.1116
11.144	24.0834
11.162	24.0826
11.18	24.0971
11.198	24.1051
11.216	24.0857
11.234	24.0273
11.252	23.9324
11.27	23.8152
11.288	23.6978
11.306	23.5985
11.324	23.527
11.342	23.481
11.36	23.4499
11.378	23.4197
11.396	23.3812
11.414	23.3321
11.432	23.2776
11.45	23.2264
11.468	23.187
11.486	23.1639
11.504	23.1579
11.522	23.1673
11.54	23.1898
11.558	23.2243
11.576	23.2686
11.594	23.3199
11.612	23.3725
11.63	23.4205
11.648	23.4604
11.666	23.4928
11.684	23.5233
11.702	23.5601
11.72	23.6107
11.738	23.6784
11.756	23.7601
11.774	23.8477
11.792	23.9306
11.81	24.0003
11.828	24.0534
11.846	24.0922
11.864	24.1229
11.882	24.1519
11.9	24.1829
11.918	24.2152
11.936	24.2435
11.954	24.2613
11.972	24.2626
11.99	24.2447
12.008	24.2099
12.026	24.1629
12.044	24.1099
12.062	24.055
12.08	23.9996
12.098	23.9428
12.116	23.8834
12.134	23.8227
12.152	23.7642
12.17	23.712
12.188	23.669
12.206	23.6344
12.224	23.6034
12.242	23.5696
12.26	23.527
12.278	23.4728
12.296	23.4093
12.314	23.3422
12.332	23.2792
12.35	23.2265
12.368	23.1877
12.386	23.1629
12.404	23.1498
12.422	23.1457
12.44	23.1489
12.458	23.1599
12.476	23.1798
12.494	23.2106
12.512	23.2532
12.53	23.3073
12.548	23.3714
12.566	23.4436
12.584	23.5217
12.602	23.6037
12.62	23.6872
12.638	23.7696
12.656	23.8472
12.674	23.916
12.692	23.9723
12.71	24.0139
12.728	24.0407
12.746	24.0554
12.764	24.0616
12.782	24.0636
12.8	24.0646
12.818	24.0659
12.836	24.0679
12.854	24.0696
12.872	24.0702
12.89	24.0689
12.908	24.0656
12.926	24.06
12.944	24.0519
12.962	24.0413
12.98	24.0277
12.998	24.0111
13.016	23.9914
13.034	23.9688
13.052	23.9436
13.07	23.9161
13.088	23.8861
13.106	23.853
13.124	23.8158
13.142	23.7739
13.16	23.7278
13.178	23.6787
13.196	23.6291
13.214	23.5816
13.232	23.5381
13.25	23.499
13.268	23.4629
13.286	23.4273
13.304	23.3892
13.322	23.3464
13.34	23.2987
13.358	23.2473
13.376	23.1952
13.394	23.1464
13.412	23.1046
13.43	23.0726
13.448	23.052
13.466	23.0429
13.484	23.0445
13.502	23.056
13.52	23.0767
13.538	23.1064
13.556	23.1453
13.574	23.1933
13.592	23.2497
13.61	23.3121
13.628	23.3773
13.646	23.441
13.664	23.4988
13.682	23.5472
13.7	23.5839
13.718	23.6086
13.736	23.6229
13.754	23.6295
13.772	23.6322
13.79	23.635
13.808	23.6409
13.826	23.6522
13.844	23.6696
13.862	23.6926
13.88	23.7199
13.898	23.7495
13.916	23.7796
13.934	23.8085
13.952	23.835
13.97	23.8586
13.988	23.8793
14.006	23.8974
14.024	23.9132
14.042	23.9269
14.06	23.9382
14.078	23.9461
14.096	23.9492
14.114	23.9456
14.132	23.9336
14.15	23.9114
14.168	23.878
14.186	23.8327
14.204	23.7763
14.222	23.7099
14.24	23.636
14.258	23.5572
14.276	23.4763
14.294	23.3957
14.312	23.3176
14.33	23.2436
14.348	23.1745
14.366	23.111
14.384	23.0533
14.402	23.0015
14.42	22.9558
14.438	22.9166
14.456	22.8843
14.474	22.8592
14.492	22.841
14.51	22.8291
14.528	22.8221
14.546	22.8185
14.564	22.8171
14.582	22.8167
14.6	22.8169
14.618	22.8179
14.636	22.821
14.654	22.8283
14.672	22.8418
14.69	22.8636
14.708	22.895
14.726	22.9363
14.744	22.9862
14.762	23.0421
14.78	23.1001
14.798	23.1558
14.816	23.2047
14.834	23.2428
14.852	23.267
14.87	23.2771
14.888	23.2741
14.906	23.2609
14.924	23.2422
14.942	23.2241
14.96	23.2126
14.978	23.2127
14.996	23.2278
15.014	23.2597
15.032	23.3079
15.05	23.3691
15.068	23.4387
15.086	23.511
15.104	23.5801
15.122	23.6391
15.14	23.6841
15.158	23.7126
15.176	23.7239
15.194	23.7193
15.212	23.7022
15.23	23.6771
15.248	23.6486
15.266	23.6213
15.284	23.5997
15.302	23.5859
15.32	23.5806
15.338	23.5839
15.356	23.5939
15.374	23.6079
15.392	23.6232
15.41	23.6374
15.428	23.6483
15.446	23.6545
15.464	23.656
15.482	23.6532
15.5	23.647
15.518	23.6393
15.536	23.6312
15.554	23.6235
15.572	23.6167
15.59	23.61
15.608	23.6021
15.626	23.5913
15.644	23.5754
15.662	23.5519
15.68	23.5196
15.698	23.4771
15.716	23.424
15.734	23.3611
15.752	23.2897
15.77	23.2116
15.788	23.1299
15.806	23.0469
15.824	22.9647
15.842	22.8853
15.86	22.8104
15.878	22.7405
15.896	22.6761
15.914	22.6172
15.932	22.5635
15.95	22.5147
15.968	22.471
15.986	22.4322
16.004	22.3988
16.022	22.3714
16.04	22.3506
16.058	22.3372
16.076	22.3317
16.094	22.3344
16.112	22.3452
16.13	22.3635
16.148	22.3883
16.166	22.418
16.184	22.4512
16.202	22.4864
16.22	22.5215
16.238	22.5556
16.256	22.5873
16.274	22.616
16.292	22.6417
16.31	22.6644
16.328	22.6849
16.346	22.704
16.364	22.7226
16.382	22.7421
16.4	22.7634
16.418	22.7871
16.436	22.8141
16.454	22.8446
16.472	22.8787
16.49	22.9161
16.508	22.9564
16.526	22.999
16.544	23.0431
16.562	23.088
16.58	23.1332
16.598	23.1777
16.616	23.2213
16.634	23.2637
16.652	23.3046
16.67	23.3441
16.688	23.3822
16.706	23.4189
16.724	23.4539
16.742	23.4872
16.76	23.5184
16.778	23.5471
16.796	23.5726
16.814	23.5944
16.832	23.612
16.85	23.6243
16.868	23.6311
16.886	23.6323
16.904	23.6275
16.922	23.6171
16.94	23.6016
16.958	23.582
16.976	23.5589
16.994	23.5341
17.012	23.5088
17.03	23.4839
17.048	23.4615
17.066	23.4422
17.084	23.4272
17.102	23.4169
17.12	23.4113
17.138	23.4099
17.156	23.412
17.174	23.4167
17.192	23.4219
17.21	23.4264
17.228	23.428
17.246	23.4248
17.264	23.4155
17.282	23.3981
17.3	23.3722
17.318	23.3367
17.336	23.2921
17.354	23.2383
17.372	23.1769
17.39	23.1087
17.408	23.0359
17.426	22.9606
17.444	22.8841
17.462	22.8095
17.48	22.7378
17.498	22.6715
17.516	22.6115
17.534	22.559
17.552	22.5146
17.57	22.4786
17.588	22.4506
17.606	22.4304
17.624	22.4174
17.642	22.4104
17.66	22.4092
17.678	22.4118
17.696	22.418
17.714	22.4262
17.732	22.436
17.75	22.4462
17.768	22.4563
17.786	22.4658
17.804	22.4737
17.822	22.4798
17.84	22.4836
17.858	22.4847
17.876	22.4826
17.894	22.4772
17.912	22.4684
17.93	22.4562
17.948	22.4407
17.966	22.4225
17.984	22.4021
18.002	22.3802
18.02	22.358
18.038	22.3364
18.056	22.317
18.074	22.3005
18.092	22.289
18.11	22.2829
18.128	22.2839
18.146	22.2921
18.164	22.3085
18.182	22.3329
18.2	22.3654
18.218	22.4051
18.236	22.4517
18.254	22.5033
18.272	22.5595
18.29	22.6178
18.308	22.6779
18.326	22.7369
18.344	22.7944
18.362	22.8479
18.38	22.897
18.398	22.9397
18.416	22.9756
18.434	23.0039
18.452	23.0244
18.47	23.0367
18.488	23.0412
18.506	23.0378
18.524	23.0275
18.542	23.0103
18.56	22.988
18.578	22.9605
18.596	22.9299
18.614	22.8963
18.632	22.8621
18.65	22.8275
18.668	22.7945
18.686	22.7634
18.704	22.7361
18.722	22.7126
18.74	22.6941
18.758	22.6807
18.776	22.6732
18.794	22.6712
18.812	22.6746
18.83	22.6831
18.848	22.6959
18.866	22.7123
18.884	22.7313
18.902	22.7521
18.92	22.7734
18.938	22.7946
18.956	22.8143
18.974	22.832
18.992	22.8463
19.01	22.8571
19.028	22.8633
19.046	22.8651
19.064	22.8619
19.082	22.8541
19.1	22.8414
19.118	22.8245
19.136	22.8037
19.154	22.7797
19.172	22.7533
19.19	22.7251
19.208	22.6966
19.226	22.6682
19.244	22.6419
19.262	22.6176
19.28	22.5973
19.298	22.581
19.316	22.5702
19.334	22.5648
19.352	22.5654
19.37	22.5719
19.388	22.5838
19.406	22.6014
19.424	22.6225
19.442	22.6476
19.46	22.6738
19.478	22.7012
19.496	22.7269
19.514	22.7504
19.532	22.7695
19.55	22.7828
19.568	22.7894
19.586	22.7877
19.604	22.7776
19.622	22.7578
19.64	22.7289
19.658	22.6911
19.676	22.6444
19.694	22.5911
19.712	22.5309
19.73	22.467
19.748	22.3994
19.766	22.331
19.784	22.2623
19.802	22.1954
19.82	22.1315
19.838	22.0713
19.856	22.0167
19.874	21.967
19.892	21.9233
19.91	21.8852
19.928	21.8519
19.946	21.8235
19.964	21.7983
19.982	21.7762
20	21.7556
20.018	21.7357
20.036	21.716
20.054	21.695
20.072	21.6729
20.09	21.649
20.108	21.6234
20.126	21.5964
20.144	21.5678
20.162	21.5391
20.18	21.5103
20.198	21.4826
20.216	21.4575
20.234	21.435
20.252	21.4175
20.27	21.4047
20.288	21.3978
20.306	21.3973
20.324	21.403
20.342	21.4155
20.36	21.4341
20.378	21.4581
20.396	21.4875
20.414	21.5204
20.432	21.557
20.45	21.5951
20.468	21.6338
20.486	21.6725
20.504	21.7093
20.522	21.7444
20.54	21.7761
20.558	21.8043
20.576	21.8292
20.594	21.8504
20.612	21.8686
20.63	21.8843
20.648	21.8975
20.666	21.9107
20.684	21.9236
20.702	21.9383
20.72	21.956
20.738	21.977
20.756	22.0041
20.774	22.0366
20.792	22.0763
20.81	22.1237
20.828	22.1785
20.846	22.2414
20.864	22.3122
20.882	22.3896
20.9	22.4743
20.918	22.5642
20.936	22.6584
20.954	22.7565
20.972	22.8552
20.99	22.9555
21.008	23.0542
21.026	23.1501
21.044	23.2429
21.062	23.3297
21.08	23.4111
21.098	23.4851
21.116	23.5511
21.134	23.609
21.152	23.6575
21.17	23.697
21.188	23.7273
21.206	23.7483
21.224	23.7603
21.242	23.7639
21.26	23.7589
21.278	23.7463
21.296	23.7263
21.314	23.6993
21.332	23.6661
21.35	23.6265
21.368	23.5815
21.386	23.5313
21.404	23.476
21.422	23.4163
21.44	23.3521
21.458	23.2841
21.476	23.2128
21.494	23.1381
21.512	23.0613
21.53	22.982
21.548	22.9015
21.566	22.8203
21.584	22.7385
21.602	22.658
21.62	22.5784
21.638	22.501
21.656	22.4276
21.674	22.3576
21.692	22.2931
21.71	22.2348
21.728	22.1825
21.746	22.1382
21.764	22.1013
21.782	22.0725
21.8	22.0523
21.818	22.0403
21.836	22.0363
21.854	22.0404
21.872	22.052
21.89	22.0695
21.908	22.0938
21.926	22.1226
21.944	22.1546
21.962	22.1904
21.98	22.2265
21.998	22.2634
22.016	22.2999
22.034	22.3329
22.052	22.3636
22.07	22.39
22.088	22.4104
22.106	22.4257
22.124	22.4346
22.142	22.4369
22.16	22.4327
22.178	22.4217
22.196	22.4038
22.214	22.3792
22.232	22.3481
22.25	22.3105
22.268	22.2668
22.286	22.2171
22.304	22.1615
22.322	22.1003
22.34	22.0339
22.358	21.9621
22.376	21.885
22.394	21.8027
22.412	21.715
22.43	21.6218
22.448	21.5231
22.466	21.4191
22.484	21.3097
22.502	21.1948
22.52	21.0756
22.538	20.952
22.556	20.8241
22.574	20.6943
22.592	20.5621
22.61	20.4284
22.628	20.2969
22.646	20.1664
22.664	20.0388
22.682	19.9182
22.7	19.8026
22.718	19.6951
22.736	19.5995
22.754	19.5137
22.772	19.4405
22.79	19.3828
22.808	19.3389
22.826	19.3108
22.844	19.3004
22.862	19.3066
22.88	19.329
22.898	19.3678
22.916	19.423
22.934	19.4921
22.952	19.5751
22.97	19.6719
22.988	19.7789
23.006	19.8958
23.024	20.0227
23.042	20.1552
23.06	20.2935
23.078	20.4373
23.096	20.5823
23.114	20.7288
23.132	20.8763
23.15	21.0211
23.168	21.1636
23.186	21.3035
23.204	21.4384
23.222	21.5687
23.24	21.6941
23.258	21.8126
23.276	21.9244
23.294	22.0293
23.312	22.1259
23.33	22.2148
23.348	22.2955
23.366	22.3659
23.384	22.4265
23.402	22.4769
23.42	22.5147
23.438	22.5402
23.456	22.5532
23.474	22.5509
23.492	22.5331
23.51	22.5002
23.528	22.4502
23.546	22.3827
23.564	22.2982
23.582	22.196
23.6	22.0754
23.618	21.937
23.636	21.7819
23.654	21.6098
23.672	21.4203
23.69	21.2175
23.708	21.0032
23.726	20.7748
23.744	20.5388
23.762	20.3006
23.78	20.0557
23.798	19.8105
23.816	19.572
23.834	19.336
23.852	19.1069
23.87	18.8921
23.888	18.6893
23.906	18.4999
23.924	18.3299
23.942	18.1796
23.96	18.0479
23.978	17.9383
23.996	17.8526
24.014	17.7892
24.032	17.7477
24.05	17.7283
24.068	17.7314
24.086	17.7545
24.104	17.7952
24.122	17.856
24.14	17.9333
24.158	18.0226
24.176	18.1256
24.194	18.241
24.212	18.3646
24.23	18.4954
24.248	18.6348
24.266	18.7804
24.284	18.9306
24.302	19.0861
24.32	19.2476
24.338	19.415
24.356	19.5877
24.374	19.7669
24.392	19.9544
24.41	20.1495
24.428	20.3524
24.446	20.5654
24.464	20.7894
24.482	21.0233
24.5	21.2683
24.518	21.5256
24.536	21.7955
24.554	22.0764
24.572	22.3666
24.59	22.6679
24.608	22.9788
24.626	23.2947
24.644	23.6147
24.662	23.9417
24.68	24.2678
24.698	24.5864
24.716	24.9038
24.734	25.2138
24.752	25.5055
24.77	25.78
24.788	26.0392
24.806	26.2726
24.824	26.4728
24.842	26.6461
24.86	26.7881
24.878	26.8928
24.896	26.9612
24.914	26.9944
24.932	26.9897
24.95	26.9448
24.968	26.8602
24.986	26.74
25.004	26.5878
25.022	26.4009
25.04	26.1814
25.058	25.935
25.076	25.6636
25.094	25.3638
25.112	25.0416
25.13	24.7027
25.148	24.3445
25.166	23.9679
25.184	23.5773
25.202	23.1747
25.22	22.7578
25.238	22.3288
25.256	21.89
25.274	21.4417
25.292	20.9828
25.31	20.5132
25.328	20.033
25.346	19.5428
25.364	19.0412
25.382	18.5271
25.4	18.0003
25.418	17.4613
25.436	16.9102
25.454	16.3464
25.472	15.7685
25.49	15.1795
25.508	14.5829
25.526	13.9781
25.544	13.3637
25.562	12.7452
25.58	12.1276
25.598	11.5055
25.616	10.8826
25.634	10.2676
25.652	9.664568
25.67	9.065872
25.688	8.480734
25.706	7.920148
25.724	7.382131
25.742	6.863054
25.76	6.375676
25.778	5.931562
25.796	5.521353
25.814	5.149322
25.832	4.828180
25.85	4.565860
25.868	4.352257
25.886	4.194808
25.904	4.103514
25.922	4.080589
25.94	4.120158
25.958	4.227846
25.976	4.409430
25.994	4.665901
26.012	4.993825
26.03	5.390744
26.048	5.855092
26.066	6.392369
26.084	6.996017
26.102	7.656058
26.12	8.368430
26.138	9.145341
26.156	9.970203
26.174	10.8231
26.192	11.7019
26.21	12.6218
26.228	13.5559
26.246	14.4761
26.264	15.3892
26.282	16.3051
26.3	17.1922
26.318	18.0195
26.336	18.8045
26.354	19.5471
26.372	20.2175
26.39	20.7883
26.408	21.278
26.426	21.6836
26.444	21.9853
26.462	22.1663
26.48	22.2388
26.498	22.2016
26.516	22.0471
26.534	21.7676
26.552	21.3622
26.57	20.8412
26.588	20.2156
26.606	19.4888
26.624	18.644
26.642	17.7042
26.66	16.6969
26.678	15.6325
26.696	14.4813
26.714	13.2773
26.732	12.0598
26.75	10.8439
26.768	9.592457
26.786	8.343072
26.804	7.139219
26.822	5.998301
26.84	4.882713
26.858	3.824773
26.876	2.861797
26.894	2.011158
26.912	1.242687
26.93	0.575305
26.948	0.031782
26.966	-0.358769
26.984	-0.589394
27.002	-0.715847
27.02	-0.796808
27.028	-0.828671