File: Bakgrunnsmateriale/MATLAB/FTIR/ftir_data/LPE453/Mapping_121/LPE453_t88.asc
PE IR       SPECTRUM    SPECTRUM    ASCII       PEDS        1.60
  -1
LPE3B9~1.ASC
17/05/16
21:32:31.00
17/05/16
21:32:57.00
tln
$LPE453_t0088$<tbV0>[-13.0,5.2,8.0,0.0,27,1,0]
27.028
64

2002,4.07
MIRTGS : RIGHTBACK : INTERNAL 2
MIR : ON : INTERNAL 2
OPTKBR

0.200000
8
8.000000
FILLER
RATIO
SPECTRUM
UNLOCKED 256

DOUBLE
64
COMBINED
1
0
0

0.002000
RATIO

1
0
TRUE
51149
0
LEFT NOT FITTED RIGHT NOT FITTED 0
NONE
NONE
15600
12
4.427000
51148
TRUE
1 0 8 72 0 0 0 0

15798

#HDR
-1
-1
#GR
µM
%T
2.38419e-05
0.0
2.000000
0.002000
12515
8
33.0478
-4.199703
#DATA
2.000000	 -0.499010
2.018000	 0.642224
2.036000	 -0.266575
2.054000	 0.228632
2.072000	 0.089227
2.090000	 0.203681
2.108000	 0.277478
2.126000	 -0.188325
2.144000	 1.534350
2.162000	 1.228996
2.180000	 1.289444
2.198000	 0.269883
2.216000	 -1.482686
2.234000	 -0.104017
2.252000	 -0.233178
2.270000	 0.057632
2.288000	 0.169038
2.306000	 -0.047277
2.324000	 -0.259792
2.342000	 0.189307
2.360000	 0.080948
2.378000	 -0.042495
2.396000	 0.613220
2.414000	 0.101063
2.432000	 0.049202
2.450000	 0.197188
2.468000	 0.131043
2.486000	 0.154641
2.504000	 -0.038029
2.522000	 0.175852
2.540000	 0.166318
2.558000	 -0.112876
2.576000	 0.045681
2.594000	 0.063268
2.612000	 0.073369
2.630000	 0.049507
2.648000	 -0.081570
2.666000	 -0.020590
2.684000	 0.086090
2.702000	 -0.060360
2.720000	 -0.015737
2.738000	 -0.003964
2.756000	 -0.033704
2.774000	 0.045797
2.792000	 0.026174
2.810000	 0.106819
2.828000	 0.046200
2.846000	 -0.050596
2.864000	 0.090865
2.882000	 0.130784
2.900000	 0.028414
2.918000	 0.063087
2.936000	 0.069706
2.954000	 0.167083
2.972000	 -0.068375
2.990000	 0.035732
3.008000	 -0.052884
3.026000	 0.117513
3.044000	 -0.044157
3.062000	 -0.041053
3.080000	 -0.081501
3.098000	 -0.004741
3.116000	 -0.007315
3.134000	 0.080130
3.152000	 0.049911
3.170000	 0.076241
3.188000	 0.019584
3.206000	 0.109216
3.224000	 0.096936
3.242000	 0.087853
3.260000	 -0.008559
3.278000	 0.070937
3.296000	 -0.044922
3.314000	 0.124875
3.332000	 -0.003121
3.350000	 0.055259
3.368000	 0.088400
3.386000	 0.134014
3.404000	 -0.000416
3.422000	 -0.006667
3.440000	 0.062234
3.458000	 -0.075886
3.476000	 0.100365
3.494000	 0.174261
3.512000	 0.083326
3.530000	 -0.054465
3.548000	 0.038246
3.566000	 0.106286
3.584000	 0.042522
3.602000	 -0.029821
3.620000	 0.019910
3.638000	 0.164959
3.656000	 0.058859
3.674000	 0.072263
3.692000	 0.002439
3.710000	 0.079175
3.728000	 -0.022882
3.746000	 0.070654
3.764000	 0.012920
3.782000	 0.049604
3.800000	 -0.035516
3.818000	 0.040274
3.836000	 -0.010380
3.854000	 0.007303
3.872000	 0.159903
3.890000	 0.035518
3.908000	 -0.070048
3.926000	 0.172537
3.944000	 -0.011105
3.962000	 0.063301
3.980000	 0.098682
3.998000	 0.068918
4.016000	 -0.013181
4.034000	 0.108384
4.052000	 -0.056446
4.070000	 -0.032976
4.088000	 0.068807
4.106000	 0.092632
4.124000	 0.026428
4.141999	 0.050456
4.160000	 0.026541
4.178000	 -0.014515
4.196000	 -0.007628
4.214000	 0.003257
4.232000	 0.014278
4.250000	 0.139809
4.268000	 0.054275
4.286000	 0.054912
4.304000	 0.001283
4.322000	 0.146308
4.340000	 0.141328
4.358000	 0.213149
4.375999	 0.387638
4.394000	 0.514739
4.412000	 0.656011
4.430000	 0.834437
4.448000	 1.051985
4.466000	 1.209736
4.484000	 1.580391
4.502000	 1.977651
4.520000	 2.406070
4.538000	 2.755149
4.556000	 3.284264
4.574000	 3.795928
4.592000	 4.393306
4.609999	 5.122519
4.628000	 5.847128
4.646000	 6.419912
4.664000	 7.282510
4.682000	 8.213679
4.700000	 8.804688
4.718000	 9.749444
4.736000	 10.6249
4.754000	 11.5393
4.772000	 12.357
4.790000	 13.3173
4.808000	 14.0485
4.826000	 14.8603
4.843999	 15.7327
4.862000	 16.5679
4.880000	 17.4839
4.898000	 18.2626
4.916000	 18.9593
4.934000	 19.6956
4.952000	 20.3653
4.970000	 20.9295
4.988000	 21.5489
5.006000	 22.1491
5.024000	 22.6776
5.042000	 23.3036
5.060000	 23.787
5.077999	 24.2775
5.096000	 24.7179
5.114000	 25.0881
5.132000	 25.5421
5.150000	 25.9622
5.168000	 26.3113
5.186000	 26.7
5.204000	 27.0635
5.222000	 27.3561
5.240000	 27.5672
5.258000	 27.7959
5.276000	 28.0688
5.294000	 28.3802
5.312000	 28.6871
5.330000	 28.871
5.348000	 29.0481
5.366000	 29.2917
5.384000	 29.43
5.402000	 29.5611
5.420000	 29.7371
5.438000	 29.8987
5.456000	 30.0486
5.474000	 30.2511
5.492000	 30.3835
5.510000	 30.4537
5.528000	 30.5268
5.546000	 30.7281
5.564000	 30.8384
5.582000	 30.8415
5.600000	 30.969
5.618000	 31.0759
5.636000	 31.2356
5.654000	 31.339
5.672000	 31.3832
5.690000	 31.4946
5.708000	 31.5131
5.726000	 31.5527
5.744000	 31.6217
5.762000	 31.7695
5.780000	 31.8647
5.798000	 31.8414
5.816000	 31.9207
5.834000	 32.1055
5.852000	 32.1131
5.870000	 32.069
5.888000	 32.0482
5.906000	 32.0861
5.923999	 32.128
5.942000	 32.1881
5.960000	 32.2045
5.978000	 32.2072
5.996000	 32.2296
6.014000	 32.2463
6.032000	 32.3176
6.050000	 32.3805
6.068000	 32.3797
6.086000	 32.4174
6.104000	 32.4742
6.122000	 32.4994
6.140000	 32.4954
6.158000	 32.4908
6.176000	 32.4444
6.194000	 32.3829
6.212000	 32.3472
6.230000	 32.352
6.248000	 32.4236
6.266000	 32.5182
6.284000	 32.6697
6.302000	 32.8174
6.320000	 32.7914
6.338000	 32.7776
6.356000	 32.7835
6.374000	 32.6967
6.392000	 32.672
6.410000	 32.6961
6.428000	 32.7
6.446000	 32.7723
6.464000	 32.8882
6.482000	 32.9438
6.500000	 32.9524
6.518000	 32.9292
6.536000	 32.8868
6.554000	 32.8963
6.572000	 32.9071
6.590000	 32.8571
6.608000	 32.8875
6.626000	 32.9904
6.644000	 33.0091
6.662000	 32.9371
6.680000	 32.8473
6.698000	 32.8377
6.716000	 32.8799
6.734000	 32.8593
6.752000	 32.8303
6.770000	 32.8692
6.788000	 32.9168
6.806000	 32.8864
6.824000	 32.8491
6.842000	 32.8955
6.860000	 32.9242
6.878000	 32.8747
6.896000	 32.8797
6.914000	 32.9656
6.932000	 33.0217
6.950000	 33.0046
6.968000	 32.9394
6.986000	 32.901
7.004000	 32.9424
7.022000	 33.0193
7.040000	 33.0468
7.058000	 33.0026
7.076000	 32.9536
7.094000	 32.9448
7.112000	 32.9292
7.130000	 32.8904
7.148000	 32.8563
7.166000	 32.8234
7.184000	 32.8156
7.202000	 32.8387
7.220000	 32.83
7.238000	 32.8091
7.256000	 32.8448
7.274000	 32.8996
7.292000	 32.9113
7.310000	 32.8904
7.328000	 32.8666
7.346000	 32.8516
7.364000	 32.8576
7.382000	 32.8994
7.400000	 32.9493
7.418000	 32.9401
7.436000	 32.8627
7.454000	 32.7917
7.472000	 32.789
7.490000	 32.8327
7.508000	 32.8643
7.526000	 32.8731
7.544000	 32.8887
7.562000	 32.9128
7.580000	 32.9225
7.598000	 32.9172
7.616000	 32.9113
7.634000	 32.91
7.652000	 32.9115
7.670000	 32.905
7.688000	 32.8681
7.706000	 32.8036
7.724000	 32.7532
7.742000	 32.7463
7.760000	 32.7754
7.778000	 32.8203
7.796000	 32.8566
7.814000	 32.8619
7.832000	 32.8476
7.850000	 32.85
7.868000	 32.874
7.886000	 32.8823
7.904000	 32.8437
7.922000	 32.7713
7.940000	 32.7062
7.958000	 32.6745
7.976000	 32.6766
7.994000	 32.7018
8.012000	 32.7331
8.030000	 32.7502
8.048000	 32.7414
8.065999	 32.7045
8.084000	 32.6447
8.102000	 32.5842
8.120000	 32.5497
8.138000	 32.5396
8.155999	 32.5324
8.173999	 32.535
8.192000	 32.5726
8.210000	 32.6277
8.228000	 32.648
8.246000	 32.6129
8.263999	 32.5605
8.282000	 32.5513
8.300000	 32.5984
8.318000	 32.6462
8.336000	 32.6315
8.353999	 32.5601
8.372000	 32.4874
8.390000	 32.4417
8.408000	 32.4132
8.426000	 32.3991
8.443999	 32.4059
8.462000	 32.4281
8.480000	 32.4537
8.498000	 32.4771
8.516000	 32.4972
8.533999	 32.5087
8.552000	 32.5005
8.570000	 32.4657
8.588000	 32.4105
8.606000	 32.353
8.624000	 32.3102
8.641999	 32.2819
8.660000	 32.2536
8.678000	 32.213
8.696000	 32.1638
8.714000	 32.123
8.731999	 32.1055
8.750000	 32.1096
8.768000	 32.118
8.786000	 32.1129
8.804000	 32.0927
8.821999	 32.068
8.840000	 32.0421
8.858000	 32.0063
8.876000	 31.9608
8.894000	 31.9267
8.911999	 31.9278
8.930000	 31.9627
8.948000	 32.0055
8.966000	 32.0318
8.984000	 32.0348
9.001999	 32.0173
9.020000	 31.9769
9.038000	 31.9085
9.056000	 31.8173
9.074000	 31.7289
9.092000	 31.6804
9.109999	 31.6907
9.128000	 31.7381
9.146000	 31.7705
9.164000	 31.7485
9.182000	 31.6802
9.199999	 31.6107
9.218000	 31.5767
9.236000	 31.5765
9.254000	 31.5835
9.272000	 31.5785
9.289999	 31.5664
9.308000	 31.5656
9.326000	 31.586
9.344000	 31.6207
9.362000	 31.6526
9.379999	 31.6662
9.398000	 31.6555
9.416000	 31.6257
9.434000	 31.5869
9.452000	 31.548
9.469999	 31.5118
9.488000	 31.4781
9.506000	 31.4502
9.524000	 31.4354
9.542000	 31.4366
9.560000	 31.4448
9.577999	 31.443
9.596000	 31.4193
9.614000	 31.375
9.632000	 31.32
9.650000	 31.2616
9.667999	 31.2009
9.686000	 31.1394
9.704000	 31.0865
9.722000	 31.0567
9.740000	 31.0589
9.757999	 31.0863
9.776000	 31.12
9.794000	 31.1425
9.812000	 31.1491
9.830000	 31.1483
9.847999	 31.1504
9.866000	 31.1575
9.884000	 31.1628
9.902000	 31.1565
9.920000	 31.1343
9.937999	 31.0982
9.956000	 31.0529
9.974000	 31.003
9.992000	 30.9523
10.01	30.9056
10.028	30.8662
10.046	30.8344
10.064	30.8043
10.082	30.7673
10.1	30.7177
10.118	30.6561
10.136	30.5882
10.154	30.5206
10.172	30.4584
10.19	30.4074
10.208	30.374
10.226	30.3635
10.244	30.3765
10.262	30.4063
10.28	30.4437
10.298	30.4825
10.316	30.5229
10.334	30.5681
10.352	30.6167
10.37	30.6586
10.388	30.6775
10.406	30.6596
10.424	30.6005
10.442	30.5086
10.46	30.4005
10.478	30.2961
10.496	30.2118
10.514	30.1566
10.532	30.1316
10.55	30.1304
10.568	30.1412
10.586	30.1501
10.604	30.1467
10.622	30.1264
10.64	30.093
10.658	30.0544
10.676	30.0188
10.694	29.9886
10.712	29.9604
10.73	29.9271
10.748	29.8822
10.766	29.8239
10.784	29.7555
10.802	29.683
10.82	29.6115
10.838	29.5453
10.856	29.4881
10.874	29.4451
10.892	29.4231
10.91	29.428
10.928	29.4611
10.946	29.5176
10.964	29.5875
10.982	29.6569
11	29.7137
11.018	29.7481
11.036	29.7554
11.054	29.7351
11.072	29.6911
11.09	29.6302
11.108	29.5614
11.126	29.4953
11.144	29.4405
11.162	29.4031
11.18	29.3838
11.198	29.3783
11.216	29.3795
11.234	29.3789
11.252	29.3692
11.27	29.3466
11.288	29.3101
11.306	29.261
11.324	29.2024
11.342	29.1381
11.36	29.0723
11.378	29.0103
11.396	28.9572
11.414	28.9166
11.432	28.8896
11.45	28.874
11.468	28.8654
11.486	28.8597
11.504	28.8545
11.522	28.8503
11.54	28.8501
11.558	28.8568
11.576	28.8726
11.594	28.8973
11.612	28.9286
11.63	28.9623
11.648	28.9948
11.666	29.023
11.684	29.0452
11.702	29.0611
11.72	29.072
11.738	29.0796
11.756	29.0848
11.774	29.0873
11.792	29.0847
11.81	29.073
11.828	29.0477
11.846	29.0055
11.864	28.9463
11.882	28.8729
11.9	28.7909
11.918	28.7058
11.936	28.6222
11.954	28.5421
11.972	28.4663
11.99	28.3958
12.008	28.3342
12.026	28.2878
12.044	28.2646
12.062	28.271
12.08	28.3086
12.098	28.371
12.116	28.4449
12.134	28.5121
12.152	28.5549
12.17	28.5617
12.188	28.5291
12.206	28.4635
12.224	28.3788
12.242	28.291
12.26	28.2144
12.278	28.1597
12.296	28.1316
12.314	28.1297
12.332	28.149
12.35	28.1814
12.368	28.2165
12.386	28.2439
12.404	28.2553
12.422	28.2463
12.44	28.2175
12.458	28.1734
12.476	28.1203
12.494	28.0649
12.512	28.0121
12.53	27.9646
12.548	27.9233
12.566	27.8883
12.584	27.8601
12.602	27.8395
12.62	27.8275
12.638	27.8241
12.656	27.8278
12.674	27.8349
12.692	27.8403
12.71	27.8388
12.728	27.8262
12.746	27.8018
12.764	27.767
12.782	27.7251
12.8	27.6805
12.818	27.6367
12.836	27.5956
12.854	27.5572
12.872	27.5199
12.89	27.4815
12.908	27.4408
12.926	27.3969
12.944	27.3506
12.962	27.3024
12.98	27.2533
12.998	27.2037
13.016	27.1538
13.034	27.1036
13.052	27.0533
13.07	27.004
13.088	26.9572
13.106	26.9149
13.124	26.879
13.142	26.8512
13.16	26.8328
13.178	26.8253
13.196	26.8297
13.214	26.8464
13.232	26.875
13.25	26.9139
13.268	26.9596
13.286	27.0068
13.304	27.0489
13.322	27.0792
13.34	27.0924
13.358	27.0859
13.376	27.061
13.394	27.0232
13.412	26.9805
13.43	26.9417
13.448	26.9142
13.466	26.9023
13.484	26.9056
13.502	26.9196
13.52	26.937
13.538	26.9493
13.556	26.9492
13.574	26.9322
13.592	26.8975
13.61	26.8481
13.628	26.7899
13.646	26.7296
13.664	26.6739
13.682	26.6276
13.7	26.593
13.718	26.5705
13.736	26.5585
13.754	26.5543
13.772	26.5545
13.79	26.5562
13.808	26.5569
13.826	26.5543
13.844	26.5471
13.862	26.5347
13.88	26.5167
13.898	26.4933
13.916	26.4649
13.934	26.4317
13.952	26.3938
13.97	26.3514
13.988	26.3045
14.006	26.2535
14.024	26.1993
14.042	26.1436
14.06	26.0891
14.078	26.0394
14.096	25.9983
14.114	25.9692
14.132	25.9547
14.15	25.9549
14.168	25.9682
14.186	25.9905
14.204	26.0153
14.222	26.0355
14.24	26.0438
14.258	26.0353
14.276	26.0075
14.294	25.961
14.312	25.8997
14.33	25.8293
14.348	25.7575
14.366	25.6919
14.384	25.6392
14.402	25.6042
14.42	25.5887
14.438	25.5924
14.456	25.6126
14.474	25.6451
14.492	25.6849
14.51	25.7265
14.528	25.7654
14.546	25.7981
14.564	25.8226
14.582	25.8381
14.6	25.8446
14.618	25.8431
14.636	25.8348
14.654	25.8211
14.672	25.8033
14.69	25.7828
14.708	25.7603
14.726	25.7366
14.744	25.7123
14.762	25.6879
14.78	25.664
14.798	25.641
14.816	25.6197
14.834	25.6003
14.852	25.5829
14.87	25.5675
14.888	25.5534
14.906	25.5398
14.924	25.5256
14.942	25.5092
14.96	25.4896
14.978	25.4658
14.996	25.4372
15.014	25.4037
15.032	25.3659
15.05	25.3246
15.068	25.2804
15.086	25.234
15.104	25.1861
15.122	25.137
15.14	25.0868
15.158	25.0358
15.176	24.9839
15.194	24.9315
15.212	24.8794
15.23	24.8287
15.248	24.7808
15.266	24.7375
15.284	24.7004
15.302	24.6709
15.32	24.6494
15.338	24.6357
15.356	24.629
15.374	24.627
15.392	24.6274
15.41	24.6277
15.428	24.625
15.446	24.6174
15.464	24.6037
15.482	24.5837
15.5	24.5584
15.518	24.5298
15.536	24.5011
15.554	24.475
15.572	24.4547
15.59	24.4436
15.608	24.4435
15.626	24.4554
15.644	24.4801
15.662	24.5162
15.68	24.5624
15.698	24.6167
15.716	24.6763
15.734	24.7386
15.752	24.8015
15.77	24.8628
15.788	24.9202
15.806	24.9723
15.824	25.0178
15.842	25.0556
15.86	25.0844
15.878	25.1038
15.896	25.1134
15.914	25.1127
15.932	25.1024
15.95	25.0831
15.968	25.0555
15.986	25.0214
16.004	24.9823
16.022	24.9395
16.04	24.8952
16.058	24.8509
16.076	24.8074
16.094	24.7659
16.112	24.7263
16.13	24.6884
16.148	24.6518
16.166	24.6155
16.184	24.5787
16.202	24.5404
16.22	24.4998
16.238	24.4568
16.256	24.4112
16.274	24.3639
16.292	24.3158
16.31	24.2677
16.328	24.2216
16.346	24.1788
16.364	24.1407
16.382	24.1086
16.4	24.0828
16.418	24.0637
16.436	24.0506
16.454	24.0424
16.472	24.0382
16.49	24.0354
16.508	24.0323
16.526	24.0271
16.544	24.0171
16.562	24.0008
16.58	23.9771
16.598	23.9448
16.616	23.9042
16.634	23.8557
16.652	23.8006
16.67	23.7405
16.688	23.6771
16.706	23.6139
16.724	23.553
16.742	23.4972
16.76	23.4495
16.778	23.4112
16.796	23.3844
16.814	23.37
16.832	23.3682
16.85	23.3792
16.868	23.4017
16.886	23.4346
16.904	23.4758
16.922	23.5238
16.94	23.5768
16.958	23.6327
16.976	23.6907
16.994	23.7491
17.012	23.8076
17.03	23.8658
17.048	23.9236
17.066	23.9814
17.084	24.0396
17.102	24.0985
17.12	24.1582
17.138	24.2186
17.156	24.279
17.174	24.3388
17.192	24.3963
17.21	24.4505
17.228	24.4994
17.246	24.5414
17.264	24.5753
17.282	24.5987
17.3	24.6113
17.318	24.612
17.336	24.6011
17.354	24.5785
17.372	24.5454
17.39	24.5022
17.408	24.4502
17.426	24.3908
17.444	24.325
17.462	24.2546
17.48	24.1802
17.498	24.1034
17.516	24.0247
17.534	23.9447
17.552	23.8644
17.57	23.7839
17.588	23.704
17.606	23.6246
17.624	23.5463
17.642	23.4691
17.66	23.3932
17.678	23.3188
17.696	23.2459
17.714	23.1747
17.732	23.1053
17.75	23.0376
17.768	22.9718
17.786	22.908
17.804	22.846
17.822	22.7858
17.84	22.7277
17.858	22.6717
17.876	22.6182
17.894	22.5678
17.912	22.5208
17.93	22.4778
17.948	22.4389
17.966	22.4054
17.984	22.3774
18.002	22.3559
18.02	22.341
18.038	22.3335
18.056	22.3334
18.074	22.3407
18.092	22.3554
18.11	22.3775
18.128	22.4065
18.146	22.4422
18.164	22.4837
18.182	22.5304
18.2	22.5815
18.218	22.6354
18.236	22.6917
18.254	22.7482
18.272	22.8045
18.29	22.8581
18.308	22.9087
18.326	22.9541
18.344	22.994
18.362	23.0269
18.38	23.0528
18.398	23.0705
18.416	23.0807
18.434	23.0835
18.452	23.0796
18.47	23.0694
18.488	23.0542
18.506	23.0346
18.524	23.0118
18.542	22.986
18.56	22.9587
18.578	22.9302
18.596	22.901
18.614	22.8714
18.632	22.8414
18.65	22.8111
18.668	22.7802
18.686	22.7487
18.704	22.7163
18.722	22.6833
18.74	22.6494
18.758	22.6148
18.776	22.5799
18.794	22.545
18.812	22.5106
18.83	22.4772
18.848	22.4455
18.866	22.4159
18.884	22.3893
18.902	22.3658
18.92	22.3461
18.938	22.3304
18.956	22.3188
18.974	22.311
18.992	22.307
19.01	22.3063
19.028	22.3085
19.046	22.3133
19.064	22.32
19.082	22.3284
19.1	22.3378
19.118	22.3482
19.136	22.3589
19.154	22.3701
19.172	22.3816
19.19	22.3935
19.208	22.4061
19.226	22.4194
19.244	22.4335
19.262	22.4486
19.28	22.4646
19.298	22.4814
19.316	22.4988
19.334	22.5167
19.352	22.5342
19.37	22.5515
19.388	22.5672
19.406	22.5815
19.424	22.593
19.442	22.6018
19.46	22.607
19.478	22.6084
19.496	22.6057
19.514	22.5985
19.532	22.5873
19.55	22.5721
19.568	22.5533
19.586	22.5311
19.604	22.506
19.622	22.4787
19.64	22.4494
19.658	22.4188
19.676	22.3867
19.694	22.3539
19.712	22.3202
19.73	22.2855
19.748	22.2498
19.766	22.2127
19.784	22.1741
19.802	22.1333
19.82	22.0898
19.838	22.0435
19.856	21.9939
19.874	21.9409
19.892	21.884
19.91	21.8234
19.928	21.7592
19.946	21.6913
19.964	21.6204
19.982	21.5464
20	21.4704
20.018	21.3928
20.036	21.3141
20.054	21.2354
20.072	21.1565
20.09	21.0789
20.108	21.0024
20.126	20.9277
20.144	20.855
20.162	20.7847
20.18	20.7171
20.198	20.6521
20.216	20.5901
20.234	20.5312
20.252	20.4756
20.27	20.4235
20.288	20.3753
20.306	20.3308
20.324	20.2908
20.342	20.2556
20.36	20.2254
20.378	20.201
20.396	20.1824
20.414	20.1705
20.432	20.1655
20.45	20.1676
20.468	20.177
20.486	20.1936
20.504	20.2172
20.522	20.2478
20.54	20.2843
20.558	20.3269
20.576	20.3739
20.594	20.425
20.612	20.479
20.63	20.5335
20.648	20.5891
20.666	20.6424
20.684	20.6936
20.702	20.7408
20.72	20.7822
20.738	20.818
20.756	20.846
20.774	20.8666
20.792	20.8787
20.81	20.882
20.828	20.8769
20.846	20.8635
20.864	20.8418
20.882	20.8135
20.9	20.7781
20.918	20.7376
20.936	20.6932
20.954	20.6452
20.972	20.5969
20.99	20.5474
21.008	20.4999
21.026	20.4554
21.044	20.4142
21.062	20.3792
21.08	20.3496
21.098	20.3275
21.116	20.3133
21.134	20.307
21.152	20.3095
21.17	20.3207
21.188	20.3397
21.206	20.3668
21.224	20.4008
21.242	20.44
21.26	20.4851
21.278	20.5325
21.296	20.5823
21.314	20.6332
21.332	20.682
21.35	20.7298
21.368	20.7736
21.386	20.8128
21.404	20.8472
21.422	20.8751
21.44	20.8968
21.458	20.9121
21.476	20.9203
21.494	20.9221
21.512	20.9181
21.53	20.9077
21.548	20.8926
21.566	20.8736
21.584	20.8505
21.602	20.8253
21.62	20.7979
21.638	20.7688
21.656	20.7395
21.674	20.7095
21.692	20.6793
21.71	20.6491
21.728	20.6187
21.746	20.5878
21.764	20.5566
21.782	20.5245
21.8	20.4908
21.818	20.4558
21.836	20.4185
21.854	20.3789
21.872	20.3369
21.89	20.2923
21.908	20.245
21.926	20.1955
21.944	20.144
21.962	20.0905
21.98	20.0368
21.998	19.9823
22.016	19.9282
22.034	19.8765
22.052	19.8264
22.07	19.7798
22.088	19.7383
22.106	19.701
22.124	19.6698
22.142	19.6451
22.16	19.6267
22.178	19.6155
22.196	19.6117
22.214	19.6147
22.232	19.6241
22.25	19.6402
22.268	19.6619
22.286	19.6887
22.304	19.7208
22.322	19.7563
22.34	19.7951
22.358	19.837
22.376	19.8803
22.394	19.9254
22.412	19.9716
22.43	20.0177
22.448	20.0642
22.466	20.1102
22.484	20.1549
22.502	20.1988
22.52	20.2407
22.538	20.2801
22.556	20.3174
22.574	20.3504
22.592	20.3796
22.61	20.4044
22.628	20.4222
22.646	20.4338
22.664	20.438
22.682	20.4317
22.7	20.4163
22.718	20.39
22.736	20.35
22.754	20.2977
22.772	20.2314
22.79	20.1495
22.808	20.0526
22.826	19.9407
22.844	19.813
22.862	19.6698
22.88	19.5129
22.898	19.3422
22.916	19.1578
22.934	18.964
22.952	18.7612
22.97	18.5492
22.988	18.3348
23.006	18.118
23.024	17.899
23.042	17.6859
23.06	17.4784
23.078	17.277
23.096	17.0891
23.114	16.9143
23.132	16.753
23.15	16.6112
23.168	16.4887
23.186	16.3853
23.204	16.3045
23.222	16.2465
23.24	16.2105
23.258	16.1967
23.276	16.2063
23.294	16.2376
23.312	16.2871
23.33	16.3563
23.348	16.4435
23.366	16.5433
23.384	16.6569
23.402	16.7829
23.42	16.9151
23.438	17.0538
23.456	17.1988
23.474	17.3439
23.492	17.4888
23.51	17.634
23.528	17.7747
23.546	17.9095
23.564	18.0397
23.582	18.1624
23.6	18.2762
23.618	18.3823
23.636	18.4794
23.654	18.5667
23.672	18.6447
23.69	18.7136
23.708	18.7734
23.726	18.824
23.744	18.8662
23.762	18.9005
23.78	18.9267
23.798	18.9452
23.816	18.9569
23.834	18.9616
23.852	18.9593
23.87	18.9503
23.888	18.9348
23.906	18.9126
23.924	18.8838
23.942	18.8484
23.96	18.8065
23.978	18.7581
23.996	18.7033
24.014	18.642
24.032	18.5746
24.05	18.5011
24.068	18.4212
24.086	18.3359
24.104	18.246
24.122	18.1502
24.14	18.0505
24.158	17.9495
24.176	17.8454
24.194	17.7399
24.212	17.6369
24.23	17.5364
24.248	17.4377
24.266	17.3448
24.284	17.2597
24.302	17.1801
24.32	17.1093
24.338	17.0505
24.356	17.0018
24.374	16.9644
24.392	16.9408
24.41	16.9309
24.428	16.9343
24.446	16.9522
24.464	16.9856
24.482	17.034
24.5	17.0961
24.518	17.1708
24.536	17.2594
24.554	17.3601
24.572	17.4707
24.59	17.5922
24.608	17.724
24.626	17.8632
24.644	18.0087
24.662	18.1619
24.68	18.3206
24.698	18.483
24.716	18.6501
24.734	18.8211
24.752	18.9945
24.77	19.1699
24.788	19.3478
24.806	19.5276
24.824	19.7089
24.842	19.8921
24.86	20.0767
24.878	20.2626
24.896	20.4496
24.914	20.6379
24.932	20.8272
24.95	21.0173
24.968	21.2082
24.986	21.4002
25.004	21.594
25.022	21.79
25.04	21.9873
25.058	22.1846
25.076	22.3819
25.094	22.5805
25.112	22.7764
25.13	22.9656
25.148	23.151
25.166	23.3308
25.184	23.5001
25.202	23.657
25.22	23.8044
25.238	23.939
25.256	24.0576
25.274	24.162
25.292	24.2516
25.31	24.3235
25.328	24.3759
25.346	24.4106
25.364	24.4266
25.382	24.4225
25.4	24.3982
25.418	24.3543
25.436	24.2907
25.454	24.2071
25.472	24.1032
25.49	23.98
25.508	23.8386
25.526	23.6785
25.544	23.4996
25.562	23.3042
25.58	23.0946
25.598	22.869
25.616	22.6285
25.634	22.3766
25.652	22.1149
25.67	21.841
25.688	21.5575
25.706	21.2675
25.724	20.9712
25.742	20.6673
25.76	20.3583
25.778	20.0464
25.796	19.7307
25.814	19.4111
25.832	19.0885
25.85	18.7633
25.868	18.4355
25.886	18.1047
25.904	17.7706
25.922	17.4331
25.94	17.0925
25.958	16.7484
25.976	16.4008
25.994	16.0495
26.012	15.6947
26.03	15.3365
26.048	14.9749
26.066	14.6084
26.084	14.2389
26.102	13.8693
26.12	13.5012
26.138	13.1317
26.156	12.7638
26.174	12.4009
26.192	12.0447
26.21	11.6926
26.228	11.3464
26.246	11.0076
26.264	10.6762
26.282	10.3513
26.3	10.0344
26.318	9.726514
26.336	9.428623
26.354	9.139516
26.372	8.857453
26.39	8.580771
26.408	8.309582
26.426	8.044590
26.444	7.786200
26.462	7.534883
26.48	7.291157
26.498	7.053971
26.516	6.822003
26.534	6.593370
26.552	6.365827
26.57	6.144249
26.588	5.934401
26.606	5.738847
26.624	5.550421
26.642	5.376757
26.66	5.227330
26.678	5.104881
26.696	4.997608
26.714	4.920151
26.732	4.889499
26.75	4.911699
26.768	4.970062
26.786	5.081656
26.804	5.266107
26.822	5.530903
26.84	5.858353
26.858	6.263903
26.876	6.765341
26.894	7.370931
26.912	8.066035
26.93	8.859254
26.948	9.761020
26.966	10.8524
26.984	12.2363
27.002	13.633
27.02	14.7394
27.028	15.0275