File: Bakgrunnsmateriale/MATLAB/FTIR/ftir_data/LPE453/Mapping_121/LPE453_t45_cm-1.asc
PE IR       SPECTRUM    SPECTRUM    ASCII       PEDS        1.60
  -1
LP69DB~1.ASC
17/05/16
18:06:16.00
17/05/16
18:06:16.00
tln
$LPE453_t0045$<tbV0>[13.0,-2.6,8.0,0.0,27,1,0]
370
64

2002,4.07
MIRTGS : RIGHTBACK : INTERNAL 2
MIR : ON : INTERNAL 2
OPTKBR

0.200000
8
8.000000
FILLER
RATIO
SPECTRUM
UNLOCKED 256

DOUBLE
64
COMBINED
1
0
0

1.000000
RATIO

1
0
TRUE
51149
0
LEFT NOT FITTED RIGHT NOT FITTED 0
NONE
NONE
15600
12
4.427000
51148
TRUE
1 0 8 72 0 0 0 0

15798

#HDR
-1
-1
#GR
CM-1
%T
2.38419e-05
0.0
5000
-1.000000
4631
8
61.9129
-4.807329
#DATA
5000	-0.150012
4996	-0.392389
4992	-0.211620
4988	0.304269
4984	0.618791
4980	0.606560
4976	0.434780
4972	0.252294
4968	0.277256
4964	0.316524
4960	0.101637
4956	-0.116062
4952	-0.249886
4948	-0.189042
4944	0.149750
4940	0.299239
4936	0.295591
4932	0.410175
4928	0.361466
4924	0.131416
4920	0.006246
4916	0.046825
4912	0.056219
4908	-0.024271
4904	-0.044703
4900	0.045204
4896	0.157499
4892	0.362420
4888	0.620794
4884	0.678181
4880	0.565791
4876	0.351428
4872	0.182867
4868	0.235676
4864	0.320529
4860	0.234222
4856	0.086832
4852	-0.093412
4848	-0.371909
4844	-0.447511
4840	-0.165390
4836	0.127530
4832	0.225949
4828	0.247311
4824	0.235557
4820	0.129652
4816	0.006270
4812	0.005221
4808	0.168800
4804	0.231647
4800	0.035095
4796	-0.042247
4792	0.052595
4788	0.084257
4784	0.050616
4780	-0.052499
4776	-0.121450
4772	-0.062680
4768	-0.099706
4764	-0.102114
4760	0.183653
4756	0.354862
4752	0.212574
4748	0.051569
4744	-0.049757
4740	-0.059628
4736	0.127792
4732	0.211000
4728	-0.001454
4724	-0.158524
4720	-0.003576
4716	0.128483
4712	0.097775
4708	0.119423
4704	0.110101
4700	0.111794
4696	0.112867
4692	-0.046467
4688	-0.067710
4684	0.007176
4680	-0.017762
4676	0.056195
4672	0.217890
4668	0.410628
4664	0.533652
4660	0.458455
4656	0.264573
4652	0.085091
4648	0.001168
4644	0.040721
4640	0.165772
4636	0.347375
4632	0.509309
4628	0.535345
4624	0.439310
4620	0.285005
4616	0.279426
4612	0.375008
4608	0.502109
4604	0.523710
4600	0.324177
4596	0.193262
4592	0.091052
4588	-0.343918
4584	-0.558042
4580	-0.244927
4576	0.095963
4572	0.206732
4568	0.175929
4564	-0.139546
4560	-0.521039
4556	-0.813436
4552	-1.012349
4548	-0.579309
4544	-0.003862
4540	-0.222492
4536	-0.957846
4532	-2.588605
4528	-4.807329
4524	0.354027
4520	12.8867
4516	14.2979
4512	5.908179
4508	1.427197
4504	0.081348
4500	0.107479
4496	0.830602
4492	1.742386
4488	2.292633
4484	2.034854
4480	0.473833
4476	-1.255702
4472	-1.043081
4468	-0.443267
4464	-0.759935
4460	-0.680851
4456	-0.450515
4452	-0.324869
4448	0.087285
4444	0.370073
4440	0.289821
4436	-0.157999
4432	-0.539040
4428	-0.628256
4424	-0.498223
4420	-0.260376
4416	-0.094103
4412	0.061225
4408	0.207328
4404	0.141477
4400	-0.000834
4396	0.088167
4392	0.316762
4388	0.443530
4384	0.270557
4380	-0.068664
4376	-0.137090
4372	-0.032067
4368	0.004887
4364	0.028061
4360	0.169277
4356	0.311064
4352	0.254154
4348	0.137352
4344	0.075531
4340	0.066494
4336	0.087475
4332	0.024271
4328	0.006628
4324	0.158858
4320	0.166606
4316	-0.022363
4312	-0.022387
4308	0.159215
4304	0.174069
4300	0.023126
4296	-0.085425
4292	-0.136232
4288	-0.123286
4284	-0.011420
4280	0.060796
4276	0.147461
4272	0.298547
4268	0.290322
4264	0.131106
4260	0.104284
4256	0.275325
4252	0.368785
4248	0.248527
4244	0.086808
4240	-0.067806
4236	-0.181579
4232	-0.136017
4228	-0.087738
4224	-0.062036
4220	0.058341
4216	0.188136
4212	0.269126
4208	0.389289
4204	0.417852
4200	0.162267
4196	0.000548
4192	0.181221
4188	0.294947
4184	0.327134
4180	0.396823
4176	0.462222
4172	0.446844
4168	0.195527
4164	0.129652
4160	0.262594
4156	0.235009
4152	0.209045
4148	0.144338
4144	-0.096273
4140	-0.211334
4136	-0.051474
4132	0.173449
4128	0.317335
4124	0.378608
4120	0.395750
4116	0.400137
4112	0.439810
4108	0.378584
4104	0.163507
4100	0.041484
4096	0.089955
4092	0.098061
4088	0.013852
4084	0.008082
4080	0.045394
4076	0.028562
4072	0.016665
4068	0.123953
4064	0.267624
4060	0.299453
4056	0.318217
4052	0.361204
4048	0.305008
4044	0.164365
4040	0.053930
4036	-0.060462
4032	-0.071907
4028	0.003719
4024	-0.039029
4020	-0.058031
4016	0.003433
4012	-0.004506
4008	-0.049448
4004	-0.018286
4000	0.087451
3996	0.174403
3992	0.102448
3988	-0.002431
3984	0.107550
3980	0.239181
3976	0.172328
3972	0.038170
3968	0.023651
3964	0.030970
3960	-0.013613
3956	0.028419
3952	0.105738
3948	0.102853
3944	0.026369
3940	-0.089287
3936	-0.145268
3932	-0.089144
3928	-0.036525
3924	-0.034451
3920	-0.001478
3916	0.051307
3912	0.075483
3908	0.068640
3904	0.047087
3900	0.045275
3896	0.057172
3892	0.049924
3888	0.007104
3884	-0.050210
3880	-0.076484
3876	-0.055336
3872	-0.013709
3868	-0.030660
3864	-0.045919
3860	0.056958
3856	0.197839
3852	0.241112
3848	0.095844
3844	-0.105595
3840	-0.081133
3836	0.199604
3832	0.424361
3828	0.354504
3824	0.153875
3820	0.044870
3816	0.058770
3812	0.118517
3808	0.084257
3804	-0.025510
3800	-0.057792
3796	0.027847
3792	0.094652
3788	0.045108
3784	0.018572
3780	0.051164
3776	0.025844
3772	-0.055003
3768	-0.075817
3764	0.000047
3760	0.062370
3756	0.089526
3752	0.146389
3748	0.262618
3744	0.299620
3740	0.164628
3736	0.018429
3732	-0.060248
3728	-0.067877
3724	-0.026917
3720	0.018215
3716	0.080204
3712	0.091648
3708	0.068306
3704	0.095772
3700	0.144410
3696	0.147271
3692	0.107598
3688	0.070190
3684	0.035667
3680	0.011873
3676	-0.031328
3672	-0.063371
3668	0.006413
3664	0.078105
3660	0.010490
3656	-0.049233
3652	-0.018525
3648	-0.021815
3644	0.012660
3640	0.113081
3636	0.147867
3632	0.125145
3628	0.095391
3624	0.061750
3620	0.076794
3616	0.116181
3612	0.117659
3608	0.116252
3604	0.080609
3600	0.014686
3596	-0.034236
3592	-0.059461
3588	-0.023198
3584	-0.027585
3580	-0.095438
3576	-0.100946
3572	-0.002241
3568	0.121665
3564	0.146961
3560	0.147485
3556	0.206732
3552	0.216126
3548	0.146198
3544	0.110173
3540	0.091886
3536	0.039291
3532	0.024914
3528	0.059747
3524	0.033140
3520	-0.009322
3516	-0.000643
3512	-0.043439
3508	-0.087904
3504	-0.069928
3500	-0.040745
3496	0.003790
3492	0.029730
3488	-0.013303
3484	-0.043678
3480	-0.038766
3476	-0.025391
3472	0.054907
3468	0.153946
3464	0.213599
3460	0.186371
3456	0.098204
3452	0.068044
3448	0.055742
3444	0.007128
3440	-0.026559
3436	0.004243
3432	0.049090
3428	0.059533
3424	0.037646
3420	0.037717
3416	0.087141
3412	0.072050
3408	0.002479
3404	-0.012564
3400	-0.049757
3396	-0.106406
3392	-0.111174
3388	-0.146269
3384	-0.130581
3380	-0.010848
3376	0.078845
3372	0.130009
3368	0.178360
3364	0.215744
3360	0.222921
3356	0.183010
3352	0.165748
3348	0.163531
3344	0.071215
3340	-0.022029
3336	-0.060582
3332	-0.093317
3328	-0.055384
3324	0.011515
3320	0.007867
3316	-0.039649
3312	-0.118041
3308	-0.121331
3304	0.015473
3300	0.130319
3296	0.222897
3292	0.313138
3288	0.292873
3284	0.170373
3280	0.063109
3276	0.046610
3272	0.074028
3268	0.107669
3264	0.079774
3260	-0.028085
3256	-0.079607
3252	-0.044608
3248	-0.010871
3244	0.000476
3240	-0.020384
3236	-0.036835
3232	0.036525
3228	0.106620
3224	0.106191
3220	0.105810
3216	0.089764
3212	0.061154
3208	0.051617
3204	0.007557
3200	-0.042605
3196	-0.005793
3192	0.064349
3188	0.128865
3184	0.179672
3180	0.182223
3176	0.191664
3172	0.205826
3168	0.177288
3164	0.117135
3160	0.084710
3156	0.104141
3152	0.101351
3148	0.083279
3144	0.074028
3140	0.076317
3136	0.108170
3132	0.152659
3128	0.219869
3124	0.274372
3120	0.197625
3116	-0.025510
3112	-0.115203
3108	0.016188
3104	0.079846
3100	0.050377
3096	0.088477
3092	0.116682
3088	0.060725
3084	0.026392
3080	0.019645
3076	0.031614
3072	0.095248
3068	0.136065
3064	0.170755
3060	0.196218
3056	0.158429
3052	0.092601
3048	0.028777
3044	-0.000357
3040	0.014901
3036	0.078749
3032	0.145530
3028	0.129675
3024	0.075078
3020	0.065135
3016	0.073242
3012	0.078272
3008	0.116324
3004	0.137853
3000	0.070714
2996	0.045609
2992	0.120782
2988	0.116348
2984	0.053906
2980	0.009560
2976	-0.050544
2972	-0.011754
2968	0.110483
2964	0.168013
2960	0.140881
2956	0.093340
2952	0.056171
2948	0.018095
2944	0.060033
2940	0.170111
2936	0.177311
2932	0.048637
2928	-0.049972
2924	-0.062608
2920	-0.039529
2916	-0.035834
2912	-0.094079
2908	-0.161337
2904	-0.142884
2900	-0.032377
2896	0.050306
2892	0.053524
2888	0.010967
2884	-0.021791
2880	-0.045609
2876	-0.044798
2872	0.029778
2868	0.102162
2864	0.084328
2860	-0.008058
2856	-0.103425
2852	-0.132393
2848	-0.067090
2844	0.004363
2840	0.008678
2836	-0.015401
2832	-0.040769
2828	-0.014281
2824	0.059652
2820	0.112867
2816	0.093531
2812	0.011110
2808	0.000119
2804	0.056982
2800	0.043582
2796	0.001692
2792	0.006341
2788	0.022816
2784	0.066876
2780	0.117516
2776	0.120663
2772	0.096726
2768	0.045490
2764	-0.001096
2760	0.009584
2756	0.042343
2752	0.071263
2748	0.099039
2744	0.133109
2740	0.176978
2736	0.153851
2732	0.116276
2728	0.163364
2724	0.162005
2720	0.034356
2716	-0.075554
2712	-0.069904
2708	0.001001
2704	0.080633
2700	0.107884
2696	0.084853
2692	0.093841
2688	0.122022
2684	0.107264
2680	0.029087
2676	-0.050640
2672	-0.044035
2668	0.014972
2664	0.028324
2660	0.008583
2656	0.005674
2652	0.015473
2648	0.038957
2644	0.029087
2640	-0.029230
2636	-0.061488
2632	-0.014615
2628	0.037312
2624	-0.005888
2620	-0.067019
2616	-0.056195
2612	-0.020718
2608	0.022935
2604	0.074911
2600	0.081586
2596	0.066995
2592	0.059866
2588	0.033378
2584	-0.015759
2580	-0.031352
2576	0.005054
2572	0.017237
2568	0.003027
2564	0.017166
2560	0.017237
2556	0.006771
2552	0.011134
2548	-0.043582
2544	-0.112152
2540	-0.073504
2536	0.011253
2532	0.028133
2528	0.007820
2524	0.023436
2520	0.061035
2516	0.065016
2512	-0.024676
2508	-0.129365
2504	-0.142550
2500	-0.106382
2496	-0.052070
2492	0.024199
2488	0.092935
2484	0.102257
2480	0.098514
2476	0.109910
2472	0.067472
2468	0.016903
2464	0.027465
2460	0.041866
2456	0.023221
2452	0.012636
2448	0.027680
2444	0.056266
2440	0.107932
2436	0.173306
2432	0.147080
2428	0.074529
2424	0.078368
2420	0.048899
2416	-0.059437
2412	-0.149726
2408	-0.147294
2404	-0.096368
2400	-0.088572
2396	-0.045728
2392	0.013279
2388	0.008773
2384	-0.006198
2380	-0.023818
2376	-0.043392
2372	-0.045108
2368	-0.034594
2364	-0.007271
2360	-0.002098
2356	-0.033068
2352	-0.019288
2348	0.027108
2344	-0.010752
2340	-0.125908
2336	-0.170326
2332	-0.068545
2328	0.057315
2324	0.084471
2320	0.039625
2316	-0.004887
2312	-0.001239
2308	0.056290
2304	0.112819
2300	0.091648
2296	0.046706
2292	0.052595
2288	0.068020
2284	0.105452
2280	0.153970
2276	0.165843
2272	0.181555
2268	0.192594
2264	0.173258
2260	0.198936
2256	0.252151
2252	0.263452
2248	0.310611
2244	0.402355
2240	0.465917
2236	0.497436
2232	0.518870
2228	0.594949
2224	0.743484
2220	0.849580
2216	0.873422
2212	0.910305
2208	1.044178
2204	1.220989
2200	1.326155
2196	1.398992
2192	1.482486
2188	1.589131
2184	1.745200
2180	1.924729
2176	2.111387
2172	2.301383
2168	2.470970
2164	2.633094
2160	2.815532
2156	3.002190
2152	3.208374
2148	3.417778
2144	3.652286
2140	3.959012
2136	4.267144
2132	4.555654
2128	4.848718
2124	5.162477
2120	5.521011
2116	5.858421
2112	6.143236
2108	6.444048
2104	6.799411
2100	7.185387
2096	7.519936
2092	7.825136
2088	8.147931
2084	8.423590
2080	8.737874
2076	9.183192
2072	9.573268
2068	9.818363
2064	10.1414
2060	10.6137
2056	10.9915
2052	11.239
2048	11.5416
2044	11.901
2040	12.231
2036	12.5581
2032	12.9354
2028	13.3
2024	13.6034
2020	13.9074
2016	14.2488
2012	14.5909
2008	14.887
2004	15.1525
2000	15.4022
1996	15.6254
1992	15.9051
1988	16.2472
1984	16.5263
1980	16.7519
1976	17.0288
1972	17.3327
1968	17.592
1964	17.8116
1960	18.0177
1956	18.231
1952	18.4481
1948	18.6461
1944	18.8206
1940	18.9786
1936	19.1666
1932	19.3984
1928	19.6079
1924	19.8049
1920	20.0088
1916	20.1787
1912	20.3237
1908	20.4698
1904	20.6012
1900	20.7142
1896	20.8588
1892	21.0375
1888	21.2064
1884	21.3941
1880	21.5828
1876	21.6818
1872	21.7466
1868	21.8762
1864	22.0062
1860	22.0982
1856	22.2125
1852	22.3356
1848	22.4212
1844	22.4961
1840	22.6163
1836	22.7639
1832	22.8707
1828	22.9337
1824	22.9995
1820	23.0926
1816	23.2023
1812	23.2773
1808	23.3091
1804	23.3662
1800	23.4782
1796	23.5686
1792	23.6181
1788	23.6906
1784	23.7423
1780	23.7608
1776	23.8246
1772	23.9054
1768	23.9574
1764	24.0087
1760	24.0501
1756	24.0761
1752	24.1109
1748	24.1505
1744	24.1979
1740	24.2165
1736	24.2079
1732	24.3047
1728	24.4409
1724	24.4883
1720	24.5528
1716	24.6054
1712	24.5693
1708	24.5494
1704	24.543
1700	24.542
1696	24.6283
1692	24.7269
1688	24.78
1684	24.8247
1680	24.8009
1676	24.7669
1672	24.8167
1668	24.8737
1664	24.9204
1660	24.9735
1656	24.9982
1652	25.0215
1648	25.0288
1644	24.9504
1640	24.9006
1636	24.9752
1632	25.0564
1628	25.1142
1624	25.1751
1620	25.2073
1616	25.2249
1612	25.2202
1608	25.1493
1604	25.0503
1600	24.9842
1596	24.9739
1592	24.9991
1588	25.0425
1584	25.0632
1580	25.0495
1576	25.0913
1572	25.1477
1568	25.1304
1564	25.1216
1560	25.1546
1556	25.1652
1552	25.1348
1548	25.1036
1544	25.124
1540	25.1769
1536	25.2444
1532	25.2891
1528	25.2585
1524	25.2212
1520	25.2125
1516	25.1965
1512	25.2099
1508	25.2918
1504	25.3828
1500	25.3648
1496	25.3226
1492	25.4222
1488	25.4527
1484	25.3364
1480	25.3025
1476	25.3199
1472	25.2372
1468	25.1569
1464	25.1841
1460	25.227
1456	25.2419
1452	25.2581
1448	25.2599
1444	25.2684
1440	25.279
1436	25.2502
1432	25.1727
1428	25.084
1424	25.0713
1420	25.1302
1416	25.2027
1412	25.2641
1408	25.2971
1404	25.3279
1400	25.3556
1396	25.289
1392	25.1405
1388	25.0621
1384	25.0748
1380	25.0457
1376	24.9763
1372	24.9923
1368	25.1029
1364	25.2327
1360	25.3353
1356	25.3379
1352	25.21
1348	25.0593
1344	25.0116
1340	25.0259
1336	25.0129
1332	25.009
1328	25.0205
1324	25.0587
1320	25.136
1316	25.1689
1312	25.1751
1308	25.1762
1304	25.0795
1300	24.9187
1296	24.8095
1292	24.7805
1288	24.826
1284	24.9353
1280	24.9954
1276	24.9901
1272	25.0384
1268	25.0743
1264	25.01
1260	24.9409
1256	24.8768
1252	24.7744
1248	24.7266
1244	24.7592
1240	24.8267
1236	24.8897
1232	24.925
1228	24.9146
1224	24.8829
1220	24.8732
1216	24.8033
1212	24.674
1208	24.5917
1204	24.5934
1200	24.6284
1196	24.6238
1192	24.6675
1188	24.789
1184	24.8563
1180	24.8226
1176	24.731
1172	24.6345
1168	24.5213
1164	24.4128
1160	24.3795
1156	24.3803
1152	24.3808
1148	24.4318
1144	24.496
1140	24.474
1136	24.418
1132	24.4324
1128	24.4127
1124	24.2716
1120	24.1616
1116	24.1694
1112	24.2573
1108	24.3303
1104	24.3326
1100	24.3161
1096	24.2538
1092	24.2181
1088	24.2154
1084	24.0919
1080	23.9337
1076	23.8588
1072	23.8165
1068	23.8149
1064	23.8902
1060	24.001
1056	24.1633
1052	24.2321
1048	24.0714
1044	23.9044
1040	23.7861
1036	23.6584
1032	23.6001
1028	23.5968
1024	23.5511
1020	23.4971
1016	23.56
1012	23.6772
1008	23.7536
1004	23.7698
1000	23.68
996	 23.5244
992	 23.3732
988	 23.2011
984	 22.9909
980	 22.9061
976	 23.0392
972	 23.1635
968	 23.1924
964	 23.2037
960	 23.1337
956	 23.0894
952	 23.154
948	 23.0985
944	 22.8676
940	 22.6728
936	 22.5918
932	 22.5793
928	 22.5931
924	 22.6454
920	 22.7429
916	 22.7549
912	 22.64
908	 22.4887
904	 22.35
900	 22.21
896	 22.1027
892	 22.1163
888	 22.1066
884	 22.0245
880	 22.0579
876	 22.1742
872	 22.2143
868	 22.1362
864	 22.0028
860	 21.8774
856	 21.7988
852	 21.6758
848	 21.5174
844	 21.4995
840	 21.5385
836	 21.4896
832	 21.3649
828	 21.2741
824	 21.272
820	 21.3236
816	 21.3528
812	 21.2133
808	 20.9236
804	 20.7506
800	 20.819
796	 20.8889
792	 20.8656
788	 20.8749
784	 20.8811
780	 20.8212
776	 20.6922
772	 20.5327
768	 20.3945
764	 20.1506
760	 19.896
756	 19.8668
752	 19.9083
748	 19.9596
744	 20.0694
740	 20.1623
736	 20.0616
732	 19.8376
728	 19.6996
724	 19.5263
720	 19.3507
716	 19.2334
712	 19.2053
708	 19.2937
704	 19.3436
700	 19.3148
696	 19.2284
692	 19.0525
688	 18.8367
684	 18.6531
680	 18.4807
676	 18.3964
672	 18.389
668	 18.3179
664	 18.3831
660	 18.6459
656	 18.6836
652	 18.5153
648	 18.4364
644	 18.2835
640	 17.9036
636	 17.398
632	 17.0842
628	 17.0755
624	 17.0669
620	 17.1372
616	 17.3069
612	 17.1892
608	 16.9901
604	 17.078
600	 17.0882
596	 16.8505
592	 16.6441
588	 16.4926
584	 16.4595
580	 16.3712
576	 16.0887
572	 16.0865
568	 16.2439
564	 16.0628
560	 15.8677
556	 15.8468
552	 15.9332
548	 16.107
544	 16.0624
540	 15.8642
536	 15.58
532	 15.0872
528	 14.6612
524	 14.4407
520	 14.304
516	 14.2624
512	 14.3397
508	 14.4307
504	 14.3233
500	 14.0604
496	 13.7115
492	 13.5094
488	 13.6197
484	 13.5183
480	 13.431
476	 13.6476
472	 13.6517
468	 13.4013
464	 12.9711
460	 13.3531
456	 14.8501
452	 15.1355
448	 13.9256
444	 13.1528
440	 13.2132
436	 13.3593
432	 13.5391
428	 13.3209
424	 11.3185
420	 9.034538
416	 8.686280
412	 9.278559
408	 8.753180
404	 7.729268
400	 11.4313
396	 18.4073
392	 21.668
388	 18.7792
384	 12.7426
380	 26.2139
376	 56.5531
372	 54.2071
370	 35.5398