File: Bakgrunnsmateriale/MATLAB/FTIR/ftir_data/LPE453/Mapping_121/LPE453_t62.asc
PE IR       SPECTRUM    SPECTRUM    ASCII       PEDS        1.60
  -1
LPCBA1~1.ASC
17/05/16
19:25:17.00
17/05/16
19:25:44.00
tln
$LPE453_t0062$<tbV0>[-2.6,0.0,8.0,0.0,27,1,0]
27.028
64

2002,4.07
MIRTGS : RIGHTBACK : INTERNAL 2
MIR : ON : INTERNAL 2
OPTKBR

0.200000
8
8.000000
FILLER
RATIO
SPECTRUM
UNLOCKED 256

DOUBLE
64
COMBINED
1
0
0

0.002000
RATIO

1
0
TRUE
51149
0
LEFT NOT FITTED RIGHT NOT FITTED 0
NONE
NONE
15600
12
4.427000
51148
TRUE
1 0 8 72 0 0 0 0

15798

#HDR
-1
-1
#GR
µM
%T
2.38419e-05
0.0
2.000000
0.002000
12515
8
32.0322
-6.504358
#DATA
2.000000	 -0.057744
2.018000	 0.423822
2.036000	 0.046624
2.054000	 0.433222
2.072000	 -0.356768
2.090000	 -0.277236
2.108000	 0.170249
2.126000	 2.040315
2.144000	 0.341711
2.162000	 0.573590
2.180000	 0.406818
2.198000	 0.459994
2.216000	 -0.178293
2.234000	 10.1253
2.252000	 -0.714713
2.270000	 0.193751
2.288000	 1.068759
2.306000	 0.346187
2.324000	 0.335608
2.342000	 0.079472
2.360000	 0.100710
2.378000	 0.196970
2.396000	 0.360784
2.414000	 0.356927
2.432000	 0.209298
2.450000	 -0.041022
2.468000	 0.189922
2.486000	 -0.072487
2.504000	 0.179056
2.522000	 0.095657
2.540000	 -0.040955
2.558000	 0.060085
2.576000	 0.074832
2.594000	 -0.017052
2.612000	 0.111228
2.630000	 0.132369
2.648000	 -0.020362
2.666000	 0.090731
2.684000	 0.041384
2.702000	 0.097166
2.720000	 -0.036315
2.738000	 0.010057
2.756000	 0.054746
2.774000	 0.165642
2.792000	 0.010699
2.810000	 0.080758
2.828000	 0.101405
2.846000	 0.179339
2.864000	 -0.004375
2.882000	 0.159366
2.900000	 0.168123
2.918000	 0.092439
2.936000	 0.009193
2.954000	 -0.045160
2.972000	 0.089789
2.990000	 0.095794
3.008000	 0.092666
3.026000	 0.144343
3.044000	 0.081961
3.062000	 -0.079036
3.080000	 0.050103
3.098000	 0.178229
3.116000	 0.067464
3.134000	 -0.082065
3.152000	 0.193380
3.170000	 0.065843
3.188000	 -0.026375
3.206000	 -0.057240
3.224000	 -0.052537
3.242000	 0.058923
3.260000	 0.074691
3.278000	 0.151343
3.296000	 -0.099075
3.314000	 -0.034246
3.332000	 0.077612
3.350000	 0.184792
3.368000	 0.127349
3.386000	 -0.026957
3.404000	 0.149516
3.422000	 -0.056215
3.440000	 -0.041522
3.458000	 -0.026709
3.476000	 0.031240
3.494000	 0.082722
3.512000	 -0.008490
3.530000	 0.016400
3.548000	 -0.098762
3.566000	 0.105979
3.584000	 0.058291
3.602000	 0.013722
3.620000	 -0.025613
3.638000	 0.021354
3.656000	 -0.047238
3.674000	 0.018229
3.692000	 0.061637
3.710000	 0.083087
3.728000	 0.023636
3.746000	 -0.047816
3.764000	 0.034715
3.782000	 0.015629
3.800000	 0.066788
3.818000	 0.092329
3.836000	 -0.018789
3.854000	 0.081181
3.872000	 -0.036564
3.890000	 0.022271
3.908000	 0.048493
3.926000	 0.031992
3.944000	 -0.055383
3.962000	 0.058971
3.980000	 0.096393
3.998000	 -0.120272
4.016000	 0.088361
4.034000	 -0.011202
4.052000	 0.081534
4.070000	 -0.034807
4.088000	 -0.027754
4.106000	 0.084211
4.124000	 -0.004133
4.141999	 -0.147281
4.160000	 -0.032531
4.178000	 0.249292
4.196000	 -0.000433
4.214000	 0.085403
4.232000	 0.100582
4.250000	 0.107981
4.268000	 0.148347
4.286000	 0.114268
4.304000	 0.214243
4.322000	 0.192293
4.340000	 0.094392
4.358000	 0.251647
4.375999	 0.357646
4.394000	 0.423129
4.412000	 0.638224
4.430000	 0.737195
4.448000	 0.950267
4.466000	 1.096001
4.484000	 1.425878
4.502000	 1.859162
4.520000	 2.194825
4.538000	 2.740042
4.556000	 3.194987
4.574000	 3.752535
4.592000	 4.491485
4.609999	 4.979752
4.628000	 5.792645
4.646000	 6.376396
4.664000	 7.217755
4.682000	 8.239936
4.700000	 9.090516
4.718000	 10.0824
4.736000	 10.9719
4.754000	 11.9766
4.772000	 12.8283
4.790000	 13.8242
4.808000	 14.6973
4.826000	 15.5895
4.843999	 16.3946
4.862000	 17.363
4.880000	 18.1162
4.898000	 18.921
4.916000	 19.6921
4.934000	 20.4946
4.952000	 21.1918
4.970000	 21.8244
4.988000	 22.4525
5.006000	 23.1299
5.024000	 23.6695
5.042000	 24.2403
5.060000	 24.7246
5.077999	 25.2608
5.096000	 25.7177
5.114000	 26.1518
5.132000	 26.6138
5.150000	 26.9619
5.168000	 27.3094
5.186000	 27.6084
5.204000	 27.8466
5.222000	 28.1264
5.240000	 28.4979
5.258000	 28.7692
5.276000	 29.0385
5.294000	 29.1778
5.312000	 29.3809
5.330000	 29.6034
5.348000	 29.6955
5.366000	 29.8176
5.384000	 30.1399
5.402000	 30.3936
5.420000	 30.3851
5.438000	 30.5149
5.456000	 30.5949
5.474000	 30.6738
5.492000	 30.7973
5.510000	 30.9044
5.528000	 31.0108
5.546000	 31.1277
5.564000	 31.1809
5.582000	 31.2992
5.600000	 31.3316
5.618000	 31.3243
5.636000	 31.4257
5.654000	 31.4748
5.672000	 31.4709
5.690000	 31.5196
5.708000	 31.6292
5.726000	 31.6708
5.744000	 31.6416
5.762000	 31.5522
5.780000	 31.5599
5.798000	 31.632
5.816000	 31.7828
5.834000	 31.8634
5.852000	 31.927
5.870000	 31.9724
5.888000	 31.9429
5.906000	 31.9009
5.923999	 31.86
5.942000	 31.754
5.960000	 31.7007
5.978000	 31.7707
5.996000	 31.8727
6.014000	 31.9606
6.032000	 31.995
6.050000	 31.9571
6.068000	 31.9346
6.086000	 31.8171
6.104000	 31.7151
6.122000	 31.7345
6.140000	 31.87
6.158000	 31.9927
6.176000	 32.0004
6.194000	 31.9718
6.212000	 31.9736
6.230000	 31.9617
6.248000	 31.942
6.266000	 31.8626
6.284000	 31.8162
6.302000	 31.8586
6.320000	 31.8719
6.338000	 31.8702
6.356000	 31.9268
6.374000	 31.9951
6.392000	 32.0317
6.410000	 32.0109
6.428000	 31.9887
6.446000	 31.9769
6.464000	 31.8923
6.482000	 31.81
6.500000	 31.8205
6.518000	 31.8599
6.536000	 31.855
6.554000	 31.8179
6.572000	 31.8548
6.590000	 31.9198
6.608000	 31.9115
6.626000	 31.9096
6.644000	 31.882
6.662000	 31.7549
6.680000	 31.5874
6.698000	 31.4939
6.716000	 31.4681
6.734000	 31.4651
6.752000	 31.5485
6.770000	 31.6469
6.788000	 31.7222
6.806000	 31.823
6.824000	 31.8586
6.842000	 31.8222
6.860000	 31.7583
6.878000	 31.6547
6.896000	 31.5689
6.914000	 31.5149
6.932000	 31.4753
6.950000	 31.4648
6.968000	 31.4667
6.986000	 31.495
7.004000	 31.5701
7.022000	 31.6381
7.040000	 31.6738
7.058000	 31.7139
7.076000	 31.7355
7.094000	 31.6889
7.112000	 31.5971
7.130000	 31.4879
7.148000	 31.3603
7.166000	 31.2593
7.184000	 31.2383
7.202000	 31.2742
7.220000	 31.3004
7.238000	 31.3151
7.256000	 31.3764
7.274000	 31.4636
7.292000	 31.5115
7.310000	 31.5327
7.328000	 31.5302
7.346000	 31.4701
7.364000	 31.3768
7.382000	 31.2756
7.400000	 31.1705
7.418000	 31.1001
7.436000	 31.0653
7.454000	 31.0293
7.472000	 31.0159
7.490000	 31.0708
7.508000	 31.1917
7.526000	 31.3349
7.544000	 31.424
7.562000	 31.4225
7.580000	 31.3812
7.598000	 31.3323
7.616000	 31.2467
7.634000	 31.1392
7.652000	 31.07
7.670000	 31.0343
7.688000	 30.9758
7.706000	 30.8865
7.724000	 30.8057
7.742000	 30.7562
7.760000	 30.7507
7.778000	 30.8085
7.796000	 30.9174
7.814000	 31.0313
7.832000	 31.1256
7.850000	 31.1975
7.868000	 31.2276
7.886000	 31.203
7.904000	 31.1523
7.922000	 31.1206
7.940000	 31.1116
7.958000	 31.0691
7.976000	 30.949
7.994000	 30.792
8.012000	 30.6777
8.030000	 30.6209
8.048000	 30.5803
8.065999	 30.5435
8.084000	 30.5472
8.102000	 30.6288
8.120000	 30.7768
8.138000	 30.9279
8.155999	 31.0129
8.173999	 31.0163
8.192000	 30.9788
8.210000	 30.9395
8.228000	 30.9011
8.246000	 30.8485
8.263999	 30.7729
8.282000	 30.6762
8.300000	 30.5723
8.318000	 30.4872
8.336000	 30.4467
8.353999	 30.45
8.372000	 30.4699
8.390000	 30.4873
8.408000	 30.4999
8.426000	 30.5125
8.443999	 30.5422
8.462000	 30.6092
8.480000	 30.7033
8.498000	 30.7844
8.516000	 30.8229
8.533999	 30.8275
8.552000	 30.8214
8.570000	 30.8034
8.588000	 30.7469
8.606000	 30.6415
8.624000	 30.516
8.641999	 30.4104
8.660000	 30.3369
8.678000	 30.2811
8.696000	 30.2335
8.714000	 30.2074
8.731999	 30.2177
8.750000	 30.2548
8.768000	 30.2898
8.786000	 30.3042
8.804000	 30.3054
8.821999	 30.3119
8.840000	 30.3354
8.858000	 30.3781
8.876000	 30.4348
8.894000	 30.4862
8.911999	 30.504
8.930000	 30.4764
8.948000	 30.4244
8.966000	 30.377
8.984000	 30.3351
9.001999	 30.2719
9.020000	 30.1728
9.038000	 30.0533
9.056000	 29.9328
9.074000	 29.811
9.092000	 29.6873
9.109999	 29.5895
9.128000	 29.561
9.146000	 29.6195
9.164000	 29.7379
9.182000	 29.8725
9.199999	 29.9936
9.218000	 30.0873
9.236000	 30.1431
9.254000	 30.1572
9.272000	 30.1392
9.289999	 30.1062
9.308000	 30.0652
9.326000	 30.0097
9.344000	 29.9335
9.362000	 29.8465
9.379999	 29.7664
9.398000	 29.7027
9.416000	 29.6501
9.434000	 29.5976
9.452000	 29.5392
9.469999	 29.4767
9.488000	 29.4143
9.506000	 29.352
9.524000	 29.2861
9.542000	 29.2181
9.560000	 29.1615
9.577999	 29.1383
9.596000	 29.1626
9.614000	 29.2263
9.632000	 29.301
9.650000	 29.3587
9.667999	 29.3915
9.686000	 29.4125
9.704000	 29.4386
9.722000	 29.4761
9.740000	 29.5219
9.757999	 29.5734
9.776000	 29.6326
9.794000	 29.6936
9.812000	 29.733
9.830000	 29.7187
9.847999	 29.634
9.866000	 29.4916
9.884000	 29.3267
9.902000	 29.1758
9.920000	 29.0577
9.937999	 28.9728
9.956000	 28.9128
9.974000	 28.8713
9.992000	 28.8479
10.01	28.8433
10.028	28.8572
10.046	28.884
10.064	28.9127
10.082	28.9299
10.1	28.9271
10.118	28.9086
10.136	28.8909
10.154	28.8935
10.172	28.9271
10.19	28.9861
10.208	29.0513
10.226	29.1015
10.244	29.124
10.262	29.1172
10.28	29.0885
10.298	29.0474
10.316	29.0011
10.334	28.951
10.352	28.8943
10.37	28.8287
10.388	28.7576
10.406	28.6904
10.424	28.6362
10.442	28.5947
10.46	28.554
10.478	28.4956
10.496	28.4096
10.514	28.3043
10.532	28.2056
10.55	28.1407
10.568	28.1213
10.586	28.1363
10.604	28.1619
10.622	28.1755
10.64	28.1722
10.658	28.1632
10.676	28.1701
10.694	28.2089
10.712	28.2811
10.73	28.3727
10.748	28.4616
10.766	28.5272
10.784	28.5586
10.802	28.5585
10.82	28.5391
10.838	28.5169
10.856	28.5021
10.874	28.4952
10.892	28.4874
10.91	28.4645
10.928	28.4164
10.946	28.3375
10.964	28.2286
10.982	28.0965
11	27.9532
11.018	27.8146
11.036	27.6975
11.054	27.6159
11.072	27.5756
11.09	27.5713
11.108	27.5887
11.126	27.609
11.144	27.6199
11.162	27.6168
11.18	27.6034
11.198	27.5873
11.216	27.5749
11.234	27.57
11.252	27.5742
11.27	27.588
11.288	27.611
11.306	27.6417
11.324	27.6767
11.342	27.7111
11.36	27.7406
11.378	27.7619
11.396	27.7746
11.414	27.7801
11.432	27.7793
11.45	27.7721
11.468	27.7577
11.486	27.7355
11.504	27.707
11.522	27.6746
11.54	27.6395
11.558	27.6007
11.576	27.5546
11.594	27.498
11.612	27.4296
11.63	27.3528
11.648	27.2739
11.666	27.2012
11.684	27.1408
11.702	27.0948
11.72	27.0606
11.738	27.0331
11.756	27.007
11.774	26.9792
11.792	26.95
11.81	26.9222
11.828	26.8995
11.846	26.8857
11.864	26.883
11.882	26.8913
11.9	26.9085
11.918	26.9303
11.936	26.9516
11.954	26.9682
11.972	26.9773
11.99	26.9788
12.008	26.975
12.026	26.9697
12.044	26.9669
12.062	26.9685
12.08	26.9739
12.098	26.9803
12.116	26.9832
12.134	26.9784
12.152	26.9638
12.17	26.9394
12.188	26.9064
12.206	26.8669
12.224	26.8235
12.242	26.7777
12.26	26.7311
12.278	26.6845
12.296	26.6383
12.314	26.5923
12.332	26.5454
12.35	26.4959
12.368	26.4416
12.386	26.3809
12.404	26.3135
12.422	26.2414
12.44	26.1682
12.458	26.0993
12.476	26.04
12.494	25.9941
12.512	25.9633
12.53	25.947
12.548	25.9423
12.566	25.9458
12.584	25.9537
12.602	25.963
12.62	25.9717
12.638	25.9792
12.656	25.9859
12.674	25.9924
12.692	25.9993
12.71	26.0069
12.728	26.0151
12.746	26.0235
12.764	26.032
12.782	26.0406
12.8	26.0496
12.818	26.0595
12.836	26.0704
12.854	26.0816
12.872	26.0915
12.89	26.0975
12.908	26.0971
12.926	26.0885
12.944	26.0716
12.962	26.0481
12.98	26.0217
12.998	25.9969
13.016	25.9775
13.034	25.9645
13.052	25.9559
13.07	25.9462
13.088	25.9284
13.106	25.8952
13.124	25.8419
13.142	25.7678
13.16	25.677
13.178	25.5777
13.196	25.4805
13.214	25.3953
13.232	25.3298
13.25	25.2867
13.268	25.264
13.286	25.2557
13.304	25.2538
13.322	25.2507
13.34	25.2407
13.358	25.2225
13.376	25.1987
13.394	25.1747
13.412	25.1566
13.43	25.1504
13.448	25.1594
13.466	25.1841
13.484	25.2215
13.502	25.2666
13.52	25.3136
13.538	25.3568
13.556	25.3919
13.574	25.4165
13.592	25.4302
13.61	25.4335
13.628	25.4281
13.646	25.4162
13.664	25.4002
13.682	25.3824
13.7	25.3651
13.718	25.3503
13.736	25.3396
13.754	25.3344
13.772	25.3343
13.79	25.3378
13.808	25.3416
13.826	25.3417
13.844	25.3334
13.862	25.3124
13.88	25.2756
13.898	25.222
13.916	25.1528
13.934	25.0714
13.952	24.983
13.97	24.8934
13.988	24.8079
14.006	24.7306
14.024	24.6632
14.042	24.6054
14.06	24.5551
14.078	24.5092
14.096	24.4644
14.114	24.4176
14.132	24.3669
14.15	24.3118
14.168	24.2522
14.186	24.1894
14.204	24.1246
14.222	24.0594
14.24	23.9954
14.258	23.9345
14.276	23.8784
14.294	23.8291
14.312	23.7885
14.33	23.7587
14.348	23.7411
14.366	23.7361
14.384	23.7427
14.402	23.7585
14.42	23.7802
14.438	23.8036
14.456	23.8247
14.474	23.8407
14.492	23.8503
14.51	23.8544
14.528	23.8559
14.546	23.8588
14.564	23.8674
14.582	23.8851
14.6	23.9144
14.618	23.9557
14.636	24.007
14.654	24.0645
14.672	24.1238
14.69	24.1806
14.708	24.2307
14.726	24.2712
14.744	24.3002
14.762	24.318
14.78	24.3253
14.798	24.3235
14.816	24.3141
14.834	24.2978
14.852	24.2753
14.87	24.2462
14.888	24.2099
14.906	24.166
14.924	24.1142
14.942	24.0549
14.96	23.9896
14.978	23.9201
14.996	23.8487
15.014	23.7781
15.032	23.7109
15.05	23.6492
15.068	23.594
15.086	23.5462
15.104	23.5057
15.122	23.4717
15.14	23.4432
15.158	23.419
15.176	23.398
15.194	23.3792
15.212	23.3615
15.23	23.3442
15.248	23.3266
15.266	23.3085
15.284	23.2891
15.302	23.2686
15.32	23.247
15.338	23.2248
15.356	23.2027
15.374	23.1817
15.392	23.1626
15.41	23.146
15.428	23.1324
15.446	23.1217
15.464	23.1128
15.482	23.1045
15.5	23.0953
15.518	23.0831
15.536	23.0666
15.554	23.0452
15.572	23.0182
15.59	22.9867
15.608	22.9521
15.626	22.9164
15.644	22.8822
15.662	22.8524
15.68	22.8289
15.698	22.813
15.716	22.8059
15.734	22.807
15.752	22.8158
15.77	22.8308
15.788	22.8504
15.806	22.8733
15.824	22.8985
15.842	22.9253
15.86	22.9536
15.878	22.9836
15.896	23.0153
15.914	23.0489
15.932	23.0836
15.95	23.1185
15.968	23.1519
15.986	23.1814
16.004	23.2049
16.022	23.2204
16.04	23.2255
16.058	23.2194
16.076	23.2012
16.094	23.1716
16.112	23.1315
16.13	23.0823
16.148	23.0265
16.166	22.9663
16.184	22.9035
16.202	22.8398
16.22	22.7764
16.238	22.7137
16.256	22.6522
16.274	22.5916
16.292	22.5317
16.31	22.4723
16.328	22.4135
16.346	22.356
16.364	22.3004
16.382	22.2481
16.4	22.2004
16.418	22.1583
16.436	22.1234
16.454	22.0961
16.472	22.0766
16.49	22.0642
16.508	22.057
16.526	22.0537
16.544	22.0511
16.562	22.0468
16.58	22.0389
16.598	22.024
16.616	22.001
16.634	21.9687
16.652	21.9263
16.67	21.8748
16.688	21.8149
16.706	21.7489
16.724	21.6787
16.742	21.6068
16.76	21.5363
16.778	21.4686
16.796	21.4065
16.814	21.3517
16.832	21.3053
16.85	21.2685
16.868	21.2415
16.886	21.2246
16.904	21.2169
16.922	21.2176
16.94	21.2259
16.958	21.2397
16.976	21.2581
16.994	21.2786
17.012	21.2996
17.03	21.32
17.048	21.3374
17.066	21.3513
17.084	21.3608
17.102	21.3656
17.12	21.3656
17.138	21.3618
17.156	21.3556
17.174	21.3479
17.192	21.3418
17.21	21.3385
17.228	21.3408
17.246	21.3506
17.264	21.3692
17.282	21.3984
17.3	21.4384
17.318	21.4897
17.336	21.5512
17.354	21.6224
17.372	21.7005
17.39	21.7838
17.408	21.8686
17.426	21.9518
17.444	22.0313
17.462	22.1026
17.48	22.1643
17.498	22.2128
17.516	22.2471
17.534	22.2654
17.552	22.2675
17.57	22.2533
17.588	22.2236
17.606	22.1799
17.624	22.1237
17.642	22.0578
17.66	21.9833
17.678	21.9047
17.696	21.8229
17.714	21.7414
17.732	21.6613
17.75	21.5849
17.768	21.5126
17.786	21.445
17.804	21.3824
17.822	21.3244
17.84	21.2698
17.858	21.2177
17.876	21.1668
17.894	21.1155
17.912	21.0628
17.93	21.0072
17.948	20.9485
17.966	20.8859
17.984	20.8201
18.002	20.7515
18.02	20.6818
18.038	20.6119
18.056	20.5447
18.074	20.4809
18.092	20.4245
18.11	20.3762
18.128	20.3396
18.146	20.3152
18.164	20.3055
18.182	20.3105
18.2	20.3309
18.218	20.3657
18.236	20.4148
18.254	20.4754
18.272	20.5471
18.29	20.6253
18.308	20.7095
18.326	20.7942
18.344	20.879
18.362	20.9589
18.38	21.0334
18.398	21.0991
18.416	21.1554
18.434	21.2001
18.452	21.2334
18.47	21.2546
18.488	21.2649
18.506	21.2644
18.524	21.2556
18.542	21.2389
18.56	21.2175
18.578	21.1919
18.596	21.1655
18.614	21.1387
18.632	21.1146
18.65	21.0935
18.668	21.0776
18.686	21.0668
18.704	21.0628
18.722	21.0652
18.74	21.0743
18.758	21.0895
18.776	21.1103
18.794	21.1358
18.812	21.1646
18.83	21.1958
18.848	21.2279
18.866	21.2598
18.884	21.2896
18.902	21.3163
18.92	21.3381
18.938	21.3543
18.956	21.3634
18.974	21.3651
18.992	21.3582
19.01	21.3434
19.028	21.3201
19.046	21.2894
19.064	21.2518
19.082	21.2085
19.1	21.161
19.118	21.1104
19.136	21.0586
19.154	21.0066
19.172	20.9566
19.19	20.9088
19.208	20.865
19.226	20.825
19.244	20.7897
19.262	20.7586
19.28	20.731
19.298	20.7067
19.316	20.6837
19.334	20.6619
19.352	20.6385
19.37	20.6135
19.388	20.5841
19.406	20.5504
19.424	20.5106
19.442	20.4646
19.46	20.4122
19.478	20.3532
19.496	20.2892
19.514	20.2201
19.532	20.1482
19.55	20.074
19.568	19.9997
19.586	19.9274
19.604	19.8579
19.622	19.794
19.64	19.7358
19.658	19.6861
19.676	19.6445
19.694	19.6123
19.712	19.5894
19.73	19.5757
19.748	19.5714
19.766	19.5749
19.784	19.5863
19.802	19.6038
19.82	19.6265
19.838	19.6533
19.856	19.6823
19.874	19.7133
19.892	19.7436
19.91	19.7735
19.928	19.8001
19.946	19.8239
19.964	19.8426
19.982	19.8561
20	19.863
20.018	19.8626
20.036	19.8545
20.054	19.8378
20.072	19.8127
20.09	19.7785
20.108	19.7354
20.126	19.6838
20.144	19.6236
20.162	19.556
20.18	19.4813
20.198	19.4006
20.216	19.3158
20.234	19.227
20.252	19.1376
20.27	19.0468
20.288	18.9586
20.306	18.8729
20.324	18.7919
20.342	18.7174
20.36	18.6494
20.378	18.5904
20.396	18.5398
20.414	18.4989
20.432	18.4678
20.45	18.4457
20.468	18.4329
20.486	18.4284
20.504	18.4307
20.522	18.4402
20.54	18.4538
20.558	18.4721
20.576	18.4926
20.594	18.5147
20.612	18.5377
20.63	18.5594
20.648	18.5804
20.666	18.5993
20.684	18.6161
20.702	18.6303
20.72	18.6416
20.738	18.6503
20.756	18.6566
20.774	18.6604
20.792	18.6627
20.81	18.6634
20.828	18.6629
20.846	18.6622
20.864	18.6611
20.882	18.66
20.9	18.6589
20.918	18.6581
20.936	18.6577
20.954	18.6577
20.972	18.6582
20.99	18.6591
21.008	18.6603
21.026	18.6617
21.044	18.6633
21.062	18.6645
21.08	18.6655
21.098	18.6661
21.116	18.666
21.134	18.6655
21.152	18.6644
21.17	18.6628
21.188	18.6607
21.206	18.6582
21.224	18.6552
21.242	18.6518
21.26	18.648
21.278	18.6438
21.296	18.6392
21.314	18.6341
21.332	18.6281
21.35	18.6214
21.368	18.6132
21.386	18.6036
21.404	18.5922
21.422	18.5779
21.44	18.5611
21.458	18.5408
21.476	18.5165
21.494	18.4882
21.512	18.4547
21.53	18.4164
21.548	18.3726
21.566	18.3228
21.584	18.2674
21.602	18.2063
21.62	18.1394
21.638	18.0672
21.656	17.9901
21.674	17.9078
21.692	17.8223
21.71	17.7336
21.728	17.6424
21.746	17.5513
21.764	17.4591
21.782	17.3686
21.8	17.282
21.818	17.1982
21.836	17.1211
21.854	17.0504
21.872	16.9872
21.89	16.9345
21.908	16.8914
21.926	16.8594
21.944	16.8398
21.962	16.8318
21.98	16.8366
21.998	16.8545
22.016	16.8847
22.034	16.9265
22.052	16.9804
22.07	17.0447
22.088	17.1185
22.106	17.2021
22.124	17.2929
22.142	17.3907
22.16	17.495
22.178	17.6026
22.196	17.7146
22.214	17.829
22.232	17.9432
22.25	18.0584
22.268	18.1723
22.286	18.2834
22.304	18.3925
22.322	18.4976
22.34	18.5985
22.358	18.695
22.376	18.786
22.394	18.8716
22.412	18.9516
22.43	19.0251
22.448	19.0925
22.466	19.1536
22.484	19.2082
22.502	19.2565
22.52	19.2984
22.538	19.3339
22.556	19.363
22.574	19.3865
22.592	19.4042
22.61	19.4165
22.628	19.4238
22.646	19.4262
22.664	19.4238
22.682	19.4173
22.7	19.4067
22.718	19.3918
22.736	19.3729
22.754	19.3499
22.772	19.3226
22.79	19.2909
22.808	19.255
22.826	19.214
22.844	19.1676
22.862	19.1161
22.88	19.0589
22.898	18.9957
22.916	18.9267
22.934	18.8518
22.952	18.7709
22.97	18.6841
22.988	18.5915
23.006	18.4928
23.024	18.3885
23.042	18.2798
23.06	18.1663
23.078	18.0486
23.096	17.9298
23.114	17.809
23.132	17.6873
23.15	17.5684
23.168	17.4515
23.186	17.3376
23.204	17.2314
23.222	17.1322
23.24	17.0405
23.258	16.96
23.276	16.8905
23.294	16.8318
23.312	16.786
23.33	16.7535
23.348	16.7335
23.366	16.7248
23.384	16.7286
23.402	16.7436
23.42	16.7665
23.438	16.7985
23.456	16.8384
23.474	16.8802
23.492	16.9244
23.51	16.9709
23.528	17.0122
23.546	17.0473
23.564	17.0777
23.582	17.0964
23.6	17.101
23.618	17.094
23.636	17.0705
23.654	17.0278
23.672	16.9678
23.69	16.8897
23.708	16.7919
23.726	16.6747
23.744	16.5405
23.762	16.391
23.78	16.2235
23.798	16.0435
23.816	15.857
23.834	15.6594
23.852	15.4564
23.87	15.2571
23.888	15.0574
23.906	14.8609
23.924	14.6781
23.942	14.5084
23.96	14.351
23.978	14.2147
23.996	14.1024
24.014	14.0109
24.032	13.945
24.05	13.9085
24.068	13.8993
24.086	13.9169
24.104	13.9612
24.122	14.0344
24.14	14.1318
24.158	14.2481
24.176	14.3876
24.194	14.5458
24.212	14.7119
24.23	14.8864
24.248	15.071
24.266	15.2525
24.284	15.4243
24.302	15.5941
24.32	15.7502
24.338	15.8816
24.356	15.9959
24.374	16.0867
24.392	16.1429
24.41	16.1656
24.428	16.1562
24.446	16.1088
24.464	16.0202
24.482	15.8932
24.5	15.7282
24.518	15.5246
24.536	15.2798
24.554	15.0002
24.572	14.6931
24.59	14.354
24.608	13.9861
24.626	13.6023
24.644	13.2065
24.662	12.7915
24.68	12.3726
24.698	11.9637
24.716	11.554
24.734	11.1526
24.752	10.7758
24.77	10.4236
24.788	10.0919
24.806	9.793927
24.824	9.538657
24.842	9.318308
24.86	9.138425
24.878	9.006643
24.896	8.923015
24.914	8.884981
24.932	8.892730
24.95	8.948150
24.968	9.052436
24.986	9.197514
25.004	9.375458
25.022	9.592566
25.04	9.844040
25.058	10.1177
25.076	10.4092
25.094	10.7258
25.112	11.0562
25.13	11.3893
25.148	11.7314
25.166	12.0794
25.184	12.4235
25.202	12.7589
25.22	13.0914
25.238	13.4156
25.256	13.7255
25.274	14.0229
25.292	14.3081
25.31	14.5787
25.328	14.8328
25.346	15.0718
25.364	15.2958
25.382	15.5045
25.4	15.6974
25.418	15.8751
25.436	16.0392
25.454	16.191
25.472	16.3291
25.49	16.4548
25.508	16.57
25.526	16.6748
25.544	16.7683
25.562	16.8526
25.58	16.9295
25.598	16.9978
25.616	17.058
25.634	17.1116
25.652	17.1596
25.67	17.2011
25.688	17.2366
25.706	17.2667
25.724	17.2915
25.742	17.3108
25.76	17.3249
25.778	17.3339
25.796	17.3371
25.814	17.3353
25.832	17.3299
25.85	17.3214
25.868	17.3083
25.886	17.2928
25.904	17.2776
25.922	17.2629
25.94	17.2474
25.958	17.2335
25.976	17.2241
25.994	17.2173
26.012	17.2135
26.03	17.2162
26.048	17.2282
26.066	17.2462
26.084	17.2724
26.102	17.3107
26.12	17.3636
26.138	17.4277
26.156	17.5055
26.174	17.6003
26.192	17.7124
26.21	17.8394
26.228	17.9852
26.246	18.1539
26.264	18.3467
26.282	18.5614
26.3	18.7977
26.318	19.0552
26.336	19.3351
26.354	19.6364
26.372	19.9572
26.39	20.2957
26.408	20.6586
26.426	21.04
26.444	21.429
26.462	21.8177
26.48	22.2181
26.498	22.6214
26.516	23.0122
26.534	23.3811
26.552	23.7461
26.57	24.0914
26.588	24.3948
26.606	24.6442
26.624	24.8623
26.642	25.0298
26.66	25.1216
26.678	25.1251
26.696	25.0625
26.714	24.9173
26.732	24.6686
26.75	24.3062
26.768	23.8462
26.786	23.2801
26.804	22.5972
26.822	21.7897
26.84	20.8629
26.858	19.8229
26.876	18.6752
26.894	17.4181
26.912	16.0421
26.93	14.5669
26.948	13.0139
26.966	11.3041
26.984	9.287559
27.002	7.312612
27.02	5.758933
27.028	5.348277