File: Bakgrunnsmateriale/MATLAB/FTIR/ftir_data/LPE453/Mapping_121/LPE453_t16_cm-1.asc
PE IR       SPECTRUM    SPECTRUM    ASCII       PEDS        1.60
  -1
LPE75A~1.ASC
17/05/16
15:37:50.00
17/05/16
15:37:50.00
tln
$LPE453_t0016$<tbV0>[2.6,-10.4,8.0,0.0,27,1,0]
370
64

2002,4.07
MIRTGS : RIGHTBACK : INTERNAL 2
MIR : ON : INTERNAL 2
OPTKBR

0.200000
8
8.000000
FILLER
RATIO
SPECTRUM
UNLOCKED 256

DOUBLE
64
COMBINED
1
0
0

1.000000
RATIO

1
0
TRUE
51149
0
LEFT NOT FITTED RIGHT NOT FITTED 0
NONE
NONE
15600
12
4.427000
51148
TRUE
1 0 8 72 0 0 0 0

15798

#HDR
-1
-1
#GR
CM-1
%T
2.38419e-05
0.0
5000
-1.000000
4631
8
30.7436
-24.5569
#DATA
5000	0.021910
4996	0.403571
4992	0.707221
4988	0.588345
4984	0.117945
4980	-0.386595
4976	-0.600361
4972	-0.540328
4968	-0.295209
4964	-0.088953
4960	-0.249409
4956	-0.320577
4952	0.090575
4948	0.537633
4944	0.496363
4940	0.170588
4936	-0.049757
4932	-0.156855
4928	-0.046086
4924	0.286769
4920	0.446081
4916	0.406050
4912	0.559902
4908	0.776982
4904	0.596213
4900	0.284075
4896	0.393629
4892	0.701761
4888	0.734090
4884	0.557398
4880	0.427532
4876	0.191140
4872	-0.118827
4868	-0.298285
4864	-0.290465
4860	0.019216
4856	0.224804
4852	0.187730
4848	0.374460
4844	0.642395
4840	0.691938
4836	0.606083
4832	0.412964
4828	0.153064
4824	-0.005888
4820	0.053024
4816	0.227451
4812	0.307631
4808	0.331091
4804	0.266599
4800	0.161623
4796	0.218367
4792	0.181031
4788	0.101399
4784	0.195956
4780	0.184607
4776	0.018596
4772	-0.071716
4768	-0.026059
4764	0.077939
4760	0.145339
4756	0.131249
4752	0.046873
4748	0.001406
4744	0.069928
4740	0.046086
4736	-0.066161
4732	-0.012516
4728	0.029420
4724	0.028705
4720	0.067996
4716	-0.087523
4712	-0.278735
4708	-0.169515
4704	0.068116
4700	0.263571
4696	0.420784
4692	0.426149
4688	0.329446
4684	0.375461
4680	0.671362
4676	0.890541
4672	0.707483
4668	0.226259
4664	-0.080418
4660	0.173163
4656	0.476098
4652	0.396895
4648	0.316333
4644	0.426626
4640	0.536561
4636	0.380086
4632	0.002121
4628	-0.102758
4624	0.367784
4620	0.826668
4616	0.656580
4612	0.092792
4608	-0.335526
4604	-0.375151
4600	-0.105977
4596	0.144219
4592	0.331354
4588	0.427651
4584	0.352263
4580	0.287032
4576	0.231695
4572	0.195527
4568	0.182080
4564	-0.128722
4560	-0.575113
4556	-0.738477
4552	-1.007747
4548	-1.513743
4544	-1.168346
4540	-0.351214
4536	-0.296926
4532	-0.437164
4528	-0.893259
4524	-2.089381
4520	-1.307940
4516	6.131863
4512	12.9095
4508	8.626151
4504	3.254961
4500	3.624629
4496	3.093028
4492	1.169133
4488	0.209188
4484	0.236320
4480	0.471353
4476	0.541806
4472	0.548291
4468	0.227403
4464	-0.072073
4460	-0.076580
4456	-0.035142
4452	0.103354
4448	0.330972
4444	0.402450
4440	0.471401
4436	0.637364
4432	0.631976
4428	0.443959
4424	0.332021
4420	0.376343
4416	0.426197
4412	0.458216
4408	0.644755
4404	0.807523
4400	0.680875
4396	0.455164
4392	0.299143
4388	0.395393
4384	0.717782
4380	0.787067
4376	0.522732
4372	0.385379
4368	0.538206
4364	0.550222
4360	0.314235
4356	0.135922
4352	0.065422
4348	0.122261
4344	0.306272
4340	0.337886
4336	0.254869
4332	0.272917
4328	0.229072
4324	0.090146
4320	0.000715
4316	-0.072526
4312	-0.100541
4308	-0.052881
4304	0.088071
4300	0.165700
4296	0.077867
4292	0.100255
4288	0.214505
4284	0.218772
4280	0.189113
4276	0.160336
4272	0.051474
4268	-0.073289
4264	-0.080037
4260	0.146341
4256	0.379562
4252	0.415945
4248	0.316286
4244	0.222635
4240	0.186228
4236	0.167441
4232	0.114035
4228	-0.055599
4224	-0.094485
4220	0.078058
4216	0.241661
4212	0.377440
4208	0.455403
4204	0.421452
4200	0.333547
4196	0.181341
4192	0.096964
4188	0.286293
4184	0.606441
4180	0.457286
4176	-0.265669
4172	-0.592541
4168	-0.266170
4164	-0.027656
4160	-0.009536
4156	0.031352
4152	0.043058
4148	0.022220
4144	0.045084
4140	0.005602
4136	-0.146889
4132	-0.203585
4128	-0.086116
4124	-0.016427
4120	0.042700
4116	0.157046
4112	0.118756
4108	0.145363
4104	0.371623
4100	0.430083
4096	0.216221
4092	0.024223
4088	0.039887
4084	0.050854
4080	0.007843
4076	0.039792
4072	0.066852
4068	0.047183
4064	0.069594
4060	0.157356
4056	0.185227
4052	0.164127
4048	0.170063
4044	0.143742
4040	0.119256
4036	0.196671
4032	0.283527
4028	0.207114
4024	-0.012612
4020	-0.188803
4016	-0.084972
4012	0.198054
4008	0.289463
4004	0.221085
4000	0.248599
3996	0.265526
3992	0.108170
3988	0.034570
3984	0.128483
3980	0.102925
3976	0.054407
3972	0.227141
3968	0.390315
3964	0.353431
3960	0.203943
3956	0.008344
3952	-0.066089
3948	0.080871
3944	0.294947
3940	0.318384
3936	0.164103
3932	0.089311
3928	0.087976
3924	0.070643
3920	0.065040
3916	0.023508
3912	-0.021100
3908	0.046730
3904	0.135064
3900	0.081181
3896	-0.008702
3892	-0.045895
3888	-0.077509
3884	0.013375
3880	0.160241
3876	0.142097
3872	0.017213
3868	0.003242
3864	0.083565
3860	0.096058
3856	0.035238
3852	0.085330
3848	0.192642
3844	0.144767
3840	0.055193
3836	0.041580
3832	0.040245
3828	0.045323
3824	0.099778
3820	0.133395
3816	0.030016
3812	-0.043821
3808	0.045394
3804	0.157308
3800	0.134491
3796	0.058269
3792	0.072693
3788	0.068950
3784	0.039482
3780	0.116682
3776	0.196576
3772	0.150918
3768	0.062465
3764	-0.035572
3760	-0.072574
3756	0.024437
3752	0.127696
3748	0.182914
3744	0.219297
3740	0.205636
3736	0.119781
3732	0.081443
3728	0.164294
3724	0.266718
3720	0.265669
3716	0.146007
3712	0.023865
3708	0.024938
3704	0.078129
3700	0.051045
3696	0.022125
3692	0.021171
3688	-0.050354
3684	-0.110459
3680	-0.071382
3676	0.043535
3672	0.159311
3668	0.151515
3664	0.008368
3660	-0.133037
3656	-0.089359
3652	0.068688
3648	0.137066
3644	0.084447
3640	0.022768
3636	0.096964
3632	0.184774
3628	0.192165
3624	0.141716
3620	0.004267
3616	-0.078177
3612	-0.170111
3608	-0.243115
3604	-0.132465
3600	-0.013256
3596	0.037193
3592	0.076866
3588	0.058794
3584	-0.015020
3580	-0.059866
3576	-0.085091
3572	-0.032424
3568	0.092768
3564	0.121808
3560	-0.018310
3556	-0.029206
3552	0.166773
3548	0.259304
3544	0.189781
3540	0.149345
3536	0.150060
3532	0.057291
3528	-0.017142
3524	0.078511
3520	0.160813
3516	0.131034
3512	0.128412
3508	0.157618
3504	0.176334
3500	0.248503
3496	0.255942
3492	0.137400
3488	0.091028
3484	0.127148
3480	0.155234
3476	0.155711
3472	0.114989
3468	-0.024795
3464	-0.171017
3460	-0.124621
3456	0.028610
3452	0.089788
3448	0.025224
3444	0.006508
3440	0.016617
3436	-0.003480
3432	0.041413
3428	0.060653
3424	0.047063
3420	0.095129
3416	0.061893
3412	0.003147
3408	0.082898
3404	0.164937
3400	0.103044
3396	-0.034713
3392	-0.058507
3388	0.014543
3384	0.068140
3380	0.107765
3376	0.085949
3372	0.013422
3368	-0.000023
3364	0.066947
3360	0.168657
3356	0.212097
3352	0.175213
3348	0.160431
3344	0.202012
3340	0.230026
3336	0.252008
3332	0.230503
3328	0.112104
3324	0.062441
3320	0.147151
3316	0.232005
3312	0.229525
3308	0.168585
3304	0.051069
3300	-0.090122
3296	-0.091314
3292	0.006365
3288	0.054955
3284	0.088262
3280	0.089740
3276	0.029373
3272	0.000834
3268	0.010848
3264	-0.009775
3260	0.004172
3256	0.070285
3252	0.035476
3248	-0.060081
3244	-0.095200
3240	-0.061130
3236	0.001883
3232	0.047588
3228	0.089740
3224	0.130248
3220	0.094842
3216	-0.034451
3212	-0.117564
3208	-0.089502
3204	0.011897
3200	0.058722
3196	-0.010943
3192	-0.074481
3188	-0.095486
3184	-0.051927
3180	0.023484
3176	0.091624
3172	0.150084
3168	0.142860
3164	0.102519
3160	0.039672
3156	-0.040531
3152	-0.111460
3148	-0.116705
3144	-0.001811
3140	0.186276
3136	0.378847
3132	0.369071
3128	0.169086
3124	0.095868
3120	0.111007
3116	0.124835
3112	0.107884
3108	0.014066
3104	-0.004529
3100	0.032711
3096	-0.011467
3092	-0.085330
3088	-0.070500
3084	0.040459
3080	0.155639
3076	0.150990
3072	0.021719
3068	-0.060915
3064	-0.005292
3060	0.078678
3056	0.112175
3052	0.163650
3048	0.177121
3044	0.077176
3040	0.002264
3036	0.007510
3032	0.006937
3028	0.004768
3024	0.056815
3020	0.102162
3016	0.079751
3012	0.031733
3008	0.001716
3004	0.034499
3000	0.111722
2996	0.144553
2992	0.141859
2988	0.163435
2984	0.194382
2980	0.209426
2976	0.158429
2972	0.057673
2968	0.022029
2964	0.047326
2960	0.111126
2956	0.170946
2952	0.106716
2948	0.023841
2944	0.068640
2940	0.079941
2936	-0.057840
2932	-0.105333
2928	0.054526
2924	0.191283
2920	0.173354
2916	0.111246
2912	0.110173
2908	0.131630
2904	0.127100
2900	0.086879
2896	0.006437
2892	-0.019121
2888	0.051450
2884	0.109934
2880	0.086140
2876	0.004911
2872	-0.002813
2868	0.135612
2864	0.239109
2860	0.175023
2856	0.071763
2852	0.068950
2848	0.116872
2844	0.077486
2840	-0.001335
2836	0.001978
2832	0.042438
2828	0.052022
2824	0.038242
2820	0.045800
2816	0.061464
2812	0.018143
2808	-0.018501
2804	0.024843
2800	0.076341
2796	0.083160
2792	0.053858
2788	0.043630
2784	0.070142
2780	0.072264
2776	0.034594
2772	-0.019121
2768	-0.071144
2764	-0.053548
2760	0.040173
2756	0.055122
2752	-0.025987
2748	-0.074338
2744	-0.052404
2740	-0.004482
2736	0.045609
2732	0.071287
2728	0.012159
2724	-0.045442
2720	-0.017857
2716	0.008726
2712	-0.024867
2708	-0.052452
2704	-0.018835
2700	0.028157
2696	0.057578
2692	0.060176
2688	0.032544
2684	0.029492
2680	0.062203
2676	0.071930
2672	0.047421
2668	0.030279
2664	0.016713
2660	0.028204
2656	0.095796
2652	0.106382
2648	0.016331
2644	-0.066065
2640	-0.096464
2636	-0.064706
2632	-0.020027
2628	-0.016117
2624	-0.033235
2620	-0.029659
2616	0.002574
2612	0.011992
2608	0.022315
2604	0.071310
2600	0.060606
2596	0.001907
2592	0.001144
2588	0.021910
2584	0.044131
2580	0.096988
2576	0.119614
2572	0.078558
2568	0.024890
2564	0.005340
2560	0.011396
2556	0.027322
2552	0.072216
2548	0.084233
2544	0.049209
2540	0.033259
2536	-0.017261
2532	-0.105714
2528	-0.099825
2524	0.026011
2520	0.055217
2516	-0.049114
2512	-0.047445
2508	0.032138
2504	0.056242
2500	0.083184
2496	0.119352
2492	0.077033
2488	0.000667
2484	-0.024056
2480	0.004911
2476	0.093889
2472	0.145244
2468	0.089693
2464	0.008773
2460	-0.016379
2456	0.002384
2452	-0.003075
2448	-0.014114
2444	0.016045
2440	0.091886
2436	0.085163
2432	-0.083732
2428	-0.198650
2424	-0.134396
2420	0.088763
2416	0.278067
2412	0.182247
2408	0.014424
2404	-0.020647
2400	0.007033
2396	0.027298
2392	0.022625
2388	0.009369
2384	-0.025916
2380	-0.036501
2376	-0.009703
2372	0.018429
2368	0.056219
2364	0.089263
2360	0.105500
2356	0.083208
2352	0.047731
2348	0.062203
2344	0.048470
2340	-0.027966
2336	-0.077152
2332	-0.090026
2328	-0.075459
2324	-0.023579
2320	0.019049
2316	0.025820
2312	0.022840
2308	0.024724
2304	0.041961
2300	0.072526
2296	0.117754
2292	0.158452
2288	0.153398
2284	0.157856
2280	0.193214
2276	0.234079
2272	0.301599
2268	0.355744
2264	0.361609
2260	0.369715
2256	0.416398
2252	0.473594
2248	0.529122
2244	0.592637
2240	0.645589
2236	0.697112
2232	0.811052
2228	0.963306
2224	1.071619
2220	1.158165
2216	1.271939
2212	1.434493
2208	1.645541
2204	1.847362
2200	1.988315
2196	2.083539
2192	2.233958
2188	2.492856
2184	2.773666
2180	3.036713
2176	3.305792
2172	3.558301
2168	3.759050
2164	4.015111
2160	4.409885
2156	4.764151
2152	4.978442
2148	5.214071
2144	5.644083
2140	6.201314
2136	6.671047
2132	7.008600
2128	7.346248
2124	7.740235
2120	8.109521
2116	8.434247
2112	8.827614
2108	9.323239
2104	9.791016
2100	10.1832
2096	10.6143
2092	11.1316
2088	11.5804
2084	11.9158
2080	12.3143
2076	12.8157
2072	13.3172
2068	13.7614
2064	14.2119
2060	14.7546
2056	15.2912
2052	15.714
2048	16.0567
2044	16.3977
2040	16.7764
2036	17.2129
2032	17.7055
2028	18.1754
2024	18.5545
2020	18.8791
2016	19.1911
2012	19.5149
2008	19.8954
2004	20.2917
2000	20.6745
1996	21.0458
1992	21.3813
1988	21.6883
1984	21.9768
1980	22.2747
1976	22.5884
1972	22.9
1968	23.2087
1964	23.4606
1960	23.6854
1956	23.9911
1952	24.319
1948	24.5851
1944	24.8097
1940	24.9876
1936	25.1447
1932	25.3548
1928	25.567
1924	25.7506
1920	25.9872
1916	26.2352
1912	26.4073
1908	26.5171
1904	26.6644
1900	26.8575
1896	27.0063
1892	27.1818
1888	27.3818
1884	27.4931
1880	27.5779
1876	27.7071
1872	27.8698
1868	28.003
1864	28.0777
1860	28.1596
1856	28.2659
1852	28.4191
1848	28.5744
1844	28.626
1840	28.6291
1836	28.7085
1832	28.8549
1828	28.943
1824	28.9752
1820	29.0465
1816	29.1522
1812	29.2849
1808	29.4131
1804	29.4919
1800	29.5521
1796	29.5916
1792	29.5773
1788	29.5817
1784	29.6798
1780	29.7759
1776	29.8502
1772	29.9028
1768	29.8753
1764	29.8667
1760	29.914
1756	30.003
1752	30.1
1748	30.1037
1744	30.049
1740	30.056
1736	30.1279
1732	30.1456
1728	30.1268
1724	30.1542
1720	30.1874
1716	30.1855
1712	30.1738
1708	30.2445
1704	30.4098
1700	30.5129
1696	30.4718
1692	30.4367
1688	30.5078
1684	30.5332
1680	30.4603
1676	30.4183
1672	30.4149
1668	30.4164
1664	30.4333
1660	30.5184
1656	30.6772
1652	30.7419
1648	30.6351
1644	30.5284
1640	30.5931
1636	30.7202
1632	30.6994
1628	30.5884
1624	30.4785
1620	30.4142
1616	30.4057
1612	30.3681
1608	30.3308
1604	30.3542
1600	30.3637
1596	30.2736
1592	30.1984
1588	30.2682
1584	30.3916
1580	30.4777
1576	30.506
1572	30.4594
1568	30.4126
1564	30.4823
1560	30.6299
1556	30.5939
1552	30.4059
1548	30.4126
1544	30.6132
1540	30.6543
1536	30.4864
1532	30.3808
1528	30.4137
1524	30.4989
1520	30.5327
1516	30.4644
1512	30.4703
1508	30.5728
1504	30.509
1500	30.3772
1496	30.3333
1492	30.2476
1488	30.1811
1484	30.1495
1480	30.1261
1476	30.2048
1472	30.2808
1468	30.2861
1464	30.3487
1460	30.4437
1456	30.355
1452	30.057
1448	29.875
1444	29.9264
1440	30.0379
1436	30.0581
1432	29.9609
1428	29.9639
1424	30.0719
1420	30.0533
1416	29.9613
1412	29.8926
1408	29.8724
1404	29.9517
1400	30.0056
1396	29.9778
1392	29.9602
1388	29.982
1384	30.0069
1380	29.9879
1376	29.9167
1372	29.8609
1368	29.9182
1364	29.9663
1360	29.8875
1356	29.8174
1352	29.8209
1348	29.8164
1344	29.7631
1340	29.706
1336	29.7085
1332	29.7606
1328	29.7816
1324	29.7397
1320	29.6684
1316	29.6148
1312	29.6248
1308	29.6708
1304	29.6618
1300	29.6142
1296	29.5909
1292	29.5526
1288	29.4974
1284	29.497
1280	29.5283
1276	29.5205
1272	29.4754
1268	29.4339
1264	29.4497
1260	29.4616
1256	29.3872
1252	29.2975
1248	29.2849
1244	29.326
1240	29.3583
1236	29.3881
1232	29.4069
1228	29.3794
1224	29.3255
1220	29.2581
1216	29.2022
1212	29.1987
1208	29.2078
1204	29.2109
1200	29.2235
1196	29.1907
1192	29.1095
1188	29.0618
1184	29.0843
1180	29.148
1176	29.1776
1172	29.1361
1168	29.061
1164	28.957
1160	28.8801
1156	28.9167
1152	28.9591
1148	28.8766
1144	28.7996
1140	28.8841
1136	28.9937
1132	28.9624
1128	28.9078
1124	28.8973
1120	28.8549
1116	28.804
1112	28.7688
1108	28.7148
1104	28.634
1100	28.552
1096	28.5246
1092	28.5219
1088	28.4751
1084	28.4141
1080	28.3884
1076	28.3533
1072	28.3364
1068	28.4074
1064	28.4333
1060	28.33
1056	28.2503
1052	28.3131
1048	28.3951
1044	28.333
1040	28.2343
1036	28.1566
1032	28.0674
1028	28.0791
1024	28.1434
1020	28.2354
1016	28.3208
1012	28.1369
1008	27.8272
1004	27.7268
1000	27.7866
996	 27.8689
992	 27.9353
988	 27.8721
984	 27.5712
980	 27.3655
976	 27.5539
972	 27.766
968	 27.7097
964	 27.5503
960	 27.4354
956	 27.3433
952	 27.2357
948	 27.1869
944	 27.1905
940	 27.1665
936	 27.1247
932	 27.0877
928	 27.0615
924	 27.0273
920	 26.9845
916	 26.9383
912	 26.8791
908	 26.9016
904	 27.0106
900	 26.9705
896	 26.7203
892	 26.5162
888	 26.4729
884	 26.4297
880	 26.3375
876	 26.2952
872	 26.3236
868	 26.3348
864	 26.266
860	 26.1383
856	 26.0625
852	 26.0975
848	 26.0973
844	 25.999
840	 25.9089
836	 25.866
832	 25.7643
828	 25.6698
824	 25.7167
820	 25.6608
816	 25.5094
812	 25.5288
808	 25.5134
804	 25.3351
800	 25.2139
796	 25.2006
792	 25.1336
788	 24.9867
784	 24.9859
780	 25.0741
776	 25.0126
772	 24.9013
768	 24.7582
764	 24.5021
760	 24.3265
756	 24.3211
752	 24.4652
748	 24.7176
744	 24.7832
740	 24.4852
736	 24.0951
732	 24.0836
728	 24.2268
724	 24.0741
720	 23.884
716	 23.6663
712	 23.3749
708	 23.3885
704	 23.5147
700	 23.3013
696	 22.953
692	 23.01
688	 23.3585
684	 23.4236
680	 23.153
676	 22.7896
672	 22.5849
668	 22.5535
664	 22.5754
660	 22.6809
656	 22.7366
652	 22.6207
648	 22.3732
644	 22.0366
640	 21.9477
636	 22.3419
632	 22.6229
628	 22.4309
624	 22.0932
620	 21.7001
616	 21.3583
612	 21.1739
608	 21.2282
604	 21.4635
600	 21.3822
596	 21.2497
592	 21.2437
588	 21.0748
584	 20.9774
580	 20.6941
576	 20.021
572	 19.5786
568	 19.5315
564	 19.6002
560	 19.8861
556	 20.2118
552	 20.2301
548	 20.0223
544	 19.8145
540	 19.7199
536	 19.5128
532	 19.1638
528	 18.8608
524	 18.664
520	 18.6048
516	 18.6668
512	 18.9169
508	 19.0123
504	 18.677
500	 18.3747
496	 18.3068
492	 18.4457
488	 18.8745
484	 18.981
480	 18.2529
476	 17.4636
472	 17.2143
468	 17.1999
464	 17.1077
460	 16.9
456	 16.7106
452	 16.1149
448	 15.9092
444	 16.9022
440	 17.31
436	 17.1022
432	 16.2842
428	 13.2892
424	 10.3391
420	 10.8421
416	 13.0032
412	 14.7412
408	 18.2103
404	 18.4157
400	 10.5707
396	 6.903290
392	 13.9079
388	 18.536
384	 1.548004
380	 -22.5404
376	 -17.0977
372	 13.327
370	 27.2699