File: Bakgrunnsmateriale/MATLAB/FTIR/ftir_data/LPE453/Mapping_121/LPE453_t108.asc
PE IR       SPECTRUM    SPECTRUM    ASCII       PEDS        1.60
  -1
LP9396~1.ASC
17/05/16
23:11:49.00
17/05/16
23:12:15.00
tln
$LPE453_t0108$<tbV0>[-7.8,10.4,8.0,0.0,27,1,0]
27.028
64

2002,4.07
MIRTGS : RIGHTBACK : INTERNAL 2
MIR : ON : INTERNAL 2
OPTKBR

0.200000
8
8.000000
FILLER
RATIO
SPECTRUM
UNLOCKED 256

DOUBLE
64
COMBINED
1
0
0

0.002000
RATIO

1
0
TRUE
51149
0
LEFT NOT FITTED RIGHT NOT FITTED 0
NONE
NONE
15600
12
4.427000
51148
TRUE
1 0 8 72 0 0 0 0

15798

#HDR
-1
-1
#GR
µM
%T
2.38419e-05
0.0
2.000000
0.002000
12515
8
37.2319
-4.695597
#DATA
2.000000	 0.448870
2.018000	 0.387137
2.036000	 -0.248211
2.054000	 -0.014490
2.072000	 0.294943
2.090000	 -0.096741
2.108000	 0.176860
2.126000	 0.013482
2.144000	 0.483715
2.162000	 1.002174
2.180000	 0.681313
2.198000	 0.047547
2.216000	 1.148262
2.234000	 -3.423198
2.252000	 0.149276
2.270000	 0.285648
2.288000	 -0.269099
2.306000	 0.094592
2.324000	 -0.147852
2.342000	 0.197048
2.360000	 -0.057504
2.378000	 0.152649
2.396000	 0.178246
2.414000	 -0.054832
2.432000	 -0.122713
2.450000	 -0.059578
2.468000	 0.024209
2.486000	 0.152709
2.504000	 0.121753
2.522000	 0.000517
2.540000	 -0.140325
2.558000	 0.159342
2.576000	 0.114549
2.594000	 -0.090049
2.612000	 0.003273
2.630000	 0.004312
2.648000	 -0.145271
2.666000	 0.106028
2.684000	 0.036926
2.702000	 0.108821
2.720000	 -0.062313
2.738000	 -0.003821
2.756000	 -0.052978
2.774000	 0.014988
2.792000	 0.035318
2.810000	 0.027730
2.828000	 0.163887
2.846000	 0.023986
2.864000	 0.100054
2.882000	 -0.042880
2.900000	 0.040325
2.918000	 0.079020
2.936000	 0.067488
2.954000	 -0.015828
2.972000	 -0.044503
2.990000	 -0.035123
3.008000	 -0.084682
3.026000	 0.000643
3.044000	 -0.017370
3.062000	 0.065763
3.080000	 0.110360
3.098000	 -0.068440
3.116000	 0.039481
3.134000	 0.044067
3.152000	 -0.104874
3.170000	 -0.021124
3.188000	 0.069969
3.206000	 0.074011
3.224000	 -0.045799
3.242000	 0.061221
3.260000	 0.041751
3.278000	 0.014739
3.296000	 0.073271
3.314000	 0.083658
3.332000	 -0.014900
3.350000	 -0.069020
3.368000	 -0.082139
3.386000	 -0.032907
3.404000	 0.031696
3.422000	 0.058486
3.440000	 0.083985
3.458000	 0.096160
3.476000	 0.082658
3.494000	 -0.014501
3.512000	 0.169297
3.530000	 0.057547
3.548000	 0.022168
3.566000	 0.077361
3.584000	 -0.036720
3.602000	 -0.011250
3.620000	 0.044554
3.638000	 0.003683
3.656000	 0.054999
3.674000	 -0.047997
3.692000	 0.037421
3.710000	 -0.023257
3.728000	 0.070332
3.746000	 -0.043349
3.764000	 0.068402
3.782000	 -0.012086
3.800000	 -0.021604
3.818000	 0.110140
3.836000	 -0.022579
3.854000	 0.036251
3.872000	 -0.010099
3.890000	 0.030565
3.908000	 -0.085023
3.926000	 0.035933
3.944000	 -0.040999
3.962000	 0.004419
3.980000	 -0.067640
3.998000	 0.034219
4.016000	 -0.006824
4.034000	 0.087369
4.052000	 0.077031
4.070000	 0.031922
4.088000	 0.015583
4.106000	 -0.023416
4.124000	 -0.032299
4.141999	 0.286493
4.160000	 0.035554
4.178000	 0.135848
4.196000	 0.177168
4.214000	 0.126987
4.232000	 0.142375
4.250000	 0.182297
4.268000	 0.268974
4.286000	 0.311519
4.304000	 0.414526
4.322000	 0.488540
4.340000	 0.703396
4.358000	 0.818723
4.375999	 0.986668
4.394000	 1.174145
4.412000	 1.426046
4.430000	 1.742619
4.448000	 2.211294
4.466000	 2.533293
4.484000	 2.925376
4.502000	 3.423401
4.520000	 4.072692
4.538000	 4.768092
4.556000	 5.491485
4.574000	 6.300265
4.592000	 7.165508
4.609999	 8.005555
4.628000	 8.881868
4.646000	 9.898871
4.664000	 10.6601
4.682000	 11.8816
4.700000	 12.9509
4.718000	 14.0841
4.736000	 15.0854
4.754000	 16.1943
4.772000	 17.1314
4.790000	 18.2242
4.808000	 19.2934
4.826000	 20.1852
4.843999	 21.2049
4.862000	 22.1468
4.880000	 23.0359
4.898000	 23.7382
4.916000	 24.6195
4.934000	 25.4928
4.952000	 26.259
4.970000	 27.0033
4.988000	 27.6763
5.006000	 28.2191
5.024000	 28.6882
5.042000	 29.1306
5.060000	 29.694
5.077999	 30.2298
5.096000	 30.8755
5.114000	 31.4133
5.132000	 31.8023
5.150000	 32.0029
5.168000	 32.1131
5.186000	 32.3383
5.204000	 32.7964
5.222000	 33.2151
5.240000	 33.5736
5.258000	 33.9645
5.276000	 34.2724
5.294000	 34.4386
5.312000	 34.3682
5.330000	 34.3833
5.348000	 34.5228
5.366000	 34.6608
5.384000	 34.948
5.402000	 35.3528
5.420000	 35.6239
5.438000	 35.7732
5.456000	 35.8586
5.474000	 35.7929
5.492000	 35.58
5.510000	 35.5069
5.528000	 35.6056
5.546000	 35.7363
5.564000	 35.9377
5.582000	 36.293
5.600000	 36.5489
5.618000	 36.5848
5.636000	 36.5166
5.654000	 36.406
5.672000	 36.1643
5.690000	 36.041
5.708000	 36.0882
5.726000	 36.2185
5.744000	 36.4238
5.762000	 36.5837
5.780000	 36.7599
5.798000	 36.9086
5.816000	 36.8531
5.834000	 36.6783
5.852000	 36.5209
5.870000	 36.3422
5.888000	 36.2194
5.906000	 36.2365
5.923999	 36.3688
5.942000	 36.5536
5.960000	 36.8242
5.978000	 37.0858
5.996000	 37.1695
6.014000	 37.1155
6.032000	 37.017
6.050000	 36.7716
6.068000	 36.5267
6.086000	 36.4462
6.104000	 36.3957
6.122000	 36.358
6.140000	 36.4227
6.158000	 36.6065
6.176000	 36.8075
6.194000	 36.9399
6.212000	 37.0357
6.230000	 37.0814
6.248000	 37.0717
6.266000	 36.9844
6.284000	 36.7505
6.302000	 36.5222
6.320000	 36.3483
6.338000	 36.2443
6.356000	 36.3209
6.374000	 36.445
6.392000	 36.5592
6.410000	 36.7524
6.428000	 36.9944
6.446000	 37.1828
6.464000	 37.2302
6.482000	 37.1451
6.500000	 36.9616
6.518000	 36.7863
6.536000	 36.5907
6.554000	 36.3451
6.572000	 36.1887
6.590000	 36.1927
6.608000	 36.2503
6.626000	 36.2903
6.644000	 36.4273
6.662000	 36.6268
6.680000	 36.7421
6.698000	 36.7826
6.716000	 36.8415
6.734000	 36.903
6.752000	 36.8734
6.770000	 36.755
6.788000	 36.6212
6.806000	 36.4642
6.824000	 36.2612
6.842000	 36.0564
6.860000	 35.935
6.878000	 35.9999
6.896000	 36.1963
6.914000	 36.2909
6.932000	 36.2865
6.950000	 36.3978
6.968000	 36.6296
6.986000	 36.8262
7.004000	 36.9123
7.022000	 36.8696
7.040000	 36.7358
7.058000	 36.5464
7.076000	 36.3019
7.094000	 36.0588
7.112000	 35.8806
7.130000	 35.7771
7.148000	 35.7479
7.166000	 35.7678
7.184000	 35.7994
7.202000	 35.8714
7.220000	 36.0247
7.238000	 36.2163
7.256000	 36.395
7.274000	 36.5688
7.292000	 36.7106
7.310000	 36.745
7.328000	 36.6549
7.346000	 36.5119
7.364000	 36.3949
7.382000	 36.2919
7.400000	 36.1358
7.418000	 35.9313
7.436000	 35.7423
7.454000	 35.598
7.472000	 35.514
7.490000	 35.5212
7.508000	 35.6145
7.526000	 35.7501
7.544000	 35.8997
7.562000	 36.0525
7.580000	 36.2005
7.598000	 36.3455
7.616000	 36.4636
7.634000	 36.5008
7.652000	 36.4614
7.670000	 36.4028
7.688000	 36.3328
7.706000	 36.2206
7.724000	 36.0639
7.742000	 35.8793
7.760000	 35.6877
7.778000	 35.5195
7.796000	 35.3886
7.814000	 35.2891
7.832000	 35.2241
7.850000	 35.2187
7.868000	 35.2991
7.886000	 35.4573
7.904000	 35.6343
7.922000	 35.7765
7.940000	 35.8917
7.958000	 36.0109
7.976000	 36.1322
7.994000	 36.2221
8.012000	 36.246
8.030000	 36.1984
8.048000	 36.1201
8.065999	 36.0597
8.084000	 36.0086
8.102000	 35.9095
8.120000	 35.7354
8.138000	 35.5271
8.155999	 35.3513
8.173999	 35.2399
8.192000	 35.1782
8.210000	 35.1407
8.228000	 35.1271
8.246000	 35.1584
8.263999	 35.243
8.282000	 35.3612
8.300000	 35.4849
8.318000	 35.6025
8.336000	 35.7202
8.353999	 35.8432
8.372000	 35.9607
8.390000	 36.0497
8.408000	 36.0919
8.426000	 36.0821
8.443999	 36.0276
8.462000	 35.9433
8.480000	 35.8489
8.498000	 35.7596
8.516000	 35.6694
8.533999	 35.5527
8.552000	 35.3904
8.570000	 35.1931
8.588000	 34.9978
8.606000	 34.8454
8.624000	 34.7636
8.641999	 34.7602
8.660000	 34.8196
8.678000	 34.9078
8.696000	 34.9889
8.714000	 35.0487
8.731999	 35.1029
8.750000	 35.1851
8.768000	 35.3217
8.786000	 35.5104
8.804000	 35.7092
8.821999	 35.8591
8.840000	 35.9293
8.858000	 35.9372
8.876000	 35.9141
8.894000	 35.8664
8.911999	 35.7787
8.930000	 35.6526
8.948000	 35.5197
8.966000	 35.4168
8.984000	 35.3529
9.001999	 35.3061
9.020000	 35.2416
9.038000	 35.133
9.056000	 34.9799
9.074000	 34.8075
9.092000	 34.6514
9.109999	 34.5399
9.128000	 34.4881
9.146000	 34.4986
9.164000	 34.5633
9.182000	 34.66
9.199999	 34.7626
9.218000	 34.8591
9.236000	 34.956
9.254000	 35.0623
9.272000	 35.1738
9.289999	 35.2769
9.308000	 35.3638
9.326000	 35.4412
9.344000	 35.5208
9.362000	 35.6033
9.379999	 35.6724
9.398000	 35.7049
9.416000	 35.6849
9.434000	 35.6099
9.452000	 35.4872
9.469999	 35.3271
9.488000	 35.1434
9.506000	 34.9585
9.524000	 34.8028
9.542000	 34.6973
9.560000	 34.6381
9.577999	 34.5987
9.596000	 34.5523
9.614000	 34.4915
9.632000	 34.4276
9.650000	 34.3776
9.667999	 34.3509
9.686000	 34.3458
9.704000	 34.3551
9.722000	 34.3746
9.740000	 34.4076
9.757999	 34.4633
9.776000	 34.5523
9.794000	 34.6803
9.812000	 34.8419
9.830000	 35.0184
9.847999	 35.1816
9.866000	 35.3054
9.884000	 35.3766
9.902000	 35.3986
9.920000	 35.3852
9.937999	 35.3503
9.956000	 35.3013
9.974000	 35.2412
9.992000	 35.1751
10.01	35.1098
10.028	35.0488
10.046	34.9859
10.064	34.9098
10.082	34.8134
10.1	34.7021
10.118	34.5921
10.136	34.4971
10.154	34.4167
10.172	34.3367
10.19	34.2394
10.208	34.1193
10.226	33.989
10.244	33.8723
10.262	33.7909
10.28	33.7538
10.298	33.7571
10.316	33.7905
10.334	33.8461
10.352	33.9205
10.37	34.0117
10.388	34.1145
10.406	34.2197
10.424	34.318
10.442	34.4045
10.46	34.4809
10.478	34.552
10.496	34.6214
10.514	34.6886
10.532	34.7495
10.55	34.7995
10.568	34.8351
10.586	34.8537
10.604	34.8524
10.622	34.8283
10.64	34.7794
10.658	34.7071
10.676	34.6173
10.694	34.5169
10.712	34.4122
10.73	34.3056
10.748	34.1961
10.766	34.0816
10.784	33.9618
10.802	33.8395
10.82	33.7196
10.838	33.6075
10.856	33.507
10.874	33.4204
10.892	33.3488
10.91	33.2922
10.928	33.2512
10.946	33.2259
10.964	33.2156
10.982	33.2187
11	33.2313
11.018	33.2489
11.036	33.2677
11.054	33.2872
11.072	33.3107
11.09	33.3451
11.108	33.3968
11.126	33.4694
11.144	33.5605
11.162	33.662
11.18	33.7644
11.198	33.86
11.216	33.9462
11.234	34.0251
11.252	34.1008
11.27	34.1744
11.288	34.241
11.306	34.2919
11.324	34.316
11.342	34.306
11.36	34.2616
11.378	34.1897
11.396	34.1013
11.414	34.0077
11.432	33.9161
11.45	33.8282
11.468	33.7411
11.486	33.6501
11.504	33.5515
11.522	33.4439
11.54	33.3292
11.558	33.2119
11.576	33.0988
11.594	32.9976
11.612	32.9157
11.63	32.8584
11.648	32.8268
11.666	32.8166
11.684	32.8181
11.702	32.8203
11.72	32.8123
11.738	32.789
11.756	32.7525
11.774	32.7113
11.792	32.6764
11.81	32.657
11.828	32.6574
11.846	32.676
11.864	32.7072
11.882	32.745
11.9	32.7854
11.918	32.8276
11.936	32.8741
11.954	32.9286
11.972	32.9937
11.99	33.0686
12.008	33.1492
12.026	33.2287
12.044	33.2996
12.062	33.3558
12.08	33.3945
12.098	33.417
12.116	33.4275
12.134	33.4325
12.152	33.4374
12.17	33.4452
12.188	33.4553
12.206	33.4637
12.224	33.4639
12.242	33.4493
12.26	33.4153
12.278	33.3607
12.296	33.2876
12.314	33.2009
12.332	33.1066
12.35	33.0097
12.368	32.9135
12.386	32.8188
12.404	32.7254
12.422	32.6323
12.44	32.5398
12.458	32.4496
12.476	32.3649
12.494	32.2891
12.512	32.2247
12.53	32.1722
12.548	32.1301
12.566	32.0948
12.584	32.0628
12.602	32.0309
12.62	31.9979
12.638	31.9648
12.656	31.9341
12.674	31.9088
12.692	31.8917
12.71	31.8844
12.728	31.887
12.746	31.8985
12.764	31.9173
12.782	31.9414
12.8	31.9693
12.818	32.0003
12.836	32.0339
12.854	32.0701
12.872	32.1089
12.89	32.1501
12.908	32.1932
12.926	32.237
12.944	32.2804
12.962	32.3215
12.98	32.3586
12.998	32.39
13.016	32.4142
13.034	32.4305
13.052	32.439
13.07	32.4402
13.088	32.4353
13.106	32.4261
13.124	32.4145
13.142	32.402
13.16	32.3902
13.178	32.3797
13.196	32.3704
13.214	32.3616
13.232	32.3519
13.25	32.3391
13.268	32.3206
13.286	32.2932
13.304	32.2545
13.322	32.2028
13.34	32.1377
13.358	32.0606
13.376	31.9748
13.394	31.8854
13.412	31.7979
13.43	31.7172
13.448	31.6468
13.466	31.5877
13.484	31.5384
13.502	31.4951
13.52	31.4527
13.538	31.4064
13.556	31.3528
13.574	31.2907
13.592	31.2215
13.61	31.1488
13.628	31.0771
13.646	31.0107
13.664	30.9526
13.682	30.9035
13.7	30.8626
13.718	30.8271
13.736	30.7944
13.754	30.7625
13.772	30.7314
13.79	30.7027
13.808	30.68
13.826	30.6676
13.844	30.6698
13.862	30.6892
13.88	30.7267
13.898	30.7807
13.916	30.8473
13.934	30.9212
13.952	30.9967
13.97	31.0684
13.988	31.1322
14.006	31.1861
14.024	31.2298
14.042	31.2648
14.06	31.2938
14.078	31.3197
14.096	31.3453
14.114	31.3727
14.132	31.4028
14.15	31.4351
14.168	31.4686
14.186	31.5008
14.204	31.5295
14.222	31.552
14.24	31.5664
14.258	31.5718
14.276	31.5682
14.294	31.5567
14.312	31.5388
14.33	31.5166
14.348	31.492
14.366	31.4668
14.384	31.442
14.402	31.4181
14.42	31.3944
14.438	31.3699
14.456	31.3433
14.474	31.3127
14.492	31.2767
14.51	31.2337
14.528	31.183
14.546	31.1246
14.564	31.0588
14.582	30.9866
14.6	30.9092
14.618	30.8282
14.636	30.7452
14.654	30.6614
14.672	30.5779
14.69	30.4956
14.708	30.4148
14.726	30.3356
14.744	30.258
14.762	30.182
14.78	30.1079
14.798	30.0365
14.816	29.969
14.834	29.9072
14.852	29.8529
14.87	29.8083
14.888	29.7746
14.906	29.7527
14.924	29.743
14.942	29.7441
14.96	29.7545
14.978	29.7717
14.996	29.7935
15.014	29.8174
15.032	29.8412
15.05	29.8639
15.068	29.8849
15.086	29.9041
15.104	29.9222
15.122	29.94
15.14	29.9584
15.158	29.9784
15.176	30.0005
15.194	30.0251
15.212	30.0521
15.23	30.0813
15.248	30.1123
15.266	30.1448
15.284	30.1787
15.302	30.2138
15.32	30.25
15.338	30.2875
15.356	30.3259
15.374	30.3651
15.392	30.4046
15.41	30.4438
15.428	30.4815
15.446	30.5166
15.464	30.5482
15.482	30.5755
15.5	30.5978
15.518	30.6149
15.536	30.6271
15.554	30.6346
15.572	30.6383
15.59	30.6391
15.608	30.6379
15.626	30.6353
15.644	30.6315
15.662	30.6261
15.68	30.6184
15.698	30.6074
15.716	30.5913
15.734	30.5684
15.752	30.5372
15.77	30.4967
15.788	30.4459
15.806	30.3853
15.824	30.3155
15.842	30.2381
15.86	30.1559
15.878	30.0712
15.896	29.9865
15.914	29.9048
15.932	29.828
15.95	29.7574
15.968	29.6939
15.986	29.6376
16.004	29.588
16.022	29.5446
16.04	29.506
16.058	29.4712
16.076	29.4395
16.094	29.4102
16.112	29.3833
16.13	29.3588
16.148	29.337
16.166	29.3183
16.184	29.3027
16.202	29.2904
16.22	29.2804
16.238	29.2719
16.256	29.2637
16.274	29.2535
16.292	29.2395
16.31	29.2203
16.328	29.1936
16.346	29.159
16.364	29.1158
16.382	29.0647
16.4	29.0077
16.418	28.9463
16.436	28.8843
16.454	28.8252
16.472	28.7717
16.49	28.7284
16.508	28.6975
16.526	28.6809
16.544	28.6803
16.562	28.695
16.58	28.7247
16.598	28.7669
16.616	28.8185
16.634	28.8773
16.652	28.938
16.67	28.9981
16.688	29.0543
16.706	29.1026
16.724	29.1418
16.742	29.17
16.76	29.1865
16.778	29.1917
16.796	29.1865
16.814	29.173
16.832	29.1525
16.85	29.1284
16.868	29.103
16.886	29.0784
16.904	29.0575
16.922	29.0415
16.94	29.032
16.958	29.0293
16.976	29.0332
16.994	29.0433
17.012	29.0579
17.03	29.0762
17.048	29.0956
17.066	29.115
17.084	29.1327
17.102	29.147
17.12	29.1573
17.138	29.1628
17.156	29.1638
17.174	29.1605
17.192	29.1539
17.21	29.1447
17.228	29.1342
17.246	29.1233
17.264	29.1127
17.282	29.1031
17.3	29.0945
17.318	29.0869
17.336	29.0798
17.354	29.0726
17.372	29.0643
17.39	29.0546
17.408	29.0424
17.426	29.0274
17.444	29.0094
17.462	28.9884
17.48	28.9645
17.498	28.9384
17.516	28.9104
17.534	28.881
17.552	28.8508
17.57	28.8199
17.588	28.7885
17.606	28.7566
17.624	28.7241
17.642	28.6907
17.66	28.6561
17.678	28.6199
17.696	28.5821
17.714	28.542
17.732	28.4997
17.75	28.4553
17.768	28.4088
17.786	28.3604
17.804	28.3108
17.822	28.26
17.84	28.2088
17.858	28.1574
17.876	28.1061
17.894	28.0553
17.912	28.0051
17.93	27.9557
17.948	27.907
17.966	27.8592
17.984	27.8124
18.002	27.7669
18.02	27.723
18.038	27.6809
18.056	27.6412
18.074	27.6042
18.092	27.5705
18.11	27.5402
18.128	27.514
18.146	27.4918
18.164	27.4736
18.182	27.4591
18.2	27.4482
18.218	27.4399
18.236	27.4337
18.254	27.4282
18.272	27.4231
18.29	27.4168
18.308	27.4091
18.326	27.3988
18.344	27.386
18.362	27.3699
18.38	27.3508
18.398	27.3288
18.416	27.3045
18.434	27.2783
18.452	27.2511
18.47	27.2237
18.488	27.1974
18.506	27.1728
18.524	27.1514
18.542	27.1336
18.56	27.1207
18.578	27.1126
18.596	27.1102
18.614	27.1135
18.632	27.1223
18.65	27.1366
18.668	27.1555
18.686	27.1789
18.704	27.2052
18.722	27.2342
18.74	27.264
18.758	27.2944
18.776	27.3233
18.794	27.3506
18.812	27.3744
18.83	27.3945
18.848	27.4095
18.866	27.4192
18.884	27.423
18.902	27.4208
18.92	27.4124
18.938	27.3983
18.956	27.3788
18.974	27.3548
18.992	27.3272
19.01	27.2973
19.028	27.2665
19.046	27.2361
19.064	27.2079
19.082	27.1829
19.1	27.1633
19.118	27.1496
19.136	27.1438
19.154	27.1457
19.172	27.1568
19.19	27.1765
19.208	27.2047
19.226	27.2407
19.244	27.2831
19.262	27.3313
19.28	27.3822
19.298	27.4356
19.316	27.4874
19.334	27.5377
19.352	27.582
19.37	27.6208
19.388	27.6504
19.406	27.6709
19.424	27.6802
19.442	27.6783
19.46	27.6649
19.478	27.6398
19.496	27.6044
19.514	27.5586
19.532	27.5046
19.55	27.4432
19.568	27.3762
19.586	27.3053
19.604	27.2315
19.622	27.1573
19.64	27.0825
19.658	27.0094
19.676	26.9378
19.694	26.8689
19.712	26.8027
19.73	26.7394
19.748	26.6789
19.766	26.6208
19.784	26.5652
19.802	26.5115
19.82	26.4594
19.838	26.4089
19.856	26.3597
19.874	26.3118
19.892	26.2656
19.91	26.221
19.928	26.1788
19.946	26.1388
19.964	26.1021
19.982	26.0687
20	26.0393
20.018	26.0143
20.036	25.9937
20.054	25.9779
20.072	25.9668
20.09	25.9602
20.108	25.9581
20.126	25.9594
20.144	25.9644
20.162	25.9717
20.18	25.9809
20.198	25.9911
20.216	26.0008
20.234	26.0102
20.252	26.0169
20.27	26.0215
20.288	26.0223
20.306	26.0191
20.324	26.0116
20.342	25.9992
20.36	25.9823
20.378	25.9607
20.396	25.9346
20.414	25.9051
20.432	25.8719
20.45	25.8364
20.468	25.799
20.486	25.7604
20.504	25.7221
20.522	25.6838
20.54	25.6477
20.558	25.6134
20.576	25.5821
20.594	25.5546
20.612	25.5307
20.63	25.5111
20.648	25.4958
20.666	25.4846
20.684	25.4778
20.702	25.4747
20.72	25.4753
20.738	25.4793
20.756	25.4858
20.774	25.4951
20.792	25.5059
20.81	25.5183
20.828	25.5317
20.846	25.5454
20.864	25.5596
20.882	25.5736
20.9	25.5874
20.918	25.601
20.936	25.614
20.954	25.6267
20.972	25.6391
20.99	25.6512
21.008	25.6631
21.026	25.675
21.044	25.6868
21.062	25.6986
21.08	25.7104
21.098	25.7221
21.116	25.7338
21.134	25.7455
21.152	25.7571
21.17	25.7685
21.188	25.7799
21.206	25.7913
21.224	25.8027
21.242	25.8146
21.26	25.8267
21.278	25.8398
21.296	25.854
21.314	25.8695
21.332	25.8872
21.35	25.9069
21.368	25.9291
21.386	25.9542
21.404	25.982
21.422	26.0126
21.44	26.046
21.458	26.0816
21.476	26.1194
21.494	26.1591
21.512	26.199
21.53	26.2398
21.548	26.2796
21.566	26.3173
21.584	26.3532
21.602	26.3844
21.62	26.4113
21.638	26.4327
21.656	26.4466
21.674	26.4539
21.692	26.4527
21.71	26.4426
21.728	26.4238
21.746	26.3961
21.764	26.3593
21.782	26.3143
21.8	26.2613
21.818	26.2003
21.836	26.1332
21.854	26.0598
21.872	25.9811
21.89	25.8992
21.908	25.8133
21.926	25.7255
21.944	25.6372
21.962	25.548
21.98	25.4602
21.998	25.3738
22.016	25.2893
22.034	25.2081
22.052	25.1298
22.07	25.055
22.088	24.9844
22.106	24.9176
22.124	24.8553
22.142	24.7975
22.16	24.7441
22.178	24.6952
22.196	24.6509
22.214	24.6111
22.232	24.5759
22.25	24.5452
22.268	24.5188
22.286	24.4966
22.304	24.4787
22.322	24.4646
22.34	24.4543
22.358	24.4476
22.376	24.4439
22.394	24.4433
22.412	24.4453
22.43	24.449
22.448	24.455
22.466	24.4623
22.484	24.4704
22.502	24.4796
22.52	24.4892
22.538	24.4988
22.556	24.5087
22.574	24.5186
22.592	24.5283
22.61	24.5381
22.628	24.5483
22.646	24.5584
22.664	24.5692
22.682	24.5815
22.7	24.5949
22.718	24.6101
22.736	24.6279
22.754	24.6479
22.772	24.6707
22.79	24.697
22.808	24.7266
22.826	24.759
22.844	24.7942
22.862	24.8322
22.88	24.8718
22.898	24.9129
22.916	24.9556
22.934	24.997
22.952	25.0366
22.97	25.0748
22.988	25.1073
23.006	25.1341
23.024	25.1553
23.042	25.166
23.06	25.1661
23.078	25.1559
23.096	25.1316
23.114	25.0933
23.132	25.0411
23.15	24.9731
23.168	24.8888
23.186	24.7889
23.204	24.6735
23.222	24.5418
23.24	24.3949
23.258	24.2356
23.276	24.0622
23.294	23.8768
23.312	23.6841
23.33	23.4827
23.348	23.2742
23.366	23.0649
23.384	22.8538
23.402	22.6419
23.42	22.4356
23.438	22.2345
23.456	22.0387
23.474	21.8541
23.492	21.6812
23.51	21.5192
23.528	21.372
23.546	21.2408
23.564	21.1243
23.582	21.0245
23.6	20.9425
23.618	20.8775
23.636	20.8293
23.654	20.7984
23.672	20.7847
23.69	20.7864
23.708	20.8026
23.726	20.8345
23.744	20.879
23.762	20.9336
23.78	21.0002
23.798	21.0761
23.816	21.1583
23.834	21.2484
23.852	21.3448
23.87	21.4446
23.888	21.5492
23.906	21.6574
23.924	21.7661
23.942	21.8757
23.96	21.9861
23.978	22.0942
23.996	22.1992
24.014	22.302
24.032	22.4004
24.05	22.4928
24.068	22.5805
24.086	22.6618
24.104	22.735
24.122	22.8009
24.14	22.8589
24.158	22.9078
24.176	22.9479
24.194	22.9791
24.212	23.0004
24.23	23.0118
24.248	23.0135
24.266	23.0046
24.284	22.9849
24.302	22.9548
24.32	22.9135
24.338	22.8602
24.356	22.795
24.374	22.7183
24.392	22.6305
24.41	22.5313
24.428	22.4211
24.446	22.3002
24.464	22.1687
24.482	22.0265
24.5	21.8745
24.518	21.7132
24.536	21.5423
24.554	21.3623
24.572	21.1744
24.59	20.9778
24.608	20.7732
24.626	20.562
24.644	20.3449
24.662	20.121
24.68	19.8921
24.698	19.6598
24.716	19.4224
24.734	19.1817
24.752	18.9402
24.77	18.6976
24.788	18.4536
24.806	18.2107
24.824	17.971
24.842	17.7327
24.86	17.4974
24.878	17.2673
24.896	17.0416
24.914	16.8204
24.932	16.6063
24.95	16.4005
24.968	16.2013
24.986	16.0107
25.004	15.8308
25.022	15.6601
25.04	15.4995
25.058	15.3512
25.076	15.2163
25.094	15.0936
25.112	14.9838
25.13	14.8873
25.148	14.803
25.166	14.732
25.184	14.6763
25.202	14.6366
25.22	14.6115
25.238	14.6031
25.256	14.6135
25.274	14.6401
25.292	14.6847
25.31	14.7519
25.328	14.8438
25.346	14.9567
25.364	15.0952
25.382	15.2646
25.4	15.4631
25.418	15.6901
25.436	15.951
25.454	16.2497
25.472	16.583
25.49	16.9521
25.508	17.3588
25.526	17.8047
25.544	18.2883
25.562	18.8078
25.58	19.3618
25.598	19.9542
25.616	20.5808
25.634	21.2341
25.652	21.9114
25.67	22.6212
25.688	23.3498
25.706	24.0814
25.724	24.8204
25.742	25.571
25.76	26.3113
25.778	27.0212
25.796	27.7167
25.814	28.3901
25.832	29.0192
25.85	29.5902
25.868	30.121
25.886	30.5973
25.904	31.0002
25.922	31.3258
25.94	31.585
25.958	31.7655
25.976	31.855
25.994	31.8549
26.012	31.7694
26.03	31.5957
26.048	31.3308
26.066	30.972
26.084	30.5256
26.102	30.0001
26.12	29.3987
26.138	28.7106
26.156	27.9515
26.174	27.1395
26.192	26.2768
26.21	25.3494
26.228	24.3824
26.246	23.4016
26.264	22.4013
26.282	21.3725
26.3	20.3435
26.318	19.3418
26.336	18.3541
26.354	17.379
26.372	16.4401
26.39	15.5588
26.408	14.72
26.426	13.9268
26.444	13.1965
26.462	12.5435
26.48	11.9565
26.498	11.4378
26.516	10.9956
26.534	10.6364
26.552	10.3554
26.57	10.152
26.588	10.0264
26.606	9.980156
26.624	10.015
26.642	10.1254
26.66	10.3051
26.678	10.5517
26.696	10.8717
26.714	11.257
26.732	11.698
26.75	12.1908
26.768	12.7438
26.786	13.3483
26.804	13.9948
26.822	14.6797
26.84	15.4117
26.858	16.1816
26.876	16.9788
26.894	17.7995
26.912	18.6534
26.93	19.5308
26.948	20.4206
26.966	21.3591
26.984	22.4172
27.002	23.4322
27.02	24.2267
27.028	24.4389