File: Bakgrunnsmateriale/MATLAB/FTIR/ftir_data/LPE453/Mapping_121/LPE453_t89_cm-1.asc
PE IR       SPECTRUM    SPECTRUM    ASCII       PEDS        1.60
  -1
LP6BDC~1.ASC
17/05/16
21:43:36.00
17/05/16
21:43:36.00
tln
$LPE453_t0089$<tbV0>[13.0,7.8,8.0,0.0,27,1,0]
370
64

2002,4.07
MIRTGS : RIGHTBACK : INTERNAL 2
MIR : ON : INTERNAL 2
OPTKBR

0.200000
8
8.000000
FILLER
RATIO
SPECTRUM
UNLOCKED 256

DOUBLE
64
COMBINED
1
0
0

1.000000
RATIO

1
0
TRUE
51149
0
LEFT NOT FITTED RIGHT NOT FITTED 0
NONE
NONE
15600
12
4.427000
51148
TRUE
1 0 8 72 0 0 0 0

15798

#HDR
-1
-1
#GR
CM-1
%T
2.38419e-05
0.0
5000
-1.000000
4631
8
24.8751
-7.317805
#DATA
5000	-0.293803
4996	-0.377559
4992	-0.308609
4988	-0.118184
4984	0.034999
4980	0.059700
4976	0.075459
4972	0.027489
4968	-0.005769
4964	0.056719
4960	-0.007081
4956	0.002717
4952	0.211834
4948	0.321412
4944	0.292515
4940	0.161647
4936	0.029802
4932	0.041007
4928	0.139164
4924	0.305843
4920	0.399899
4916	0.217437
4912	-0.044035
4908	-0.025868
4904	0.171113
4900	0.174903
4896	-0.087523
4892	-0.381326
4888	-0.498628
4884	-0.414371
4880	-0.131869
4876	0.207376
4872	0.259256
4868	0.110054
4864	0.081491
4860	0.063848
4856	0.014185
4852	0.036478
4848	0.122356
4844	0.228023
4840	0.271368
4836	0.207805
4832	0.086259
4828	0.068211
4824	0.045251
4820	-0.086069
4816	-0.092244
4812	0.114440
4808	0.258159
4804	0.302410
4800	0.427675
4796	0.388503
4792	0.257349
4788	0.355386
4784	0.457763
4780	0.411558
4776	0.379228
4772	0.466656
4768	0.517535
4764	0.464940
4760	0.398468
4756	0.160717
4752	-0.063967
4748	0.005984
4744	0.099682
4740	0.138902
4736	0.231862
4732	0.343847
4728	0.432682
4724	0.380897
4720	0.195336
4716	0.153279
4712	0.249338
4708	0.275826
4704	0.489330
4700	0.768256
4696	0.591635
4692	0.132536
4688	-0.010299
4684	0.139045
4680	0.108170
4676	0.262117
4672	0.664424
4668	0.746774
4664	0.666737
4660	0.712871
4656	0.829172
4652	0.319838
4648	-0.359654
4644	0.000953
4640	0.445508
4636	0.277757
4632	0.493502
4628	1.554751
4624	2.165007
4620	1.060867
4616	-0.589203
4612	-1.198863
4608	-0.618600
4604	-0.167870
4600	-0.274252
4596	0.333142
4592	1.190710
4588	1.468753
4584	1.724314
4580	1.346707
4576	0.168418
4572	-0.515246
4568	-0.181722
4564	0.387597
4560	0.686693
4556	0.768113
4552	0.710988
4548	0.656676
4544	0.418829
4540	0.558042
4536	0.583004
4532	-0.182795
4528	-0.116801
4524	0.484776
4520	-0.274729
4516	-0.667285
4512	0.051736
4508	-5.349993
4504	-4.470300
4500	10.1541
4496	10.3787
4492	1.536011
4488	0.591850
4484	1.451659
4480	1.420402
4476	0.925803
4472	0.972437
4468	1.023554
4464	0.480914
4460	0.460839
4456	0.509023
4452	0.161910
4448	0.011754
4444	-0.077533
4440	-0.233483
4436	-0.162053
4432	0.202035
4428	0.682926
4424	0.762534
4420	0.310897
4416	-0.020599
4412	0.090360
4408	0.160264
4404	0.082898
4400	0.173497
4396	0.352263
4392	0.320219
4388	0.199842
4384	0.230216
4380	0.377249
4376	0.404787
4372	0.219941
4368	0.042700
4364	-0.086593
4360	-0.121140
4356	0.090742
4352	0.254273
4348	0.213050
4344	0.201702
4340	0.376176
4336	0.566411
4332	0.488924
4328	0.270605
4324	0.164103
4320	0.177478
4316	0.022983
4312	-0.167131
4308	-0.147747
4304	-0.081086
4300	-0.109219
4296	-0.113821
4292	-0.005626
4288	-0.004553
4284	-0.242781
4280	-0.364017
4276	-0.179624
4272	0.000071
4268	0.088334
4264	0.134205
4260	0.164818
4256	0.194025
4252	0.071907
4248	0.000739
4244	0.075912
4240	0.121879
4236	0.165581
4232	0.265026
4228	0.359106
4224	0.326991
4220	0.196051
4216	0.073242
4212	0.023412
4208	0.078272
4204	0.250530
4200	0.293517
4196	0.089979
4192	-0.046491
4188	-0.016546
4184	0.085806
4180	0.214147
4176	0.223898
4172	0.238370
4168	0.370192
4164	0.329351
4160	0.150370
4156	0.043606
4152	0.002813
4148	0.054073
4144	0.145578
4140	0.198125
4136	0.217771
4132	0.184345
4128	0.198650
4124	0.311326
4120	0.337123
4116	0.281810
4112	0.245714
4108	0.166893
4104	0.106739
4100	0.095891
4096	0.102281
4092	0.130438
4088	0.141286
4084	0.176715
4080	0.241374
4076	0.273251
4072	0.230598
4068	0.184869
4064	0.225353
4060	0.242686
4056	0.122380
4052	-0.001430
4048	0.012969
4044	0.089001
4040	0.121665
4036	0.115418
4032	0.109648
4028	0.183010
4024	0.269699
4020	0.217890
4016	0.088834
4012	0.019741
4008	0.003218
4004	-0.058794
4000	-0.146126
3996	-0.179433
3992	-0.086975
3988	0.029516
3984	-0.038099
3980	-0.160121
3976	-0.172114
3972	-0.154113
3968	-0.070977
3964	0.131821
3960	0.286245
3956	0.256896
3952	0.102543
3948	0.045943
3944	0.095605
3940	0.047492
3936	-0.042176
3932	-0.097537
3928	-0.051522
3924	0.052237
3920	0.083374
3916	0.065684
3912	-0.003004
3908	-0.120043
3904	-0.167608
3900	-0.079584
3896	0.055360
3892	0.145745
3888	0.140762
3884	0.062155
3880	-0.044751
3876	-0.128221
3872	-0.033640
3868	0.142264
3864	0.207281
3860	0.199246
3856	0.150942
3852	0.072503
3848	0.015664
3844	-0.037837
3840	-0.046730
3836	0.038313
3832	0.097250
3828	0.079345
3824	0.079393
3820	0.058603
3816	-0.002193
3812	-0.015783
3808	-0.016260
3804	-0.032043
3800	-0.012421
3796	0.019335
3792	0.024771
3788	0.051188
3784	0.089454
3780	0.095343
3776	0.111865
3772	0.141835
3768	0.142836
3764	0.150609
3760	0.154542
3756	0.152564
3752	0.176048
3748	0.122714
3744	-0.018763
3740	-0.098156
3736	-0.097060
3732	-0.092220
3728	-0.050902
3724	0.033473
3720	0.067067
3716	0.057411
3712	0.073981
3708	0.035572
3704	-0.056171
3700	-0.013709
3696	0.084829
3692	0.065684
3688	0.018405
3684	0.034594
3680	0.063896
3676	0.048327
3672	0.050783
3668	0.044846
3664	-0.061130
3660	-0.106191
3656	-0.033807
3652	0.002908
3648	0.003480
3644	0.050354
3640	0.133275
3636	0.154089
3632	0.090622
3628	0.051999
3624	0.059437
3620	0.057077
3616	0.106430
3612	0.167131
3608	0.128197
3604	0.053572
3600	0.028204
3596	0.046730
3592	0.093841
3588	0.098896
3584	0.026512
3580	0.008845
3576	0.037240
3572	0.091123
3568	0.189781
3564	0.218629
3560	0.127291
3556	0.036334
3552	0.047945
3548	0.086498
3544	0.104594
3540	0.095963
3536	0.108480
3532	0.165748
3528	0.142908
3524	0.040769
3520	-0.047326
3516	-0.072026
3512	-0.031399
3508	-0.016164
3504	-0.048398
3500	-0.030350
3496	0.050044
3492	0.143885
3488	0.179743
3484	0.131893
3480	0.144457
3476	0.204253
3472	0.133800
3468	0.044536
3464	0.047707
3460	0.029659
3456	-0.023865
3452	-0.011157
3448	0.075531
3444	0.081658
3440	0.021243
3436	0.016450
3432	0.002813
3428	-0.056552
3424	-0.067853
3420	0.059533
3416	0.193834
3412	0.123500
3408	-0.036597
3404	-0.085878
3400	-0.046920
3396	-0.043129
3392	-0.057339
3388	0.004029
3384	0.073575
3380	0.087523
3376	0.074982
3372	0.072360
3368	0.088334
3364	0.063967
3360	0.028467
3356	0.041055
3352	0.045228
3348	0.033330
3344	0.034999
3340	0.044870
3336	0.027036
3332	-0.043773
3328	-0.089359
3324	-0.074028
3320	-0.040984
3316	0.013089
3312	0.093507
3308	0.135898
3304	0.116991
3300	0.053596
3296	-0.050806
3292	-0.093579
3288	-0.034093
3284	-0.015258
3280	-0.062060
3276	-0.068163
3272	0.005030
3268	0.087976
3264	0.096416
3260	0.080275
3256	0.060629
3252	0.008726
3248	-0.025987
3244	-0.001978
3240	0.080060
3236	0.160241
3232	0.154304
3228	0.090527
3224	0.035905
3220	-0.018858
3216	-0.038909
3212	-0.045156
3208	-0.095868
3204	-0.010561
3200	0.145483
3196	0.063824
3192	-0.066304
3188	-0.004076
3184	0.047922
3180	-0.013995
3176	-0.027012
3172	-0.041866
3168	-0.111842
3164	-0.111317
3160	-0.024652
3156	0.046706
3152	0.041294
3148	-0.015115
3144	-0.071334
3140	-0.050544
3136	0.026345
3132	0.083184
3128	0.166344
3124	0.170278
3120	0.035476
3116	-0.058722
3112	-0.019121
3108	0.038838
3104	-0.024819
3100	-0.073719
3096	-0.037407
3092	0.003123
3088	0.056719
3084	0.071406
3080	0.095129
3076	0.195145
3072	0.211095
3068	0.095701
3064	0.024533
3060	0.043892
3056	0.059723
3052	0.067138
3048	0.099492
3044	0.091719
3040	0.029873
3036	0.019764
3032	0.059437
3028	0.065422
3024	0.063538
3020	0.103664
3016	0.151515
3012	0.125074
3008	0.064730
3004	0.087833
3000	0.104618
2996	0.033402
2992	-0.012469
2988	-0.021266
2984	-0.014805
2980	0.021719
2976	-0.020599
2972	-0.130677
2968	-0.169277
2964	-0.174880
2960	-0.177264
2956	-0.108647
2952	-0.013589
2948	0.059247
2944	0.123929
2940	0.152897
2936	0.122761
2932	0.078177
2928	0.082159
2924	0.111150
2920	0.087499
2916	0.059509
2912	0.081181
2908	0.082707
2904	0.039076
2900	0.010418
2896	0.029277
2892	0.085330
2888	0.141310
2884	0.160813
2880	0.106716
2876	0.004577
2872	-0.062227
2868	-0.054383
2864	0.033330
2860	0.110054
2856	0.093007
2852	0.043249
2848	-0.002503
2844	-0.026321
2840	0.017499
2836	0.081658
2832	0.104713
2828	0.113630
2824	0.133371
2820	0.130200
2816	0.104117
2812	0.101733
2808	0.119328
2804	0.128030
2800	0.100231
2796	0.036525
2792	-0.013256
2788	-0.036239
2784	-0.029134
2780	0.007295
2776	0.018358
2772	0.023984
2768	0.046730
2764	0.050592
2760	0.054693
2756	0.022339
2752	-0.053882
2748	-0.082063
2744	-0.075221
2740	-0.060701
2736	0.000047
2732	0.059103
2728	0.053954
2724	0.010538
2720	0.005078
2716	0.058674
2712	0.095272
2708	0.076913
2704	0.026535
2700	-0.005197
2696	0.005578
2692	0.013160
2688	0.037646
2684	0.067591
2680	0.062584
2676	0.066566
2672	0.070261
2668	0.066804
2664	0.071501
2660	0.028634
2656	-0.018453
2652	0.009059
2648	0.075125
2644	0.125837
2640	0.107192
2636	0.038218
2632	0.011038
2628	0.046825
2624	0.086665
2620	0.065684
2616	0.043272
2612	0.081753
2608	0.077486
2604	0.010895
2600	0.040316
2596	0.139117
2592	0.168800
2588	0.108718
2584	-0.006771
2580	-0.073695
2576	-0.074815
2572	-0.060367
2568	-0.019121
2564	0.041627
2560	0.096750
2556	0.088715
2552	0.025892
2548	-0.018358
2544	-0.023341
2540	0.012230
2536	0.062417
2532	0.048398
2528	0.004625
2524	0.016188
2520	-0.016617
2516	-0.111389
2512	-0.126624
2508	-0.047683
2504	0.078773
2500	0.137400
2496	0.003671
2492	-0.125885
2488	-0.014877
2484	0.123476
2480	0.078344
2476	-0.025939
2472	-0.062298
2468	-0.044131
2464	-0.041389
2460	-0.069999
2456	-0.047898
2452	0.025200
2448	0.086212
2444	0.129652
2440	0.181055
2436	0.210762
2432	0.176882
2428	0.088810
2424	0.008010
2420	0.002527
2416	0.082468
2412	0.134110
2408	0.015044
2404	-0.173449
2400	-0.155901
2396	0.006437
2392	0.027012
2388	-0.046682
2384	-0.033879
2380	0.038599
2376	0.063681
2372	0.005030
2368	-0.051259
2364	-0.026369
2360	0.022315
2356	0.022888
2352	-0.036811
2348	-0.115823
2344	-0.112843
2340	-0.017595
2336	0.055384
2332	0.044178
2328	-0.003600
2324	-0.004315
2320	0.061249
2316	0.104236
2312	0.052881
2308	-0.022053
2304	-0.007772
2300	0.058841
2296	0.084424
2292	0.071191
2288	0.071430
2284	0.106525
2280	0.132822
2276	0.154805
2272	0.173330
2268	0.179362
2264	0.217914
2260	0.297427
2256	0.383710
2252	0.397062
2248	0.350832
2244	0.355601
2240	0.421929
2236	0.496816
2232	0.572323
2228	0.628638
2224	0.665259
2220	0.743556
2216	0.857615
2212	0.986647
2208	1.112985
2204	1.227188
2200	1.335835
2196	1.404500
2192	1.469779
2188	1.559782
2184	1.701188
2180	1.895165
2176	2.078413
2172	2.306103
2168	2.565574
2164	2.747607
2160	2.885675
2156	3.107881
2152	3.432464
2148	3.735661
2144	3.961801
2140	4.171729
2136	4.364037
2132	4.566788
2128	4.871153
2124	5.208706
2120	5.501389
2116	5.819845
2112	6.176042
2108	6.466031
2104	6.728434
2100	7.057523
2096	7.350969
2092	7.623577
2088	8.015298
2084	8.456730
2080	8.819627
2076	9.103560
2072	9.357070
2068	9.626603
2064	9.926509
2060	10.2368
2056	10.5561
2052	10.9246
2048	11.3221
2044	11.6529
2040	11.9607
2036	12.2905
2032	12.5985
2028	12.8929
2024	13.1499
2020	13.4196
2016	13.7756
2012	14.1204
2008	14.379
2004	14.6134
2000	14.8875
1996	15.1683
1992	15.4176
1988	15.6718
1984	15.9324
1980	16.1542
1976	16.3589
1972	16.6105
1968	16.8693
1964	17.0944
1960	17.3639
1956	17.6517
1952	17.8452
1948	17.9749
1944	18.1626
1940	18.3862
1936	18.5608
1932	18.7252
1928	18.9076
1924	19.0901
1920	19.2368
1916	19.3859
1912	19.5911
1908	19.7834
1904	19.9031
1900	20.0049
1896	20.1615
1892	20.3409
1888	20.4893
1884	20.6209
1880	20.7739
1876	20.9273
1872	21.015
1868	21.084
1864	21.1732
1860	21.2488
1856	21.3688
1852	21.517
1848	21.6103
1844	21.7093
1840	21.8421
1836	21.9311
1832	21.9922
1828	22.0687
1824	22.1492
1820	22.2014
1816	22.2421
1812	22.3471
1808	22.4802
1804	22.5561
1800	22.6146
1796	22.7284
1792	22.8275
1788	22.8204
1784	22.8013
1780	22.875
1776	22.9815
1772	23.0765
1768	23.1519
1764	23.144
1760	23.1159
1756	23.1791
1752	23.2836
1748	23.3278
1744	23.2812
1740	23.2574
1736	23.3153
1732	23.3634
1728	23.4048
1724	23.488
1720	23.6536
1716	23.8087
1712	23.7941
1708	23.7162
1704	23.7008
1700	23.7682
1696	23.885
1692	23.9135
1688	23.8803
1684	23.924
1680	24.0014
1676	24.0275
1672	24.0082
1668	24.009
1664	24.0657
1660	24.11
1656	24.141
1652	24.2202
1648	24.2912
1644	24.286
1640	24.2595
1636	24.2702
1632	24.2825
1628	24.3019
1624	24.3588
1620	24.3857
1616	24.3465
1612	24.3463
1608	24.4028
1604	24.4601
1600	24.5389
1596	24.5587
1592	24.5044
1588	24.4781
1584	24.475
1580	24.4594
1576	24.4225
1572	24.3682
1568	24.3858
1564	24.5012
1560	24.5632
1556	24.5314
1552	24.5069
1548	24.5213
1544	24.5647
1540	24.5834
1536	24.5744
1532	24.6058
1528	24.6385
1524	24.6287
1520	24.6212
1516	24.6272
1512	24.5995
1508	24.5543
1504	24.5862
1500	24.6658
1496	24.6741
1492	24.6787
1488	24.7526
1484	24.7985
1480	24.7609
1476	24.6794
1472	24.6666
1468	24.753
1464	24.8252
1460	24.7998
1456	24.7344
1452	24.7478
1448	24.8207
1444	24.8605
1440	24.8751
1436	24.8494
1432	24.7587
1428	24.6905
1424	24.736
1420	24.807
1416	24.7961
1412	24.7687
1408	24.7771
1404	24.7922
1400	24.8004
1396	24.7751
1392	24.7515
1388	24.7545
1384	24.7421
1380	24.7673
1376	24.8112
1372	24.7539
1368	24.6248
1364	24.5856
1360	24.6863
1356	24.7468
1352	24.6849
1348	24.6578
1344	24.6947
1340	24.6978
1336	24.6957
1332	24.7399
1328	24.8074
1324	24.826
1320	24.7369
1316	24.68
1312	24.7579
1308	24.8067
1304	24.7609
1300	24.6968
1296	24.6715
1292	24.6772
1288	24.6287
1284	24.576
1280	24.5883
1276	24.5787
1272	24.5275
1268	24.5296
1264	24.5904
1260	24.6051
1256	24.5852
1252	24.6063
1248	24.6276
1244	24.6207
1240	24.6416
1236	24.6483
1232	24.5785
1228	24.5031
1224	24.4633
1220	24.4568
1216	24.4774
1212	24.497
1208	24.4947
1204	24.4773
1200	24.4628
1196	24.4422
1192	24.4273
1188	24.408
1184	24.3574
1180	24.3009
1176	24.2866
1172	24.3237
1168	24.3191
1164	24.3163
1160	24.3838
1156	24.4013
1152	24.3817
1148	24.417
1144	24.4548
1140	24.4009
1136	24.2805
1132	24.1819
1128	24.1257
1124	24.131
1120	24.1593
1116	24.1151
1112	24.0898
1108	24.1653
1104	24.1791
1100	24.0678
1096	23.9968
1092	24.0389
1088	24.0818
1084	24.0948
1080	24.0992
1076	24.0598
1072	23.9951
1068	23.9399
1064	23.9092
1060	23.9079
1056	23.918
1052	23.9046
1048	23.8442
1044	23.8032
1040	23.8534
1036	23.8724
1032	23.754
1028	23.616
1024	23.6155
1020	23.7122
1016	23.7813
1012	23.7934
1008	23.7273
1004	23.5977
1000	23.4414
996	 23.3881
992	 23.4621
988	 23.4634
984	 23.4001
980	 23.3975
976	 23.3979
972	 23.3523
968	 23.2874
964	 23.1932
960	 23.1068
956	 23.1254
952	 23.227
948	 23.2449
944	 23.1725
940	 23.1128
936	 23.0647
932	 22.9966
928	 22.9139
924	 22.888
920	 22.8709
916	 22.8052
912	 22.7919
908	 22.833
904	 22.8584
900	 22.7856
896	 22.5797
892	 22.4479
888	 22.4509
884	 22.401
880	 22.3529
876	 22.3849
872	 22.2794
868	 22.1116
864	 22.155
860	 22.2116
856	 22.0601
852	 21.9117
848	 21.8837
844	 21.909
840	 21.9249
836	 21.8313
832	 21.7041
828	 21.6424
824	 21.6397
820	 21.6784
816	 21.6897
812	 21.5926
808	 21.4435
804	 21.3781
800	 21.3381
796	 21.2513
792	 21.1698
788	 21.1264
784	 21.0945
780	 21.0381
776	 20.9558
772	 20.9636
768	 21.0515
764	 21.0422
760	 20.9413
756	 20.7895
752	 20.7487
748	 20.8826
744	 20.9039
740	 20.7458
736	 20.5092
732	 20.2833
728	 20.2492
724	 20.3243
720	 20.2752
716	 20.1216
712	 19.9597
708	 19.9046
704	 19.9699
700	 19.9719
696	 19.9234
692	 19.9203
688	 19.8835
684	 19.6685
680	 19.3804
676	 19.3269
672	 19.3586
668	 19.096
664	 18.7809
660	 18.8318
656	 19.0614
652	 19.0971
648	 18.8958
644	 18.7022
640	 18.625
636	 18.6586
632	 18.8383
628	 18.8355
624	 18.5111
620	 18.2045
616	 18.0755
612	 17.9933
608	 17.7781
604	 17.5349
600	 17.4808
596	 17.5292
592	 17.5828
588	 17.7272
584	 17.7385
580	 17.4078
576	 16.9957
572	 16.8131
568	 16.9595
564	 17.1306
560	 17.048
556	 16.846
552	 16.5584
548	 16.421
544	 16.6445
540	 16.8205
536	 16.6169
532	 16.2198
528	 16.0125
524	 15.8905
520	 15.5911
516	 15.3504
512	 15.2877
508	 15.1777
504	 15.066
500	 15.1283
496	 15.199
492	 14.8927
488	 14.542
484	 14.475
480	 14.4627
476	 14.5087
472	 14.2353
468	 13.8238
464	 13.7049
460	 13.5487
456	 13.4456
452	 13.7046
448	 13.836
444	 13.3514
440	 12.3549
436	 11.2834
432	 11.5623
428	 13.2309
424	 13.663
420	 12.9527
416	 13.3797
412	 13.6035
408	 11.8758
404	 7.905673
400	 1.197457
396	 -2.865767
392	 -0.798988
388	 3.788852
384	 6.985807
380	 3.537702
376	 2.008962
372	 10.6632
370	 14.822