File: Bakgrunnsmateriale/MATLAB/FTIR/ftir_data/LPE453/Mapping_121/LPE453_t11.asc
PE IR       SPECTRUM    SPECTRUM    ASCII       PEDS        1.60
  -1
LPC79D~1.ASC
17/05/16
15:14:09.00
17/05/16
15:14:35.00
tln
$LPE453_t0011$<tbV0>[-13.0,-13.0,8.0,0.0,27,1,0]
27.028
64

2002,4.07
MIRTGS : RIGHTBACK : INTERNAL 2
MIR : ON : INTERNAL 2
OPTKBR

0.200000
8
8.000000
FILLER
RATIO
SPECTRUM
UNLOCKED 256

DOUBLE
64
COMBINED
1
0
0

0.002000
RATIO

1
0
TRUE
51149
0
LEFT NOT FITTED RIGHT NOT FITTED 0
NONE
NONE
15600
12
4.427000
51148
TRUE
1 0 8 72 0 0 0 0

15798

#HDR
-1
-1
#GR
µM
%T
2.38419e-05
0.0
2.000000
0.002000
12515
8
37.5073
-10.7721
#DATA
2.000000	 0.407242
2.018000	 1.281215
2.036000	 -0.048719
2.054000	 0.274674
2.072000	 0.469472
2.090000	 -0.277221
2.108000	 -0.005746
2.126000	 0.101708
2.144000	 0.219108
2.162000	 0.429587
2.180000	 -0.853430
2.198000	 -1.120870
2.216000	 37.5073
2.234000	 -0.246612
2.252000	 -0.554665
2.270000	 0.494712
2.288000	 0.095521
2.306000	 0.176104
2.324000	 0.248222
2.342000	 0.072868
2.360000	 0.023796
2.378000	 0.036249
2.396000	 1.065728
2.414000	 0.071719
2.432000	 -0.037008
2.450000	 -0.038253
2.468000	 -0.030568
2.486000	 0.024159
2.504000	 0.186372
2.522000	 0.095610
2.540000	 -0.063095
2.558000	 -0.013837
2.576000	 -0.144410
2.594000	 -0.035825
2.612000	 0.356906
2.630000	 -0.159942
2.648000	 0.057990
2.666000	 -0.072627
2.684000	 0.248079
2.702000	 0.047015
2.720000	 -0.002582
2.738000	 0.065514
2.756000	 0.050028
2.774000	 0.108079
2.792000	 0.180896
2.810000	 0.339118
2.828000	 0.049914
2.846000	 0.102999
2.864000	 0.080013
2.882000	 -0.053540
2.900000	 0.166013
2.918000	 0.110211
2.936000	 0.092093
2.954000	 0.111457
2.972000	 0.046281
2.990000	 -0.016705
3.008000	 0.073616
3.026000	 0.148754
3.044000	 -0.027922
3.062000	 0.218992
3.080000	 0.093050
3.098000	 0.115032
3.116000	 0.188106
3.134000	 -0.111139
3.152000	 0.119132
3.170000	 0.068770
3.188000	 0.259680
3.206000	 0.021063
3.224000	 0.241007
3.242000	 -0.013447
3.260000	 0.101456
3.278000	 0.046922
3.296000	 0.078549
3.314000	 0.255002
3.332000	 0.030076
3.350000	 0.116387
3.368000	 -0.074573
3.386000	 -0.009644
3.404000	 0.061610
3.422000	 0.072731
3.440000	 0.105512
3.458000	 0.017328
3.476000	 -0.034594
3.494000	 0.061663
3.512000	 -0.088854
3.530000	 -0.033293
3.548000	 -0.074493
3.566000	 0.015683
3.584000	 0.114019
3.602000	 -0.058535
3.620000	 0.029800
3.638000	 -0.056989
3.656000	 -0.039775
3.674000	 0.040860
3.692000	 -0.007063
3.710000	 0.075991
3.728000	 0.079737
3.746000	 0.042357
3.764000	 -0.131356
3.782000	 0.045299
3.800000	 0.029956
3.818000	 0.067918
3.836000	 0.107247
3.854000	 -0.003203
3.872000	 0.050236
3.890000	 0.113969
3.908000	 0.092917
3.926000	 0.126582
3.944000	 0.011380
3.962000	 0.147619
3.980000	 -0.060672
3.998000	 -0.073768
4.016000	 0.149952
4.034000	 0.122188
4.052000	 0.036050
4.070000	 -0.094819
4.088000	 0.000569
4.106000	 0.223095
4.124000	 0.171052
4.141999	 0.351363
4.160000	 0.371769
4.178000	 0.095915
4.196000	 -0.049825
4.214000	 -0.203045
4.232000	 -0.046776
4.250000	 0.056438
4.268000	 0.122523
4.286000	 0.069518
4.304000	 0.017729
4.322000	 0.226397
4.340000	 0.210152
4.358000	 0.258000
4.375999	 0.296220
4.394000	 0.414835
4.412000	 0.488480
4.430000	 0.757777
4.448000	 0.754359
4.466000	 0.905033
4.484000	 1.186816
4.502000	 1.519929
4.520000	 1.622134
4.538000	 1.924274
4.556000	 2.261610
4.574000	 2.628196
4.592000	 3.032355
4.609999	 3.244565
4.628000	 3.787703
4.646000	 4.263962
4.664000	 4.586912
4.682000	 5.134925
4.700000	 5.709739
4.718000	 6.254878
4.736000	 6.806725
4.754000	 7.400855
4.772000	 8.062621
4.790000	 8.665843
4.808000	 9.286912
4.826000	 9.569236
4.843999	 10.0527
4.862000	 10.4782
4.880000	 11.1797
4.898000	 11.7021
4.916000	 11.9306
4.934000	 12.4165
4.952000	 12.8926
4.970000	 13.3746
4.988000	 13.7998
5.006000	 14.0851
5.024000	 14.4508
5.042000	 14.7784
5.060000	 14.9391
5.077999	 15.2641
5.096000	 15.6976
5.114000	 15.9371
5.132000	 16.1423
5.150000	 16.3263
5.168000	 16.3761
5.186000	 16.5768
5.204000	 16.8663
5.222000	 17.0597
5.240000	 17.3052
5.258000	 17.4497
5.276000	 17.5052
5.294000	 17.6828
5.312000	 17.8402
5.330000	 17.8928
5.348000	 17.9611
5.366000	 18.1021
5.384000	 18.2593
5.402000	 18.3797
5.420000	 18.5093
5.438000	 18.5254
5.456000	 18.65
5.474000	 18.7949
5.492000	 18.7818
5.510000	 18.9336
5.528000	 19.0694
5.546000	 19.1136
5.564000	 19.2864
5.582000	 19.2934
5.600000	 19.3142
5.618000	 19.4498
5.636000	 19.5136
5.654000	 19.525
5.672000	 19.4454
5.690000	 19.5279
5.708000	 19.7921
5.726000	 19.9897
5.744000	 20.0159
5.762000	 20.0324
5.780000	 20
5.798000	 19.9161
5.816000	 19.9582
5.834000	 20.0362
5.852000	 20.026
5.870000	 20.175
5.888000	 20.3477
5.906000	 20.2644
5.923999	 20.2022
5.942000	 20.2166
5.960000	 20.2597
5.978000	 20.2887
5.996000	 20.2285
6.014000	 20.2023
6.032000	 20.2779
6.050000	 20.4126
6.068000	 20.4681
6.086000	 20.4126
6.104000	 20.3846
6.122000	 20.4444
6.140000	 20.4603
6.158000	 20.4784
6.176000	 20.4303
6.194000	 20.348
6.212000	 20.4091
6.230000	 20.5664
6.248000	 20.665
6.266000	 20.7028
6.284000	 20.736
6.302000	 20.6922
6.320000	 20.6605
6.338000	 20.6696
6.356000	 20.7201
6.374000	 20.8159
6.392000	 20.8751
6.410000	 20.9248
6.428000	 20.9156
6.446000	 20.874
6.464000	 20.8802
6.482000	 20.9913
6.500000	 21.0864
6.518000	 21.0582
6.536000	 21.0769
6.554000	 21.1953
6.572000	 21.2842
6.590000	 21.2513
6.608000	 21.2195
6.626000	 21.2843
6.644000	 21.2613
6.662000	 21.1233
6.680000	 21.0601
6.698000	 21.135
6.716000	 21.2017
6.734000	 21.2285
6.752000	 21.2811
6.770000	 21.3219
6.788000	 21.3191
6.806000	 21.2797
6.824000	 21.2076
6.842000	 21.1352
6.860000	 21.0763
6.878000	 21.017
6.896000	 20.9802
6.914000	 20.9969
6.932000	 21.0775
6.950000	 21.1877
6.968000	 21.2451
6.986000	 21.2438
7.004000	 21.2505
7.022000	 21.2697
7.040000	 21.2637
7.058000	 21.2539
7.076000	 21.2966
7.094000	 21.3591
7.112000	 21.3561
7.130000	 21.3216
7.148000	 21.3198
7.166000	 21.2989
7.184000	 21.2254
7.202000	 21.16
7.220000	 21.1338
7.238000	 21.115
7.256000	 21.0801
7.274000	 21.0282
7.292000	 20.9894
7.310000	 21.0294
7.328000	 21.144
7.346000	 21.2305
7.364000	 21.2478
7.382000	 21.2485
7.400000	 21.2508
7.418000	 21.2494
7.436000	 21.2815
7.454000	 21.3637
7.472000	 21.4528
7.490000	 21.5228
7.508000	 21.5893
7.526000	 21.6581
7.544000	 21.7273
7.562000	 21.809
7.580000	 21.8946
7.598000	 21.9462
7.616000	 21.9567
7.634000	 21.9799
7.652000	 22.062
7.670000	 22.1645
7.688000	 22.213
7.706000	 22.2104
7.724000	 22.2137
7.742000	 22.2184
7.760000	 22.1805
7.778000	 22.1251
7.796000	 22.1176
7.814000	 22.1624
7.832000	 22.2067
7.850000	 22.224
7.868000	 22.2467
7.886000	 22.3229
7.904000	 22.4491
7.922000	 22.5587
7.940000	 22.6032
7.958000	 22.6192
7.976000	 22.6704
7.994000	 22.7533
8.012000	 22.8065
8.030000	 22.7893
8.048000	 22.7093
8.065999	 22.5928
8.084000	 22.4681
8.102000	 22.3686
8.120000	 22.3257
8.138000	 22.3549
8.155999	 22.4485
8.173999	 22.5627
8.192000	 22.6306
8.210000	 22.618
8.228000	 22.5608
8.246000	 22.5262
8.263999	 22.5458
8.282000	 22.6009
8.300000	 22.6584
8.318000	 22.6985
8.336000	 22.7167
8.353999	 22.7141
8.372000	 22.6915
8.390000	 22.6511
8.408000	 22.6097
8.426000	 22.5969
8.443999	 22.6261
8.462000	 22.6663
8.480000	 22.6664
8.498000	 22.609
8.516000	 22.535
8.533999	 22.5083
8.552000	 22.5575
8.570000	 22.6522
8.588000	 22.7301
8.606000	 22.746
8.624000	 22.7038
8.641999	 22.6478
8.660000	 22.6262
8.678000	 22.6583
8.696000	 22.7269
8.714000	 22.8011
8.731999	 22.8643
8.750000	 22.9205
8.768000	 22.9725
8.786000	 23.0011
8.804000	 22.9792
8.821999	 22.9077
8.840000	 22.8268
8.858000	 22.7843
8.876000	 22.7942
8.894000	 22.8299
8.911999	 22.8559
8.930000	 22.8568
8.948000	 22.8338
8.966000	 22.7837
8.984000	 22.698
9.001999	 22.5856
9.020000	 22.4812
9.038000	 22.4214
9.056000	 22.4108
9.074000	 22.4224
9.092000	 22.4324
9.109999	 22.4432
9.128000	 22.4716
9.146000	 22.5272
9.164000	 22.6016
9.182000	 22.6753
9.199999	 22.7289
9.218000	 22.7523
9.236000	 22.7489
9.254000	 22.7325
9.272000	 22.7136
9.289999	 22.691
9.308000	 22.6573
9.326000	 22.6129
9.344000	 22.5708
9.362000	 22.5459
9.379999	 22.544
9.398000	 22.5612
9.416000	 22.5888
9.434000	 22.6203
9.452000	 22.6515
9.469999	 22.6786
9.488000	 22.699
9.506000	 22.71
9.524000	 22.7082
9.542000	 22.6896
9.560000	 22.6552
9.577999	 22.6176
9.596000	 22.5999
9.614000	 22.625
9.632000	 22.6988
9.650000	 22.7997
9.667999	 22.8865
9.686000	 22.924
9.704000	 22.9057
9.722000	 22.8549
9.740000	 22.8087
9.757999	 22.7953
9.776000	 22.8215
9.794000	 22.8711
9.812000	 22.9149
9.830000	 22.9269
9.847999	 22.8993
9.866000	 22.8457
9.884000	 22.7914
9.902000	 22.7555
9.920000	 22.7385
9.937999	 22.7293
9.956000	 22.7208
9.974000	 22.7179
9.992000	 22.7297
10.01	22.7567
10.028	22.79
10.046	22.8193
10.064	22.845
10.082	22.8749
10.1	22.9151
10.118	22.9587
10.136	22.9922
10.154	23.0093
10.172	23.0171
10.19	23.0305
10.208	23.057
10.226	23.0886
10.244	23.1053
10.262	23.0869
10.28	23.0261
10.298	22.9311
10.316	22.8216
10.334	22.7194
10.352	22.6395
10.37	22.5867
10.388	22.5548
10.406	22.5323
10.424	22.5087
10.442	22.4804
10.46	22.4507
10.478	22.4255
10.496	22.4088
10.514	22.4016
10.532	22.4026
10.55	22.4104
10.568	22.4248
10.586	22.4456
10.604	22.4713
10.622	22.4981
10.64	22.5207
10.658	22.5351
10.676	22.5395
10.694	22.5347
10.712	22.525
10.73	22.5176
10.748	22.5199
10.766	22.5365
10.784	22.566
10.802	22.6011
10.82	22.6328
10.838	22.6535
10.856	22.6599
10.874	22.6528
10.892	22.6363
10.91	22.6158
10.928	22.5972
10.946	22.5847
10.964	22.5794
10.982	22.578
11	22.572
11.018	22.5508
11.036	22.5061
11.054	22.4359
11.072	22.346
11.09	22.2479
11.108	22.153
11.126	22.0713
11.144	22.0087
11.162	21.9681
11.18	21.9493
11.198	21.9495
11.216	21.9628
11.234	21.9818
11.252	21.9986
11.27	22.0099
11.288	22.0181
11.306	22.0305
11.324	22.0565
11.342	22.101
11.36	22.1615
11.378	22.2271
11.396	22.2842
11.414	22.3198
11.432	22.3277
11.45	22.3095
11.468	22.2745
11.486	22.2356
11.504	22.2055
11.522	22.1943
11.54	22.2055
11.558	22.2383
11.576	22.2868
11.594	22.3429
11.612	22.3973
11.63	22.442
11.648	22.4718
11.666	22.484
11.684	22.478
11.702	22.4549
11.72	22.4174
11.738	22.3697
11.756	22.3168
11.774	22.2634
11.792	22.2119
11.81	22.1617
11.828	22.1104
11.846	22.0559
11.864	21.9998
11.882	21.9477
11.9	21.9089
11.918	21.8928
11.936	21.9049
11.954	21.9435
11.972	22
11.99	22.0608
12.008	22.1128
12.026	22.1467
12.044	22.1591
12.062	22.1526
12.08	22.133
12.098	22.1057
12.116	22.0746
12.134	22.0417
12.152	22.0081
12.17	21.9752
12.188	21.946
12.206	21.9246
12.224	21.9146
12.242	21.9174
12.26	21.9311
12.278	21.9511
12.296	21.9714
12.314	21.9869
12.332	21.9945
12.35	21.9942
12.368	21.9878
12.386	21.9782
12.404	21.9676
12.422	21.957
12.44	21.9458
12.458	21.9322
12.476	21.9144
12.494	21.8912
12.512	21.863
12.53	21.8321
12.548	21.8023
12.566	21.7782
12.584	21.7636
12.602	21.7601
12.62	21.7674
12.638	21.7821
12.656	21.7984
12.674	21.81
12.692	21.8118
12.71	21.8002
12.728	21.7746
12.746	21.7378
12.764	21.6945
12.782	21.6507
12.8	21.6124
12.818	21.5841
12.836	21.5687
12.854	21.5667
12.872	21.5766
12.89	21.5954
12.908	21.6197
12.926	21.6459
12.944	21.6704
12.962	21.6907
12.98	21.706
12.998	21.7166
13.016	21.725
13.034	21.7344
13.052	21.749
13.07	21.7726
13.088	21.8072
13.106	21.8525
13.124	21.9056
13.142	21.9618
13.16	22.0161
13.178	22.064
13.196	22.1032
13.214	22.1333
13.232	22.1563
13.25	22.1743
13.268	22.1889
13.286	22.1983
13.304	22.198
13.322	22.1807
13.34	22.1388
13.358	22.0668
13.376	21.9638
13.394	21.8347
13.412	21.6906
13.43	21.5467
13.448	21.4199
13.466	21.3249
13.484	21.2716
13.502	21.2637
13.52	21.2983
13.538	21.3666
13.556	21.4559
13.574	21.5527
13.592	21.6439
13.61	21.7187
13.628	21.7699
13.646	21.7931
13.664	21.7874
13.682	21.754
13.7	21.6966
13.718	21.6212
13.736	21.5354
13.754	21.4477
13.772	21.3668
13.79	21.3005
13.808	21.2542
13.826	21.2303
13.844	21.2276
13.862	21.2421
13.88	21.2674
13.898	21.2965
13.916	21.3227
13.934	21.3411
13.952	21.3487
13.97	21.3452
13.988	21.3322
14.006	21.3127
14.024	21.2902
14.042	21.2679
14.06	21.2484
14.078	21.2332
14.096	21.2226
14.114	21.2168
14.132	21.2152
14.15	21.2172
14.168	21.2221
14.186	21.2286
14.204	21.2349
14.222	21.2381
14.24	21.2352
14.258	21.2229
14.276	21.1982
14.294	21.1593
14.312	21.1059
14.33	21.0397
14.348	20.9646
14.366	20.886
14.384	20.811
14.402	20.7464
14.42	20.6976
14.438	20.6682
14.456	20.6596
14.474	20.67
14.492	20.6957
14.51	20.7307
14.528	20.7684
14.546	20.8031
14.564	20.831
14.582	20.8504
14.6	20.8614
14.618	20.8665
14.636	20.8693
14.654	20.8738
14.672	20.883
14.69	20.899
14.708	20.9223
14.726	20.9523
14.744	20.9865
14.762	21.0223
14.78	21.0569
14.798	21.0877
14.816	21.1127
14.834	21.1295
14.852	21.1371
14.87	21.1342
14.888	21.1201
14.906	21.094
14.924	21.0554
14.942	21.0045
14.96	20.9418
14.978	20.8687
14.996	20.7871
15.014	20.6996
15.032	20.6107
15.05	20.5242
15.068	20.4438
15.086	20.3725
15.104	20.3128
15.122	20.2662
15.14	20.2324
15.158	20.2105
15.176	20.1992
15.194	20.196
15.212	20.1989
15.23	20.2061
15.248	20.2169
15.266	20.231
15.284	20.2484
15.302	20.2697
15.32	20.2955
15.338	20.3262
15.356	20.3622
15.374	20.4023
15.392	20.4449
15.41	20.4878
15.428	20.5281
15.446	20.5625
15.464	20.5882
15.482	20.6035
15.5	20.6069
15.518	20.599
15.536	20.5821
15.554	20.5592
15.572	20.5343
15.59	20.5131
15.608	20.5
15.626	20.4987
15.644	20.513
15.662	20.5442
15.68	20.5919
15.698	20.6546
15.716	20.7287
15.734	20.8089
15.752	20.8907
15.77	20.9693
15.788	21.0387
15.806	21.0951
15.824	21.1358
15.842	21.1586
15.86	21.1636
15.878	21.1516
15.896	21.1237
15.914	21.0827
15.932	21.0314
15.95	20.9722
15.968	20.9079
15.986	20.8415
16.004	20.7747
16.022	20.7091
16.04	20.6469
16.058	20.5888
16.076	20.5356
16.094	20.4882
16.112	20.4465
16.13	20.4105
16.148	20.3798
16.166	20.3538
16.184	20.332
16.202	20.3136
16.22	20.2978
16.238	20.2841
16.256	20.2716
16.274	20.2596
16.292	20.248
16.31	20.2363
16.328	20.2247
16.346	20.2131
16.364	20.2015
16.382	20.1902
16.4	20.1794
16.418	20.1696
16.436	20.1611
16.454	20.1543
16.472	20.1493
16.49	20.1464
16.508	20.1457
16.526	20.147
16.544	20.15
16.562	20.1543
16.58	20.1597
16.598	20.1657
16.616	20.1721
16.634	20.1789
16.652	20.1859
16.67	20.1932
16.688	20.2008
16.706	20.2094
16.724	20.2193
16.742	20.2311
16.76	20.2453
16.778	20.2623
16.796	20.2822
16.814	20.3046
16.832	20.3292
16.85	20.3548
16.868	20.3801
16.886	20.4042
16.904	20.4248
16.922	20.4408
16.94	20.4506
16.958	20.4526
16.976	20.4462
16.994	20.4307
17.012	20.4064
17.03	20.3733
17.048	20.333
17.066	20.2864
17.084	20.2353
17.102	20.1821
17.12	20.1281
17.138	20.0765
17.156	20.0289
17.174	19.9872
17.192	19.9536
17.21	19.9287
17.228	19.914
17.246	19.909
17.264	19.9138
17.282	19.9267
17.3	19.9465
17.318	19.9707
17.336	19.9964
17.354	20.0219
17.372	20.0428
17.39	20.0576
17.408	20.063
17.426	20.0575
17.444	20.0397
17.462	20.0091
17.48	19.9661
17.498	19.9117
17.516	19.8481
17.534	19.7768
17.552	19.7022
17.57	19.6255
17.588	19.5516
17.606	19.482
17.624	19.4198
17.642	19.3667
17.66	19.3238
17.678	19.292
17.696	19.2709
17.714	19.2598
17.732	19.2571
17.75	19.2616
17.768	19.2706
17.786	19.2831
17.804	19.2961
17.822	19.309
17.84	19.3194
17.858	19.3271
17.876	19.3308
17.894	19.3307
17.912	19.3267
17.93	19.3193
17.948	19.3087
17.966	19.2963
17.984	19.2824
18.002	19.2681
18.02	19.2542
18.038	19.2415
18.056	19.2308
18.074	19.2223
18.092	19.2172
18.11	19.2154
18.128	19.2177
18.146	19.2241
18.164	19.2351
18.182	19.2506
18.2	19.2707
18.218	19.2949
18.236	19.3233
18.254	19.3546
18.272	19.3887
18.29	19.4237
18.308	19.4594
18.326	19.4935
18.344	19.5258
18.362	19.554
18.38	19.5777
18.398	19.5953
18.416	19.6067
18.434	19.6109
18.452	19.6084
18.47	19.5988
18.488	19.5835
18.506	19.5625
18.524	19.5381
18.542	19.5104
18.56	19.4822
18.578	19.4536
18.596	19.4276
18.614	19.4043
18.632	19.3858
18.65	19.3722
18.668	19.3649
18.686	19.3638
18.704	19.3692
18.722	19.3809
18.74	19.3984
18.758	19.4212
18.776	19.4484
18.794	19.4794
18.812	19.5126
18.83	19.5474
18.848	19.5824
18.866	19.6167
18.884	19.6487
18.902	19.6778
18.92	19.7025
18.938	19.7221
18.956	19.7353
18.974	19.7417
18.992	19.7402
19.01	19.7309
19.028	19.7131
19.046	19.6873
19.064	19.6536
19.082	19.6128
19.1	19.5659
19.118	19.5139
19.136	19.4586
19.154	19.401
19.172	19.3438
19.19	19.2875
19.208	19.2352
19.226	19.1869
19.244	19.1453
19.262	19.1102
19.28	19.0833
19.298	19.0642
19.316	19.0532
19.334	19.0502
19.352	19.054
19.37	19.0645
19.388	19.0792
19.406	19.0982
19.424	19.1183
19.442	19.1396
19.46	19.1592
19.478	19.177
19.496	19.1911
19.514	19.2009
19.532	19.2056
19.55	19.2048
19.568	19.1984
19.586	19.1863
19.604	19.169
19.622	19.1467
19.64	19.1198
19.658	19.0895
19.676	19.0557
19.694	19.0201
19.712	18.9825
19.73	18.9445
19.748	18.906
19.766	18.868
19.784	18.8307
19.802	18.7946
19.82	18.7602
19.838	18.7277
19.856	18.6976
19.874	18.6701
19.892	18.6458
19.91	18.6245
19.928	18.6068
19.946	18.5927
19.964	18.5825
19.982	18.5763
20	18.574
20.018	18.5759
20.036	18.5816
20.054	18.5911
20.072	18.6041
20.09	18.62
20.108	18.6388
20.126	18.6592
20.144	18.6812
20.162	18.7033
20.18	18.725
20.198	18.7455
20.216	18.7633
20.234	18.7784
20.252	18.7887
20.27	18.7945
20.288	18.7943
20.306	18.788
20.324	18.7751
20.342	18.755
20.36	18.7281
20.378	18.694
20.396	18.653
20.414	18.6061
20.432	18.5529
20.45	18.4952
20.468	18.4333
20.486	18.3682
20.504	18.3021
20.522	18.2346
20.54	18.1688
20.558	18.1043
20.576	18.0437
20.594	17.9878
20.612	17.9373
20.63	17.8943
20.648	17.8583
20.666	17.8312
20.684	17.8131
20.702	17.8044
20.72	17.8058
20.738	17.8169
20.756	17.8377
20.774	17.8683
20.792	17.9075
20.81	17.9552
20.828	18.0104
20.846	18.0718
20.864	18.1395
20.882	18.211
20.9	18.2867
20.918	18.3645
20.936	18.4434
20.954	18.5232
20.972	18.6013
20.99	18.6783
21.008	18.7523
21.026	18.8226
21.044	18.8892
21.062	18.9506
21.08	19.0074
21.098	19.0584
21.116	19.1036
21.134	19.1427
21.152	19.1752
21.17	19.2013
21.188	19.2209
21.206	19.2338
21.224	19.2405
21.242	19.2413
21.26	19.236
21.278	19.2255
21.296	19.2096
21.314	19.1889
21.332	19.1639
21.35	19.1345
21.368	19.1022
21.386	19.0671
21.404	19.0299
21.422	18.9925
21.44	18.9541
21.458	18.9169
21.476	18.8815
21.494	18.848
21.512	18.8185
21.53	18.7922
21.548	18.7707
21.566	18.755
21.584	18.7447
21.602	18.7405
21.62	18.7427
21.638	18.7507
21.656	18.7644
21.674	18.7841
21.692	18.8078
21.71	18.8355
21.728	18.8665
21.746	18.8981
21.764	18.9312
21.782	18.9635
21.8	18.9929
21.818	19.0204
21.836	19.0426
21.854	19.0593
21.872	19.0703
21.89	19.0734
21.908	19.0691
21.926	19.0571
21.944	19.0368
21.962	19.0086
21.98	18.9735
21.998	18.9309
22.016	18.8821
22.034	18.8296
22.052	18.7722
22.07	18.7122
22.088	18.6515
22.106	18.5891
22.124	18.5274
22.142	18.4671
22.16	18.408
22.178	18.3511
22.196	18.2964
22.214	18.2439
22.232	18.1939
22.25	18.1467
22.268	18.1002
22.286	18.0536
22.304	18.0073
22.322	17.9569
22.34	17.9024
22.358	17.8431
22.376	17.7748
22.394	17.6982
22.412	17.6124
22.43	17.5148
22.448	17.4064
22.466	17.2863
22.484	17.153
22.502	17.0073
22.52	16.8494
22.538	16.679
22.556	16.4964
22.574	16.3049
22.592	16.1039
22.61	15.8946
22.628	15.6823
22.646	15.4655
22.664	15.2466
22.682	15.0306
22.7	14.8155
22.718	14.6043
22.736	14.4012
22.754	14.204
22.772	14.0157
22.79	13.8389
22.808	13.6721
22.826	13.5169
22.844	13.3749
22.862	13.2452
22.88	13.1275
22.898	13.0222
22.916	12.9291
22.934	12.8466
22.952	12.7745
22.97	12.7128
22.988	12.6592
23.006	12.6136
23.024	12.5758
23.042	12.5436
23.06	12.5171
23.078	12.496
23.096	12.4778
23.114	12.4626
23.132	12.4503
23.15	12.4394
23.168	12.4304
23.186	12.4227
23.204	12.415
23.222	12.4071
23.24	12.3993
23.258	12.3915
23.276	12.3838
23.294	12.3761
23.312	12.3687
23.33	12.3609
23.348	12.3536
23.366	12.3485
23.384	12.3461
23.402	12.3457
23.42	12.348
23.438	12.3516
23.456	12.3578
23.474	12.3703
23.492	12.3883
23.51	12.4123
23.528	12.4486
23.546	12.4975
23.564	12.5581
23.582	12.6384
23.6	12.7409
23.618	12.8629
23.636	13.0109
23.654	13.1875
23.672	13.3897
23.69	13.6236
23.708	13.8932
23.726	14.1953
23.744	14.5332
23.762	14.9103
23.78	15.325
23.798	15.7771
23.816	16.2668
23.834	16.7957
23.852	17.3601
23.87	17.9552
23.888	18.5849
23.906	19.2446
23.924	19.9248
23.942	20.628
23.96	21.3527
23.978	22.0856
23.996	22.8237
24.014	23.5716
24.032	24.3151
24.05	25.046
24.068	25.7725
24.086	26.4827
24.104	27.1653
24.122	27.8281
24.14	28.4638
24.158	29.0615
24.176	29.6244
24.194	30.1515
24.212	30.6351
24.23	31.0736
24.248	31.4697
24.266	31.8204
24.284	32.1233
24.302	32.3796
24.32	32.5913
24.338	32.7596
24.356	32.8814
24.374	32.9621
24.392	33.0095
24.41	33.0202
24.428	32.9963
24.446	32.9486
24.464	32.8797
24.482	32.7848
24.5	32.676
24.518	32.5634
24.536	32.4394
24.554	32.3108
24.572	32.1878
24.59	32.067
24.608	31.9495
24.626	31.8451
24.644	31.7593
24.662	31.6874
24.68	31.631
24.698	31.592
24.716	31.5701
24.734	31.5644
24.752	31.5746
24.77	31.6045
24.788	31.6519
24.806	31.7058
24.824	31.7601
24.842	31.8239
24.86	31.8841
24.878	31.9254
24.896	31.9571
24.914	31.9743
24.932	31.9549
24.95	31.8889
24.968	31.7907
24.986	31.6411
25.004	31.4193
25.022	31.1356
25.04	30.7865
25.058	30.3551
25.076	29.833
25.094	29.2297
25.112	28.5396
25.13	27.7567
25.148	26.8785
25.166	25.9113
25.184	24.8625
25.202	23.7317
25.22	22.5126
25.238	21.225
25.256	19.8883
25.274	18.4862
25.292	17.0293
25.31	15.5494
25.328	14.0613
25.346	12.5409
25.364	11.0195
25.382	9.532909
25.4	8.068496
25.418	6.625050
25.436	5.237964
25.454	3.933339
25.472	2.685774
25.49	1.512887
25.508	0.441995
25.526	-0.522480
25.544	-1.394000
25.562	-2.154078
25.58	-2.784990
25.598	-3.293542
25.616	-3.681562
25.634	-3.943134
25.652	-4.072803
25.67	-4.072031
25.688	-3.947935
25.706	-3.707739
25.724	-3.345476
25.742	-2.861228
25.76	-2.276220
25.778	-1.609182
25.796	-0.838600
25.814	0.019917
25.832	0.931954
25.85	1.878143
25.868	2.889754
25.886	3.933911
25.904	4.969215
25.922	5.993074
25.94	7.028828
25.958	8.031741
25.976	8.956826
25.994	9.822802
26.012	10.6325
26.03	11.3487
26.048	11.939
26.066	12.4272
26.084	12.8063
26.102	13.0544
26.12	13.1549
26.138	13.1198
26.156	12.9515
26.174	12.6503
26.192	12.2096
26.21	11.627
26.228	10.9242
26.246	10.1235
26.264	9.214248
26.282	8.190785
26.3	7.091700
26.318	5.954516
26.336	4.754185
26.354	3.494365
26.372	2.220354
26.39	0.973188
26.408	-0.280378
26.426	-1.529096
26.444	-2.732494
26.462	-3.857101
26.48	-4.932724
26.498	-5.948441
26.516	-6.877668
26.534	-7.699902
26.552	-8.432274
26.57	-9.072056
26.588	-9.610956
26.606	-10.0412
26.624	-10.3638
26.642	-10.5881
26.66	-10.7236
26.678	-10.7721
26.696	-10.7208
26.714	-10.5891
26.732	-10.3989
26.75	-10.1587
26.768	-9.848251
26.786	-9.488389
26.804	-9.102971
26.822	-8.701076
26.84	-8.261659
26.858	-7.804727
26.876	-7.353159
26.894	-6.917026
26.912	-6.477339
26.93	-6.048279
26.948	-5.646537
26.966	-5.273893
26.984	-4.906814
27.002	-4.578363
27.02	-4.325759
27.028	-4.255723