File: Bakgrunnsmateriale/MATLAB/FTIR/ftir_data/LPE453/Mapping_121/LPE453_t64_cm-1.asc
PE IR       SPECTRUM    SPECTRUM    ASCII       PEDS        1.60
  -1
LP6A5B~1.ASC
17/05/16
19:34:31.00
17/05/16
19:34:31.00
tln
$LPE453_t0064$<tbV0>[-7.8,0.0,8.0,0.0,27,1,0]
370
64

2002,4.07
MIRTGS : RIGHTBACK : INTERNAL 2
MIR : ON : INTERNAL 2
OPTKBR

0.200000
8
8.000000
FILLER
RATIO
SPECTRUM
UNLOCKED 256

DOUBLE
64
COMBINED
1
0
0

1.000000
RATIO

1
0
TRUE
51149
0
LEFT NOT FITTED RIGHT NOT FITTED 0
NONE
NONE
15600
12
4.427000
51148
TRUE
1 0 8 72 0 0 0 0

15798

#HDR
-1
-1
#GR
CM-1
%T
2.38419e-05
0.0
5000
-1.000000
4631
8
38.8514
-17.4954
#DATA
5000	0.027656
4996	0.262999
4992	0.535511
4988	0.477647
4984	0.118398
4980	-0.058889
4976	0.131297
4972	0.335741
4968	0.354218
4964	0.399613
4960	0.466394
4956	0.343537
4952	0.053691
4948	-0.031232
4944	0.161147
4940	0.307106
4936	0.384664
4932	0.304388
4928	0.006508
4924	-0.203633
4920	-0.259280
4916	-0.217628
4912	0.142645
4908	0.468301
4904	0.214791
4900	0.006699
4896	0.222396
4892	0.373339
4888	0.349426
4884	0.217676
4880	0.094962
4876	-0.016403
4872	-0.270891
4868	-0.257587
4864	0.124716
4860	0.340938
4856	0.275945
4852	0.057172
4848	-0.141882
4844	-0.226187
4840	-0.304293
4836	-0.249862
4832	0.037193
4828	0.198888
4824	0.105738
4820	0.184464
4816	0.401496
4812	0.278568
4808	-0.044226
4804	-0.084710
4800	0.056886
4796	-0.030231
4792	-0.214529
4788	-0.210356
4784	-0.151705
4780	-0.068092
4776	-0.144863
4772	-0.417923
4768	-0.403094
4764	-0.036764
4760	0.424742
4756	0.519490
4752	0.432109
4748	0.770092
4744	0.937461
4740	0.810837
4736	0.929737
4732	0.688791
4728	-0.174593
4724	-0.550365
4720	0.280833
4716	1.322436
4712	1.182842
4708	0.241518
4704	-0.179266
4700	0.538301
4696	1.142644
4692	0.514388
4688	-0.032043
4684	-0.213479
4680	-0.674319
4676	-1.038289
4672	-1.354837
4668	-1.183032
4664	-0.048542
4660	1.052618
4656	1.481699
4652	1.725125
4648	1.628303
4644	0.692486
4640	-0.178003
4636	-0.099420
4632	0.064563
4628	0.080871
4624	0.341367
4620	0.358343
4616	0.303888
4612	0.468778
4608	0.544023
4604	0.429821
4600	0.315546
4596	0.301694
4592	0.436687
4588	0.426077
4584	0.239086
4580	0.247979
4576	0.202059
4572	0.015830
4568	0.169587
4564	0.541424
4560	0.567984
4556	0.350308
4552	0.088477
4548	-0.046229
4544	0.203871
4540	0.509095
4536	0.640225
4532	0.577998
4528	0.164628
4524	-0.229501
4520	-0.403976
4516	-0.805544
4512	-1.050329
4508	-1.109528
4504	-1.723980
4500	-2.388978
4496	-2.351069
4492	-3.289055
4488	1.858711
4484	12.9164
4480	14.3596
4476	8.379220
4472	3.421759
4468	0.636148
4464	0.381231
4460	-0.011539
4456	-0.824356
4452	-0.917243
4448	-0.656843
4444	-0.379490
4440	-0.188493
4436	-0.116872
4432	0.018954
4428	-0.016069
4424	-0.096678
4420	0.071263
4416	0.304841
4412	0.373220
4408	0.327229
4404	0.314426
4400	0.371503
4396	0.386810
4392	0.252699
4388	0.072765
4384	0.051403
4380	0.195407
4376	0.370597
4372	0.509786
4368	0.548291
4364	0.588250
4360	0.577902
4356	0.353550
4352	0.174331
4348	0.132751
4344	0.120735
4340	0.181293
4336	0.221633
4332	0.274729
4328	0.465369
4324	0.707268
4320	0.746965
4316	0.504899
4312	0.449419
4308	0.596976
4304	0.411057
4300	0.045800
4296	-0.126910
4292	-0.126814
4288	-0.152778
4284	-0.213837
4280	-0.063705
4276	0.282669
4272	0.467848
4268	0.388979
4264	0.344538
4260	0.261616
4256	0.031161
4252	-0.018143
4248	0.124669
4244	0.268411
4240	0.372362
4236	0.320672
4232	0.167441
4228	0.155806
4224	0.196361
4220	0.129985
4216	0.141096
4212	0.228381
4208	0.234317
4204	0.133371
4200	-0.009965
4196	-0.075006
4192	-0.001478
4188	0.194072
4184	0.287365
4180	0.154519
4176	0.117325
4172	0.455474
4168	0.799536
4164	0.733447
4160	0.408339
4156	0.134444
4152	0.078749
4148	0.129556
4144	0.115275
4140	0.118112
4136	0.148868
4132	0.116920
4128	0.115609
4124	0.152850
4120	0.163316
4116	0.178599
4112	0.224113
4108	0.192165
4104	0.042200
4100	-0.017547
4096	0.077271
4092	0.181293
4088	0.221586
4084	0.239396
4080	0.230956
4076	0.148963
4072	0.056886
4068	0.045919
4064	0.080060
4060	0.025153
4056	-0.051593
4052	-0.050950
4048	0.008225
4044	0.074815
4040	0.091338
4036	0.158095
4032	0.207710
4028	0.101304
4024	-0.005793
4020	-0.005006
4016	-0.027823
4012	-0.120949
4008	-0.051951
4004	0.185322
4000	0.205802
3996	0.043606
3992	0.049948
3988	0.144457
3984	0.111365
3980	0.062489
3976	0.123858
3972	0.152921
3968	0.061416
3964	0.028896
3960	0.077939
3956	0.044965
3952	-0.007843
3948	0.045633
3944	0.131821
3940	0.125980
3936	0.075149
3932	0.087881
3928	0.094103
3924	0.037431
3920	0.049996
3916	0.149178
3912	0.253510
3908	0.336289
3904	0.282406
3900	0.097441
3896	-0.008416
3892	0.007152
3888	0.032734
3884	0.065469
3880	0.107026
3876	0.064945
3872	0.038051
3868	0.143408
3864	0.243616
3860	0.241661
3856	0.216364
3852	0.262570
3848	0.344467
3844	0.300455
3840	0.141525
3836	0.096225
3832	0.106644
3828	0.030350
3824	-0.026202
3820	0.026297
3816	0.130200
3812	0.104546
3808	-0.009703
3804	0.000166
3800	0.080323
3796	0.131440
3792	0.197124
3788	0.240731
3784	0.257396
3780	0.263071
3776	0.195860
3772	0.109720
3768	0.112414
3764	0.188708
3760	0.197100
3756	0.130987
3752	0.076723
3748	0.051236
3744	0.061535
3740	0.013709
3736	-0.112128
3732	-0.175428
3728	-0.113725
3724	-0.020122
3720	-0.019812
3716	-0.061655
3712	-0.038743
3708	0.006222
3704	0.096487
3700	0.212764
3696	0.208330
3692	0.054669
3688	-0.100493
3684	-0.123310
3680	-0.079250
3676	-0.006008
3672	0.094366
3668	0.159859
3664	0.192046
3660	0.182747
3656	0.125384
3652	0.056099
3648	0.027132
3644	0.100803
3640	0.176930
3636	0.160574
3632	0.126934
3628	0.114083
3624	0.078392
3620	0.034856
3616	0.018024
3612	0.016355
3608	0.019454
3604	-0.019931
3600	-0.036144
3596	0.053405
3592	0.139999
3588	0.113868
3584	0.035095
3580	0.038838
3576	0.110936
3572	0.084686
3568	-0.022125
3564	0.016498
3560	0.138378
3556	0.150442
3552	0.082135
3548	-0.051116
3544	-0.146508
3540	-0.097250
3536	-0.022029
3532	0.042772
3528	0.169324
3524	0.247621
3520	0.193572
3516	0.152969
3512	0.129914
3508	0.095415
3504	0.100111
3500	0.088381
3496	0.086236
3492	0.080680
3488	0.037312
3484	-0.003671
3480	-0.018763
3476	-0.014853
3472	-0.023698
3468	-0.043153
3464	-0.089812
3460	-0.092601
3456	-0.009965
3452	0.030159
3448	-0.020670
3444	-0.074577
3440	-0.048112
3436	-0.010752
3432	-0.057530
3428	-0.081801
3424	-0.035190
3420	-0.014591
3416	-0.030899
3412	-0.013804
3408	0.009822
3404	0.022745
3400	0.053858
3396	0.055241
3392	0.040674
3388	0.019431
3384	-0.014996
3380	-0.015759
3376	-0.017786
3372	-0.010013
3368	0.051307
3364	0.062727
3360	-0.012636
3356	-0.087118
3352	-0.120830
3348	-0.095391
3344	-0.023770
3340	0.050806
3336	0.074791
3332	0.058436
3328	0.059032
3324	0.074148
3320	0.078177
3316	0.018620
3312	-0.047254
3308	-0.037598
3304	0.028729
3300	0.051903
3296	0.014042
3292	0.010728
3288	0.033092
3284	0.068569
3280	0.082039
3276	0.052452
3272	0.024986
3268	0.033545
3264	0.067520
3260	0.086736
3256	0.122380
3252	0.109386
3248	0.004148
3244	-0.072026
3240	-0.083208
3236	-0.030875
3232	0.049829
3228	0.065588
3224	0.067043
3220	0.084900
3216	0.062775
3212	0.009799
3208	-0.012946
3204	0.025153
3200	0.053477
3196	0.027537
3192	0.007653
3188	0.046682
3184	0.074791
3180	0.062870
3176	0.069713
3172	0.090980
3168	0.045704
3164	-0.004291
3160	0.030565
3156	0.035452
3152	-0.013852
3148	-0.021505
3144	0.004982
3140	0.031757
3136	0.111007
3132	0.214934
3128	0.254607
3124	0.275731
3120	0.277137
3116	0.194954
3112	0.113558
3108	0.071644
3104	0.026369
3100	0.018286
3096	0.042009
3092	0.036168
3088	0.034856
3084	0.088572
3080	0.141143
3076	0.130105
3072	0.082612
3068	0.012636
3064	-0.049972
3060	-0.037288
3056	0.023961
3052	0.104308
3048	0.151371
3044	0.088262
3040	-0.011920
3036	-0.039577
3032	-0.014162
3028	-0.024199
3024	-0.076270
3020	-0.090909
3016	-0.085735
3012	-0.107598
3008	-0.069355
3004	0.015163
3000	0.038266
2996	0.078654
2992	0.184011
2988	0.176262
2984	0.069999
2980	0.029516
2976	0.063276
2972	0.108480
2968	0.121831
2964	0.108957
2960	0.102639
2956	0.116586
2952	0.090765
2948	0.012350
2944	-0.028228
2940	0.018119
2936	0.081181
2932	0.074267
2928	0.003671
2924	-0.027060
2920	0.017571
2916	0.037384
2912	0.103378
2908	0.248217
2904	0.262165
2900	0.160002
2896	0.171017
2892	0.224471
2888	0.150895
2884	0.085783
2880	0.098180
2876	0.077128
2872	0.029182
2868	0.047945
2864	0.109434
2860	0.066781
2856	0.002050
2852	0.011253
2848	-0.008153
2844	-0.008511
2840	0.100874
2836	0.167250
2832	0.093650
2828	0.059962
2824	0.100636
2820	0.113010
2816	0.147891
2812	0.178623
2808	0.124096
2804	0.062632
2800	0.025558
2796	0.001263
2792	0.015544
2788	0.039839
2784	0.019645
2780	-0.009059
2776	0.019502
2772	0.076365
2768	0.096464
2764	0.034976
2760	-0.026845
2756	-0.014734
2752	0.015711
2748	0.024461
2744	0.009822
2740	0.002598
2736	-0.016188
2732	-0.041723
2728	-0.030493
2724	-0.007820
2720	0.018167
2716	0.023126
2712	0.017738
2708	0.002288
2704	-0.017380
2700	0.026845
2696	0.089359
2692	0.086212
2688	0.048327
2684	0.043821
2680	0.043869
2676	0.017642
2672	-0.027036
2668	-0.056338
2664	0.000047
2660	0.071358
2656	0.059628
2652	0.004243
2648	-0.033617
2644	-0.054645
2640	-0.060653
2636	-0.040531
2632	-0.035214
2628	-0.014853
2624	0.016880
2620	-0.021910
2616	-0.064182
2612	-0.043201
2608	-0.012087
2604	0.015354
2600	0.057148
2596	0.061583
2592	0.038790
2588	0.048565
2584	0.107169
2580	0.129389
2576	0.079202
2572	0.052523
2568	0.055909
2564	0.013184
2560	-0.006532
2556	0.030589
2552	0.030612
2548	0.043416
2544	0.053167
2540	0.009012
2536	0.004863
2532	0.052452
2528	0.109100
2524	0.131106
2520	0.073122
2516	-0.006413
2512	-0.020980
2508	0.029039
2504	0.035023
2500	-0.003814
2496	0.018477
2492	0.019288
2488	-0.064945
2484	-0.083279
2480	0.031852
2476	0.126266
2472	0.073862
2468	-0.035500
2464	-0.048828
2460	-0.010061
2456	0.031542
2452	0.104165
2448	0.091552
2444	-0.008416
2440	-0.061225
2436	-0.041007
2432	-0.035595
2428	-0.072050
2424	-0.004529
2420	0.114822
2416	0.110650
2412	0.077605
2408	0.018334
2404	-0.066375
2400	-0.001120
2396	0.090050
2392	0.045418
2388	0.019955
2384	0.071907
2380	0.039124
2376	-0.032806
2372	-0.013566
2368	-0.024867
2364	-0.065422
2360	-0.027728
2356	0.016689
2352	0.027561
2348	0.014305
2344	-0.025582
2340	-0.029873
2336	0.041007
2332	0.087046
2328	0.066590
2324	0.089693
2320	0.147628
2316	0.169110
2312	0.226140
2308	0.291633
2304	0.279307
2300	0.254607
2296	0.266647
2292	0.301480
2288	0.341010
2284	0.389456
2280	0.466418
2276	0.552105
2272	0.601840
2268	0.643301
2264	0.721383
2260	0.832986
2256	0.944995
2252	1.035547
2248	1.136302
2244	1.262617
2240	1.419138
2236	1.600956
2232	1.776003
2228	1.915907
2224	2.024841
2220	2.131581
2216	2.294039
2212	2.550888
2208	2.818584
2204	3.055000
2200	3.286981
2196	3.506112
2192	3.754878
2188	4.071712
2184	4.416108
2180	4.736161
2176	5.021810
2172	5.302834
2168	5.661821
2164	6.063652
2160	6.422662
2156	6.797432
2152	7.184505
2148	7.611441
2144	8.118104
2140	8.562469
2136	8.958482
2132	9.418988
2128	9.870839
2124	10.3007
2120	10.764
2116	11.2543
2112	11.7562
2108	12.2562
2104	12.7577
2100	13.2446
2096	13.6948
2092	14.1894
2088	14.7535
2084	15.2252
2080	15.6007
2076	16.0702
2072	16.5937
2068	17.0336
2064	17.5302
2060	18.0825
2056	18.4741
2052	18.8368
2048	19.3192
2044	19.7942
2040	20.2342
2036	20.6854
2032	21.1007
2028	21.4608
2024	21.8197
2020	22.2035
2016	22.5934
2012	22.9852
2008	23.3995
2004	23.8083
2000	24.1385
1996	24.4002
1992	24.6833
1988	24.9896
1984	25.2609
1980	25.5683
1976	25.9352
1972	26.2935
1968	26.5938
1964	26.7952
1960	26.9893
1956	27.201
1952	27.4127
1948	27.6828
1944	27.96
1940	28.2125
1936	28.4223
1932	28.5723
1928	28.7333
1924	28.9079
1920	29.082
1916	29.2582
1912	29.4204
1908	29.5779
1904	29.7282
1900	29.8664
1896	29.9856
1892	30.0909
1888	30.2215
1884	30.3502
1880	30.4451
1876	30.5563
1872	30.7127
1868	30.8782
1864	30.9942
1860	31.0866
1856	31.2071
1852	31.3222
1848	31.4147
1844	31.4816
1840	31.524
1836	31.5914
1832	31.6853
1828	31.7565
1824	31.8181
1820	31.891
1816	31.9194
1812	31.9353
1808	32.0093
1804	32.1
1800	32.1717
1796	32.1832
1792	32.1545
1788	32.1992
1784	32.2969
1780	32.355
1776	32.3974
1772	32.4778
1768	32.5485
1764	32.5253
1760	32.5047
1756	32.6081
1752	32.7044
1748	32.7181
1744	32.7456
1740	32.7568
1736	32.716
1732	32.709
1728	32.7072
1724	32.7101
1720	32.7798
1716	32.8336
1712	32.8243
1708	32.8017
1704	32.8307
1700	32.9127
1696	32.9719
1692	32.9834
1688	32.9664
1684	32.926
1680	32.861
1676	32.8347
1672	32.862
1668	32.855
1664	32.835
1660	32.8893
1656	32.9827
1652	33.0384
1648	33.0451
1644	33.0335
1640	33.0774
1636	33.1491
1632	33.1297
1628	33.0414
1624	32.9983
1620	33.0014
1616	32.9895
1612	33.0274
1608	33.0963
1604	33.0787
1600	33.0158
1596	33.022
1592	33.1012
1588	33.1575
1584	33.1152
1580	33.042
1576	33.0175
1572	33.0063
1568	32.9885
1564	32.9535
1560	32.9092
1556	32.8739
1552	32.879
1548	32.9564
1544	33.0461
1540	33.0597
1536	33.0012
1532	32.9611
1528	32.9506
1524	32.9168
1520	32.8909
1516	32.8862
1512	32.8887
1508	32.89
1504	32.8278
1500	32.7131
1496	32.6175
1492	32.622
1488	32.7262
1484	32.8228
1480	32.8835
1476	32.8932
1472	32.8562
1468	32.7812
1464	32.708
1460	32.6878
1456	32.6771
1452	32.7235
1448	32.8227
1444	32.8663
1440	32.871
1436	32.8641
1432	32.8316
1428	32.7608
1424	32.7211
1420	32.7362
1416	32.7234
1412	32.6854
1408	32.608
1404	32.4985
1400	32.5188
1396	32.6265
1392	32.646
1388	32.6625
1384	32.6988
1380	32.6613
1376	32.6518
1372	32.6791
1368	32.5849
1364	32.4207
1360	32.3078
1356	32.2988
1352	32.3367
1348	32.3282
1344	32.3653
1340	32.4487
1336	32.5005
1332	32.5163
1328	32.51
1324	32.4712
1320	32.4126
1316	32.3797
1312	32.3295
1308	32.2309
1304	32.1254
1300	32.0935
1296	32.1264
1292	32.1732
1288	32.2594
1284	32.3764
1280	32.4038
1276	32.3156
1272	32.2545
1268	32.2272
1264	32.164
1260	32.1124
1256	32.1019
1252	32.0992
1248	32.0811
1244	32.041
1240	32.0324
1236	32.1023
1232	32.1755
1228	32.1794
1224	32.1729
1220	32.1481
1216	32.0836
1212	31.9951
1208	31.8551
1204	31.74
1200	31.676
1196	31.6877
1192	31.7877
1188	31.8846
1184	31.927
1180	31.9381
1176	31.9383
1172	31.9379
1168	31.8597
1164	31.7279
1160	31.7194
1156	31.7574
1152	31.7014
1148	31.6355
1144	31.5933
1140	31.5706
1136	31.583
1132	31.6288
1128	31.6889
1124	31.7443
1120	31.7699
1116	31.7534
1112	31.7217
1108	31.5513
1104	31.2469
1100	31.0586
1096	31.0369
1092	31.0885
1088	31.179
1084	31.3408
1080	31.5339
1076	31.5633
1072	31.4391
1068	31.3767
1064	31.3831
1060	31.3505
1056	31.224
1052	31.0493
1048	30.9851
1044	30.9555
1040	30.8302
1036	30.7736
1032	30.8527
1028	30.9176
1024	30.9803
1020	31.0589
1016	31.0427
1012	30.9944
1008	30.9199
1004	30.726
1000	30.4563
996	 30.2691
992	 30.1646
988	 30.106
984	 30.2852
980	 30.6145
976	 30.7041
972	 30.5831
968	 30.5955
964	 30.7013
960	 30.6612
956	 30.5365
952	 30.4541
948	 30.3022
944	 30.0394
940	 29.8695
936	 29.8679
932	 29.9026
928	 29.8683
924	 29.8651
920	 29.9662
916	 30.0175
912	 29.9617
908	 29.816
904	 29.6149
900	 29.4865
896	 29.3821
892	 29.1922
888	 29.0193
884	 28.9586
880	 29.0074
876	 29.1296
872	 29.2921
868	 29.4326
864	 29.4443
860	 29.3706
856	 29.2002
852	 28.9707
848	 28.863
844	 28.8233
840	 28.7056
836	 28.4767
832	 28.1897
828	 27.9896
824	 28.0736
820	 28.3716
816	 28.4981
812	 28.377
808	 28.3398
804	 28.4109
800	 28.2993
796	 28.0671
792	 27.8018
788	 27.5929
784	 27.6489
780	 27.7119
776	 27.5988
772	 27.5185
768	 27.559
764	 27.7893
760	 28.1071
756	 28.1902
752	 27.9961
748	 27.6999
744	 27.4361
740	 27.1697
736	 26.7647
732	 26.468
728	 26.5731
724	 26.9009
720	 27.15
716	 27.1396
712	 26.9167
708	 26.7182
704	 26.6297
700	 26.6828
696	 26.7813
692	 26.5501
688	 26.0291
684	 25.6985
680	 25.7203
676	 25.8288
672	 25.7626
668	 25.7321
664	 25.8947
660	 26.0317
656	 26.0928
652	 26.0903
648	 25.9951
644	 25.6593
640	 25.1165
636	 24.7557
632	 24.6311
628	 24.5795
624	 24.5936
620	 24.6533
616	 24.6414
612	 24.6214
608	 24.5287
604	 24.3399
600	 24.3084
596	 24.2114
592	 24.0598
588	 24.1722
584	 24.2139
580	 23.8132
576	 23.3062
572	 23.1823
568	 23.2821
564	 23.2488
560	 23.1687
556	 23.1052
552	 22.8946
548	 22.7367
544	 22.8616
540	 22.9023
536	 22.7054
532	 22.4727
528	 22.1704
524	 21.8895
520	 21.7686
516	 21.6152
512	 21.385
508	 21.2339
504	 21.2325
500	 21.3372
496	 21.5677
492	 22.0424
488	 22.3526
484	 22.1904
480	 21.8096
476	 21.2375
472	 20.5346
468	 19.8469
464	 19.3727
460	 19.7104
456	 20.6136
452	 21.1368
448	 21.1466
444	 20.7105
440	 19.5704
436	 17.9969
432	 16.7746
428	 16.0671
424	 16.5946
420	 17.3162
416	 16.573
412	 16.4994
408	 16.632
404	 16.8534
400	 19.6466
396	 23.9318
392	 29.7146
388	 35.6811
384	 38.8335
380	 33.9853
376	 11.7848
372	 -11.5113
370	 -17.4954