File: Bakgrunnsmateriale/MATLAB/FTIR/ftir_data/LPE453/Mapping_121/LPE453_t27_cm-1.asc
PE IR       SPECTRUM    SPECTRUM    ASCII       PEDS        1.60
  -1
LP68DA~1.ASC
17/05/16
16:35:42.00
17/05/16
16:35:42.00
tln
$LPE453_t0027$<tbV0>[2.6,-7.8,8.0,0.0,27,1,0]
370
64

2002,4.07
MIRTGS : RIGHTBACK : INTERNAL 2
MIR : ON : INTERNAL 2
OPTKBR

0.200000
8
8.000000
FILLER
RATIO
SPECTRUM
UNLOCKED 256

DOUBLE
64
COMBINED
1
0
0

1.000000
RATIO

1
0
TRUE
51149
0
LEFT NOT FITTED RIGHT NOT FITTED 0
NONE
NONE
15600
12
4.427000
51148
TRUE
1 0 8 72 0 0 0 0

15798

#HDR
-1
-1
#GR
CM-1
%T
2.38419e-05
0.0
5000
-1.000000
4631
8
29.339
-19.2886
#DATA
5000	-0.009989
4996	-0.187444
4992	0.034546
4988	0.271749
4984	0.166773
4980	0.040435
4976	0.262212
4972	0.684118
4968	0.972485
4964	0.842905
4960	0.204563
4956	-0.315999
4952	-0.241374
4948	-0.008654
4944	0.109529
4940	0.189232
4936	0.147509
4932	0.159478
4928	0.319027
4924	0.339365
4920	0.164914
4916	0.015568
4912	0.061321
4908	0.154805
4904	0.177741
4900	0.269269
4896	0.212335
4892	-0.295948
4888	-0.534462
4884	0.060677
4880	0.587987
4876	0.364971
4872	0.114798
4868	0.280618
4864	0.283217
4860	-0.017452
4856	-0.305199
4852	-0.249218
4848	0.065231
4844	0.221085
4840	0.263833
4836	0.123286
4832	-0.044083
4828	0.096583
4824	0.227212
4820	0.133180
4816	0.080013
4812	0.224924
4808	0.269508
4804	0.118255
4800	-0.009131
4796	-0.029444
4792	0.020265
4788	0.037360
4784	-0.008678
4780	-0.086593
4776	-0.191569
4772	-0.208067
4768	-0.058555
4764	0.003480
4760	-0.130414
4756	-0.158357
4752	-0.055122
4748	0.034213
4744	0.106215
4740	0.020456
4736	-0.131845
4732	-0.197458
4728	-0.171160
4724	-0.165271
4720	-0.216698
4716	-0.171041
4712	-0.014209
4708	0.191903
4704	0.269341
4700	0.154304
4696	0.042629
4692	-0.084304
4688	-0.135898
4684	0.097107
4680	0.541567
4676	0.654101
4672	0.323534
4668	0.160336
4664	0.140500
4660	0.030589
4656	-0.078797
4652	-0.128436
4648	0.157308
4644	0.469946
4640	0.442337
4636	0.434303
4632	0.321221
4628	-0.036764
4624	-0.121188
4620	0.155830
4616	0.526857
4612	0.701737
4608	0.872254
4604	1.189303
4600	1.006817
4596	0.612068
4592	0.366139
4588	-0.079584
4584	-0.513195
4580	-0.942254
4576	-1.015758
4572	-0.557971
4568	-0.205540
4564	-0.273299
4560	-0.546765
4556	-0.470304
4552	-0.009989
4548	0.460934
4544	1.197552
4540	1.570844
4536	1.419019
4532	1.433205
4528	2.381539
4524	2.224254
4520	8.939814
4516	26.243
4512	24.447
4508	0.557804
4504	-16.2897
4500	-18.7388
4496	-9.976863
4492	-0.676870
4488	1.007819
4484	0.865268
4480	0.397348
4476	0.161695
4472	0.397729
4468	0.624060
4464	0.424289
4460	0.245714
4456	0.270795
4452	0.279211
4448	0.422835
4444	0.340461
4440	-0.002431
4436	0.137948
4432	0.447487
4428	0.505614
4424	0.673937
4420	0.782060
4416	0.598359
4412	0.553154
4408	0.800728
4404	0.834178
4400	0.477695
4396	0.204348
4392	0.200033
4388	0.238633
4384	0.333333
4380	0.452232
4376	0.311279
4372	0.072455
4368	0.021195
4364	0.125002
4360	0.277113
4356	0.272798
4352	0.139045
4348	-0.000977
4344	-0.037074
4340	0.131630
4336	0.242304
4332	0.142002
4328	-0.076627
4324	-0.275611
4320	-0.294733
4316	-0.193357
4312	-0.159835
4308	-0.145506
4304	-0.032472
4300	0.051808
4296	0.047612
4292	-0.001740
4288	-0.004649
4284	0.021862
4280	-0.052022
4276	-0.047612
4272	0.076246
4268	0.112605
4264	0.162959
4260	0.288224
4256	0.223612
4252	0.003361
4248	-0.067377
4244	0.183463
4240	0.352191
4236	0.178575
4232	0.054526
4228	0.059342
4224	-0.019288
4220	-0.072455
4216	-0.002598
4212	0.114440
4208	0.271368
4204	0.291585
4200	0.098443
4196	-0.025224
4192	0.031828
4188	0.150036
4184	0.096535
4180	-0.070738
4176	0.036811
4172	0.108695
4168	-0.056171
4164	-0.100374
4160	-0.018429
4156	0.099825
4152	0.153160
4148	0.106668
4144	0.093984
4140	0.070691
4136	0.086212
4132	0.131058
4128	0.111126
4124	0.170326
4120	0.162911
4116	-0.002312
4112	-0.010681
4108	0.194454
4104	0.296592
4100	0.181031
4096	0.025987
4092	-0.027275
4088	0.078105
4084	0.197792
4080	0.093722
4076	-0.088429
4072	-0.124025
4068	-0.148105
4064	-0.143933
4060	-0.006461
4056	0.071382
4052	0.014734
4048	-0.043320
4044	0.028109
4040	0.135612
4036	0.200080
4032	0.305628
4028	0.407123
4024	0.418019
4020	0.246477
4016	-0.027704
4012	-0.064802
4008	0.193762
4004	0.443053
4000	0.489068
3996	0.384259
3992	0.306272
3988	0.291609
3984	0.244641
3980	0.194382
3976	0.195050
3972	0.180125
3968	0.139737
3964	0.168156
3960	0.196385
3956	0.093579
3952	0.019860
3948	0.115203
3944	0.213575
3940	0.219297
3936	0.198769
3932	0.241231
3928	0.256562
3924	0.100946
3920	-0.005245
3916	0.092339
3912	0.104856
3908	0.023388
3904	0.097680
3900	0.181555
3896	0.130748
3892	0.033903
3888	0.043511
3884	0.166726
3880	0.179886
3876	0.066351
3872	-0.056076
3868	-0.094747
3864	0.046491
3860	0.207829
3856	0.173068
3852	0.027966
3848	0.018525
3844	0.009751
3840	-0.114655
3836	-0.103282
3832	0.017166
3828	0.056409
3824	0.047278
3820	0.085568
3816	0.075149
3812	0.042366
3808	0.085377
3804	0.072503
3800	0.003266
3796	-0.000619
3792	0.012040
3788	-0.009894
3784	0.027108
3780	0.104451
3776	0.080394
3772	-0.014948
3768	-0.035881
3764	0.002074
3760	-0.012564
3756	-0.026655
3752	0.058913
3748	0.158452
3744	0.152206
3740	0.057172
3736	-0.048327
3732	0.016856
3728	0.198888
3724	0.229549
3720	0.143313
3716	0.059962
3712	0.048804
3708	0.092530
3704	0.089073
3700	0.008201
3696	-0.078201
3692	-0.013041
3688	0.097393
3684	0.074911
3680	0.047516
3676	0.043416
3672	0.003433
3668	-0.020456
3664	-0.003004
3660	0.029206
3656	-0.005292
3652	-0.019097
3648	0.014448
3644	-0.060224
3640	-0.136184
3636	-0.087189
3632	0.047826
3628	0.181984
3624	0.185799
3620	0.052690
3616	-0.094890
3612	-0.131678
3608	-0.089883
3604	-0.080871
3600	-0.030612
3596	0.059151
3592	0.048732
3588	0.000238
3584	0.037837
3580	0.071477
3576	0.001478
3572	0.007796
3568	0.183701
3564	0.265669
3560	0.112414
3556	0.031018
3552	0.113797
3548	0.074863
3544	-0.027775
3540	0.000309
3536	0.063085
3532	0.010323
3528	-0.084090
3524	-0.077581
3520	-0.033664
3516	0.034737
3512	0.150609
3508	0.185656
3504	0.147485
3500	0.144505
3496	0.074815
3492	-0.082755
3488	-0.130534
3484	-0.062656
3480	0.048851
3476	0.256061
3472	0.376152
3468	0.204992
3464	0.011181
3460	-0.028681
3456	-0.053119
3452	-0.023341
3448	0.035405
3444	0.044941
3440	0.069999
3436	0.045585
3432	-0.029230
3428	-0.049495
3424	0.014543
3420	0.052976
3416	-0.013804
3412	-0.049948
3408	-0.026416
3404	-0.022077
3400	-0.002193
3396	0.032353
3392	0.074625
3388	0.108075
3384	0.051259
3380	-0.007605
3376	-0.056266
3372	-0.182056
3368	-0.187182
3364	-0.028729
3360	0.055193
3356	0.065374
3352	0.064826
3348	0.001955
3344	-0.048303
3340	0.004601
3336	0.061941
3332	0.076103
3328	0.070238
3324	0.001406
3320	-0.026035
3316	0.068902
3312	0.166106
3308	0.158429
3304	0.085663
3300	0.058388
3296	0.066637
3292	0.081610
3288	0.078392
3284	0.034809
3280	0.029706
3276	0.074601
3272	0.137138
3268	0.168800
3264	0.106573
3260	0.045275
3256	0.082778
3252	0.142407
3248	0.115108
3244	0.046181
3240	0.058150
3236	0.113987
3232	0.148272
3228	0.132632
3224	0.002288
3220	-0.103473
3216	-0.041222
3212	0.011134
3208	0.021529
3204	0.098133
3200	0.095224
3196	0.034236
3192	0.088667
3188	0.153517
3184	0.104451
3180	0.082612
3176	0.103688
3172	0.012278
3168	-0.089788
3164	-0.093078
3160	-0.051546
3156	-0.026965
3152	-0.012969
3148	-0.021123
3144	-0.011944
3140	0.052738
3136	0.063109
3132	0.079107
3128	0.144553
3124	0.125026
3120	0.075364
3116	0.081276
3112	0.055623
3108	-0.014829
3104	-0.022840
3100	0.017452
3096	0.022196
3092	-0.055027
3088	-0.131249
3084	-0.100684
3080	-0.005912
3076	0.055932
3072	0.054359
3068	0.029945
3064	0.019693
3060	0.000333
3056	0.012087
3052	0.148153
3048	0.256347
3044	0.169467
3040	0.051903
3036	0.034022
3032	0.030398
3028	0.027823
3024	0.034213
3020	-0.016498
3016	-0.087261
3012	-0.092887
3008	-0.023245
3004	0.083613
3000	0.119352
2996	0.082302
2992	0.053930
2988	0.053787
2984	0.071930
2980	0.067687
2976	0.042128
2972	0.033283
2968	0.033736
2964	0.036144
2960	0.020074
2956	-0.039076
2952	-0.076246
2948	-0.039744
2944	0.004529
2940	0.032949
2936	0.057983
2932	0.079989
2928	0.084280
2924	0.073313
2920	0.077390
2916	0.073742
2912	0.069761
2908	0.064373
2904	0.063610
2900	0.066232
2896	-0.004148
2892	-0.072550
2888	-0.040864
2884	-0.003862
2880	-0.005102
2876	0.043463
2872	0.070357
2868	0.023245
2864	0.035691
2860	0.150346
2856	0.213003
2852	0.196909
2848	0.182032
2844	0.092649
2840	-0.022625
2836	-0.058984
2832	-0.072741
2828	-0.065970
2824	-0.042676
2820	-0.038647
2816	-0.028228
2812	0.003838
2808	0.022268
2804	0.002336
2800	0.023841
2796	0.086951
2792	0.086283
2788	0.073480
2784	0.082659
2780	0.056743
2776	0.023937
2772	-0.010108
2768	-0.034022
2764	-0.029611
2760	-0.017499
2756	-0.000095
2752	0.003480
2748	0.000143
2744	-0.000286
2740	-0.003981
2736	0.007867
2732	-0.001311
2728	-0.033211
2724	-0.006246
2720	0.025129
2716	0.036454
2712	0.072336
2708	0.094318
2704	0.094771
2700	0.079941
2696	0.073552
2692	0.088000
2688	0.091004
2684	0.064492
2680	0.044584
2676	0.052738
2672	0.054693
2668	0.029802
2664	0.007557
2660	0.025296
2656	0.058674
2652	0.093507
2648	0.077199
2644	0.015306
2640	0.022959
2636	0.056982
2632	0.062823
2628	0.067615
2624	0.067162
2620	0.086140
2616	0.077176
2612	0.002193
2608	-0.041699
2604	0.002050
2600	0.047087
2596	0.007152
2592	-0.034379
2588	-0.015497
2584	0.000119
2580	0.005841
2576	0.025033
2572	0.020480
2568	-0.019168
2564	-0.025796
2560	0.012040
2556	0.033092
2552	0.011229
2548	-0.056815
2544	-0.084400
2540	-0.073671
2536	-0.096869
2532	-0.104498
2528	-0.063896
2524	-0.009632
2520	-0.019693
2516	-0.009202
2512	0.122475
2508	0.237941
2504	0.179147
2500	-0.083899
2496	-0.222682
2492	-0.052332
2488	0.092339
2484	0.089883
2480	0.065565
2476	0.046801
2472	0.049257
2468	0.074577
2464	0.076508
2460	0.035429
2456	0.015473
2452	0.064659
2448	0.070714
2444	0.021982
2440	0.011658
2436	-0.038695
2432	-0.108170
2428	-0.042462
2424	0.086236
2420	0.139760
2416	0.175046
2412	0.158786
2408	0.015735
2404	-0.147843
2400	-0.140333
2396	-0.064706
2392	-0.086402
2388	-0.082683
2384	-0.045633
2380	-0.051736
2376	-0.012135
2372	0.046062
2368	0.056409
2364	0.068640
2360	0.109052
2356	0.133967
2352	0.102734
2348	0.124049
2344	0.164341
2340	0.084733
2336	-0.012493
2332	-0.043010
2328	-0.033736
2324	0.036525
2320	0.112962
2316	0.086236
2312	0.038409
2308	0.036954
2304	0.005125
2300	-0.028514
2296	-0.025916
2292	-0.011563
2288	0.039148
2284	0.091695
2280	0.079107
2276	0.037789
2272	0.001740
2268	0.010108
2264	0.111865
2260	0.215172
2256	0.265002
2252	0.318884
2248	0.383281
2244	0.441026
2240	0.472521
2236	0.516510
2232	0.600361
2228	0.649380
2224	0.750446
2220	0.957942
2216	1.080369
2212	1.100659
2208	1.169133
2204	1.288628
2200	1.413822
2196	1.567387
2192	1.736235
2188	1.911473
2184	2.131462
2180	2.343750
2176	2.537012
2172	2.760148
2168	2.997732
2164	3.291320
2160	3.582000
2156	3.791499
2152	4.049205
2148	4.351472
2144	4.618549
2140	4.924750
2136	5.223417
2132	5.473995
2128	5.753684
2124	6.121611
2120	6.577968
2116	6.991171
2112	7.298946
2108	7.605147
2104	8.008289
2100	8.498597
2096	8.971571
2092	9.358716
2088	9.638047
2084	9.898924
2080	10.3921
2076	11.0886
2072	11.6433
2068	11.9236
2064	12.2514
2060	12.8188
2056	13.3311
2052	13.6022
2048	13.8267
2044	14.2057
2040	14.6638
2036	15.1067
2032	15.5234
2028	15.908
2024	16.2645
2020	16.5715
2016	16.8828
2012	17.2488
2008	17.6216
2004	17.9546
2000	18.2827
1996	18.6325
1992	18.9745
1988	19.2775
1984	19.5611
1980	19.9017
1976	20.2432
1972	20.5246
1968	20.8013
1964	21.0689
1960	21.2941
1956	21.5037
1952	21.7527
1948	22.0262
1944	22.2884
1940	22.5169
1936	22.7303
1932	22.9693
1928	23.1495
1924	23.2873
1920	23.4927
1916	23.6983
1912	23.8522
1908	23.9982
1904	24.1668
1900	24.3558
1896	24.5332
1892	24.675
1888	24.8043
1884	24.9634
1880	25.1125
1876	25.2479
1872	25.4547
1868	25.6966
1864	25.8319
1860	25.8608
1856	25.9091
1852	25.9965
1848	26.1043
1844	26.2515
1840	26.3918
1836	26.4316
1832	26.4033
1828	26.4241
1824	26.5006
1820	26.6616
1816	26.8397
1812	26.8795
1808	26.8828
1804	26.9304
1800	26.9452
1796	26.9448
1792	27.0061
1788	27.1515
1784	27.2828
1780	27.3168
1776	27.3529
1772	27.4453
1768	27.4586
1764	27.406
1760	27.4647
1756	27.5813
1752	27.5759
1748	27.5182
1744	27.5378
1740	27.6064
1736	27.7092
1732	27.7746
1728	27.7738
1724	27.7795
1720	27.794
1716	27.8148
1712	27.8574
1708	27.8702
1704	27.8253
1700	27.8458
1696	27.9582
1692	28.019
1688	27.9758
1684	27.9298
1680	27.9576
1676	27.9722
1672	27.9366
1668	27.9304
1664	27.9973
1660	28.0912
1656	28.1325
1652	28.148
1648	28.1641
1644	28.0917
1640	27.9768
1636	27.9691
1632	27.995
1628	27.9476
1624	27.902
1620	27.9071
1616	27.9105
1612	27.8894
1608	27.939
1604	28.0363
1600	28.023
1596	27.9627
1592	27.9518
1588	27.9644
1584	27.9852
1580	27.9869
1576	27.9673
1572	27.9706
1568	27.9669
1564	27.9225
1560	27.9224
1556	27.9794
1552	27.9947
1548	27.9681
1544	27.9292
1540	27.8905
1536	27.8753
1532	27.8501
1528	27.813
1524	27.8049
1520	27.8737
1516	27.9315
1512	27.9217
1508	27.9293
1504	27.9282
1500	27.9065
1496	27.8554
1492	27.7532
1488	27.6694
1484	27.6469
1480	27.7089
1476	27.7401
1472	27.7027
1468	27.6897
1464	27.6563
1460	27.676
1456	27.7456
1452	27.7077
1448	27.6566
1444	27.5989
1440	27.5223
1436	27.5555
1432	27.5797
1428	27.5446
1424	27.5614
1420	27.5535
1416	27.525
1412	27.5511
1408	27.5649
1404	27.5429
1400	27.5404
1396	27.5673
1392	27.5659
1388	27.5032
1384	27.4315
1380	27.403
1376	27.4247
1372	27.484
1368	27.5108
1364	27.4596
1360	27.411
1356	27.3919
1352	27.3484
1348	27.3581
1344	27.4135
1340	27.4033
1336	27.3799
1332	27.3635
1328	27.2866
1324	27.169
1320	27.0761
1316	27.0477
1312	27.0961
1308	27.1464
1304	27.1636
1300	27.1936
1296	27.1869
1292	27.1157
1288	27.0679
1284	27.0573
1280	27.0308
1276	27.0231
1272	27.0368
1268	27.0401
1264	27.0586
1260	27.0654
1256	27.0188
1252	26.9277
1248	26.8266
1244	26.7776
1240	26.8183
1236	26.8887
1232	26.9046
1228	26.8942
1224	26.8917
1220	26.8572
1216	26.7817
1212	26.7185
1208	26.6925
1204	26.6887
1200	26.7285
1196	26.7774
1192	26.7276
1188	26.613
1184	26.5692
1180	26.5828
1176	26.6083
1172	26.6493
1168	26.6751
1164	26.6266
1160	26.5204
1156	26.4608
1152	26.4179
1148	26.3358
1144	26.2658
1140	26.2807
1136	26.335
1132	26.2667
1128	26.1674
1124	26.1513
1120	26.0906
1116	25.9975
1112	26.0316
1108	26.1125
1104	26.101
1100	26.0776
1096	26.0729
1092	26.0721
1088	26.0328
1084	25.9302
1080	25.8954
1076	25.9065
1072	25.883
1068	25.8365
1064	25.7251
1060	25.657
1056	25.6556
1052	25.6243
1048	25.6262
1044	25.6436
1040	25.6061
1036	25.5396
1032	25.5042
1028	25.5353
1024	25.532
1020	25.3768
1016	25.2033
1012	25.2109
1008	25.2946
1004	25.2429
1000	25.1478
996	 25.1897
992	 25.2157
988	 25.1037
984	 25.0778
980	 25.1249
976	 25.0179
972	 24.8486
968	 24.7423
964	 24.6875
960	 24.629
956	 24.5872
952	 24.6954
948	 24.7637
944	 24.5678
940	 24.3603
936	 24.2781
932	 24.1955
928	 24.149
924	 24.0965
920	 24.0146
916	 24.0232
912	 24.1282
908	 24.2411
904	 24.2644
900	 24.1089
896	 23.8873
892	 23.778
888	 23.6283
884	 23.426
880	 23.4297
876	 23.5955
872	 23.6854
868	 23.6177
864	 23.5319
860	 23.571
856	 23.5333
852	 23.2748
848	 23.0276
844	 22.8729
840	 22.8102
836	 22.8991
832	 22.97
828	 22.9149
824	 22.8988
820	 22.8488
816	 22.6714
812	 22.5499
808	 22.5498
804	 22.5568
800	 22.3817
796	 22.1781
792	 22.0321
788	 21.8608
784	 21.9146
780	 22.1292
776	 22.1512
772	 22.0387
768	 21.9144
764	 21.6685
760	 21.438
756	 21.3853
752	 21.3503
748	 21.4001
744	 21.5662
740	 21.5044
736	 21.288
732	 21.1112
728	 20.9666
724	 20.9907
720	 21.1605
716	 21.107
712	 20.806
708	 20.5713
704	 20.4131
700	 20.3172
696	 20.2982
692	 20.3117
688	 20.3473
684	 20.4269
680	 20.4145
676	 20.1138
672	 19.731
668	 19.5292
664	 19.4931
660	 19.4261
656	 19.3113
652	 19.2713
648	 19.3347
644	 19.5464
640	 19.6208
636	 19.3811
632	 19.0393
628	 18.7544
624	 18.5494
620	 18.4556
616	 18.5899
612	 18.6973
608	 18.5336
604	 18.319
600	 18.0866
596	 17.8737
592	 17.9266
588	 18.0207
584	 17.711
580	 17.2859
576	 17.2296
572	 17.1883
568	 16.9399
564	 16.6481
560	 16.5147
556	 16.6747
552	 16.8789
548	 17.0231
544	 16.843
540	 16.2918
536	 15.9782
532	 16.0977
528	 16.1556
524	 15.6794
520	 15.335
516	 15.8219
512	 16.2727
508	 15.8982
504	 15.2945
500	 15.0266
496	 15.0057
492	 14.8005
488	 14.2242
484	 14.0587
480	 14.4961
476	 14.9089
472	 14.7574
468	 13.9733
464	 13.4332
460	 13.7763
456	 14.2624
452	 14.0965
448	 13.5684
444	 13.3162
440	 13.2059
436	 13.0936
432	 13.0131
428	 12.5206
424	 11.952
420	 10.3462
416	 7.689237
412	 7.053589
408	 9.891915
404	 10.3618
400	 5.913496
396	 12.0032
392	 25.2118
388	 18.7165
384	 -0.222778
380	 -0.888061
376	 -0.076079
372	 -11.2153
370	 -17.5223