File: Bakgrunnsmateriale/MATLAB/FTIR/ftir_data/LPE453/Mapping_121/LPE453_t07_cm-1.asc
PE IR       SPECTRUM    SPECTRUM    ASCII       PEDS        1.60
  -1
LP67DA~1.ASC
17/05/16
14:55:42.00
17/05/16
14:55:42.00
tln
$LPE453_t0007$<tbV0>[-2.6,-13.0,8.0,0.0,27,1,0]
370
64

2002,4.07
MIRTGS : RIGHTBACK : INTERNAL 2
MIR : ON : INTERNAL 2
OPTKBR

0.200000
8
8.000000
FILLER
RATIO
SPECTRUM
UNLOCKED 256

DOUBLE
64
COMBINED
1
0
0

1.000000
RATIO

1
0
TRUE
51149
0
LEFT NOT FITTED RIGHT NOT FITTED 0
NONE
NONE
15600
12
4.427000
51148
TRUE
1 0 8 72 0 0 0 0

15798

#HDR
-1
-1
#GR
CM-1
%T
2.38419e-05
0.0
5000
-1.000000
4631
8
36.6264
-4.437541
#DATA
5000	0.276041
4996	0.200080
4992	0.069856
4988	-0.048136
4984	-0.087928
4980	-0.026893
4976	-0.051760
4972	0.096964
4968	0.232315
4964	0.171971
4960	0.499224
4956	0.676941
4952	0.268363
4948	0.100708
4944	0.163292
4940	-0.018978
4936	-0.373792
4932	-0.515818
4928	-0.247883
4924	0.078392
4920	0.109720
4916	-0.061893
4912	-0.201821
4908	-0.156235
4904	0.013208
4900	0.187015
4896	0.544214
4892	0.696182
4888	0.415086
4884	0.102210
4880	-0.135755
4876	-0.305485
4872	-0.270915
4868	0.141119
4864	0.489020
4860	0.327944
4856	0.115323
4852	0.167441
4848	0.232744
4844	0.308132
4840	0.415420
4836	0.280857
4832	0.061511
4828	0.082063
4824	0.314760
4820	0.430393
4816	0.282955
4812	0.166893
4808	0.062179
4804	-0.103926
4800	0.060272
4796	0.444936
4792	0.487875
4788	0.221800
4784	-0.000905
4780	-0.135207
4776	-0.305032
4772	-0.321102
4768	-0.032711
4764	0.165152
4760	0.069832
4756	-0.013923
4752	0.127959
4748	0.255417
4744	-0.033164
4740	-0.277185
4736	-0.043916
4732	0.092124
4728	0.071620
4724	0.203680
4720	0.363278
4716	0.506305
4712	0.357127
4708	-0.055766
4704	-0.059866
4700	0.305557
4696	0.404143
4692	0.248694
4688	0.179433
4684	0.239038
4680	0.377416
4676	0.406694
4672	0.280690
4668	0.200223
4664	0.144839
4660	-0.008320
4656	-0.237655
4652	-0.370860
4648	-0.313043
4644	-0.083947
4640	0.291180
4636	0.485110
4632	0.360083
4628	0.505566
4624	0.774097
4620	0.631070
4616	0.556278
4612	0.562715
4608	0.238156
4604	0.070071
4600	0.293684
4596	0.472259
4592	0.489282
4588	0.607180
4584	0.726532
4580	0.326180
4576	0.069689
4572	0.370645
4568	0.456118
4564	0.715708
4560	1.078200
4556	0.556826
4552	0.178718
4548	0.920104
4544	1.347470
4540	0.739312
4536	-0.065040
4532	-0.933027
4528	-1.955294
4524	-1.388430
4520	2.590632
4516	3.750467
4512	-2.376246
4508	-3.550529
4504	3.758811
4500	5.740213
4496	2.226018
4492	0.967526
4488	0.713825
4484	0.498700
4480	0.725221
4476	0.720214
4472	0.373840
4468	-0.107932
4464	-0.295543
4460	-0.080323
4456	0.184607
4452	0.220990
4448	0.111627
4444	0.111436
4440	0.151133
4436	0.032234
4432	-0.069737
4428	0.023651
4424	0.247502
4420	0.299644
4416	0.262761
4412	0.220394
4408	0.012111
4404	0.009703
4400	0.326466
4396	0.572896
4392	0.495505
4388	0.199818
4384	-0.034618
4380	-0.052785
4376	0.225663
4372	0.569224
4368	0.537705
4364	0.153207
4360	-0.086593
4356	-0.041913
4352	0.023221
4348	0.073266
4344	0.159716
4340	0.106573
4336	-0.036954
4332	-0.044322
4328	0.058460
4324	0.099110
4320	0.007677
4316	-0.052165
4312	-0.047826
4308	-0.044989
4304	0.029015
4300	0.106120
4296	0.101304
4292	0.034141
4288	-0.038433
4284	0.060725
4280	0.232744
4276	0.228023
4272	0.237083
4268	0.302553
4264	0.131130
4260	0.004506
4256	0.196433
4252	0.357747
4248	0.301408
4244	0.092935
4240	-0.029754
4236	0.038981
4232	0.073075
4228	0.004649
4224	-0.038361
4220	0.015521
4216	0.074481
4212	0.057196
4208	-0.020837
4204	-0.111126
4200	-0.171732
4196	-0.193333
4192	-0.114917
4188	0.122523
4184	0.432896
4180	0.673818
4176	0.675368
4172	0.350928
4168	0.067377
4164	0.027346
4160	-0.078678
4156	-0.124931
4152	0.088024
4148	0.285458
4144	0.352764
4140	0.351333
4136	0.294566
4132	0.231361
4128	0.333070
4124	0.496935
4120	0.454783
4116	0.366783
4112	0.369429
4108	0.269889
4104	0.067567
4100	-0.090098
4096	-0.167179
4092	-0.138092
4088	-0.080108
4084	-0.021862
4080	0.014352
4076	-0.004839
4072	0.017905
4068	0.069975
4064	0.115370
4060	0.099515
4056	0.019168
4052	-0.025939
4048	-0.048494
4044	-0.058269
4040	-0.029659
4036	0.056457
4032	0.110387
4028	0.047922
4024	0.071263
4020	0.249052
4016	0.360155
4012	0.366282
4008	0.253868
4004	0.128507
4000	0.135803
3996	0.143384
3992	0.156974
3988	0.249791
3984	0.279164
3980	0.222039
3976	0.157380
3972	0.080633
3968	0.060796
3964	0.000953
3960	-0.159049
3956	-0.156974
3952	0.002431
3948	0.079441
3944	0.099849
3940	0.147056
3936	0.130176
3932	0.038027
3928	-0.003027
3924	-0.026059
3920	-0.075340
3916	-0.056862
3912	0.002288
3908	0.005340
3904	-0.041198
3900	-0.111532
3896	-0.144982
3892	-0.013303
3888	0.217342
3884	0.341224
3880	0.296568
3876	0.144648
3872	-0.013494
3868	-0.143718
3864	-0.177550
3860	-0.006628
3856	0.213360
3852	0.231671
3848	0.157141
3844	0.148797
3840	0.148391
3836	0.178670
3832	0.231957
3828	0.178980
3824	0.128674
3820	0.073051
3816	-0.002694
3812	-0.002169
3808	-0.009870
3804	0.049471
3800	0.091028
3796	0.008702
3792	-0.044894
3788	-0.045251
3784	-0.008726
3780	0.004816
3776	-0.043320
3772	-0.025486
3768	0.095009
3764	0.195002
3760	0.177288
3756	0.116944
3752	0.113582
3748	0.177407
3744	0.262212
3740	0.289654
3736	0.286316
3732	0.265669
3728	0.209832
3724	0.147223
3720	0.090003
3716	0.066757
3712	0.036907
3708	-0.023317
3704	-0.050616
3700	-0.032043
3696	0.070619
3692	0.187182
3688	0.207066
3684	0.180268
3680	0.121331
3676	0.070595
3672	0.037384
3668	0.048923
3664	0.108790
3660	0.058603
3656	-0.077533
3652	-0.170540
3648	-0.123691
3644	0.004982
3640	0.082612
3636	0.122928
3632	0.061941
3628	-0.062108
3624	-0.098466
3620	-0.023436
3616	0.062990
3612	0.049519
3608	-0.017595
3604	-0.044274
3600	-0.044727
3596	-0.070571
3592	-0.134611
3588	-0.153422
3584	-0.032043
3580	0.084137
3576	0.058436
3572	0.095725
3568	0.179767
3564	0.109624
3560	-0.071740
3556	-0.142168
3552	-0.007319
3548	0.088644
3544	0.072002
3540	0.059413
3536	0.037646
3532	0.050806
3528	0.118350
3524	0.193381
3520	0.218248
3516	0.158452
3512	0.086259
3508	0.042533
3504	-0.012254
3500	-0.033354
3496	0.046849
3492	0.105333
3488	0.095152
3484	0.148630
3480	0.180220
3476	0.027084
3472	-0.161504
3468	-0.116324
3464	0.041079
3460	0.154805
3456	0.208258
3452	0.091195
3448	-0.012254
3444	-0.002503
3440	0.003957
3436	-0.002574
3432	-0.010180
3428	0.049972
3424	0.093674
3420	0.065660
3416	0.116491
3412	0.171923
3408	0.032615
3404	-0.097155
3400	-0.001811
3396	0.123739
3392	0.118994
3388	0.048184
3384	0.003314
3380	0.002789
3376	-0.014948
3372	-0.102472
3368	-0.085091
3364	0.077366
3360	0.105118
3356	0.000500
3352	-0.039982
3348	0.001025
3344	0.068426
3340	0.119638
3336	0.086259
3332	0.035691
3328	0.088238
3324	0.112462
3320	0.016093
3316	-0.066804
3312	-0.081515
3308	-0.055980
3304	-0.033712
3300	-0.088214
3296	-0.130939
3292	-0.063967
3288	0.009179
3284	0.032043
3280	0.077366
3276	0.121212
3272	0.129890
3268	0.170922
3264	0.246572
3260	0.270557
3256	0.196146
3252	0.088191
3248	0.014400
3244	-0.026154
3240	-0.011086
3236	0.071597
3232	0.106620
3228	0.035119
3224	-0.054740
3220	-0.089931
3216	-0.047254
3212	-0.006055
3208	0.047111
3204	0.189328
3200	0.267457
3196	0.203728
3192	0.047469
3188	-0.107741
3184	-0.134658
3180	-0.098037
3176	-0.113058
3172	-0.147843
3168	-0.106167
3164	0.011539
3160	0.117063
3156	0.157618
3152	0.131297
3148	0.134181
3144	0.168657
3140	0.150585
3136	0.116348
3132	0.071668
3128	0.003314
3124	0.002336
3120	0.069332
3116	0.070190
3112	-0.015997
3108	0.004243
3104	0.114321
3100	0.207328
3096	0.227737
3092	0.132155
3088	0.034904
3084	-0.046682
3080	-0.092816
3076	-0.106501
3072	-0.099492
3068	-0.031471
3064	-0.014305
3060	-0.058007
3056	-0.014615
3052	0.084471
3048	0.114321
3044	0.060343
3040	0.019311
3036	0.075268
3032	0.160622
3028	0.187873
3024	0.123143
3020	0.025033
3016	0.006914
3012	0.034642
3008	0.064229
3004	0.098562
3000	0.088572
2996	0.044775
2992	0.013637
2988	-0.035834
2984	-0.081110
2980	-0.059056
2976	0.038719
2972	0.148820
2968	0.207233
2964	0.163173
2960	0.027251
2956	-0.024533
2952	0.037598
2948	0.078487
2944	0.039911
2940	-0.061726
2936	-0.098276
2932	0.002098
2928	0.105333
2924	0.106239
2920	0.080633
2916	0.100851
2912	0.116920
2908	0.104784
2904	0.054550
2900	-0.018167
2896	-0.004839
2892	0.046014
2888	0.067830
2884	0.075030
2880	0.038290
2876	0.002217
2872	-0.013566
2868	0.049090
2864	0.193452
2860	0.240039
2856	0.202035
2852	0.151443
2848	0.062060
2844	0.046896
2840	0.101995
2836	0.083994
2832	0.036835
2828	0.027751
2824	0.029468
2820	0.033950
2816	0.007152
2812	-0.020265
2808	0.041842
2804	0.129723
2800	0.116896
2796	0.004935
2792	-0.070095
2788	-0.023245
2784	0.050854
2780	0.078177
2776	0.099635
2772	0.124764
2768	0.113606
2764	0.070023
2760	0.002527
2756	-0.051307
2752	-0.043773
2748	-0.023221
2744	-0.002145
2740	0.023078
2736	0.023221
2732	0.027942
2728	0.060510
2724	0.048470
2720	-0.009799
2716	-0.059962
2712	-0.092172
2708	-0.065851
2704	0.025415
2700	0.038576
2696	0.005841
2692	0.078105
2688	0.146770
2684	0.060629
2680	-0.039267
2676	-0.062513
2672	-0.075817
2668	-0.065732
2664	-0.009489
2660	0.039267
2656	0.041055
2652	0.031375
2648	-0.002217
2644	-0.072264
2640	-0.090670
2636	-0.004482
2632	0.087952
2628	0.105023
2624	0.081562
2620	0.068593
2616	0.096821
2612	0.103235
2608	0.058221
2604	0.032997
2600	0.048089
2596	0.074148
2592	0.081443
2588	0.064492
2584	0.042319
2580	0.013113
2576	0.004720
2572	-0.001192
2568	-0.070762
2564	-0.046944
2560	0.127792
2556	0.237584
2552	0.248384
2548	0.206065
2544	0.069427
2540	-0.017642
2536	0.023698
2532	0.039601
2528	0.004673
2524	-0.035262
2520	0.036406
2516	0.217342
2512	0.255250
2508	0.112652
2504	-0.053071
2500	-0.124168
2496	-0.072526
2492	0.055575
2488	0.123786
2484	0.066614
2480	0.012707
2476	0.022983
2472	0.048327
2468	0.056195
2464	0.054407
2460	0.093579
2456	0.140333
2452	0.140237
2448	0.085568
2444	0.020432
2440	0.041651
2436	0.132775
2432	0.116658
2428	0.012969
2424	-0.003695
2420	-0.012445
2416	-0.052380
2412	-0.017237
2408	0.086832
2404	0.114822
2400	0.016951
2396	-0.025486
2392	0.026702
2388	0.060820
2384	0.079822
2380	0.120186
2376	0.156807
2372	0.145816
2368	0.072526
2364	0.031352
2360	0.085616
2356	0.114297
2352	0.093889
2348	0.152373
2344	0.251054
2340	0.263714
2336	0.268864
2332	0.326371
2328	0.353908
2324	0.369834
2320	0.405311
2316	0.411486
2312	0.393080
2308	0.412130
2304	0.474715
2300	0.528645
2296	0.601506
2292	0.718283
2288	0.805401
2284	0.874805
2280	0.961565
2276	1.029825
2272	1.082468
2268	1.152539
2264	1.238036
2260	1.297044
2256	1.380228
2252	1.542448
2248	1.743078
2244	1.944518
2240	2.119040
2236	2.321600
2232	2.555513
2228	2.728319
2224	2.910566
2220	3.163123
2216	3.422355
2212	3.693866
2208	3.995013
2204	4.296207
2200	4.598379
2196	4.949140
2192	5.330252
2188	5.666971
2184	5.943202
2180	6.234145
2176	6.605482
2172	7.021355
2168	7.450294
2164	7.891035
2160	8.372449
2156	8.869338
2152	9.344005
2148	9.833979
2144	10.3015
2140	10.7513
2136	11.2566
2132	11.7841
2128	12.299
2124	12.7976
2120	13.2629
2116	13.7599
2112	14.3003
2108	14.7963
2104	15.2847
2100	15.8271
2096	16.3558
2092	16.8387
2088	17.3201
2084	17.8622
2080	18.3739
2076	18.8008
2072	19.2905
2068	19.7635
2064	20.3106
2060	21.0771
2056	21.7161
2052	22.1061
2048	22.4373
2044	22.7899
2040	23.2341
2036	23.7261
2032	24.1024
2028	24.4397
2024	24.879
2020	25.316
2016	25.668
2012	26.0002
2008	26.3462
2004	26.7031
2000	27.0989
1996	27.5311
1992	27.9402
1988	28.3017
1984	28.614
1980	28.8774
1976	29.1473
1972	29.4488
1968	29.7215
1964	29.8845
1960	30.0519
1956	30.3499
1952	30.6547
1948	30.9039
1944	31.1569
1940	31.4222
1936	31.6843
1932	31.9381
1928	32.1292
1924	32.2469
1920	32.3513
1916	32.4891
1912	32.6555
1908	32.7727
1904	32.8366
1900	32.9231
1896	33.099
1892	33.323
1888	33.5093
1884	33.7223
1880	33.9696
1876	34.1681
1872	34.3438
1868	34.4019
1864	34.3217
1860	34.3009
1856	34.3384
1852	34.3837
1848	34.446
1844	34.4797
1840	34.54
1836	34.6759
1832	34.8428
1828	35.0262
1824	35.2023
1820	35.3302
1816	35.3954
1812	35.431
1808	35.4328
1804	35.372
1800	35.3475
1796	35.4333
1792	35.4694
1788	35.3595
1784	35.3128
1780	35.4442
1776	35.6498
1772	35.8571
1768	35.9885
1764	36.0452
1760	36.062
1756	36.0092
1752	35.9686
1748	35.9263
1744	35.8493
1740	35.8419
1736	35.8321
1732	35.704
1728	35.6348
1724	35.7851
1720	35.9908
1716	36.0734
1712	36.1087
1708	36.2356
1704	36.4562
1700	36.619
1696	36.5588
1692	36.388
1688	36.3002
1684	36.2132
1680	36.1023
1676	36.078
1672	36.0601
1668	36.0157
1664	35.9972
1660	36.0904
1656	36.3791
1652	36.609
1648	36.566
1644	36.4505
1640	36.4477
1636	36.4146
1632	36.2282
1628	36.0572
1624	35.9632
1620	35.9357
1616	35.9428
1612	35.901
1608	35.8985
1604	36.0099
1600	36.1586
1596	36.2388
1592	36.2723
1588	36.3116
1584	36.3069
1580	36.264
1576	36.2035
1572	36.0712
1568	35.9135
1564	35.8977
1560	35.9813
1556	35.9129
1552	35.8241
1548	35.9741
1544	36.2385
1540	36.3639
1536	36.2928
1532	36.2087
1528	36.2487
1524	36.3522
1520	36.3952
1516	36.3229
1512	36.1886
1508	35.9924
1504	35.7365
1500	35.5755
1496	35.6298
1492	35.7818
1488	35.8199
1484	35.8487
1480	35.9763
1476	36.1245
1472	36.2115
1468	36.2287
1464	36.1969
1460	36.1194
1456	35.9699
1452	35.7579
1448	35.5902
1444	35.4972
1440	35.471
1436	35.4506
1432	35.4059
1428	35.4746
1424	35.6463
1420	35.7851
1416	35.8979
1412	36.0125
1408	36.0514
1404	35.9331
1400	35.7373
1396	35.5944
1392	35.5044
1388	35.4137
1384	35.3004
1380	35.2555
1376	35.2999
1372	35.3532
1368	35.4569
1364	35.5834
1360	35.6461
1356	35.6834
1352	35.7068
1348	35.6856
1344	35.6354
1340	35.5556
1336	35.4423
1332	35.3075
1328	35.1162
1324	34.9512
1320	34.9226
1316	34.9534
1312	34.9697
1308	35.0668
1304	35.3035
1300	35.5183
1296	35.618
1292	35.6446
1288	35.6313
1284	35.6023
1280	35.4792
1276	35.238
1272	34.981
1268	34.7653
1264	34.6113
1260	34.5458
1256	34.6366
1252	34.8381
1248	34.9697
1244	35.0456
1240	35.1897
1236	35.3621
1232	35.498
1228	35.5747
1224	35.5209
1220	35.3567
1216	35.1898
1212	35.0117
1208	34.7847
1204	34.5789
1200	34.492
1196	34.5323
1192	34.6828
1188	34.8717
1184	34.9812
1180	35.0505
1176	35.1564
1172	35.2793
1168	35.3796
1164	35.3494
1160	35.1004
1156	34.7823
1152	34.5711
1148	34.4418
1144	34.3813
1140	34.4323
1136	34.5042
1132	34.5394
1128	34.602
1124	34.7528
1120	34.971
1116	35.1161
1112	35.1599
1108	35.1582
1104	35.0872
1100	34.9714
1096	34.7973
1092	34.5268
1088	34.2433
1084	34.0415
1080	33.9796
1076	34.0631
1072	34.1985
1068	34.3684
1064	34.5757
1060	34.7641
1056	34.9049
1052	34.9669
1048	34.9481
1044	34.8064
1040	34.5781
1036	34.3798
1032	34.1832
1028	33.8853
1024	33.6335
1020	33.7114
1016	33.9088
1012	34.0289
1008	34.2297
1004	34.3969
1000	34.4607
996	 34.5407
992	 34.6084
988	 34.6223
984	 34.5506
980	 34.3121
976	 34.0262
972	 33.9101
968	 33.7805
964	 33.5526
960	 33.4327
956	 33.4037
952	 33.4755
948	 33.6492
944	 33.802
940	 33.967
936	 34.1621
932	 34.3116
928	 34.3824
924	 34.2508
920	 33.9793
916	 33.7351
912	 33.4228
908	 33.0668
904	 32.863
900	 32.9375
896	 33.0941
892	 33.1343
888	 33.2498
884	 33.4638
880	 33.5628
876	 33.5414
872	 33.5198
868	 33.5082
864	 33.4812
860	 33.3954
856	 33.1587
852	 32.8334
848	 32.5167
844	 32.2651
840	 32.1912
836	 32.2523
832	 32.315
828	 32.4136
824	 32.6568
820	 32.8922
816	 33.0787
812	 33.2075
808	 33.0362
804	 32.8287
800	 32.8171
796	 32.7055
792	 32.4094
788	 32.1103
784	 31.9003
780	 31.7446
776	 31.6122
772	 31.5787
768	 31.7235
764	 32.0728
760	 32.483
756	 32.6099
752	 32.4484
748	 32.136
744	 31.7374
740	 31.5913
736	 31.68
732	 31.5988
728	 31.2887
724	 30.9822
720	 30.798
716	 30.7121
712	 30.8244
708	 31.1873
704	 31.424
700	 31.3455
696	 31.3164
692	 31.3477
688	 31.3289
684	 31.3469
680	 31.2639
676	 31.0483
672	 30.7532
668	 30.3895
664	 30.0789
660	 29.7871
656	 29.4989
652	 29.5025
648	 29.8817
644	 30.2237
640	 30.2766
636	 30.361
632	 30.5381
628	 30.5842
624	 30.5251
620	 30.3692
616	 30.077
612	 29.7994
608	 29.6544
604	 29.4422
600	 29.1062
596	 28.8432
592	 28.6151
588	 28.4758
584	 28.6096
580	 28.8417
576	 28.9977
572	 29.0628
568	 29.1757
564	 29.2994
560	 29.2073
556	 28.9182
552	 28.4697
548	 28.3234
544	 28.3328
540	 28.1615
536	 28.1193
532	 27.8963
528	 27.7852
524	 28.1108
520	 28.0531
516	 27.7022
512	 27.7285
508	 27.6261
504	 27.1218
500	 26.6512
496	 26.4266
492	 26.3954
488	 26.5598
484	 26.7562
480	 26.5961
476	 26.528
472	 26.7301
468	 27.0918
464	 27.3027
460	 27.0514
456	 26.5918
452	 25.729
448	 25.4102
444	 25.6762
440	 24.8885
436	 23.609
432	 22.9212
428	 22.5909
424	 22.6655
420	 23.3486
416	 24.7267
412	 27.2311
408	 29.033
404	 27.6592
400	 24.6877
396	 22.0057
392	 16.0661
388	 13.6441
384	 15.8108
380	 12.3807
376	 12.8827
372	 12.4272
370	 10.9938