File: Bakgrunnsmateriale/MATLAB/FTIR/ftir_data/LPE453/Mapping_121/LPE453_t23_cm-1.asc
PE IR       SPECTRUM    SPECTRUM    ASCII       PEDS        1.60
  -1
LP58D0~1.ASC
17/05/16
16:17:16.00
17/05/16
16:17:16.00
tln
$LPE453_t0023$<tbV0>[13.0,-7.8,8.0,0.0,27,1,0]
370
64

2002,4.07
MIRTGS : RIGHTBACK : INTERNAL 2
MIR : ON : INTERNAL 2
OPTKBR

0.200000
8
8.000000
FILLER
RATIO
SPECTRUM
UNLOCKED 256

DOUBLE
64
COMBINED
1
0
0

1.000000
RATIO

1
0
TRUE
51149
0
LEFT NOT FITTED RIGHT NOT FITTED 0
NONE
NONE
15600
12
4.427000
51148
TRUE
1 0 8 72 0 0 0 0

15798

#HDR
-1
-1
#GR
CM-1
%T
2.38419e-05
0.0
5000
-1.000000
4631
8
27.3302
-55.1029
#DATA
5000	0.240468
4996	0.281691
4992	0.081467
4988	-0.140070
4984	-0.235438
4980	-0.447678
4976	-0.521492
4972	-0.249910
4968	-0.027632
4964	0.088071
4960	0.226879
4956	0.253868
4952	0.257086
4948	0.276851
4944	0.143885
4940	-0.072693
4936	-0.208520
4932	-0.164270
4928	-0.011849
4924	0.100040
4920	0.083160
4916	0.008106
4912	0.117468
4908	0.407958
4904	0.631403
4900	0.638151
4896	0.539422
4892	0.498580
4888	0.281214
4884	-0.011301
4880	-0.010609
4876	-0.118255
4872	-0.296878
4868	-0.111508
4864	0.256276
4860	0.492238
4856	0.468015
4852	0.296163
4848	0.110578
4844	0.162506
4840	0.396871
4836	0.341582
4832	0.167131
4828	0.261330
4824	0.327777
4820	0.184941
4816	0.226879
4812	0.354218
4808	0.214219
4804	0.025868
4800	0.067377
4796	0.176668
4792	0.176978
4788	0.281882
4784	0.493812
4780	0.436449
4776	0.181555
4772	0.037765
4768	-0.025320
4764	-0.066184
4760	0.026988
4756	0.194358
4752	0.178146
4748	0.019383
4744	-0.064444
4740	-0.074982
4736	-0.147724
4732	-0.170421
4728	-0.067353
4724	0.020432
4720	-0.043845
4716	-0.092506
4712	0.025701
4708	0.232338
4704	0.453782
4700	0.370955
4696	0.041580
4692	-0.050616
4688	0.040984
4684	0.040626
4680	-0.012803
4676	0.089621
4672	0.349450
4668	0.369858
4664	0.138044
4660	0.047564
4656	0.155329
4652	0.214505
4648	0.090050
4644	-0.034809
4640	-0.007820
4636	0.165438
4632	0.390458
4628	0.498104
4624	0.767922
4620	1.174736
4616	0.958490
4612	0.579261
4608	0.587987
4604	0.609803
4600	0.721240
4596	0.735521
4592	0.177741
4588	-0.561976
4584	-1.062488
4580	-0.981140
4576	-0.128912
4572	0.263452
4568	-0.214910
4564	-0.658655
4560	-1.308465
4556	-2.002024
4552	-2.063465
4548	-1.602602
4544	-0.731062
4540	-0.197815
4536	-0.193333
4532	-0.485992
4528	0.031948
4524	1.914548
4520	2.418828
4516	3.884053
4512	5.847501
4508	9.347939
4504	15.8684
4500	13.6753
4496	5.499315
4492	1.477241
4488	0.246524
4484	0.434970
4480	0.918483
4476	0.460648
4472	0.093412
4468	0.051689
4464	0.054669
4460	-0.034117
4456	-0.383019
4452	-0.752615
4448	-0.716257
4444	-0.499320
4440	-0.258016
4436	-0.189590
4432	-0.436639
4428	-0.630640
4424	-0.674390
4420	-0.620627
4416	-0.290012
4412	-0.018978
4408	0.062870
4404	0.010013
4400	-0.073671
4396	0.130486
4392	0.475335
4388	0.579118
4384	0.560450
4380	0.589013
4376	0.599884
4372	0.582361
4368	0.409650
4364	0.184011
4360	0.143718
4356	0.191950
4352	0.128221
4348	0.110769
4344	0.215387
4340	0.230193
4336	0.198960
4332	0.169944
4328	0.168156
4324	0.226211
4320	0.230455
4316	0.171947
4312	0.114250
4308	0.097370
4304	0.086069
4300	0.096225
4296	0.223255
4292	0.416111
4288	0.497817
4284	0.348734
4280	0.162839
4276	0.215768
4272	0.281858
4268	0.177955
4264	0.168943
4260	0.340628
4256	0.474238
4252	0.276255
4248	-0.093388
4244	-0.241351
4240	-0.164842
4236	-0.148439
4232	-0.098085
4228	0.165677
4224	0.190043
4220	-0.055384
4216	-0.070405
4212	0.109958
4208	0.264430
4204	0.335025
4200	0.306844
4196	0.074839
4192	-0.045871
4188	0.205016
4184	0.502276
4180	0.627207
4176	0.435233
4172	0.106287
4168	-0.004100
4164	-0.009584
4160	0.013780
4156	0.034785
4152	0.068640
4148	0.227475
4144	0.330376
4140	0.282549
4136	0.195384
4132	0.067400
4128	-0.050616
4124	-0.010132
4120	0.075221
4116	0.030159
4112	0.081300
4108	0.291919
4104	0.327706
4100	0.241613
4096	0.191020
4092	0.051593
4088	-0.100255
4084	-0.109148
4080	-0.016522
4076	0.057554
4072	0.127649
4068	0.181531
4064	0.087904
4060	-0.008940
4056	0.010943
4052	0.016093
4048	0.048661
4044	0.113201
4040	0.138330
4036	0.177669
4032	0.174665
4028	0.053262
4024	-0.090169
4020	-0.159740
4016	-0.090265
4012	0.105381
4008	0.190925
4004	0.111293
4000	-0.067925
3996	-0.278854
3992	-0.209903
3988	0.065636
3984	0.154471
3980	0.026965
3976	-0.074005
3972	-0.011658
3968	0.030422
3964	-0.042748
3960	-0.048136
3956	0.039982
3952	0.094389
3948	0.158882
3944	0.267696
3940	0.248765
3936	0.096750
3932	0.016546
3928	0.051808
3924	0.142621
3920	0.143027
3916	-0.007772
3912	-0.070428
3908	0.004434
3904	0.004315
3900	-0.048899
3896	-0.051712
3892	-0.020122
3888	0.039529
3884	0.021409
3880	-0.078487
3876	-0.029587
3872	0.129294
3868	0.135374
3864	0.033998
3860	-0.085282
3856	-0.141024
3852	-0.045514
3848	0.011634
3844	-0.017571
3840	0.011634
3836	0.057888
3832	0.131034
3828	0.238943
3824	0.237417
3820	0.219583
3816	0.257396
3812	0.259780
3808	0.186991
3804	0.046253
3800	0.007748
3796	0.143694
3792	0.215125
3788	0.109291
3784	-0.000214
3780	0.010442
3776	0.125169
3772	0.204706
3768	0.186562
3764	0.181984
3760	0.220108
3756	0.205898
3752	0.133728
3748	0.101661
3744	0.093936
3740	0.064635
3736	0.064730
3732	0.106406
3728	0.100660
3724	0.032305
3720	0.026559
3716	0.129771
3712	0.222373
3708	0.191450
3704	0.063037
3700	-0.027704
3696	-0.004649
3692	0.034880
3688	0.094270
3684	0.152254
3680	0.084829
3676	0.006723
3672	-0.033688
3668	-0.068426
3664	0.000905
3660	0.079631
3656	0.015187
3652	-0.080180
3648	-0.040221
3644	0.081658
3640	0.087046
3636	-0.025296
3632	-0.037336
3628	0.054001
3624	0.068879
3620	0.018191
3616	-0.029063
3612	-0.047898
3608	-0.010848
3604	0.050020
3600	0.063467
3596	0.016236
3592	-0.031661
3588	-0.003719
3584	0.021290
3580	-0.042057
3576	-0.086593
3572	-0.087738
3568	-0.075316
3564	0.016379
3560	0.161552
3556	0.262188
3552	0.290036
3548	0.310325
3544	0.329828
3540	0.261569
3536	0.132870
3532	0.030899
3528	-0.055003
3524	-0.075387
3520	-0.034475
3516	-0.060153
3512	-0.076293
3508	0.014543
3504	0.137710
3500	0.163435
3496	0.069475
3492	-0.004124
3488	0.013470
3484	0.062751
3480	0.107455
3476	0.201082
3472	0.244641
3468	0.112795
3464	-0.003314
3460	0.020217
3456	0.037169
3452	-0.012183
3448	-0.055360
3444	0.015544
3440	0.162243
3436	0.205397
3432	0.170207
3428	0.153040
3424	0.154662
3420	0.158166
3416	0.166535
3412	0.152301
3408	0.108027
3404	0.051903
3400	-0.048708
3396	-0.098872
3392	-0.031518
3388	0.035405
3384	0.036358
3380	0.073957
3376	0.191211
3372	0.253796
3368	0.169396
3364	0.055694
3360	0.112032
3356	0.266122
3352	0.301408
3348	0.212788
3344	0.104093
3340	0.031065
3336	0.003910
3332	-0.010919
3328	0.048875
3324	0.152373
3320	0.139570
3316	0.087046
3312	0.057363
3308	0.013947
3304	0.029397
3300	0.068593
3296	0.075793
3292	0.113511
3288	0.114369
3284	-0.001573
3280	-0.155234
3276	-0.214719
3272	-0.139212
3268	-0.023984
3264	0.049972
3260	0.034689
3256	-0.004243
3252	0.039029
3248	0.093460
3244	0.120306
3240	0.115728
3236	0.083494
3232	0.098395
3228	0.147104
3224	0.154137
3220	0.141882
3216	0.159120
3212	0.152540
3208	0.163364
3204	0.160789
3200	0.038361
3196	-0.044584
3192	-0.000357
3188	0.068068
3184	0.156188
3180	0.226593
3176	0.193691
3172	0.113177
3168	0.051975
3164	0.017952
3160	0.020599
3156	0.016570
3152	0.049376
3148	0.154948
3144	0.191688
3140	0.157380
3136	0.039005
3132	-0.104999
3128	-0.057673
3124	0.012874
3120	0.002622
3116	0.010108
3112	-0.048065
3108	-0.047492
3104	0.084280
3100	0.138092
3096	0.110387
3092	0.094914
3088	0.041389
3084	-0.045061
3080	-0.097584
3076	-0.054049
3072	0.040388
3068	0.063562
3064	0.022864
3060	-0.000047
3056	0.045990
3052	0.051975
3048	0.009059
3044	0.034332
3040	0.074553
3036	0.092625
3032	0.078845
3028	0.031352
3024	0.057244
3020	0.106239
3016	0.035691
3012	-0.039100
3008	-0.000643
3004	0.039935
3000	0.033807
2996	0.066685
2992	0.091791
2988	0.019764
2984	-0.006699
2980	0.060081
2976	0.101375
2972	0.140595
2968	0.171542
2964	0.144839
2960	0.117111
2956	0.139880
2952	0.140237
2948	0.078773
2944	0.072598
2940	0.101947
2936	0.064015
2932	0.018048
2928	0.035500
2924	0.083208
2920	0.075292
2916	0.026416
2912	0.035047
2908	0.038146
2904	-0.048565
2900	-0.100946
2896	-0.060653
2892	-0.010704
2888	-0.008463
2884	-0.020909
2880	-0.001740
2876	-0.028800
2872	-0.059151
2868	0.031852
2864	0.119781
2860	0.134062
2856	0.150585
2852	0.136971
2848	0.100541
2844	0.098752
2840	0.098013
2836	0.086379
2832	0.105333
2828	0.105881
2824	0.033402
2820	-0.045728
2816	-0.058531
2812	-0.048089
2808	-0.068283
2804	-0.048160
2800	0.025677
2796	0.045776
2792	0.020217
2788	0.009965
2784	-0.002217
2780	-0.009727
2776	0.023603
2772	0.057315
2768	0.043702
2764	0.036454
2760	0.034093
2756	0.012564
2752	0.039863
2748	0.072622
2744	0.047397
2740	0.005817
2736	-0.044655
2732	-0.051856
2728	0.014400
2724	0.064730
2720	0.065207
2716	0.061583
2712	0.052809
2708	0.009775
2704	-0.013017
2700	0.047135
2696	0.089168
2692	0.053834
2688	0.048375
2684	0.083255
2680	0.097489
2676	0.098109
2672	0.099492
2668	0.046205
2664	-0.037312
2660	-0.053405
2656	-0.033569
2652	-0.035858
2648	-0.053048
2644	-0.041222
2640	0.013303
2636	0.052332
2632	0.060439
2628	0.087523
2624	0.141763
2620	0.155544
2616	0.102853
2612	0.035595
2608	-0.018286
2604	-0.014543
2600	0.047636
2596	0.078535
2592	0.097632
2588	0.091266
2584	0.057625
2580	0.091671
2576	0.096344
2572	0.036001
2568	0.018382
2564	0.003051
2560	-0.027012
2556	-0.010371
2552	-0.000762
2548	-0.050973
2544	-0.061583
2540	0.025439
2536	0.119757
2532	0.134706
2528	0.069737
2524	-0.009822
2520	-0.063109
2516	-0.028467
2512	0.125980
2508	0.199222
2504	0.087165
2500	-0.072669
2496	-0.128483
2492	-0.070023
2488	0.009965
2484	0.048756
2480	0.064945
2476	0.107073
2472	0.081515
2468	0.027108
2464	0.005507
2460	0.005412
2456	0.074124
2452	0.149798
2448	0.163459
2444	0.125503
2440	0.076341
2436	0.018978
2432	-0.160336
2428	-0.374341
2424	-0.315165
2420	-0.047492
2416	0.111675
2412	0.115323
2408	0.092601
2404	0.092816
2400	0.091266
2396	0.110101
2392	0.113439
2388	0.028181
2384	-0.034642
2380	0.002980
2376	0.047898
2372	0.065803
2368	0.122380
2364	0.168657
2360	0.123667
2356	0.038552
2352	-0.013542
2348	-0.016140
2344	0.004482
2340	0.036978
2336	0.080156
2332	0.086951
2328	0.061774
2324	0.065851
2320	0.101208
2316	0.121235
2312	0.106620
2308	0.080966
2304	0.085186
2300	0.143337
2296	0.233864
2292	0.294804
2288	0.297689
2284	0.244021
2280	0.174355
2276	0.188565
2272	0.252485
2268	0.272798
2264	0.257706
2260	0.290989
2256	0.417757
2252	0.514268
2248	0.543785
2244	0.573277
2240	0.618743
2236	0.716757
2232	0.827193
2228	0.894641
2224	0.955176
2220	1.065278
2216	1.199316
2212	1.285195
2208	1.421713
2204	1.649188
2200	1.828694
2196	1.939821
2192	2.040100
2188	2.209401
2184	2.416586
2180	2.591300
2176	2.786636
2172	2.999043
2168	3.250265
2164	3.523635
2160	3.728985
2156	3.934502
2152	4.275178
2148	4.642152
2144	4.895305
2140	5.200362
2136	5.562925
2132	5.859875
2128	6.156492
2124	6.468629
2120	6.806015
2116	7.176852
2112	7.547926
2108	7.928252
2104	8.285093
2100	8.601808
2096	8.932852
2092	9.319448
2088	9.749579
2084	10.148
2080	10.5421
2076	11.0242
2072	11.4637
2068	11.7872
2064	12.1089
2060	12.3647
2056	12.6262
2052	13.028
2048	13.3922
2044	13.6915
2040	14.0826
2036	14.5596
2032	14.9532
2028	15.1671
2024	15.4071
2020	15.8007
2016	16.1793
2012	16.4845
2008	16.7804
2004	17.1118
2000	17.4589
1996	17.7325
1992	17.9494
1988	18.2129
1984	18.5184
1980	18.7749
1976	18.997
1972	19.2339
1968	19.4834
1964	19.757
1960	20.0217
1956	20.2213
1952	20.3808
1948	20.5604
1944	20.7649
1940	20.9543
1936	21.174
1932	21.4599
1928	21.7083
1924	21.8853
1920	22.0705
1916	22.2678
1912	22.4537
1908	22.605
1904	22.7254
1900	22.8552
1896	22.9723
1892	23.0953
1888	23.2988
1884	23.5077
1880	23.6385
1876	23.7694
1872	23.9133
1868	24.0168
1864	24.1184
1860	24.2459
1856	24.3626
1852	24.4596
1848	24.5647
1844	24.6569
1840	24.7579
1836	24.8986
1832	24.9638
1828	24.9603
1824	25.031
1820	25.1266
1816	25.1798
1812	25.2576
1808	25.4008
1804	25.5384
1800	25.5707
1796	25.5615
1792	25.6401
1788	25.7569
1784	25.8036
1780	25.8219
1776	25.9023
1772	25.9845
1768	25.9934
1764	26.0384
1760	26.1576
1756	26.2074
1752	26.1782
1748	26.1655
1744	26.1786
1740	26.2143
1736	26.2358
1732	26.273
1728	26.3982
1724	26.4975
1720	26.5319
1716	26.6106
1712	26.6861
1708	26.6616
1704	26.6452
1700	26.6874
1696	26.6925
1692	26.6796
1688	26.7221
1684	26.7912
1680	26.8072
1676	26.7721
1672	26.752
1668	26.7799
1664	26.8102
1660	26.8135
1656	26.847
1652	26.9818
1648	27.1618
1644	27.2151
1640	27.1395
1636	27.0952
1632	27.0901
1628	27.0605
1624	27.0631
1620	27.101
1616	27.1111
1612	27.1002
1608	27.0863
1604	27.0507
1600	27.0146
1596	27.0644
1592	27.1485
1588	27.1278
1584	27.0474
1580	27.0385
1576	27.0859
1572	27.0711
1568	27.0045
1564	27.012
1560	27.116
1556	27.2136
1552	27.2493
1548	27.2588
1544	27.2456
1540	27.2074
1536	27.183
1532	27.2092
1528	27.236
1524	27.1914
1520	27.1622
1516	27.195
1512	27.2159
1508	27.2088
1504	27.1955
1500	27.2129
1496	27.2289
1492	27.1915
1488	27.2245
1484	27.3143
1480	27.314
1476	27.2155
1472	27.1164
1468	27.0898
1464	27.1291
1460	27.182
1456	27.2051
1452	27.2205
1448	27.2686
1444	27.2676
1440	27.2033
1436	27.1833
1432	27.132
1428	27.0624
1424	27.0889
1420	27.1546
1416	27.187
1412	27.1651
1408	27.1162
1404	27.0779
1400	27.0607
1396	27.0144
1392	26.951
1388	26.9785
1384	27.0592
1380	27.0659
1376	27.0261
1372	27.0469
1368	27.0925
1364	27.0988
1360	27.131
1356	27.1721
1352	27.1534
1348	27.0929
1344	27.032
1340	27.0223
1336	27.014
1332	26.9576
1328	26.9325
1324	26.9487
1320	26.9211
1316	26.8668
1312	26.9249
1308	27.0378
1304	26.9952
1300	26.8978
1296	26.912
1292	26.936
1288	26.8814
1284	26.7972
1280	26.7662
1276	26.7916
1272	26.8074
1268	26.8489
1264	26.9246
1260	26.9186
1256	26.8257
1252	26.7339
1248	26.7152
1244	26.7503
1240	26.7167
1236	26.6739
1232	26.7181
1228	26.7757
1224	26.8072
1220	26.8201
1216	26.8136
1212	26.7646
1208	26.6981
1204	26.6801
1200	26.6882
1196	26.6518
1192	26.5363
1188	26.4371
1184	26.4338
1180	26.4398
1176	26.4428
1172	26.4618
1168	26.456
1164	26.436
1160	26.3695
1156	26.2732
1152	26.2336
1148	26.2123
1144	26.2254
1140	26.3145
1136	26.3019
1132	26.1571
1128	26.1133
1124	26.1976
1120	26.2486
1116	26.1827
1112	26.0279
1108	25.9149
1104	25.9298
1100	25.9435
1096	25.865
1092	25.814
1088	25.88
1084	25.9945
1080	26.0752
1076	26.0775
1072	25.9695
1068	25.861
1064	25.8559
1060	25.9286
1056	25.9247
1052	25.6731
1048	25.3883
1044	25.2856
1040	25.3152
1036	25.4574
1032	25.5831
1028	25.7114
1024	25.8307
1020	25.7973
1016	25.6752
1012	25.4783
1008	25.2645
1004	25.1735
1000	25.1688
996	 25.2025
992	 25.2457
988	 25.2334
984	 25.107
980	 24.976
976	 25.0404
972	 25.1732
968	 25.1652
964	 25.0386
960	 24.8865
956	 24.807
952	 24.7423
948	 24.6102
944	 24.5247
940	 24.6002
936	 24.7939
932	 24.8967
928	 24.7947
924	 24.6488
920	 24.5252
916	 24.3379
912	 24.1875
908	 24.1012
904	 23.9438
900	 23.7693
896	 23.7343
892	 23.8841
888	 24.0811
884	 24.1187
880	 24.022
876	 23.9572
872	 23.9718
868	 23.958
864	 23.7707
860	 23.5106
856	 23.3797
852	 23.4036
848	 23.4758
844	 23.5641
840	 23.7153
836	 23.766
832	 23.6151
828	 23.4383
824	 23.3163
820	 23.1173
816	 22.821
812	 22.6881
808	 22.7194
804	 22.7397
800	 22.8084
796	 22.9012
792	 22.953
788	 22.904
784	 22.6627
780	 22.4453
776	 22.4633
772	 22.4547
768	 22.2507
764	 22.0906
760	 22.1396
756	 22.2519
752	 22.2194
748	 22.0546
744	 21.9239
740	 21.9196
736	 21.9302
732	 21.8373
728	 21.681
724	 21.6251
720	 21.6498
716	 21.4766
712	 21.1675
708	 21.0982
704	 21.1542
700	 21.0706
696	 20.9641
692	 20.9101
688	 20.8037
684	 20.6285
680	 20.5232
676	 20.4916
672	 20.3965
668	 20.2319
664	 20.0328
660	 19.9092
656	 20.0199
652	 20.1435
648	 20.0878
644	 19.9949
640	 19.9074
636	 19.8489
632	 19.7384
628	 19.4862
624	 19.3018
620	 19.2363
616	 19.1292
612	 19.1876
608	 19.6023
604	 19.8116
600	 19.4438
596	 19.0379
592	 18.8613
588	 18.6079
584	 18.4047
580	 18.5108
576	 18.7527
572	 18.89
568	 18.8951
564	 18.6267
560	 18.1949
556	 18.0578
552	 18.0492
548	 17.9002
544	 17.7054
540	 17.4747
536	 17.1687
532	 16.911
528	 16.5656
524	 16.2784
520	 16.62
516	 16.9362
512	 16.7338
508	 16.7042
504	 16.8471
500	 16.7013
496	 16.2565
492	 15.7716
488	 15.5989
484	 15.7743
480	 15.9558
476	 15.945
472	 15.6365
468	 15.1556
464	 14.8425
460	 14.7605
456	 15.1005
452	 15.7369
448	 15.973
444	 15.5452
440	 14.3678
436	 14.0504
432	 15.7969
428	 16.0788
424	 13.2936
420	 10.8917
416	 11.2124
412	 12.2714
408	 6.269001
404	 -4.092955
400	 -0.254535
396	 9.134817
392	 4.530477
388	 3.873062
384	 8.534431
380	 -11.3507
376	 -46.8906
372	 -53.0138
370	 -44.9725