File: Bakgrunnsmateriale/MATLAB/FTIR/ftir_data/LPE453/Mapping_121/LPE453_t12.asc
PE IR       SPECTRUM    SPECTRUM    ASCII       PEDS        1.60
  -1
LPC791~1.ASC
17/05/16
15:19:23.00
17/05/16
15:19:49.00
tln
$LPE453_t0012$<tbV0>[13.0,-10.4,8.0,0.0,27,1,0]
27.028
64

2002,4.07
MIRTGS : RIGHTBACK : INTERNAL 2
MIR : ON : INTERNAL 2
OPTKBR

0.200000
8
8.000000
FILLER
RATIO
SPECTRUM
UNLOCKED 256

DOUBLE
64
COMBINED
1
0
0

0.002000
RATIO

1
0
TRUE
51149
0
LEFT NOT FITTED RIGHT NOT FITTED 0
NONE
NONE
15600
12
4.427000
51148
TRUE
1 0 8 72 0 0 0 0

15798

#HDR
-1
-1
#GR
µM
%T
2.38419e-05
0.0
2.000000
0.002000
12515
8
28.0429
-2.947927
#DATA
2.000000	 0.217247
2.018000	 -0.528312
2.036000	 0.297142
2.054000	 -0.330080
2.072000	 -0.041320
2.090000	 0.066967
2.108000	 -0.030090
2.126000	 0.173511
2.144000	 0.877611
2.162000	 0.520217
2.180000	 1.005459
2.198000	 0.634530
2.216000	 7.021909
2.234000	 -0.142024
2.252000	 0.962938
2.270000	 0.793294
2.288000	 0.568447
2.306000	 -0.103637
2.324000	 -0.021992
2.342000	 -0.120049
2.360000	 0.143296
2.378000	 -0.136817
2.396000	 0.560888
2.414000	 0.135305
2.432000	 0.071702
2.450000	 -0.037777
2.468000	 -0.038423
2.486000	 0.112896
2.504000	 0.023612
2.522000	 0.033310
2.540000	 0.234211
2.558000	 0.042609
2.576000	 0.128196
2.594000	 0.060372
2.612000	 0.038725
2.630000	 0.010777
2.648000	 -0.009525
2.666000	 -0.112032
2.684000	 -0.004905
2.702000	 0.200283
2.720000	 0.123975
2.738000	 0.091301
2.756000	 -0.024272
2.774000	 0.138258
2.792000	 -0.203828
2.810000	 0.027107
2.828000	 0.068823
2.846000	 0.073493
2.864000	 0.081584
2.882000	 -0.104898
2.900000	 0.009984
2.918000	 -0.006371
2.936000	 0.225852
2.954000	 0.037502
2.972000	 0.156567
2.990000	 0.124191
3.008000	 -0.083043
3.026000	 0.109325
3.044000	 -0.093434
3.062000	 0.109342
3.080000	 0.052963
3.098000	 0.081573
3.116000	 -0.108234
3.134000	 0.024003
3.152000	 0.157107
3.170000	 0.114062
3.188000	 0.073534
3.206000	 -0.037151
3.224000	 0.007795
3.242000	 -0.038680
3.260000	 0.008424
3.278000	 0.027773
3.296000	 0.083266
3.314000	 0.022044
3.332000	 0.044264
3.350000	 0.102941
3.368000	 0.017875
3.386000	 0.009008
3.404000	 0.019560
3.422000	 0.040729
3.440000	 0.127854
3.458000	 -0.053765
3.476000	 -0.004643
3.494000	 -0.010583
3.512000	 -0.001758
3.530000	 0.045265
3.548000	 0.041975
3.566000	 0.062425
3.584000	 -0.007723
3.602000	 0.088015
3.620000	 0.031886
3.638000	 0.023978
3.656000	 -0.087329
3.674000	 -0.048563
3.692000	 0.095957
3.710000	 0.095199
3.728000	 -0.001775
3.746000	 0.037078
3.764000	 -0.046086
3.782000	 0.057963
3.800000	 0.055595
3.818000	 0.019465
3.836000	 0.015462
3.854000	 -0.062359
3.872000	 0.051756
3.890000	 0.077431
3.908000	 0.038006
3.926000	 -0.015687
3.944000	 -0.028986
3.962000	 0.144232
3.980000	 0.217902
3.998000	 0.116152
4.016000	 -0.265219
4.034000	 0.037436
4.052000	 0.127106
4.070000	 0.058372
4.088000	 0.024077
4.106000	 0.070229
4.124000	 0.040978
4.141999	 0.166931
4.160000	 -0.028117
4.178000	 -0.098430
4.196000	 0.106562
4.214000	 0.161099
4.232000	 0.051621
4.250000	 -0.036323
4.268000	 -0.081326
4.286000	 0.068238
4.304000	 0.070571
4.322000	 0.032684
4.340000	 0.040553
4.358000	 0.131165
4.375999	 0.217024
4.394000	 0.263298
4.412000	 0.434944
4.430000	 0.462123
4.448000	 0.750641
4.466000	 0.857066
4.484000	 1.213586
4.502000	 1.284183
4.520000	 1.669480
4.538000	 2.002345
4.556000	 2.356002
4.574000	 2.827039
4.592000	 3.291578
4.609999	 3.928909
4.628000	 4.479727
4.646000	 5.065883
4.664000	 5.638901
4.682000	 6.253044
4.700000	 7.120242
4.718000	 7.893120
4.736000	 8.590546
4.754000	 9.295746
4.772000	 10.0629
4.790000	 10.7617
4.808000	 11.6397
4.826000	 12.4993
4.843999	 13.1674
4.862000	 13.6816
4.880000	 14.471
4.898000	 15.1518
4.916000	 15.7855
4.934000	 16.3823
4.952000	 17.0497
4.970000	 17.6155
4.988000	 18.1159
5.006000	 18.6781
5.024000	 19.132
5.042000	 19.5809
5.060000	 20.0412
5.077999	 20.465
5.096000	 20.7906
5.114000	 21.2324
5.132000	 21.5656
5.150000	 21.9358
5.168000	 22.297
5.186000	 22.4534
5.204000	 22.788
5.222000	 23.0988
5.240000	 23.2993
5.258000	 23.5956
5.276000	 23.7461
5.294000	 23.9209
5.312000	 24.0932
5.330000	 24.4063
5.348000	 24.7095
5.366000	 24.7864
5.384000	 24.9165
5.402000	 25.1421
5.420000	 25.1641
5.438000	 25.1645
5.456000	 25.3381
5.474000	 25.5251
5.492000	 25.6609
5.510000	 25.7049
5.528000	 25.8754
5.546000	 26.0779
5.564000	 26.233
5.582000	 26.2698
5.600000	 26.2579
5.618000	 26.3022
5.636000	 26.4503
5.654000	 26.5212
5.672000	 26.5483
5.690000	 26.5881
5.708000	 26.6562
5.726000	 26.676
5.744000	 26.7271
5.762000	 26.7946
5.780000	 26.8348
5.798000	 26.9035
5.816000	 26.9114
5.834000	 26.9311
5.852000	 26.991
5.870000	 27.1813
5.888000	 27.371
5.906000	 27.2649
5.923999	 27.2167
5.942000	 27.2708
5.960000	 27.2439
5.978000	 27.3293
5.996000	 27.4178
6.014000	 27.3573
6.032000	 27.4766
6.050000	 27.695
6.068000	 27.59
6.086000	 27.4245
6.104000	 27.4748
6.122000	 27.5649
6.140000	 27.4857
6.158000	 27.4767
6.176000	 27.5719
6.194000	 27.6075
6.212000	 27.591
6.230000	 27.5968
6.248000	 27.5769
6.266000	 27.5797
6.284000	 27.624
6.302000	 27.6632
6.320000	 27.6629
6.338000	 27.6674
6.356000	 27.725
6.374000	 27.7561
6.392000	 27.794
6.410000	 27.8895
6.428000	 27.8896
6.446000	 27.8195
6.464000	 27.7986
6.482000	 27.8908
6.500000	 27.9237
6.518000	 27.8228
6.536000	 27.7491
6.554000	 27.7951
6.572000	 27.8794
6.590000	 27.9232
6.608000	 27.9787
6.626000	 28.0416
6.644000	 27.9816
6.662000	 27.8428
6.680000	 27.8208
6.698000	 27.9178
6.716000	 27.9852
6.734000	 27.9252
6.752000	 27.8289
6.770000	 27.8381
6.788000	 27.8921
6.806000	 27.8964
6.824000	 27.8695
6.842000	 27.8695
6.860000	 27.9377
6.878000	 27.9415
6.896000	 27.8039
6.914000	 27.7724
6.932000	 27.9299
6.950000	 28.0233
6.968000	 27.9349
6.986000	 27.835
7.004000	 27.8349
7.022000	 27.8769
7.040000	 27.912
7.058000	 27.9335
7.076000	 27.9548
7.094000	 27.9927
7.112000	 27.9859
7.130000	 27.9147
7.148000	 27.8797
7.166000	 27.8818
7.184000	 27.8406
7.202000	 27.7939
7.220000	 27.8001
7.238000	 27.8506
7.256000	 27.9136
7.274000	 27.9354
7.292000	 27.9139
7.310000	 27.9143
7.328000	 27.9378
7.346000	 27.9297
7.364000	 27.8756
7.382000	 27.8074
7.400000	 27.7788
7.418000	 27.7945
7.436000	 27.7891
7.454000	 27.7284
7.472000	 27.6504
7.490000	 27.611
7.508000	 27.6388
7.526000	 27.7167
7.544000	 27.8054
7.562000	 27.8581
7.580000	 27.8381
7.598000	 27.7907
7.616000	 27.8124
7.634000	 27.8909
7.652000	 27.9252
7.670000	 27.8865
7.688000	 27.8256
7.706000	 27.7793
7.724000	 27.7539
7.742000	 27.7372
7.760000	 27.7135
7.778000	 27.6881
7.796000	 27.6678
7.814000	 27.6476
7.832000	 27.6474
7.850000	 27.694
7.868000	 27.7627
7.886000	 27.8129
7.904000	 27.848
7.922000	 27.8672
7.940000	 27.8308
7.958000	 27.7372
7.976000	 27.6545
7.994000	 27.6296
8.012000	 27.6357
8.030000	 27.6369
8.048000	 27.6409
8.065999	 27.6683
8.084000	 27.7123
8.102000	 27.7442
8.120000	 27.7395
8.138000	 27.6982
8.155999	 27.6455
8.173999	 27.6096
8.192000	 27.6026
8.210000	 27.6257
8.228000	 27.6724
8.246000	 27.7177
8.263999	 27.7315
8.282000	 27.7109
8.300000	 27.678
8.318000	 27.6433
8.336000	 27.603
8.353999	 27.5701
8.372000	 27.5706
8.390000	 27.5982
8.408000	 27.6069
8.426000	 27.5651
8.443999	 27.4928
8.462000	 27.4383
8.480000	 27.4304
8.498000	 27.4656
8.516000	 27.5214
8.533999	 27.5736
8.552000	 27.6086
8.570000	 27.6246
8.588000	 27.6214
8.606000	 27.5974
8.624000	 27.5596
8.641999	 27.5282
8.660000	 27.5198
8.678000	 27.5271
8.696000	 27.5256
8.714000	 27.5001
8.731999	 27.4564
8.750000	 27.4099
8.768000	 27.3682
8.786000	 27.3301
8.804000	 27.2946
8.821999	 27.2657
8.840000	 27.249
8.858000	 27.2476
8.876000	 27.262
8.894000	 27.2871
8.911999	 27.3078
8.930000	 27.3057
8.948000	 27.2764
8.966000	 27.2462
8.984000	 27.2611
9.001999	 27.3456
9.020000	 27.4666
9.038000	 27.5534
9.056000	 27.5622
9.074000	 27.5159
9.092000	 27.4705
9.109999	 27.4521
9.128000	 27.4385
9.146000	 27.3992
9.164000	 27.3356
9.182000	 27.2679
9.199999	 27.2026
9.218000	 27.129
9.236000	 27.0447
9.254000	 26.9682
9.272000	 26.9245
9.289999	 26.9198
9.308000	 26.9381
9.326000	 26.9557
9.344000	 26.9598
9.362000	 26.9534
9.379999	 26.9527
9.398000	 26.9776
9.416000	 27.0396
9.434000	 27.1357
9.452000	 27.2505
9.469999	 27.3602
9.488000	 27.4369
9.506000	 27.4567
9.524000	 27.4101
9.542000	 27.3083
9.560000	 27.1774
9.577999	 27.0469
9.596000	 26.9371
9.614000	 26.8565
9.632000	 26.8033
9.650000	 26.7697
9.667999	 26.7438
9.686000	 26.715
9.704000	 26.6789
9.722000	 26.6395
9.740000	 26.6063
9.757999	 26.5897
9.776000	 26.5942
9.794000	 26.6092
9.812000	 26.612
9.830000	 26.5853
9.847999	 26.5368
9.866000	 26.5
9.884000	 26.5121
9.902000	 26.5856
9.920000	 26.6966
9.937999	 26.8017
9.956000	 26.8689
9.974000	 26.8941
9.992000	 26.8946
10.01	26.8916
10.028	26.8975
10.046	26.9123
10.064	26.9261
10.082	26.9237
10.1	26.89
10.118	26.8198
10.136	26.7241
10.154	26.6272
10.172	26.5529
10.19	26.5096
10.208	26.4877
10.226	26.4735
10.244	26.4607
10.262	26.4541
10.28	26.4574
10.298	26.4654
10.316	26.4651
10.334	26.4471
10.352	26.4163
10.37	26.391
10.388	26.3901
10.406	26.4192
10.424	26.4681
10.442	26.5172
10.46	26.5485
10.478	26.551
10.496	26.5243
10.514	26.4758
10.532	26.4192
10.55	26.3677
10.568	26.3308
10.586	26.3097
10.604	26.2977
10.622	26.2837
10.64	26.258
10.658	26.2162
10.676	26.1604
10.694	26.0959
10.712	26.0299
10.73	25.9692
10.748	25.9198
10.766	25.884
10.784	25.8592
10.802	25.8402
10.82	25.8249
10.838	25.817
10.856	25.8253
10.874	25.8585
10.892	25.916
10.91	25.9851
10.928	26.0444
10.946	26.0716
10.964	26.0567
10.982	26.0055
11	25.9386
11.018	25.8826
11.036	25.8579
11.054	25.8735
11.072	25.9237
11.09	25.9914
11.108	26.0561
11.126	26.0989
11.144	26.1094
11.162	26.0862
11.18	26.0352
11.198	25.9667
11.216	25.8911
11.234	25.8157
11.252	25.7443
11.27	25.6776
11.288	25.615
11.306	25.5556
11.324	25.498
11.342	25.4415
11.36	25.3853
11.378	25.3299
11.396	25.2784
11.414	25.2359
11.432	25.2083
11.45	25.1991
11.468	25.2088
11.486	25.2343
11.504	25.2692
11.522	25.3076
11.54	25.3459
11.558	25.3824
11.576	25.4154
11.594	25.4422
11.612	25.4587
11.63	25.4612
11.648	25.4491
11.666	25.4276
11.684	25.4075
11.702	25.4007
11.72	25.4169
11.738	25.458
11.756	25.5171
11.774	25.5802
11.792	25.6307
11.81	25.6555
11.828	25.6477
11.846	25.607
11.864	25.5386
11.882	25.4506
11.9	25.3524
11.918	25.254
11.936	25.1638
11.954	25.0886
11.972	25.0314
11.99	24.991
12.008	24.9617
12.026	24.9359
12.044	24.9059
12.062	24.869
12.08	24.8292
12.098	24.7947
12.116	24.7746
12.134	24.7732
12.152	24.7875
12.17	24.808
12.188	24.8221
12.206	24.8192
12.224	24.794
12.242	24.7485
12.26	24.6894
12.278	24.6276
12.296	24.5746
12.314	24.5401
12.332	24.5294
12.35	24.5423
12.368	24.5739
12.386	24.6158
12.404	24.6587
12.422	24.6952
12.44	24.7208
12.458	24.7348
12.476	24.7391
12.494	24.7371
12.512	24.7319
12.53	24.7253
12.548	24.7179
12.566	24.709
12.584	24.6981
12.602	24.6858
12.62	24.6735
12.638	24.6626
12.656	24.6529
12.674	24.6427
12.692	24.6285
12.71	24.6066
12.728	24.5744
12.746	24.5321
12.764	24.4823
12.782	24.4293
12.8	24.378
12.818	24.3321
12.836	24.2931
12.854	24.2601
12.872	24.2305
12.89	24.2005
12.908	24.1664
12.926	24.1253
12.944	24.0758
12.962	24.0179
12.98	23.9529
12.998	23.883
13.016	23.811
13.034	23.7407
13.052	23.676
13.07	23.6216
13.088	23.5811
13.106	23.5578
13.124	23.5528
13.142	23.5657
13.16	23.5943
13.178	23.6354
13.196	23.6851
13.214	23.7392
13.232	23.7939
13.25	23.8457
13.268	23.8922
13.286	23.932
13.304	23.9649
13.322	23.9911
13.34	24.0117
13.358	24.0272
13.376	24.0374
13.394	24.0417
13.412	24.0388
13.43	24.0274
13.448	24.0069
13.466	23.9778
13.484	23.9423
13.502	23.9037
13.52	23.8663
13.538	23.8341
13.556	23.81
13.574	23.7951
13.592	23.7883
13.61	23.7871
13.628	23.7881
13.646	23.7884
13.664	23.7865
13.682	23.7827
13.7	23.7785
13.718	23.7767
13.736	23.7794
13.754	23.7871
13.772	23.798
13.79	23.8087
13.808	23.8142
13.826	23.8095
13.844	23.7906
13.862	23.7554
13.88	23.7048
13.898	23.6427
13.916	23.5748
13.934	23.5079
13.952	23.4482
13.97	23.4003
13.988	23.3662
14.006	23.3456
14.024	23.3356
14.042	23.3319
14.06	23.3302
14.078	23.327
14.096	23.3207
14.114	23.3114
14.132	23.3005
14.15	23.2907
14.168	23.2845
14.186	23.2835
14.204	23.2877
14.222	23.295
14.24	23.3016
14.258	23.3033
14.276	23.2956
14.294	23.2757
14.312	23.2431
14.33	23.2005
14.348	23.1531
14.366	23.1082
14.384	23.0743
14.402	23.0582
14.42	23.064
14.438	23.0925
14.456	23.1411
14.474	23.2039
14.492	23.273
14.51	23.339
14.528	23.3938
14.546	23.4314
14.564	23.4483
14.582	23.4438
14.6	23.42
14.618	23.3808
14.636	23.3316
14.654	23.2769
14.672	23.2205
14.69	23.1649
14.708	23.111
14.726	23.0588
14.744	23.0065
14.762	22.953
14.78	22.897
14.798	22.8378
14.816	22.7756
14.834	22.7115
14.852	22.6467
14.87	22.5838
14.888	22.5251
14.906	22.4727
14.924	22.4286
14.942	22.3941
14.96	22.369
14.978	22.352
14.996	22.3413
15.014	22.3339
15.032	22.3261
15.05	22.3148
15.068	22.2982
15.086	22.2755
15.104	22.2471
15.122	22.2154
15.14	22.1838
15.158	22.156
15.176	22.1355
15.194	22.1256
15.212	22.1276
15.23	22.1418
15.248	22.1668
15.266	22.2007
15.284	22.2397
15.302	22.28
15.32	22.3186
15.338	22.3529
15.356	22.3808
15.374	22.402
15.392	22.417
15.41	22.4267
15.428	22.4325
15.446	22.4361
15.464	22.4383
15.482	22.4397
15.5	22.4404
15.518	22.4401
15.536	22.4376
15.554	22.4325
15.572	22.4242
15.59	22.412
15.608	22.3958
15.626	22.3756
15.644	22.3515
15.662	22.3238
15.68	22.293
15.698	22.2595
15.716	22.2239
15.734	22.1867
15.752	22.1482
15.77	22.1085
15.788	22.0681
15.806	22.0269
15.824	21.9851
15.842	21.9425
15.86	21.899
15.878	21.8546
15.896	21.8092
15.914	21.7628
15.932	21.7154
15.95	21.6671
15.968	21.6181
15.986	21.5683
16.004	21.5179
16.022	21.4668
16.04	21.415
16.058	21.3626
16.076	21.3098
16.094	21.2567
16.112	21.2043
16.13	21.1534
16.148	21.1048
16.166	21.0608
16.184	21.0228
16.202	20.9925
16.22	20.9722
16.238	20.9628
16.256	20.9654
16.274	20.9797
16.292	21.0042
16.31	21.0372
16.328	21.0745
16.346	21.1121
16.364	21.1464
16.382	21.1715
16.4	21.1844
16.418	21.1823
16.436	21.1631
16.454	21.1273
16.472	21.0758
16.49	21.0118
16.508	20.9396
16.526	20.8623
16.544	20.7861
16.562	20.715
16.58	20.6521
16.598	20.6016
16.616	20.5644
16.634	20.5417
16.652	20.5328
16.67	20.5363
16.688	20.5506
16.706	20.5725
16.724	20.6002
16.742	20.6315
16.76	20.6639
16.778	20.6965
16.796	20.7282
16.814	20.7588
16.832	20.7882
16.85	20.8169
16.868	20.8454
16.886	20.8738
16.904	20.9027
16.922	20.932
16.94	20.9615
16.958	20.9904
16.976	21.0181
16.994	21.0437
17.012	21.0656
17.03	21.0832
17.048	21.0944
17.066	21.0987
17.084	21.0948
17.102	21.0824
17.12	21.0613
17.138	21.032
17.156	20.9956
17.174	20.9528
17.192	20.9062
17.21	20.8568
17.228	20.8076
17.246	20.7599
17.264	20.7152
17.282	20.6749
17.3	20.6391
17.318	20.6082
17.336	20.581
17.354	20.5572
17.372	20.5344
17.39	20.512
17.408	20.4877
17.426	20.4604
17.444	20.4292
17.462	20.3934
17.48	20.353
17.498	20.3083
17.516	20.2602
17.534	20.2094
17.552	20.1579
17.57	20.1061
17.588	20.0561
17.606	20.0085
17.624	19.9643
17.642	19.9241
17.66	19.8882
17.678	19.8562
17.696	19.828
17.714	19.8031
17.732	19.7811
17.75	19.7617
17.768	19.7448
17.786	19.7303
17.804	19.7183
17.822	19.7091
17.84	19.7032
17.858	19.7007
17.876	19.7023
17.894	19.708
17.912	19.7181
17.93	19.732
17.948	19.7495
17.966	19.7699
17.984	19.7928
18.002	19.8172
18.02	19.8426
18.038	19.8684
18.056	19.8942
18.074	19.9196
18.092	19.9448
18.11	19.9696
18.128	19.9944
18.146	20.0192
18.164	20.0446
18.182	20.0705
18.2	20.0971
18.218	20.124
18.236	20.1513
18.254	20.1777
18.272	20.2029
18.29	20.2251
18.308	20.2441
18.326	20.2576
18.344	20.2655
18.362	20.2659
18.38	20.2586
18.398	20.2426
18.416	20.2183
18.434	20.1856
18.452	20.1456
18.47	20.0987
18.488	20.0467
18.506	19.9903
18.524	19.9315
18.542	19.8709
18.56	19.8109
18.578	19.7519
18.596	19.6958
18.614	19.6426
18.632	19.5936
18.65	19.5487
18.668	19.5079
18.686	19.4713
18.704	19.4383
18.722	19.4088
18.74	19.3818
18.758	19.3571
18.776	19.3334
18.794	19.3107
18.812	19.288
18.83	19.2652
18.848	19.2416
18.866	19.2173
18.884	19.1923
18.902	19.167
18.92	19.1418
18.938	19.1172
18.956	19.0941
18.974	19.073
18.992	19.055
19.01	19.0402
19.028	19.0297
19.046	19.0233
19.064	19.0216
19.082	19.0241
19.1	19.0303
19.118	19.0395
19.136	19.0506
19.154	19.0626
19.172	19.0738
19.19	19.0836
19.208	19.0901
19.226	19.0931
19.244	19.0909
19.262	19.0838
19.28	19.0711
19.298	19.0532
19.316	19.0311
19.334	19.0049
19.352	18.9775
19.37	18.9485
19.388	18.922
19.406	18.8976
19.424	18.879
19.442	18.8663
19.46	18.8619
19.478	18.8665
19.496	18.8803
19.514	18.9041
19.532	18.9365
19.55	18.9777
19.568	19.0255
19.586	19.0782
19.604	19.1344
19.622	19.1904
19.64	19.246
19.658	19.2963
19.676	19.3418
19.694	19.3785
19.712	19.4067
19.73	19.4244
19.748	19.4313
19.766	19.4278
19.784	19.4134
19.802	19.39
19.82	19.3581
19.838	19.3194
19.856	19.2764
19.874	19.2295
19.892	19.1822
19.91	19.1342
19.928	19.0889
19.946	19.046
19.964	19.007
19.982	18.9723
20	18.9416
20.018	18.9153
20.036	18.8922
20.054	18.8712
20.072	18.8522
20.09	18.8326
20.108	18.8126
20.126	18.7899
20.144	18.7643
20.162	18.7349
20.18	18.7009
20.198	18.6629
20.216	18.6206
20.234	18.5746
20.252	18.5267
20.27	18.4765
20.288	18.4271
20.306	18.3783
20.324	18.3326
20.342	18.2916
20.36	18.2556
20.378	18.2274
20.396	18.2064
20.414	18.1943
20.432	18.1912
20.45	18.1962
20.468	18.2098
20.486	18.2307
20.504	18.257
20.522	18.2891
20.54	18.323
20.558	18.3595
20.576	18.3952
20.594	18.429
20.612	18.46
20.63	18.4853
20.648	18.5056
20.666	18.5189
20.684	18.5251
20.702	18.5243
20.72	18.5162
20.738	18.5015
20.756	18.4815
20.774	18.4557
20.792	18.4269
20.81	18.3952
20.828	18.3619
20.846	18.329
20.864	18.296
20.882	18.265
20.9	18.236
20.918	18.2092
20.936	18.1852
20.954	18.1638
20.972	18.1443
20.99	18.127
21.008	18.1107
21.026	18.0952
21.044	18.08
21.062	18.0638
21.08	18.047
21.098	18.0289
21.116	18.0092
21.134	17.9882
21.152	17.9664
21.17	17.9434
21.188	17.9209
21.206	17.8987
21.224	17.8779
21.242	17.8602
21.26	17.8451
21.278	17.8343
21.296	17.8283
21.314	17.827
21.332	17.8313
21.35	17.8412
21.368	17.8557
21.386	17.8754
21.404	17.8993
21.422	17.9252
21.44	17.954
21.458	17.9827
21.476	18.0104
21.494	18.0366
21.512	18.0575
21.53	18.0741
21.548	18.0837
21.566	18.0843
21.584	18.0766
21.602	18.0583
21.62	18.0291
21.638	17.9894
21.656	17.9385
21.674	17.8766
21.692	17.8055
21.71	17.7252
21.728	17.6367
21.746	17.5435
21.764	17.444
21.782	17.342
21.8	17.2404
21.818	17.1378
21.836	17.0394
21.854	16.9449
21.872	16.8557
21.89	16.7757
21.908	16.7035
21.926	16.6412
21.944	16.5904
21.962	16.5503
21.98	16.522
21.998	16.5061
22.016	16.5017
22.034	16.5084
22.052	16.5265
22.07	16.5547
22.088	16.5921
22.106	16.6391
22.124	16.6935
22.142	16.7549
22.16	16.8232
22.178	16.8961
22.196	16.974
22.214	17.0561
22.232	17.1408
22.25	17.2289
22.268	17.3186
22.286	17.4093
22.304	17.5012
22.322	17.5921
22.34	17.6822
22.358	17.7709
22.376	17.8557
22.394	17.9374
22.412	18.0145
22.43	18.0847
22.448	18.1492
22.466	18.2056
22.484	18.2517
22.502	18.2887
22.52	18.3141
22.538	18.3267
22.556	18.3272
22.574	18.3136
22.592	18.2855
22.61	18.2435
22.628	18.1876
22.646	18.1168
22.664	18.033
22.682	17.9388
22.7	17.8322
22.718	17.7171
22.736	17.5976
22.754	17.4711
22.772	17.3429
22.79	17.2179
22.808	17.0929
22.826	16.9741
22.844	16.8652
22.862	16.7636
22.88	16.6752
22.898	16.6028
22.916	16.5444
22.934	16.5033
22.952	16.4812
22.97	16.4766
22.988	16.4891
23.006	16.5196
23.024	16.5669
23.042	16.6267
23.06	16.6999
23.078	16.7852
23.096	16.8765
23.114	16.9749
23.132	17.079
23.15	17.1817
23.168	17.2842
23.186	17.3851
23.204	17.4769
23.222	17.5605
23.24	17.6354
23.258	17.6967
23.276	17.7441
23.294	17.7785
23.312	17.7984
23.33	17.8027
23.348	17.7931
23.366	17.7717
23.384	17.7374
23.402	17.6916
23.42	17.6384
23.438	17.5767
23.456	17.5076
23.474	17.4374
23.492	17.3659
23.51	17.2931
23.528	17.2252
23.546	17.1633
23.564	17.1061
23.582	17.059
23.6	17.024
23.618	16.9993
23.636	16.988
23.654	16.9921
23.672	17.01
23.69	17.0428
23.708	17.0913
23.726	17.1554
23.744	17.2336
23.762	17.3253
23.78	17.4316
23.798	17.5498
23.816	17.677
23.834	17.8155
23.852	17.9623
23.87	18.1128
23.888	18.2698
23.906	18.4304
23.924	18.588
23.942	18.7438
23.96	18.8973
23.978	19.041
23.996	19.1727
24.014	19.2952
24.032	19.4018
24.05	19.4882
24.068	19.5581
24.086	19.6071
24.104	19.6307
24.122	19.6315
24.14	19.6078
24.158	19.5566
24.176	19.4783
24.194	19.3735
24.212	19.2415
24.23	19.0811
24.248	18.8933
24.266	18.6819
24.284	18.4485
24.302	18.1908
24.32	17.9139
24.338	17.6223
24.356	17.312
24.374	16.9874
24.392	16.6555
24.41	16.315
24.428	15.9659
24.446	15.6132
24.464	15.2594
24.482	14.902
24.5	14.5435
24.518	14.1862
24.536	13.8297
24.554	13.473
24.572	13.1153
24.59	12.7575
24.608	12.3988
24.626	12.0375
24.644	11.673
24.662	11.3065
24.68	10.9351
24.698	10.5561
24.716	10.1712
24.734	9.779314
24.752	9.378225
24.77	8.967400
24.788	8.547736
24.806	8.118835
24.824	7.680103
24.842	7.231170
24.86	6.773798
24.878	6.309866
24.896	5.837214
24.914	5.357532
24.932	4.875767
24.95	4.393926
24.968	3.908635
24.986	3.425282
25.004	2.949438
25.022	2.476844
25.04	2.010345
25.058	1.557709
25.076	1.121755
25.094	0.697726
25.112	0.292424
25.13	-0.087299
25.148	-0.445523
25.166	-0.780460
25.184	-1.085791
25.202	-1.358505
25.22	-1.602388
25.238	-1.814486
25.256	-1.991544
25.274	-2.134203
25.292	-2.243308
25.31	-2.318385
25.328	-2.358596
25.346	-2.363666
25.364	-2.336260
25.382	-2.279183
25.4	-2.190910
25.418	-2.072027
25.436	-1.926820
25.454	-1.758320
25.472	-1.563120
25.49	-1.344551
25.508	-1.107325
25.526	-0.852747
25.544	-0.578681
25.562	-0.287194
25.58	0.019677
25.598	0.341994
25.616	0.680442
25.634	1.035310
25.652	1.406000
25.67	1.790954
25.688	2.193803
25.706	2.618603
25.724	3.064781
25.742	3.530851
25.76	4.020983
25.778	4.539099
25.796	5.083978
25.814	5.654758
25.832	6.251943
25.85	6.876967
25.868	7.531802
25.886	8.210731
25.904	8.907326
25.922	9.623397
25.94	10.3627
25.958	11.1117
25.976	11.8572
25.994	12.6091
26.012	13.3649
26.03	14.1045
26.048	14.8112
26.066	15.503
26.084	16.1689
26.102	16.7869
26.12	17.3442
26.138	17.8594
26.156	18.3176
26.174	18.6992
26.192	18.9968
26.21	19.2235
26.228	19.3702
26.246	19.4269
26.264	19.3915
26.282	19.2692
26.3	19.0606
26.318	18.766
26.336	18.3807
26.354	17.9088
26.372	17.3597
26.39	16.7418
26.408	16.0429
26.426	15.2714
26.444	14.4461
26.462	13.5811
26.48	12.6558
26.498	11.6854
26.516	10.6959
26.534	9.705325
26.552	8.688454
26.57	7.663139
26.588	6.655945
26.606	5.682870
26.624	4.720708
26.642	3.785210
26.66	2.897723
26.678	2.069979
26.696	1.284754
26.714	0.552341
26.732	-0.113981
26.75	-0.707057
26.768	-1.236799
26.786	-1.699211
26.804	-2.089004
26.822	-2.401703
26.84	-2.639340
26.858	-2.807024
26.876	-2.909831
26.894	-2.947927
26.912	-2.914801
26.93	-2.821623
26.948	-2.680649
26.966	-2.479369
26.984	-2.180392
27.002	-1.860411
27.02	-1.603623
27.028	-1.538610