File: Bakgrunnsmateriale/MATLAB/FTIR/ftir_data/LPE453/Mapping_121/LPE453_t71.asc
PE IR       SPECTRUM    SPECTRUM    ASCII       PEDS        1.60
  -1
LPCFAD~1.ASC
17/05/16
20:13:31.00
17/05/16
20:13:57.00
tln
$LPE453_t0071$<tbV0>[2.6,2.6,8.0,0.0,27,1,0]
27.028
64

2002,4.07
MIRTGS : RIGHTBACK : INTERNAL 2
MIR : ON : INTERNAL 2
OPTKBR

0.200000
8
8.000000
FILLER
RATIO
SPECTRUM
UNLOCKED 256

DOUBLE
64
COMBINED
1
0
0

0.002000
RATIO

1
0
TRUE
51149
0
LEFT NOT FITTED RIGHT NOT FITTED 0
NONE
NONE
15600
12
4.427000
51148
TRUE
1 0 8 72 0 0 0 0

15798

#HDR
-1
-1
#GR
µM
%T
2.38419e-05
0.0
2.000000
0.002000
12515
8
29.7874
-31.8484
#DATA
2.000000	 0.293374
2.018000	 0.055178
2.036000	 0.497477
2.054000	 0.270880
2.072000	 -0.139384
2.090000	 -0.191516
2.108000	 -0.083796
2.126000	 0.986420
2.144000	 1.469165
2.162000	 0.940764
2.180000	 -0.247210
2.198000	 0.118747
2.216000	 -0.137388
2.234000	 1.716353
2.252000	 -1.243754
2.270000	 0.426443
2.288000	 0.620424
2.306000	 0.385768
2.324000	 0.592565
2.342000	 0.097720
2.360000	 0.150929
2.378000	 0.366424
2.396000	 0.014027
2.414000	 -0.046005
2.432000	 0.083479
2.450000	 0.237410
2.468000	 0.165740
2.486000	 -0.066967
2.504000	 0.244272
2.522000	 0.052713
2.540000	 0.035315
2.558000	 0.099913
2.576000	 0.028185
2.594000	 0.158387
2.612000	 0.063567
2.630000	 0.204410
2.648000	 0.022780
2.666000	 0.044111
2.684000	 0.012302
2.702000	 0.120078
2.720000	 0.009793
2.738000	 0.001898
2.756000	 0.073406
2.774000	 0.120578
2.792000	 0.165392
2.810000	 -0.030111
2.828000	 0.142824
2.846000	 -0.090641
2.864000	 0.102401
2.882000	 -0.108825
2.900000	 0.057710
2.918000	 -0.109296
2.936000	 0.039324
2.954000	 -0.037515
2.972000	 -0.002784
2.990000	 0.027346
3.008000	 0.040683
3.026000	 0.091381
3.044000	 -0.003415
3.062000	 0.078667
3.080000	 0.035318
3.098000	 -0.000789
3.116000	 0.156467
3.134000	 -0.034931
3.152000	 -0.035892
3.170000	 0.078200
3.188000	 0.054163
3.206000	 -0.035735
3.224000	 -0.074039
3.242000	 0.155551
3.260000	 0.000832
3.278000	 0.050947
3.296000	 0.033802
3.314000	 0.077832
3.332000	 0.103422
3.350000	 -0.016018
3.368000	 -0.020836
3.386000	 -0.053746
3.404000	 0.124915
3.422000	 0.062228
3.440000	 0.004302
3.458000	 0.071644
3.476000	 0.006912
3.494000	 -0.062461
3.512000	 0.196616
3.530000	 0.093459
3.548000	 0.069613
3.566000	 -0.105336
3.584000	 0.069479
3.602000	 -0.051172
3.620000	 0.010570
3.638000	 0.081014
3.656000	 0.070077
3.674000	 0.022585
3.692000	 -0.012286
3.710000	 0.006368
3.728000	 -0.004526
3.746000	 -0.013587
3.764000	 0.060296
3.782000	 -0.038236
3.800000	 0.121689
3.818000	 0.009133
3.836000	 0.029133
3.854000	 0.024043
3.872000	 -0.042638
3.890000	 -0.015812
3.908000	 0.083151
3.926000	 0.107303
3.944000	 -0.002819
3.962000	 0.050392
3.980000	 -0.097711
3.998000	 0.130629
4.016000	 0.155485
4.034000	 0.081578
4.052000	 0.056352
4.070000	 -0.046078
4.088000	 -0.102192
4.106000	 -0.016260
4.124000	 -0.115021
4.141999	 -0.114068
4.160000	 0.084444
4.178000	 0.007517
4.196000	 -0.092403
4.214000	 0.005582
4.232000	 -0.033565
4.250000	 -0.086318
4.268000	 0.016457
4.286000	 -0.013584
4.304000	 0.053429
4.322000	 0.173548
4.340000	 0.150469
4.358000	 0.186000
4.375999	 0.199288
4.394000	 0.328215
4.412000	 0.647763
4.430000	 0.614048
4.448000	 0.722500
4.466000	 0.889542
4.484000	 1.193731
4.502000	 1.545666
4.520000	 1.833706
4.538000	 2.273969
4.556000	 2.605976
4.574000	 3.144865
4.592000	 3.686526
4.609999	 4.451221
4.628000	 5.147704
4.646000	 5.692611
4.664000	 6.310569
4.682000	 7.264250
4.700000	 8.082089
4.718000	 8.771061
4.736000	 9.785823
4.754000	 10.6677
4.772000	 11.5344
4.790000	 12.3876
4.808000	 13.1386
4.826000	 13.9458
4.843999	 14.9223
4.862000	 15.6895
4.880000	 16.4675
4.898000	 17.2164
4.916000	 17.9333
4.934000	 18.6871
4.952000	 19.4109
4.970000	 20.0462
4.988000	 20.5964
5.006000	 21.1881
5.024000	 21.6843
5.042000	 22.2137
5.060000	 22.8544
5.077999	 23.2955
5.096000	 23.7505
5.114000	 24.0444
5.132000	 24.4119
5.150000	 24.8544
5.168000	 25.243
5.186000	 25.5214
5.204000	 25.8125
5.222000	 26.0942
5.240000	 26.3599
5.258000	 26.6188
5.276000	 26.8215
5.294000	 27.0658
5.312000	 27.1776
5.330000	 27.2956
5.348000	 27.4766
5.366000	 27.6799
5.384000	 27.8616
5.402000	 28.0726
5.420000	 28.2212
5.438000	 28.3594
5.456000	 28.4666
5.474000	 28.5703
5.492000	 28.6138
5.510000	 28.6943
5.528000	 28.8454
5.546000	 28.9578
5.564000	 28.9318
5.582000	 29.0365
5.600000	 29.2001
5.618000	 29.2515
5.636000	 29.2024
5.654000	 29.2974
5.672000	 29.4172
5.690000	 29.351
5.708000	 29.3575
5.726000	 29.4661
5.744000	 29.5074
5.762000	 29.5043
5.780000	 29.4802
5.798000	 29.5536
5.816000	 29.6806
5.834000	 29.7485
5.852000	 29.6951
5.870000	 29.6345
5.888000	 29.571
5.906000	 29.6059
5.923999	 29.6831
5.942000	 29.6992
5.960000	 29.678
5.978000	 29.6812
5.996000	 29.6999
6.014000	 29.7701
6.032000	 29.7612
6.050000	 29.7338
6.068000	 29.7613
6.086000	 29.7306
6.104000	 29.753
6.122000	 29.781
6.140000	 29.7313
6.158000	 29.6772
6.176000	 29.6419
6.194000	 29.6202
6.212000	 29.5746
6.230000	 29.5733
6.248000	 29.6774
6.266000	 29.694
6.284000	 29.7376
6.302000	 29.7874
6.320000	 29.7442
6.338000	 29.7098
6.356000	 29.6477
6.374000	 29.5967
6.392000	 29.6277
6.410000	 29.6236
6.428000	 29.5918
6.446000	 29.5551
6.464000	 29.5482
6.482000	 29.6556
6.500000	 29.7123
6.518000	 29.6423
6.536000	 29.5349
6.554000	 29.4705
6.572000	 29.4423
6.590000	 29.4036
6.608000	 29.4173
6.626000	 29.4871
6.644000	 29.5371
6.662000	 29.5276
6.680000	 29.5294
6.698000	 29.5178
6.716000	 29.4795
6.734000	 29.4216
6.752000	 29.2985
6.770000	 29.2416
6.788000	 29.2942
6.806000	 29.3046
6.824000	 29.2798
6.842000	 29.3351
6.860000	 29.4303
6.878000	 29.4803
6.896000	 29.4407
6.914000	 29.347
6.932000	 29.3233
6.950000	 29.3192
6.968000	 29.2344
6.986000	 29.1353
7.004000	 29.0634
7.022000	 29.0509
7.040000	 29.1483
7.058000	 29.2389
7.076000	 29.213
7.094000	 29.1643
7.112000	 29.1807
7.130000	 29.2316
7.148000	 29.2833
7.166000	 29.303
7.184000	 29.2516
7.202000	 29.1536
7.220000	 29.0656
7.238000	 29.0256
7.256000	 29.037
7.274000	 29.0491
7.292000	 29.0398
7.310000	 29.0527
7.328000	 29.0964
7.346000	 29.1249
7.364000	 29.1074
7.382000	 29.0609
7.400000	 29.0262
7.418000	 28.9957
7.436000	 28.9493
7.454000	 28.93
7.472000	 28.9512
7.490000	 28.9469
7.508000	 28.8943
7.526000	 28.8425
7.544000	 28.842
7.562000	 28.8976
7.580000	 28.9459
7.598000	 28.916
7.616000	 28.8334
7.634000	 28.7872
7.652000	 28.8166
7.670000	 28.8821
7.688000	 28.9226
7.706000	 28.9106
7.724000	 28.855
7.742000	 28.7802
7.760000	 28.7219
7.778000	 28.7162
7.796000	 28.7589
7.814000	 28.7965
7.832000	 28.7839
7.850000	 28.7439
7.868000	 28.7354
7.886000	 28.7687
7.904000	 28.7957
7.922000	 28.7755
7.940000	 28.7074
7.958000	 28.6168
7.976000	 28.5459
7.994000	 28.5276
8.012000	 28.5446
8.030000	 28.5518
8.048000	 28.5375
8.065999	 28.5267
8.084000	 28.5345
8.102000	 28.5451
8.120000	 28.5394
8.138000	 28.5161
8.155999	 28.4866
8.173999	 28.4665
8.192000	 28.4624
8.210000	 28.458
8.228000	 28.4329
8.246000	 28.3907
8.263999	 28.3537
8.282000	 28.3404
8.300000	 28.3493
8.318000	 28.3632
8.336000	 28.3688
8.353999	 28.3648
8.372000	 28.3536
8.390000	 28.3343
8.408000	 28.3084
8.426000	 28.2843
8.443999	 28.2739
8.462000	 28.2787
8.480000	 28.2835
8.498000	 28.2653
8.516000	 28.2154
8.533999	 28.1495
8.552000	 28.0944
8.570000	 28.0648
8.588000	 28.0543
8.606000	 28.0477
8.624000	 28.0338
8.641999	 28.0065
8.660000	 27.9664
8.678000	 27.926
8.696000	 27.9026
8.714000	 27.8985
8.731999	 27.8961
8.750000	 27.8802
8.768000	 27.8595
8.786000	 27.8571
8.804000	 27.8795
8.821999	 27.9103
8.840000	 27.9306
8.858000	 27.9328
8.876000	 27.9128
8.894000	 27.8632
8.911999	 27.7878
8.930000	 27.7098
8.948000	 27.6526
8.966000	 27.6161
8.984000	 27.5833
9.001999	 27.5503
9.020000	 27.5333
9.038000	 27.5438
9.056000	 27.5694
9.074000	 27.5881
9.092000	 27.5947
9.109999	 27.604
9.128000	 27.6252
9.146000	 27.6378
9.164000	 27.6091
9.182000	 27.5363
9.199999	 27.4588
9.218000	 27.4234
9.236000	 27.443
9.254000	 27.4923
9.272000	 27.538
9.289999	 27.5624
9.308000	 27.5601
9.326000	 27.5277
9.344000	 27.4703
9.362000	 27.4075
9.379999	 27.3606
9.398000	 27.3313
9.416000	 27.301
9.434000	 27.251
9.452000	 27.1821
9.469999	 27.1137
9.488000	 27.0683
9.506000	 27.0592
9.524000	 27.0887
9.542000	 27.1499
9.560000	 27.2246
9.577999	 27.2849
9.596000	 27.3047
9.614000	 27.2737
9.632000	 27.2036
9.650000	 27.1203
9.667999	 27.0478
9.686000	 26.9945
9.704000	 26.955
9.722000	 26.9215
9.740000	 26.8921
9.757999	 26.8685
9.776000	 26.8497
9.794000	 26.8313
9.812000	 26.8114
9.830000	 26.7934
9.847999	 26.7811
9.866000	 26.7728
9.884000	 26.7627
9.902000	 26.7506
9.920000	 26.7469
9.937999	 26.7657
9.956000	 26.8077
9.974000	 26.8549
9.992000	 26.8818
10.01	26.8741
10.028	26.8371
10.046	26.789
10.064	26.745
10.082	26.7092
10.1	26.6792
10.118	26.6554
10.136	26.6439
10.154	26.6498
10.172	26.6689
10.19	26.6858
10.208	26.6845
10.226	26.6592
10.244	26.6168
10.262	26.5716
10.28	26.5325
10.298	26.4991
10.316	26.4641
10.334	26.4227
10.352	26.3776
10.37	26.3367
10.388	26.3052
10.406	26.2824
10.424	26.2635
10.442	26.2465
10.46	26.2346
10.478	26.2325
10.496	26.2387
10.514	26.2424
10.532	26.2277
10.55	26.1846
10.568	26.1157
10.586	26.0365
10.604	25.9642
10.622	25.9098
10.64	25.8736
10.658	25.8505
10.676	25.8365
10.694	25.8329
10.712	25.8424
10.73	25.8624
10.748	25.8827
10.766	25.8887
10.784	25.8715
10.802	25.8347
10.82	25.7931
10.838	25.7651
10.856	25.761
10.874	25.777
10.892	25.7975
10.91	25.8025
10.928	25.7799
10.946	25.73
10.964	25.6653
10.982	25.6035
11	25.5589
11.018	25.5377
11.036	25.537
11.054	25.5477
11.072	25.5594
11.09	25.5625
11.108	25.5513
11.126	25.5233
11.144	25.4798
11.162	25.426
11.18	25.3701
11.198	25.3227
11.216	25.2923
11.234	25.2821
11.252	25.288
11.27	25.2998
11.288	25.3046
11.306	25.2925
11.324	25.2614
11.342	25.2173
11.36	25.1718
11.378	25.1367
11.396	25.1188
11.414	25.1173
11.432	25.1244
11.45	25.1296
11.468	25.1233
11.486	25.101
11.504	25.0634
11.522	25.0166
11.54	24.9689
11.558	24.9292
11.576	24.9042
11.594	24.8969
11.612	24.9069
11.63	24.9298
11.648	24.9584
11.666	24.9835
11.684	24.9959
11.702	24.989
11.72	24.9601
11.738	24.9129
11.756	24.856
11.774	24.8005
11.792	24.7561
11.81	24.7269
11.828	24.7107
11.846	24.6998
11.864	24.6843
11.882	24.6571
11.9	24.6163
11.918	24.5661
11.936	24.5142
11.954	24.4689
11.972	24.4361
11.99	24.4178
12.008	24.4118
12.026	24.4143
12.044	24.4208
12.062	24.4272
12.08	24.4305
12.098	24.4277
12.116	24.4169
12.134	24.3975
12.152	24.3704
12.17	24.3379
12.188	24.3037
12.206	24.2712
12.224	24.2426
12.242	24.2173
12.26	24.1931
12.278	24.167
12.296	24.1363
12.314	24.1004
12.332	24.0621
12.35	24.026
12.368	23.9983
12.386	23.9838
12.404	23.9849
12.422	23.9999
12.44	24.0235
12.458	24.0483
12.476	24.0662
12.494	24.0704
12.512	24.057
12.53	24.026
12.548	23.9811
12.566	23.9282
12.584	23.8749
12.602	23.8284
12.62	23.7947
12.638	23.7767
12.656	23.7742
12.674	23.7835
12.692	23.7987
12.71	23.8127
12.728	23.8186
12.746	23.8112
12.764	23.7878
12.782	23.749
12.8	23.698
12.818	23.64
12.836	23.5804
12.854	23.5238
12.872	23.4732
12.89	23.4293
12.908	23.3914
12.926	23.3571
12.944	23.3239
12.962	23.2902
12.98	23.2561
12.998	23.2232
13.016	23.1947
13.034	23.1743
13.052	23.1653
13.07	23.1697
13.088	23.1868
13.106	23.213
13.124	23.2426
13.142	23.2687
13.16	23.285
13.178	23.2868
13.196	23.2727
13.214	23.2445
13.232	23.207
13.25	23.1664
13.268	23.1284
13.286	23.0963
13.304	23.0701
13.322	23.0463
13.34	23.0191
13.358	22.9817
13.376	22.9291
13.394	22.86
13.412	22.7774
13.43	22.6893
13.448	22.6065
13.466	22.5411
13.484	22.5031
13.502	22.4986
13.52	22.528
13.538	22.586
13.556	22.6625
13.574	22.7446
13.592	22.8192
13.61	22.8753
13.628	22.9056
13.646	22.9069
13.664	22.8805
13.682	22.8309
13.7	22.7642
13.718	22.6873
13.736	22.6056
13.754	22.5238
13.772	22.4447
13.79	22.3704
13.808	22.302
13.826	22.2409
13.844	22.1882
13.862	22.145
13.88	22.1119
13.898	22.0888
13.916	22.0748
13.934	22.0681
13.952	22.0662
13.97	22.0662
13.988	22.0651
14.006	22.0604
14.024	22.0504
14.042	22.0341
14.06	22.0121
14.078	21.9857
14.096	21.9575
14.114	21.9304
14.132	21.9077
14.15	21.8923
14.168	21.8865
14.186	21.8913
14.204	21.9063
14.222	21.929
14.24	21.9555
14.258	21.9811
14.276	22.0007
14.294	22.0096
14.312	22.0046
14.33	21.984
14.348	21.9486
14.366	21.9013
14.384	21.8469
14.402	21.7907
14.42	21.7377
14.438	21.6921
14.456	21.6567
14.474	21.6327
14.492	21.6195
14.51	21.6151
14.528	21.6165
14.546	21.6206
14.564	21.6248
14.582	21.6267
14.6	21.6249
14.618	21.6188
14.636	21.6087
14.654	21.5957
14.672	21.5809
14.69	21.5656
14.708	21.5509
14.726	21.5376
14.744	21.5257
14.762	21.5148
14.78	21.5039
14.798	21.4918
14.816	21.4769
14.834	21.4576
14.852	21.432
14.87	21.3997
14.888	21.3604
14.906	21.3151
14.924	21.2654
14.942	21.2139
14.96	21.1635
14.978	21.117
14.996	21.0772
15.014	21.046
15.032	21.0246
15.05	21.0131
15.068	21.0107
15.086	21.0161
15.104	21.0274
15.122	21.0423
15.14	21.0589
15.158	21.0757
15.176	21.0915
15.194	21.1053
15.212	21.1166
15.23	21.1255
15.248	21.1321
15.266	21.1366
15.284	21.1392
15.302	21.14
15.32	21.139
15.338	21.1361
15.356	21.1307
15.374	21.1227
15.392	21.1115
15.41	21.0963
15.428	21.0768
15.446	21.0521
15.464	21.0217
15.482	20.9852
15.5	20.9423
15.518	20.8934
15.536	20.8395
15.554	20.7818
15.572	20.7218
15.59	20.6622
15.608	20.6049
15.626	20.552
15.644	20.5054
15.662	20.4668
15.68	20.4365
15.698	20.4147
15.716	20.4001
15.734	20.3908
15.752	20.3849
15.77	20.3802
15.788	20.3739
15.806	20.3644
15.824	20.3505
15.842	20.3314
15.86	20.3076
15.878	20.2802
15.896	20.2507
15.914	20.2214
15.932	20.1943
15.95	20.171
15.968	20.1528
15.986	20.14
16.004	20.1319
16.022	20.1275
16.04	20.124
16.058	20.1188
16.076	20.1094
16.094	20.0924
16.112	20.0656
16.13	20.0278
16.148	19.9779
16.166	19.9171
16.184	19.8469
16.202	19.7696
16.22	19.69
16.238	19.6116
16.256	19.5381
16.274	19.4748
16.292	19.4246
16.31	19.3903
16.328	19.3743
16.346	19.3767
16.364	19.3972
16.382	19.434
16.4	19.4839
16.418	19.5445
16.436	19.6106
16.454	19.6782
16.472	19.7444
16.49	19.8044
16.508	19.8562
16.526	19.8979
16.544	19.9282
16.562	19.9475
16.58	19.956
16.598	19.9552
16.616	19.9463
16.634	19.9305
16.652	19.9098
16.67	19.8848
16.688	19.8565
16.706	19.8258
16.724	19.7926
16.742	19.7571
16.76	19.7197
16.778	19.6803
16.796	19.6391
16.814	19.5968
16.832	19.5538
16.85	19.5106
16.868	19.468
16.886	19.4265
16.904	19.3869
16.922	19.3492
16.94	19.3138
16.958	19.2804
16.976	19.2487
16.994	19.218
17.012	19.1874
17.03	19.1566
17.048	19.1244
17.066	19.0907
17.084	19.0548
17.102	19.0171
17.12	18.9777
17.138	18.9372
17.156	18.8965
17.174	18.856
17.192	18.8174
17.21	18.7811
17.228	18.7482
17.246	18.7196
17.264	18.6958
17.282	18.6776
17.3	18.665
17.318	18.6585
17.336	18.6578
17.354	18.6629
17.372	18.673
17.39	18.6879
17.408	18.7067
17.426	18.7281
17.444	18.7517
17.462	18.7753
17.48	18.7985
17.498	18.8193
17.516	18.8367
17.534	18.8498
17.552	18.8569
17.57	18.8578
17.588	18.8514
17.606	18.8376
17.624	18.8161
17.642	18.7875
17.66	18.7518
17.678	18.7103
17.696	18.6635
17.714	18.613
17.732	18.5598
17.75	18.5052
17.768	18.4508
17.786	18.3973
17.804	18.3465
17.822	18.2987
17.84	18.2553
17.858	18.2165
17.876	18.1829
17.894	18.1547
17.912	18.1319
17.93	18.1143
17.948	18.1017
17.966	18.0938
17.984	18.0902
18.002	18.0903
18.02	18.0938
18.038	18.1004
18.056	18.1096
18.074	18.1213
18.092	18.1354
18.11	18.1518
18.128	18.1704
18.146	18.1915
18.164	18.2152
18.182	18.2415
18.2	18.2708
18.218	18.3025
18.236	18.3368
18.254	18.3727
18.272	18.4099
18.29	18.4469
18.308	18.4833
18.326	18.5169
18.344	18.5474
18.362	18.5727
18.38	18.5923
18.398	18.6048
18.416	18.6098
18.434	18.6065
18.452	18.5952
18.47	18.5754
18.488	18.5484
18.506	18.5144
18.524	18.4752
18.542	18.431
18.56	18.3842
18.578	18.3352
18.596	18.286
18.614	18.2368
18.632	18.1893
18.65	18.1435
18.668	18.1001
18.686	18.059
18.704	18.02
18.722	17.983
18.74	17.9472
18.758	17.9122
18.776	17.8772
18.794	17.842
18.812	17.8057
18.83	17.7685
18.848	17.7301
18.866	17.6909
18.884	17.6514
18.902	17.6124
18.92	17.5747
18.938	17.5394
18.956	17.5079
18.974	17.4811
18.992	17.4607
19.01	17.4472
19.028	17.4423
19.046	17.446
19.064	17.4596
19.082	17.4826
19.1	17.5154
19.118	17.5569
19.136	17.6064
19.154	17.6625
19.172	17.7233
19.19	17.7875
19.208	17.8518
19.226	17.9153
19.244	17.974
19.262	18.0274
19.28	18.0713
19.298	18.1059
19.316	18.1275
19.334	18.1366
19.352	18.1312
19.37	18.1115
19.388	18.0779
19.406	18.0303
19.424	17.9711
19.442	17.9001
19.46	17.8213
19.478	17.7347
19.496	17.6446
19.514	17.5519
19.532	17.4597
19.55	17.3701
19.568	17.2847
19.586	17.2058
19.604	17.1338
19.622	17.0712
19.64	17.0175
19.658	16.9736
19.676	16.9393
19.694	16.9139
19.712	16.8975
19.73	16.8881
19.748	16.8857
19.766	16.8884
19.784	16.8957
19.802	16.9062
19.82	16.9188
19.838	16.9329
19.856	16.947
19.874	16.9612
19.892	16.9742
19.91	16.9862
19.928	16.9965
19.946	17.0051
19.964	17.0117
19.982	17.0164
20	17.019
20.018	17.0196
20.036	17.0182
20.054	17.0147
20.072	17.0092
20.09	17.0017
20.108	16.9921
20.126	16.9808
20.144	16.9678
20.162	16.9535
20.18	16.938
20.198	16.9219
20.216	16.9059
20.234	16.8901
20.252	16.8757
20.27	16.8625
20.288	16.8523
20.306	16.8449
20.324	16.8413
20.342	16.842
20.36	16.8471
20.378	16.8573
20.396	16.8724
20.414	16.8917
20.432	16.9157
20.45	16.9428
20.468	16.9728
20.486	17.0046
20.504	17.0358
20.522	17.0669
20.54	17.0943
20.558	17.1187
20.576	17.1371
20.594	17.1482
20.612	17.1517
20.63	17.1449
20.648	17.1285
20.666	17.1006
20.684	17.0612
20.702	17.0105
20.72	16.9482
20.738	16.8749
20.756	16.7919
20.774	16.6988
20.792	16.5986
20.81	16.4912
20.828	16.3786
20.846	16.2633
20.864	16.1449
20.882	16.0274
20.9	15.9104
20.918	15.7963
20.936	15.687
20.954	15.5822
20.972	15.4846
20.99	15.3937
21.008	15.3109
21.026	15.2369
21.044	15.1715
21.062	15.1156
21.08	15.0689
21.098	15.0312
21.116	15.0029
21.134	14.9833
21.152	14.972
21.17	14.9692
21.188	14.9735
21.206	14.985
21.224	15.0029
21.242	15.026
21.26	15.0548
21.278	15.0873
21.296	15.1235
21.314	15.1629
21.332	15.2037
21.35	15.2467
21.368	15.2902
21.386	15.3339
21.404	15.3777
21.422	15.4205
21.44	15.4625
21.458	15.503
21.476	15.5419
21.494	15.5792
21.512	15.6144
21.53	15.6475
21.548	15.6784
21.566	15.7068
21.584	15.7329
21.602	15.7561
21.62	15.7764
21.638	15.7938
21.656	15.8077
21.674	15.8185
21.692	15.8254
21.71	15.8283
21.728	15.8272
21.746	15.8215
21.764	15.8115
21.782	15.7967
21.8	15.7767
21.818	15.7516
21.836	15.7216
21.854	15.6867
21.872	15.6469
21.89	15.6024
21.908	15.553
21.926	15.4995
21.944	15.4421
21.962	15.3809
21.98	15.3164
21.998	15.2488
22.016	15.1783
22.034	15.1056
22.052	15.0307
22.07	14.9539
22.088	14.8759
22.106	14.7962
22.124	14.7156
22.142	14.6342
22.16	14.552
22.178	14.4697
22.196	14.387
22.214	14.3046
22.232	14.2229
22.25	14.1417
22.268	14.0621
22.286	13.9846
22.304	13.9089
22.322	13.8368
22.34	13.768
22.358	13.7031
22.376	13.644
22.394	13.59
22.412	13.5423
22.43	13.5026
22.448	13.4701
22.466	13.4459
22.484	13.4309
22.502	13.4248
22.52	13.4278
22.538	13.4403
22.556	13.462
22.574	13.4921
22.592	13.531
22.61	13.5782
22.628	13.6318
22.646	13.6929
22.664	13.7597
22.682	13.8296
22.7	13.9038
22.718	13.98
22.736	14.0554
22.754	14.1315
22.772	14.2058
22.79	14.2761
22.808	14.3436
22.826	14.4066
22.844	14.4636
22.862	14.5155
22.88	14.5617
22.898	14.6014
22.916	14.6352
22.934	14.6635
22.952	14.6863
22.97	14.7036
22.988	14.7172
23.006	14.7271
23.024	14.7333
23.042	14.7378
23.06	14.7405
23.078	14.7416
23.096	14.7425
23.114	14.7436
23.132	14.7446
23.15	14.7461
23.168	14.7484
23.186	14.7511
23.204	14.7537
23.222	14.7567
23.24	14.7594
23.258	14.7605
23.276	14.7603
23.294	14.7585
23.312	14.7536
23.33	14.7459
23.348	14.7352
23.366	14.7205
23.384	14.7015
23.402	14.6786
23.42	14.6514
23.438	14.6197
23.456	14.5838
23.474	14.5444
23.492	14.5012
23.51	14.4546
23.528	14.4063
23.546	14.3567
23.564	14.3054
23.582	14.2545
23.6	14.2047
23.618	14.1553
23.636	14.1077
23.654	14.0629
23.672	14.02
23.69	13.9801
23.708	13.9438
23.726	13.9107
23.744	13.8808
23.762	13.8545
23.78	13.8315
23.798	13.812
23.816	13.7958
23.834	13.783
23.852	13.7736
23.87	13.7681
23.888	13.7657
23.906	13.7673
23.924	13.7738
23.942	13.7849
23.96	13.8008
23.978	13.8235
23.996	13.8533
24.014	13.8894
24.032	13.9349
24.05	13.9917
24.068	14.0577
24.086	14.1359
24.104	14.2288
24.122	14.3348
24.14	14.4551
24.158	14.5917
24.176	14.7447
24.194	14.9133
24.212	15.0973
24.23	15.2975
24.248	15.5134
24.266	15.7415
24.284	15.9809
24.302	16.2338
24.32	16.4943
24.338	16.7571
24.356	17.0268
24.374	17.2983
24.392	17.5641
24.41	17.8266
24.428	18.0848
24.446	18.3304
24.464	18.5608
24.482	18.7799
24.5	18.9802
24.518	19.1552
24.536	19.3094
24.554	19.4397
24.572	19.5404
24.59	19.611
24.608	19.6536
24.626	19.6686
24.644	19.6551
24.662	19.6131
24.68	19.546
24.698	19.4567
24.716	19.342
24.734	19.2059
24.752	19.0543
24.77	18.8867
24.788	18.7023
24.806	18.5073
24.824	18.3057
24.842	18.0933
24.86	17.8749
24.878	17.6569
24.896	17.4382
24.914	17.2181
24.932	17.0001
24.95	16.7862
24.968	16.5751
24.986	16.3664
25.004	16.1601
25.022	15.9574
25.04	15.7569
25.058	15.5563
25.076	15.355
25.094	15.1546
25.112	14.9519
25.13	14.7439
25.148	14.5314
25.166	14.3147
25.184	14.0926
25.202	13.8635
25.22	13.6275
25.238	13.3879
25.256	13.1481
25.274	12.9056
25.292	12.6618
25.31	12.4212
25.328	12.1864
25.346	11.9541
25.364	11.7275
25.382	11.5106
25.4	11.3008
25.418	11.0988
25.436	10.9107
25.454	10.7409
25.472	10.5841
25.49	10.4448
25.508	10.3295
25.526	10.2389
25.544	10.1697
25.562	10.1276
25.58	10.1179
25.598	10.1377
25.616	10.1875
25.634	10.2705
25.652	10.3895
25.67	10.5441
25.688	10.7306
25.706	10.9454
25.724	11.1912
25.742	11.4684
25.76	11.767
25.778	12.0783
25.796	12.4093
25.814	12.7565
25.832	13.1093
25.85	13.462
25.868	13.824
25.886	14.1856
25.904	14.5347
25.922	14.8682
25.94	15.1928
25.958	15.5022
25.976	15.7898
25.994	16.0594
26.012	16.3109
26.03	16.5366
26.048	16.7306
26.066	16.9014
26.084	17.0429
26.102	17.1433
26.12	17.1966
26.138	17.2139
26.156	17.1847
26.174	17.0954
26.192	16.9452
26.21	16.7448
26.228	16.4758
26.246	16.1187
26.264	15.6746
26.282	15.1518
26.3	14.5379
26.318	13.8206
26.336	12.9968
26.354	12.0743
26.372	11.0606
26.39	9.961771
26.408	8.765869
26.426	7.482434
26.444	6.130709
26.462	4.724221
26.48	3.234342
26.498	1.686600
26.516	0.121488
26.534	-1.432708
26.552	-3.012085
26.57	-4.593710
26.588	-6.142124
26.606	-7.632759
26.624	-9.089135
26.642	-10.5056
26.66	-11.8712
26.678	-13.1785
26.696	-14.4341
26.714	-15.6387
26.732	-16.7924
26.75	-17.8881
26.768	-18.9165
26.786	-19.9045
26.804	-20.8809
26.822	-21.8629
26.84	-22.8325
26.858	-23.7915
26.876	-24.7439
26.894	-25.7
26.912	-26.6673
26.93	-27.6176
26.948	-28.5214
26.966	-29.3844
26.984	-30.262
27.002	-31.0613
27.02	-31.6788
27.028	-31.8484