File: Bakgrunnsmateriale/MATLAB/FTIR/ftir_data/LPE453/Mapping_121/LPE453_t60_cm-1.asc
PE IR       SPECTRUM    SPECTRUM    ASCII       PEDS        1.60
  -1
LP5A55~1.ASC
17/05/16
19:16:04.00
17/05/16
19:16:04.00
tln
$LPE453_t0060$<tbV0>[2.6,0.0,8.0,0.0,27,1,0]
370
64

2002,4.07
MIRTGS : RIGHTBACK : INTERNAL 2
MIR : ON : INTERNAL 2
OPTKBR

0.200000
8
8.000000
FILLER
RATIO
SPECTRUM
UNLOCKED 256

DOUBLE
64
COMBINED
1
0
0

1.000000
RATIO

1
0
TRUE
51149
0
LEFT NOT FITTED RIGHT NOT FITTED 0
NONE
NONE
15600
12
4.427000
51148
TRUE
1 0 8 72 0 0 0 0

15798

#HDR
-1
-1
#GR
CM-1
%T
2.38419e-05
0.0
5000
-1.000000
4631
8
26.7492
-6.593942
#DATA
5000	0.173497
4996	0.259542
4992	0.400638
4988	0.293469
4984	-0.168681
4980	-0.515913
4976	-0.381565
4972	-0.148034
4968	0.077104
4964	0.123047
4960	-0.023651
4956	0.115537
4952	0.116539
4948	-0.080084
4944	0.015068
4940	0.148153
4936	0.183010
4932	0.232100
4928	0.366830
4924	0.453424
4920	0.339746
4916	0.278925
4912	0.260424
4908	0.223755
4904	0.200533
4900	0.173091
4896	0.346255
4892	0.669050
4888	0.750517
4884	0.262904
4880	-0.251054
4876	-0.235819
4872	-0.005769
4868	0.244426
4864	0.369715
4860	0.318288
4856	0.305557
4852	0.312209
4848	0.183558
4844	0.128841
4840	0.206971
4836	0.204515
4832	0.068092
4828	-0.197625
4824	-0.240612
4820	0.107431
4816	0.270795
4812	0.166296
4808	0.152206
4804	0.162720
4800	0.101375
4796	0.004363
4792	-0.201559
4788	-0.286412
4784	0.086784
4780	0.323581
4776	-0.020933
4772	-0.436687
4768	-0.406646
4764	0.106978
4760	0.719380
4756	1.130819
4752	0.866913
4748	0.364756
4744	0.645494
4740	0.720334
4736	0.002646
4732	-0.474095
4728	0.014114
4724	0.972700
4720	1.352572
4716	1.122307
4712	0.669336
4708	0.375056
4704	0.547623
4700	0.791621
4696	0.799393
4692	0.634598
4688	1.117968
4684	1.899743
4680	1.007699
4676	-0.452756
4672	-0.765943
4668	-0.305843
4664	0.590658
4660	1.039719
4656	0.863385
4652	0.261306
4648	-0.413846
4644	0.009965
4640	0.632953
4636	0.680804
4632	0.843882
4628	0.872111
4624	0.635910
4620	0.330567
4616	0.591826
4612	0.992870
4608	0.762319
4604	0.406050
4600	-0.024533
4596	-0.523853
4592	-0.462388
4588	-0.017595
4584	0.230860
4580	0.451827
4576	0.360393
4572	-0.121045
4568	-0.193929
4564	-0.004100
4560	-0.007748
4556	-0.003814
4552	-0.165438
4548	-0.307106
4544	-0.031566
4540	0.175833
4536	0.232815
4532	0.167036
4528	0.301647
4524	0.379800
4520	-0.081515
4516	-1.023697
4512	-1.426482
4508	-0.966477
4504	-0.129365
4500	0.347018
4496	0.378131
4492	4.260587
4488	11.2643
4484	11.6004
4480	6.452107
4476	3.859162
4472	1.786613
4468	-0.693130
4464	-0.941061
4460	-0.121903
4456	0.029540
4452	-0.273013
4448	-0.340008
4444	-0.276350
4440	-0.486278
4436	-0.457048
4432	-0.133967
4428	-0.300812
4424	-0.633668
4420	-0.438785
4416	-0.171160
4412	-0.285959
4408	-0.466537
4404	-0.439858
4400	-0.207543
4396	0.032806
4392	0.034928
4388	-0.147032
4384	-0.281381
4380	-0.332331
4376	-0.304245
4372	-0.204062
4368	-0.054454
4364	0.050687
4360	0.046515
4356	0.066328
4352	0.252437
4348	0.430011
4344	0.263404
4340	0.001096
4336	-0.150442
4332	-0.208067
4328	-0.155377
4324	-0.009727
4320	0.287985
4316	0.489020
4312	0.328397
4308	0.047326
4304	-0.094914
4300	-0.079894
4296	-0.032520
4292	0.016355
4288	0.001072
4284	0.053954
4280	0.270295
4276	0.199413
4272	0.027179
4268	0.270056
4264	0.453734
4260	0.284147
4256	0.162768
4252	0.180149
4248	0.128293
4244	0.130844
4240	0.317597
4236	0.445151
4232	0.316667
4228	0.125098
4224	0.060629
4220	0.002193
4216	-0.017023
4212	0.095987
4208	0.210809
4204	0.164723
4200	-0.039863
4196	-0.122094
4192	-0.061345
4188	-0.046181
4184	0.002527
4180	0.016403
4176	0.133347
4172	0.411629
4168	0.231647
4164	-0.205469
4160	-0.170683
4156	0.120258
4152	0.224804
4148	0.116705
4144	0.016188
4140	0.083160
4136	0.067496
4132	-0.070929
4128	-0.083470
4124	-0.029206
4120	0.013899
4116	0.024676
4112	0.041508
4108	0.104904
4104	0.139093
4100	0.102543
4096	0.040173
4092	0.062227
4088	0.103878
4084	0.117588
4080	0.156831
4076	0.166225
4072	0.132060
4068	0.057554
4064	-0.006103
4060	-0.011134
4056	-0.012230
4052	-0.041294
4048	-0.066328
4044	-0.050568
4040	-0.056695
4036	-0.100851
4032	-0.081324
4028	0.013971
4024	0.008606
4020	-0.110030
4016	-0.133204
4012	-0.033998
4008	0.053167
4004	0.066328
4000	0.023031
3996	-0.051569
3992	-0.062417
3988	-0.011444
3984	0.012969
3980	-0.001525
3976	0.052094
3972	0.167059
3968	0.164794
3964	0.112152
3960	0.128912
3956	0.115370
3952	0.033640
3948	-0.049042
3944	-0.045895
3940	0.044083
3936	0.118684
3932	0.100517
3928	0.046515
3924	0.117897
3920	0.219345
3916	0.184750
3912	0.145125
3908	0.199079
3904	0.250744
3900	0.193381
3896	0.074362
3892	0.054073
3888	0.091147
3884	0.111651
3880	0.163435
3876	0.156736
3872	0.081229
3868	0.023317
3864	0.046586
3860	0.152754
3856	0.148940
3852	-0.010371
3848	-0.105404
3844	-0.067949
3840	-0.037717
3836	-0.052881
3832	-0.038027
3828	-0.027561
3824	-0.046277
3820	-0.028967
3816	0.055551
3812	0.094223
3808	0.034213
3804	0.038766
3800	0.072312
3796	0.059080
3792	0.061440
3788	0.063872
3784	0.044727
3780	0.005578
3776	-0.008606
3772	-0.025629
3768	-0.026226
3764	0.044846
3760	0.045084
3756	-0.015211
3752	-0.027847
3748	-0.075173
3744	-0.072145
3740	0.004196
3736	0.026988
3732	0.051975
3728	0.063633
3724	0.043487
3720	0.044751
3716	0.053477
3712	0.070786
3708	0.111174
3704	0.143599
3700	0.136137
3696	0.096321
3692	0.053238
3688	0.067114
3684	0.126647
3680	0.126242
3676	0.113606
3672	0.081682
3668	-0.053143
3664	-0.138902
3660	-0.125718
3656	-0.133776
3652	-0.163722
3648	-0.167512
3644	-0.183153
3640	-0.143456
3636	-0.011348
3632	0.067377
3628	0.097370
3624	0.124955
3620	0.104355
3616	0.119853
3612	0.211477
3608	0.196814
3604	0.129842
3600	0.210452
3596	0.271487
3592	0.164866
3588	0.097036
3584	0.104498
3580	0.029730
3576	-0.020503
3572	0.025200
3568	0.025296
3564	-0.003790
3560	0.045394
3556	0.140452
3552	0.198626
3548	0.149106
3544	0.065708
3540	-0.041127
3536	-0.152730
3532	-0.046157
3528	0.140929
3524	0.151872
3520	0.088500
3516	0.013089
3512	-0.034999
3508	-0.000238
3504	0.000977
3500	0.008964
3496	0.070619
3492	0.100493
3488	0.090885
3484	-0.033020
3480	-0.124788
3476	-0.029134
3472	0.060248
3468	0.067925
3464	0.002837
3460	-0.075697
3456	-0.010466
3452	0.096702
3448	0.073528
3444	-0.041055
3440	-0.119352
3436	-0.125336
3432	-0.061321
3428	0.029778
3424	0.090289
3420	0.112676
3416	0.126504
3412	0.134253
3408	0.094819
3404	0.023388
3400	-0.001573
3396	0.079584
3392	0.118088
3388	0.037765
3384	0.011515
3380	0.090789
3376	0.123548
3372	0.037121
3368	-0.048279
3364	-0.076365
3360	-0.060009
3356	-0.032019
3352	-0.029754
3348	0.033116
3344	0.099849
3340	0.096464
3336	0.075507
3332	0.064611
3328	0.061130
3324	0.002789
3320	-0.061011
3316	-0.027441
3312	0.062870
3308	0.112891
3304	0.120306
3300	0.119853
3296	0.078845
3292	-0.022459
3288	-0.071072
3284	0.008201
3280	0.095677
3276	0.067687
3272	-0.020217
3268	-0.061964
3264	-0.057363
3260	-0.000834
3256	0.077748
3252	0.060272
3248	-0.012445
3244	-0.039625
3240	-0.034880
3236	-0.022721
3232	-0.025439
3228	-0.035119
3224	-0.008463
3220	0.049543
3216	0.117444
3212	0.170636
3208	0.177979
3204	0.190329
3200	0.225877
3196	0.175023
3192	0.070428
3188	0.018334
3184	-0.006484
3180	-0.020694
3176	0.009083
3172	0.112557
3168	0.220084
3164	0.199413
3160	0.083255
3156	0.017285
3152	0.012350
3148	-0.024652
3144	-0.031948
3140	0.074934
3136	0.168633
3132	0.168919
3128	0.137519
3124	0.066542
3120	-0.065255
3116	-0.130462
3112	-0.038981
3108	0.067186
3104	0.040674
3100	-0.027513
3096	0.000190
3092	0.085401
3088	0.145006
3084	0.141501
3080	0.111961
3076	0.055503
3072	-0.011253
3068	-0.011110
3064	0.014209
3060	0.038981
3056	0.048780
3052	0.058937
3048	0.083947
3044	0.048065
3040	-0.012969
3036	0.010442
3032	0.100612
3028	0.123453
3024	0.018787
3020	-0.129461
3016	-0.187849
3012	-0.116252
3008	-0.012612
3004	0.020360
3000	-0.022554
2996	-0.046253
2992	0.011801
2988	0.062632
2984	0.079846
2980	0.093865
2976	0.084137
2972	0.079655
2968	0.042915
2964	-0.019741
2960	0.004816
2956	0.094676
2952	0.139331
2948	0.092172
2944	0.027155
2940	-0.011968
2936	-0.010728
2932	0.018644
2928	0.035405
2924	0.016474
2920	-0.054526
2916	-0.067353
2912	0.021600
2908	0.101351
2904	0.154948
2900	0.130748
2896	0.033283
2892	-0.002002
2888	-0.007295
2884	-0.011444
2880	-0.016927
2876	-0.018167
2872	0.001382
2868	0.020194
2864	0.022268
2860	0.045466
2856	0.040912
2852	-0.017356
2848	-0.004291
2844	0.061106
2840	0.095033
2836	0.142502
2832	0.135254
2828	0.027632
2824	-0.011229
2820	0.065159
2816	0.092768
2812	0.022959
2808	-0.021862
2804	-0.016665
2800	0.003266
2796	0.009679
2792	-0.019264
2788	0.000572
2784	0.080132
2780	0.117492
2776	0.112342
2772	0.103783
2768	0.071644
2764	0.033211
2760	0.022935
2756	0.024986
2752	0.028467
2748	0.041031
2744	0.045657
2740	0.039768
2736	0.007438
2732	-0.052428
2728	-0.023412
2724	0.116419
2720	0.182962
2716	0.130367
2712	0.017547
2708	-0.098156
2704	-0.089645
2700	-0.021672
2696	0.022816
2692	0.053071
2688	0.027513
2684	0.005722
2680	0.012636
2676	0.019049
2672	0.042867
2668	0.050449
2664	0.024342
2660	0.007176
2656	0.008463
2652	0.009918
2648	-0.004577
2644	-0.046706
2640	-0.035595
2636	0.011730
2632	0.000596
2628	0.005459
2624	0.045013
2620	0.075912
2616	0.105237
2612	0.100302
2608	0.016903
2604	-0.084662
2600	-0.067377
2596	0.043749
2592	0.099539
2588	0.058126
2584	0.037837
2580	0.044226
2576	-0.012230
2572	-0.039076
2568	0.019645
2564	0.074386
2560	0.039505
2556	-0.040745
2552	-0.067996
2548	-0.023841
2544	0.044775
2540	0.053906
2536	-0.009512
2532	-0.049018
2528	0.022840
2524	0.098896
2520	0.097274
2516	0.081062
2512	0.059318
2508	0.019168
2504	0.039315
2500	0.152945
2496	0.178909
2492	0.095963
2488	0.064754
2484	0.098657
2480	0.142359
2476	0.122261
2472	0.076913
2468	0.105237
2464	0.111150
2460	0.055837
2456	0.032615
2452	0.023961
2448	0.020956
2444	0.074100
2440	0.134587
2436	0.179362
2432	0.073695
2428	-0.209999
2424	-0.230574
2420	-0.006771
2416	0.126481
2412	0.207257
2408	0.224828
2404	0.171613
2400	0.123810
2396	0.069928
2392	-0.004792
2388	-0.005269
2384	0.077056
2380	0.098562
2376	0.045061
2372	0.036883
2368	0.098752
2364	0.098967
2360	0.029277
2356	-0.034570
2352	-0.085043
2348	-0.113773
2344	-0.103640
2340	-0.070309
2336	-0.050759
2332	-0.054836
2328	-0.051236
2324	-0.039887
2320	-0.065422
2316	-0.062060
2312	0.022363
2308	0.095582
2304	0.079560
2300	0.035166
2296	0.042271
2292	0.049662
2288	0.028276
2284	0.065422
2280	0.128293
2276	0.144195
2272	0.148129
2268	0.163197
2264	0.201392
2260	0.256252
2256	0.296592
2252	0.350809
2248	0.450325
2244	0.511550
2240	0.517058
2236	0.569844
2232	0.637435
2228	0.680708
2224	0.768899
2220	0.857639
2216	0.919866
2212	1.029515
2208	1.153373
2204	1.249742
2200	1.363563
2196	1.550388
2192	1.764893
2188	1.934647
2184	2.090644
2180	2.286791
2176	2.526783
2172	2.736186
2168	2.944207
2164	3.210663
2160	3.466248
2156	3.669023
2152	3.847980
2148	4.099774
2144	4.488062
2140	4.879069
2136	5.098104
2132	5.306601
2128	5.717325
2124	6.162357
2120	6.489276
2116	6.794142
2112	7.124876
2108	7.487607
2104	7.904338
2100	8.305549
2096	8.713006
2092	9.153556
2088	9.553647
2084	9.932422
2080	10.2773
2076	10.6543
2072	11.1151
2068	11.5445
2064	11.9849
2060	12.397
2056	12.6811
2052	13.0082
2048	13.4217
2044	13.832
2040	14.257
2036	14.6715
2032	15.0636
2028	15.4354
2024	15.7355
2020	16.0387
2016	16.4103
2012	16.7641
2008	17.0696
2004	17.3688
2000	17.6932
1996	18.0497
1992	18.3961
1988	18.6717
1984	18.8885
1980	19.1358
1976	19.4327
1972	19.7531
1968	20.0828
1964	20.3505
1960	20.5712
1956	20.7723
1952	20.9479
1948	21.1622
1944	21.3644
1940	21.5255
1936	21.755
1932	22.0624
1928	22.3347
1924	22.5227
1920	22.6712
1916	22.8109
1912	22.9427
1908	23.1023
1904	23.3079
1900	23.4856
1896	23.6046
1892	23.7064
1888	23.845
1884	24.0191
1880	24.1692
1876	24.3016
1872	24.4031
1868	24.4828
1864	24.5841
1860	24.7114
1856	24.872
1852	24.9908
1848	25.0099
1844	25.0028
1840	25.0773
1836	25.2507
1832	25.3808
1828	25.415
1824	25.4318
1820	25.437
1816	25.5192
1812	25.6811
1808	25.7831
1804	25.8421
1800	25.8811
1796	25.8782
1792	25.8667
1788	25.9126
1784	25.993
1780	26.0238
1776	26.0533
1772	26.1276
1768	26.1817
1764	26.1978
1760	26.2061
1756	26.2377
1752	26.3156
1748	26.3634
1744	26.3694
1740	26.3859
1736	26.4316
1732	26.5244
1728	26.562
1724	26.5372
1720	26.5126
1716	26.4663
1712	26.4723
1708	26.535
1704	26.5676
1700	26.5833
1696	26.6227
1692	26.6718
1688	26.6758
1684	26.6399
1680	26.6225
1676	26.6182
1672	26.6234
1668	26.6687
1664	26.7221
1660	26.7312
1656	26.7213
1652	26.7416
1648	26.7251
1644	26.6324
1640	26.5758
1636	26.5897
1632	26.6295
1628	26.6956
1624	26.7446
1620	26.7423
1616	26.7255
1612	26.7425
1608	26.7311
1604	26.6741
1600	26.6679
1596	26.6505
1592	26.5849
1588	26.5733
1584	26.6034
1580	26.6099
1576	26.6465
1572	26.6992
1568	26.6959
1564	26.6641
1560	26.6139
1556	26.5376
1552	26.4924
1548	26.5195
1544	26.56
1540	26.5523
1536	26.5391
1532	26.55
1528	26.538
1524	26.49
1520	26.4313
1516	26.4046
1512	26.4296
1508	26.5083
1504	26.6385
1500	26.6789
1496	26.5612
1492	26.4563
1488	26.3756
1484	26.2636
1480	26.2462
1476	26.2942
1472	26.3178
1468	26.3418
1464	26.3258
1460	26.2594
1456	26.2533
1452	26.3379
1448	26.4031
1444	26.3806
1440	26.2713
1436	26.1663
1432	26.1963
1428	26.2429
1424	26.2249
1420	26.2646
1416	26.3296
1412	26.3541
1408	26.3616
1404	26.3413
1400	26.2607
1396	26.1401
1392	26.0877
1388	26.1138
1384	26.0793
1380	25.9813
1376	25.9643
1372	26.0715
1368	26.1535
1364	26.0965
1360	25.9818
1356	25.9231
1352	25.9236
1348	25.8684
1344	25.851
1340	25.974
1336	26.0129
1332	25.9398
1328	25.9063
1324	25.8703
1320	25.8397
1316	25.8511
1312	25.8095
1308	25.7585
1304	25.7648
1300	25.7652
1296	25.754
1292	25.7104
1288	25.6512
1284	25.651
1280	25.6285
1276	25.5633
1272	25.5762
1268	25.6555
1264	25.6862
1260	25.631
1256	25.5609
1252	25.526
1248	25.5243
1244	25.4778
1240	25.3777
1236	25.3217
1232	25.3368
1228	25.3723
1224	25.3585
1220	25.3515
1216	25.3734
1212	25.3529
1208	25.3539
1204	25.4045
1200	25.4072
1196	25.3379
1192	25.2419
1188	25.1466
1184	25.089
1180	25.0933
1176	25.1437
1172	25.1908
1168	25.2022
1164	25.2261
1160	25.2261
1156	25.1661
1152	25.0834
1148	24.9645
1144	24.8428
1140	24.7653
1136	24.7362
1132	24.8276
1128	24.8933
1124	24.7427
1120	24.5876
1116	24.5718
1112	24.5627
1108	24.5243
1104	24.4636
1100	24.3182
1096	24.2194
1092	24.3057
1088	24.3846
1084	24.4143
1080	24.4859
1076	24.5093
1072	24.4046
1068	24.2352
1064	24.1313
1060	24.0812
1056	24.0555
1052	24.0432
1048	24.0526
1044	24.0937
1040	24.1049
1036	24.09
1032	24.0238
1028	23.8874
1024	23.815
1020	23.7835
1016	23.7013
1012	23.6839
1008	23.7035
1004	23.7087
1000	23.7752
996	 23.8073
992	 23.6937
988	 23.524
984	 23.3321
980	 23.2089
976	 23.2298
972	 23.1854
968	 23.0852
964	 23.051
960	 23.0294
956	 23.0588
952	 23.121
948	 23.1081
944	 23.0172
940	 22.8871
936	 22.7381
932	 22.6415
928	 22.6103
924	 22.6216
920	 22.7413
916	 22.8108
912	 22.6285
908	 22.3899
904	 22.3554
900	 22.4287
896	 22.3391
892	 22.0905
888	 21.9053
884	 21.9186
880	 22.0029
876	 21.9499
872	 21.7717
868	 21.6367
864	 21.6542
860	 21.6965
856	 21.6184
852	 21.4246
848	 21.2598
844	 21.246
840	 21.2162
836	 21.0782
832	 21.0445
828	 21.1549
824	 21.2248
820	 21.1094
816	 20.9111
812	 20.8127
808	 20.7496
804	 20.6978
800	 20.6665
796	 20.5418
792	 20.3459
788	 20.2151
784	 20.1794
780	 20.1383
776	 19.9821
772	 19.7798
768	 19.689
764	 19.679
760	 19.649
756	 19.5719
752	 19.6203
748	 19.7842
744	 19.7058
740	 19.5426
736	 19.5336
732	 19.3561
728	 19.0059
724	 18.858
720	 18.8052
716	 18.74
712	 18.663
708	 18.4514
704	 18.3695
700	 18.4862
696	 18.5229
692	 18.3902
688	 18.2478
684	 18.1466
680	 17.8906
676	 17.646
672	 17.6877
668	 17.7879
664	 17.85
660	 17.8954
656	 17.6646
652	 17.394
648	 17.3226
644	 17.2625
640	 17.2763
636	 17.2594
632	 17.0431
628	 16.8281
624	 16.7651
620	 16.7427
616	 16.7213
612	 16.6939
608	 16.61
604	 16.5559
600	 16.3697
596	 16.0655
592	 15.9081
588	 15.7766
584	 15.5478
580	 15.4301
576	 15.4004
572	 15.2847
568	 15.325
564	 15.4057
560	 15.1636
556	 14.8321
552	 14.6067
548	 14.365
544	 14.3034
540	 14.4385
536	 14.4179
532	 14.2916
528	 14.1173
524	 13.899
520	 13.9522
516	 14.2661
512	 14.2491
508	 13.8698
504	 13.6733
500	 13.5967
496	 13.4994
492	 13.463
488	 13.2581
484	 13.1897
480	 13.5427
476	 13.3397
472	 12.6461
468	 12.6414
464	 12.7007
460	 12.2983
456	 12.2476
452	 12.5235
448	 12.1465
444	 11.039
440	 10.2453
436	 9.639191
432	 9.598016
428	 10.9681
424	 12.8148
420	 13.6002
416	 13.0647
412	 13.3848
408	 12.6426
404	 9.821581
400	 13.3581
396	 20.7101
392	 18.336
388	 10.1986
384	 11.3158
380	 16.9381
376	 8.088183
372	 -3.039169
370	 -6.593942