File: Bakgrunnsmateriale/MATLAB/FTIR/ftir_data/LPE453/Mapping_121/LPE453_t80.asc
PE IR       SPECTRUM    SPECTRUM    ASCII       PEDS        1.60
  -1
LPC3B9~1.ASC
17/05/16
20:55:38.00
17/05/16
20:56:04.00
tln
$LPE453_t0080$<tbV0>[7.8,5.2,8.0,0.0,27,1,0]
27.028
64

2002,4.07
MIRTGS : RIGHTBACK : INTERNAL 2
MIR : ON : INTERNAL 2
OPTKBR

0.200000
8
8.000000
FILLER
RATIO
SPECTRUM
UNLOCKED 256

DOUBLE
64
COMBINED
1
0
0

0.002000
RATIO

1
0
TRUE
51149
0
LEFT NOT FITTED RIGHT NOT FITTED 0
NONE
NONE
15600
12
4.427000
51148
TRUE
1 0 8 72 0 0 0 0

15798

#HDR
-1
-1
#GR
µM
%T
2.38419e-05
0.0
2.000000
0.002000
12515
8
31.2417
-11.2108
#DATA
2.000000	 0.062441
2.018000	 -0.156650
2.036000	 0.056863
2.054000	 0.303007
2.072000	 0.394713
2.090000	 0.063525
2.108000	 -0.244138
2.126000	 0.290887
2.144000	 1.215791
2.162000	 -0.778921
2.180000	 -0.671885
2.198000	 1.526643
2.216000	 1.025581
2.234000	 0.057149
2.252000	 0.563897
2.270000	 0.455588
2.288000	 0.210956
2.306000	 -0.138102
2.324000	 0.265651
2.342000	 -0.106847
2.360000	 -0.343866
2.378000	 0.087009
2.396000	 0.060019
2.414000	 -0.014588
2.432000	 0.230454
2.450000	 0.077238
2.468000	 -0.099818
2.486000	 0.218755
2.504000	 0.229182
2.522000	 0.246528
2.540000	 0.172796
2.558000	 0.110518
2.576000	 0.065485
2.594000	 0.064120
2.612000	 -0.092037
2.630000	 0.069758
2.648000	 0.083048
2.666000	 -0.034461
2.684000	 -0.012865
2.702000	 0.014945
2.720000	 0.143414
2.738000	 0.066930
2.756000	 0.158340
2.774000	 -0.047628
2.792000	 0.265045
2.810000	 0.106106
2.828000	 0.142668
2.846000	 0.114918
2.864000	 0.148988
2.882000	 0.046365
2.900000	 0.091038
2.918000	 0.028191
2.936000	 0.048328
2.954000	 0.205725
2.972000	 0.116588
2.990000	 -0.060159
3.008000	 0.129061
3.026000	 0.079243
3.044000	 0.151590
3.062000	 0.054824
3.080000	 0.191941
3.098000	 -0.048107
3.116000	 -0.089738
3.134000	 0.181439
3.152000	 0.039104
3.170000	 0.062470
3.188000	 0.053099
3.206000	 0.133061
3.224000	 -0.033137
3.242000	 0.097997
3.260000	 0.133419
3.278000	 0.037695
3.296000	 0.081535
3.314000	 -0.118939
3.332000	 0.063292
3.350000	 -0.075392
3.368000	 0.127840
3.386000	 -0.059716
3.404000	 0.023479
3.422000	 -0.048517
3.440000	 0.111519
3.458000	 0.008889
3.476000	 0.130832
3.494000	 0.026023
3.512000	 -0.041592
3.530000	 0.126710
3.548000	 -0.072732
3.566000	 0.021319
3.584000	 -0.042639
3.602000	 -0.056829
3.620000	 0.148319
3.638000	 0.037907
3.656000	 0.050905
3.674000	 0.132282
3.692000	 0.028757
3.710000	 -0.046109
3.728000	 0.023313
3.746000	 -0.015207
3.764000	 0.143610
3.782000	 0.101302
3.800000	 -0.117408
3.818000	 0.035029
3.836000	 0.022307
3.854000	 0.060842
3.872000	 0.083115
3.890000	 -0.005951
3.908000	 0.093871
3.926000	 0.067531
3.944000	 -0.070598
3.962000	 0.053836
3.980000	 0.116504
3.998000	 0.072811
4.016000	 0.173824
4.034000	 0.102441
4.052000	 0.054587
4.070000	 0.174660
4.088000	 -0.041694
4.106000	 -0.038708
4.124000	 -0.022197
4.141999	 0.134328
4.160000	 0.078488
4.178000	 0.037259
4.196000	 -0.034270
4.214000	 0.043551
4.232000	 0.012632
4.250000	 0.099547
4.268000	 0.132975
4.286000	 0.057214
4.304000	 0.081850
4.322000	 0.053278
4.340000	 0.099945
4.358000	 0.187378
4.375999	 0.302103
4.394000	 0.282669
4.412000	 0.348259
4.430000	 0.514183
4.448000	 0.754891
4.466000	 0.824664
4.484000	 1.133207
4.502000	 1.354474
4.520000	 1.708944
4.538000	 2.057970
4.556000	 2.576097
4.574000	 3.046617
4.592000	 3.679310
4.609999	 4.202843
4.628000	 4.763555
4.646000	 5.617506
4.664000	 6.459511
4.682000	 7.258993
4.700000	 8.063320
4.718000	 8.790675
4.736000	 9.700562
4.754000	 10.658
4.772000	 11.5674
4.790000	 12.3251
4.808000	 13.2377
4.826000	 14.1925
4.843999	 15.075
4.862000	 15.7507
4.880000	 16.6209
4.898000	 17.5574
4.916000	 18.3501
4.934000	 19.0379
4.952000	 19.7977
4.970000	 20.4687
4.988000	 21.21
5.006000	 21.7565
5.024000	 22.3236
5.042000	 22.9266
5.060000	 23.4261
5.077999	 23.9065
5.096000	 24.3336
5.114000	 24.8218
5.132000	 25.2942
5.150000	 25.5419
5.168000	 25.9651
5.186000	 26.3332
5.204000	 26.6455
5.222000	 26.9917
5.240000	 27.2462
5.258000	 27.4949
5.276000	 27.833
5.294000	 28.0801
5.312000	 28.2694
5.330000	 28.5158
5.348000	 28.7306
5.366000	 28.7857
5.384000	 28.9135
5.402000	 29.185
5.420000	 29.3555
5.438000	 29.4695
5.456000	 29.5367
5.474000	 29.6183
5.492000	 29.747
5.510000	 29.8011
5.528000	 29.9409
5.546000	 30.2172
5.564000	 30.328
5.582000	 30.2978
5.600000	 30.3573
5.618000	 30.4083
5.636000	 30.3898
5.654000	 30.4522
5.672000	 30.5466
5.690000	 30.5827
5.708000	 30.5789
5.726000	 30.654
5.744000	 30.7089
5.762000	 30.7252
5.780000	 30.6884
5.798000	 30.7011
5.816000	 30.8198
5.834000	 30.9315
5.852000	 30.9634
5.870000	 30.9509
5.888000	 30.9786
5.906000	 30.9812
5.923999	 30.8984
5.942000	 30.8719
5.960000	 30.987
5.978000	 31.0089
5.996000	 30.9845
6.014000	 31.1118
6.032000	 31.1436
6.050000	 31.0836
6.068000	 31.1111
6.086000	 31.1226
6.104000	 31.0636
6.122000	 31.0348
6.140000	 31.0015
6.158000	 31.0029
6.176000	 31.0563
6.194000	 31.1735
6.212000	 31.2417
6.230000	 31.1659
6.248000	 31.068
6.266000	 31.059
6.284000	 31.0918
6.302000	 31.0825
6.320000	 31.0421
6.338000	 31.0289
6.356000	 31.0118
6.374000	 30.9977
6.392000	 31.0201
6.410000	 31.0669
6.428000	 31.0674
6.446000	 31.069
6.464000	 31.0581
6.482000	 31.014
6.500000	 30.9951
6.518000	 30.9666
6.536000	 30.9346
6.554000	 30.9481
6.572000	 30.9915
6.590000	 31.0021
6.608000	 30.9573
6.626000	 30.9458
6.644000	 30.9734
6.662000	 30.9859
6.680000	 30.979
6.698000	 30.9121
6.716000	 30.8523
6.734000	 30.8423
6.752000	 30.848
6.770000	 30.8707
6.788000	 30.8821
6.806000	 30.8755
6.824000	 30.8406
6.842000	 30.7575
6.860000	 30.668
6.878000	 30.6147
6.896000	 30.6147
6.914000	 30.6714
6.932000	 30.7413
6.950000	 30.7577
6.968000	 30.7258
6.986000	 30.7063
7.004000	 30.7155
7.022000	 30.746
7.040000	 30.7826
7.058000	 30.7968
7.076000	 30.7533
7.094000	 30.6589
7.112000	 30.612
7.130000	 30.6416
7.148000	 30.6229
7.166000	 30.547
7.184000	 30.5498
7.202000	 30.623
7.220000	 30.6572
7.238000	 30.6376
7.256000	 30.6063
7.274000	 30.5911
7.292000	 30.6179
7.310000	 30.6717
7.328000	 30.6607
7.346000	 30.5441
7.364000	 30.4253
7.382000	 30.3901
7.400000	 30.3957
7.418000	 30.3904
7.436000	 30.3797
7.454000	 30.3876
7.472000	 30.4233
7.490000	 30.4567
7.508000	 30.4442
7.526000	 30.3895
7.544000	 30.3455
7.562000	 30.3338
7.580000	 30.3111
7.598000	 30.2562
7.616000	 30.2117
7.634000	 30.2006
7.652000	 30.208
7.670000	 30.2327
7.688000	 30.2679
7.706000	 30.2839
7.724000	 30.2755
7.742000	 30.2647
7.760000	 30.2554
7.778000	 30.2451
7.796000	 30.2445
7.814000	 30.2499
7.832000	 30.2363
7.850000	 30.196
7.868000	 30.1466
7.886000	 30.1048
7.904000	 30.0763
7.922000	 30.0581
7.940000	 30.0501
7.958000	 30.0641
7.976000	 30.0968
7.994000	 30.1096
8.012000	 30.075
8.030000	 30.0174
8.048000	 29.9759
8.065999	 29.9594
8.084000	 29.9617
8.102000	 29.9788
8.120000	 29.9951
8.138000	 29.9894
8.155999	 29.9667
8.173999	 29.9609
8.192000	 29.9885
8.210000	 30.0198
8.228000	 30.009
8.246000	 29.94
8.263999	 29.8394
8.282000	 29.7598
8.300000	 29.7378
8.318000	 29.7652
8.336000	 29.81
8.353999	 29.8443
8.372000	 29.8518
8.390000	 29.8345
8.408000	 29.813
8.426000	 29.8063
8.443999	 29.8106
8.462000	 29.805
8.480000	 29.7763
8.498000	 29.7275
8.516000	 29.6718
8.533999	 29.6251
8.552000	 29.5998
8.570000	 29.5961
8.588000	 29.5992
8.606000	 29.5915
8.624000	 29.5691
8.641999	 29.5449
8.660000	 29.5309
8.678000	 29.5239
8.696000	 29.5081
8.714000	 29.4738
8.731999	 29.4281
8.750000	 29.386
8.768000	 29.359
8.786000	 29.3507
8.804000	 29.3539
8.821999	 29.3526
8.840000	 29.3363
8.858000	 29.312
8.876000	 29.2975
8.894000	 29.2987
8.911999	 29.3062
8.930000	 29.3124
8.948000	 29.3211
8.966000	 29.3307
8.984000	 29.3248
9.001999	 29.2903
9.020000	 29.2375
9.038000	 29.1955
9.056000	 29.1851
9.074000	 29.203
9.092000	 29.2321
9.109999	 29.2574
9.128000	 29.2708
9.146000	 29.2669
9.164000	 29.2429
9.182000	 29.2017
9.199999	 29.1512
9.218000	 29.0974
9.236000	 29.0414
9.254000	 28.9834
9.272000	 28.9283
9.289999	 28.8863
9.308000	 28.8654
9.326000	 28.8651
9.344000	 28.8768
9.362000	 28.8886
9.379999	 28.8926
9.398000	 28.888
9.416000	 28.8811
9.434000	 28.879
9.452000	 28.8825
9.469999	 28.8849
9.488000	 28.8801
9.506000	 28.8734
9.524000	 28.8786
9.542000	 28.9003
9.560000	 28.9212
9.577999	 28.9112
9.596000	 28.8558
9.614000	 28.7736
9.632000	 28.7032
9.650000	 28.6706
9.667999	 28.6688
9.686000	 28.6674
9.704000	 28.6406
9.722000	 28.5867
9.740000	 28.5213
9.757999	 28.4594
9.776000	 28.4052
9.794000	 28.3591
9.812000	 28.3284
9.830000	 28.325
9.847999	 28.3504
9.866000	 28.3892
9.884000	 28.4176
9.902000	 28.421
9.920000	 28.4024
9.937999	 28.3786
9.956000	 28.365
9.974000	 28.3658
9.992000	 28.3747
10.01	28.3827
10.028	28.3833
10.046	28.3759
10.064	28.3622
10.082	28.3449
10.1	28.3254
10.118	28.3034
10.136	28.2778
10.154	28.2474
10.172	28.2104
10.19	28.1635
10.208	28.103
10.226	28.0287
10.244	27.9467
10.262	27.8728
10.28	27.8261
10.298	27.8208
10.316	27.8565
10.334	27.9165
10.352	27.9764
10.37	28.0138
10.388	28.0203
10.406	28.0022
10.424	27.9739
10.442	27.9486
10.46	27.9304
10.478	27.9146
10.496	27.8925
10.514	27.8586
10.532	27.814
10.55	27.7666
10.568	27.7251
10.586	27.6933
10.604	27.6663
10.622	27.6343
10.64	27.5892
10.658	27.5313
10.676	27.471
10.694	27.4229
10.712	27.3987
10.73	27.4002
10.748	27.4187
10.766	27.4397
10.784	27.4505
10.802	27.4449
10.82	27.4244
10.838	27.3965
10.856	27.3709
10.874	27.3565
10.892	27.3581
10.91	27.3759
10.928	27.4051
10.946	27.4367
10.964	27.4606
10.982	27.4681
11	27.454
11.018	27.4182
11.036	27.3653
11.054	27.3027
11.072	27.2384
11.09	27.1786
11.108	27.126
11.126	27.0792
11.144	27.0344
11.162	26.9864
11.18	26.9313
11.198	26.8684
11.216	26.8015
11.234	26.7377
11.252	26.6864
11.27	26.6559
11.288	26.6515
11.306	26.6732
11.324	26.7146
11.342	26.7647
11.36	26.8107
11.378	26.8405
11.396	26.8467
11.414	26.8273
11.432	26.7852
11.45	26.7272
11.468	26.6631
11.486	26.603
11.504	26.5566
11.522	26.5312
11.54	26.5297
11.558	26.5496
11.576	26.5839
11.594	26.6236
11.612	26.6589
11.63	26.6828
11.648	26.6929
11.666	26.6902
11.684	26.6785
11.702	26.6615
11.72	26.6425
11.738	26.6232
11.756	26.6038
11.774	26.5839
11.792	26.5611
11.81	26.5326
11.828	26.4949
11.846	26.4461
11.864	26.3864
11.882	26.3186
11.9	26.2471
11.918	26.1769
11.936	26.1121
11.954	26.0546
11.972	26.0053
11.99	25.9637
12.008	25.9301
12.026	25.9054
12.044	25.891
12.062	25.8882
12.08	25.8973
12.098	25.9166
12.116	25.943
12.134	25.9719
12.152	25.9984
12.17	26.0172
12.188	26.0231
12.206	26.0115
12.224	25.9794
12.242	25.9272
12.26	25.8585
12.278	25.7805
12.296	25.7031
12.314	25.6361
12.332	25.5872
12.35	25.5601
12.368	25.5538
12.386	25.5634
12.404	25.5814
12.422	25.6008
12.44	25.6168
12.458	25.6279
12.476	25.6353
12.494	25.6419
12.512	25.6511
12.53	25.6641
12.548	25.6799
12.566	25.6952
12.584	25.7049
12.602	25.7031
12.62	25.6855
12.638	25.6504
12.656	25.5996
12.674	25.5382
12.692	25.4729
12.71	25.4097
12.728	25.3535
12.746	25.3065
12.764	25.2682
12.782	25.2368
12.8	25.2102
12.818	25.1874
12.836	25.1685
12.854	25.1552
12.872	25.1487
12.89	25.1496
12.908	25.1572
12.926	25.1691
12.944	25.1814
12.962	25.191
12.98	25.1956
12.998	25.1947
13.016	25.1887
13.034	25.1787
13.052	25.1655
13.07	25.1493
13.088	25.1301
13.106	25.1081
13.124	25.0847
13.142	25.0624
13.16	25.0443
13.178	25.0337
13.196	25.0324
13.214	25.0404
13.232	25.0548
13.25	25.0703
13.268	25.0809
13.286	25.0803
13.304	25.064
13.322	25.0297
13.34	24.9784
13.358	24.9132
13.376	24.8386
13.394	24.7592
13.412	24.6794
13.43	24.6024
13.448	24.5302
13.466	24.464
13.484	24.4044
13.502	24.3518
13.52	24.3062
13.538	24.2675
13.556	24.2355
13.574	24.2097
13.592	24.1897
13.61	24.1744
13.628	24.1629
13.646	24.1541
13.664	24.1471
13.682	24.1409
13.7	24.1349
13.718	24.1289
13.736	24.1235
13.754	24.1191
13.772	24.1164
13.79	24.1162
13.808	24.1193
13.826	24.1258
13.844	24.1353
13.862	24.1469
13.88	24.1591
13.898	24.1702
13.916	24.1788
13.934	24.1834
13.952	24.183
13.97	24.1774
13.988	24.1667
14.006	24.1514
14.024	24.1319
14.042	24.1085
14.06	24.0816
14.078	24.0512
14.096	24.0175
14.114	23.9809
14.132	23.9419
14.15	23.9016
14.168	23.8609
14.186	23.8209
14.204	23.7824
14.222	23.7456
14.24	23.7101
14.258	23.6752
14.276	23.6399
14.294	23.6034
14.312	23.5659
14.33	23.528
14.348	23.4914
14.366	23.4585
14.384	23.4323
14.402	23.4152
14.42	23.4088
14.438	23.4132
14.456	23.4271
14.474	23.4477
14.492	23.4716
14.51	23.4943
14.528	23.5117
14.546	23.5207
14.564	23.5195
14.582	23.5075
14.6	23.4853
14.618	23.4547
14.636	23.418
14.654	23.3782
14.672	23.3374
14.69	23.2978
14.708	23.2611
14.726	23.2285
14.744	23.2012
14.762	23.1803
14.78	23.167
14.798	23.1621
14.816	23.1669
14.834	23.1818
14.852	23.2068
14.87	23.2407
14.888	23.2817
14.906	23.327
14.924	23.3731
14.942	23.416
14.96	23.4515
14.978	23.4764
14.996	23.4884
15.014	23.4859
15.032	23.469
15.05	23.4392
15.068	23.3992
15.086	23.3518
15.104	23.3006
15.122	23.2492
15.14	23.2002
15.158	23.1552
15.176	23.1151
15.194	23.0797
15.212	23.0476
15.23	23.0177
15.248	22.9887
15.266	22.9596
15.284	22.9299
15.302	22.8999
15.32	22.87
15.338	22.8408
15.356	22.8131
15.374	22.7874
15.392	22.7636
15.41	22.7413
15.428	22.7196
15.446	22.6972
15.464	22.6727
15.482	22.645
15.5	22.6134
15.518	22.5775
15.536	22.5384
15.554	22.4969
15.572	22.4545
15.59	22.4137
15.608	22.3766
15.626	22.3449
15.644	22.3206
15.662	22.3044
15.68	22.2963
15.698	22.2957
15.716	22.3011
15.734	22.3098
15.752	22.3194
15.77	22.3274
15.788	22.3299
15.806	22.3245
15.824	22.3095
15.842	22.2831
15.86	22.2452
15.878	22.1968
15.896	22.1396
15.914	22.0769
15.932	22.0128
15.95	21.9508
15.968	21.8952
15.986	21.8501
16.004	21.8173
16.022	21.7984
16.04	21.7933
16.058	21.8
16.076	21.8165
16.094	21.8386
16.112	21.8618
16.13	21.8827
16.148	21.8971
16.166	21.9014
16.184	21.8942
16.202	21.8738
16.22	21.8405
16.238	21.7953
16.256	21.7395
16.274	21.6767
16.292	21.6095
16.31	21.5408
16.328	21.4747
16.346	21.4137
16.364	21.3599
16.382	21.3159
16.4	21.2825
16.418	21.2603
16.436	21.2494
16.454	21.2486
16.472	21.257
16.49	21.2723
16.508	21.2921
16.526	21.3147
16.544	21.3365
16.562	21.3556
16.58	21.37
16.598	21.3774
16.616	21.3769
16.634	21.3679
16.652	21.3502
16.67	21.325
16.688	21.2929
16.706	21.2564
16.724	21.2168
16.742	21.1764
16.76	21.1378
16.778	21.1024
16.796	21.0724
16.814	21.0491
16.832	21.0332
16.85	21.0253
16.868	21.0252
16.886	21.0328
16.904	21.0465
16.922	21.065
16.94	21.0869
16.958	21.1093
16.976	21.1308
16.994	21.1482
17.012	21.1595
17.03	21.1628
17.048	21.1558
17.066	21.1379
17.084	21.1077
17.102	21.0655
17.12	21.0113
17.138	20.9466
17.156	20.8732
17.174	20.7925
17.192	20.7086
17.21	20.623
17.228	20.5397
17.246	20.4614
17.264	20.3904
17.282	20.33
17.3	20.2812
17.318	20.246
17.336	20.2245
17.354	20.2171
17.372	20.223
17.39	20.2414
17.408	20.2704
17.426	20.3079
17.444	20.3525
17.462	20.4006
17.48	20.4512
17.498	20.5009
17.516	20.5483
17.534	20.5916
17.552	20.6289
17.57	20.6595
17.588	20.682
17.606	20.6963
17.624	20.7021
17.642	20.6995
17.66	20.6887
17.678	20.6708
17.696	20.6462
17.714	20.6159
17.732	20.5808
17.75	20.5418
17.768	20.4997
17.786	20.4549
17.804	20.4085
17.822	20.3608
17.84	20.3123
17.858	20.263
17.876	20.2134
17.894	20.1634
17.912	20.1131
17.93	20.0626
17.948	20.0118
17.966	19.9609
17.984	19.9099
18.002	19.8591
18.02	19.8088
18.038	19.7592
18.056	19.7111
18.074	19.6646
18.092	19.6211
18.11	19.5805
18.128	19.5443
18.146	19.5127
18.164	19.4868
18.182	19.4669
18.2	19.4538
18.218	19.4474
18.236	19.4479
18.254	19.4547
18.272	19.4677
18.29	19.4854
18.308	19.5075
18.326	19.532
18.344	19.5585
18.362	19.5845
18.38	19.6095
18.398	19.6316
18.416	19.6501
18.434	19.6637
18.452	19.6721
18.47	19.6745
18.488	19.6715
18.506	19.663
18.524	19.6502
18.542	19.6331
18.56	19.6138
18.578	19.5924
18.596	19.5709
18.614	19.5495
18.632	19.5299
18.65	19.5122
18.668	19.4974
18.686	19.4853
18.704	19.476
18.722	19.4693
18.74	19.4645
18.758	19.4613
18.776	19.4588
18.794	19.4566
18.812	19.4537
18.83	19.45
18.848	19.4446
18.866	19.4377
18.884	19.4289
18.902	19.4184
18.92	19.4065
18.938	19.3935
18.956	19.3799
18.974	19.3661
18.992	19.3526
19.01	19.3399
19.028	19.3286
19.046	19.3188
19.064	19.3112
19.082	19.3057
19.1	19.3027
19.118	19.3021
19.136	19.3038
19.154	19.3077
19.172	19.3137
19.19	19.3216
19.208	19.331
19.226	19.3418
19.244	19.3535
19.262	19.3661
19.28	19.3789
19.298	19.3919
19.316	19.4045
19.334	19.4167
19.352	19.4281
19.37	19.4386
19.388	19.4476
19.406	19.4552
19.424	19.4609
19.442	19.4647
19.46	19.4665
19.478	19.4662
19.496	19.4637
19.514	19.4589
19.532	19.4521
19.55	19.4434
19.568	19.4328
19.586	19.4204
19.604	19.4064
19.622	19.3909
19.64	19.374
19.658	19.3555
19.676	19.3356
19.694	19.3141
19.712	19.2912
19.73	19.2663
19.748	19.2395
19.766	19.2104
19.784	19.1789
19.802	19.1447
19.82	19.1075
19.838	19.0673
19.856	19.0239
19.874	18.9774
19.892	18.9277
19.91	18.8749
19.928	18.8192
19.946	18.7606
19.964	18.6999
19.982	18.6368
20	18.5723
20.018	18.5066
20.036	18.4403
20.054	18.3743
20.072	18.3086
20.09	18.2445
20.108	18.1818
20.126	18.1217
20.144	18.0642
20.162	18.0101
20.18	17.9596
20.198	17.9128
20.216	17.8701
20.234	17.8314
20.252	17.7968
20.27	17.7663
20.288	17.7392
20.306	17.7157
20.324	17.6951
20.342	17.677
20.36	17.6614
20.378	17.6471
20.396	17.6345
20.414	17.6228
20.432	17.612
20.45	17.6018
20.468	17.5919
20.486	17.5824
20.504	17.5733
20.522	17.5646
20.54	17.5567
20.558	17.5493
20.576	17.5432
20.594	17.5383
20.612	17.5349
20.63	17.5332
20.648	17.5334
20.666	17.5356
20.684	17.5399
20.702	17.5461
20.72	17.5542
20.738	17.564
20.756	17.5752
20.774	17.5877
20.792	17.6007
20.81	17.6138
20.828	17.6267
20.846	17.6389
20.864	17.6504
20.882	17.6607
20.9	17.6698
20.918	17.678
20.936	17.6851
20.954	17.6914
20.972	17.6976
20.99	17.7032
21.008	17.7095
21.026	17.7168
21.044	17.7251
21.062	17.7358
21.08	17.7486
21.098	17.7641
21.116	17.7828
21.134	17.8046
21.152	17.8296
21.17	17.858
21.188	17.8888
21.206	17.9224
21.224	17.9578
21.242	17.9937
21.26	18.0307
21.278	18.0663
21.296	18.1007
21.314	18.1328
21.332	18.1608
21.35	18.1852
21.368	18.204
21.386	18.2168
21.404	18.2235
21.422	18.2229
21.44	18.2152
21.458	18.2004
21.476	18.1783
21.494	18.1492
21.512	18.1145
21.53	18.0735
21.548	18.0282
21.566	17.9798
21.584	17.9281
21.602	17.8765
21.62	17.8245
21.638	17.7738
21.656	17.7272
21.674	17.6837
21.692	17.646
21.71	17.6146
21.728	17.5895
21.746	17.573
21.764	17.5649
21.782	17.5648
21.8	17.573
21.818	17.5894
21.836	17.6123
21.854	17.6424
21.872	17.678
21.89	17.7159
21.908	17.7574
21.926	17.7988
21.944	17.8378
21.962	17.8752
21.98	17.9057
21.998	17.9295
22.016	17.9452
22.034	17.9484
22.052	17.9405
22.07	17.9195
22.088	17.8835
22.106	17.8333
22.124	17.7686
22.142	17.6886
22.16	17.5944
22.178	17.4886
22.196	17.3696
22.214	17.2406
22.232	17.1054
22.25	16.9617
22.268	16.8153
22.286	16.669
22.304	16.5212
22.322	16.3788
22.34	16.242
22.358	16.1115
22.376	15.9927
22.394	15.8845
22.412	15.7884
22.43	15.7073
22.448	15.6404
22.466	15.5878
22.484	15.5506
22.502	15.5284
22.52	15.5195
22.538	15.5238
22.556	15.541
22.574	15.5676
22.592	15.6038
22.61	15.6486
22.628	15.6974
22.646	15.7512
22.664	15.8083
22.682	15.8643
22.7	15.9208
22.718	15.9755
22.736	16.0253
22.754	16.0715
22.772	16.1123
22.79	16.1457
22.808	16.1726
22.826	16.1921
22.844	16.2032
22.862	16.2064
22.88	16.2015
22.898	16.1881
22.916	16.1664
22.934	16.1369
22.952	16.0995
22.97	16.0543
22.988	16.0025
23.006	15.944
23.024	15.8789
23.042	15.8086
23.06	15.733
23.078	15.6522
23.096	15.5672
23.114	15.4781
23.132	15.385
23.15	15.2889
23.168	15.1897
23.186	15.0876
23.204	14.9842
23.222	14.8791
23.24	14.7727
23.258	14.6668
23.276	14.5609
23.294	14.4555
23.312	14.3527
23.33	14.2519
23.348	14.1537
23.366	14.06
23.384	13.9708
23.402	13.886
23.42	13.8074
23.438	13.7348
23.456	13.6682
23.474	13.609
23.492	13.5572
23.51	13.5128
23.528	13.4763
23.546	13.4481
23.564	13.4279
23.582	13.4157
23.6	13.4117
23.618	13.4158
23.636	13.427
23.654	13.4449
23.672	13.4699
23.69	13.5008
23.708	13.5369
23.726	13.5788
23.744	13.6252
23.762	13.6752
23.78	13.7294
23.798	13.7868
23.816	13.8464
23.834	13.9087
23.852	13.9731
23.87	14.0385
23.888	14.1056
23.906	14.1736
23.924	14.2407
23.942	14.3074
23.96	14.3734
23.978	14.4365
23.996	14.4964
24.014	14.5536
24.032	14.6058
24.05	14.6515
24.068	14.6921
24.086	14.7257
24.104	14.7507
24.122	14.7679
24.14	14.7769
24.158	14.7767
24.176	14.767
24.194	14.7485
24.212	14.7222
24.23	14.6876
24.248	14.645
24.266	14.5964
24.284	14.5428
24.302	14.4827
24.32	14.4195
24.338	14.3565
24.356	14.2905
24.374	14.2252
24.392	14.1664
24.41	14.1121
24.428	14.063
24.446	14.025
24.464	14.0004
24.482	13.9863
24.5	13.9866
24.518	14.0048
24.536	14.0391
24.554	14.0899
24.572	14.159
24.59	14.2466
24.608	14.3518
24.626	14.4739
24.644	14.6136
24.662	14.7713
24.68	14.943
24.698	15.1254
24.716	15.322
24.734	15.5289
24.752	15.7395
24.77	15.955
24.788	16.1763
24.806	16.3948
24.824	16.6049
24.842	16.8124
24.86	17.0113
24.878	17.1937
24.896	17.3627
24.914	17.5175
24.932	17.6508
24.95	17.759
24.968	17.8466
24.986	17.909
25.004	17.941
25.022	17.9442
25.04	17.9191
25.058	17.8636
25.076	17.7762
25.094	17.658
25.112	17.5102
25.13	17.3342
25.148	17.127
25.166	16.8918
25.184	16.6345
25.202	16.3563
25.22	16.0531
25.238	15.7338
25.256	15.4079
25.274	15.0693
25.292	14.7212
25.31	14.3743
25.328	14.0347
25.346	13.6946
25.364	13.3619
25.382	13.0458
25.4	12.7424
25.418	12.4518
25.436	12.184
25.454	11.9464
25.472	11.7311
25.49	11.5441
25.508	11.3945
25.526	11.2847
25.544	11.2101
25.562	11.174
25.58	11.1799
25.598	11.2287
25.616	11.3173
25.634	11.4424
25.652	11.6035
25.67	11.8049
25.688	12.0379
25.706	12.2928
25.724	12.5726
25.742	12.8799
25.76	13.1994
25.778	13.5176
25.796	13.8463
25.814	14.179
25.832	14.4987
25.85	14.795
25.868	15.0822
25.886	15.3478
25.904	15.5757
25.922	15.7626
25.94	15.9178
25.958	16.0303
25.976	16.089
25.994	16.0968
26.012	16.0559
26.03	15.9613
26.048	15.8082
26.066	15.5983
26.084	15.3333
26.102	15.0141
26.12	14.6401
26.138	14.2085
26.156	13.7258
26.174	13.1989
26.192	12.6293
26.21	12.0117
26.228	11.3549
26.246	10.6678
26.264	9.947766
26.282	9.191883
26.3	8.412367
26.318	7.621025
26.336	6.807514
26.354	5.974749
26.372	5.141479
26.39	4.324737
26.408	3.511428
26.426	2.705469
26.444	1.922381
26.462	1.174745
26.48	0.449547
26.498	-0.246983
26.516	-0.901820
26.534	-1.504657
26.552	-2.062983
26.57	-2.576958
26.588	-3.044365
26.606	-3.461302
26.624	-3.823901
26.642	-4.143444
26.66	-4.432548
26.678	-4.696109
26.696	-4.920773
26.714	-5.121511
26.732	-5.315912
26.75	-5.509272
26.768	-5.683259
26.786	-5.859670
26.804	-6.063233
26.822	-6.307450
26.84	-6.575249
26.858	-6.872197
26.876	-7.205835
26.894	-7.583978
26.912	-8.005836
26.93	-8.459693
26.948	-8.933522
26.966	-9.446480
26.984	-10.0455
27.002	-10.6299
27.02	-11.0892
27.028	-11.2108