File: Bakgrunnsmateriale/MATLAB/FTIR/ftir_data/LPE453/Mapping_121/LPE453_t96.asc
PE IR       SPECTRUM    SPECTRUM    ASCII       PEDS        1.60
  -1
LPD7B1~1.ASC
17/05/16
22:15:53.00
17/05/16
22:16:19.00
tln
$LPE453_t0096$<tbV0>[-5.2,7.8,8.0,0.0,27,1,0]
27.028
64

2002,4.07
MIRTGS : RIGHTBACK : INTERNAL 2
MIR : ON : INTERNAL 2
OPTKBR

0.200000
8
8.000000
FILLER
RATIO
SPECTRUM
UNLOCKED 256

DOUBLE
64
COMBINED
1
0
0

0.002000
RATIO

1
0
TRUE
51149
0
LEFT NOT FITTED RIGHT NOT FITTED 0
NONE
NONE
15600
12
4.427000
51148
TRUE
1 0 8 72 0 0 0 0

15798

#HDR
-1
-1
#GR
µM
%T
2.38419e-05
0.0
2.000000
0.002000
12515
8
40.3939
-3.051344
#DATA
2.000000	 0.146317
2.018000	 0.291295
2.036000	 -0.037446
2.054000	 0.234883
2.072000	 0.306858
2.090000	 0.283538
2.108000	 0.376573
2.126000	 -0.130753
2.144000	 0.460506
2.162000	 1.804323
2.180000	 0.537876
2.198000	 -0.389937
2.216000	 7.793638
2.234000	 -1.418764
2.252000	 -0.904547
2.270000	 0.301463
2.288000	 0.894251
2.306000	 0.171655
2.324000	 0.111378
2.342000	 0.078185
2.360000	 0.186947
2.378000	 0.305854
2.396000	 0.016402
2.414000	 0.318661
2.432000	 0.035613
2.450000	 0.065879
2.468000	 0.150872
2.486000	 -0.011345
2.504000	 0.251621
2.522000	 0.142581
2.540000	 0.145022
2.558000	 -0.129005
2.576000	 0.088019
2.594000	 0.088110
2.612000	 0.135661
2.630000	 -0.082835
2.648000	 0.013762
2.666000	 0.120097
2.684000	 0.094787
2.702000	 0.026471
2.720000	 0.222445
2.738000	 -0.024797
2.756000	 0.012243
2.774000	 0.117437
2.792000	 0.144961
2.810000	 0.187328
2.828000	 0.143187
2.846000	 0.019324
2.864000	 0.037834
2.882000	 0.058069
2.900000	 0.057678
2.918000	 0.033774
2.936000	 0.093521
2.954000	 0.018983
2.972000	 -0.072110
2.990000	 0.122457
3.008000	 0.301625
3.026000	 0.054879
3.044000	 0.051313
3.062000	 0.077019
3.080000	 -0.057487
3.098000	 0.205248
3.116000	 0.125537
3.134000	 -0.104827
3.152000	 0.030669
3.170000	 0.019230
3.188000	 0.090357
3.206000	 0.133225
3.224000	 0.035137
3.242000	 0.013836
3.260000	 0.111607
3.278000	 -0.013650
3.296000	 0.012710
3.314000	 0.048184
3.332000	 0.053240
3.350000	 -0.044615
3.368000	 -0.082269
3.386000	 0.098352
3.404000	 0.068058
3.422000	 0.063498
3.440000	 0.009934
3.458000	 0.082697
3.476000	 0.190070
3.494000	 -0.006041
3.512000	 -0.014784
3.530000	 0.048033
3.548000	 0.045272
3.566000	 -0.015573
3.584000	 0.047531
3.602000	 0.012562
3.620000	 -0.045237
3.638000	 0.048980
3.656000	 0.143611
3.674000	 0.096400
3.692000	 0.034012
3.710000	 0.016755
3.728000	 -0.009005
3.746000	 0.019070
3.764000	 -0.019198
3.782000	 0.045149
3.800000	 0.003713
3.818000	 0.044474
3.836000	 0.068351
3.854000	 0.192764
3.872000	 0.058254
3.890000	 0.066323
3.908000	 -0.038006
3.926000	 0.006526
3.944000	 0.076561
3.962000	 0.022137
3.980000	 0.055743
3.998000	 0.019586
4.016000	 -0.044203
4.034000	 -0.040690
4.052000	 0.145754
4.070000	 0.101121
4.088000	 0.123733
4.106000	 0.134638
4.124000	 0.056198
4.141999	 -0.104451
4.160000	 0.042572
4.178000	 0.106591
4.196000	 0.188049
4.214000	 0.202070
4.232000	 0.166929
4.250000	 0.265800
4.268000	 0.351211
4.286000	 0.416151
4.304000	 0.605822
4.322000	 0.614221
4.340000	 0.832908
4.358000	 0.972463
4.375999	 1.158748
4.394000	 1.567988
4.412000	 1.776303
4.430000	 2.123750
4.448000	 2.608816
4.466000	 3.139402
4.484000	 3.644897
4.502000	 4.195069
4.520000	 4.907408
4.538000	 5.592044
4.556000	 6.369955
4.574000	 7.304200
4.592000	 8.148980
4.609999	 9.154396
4.628000	 10.1368
4.646000	 11.1999
4.664000	 12.2591
4.682000	 13.329
4.700000	 14.5812
4.718000	 15.6801
4.736000	 16.8068
4.754000	 17.9325
4.772000	 18.8191
4.790000	 19.883
4.808000	 21.0366
4.826000	 22.094
4.843999	 22.9333
4.862000	 23.9735
4.880000	 24.9112
4.898000	 25.6446
4.916000	 26.2584
4.934000	 26.923
4.952000	 27.8146
4.970000	 28.79
4.988000	 29.4342
5.006000	 30.0449
5.024000	 30.3826
5.042000	 30.6702
5.060000	 31.0956
5.077999	 31.633
5.096000	 32.2391
5.114000	 32.839
5.132000	 33.2796
5.150000	 33.5994
5.168000	 33.7752
5.186000	 33.7811
5.204000	 33.8624
5.222000	 34.1417
5.240000	 34.546
5.258000	 35.0801
5.276000	 35.5189
5.294000	 35.7987
5.312000	 35.8916
5.330000	 35.8539
5.348000	 35.7397
5.366000	 35.6579
5.384000	 35.8161
5.402000	 36.0559
5.420000	 36.3817
5.438000	 36.8545
5.456000	 37.1586
5.474000	 37.2486
5.492000	 37.1522
5.510000	 36.8833
5.528000	 36.6527
5.546000	 36.5904
5.564000	 36.6608
5.582000	 36.8609
5.600000	 37.1158
5.618000	 37.4412
5.636000	 37.6906
5.654000	 37.7649
5.672000	 37.7163
5.690000	 37.5279
5.708000	 37.2679
5.726000	 37.0908
5.744000	 37.0517
5.762000	 37.1299
5.780000	 37.4219
5.798000	 37.7189
5.816000	 37.9486
5.834000	 38.1247
5.852000	 38.0889
5.870000	 37.9129
5.888000	 37.721
5.906000	 37.5237
5.923999	 37.354
5.942000	 37.2807
5.960000	 37.2734
5.978000	 37.4087
5.996000	 37.7051
6.014000	 37.9414
6.032000	 38.0883
6.050000	 38.174
6.068000	 38.183
6.086000	 38.0722
6.104000	 37.8519
6.122000	 37.6552
6.140000	 37.4821
6.158000	 37.3784
6.176000	 37.2989
6.194000	 37.3162
6.212000	 37.4389
6.230000	 37.641
6.248000	 37.9426
6.266000	 38.2142
6.284000	 38.3654
6.302000	 38.3733
6.320000	 38.1883
6.338000	 37.8264
6.356000	 37.5221
6.374000	 37.3663
6.392000	 37.3085
6.410000	 37.3407
6.428000	 37.4097
6.446000	 37.4916
6.464000	 37.6121
6.482000	 37.761
6.500000	 37.9375
6.518000	 38.1509
6.536000	 38.2624
6.554000	 38.2194
6.572000	 38.0927
6.590000	 37.9523
6.608000	 37.7895
6.626000	 37.5233
6.644000	 37.2813
6.662000	 37.1473
6.680000	 37.053
6.698000	 37.0719
6.716000	 37.2421
6.734000	 37.5061
6.752000	 37.8118
6.770000	 38.066
6.788000	 38.1847
6.806000	 38.2016
6.824000	 38.2108
6.842000	 38.1869
6.860000	 38.0392
6.878000	 37.7854
6.896000	 37.5344
6.914000	 37.3182
6.932000	 37.1644
6.950000	 37.1281
6.968000	 37.1508
6.986000	 37.1447
7.004000	 37.1528
7.022000	 37.2766
7.040000	 37.484
7.058000	 37.6658
7.076000	 37.8068
7.094000	 37.9275
7.112000	 38.0027
7.130000	 37.9988
7.148000	 37.8945
7.166000	 37.7028
7.184000	 37.4806
7.202000	 37.2882
7.220000	 37.1499
7.238000	 37.0275
7.256000	 36.8821
7.274000	 36.7698
7.292000	 36.7723
7.310000	 36.8684
7.328000	 36.9779
7.346000	 37.0984
7.364000	 37.2681
7.382000	 37.4519
7.400000	 37.6112
7.418000	 37.7667
7.436000	 37.8847
7.454000	 37.8851
7.472000	 37.7761
7.490000	 37.6253
7.508000	 37.453
7.526000	 37.2558
7.544000	 37.0482
7.562000	 36.8424
7.580000	 36.6605
7.598000	 36.5573
7.616000	 36.5642
7.634000	 36.6381
7.652000	 36.7144
7.670000	 36.7918
7.688000	 36.9183
7.706000	 37.1089
7.724000	 37.3301
7.742000	 37.544
7.760000	 37.7115
7.778000	 37.7951
7.796000	 37.8036
7.814000	 37.7767
7.832000	 37.713
7.850000	 37.5832
7.868000	 37.3942
7.886000	 37.1802
7.904000	 36.9641
7.922000	 36.7683
7.940000	 36.6113
7.958000	 36.4864
7.976000	 36.392
7.994000	 36.3508
8.012000	 36.3631
8.030000	 36.399
8.048000	 36.4638
8.065999	 36.5964
8.084000	 36.7929
8.102000	 37.001
8.120000	 37.1882
8.138000	 37.3465
8.155999	 37.4529
8.173999	 37.4939
8.192000	 37.5058
8.210000	 37.5296
8.228000	 37.5492
8.246000	 37.5192
8.263999	 37.4277
8.282000	 37.2858
8.300000	 37.0906
8.318000	 36.8467
8.336000	 36.6011
8.353999	 36.4083
8.372000	 36.2812
8.390000	 36.205
8.408000	 36.1782
8.426000	 36.2066
8.443999	 36.278
8.462000	 36.3678
8.480000	 36.4656
8.498000	 36.5819
8.516000	 36.7309
8.533999	 36.9083
8.552000	 37.0826
8.570000	 37.2108
8.588000	 37.2755
8.606000	 37.2982
8.624000	 37.3112
8.641999	 37.3249
8.660000	 37.3259
8.678000	 37.2963
8.696000	 37.2218
8.714000	 37.0922
8.731999	 36.9116
8.750000	 36.7049
8.768000	 36.5051
8.786000	 36.3331
8.804000	 36.1938
8.821999	 36.0883
8.840000	 36.0194
8.858000	 35.9819
8.876000	 35.9586
8.894000	 35.9363
8.911999	 35.9244
8.930000	 35.953
8.948000	 36.0459
8.966000	 36.1948
8.984000	 36.362
9.001999	 36.5088
9.020000	 36.6195
9.038000	 36.7084
9.056000	 36.8032
9.074000	 36.9215
9.092000	 37.0538
9.109999	 37.168
9.128000	 37.2311
9.146000	 37.231
9.164000	 37.1784
9.182000	 37.093
9.199999	 36.9901
9.218000	 36.8794
9.236000	 36.7705
9.254000	 36.6698
9.272000	 36.5726
9.289999	 36.4602
9.308000	 36.3136
9.326000	 36.1312
9.344000	 35.9318
9.362000	 35.7429
9.379999	 35.588
9.398000	 35.4845
9.416000	 35.4459
9.434000	 35.4781
9.452000	 35.5703
9.469999	 35.6932
9.488000	 35.8122
9.506000	 35.9056
9.524000	 35.9746
9.542000	 36.0365
9.560000	 36.11
9.577999	 36.2064
9.596000	 36.3275
9.614000	 36.4646
9.632000	 36.5991
9.650000	 36.7043
9.667999	 36.7552
9.686000	 36.7398
9.704000	 36.6661
9.722000	 36.5607
9.740000	 36.4577
9.757999	 36.3823
9.776000	 36.3388
9.794000	 36.3088
9.812000	 36.2624
9.830000	 36.1742
9.847999	 36.0359
9.866000	 35.8589
9.884000	 35.6674
9.902000	 35.4879
9.920000	 35.3395
9.937999	 35.2287
9.956000	 35.1505
9.974000	 35.0955
9.992000	 35.0581
10.01	35.0403
10.028	35.0487
10.046	35.0883
10.064	35.1563
10.082	35.243
10.1	35.337
10.118	35.4305
10.136	35.5229
10.154	35.6189
10.172	35.7237
10.19	35.8394
10.208	35.9613
10.226	36.0783
10.244	36.176
10.262	36.242
10.28	36.2715
10.298	36.2676
10.316	36.2395
10.334	36.1971
10.352	36.1479
10.37	36.0958
10.388	36.0434
10.406	35.992
10.424	35.9414
10.442	35.8879
10.46	35.8246
10.478	35.7441
10.496	35.6426
10.514	35.5218
10.532	35.3889
10.55	35.253
10.568	35.1226
10.586	35.0039
10.604	34.9013
10.622	34.8178
10.64	34.7543
10.658	34.7097
10.676	34.6818
10.694	34.6694
10.712	34.673
10.73	34.6955
10.748	34.7401
10.766	34.8075
10.784	34.8943
10.802	34.9922
10.82	35.0906
10.838	35.1788
10.856	35.2504
10.874	35.3046
10.892	35.3482
10.91	35.393
10.928	35.4502
10.946	35.5255
10.964	35.6133
10.982	35.6983
11	35.7615
11.018	35.7873
11.036	35.771
11.054	35.7198
11.072	35.6476
11.09	35.5703
11.108	35.4978
11.126	35.4322
11.144	35.3693
11.162	35.3018
11.18	35.2226
11.198	35.127
11.216	35.0141
11.234	34.8864
11.252	34.7497
11.27	34.6118
11.288	34.481
11.306	34.3634
11.324	34.262
11.342	34.1758
11.36	34.1009
11.378	34.0326
11.396	33.9673
11.414	33.9046
11.432	33.8482
11.45	33.8043
11.468	33.7811
11.486	33.7858
11.504	33.823
11.522	33.8932
11.54	33.9925
11.558	34.1127
11.576	34.2431
11.594	34.3731
11.612	34.4928
11.63	34.5958
11.648	34.6796
11.666	34.7445
11.684	34.7938
11.702	34.831
11.72	34.86
11.738	34.8829
11.756	34.901
11.774	34.9146
11.792	34.9232
11.81	34.9261
11.828	34.9225
11.846	34.9116
11.864	34.8931
11.882	34.8662
11.9	34.8309
11.918	34.7864
11.936	34.732
11.954	34.6671
11.972	34.5908
11.99	34.5013
12.008	34.3974
12.026	34.2777
12.044	34.1426
12.062	33.9954
12.08	33.8436
12.098	33.6971
12.116	33.5673
12.134	33.4639
12.152	33.3923
12.17	33.3524
12.188	33.3382
12.206	33.3404
12.224	33.3478
12.242	33.3504
12.26	33.3412
12.278	33.3166
12.296	33.2768
12.314	33.2251
12.332	33.1673
12.35	33.1104
12.368	33.0619
12.386	33.0287
12.404	33.0156
12.422	33.0243
12.44	33.0534
12.458	33.099
12.476	33.1561
12.494	33.22
12.512	33.2881
12.53	33.3603
12.548	33.439
12.566	33.5271
12.584	33.6272
12.602	33.7392
12.62	33.8596
12.638	33.9819
12.656	34.0975
12.674	34.1977
12.692	34.2753
12.71	34.3264
12.728	34.3505
12.746	34.3501
12.764	34.33
12.782	34.2956
12.8	34.2522
12.818	34.203
12.836	34.15
12.854	34.0931
12.872	34.0315
12.89	33.964
12.908	33.8909
12.926	33.8128
12.944	33.7316
12.962	33.6495
12.98	33.569
12.998	33.4916
13.016	33.4179
13.034	33.3474
13.052	33.2793
13.07	33.2124
13.088	33.1452
13.106	33.077
13.124	33.0071
13.142	32.9358
13.16	32.8643
13.178	32.7944
13.196	32.7284
13.214	32.6685
13.232	32.6163
13.25	32.5722
13.268	32.5354
13.286	32.5034
13.304	32.4725
13.322	32.4385
13.34	32.3978
13.358	32.3479
13.376	32.2884
13.394	32.2211
13.412	32.1504
13.43	32.0823
13.448	32.0236
13.466	31.981
13.484	31.9601
13.502	31.9646
13.52	31.9962
13.538	32.0538
13.556	32.1347
13.574	32.2341
13.592	32.346
13.61	32.4643
13.628	32.5832
13.646	32.6981
13.664	32.8057
13.682	32.9042
13.7	32.9923
13.718	33.0703
13.736	33.1374
13.754	33.1934
13.772	33.2367
13.79	33.2661
13.808	33.2797
13.826	33.2769
13.844	33.2574
13.862	33.2228
13.88	33.1762
13.898	33.1214
13.916	33.0632
13.934	33.0061
13.952	32.9538
13.97	32.9088
13.988	32.872
14.006	32.8428
14.024	32.8196
14.042	32.8002
14.06	32.7824
14.078	32.7643
14.096	32.7446
14.114	32.7225
14.132	32.6972
14.15	32.668
14.168	32.6341
14.186	32.5942
14.204	32.5466
14.222	32.4897
14.24	32.4227
14.258	32.3454
14.276	32.2587
14.294	32.1647
14.312	32.0661
14.33	31.9665
14.348	31.8697
14.366	31.7789
14.384	31.6969
14.402	31.6249
14.42	31.5631
14.438	31.511
14.456	31.4675
14.474	31.4311
14.492	31.4005
14.51	31.3743
14.528	31.352
14.546	31.3333
14.564	31.318
14.582	31.306
14.6	31.2974
14.618	31.2922
14.636	31.2901
14.654	31.2914
14.672	31.2959
14.69	31.3039
14.708	31.3158
14.726	31.3319
14.744	31.3525
14.762	31.3774
14.78	31.4061
14.798	31.4376
14.816	31.4709
14.834	31.5048
14.852	31.5376
14.87	31.5689
14.888	31.5988
14.906	31.6278
14.924	31.6576
14.942	31.69
14.96	31.7273
14.978	31.7711
14.996	31.8223
15.014	31.8812
15.032	31.9464
15.05	32.0153
15.068	32.0845
15.086	32.1501
15.104	32.2082
15.122	32.2551
15.14	32.2884
15.158	32.3074
15.176	32.3119
15.194	32.3032
15.212	32.284
15.23	32.2569
15.248	32.2244
15.266	32.189
15.284	32.1525
15.302	32.1152
15.32	32.0772
15.338	32.0381
15.356	31.9965
15.374	31.9519
15.392	31.9034
15.41	31.8504
15.428	31.7932
15.446	31.7318
15.464	31.6669
15.482	31.5989
15.5	31.5281
15.518	31.4544
15.536	31.3775
15.554	31.2972
15.572	31.2128
15.59	31.1242
15.608	31.0321
15.626	30.9371
15.644	30.841
15.662	30.7466
15.68	30.6563
15.698	30.5727
15.716	30.4989
15.734	30.437
15.752	30.3875
15.77	30.3506
15.788	30.3248
15.806	30.3073
15.824	30.2952
15.842	30.2848
15.86	30.2716
15.878	30.2527
15.896	30.2256
15.914	30.1883
15.932	30.1409
15.95	30.0841
15.968	30.0197
15.986	29.951
16.004	29.8806
16.022	29.8117
16.04	29.748
16.058	29.6921
16.076	29.6459
16.094	29.6112
16.112	29.5885
16.13	29.5781
16.148	29.5799
16.166	29.593
16.184	29.6166
16.202	29.6498
16.22	29.6909
16.238	29.7389
16.256	29.7924
16.274	29.8496
16.292	29.9087
16.31	29.9681
16.328	30.0253
16.346	30.0787
16.364	30.1267
16.382	30.1675
16.4	30.2006
16.418	30.2255
16.436	30.2424
16.454	30.2524
16.472	30.2566
16.49	30.2573
16.508	30.2565
16.526	30.2556
16.544	30.2575
16.562	30.263
16.58	30.2732
16.598	30.2888
16.616	30.3093
16.634	30.3344
16.652	30.3625
16.67	30.3924
16.688	30.4228
16.706	30.4517
16.724	30.4781
16.742	30.5007
16.76	30.5185
16.778	30.5311
16.796	30.5382
16.814	30.5401
16.832	30.5369
16.85	30.5294
16.868	30.5183
16.886	30.5041
16.904	30.4879
16.922	30.4702
16.94	30.452
16.958	30.4342
16.976	30.4169
16.994	30.4014
17.012	30.3876
17.03	30.3758
17.048	30.3661
17.066	30.3582
17.084	30.3516
17.102	30.3452
17.12	30.3384
17.138	30.3294
17.156	30.317
17.174	30.3004
17.192	30.2777
17.21	30.2482
17.228	30.211
17.246	30.1657
17.264	30.1123
17.282	30.0516
17.3	29.9844
17.318	29.9121
17.336	29.8366
17.354	29.759
17.372	29.6827
17.39	29.6087
17.408	29.5396
17.426	29.4768
17.444	29.4217
17.462	29.3751
17.48	29.3371
17.498	29.3075
17.516	29.2851
17.534	29.2691
17.552	29.2567
17.57	29.247
17.588	29.2368
17.606	29.2248
17.624	29.2087
17.642	29.1871
17.66	29.1592
17.678	29.1242
17.696	29.0824
17.714	29.0345
17.732	28.982
17.75	28.9257
17.768	28.8687
17.786	28.8117
17.804	28.7582
17.822	28.7089
17.84	28.6666
17.858	28.6317
17.876	28.6054
17.894	28.5878
17.912	28.579
17.93	28.5778
17.948	28.5838
17.966	28.5951
17.984	28.6107
18.002	28.6288
18.02	28.6481
18.038	28.667
18.056	28.6843
18.074	28.6992
18.092	28.7107
18.11	28.7186
18.128	28.7225
18.146	28.7224
18.164	28.7184
18.182	28.7108
18.2	28.6999
18.218	28.686
18.236	28.6693
18.254	28.6505
18.272	28.6295
18.29	28.6071
18.308	28.5833
18.326	28.5591
18.344	28.5346
18.362	28.5106
18.38	28.4876
18.398	28.4667
18.416	28.4484
18.434	28.4335
18.452	28.4231
18.47	28.4178
18.488	28.4186
18.506	28.4258
18.524	28.4402
18.542	28.462
18.56	28.4911
18.578	28.5275
18.596	28.5703
18.614	28.6195
18.632	28.6735
18.65	28.732
18.668	28.7928
18.686	28.8556
18.704	28.9176
18.722	28.9786
18.74	29.0356
18.758	29.0883
18.776	29.1345
18.794	29.1736
18.812	29.2038
18.83	29.2249
18.848	29.2357
18.866	29.2361
18.884	29.2255
18.902	29.2045
18.92	29.1732
18.938	29.1323
18.956	29.0828
18.974	29.0259
18.992	28.9632
19.01	28.896
19.028	28.8265
19.046	28.7562
19.064	28.6876
19.082	28.6219
19.1	28.5617
19.118	28.5077
19.136	28.4622
19.154	28.4253
19.172	28.3985
19.19	28.3814
19.208	28.3741
19.226	28.376
19.244	28.3858
19.262	28.403
19.28	28.4245
19.298	28.4502
19.316	28.4764
19.334	28.503
19.352	28.5261
19.37	28.5458
19.388	28.5591
19.406	28.566
19.424	28.5646
19.442	28.5548
19.46	28.5363
19.478	28.5088
19.496	28.4732
19.514	28.4294
19.532	28.3789
19.55	28.3223
19.568	28.2605
19.586	28.1949
19.604	28.1257
19.622	28.0544
19.64	27.981
19.658	27.9066
19.676	27.831
19.694	27.7549
19.712	27.6782
19.73	27.6012
19.748	27.5237
19.766	27.4461
19.784	27.3682
19.802	27.2906
19.82	27.2132
19.838	27.1366
19.856	27.0616
19.874	26.9883
19.892	26.9182
19.91	26.8511
19.928	26.789
19.946	26.7317
19.964	26.6806
19.982	26.6359
20	26.5982
20.018	26.5678
20.036	26.5447
20.054	26.5291
20.072	26.5209
20.09	26.5194
20.108	26.5248
20.126	26.5357
20.144	26.5522
20.162	26.5727
20.18	26.5968
20.198	26.6236
20.216	26.6515
20.234	26.6808
20.252	26.7093
20.27	26.7375
20.288	26.7637
20.306	26.7877
20.324	26.8089
20.342	26.8268
20.36	26.8413
20.378	26.852
20.396	26.8589
20.414	26.8624
20.432	26.8625
20.45	26.8598
20.468	26.8544
20.486	26.8471
20.504	26.839
20.522	26.8299
20.54	26.8218
20.558	26.8143
20.576	26.8091
20.594	26.8068
20.612	26.8076
20.63	26.8132
20.648	26.8231
20.666	26.8384
20.684	26.8592
20.702	26.8853
20.72	26.917
20.738	26.9541
20.756	26.9957
20.774	27.042
20.792	27.0915
20.81	27.1443
20.828	27.1991
20.846	27.2545
20.864	27.3107
20.882	27.3653
20.9	27.4186
20.918	27.469
20.936	27.5154
20.954	27.558
20.972	27.5952
20.99	27.6273
21.008	27.6535
21.026	27.6735
21.044	27.6872
21.062	27.6944
21.08	27.695
21.098	27.6891
21.116	27.6766
21.134	27.6576
21.152	27.6325
21.17	27.6011
21.188	27.5637
21.206	27.5204
21.224	27.4714
21.242	27.4167
21.26	27.3564
21.278	27.2911
21.296	27.2207
21.314	27.1456
21.332	27.0665
21.35	26.9831
21.368	26.8969
21.386	26.8078
21.404	26.7164
21.422	26.6244
21.44	26.5312
21.458	26.4387
21.476	26.3474
21.494	26.2576
21.512	26.1714
21.53	26.0881
21.548	26.0095
21.566	25.9366
21.584	25.8689
21.602	25.8083
21.62	25.7547
21.638	25.7081
21.656	25.6688
21.674	25.6366
21.692	25.6111
21.71	25.5922
21.728	25.5796
21.746	25.5722
21.764	25.5704
21.782	25.5731
21.8	25.5796
21.818	25.59
21.836	25.6024
21.854	25.6166
21.872	25.6322
21.89	25.6477
21.908	25.6636
21.926	25.6792
21.944	25.6939
21.962	25.7081
21.98	25.7215
21.998	25.7341
22.016	25.746
22.034	25.7571
22.052	25.7674
22.07	25.7771
22.088	25.7864
22.106	25.7952
22.124	25.8036
22.142	25.8116
22.16	25.8193
22.178	25.8262
22.196	25.8327
22.214	25.8382
22.232	25.8424
22.25	25.8454
22.268	25.8465
22.286	25.8453
22.304	25.842
22.322	25.8357
22.34	25.8263
22.358	25.8139
22.376	25.7982
22.394	25.7789
22.412	25.7565
22.43	25.7313
22.448	25.7029
22.466	25.6723
22.484	25.64
22.502	25.6058
22.52	25.571
22.538	25.536
22.556	25.5008
22.574	25.467
22.592	25.4349
22.61	25.4045
22.628	25.3772
22.646	25.3529
22.664	25.3316
22.682	25.3138
22.7	25.2999
22.718	25.2889
22.736	25.2801
22.754	25.2741
22.772	25.2696
22.79	25.2658
22.808	25.2634
22.826	25.26
22.844	25.2544
22.862	25.2476
22.88	25.2362
22.898	25.2189
22.916	25.1968
22.934	25.1659
22.952	25.1249
22.97	25.0749
22.988	25.0132
23.006	24.9395
23.024	24.8541
23.042	24.7557
23.06	24.6441
23.078	24.5195
23.096	24.3818
23.114	24.2305
23.132	24.0662
23.15	23.8905
23.168	23.7024
23.186	23.5031
23.204	23.2958
23.222	23.0794
23.24	22.8551
23.258	22.6276
23.276	22.3957
23.294	22.1605
23.312	21.9267
23.33	21.693
23.348	21.4606
23.366	21.2344
23.384	21.0138
23.402	20.7993
23.42	20.5958
23.438	20.4029
23.456	20.2207
23.474	20.0532
23.492	19.901
23.51	19.7632
23.528	19.6422
23.546	19.5386
23.564	19.4516
23.582	19.3824
23.6	19.3317
23.618	19.2988
23.636	19.2832
23.654	19.2851
23.672	19.3046
23.69	19.3401
23.708	19.391
23.726	19.458
23.744	19.5391
23.762	19.6326
23.78	19.7403
23.798	19.8591
23.816	19.9858
23.834	20.1227
23.852	20.2668
23.87	20.4131
23.888	20.5636
23.906	20.7166
23.924	20.8677
23.942	21.017
23.96	21.1647
23.978	21.3078
23.996	21.4453
24.014	21.5783
24.032	21.7042
24.05	21.8212
24.068	21.9305
24.086	22.0314
24.104	22.123
24.122	22.2049
24.14	22.2786
24.158	22.3454
24.176	22.4035
24.194	22.455
24.212	22.5039
24.23	22.5497
24.248	22.592
24.266	22.637
24.284	22.6877
24.302	22.7404
24.32	22.8014
24.338	22.8766
24.356	22.9621
24.374	23.061
24.392	23.1788
24.41	23.3149
24.428	23.4686
24.446	23.6429
24.464	23.8395
24.482	24.057
24.5	24.2951
24.518	24.5542
24.536	24.8354
24.554	25.1359
24.572	25.4523
24.59	25.7873
24.608	26.1388
24.626	26.4996
24.644	26.8671
24.662	27.2453
24.68	27.6267
24.698	28.0044
24.716	28.3834
24.734	28.7597
24.752	29.126
24.77	29.4818
24.788	29.8292
24.806	30.1638
24.824	30.4824
24.842	30.787
24.86	31.0774
24.878	31.353
24.896	31.6124
24.914	31.8573
24.932	32.0909
24.95	32.3139
24.968	32.5241
24.986	32.7265
25.004	32.9263
25.022	33.1203
25.04	33.3103
25.058	33.5022
25.076	33.6981
25.094	33.8944
25.112	34.0962
25.13	34.3084
25.148	34.5304
25.166	34.7608
25.184	34.9993
25.202	35.2471
25.22	35.5048
25.238	35.7679
25.256	36.0321
25.274	36.3039
25.292	36.5781
25.31	36.8416
25.328	37.0891
25.346	37.3312
25.364	37.5527
25.382	37.7364
25.4	37.8895
25.418	38.0119
25.436	38.0845
25.454	38.0931
25.472	38.0518
25.49	37.9508
25.508	37.7752
25.526	37.5211
25.544	37.1961
25.562	36.7944
25.58	36.3099
25.598	35.7409
25.616	35.0929
25.634	34.3723
25.652	33.5803
25.67	32.7084
25.688	31.7731
25.706	30.793
25.724	29.7623
25.742	28.6763
25.76	27.5636
25.778	26.4498
25.796	25.3125
25.814	24.164
25.832	23.037
25.85	21.9508
25.868	20.8785
25.886	19.8439
25.904	18.878
25.922	17.9873
25.94	17.1545
25.958	16.3991
25.976	15.7414
25.994	15.1764
26.012	14.6997
26.03	14.3206
26.048	14.0475
26.066	13.8773
26.084	13.8072
26.102	13.8361
26.12	13.965
26.138	14.1974
26.156	14.5246
26.174	14.9362
26.192	15.4314
26.21	16.0174
26.228	16.6797
26.246	17.4032
26.264	18.1921
26.282	19.051
26.3	19.9609
26.318	20.9031
26.336	21.8888
26.354	22.9171
26.372	23.9673
26.39	25.0212
26.408	26.0947
26.426	27.1816
26.444	28.2615
26.462	29.318
26.48	30.3692
26.498	31.4053
26.516	32.407
26.534	33.361
26.552	34.2844
26.57	35.1668
26.588	35.9918
26.606	36.7497
26.624	37.455
26.642	38.0982
26.66	38.666
26.678	39.151
26.696	39.5639
26.714	39.8991
26.732	40.1495
26.75	40.3105
26.768	40.3869
26.786	40.3793
26.804	40.2878
26.822	40.1107
26.84	39.8464
26.858	39.5016
26.876	39.0834
26.894	38.5931
26.912	38.0227
26.93	37.3842
26.948	36.6907
26.966	35.9031
26.984	34.9437
27.002	33.9906
27.02	33.2382
27.028	33.0408