File: Bakgrunnsmateriale/MATLAB/FTIR/ftir_data/LPE453/Mapping_121/LPE453_t114_cm-1.asc
PE IR       SPECTRUM    SPECTRUM    ASCII       PEDS        1.60
  -1
LP07FC~1.ASC
17/05/16
23:45:42.00
17/05/16
23:45:42.00
tln
$LPE453_t0114$<tbV0>[5.2,13.0,8.0,0.0,27,1,0]
370
64

2002,4.07
MIRTGS : RIGHTBACK : INTERNAL 2
MIR : ON : INTERNAL 2
OPTKBR

0.200000
8
8.000000
FILLER
RATIO
SPECTRUM
UNLOCKED 256

DOUBLE
64
COMBINED
1
0
0

1.000000
RATIO

1
0
TRUE
51149
0
LEFT NOT FITTED RIGHT NOT FITTED 0
NONE
NONE
15600
12
4.427000
51148
TRUE
1 0 8 72 0 0 0 0

15798

#HDR
-1
-1
#GR
CM-1
%T
2.38419e-05
0.0
5000
-1.000000
4631
8
37.9432
-5.501842
#DATA
5000	-0.050139
4996	-0.066804
4992	0.325274
4988	0.280880
4984	-0.365662
4980	-0.425648
4976	0.011539
4972	0.163388
4968	0.156378
4964	0.138449
4960	0.005578
4956	-0.084018
4952	0.038623
4948	0.196695
4944	0.219559
4940	0.175833
4936	0.107455
4932	-0.035929
4928	-0.176525
4924	-0.138211
4920	-0.055098
4916	-0.141906
4912	-0.149726
4908	0.049042
4904	0.269007
4900	0.313091
4896	0.231766
4892	0.337433
4888	0.515699
4884	0.472640
4880	0.234961
4876	-0.073790
4872	-0.399160
4868	-0.443887
4864	-0.193738
4860	0.027632
4856	0.149154
4852	0.199675
4848	0.236248
4844	0.174474
4840	-0.102233
4836	-0.320363
4832	-0.169444
4828	0.139498
4824	0.246572
4820	0.197362
4816	0.064992
4812	-0.103211
4808	-0.132799
4804	-0.092053
4800	-0.214600
4796	-0.406861
4792	-0.550246
4788	-0.494194
4784	-0.131678
4780	0.136399
4776	0.172400
4772	0.249266
4768	0.370478
4764	0.328922
4760	0.232911
4756	0.184369
4752	0.113010
4748	0.219535
4744	0.324988
4740	0.182485
4736	0.455284
4732	0.928401
4728	0.395750
4724	-0.775265
4720	-1.176595
4716	-0.485563
4712	0.564312
4708	1.120305
4704	0.635719
4700	-0.192308
4696	0.050163
4692	0.485563
4688	0.176501
4684	0.442409
4680	0.923633
4676	0.722551
4672	0.667691
4668	0.923228
4664	1.379084
4660	1.919174
4656	1.641273
4652	0.643754
4648	0.128054
4644	0.375962
4640	0.422644
4636	0.087237
4632	-0.104618
4628	-0.290870
4624	-0.550484
4620	-0.491189
4616	-0.198912
4612	0.052571
4608	-0.051617
4604	-0.127363
4600	0.159621
4596	0.400376
4592	0.321626
4588	0.107693
4584	-0.202727
4580	-0.417280
4576	-0.054430
4572	0.443410
4568	0.211119
4564	-0.413846
4560	-0.795030
4556	-0.887298
4552	-0.749182
4548	-0.431704
4544	-0.223731
4540	-0.193214
4536	-0.061273
4532	-0.114607
4528	-0.202703
4524	0.009655
4520	-0.079464
4516	-0.602126
4512	-1.216292
4508	-3.262209
4504	-5.501842
4500	-2.538418
4496	3.616070
4492	13.4789
4488	20.805
4484	14.5386
4480	1.486682
4476	-3.100347
4472	-0.421071
4468	0.729131
4464	0.254917
4460	-0.609183
4456	-1.177620
4452	-1.149511
4448	-0.624251
4444	-0.336694
4440	-0.355529
4436	-0.347185
4432	-0.226259
4428	-0.089287
4424	-0.070667
4420	-0.131177
4416	-0.159716
4412	-0.069642
4408	0.168061
4404	0.421738
4400	0.484609
4396	0.446248
4392	0.418114
4388	0.335240
4384	0.453209
4380	0.625777
4376	0.583481
4372	0.577592
4368	0.519657
4364	0.381994
4360	0.446772
4356	0.636148
4352	0.608754
4348	0.335025
4344	0.096392
4340	0.145840
4336	0.424933
4332	0.608086
4328	0.531125
4324	0.334310
4320	0.176596
4316	0.013256
4312	-0.134062
4308	-0.298047
4304	-0.358247
4300	-0.389528
4296	-0.408244
4292	-0.129771
4288	0.113415
4284	0.116109
4280	0.143861
4276	0.071120
4272	-0.201153
4268	-0.308156
4264	-0.177264
4260	-0.127243
4256	-0.200486
4252	-0.058436
4248	0.215744
4244	0.238895
4240	0.271344
4236	0.482106
4232	0.526785
4228	0.332117
4224	0.127911
4220	0.047373
4216	-0.006675
4212	-0.018739
4208	0.055503
4204	0.077939
4200	0.101304
4196	0.157833
4192	0.228595
4188	0.464653
4184	0.603485
4180	0.335192
4176	0.108051
4172	0.102376
4168	-0.060701
4164	-0.175142
4160	0.026679
4156	0.228500
4152	0.175046
4148	0.121808
4144	0.223541
4140	0.209045
4136	0.127935
4132	0.102615
4128	-0.028920
4124	-0.172305
4120	-0.209116
4116	-0.108599
4112	0.052928
4108	0.052452
4104	-0.061798
4100	-0.084209
4096	-0.081324
4092	-0.143599
4088	-0.090503
4084	0.058531
4080	0.128436
4076	0.154471
4072	0.162696
4068	0.167846
4064	0.183868
4060	0.175666
4056	0.122666
4052	0.101542
4048	0.124669
4044	0.104475
4040	0.011968
4036	-0.033950
4032	0.025105
4028	0.106501
4024	0.139856
4020	0.130462
4016	0.123095
4012	0.125694
4008	0.128674
4004	0.107789
4000	0.057315
3996	0.002002
3992	0.008368
3988	0.077819
3984	0.055646
3980	-0.043058
3976	-0.065660
3972	-0.040221
3968	-0.020074
3964	0.032210
3960	0.108218
3956	0.199770
3952	0.227618
3948	0.144433
3944	0.115537
3940	0.159287
3936	0.187587
3932	0.153946
3928	0.052642
3924	0.025796
3920	0.089240
3916	0.116133
3912	0.145339
3908	0.208425
3904	0.202822
3900	0.106739
3896	-0.012421
3892	-0.080013
3888	-0.059676
3884	0.027346
3880	0.131559
3876	0.165057
3872	0.053071
3868	-0.018620
3864	0.066757
3860	0.141191
3856	0.104117
3852	-0.006961
3848	0.003337
3844	0.095343
3840	0.070047
3836	-0.027561
3832	-0.114655
3828	-0.115585
3824	-0.087213
3820	-0.067639
3816	0.011038
3812	0.089645
3808	0.071024
3804	0.035929
3800	0.080609
3796	0.104570
3792	0.049185
3788	0.019001
3784	0.034642
3780	0.060796
3776	0.070357
3772	0.059127
3768	0.062847
3764	0.050377
3760	0.049543
3756	0.104570
3752	0.121736
3748	0.073242
3744	0.059628
3740	0.076913
3736	0.037980
3732	-0.009250
3728	-0.008797
3724	0.034070
3720	0.101470
3716	0.082087
3712	-0.034141
3708	-0.123763
3704	-0.157880
3700	-0.110650
3696	-0.024151
3692	-0.024652
3688	-0.015830
3684	0.077152
3680	0.141549
3676	0.133252
3672	0.085091
3668	0.051808
3664	0.102734
3660	0.118923
3656	0.036025
3652	0.044727
3648	0.145888
3644	0.136160
3640	0.043392
3636	0.065875
3632	0.163841
3628	0.146079
3624	0.064802
3620	0.059342
3616	0.041222
3612	0.011563
3608	0.016069
3604	0.030040
3600	0.057196
3596	0.005698
3592	-0.062870
3588	-0.090217
3584	-0.117039
3580	-0.104165
3576	-0.018668
3572	0.083041
3568	0.056886
3564	-0.026226
3560	-0.015497
3556	0.042343
3552	0.092744
3548	0.104928
3544	0.043272
3540	-0.014567
3536	-0.036931
3532	-0.108957
3528	-0.191235
3524	-0.158405
3520	-0.014543
3516	0.081825
3512	0.045800
3508	0.020980
3504	0.033521
3500	-0.000715
3496	-0.024962
3492	0.063776
3488	0.207471
3484	0.228357
3480	0.164151
3476	0.114464
3472	0.054883
3468	0.015258
3464	0.036644
3460	-0.006628
3456	-0.113034
3452	-0.118708
3448	-0.120639
3444	-0.145912
3440	-0.094079
3436	-0.055646
3432	-0.046825
3428	-0.008249
3424	0.014305
3420	0.014328
3416	0.032997
3412	0.049471
3408	0.072288
3404	0.095868
3400	0.055527
3396	0.007867
3392	-0.008201
3388	-0.016188
3384	0.041556
3380	0.104331
3376	0.096821
3372	0.071454
3368	0.029969
3364	0.008273
3360	0.072002
3356	0.126218
3352	0.045013
3348	-0.089383
3344	-0.122284
3340	-0.008511
3336	0.166916
3332	0.245356
3328	0.184345
3324	0.090646
3320	0.039815
3316	0.000143
3312	-0.031304
3308	-0.043702
3304	-0.028753
3300	-0.012660
3296	0.018668
3292	0.124931
3288	0.187778
3284	0.124073
3280	0.057029
3276	0.086426
3272	0.146627
3268	0.151324
3264	0.138878
3260	0.126862
3256	0.047397
3252	-0.038576
3248	-0.013971
3244	0.054883
3240	0.072598
3236	0.087332
3232	0.103878
3228	0.054502
3224	0.005078
3220	0.034666
3216	0.065517
3212	0.057196
3208	0.058650
3204	0.039553
3200	0.014066
3196	0.065827
3192	0.126028
3188	0.097775
3184	0.046372
3180	0.057816
3176	0.112962
3172	0.111794
3168	0.028610
3164	-0.025296
3160	-0.060081
3156	-0.095391
3152	-0.051045
3148	0.008463
3144	0.017929
3140	0.023341
3136	0.012731
3132	0.016427
3128	0.009226
3124	-0.053954
3120	-0.086212
3116	-0.088453
3112	-0.031208
3108	0.088500
3104	0.144958
3100	0.104784
3096	0.007271
3092	-0.081491
3088	-0.064730
3084	-0.009226
3080	-0.001931
3076	0.023245
3072	0.070762
3068	0.089430
3064	0.036382
3060	-0.023722
3056	0.023341
3052	0.086688
3048	0.056076
3044	-0.011754
3040	0.011301
3036	0.103473
3032	0.107407
3028	0.028491
3024	0.004410
3020	0.040078
3016	0.052118
3012	0.076413
3008	0.087213
3004	-0.016212
3000	-0.124025
2996	-0.084710
2992	0.017118
2988	0.044202
2984	-0.011014
2980	-0.068092
2976	-0.082063
2972	-0.082516
2968	-0.045919
2964	0.007748
2960	0.010228
2956	0.006127
2952	0.031590
2948	0.053715
2944	0.050425
2940	0.037813
2936	0.064826
2932	0.092768
2928	0.067591
2924	0.028228
2920	0.004911
2916	0.019001
2912	0.047349
2908	0.038361
2904	-0.010251
2900	-0.086808
2896	-0.113058
2892	-0.058960
2888	0.000500
2884	0.057220
2880	0.088262
2876	0.042772
2872	0.018835
2868	0.069069
2864	0.062513
2860	0.019049
2856	0.032615
2852	0.057005
2848	0.057172
2844	0.071668
2840	0.099277
2836	0.083279
2832	0.050997
2828	0.082564
2824	0.123786
2820	0.070738
2816	-0.005125
2812	0.001311
2808	0.047636
2804	0.062465
2800	0.044894
2796	0.005292
2792	0.009918
2788	0.077176
2784	0.109410
2780	0.126671
2776	0.141239
2772	0.131368
2768	0.138831
2764	0.122475
2760	0.043892
2756	-0.014138
2752	-0.023365
2748	0.018548
2744	0.146365
2740	0.220060
2736	0.127196
2732	0.006508
2728	-0.013685
2724	0.007748
2720	0.020647
2716	0.041198
2712	0.032758
2708	0.015449
2704	0.063014
2700	0.117564
2696	0.071668
2692	-0.009226
2688	-0.009918
2684	0.026035
2680	0.044465
2676	0.052475
2672	0.046110
2668	0.084781
2664	0.171327
2660	0.158119
2656	0.079274
2652	0.066518
2648	0.058794
2644	0.014114
2640	0.010108
2636	0.030326
2632	0.010466
2628	-0.010728
2624	-0.035643
2620	-0.037503
2616	0.022482
2612	0.083756
2608	0.091218
2604	0.038576
2600	-0.003957
2596	0.016140
2592	0.071835
2588	0.101971
2584	0.089716
2580	0.026750
2576	-0.054335
2572	-0.070881
2568	0.012898
2564	0.124764
2560	0.092148
2556	-0.037097
2552	-0.038743
2548	0.043487
2544	0.055432
2540	0.022554
2536	0.003123
2532	-0.008010
2528	0.000882
2524	0.056958
2520	0.099539
2516	0.054001
2512	0.015377
2508	0.041604
2504	0.060796
2500	0.094175
2496	0.167822
2492	0.219798
2488	0.181031
2484	0.101780
2480	0.105357
2476	0.150680
2472	0.139594
2468	0.097107
2464	0.084280
2460	0.111079
2456	0.131297
2452	0.134110
2448	0.166416
2444	0.204277
2440	0.206732
2436	0.188779
2432	0.136375
2428	0.101208
2424	0.201535
2420	0.325512
2416	0.349187
2412	0.344800
2408	0.323963
2404	0.339865
2400	0.395870
2396	0.430727
2392	0.501346
2388	0.539779
2384	0.501656
2380	0.493240
2376	0.508594
2372	0.524640
2368	0.559425
2364	0.602579
2360	0.643634
2356	0.676798
2352	0.736069
2348	0.761079
2344	0.717473
2340	0.758433
2336	0.893211
2332	0.999689
2328	1.082539
2324	1.204562
2320	1.325893
2316	1.391220
2312	1.462841
2308	1.548743
2304	1.614475
2300	1.727032
2296	1.900148
2292	2.038502
2288	2.135801
2284	2.273559
2280	2.441143
2276	2.577781
2272	2.693915
2268	2.814412
2264	2.957272
2260	3.160715
2256	3.408241
2252	3.655099
2248	3.921747
2244	4.197144
2240	4.442596
2236	4.720449
2232	5.020213
2228	5.278611
2224	5.562233
2220	5.893468
2216	6.252241
2212	6.622624
2208	6.933665
2204	7.227039
2200	7.593441
2196	8.007645
2192	8.440613
2188	8.882451
2184	9.283947
2180	9.642243
2176	10.0717
2172	10.6235
2168	11.1636
2164	11.6048
2160	11.9917
2156	12.4192
2152	12.9676
2148	13.5396
2144	14.0309
2140	14.5122
2136	15.0191
2132	15.5067
2128	15.9022
2124	16.2492
2120	16.6819
2116	17.1672
2112	17.6468
2108	18.1643
2104	18.7096
2100	19.2245
2096	19.6954
2092	20.1885
2088	20.7479
2084	21.2425
2080	21.6385
2076	22.0614
2072	22.4466
2068	22.7603
2064	23.1302
2060	23.5724
2056	23.9833
2052	24.2843
2048	24.5542
2044	24.9017
2040	25.3386
2036	25.7903
2032	26.1456
2028	26.4389
2024	26.7771
2020	27.1433
2016	27.4862
2012	27.7768
2008	27.99
2004	28.1797
2000	28.3641
1996	28.5565
1992	28.804
1988	29.054
1984	29.2848
1980	29.5491
1976	29.8627
1972	30.1565
1968	30.3792
1964	30.5825
1960	30.8056
1956	31.0169
1952	31.1815
1948	31.3323
1944	31.4807
1940	31.6128
1936	31.7312
1932	31.8223
1928	31.9379
1924	32.0923
1920	32.1983
1916	32.2669
1912	32.4066
1908	32.6313
1904	32.8548
1900	33.0511
1896	33.2663
1892	33.4593
1888	33.588
1884	33.6963
1880	33.7914
1876	33.8651
1872	33.8972
1868	33.8872
1864	33.8893
1860	33.9092
1856	33.9485
1852	33.9972
1848	34.026
1844	34.1157
1840	34.3007
1836	34.486
1832	34.609
1828	34.6888
1824	34.8191
1820	34.9926
1816	35.0902
1812	35.1233
1808	35.172
1804	35.1983
1800	35.1643
1796	35.1203
1792	35.0853
1788	35.0714
1784	35.0762
1780	35.0713
1776	35.1114
1772	35.2006
1768	35.2747
1764	35.3658
1760	35.4974
1756	35.6211
1752	35.727
1748	35.8449
1744	35.9795
1740	36.0384
1736	35.9599
1732	35.8663
1728	35.8521
1724	35.8386
1720	35.7838
1716	35.751
1712	35.7181
1708	35.6797
1704	35.7183
1700	35.8391
1696	35.9896
1692	36.1236
1688	36.2055
1684	36.2607
1680	36.3321
1676	36.4136
1672	36.5115
1668	36.5755
1664	36.5681
1660	36.5486
1656	36.4872
1652	36.3612
1648	36.2413
1644	36.1713
1640	36.1796
1636	36.2278
1632	36.2809
1628	36.3673
1624	36.4448
1620	36.4839
1616	36.5583
1612	36.6899
1608	36.8314
1604	36.9257
1600	36.9703
1596	37.0179
1592	37.0852
1588	37.0893
1584	37.01
1580	36.9317
1576	36.8859
1572	36.8196
1568	36.6677
1564	36.5184
1560	36.5001
1556	36.5377
1552	36.5774
1548	36.6846
1544	36.814
1540	36.9151
1536	37.0234
1532	37.1316
1528	37.2126
1524	37.3019
1520	37.3924
1516	37.3732
1512	37.2545
1508	37.1294
1504	37.0077
1500	36.8947
1496	36.7683
1492	36.6415
1488	36.6161
1484	36.6975
1480	36.813
1476	36.9129
1472	36.9954
1468	37.1031
1464	37.2328
1460	37.3198
1456	37.3653
1452	37.3929
1448	37.4298
1444	37.4464
1440	37.3523
1436	37.2557
1432	37.2453
1428	37.169
1424	37.0284
1420	36.9437
1416	36.9004
1412	36.8674
1408	36.9029
1404	37.0175
1400	37.1148
1396	37.2032
1392	37.306
1388	37.417
1384	37.527
1380	37.5812
1376	37.5964
1372	37.5511
1368	37.461
1364	37.4103
1360	37.3447
1356	37.2571
1352	37.1866
1348	37.0857
1344	36.9285
1340	36.8306
1336	36.8761
1332	36.9578
1328	37.057
1324	37.1891
1320	37.2959
1316	37.3861
1312	37.48
1308	37.5718
1304	37.6552
1300	37.7389
1296	37.7688
1292	37.6826
1288	37.5138
1284	37.3292
1280	37.1684
1276	37.0584
1272	37.0159
1268	36.9685
1264	36.881
1260	36.8816
1256	37.0092
1252	37.1142
1248	37.1725
1244	37.3324
1240	37.5513
1236	37.6843
1232	37.8156
1228	37.9325
1224	37.9254
1220	37.851
1216	37.7498
1212	37.639
1208	37.4849
1204	37.2846
1200	37.1415
1196	37.0301
1192	36.9274
1188	36.9157
1184	36.9779
1180	37.0598
1176	37.1738
1172	37.3196
1168	37.4683
1164	37.5554
1160	37.5963
1156	37.6929
1152	37.8158
1148	37.8305
1144	37.6872
1140	37.5579
1136	37.5126
1132	37.3597
1128	37.1419
1124	37.0625
1120	37.0359
1116	36.9057
1112	36.7853
1108	36.7971
1104	36.8749
1100	36.9981
1096	37.2128
1092	37.4514
1088	37.58
1084	37.6255
1080	37.6873
1076	37.6652
1072	37.5213
1068	37.3605
1064	37.2078
1060	37.1186
1056	37.0507
1052	36.889
1048	36.7556
1044	36.757
1040	36.7596
1036	36.7435
1032	36.7325
1028	36.6963
1024	36.7511
1020	36.9551
1016	37.1718
1012	37.361
1008	37.5103
1004	37.5252
1000	37.4432
996	 37.3242
992	 37.1667
988	 37.0239
984	 36.9577
980	 36.8851
976	 36.7075
972	 36.5612
968	 36.4824
964	 36.3431
960	 36.2573
956	 36.3386
952	 36.521
948	 36.7195
944	 36.8712
940	 36.992
936	 37.0565
932	 37.0334
928	 36.9813
924	 36.965
920	 37.019
916	 37.0543
912	 36.8744
908	 36.5093
904	 36.2047
900	 36.051
896	 36.0026
892	 35.947
888	 35.8963
884	 35.9366
880	 35.9654
876	 35.965
872	 36.0554
868	 36.2701
864	 36.4938
860	 36.6373
856	 36.703
852	 36.7231
848	 36.7159
844	 36.6174
840	 36.4152
836	 36.1317
832	 35.8674
828	 35.6216
824	 35.2877
820	 35.1207
816	 35.1515
812	 35.1707
808	 35.2641
804	 35.414
800	 35.4877
796	 35.5076
792	 35.598
788	 35.7467
784	 35.884
780	 35.991
776	 35.9722
772	 35.8497
768	 35.7231
764	 35.4271
760	 34.9626
756	 34.6932
752	 34.6588
748	 34.6558
744	 34.6489
740	 34.6756
736	 34.5811
732	 34.3332
728	 34.3329
724	 34.6417
720	 34.8443
716	 34.8749
712	 34.9524
708	 35.068
704	 35.144
700	 35.133
696	 35.1348
692	 35.1681
688	 35.011
684	 34.6429
680	 34.2188
676	 33.927
672	 33.6579
668	 33.3445
664	 33.3122
660	 33.4941
656	 33.6179
652	 33.735
648	 33.7587
644	 33.6477
640	 33.7567
636	 34.0688
632	 34.2163
628	 34.1725
624	 34.035
620	 33.901
616	 33.9129
612	 33.8106
608	 33.3838
604	 32.9309
600	 32.5903
596	 32.2203
592	 31.8978
588	 31.9723
584	 32.2918
580	 32.3874
576	 32.4699
572	 32.5609
568	 32.3175
564	 32.2216
560	 32.5714
556	 32.7595
552	 32.7253
548	 32.7197
544	 32.4795
540	 31.9645
536	 31.57
532	 31.4914
528	 31.3329
524	 30.8079
520	 30.2153
516	 30.0611
512	 30.3075
508	 30.3143
504	 30.1589
500	 30.3554
496	 30.6525
492	 30.5785
488	 30.2825
484	 30.0601
480	 29.8736
476	 29.8172
472	 29.8633
468	 29.8165
464	 29.6133
460	 29.3713
456	 29.4211
452	 29.4976
448	 28.9405
444	 27.8498
440	 27.4226
436	 27.4921
432	 26.3095
428	 24.8955
424	 25.3924
420	 26.6997
416	 27.3915
412	 27.9204
408	 26.956
404	 23.677
400	 21.4731
396	 23.4516
392	 27.1479
388	 24.3031
384	 16.6238
380	 20.5114
376	 27.5705
372	 5.638790
370	 -4.795145