File: Bakgrunnsmateriale/MATLAB/FTIR/ftir_data/LPE453/Mapping_121/LPE453_t09_cm-1.asc
PE IR       SPECTRUM    SPECTRUM    ASCII       PEDS        1.60
  -1
LP67D9~1.ASC
17/05/16
15:04:55.00
17/05/16
15:04:55.00
tln
$LPE453_t0009$<tbV0>[-7.8,-13.0,8.0,0.0,27,1,0]
370
64

2002,4.07
MIRTGS : RIGHTBACK : INTERNAL 2
MIR : ON : INTERNAL 2
OPTKBR

0.200000
8
8.000000
FILLER
RATIO
SPECTRUM
UNLOCKED 256

DOUBLE
64
COMBINED
1
0
0

1.000000
RATIO

1
0
TRUE
51149
0
LEFT NOT FITTED RIGHT NOT FITTED 0
NONE
NONE
15600
12
4.427000
51148
TRUE
1 0 8 72 0 0 0 0

15798

#HDR
-1
-1
#GR
CM-1
%T
2.38419e-05
0.0
5000
-1.000000
4631
8
38.1472
-1.706743
#DATA
5000	-0.096464
4996	-0.235724
4992	-0.118947
4988	0.193524
4984	0.118970
4980	-0.159716
4976	0.035881
4972	0.574159
4968	0.667619
4964	0.564146
4960	0.704360
4956	0.662136
4952	0.421261
4948	0.201821
4944	0.055289
4940	0.130033
4936	0.447058
4932	0.538611
4928	0.269556
4924	-0.020909
4920	-0.253796
4916	-0.357842
4912	-0.273919
4908	0.016546
4904	0.271224
4900	0.139379
4896	-0.114727
4892	0.036263
4888	0.493097
4884	0.752711
4880	0.727391
4876	0.554847
4872	0.174999
4868	-0.253295
4864	-0.296092
4860	0.176477
4856	0.554227
4852	0.487565
4848	0.407648
4844	0.457811
4840	0.502204
4836	0.452613
4832	0.290775
4828	0.192236
4824	0.081753
4820	0.001907
4816	0.111079
4812	0.264239
4808	0.404334
4804	0.390315
4800	0.158810
4796	0.000429
4792	0.153255
4788	0.360012
4784	0.292992
4780	0.037527
4776	-0.186634
4772	-0.190067
4768	0.076818
4764	0.364136
4760	0.303769
4756	0.121569
4752	0.096964
4748	-0.002264
4744	-0.143504
4740	-0.160217
4736	-0.028824
4732	0.113034
4728	0.104641
4724	0.035119
4720	0.027894
4716	-0.093317
4712	-0.193309
4708	-0.083875
4704	0.065946
4700	0.105905
4696	0.049400
4692	0.077605
4688	0.255179
4684	0.351572
4680	0.293016
4676	0.185465
4672	-0.064420
4668	-0.181293
4664	0.169825
4660	0.476622
4656	0.428867
4652	0.472116
4648	0.642323
4644	0.450539
4640	0.068116
4636	-0.075697
4632	-0.086355
4628	-0.135707
4624	-0.039410
4620	0.237178
4616	0.268793
4612	-0.051784
4608	-0.318169
4604	-0.124812
4600	0.071167
4596	-0.205063
4592	-0.525283
4588	-0.830197
4584	-1.084733
4580	-0.942564
4576	-0.487399
4572	0.012731
4568	0.355267
4564	0.303673
4560	-0.243711
4556	-0.996589
4552	-1.623296
4548	-1.589083
4544	-1.216411
4540	-0.874829
4536	0.052809
4532	1.020622
4528	0.766611
4524	1.505255
4520	11.5178
4516	28.8122
4512	30.445
4508	13.7263
4504	1.736140
4500	-0.139808
4496	0.079154
4492	-0.451135
4488	-0.873208
4484	-0.703835
4480	-0.366163
4476	-0.062274
4472	-0.004220
4468	-0.447607
4464	-1.066756
4460	-1.211643
4456	-0.865268
4452	-0.381803
4448	-0.054192
4444	-0.073552
4440	-0.290083
4436	-0.299906
4432	-0.050806
4428	0.075912
4424	0.010251
4420	-0.039005
4416	0.008440
4412	0.049948
4408	0.210595
4404	0.498890
4400	0.535774
4396	0.306320
4392	0.235104
4388	0.443387
4384	0.491166
4380	0.238013
4376	0.021290
4372	0.168657
4368	0.511598
4364	0.527381
4360	0.292205
4356	0.241279
4352	0.243639
4348	0.084304
4344	-0.009942
4340	0.082850
4336	0.192594
4332	0.279378
4328	0.334858
4324	0.331974
4320	0.372719
4316	0.326538
4312	0.130867
4308	-0.014567
4304	-0.078487
4300	-0.086760
4296	-0.115108
4292	-0.194454
4288	-0.135231
4284	0.083899
4280	0.238871
4276	0.151801
4272	0.040698
4268	-0.118184
4264	-0.344967
4260	-0.216245
4256	0.160098
4252	0.377821
4248	0.407624
4244	0.272727
4240	0.112676
4236	0.117802
4232	0.114989
4228	0.054907
4224	0.150108
4220	0.243616
4216	0.109648
4212	-0.054979
4208	-0.060939
4204	-0.080609
4200	-0.086903
4196	0.195789
4192	0.533246
4188	0.566339
4184	0.405287
4180	0.533866
4176	1.221680
4172	1.647019
4168	1.219272
4164	0.609469
4160	0.286030
4156	0.187849
4152	0.289869
4148	0.391316
4144	0.332403
4140	0.212693
4136	0.193810
4132	0.283360
4128	0.290346
4124	0.247812
4120	0.182533
4116	0.032544
4112	-0.095105
4108	-0.111722
4104	-0.051784
4100	0.010704
4096	0.113606
4092	0.168871
4088	0.061702
4084	0.095653
4080	0.345921
4076	0.394153
4072	0.217485
4068	0.056576
4064	-0.032711
4060	-0.013804
4056	0.072646
4052	0.142502
4048	0.166344
4044	0.156784
4040	0.138831
4036	0.161695
4032	0.199961
4028	0.138807
4024	0.023031
4020	0.096440
4016	0.253319
4012	0.233149
4008	0.210046
4004	0.135827
4000	-0.011014
3996	0.059986
3992	0.214958
3988	0.205206
3984	0.069022
3980	-0.001645
3976	0.034737
3972	0.060606
3968	0.021839
3964	-0.073575
3960	-0.080800
3956	0.021386
3952	0.113010
3948	0.172758
3944	0.122022
3940	-0.000786
3936	-0.037646
3932	-0.010347
3928	-0.008654
3924	-0.026011
3920	0.061774
3916	0.195240
3912	0.247907
3908	0.215172
3904	0.123906
3900	0.101613
3896	0.087618
3892	0.012397
3888	-0.047564
3884	-0.089716
3880	-0.074338
3876	-0.011420
3872	0.035142
3868	0.023388
3864	0.021028
3860	0.146436
3856	0.231337
3852	0.148558
3848	0.076198
3844	0.111317
3840	0.211620
3836	0.255274
3832	0.195884
3828	0.152373
3824	0.158405
3820	0.085139
3816	-0.042533
3812	-0.079393
3808	-0.038170
3804	0.039982
3800	0.071525
3796	0.017404
3792	-0.006270
3788	0.045251
3784	0.157618
3780	0.303792
3776	0.293016
3772	0.120735
3768	0.062918
3764	0.041913
3760	-0.002789
3756	0.100684
3752	0.196337
3748	0.133275
3744	0.050449
3740	0.073075
3736	0.085735
3732	0.055861
3728	0.091743
3724	0.135755
3720	0.037956
3716	-0.075864
3712	-0.034189
3708	0.104475
3704	0.182700
3700	0.169181
3696	0.149059
3692	0.102138
3688	0.087237
3684	0.093770
3680	-0.000452
3676	-0.052332
3672	-0.022578
3668	-0.036191
3664	-0.037693
3660	0.016093
3656	0.044631
3652	0.034642
3648	0.064229
3644	0.045228
3640	-0.022292
3636	0.040102
3632	0.183606
3628	0.197815
3624	0.100255
3620	0.087046
3616	0.091171
3612	0.037145
3608	0.049257
3604	0.032091
3600	-0.060772
3596	-0.038766
3592	0.051999
3588	0.024986
3584	-0.002360
3580	0.134277
3576	0.272822
3572	0.269436
3568	0.101161
3564	-0.120401
3560	-0.166583
3556	-0.020122
3552	0.067019
3548	0.008511
3544	-0.099587
3540	-0.159549
3536	-0.097942
3532	0.008702
3528	0.045323
3524	-0.067114
3520	-0.205183
3516	-0.118446
3512	0.041723
3508	0.043630
3504	-0.010013
3500	-0.034856
3496	-0.063586
3492	-0.031971
3488	0.144481
3484	0.317573
3480	0.261735
3476	0.086092
3472	0.040841
3468	0.155258
3464	0.223612
3460	0.153779
3456	0.065660
3452	0.047755
3448	0.102186
3444	0.127148
3440	0.087714
3436	0.026583
3432	0.014257
3428	0.047397
3424	0.041699
3420	0.033473
3416	0.080585
3412	0.109791
3408	-0.005102
3404	-0.143790
3400	-0.149965
3396	-0.104165
3392	-0.054621
3388	0.050354
3384	0.112557
3380	0.044703
3376	-0.019764
3372	-0.032210
3368	0.037360
3364	0.133872
3360	0.119304
3356	0.032758
3352	-0.076961
3348	-0.142312
3344	-0.136423
3340	-0.105547
3336	-0.004076
3332	0.097513
3328	0.077986
3324	0.072741
3320	0.174093
3316	0.273060
3312	0.253438
3308	0.133395
3304	0.032496
3300	-0.009083
3296	-0.016045
3292	0.044083
3288	0.096416
3284	0.032496
3280	-0.065565
3276	-0.115132
3272	-0.089526
3268	0.015020
3264	0.116419
3260	0.112366
3256	0.065088
3252	0.060272
3248	0.063467
3244	0.023150
3240	-0.018787
3236	-0.003862
3232	0.002336
3228	0.033855
3224	0.095844
3220	0.108480
3216	0.170731
3212	0.266051
3208	0.246596
3204	0.145983
3200	0.071406
3196	0.006771
3192	-0.048613
3188	-0.075721
3184	-0.064468
3180	-0.016665
3176	0.015664
3172	0.096082
3168	0.184607
3164	0.144958
3160	0.022864
3156	-0.092482
3152	-0.130581
3148	-0.104260
3144	-0.046014
3140	0.029563
3136	0.037527
3132	0.113391
3128	0.285649
3124	0.182819
3120	-0.101947
3116	-0.097179
3112	0.035762
3108	-0.016212
3104	-0.074458
3100	-0.006246
3096	0.056242
3092	0.046300
3088	0.026273
3084	-0.006246
3080	-0.060606
3076	-0.063872
3072	-0.008392
3068	0.059556
3064	0.085926
3060	0.074076
3056	0.069308
3052	0.025415
3048	-0.020837
3044	-0.006175
3040	-0.001263
3036	-0.009202
3032	-0.005841
3028	-0.012922
3024	-0.012183
3020	0.048851
3016	0.114059
3012	0.092172
3008	0.118684
3004	0.172209
3000	0.105357
2996	-0.003790
2992	-0.036311
2988	-0.006532
2984	0.003004
2980	0.014948
2976	0.105214
2972	0.186991
2968	0.216531
2964	0.237965
2960	0.192546
2956	0.069069
2952	-0.001955
2948	0.011348
2944	0.012946
2940	0.042057
2936	0.146627
2932	0.209522
2928	0.189971
2924	0.121402
2920	-0.010204
2916	-0.109958
2912	-0.066113
2908	0.055456
2904	0.125575
2900	0.096035
2896	0.020194
2892	-0.018644
2888	0.010061
2884	0.077056
2880	0.131845
2876	0.125503
2872	0.050902
2868	0.009250
2864	-0.002861
2860	0.001621
2856	0.062179
2852	0.085926
2848	0.057578
2844	0.022912
2840	0.018620
2836	0.028681
2832	0.013852
2828	0.030183
2824	0.042605
2820	0.010347
2816	-0.011301
2812	-0.032544
2808	-0.027108
2804	0.017595
2800	0.030493
2796	0.047898
2792	0.042724
2788	-0.023913
2784	-0.044751
2780	-0.007128
2776	-0.006723
2772	-0.033211
2768	-0.005459
2764	0.031852
2760	0.018882
2756	-0.011587
2752	-0.020384
2748	0.001239
2744	0.028133
2740	0.053143
2736	0.085759
2732	0.095677
2728	0.090885
2724	0.053858
2720	-0.016951
2716	-0.048375
2712	-0.043463
2708	-0.020861
2704	-0.007200
2700	0.027847
2696	0.069308
2692	0.055837
2688	0.044631
2684	0.043749
2680	0.040769
2676	0.066637
2672	0.094413
2668	0.051593
2664	-0.000643
2660	0.027132
2656	0.046706
2652	0.022196
2648	0.038409
2644	0.082254
2640	0.062608
2636	0.000977
2632	0.036978
2628	0.093436
2624	0.054764
2620	0.048422
2616	0.065708
2612	0.046491
2608	0.020790
2604	-0.033259
2600	-0.061702
2596	-0.003600
2592	0.060391
2588	0.068593
2584	0.047516
2580	-0.019288
2576	-0.082588
2572	-0.109457
2568	-0.104951
2564	-0.020575
2560	0.040149
2556	-0.032401
2552	-0.058412
2548	-0.018930
2544	-0.009107
2540	-0.034308
2536	-0.080633
2532	-0.050616
2528	0.034403
2524	0.043702
2520	0.061941
2516	0.139546
2512	0.058841
2508	-0.079941
2504	-0.083875
2500	-0.013494
2496	0.115513
2492	0.173830
2488	0.081753
2484	-0.008797
2480	0.008344
2476	0.069856
2472	0.109934
2468	0.187635
2464	0.210452
2460	0.108265
2456	0.012731
2452	-0.047183
2448	-0.065350
2444	-0.021839
2440	0.010347
2436	-0.083494
2432	-0.189709
2428	-0.196218
2424	-0.173830
2420	0.032377
2416	0.281310
2412	0.168752
2408	-0.036406
2404	0.001382
2400	0.102329
2396	0.104665
2392	0.075960
2388	0.086569
2384	0.104880
2380	0.073075
2376	0.033688
2372	0.036597
2368	0.108909
2364	0.205898
2360	0.228047
2356	0.176382
2352	0.102806
2348	0.099158
2344	0.190258
2340	0.270247
2336	0.325107
2332	0.402998
2328	0.452470
2324	0.444746
2320	0.439786
2316	0.484275
2312	0.534033
2308	0.584602
2304	0.707292
2300	0.834250
2296	0.871872
2292	0.894856
2288	0.990366
2284	1.110911
2280	1.201462
2276	1.300811
2272	1.407527
2268	1.480507
2264	1.564574
2260	1.747059
2256	2.003002
2252	2.228236
2248	2.406930
2244	2.552771
2240	2.688336
2236	2.855443
2232	3.045058
2228	3.264617
2224	3.547120
2220	3.860354
2216	4.123854
2212	4.328179
2208	4.581642
2204	4.955124
2200	5.307531
2196	5.555629
2192	5.889701
2188	6.348633
2184	6.762456
2180	7.142162
2176	7.555937
2172	7.950496
2168	8.333277
2164	8.748555
2160	9.183931
2156	9.637999
2152	10.203
2148	10.8175
2144	11.2645
2140	11.6897
2136	12.156
2132	12.5618
2128	13.0897
2124	13.7315
2120	14.3184
2116	14.8401
2112	15.3531
2108	15.8442
2104	16.2959
2100	16.8111
2096	17.3789
2092	17.9344
2088	18.511
2084	19.1107
2080	19.6659
2076	20.1438
2072	20.5964
2068	21.0372
2064	21.5773
2060	22.2477
2056	22.6922
2052	22.9489
2048	23.382
2044	23.8505
2040	24.2073
2036	24.5874
2032	25.0262
2028	25.4474
2024	25.8349
2020	26.2285
2016	26.6127
2012	26.9769
2008	27.355
2004	27.7434
2000	28.0807
1996	28.3621
1992	28.6854
1988	29.0909
1984	29.4896
1980	29.7821
1976	29.9467
1972	30.1417
1968	30.4986
1964	30.8344
1960	31.0416
1956	31.283
1952	31.5693
1948	31.8004
1944	32.0105
1940	32.2402
1936	32.4666
1932	32.6635
1928	32.8737
1924	33.1011
1920	33.29
1916	33.4599
1912	33.6236
1908	33.7851
1904	33.9782
1900	34.1793
1896	34.351
1892	34.5059
1888	34.6243
1884	34.7034
1880	34.8243
1876	34.9692
1872	35.0957
1868	35.2423
1864	35.3562
1860	35.4067
1856	35.4676
1852	35.5586
1848	35.6868
1844	35.8591
1840	36.0144
1836	36.1297
1832	36.2492
1828	36.3602
1824	36.4108
1820	36.4519
1816	36.5595
1812	36.6656
1808	36.6675
1804	36.6481
1800	36.7104
1796	36.8566
1792	37
1788	37.0428
1784	37.0586
1780	37.076
1776	37.13
1772	37.2238
1768	37.251
1764	37.283
1760	37.3617
1756	37.4175
1752	37.4326
1748	37.4199
1744	37.4118
1740	37.4284
1736	37.4781
1732	37.4843
1728	37.3662
1724	37.2588
1720	37.384
1716	37.6104
1712	37.6952
1708	37.7681
1704	37.9359
1700	38.0531
1696	37.9816
1692	37.8716
1688	37.9308
1684	38.0006
1680	37.9423
1676	37.8652
1672	37.7833
1668	37.7189
1664	37.697
1660	37.7744
1656	38.0188
1652	38.1472
1648	38.0583
1644	37.9706
1640	37.9681
1636	37.9905
1632	37.9206
1628	37.8486
1624	37.8754
1620	37.9447
1616	37.9167
1612	37.7429
1608	37.6175
1604	37.5853
1600	37.5922
1596	37.6414
1592	37.7081
1588	37.7842
1584	37.8365
1580	37.8936
1576	37.9074
1572	37.8492
1568	37.7979
1564	37.8365
1560	37.9469
1556	37.8777
1552	37.7219
1548	37.7371
1544	37.8748
1540	37.9734
1536	37.9418
1532	37.8444
1528	37.7596
1524	37.7639
1520	37.8191
1516	37.8264
1512	37.8849
1508	37.9272
1504	37.7459
1500	37.5373
1496	37.4909
1492	37.5274
1488	37.5341
1484	37.4542
1480	37.4362
1476	37.545
1472	37.6309
1468	37.6589
1464	37.7219
1460	37.7883
1456	37.6239
1452	37.3404
1448	37.3014
1444	37.3672
1440	37.394
1436	37.3295
1432	37.1243
1428	37.0419
1424	37.1531
1420	37.2466
1416	37.2372
1412	37.2018
1408	37.2242
1404	37.32
1400	37.4295
1396	37.4299
1392	37.3657
1388	37.3421
1384	37.2596
1380	37.1131
1376	36.9862
1372	36.9037
1368	36.9306
1364	37.0103
1360	37.031
1356	36.993
1352	37.0072
1348	37.1623
1344	37.3295
1340	37.3222
1336	37.1898
1332	37.09
1328	37.029
1324	36.9064
1320	36.7178
1316	36.6074
1312	36.614
1308	36.6103
1304	36.59
1300	36.5954
1296	36.5841
1292	36.6011
1288	36.6999
1284	36.8174
1280	36.903
1276	36.9633
1272	36.9407
1268	36.7564
1264	36.5398
1260	36.4543
1256	36.4159
1252	36.3377
1248	36.2738
1244	36.1975
1240	36.1247
1236	36.2074
1232	36.4321
1228	36.6036
1224	36.6571
1220	36.6979
1216	36.7325
1212	36.7096
1208	36.6331
1204	36.4995
1200	36.3758
1196	36.2803
1192	36.1581
1188	36.0643
1184	36.0415
1180	36.0394
1176	36.0295
1172	35.9878
1168	36.0163
1164	36.2258
1160	36.4014
1156	36.3902
1152	36.3079
1148	36.1961
1144	36.124
1140	36.1484
1136	36.0362
1132	35.7783
1128	35.6903
1124	35.7368
1120	35.6926
1116	35.5198
1112	35.4673
1108	35.7628
1104	36.0557
1100	36.1482
1096	36.2046
1092	36.196
1088	36.1185
1084	36.0878
1080	36.0596
1076	35.8819
1072	35.6297
1068	35.4166
1064	35.2213
1060	34.9859
1056	34.8243
1052	34.9111
1048	35.1353
1044	35.3145
1040	35.4461
1036	35.61
1032	35.7659
1028	35.6929
1024	35.4671
1020	35.4218
1016	35.602
1012	35.6628
1008	35.3646
1004	34.9998
1000	34.7984
996	 34.7731
992	 34.9416
988	 35.0217
984	 34.7753
980	 34.593
976	 34.8239
972	 35.1899
968	 35.3817
964	 35.424
960	 35.4219
956	 35.2926
952	 35.0541
948	 34.8773
944	 34.7403
940	 34.6349
936	 34.4989
932	 34.2622
928	 34.0912
924	 34.1297
920	 34.428
916	 34.7473
912	 34.8383
908	 34.8327
904	 34.7168
900	 34.4869
896	 34.3175
892	 34.2307
888	 34.2268
884	 34.253
880	 34.1614
876	 33.9083
872	 33.7667
868	 33.8511
864	 33.9041
860	 33.9316
856	 34.012
852	 34.1062
848	 34.2819
844	 34.4895
840	 34.5153
836	 34.3187
832	 34.0729
828	 33.8825
824	 33.6796
820	 33.5099
816	 33.4017
812	 33.1679
808	 32.9009
804	 32.7706
800	 32.7891
796	 33.0364
792	 33.4111
788	 33.6312
784	 33.5885
780	 33.4278
776	 33.3379
772	 33.3432
768	 33.3046
764	 33.179
760	 33.0256
756	 32.762
752	 32.43
748	 32.1663
744	 31.9851
740	 31.9054
736	 32.0525
732	 32.3378
728	 32.5707
724	 32.8365
720	 33.1399
716	 33.2856
712	 33.1577
708	 32.9704
704	 32.7753
700	 32.3991
696	 32.0366
692	 31.7961
688	 31.6288
684	 31.5605
680	 31.5036
676	 31.5025
672	 31.5942
668	 31.6892
664	 31.7224
660	 31.7633
656	 31.9332
652	 32.0335
648	 31.8496
644	 31.5889
640	 31.2469
636	 30.6549
632	 30.1139
628	 29.9293
624	 30.0356
620	 30.2042
616	 30.2518
612	 30.1594
608	 29.994
604	 29.9918
600	 30.3691
596	 30.8287
592	 31.0328
588	 31.0658
584	 30.9993
580	 30.6347
576	 30.1423
572	 29.7142
568	 29.3322
564	 29.094
560	 29.0853
556	 29.2017
552	 29.1733
548	 29.1778
544	 29.06
540	 28.6036
536	 28.4964
532	 28.8796
528	 29.1009
524	 28.8686
520	 28.5925
516	 28.6049
512	 28.737
508	 28.6308
504	 28.0191
500	 27.3591
496	 26.7164
492	 26.3512
488	 27.0183
484	 27.2486
480	 26.9834
476	 27.8252
472	 28.686
468	 29.1152
464	 29.2218
460	 28.4896
456	 27.6578
452	 26.9608
448	 26.8203
444	 27.4283
440	 27.0962
436	 26.0108
432	 25.116
428	 23.8851
424	 24.0546
420	 26.2244
416	 26.4893
412	 24.1031
408	 21.7835
404	 20.0071
400	 11.8649
396	 3.594255
392	 11.4767
388	 22.8342
384	 21.7327
380	 13.2529
376	 12.5228
372	 20.4597
370	 21.9832