File: Bakgrunnsmateriale/MATLAB/FTIR/ftir_data/LPE453/Mapping_121/LPE453_t43_cm-1.asc
PE IR       SPECTRUM    SPECTRUM    ASCII       PEDS        1.60
  -1
LP59D0~1.ASC
17/05/16
17:50:06.00
17/05/16
17:50:06.00
tln
$LPE453_t0043$<tbV0>[-10.4,-5.2,8.0,0.0,27,1,0]
370
64

2002,4.07
MIRTGS : RIGHTBACK : INTERNAL 2
MIR : ON : INTERNAL 2
OPTKBR

0.200000
8
8.000000
FILLER
RATIO
SPECTRUM
UNLOCKED 256

DOUBLE
64
COMBINED
1
0
0

1.000000
RATIO

1
0
TRUE
51149
0
LEFT NOT FITTED RIGHT NOT FITTED 0
NONE
NONE
15600
12
4.427000
51148
TRUE
1 0 8 72 0 0 0 0

15798

#HDR
-1
-1
#GR
CM-1
%T
2.38419e-05
0.0
5000
-1.000000
4631
8
47.5392
-1.816344
#DATA
5000	0.005578
4996	-0.155138
4992	-0.256085
4988	-0.091719
4984	0.103259
4980	0.049877
4976	-0.047492
4972	0.266551
4968	0.668001
4964	0.503396
4960	0.202155
4956	0.167536
4952	0.189542
4948	0.122714
4944	0.054264
4940	0.144052
4936	0.149655
4932	-0.051236
4928	-0.234723
4924	-0.236606
4920	-0.041913
4916	0.137639
4912	0.094461
4908	-0.010657
4904	0.176358
4900	0.377988
4896	0.370526
4892	0.541019
4888	0.640940
4884	0.174784
4880	-0.429391
4876	-0.563693
4872	-0.217294
4868	0.153422
4864	0.315356
4860	0.477719
4856	0.466799
4852	0.165104
4848	0.094461
4844	0.363278
4840	0.511288
4836	0.385427
4832	0.219917
4828	0.179028
4824	0.224184
4820	0.242280
4816	0.144839
4812	0.034976
4808	0.060439
4804	0.300049
4800	0.506138
4796	0.307488
4792	0.020647
4788	-0.025272
4784	-0.049662
4780	-0.112390
4776	-0.133085
4772	-0.102686
4768	-0.085830
4764	-0.092959
4760	-0.091123
4756	-0.069308
4752	0.026965
4748	0.022625
4744	-0.105118
4740	-0.048089
4736	0.274109
4732	0.550818
4728	0.631380
4724	0.518679
4720	0.304913
4716	0.161695
4712	0.105118
4708	0.091314
4704	0.056314
4700	0.158309
4696	0.479149
4692	0.540637
4688	0.288939
4684	0.353074
4680	0.639605
4676	0.602221
4672	0.389862
4668	0.350213
4664	0.438666
4660	0.424742
4656	0.315690
4652	0.333571
4648	0.428104
4644	0.473570
4640	0.498986
4636	0.504755
4632	0.487995
4628	0.471258
4624	0.529456
4620	0.678086
4616	0.773167
4612	0.678706
4608	0.641679
4604	0.572633
4600	0.229287
4596	-0.165987
4592	-0.364899
4588	-0.498509
4584	-1.084518
4580	-1.749205
4576	-1.705574
4572	-1.377415
4568	-1.233625
4564	-1.170301
4560	-1.351642
4556	-1.375031
4552	-1.096463
4548	-0.821113
4544	-0.492501
4540	-0.818848
4536	-1.129865
4532	-0.568938
4528	1.205062
4524	4.258871
4520	14.7132
4516	32.3149
4512	30.013
4508	8.207726
4504	-1.416563
4500	-0.321030
4496	-0.364899
4492	-0.436234
4488	-0.798273
4484	-1.489210
4480	-1.767325
4476	-1.678514
4472	-1.684117
4468	-1.384949
4464	-1.237654
4460	-1.288914
4456	-1.330018
4452	-1.405644
4448	-1.344585
4444	-1.220154
4440	-1.023459
4436	-0.610947
4432	-0.309109
4428	-0.299596
4424	-0.198864
4420	0.198340
4416	0.479316
4412	0.431108
4408	0.443720
4404	0.498032
4400	0.522017
4396	0.766253
4392	1.025867
4388	0.972533
4384	0.780010
4380	0.598573
4376	0.358819
4372	0.216722
4368	0.301790
4364	0.409817
4360	0.483417
4356	0.547862
4352	0.592970
4348	0.565958
4344	0.428247
4340	0.350117
4336	0.312185
4332	0.237607
4328	0.193643
4324	0.153613
4320	-0.014281
4316	-0.191235
4312	-0.067734
4308	0.004529
4304	-0.046634
4300	0.116205
4296	0.270009
4292	0.269818
4288	0.140810
4284	-0.046610
4280	-0.049543
4276	0.075387
4272	0.087642
4268	0.011491
4264	-0.013875
4260	0.162005
4256	0.370335
4252	0.252771
4248	-0.000953
4244	0.061941
4240	0.322103
4236	0.452852
4232	0.402450
4228	0.232481
4224	0.082015
4220	0.064134
4216	0.141215
4212	0.227785
4208	0.258898
4204	0.296926
4200	0.405526
4196	0.309991
4192	0.079393
4188	0.009584
4184	-0.188064
4180	-0.283980
4176	-0.025177
4172	0.237393
4168	0.622153
4164	0.793313
4160	0.445652
4156	0.207614
4152	0.237846
4148	0.236988
4144	0.232958
4140	0.285029
4136	0.272822
4132	0.043368
4128	-0.191593
4124	-0.175547
4120	-0.011086
4116	0.105381
4112	0.128769
4108	0.075316
4104	0.012826
4100	0.067281
4096	0.149726
4092	0.154948
4088	0.136518
4084	0.040531
4080	-0.018072
4076	0.054764
4072	0.060677
4068	0.010943
4064	0.076627
4060	0.182533
4056	0.178027
4052	0.093078
4048	0.112175
4044	0.181984
4040	0.143861
4036	0.091290
4032	0.084114
4028	0.094747
4024	0.190234
4020	0.283741
4016	0.167226
4012	-0.018453
4008	-0.070881
4004	-0.041890
4000	-0.028467
3996	-0.008821
3992	0.024080
3988	0.003194
3984	0.031995
3980	0.161409
3976	0.231695
3972	0.274419
3968	0.354170
3964	0.387191
3960	0.309967
3956	0.203061
3952	0.181770
3948	0.192809
3944	0.195240
3940	0.199222
3936	0.124073
3932	0.002336
3928	0.026297
3924	0.167179
3920	0.255203
3916	0.189542
3912	0.064277
3908	0.042223
3904	0.012421
3900	-0.053167
3896	-0.081205
3892	-0.071668
3888	-0.005197
3884	0.056385
3880	0.130510
3876	0.258421
3872	0.273203
3868	0.082921
3864	-0.114083
3860	-0.088262
3856	0.065422
3852	0.112462
3848	0.114083
3844	0.133299
3840	0.042700
3836	-0.079798
3832	-0.070595
3828	0.063443
3824	0.206136
3820	0.254368
3816	0.220441
3812	0.159692
3808	0.088167
3804	-0.001573
3800	-0.097465
3796	-0.121998
3792	-0.055980
3788	-0.028014
3784	0.000095
3780	0.103640
3776	0.153970
3772	0.109124
3768	0.051641
3764	0.051069
3760	0.106263
3756	0.197529
3752	0.263190
3748	0.217056
3744	0.172519
3740	0.246047
3736	0.198888
3732	0.042390
3728	0.034189
3724	0.118660
3720	0.232291
3716	0.340199
3712	0.324130
3708	0.217866
3704	0.122618
3700	0.066447
3696	-0.006628
3692	-0.105094
3688	-0.092148
3684	0.028824
3680	0.079584
3676	0.026917
3672	-0.011610
3668	0.020956
3664	0.029063
3660	-0.045228
3656	-0.049114
3652	0.054812
3648	0.135231
3644	0.159931
3640	0.066542
3636	-0.046634
3632	0.042438
3628	0.168108
3624	0.119400
3620	0.059604
3616	0.070834
3612	0.025844
3608	-0.031065
3604	-0.020194
3600	-0.004577
3596	0.021696
3592	0.023984
3588	-0.006508
3584	0.060582
3580	0.134325
3576	0.094938
3572	0.055551
3568	0.143647
3564	0.254487
3560	0.206637
3556	0.096774
3552	0.040483
3548	0.042700
3544	0.075793
3540	0.077462
3536	0.056624
3532	-0.041556
3528	-0.142145
3524	-0.077438
3520	0.001955
3516	-0.041699
3512	-0.047802
3508	0.012207
3504	0.027608
3500	0.034546
3496	0.081992
3492	0.171113
3488	0.230884
3484	0.260519
3480	0.312733
3476	0.261592
3472	0.073504
3468	-0.034093
3464	0.002717
3460	0.074768
3456	0.077438
3452	-0.025582
3448	-0.133061
3444	-0.145006
3440	-0.095367
3436	-0.006914
3432	0.019001
3428	-0.018811
3424	0.003600
3420	0.002765
3416	-0.039672
3412	0.025033
3408	0.081706
3404	0.046038
3400	0.050354
3396	0.076913
3392	0.092458
3388	0.068163
3384	0.008964
3380	-0.009965
3376	-0.061559
3372	-0.105285
3368	-0.053644
3364	-0.023388
3360	-0.001358
3356	0.079011
3352	0.112271
3348	0.057196
3344	-0.015425
3340	0.008320
3336	0.132942
3332	0.208115
3328	0.225949
3324	0.185227
3320	0.067186
3316	0.031137
3312	0.121259
3308	0.225758
3304	0.236678
3300	0.129365
3296	0.015640
3292	0.027990
3288	0.137042
3284	0.184059
3280	0.176358
3276	0.190067
3272	0.161385
3268	0.068354
3264	0.015521
3260	-0.008416
3256	-0.054430
3252	-0.033664
3248	0.046658
3244	0.111365
3240	0.154161
3236	0.165414
3232	0.157046
3228	0.134348
3224	0.092768
3220	0.042152
3216	0.023555
3212	0.031065
3208	0.020503
3204	0.001788
3200	0.003409
3196	0.092744
3192	0.177073
3188	0.112318
3184	-0.005841
3180	-0.039625
3176	0.009512
3172	0.045108
3168	0.078606
3164	0.140762
3160	0.093007
3156	-0.034070
3152	-0.076127
3148	-0.053381
3144	-0.018143
3140	-0.009989
3136	0.050663
3132	0.217509
3128	0.316071
3124	0.325655
3120	0.215911
3116	-0.000786
3112	-0.116562
3108	-0.153470
3104	-0.116705
3100	-0.015592
3096	0.032043
3092	0.069808
3088	0.089478
3084	0.066280
3080	0.043439
3076	-0.000643
3072	-0.056385
3068	-0.069332
3064	-0.037646
3060	-0.007796
3056	0.002765
3052	0.008201
3048	0.027751
3044	0.039768
3040	0.062942
3036	0.088477
3032	0.022554
3028	-0.032997
3024	0.024843
3020	0.034737
3016	-0.054717
3012	-0.094819
3008	-0.063848
3004	-0.024437
3000	0.016307
2996	0.056910
2992	0.066471
2988	0.059795
2984	0.113320
2980	0.160384
2976	0.063276
2972	-0.096797
2968	-0.119352
2964	-0.003933
2960	0.064921
2956	0.029706
2952	0.009346
2948	0.037813
2944	0.031781
2940	-0.012660
2936	-0.014162
2932	0.028181
2928	0.035381
2924	0.024080
2920	0.058412
2916	0.107979
2912	0.066828
2908	-0.026297
2904	-0.011610
2900	0.048923
2896	0.040793
2892	0.011372
2888	-0.017070
2884	-0.023317
2880	-0.013399
2876	0.005698
2872	0.032520
2868	0.009417
2864	-0.014400
2860	0.004029
2856	-0.028872
2852	-0.053596
2848	0.071859
2844	0.163435
2840	0.039339
2836	-0.114703
2832	-0.112700
2828	-0.021386
2824	0.031876
2820	-0.001406
2816	-0.073647
2812	-0.065708
2808	0.001239
2804	0.054812
2800	0.085401
2796	0.035214
2792	-0.063347
2788	-0.086450
2784	-0.078082
2780	-0.094056
2776	-0.042939
2772	0.069141
2768	0.177407
2764	0.183820
2760	0.130891
2756	0.135970
2752	0.093436
2748	0.000667
2744	0.017881
2740	0.095319
2736	0.047326
2732	-0.064992
2728	-0.066399
2724	0.006937
2720	0.033497
2716	-0.026869
2712	-0.081801
2708	-0.032186
2704	0.045514
2700	0.052237
2696	0.013208
2692	0.010395
2688	0.041437
2684	0.043511
2680	-0.009107
2676	-0.043320
2672	-0.025701
2668	-0.001597
2664	0.030684
2660	0.050830
2656	0.052404
2652	0.054717
2648	0.028920
2644	0.014853
2640	0.002980
2636	-0.041842
2632	0.000214
2628	0.108599
2624	0.127768
2620	0.055789
2616	0.015902
2612	0.031065
2608	0.039482
2604	0.019407
2600	-0.050354
2596	-0.108361
2592	-0.089049
2588	-0.078630
2584	-0.095558
2580	-0.045394
2576	0.040102
2572	0.045394
2568	0.022625
2564	0.050878
2560	0.037384
2556	0.013518
2552	0.035381
2548	0.047087
2544	0.099802
2540	0.148391
2536	0.144195
2532	0.128746
2528	0.119328
2524	0.159645
2520	0.140166
2516	0.041174
2512	0.050544
2508	0.101923
2504	0.052428
2500	0.023102
2496	0.058388
2492	0.044441
2488	0.047874
2484	0.097393
2480	0.084447
2476	0.057721
2472	0.026988
2468	-0.031185
2464	-0.032401
2460	0.021767
2456	0.036525
2452	-0.028705
2448	-0.089097
2444	-0.037908
2440	0.021839
2436	-0.047421
2432	-0.054502
2428	0.014543
2424	0.028467
2420	0.240635
2416	0.423979
2412	0.254893
2408	0.148463
2404	0.131583
2400	0.012755
2396	-0.013446
2392	0.046515
2388	0.039625
2384	0.011253
2380	0.020289
2376	0.035738
2372	0.018978
2368	0.047492
2364	0.107145
2360	0.094723
2356	0.088191
2352	0.139307
2348	0.162768
2344	0.132656
2340	0.134706
2336	0.174784
2332	0.204157
2328	0.227189
2324	0.267362
2320	0.320744
2316	0.368762
2312	0.440835
2308	0.504279
2304	0.499057
2300	0.465369
2296	0.502061
2292	0.618314
2288	0.733423
2284	0.836730
2280	0.947642
2276	1.027870
2272	1.080489
2268	1.180791
2264	1.295423
2260	1.371932
2256	1.493716
2252	1.637196
2248	1.754689
2244	1.928043
2240	2.104020
2236	2.237129
2232	2.434635
2228	2.686119
2224	2.943372
2220	3.205013
2216	3.445529
2212	3.649997
2208	3.846168
2204	4.126882
2200	4.476475
2196	4.794645
2192	5.104160
2188	5.445432
2184	5.753540
2180	6.081056
2176	6.520891
2172	7.000780
2168	7.451248
2164	7.848381
2160	8.233833
2156	8.642053
2152	9.114718
2148	9.703254
2144	10.2594
2140	10.7433
2136	11.2631
2132	11.7219
2128	12.0854
2124	12.5061
2120	13.0177
2116	13.5906
2112	14.1887
2108	14.7508
2104	15.2532
2100	15.7381
2096	16.2673
2092	16.8214
2088	17.3451
2084	17.7526
2080	18.1481
2076	18.6521
2072	19.1444
2068	19.6768
2064	20.2605
2060	20.7471
2056	21.251
2052	21.8075
2048	22.235
2044	22.6266
2040	23.0721
2036	23.4522
2032	23.8037
2028	24.2667
2024	24.778
2020	25.177
2016	25.5144
2012	25.8615
2008	26.2049
2004	26.5438
2000	26.8707
1996	27.1991
1992	27.5024
1988	27.7902
1984	28.1157
1980	28.4373
1976	28.7385
1972	29.051
1968	29.3446
1964	29.61
1960	29.8623
1956	30.056
1952	30.1949
1948	30.4107
1944	30.724
1940	30.9666
1936	31.094
1932	31.2469
1928	31.5023
1924	31.7636
1920	31.9241
1916	32.0425
1912	32.2079
1908	32.3854
1904	32.5088
1900	32.5784
1896	32.6705
1892	32.8198
1888	32.973
1884	33.1358
1880	33.3216
1876	33.4617
1872	33.5719
1868	33.6965
1864	33.7897
1860	33.8745
1856	33.9637
1852	33.9961
1848	34.0003
1844	34.0103
1840	34.0608
1836	34.1674
1832	34.2808
1828	34.3625
1824	34.4013
1820	34.474
1816	34.6195
1812	34.7721
1808	34.8923
1804	34.9495
1800	34.9428
1796	34.9107
1792	34.8858
1788	34.9151
1784	34.9471
1780	34.9017
1776	34.8961
1772	35.0173
1768	35.1367
1764	35.1691
1760	35.1996
1756	35.2222
1752	35.1893
1748	35.1844
1744	35.2097
1740	35.2009
1736	35.1613
1732	35.1627
1728	35.2435
1724	35.3359
1720	35.3936
1716	35.4764
1712	35.5579
1708	35.5605
1704	35.5416
1700	35.5025
1696	35.4587
1692	35.444
1688	35.3882
1684	35.3306
1680	35.2992
1676	35.2606
1672	35.2414
1668	35.2525
1664	35.3191
1660	35.4015
1656	35.4497
1652	35.5105
1648	35.5678
1644	35.5837
1640	35.5812
1636	35.5801
1632	35.5735
1628	35.5216
1624	35.4257
1620	35.3462
1616	35.3334
1612	35.3859
1608	35.4395
1604	35.4705
1600	35.5209
1596	35.5539
1592	35.5627
1588	35.5646
1584	35.5527
1580	35.5304
1576	35.4298
1572	35.3275
1568	35.3381
1564	35.3375
1560	35.2708
1556	35.2678
1552	35.3659
1548	35.5057
1544	35.622
1540	35.6817
1536	35.6901
1532	35.6255
1528	35.5089
1524	35.381
1520	35.3267
1516	35.3551
1512	35.3052
1508	35.1758
1504	35.1343
1500	35.1902
1496	35.2663
1492	35.3607
1488	35.454
1484	35.4973
1480	35.4621
1476	35.3802
1472	35.3101
1468	35.2669
1464	35.2109
1460	35.1122
1456	35.0538
1452	35.0505
1448	35.0226
1444	34.9941
1440	34.9207
1436	34.8393
1432	34.9551
1428	35.1615
1424	35.2743
1420	35.324
1416	35.3348
1412	35.3035
1408	35.1838
1404	35.0108
1400	34.9347
1396	34.9471
1392	34.8737
1388	34.7233
1384	34.6632
1380	34.7231
1376	34.8689
1372	35.0296
1368	35.1175
1364	35.1379
1360	35.1129
1356	35.0413
1352	34.9426
1348	34.8555
1344	34.7761
1340	34.6811
1336	34.5827
1332	34.5321
1328	34.5585
1324	34.6256
1320	34.7162
1316	34.8456
1312	34.9996
1308	35.0926
1304	35.0414
1300	34.9442
1296	34.8692
1292	34.7484
1288	34.6151
1284	34.5279
1280	34.4618
1276	34.3878
1272	34.3655
1268	34.4276
1264	34.5615
1260	34.7093
1256	34.7124
1252	34.64
1248	34.6246
1244	34.6401
1240	34.6326
1236	34.5683
1232	34.4975
1228	34.3781
1224	34.2179
1220	34.1397
1216	34.1383
1212	34.1819
1208	34.2612
1204	34.3807
1200	34.4881
1196	34.5677
1192	34.7059
1188	34.7729
1184	34.6624
1180	34.5171
1176	34.4502
1172	34.3536
1168	34.1429
1164	33.9504
1160	33.8569
1156	33.8345
1152	33.9066
1148	34.0731
1144	34.2484
1140	34.3338
1136	34.3817
1132	34.4455
1128	34.3879
1124	34.2161
1120	34.1091
1116	34.0983
1112	34.0241
1108	33.8022
1104	33.6047
1100	33.5297
1096	33.4968
1092	33.6324
1088	34.007
1084	34.2322
1080	34.1824
1076	34.155
1072	34.1801
1068	34.1157
1064	33.9771
1060	33.8619
1056	33.7402
1052	33.534
1048	33.3847
1044	33.3636
1040	33.338
1036	33.3398
1032	33.4014
1028	33.4951
1024	33.7094
1020	33.9465
1016	34.001
1012	33.9261
1008	33.8069
1004	33.6018
1000	33.2899
996	 33.0208
992	 32.9203
988	 32.928
984	 32.9558
980	 33.0298
976	 33.1336
972	 33.2053
968	 33.3202
964	 33.3787
960	 33.2974
956	 33.285
952	 33.3698
948	 33.293
944	 33.0361
940	 32.8305
936	 32.6755
932	 32.4677
928	 32.3405
924	 32.4444
920	 32.679
916	 32.8463
912	 32.8764
908	 32.8299
904	 32.8175
900	 32.9301
896	 32.9511
892	 32.6787
888	 32.4387
884	 32.3239
880	 32.1172
876	 31.9453
872	 31.925
868	 31.9079
864	 31.8319
860	 31.8418
856	 31.9813
852	 32.148
848	 32.3223
844	 32.4002
840	 32.2723
836	 32.1166
832	 31.9877
828	 31.7317
824	 31.4059
820	 31.2514
816	 31.2231
812	 31.0976
808	 31.0071
804	 31.0656
800	 31.1603
796	 31.2879
792	 31.4242
788	 31.5939
784	 31.698
780	 31.593
776	 31.4429
772	 31.2199
768	 30.8327
764	 30.5304
760	 30.4098
756	 30.2537
752	 29.8672
748	 29.5939
744	 29.9721
740	 30.5964
736	 30.8641
732	 30.8633
728	 30.7535
724	 30.552
720	 30.2789
716	 29.9708
712	 29.718
708	 29.5188
704	 29.3873
700	 29.4439
696	 29.5786
692	 29.5363
688	 29.3524
684	 29.3401
680	 29.5286
676	 29.7287
672	 29.882
668	 29.8547
664	 29.7356
660	 29.5955
656	 29.2943
652	 29.0297
648	 28.8666
644	 28.644
640	 28.5108
636	 28.5583
632	 28.6862
628	 28.7188
624	 28.4971
620	 28.3044
616	 28.3918
612	 28.4055
608	 28.1511
604	 27.9816
600	 27.7163
596	 27.3057
592	 27.2763
588	 27.2635
584	 27.0443
580	 26.9487
576	 26.8321
572	 26.8878
568	 27.1722
564	 27.1862
560	 27.0398
556	 27.2267
552	 27.5074
548	 27.2698
544	 26.8586
540	 26.6939
536	 26.5139
532	 26.3387
528	 26.2583
524	 25.9941
520	 25.3604
516	 24.9974
512	 25.6258
508	 26.2829
504	 25.8992
500	 25.28
496	 25.2022
492	 25.0138
488	 24.2253
484	 23.7957
480	 24.0116
476	 24.1915
472	 24.2971
468	 24.0706
464	 23.2879
460	 22.4892
456	 22.5292
452	 23.2663
448	 22.9583
444	 21.5154
440	 21.1232
436	 21.985
432	 23.5354
428	 24.9085
424	 24.3167
420	 23.1647
416	 23.5331
412	 24.4956
408	 24.2858
404	 23.7056
400	 20.5794
396	 17.8082
392	 29.1698
388	 45.7005
384	 43.3408
380	 24.5889
376	 5.253481
372	 3.962659
370	 7.262730