File: Bakgrunnsmateriale/MATLAB/FTIR/ftir_data/LPE453/Mapping_121/LPE453_t26_cm-1.asc
PE IR       SPECTRUM    SPECTRUM    ASCII       PEDS        1.60
  -1
LP685A~1.ASC
17/05/16
16:31:06.00
17/05/16
16:31:06.00
tln
$LPE453_t0026$<tbV0>[5.2,-7.8,8.0,0.0,27,1,0]
370
64

2002,4.07
MIRTGS : RIGHTBACK : INTERNAL 2
MIR : ON : INTERNAL 2
OPTKBR

0.200000
8
8.000000
FILLER
RATIO
SPECTRUM
UNLOCKED 256

DOUBLE
64
COMBINED
1
0
0

1.000000
RATIO

1
0
TRUE
51149
0
LEFT NOT FITTED RIGHT NOT FITTED 0
NONE
NONE
15600
12
4.427000
51148
TRUE
1 0 8 72 0 0 0 0

15798

#HDR
-1
-1
#GR
CM-1
%T
2.38419e-05
0.0
5000
-1.000000
4631
8
28.9836
-4.080152
#DATA
5000	0.228953
4996	-0.107669
4992	-0.091290
4988	0.071525
4984	0.046801
4980	-0.203561
4976	-0.176525
4972	0.374245
4968	0.673294
4964	0.658607
4960	0.624799
4956	0.205731
4952	-0.310826
4948	-0.306558
4944	-0.052213
4940	0.045824
4936	0.160813
4932	0.261163
4928	0.177574
4924	0.124931
4920	0.318264
4916	0.404334
4912	0.200390
4908	0.064349
4904	0.203847
4900	0.432801
4896	0.489211
4892	0.360703
4888	0.260448
4884	0.184035
4880	0.041270
4876	0.159263
4872	0.346922
4868	0.173330
4864	0.024628
4860	0.153112
4856	0.380802
4852	0.522112
4848	0.412201
4844	0.294566
4840	0.463271
4836	0.712633
4832	0.672197
4828	0.376915
4824	0.276923
4820	0.352764
4816	0.320434
4812	0.232195
4808	0.185012
4804	0.265645
4800	0.270009
4796	0.031495
4792	-0.047349
4788	0.225543
4784	0.441074
4780	0.407433
4776	0.397682
4772	0.447773
4768	0.401568
4764	0.343322
4760	0.330352
4756	0.291657
4752	0.282764
4748	0.347590
4744	0.359964
4740	0.266933
4736	0.262331
4732	0.299668
4728	0.207996
4724	-0.012516
4720	-0.062394
4716	0.070428
4712	-0.069093
4708	-0.251221
4704	-0.078940
4700	0.259971
4696	0.301909
4692	0.203919
4688	0.526285
4684	0.822091
4680	0.613808
4676	0.258064
4672	0.129914
4668	0.325727
4664	0.487780
4660	0.410318
4656	0.422406
4652	0.502204
4648	0.596070
4644	0.746679
4640	0.613927
4636	0.342893
4632	0.200700
4628	0.025629
4624	0.082159
4620	0.463628
4616	0.933337
4612	1.218557
4608	1.155805
4604	0.483369
4600	-0.395798
4596	-0.655555
4592	-0.876140
4588	-1.201248
4584	-1.127910
4580	-0.649213
4576	-0.062704
4572	-0.449275
4568	-1.869845
4564	-2.709221
4560	-2.621579
4556	-2.671718
4552	-3.525304
4548	-4.080152
4544	-3.258442
4540	-2.034378
4536	-1.443219
4532	-1.215958
4528	-0.668215
4524	-0.775694
4520	2.551698
4516	15.8094
4512	28.0369
4508	25.8743
4504	14.7541
4500	5.926632
4496	1.901674
4492	0.304746
4488	-1.259660
4484	-1.981949
4480	-2.001571
4476	-1.808500
4472	-1.729941
4468	-1.591420
4464	-1.225519
4460	-1.029515
4456	-1.140880
4452	-1.480460
4448	-1.644468
4444	-1.613426
4440	-1.475214
4436	-1.100921
4432	-0.910949
4428	-0.864958
4424	-0.704002
4420	-0.528311
4416	-0.200843
4412	0.154733
4408	0.194334
4404	0.203394
4400	0.305724
4396	0.448131
4392	0.659012
4388	0.634384
4384	0.562310
4380	0.611901
4376	0.619411
4372	0.547051
4368	0.461435
4364	0.419545
4360	0.506377
4356	0.640535
4352	0.600862
4348	0.465250
4344	0.361704
4340	0.342035
4336	0.398039
4332	0.364804
4328	0.193262
4324	-0.013709
4320	-0.051689
4316	0.047039
4312	-0.056672
4308	-0.147533
4304	0.114369
4300	0.442528
4296	0.354099
4292	-0.040936
4288	-0.183248
4284	0.020837
4280	0.053596
4276	-0.063300
4272	0.132894
4268	0.386500
4264	0.376772
4260	0.358629
4256	0.331091
4252	0.259232
4248	0.341796
4244	0.373792
4240	0.220274
4236	0.059652
4232	-0.059747
4228	-0.049304
4224	0.136637
4220	0.271487
4216	0.276279
4212	0.266075
4208	0.268983
4204	0.407648
4200	0.607490
4196	0.444364
4192	0.105905
4188	-0.066733
4184	-0.058817
4180	0.280928
4176	0.546503
4172	0.382328
4168	0.281620
4164	0.388264
4160	0.369000
4156	0.276184
4152	0.274348
4148	0.333142
4144	0.367259
4140	0.402784
4136	0.370240
4132	0.189447
4128	0.090956
4124	0.158166
4120	0.250101
4116	0.308728
4112	0.253152
4108	0.073838
4104	-0.041770
4100	0.013995
4096	0.178599
4092	0.210595
4088	0.132513
4084	0.112271
4080	0.058603
4076	0.046086
4072	0.047230
4068	0.013065
4064	0.059151
4060	-0.012397
4056	-0.142049
4052	-0.119304
4048	-0.062680
4044	-0.019335
4040	0.038647
4036	0.040817
4032	-0.050115
4028	-0.043702
4024	0.120544
4020	0.272846
4016	0.163483
4012	-0.045204
4008	0.041961
4004	0.193238
4000	0.076770
3996	0.004053
3992	0.103402
3988	0.090646
3984	0.016093
3980	0.074410
3976	0.192975
3972	0.181365
3968	0.154542
3964	0.148534
3960	0.056052
3956	0.095152
3952	0.203180
3948	0.128245
3944	0.043916
3940	0.057721
3936	0.010442
3932	-0.076723
3928	-0.106859
3924	-0.028800
3920	0.170326
3916	0.235366
3912	0.104761
3908	0.028252
3904	0.041079
3900	0.117707
3896	0.143694
3892	0.036716
3888	0.007414
3884	0.085783
3880	0.148367
3876	0.074911
3872	-0.054550
3868	-0.071954
3864	0.038409
3860	0.152564
3856	0.132274
3852	0.063896
3848	0.040221
3844	-0.006818
3840	-0.011801
3836	0.096416
3832	0.194811
3828	0.128412
3824	-0.021100
3820	-0.052118
3816	0.089240
3812	0.214362
3808	0.222659
3804	0.210380
3800	0.103926
3796	-0.069737
3792	-0.078630
3788	0.025963
3784	0.098800
3780	0.091934
3776	-0.044465
3772	-0.168466
3768	-0.110340
3764	0.005078
3760	0.028252
3756	0.026535
3752	0.071620
3748	0.129246
3744	0.168061
3740	0.201654
3736	0.155806
3732	0.098919
3728	0.157141
3724	0.154209
3720	0.077557
3716	0.050735
3712	-0.018048
3708	-0.068140
3704	0.026369
3700	0.145030
3696	0.167393
3692	0.151062
3688	0.142884
3684	0.072908
3680	-0.009322
3676	0.034785
3672	0.066471
3668	0.005531
3664	0.032687
3660	0.092577
3656	0.108098
3652	0.168633
3648	0.143885
3644	-0.007414
3640	-0.068974
3636	-0.049662
3632	-0.058579
3628	-0.043725
3624	0.013399
3620	0.079774
3616	0.133728
3612	0.140309
3608	0.138044
3604	0.204563
3600	0.265979
3596	0.174570
3592	0.042772
3588	0.006222
3584	0.012707
3580	0.068664
3576	0.108337
3572	0.058269
3568	-0.007510
3564	0.009298
3560	0.079083
3556	0.079536
3552	0.037527
3548	0.029039
3544	0.039172
3540	0.071406
3536	0.115036
3532	0.073647
3528	0.005817
3524	0.019669
3520	-0.016331
3516	-0.146722
3512	-0.130939
3508	0.079894
3504	0.210475
3500	0.161695
3496	0.073051
3492	0.085616
3488	0.142097
3484	0.104188
3480	0.048661
3476	0.053286
3472	0.127029
3468	0.148868
3464	0.008821
3460	-0.072336
3456	-0.053358
3452	-0.062203
3448	-0.051712
3444	0.004911
3440	0.075769
3436	0.091671
3432	0.101852
3428	0.130105
3424	0.086903
3420	-0.011587
3416	-0.108218
3412	-0.145626
3408	-0.060725
3404	-0.006484
3400	-0.050950
3396	-0.054049
3392	-0.040745
3388	-0.050210
3384	-0.008988
3380	0.052499
3376	0.065875
3372	0.086998
3368	0.116491
3364	0.108647
3360	0.085139
3356	0.047707
3352	0.093030
3348	0.220465
3344	0.263381
3340	0.207161
3336	0.123524
3332	0.066518
3328	-0.012111
3324	-0.082230
3320	-0.019001
3316	0.069808
3312	0.088095
3308	0.057983
3304	0.023365
3300	0.037336
3296	0.044202
3292	0.082588
3288	0.180745
3284	0.186777
3280	0.126814
3276	0.134444
3272	0.140380
3268	0.073194
3264	-0.013828
3260	-0.015926
3256	0.054550
3252	0.025463
3248	-0.094938
3244	-0.109291
3240	-0.019168
3236	0.040578
3232	0.047230
3228	0.047039
3224	0.053143
3220	0.020074
3216	-0.067067
3212	-0.155210
3208	-0.159358
3204	0.014042
3200	0.198793
3196	0.147938
3192	0.016450
3188	-0.008201
3184	0.034594
3180	0.025629
3176	-0.031995
3172	-0.049161
3168	-0.096583
3164	-0.192022
3160	-0.192284
3156	-0.069046
3152	0.036525
3148	0.061869
3144	0.110197
3140	0.205278
3136	0.196766
3132	0.106287
3128	0.034666
3124	0.042700
3120	0.039196
3116	-0.034618
3112	-0.038409
3108	0.002217
3104	0.029897
3100	0.139713
3096	0.232815
3092	0.198125
3088	0.129461
3084	0.075697
3080	0.101280
3076	0.166797
3072	0.107884
3068	0.015664
3064	-0.009846
3060	-0.033402
3056	-0.017261
3052	0.090527
3048	0.180125
3044	0.141739
3040	0.048184
3036	-0.023698
3032	-0.044703
3028	-0.035095
3024	-0.028133
3020	0.023055
3016	0.050830
3012	0.022363
3008	0.038886
3004	0.073146
3000	0.060224
2996	0.031280
2992	0.009131
2988	0.015068
2984	0.069999
2980	0.099873
2976	0.089645
2972	0.157213
2968	0.273799
2964	0.258994
2960	0.135540
2956	0.070309
2952	0.105094
2948	0.144386
2944	0.144076
2940	0.113654
2936	0.050210
2932	0.052785
2928	0.108075
2924	0.102472
2920	0.043344
2916	0.024628
2912	0.072240
2908	0.090456
2904	0.113272
2900	0.184726
2896	0.167417
2892	0.068902
2888	0.012826
2884	0.029468
2880	0.105738
2876	0.147819
2872	0.102996
2868	0.041580
2864	0.051379
2860	0.145077
2856	0.197482
2852	0.131464
2848	0.021362
2844	-0.046062
2840	-0.024890
2836	0.056457
2832	0.082945
2828	0.042462
2824	0.020670
2820	-0.000977
2816	-0.033211
2812	-0.035095
2808	-0.012826
2804	0.036001
2800	0.074410
2796	0.067615
2792	0.095701
2788	0.124049
2784	0.032639
2780	-0.039553
2776	-0.018906
2772	-0.006198
2768	-0.033307
2764	-0.046300
2760	0.056838
2756	0.100326
2752	-0.010991
2748	-0.029253
2744	0.011849
2740	0.003242
2736	0.016951
2732	0.018143
2728	0.006151
2724	0.037837
2720	0.086998
2716	0.142931
2712	0.162291
2708	0.101828
2704	0.039052
2700	-0.000929
2696	-0.012612
2692	0.009942
2688	0.013279
2684	0.018215
2680	0.059771
2676	0.113701
2672	0.127530
2668	0.088095
2664	0.035548
2660	0.004959
2656	-0.014972
2652	-0.047779
2648	-0.041365
2644	0.028562
2640	0.110292
2636	0.124001
2632	0.037002
2628	-0.052213
2624	-0.065040
2620	0.016021
2616	0.118494
2612	0.126647
2608	0.082731
2604	0.085353
2600	0.111126
2596	0.078725
2592	0.012683
2588	-0.011515
2584	0.004482
2580	0.021624
2576	0.003337
2572	-0.033044
2568	-0.039601
2564	-0.050020
2560	-0.057697
2556	-0.035047
2552	0.039720
2548	0.093650
2544	0.027871
2540	-0.041747
2536	-0.012564
2532	0.067949
2528	0.133895
2524	0.140094
2520	0.085091
2516	-0.006628
2512	0.003957
2508	0.099539
2504	0.025606
2500	-0.080418
2496	-0.003099
2492	0.118565
2488	0.125837
2484	0.046873
2480	0.042366
2476	0.102591
2472	0.084543
2468	0.049924
2464	0.044560
2460	0.008082
2456	-0.003671
2452	0.004482
2448	0.035166
2444	0.086498
2440	0.020384
2436	-0.028491
2432	0.061750
2428	0.028991
2424	-0.025629
2420	0.124454
2416	0.200223
2412	0.127935
2408	0.136065
2404	0.166630
2400	0.109863
2396	0.065827
2392	0.032639
2388	0.015044
2384	-0.014305
2380	-0.025987
2376	0.015020
2372	0.049495
2368	0.053191
2364	0.018715
2360	-0.039005
2356	-0.073099
2352	-0.089812
2348	-0.079345
2344	-0.036668
2340	-0.022578
2336	0.023293
2332	0.066661
2328	0.011205
2324	-0.041794
2320	-0.035262
2316	-0.033664
2312	-0.011754
2308	0.059175
2304	0.084018
2300	0.037121
2296	-0.020480
2292	-0.031375
2288	0.000047
2284	0.044608
2280	0.106406
2276	0.138688
2272	0.105190
2268	0.103330
2264	0.121140
2260	0.068998
2256	0.084781
2252	0.194001
2248	0.328731
2244	0.439429
2240	0.474405
2236	0.524139
2232	0.571203
2228	0.592565
2224	0.669574
2220	0.767970
2216	0.837755
2212	0.885105
2208	0.959444
2204	1.122808
2200	1.318287
2196	1.467370
2192	1.558876
2188	1.648807
2184	1.814365
2180	2.056932
2176	2.254128
2172	2.318453
2168	2.439045
2164	2.753758
2160	3.092527
2156	3.325057
2152	3.526377
2148	3.726100
2144	3.987693
2140	4.404425
2136	4.828095
2132	5.161333
2128	5.455493
2124	5.709123
2120	5.962061
2116	6.314134
2112	6.712317
2108	7.040214
2104	7.335996
2100	7.706284
2096	8.138632
2092	8.541584
2088	8.965945
2084	9.448003
2080	9.892535
2076	10.2715
2072	10.5727
2068	10.875
2064	11.3339
2060	11.7822
2056	12.1298
2052	12.5704
2048	12.9957
2044	13.3157
2040	13.6552
2036	14.0234
2032	14.4124
2028	14.8285
2024	15.2132
2020	15.5559
2016	15.9221
2012	16.2958
2008	16.6695
2004	17.046
2000	17.4004
1996	17.7343
1992	18.009
1988	18.2798
1984	18.6344
1980	18.9763
1976	19.2298
1972	19.476
1968	19.7274
1964	19.9398
1960	20.1534
1956	20.4136
1952	20.6854
1948	20.9316
1944	21.1937
1940	21.489
1936	21.7271
1932	21.8477
1928	21.9797
1924	22.2125
1920	22.4771
1916	22.6741
1912	22.797
1908	22.9574
1904	23.1845
1900	23.3812
1896	23.5345
1892	23.6722
1888	23.7946
1884	23.9146
1880	24.0548
1876	24.211
1872	24.3505
1868	24.5069
1864	24.6558
1860	24.7312
1856	24.7953
1852	24.9106
1848	25.0236
1844	25.0837
1840	25.168
1836	25.3228
1832	25.452
1828	25.5254
1824	25.58
1820	25.6335
1816	25.6853
1812	25.6889
1808	25.7066
1804	25.7931
1800	25.9045
1796	26.0362
1792	26.1684
1788	26.2598
1784	26.3114
1780	26.3624
1776	26.4135
1772	26.4038
1768	26.308
1764	26.2641
1760	26.3909
1756	26.5106
1752	26.5165
1748	26.5482
1744	26.6275
1740	26.6951
1736	26.7059
1732	26.651
1728	26.6804
1724	26.8053
1720	26.7681
1716	26.6391
1712	26.7174
1708	26.8583
1704	26.8949
1700	26.945
1696	26.9912
1692	26.926
1688	26.8455
1684	26.8494
1680	26.8851
1676	26.9383
1672	27.0025
1668	27.0437
1664	27.0707
1660	27.0823
1656	27.0929
1652	27.0691
1648	26.9487
1644	26.8062
1640	26.7382
1636	26.7723
1632	26.8931
1628	27.0113
1624	27.0901
1620	27.1525
1616	27.1538
1612	27.0751
1608	26.9935
1604	26.9468
1600	26.9308
1596	26.93
1592	26.8911
1588	26.9001
1584	27.041
1580	27.1709
1576	27.1707
1572	27.0932
1568	27.007
1564	26.9104
1560	26.801
1556	26.7451
1552	26.7866
1548	26.8898
1544	26.9843
1540	27.0244
1536	27.0194
1532	27.0213
1528	27.0167
1524	26.9518
1520	26.8591
1516	26.7542
1512	26.6597
1508	26.7065
1504	26.8803
1500	27.0113
1496	27.0702
1492	27.0736
1488	26.9624
1484	26.822
1480	26.7708
1476	26.7514
1472	26.6718
1468	26.5864
1464	26.6189
1460	26.7323
1456	26.841
1452	26.9664
1448	27.0091
1444	26.9008
1440	26.7372
1436	26.5774
1432	26.4641
1428	26.404
1424	26.4596
1420	26.6151
1416	26.7316
1412	26.7988
1408	26.7782
1404	26.6633
1400	26.5764
1396	26.5355
1392	26.4755
1388	26.3922
1384	26.3497
1380	26.3731
1376	26.4522
1372	26.5516
1368	26.6224
1364	26.6332
1360	26.5411
1356	26.3946
1352	26.2766
1348	26.1836
1344	26.1257
1340	26.1702
1336	26.2558
1332	26.3453
1328	26.4741
1324	26.5321
1320	26.471
1316	26.3965
1312	26.3262
1308	26.2074
1304	26.1169
1300	26.1158
1296	26.1763
1292	26.2178
1288	26.205
1284	26.2064
1280	26.1884
1276	26.1374
1272	26.1009
1268	26.032
1264	25.9232
1260	25.8762
1256	25.8932
1252	25.8895
1248	25.892
1244	25.9808
1240	26.0865
1236	26.0802
1232	25.984
1228	25.8675
1224	25.7759
1220	25.6777
1216	25.5694
1212	25.5551
1208	25.6243
1204	25.7468
1200	25.8682
1196	25.8523
1192	25.7648
1188	25.6572
1184	25.5407
1180	25.4999
1176	25.5078
1172	25.4699
1168	25.3842
1164	25.3859
1160	25.4684
1156	25.5468
1152	25.5856
1148	25.5407
1144	25.4579
1140	25.345
1136	25.2514
1132	25.2242
1128	25.2195
1124	25.2568
1120	25.2448
1116	25.1333
1112	25.13
1108	25.3479
1104	25.453
1100	25.1931
1096	24.8851
1092	24.7565
1088	24.7885
1084	24.8636
1080	24.8105
1076	24.7356
1072	24.8364
1068	25.0592
1064	25.1901
1060	25.1008
1056	24.8875
1052	24.753
1048	24.6131
1044	24.4152
1040	24.4003
1036	24.478
1032	24.5017
1028	24.5504
1024	24.5971
1020	24.5979
1016	24.4673
1012	24.3163
1008	24.3003
1004	24.1915
1000	24.088
996	 24.1171
992	 24.0788
988	 24.1145
984	 24.3464
980	 24.4982
976	 24.3636
972	 24.1102
968	 23.9353
964	 23.7788
960	 23.5799
956	 23.4758
952	 23.5092
948	 23.5818
944	 23.6796
940	 23.7524
936	 23.8136
932	 23.8577
928	 23.7343
924	 23.4583
920	 23.2706
916	 23.1804
912	 23.0203
908	 22.9528
904	 23.0719
900	 23.1385
896	 23.1551
892	 23.2458
888	 23.2139
884	 22.9866
880	 22.796
876	 22.7038
872	 22.5507
868	 22.3873
864	 22.4607
860	 22.6836
856	 22.7231
852	 22.583
848	 22.4807
844	 22.4109
840	 22.276
836	 22.108
832	 21.9719
828	 21.8081
824	 21.6384
820	 21.6367
816	 21.7258
812	 21.7848
808	 21.8143
804	 21.8156
800	 21.7099
796	 21.398
792	 21.0895
788	 20.9748
784	 21.0224
780	 21.0947
776	 21.0143
772	 20.8589
768	 20.8096
764	 20.7656
760	 20.6244
756	 20.6269
752	 20.6484
748	 20.4788
744	 20.4501
740	 20.4031
736	 20.1316
732	 19.9087
728	 19.8455
724	 19.8815
720	 19.8788
716	 19.8643
712	 19.8643
708	 19.7533
704	 19.5887
700	 19.4921
696	 19.5086
692	 19.4772
688	 19.2667
684	 19.1887
680	 19.2962
676	 19.2439
672	 18.9275
668	 18.6961
664	 18.6985
660	 18.5338
656	 18.2188
652	 18.0475
648	 17.9325
644	 17.9438
640	 18.0861
636	 18.1002
632	 17.9968
628	 17.9379
624	 17.9859
620	 17.883
616	 17.5522
612	 17.2885
608	 16.9875
604	 16.7153
600	 16.6288
596	 16.5869
592	 16.7379
588	 16.8481
584	 16.6755
580	 16.6533
576	 16.7368
572	 16.6039
568	 16.3986
564	 16.2744
560	 16.0915
556	 15.8643
552	 15.7777
548	 15.7411
544	 15.7218
540	 15.5829
536	 15.3606
532	 15.3877
528	 15.3754
524	 15.2695
520	 15.2317
516	 14.8879
512	 14.7877
508	 15.2399
504	 15.1637
500	 14.575
496	 14.1441
492	 13.9685
488	 14.4987
484	 15.0316
480	 14.4585
476	 13.7248
472	 13.8757
468	 14.4765
464	 14.3963
460	 13.1266
456	 11.9546
452	 12.5609
448	 13.3222
444	 12.3637
440	 11.7133
436	 11.9444
432	 11.7298
428	 12.0277
424	 13.2048
420	 13.9051
416	 13.5446
412	 11.1561
408	 8.309769
404	 10.4565
400	 13.7547
396	 10.3767
392	 7.878470
388	 10.8301
384	 12.2699
380	 7.500481
376	 -1.680564
372	 13.6556
370	 26.132