File: Bakgrunnsmateriale/MATLAB/FTIR/ftir_data/LPE453/Mapping_121/LPE453_t54_cm-1.asc
PE IR       SPECTRUM    SPECTRUM    ASCII       PEDS        1.60
  -1
LPE95B~1.ASC
17/05/16
18:47:47.00
17/05/16
18:47:47.00
tln
$LPE453_t0054$<tbV0>[-10.4,-2.6,8.0,0.0,27,1,0]
370
64

2002,4.07
MIRTGS : RIGHTBACK : INTERNAL 2
MIR : ON : INTERNAL 2
OPTKBR

0.200000
8
8.000000
FILLER
RATIO
SPECTRUM
UNLOCKED 256

DOUBLE
64
COMBINED
1
0
0

1.000000
RATIO

1
0
TRUE
51149
0
LEFT NOT FITTED RIGHT NOT FITTED 0
NONE
NONE
15600
12
4.427000
51148
TRUE
1 0 8 72 0 0 0 0

15798

#HDR
-1
-1
#GR
CM-1
%T
2.38419e-05
0.0
5000
-1.000000
4631
8
32.3924
-39.9492
#DATA
5000	0.153374
4996	0.056910
4992	0.038623
4988	0.079798
4984	0.129485
4980	0.044345
4976	-0.294613
4972	-0.421786
4968	-0.136947
4964	0.230312
4960	0.480508
4956	0.442266
4952	0.239157
4948	0.171375
4944	0.294709
4940	0.281667
4936	0.066947
4932	0.086116
4928	0.227379
4924	0.172400
4920	0.183486
4916	0.339174
4912	0.326037
4908	0.157332
4904	0.049233
4900	0.020742
4896	0.007390
4892	-0.018572
4888	0.063681
4884	0.217199
4880	0.223636
4876	0.286078
4872	0.478601
4868	0.406265
4864	0.050640
4860	-0.176453
4856	-0.075912
4852	0.043368
4848	-0.040054
4844	-0.118517
4840	-0.094532
4836	0.085163
4832	0.141096
4828	-0.205707
4824	-0.450372
4820	-0.363206
4816	-0.277209
4812	-0.267481
4808	-0.143694
4804	-0.003933
4800	-0.086045
4796	-0.178360
4792	-0.082159
4788	-0.062084
4784	-0.250411
4780	-0.395250
4776	-0.361990
4772	-0.071310
4768	0.323510
4764	0.367927
4760	0.225472
4756	0.363159
4752	0.603008
4748	0.579667
4744	0.340676
4740	0.250077
4736	0.322747
4732	0.211620
4728	0.078964
4724	-0.092530
4720	-0.320839
4716	-0.278258
4712	-0.033903
4708	0.252342
4704	0.402021
4700	0.390267
4696	0.510787
4692	0.377726
4688	-0.388956
4684	-0.899839
4680	-0.598597
4676	-0.023245
4672	0.273776
4668	0.403594
4664	0.378489
4660	-0.188398
4656	-0.109553
4652	0.793504
4648	1.161384
4644	0.963330
4640	0.513529
4636	0.398445
4632	0.988030
4628	1.774144
4624	2.060985
4620	1.783609
4616	1.057147
4612	0.035262
4608	0.119853
4604	1.130747
4600	1.539516
4596	1.099109
4592	0.346088
4588	0.028610
4584	0.306153
4580	0.390195
4576	-0.061154
4572	-0.539731
4568	-0.732421
4564	-0.750851
4560	-0.705265
4556	-0.569105
4552	-0.616979
4548	-0.771331
4544	-0.889897
4540	-0.957298
4536	-0.654101
4532	-0.161075
4528	0.025343
4524	-1.209163
4520	-2.727794
4516	-1.282024
4512	1.464247
4508	5.079245
4504	7.457733
4500	1.100540
4496	-3.160405
4492	10.1252
4488	20.3019
4484	9.438896
4480	-1.003813
4476	-1.582765
4472	-0.774788
4468	-0.477337
4464	-0.729537
4460	-0.664138
4456	-0.439739
4452	-0.557851
4448	-0.729203
4444	-0.643825
4440	-0.435757
4436	-0.349307
4432	-0.440788
4428	-0.523853
4424	-0.628352
4420	-0.618338
4416	-0.360846
4412	-0.115132
4408	-0.106549
4404	-0.185227
4400	-0.097656
4396	0.119733
4392	0.228333
4388	0.283002
4384	0.471305
4380	0.700116
4376	0.719594
4372	0.500369
4368	0.204539
4364	-0.102496
4360	-0.163674
4356	0.014400
4352	0.193452
4348	0.436544
4344	0.733447
4340	0.827050
4336	0.541257
4332	0.230002
4328	0.169157
4324	-0.028276
4320	-0.282883
4316	-0.134420
4312	0.149345
4308	0.222420
4304	0.187349
4300	0.084304
4296	0.089669
4292	0.401663
4288	0.671339
4284	0.528144
4280	0.303649
4276	0.295996
4272	0.338768
4268	0.345921
4264	0.291609
4260	0.281190
4256	0.300288
4252	0.193381
4248	0.062799
4244	0.011849
4240	0.054407
4236	0.173997
4232	0.242519
4228	0.302076
4224	0.381398
4220	0.328493
4216	0.140094
4212	0.020909
4208	0.101900
4204	0.131535
4200	0.016117
4196	-0.065398
4192	-0.087881
4188	0.019502
4184	0.354003
4180	0.790691
4176	0.971794
4172	0.759410
4168	0.472521
4164	0.375318
4160	0.369524
4156	0.251793
4152	0.113677
4148	0.145745
4144	0.246810
4140	0.262498
4136	0.240254
4132	0.223565
4128	0.176930
4124	0.073409
4120	-0.062465
4116	-0.142240
4112	-0.090551
4108	-0.023794
4104	-0.062775
4100	-0.060439
4096	0.023579
4092	-0.028109
4088	-0.090050
4084	0.088262
4080	0.212979
4076	0.150561
4072	0.114393
4068	0.074172
4064	0.037360
4060	-0.000834
4056	-0.039649
4052	0.066804
4048	0.241947
4044	0.274753
4040	0.151610
4036	0.075173
4032	0.098872
4028	0.036144
4024	-0.082445
4020	-0.094127
4016	0.018477
4012	0.198841
4008	0.272655
4004	0.155878
4000	0.026774
3996	0.006413
3992	0.058722
3988	0.120425
3984	0.093317
3980	0.030088
3976	0.037860
3972	0.067567
3968	0.077319
3964	0.049138
3960	0.023221
3956	0.098657
3952	0.233078
3948	0.273108
3944	0.204324
3940	0.142550
3936	0.137281
3932	0.160717
3928	0.115680
3924	-0.043702
3920	-0.149154
3916	-0.108027
3912	-0.074887
3908	-0.132083
3904	-0.148725
3900	-0.019431
3896	0.124716
3892	0.168180
3888	0.105690
3884	-0.005507
3880	0.009107
3876	0.113940
3872	0.175380
3868	0.162148
3864	0.090265
3860	0.024700
3856	0.082111
3852	0.180196
3848	0.192022
3844	0.182390
3840	0.178337
3836	0.131392
3832	0.097227
3828	0.107216
3824	0.055789
3820	-0.023412
3816	-0.037813
3812	-0.030326
3808	-0.030279
3804	0.038313
3800	0.107336
3796	0.014162
3792	-0.089406
3788	-0.068140
3784	0.029206
3780	0.106954
3776	0.084733
3772	0.048255
3768	0.050759
3764	-0.004982
3760	-0.168013
3756	-0.220918
3752	-0.118279
3748	-0.012898
3744	0.052094
3740	0.003027
3736	-0.067734
3732	-0.060272
3728	-0.022482
3724	0.015282
3720	-0.025939
3716	-0.102519
3712	-0.067138
3708	-0.049114
3704	-0.129866
3700	-0.091385
3696	0.043630
3692	0.094747
3688	0.063204
3684	0.032806
3680	0.036025
3676	0.034236
3672	0.030660
3668	0.089097
3664	0.160622
3660	0.168228
3656	0.140881
3652	0.096273
3648	0.069594
3644	0.077009
3640	0.033783
3636	-0.010585
3632	0.055885
3628	0.172281
3624	0.217247
3620	0.189900
3616	0.173878
3612	0.146603
3608	0.084757
3604	0.041031
3600	0.012087
3596	-0.058269
3592	-0.122928
3588	-0.102281
3584	-0.071096
3580	-0.078940
3576	-0.053024
3572	0.026297
3568	0.066733
3564	0.031208
3560	0.007987
3556	0.056123
3552	0.121068
3548	0.098657
3544	0.000071
3540	-0.049638
3536	-0.002169
3532	0.013017
3528	-0.056910
3524	-0.058126
3520	0.034570
3516	0.098657
3512	0.115656
3508	0.129818
3504	0.105810
3500	0.121188
3496	0.270509
3492	0.284051
3488	0.111603
3484	-0.018143
3480	-0.116968
3476	-0.152182
3472	-0.065183
3468	0.046682
3464	0.044894
3460	-0.039148
3456	-0.083255
3452	-0.104522
3448	-0.076794
3444	0.018668
3440	0.108861
3436	0.147604
3432	0.102376
3428	0.021791
3424	-0.026035
3420	0.008988
3416	0.118708
3412	0.147724
3408	0.091981
3404	0.118041
3400	0.191569
3396	0.168800
3392	0.062513
3388	-0.004267
3384	-0.001502
3380	0.022506
3376	0.023794
3372	0.055718
3368	0.143718
3364	0.155115
3360	0.097990
3356	0.042009
3352	-0.022053
3348	-0.016212
3344	0.073051
3340	0.102448
3336	0.051236
3332	0.054025
3328	0.102210
3324	0.124907
3320	0.171041
3316	0.180721
3312	0.110650
3308	0.093889
3304	0.125288
3300	0.120401
3296	0.082492
3292	0.037741
3288	0.031471
3284	0.058126
3280	0.097894
3276	0.109124
3272	-0.036454
3268	-0.217366
3264	-0.215816
3260	-0.108098
3256	-0.004673
3252	0.078248
3248	0.092840
3244	0.044655
3240	0.014734
3236	0.005030
3232	0.017309
3228	0.070047
3224	0.098872
3220	0.112843
3216	0.202035
3212	0.268125
3208	0.182461
3204	0.078439
3200	0.056481
3196	0.038313
3192	0.015187
3188	-0.012993
3184	-0.078964
3180	-0.090026
3176	-0.037670
3172	-0.030279
3168	-0.036072
3164	0.019073
3160	0.071430
3156	0.076341
3152	0.114250
3148	0.160455
3144	0.108432
3140	-0.000333
3136	-0.015139
3132	0.048637
3128	0.021481
3124	-0.040030
3120	0.038075
3116	0.134944
3112	0.148344
3108	0.148105
3104	0.116920
3100	0.065803
3096	0.039672
3092	0.047063
3088	0.048661
3084	-0.004267
3080	-0.038743
3076	0.028276
3072	0.094342
3068	0.023937
3064	-0.012087
3060	0.078511
3056	0.082325
3052	-0.015330
3048	-0.057053
3044	0.005054
3040	0.042796
3036	-0.004267
3032	0.012493
3028	0.091385
3024	0.087499
3020	0.067543
3016	0.124812
3012	0.141572
3008	0.085186
3004	0.016927
3000	-0.068855
2996	-0.098204
2992	-0.035476
2988	0.005412
2984	-0.022411
2980	-0.051760
2976	-0.081515
2972	-0.121068
2968	-0.068473
2964	0.083446
2960	0.175595
2956	0.137782
2952	0.054907
2948	-0.000381
2944	0.049257
2940	0.176954
2936	0.201082
2932	0.151467
2928	0.169515
2924	0.170874
2920	0.083613
2916	0.007748
2912	-0.014591
2908	0.030851
2904	0.150823
2900	0.179815
2896	0.038886
2892	-0.068283
2888	-0.034785
2884	0.017213
2880	0.016260
2876	0.051355
2872	0.076341
2868	-0.024437
2864	-0.084209
2860	-0.025200
2856	0.022387
2852	0.067257
2848	0.148916
2844	0.147438
2840	0.044083
2836	0.028967
2832	0.080966
2828	0.079512
2824	0.064349
2820	0.038671
2816	0.028347
2812	0.029993
2808	-0.008440
2804	-0.021839
2800	0.012063
2796	0.038027
2792	0.007390
2788	-0.029063
2784	-0.016760
2780	-0.017547
2776	-0.058507
2772	-0.083947
2768	-0.050926
2764	0.019550
2760	0.058412
2756	0.030565
2752	-0.005388
2748	-0.015997
2744	0.006818
2740	0.029540
2736	0.017786
2732	0.019502
2728	0.022983
2724	0.024962
2720	0.069785
2716	0.100207
2712	0.092625
2708	0.108551
2704	0.110244
2700	0.074338
2696	0.041580
2692	0.008058
2688	-0.030565
2684	-0.019931
2680	0.042247
2676	0.062131
2672	0.012588
2668	-0.044846
2664	-0.033259
2660	0.065612
2656	0.144362
2652	0.086832
2648	0.005650
2644	0.017189
2640	0.033688
2636	0.046920
2632	0.082039
2628	0.068640
2624	-0.009202
2620	-0.083112
2616	-0.081777
2612	0.024747
2608	0.101375
2604	0.066375
2600	0.037813
2596	0.052976
2592	0.076508
2588	0.058269
2584	0.029063
2580	0.062465
2576	0.081419
2572	0.030446
2568	0.023007
2564	0.081706
2560	0.115251
2556	0.110626
2552	0.096797
2548	0.038051
2544	-0.021553
2540	0.020837
2536	0.083994
2532	0.095319
2528	0.121045
2524	0.134468
2520	0.109863
2516	0.102925
2512	0.116586
2508	0.137615
2504	0.148391
2500	0.105214
2496	0.056219
2492	0.101852
2488	0.163865
2484	0.113534
2480	0.038313
2476	0.049233
2472	0.101566
2468	0.093126
2464	0.013256
2460	-0.047874
2456	-0.037884
2452	-0.030541
2448	-0.018262
2444	-0.005316
2440	-0.014805
2436	-0.014901
2432	0.018882
2428	0.087523
2424	0.129818
2420	0.123977
2416	0.050210
2412	-0.045680
2408	-0.148510
2404	-0.228333
2400	-0.208139
2396	-0.129604
2392	-0.030541
2388	0.075840
2384	0.150799
2380	0.129008
2376	0.029706
2372	-0.040674
2368	-0.027656
2364	0.042009
2360	0.055456
2356	-0.006270
2352	-0.047779
2348	-0.019693
2344	0.088572
2340	0.236034
2336	0.242018
2332	0.141692
2328	0.142240
2324	0.185275
2320	0.171756
2316	0.153851
2312	0.192451
2308	0.240206
2304	0.301170
2300	0.388503
2296	0.409746
2292	0.372433
2288	0.338840
2284	0.376033
2280	0.491738
2276	0.533270
2272	0.485801
2268	0.491118
2264	0.536727
2260	0.609016
2256	0.735473
2252	0.863981
2248	0.981903
2244	1.107454
2240	1.214456
2236	1.314735
2232	1.468658
2228	1.657390
2224	1.849961
2220	2.040576
2216	2.217817
2212	2.358937
2208	2.471852
2204	2.656102
2200	2.908778
2196	3.149938
2192	3.420186
2188	3.703546
2184	3.930330
2180	4.170393
2176	4.482769
2172	4.872560
2168	5.275034
2164	5.580091
2160	5.823230
2156	6.122183
2152	6.553983
2148	7.028937
2144	7.456350
2140	7.871913
2136	8.246922
2132	8.606147
2128	9.020876
2124	9.473538
2120	9.966874
2116	10.4933
2112	10.9762
2108	11.4212
2104	11.8946
2100	12.3899
2096	12.8247
2092	13.2174
2088	13.6804
2084	14.1929
2080	14.6733
2076	15.0969
2072	15.5251
2068	15.9863
2064	16.3962
2060	16.7962
2056	17.2512
2052	17.725
2048	18.2585
2044	18.8246
2040	19.3118
2036	19.6913
2032	20.0041
2028	20.361
2024	20.8029
2020	21.2327
2016	21.639
2012	22.1042
2008	22.5507
2004	22.8521
2000	23.0788
1996	23.351
1992	23.6655
1988	23.9689
1984	24.2322
1980	24.4979
1976	24.8494
1972	25.2417
1968	25.5693
1964	25.8529
1960	26.1314
1956	26.3536
1952	26.5409
1948	26.7311
1944	26.9175
1940	27.157
1936	27.3936
1932	27.5615
1928	27.7408
1924	27.9507
1920	28.1575
1916	28.3709
1912	28.6159
1908	28.8236
1904	28.9068
1900	28.9615
1896	29.046
1892	29.1194
1888	29.2471
1884	29.4586
1880	29.6092
1876	29.6965
1872	29.8816
1868	30.1064
1864	30.2358
1860	30.265
1856	30.263
1852	30.2864
1848	30.3583
1844	30.4697
1840	30.5689
1836	30.6457
1832	30.7382
1828	30.8488
1824	30.9652
1820	31.1066
1816	31.2584
1812	31.338
1808	31.2896
1804	31.2113
1800	31.1861
1796	31.1713
1792	31.1993
1788	31.3249
1784	31.4779
1780	31.583
1776	31.6543
1772	31.7262
1768	31.7773
1764	31.7708
1760	31.7316
1756	31.7055
1752	31.6962
1748	31.6518
1744	31.6035
1740	31.6686
1736	31.8171
1732	31.939
1728	32.0344
1724	32.1284
1720	32.187
1716	32.1886
1712	32.1631
1708	32.1361
1704	32.0864
1700	32.0212
1696	31.9827
1692	31.989
1688	32.0566
1684	32.1515
1680	32.2164
1676	32.2718
1672	32.3124
1668	32.3158
1664	32.2742
1660	32.1655
1656	32.0732
1652	32.0643
1648	32.0519
1644	31.9854
1640	32.0109
1636	32.1727
1632	32.2949
1628	32.3161
1624	32.3159
1620	32.3484
1616	32.3424
1612	32.2698
1608	32.1771
1604	32.0913
1600	32.0379
1596	32.0097
1592	32.0288
1588	32.0765
1584	32.1385
1580	32.2571
1576	32.3699
1572	32.3866
1568	32.3151
1564	32.2191
1560	32.1487
1556	32.0787
1552	31.9928
1548	31.9483
1544	31.9751
1540	32.0448
1536	32.1009
1532	32.1314
1528	32.1881
1524	32.2607
1520	32.2909
1516	32.2575
1512	32.2056
1508	32.1694
1504	32.0796
1500	31.9355
1496	31.8684
1492	31.8795
1488	31.8524
1484	31.8665
1480	31.9468
1476	32.0232
1472	32.1223
1468	32.1939
1464	32.1798
1460	32.1136
1456	31.9911
1452	31.811
1448	31.6776
1444	31.6449
1440	31.6756
1436	31.755
1432	31.8038
1428	31.817
1424	31.8596
1420	31.9053
1416	31.9368
1412	31.9377
1408	31.8866
1404	31.7983
1400	31.6762
1396	31.5339
1392	31.4304
1388	31.4279
1384	31.5011
1380	31.5816
1376	31.6756
1372	31.7555
1368	31.766
1364	31.7611
1360	31.7324
1356	31.6364
1352	31.5125
1348	31.3995
1344	31.3828
1340	31.438
1336	31.4436
1332	31.4244
1328	31.4766
1324	31.6069
1320	31.7298
1316	31.7803
1312	31.7228
1308	31.5815
1304	31.4499
1300	31.3527
1296	31.2433
1292	31.096
1288	31.0079
1284	31.1112
1280	31.3389
1276	31.5546
1272	31.6962
1268	31.7048
1264	31.624
1260	31.5655
1256	31.4762
1252	31.3083
1248	31.1347
1244	30.9915
1240	30.9349
1236	31.0054
1232	31.1421
1228	31.2577
1224	31.3221
1220	31.3854
1216	31.4328
1212	31.3779
1208	31.2366
1204	31.1056
1200	30.9995
1196	30.8834
1192	30.7882
1188	30.7906
1184	30.8489
1180	30.9018
1176	30.9715
1172	31.1077
1168	31.2622
1164	31.2662
1160	31.1161
1156	30.9782
1152	30.8892
1148	30.7358
1144	30.5429
1140	30.4756
1136	30.5225
1132	30.648
1128	30.786
1124	30.8319
1120	30.8213
1116	30.8377
1112	30.8392
1108	30.7391
1104	30.5933
1100	30.514
1096	30.4922
1092	30.3852
1088	30.2426
1084	30.2672
1080	30.4171
1076	30.5446
1072	30.5895
1068	30.5877
1064	30.602
1060	30.5999
1056	30.5448
1052	30.3436
1048	30.0089
1044	29.8441
1040	29.9628
1036	30.0866
1032	30.0214
1028	29.963
1024	29.9799
1020	29.8875
1016	29.7822
1012	29.8755
1008	30.0736
1004	30.1388
1000	30.008
996	 29.8058
992	 29.6599
988	 29.6195
984	 29.6305
980	 29.6146
976	 29.6011
972	 29.6535
968	 29.7412
964	 29.8023
960	 29.812
956	 29.7268
952	 29.5635
948	 29.4221
944	 29.3351
940	 29.2389
936	 29.0775
932	 28.9564
928	 28.9997
924	 29.0723
920	 29.0742
916	 29.1522
912	 29.2934
908	 29.3785
904	 29.38
900	 29.2543
896	 29.0632
892	 28.8395
888	 28.5887
884	 28.4344
880	 28.372
876	 28.344
872	 28.441
868	 28.663
864	 28.834
860	 28.7993
856	 28.6241
852	 28.4775
848	 28.3676
844	 28.2075
840	 28.039
836	 27.9405
832	 27.8409
828	 27.6921
824	 27.6387
820	 27.7877
816	 27.9569
812	 28.0602
808	 28.174
804	 28.255
800	 28.2269
796	 28.0332
792	 27.6677
788	 27.31
784	 27.1138
780	 27.0516
776	 27.1067
772	 27.1813
768	 27.1856
764	 27.2315
760	 27.3322
756	 27.2712
752	 26.9952
748	 26.6685
744	 26.4997
740	 26.5492
736	 26.5673
732	 26.3706
728	 26.0797
724	 25.9841
720	 26.097
716	 26.2218
712	 26.3535
708	 26.4766
704	 26.6192
700	 26.7432
696	 26.6829
692	 26.4247
688	 26.0594
684	 25.7733
680	 25.567
676	 25.3854
672	 25.3181
668	 25.2697
664	 25.2847
660	 25.4169
656	 25.5063
652	 25.5568
648	 25.4978
644	 25.2808
640	 25.0501
636	 24.8486
632	 24.5785
628	 24.2063
624	 23.9369
620	 23.8663
616	 23.9293
612	 24.1518
608	 24.3989
604	 24.4235
600	 24.1888
596	 23.8801
592	 23.7504
588	 23.7911
584	 23.6078
580	 23.1826
576	 22.9466
572	 22.8944
568	 22.9051
564	 22.9214
560	 22.8667
556	 22.7952
552	 22.6094
548	 22.3217
544	 22.2383
540	 22.321
536	 22.2437
532	 22.0592
528	 22.0606
524	 22.1829
520	 22.1426
516	 21.935
512	 22.0052
508	 22.1833
504	 21.7524
500	 21.2538
496	 21.2187
492	 21.5492
488	 22.037
484	 21.6536
480	 20.6183
476	 20.2295
472	 20.4053
468	 20.4428
464	 20.1606
460	 19.5739
456	 19.3759
452	 19.6826
448	 19.6116
444	 19.6073
440	 19.056
436	 17.5944
432	 17.3926
428	 18.4515
424	 18.9726
420	 18.7547
416	 17.8268
412	 17.0024
408	 18.5811
404	 23.5915
400	 29.6194
396	 28.1368
392	 13.876
388	 1.081156
384	 8.605861
380	 20.5965
376	 4.505181
372	 -27.861
370	 -39.9492