File: Bakgrunnsmateriale/MATLAB/FTIR/ftir_data/LPE453/Mapping_121/LPE453_t06.asc
PE IR       SPECTRUM    SPECTRUM    ASCII       PEDS        1.60
  -1
LPD391~1.ASC
17/05/16
14:51:05.00
17/05/16
14:51:31.00
tln
$LPE453_t0006$<tbV0>[0.0,-13.0,8.0,0.0,27,1,0]
27.028
64

2002,4.07
MIRTGS : RIGHTBACK : INTERNAL 2
MIR : ON : INTERNAL 2
OPTKBR

0.200000
8
8.000000
FILLER
RATIO
SPECTRUM
UNLOCKED 256

DOUBLE
64
COMBINED
1
0
0

0.002000
RATIO

1
0
TRUE
51149
0
LEFT NOT FITTED RIGHT NOT FITTED 0
NONE
NONE
15600
12
4.427000
51148
TRUE
1 0 8 72 0 0 0 0

15798

#HDR
-1
-1
#GR
µM
%T
2.38419e-05
0.0
2.000000
0.002000
12515
8
46.9639
-2.511254
#DATA
2.000000	 0.217509
2.018000	 -0.327162
2.036000	 0.096309
2.054000	 0.470033
2.072000	 0.416671
2.090000	 0.381772
2.108000	 0.001699
2.126000	 0.493549
2.144000	 0.670347
2.162000	 0.102435
2.180000	 -0.440107
2.198000	 -2.271690
2.216000	 14.3037
2.234000	 -0.620767
2.252000	 -0.526661
2.270000	 0.446097
2.288000	 0.568136
2.306000	 0.346308
2.324000	 -0.102081
2.342000	 0.163013
2.360000	 0.252556
2.378000	 0.128770
2.396000	 0.138647
2.414000	 0.202810
2.432000	 -0.195359
2.450000	 0.100760
2.468000	 0.173119
2.486000	 0.101921
2.504000	 0.023960
2.522000	 0.152714
2.540000	 0.262489
2.558000	 0.292451
2.576000	 -0.030876
2.594000	 -0.147370
2.612000	 0.214356
2.630000	 0.150675
2.648000	 0.213321
2.666000	 0.092581
2.684000	 0.136258
2.702000	 0.204986
2.720000	 -0.077485
2.738000	 0.096883
2.756000	 -0.015230
2.774000	 -0.035446
2.792000	 0.200933
2.810000	 -0.195850
2.828000	 0.084238
2.846000	 0.090428
2.864000	 -0.050361
2.882000	 -0.168859
2.900000	 0.085399
2.918000	 0.067591
2.936000	 0.164316
2.954000	 0.076818
2.972000	 0.124726
2.990000	 0.053884
3.008000	 -0.121069
3.026000	 0.127904
3.044000	 0.012239
3.062000	 0.004601
3.080000	 0.098418
3.098000	 0.142006
3.116000	 0.008112
3.134000	 0.023140
3.152000	 0.102117
3.170000	 0.042897
3.188000	 -0.039252
3.206000	 -0.001817
3.224000	 0.158395
3.242000	 0.017044
3.260000	 0.029218
3.278000	 0.239364
3.296000	 0.037694
3.314000	 -0.031725
3.332000	 -0.131077
3.350000	 0.024629
3.368000	 -0.078021
3.386000	 0.160279
3.404000	 -0.030537
3.422000	 0.118552
3.440000	 0.076964
3.458000	 0.052409
3.476000	 0.114309
3.494000	 0.145896
3.512000	 0.151399
3.530000	 0.101709
3.548000	 0.062133
3.566000	 0.137920
3.584000	 -0.013621
3.602000	 0.069278
3.620000	 0.044701
3.638000	 -0.012291
3.656000	 0.037158
3.674000	 0.147406
3.692000	 0.009863
3.710000	 0.074606
3.728000	 0.050472
3.746000	 0.098409
3.764000	 -0.067073
3.782000	 0.041782
3.800000	 -0.057423
3.818000	 0.059611
3.836000	 0.166677
3.854000	 -0.039518
3.872000	 0.013505
3.890000	 -0.102318
3.908000	 -0.003735
3.926000	 0.010159
3.944000	 0.083128
3.962000	 0.020227
3.980000	 0.020876
3.998000	 0.171413
4.016000	 0.057345
4.034000	 0.090866
4.052000	 0.076191
4.070000	 0.062357
4.088000	 0.101605
4.106000	 -0.078437
4.124000	 -0.100451
4.141999	 0.318914
4.160000	 -0.025500
4.178000	 -0.088399
4.196000	 0.013192
4.214000	 0.046107
4.232000	 0.028403
4.250000	 0.033805
4.268000	 0.050914
4.286000	 0.077761
4.304000	 0.169255
4.322000	 0.404221
4.340000	 0.397015
4.358000	 0.431895
4.375999	 0.484113
4.394000	 0.702805
4.412000	 0.868999
4.430000	 1.092512
4.448000	 1.404762
4.466000	 1.745190
4.484000	 2.015894
4.502000	 2.512307
4.520000	 3.056782
4.538000	 3.481398
4.556000	 4.014887
4.574000	 4.666133
4.592000	 5.436118
4.609999	 6.499091
4.628000	 7.135536
4.646000	 8.027527
4.664000	 8.910138
4.682000	 9.926559
4.700000	 10.8688
4.718000	 11.8893
4.736000	 12.8743
4.754000	 13.9722
4.772000	 15.0195
4.790000	 15.9438
4.808000	 16.876
4.826000	 17.7944
4.843999	 18.9859
4.862000	 19.8352
4.880000	 20.6159
4.898000	 21.5139
4.916000	 22.3432
4.934000	 23.1377
4.952000	 24.0358
4.970000	 24.749
4.988000	 25.4484
5.006000	 26.0553
5.024000	 26.6026
5.042000	 27.0677
5.060000	 27.6281
5.077999	 28.2477
5.096000	 28.6898
5.114000	 29.081
5.132000	 29.5553
5.150000	 29.9529
5.168000	 30.2893
5.186000	 30.7302
5.204000	 31.0125
5.222000	 31.281
5.240000	 31.5891
5.258000	 31.94
5.276000	 32.0742
5.294000	 32.3116
5.312000	 32.5535
5.330000	 32.7712
5.348000	 33.0429
5.366000	 33.1427
5.384000	 33.2648
5.402000	 33.4957
5.420000	 33.6485
5.438000	 33.7253
5.456000	 33.8479
5.474000	 33.947
5.492000	 34.0409
5.510000	 34.081
5.528000	 34.1608
5.546000	 34.4026
5.564000	 34.5598
5.582000	 34.5612
5.600000	 34.6061
5.618000	 34.6514
5.636000	 34.7648
5.654000	 34.815
5.672000	 34.7662
5.690000	 34.7475
5.708000	 34.767
5.726000	 34.8201
5.744000	 34.9076
5.762000	 35.044
5.780000	 35.1128
5.798000	 35.0504
5.816000	 35.0507
5.834000	 34.9772
5.852000	 34.9866
5.870000	 35.1737
5.888000	 35.2764
5.906000	 35.1619
5.923999	 35.1797
5.942000	 35.3078
5.960000	 35.3251
5.978000	 35.3151
5.996000	 35.2942
6.014000	 35.2678
6.032000	 35.36
6.050000	 35.5334
6.068000	 35.4475
6.086000	 35.2853
6.104000	 35.2371
6.122000	 35.2505
6.140000	 35.2547
6.158000	 35.2597
6.176000	 35.2993
6.194000	 35.3543
6.212000	 35.3232
6.230000	 35.2919
6.248000	 35.3126
6.266000	 35.2424
6.284000	 35.1192
6.302000	 35.0719
6.320000	 35.0894
6.338000	 35.2224
6.356000	 35.2908
6.374000	 35.2303
6.392000	 35.3632
6.410000	 35.6246
6.428000	 35.5381
6.446000	 35.2808
6.464000	 35.2491
6.482000	 35.3243
6.500000	 35.2653
6.518000	 35.1298
6.536000	 35.0808
6.554000	 35.1552
6.572000	 35.2457
6.590000	 35.206
6.608000	 35.1289
6.626000	 35.1936
6.644000	 35.2235
6.662000	 35.0894
6.680000	 34.9881
6.698000	 34.9691
6.716000	 34.9507
6.734000	 34.9218
6.752000	 34.9054
6.770000	 34.9597
6.788000	 35.0211
6.806000	 35.0101
6.824000	 34.9815
6.842000	 35.0193
6.860000	 35.1091
6.878000	 35.0786
6.896000	 34.9193
6.914000	 34.8466
6.932000	 34.919
6.950000	 35.0161
6.968000	 34.9821
6.986000	 34.8768
7.004000	 34.8993
7.022000	 34.9978
7.040000	 34.9946
7.058000	 34.9142
7.076000	 34.8468
7.094000	 34.7918
7.112000	 34.7588
7.130000	 34.751
7.148000	 34.7259
7.166000	 34.7101
7.184000	 34.7495
7.202000	 34.7879
7.220000	 34.7775
7.238000	 34.7467
7.256000	 34.7014
7.274000	 34.619
7.292000	 34.5086
7.310000	 34.432
7.328000	 34.4477
7.346000	 34.5107
7.364000	 34.532
7.382000	 34.5154
7.400000	 34.5017
7.418000	 34.503
7.436000	 34.5409
7.454000	 34.6166
7.472000	 34.6731
7.490000	 34.6642
7.508000	 34.6076
7.526000	 34.5515
7.544000	 34.5111
7.562000	 34.4583
7.580000	 34.375
7.598000	 34.2881
7.616000	 34.2307
7.634000	 34.1964
7.652000	 34.158
7.670000	 34.1275
7.688000	 34.1469
7.706000	 34.2217
7.724000	 34.3071
7.742000	 34.3555
7.760000	 34.3631
7.778000	 34.3642
7.796000	 34.3673
7.814000	 34.3453
7.832000	 34.3039
7.850000	 34.2724
7.868000	 34.2328
7.886000	 34.1637
7.904000	 34.1036
7.922000	 34.0872
7.940000	 34.0848
7.958000	 34.059
7.976000	 34.0174
7.994000	 33.9854
8.012000	 33.9763
8.030000	 33.9923
8.048000	 34.0241
8.065999	 34.048
8.084000	 34.0474
8.102000	 34.0425
8.120000	 34.0714
8.138000	 34.1356
8.155999	 34.1894
8.173999	 34.1931
8.192000	 34.1569
8.210000	 34.1197
8.228000	 34.1008
8.246000	 34.091
8.263999	 34.0792
8.282000	 34.0629
8.300000	 34.0427
8.318000	 34.0181
8.336000	 33.9833
8.353999	 33.9336
8.372000	 33.8796
8.390000	 33.8441
8.408000	 33.8329
8.426000	 33.8274
8.443999	 33.816
8.462000	 33.8078
8.480000	 33.8085
8.498000	 33.8154
8.516000	 33.8366
8.533999	 33.8872
8.552000	 33.9557
8.570000	 34.0024
8.588000	 34.0007
8.606000	 33.9565
8.624000	 33.8904
8.641999	 33.8212
8.660000	 33.7651
8.678000	 33.7324
8.696000	 33.7218
8.714000	 33.7221
8.731999	 33.7248
8.750000	 33.7238
8.768000	 33.7067
8.786000	 33.6613
8.804000	 33.5971
8.821999	 33.5482
8.840000	 33.5448
8.858000	 33.5809
8.876000	 33.6214
8.894000	 33.6339
8.911999	 33.6176
8.930000	 33.6024
8.948000	 33.611
8.966000	 33.6248
8.984000	 33.6012
9.001999	 33.528
9.020000	 33.4424
9.038000	 33.3914
9.056000	 33.3845
9.074000	 33.391
9.092000	 33.3785
9.109999	 33.3436
9.128000	 33.3045
9.146000	 33.2766
9.164000	 33.2633
9.182000	 33.2627
9.199999	 33.2719
9.218000	 33.2802
9.236000	 33.2694
9.254000	 33.23
9.272000	 33.1774
9.289999	 33.1474
9.308000	 33.1705
9.326000	 33.2485
9.344000	 33.3519
9.362000	 33.4387
9.379999	 33.4797
9.398000	 33.4692
9.416000	 33.4207
9.434000	 33.355
9.452000	 33.2907
9.469999	 33.2417
9.488000	 33.2167
9.506000	 33.2171
9.524000	 33.2359
9.542000	 33.2616
9.560000	 33.2847
9.577999	 33.2993
9.596000	 33.2999
9.614000	 33.2816
9.632000	 33.2441
9.650000	 33.1939
9.667999	 33.1424
9.686000	 33.1004
9.704000	 33.074
9.722000	 33.0606
9.740000	 33.051
9.757999	 33.0332
9.776000	 32.9993
9.794000	 32.951
9.812000	 32.8987
9.830000	 32.8531
9.847999	 32.8178
9.866000	 32.7906
9.884000	 32.771
9.902000	 32.7646
9.920000	 32.7785
9.937999	 32.814
9.956000	 32.8634
9.974000	 32.9143
9.992000	 32.956
10.01	32.9832
10.028	32.9949
10.046	32.9908
10.064	32.9711
10.082	32.9378
10.1	32.8953
10.118	32.8508
10.136	32.8126
10.154	32.788
10.172	32.78
10.19	32.7844
10.208	32.7913
10.226	32.7906
10.244	32.7763
10.262	32.7487
10.28	32.7106
10.298	32.6653
10.316	32.6146
10.334	32.5615
10.352	32.5122
10.37	32.4743
10.388	32.4508
10.406	32.4376
10.424	32.4276
10.442	32.418
10.46	32.4138
10.478	32.4255
10.496	32.459
10.514	32.5086
10.532	32.5563
10.55	32.5809
10.568	32.569
10.586	32.5238
10.604	32.4633
10.622	32.4118
10.64	32.3878
10.658	32.396
10.676	32.4244
10.694	32.4515
10.712	32.4556
10.73	32.4271
10.748	32.3716
10.766	32.3085
10.784	32.2589
10.802	32.237
10.82	32.2432
10.838	32.2636
10.856	32.2783
10.874	32.2683
10.892	32.2261
10.91	32.1583
10.928	32.0817
10.946	32.0167
10.964	31.9769
10.982	31.9656
11	31.9747
11.018	31.9902
11.036	31.9991
11.054	31.9935
11.072	31.9722
11.09	31.9389
11.108	31.8987
11.126	31.8558
11.144	31.8125
11.162	31.7701
11.18	31.7298
11.198	31.6934
11.216	31.6634
11.234	31.6432
11.252	31.6361
11.27	31.6437
11.288	31.6654
11.306	31.6978
11.324	31.7347
11.342	31.7692
11.36	31.7956
11.378	31.8107
11.396	31.8143
11.414	31.809
11.432	31.7981
11.45	31.7846
11.468	31.7691
11.486	31.7501
11.504	31.7247
11.522	31.6902
11.54	31.6455
11.558	31.5928
11.576	31.5372
11.594	31.4848
11.612	31.4422
11.63	31.4128
11.648	31.3967
11.666	31.3905
11.684	31.3886
11.702	31.3856
11.72	31.3778
11.738	31.364
11.756	31.3451
11.774	31.3232
11.792	31.3007
11.81	31.2795
11.828	31.2608
11.846	31.2452
11.864	31.2332
11.882	31.2249
11.9	31.2208
11.918	31.221
11.936	31.2255
11.954	31.2339
11.972	31.2454
11.99	31.2594
12.008	31.2755
12.026	31.2938
12.044	31.3144
12.062	31.3366
12.08	31.3591
12.098	31.3798
12.116	31.3963
12.134	31.4071
12.152	31.4116
12.17	31.41
12.188	31.4031
12.206	31.3912
12.224	31.374
12.242	31.3494
12.26	31.3156
12.278	31.2709
12.296	31.2147
12.314	31.1479
12.332	31.0732
12.35	30.9942
12.368	30.9154
12.386	30.8407
12.404	30.7731
12.422	30.7148
12.44	30.6667
12.458	30.6289
12.476	30.6009
12.494	30.5816
12.512	30.5694
12.53	30.5627
12.548	30.5599
12.566	30.5593
12.584	30.56
12.602	30.5621
12.62	30.5662
12.638	30.5738
12.656	30.5862
12.674	30.6039
12.692	30.6258
12.71	30.6494
12.728	30.6706
12.746	30.6846
12.764	30.6873
12.782	30.6763
12.8	30.6524
12.818	30.6194
12.836	30.584
12.854	30.5538
12.872	30.5362
12.89	30.536
12.908	30.5543
12.926	30.5876
12.944	30.6292
12.962	30.671
12.98	30.705
12.998	30.7256
13.016	30.7304
13.034	30.7206
13.052	30.6995
13.07	30.671
13.088	30.6381
13.106	30.6026
13.124	30.5642
13.142	30.5216
13.16	30.4737
13.178	30.4207
13.196	30.3649
13.214	30.3106
13.232	30.2634
13.25	30.2289
13.268	30.2108
13.286	30.2107
13.304	30.2266
13.322	30.2543
13.34	30.2872
13.358	30.3184
13.376	30.3417
13.394	30.3523
13.412	30.3476
13.43	30.3269
13.448	30.2906
13.466	30.2403
13.484	30.1781
13.502	30.1064
13.52	30.0276
13.538	29.9447
13.556	29.8613
13.574	29.7814
13.592	29.7089
13.61	29.6475
13.628	29.6
13.646	29.5673
13.664	29.5488
13.682	29.5421
13.7	29.544
13.718	29.5504
13.736	29.5582
13.754	29.5647
13.772	29.5688
13.79	29.5704
13.808	29.571
13.826	29.5717
13.844	29.5739
13.862	29.5784
13.88	29.5852
13.898	29.5939
13.916	29.6035
13.934	29.6136
13.952	29.6241
13.97	29.6356
13.988	29.6491
14.006	29.6657
14.024	29.6864
14.042	29.7116
14.06	29.7408
14.078	29.7724
14.096	29.8044
14.114	29.8344
14.132	29.8603
14.15	29.8797
14.168	29.8911
14.186	29.893
14.204	29.8847
14.222	29.8657
14.24	29.8362
14.258	29.7965
14.276	29.7473
14.294	29.6897
14.312	29.6252
14.33	29.5557
14.348	29.4834
14.366	29.4107
14.384	29.3401
14.402	29.2736
14.42	29.2129
14.438	29.1592
14.456	29.1131
14.474	29.0751
14.492	29.045
14.51	29.0225
14.528	29.0073
14.546	28.9983
14.564	28.9943
14.582	28.9938
14.6	28.9947
14.618	28.9952
14.636	28.9934
14.654	28.9881
14.672	28.9786
14.69	28.9649
14.708	28.9475
14.726	28.9271
14.744	28.9048
14.762	28.8811
14.78	28.8564
14.798	28.8307
14.816	28.8039
14.834	28.7758
14.852	28.7461
14.87	28.7151
14.888	28.6832
14.906	28.6515
14.924	28.6216
14.942	28.5952
14.96	28.5741
14.978	28.5596
14.996	28.5524
15.014	28.5529
15.032	28.5606
15.05	28.5748
15.068	28.5944
15.086	28.6183
15.104	28.6456
15.122	28.6755
15.14	28.7076
15.158	28.7413
15.176	28.7763
15.194	28.8119
15.212	28.8472
15.23	28.881
15.248	28.9125
15.266	28.9404
15.284	28.9637
15.302	28.9812
15.32	28.9923
15.338	28.9965
15.356	28.9932
15.374	28.9822
15.392	28.9636
15.41	28.9374
15.428	28.904
15.446	28.8639
15.464	28.8181
15.482	28.7676
15.5	28.7138
15.518	28.6588
15.536	28.6043
15.554	28.5522
15.572	28.5043
15.59	28.4624
15.608	28.4272
15.626	28.3992
15.644	28.3781
15.662	28.3628
15.68	28.3521
15.698	28.3445
15.716	28.3381
15.734	28.3314
15.752	28.3231
15.77	28.3122
15.788	28.2979
15.806	28.2798
15.824	28.2579
15.842	28.2321
15.86	28.2024
15.878	28.1691
15.896	28.1326
15.914	28.0933
15.932	28.0521
15.95	28.0098
15.968	27.9673
15.986	27.9261
16.004	27.887
16.022	27.8509
16.04	27.8186
16.058	27.7903
16.076	27.7659
16.094	27.745
16.112	27.7266
16.13	27.7098
16.148	27.6934
16.166	27.6759
16.184	27.6566
16.202	27.6348
16.22	27.6102
16.238	27.5833
16.256	27.5545
16.274	27.525
16.292	27.496
16.31	27.4684
16.328	27.4437
16.346	27.4223
16.364	27.4047
16.382	27.3911
16.4	27.381
16.418	27.3738
16.436	27.3687
16.454	27.365
16.472	27.362
16.49	27.3589
16.508	27.3558
16.526	27.3525
16.544	27.3492
16.562	27.3464
16.58	27.3446
16.598	27.3448
16.616	27.3474
16.634	27.353
16.652	27.3617
16.67	27.3734
16.688	27.3877
16.706	27.4037
16.724	27.4205
16.742	27.4369
16.76	27.4513
16.778	27.4629
16.796	27.4702
16.814	27.4723
16.832	27.4689
16.85	27.4594
16.868	27.4443
16.886	27.4238
16.904	27.3987
16.922	27.3699
16.94	27.3381
16.958	27.3046
16.976	27.2699
16.994	27.235
17.012	27.2004
17.03	27.1665
17.048	27.1337
17.066	27.1023
17.084	27.0724
17.102	27.0443
17.12	27.0183
17.138	26.9948
17.156	26.9745
17.174	26.9576
17.192	26.945
17.21	26.9369
17.228	26.9337
17.246	26.9353
17.264	26.9416
17.282	26.9518
17.3	26.965
17.318	26.9798
17.336	26.9943
17.354	27.0075
17.372	27.0165
17.39	27.0205
17.408	27.0176
17.426	27.0068
17.444	26.9876
17.462	26.9598
17.48	26.9237
17.498	26.8803
17.516	26.831
17.534	26.7768
17.552	26.7204
17.57	26.6625
17.588	26.6061
17.606	26.5518
17.624	26.5015
17.642	26.4558
17.66	26.4155
17.678	26.3807
17.696	26.3514
17.714	26.3272
17.732	26.3077
17.75	26.2924
17.768	26.2804
17.786	26.2714
17.804	26.2646
17.822	26.2597
17.84	26.2562
17.858	26.2538
17.876	26.2519
17.894	26.2502
17.912	26.2485
17.93	26.2458
17.948	26.2421
17.966	26.2366
17.984	26.229
18.002	26.2187
18.02	26.2054
18.038	26.1888
18.056	26.1689
18.074	26.1456
18.092	26.1194
18.11	26.0904
18.128	26.0595
18.146	26.0268
18.164	25.9933
18.182	25.9597
18.2	25.9265
18.218	25.8947
18.236	25.8646
18.254	25.8372
18.272	25.8127
18.29	25.7916
18.308	25.774
18.326	25.7602
18.344	25.7501
18.362	25.7437
18.38	25.741
18.398	25.7417
18.416	25.7456
18.434	25.7523
18.452	25.7613
18.47	25.7724
18.488	25.7844
18.506	25.797
18.524	25.8091
18.542	25.8205
18.56	25.8297
18.578	25.8366
18.596	25.8402
18.614	25.8404
18.632	25.8366
18.65	25.829
18.668	25.8177
18.686	25.8029
18.704	25.7855
18.722	25.7657
18.74	25.7448
18.758	25.7231
18.776	25.7017
18.794	25.6807
18.812	25.6612
18.83	25.6429
18.848	25.6264
18.866	25.6115
18.884	25.598
18.902	25.5858
18.92	25.5745
18.938	25.5638
18.956	25.5533
18.974	25.5428
18.992	25.5319
19.01	25.5206
19.028	25.5084
19.046	25.4953
19.064	25.4812
19.082	25.4661
19.1	25.4496
19.118	25.4318
19.136	25.4126
19.154	25.3917
19.172	25.3689
19.19	25.3441
19.208	25.317
19.226	25.2877
19.244	25.2558
19.262	25.2217
19.28	25.1854
19.298	25.1472
19.316	25.1074
19.334	25.0663
19.352	25.0248
19.37	24.9829
19.388	24.9422
19.406	24.9026
19.424	24.8659
19.442	24.8319
19.46	24.8017
19.478	24.7756
19.496	24.7538
19.514	24.7366
19.532	24.7235
19.55	24.7146
19.568	24.7092
19.586	24.7068
19.604	24.7067
19.622	24.7078
19.64	24.71
19.658	24.7117
19.676	24.713
19.694	24.7124
19.712	24.7102
19.73	24.7054
19.748	24.6981
19.766	24.6881
19.784	24.6752
19.802	24.66
19.82	24.6424
19.838	24.6228
19.856	24.6016
19.874	24.579
19.892	24.5559
19.91	24.532
19.928	24.5085
19.946	24.4851
19.964	24.4625
19.982	24.4408
20	24.4202
20.018	24.401
20.036	24.383
20.054	24.3662
20.072	24.3506
20.09	24.3361
20.108	24.3225
20.126	24.3096
20.144	24.2974
20.162	24.286
20.18	24.2752
20.198	24.2653
20.216	24.2566
20.234	24.2491
20.252	24.244
20.27	24.241
20.288	24.2416
20.306	24.2457
20.324	24.2544
20.342	24.2686
20.36	24.2884
20.378	24.315
20.396	24.3481
20.414	24.3883
20.432	24.4356
20.45	24.4894
20.468	24.5498
20.486	24.6158
20.504	24.6859
20.522	24.7602
20.54	24.8356
20.558	24.9126
20.576	24.988
20.594	25.0609
20.612	25.1302
20.63	25.1927
20.648	25.2492
20.666	25.2966
20.684	25.335
20.702	25.3638
20.72	25.3819
20.738	25.39
20.756	25.388
20.774	25.3759
20.792	25.3555
20.81	25.3268
20.828	25.2912
20.846	25.2505
20.864	25.2042
20.882	25.1555
20.9	25.104
20.918	25.0511
20.936	24.9983
20.954	24.9451
20.972	24.8932
20.99	24.8423
21.008	24.7928
21.026	24.745
21.044	24.6989
21.062	24.6543
21.08	24.6114
21.098	24.57
21.116	24.5299
21.134	24.4913
21.152	24.454
21.17	24.4181
21.188	24.3841
21.206	24.352
21.224	24.3224
21.242	24.2963
21.26	24.2734
21.278	24.2547
21.296	24.2406
21.314	24.2312
21.332	24.227
21.35	24.228
21.368	24.234
21.386	24.2454
21.404	24.2616
21.422	24.2817
21.44	24.3063
21.458	24.3335
21.476	24.3627
21.494	24.3938
21.512	24.4238
21.53	24.4537
21.548	24.4815
21.566	24.506
21.584	24.5275
21.602	24.5439
21.62	24.5551
21.638	24.5609
21.656	24.5603
21.674	24.5535
21.692	24.5402
21.71	24.5202
21.728	24.4936
21.746	24.4607
21.764	24.4214
21.782	24.376
21.8	24.3252
21.818	24.2687
21.836	24.2072
21.854	24.1405
21.872	24.0691
21.89	23.9939
21.908	23.9146
21.926	23.8323
21.944	23.7475
21.962	23.6601
21.98	23.5724
21.998	23.4838
22.016	23.3955
22.034	23.3102
22.052	23.2269
22.07	23.1477
22.088	23.0746
22.106	23.0066
22.124	22.9465
22.142	22.8947
22.16	22.8511
22.178	22.8171
22.196	22.7928
22.214	22.7779
22.232	22.7727
22.25	22.7778
22.268	22.7905
22.286	22.8105
22.304	22.8379
22.322	22.8679
22.34	22.901
22.358	22.9357
22.376	22.9661
22.394	22.994
22.412	23.0162
22.43	23.0276
22.448	23.0304
22.466	23.0211
22.484	22.9963
22.502	22.9578
22.52	22.9035
22.538	22.832
22.556	22.7443
22.574	22.6416
22.592	22.5227
22.61	22.3894
22.628	22.2456
22.646	22.0897
22.664	21.9247
22.682	21.7562
22.7	21.5817
22.718	21.4055
22.736	21.2333
22.754	21.0622
22.772	20.8969
22.79	20.7418
22.808	20.5943
22.826	20.4582
22.844	20.3361
22.862	20.2263
22.88	20.1303
22.898	20.0492
22.916	19.9822
22.934	19.9281
22.952	19.8871
22.97	19.8589
22.988	19.8409
23.006	19.833
23.024	19.835
23.042	19.8431
23.06	19.8578
23.078	19.8783
23.096	19.8999
23.114	19.9229
23.132	19.947
23.15	19.9689
23.168	19.989
23.186	20.0069
23.204	20.0198
23.222	20.0271
23.24	20.0299
23.258	20.0284
23.276	20.0217
23.294	20.011
23.312	19.999
23.33	19.9842
23.348	19.9683
23.366	19.9564
23.384	19.9475
23.402	19.9424
23.42	19.946
23.438	19.9578
23.456	19.9781
23.474	20.0117
23.492	20.0591
23.51	20.1195
23.528	20.1963
23.546	20.2906
23.564	20.4011
23.582	20.5285
23.6	20.6737
23.618	20.8361
23.636	21.0134
23.654	21.2052
23.672	21.4126
23.69	21.6303
23.708	21.8557
23.726	22.0917
23.744	22.3318
23.762	22.5704
23.78	22.8119
23.798	23.0505
23.816	23.2795
23.834	23.5024
23.852	23.716
23.87	23.9143
23.888	24.0994
23.906	24.27
23.924	24.4213
23.942	24.5531
23.96	24.6664
23.978	24.7584
23.996	24.8278
24.014	24.8758
24.032	24.9032
24.05	24.9101
24.068	24.8955
24.086	24.8632
24.104	24.8164
24.122	24.7526
24.14	24.6747
24.158	24.5872
24.176	24.4878
24.194	24.3785
24.212	24.2646
24.23	24.1464
24.248	24.0227
24.266	23.8996
24.284	23.7798
24.302	23.66
24.32	23.5458
24.338	23.4424
24.356	23.3454
24.374	23.2595
24.392	23.192
24.41	23.1411
24.428	23.1072
24.446	23.0962
24.464	23.1103
24.482	23.1464
24.5	23.2095
24.518	23.304
24.536	23.4283
24.554	23.5815
24.572	23.7635
24.59	23.9764
24.608	24.2179
24.626	24.4833
24.644	24.7725
24.662	25.0887
24.68	25.4206
24.698	25.7589
24.716	26.1132
24.734	26.4734
24.752	26.8227
24.77	27.1636
24.788	27.4985
24.806	27.8086
24.824	28.0815
24.842	28.3301
24.86	28.5415
24.878	28.6993
24.896	28.8079
24.914	28.868
24.932	28.869
24.95	28.8045
24.968	28.6803
24.986	28.4946
25.004	28.2445
25.022	27.9265
25.04	27.5465
25.058	27.113
25.076	26.6267
25.094	26.0815
25.112	25.4947
25.13	24.8829
25.148	24.2321
25.166	23.5524
25.184	22.8686
25.202	22.1897
25.22	21.4998
25.238	20.8224
25.256	20.1821
25.274	19.5662
25.292	18.9788
25.31	18.4429
25.328	17.9712
25.346	17.5488
25.364	17.1879
25.382	16.9039
25.4	16.695
25.418	16.5576
25.436	16.4975
25.454	16.5203
25.472	16.6244
25.49	16.8061
25.508	17.0618
25.526	17.3926
25.544	17.7993
25.562	18.2746
25.58	18.8117
25.598	19.4166
25.616	20.085
25.634	20.8068
25.652	21.5764
25.67	22.4014
25.688	23.2737
25.706	24.1831
25.724	25.131
25.742	26.1204
25.76	27.1403
25.778	28.1812
25.796	29.2525
25.814	30.3481
25.832	31.4535
25.85	32.5604
25.868	33.6823
25.886	34.8051
25.904	35.911
25.922	37.0001
25.94	38.0827
25.958	39.1362
25.976	40.1383
25.994	41.1004
26.012	42.0225
26.03	42.8821
26.048	43.6599
26.066	44.3708
26.084	45.0098
26.102	45.5629
26.12	46.0207
26.138	46.3926
26.156	46.6756
26.174	46.8649
26.192	46.9553
26.21	46.949
26.228	46.8543
26.246	46.6793
26.264	46.4199
26.282	46.0744
26.3	45.6579
26.318	45.1852
26.336	44.6442
26.354	44.0383
26.372	43.3897
26.39	42.7184
26.408	42.0089
26.426	41.2663
26.444	40.5097
26.462	39.755
26.48	38.9899
26.498	38.2178
26.516	37.4489
26.534	36.691
26.552	35.9381
26.57	35.191
26.588	34.4524
26.606	33.7248
26.624	33.0066
26.642	32.2972
26.66	31.5962
26.678	30.9037
26.696	30.2209
26.714	29.5456
26.732	28.8748
26.75	28.2066
26.768	27.5418
26.786	26.8821
26.804	26.2292
26.822	25.5835
26.84	24.9431
26.858	24.3104
26.876	23.6878
26.894	23.0759
26.912	22.4715
26.93	21.8787
26.948	21.3021
26.966	20.7237
26.984	20.1099
27.002	19.5386
27.02	19.0947
27.028	18.9743