File: Bakgrunnsmateriale/MATLAB/FTIR/ftir_data/LPE453/Mapping_121/LPE453_t24_cm-1.asc
PE IR       SPECTRUM    SPECTRUM    ASCII       PEDS        1.60
  -1
LP685B~1.ASC
17/05/16
16:21:52.00
17/05/16
16:21:52.00
tln
$LPE453_t0024$<tbV0>[10.4,-7.8,8.0,0.0,27,1,0]
370
64

2002,4.07
MIRTGS : RIGHTBACK : INTERNAL 2
MIR : ON : INTERNAL 2
OPTKBR

0.200000
8
8.000000
FILLER
RATIO
SPECTRUM
UNLOCKED 256

DOUBLE
64
COMBINED
1
0
0

1.000000
RATIO

1
0
TRUE
51149
0
LEFT NOT FITTED RIGHT NOT FITTED 0
NONE
NONE
15600
12
4.427000
51148
TRUE
1 0 8 72 0 0 0 0

15798

#HDR
-1
-1
#GR
CM-1
%T
2.38419e-05
0.0
5000
-1.000000
4631
8
39.1796
-2.231478
#DATA
5000	-0.007224
4996	-0.024175
4992	-0.012683
4988	-0.096297
4984	-0.046443
4980	0.256872
4976	0.335550
4972	0.062036
4968	-0.161051
4964	-0.050687
4960	0.125622
4956	0.260519
4952	0.513744
4948	0.555849
4944	0.346851
4940	0.151753
4936	-0.026535
4932	-0.106191
4928	-0.021100
4924	-0.053572
4920	-0.196003
4916	-0.171756
4912	-0.128483
4908	-0.081372
4904	0.088882
4900	0.216603
4896	0.300765
4892	0.285673
4888	0.164008
4884	0.148510
4880	0.142192
4876	0.154852
4872	0.201296
4868	0.238680
4864	0.153470
4860	0.101065
4856	0.225067
4852	0.264286
4848	0.280523
4844	0.357127
4840	0.309038
4836	0.308203
4832	0.415015
4828	0.428366
4824	0.402450
4820	0.335836
4816	0.174760
4812	0.128293
4808	0.119948
4804	0.112414
4800	0.209498
4796	0.150275
4792	-0.052547
4788	-0.089716
4784	-0.022721
4780	0.007724
4776	0.044512
4772	-0.058674
4768	-0.228738
4764	-0.153183
4760	0.034141
4756	0.079345
4752	0.020289
4748	-0.134563
4744	-0.253081
4740	-0.092220
4736	0.148701
4732	0.167512
4728	0.008273
4724	-0.073885
4720	-0.030136
4716	0.112819
4712	0.382256
4708	0.475597
4704	0.328993
4700	0.318384
4696	0.429606
4692	0.373744
4688	0.362229
4684	0.602054
4680	0.721645
4676	0.755095
4672	0.843906
4668	0.769305
4664	0.601911
4660	0.279164
4656	-0.160694
4652	-0.235104
4648	0.032734
4644	0.142168
4640	0.429916
4636	1.012134
4632	1.199555
4628	0.950789
4624	0.709939
4620	0.404906
4616	0.157046
4612	0.349855
4608	0.405240
4604	0.533866
4600	0.532269
4596	0.173473
4592	0.287818
4588	0.885772
4584	1.503586
4580	1.263117
4576	0.300502
4572	-0.249958
4568	-0.311255
4564	-0.124120
4560	0.433063
4556	0.658750
4552	-0.010514
4548	-0.623464
4544	-0.819611
4540	-1.248502
4536	-0.858783
4532	0.775480
4528	1.662349
4524	1.408600
4520	3.004765
4516	9.568285
4512	13.4328
4508	8.668470
4504	5.399465
4500	5.683827
4496	3.356337
4492	-0.346183
4488	-2.231478
4484	-1.312208
4480	-0.143194
4476	0.013494
4472	-0.190067
4468	-0.647449
4464	-0.831341
4460	-0.278711
4456	0.037407
4452	-0.357794
4448	-0.750422
4444	-0.794315
4440	-0.865769
4436	-0.891399
4432	-0.646853
4428	-0.238847
4424	0.289964
4420	0.322246
4416	-0.288510
4412	-0.495719
4408	-0.149488
4404	0.184130
4400	0.308561
4396	0.358366
4392	0.538086
4388	0.744104
4384	0.527906
4380	0.088620
4376	-0.132369
4372	-0.113058
4368	0.160717
4364	0.407576
4360	0.312805
4356	0.003862
4352	-0.001788
4348	0.317001
4344	0.437092
4340	0.252842
4336	0.114464
4332	0.056934
4328	0.077629
4324	0.300955
4320	0.466728
4316	0.366044
4312	0.210356
4308	0.113272
4304	0.130844
4300	0.183296
4296	0.101351
4292	-0.004601
4288	-0.069308
4284	-0.086855
4280	0.033521
4276	0.136899
4272	0.208926
4268	0.340580
4264	0.375342
4260	0.303912
4256	0.262761
4252	0.157666
4248	0.006103
4244	0.092220
4240	0.281500
4236	0.286054
4232	0.242447
4228	0.210165
4224	0.153875
4220	0.111818
4216	0.022172
4212	-0.061225
4208	0.060343
4204	0.317239
4200	0.373864
4196	0.394058
4192	0.621676
4188	0.723385
4184	0.579500
4180	0.256538
4176	-0.354504
4172	-0.793862
4168	-0.630712
4164	-0.170350
4160	0.160980
4156	0.230050
4152	0.227856
4148	0.183606
4144	0.127744
4140	0.190067
4136	0.266098
4132	0.259971
4128	0.241541
4124	0.245094
4120	0.292396
4116	0.366687
4112	0.336647
4108	0.257730
4104	0.165438
4100	0.102376
4096	0.181961
4092	0.223922
4088	0.087785
4084	-0.038838
4080	-0.078940
4076	-0.171041
4072	-0.190711
4068	-0.018429
4064	0.079441
4060	0.051641
4056	0.069284
4052	0.045919
4048	-0.009751
4044	-0.008630
4040	0.014472
4036	0.082135
4032	0.100827
4028	0.000619
4024	-0.102877
4020	-0.056982
4016	0.108551
4012	0.193762
4008	0.185751
4004	0.214409
4000	0.269913
3996	0.220227
3992	0.041651
3988	-0.047016
3984	0.011396
3980	0.109529
3976	0.131630
3972	0.068283
3968	0.082969
3964	0.157928
3960	0.132775
3956	0.089168
3952	0.092816
3948	0.072693
3944	0.111818
3940	0.178718
3936	0.148391
3932	0.137805
3928	0.104260
3924	0.068616
3920	0.186514
3916	0.221228
3912	0.026535
3908	-0.100827
3904	-0.015163
3900	0.019049
3896	-0.015306
3892	0.059676
3888	0.078725
3884	-0.003838
3880	-0.024223
3876	0.001645
3872	0.072383
3868	0.131320
3864	0.113010
3860	0.089192
3856	0.082778
3852	0.059366
3848	-0.011181
3844	-0.082230
3840	-0.092458
3836	-0.068902
3832	-0.083398
3828	-0.057339
3824	0.127983
3820	0.295996
3816	0.273418
3812	0.135493
3808	0.053119
3804	0.059556
3800	0.075769
3796	0.101351
3792	0.143957
3788	0.185632
3784	0.218009
3780	0.236701
3776	0.177741
3772	0.037693
3768	-0.038504
3764	-0.000476
3760	0.074791
3756	0.093293
3752	0.121927
3748	0.140333
3744	0.079178
3740	0.089526
3736	0.116515
3732	0.031852
3728	-0.095748
3724	-0.174212
3720	-0.181293
3716	-0.096297
3712	-0.003337
3708	0.029134
3704	0.094985
3700	0.153708
3696	0.129771
3692	0.073218
3688	0.083661
3684	0.127840
3680	0.143003
3676	0.125312
3672	0.078964
3668	0.088667
3664	0.122046
3660	0.099611
3656	0.091433
3652	0.157308
3648	0.193166
3644	0.134730
3640	0.069522
3636	0.049352
3632	0.047349
3628	0.029110
3624	-0.015974
3620	-0.046467
3616	0.001907
3612	0.041174
3608	0.013136
3604	0.011277
3600	0.022935
3596	-0.031757
3592	-0.148439
3588	-0.151181
3584	-0.003123
3580	0.066375
3576	0.033354
3572	0.040173
3568	0.094842
3564	0.178313
3560	0.239062
3556	0.241208
3552	0.222325
3548	0.235581
3544	0.301480
3540	0.302028
3536	0.186729
3532	0.072956
3528	0.099301
3524	0.225090
3520	0.287294
3516	0.282645
3512	0.279712
3508	0.218820
3504	0.124788
3500	0.072264
3496	0.010919
3492	-0.024747
3488	-0.005483
3484	0.044631
3480	0.095438
3476	0.078701
3472	0.047397
3468	0.081110
3464	0.150156
3460	0.185561
3456	0.099802
3452	-0.020623
3448	-0.022363
3444	0.044202
3440	0.050520
3436	-0.004553
3432	-0.098395
3428	-0.142693
3424	-0.078129
3420	-0.034427
3416	0.006365
3412	0.089669
3408	0.072121
3404	-0.066471
3400	-0.128293
3396	-0.044631
3392	-0.013566
3388	0.010585
3384	0.117707
3380	0.194263
3376	0.241208
3372	0.225639
3368	0.077533
3364	-0.096631
3360	-0.141954
3356	-0.064134
3352	0.066184
3348	0.149059
3344	0.103616
3340	-0.010824
3336	-0.067925
3332	-0.035095
3328	0.051379
3324	0.146818
3320	0.187754
3316	0.141787
3312	0.034761
3308	0.019550
3304	0.082206
3300	0.072407
3296	0.016260
3292	0.016927
3288	0.051403
3284	0.032162
3280	-0.009799
3276	-0.020742
3272	0.028681
3268	0.150680
3264	0.244688
3260	0.202775
3256	0.083088
3252	-0.024390
3248	-0.071644
3244	0.001263
3240	0.078868
3236	0.048613
3232	0.054764
3228	0.099706
3224	0.047183
3220	-0.046682
3216	-0.092816
3212	-0.061774
3208	0.087833
3204	0.223541
3200	0.216174
3196	0.187373
3192	0.163936
3188	0.092387
3184	0.021815
3180	-0.003385
3176	0.015830
3172	0.076985
3168	0.117111
3164	0.060057
3160	-0.074577
3156	-0.141882
3152	-0.036334
3148	0.077366
3144	0.114989
3140	0.126695
3136	0.085234
3132	0.009250
3128	-0.007724
3124	-0.020933
3120	-0.097346
3116	-0.082421
3112	-0.001978
3108	0.059938
3104	0.143790
3100	0.202965
3096	0.201392
3092	0.151634
3088	0.088071
3084	0.039696
3080	-0.005173
3076	-0.072050
3072	-0.086140
3068	-0.016975
3064	0.046205
3060	0.053286
3056	0.019812
3052	0.002217
3048	0.016951
3044	0.052070
3040	0.033044
3036	-0.019645
3032	0.045990
3028	0.160717
3024	0.143790
3020	0.051283
3016	0.038266
3012	0.069022
3008	0.052237
3004	0.000357
3000	0.017452
2996	0.126791
2992	0.192475
2988	0.149846
2984	0.069141
2980	0.004720
2976	-0.011134
2972	0.002717
2968	0.065374
2964	0.158643
2960	0.144243
2956	0.067687
2952	0.003719
2948	-0.063943
2944	-0.035953
2940	0.050044
2936	0.105500
2932	0.166058
2928	0.194501
2924	0.184035
2920	0.167179
2916	0.125837
2912	0.043582
2908	-0.043487
2904	-0.066852
2900	-0.053048
2896	-0.063323
2892	-0.036740
2888	0.030088
2884	0.055027
2880	0.087022
2876	0.131511
2872	0.142955
2868	0.088167
2864	-0.034952
2860	0.002980
2856	0.187683
2852	0.233364
2848	0.141596
2844	0.041437
2840	0.032496
2836	0.061607
2832	0.046539
2828	0.075197
2824	0.099396
2820	0.048470
2816	0.017857
2812	0.056076
2808	0.091576
2804	0.027823
2800	-0.089478
2796	-0.134706
2792	-0.074386
2788	0.015044
2784	0.063204
2780	0.068235
2776	0.054955
2772	0.050711
2768	0.035595
2764	0.018191
2760	0.033378
2756	0.049448
2752	0.022745
2748	-0.005412
2744	-0.003361
2740	-0.002503
2736	-0.029492
2732	-0.090241
2728	-0.106310
2724	-0.035023
2720	0.053548
2716	0.093221
2712	0.073027
2708	0.119352
2704	0.185513
2700	0.149703
2696	0.075578
2692	0.029468
2688	-0.031924
2684	-0.076866
2680	-0.057244
2676	-0.031375
2672	-0.022220
2668	-0.004935
2664	0.059580
2660	0.137114
2656	0.146603
2652	0.116658
2648	0.108528
2644	0.126361
2640	0.139927
2636	0.101065
2632	0.044894
2628	0.055980
2624	0.077247
2620	0.041627
2616	-0.013327
2612	-0.047230
2608	-0.042033
2604	-0.021910
2600	-0.013685
2596	-0.009775
2592	0.017333
2588	0.061225
2584	0.042819
2580	-0.035429
2576	-0.059580
2572	-0.005888
2568	0.032305
2564	0.046014
2560	0.099039
2556	0.127792
2552	0.107192
2548	0.092101
2544	0.034618
2540	-0.028967
2536	-0.011038
2532	0.026512
2528	0.076651
2524	0.174236
2520	0.209140
2516	0.161957
2512	0.141263
2508	0.202584
2504	0.272393
2500	0.212812
2496	0.102353
2492	0.077295
2488	0.136494
2484	0.183963
2480	0.126218
2476	0.063920
2472	0.065708
2468	0.051999
2464	-0.005173
2460	-0.023293
2456	0.002908
2452	-0.019288
2448	-0.047087
2444	-0.082635
2440	-0.143051
2436	-0.109624
2432	0.083065
2428	0.246286
2424	0.143718
2420	-0.004363
2416	0.073838
2412	0.197696
2408	0.167107
2404	-0.029993
2400	-0.177359
2396	-0.150537
2392	-0.073862
2388	-0.029444
2384	-0.033974
2380	-0.074434
2376	-0.107431
2372	-0.092363
2368	-0.037741
2364	0.008583
2360	0.081872
2356	0.144553
2352	0.075149
2348	-0.073027
2344	-0.151872
2340	-0.102066
2336	-0.024247
2332	0.013160
2328	0.032877
2324	0.043177
2320	0.073528
2316	0.115513
2312	0.147128
2308	0.143504
2304	0.102400
2300	0.098419
2296	0.149369
2292	0.155472
2288	0.066184
2284	0.008940
2280	0.090551
2276	0.227928
2272	0.312876
2268	0.313282
2264	0.274372
2260	0.309777
2256	0.398063
2252	0.459980
2248	0.531768
2244	0.607323
2240	0.676083
2236	0.753664
2232	0.833630
2228	0.911378
2224	0.999307
2220	1.109361
2216	1.223802
2212	1.346158
2208	1.462888
2204	1.560902
2200	1.650619
2196	1.760506
2192	1.950907
2188	2.225017
2184	2.506804
2180	2.681183
2176	2.752447
2172	2.890586
2168	3.153872
2164	3.467392
2160	3.797698
2156	4.127240
2152	4.401278
2148	4.645872
2144	4.941415
2140	5.214118
2136	5.460572
2132	5.785226
2128	6.155729
2124	6.572365
2120	6.999659
2116	7.396745
2112	7.818889
2108	8.201766
2104	8.522081
2100	8.898544
2096	9.390425
2092	9.918284
2088	10.3611
2084	10.7034
2080	10.9786
2076	11.3155
2072	11.7581
2068	12.1532
2064	12.5191
2060	12.8621
2056	13.2292
2052	13.667
2048	14.0742
2044	14.5102
2040	14.9928
2036	15.427
2032	15.7522
2028	16.0141
2024	16.3882
2020	16.8598
2016	17.2693
2012	17.6294
2008	17.9636
2004	18.2761
2000	18.6281
1996	18.9799
1992	19.2874
1988	19.5914
1984	19.886
1980	20.1864
1976	20.5038
1972	20.7515
1968	20.9392
1964	21.1659
1960	21.4492
1956	21.7441
1952	21.9781
1948	22.1747
1944	22.4209
1940	22.6558
1936	22.8913
1932	23.1618
1928	23.3699
1924	23.5761
1920	23.8129
1916	23.9643
1912	24.0911
1908	24.2723
1904	24.4907
1900	24.7
1896	24.8443
1892	24.9418
1888	25.055
1884	25.2032
1880	25.358
1876	25.5423
1872	25.7409
1868	25.8761
1864	25.9539
1860	26.0147
1856	26.0991
1852	26.2394
1848	26.3886
1844	26.4926
1840	26.5764
1836	26.6535
1832	26.7394
1828	26.8442
1824	26.9337
1820	27.0466
1816	27.1996
1812	27.2683
1808	27.2377
1804	27.1951
1800	27.2055
1796	27.3496
1792	27.515
1788	27.5743
1784	27.6064
1780	27.6453
1776	27.6908
1772	27.7724
1768	27.8485
1764	27.8852
1760	27.8759
1756	27.8439
1752	27.8433
1748	27.855
1744	27.8941
1740	27.9641
1736	27.989
1732	28.056
1728	28.2002
1724	28.2596
1720	28.2674
1716	28.3192
1712	28.3614
1708	28.3941
1704	28.4022
1700	28.3211
1696	28.266
1692	28.3209
1688	28.3506
1684	28.3435
1680	28.3829
1676	28.4144
1672	28.3853
1668	28.3866
1664	28.471
1660	28.5096
1656	28.4519
1652	28.4106
1648	28.4431
1644	28.5155
1640	28.5496
1636	28.5483
1632	28.5809
1628	28.6036
1624	28.56
1620	28.5343
1616	28.5631
1612	28.5707
1608	28.5792
1604	28.5985
1600	28.5717
1596	28.5213
1592	28.5083
1588	28.5295
1584	28.5363
1580	28.5357
1576	28.5593
1572	28.5946
1568	28.6397
1564	28.6604
1560	28.6111
1556	28.5768
1552	28.6074
1548	28.5954
1544	28.502
1540	28.4419
1536	28.4613
1532	28.481
1528	28.5112
1524	28.5878
1520	28.6065
1516	28.541
1512	28.4745
1508	28.4327
1504	28.4614
1500	28.5129
1496	28.4875
1492	28.4357
1488	28.4318
1484	28.4172
1480	28.3669
1476	28.3684
1472	28.4467
1468	28.5099
1464	28.5181
1460	28.4942
1456	28.4117
1452	28.3271
1448	28.3367
1444	28.3596
1440	28.3571
1436	28.3729
1432	28.3408
1428	28.3098
1424	28.3656
1420	28.3926
1416	28.3808
1412	28.4063
1408	28.3664
1404	28.2653
1400	28.2481
1396	28.2834
1392	28.2901
1388	28.2423
1384	28.2065
1380	28.2227
1376	28.2501
1372	28.2637
1368	28.2772
1364	28.2903
1360	28.2227
1356	28.1377
1352	28.1169
1348	28.1329
1344	28.1629
1340	28.1722
1336	28.1503
1332	28.1186
1328	28.1
1324	28.1199
1320	28.179
1316	28.1964
1312	28.1598
1308	28.1123
1304	28.0706
1300	28.0412
1296	27.9722
1292	27.8809
1288	27.8768
1284	27.9597
1280	27.9764
1276	27.9154
1272	27.8764
1268	27.8408
1264	27.7901
1260	27.7693
1256	27.7954
1252	27.8215
1248	27.7718
1244	27.6842
1240	27.6937
1236	27.7898
1232	27.8655
1228	27.8594
1224	27.7617
1220	27.696
1216	27.7142
1212	27.6953
1208	27.6396
1204	27.5964
1200	27.5671
1196	27.578
1192	27.6071
1188	27.5895
1184	27.5805
1180	27.6272
1176	27.6674
1172	27.7092
1168	27.7383
1164	27.6534
1160	27.4832
1156	27.3828
1152	27.3921
1148	27.4119
1144	27.3902
1140	27.3894
1136	27.4109
1132	27.3979
1128	27.3216
1124	27.1844
1120	27.0869
1116	27.0675
1112	27.0943
1108	27.1639
1104	27.1989
1100	27.1219
1096	26.965
1092	26.8529
1088	26.8287
1084	26.7877
1080	26.7494
1076	26.811
1072	26.8383
1068	26.7245
1064	26.666
1060	26.729
1056	26.7622
1052	26.8062
1048	26.8796
1044	26.8425
1040	26.792
1036	26.7815
1032	26.6718
1028	26.5831
1024	26.6793
1020	26.7507
1016	26.7043
1012	26.6259
1008	26.5366
1004	26.4879
1000	26.4245
996	 26.3758
992	 26.388
988	 26.3635
984	 26.2642
980	 26.1699
976	 26.1071
972	 26.0241
968	 26.0014
964	 26.011
960	 25.9784
956	 26.035
952	 26.1037
948	 26.0048
944	 25.8747
940	 25.8719
936	 25.8215
932	 25.6018
928	 25.4476
924	 25.473
920	 25.5222
916	 25.456
912	 25.289
908	 25.164
904	 25.1887
900	 25.2992
896	 25.2963
892	 25.1418
888	 24.9888
884	 24.853
880	 24.7574
876	 24.7875
872	 24.8955
868	 24.9497
864	 24.8019
860	 24.6291
856	 24.6293
852	 24.6296
848	 24.5569
844	 24.511
840	 24.4742
836	 24.4609
832	 24.4606
828	 24.3016
824	 24.0455
820	 23.9664
816	 23.9644
812	 23.8151
808	 23.7419
804	 23.8889
800	 23.8932
796	 23.6435
792	 23.4738
788	 23.3955
784	 23.2338
780	 23.1978
776	 23.307
772	 23.3068
768	 23.236
764	 23.3142
760	 23.4426
756	 23.4752
752	 23.5467
748	 23.5256
744	 23.3859
740	 23.2494
736	 23.054
732	 22.894
728	 22.731
724	 22.4917
720	 22.3489
716	 22.3436
712	 22.3402
708	 22.2297
704	 21.9761
700	 21.8373
696	 22.0074
692	 22.212
688	 22.2298
684	 22.0287
680	 21.7523
676	 21.6508
672	 21.7012
668	 21.7467
664	 21.5371
660	 20.9357
656	 20.5826
652	 20.8018
648	 20.9484
644	 20.8793
640	 20.8437
636	 20.7318
632	 20.6317
628	 20.576
624	 20.4017
620	 20.1957
616	 20.0257
612	 19.9819
608	 20.0209
604	 19.9426
600	 19.7765
596	 19.7125
592	 19.6856
588	 19.54
584	 19.2105
580	 18.6817
576	 18.3734
572	 18.4429
568	 18.6337
564	 18.8189
560	 18.8002
556	 18.5037
552	 18.1499
548	 18.0051
544	 18.0127
540	 17.797
536	 17.5105
532	 17.7377
528	 18.0389
524	 17.7424
520	 17.3486
516	 17.4616
512	 17.7078
508	 17.4005
504	 16.8711
500	 16.5585
496	 16.3593
492	 16.7003
488	 17.3453
484	 17.3969
480	 16.9114
476	 16.3319
472	 15.9621
468	 15.768
464	 15.3641
460	 14.9231
456	 14.9061
452	 15.4461
448	 16.1875
444	 16.2762
440	 15.4049
436	 14.7033
432	 14.8588
428	 15.0347
424	 13.4009
420	 10.8861
416	 11.2116
412	 11.913
408	 13.8433
404	 21.8312
400	 26.8654
396	 24.3712
392	 22.2921
388	 20.5558
384	 21.8078
380	 33.3311
376	 38.6319
372	 27.036
370	 22.7205