File: Bakgrunnsmateriale/MATLAB/FTIR/ftir_data/LPE453/Mapping_121/LPE453_t44_cm-1.asc
PE IR       SPECTRUM    SPECTRUM    ASCII       PEDS        1.60
  -1
LP695B~1.ASC
17/05/16
17:54:43.00
17/05/16
17:54:43.00
tln
$LPE453_t0044$<tbV0>[-13.0,-5.2,8.0,0.0,27,1,0]
370
64

2002,4.07
MIRTGS : RIGHTBACK : INTERNAL 2
MIR : ON : INTERNAL 2
OPTKBR

0.200000
8
8.000000
FILLER
RATIO
SPECTRUM
UNLOCKED 256

DOUBLE
64
COMBINED
1
0
0

1.000000
RATIO

1
0
TRUE
51149
0
LEFT NOT FITTED RIGHT NOT FITTED 0
NONE
NONE
15600
12
4.427000
51148
TRUE
1 0 8 72 0 0 0 0

15798

#HDR
-1
-1
#GR
CM-1
%T
2.38419e-05
0.0
5000
-1.000000
4631
8
32.5645
-19.0875
#DATA
5000	-0.017309
4996	0.155687
4992	0.228142
4988	0.208806
4984	0.200867
4980	0.079870
4976	-0.041389
4972	-0.003862
4968	0.181555
4964	0.410079
4960	0.477480
4956	0.219297
4952	-0.035429
4948	0.125336
4944	0.418400
4940	0.495529
4936	0.398325
4932	0.343561
4928	0.396990
4924	0.358319
4920	0.162863
4916	-0.092506
4912	-0.253701
4908	-0.191283
4904	0.052642
4900	0.283288
4896	0.374698
4892	0.404644
4888	0.522327
4884	0.589919
4880	0.509524
4876	0.281810
4872	-0.157403
4868	-0.278544
4864	0.142097
4860	0.321483
4856	0.064063
4852	0.081539
4848	0.300574
4844	0.268507
4840	0.203037
4836	0.324273
4832	0.418710
4828	0.321078
4824	0.294494
4820	0.378274
4816	0.305342
4812	0.186061
4808	0.065946
4804	-0.115323
4800	-0.160908
4796	0.001335
4792	0.146007
4788	0.165295
4784	0.099563
4780	0.155639
4776	0.379920
4772	0.456166
4768	0.274014
4764	0.027036
4760	-0.052428
4756	-0.032138
4752	-0.039577
4748	0.046324
4744	0.146389
4740	0.035691
4736	-0.023841
4732	0.173735
4728	0.240063
4724	0.160098
4720	0.236415
4716	0.299906
4712	0.289940
4708	0.345587
4704	0.315284
4700	0.203037
4696	0.188446
4692	0.243473
4688	0.168871
4684	0.140023
4680	0.290727
4676	0.339531
4672	0.380373
4668	0.409245
4664	0.245523
4660	0.161838
4656	0.229239
4652	0.222158
4648	0.233149
4644	0.306248
4640	0.298309
4636	0.291872
4632	0.322198
4628	0.361561
4624	0.642848
4620	0.975728
4616	0.722765
4612	0.271010
4608	0.349521
4604	0.663304
4600	0.733375
4596	0.507974
4592	0.338649
4588	0.312542
4584	0.198960
4580	0.151419
4576	0.200915
4572	0.219726
4568	0.404262
4564	0.623989
4560	0.678539
4556	0.881314
4552	1.190352
4548	0.663447
4544	-0.158786
4540	0.132179
4536	1.251125
4532	1.838088
4528	2.035832
4524	-4.629468
4520	-14.9433
4516	-8.057045
4512	4.853367
4508	5.693793
4504	2.864670
4500	1.941680
4496	1.164698
4492	0.127053
4488	-0.238633
4484	0.436544
4480	0.449204
4476	0.302648
4472	0.556135
4468	0.785255
4464	0.780010
4460	0.547122
4456	0.352096
4452	0.227928
4448	0.283980
4444	0.459599
4440	0.545811
4436	0.726437
4432	0.632524
4428	0.237965
4424	0.081419
4420	0.130605
4416	0.161457
4412	0.238394
4408	0.263357
4404	0.091505
4400	0.092172
4396	0.429201
4392	0.594615
4388	0.469326
4384	0.379610
4380	0.459146
4376	0.602197
4372	0.432586
4368	0.068521
4364	-0.026941
4360	0.078940
4356	0.182795
4352	0.257325
4348	0.193357
4344	0.005364
4340	-0.071597
4336	-0.016570
4332	0.061607
4328	0.038075
4324	-0.106787
4320	-0.247359
4316	-0.216436
4312	-0.071358
4308	-0.043082
4304	-0.091695
4300	-0.063204
4296	-0.004148
4292	-0.028491
4288	-0.037407
4284	-0.043344
4280	-0.131583
4276	-0.160408
4272	-0.123858
4268	0.023961
4264	0.204443
4260	0.149321
4256	-0.042247
4252	-0.154829
4248	-0.177907
4244	-0.031781
4240	0.194907
4236	0.286626
4232	0.252413
4228	0.229430
4224	0.284028
4220	0.282692
4216	0.121068
4212	-0.013852
4208	-0.043249
4204	-0.032544
4200	-0.120592
4196	-0.197148
4192	0.011587
4188	0.111842
4184	0.063681
4180	0.461053
4176	0.839877
4172	0.646686
4168	0.339031
4164	0.195217
4160	0.069952
4156	-0.003767
4152	0.038003
4148	0.062251
4144	0.006127
4140	-0.006937
4136	0.064039
4132	0.024366
4128	-0.117540
4124	-0.096654
4120	0.054502
4116	0.157284
4112	0.204491
4108	0.148177
4104	0.070476
4100	0.078439
4096	0.001406
4092	-0.085115
4088	-0.084376
4084	-0.113010
4080	-0.105810
4076	-0.036263
4072	0.061893
4068	0.162839
4064	0.183320
4060	0.128698
4056	0.100946
4052	0.069355
4048	-0.024104
4044	-0.060200
4040	-0.021433
4036	-0.021481
4032	-0.083589
4028	-0.045895
4024	0.189733
4020	0.404214
4016	0.362253
4012	0.138735
4008	-0.050830
4004	-0.019168
4000	0.024890
3996	-0.048470
3992	-0.051522
3988	-0.098347
3984	-0.164270
3980	-0.058484
3976	0.112199
3972	0.182843
3968	0.191092
3964	0.191187
3960	0.131893
3956	0.062417
3952	0.060486
3948	0.088572
3944	0.079202
3940	-0.054287
3936	-0.190520
3932	-0.199007
3928	-0.181317
3924	-0.056195
3920	0.109553
3916	0.135397
3912	0.152087
3908	0.163888
3904	0.075817
3900	-0.024890
3896	-0.035524
3892	0.046610
3888	0.123071
3884	0.131583
3880	0.137543
3876	0.138854
3872	0.103807
3868	0.080847
3864	0.026679
3860	-0.124621
3856	-0.205850
3852	-0.118041
3848	0.006866
3844	0.159335
3840	0.279974
3836	0.233173
3832	0.069522
3828	-0.030446
3824	0.022149
3820	0.123906
3816	0.205993
3812	0.264763
3808	0.244021
3804	0.107455
3800	-0.030803
3796	-0.078463
3792	-0.095319
3788	-0.071668
3784	-0.024962
3780	-0.006794
3776	0.029134
3772	0.056099
3768	0.030183
3764	0.016427
3760	0.044393
3756	0.014209
3752	-0.037264
3748	-0.020956
3744	-0.000333
3740	0.005888
3736	0.038242
3732	0.162816
3728	0.258088
3724	0.168490
3720	-0.009608
3716	-0.150370
3712	-0.107049
3708	0.039124
3704	0.151777
3700	0.144267
3696	0.031399
3692	-0.004553
3688	0.040054
3684	0.079965
3680	0.081896
3676	0.045847
3672	0.041556
3668	0.092816
3664	0.076603
3660	-0.059199
3656	-0.142121
3652	-0.025010
3648	0.163841
3644	0.197052
3640	0.097918
3636	0.060725
3632	0.116157
3628	0.158095
3624	0.153279
3620	0.096845
3616	-0.002384
3612	-0.072622
3608	-0.065875
3604	-0.040078
3600	-0.082325
3596	-0.088882
3592	0.063228
3588	0.228357
3584	0.273966
3580	0.267791
3576	0.190496
3572	0.039219
3568	-0.032162
3564	-0.007295
3560	-0.022697
3556	-0.055766
3552	0.011396
3548	0.069355
3544	0.073957
3540	0.103259
3536	0.155615
3532	0.199341
3528	0.132775
3524	-0.066709
3520	-0.206589
3516	-0.135803
3512	-0.039196
3508	-0.027799
3504	-0.011134
3500	0.017309
3496	0.101757
3492	0.187373
3488	0.182223
3484	0.120162
3480	0.047922
3476	0.097513
3472	0.269913
3468	0.334167
3464	0.262522
3460	0.231981
3456	0.242114
3452	0.237560
3448	0.182628
3444	0.069689
3440	-0.030398
3436	-0.096988
3432	-0.046467
3428	0.052189
3424	0.061774
3420	0.089287
3416	0.117683
3412	0.075078
3408	0.074100
3404	0.165915
3400	0.241661
3396	0.207161
3392	0.107955
3388	0.030493
3384	0.022006
3380	0.084161
3376	0.137639
3372	0.156879
3368	0.162506
3364	0.117993
3360	0.018835
3356	-0.062704
3352	0.001502
3348	0.098323
3344	0.073957
3340	0.066232
3336	0.107860
3332	0.140738
3328	0.173497
3324	0.122618
3320	-0.009632
3316	-0.064063
3312	-0.051283
3308	-0.067639
3304	-0.046849
3300	0.016617
3296	0.069594
3292	0.098443
3288	0.067591
3284	0.008034
3280	-0.015354
3276	-0.016283
3272	-0.018191
3268	0.008630
3264	0.033807
3260	0.040888
3256	0.074911
3252	0.073146
3248	0.024056
3244	0.047850
3240	0.116491
3236	0.119042
3232	0.091934
3228	0.051832
3224	0.009727
3220	0.011706
3216	0.039291
3212	0.041532
3208	0.103044
3204	0.304746
3200	0.304269
3196	0.029134
3192	-0.059938
3188	0.099682
3184	0.183725
3180	0.066137
3176	-0.051689
3172	-0.023508
3168	0.016498
3164	-0.022244
3160	-0.064158
3156	-0.033688
3152	0.001072
3148	-0.017285
3144	0.062870
3140	0.238466
3136	0.206804
3132	-0.004959
3128	-0.022315
3124	0.117063
3120	0.100684
3116	0.001740
3112	-0.010633
3108	-0.001907
3104	0.036835
3100	0.107741
3096	0.112748
3092	0.093269
3088	0.116395
3084	0.159525
3080	0.165724
3076	0.091099
3072	0.017714
3068	0.048875
3064	0.084280
3060	0.011944
3056	-0.060081
3052	-0.072336
3048	-0.070905
3044	-0.025248
3040	0.036811
3036	0.056982
3032	0.052905
3028	0.046777
3024	0.066876
3020	0.087118
3016	0.094246
3012	0.059580
3008	-0.011229
3004	0.024080
3000	0.113224
2996	0.096988
2992	0.059127
2988	0.107955
2984	0.114512
2980	0.036025
2976	0.003266
2972	0.046443
2968	0.107264
2964	0.081777
2960	-0.049495
2956	-0.132608
2952	-0.076389
2948	0.025296
2944	0.076842
2940	0.059413
2936	0.025153
2932	0.055837
2928	0.083518
2924	0.010561
2920	-0.043129
2916	0.016093
2912	0.079894
2908	0.139164
2904	0.221753
2900	0.251531
2896	0.187611
2892	0.063252
2888	-0.016498
2884	-0.031065
2880	-0.039601
2876	-0.014638
2872	0.084447
2868	0.215578
2864	0.277566
2860	0.256919
2856	0.157475
2852	0.063729
2848	0.050902
2844	0.008440
2840	0.017738
2836	0.145077
2832	0.210762
2828	0.198674
2824	0.153112
2820	0.063443
2816	-0.016140
2812	-0.023627
2808	0.048041
2804	0.096559
2800	0.083160
2796	0.072884
2792	0.067710
2788	0.080871
2784	0.104618
2780	0.074934
2776	0.010871
2772	-0.020527
2768	0.005340
2764	0.077033
2760	0.155997
2756	0.155425
2752	0.063872
2748	-0.019145
2744	-0.026655
2740	0.038838
2736	0.068688
2732	0.000929
2728	-0.055480
2724	-0.062441
2720	-0.069594
2716	-0.038194
2712	0.021553
2708	0.010085
2704	-0.014996
2700	0.033807
2696	0.089788
2692	0.068092
2688	-0.012755
2684	-0.063347
2680	-0.051927
2676	0.000262
2672	0.039362
2668	0.052571
2664	0.102424
2660	0.127625
2656	0.076842
2652	-0.019979
2648	-0.044488
2644	0.049090
2640	0.075817
2636	0.061345
2632	0.102663
2628	0.125384
2624	0.121450
2620	0.093626
2616	0.056195
2612	0.049424
2608	0.012445
2604	-0.018763
2600	0.030422
2596	0.076937
2592	0.095915
2588	0.118374
2584	0.132846
2580	0.135350
2576	0.119113
2572	0.082159
2568	0.054621
2564	0.057792
2560	0.058245
2556	0.013637
2552	-0.021314
2548	-0.028681
2544	-0.054574
2540	-0.061106
2536	-0.024724
2532	0.021815
2528	0.061392
2524	0.046825
2520	0.027370
2516	0.053668
2512	0.001382
2508	-0.071525
2504	-0.001549
2500	0.114488
2496	0.094151
2492	0.002384
2488	-0.004577
2484	0.027608
2480	0.044536
2476	0.083279
2472	0.084996
2468	0.014925
2464	-0.032186
2460	-0.029468
2456	-0.004243
2452	0.015926
2448	0.020837
2444	0.067329
2440	0.119590
2436	0.101327
2432	0.147199
2428	0.303864
2424	0.373291
2420	0.414395
2416	0.406599
2412	0.231385
2408	0.097799
2404	0.048661
2400	0.028610
2396	0.043487
2392	0.008463
2388	-0.014233
2384	0.015068
2380	0.037097
2376	0.064253
2372	0.053691
2368	0.003743
2364	0.025773
2360	0.112557
2356	0.148725
2352	0.155138
2348	0.142168
2344	0.065135
2340	0.050282
2336	0.124692
2332	0.166559
2328	0.168800
2324	0.165295
2320	0.159454
2316	0.159859
2312	0.175619
2308	0.211048
2304	0.265288
2300	0.296115
2296	0.299882
2292	0.315761
2288	0.322222
2284	0.347661
2280	0.426030
2276	0.523376
2272	0.610208
2268	0.702452
2264	0.814032
2260	0.870728
2256	0.877428
2252	0.930285
2248	1.012277
2244	1.098370
2240	1.238918
2236	1.408004
2232	1.529431
2228	1.596784
2224	1.739954
2220	1.996731
2216	2.166056
2212	2.234673
2208	2.384018
2204	2.591061
2200	2.794599
2196	3.020668
2192	3.200340
2188	3.433156
2184	3.794741
2180	4.077005
2176	4.301738
2172	4.633665
2168	5.032825
2164	5.363917
2160	5.605411
2156	5.894827
2152	6.284379
2148	6.711840
2144	7.092404
2140	7.404303
2136	7.777929
2132	8.247351
2128	8.666682
2124	8.989930
2120	9.370183
2116	9.875297
2112	10.3493
2108	10.7382
2104	11.0926
2100	11.4619
2096	11.8807
2092	12.2996
2088	12.782
2084	13.2905
2080	13.6948
2076	14.0261
2072	14.3572
2068	14.7741
2064	15.231
2060	15.644
2056	16.0691
2052	16.4987
2048	16.8879
2044	17.3386
2040	17.8641
2036	18.3421
2032	18.7059
2028	18.9521
2024	19.2221
2020	19.6146
2016	19.9958
2012	20.3027
2008	20.6287
2004	20.9828
2000	21.3145
1996	21.6606
1992	22.0269
1988	22.3287
1984	22.5622
1980	22.8003
1976	23.0507
1972	23.304
1968	23.5696
1964	23.8125
1960	24.0789
1956	24.3885
1952	24.6604
1948	24.8998
1944	25.1081
1940	25.277
1936	25.4481
1932	25.6802
1928	25.9256
1924	26.1058
1920	26.2678
1916	26.4136
1912	26.5587
1908	26.8045
1904	27.0778
1900	27.2638
1896	27.4224
1892	27.5548
1888	27.6656
1884	27.8113
1880	27.9467
1876	27.9985
1872	28.0424
1868	28.1793
1864	28.3287
1860	28.4722
1856	28.6663
1852	28.8633
1848	29.0157
1844	29.1313
1840	29.1999
1836	29.2365
1832	29.2758
1828	29.3193
1824	29.3805
1820	29.462
1816	29.5582
1812	29.6369
1808	29.7085
1804	29.8184
1800	29.94
1796	30.0586
1792	30.1802
1788	30.2595
1784	30.3005
1780	30.3367
1776	30.3464
1772	30.3629
1768	30.4379
1764	30.4759
1760	30.479
1756	30.6218
1752	30.8136
1748	30.8872
1744	30.9282
1740	30.9881
1736	30.9798
1732	30.9483
1728	30.9653
1724	30.9854
1720	30.9996
1716	31.033
1712	31.1022
1708	31.1208
1704	31.1166
1700	31.2567
1696	31.4451
1692	31.5084
1688	31.5129
1684	31.5417
1680	31.5307
1676	31.438
1672	31.3239
1668	31.2967
1664	31.377
1660	31.4767
1656	31.586
1652	31.6949
1648	31.7736
1644	31.8281
1640	31.8363
1636	31.8375
1632	31.8483
1628	31.8191
1624	31.7799
1620	31.7517
1616	31.7069
1612	31.6551
1608	31.6969
1604	31.8552
1600	31.9579
1596	31.9799
1592	32.017
1588	32.0309
1584	32.0464
1580	32.0768
1576	32.0337
1572	31.9996
1568	32.0596
1564	32.0834
1560	31.9979
1556	31.9473
1552	32.0336
1548	32.166
1544	32.2576
1540	32.3367
1536	32.3875
1532	32.3701
1528	32.3227
1524	32.2662
1520	32.2037
1516	32.1425
1512	32.0858
1508	32.0555
1504	32.0631
1500	32.0888
1496	32.1027
1492	32.136
1488	32.2259
1484	32.3162
1480	32.34
1476	32.2797
1472	32.2171
1468	32.184
1464	32.1206
1460	32.0676
1456	31.9865
1452	31.9095
1448	32.0375
1444	32.2214
1440	32.2632
1436	32.3244
1432	32.4915
1428	32.5645
1424	32.4898
1420	32.3866
1416	32.3093
1412	32.2248
1408	32.1181
1404	32.1014
1400	32.0981
1396	31.9862
1392	31.9579
1388	32.0964
1384	32.2461
1380	32.352
1376	32.4477
1372	32.4483
1368	32.2752
1364	32.0783
1360	32.0156
1356	31.9776
1352	31.8674
1348	31.7978
1344	31.8204
1340	31.8869
1336	31.9954
1332	32.0977
1328	32.1522
1324	32.2025
1320	32.2706
1316	32.3137
1312	32.2437
1308	32.1044
1304	31.9634
1300	31.7943
1296	31.6824
1292	31.6919
1288	31.7299
1284	31.7531
1280	31.8293
1276	31.9422
1272	32.0249
1268	32.0417
1264	31.9601
1260	31.859
1256	31.797
1252	31.7181
1248	31.6172
1244	31.4859
1240	31.3647
1236	31.3888
1232	31.5192
1228	31.5789
1224	31.5913
1220	31.6958
1216	31.8039
1212	31.7531
1208	31.6121
1204	31.4993
1200	31.3953
1196	31.2643
1192	31.1448
1188	31.1019
1184	31.1389
1180	31.2126
1176	31.3066
1172	31.3997
1168	31.4573
1164	31.4864
1160	31.4356
1156	31.3125
1152	31.2005
1148	31.121
1144	30.9781
1140	30.7525
1136	30.6406
1132	30.6497
1128	30.651
1124	30.6547
1120	30.6879
1116	30.7693
1112	30.9072
1108	31.0383
1104	31.0934
1100	31.0807
1096	30.9454
1092	30.7292
1088	30.511
1084	30.1815
1080	29.9549
1076	30.0602
1072	30.1656
1068	30.1982
1064	30.3794
1060	30.5637
1056	30.5702
1052	30.5077
1048	30.4852
1044	30.3802
1040	30.1853
1036	30.0471
1032	29.9641
1028	29.9098
1024	29.8429
1020	29.7072
1016	29.7026
1012	29.8609
1008	29.9051
1004	29.879
1000	29.948
996	 29.9957
992	 29.8395
988	 29.5432
984	 29.3227
980	 29.1847
976	 29.0132
972	 28.9076
968	 28.9262
964	 28.9716
960	 29.0813
956	 29.1722
952	 29.164
948	 29.2289
944	 29.3411
940	 29.268
936	 29.0188
932	 28.7876
928	 28.6501
924	 28.5238
920	 28.3555
916	 28.212
912	 28.2055
908	 28.3607
904	 28.5404
900	 28.5722
896	 28.4944
892	 28.47
888	 28.4919
884	 28.4484
880	 28.2158
876	 27.853
872	 27.6439
868	 27.6053
864	 27.6088
860	 27.6638
856	 27.6933
852	 27.7303
848	 27.8371
844	 27.8939
840	 27.9564
836	 27.9825
832	 27.8094
828	 27.5819
824	 27.3947
820	 27.1427
816	 26.8313
812	 26.5099
808	 26.2889
804	 26.3431
800	 26.5569
796	 26.7265
792	 26.8377
788	 26.8326
784	 26.7626
780	 26.7475
776	 26.6581
772	 26.4575
768	 26.1943
764	 25.9248
760	 25.8969
756	 26.0551
752	 26.1801
748	 26.1871
744	 26.0625
740	 25.8281
736	 25.687
732	 25.8413
728	 25.882
724	 25.7453
720	 25.7791
716	 25.6696
712	 25.2486
708	 24.8899
704	 24.8487
700	 24.9586
696	 24.9578
692	 24.9135
688	 24.9995
684	 25.1775
680	 25.1892
676	 25.0102
672	 24.82
668	 24.6688
664	 24.568
660	 24.3442
656	 23.9424
652	 23.7214
648	 23.7914
644	 23.8388
640	 23.8107
636	 23.887
632	 23.9766
628	 24.1241
624	 24.2444
620	 24.0665
616	 23.795
612	 23.5093
608	 23.2355
604	 23.234
600	 23.2466
596	 22.9422
592	 22.71
588	 22.7195
584	 22.5954
580	 22.4522
576	 22.6901
572	 23.1393
568	 23.2939
564	 23.1997
560	 22.9831
556	 22.4777
552	 22.135
548	 22.0269
544	 21.7593
540	 21.6388
536	 21.6152
532	 21.3986
528	 21.3853
524	 21.6753
520	 21.8502
516	 21.9534
512	 21.8247
508	 21.3424
504	 21.0037
500	 21.022
496	 21.2228
492	 20.9285
488	 20.0374
484	 19.4902
480	 19.7386
476	 20.0797
472	 19.9431
468	 19.7723
464	 19.8993
460	 20.0359
456	 19.8113
452	 19.6353
448	 19.7014
444	 19.6218
440	 19.7016
436	 19.8692
432	 19.0342
428	 17.258
424	 16.4201
420	 17.439
416	 19.1788
412	 20.1192
408	 18.6224
404	 14.414
400	 12.2471
396	 16.0754
392	 23.4731
388	 27.4562
384	 17.0161
380	 -5.464053
376	 -19.0875
372	 4.783439
370	 29.543