File: Bakgrunnsmateriale/MATLAB/FTIR/ftir_data/LPE453/Mapping_121/LPE453_t95.asc
PE IR       SPECTRUM    SPECTRUM    ASCII       PEDS        1.60
  -1
LPD7BD~1.ASC
17/05/16
22:11:16.00
17/05/16
22:11:43.00
tln
$LPE453_t0095$<tbV0>[-2.6,7.8,8.0,0.0,27,1,0]
27.028
64

2002,4.07
MIRTGS : RIGHTBACK : INTERNAL 2
MIR : ON : INTERNAL 2
OPTKBR

0.200000
8
8.000000
FILLER
RATIO
SPECTRUM
UNLOCKED 256

DOUBLE
64
COMBINED
1
0
0

0.002000
RATIO

1
0
TRUE
51149
0
LEFT NOT FITTED RIGHT NOT FITTED 0
NONE
NONE
15600
12
4.427000
51148
TRUE
1 0 8 72 0 0 0 0

15798

#HDR
-1
-1
#GR
µM
%T
2.38419e-05
0.0
2.000000
0.002000
12515
8
37.5832
-2.082308
#DATA
2.000000	 -0.306487
2.018000	 0.245977
2.036000	 -0.070127
2.054000	 0.266935
2.072000	 0.561148
2.090000	 0.234988
2.108000	 0.816639
2.126000	 -0.863364
2.144000	 0.411165
2.162000	 0.921104
2.180000	 0.469074
2.198000	 -1.278689
2.216000	 -2.082308
2.234000	 -1.643684
2.252000	 -0.753591
2.270000	 0.433834
2.288000	 0.708190
2.306000	 0.349314
2.324000	 -0.069830
2.342000	 0.195647
2.360000	 -0.030372
2.378000	 0.204916
2.396000	 0.548723
2.414000	 -0.255320
2.432000	 0.204553
2.450000	 0.001602
2.468000	 0.248445
2.486000	 0.135038
2.504000	 0.238178
2.522000	 0.197882
2.540000	 0.094614
2.558000	 0.101531
2.576000	 -0.023979
2.594000	 0.041671
2.612000	 0.232258
2.630000	 0.008968
2.648000	 0.251206
2.666000	 0.053742
2.684000	 0.240744
2.702000	 0.044532
2.720000	 -0.015911
2.738000	 -0.041211
2.756000	 0.076849
2.774000	 -0.000371
2.792000	 -0.072875
2.810000	 -0.064945
2.828000	 0.218294
2.846000	 0.103437
2.864000	 0.077956
2.882000	 0.061835
2.900000	 0.048330
2.918000	 -0.009464
2.936000	 0.143544
2.954000	 -0.032575
2.972000	 0.094823
2.990000	 0.104866
3.008000	 -0.074694
3.026000	 0.113356
3.044000	 -0.012858
3.062000	 0.230862
3.080000	 0.041178
3.098000	 0.161710
3.116000	 -0.014201
3.134000	 -0.028885
3.152000	 -0.068632
3.170000	 0.038526
3.188000	 -0.181679
3.206000	 -0.002453
3.224000	 -0.021299
3.242000	 0.049624
3.260000	 0.187449
3.278000	 0.104901
3.296000	 0.030319
3.314000	 0.145053
3.332000	 0.038333
3.350000	 0.053998
3.368000	 0.203810
3.386000	 0.061198
3.404000	 0.122419
3.422000	 0.089859
3.440000	 0.164465
3.458000	 0.069022
3.476000	 0.121959
3.494000	 0.108470
3.512000	 0.052387
3.530000	 -0.099510
3.548000	 -0.017883
3.566000	 -0.027590
3.584000	 -0.075896
3.602000	 0.048730
3.620000	 0.028193
3.638000	 0.127674
3.656000	 0.025699
3.674000	 0.005461
3.692000	 0.012249
3.710000	 -0.043569
3.728000	 0.068730
3.746000	 0.012321
3.764000	 -0.053983
3.782000	 0.071113
3.800000	 0.067007
3.818000	 -0.112065
3.836000	 0.039564
3.854000	 0.133507
3.872000	 0.028066
3.890000	 0.037084
3.908000	 -0.038339
3.926000	 0.030160
3.944000	 -0.002860
3.962000	 0.092391
3.980000	 0.013599
3.998000	 -0.083796
4.016000	 -0.056293
4.034000	 0.022188
4.052000	 -0.075959
4.070000	 -0.009565
4.088000	 -0.054261
4.106000	 -0.179829
4.124000	 -0.046335
4.141999	 0.092941
4.160000	 0.040432
4.178000	 0.043181
4.196000	 0.160003
4.214000	 0.195607
4.232000	 0.160816
4.250000	 0.232559
4.268000	 0.286412
4.286000	 0.402845
4.304000	 0.389448
4.322000	 0.678393
4.340000	 0.609735
4.358000	 0.964029
4.375999	 1.268953
4.394000	 1.452018
4.412000	 1.828533
4.430000	 2.126297
4.448000	 2.484811
4.466000	 3.087228
4.484000	 3.586569
4.502000	 4.136906
4.520000	 4.736452
4.538000	 5.533529
4.556000	 6.275349
4.574000	 7.023581
4.592000	 8.015735
4.609999	 9.030371
4.628000	 10.0386
4.646000	 11.1491
4.664000	 12.1436
4.682000	 13.1929
4.700000	 14.3197
4.718000	 15.4549
4.736000	 16.4364
4.754000	 17.5858
4.772000	 18.6462
4.790000	 19.6666
4.808000	 20.6294
4.826000	 21.5778
4.843999	 22.527
4.862000	 23.3771
4.880000	 24.3758
4.898000	 25.186
4.916000	 26.0133
4.934000	 26.7734
4.952000	 27.4154
4.970000	 27.9675
4.988000	 28.538
5.006000	 29.1955
5.024000	 29.7806
5.042000	 30.396
5.060000	 30.9286
5.077999	 31.2995
5.096000	 31.5792
5.114000	 31.8551
5.132000	 32.2307
5.150000	 32.7241
5.168000	 33.1106
5.186000	 33.4777
5.204000	 33.8295
5.222000	 34.01
5.240000	 34.1032
5.258000	 34.2493
5.276000	 34.4273
5.294000	 34.5921
5.312000	 34.8863
5.330000	 35.1907
5.348000	 35.4778
5.366000	 35.6475
5.384000	 35.7499
5.402000	 35.8176
5.420000	 35.7862
5.438000	 35.8179
5.456000	 35.8083
5.474000	 35.9037
5.492000	 36.269
5.510000	 36.469
5.528000	 36.639
5.546000	 36.6609
5.564000	 36.6058
5.582000	 36.5774
5.600000	 36.5202
5.618000	 36.4721
5.636000	 36.4737
5.654000	 36.5478
5.672000	 36.7132
5.690000	 36.9013
5.708000	 37.0967
5.726000	 37.1473
5.744000	 37.096
5.762000	 36.9846
5.780000	 36.9622
5.798000	 36.9526
5.816000	 36.9057
5.834000	 36.9664
5.852000	 36.9447
5.870000	 36.971
5.888000	 37.0927
5.906000	 37.3003
5.923999	 37.4236
5.942000	 37.3893
5.960000	 37.2813
5.978000	 37.1067
5.996000	 37.0176
6.014000	 36.9681
6.032000	 36.9
6.050000	 36.9078
6.068000	 36.9902
6.086000	 37.1276
6.104000	 37.2993
6.122000	 37.4134
6.140000	 37.5199
6.158000	 37.5557
6.176000	 37.4724
6.194000	 37.3307
6.212000	 37.1608
6.230000	 37.0184
6.248000	 36.9151
6.266000	 36.8254
6.284000	 36.8581
6.302000	 37.0421
6.320000	 37.1917
6.338000	 37.2473
6.356000	 37.2974
6.374000	 37.3902
6.392000	 37.4488
6.410000	 37.4055
6.428000	 37.2949
6.446000	 37.197
6.464000	 37.0799
6.482000	 36.8956
6.500000	 36.7198
6.518000	 36.6985
6.536000	 36.8688
6.554000	 37.0738
6.572000	 37.2449
6.590000	 37.4497
6.608000	 37.5795
6.626000	 37.5414
6.644000	 37.4797
6.662000	 37.4492
6.680000	 37.2963
6.698000	 37.0568
6.716000	 36.9287
6.734000	 36.8788
6.752000	 36.843
6.770000	 36.795
6.788000	 36.7775
6.806000	 36.8464
6.824000	 36.9123
6.842000	 36.9449
6.860000	 37.0116
6.878000	 37.1535
6.896000	 37.3503
6.914000	 37.4294
6.932000	 37.3649
6.950000	 37.2605
6.968000	 37.1157
6.986000	 36.9737
7.004000	 36.8381
7.022000	 36.6892
7.040000	 36.6067
7.058000	 36.599
7.076000	 36.6111
7.094000	 36.6395
7.112000	 36.7042
7.130000	 36.8273
7.148000	 37.0044
7.166000	 37.1741
7.184000	 37.2577
7.202000	 37.2576
7.220000	 37.2626
7.238000	 37.2786
7.256000	 37.2049
7.274000	 37.0266
7.292000	 36.8367
7.310000	 36.6716
7.328000	 36.5114
7.346000	 36.3949
7.364000	 36.3571
7.382000	 36.3505
7.400000	 36.353
7.418000	 36.4132
7.436000	 36.5534
7.454000	 36.7353
7.472000	 36.9026
7.490000	 37.0309
7.508000	 37.1369
7.526000	 37.2185
7.544000	 37.2474
7.562000	 37.2329
7.580000	 37.1926
7.598000	 37.1033
7.616000	 36.958
7.634000	 36.792
7.652000	 36.6277
7.670000	 36.4731
7.688000	 36.3393
7.706000	 36.2198
7.724000	 36.1249
7.742000	 36.1126
7.760000	 36.2063
7.778000	 36.3422
7.796000	 36.463
7.814000	 36.5801
7.832000	 36.7092
7.850000	 36.8223
7.868000	 36.8939
7.886000	 36.9345
7.904000	 36.9601
7.922000	 36.9739
7.940000	 36.9735
7.958000	 36.9385
7.976000	 36.8363
7.994000	 36.6698
8.012000	 36.4833
8.030000	 36.3092
8.048000	 36.157
8.065999	 36.0445
8.084000	 35.9879
8.102000	 35.9736
8.120000	 35.9791
8.138000	 35.9973
8.155999	 36.0243
8.173999	 36.0608
8.192000	 36.1286
8.210000	 36.2424
8.228000	 36.377
8.246000	 36.4981
8.263999	 36.6021
8.282000	 36.698
8.300000	 36.7714
8.318000	 36.7981
8.336000	 36.775
8.353999	 36.7188
8.372000	 36.6436
8.390000	 36.5489
8.408000	 36.426
8.426000	 36.274
8.443999	 36.1122
8.462000	 35.9703
8.480000	 35.8613
8.498000	 35.781
8.516000	 35.7296
8.533999	 35.7128
8.552000	 35.7195
8.570000	 35.726
8.588000	 35.7361
8.606000	 35.789
8.624000	 35.9099
8.641999	 36.0698
8.660000	 36.2128
8.678000	 36.3131
8.696000	 36.383
8.714000	 36.4388
8.731999	 36.4837
8.750000	 36.5183
8.768000	 36.546
8.786000	 36.5578
8.804000	 36.529
8.821999	 36.4399
8.840000	 36.296
8.858000	 36.128
8.876000	 35.9685
8.894000	 35.8327
8.911999	 35.7128
8.930000	 35.5974
8.948000	 35.4939
8.966000	 35.4322
8.984000	 35.4356
9.001999	 35.4901
9.020000	 35.5508
9.038000	 35.5795
9.056000	 35.5771
9.074000	 35.5735
9.092000	 35.5948
9.109999	 35.6437
9.128000	 35.7072
9.146000	 35.7732
9.164000	 35.8373
9.182000	 35.9031
9.199999	 35.9761
9.218000	 36.0554
9.236000	 36.1272
9.254000	 36.1715
9.272000	 36.1785
9.289999	 36.1578
9.308000	 36.1255
9.326000	 36.084
9.344000	 36.0182
9.362000	 35.9136
9.379999	 35.7723
9.398000	 35.6112
9.416000	 35.4483
9.434000	 35.2959
9.452000	 35.1655
9.469999	 35.0711
9.488000	 35.0208
9.506000	 35.0061
9.524000	 35.0041
9.542000	 34.9942
9.560000	 34.9752
9.577999	 34.9665
9.596000	 34.9925
9.614000	 35.0652
9.632000	 35.1759
9.650000	 35.2999
9.667999	 35.4101
9.686000	 35.4921
9.704000	 35.5483
9.722000	 35.5901
9.740000	 35.6246
9.757999	 35.6544
9.776000	 35.6836
9.794000	 35.7214
9.812000	 35.7746
9.830000	 35.8371
9.847999	 35.8885
9.866000	 35.9041
9.884000	 35.8703
9.902000	 35.79
9.920000	 35.6774
9.937999	 35.5485
9.956000	 35.4138
9.974000	 35.2783
9.992000	 35.1427
10.01	35.0071
10.028	34.8727
10.046	34.745
10.064	34.633
10.082	34.5461
10.1	34.4909
10.118	34.4684
10.136	34.475
10.154	34.5038
10.172	34.5471
10.19	34.5971
10.208	34.6484
10.226	34.6998
10.244	34.7554
10.262	34.8202
10.28	34.8958
10.298	34.9776
10.316	35.0563
10.334	35.1247
10.352	35.1827
10.37	35.2374
10.388	35.2979
10.406	35.3668
10.424	35.4373
10.442	35.4945
10.46	35.5231
10.478	35.5134
10.496	35.4666
10.514	35.3938
10.532	35.3104
10.55	35.2276
10.568	35.1476
10.586	35.0638
10.604	34.9666
10.622	34.8505
10.64	34.7193
10.658	34.5844
10.676	34.4589
10.694	34.3503
10.712	34.2584
10.73	34.1773
10.748	34.1019
10.766	34.0315
10.784	33.9697
10.802	33.9222
10.82	33.8925
10.838	33.8814
10.856	33.887
10.874	33.9079
10.892	33.9439
10.91	33.995
10.928	34.06
10.946	34.135
10.964	34.2141
10.982	34.2918
11	34.3656
11.018	34.4359
11.036	34.5046
11.054	34.5713
11.072	34.6319
11.09	34.679
11.108	34.7059
11.126	34.7102
11.144	34.6966
11.162	34.6759
11.18	34.6604
11.198	34.66
11.216	34.6771
11.234	34.7061
11.252	34.7339
11.27	34.7452
11.288	34.7251
11.306	34.6656
11.324	34.567
11.342	34.4385
11.36	34.2951
11.378	34.1538
11.396	34.0269
11.414	33.9202
11.432	33.831
11.45	33.7516
11.468	33.6723
11.486	33.5867
11.504	33.494
11.522	33.399
11.54	33.3104
11.558	33.2368
11.576	33.1843
11.594	33.1542
11.612	33.144
11.63	33.1487
11.648	33.1636
11.666	33.1854
11.684	33.2133
11.702	33.2483
11.72	33.2906
11.738	33.339
11.756	33.391
11.774	33.4435
11.792	33.4949
11.81	33.5465
11.828	33.6019
11.846	33.6647
11.864	33.7362
11.882	33.8129
11.9	33.8868
11.918	33.9478
11.936	33.987
11.954	34.0012
11.972	33.9932
11.99	33.9709
12.008	33.9438
12.026	33.918
12.044	33.8954
12.062	33.8723
12.08	33.8421
12.098	33.7992
12.116	33.7414
12.134	33.6721
12.152	33.5978
12.17	33.5251
12.188	33.4581
12.206	33.3961
12.224	33.3348
12.242	33.2685
12.26	33.193
12.278	33.1065
12.296	33.0103
12.314	32.9074
12.332	32.802
12.35	32.6987
12.368	32.6029
12.386	32.5197
12.404	32.4535
12.422	32.4069
12.44	32.3801
12.458	32.3709
12.476	32.3752
12.494	32.3884
12.512	32.4066
12.53	32.4274
12.548	32.4501
12.566	32.4756
12.584	32.5049
12.602	32.5384
12.62	32.5755
12.638	32.6141
12.656	32.6517
12.674	32.6861
12.692	32.7161
12.71	32.7417
12.728	32.7638
12.746	32.7839
12.764	32.8032
12.782	32.8227
12.8	32.8425
12.818	32.862
12.836	32.8802
12.854	32.8959
12.872	32.9085
12.89	32.9178
12.908	32.9247
12.926	32.9303
12.944	32.9361
12.962	32.9436
12.98	32.9542
12.998	32.9677
13.016	32.983
13.034	32.9978
13.052	33.0087
13.07	33.0117
13.088	33.0032
13.106	32.9801
13.124	32.9414
13.142	32.8871
13.16	32.8192
13.178	32.7405
13.196	32.6546
13.214	32.565
13.232	32.4747
13.25	32.3862
13.268	32.3014
13.286	32.2216
13.304	32.1473
13.322	32.0787
13.34	32.0155
13.358	31.957
13.376	31.9015
13.394	31.8471
13.412	31.7916
13.43	31.7329
13.448	31.6694
13.466	31.6005
13.484	31.5272
13.502	31.4517
13.52	31.3772
13.538	31.3078
13.556	31.2477
13.574	31.2003
13.592	31.168
13.61	31.1517
13.628	31.151
13.646	31.164
13.664	31.1884
13.682	31.2212
13.7	31.2602
13.718	31.3034
13.736	31.3502
13.754	31.4001
13.772	31.4536
13.79	31.5108
13.808	31.5717
13.826	31.6355
13.844	31.7009
13.862	31.7662
13.88	31.8292
13.898	31.888
13.916	31.9406
13.934	31.986
13.952	32.0233
13.97	32.0526
13.988	32.074
14.006	32.0886
14.024	32.0973
14.042	32.1016
14.06	32.1025
14.078	32.1014
14.096	32.0988
14.114	32.0953
14.132	32.0908
14.15	32.0845
14.168	32.0751
14.186	32.061
14.204	32.0404
14.222	32.0115
14.24	31.9736
14.258	31.9263
14.276	31.8705
14.294	31.8075
14.312	31.7393
14.33	31.6684
14.348	31.5968
14.366	31.5262
14.384	31.4574
14.402	31.3905
14.42	31.3247
14.438	31.259
14.456	31.192
14.474	31.1228
14.492	31.0509
14.51	30.9763
14.528	30.8999
14.546	30.8228
14.564	30.7462
14.582	30.6713
14.6	30.599
14.618	30.53
14.636	30.4642
14.654	30.4018
14.672	30.3426
14.69	30.2868
14.708	30.2349
14.726	30.187
14.744	30.1438
14.762	30.1059
14.78	30.0736
14.798	30.0469
14.816	30.0258
14.834	30.0099
14.852	29.9982
14.87	29.9904
14.888	29.9857
14.906	29.9837
14.924	29.9842
14.942	29.9873
14.96	29.9933
14.978	30.0028
14.996	30.016
15.014	30.0334
15.032	30.0549
15.05	30.0802
15.068	30.1089
15.086	30.1401
15.104	30.173
15.122	30.2068
15.14	30.2408
15.158	30.2748
15.176	30.3088
15.194	30.3428
15.212	30.3774
15.23	30.413
15.248	30.4502
15.266	30.489
15.284	30.5297
15.302	30.5715
15.32	30.6138
15.338	30.6557
15.356	30.6959
15.374	30.733
15.392	30.766
15.41	30.794
15.428	30.8163
15.446	30.8326
15.464	30.8429
15.482	30.8475
15.5	30.8466
15.518	30.8405
15.536	30.8291
15.554	30.8122
15.572	30.7897
15.59	30.7612
15.608	30.7266
15.626	30.6861
15.644	30.6397
15.662	30.5883
15.68	30.5328
15.698	30.4744
15.716	30.4146
15.734	30.3551
15.752	30.2969
15.77	30.2409
15.788	30.1878
15.806	30.1374
15.824	30.0893
15.842	30.0427
15.86	29.9964
15.878	29.9491
15.896	29.8999
15.914	29.8475
15.932	29.7913
15.95	29.731
15.968	29.6665
15.986	29.5985
16.004	29.5276
16.022	29.4551
16.04	29.3823
16.058	29.3107
16.076	29.2416
16.094	29.1767
16.112	29.1176
16.13	29.0652
16.148	29.0207
16.166	28.9845
16.184	28.9565
16.202	28.9362
16.22	28.9223
16.238	28.9131
16.256	28.9072
16.274	28.9016
16.292	28.8943
16.31	28.8833
16.328	28.8664
16.346	28.843
16.364	28.8126
16.382	28.776
16.4	28.735
16.418	28.6911
16.436	28.6478
16.454	28.6084
16.472	28.575
16.49	28.5513
16.508	28.5387
16.526	28.5386
16.544	28.5512
16.562	28.5753
16.58	28.61
16.598	28.652
16.616	28.6988
16.634	28.7481
16.652	28.7962
16.67	28.8414
16.688	28.8818
16.706	28.916
16.724	28.9437
16.742	28.9649
16.76	28.9806
16.778	28.9913
16.796	28.9988
16.814	29.0044
16.832	29.0088
16.85	29.0142
16.868	29.0211
16.886	29.0304
16.904	29.0431
16.922	29.0597
16.94	29.0809
16.958	29.1072
16.976	29.1387
16.994	29.176
17.012	29.2187
17.03	29.2667
17.048	29.3191
17.066	29.3749
17.084	29.4328
17.102	29.49
17.12	29.5454
17.138	29.5954
17.156	29.6381
17.174	29.6715
17.192	29.6928
17.21	29.7013
17.228	29.6954
17.246	29.6752
17.264	29.6407
17.282	29.5934
17.3	29.5343
17.318	29.4659
17.336	29.3907
17.354	29.3104
17.372	29.2288
17.39	29.1471
17.408	29.0679
17.426	28.9928
17.444	28.9229
17.462	28.8594
17.48	28.8025
17.498	28.7525
17.516	28.709
17.534	28.6715
17.552	28.6392
17.57	28.6114
17.588	28.5865
17.606	28.5638
17.624	28.542
17.642	28.5195
17.66	28.4958
17.678	28.4689
17.696	28.4385
17.714	28.4032
17.732	28.3626
17.75	28.3163
17.768	28.2642
17.786	28.2064
17.804	28.1435
17.822	28.0759
17.84	28.0046
17.858	27.9303
17.876	27.8538
17.894	27.7761
17.912	27.6976
17.93	27.6192
17.948	27.5411
17.966	27.4642
17.984	27.3886
18.002	27.315
18.02	27.2439
18.038	27.1757
18.056	27.1117
18.074	27.0521
18.092	26.9989
18.11	26.9525
18.128	26.9152
18.146	26.8872
18.164	26.8704
18.182	26.8652
18.2	26.8725
18.218	26.8919
18.236	26.9238
18.254	26.9663
18.272	27.0195
18.29	27.0798
18.308	27.1469
18.326	27.2165
18.344	27.288
18.362	27.3569
18.38	27.4227
18.398	27.4818
18.416	27.5338
18.434	27.5768
18.452	27.611
18.47	27.6356
18.488	27.6518
18.506	27.6594
18.524	27.6607
18.542	27.6561
18.56	27.648
18.578	27.6369
18.596	27.6254
18.614	27.6137
18.632	27.6042
18.65	27.5968
18.668	27.593
18.686	27.5927
18.704	27.5965
18.722	27.6043
18.74	27.6158
18.758	27.631
18.776	27.6492
18.794	27.6702
18.812	27.6934
18.83	27.7184
18.848	27.7446
18.866	27.7717
18.884	27.7991
18.902	27.8266
18.92	27.8536
18.938	27.88
18.956	27.9051
18.974	27.9289
18.992	27.9509
19.01	27.971
19.028	27.9888
19.046	28.0039
19.064	28.0159
19.082	28.0247
19.1	28.0298
19.118	28.0311
19.136	28.0285
19.154	28.0218
19.172	28.0111
19.19	27.9964
19.208	27.9778
19.226	27.9556
19.244	27.9301
19.262	27.9015
19.28	27.8705
19.298	27.8372
19.316	27.8028
19.334	27.7671
19.352	27.7314
19.37	27.6954
19.388	27.6603
19.406	27.6261
19.424	27.5931
19.442	27.5612
19.46	27.5306
19.478	27.5014
19.496	27.4728
19.514	27.4449
19.532	27.4166
19.55	27.3877
19.568	27.3574
19.586	27.3246
19.604	27.2891
19.622	27.2497
19.64	27.2064
19.658	27.1582
19.676	27.1053
19.694	27.0474
19.712	26.9844
19.73	26.9174
19.748	26.8461
19.766	26.7721
19.784	26.6953
19.802	26.6176
19.82	26.5398
19.838	26.463
19.856	26.389
19.874	26.3182
19.892	26.2529
19.91	26.1928
19.928	26.14
19.946	26.0944
19.964	26.0568
19.982	26.0275
20	26.0062
20.018	25.9932
20.036	25.9876
20.054	25.9886
20.072	25.9961
20.09	26.0078
20.108	26.0239
20.126	26.0417
20.144	26.0612
20.162	26.0801
20.18	26.0974
20.198	26.1121
20.216	26.1223
20.234	26.1281
20.252	26.1277
20.27	26.1213
20.288	26.1079
20.306	26.0874
20.324	26.0601
20.342	26.0259
20.36	25.9853
20.378	25.9393
20.396	25.8877
20.414	25.8328
20.432	25.7742
20.45	25.714
20.468	25.6529
20.486	25.5918
20.504	25.5329
20.522	25.4758
20.54	25.4231
20.558	25.3745
20.576	25.3317
20.594	25.2955
20.612	25.266
20.63	25.2445
20.648	25.2306
20.666	25.225
20.684	25.2278
20.702	25.2385
20.72	25.2571
20.738	25.2833
20.756	25.3162
20.774	25.356
20.792	25.401
20.81	25.4511
20.828	25.5054
20.846	25.5624
20.864	25.6225
20.882	25.6833
20.9	25.7452
20.918	25.8069
20.936	25.8674
20.954	25.9268
20.972	25.9836
20.99	26.0381
21.008	26.0895
21.026	26.1374
21.044	26.1818
21.062	26.2224
21.08	26.259
21.098	26.2919
21.116	26.3209
21.134	26.3463
21.152	26.3683
21.17	26.3868
21.188	26.4023
21.206	26.4149
21.224	26.4248
21.242	26.4323
21.26	26.4372
21.278	26.4402
21.296	26.4414
21.314	26.4408
21.332	26.4389
21.35	26.4355
21.368	26.4311
21.386	26.4258
21.404	26.4196
21.422	26.4125
21.44	26.4045
21.458	26.3958
21.476	26.3864
21.494	26.3764
21.512	26.3655
21.53	26.3538
21.548	26.3411
21.566	26.3274
21.584	26.3127
21.602	26.2965
21.62	26.279
21.638	26.2599
21.656	26.2389
21.674	26.2161
21.692	26.1913
21.71	26.1643
21.728	26.1352
21.746	26.104
21.764	26.0707
21.782	26.0356
21.8	25.9988
21.818	25.9603
21.836	25.9207
21.854	25.8801
21.872	25.8386
21.89	25.7973
21.908	25.7556
21.926	25.7146
21.944	25.675
21.962	25.6365
21.98	25.6002
21.998	25.566
22.016	25.5341
22.034	25.5048
22.052	25.4783
22.07	25.4542
22.088	25.4327
22.106	25.4136
22.124	25.3964
22.142	25.381
22.16	25.3673
22.178	25.354
22.196	25.3416
22.214	25.3293
22.232	25.3159
22.25	25.3019
22.268	25.2866
22.286	25.2693
22.304	25.2503
22.322	25.2294
22.34	25.2061
22.358	25.1809
22.376	25.1545
22.394	25.1262
22.412	25.0971
22.43	25.0684
22.448	25.0394
22.466	25.0115
22.484	24.9858
22.502	24.9616
22.52	24.9404
22.538	24.9228
22.556	24.9084
22.574	24.8983
22.592	24.8926
22.61	24.8913
22.628	24.8945
22.646	24.9025
22.664	24.9147
22.682	24.9307
22.7	24.9508
22.718	24.9742
22.736	24.9996
22.754	25.0277
22.772	25.0573
22.79	25.0873
22.808	25.1184
22.826	25.1491
22.844	25.1785
22.862	25.2072
22.88	25.2341
22.898	25.2586
22.916	25.2811
22.934	25.3005
22.952	25.3165
22.97	25.3294
22.988	25.3389
23.006	25.3452
23.024	25.3482
23.042	25.3476
23.06	25.3436
23.078	25.336
23.096	25.3243
23.114	25.3088
23.132	25.2892
23.15	25.2644
23.168	25.2348
23.186	25.2
23.204	25.159
23.222	25.1121
23.24	25.0589
23.258	24.9984
23.276	24.9306
23.294	24.8555
23.312	24.7729
23.33	24.6825
23.348	24.5847
23.366	24.4798
23.384	24.3675
23.402	24.2484
23.42	24.1237
23.438	23.9928
23.456	23.8564
23.474	23.717
23.492	23.5743
23.51	23.4286
23.528	23.2833
23.546	23.1386
23.564	22.9941
23.582	22.8539
23.6	22.7191
23.618	22.5886
23.636	22.4658
23.654	22.3523
23.672	22.2464
23.69	22.1518
23.708	22.0709
23.726	22.0015
23.744	21.9468
23.762	21.9093
23.78	21.8873
23.798	21.8824
23.816	21.8968
23.834	21.9297
23.852	21.9812
23.87	22.0516
23.888	22.1415
23.906	22.2499
23.924	22.3755
23.942	22.5191
23.96	22.6799
23.978	22.8547
23.996	23.0433
24.014	23.2466
24.032	23.4592
24.05	23.6783
24.068	23.9071
24.086	24.1396
24.104	24.3707
24.122	24.6043
24.14	24.836
24.158	25.0591
24.176	25.2758
24.194	25.4849
24.212	25.6811
24.23	25.8635
24.248	26.0336
24.266	26.1879
24.284	26.3238
24.302	26.443
24.32	26.5454
24.338	26.6302
24.356	26.6963
24.374	26.7466
24.392	26.7846
24.41	26.8084
24.428	26.8194
24.446	26.8236
24.464	26.8227
24.482	26.8136
24.5	26.8038
24.518	26.7992
24.536	26.7954
24.554	26.796
24.572	26.8069
24.59	26.8272
24.608	26.8563
24.626	26.8972
24.644	26.9521
24.662	27.0197
24.68	27.0981
24.698	27.186
24.716	27.2863
24.734	27.3949
24.752	27.5061
24.77	27.6217
24.788	27.7418
24.806	27.858
24.824	27.9646
24.842	28.0677
24.86	28.1609
24.878	28.236
24.896	28.2959
24.914	28.3402
24.932	28.3624
24.95	28.3585
24.968	28.3319
24.986	28.2815
25.004	28.2058
25.022	28.1043
25.04	27.9783
25.058	27.8294
25.076	27.6572
25.094	27.4609
25.112	27.2443
25.13	27.0112
25.148	26.7588
25.166	26.4891
25.184	26.2071
25.202	25.9149
25.22	25.6094
25.238	25.2949
25.256	24.9756
25.274	24.6494
25.292	24.3172
25.31	23.9827
25.328	23.6482
25.346	23.3111
25.364	22.9737
25.382	22.6389
25.4	22.3059
25.418	21.9744
25.436	21.647
25.454	21.3253
25.472	21.0074
25.49	20.6949
25.508	20.3903
25.526	20.0941
25.544	19.805
25.562	19.5245
25.58	19.2541
25.598	18.9933
25.616	18.7419
25.634	18.5006
25.652	18.2697
25.67	18.049
25.688	17.8383
25.706	17.6376
25.724	17.4474
25.742	17.2674
25.76	17.0968
25.778	16.9349
25.796	16.7833
25.814	16.6405
25.832	16.5037
25.85	16.3716
25.868	16.2466
25.886	16.1259
25.904	16.0057
25.922	15.8856
25.94	15.7677
25.958	15.6484
25.976	15.5239
25.994	15.3957
26.012	15.2641
26.03	15.1263
26.048	14.9796
26.066	14.8257
26.084	14.6644
26.102	14.4944
26.12	14.3144
26.138	14.125
26.156	13.927
26.174	13.7213
26.192	13.5082
26.21	13.2871
26.228	13.0588
26.246	12.824
26.264	12.5815
26.282	12.3315
26.3	12.0769
26.318	11.8203
26.336	11.5593
26.354	11.2946
26.372	11.0309
26.39	10.7721
26.408	10.514
26.426	10.2586
26.444	10.0121
26.462	9.779046
26.48	9.554092
26.498	9.340245
26.516	9.143429
26.534	8.967813
26.552	8.808160
26.57	8.667467
26.588	8.550514
26.606	8.460425
26.624	8.393515
26.642	8.351266
26.66	8.335992
26.678	8.349422
26.696	8.390368
26.714	8.457863
26.732	8.551068
26.75	8.670599
26.768	8.818381
26.786	8.989893
26.804	9.180220
26.822	9.387960
26.84	9.617941
26.858	9.864262
26.876	10.1203
26.894	10.3836
26.912	10.6602
26.93	10.9443
26.948	11.2292
26.966	11.5234
26.984	11.8499
27.002	12.1609
27.02	12.4038
27.028	12.469