File: Bakgrunnsmateriale/MATLAB/FTIR/ftir_data/LPE453/Mapping_121/LPE453_t54.asc
PE IR       SPECTRUM    SPECTRUM    ASCII       PEDS        1.60
  -1
LPD7A9~1.ASC
17/05/16
18:47:47.00
17/05/16
18:48:13.00
tln
$LPE453_t0054$<tbV0>[-10.4,-2.6,8.0,0.0,27,1,0]
27.028
64

2002,4.07
MIRTGS : RIGHTBACK : INTERNAL 2
MIR : ON : INTERNAL 2
OPTKBR

0.200000
8
8.000000
FILLER
RATIO
SPECTRUM
UNLOCKED 256

DOUBLE
64
COMBINED
1
0
0

0.002000
RATIO

1
0
TRUE
51149
0
LEFT NOT FITTED RIGHT NOT FITTED 0
NONE
NONE
15600
12
4.427000
51148
TRUE
1 0 8 72 0 0 0 0

15798

#HDR
-1
-1
#GR
µM
%T
2.38419e-05
0.0
2.000000
0.002000
12515
8
32.3929
-39.9492
#DATA
2.000000	 0.153374
2.018000	 0.414521
2.036000	 0.311762
2.054000	 0.439584
2.072000	 -0.359466
2.090000	 -0.213199
2.108000	 0.331408
2.126000	 0.403344
2.144000	 0.392776
2.162000	 2.044897
2.180000	 0.055872
2.198000	 -0.719011
2.216000	 1.022927
2.234000	 -1.650099
2.252000	 -0.459015
2.270000	 -0.169206
2.288000	 0.404999
2.306000	 0.591625
2.324000	 0.164973
2.342000	 0.349423
2.360000	 0.135367
2.378000	 0.143602
2.396000	 0.878538
2.414000	 0.263781
2.432000	 -0.086866
2.450000	 0.192339
2.468000	 0.072886
2.486000	 -0.102799
2.504000	 0.031874
2.522000	 0.060721
2.540000	 0.133760
2.558000	 -0.108641
2.576000	 -0.018376
2.594000	 0.109301
2.612000	 0.107385
2.630000	 0.081525
2.648000	 0.090128
2.666000	 -0.087968
2.684000	 0.002832
2.702000	 -0.117105
2.720000	 0.035694
2.738000	 0.099822
2.756000	 0.161081
2.774000	 0.047873
2.792000	 -0.074592
2.810000	 0.015917
2.828000	 -0.003169
2.846000	 0.110081
2.864000	 0.271681
2.882000	 0.003195
2.900000	 -0.081464
2.918000	 0.005080
2.936000	 0.090327
2.954000	 -0.007197
2.972000	 0.161468
2.990000	 0.062516
3.008000	 0.122024
3.026000	 0.121204
3.044000	 0.049381
3.062000	 -0.240268
3.080000	 0.080623
3.098000	 0.071500
3.116000	 0.221032
3.134000	 0.010144
3.152000	 -0.027938
3.170000	 0.083042
3.188000	 -0.022766
3.206000	 0.064715
3.224000	 0.086601
3.242000	 0.004188
3.260000	 0.011463
3.278000	 -0.041843
3.296000	 -0.011122
3.314000	 0.099492
3.332000	 -0.043823
3.350000	 -0.011884
3.368000	 -0.097282
3.386000	 0.082257
3.404000	 0.209282
3.422000	 0.139602
3.440000	 0.057935
3.458000	 -0.069305
3.476000	 0.038550
3.494000	 -0.061980
3.512000	 0.157979
3.530000	 0.073099
3.548000	 0.030080
3.566000	 -0.022775
3.584000	 -0.014598
3.602000	 -0.055839
3.620000	 0.042873
3.638000	 -0.016202
3.656000	 0.015932
3.674000	 0.045187
3.692000	 0.105390
3.710000	 0.037401
3.728000	 0.003424
3.746000	 -0.027301
3.764000	 0.138569
3.782000	 0.016432
3.800000	 0.084227
3.818000	 -0.091471
3.836000	 0.099395
3.854000	 0.062000
3.872000	 0.033679
3.890000	 0.017983
3.908000	 0.115752
3.926000	 0.020233
3.944000	 0.087355
3.962000	 0.134400
3.980000	 0.114217
3.998000	 0.124511
4.016000	 0.141965
4.034000	 0.031771
4.052000	 0.092055
4.070000	 -0.042807
4.088000	 -0.009300
4.106000	 -0.012889
4.124000	 0.125053
4.141999	 0.007995
4.160000	 -0.229481
4.178000	 -0.069349
4.196000	 0.155627
4.214000	 -0.029381
4.232000	 0.054961
4.250000	 -0.044024
4.268000	 0.126802
4.286000	 0.166548
4.304000	 0.186925
4.322000	 0.169981
4.340000	 0.298053
4.358000	 0.399860
4.375999	 0.353412
4.394000	 0.532095
4.412000	 0.506544
4.430000	 0.689787
4.448000	 0.975775
4.466000	 1.234157
4.484000	 1.554655
4.502000	 1.982764
4.520000	 2.347452
4.538000	 2.679178
4.556000	 3.218383
4.574000	 3.807088
4.592000	 4.340410
4.609999	 5.161495
4.628000	 5.776461
4.646000	 6.507480
4.664000	 7.447743
4.682000	 8.261035
4.700000	 9.058383
4.718000	 10.0267
4.736000	 11.034
4.754000	 11.9577
4.772000	 12.868
4.790000	 13.7204
4.808000	 14.6883
4.826000	 15.5127
4.843999	 16.3568
4.862000	 17.1619
4.880000	 18.093
4.898000	 19.1242
4.916000	 19.8368
4.934000	 20.4929
4.952000	 21.2943
4.970000	 22.0954
4.988000	 22.8019
5.006000	 23.234
5.024000	 23.7871
5.042000	 24.2733
5.060000	 24.8216
5.077999	 25.473
5.096000	 25.9726
5.114000	 26.3813
5.132000	 26.7055
5.150000	 27.0452
5.168000	 27.4409
5.186000	 27.7274
5.204000	 28.0756
5.222000	 28.4308
5.240000	 28.8084
5.258000	 28.9312
5.276000	 29.0581
5.294000	 29.2076
5.312000	 29.5283
5.330000	 29.6914
5.348000	 30.0084
5.366000	 30.2426
5.384000	 30.2627
5.402000	 30.2969
5.420000	 30.4403
5.438000	 30.5906
5.456000	 30.7164
5.474000	 30.8821
5.492000	 31.0749
5.510000	 31.2924
5.528000	 31.3101
5.546000	 31.2017
5.564000	 31.1755
5.582000	 31.2106
5.600000	 31.4158
5.618000	 31.5832
5.636000	 31.6844
5.654000	 31.7724
5.672000	 31.7625
5.690000	 31.7118
5.708000	 31.6958
5.726000	 31.6259
5.744000	 31.6413
5.762000	 31.8347
5.780000	 31.9846
5.798000	 32.1124
5.816000	 32.1907
5.834000	 32.1771
5.852000	 32.1425
5.870000	 32.0795
5.888000	 32.0008
5.906000	 31.9813
5.923999	 32.0555
5.942000	 32.1721
5.960000	 32.2456
5.978000	 32.3073
5.996000	 32.315
6.014000	 32.2471
6.032000	 32.1054
6.050000	 32.0618
6.068000	 32.0518
6.086000	 31.9767
6.104000	 32.0731
6.122000	 32.2637
6.140000	 32.3168
6.158000	 32.3164
6.176000	 32.3534
6.194000	 32.3197
6.212000	 32.2193
6.230000	 32.1127
6.248000	 32.0433
6.266000	 32.0095
6.284000	 32.0361
6.302000	 32.0915
6.320000	 32.183
6.338000	 32.3281
6.356000	 32.3929
6.374000	 32.3355
6.392000	 32.229
6.410000	 32.1497
6.428000	 32.0723
6.446000	 31.981
6.464000	 31.9486
6.482000	 31.9948
6.500000	 32.0708
6.518000	 32.1147
6.536000	 32.1549
6.554000	 32.2302
6.572000	 32.2866
6.590000	 32.2755
6.608000	 32.2204
6.626000	 32.1819
6.644000	 32.1134
6.662000	 31.9718
6.680000	 31.873
6.698000	 31.8782
6.716000	 31.8607
6.734000	 31.8537
6.752000	 31.9251
6.770000	 32.0014
6.788000	 32.0908
6.806000	 32.1801
6.824000	 32.1928
6.842000	 32.1445
6.860000	 32.0529
6.878000	 31.8997
6.896000	 31.735
6.914000	 31.6542
6.932000	 31.649
6.950000	 31.6956
6.968000	 31.7711
6.986000	 31.8059
7.004000	 31.8186
7.022000	 31.8584
7.040000	 31.9009
7.058000	 31.9315
7.076000	 31.9428
7.094000	 31.9131
7.112000	 31.848
7.130000	 31.7574
7.148000	 31.6407
7.166000	 31.5165
7.184000	 31.4301
7.202000	 31.4225
7.220000	 31.4795
7.238000	 31.5496
7.256000	 31.6219
7.274000	 31.706
7.292000	 31.7615
7.310000	 31.766
7.328000	 31.7615
7.346000	 31.7491
7.364000	 31.6899
7.382000	 31.5959
7.400000	 31.4917
7.418000	 31.401
7.436000	 31.3764
7.454000	 31.4173
7.472000	 31.449
7.490000	 31.4377
7.508000	 31.4245
7.526000	 31.4597
7.544000	 31.5517
7.562000	 31.6618
7.580000	 31.7458
7.598000	 31.7802
7.616000	 31.7484
7.634000	 31.6542
7.652000	 31.5392
7.670000	 31.4439
7.688000	 31.3697
7.706000	 31.2944
7.724000	 31.1969
7.742000	 31.0837
7.760000	 31.0111
7.778000	 31.044
7.796000	 31.1791
7.814000	 31.3533
7.832000	 31.5151
7.850000	 31.6425
7.868000	 31.7126
7.886000	 31.7058
7.904000	 31.6486
7.922000	 31.5954
7.940000	 31.5577
7.958000	 31.4955
7.976000	 31.3876
7.994000	 31.2602
8.012000	 31.1398
8.030000	 31.0335
8.048000	 30.9566
8.065999	 30.9356
8.084000	 30.9776
8.102000	 31.0622
8.120000	 31.1583
8.138000	 31.2391
8.155999	 31.2925
8.173999	 31.3306
8.192000	 31.3731
8.210000	 31.4168
8.228000	 31.4324
8.246000	 31.3965
8.263999	 31.3141
8.282000	 31.2159
8.300000	 31.1292
8.318000	 31.0575
8.336000	 30.9891
8.353999	 30.9145
8.372000	 30.839
8.390000	 30.7868
8.408000	 30.7789
8.426000	 30.8065
8.443999	 30.8449
8.462000	 30.8794
8.480000	 30.9121
8.498000	 30.9546
8.516000	 31.0213
8.533999	 31.1168
8.552000	 31.2198
8.570000	 31.2845
8.588000	 31.2753
8.606000	 31.199
8.624000	 31.0976
8.641999	 31.0102
8.660000	 30.9487
8.678000	 30.8975
8.696000	 30.8244
8.714000	 30.7141
8.731999	 30.5934
8.750000	 30.5077
8.768000	 30.4762
8.786000	 30.4868
8.804000	 30.5259
8.821999	 30.5919
8.840000	 30.6783
8.858000	 30.7603
8.876000	 30.8134
8.894000	 30.8316
8.911999	 30.8274
8.930000	 30.8212
8.948000	 30.8271
8.966000	 30.8424
8.984000	 30.8472
9.001999	 30.8217
9.020000	 30.7616
9.038000	 30.6806
9.056000	 30.601
9.074000	 30.5423
9.092000	 30.5129
9.109999	 30.5033
9.128000	 30.4862
9.146000	 30.4358
9.164000	 30.3532
9.182000	 30.2708
9.199999	 30.2292
9.218000	 30.2463
9.236000	 30.3099
9.254000	 30.3928
9.272000	 30.4722
9.289999	 30.5346
9.308000	 30.5735
9.326000	 30.5888
9.344000	 30.5888
9.362000	 30.5875
9.379999	 30.5929
9.398000	 30.6018
9.416000	 30.6059
9.434000	 30.5999
9.452000	 30.5819
9.469999	 30.5439
9.488000	 30.4679
9.506000	 30.3412
9.524000	 30.1752
9.542000	 30.0088
9.560000	 29.8885
9.577999	 29.8442
9.596000	 29.8762
9.614000	 29.9561
9.632000	 30.0389
9.650000	 30.0845
9.667999	 30.0772
9.686000	 30.0327
9.704000	 29.9853
9.722000	 29.9634
9.740000	 29.9694
9.757999	 29.9807
9.776000	 29.9692
9.794000	 29.9233
9.812000	 29.857
9.830000	 29.8003
9.847999	 29.7817
9.866000	 29.8135
9.884000	 29.888
9.902000	 29.983
9.920000	 30.071
9.937999	 30.1284
9.956000	 30.1421
9.974000	 30.1114
9.992000	 30.0451
10.01	29.9582
10.028	29.8654
10.046	29.7791
10.064	29.7077
10.082	29.6568
10.1	29.6284
10.118	29.6196
10.136	29.6229
10.154	29.629
10.172	29.6303
10.19	29.6237
10.208	29.6119
10.226	29.6019
10.244	29.6005
10.262	29.6127
10.28	29.6385
10.298	29.6738
10.316	29.7121
10.334	29.7475
10.352	29.7768
10.37	29.799
10.388	29.813
10.406	29.8165
10.424	29.8054
10.442	29.7759
10.46	29.7276
10.478	29.6647
10.496	29.5951
10.514	29.5272
10.532	29.4675
10.55	29.4184
10.568	29.3795
10.586	29.3473
10.604	29.3163
10.622	29.2803
10.64	29.2339
10.658	29.175
10.676	29.1073
10.694	29.0399
10.712	28.9857
10.73	28.9561
10.748	28.9558
10.766	28.9801
10.784	29.0168
10.802	29.0505
10.82	29.0708
10.838	29.0758
10.856	29.0732
10.874	29.0761
10.892	29.0949
10.91	29.133
10.928	29.185
10.946	29.2405
10.964	29.2911
10.982	29.3317
11	29.3622
11.018	29.383
11.036	29.3928
11.054	29.3878
11.072	29.3647
11.09	29.3226
11.108	29.2652
11.126	29.1992
11.144	29.1294
11.162	29.058
11.18	28.9832
11.198	28.9018
11.216	28.8131
11.234	28.7205
11.252	28.631
11.27	28.5524
11.288	28.4905
11.306	28.4462
11.324	28.4159
11.342	28.3941
11.36	28.3755
11.378	28.3587
11.396	28.3462
11.414	28.3435
11.432	28.3566
11.45	28.3892
11.468	28.4414
11.486	28.5097
11.504	28.5882
11.522	28.6685
11.54	28.742
11.558	28.8003
11.576	28.8367
11.594	28.8471
11.612	28.8316
11.63	28.794
11.648	28.7404
11.666	28.6793
11.684	28.6183
11.702	28.5627
11.72	28.5153
11.738	28.4756
11.756	28.4406
11.774	28.4064
11.792	28.3687
11.81	28.3244
11.828	28.2727
11.846	28.2152
11.864	28.1559
11.882	28.0997
11.9	28.0505
11.918	28.0103
11.936	27.9781
11.954	27.9514
11.972	27.926
11.99	27.8981
12.008	27.8649
12.026	27.8251
12.044	27.7794
12.062	27.731
12.08	27.6858
12.098	27.6508
12.116	27.633
12.134	27.637
12.152	27.663
12.17	27.7075
12.188	27.764
12.206	27.8239
12.224	27.8799
12.242	27.928
12.26	27.9672
12.278	27.9994
12.296	28.0286
12.314	28.058
12.332	28.0898
12.35	28.1239
12.368	28.1585
12.386	28.1916
12.404	28.2203
12.422	28.2423
12.44	28.2561
12.458	28.2604
12.476	28.254
12.494	28.2358
12.512	28.2045
12.53	28.1585
12.548	28.0964
12.566	28.0182
12.584	27.9249
12.602	27.8197
12.62	27.7073
12.638	27.5939
12.656	27.4857
12.674	27.3876
12.692	27.3028
12.71	27.2325
12.728	27.1763
12.746	27.1321
12.764	27.0982
12.782	27.0737
12.8	27.0582
12.818	27.0518
12.836	27.0548
12.854	27.0673
12.872	27.0871
12.89	27.1114
12.908	27.1365
12.926	27.1587
12.944	27.1753
12.962	27.1851
12.98	27.1884
12.998	27.1875
13.016	27.1857
13.034	27.1865
13.052	27.1932
13.07	27.2077
13.088	27.2301
13.106	27.2581
13.124	27.2881
13.142	27.315
13.16	27.3338
13.178	27.3396
13.196	27.3296
13.214	27.3025
13.232	27.2588
13.25	27.2002
13.268	27.1297
13.286	27.0506
13.304	26.9661
13.322	26.8795
13.34	26.7943
13.358	26.7138
13.376	26.6418
13.394	26.5818
13.412	26.5368
13.43	26.5086
13.448	26.4971
13.466	26.5005
13.484	26.5148
13.502	26.5353
13.52	26.5565
13.538	26.5734
13.556	26.5818
13.574	26.5782
13.592	26.561
13.61	26.5294
13.628	26.4841
13.646	26.4267
13.664	26.3598
13.682	26.287
13.7	26.2129
13.718	26.1424
13.736	26.0805
13.754	26.0315
13.772	25.9983
13.79	25.9821
13.808	25.9821
13.826	25.9958
13.844	26.0195
13.862	26.0491
13.88	26.0811
13.898	26.1128
13.916	26.143
13.934	26.1716
13.952	26.1994
13.97	26.2274
13.988	26.2563
14.006	26.2864
14.024	26.3174
14.042	26.3485
14.06	26.3786
14.078	26.4072
14.096	26.4345
14.114	26.4612
14.132	26.4884
14.15	26.5171
14.168	26.5484
14.186	26.5823
14.204	26.6181
14.222	26.6538
14.24	26.6872
14.258	26.7152
14.276	26.7358
14.294	26.7471
14.312	26.7479
14.33	26.738
14.348	26.7172
14.366	26.6865
14.384	26.6463
14.402	26.5972
14.42	26.5399
14.438	26.4751
14.456	26.4038
14.474	26.3274
14.492	26.2477
14.51	26.1672
14.528	26.0885
14.546	26.0138
14.564	25.945
14.582	25.8829
14.6	25.8276
14.618	25.7782
14.636	25.733
14.654	25.69
14.672	25.6477
14.69	25.6051
14.708	25.5619
14.726	25.5187
14.744	25.4773
14.762	25.4391
14.78	25.4058
14.798	25.3783
14.816	25.3571
14.834	25.3419
14.852	25.331
14.87	25.3227
14.888	25.3151
14.906	25.3069
14.924	25.2974
14.942	25.2866
14.96	25.2755
14.978	25.2658
14.996	25.2593
15.014	25.2579
15.032	25.263
15.05	25.275
15.068	25.2933
15.086	25.317
15.104	25.3442
15.122	25.3726
15.14	25.4003
15.158	25.4257
15.176	25.4481
15.194	25.467
15.212	25.4829
15.23	25.4967
15.248	25.509
15.266	25.5206
15.284	25.5317
15.302	25.542
15.32	25.5508
15.338	25.5569
15.356	25.5588
15.374	25.5553
15.392	25.5453
15.41	25.5283
15.428	25.5042
15.446	25.4734
15.464	25.4369
15.482	25.3959
15.5	25.3519
15.518	25.3063
15.536	25.2602
15.554	25.2145
15.572	25.1702
15.59	25.1277
15.608	25.087
15.626	25.048
15.644	25.0104
15.662	24.9738
15.68	24.9377
15.698	24.9015
15.716	24.8642
15.734	24.825
15.752	24.7829
15.77	24.7374
15.788	24.6876
15.806	24.6332
15.824	24.5744
15.842	24.5115
15.86	24.4453
15.878	24.3772
15.896	24.3083
15.914	24.2409
15.932	24.1766
15.95	24.1168
15.968	24.0628
15.986	24.0155
16.004	23.9754
16.022	23.9427
16.04	23.9168
16.058	23.8971
16.076	23.8831
16.094	23.8735
16.112	23.868
16.13	23.8663
16.148	23.8677
16.166	23.8728
16.184	23.8816
16.202	23.8946
16.22	23.9123
16.238	23.9351
16.256	23.9631
16.274	23.9962
16.292	24.034
16.31	24.076
16.328	24.121
16.346	24.1678
16.364	24.2154
16.382	24.2618
16.4	24.3055
16.418	24.3455
16.436	24.3802
16.454	24.4085
16.472	24.4299
16.49	24.4434
16.508	24.4489
16.526	24.4461
16.544	24.4353
16.562	24.4168
16.58	24.391
16.598	24.3586
16.616	24.3204
16.634	24.2769
16.652	24.2296
16.67	24.1793
16.688	24.1271
16.706	24.0745
16.724	24.0224
16.742	23.9719
16.76	23.9247
16.778	23.8813
16.796	23.8432
16.814	23.8112
16.832	23.7857
16.85	23.7672
16.868	23.7556
16.886	23.7508
16.904	23.7516
16.922	23.757
16.94	23.7657
16.958	23.7752
16.976	23.7843
16.994	23.79
17.012	23.7906
17.03	23.7846
17.048	23.7699
17.066	23.7462
17.084	23.7126
17.102	23.6697
17.12	23.6179
17.138	23.559
17.156	23.4948
17.174	23.427
17.192	23.3587
17.21	23.2912
17.228	23.2272
17.246	23.1681
17.264	23.1149
17.282	23.069
17.3	23.0302
17.318	22.9985
17.336	22.973
17.354	22.9532
17.372	22.9377
17.39	22.9258
17.408	22.9165
17.426	22.9091
17.444	22.9032
17.462	22.8984
17.48	22.8948
17.498	22.8924
17.516	22.8912
17.534	22.8915
17.552	22.8932
17.57	22.8961
17.588	22.9003
17.606	22.9052
17.624	22.9105
17.642	22.9154
17.66	22.9197
17.678	22.9226
17.696	22.924
17.714	22.9235
17.732	22.9211
17.75	22.9168
17.768	22.9107
17.786	22.9031
17.804	22.8946
17.822	22.8853
17.84	22.8758
17.858	22.8663
17.876	22.857
17.894	22.8479
17.912	22.8388
17.93	22.8295
17.948	22.8199
17.966	22.8089
17.984	22.7964
18.002	22.7815
18.02	22.7638
18.038	22.7427
18.056	22.718
18.074	22.6894
18.092	22.6573
18.11	22.6217
18.128	22.5834
18.146	22.5428
18.164	22.5011
18.182	22.4592
18.2	22.4182
18.218	22.3794
18.236	22.3436
18.254	22.312
18.272	22.285
18.29	22.2634
18.308	22.2474
18.326	22.2372
18.344	22.2324
18.362	22.2327
18.38	22.2375
18.398	22.2457
18.416	22.2567
18.434	22.2694
18.452	22.2826
18.47	22.2956
18.488	22.3071
18.506	22.3164
18.524	22.3225
18.542	22.325
18.56	22.3234
18.578	22.3173
18.596	22.307
18.614	22.2923
18.632	22.274
18.65	22.2523
18.668	22.2284
18.686	22.2026
18.704	22.1764
18.722	22.1498
18.74	22.1245
18.758	22.1007
18.776	22.0798
18.794	22.0618
18.812	22.0478
18.83	22.0376
18.848	22.0317
18.866	22.0299
18.884	22.0322
18.902	22.0381
18.92	22.0474
18.938	22.0596
18.956	22.0739
18.974	22.0899
18.992	22.1068
19.01	22.124
19.028	22.1407
19.046	22.1563
19.064	22.1702
19.082	22.1818
19.1	22.1905
19.118	22.1961
19.136	22.198
19.154	22.1962
19.172	22.1902
19.19	22.1802
19.208	22.166
19.226	22.1479
19.244	22.1264
19.262	22.1018
19.28	22.0754
19.298	22.0473
19.316	22.0196
19.334	21.9921
19.352	21.9673
19.37	21.9451
19.388	21.9278
19.406	21.9154
19.424	21.9094
19.442	21.9097
19.46	21.9168
19.478	21.931
19.496	21.951
19.514	21.9769
19.532	22.0065
19.55	22.0391
19.568	22.0725
19.586	22.1047
19.604	22.1344
19.622	22.1585
19.64	22.1769
19.658	22.1862
19.676	22.187
19.694	22.177
19.712	22.1564
19.73	22.1254
19.748	22.0837
19.766	22.0332
19.784	21.974
19.802	21.9088
19.82	21.8387
19.838	21.7656
19.856	21.6924
19.874	21.6193
19.892	21.5502
19.91	21.4844
19.928	21.4248
19.946	21.3713
19.964	21.3249
19.982	21.2859
20	21.2538
20.018	21.2288
20.036	21.2103
20.054	21.1975
20.072	21.1904
20.09	21.1877
20.108	21.1898
20.126	21.1958
20.144	21.2056
20.162	21.2193
20.18	21.2368
20.198	21.2585
20.216	21.2847
20.234	21.3155
20.252	21.3515
20.27	21.3927
20.288	21.4388
20.306	21.4901
20.324	21.5454
20.342	21.6042
20.36	21.6657
20.378	21.7276
20.396	21.7901
20.414	21.8492
20.432	21.9053
20.45	21.9548
20.468	21.9965
20.486	22.0292
20.504	22.0495
20.522	22.0581
20.54	22.0525
20.558	22.0328
20.576	21.9987
20.594	21.9495
20.612	21.8866
20.63	21.8113
20.648	21.7234
20.666	21.6269
20.684	21.5212
20.702	21.41
20.72	21.2957
20.738	21.1785
20.756	21.0637
20.774	20.95
20.792	20.8418
20.81	20.7396
20.828	20.6446
20.846	20.5591
20.864	20.4824
20.882	20.4162
20.9	20.3606
20.918	20.3151
20.936	20.2799
20.954	20.2546
20.972	20.2379
20.99	20.2302
21.008	20.2295
21.026	20.2352
21.044	20.2467
21.062	20.2617
21.08	20.2807
21.098	20.3014
21.116	20.3234
21.134	20.346
21.152	20.3674
21.17	20.3881
21.188	20.4068
21.206	20.4232
21.224	20.4372
21.242	20.4483
21.26	20.4565
21.278	20.4617
21.296	20.4639
21.314	20.4631
21.332	20.4592
21.35	20.4523
21.368	20.4425
21.386	20.4297
21.404	20.414
21.422	20.3952
21.44	20.3736
21.458	20.3486
21.476	20.3202
21.494	20.2883
21.512	20.2526
21.53	20.2131
21.548	20.17
21.566	20.1231
21.584	20.0725
21.602	20.0191
21.62	19.9625
21.638	19.9038
21.656	19.8442
21.674	19.7831
21.692	19.7231
21.71	19.6642
21.728	19.607
21.746	19.5543
21.764	19.5053
21.782	19.4615
21.8	19.4246
21.818	19.3939
21.836	19.3708
21.854	19.3558
21.872	19.3484
21.89	19.3488
21.908	19.3573
21.926	19.3721
21.944	19.3927
21.962	19.4193
21.98	19.4488
21.998	19.4816
22.016	19.5164
22.034	19.5499
22.052	19.5832
22.07	19.6142
22.088	19.641
22.106	19.6644
22.124	19.6827
22.142	19.6954
22.16	19.7028
22.178	19.7053
22.196	19.7021
22.214	19.6947
22.232	19.6845
22.25	19.6708
22.268	19.6557
22.286	19.6407
22.304	19.625
22.322	19.6112
22.34	19.5997
22.358	19.5904
22.376	19.5842
22.394	19.5816
22.412	19.5817
22.43	19.5839
22.448	19.5892
22.466	19.595
22.484	19.6002
22.502	19.6055
22.52	19.6075
22.538	19.6049
22.556	19.5983
22.574	19.5837
22.592	19.5609
22.61	19.5299
22.628	19.4878
22.646	19.4348
22.664	19.371
22.682	19.2955
22.7	19.208
22.718	19.11
22.736	19.0027
22.754	18.8848
22.772	18.7597
22.79	18.6301
22.808	18.4939
22.826	18.3564
22.844	18.2206
22.862	18.0844
22.88	17.9534
22.898	17.8297
22.916	17.7117
22.934	17.6043
22.952	17.5089
22.97	17.4245
22.988	17.3545
23.006	17.2999
23.024	17.2597
23.042	17.2352
23.06	17.2274
23.078	17.235
23.096	17.2562
23.114	17.2918
23.132	17.3406
23.15	17.399
23.168	17.4677
23.186	17.5458
23.204	17.629
23.222	17.7181
23.24	17.8122
23.258	17.9072
23.276	18.0036
23.294	18.1009
23.312	18.1951
23.33	18.2865
23.348	18.3751
23.366	18.4582
23.384	18.5359
23.402	18.6084
23.42	18.6741
23.438	18.7327
23.456	18.7846
23.474	18.8297
23.492	18.8677
23.51	18.899
23.528	18.9248
23.546	18.9453
23.564	18.9605
23.582	18.9712
23.6	18.9782
23.618	18.981
23.636	18.9797
23.654	18.9741
23.672	18.9645
23.69	18.9506
23.708	18.9324
23.726	18.9099
23.744	18.8834
23.762	18.8531
23.78	18.8193
23.798	18.7813
23.816	18.7389
23.834	18.6924
23.852	18.6413
23.87	18.585
23.888	18.5233
23.906	18.4565
23.924	18.3847
23.942	18.3074
23.96	18.2251
23.978	18.1391
23.996	18.0495
24.014	17.9558
24.032	17.8607
24.05	17.7656
24.068	17.6686
24.086	17.5733
24.104	17.4833
24.122	17.396
24.14	17.3139
24.158	17.2404
24.176	17.1739
24.194	17.1155
24.212	17.0689
24.23	17.0345
24.248	17.0113
24.266	17.002
24.284	17.0081
24.302	17.0278
24.32	17.0636
24.338	17.1176
24.356	17.1885
24.374	17.2771
24.392	17.3851
24.41	17.5119
24.428	17.6576
24.446	17.8238
24.464	18.0115
24.482	18.2198
24.5	18.4483
24.518	18.6967
24.536	18.9656
24.554	19.2538
24.572	19.5604
24.59	19.8854
24.608	20.2287
24.626	20.5899
24.644	20.9692
24.662	21.3671
24.68	21.7811
24.698	22.2092
24.716	22.6542
24.734	23.1127
24.752	23.5792
24.77	24.0555
24.788	24.5419
24.806	25.0294
24.824	25.5124
24.842	25.997
24.86	26.4766
24.878	26.9426
24.896	27.4005
24.914	27.8474
24.932	28.271
24.95	28.6659
24.968	29.0403
24.986	29.3829
25.004	29.682
25.022	29.9451
25.04	30.1682
25.058	30.3378
25.076	30.4484
25.094	30.5079
25.112	30.5077
25.13	30.4387
25.148	30.3057
25.166	30.1074
25.184	29.8373
25.202	29.4916
25.22	29.0741
25.238	28.5846
25.256	28.0226
25.274	27.3859
25.292	26.6776
25.31	25.9036
25.328	25.0654
25.346	24.1577
25.364	23.1913
25.382	22.1782
25.4	21.111
25.418	19.9922
25.436	18.8413
25.454	17.6717
25.472	16.4655
25.49	15.2409
25.508	14.0234
25.526	12.8136
25.544	11.6
25.562	10.4099
25.58	9.268369
25.598	8.157589
25.616	7.085581
25.634	6.078280
25.652	5.150404
25.67	4.282216
25.688	3.490977
25.706	2.798186
25.724	2.204785
25.742	1.701735
25.76	1.301692
25.778	1.016507
25.796	0.841434
25.814	0.774724
25.832	0.819455
25.85	0.979480
25.868	1.256203
25.886	1.640544
25.904	2.122633
25.922	2.705427
25.94	3.394236
25.958	4.167177
25.976	5.002504
25.994	5.916797
26.012	6.904990
26.03	7.933467
26.048	8.974385
26.066	10.0576
26.084	11.1642
26.102	12.2561
26.12	13.3119
26.138	14.3652
26.156	15.386
26.174	16.3356
26.192	17.2041
26.21	18.0186
26.228	18.747
26.246	19.3553
26.264	19.8457
26.282	20.2327
26.3	20.4923
26.318	20.6012
26.336	20.5649
26.354	20.3899
26.372	20.0684
26.39	19.593
26.408	18.9623
26.426	18.1832
26.444	17.2628
26.462	16.2055
26.48	14.9979
26.498	13.6547
26.516	12.1976
26.534	10.6404
26.552	8.959586
26.57	7.176020
26.588	5.319272
26.606	3.405514
26.624	1.405548
26.642	-0.654587
26.66	-2.741487
26.678	-4.838654
26.696	-6.975746
26.714	-9.128054
26.732	-11.2654
26.75	-13.3732
26.768	-15.4756
26.786	-17.5561
26.804	-19.5945
26.822	-21.5826
26.84	-23.5374
26.858	-25.4452
26.876	-27.2904
26.894	-29.0664
26.912	-30.7876
26.93	-32.4423
26.948	-34.017
26.966	-35.5489
26.984	-37.1144
27.002	-38.5425
27.02	-39.6463
27.028	-39.9492