File: Bakgrunnsmateriale/MATLAB/FTIR/ftir_data/LPE453/Mapping_121/LPE453_t50_cm-1.asc
PE IR       SPECTRUM    SPECTRUM    ASCII       PEDS        1.60
  -1
LPD955~1.ASC
17/05/16
18:29:20.00
17/05/16
18:29:20.00
tln
$LPE453_t0050$<tbV0>[0.0,-2.6,8.0,0.0,27,1,0]
370
64

2002,4.07
MIRTGS : RIGHTBACK : INTERNAL 2
MIR : ON : INTERNAL 2
OPTKBR

0.200000
8
8.000000
FILLER
RATIO
SPECTRUM
UNLOCKED 256

DOUBLE
64
COMBINED
1
0
0

1.000000
RATIO

1
0
TRUE
51149
0
LEFT NOT FITTED RIGHT NOT FITTED 0
NONE
NONE
15600
12
4.427000
51148
TRUE
1 0 8 72 0 0 0 0

15798

#HDR
-1
-1
#GR
CM-1
%T
2.38419e-05
0.0
5000
-1.000000
4631
8
28.3559
-14.6397
#DATA
5000	-0.219249
4996	-0.370240
4992	-0.280046
4988	-0.143766
4984	0.042033
4980	0.265312
4976	0.299787
4972	0.129699
4968	0.019478
4964	0.180244
4960	0.360321
4956	0.263142
4952	0.095081
4948	0.019240
4944	0.049018
4940	0.111937
4936	-0.029182
4932	-0.141954
4928	-0.062155
4924	-0.090837
4920	-0.198483
4916	-0.214552
4912	-0.112628
4908	0.097012
4904	0.240421
4900	0.237202
4896	0.135540
4892	0.034117
4888	0.127434
4884	0.195026
4880	0.062155
4876	-0.083923
4872	-0.194668
4868	-0.131535
4864	0.188660
4860	0.388932
4856	0.309610
4852	0.222492
4848	0.283241
4844	0.330758
4840	0.147891
4836	-0.000762
4832	-0.007081
4828	0.016045
4824	0.151133
4820	0.290226
4816	0.445294
4812	0.494027
4808	0.231719
4804	-0.014686
4800	-0.125980
4796	-0.154137
4792	0.052499
4788	0.167846
4784	0.057196
4780	0.184583
4776	0.408434
4772	0.321793
4768	0.149679
4764	0.072455
4760	-0.056886
4756	-0.128769
4752	-0.090837
4748	-0.019049
4744	0.124859
4740	0.231862
4736	0.223374
4732	0.159883
4728	0.062203
4724	-0.036907
4720	-0.086998
4716	-0.036644
4712	0.057959
4708	0.162959
4704	0.166559
4700	0.009274
4696	-0.012969
4692	0.026202
4688	-0.134992
4684	-0.205397
4680	-0.036215
4676	0.233769
4672	0.529289
4668	0.688481
4664	0.646734
4660	0.428771
4656	0.208020
4652	0.209903
4648	0.533270
4644	0.910949
4640	0.948715
4636	0.834107
4632	0.804615
4628	0.468969
4624	-0.014019
4620	0.082540
4616	0.389814
4612	0.663161
4608	1.016569
4604	0.961041
4600	0.624561
4596	0.946426
4592	1.270627
4588	0.376701
4584	-0.152206
4580	0.502133
4576	0.467467
4572	0.027132
4568	0.062084
4564	-0.656962
4560	-1.646351
4556	-1.410508
4552	-0.812959
4548	-0.822377
4544	-0.510740
4540	0.149607
4536	0.152206
4532	0.286078
4528	-0.788664
4524	-4.492902
4520	-6.884288
4516	0.209140
4512	12.9911
4508	19.8247
4504	16.4574
4500	6.480717
4496	-0.430631
4492	-0.538492
4488	0.846934
4484	0.958919
4480	0.345468
4476	-0.383472
4472	-1.073789
4468	-0.896215
4464	-0.234317
4460	-0.118088
4456	-0.153636
4452	-0.132417
4448	-0.106692
4444	-0.111842
4440	-0.270342
4436	-0.259828
4432	0.085997
4428	0.212860
4424	-0.032663
4420	-0.150680
4416	-0.070190
4412	0.051736
4408	0.259947
4404	0.274991
4400	0.142192
4396	0.310373
4392	0.595402
4388	0.627851
4384	0.498867
4380	0.416779
4376	0.425362
4372	0.411462
4368	0.373244
4364	0.441288
4360	0.592589
4356	0.626468
4352	0.421786
4348	0.273871
4344	0.194740
4340	0.022220
4336	-0.034236
4332	0.019884
4328	0.082659
4324	0.135827
4320	0.097918
4316	0.113344
4312	0.148987
4308	0.053954
4304	-0.143980
4300	-0.217270
4296	-0.022983
4292	0.171875
4288	0.132083
4284	-0.130867
4280	-0.421261
4276	-0.518894
4272	-0.359606
4268	-0.129532
4264	0.002574
4260	0.096893
4256	0.214314
4252	0.246906
4248	0.167965
4244	0.149369
4240	0.226688
4236	0.226092
4232	0.061178
4228	-0.138020
4224	-0.245237
4220	-0.190234
4216	-0.065898
4212	0.003790
4208	0.008440
4204	0.018382
4200	0.038099
4196	0.070166
4192	0.213003
4188	0.344848
4184	0.394153
4180	0.166034
4176	-0.191116
4172	-0.090503
4168	0.113344
4164	0.105142
4160	0.127649
4156	0.121068
4152	0.122976
4148	0.197815
4144	0.189065
4140	0.064182
4136	-0.006246
4132	-0.002980
4128	0.085735
4124	0.175738
4120	0.151991
4116	0.192403
4112	0.236916
4108	0.123739
4104	-0.053787
4100	-0.162839
4096	-0.169348
4092	-0.098800
4088	0.062441
4084	0.211834
4080	0.193667
4076	0.064110
4072	-0.019574
4068	-0.043368
4064	0.002932
4060	0.088953
4056	0.042247
4052	-0.076842
4048	-0.081658
4044	-0.007343
4040	0.045537
4036	0.072431
4032	0.071573
4028	0.031161
4024	0.015902
4020	0.070476
4016	0.110864
4012	0.064158
4008	-0.074911
4004	-0.180029
4000	-0.137352
3996	-0.107121
3992	-0.093054
3988	0.074434
3984	0.229072
3980	0.205969
3976	0.185561
3972	0.266695
3968	0.300812
3964	0.196933
3960	0.066733
3956	-0.034880
3952	-0.142574
3948	-0.127983
3944	-0.000834
3940	0.069379
3936	0.030636
3932	-0.022864
3928	0.017166
3924	0.053167
3920	0.042581
3916	0.034976
3912	-0.021529
3908	-0.079989
3904	-0.049662
3900	0.006151
3896	-0.008940
3892	-0.061583
3888	-0.058150
3884	-0.033831
3880	-0.062179
3876	-0.052523
3872	0.051712
3868	0.084972
3864	0.035357
3860	0.088286
3856	0.184464
3852	0.156927
3848	0.171995
3844	0.335288
3840	0.389885
3836	0.230693
3832	0.032377
3828	-0.058460
3824	-0.035095
3820	0.070214
3816	0.221967
3812	0.263381
3808	0.107908
3804	-0.022816
3800	0.005984
3796	-0.013732
3792	-0.104260
3788	-0.130891
3784	-0.133824
3780	-0.065851
3776	0.011539
3772	-0.030875
3768	-0.085282
3764	-0.067877
3760	-0.010776
3756	0.030255
3752	0.102281
3748	0.181436
3744	0.148701
3740	0.034856
3736	-0.064301
3732	-0.066781
3728	-0.016903
3724	-0.011706
3720	-0.051784
3716	-0.065493
3712	0.042605
3708	0.190162
3704	0.259399
3700	0.243330
3696	0.147557
3692	0.079059
3688	0.050354
3684	0.015783
3680	-0.033259
3676	-0.097155
3672	-0.073194
3668	0.008249
3664	0.017428
3660	-0.002336
3656	0.034236
3652	0.081658
3648	0.118875
3644	0.144958
3640	0.089263
3636	-0.011348
3632	-0.013065
3628	0.003266
3624	-0.057554
3620	-0.059247
3616	-0.007128
3612	-0.046133
3608	-0.135254
3604	-0.192236
3600	-0.166225
3596	-0.076174
3592	0.016665
3588	0.090360
3584	0.091838
3580	0.079250
3576	0.099229
3572	0.100302
3568	0.067496
3564	0.063037
3560	0.166273
3556	0.301694
3552	0.304770
3548	0.174689
3544	0.079488
3540	0.056600
3536	0.038504
3532	0.033473
3528	-0.042676
3524	-0.169444
3520	-0.119566
3516	0.049996
3512	0.118446
3508	0.066089
3504	-0.023794
3500	0.013995
3496	0.162005
3492	0.144600
3488	-0.001549
3484	-0.025057
3480	0.004172
3476	-0.016331
3472	0.005364
3468	0.038766
3464	0.012755
3460	-0.037789
3456	-0.083494
3452	-0.075364
3448	-0.033235
3444	-0.044083
3440	-0.056004
3436	-0.006794
3432	0.044846
3428	0.067806
3424	0.093364
3420	0.140428
3416	0.170230
3412	0.150084
3408	0.103664
3404	0.082397
3400	0.078797
3396	0.021362
3392	0.001406
3388	0.063586
3384	0.090503
3380	0.062131
3376	0.017786
3372	0.017738
3368	0.045204
3364	0.064587
3360	0.102567
3356	0.108098
3352	0.087857
3348	0.120472
3344	0.129628
3340	0.072550
3336	0.021934
3332	0.030732
3328	0.032424
3324	-0.051259
3320	-0.061607
3316	-0.020885
3312	-0.019001
3308	0.025272
3304	0.053453
3300	0.021195
3296	-0.018405
3292	-0.030899
3288	-0.057649
3284	-0.057244
3280	0.006651
3276	0.013804
3272	-0.005602
3268	0.017929
3264	0.052523
3260	0.087809
3256	0.097322
3252	0.069427
3248	0.006365
3244	-0.063323
3240	-0.076794
3236	-0.043773
3232	0.011491
3228	0.088763
3224	0.099873
3220	0.067663
3216	0.069046
3212	0.020575
3208	-0.019574
3204	0.062084
3200	0.107836
3196	-0.001001
3192	-0.073218
3188	-0.060296
3184	-0.064849
3180	-0.051259
3176	-0.050449
3172	-0.067853
3168	-0.029540
3164	0.096440
3160	0.170278
3156	0.045251
3152	-0.057530
3148	0.020599
3144	0.110983
3140	0.059938
3136	-0.059652
3132	-0.025653
3128	0.145673
3124	0.243973
3120	0.163769
3116	-0.004863
3112	-0.036096
3108	0.077176
3104	0.090503
3100	-0.032901
3096	-0.088381
3092	-0.033020
3088	0.011515
3084	0.010919
3080	0.035452
3076	0.107026
3072	0.146365
3068	0.101208
3064	0.088858
3060	0.102686
3056	-0.011610
3052	-0.111603
3048	-0.038862
3044	0.059461
3040	0.075197
3036	0.043034
3032	0.020408
3028	0.031208
3024	0.021958
3020	0.022292
3016	0.010347
3012	-0.082540
3008	-0.094795
3004	0.043082
3000	0.108623
2996	0.041103
2992	-0.043392
2988	-0.072216
2984	-0.024533
2980	0.014853
2976	0.027012
2972	0.042223
2968	0.035047
2964	0.030803
2960	0.027298
2956	0.005269
2952	0.004243
2948	0.041508
2944	0.051712
2940	-0.016689
2936	-0.063848
2932	-0.055813
2928	-0.062108
2924	-0.027894
2920	0.072002
2916	0.136303
2912	0.112938
2908	0.030398
2904	-0.026130
2900	0.001287
2896	0.059533
2892	0.114345
2888	0.165486
2884	0.146150
2880	0.049495
2876	0.000452
2872	0.002884
2868	0.006556
2864	0.035429
2860	0.053191
2856	0.022077
2852	-0.008559
2848	0.011467
2844	0.034952
2840	0.026273
2836	0.016760
2832	0.013852
2828	0.023722
2824	0.046420
2820	0.066781
2816	0.064802
2812	0.052022
2808	0.058341
2804	0.034308
2800	0.000000
2796	0.004529
2792	0.012993
2788	0.015044
2784	0.001835
2780	0.012636
2776	0.052309
2772	0.053262
2768	0.036454
2764	0.019812
2760	-0.011873
2756	-0.025367
2752	-0.021457
2748	-0.022912
2744	-0.033116
2740	-0.031399
2736	0.027441
2732	0.087022
2728	0.051879
2724	-0.007033
2720	0.014567
2716	0.046110
2712	0.022459
2708	-0.026774
2704	-0.075769
2700	-0.087404
2696	-0.031018
2692	0.030016
2688	0.075340
2684	0.093197
2680	0.068068
2676	0.025105
2672	-0.031614
2668	-0.036525
2664	0.018453
2660	0.042176
2656	0.040793
2652	0.018167
2648	-0.043988
2644	-0.059890
2640	-0.022172
2636	0.019717
2632	0.040364
2628	0.049281
2624	0.094652
2620	0.103664
2616	0.038027
2612	0.040888
2608	0.137639
2604	0.145101
2600	0.053453
2596	0.033855
2592	0.062441
2588	0.011563
2584	-0.061893
2580	-0.072073
2576	-0.053787
2572	-0.047492
2568	-0.030303
2564	-0.006699
2560	-0.012278
2556	-0.036311
2552	-0.060820
2548	-0.045847
2544	0.013566
2540	0.068879
2536	0.113701
2532	0.137686
2528	0.106358
2524	0.039935
2520	0.023150
2516	0.066518
2512	0.123429
2508	0.170564
2504	0.128030
2500	-0.015544
2496	-0.140786
2492	-0.162959
2488	-0.078105
2484	0.041460
2480	0.125193
2476	0.134849
2472	0.082731
2468	0.085783
2464	0.105834
2460	0.033092
2456	-0.002002
2452	0.041174
2448	0.033831
2444	-0.003862
2440	-0.007534
2436	0.014734
2432	0.028586
2428	0.008630
2424	-0.039958
2420	-0.131750
2416	-0.170207
2412	-0.095391
2408	-0.023722
2404	0.046610
2400	0.107598
2396	0.130677
2392	0.142312
2388	0.092601
2384	0.052905
2380	0.067019
2376	0.021243
2372	-0.009250
2368	0.047302
2364	0.048208
2360	-0.045442
2356	-0.110363
2352	-0.056242
2348	0.014328
2344	0.006222
2340	-0.015234
2336	-0.029206
2332	-0.012493
2328	0.045299
2324	0.090694
2320	0.120854
2316	0.135827
2312	0.103116
2308	0.034284
2304	0.021910
2300	0.068855
2296	0.085210
2292	0.063061
2288	0.053405
2284	0.098729
2280	0.151205
2276	0.169968
2272	0.172472
2268	0.188302
2264	0.223326
2260	0.264358
2256	0.348830
2252	0.408077
2248	0.429630
2244	0.490450
2240	0.546503
2236	0.596261
2232	0.680470
2228	0.810360
2224	0.960826
2220	1.025962
2216	1.042437
2212	1.175832
2208	1.350927
2204	1.451516
2200	1.533627
2196	1.657605
2192	1.874017
2188	2.169752
2184	2.423882
2180	2.590560
2176	2.764320
2172	2.959084
2168	3.149867
2164	3.420448
2160	3.772759
2156	4.086327
2152	4.351377
2148	4.633355
2144	4.937458
2140	5.317544
2136	5.768752
2132	6.164026
2128	6.464004
2124	6.754636
2120	7.127285
2116	7.542133
2112	7.940554
2108	8.332014
2104	8.687877
2100	9.049725
2096	9.445047
2092	9.855389
2088	10.3013
2084	10.7715
2080	11.3176
2076	11.8372
2072	12.2245
2068	12.5546
2064	12.8289
2060	13.206
2056	13.7581
2052	14.2644
2048	14.6464
2044	14.9765
2040	15.2989
2036	15.6379
2032	16.0357
2028	16.463
2024	16.846
2020	17.1944
2016	17.5563
2012	17.9337
2008	18.2966
2004	18.6334
2000	18.9489
1996	19.2801
1992	19.6247
1988	19.9151
1984	20.151
1980	20.383
1976	20.6551
1972	20.9936
1968	21.3169
1964	21.5484
1960	21.7684
1956	22.0329
1952	22.313
1948	22.5856
1944	22.8214
1940	23.0387
1936	23.2795
1932	23.4897
1928	23.6321
1924	23.7956
1920	23.9987
1916	24.2042
1912	24.4337
1908	24.647
1904	24.7852
1900	24.8969
1896	25.024
1892	25.1599
1888	25.2975
1884	25.4118
1880	25.5514
1876	25.7363
1872	25.8633
1868	25.9392
1864	26.0609
1860	26.1884
1856	26.2626
1852	26.3326
1848	26.4241
1844	26.5016
1840	26.5645
1836	26.6523
1832	26.7845
1828	26.9236
1824	26.9983
1820	27.0431
1816	27.1167
1812	27.1635
1808	27.2017
1804	27.2991
1800	27.3907
1796	27.4341
1792	27.4879
1788	27.5356
1784	27.529
1780	27.521
1776	27.5699
1772	27.6577
1768	27.7293
1764	27.7459
1760	27.74
1756	27.7801
1752	27.8487
1748	27.868
1744	27.8553
1740	27.8616
1736	27.8933
1732	27.9576
1728	28.025
1724	28.0481
1720	28.0213
1716	28.0208
1712	28.0868
1708	28.1015
1704	28.0552
1700	28.0739
1696	28.1537
1692	28.2007
1688	28.1569
1684	28.0889
1680	28.0718
1676	28.0767
1672	28.1158
1668	28.1505
1664	28.1205
1660	28.1198
1656	28.1935
1652	28.2525
1648	28.2634
1644	28.2656
1640	28.256
1636	28.2645
1632	28.3143
1628	28.3295
1624	28.3282
1620	28.3172
1616	28.2884
1612	28.3314
1608	28.3477
1604	28.2443
1600	28.1656
1596	28.2186
1592	28.2994
1588	28.2989
1584	28.2679
1580	28.2177
1576	28.1745
1572	28.2011
1568	28.2175
1564	28.1878
1560	28.2108
1556	28.2921
1552	28.3109
1548	28.2271
1544	28.1624
1540	28.1668
1536	28.1831
1532	28.1884
1528	28.1547
1524	28.1226
1520	28.1454
1516	28.1416
1512	28.1003
1508	28.1007
1504	28.1042
1500	28.0823
1496	28.0468
1492	27.9969
1488	27.9599
1484	27.9541
1480	27.977
1476	27.9984
1472	28.0328
1468	28.0661
1464	28.0398
1460	27.9524
1456	27.8829
1452	27.8919
1448	27.8776
1444	27.8121
1440	27.8194
1436	27.8676
1432	27.8583
1428	27.8018
1424	27.7457
1420	27.7844
1416	27.8591
1412	27.8355
1408	27.7774
1404	27.7014
1400	27.5732
1396	27.5046
1392	27.5432
1388	27.5819
1384	27.5644
1380	27.5301
1376	27.4805
1372	27.4483
1368	27.4837
1364	27.5403
1360	27.5695
1356	27.5361
1352	27.4425
1348	27.4023
1344	27.4248
1340	27.4007
1336	27.3652
1332	27.3536
1328	27.3448
1324	27.375
1320	27.4152
1316	27.4039
1312	27.3536
1308	27.2719
1304	27.2138
1300	27.2444
1296	27.2623
1292	27.2185
1288	27.2148
1284	27.2399
1280	27.214
1276	27.189
1272	27.1785
1268	27.1766
1264	27.2145
1260	27.2431
1256	27.2381
1252	27.1869
1248	27.1211
1244	27.0601
1240	26.963
1236	26.8999
1232	26.9426
1228	26.9876
1224	26.9664
1220	26.9445
1216	26.9479
1212	26.9384
1208	26.8626
1204	26.8288
1200	26.9056
1196	26.9389
1192	26.9125
1188	26.8719
1184	26.758
1180	26.6461
1176	26.652
1172	26.7313
1168	26.7762
1164	26.7081
1160	26.6068
1156	26.5975
1152	26.5778
1148	26.4801
1144	26.4513
1140	26.5105
1136	26.5479
1132	26.5633
1128	26.5388
1124	26.4139
1120	26.2644
1116	26.2262
1112	26.2603
1108	26.3032
1104	26.3894
1100	26.4721
1096	26.452
1092	26.3177
1088	26.2423
1084	26.2361
1080	26.1656
1076	26.1332
1072	26.0703
1068	25.8697
1064	25.7244
1060	25.7395
1056	25.8137
1052	25.8571
1048	25.9085
1044	25.9099
1040	25.7775
1036	25.6437
1032	25.5984
1028	25.5675
1024	25.4938
1020	25.4348
1016	25.4683
1012	25.4314
1008	25.1998
1004	25.1061
1000	25.279
996	 25.3992
992	 25.3239
988	 25.2729
984	 25.3728
980	 25.3832
976	 25.2053
972	 25.0071
968	 24.8965
964	 24.8957
960	 24.9603
956	 24.9592
952	 24.8296
948	 24.7173
944	 24.6535
940	 24.5322
936	 24.4113
932	 24.3751
928	 24.4302
924	 24.4829
920	 24.5032
916	 24.4277
912	 24.1955
908	 24.0604
904	 24.0339
900	 23.9269
896	 23.8246
892	 23.8185
888	 23.7897
884	 23.662
880	 23.5502
876	 23.5041
872	 23.5558
868	 23.6907
864	 23.6931
860	 23.5326
856	 23.3843
852	 23.2311
848	 23.088
844	 23.0869
840	 23.0859
836	 22.9282
832	 22.7512
828	 22.7056
824	 22.7003
820	 22.6146
816	 22.5857
812	 22.6663
808	 22.6599
804	 22.5225
800	 22.4102
796	 22.3346
792	 22.2138
788	 22.1317
784	 22.113
780	 22.106
776	 22.1014
772	 21.9515
768	 21.6296
764	 21.4132
760	 21.3988
756	 21.3403
752	 21.2805
748	 21.3894
744	 21.5286
740	 21.5603
736	 21.4023
732	 21.1274
728	 20.9733
724	 21.0002
720	 20.9791
716	 20.8461
712	 20.7947
708	 20.8036
704	 20.7317
700	 20.5297
696	 20.3608
692	 20.3858
688	 20.4132
684	 20.2664
680	 20.0467
676	 19.8285
672	 19.6512
668	 19.5323
664	 19.3772
660	 19.1981
656	 19.2328
652	 19.4546
648	 19.4926
644	 19.2951
640	 18.9906
636	 18.7071
632	 18.6292
628	 18.7059
624	 18.7155
620	 18.5887
616	 18.4751
612	 18.4648
608	 18.3879
604	 18.106
600	 17.7628
596	 17.5854
592	 17.5893
588	 17.5485
584	 17.3758
580	 17.2963
576	 17.3422
572	 17.3223
568	 17.2085
564	 17.0004
560	 16.8153
556	 16.6521
552	 16.4466
548	 16.3805
544	 16.3788
540	 16.1321
536	 15.8108
532	 15.7875
528	 15.8103
524	 15.7659
520	 15.869
516	 16.0182
512	 16.0016
508	 15.7223
504	 15.4444
500	 15.4318
496	 15.4071
492	 15.0747
488	 14.6997
484	 14.6985
480	 14.7591
476	 14.4957
472	 14.6818
468	 15.0977
464	 14.662
460	 14.2097
456	 14.3902
452	 14.1492
448	 13.3137
444	 12.8203
440	 11.9795
436	 10.5914
432	 10.4199
428	 11.7533
424	 13.6516
420	 13.7233
416	 10.5344
412	 8.717536
408	 10.6831
404	 9.946417
400	 2.595520
396	 -6.647944
392	 -9.336948
388	 2.468609
384	 17.6707
380	 18.8998
376	 8.195495
372	 -8.095860
370	 -14.6397