File: Bakgrunnsmateriale/MATLAB/FTIR/ftir_data/LPE453/Mapping_121/LPE453_t52.asc
PE IR       SPECTRUM    SPECTRUM    ASCII       PEDS        1.60
  -1
LPC7A1~1.ASC
17/05/16
18:38:33.00
17/05/16
18:38:59.00
tln
$LPE453_t0052$<tbV0>[-5.2,-2.6,8.0,0.0,27,1,0]
27.028
64

2002,4.07
MIRTGS : RIGHTBACK : INTERNAL 2
MIR : ON : INTERNAL 2
OPTKBR

0.200000
8
8.000000
FILLER
RATIO
SPECTRUM
UNLOCKED 256

DOUBLE
64
COMBINED
1
0
0

0.002000
RATIO

1
0
TRUE
51149
0
LEFT NOT FITTED RIGHT NOT FITTED 0
NONE
NONE
15600
12
4.427000
51148
TRUE
1 0 8 72 0 0 0 0

15798

#HDR
-1
-1
#GR
µM
%T
2.38419e-05
0.0
2.000000
0.002000
12515
8
36.2874
-2.423099
#DATA
2.000000	 0.098371
2.018000	 0.844917
2.036000	 0.175780
2.054000	 0.026907
2.072000	 0.287466
2.090000	 -0.461732
2.108000	 -0.305385
2.126000	 0.050669
2.144000	 0.562380
2.162000	 0.519355
2.180000	 -0.301020
2.198000	 -0.586314
2.216000	 6.937421
2.234000	 -2.423099
2.252000	 -0.528487
2.270000	 -0.050253
2.288000	 0.045892
2.306000	 0.015875
2.324000	 -0.334513
2.342000	 0.158778
2.360000	 0.042496
2.378000	 0.341641
2.396000	 0.223223
2.414000	 0.110888
2.432000	 -0.041571
2.450000	 -0.056701
2.468000	 0.204800
2.486000	 -0.072410
2.504000	 0.130823
2.522000	 0.165238
2.540000	 0.094328
2.558000	 0.129031
2.576000	 0.000010
2.594000	 0.064198
2.612000	 0.087669
2.630000	 0.035534
2.648000	 0.115624
2.666000	 0.065039
2.684000	 0.015122
2.702000	 -0.023554
2.720000	 0.110098
2.738000	 0.027849
2.756000	 0.170112
2.774000	 0.077285
2.792000	 0.035109
2.810000	 0.243099
2.828000	 0.009542
2.846000	 0.146246
2.864000	 -0.048604
2.882000	 0.165385
2.900000	 -0.109242
2.918000	 0.141446
2.936000	 0.043026
2.954000	 0.004408
2.972000	 0.149423
2.990000	 0.062877
3.008000	 0.114615
3.026000	 -0.014112
3.044000	 0.125656
3.062000	 0.059260
3.080000	 0.084233
3.098000	 0.149049
3.116000	 0.088551
3.134000	 0.039685
3.152000	 0.033906
3.170000	 -0.021926
3.188000	 0.060337
3.206000	 0.034667
3.224000	 -0.078146
3.242000	 -0.102997
3.260000	 0.009318
3.278000	 0.025392
3.296000	 0.039651
3.314000	 0.006346
3.332000	 0.033957
3.350000	 0.093388
3.368000	 0.193307
3.386000	 0.120187
3.404000	 0.130322
3.422000	 0.004771
3.440000	 0.086849
3.458000	 0.032969
3.476000	 0.043143
3.494000	 -0.000353
3.512000	 -0.013447
3.530000	 0.029869
3.548000	 0.032025
3.566000	 0.037752
3.584000	 -0.063151
3.602000	 0.054358
3.620000	 -0.038158
3.638000	 -0.025591
3.656000	 0.144249
3.674000	 0.187748
3.692000	 0.062193
3.710000	 0.041932
3.728000	 0.069679
3.746000	 0.142898
3.764000	 0.122678
3.782000	 0.080783
3.800000	 0.025965
3.818000	 0.023976
3.836000	 0.066447
3.854000	 0.031105
3.872000	 0.059000
3.890000	 0.145535
3.908000	 0.169617
3.926000	 0.033719
3.944000	 0.087453
3.962000	 -0.106129
3.980000	 -0.023625
3.998000	 0.114648
4.016000	 -0.079933
4.034000	 -0.108491
4.052000	 -0.067695
4.070000	 0.018404
4.088000	 -0.065164
4.106000	 0.239142
4.124000	 0.063256
4.141999	 0.202062
4.160000	 0.082870
4.178000	 0.031770
4.196000	 0.032915
4.214000	 0.089622
4.232000	 0.077440
4.250000	 0.063944
4.268000	 0.048758
4.286000	 0.082690
4.304000	 0.128229
4.322000	 0.193491
4.340000	 0.185463
4.358000	 0.261280
4.375999	 0.426920
4.394000	 0.438507
4.412000	 0.662966
4.430000	 0.729344
4.448000	 0.952729
4.466000	 1.195536
4.484000	 1.521146
4.502000	 1.796652
4.520000	 2.268502
4.538000	 2.752803
4.556000	 3.248389
4.574000	 3.699654
4.592000	 4.474006
4.609999	 5.102083
4.628000	 5.839765
4.646000	 6.606366
4.664000	 7.509255
4.682000	 8.389429
4.700000	 9.365125
4.718000	 10.2378
4.736000	 11.2439
4.754000	 12.1426
4.772000	 13.0276
4.790000	 14.0532
4.808000	 15.0348
4.826000	 15.9351
4.843999	 16.7643
4.862000	 17.7146
4.880000	 18.5934
4.898000	 19.3875
4.916000	 20.1904
4.934000	 21.0071
4.952000	 21.7099
4.970000	 22.4364
4.988000	 23.0921
5.006000	 23.7126
5.024000	 24.305
5.042000	 24.9002
5.060000	 25.3486
5.077999	 25.9082
5.096000	 26.3107
5.114000	 26.7928
5.132000	 27.2463
5.150000	 27.6447
5.168000	 28.0376
5.186000	 28.3363
5.204000	 28.6424
5.222000	 28.9309
5.240000	 29.1498
5.258000	 29.3203
5.276000	 29.5596
5.294000	 29.7752
5.312000	 30.1158
5.330000	 30.3493
5.348000	 30.5886
5.366000	 30.7166
5.384000	 30.8743
5.402000	 30.9348
5.420000	 30.961
5.438000	 31.1386
5.456000	 31.3265
5.474000	 31.5222
5.492000	 31.5759
5.510000	 31.6234
5.528000	 31.7348
5.546000	 31.839
5.564000	 31.9552
5.582000	 32.0306
5.600000	 32.1927
5.618000	 32.2216
5.636000	 32.2327
5.654000	 32.2093
5.672000	 32.2181
5.690000	 32.2341
5.708000	 32.3066
5.726000	 32.3798
5.744000	 32.431
5.762000	 32.4874
5.780000	 32.6243
5.798000	 32.7679
5.816000	 32.827
5.834000	 32.7514
5.852000	 32.7469
5.870000	 32.6736
5.888000	 32.6189
5.906000	 32.7418
5.923999	 32.8566
5.942000	 32.8743
5.960000	 32.8394
5.978000	 32.7829
5.996000	 32.7028
6.014000	 32.6282
6.032000	 32.6273
6.050000	 32.7175
6.068000	 32.7935
6.086000	 32.7966
6.104000	 32.8635
6.122000	 32.9088
6.140000	 32.9014
6.158000	 32.8752
6.176000	 32.7794
6.194000	 32.7067
6.212000	 32.6893
6.230000	 32.6467
6.248000	 32.6648
6.266000	 32.809
6.284000	 32.9171
6.302000	 32.9776
6.320000	 32.939
6.338000	 32.7796
6.356000	 32.7297
6.374000	 32.7044
6.392000	 32.6211
6.410000	 32.5999
6.428000	 32.597
6.446000	 32.6876
6.464000	 32.8899
6.482000	 33.013
6.500000	 32.991
6.518000	 32.9284
6.536000	 32.8229
6.554000	 32.6558
6.572000	 32.5399
6.590000	 32.495
6.608000	 32.4947
6.626000	 32.5545
6.644000	 32.6432
6.662000	 32.6868
6.680000	 32.6642
6.698000	 32.6315
6.716000	 32.6594
6.734000	 32.6746
6.752000	 32.6299
6.770000	 32.583
6.788000	 32.5463
6.806000	 32.5107
6.824000	 32.4397
6.842000	 32.3326
6.860000	 32.3069
6.878000	 32.3955
6.896000	 32.4993
6.914000	 32.5939
6.932000	 32.7036
6.950000	 32.7662
6.968000	 32.7223
6.986000	 32.6083
7.004000	 32.4822
7.022000	 32.38
7.040000	 32.2932
7.058000	 32.2038
7.076000	 32.1588
7.094000	 32.2035
7.112000	 32.3143
7.130000	 32.414
7.148000	 32.4439
7.166000	 32.4403
7.184000	 32.4704
7.202000	 32.5186
7.220000	 32.5103
7.238000	 32.4322
7.256000	 32.3433
7.274000	 32.2529
7.292000	 32.1449
7.310000	 32.063
7.328000	 32.0315
7.346000	 32.028
7.364000	 32.0789
7.382000	 32.2069
7.400000	 32.332
7.418000	 32.3775
7.436000	 32.3789
7.454000	 32.3888
7.472000	 32.392
7.490000	 32.3557
7.508000	 32.2796
7.526000	 32.1959
7.544000	 32.1419
7.562000	 32.1072
7.580000	 32.043
7.598000	 31.9621
7.616000	 31.9415
7.634000	 31.9886
7.652000	 32.0402
7.670000	 32.0832
7.688000	 32.1452
7.706000	 32.2088
7.724000	 32.2328
7.742000	 32.2162
7.760000	 32.201
7.778000	 32.2121
7.796000	 32.2112
7.814000	 32.1498
7.832000	 32.0413
7.850000	 31.9373
7.868000	 31.8694
7.886000	 31.8405
7.904000	 31.8357
7.922000	 31.8379
7.940000	 31.8465
7.958000	 31.8666
7.976000	 31.8998
7.994000	 31.9548
8.012000	 32.0303
8.030000	 32.088
8.048000	 32.094
8.065999	 32.067
8.084000	 32.0409
8.102000	 32.0084
8.120000	 31.939
8.138000	 31.833
8.155999	 31.7273
8.173999	 31.6598
8.192000	 31.6352
8.210000	 31.6254
8.228000	 31.606
8.246000	 31.5856
8.263999	 31.5862
8.282000	 31.6098
8.300000	 31.6379
8.318000	 31.6606
8.336000	 31.6868
8.353999	 31.7206
8.372000	 31.7511
8.390000	 31.773
8.408000	 31.7951
8.426000	 31.8223
8.443999	 31.842
8.462000	 31.8247
8.480000	 31.7449
8.498000	 31.6112
8.516000	 31.4676
8.533999	 31.3577
8.552000	 31.2928
8.570000	 31.2541
8.588000	 31.2201
8.606000	 31.1951
8.624000	 31.2046
8.641999	 31.2633
8.660000	 31.3553
8.678000	 31.446
8.696000	 31.5097
8.714000	 31.547
8.731999	 31.5801
8.750000	 31.6329
8.768000	 31.7045
8.786000	 31.7627
8.804000	 31.7676
8.821999	 31.708
8.840000	 31.6096
8.858000	 31.5075
8.876000	 31.4141
8.894000	 31.3194
8.911999	 31.213
8.930000	 31.0982
8.948000	 30.9857
8.966000	 30.8836
8.984000	 30.8006
9.001999	 30.7459
9.020000	 30.7256
9.038000	 30.7352
9.056000	 30.7703
9.074000	 30.8392
9.092000	 30.9592
9.109999	 31.1308
9.128000	 31.3205
9.146000	 31.4735
9.164000	 31.5491
9.182000	 31.5403
9.199999	 31.4669
9.218000	 31.3524
9.236000	 31.2157
9.254000	 31.0756
9.272000	 30.9528
9.289999	 30.8601
9.308000	 30.7949
9.326000	 30.745
9.344000	 30.7024
9.362000	 30.6709
9.379999	 30.6613
9.398000	 30.6782
9.416000	 30.7163
9.434000	 30.7617
9.452000	 30.8015
9.469999	 30.8305
9.488000	 30.8545
9.506000	 30.8847
9.524000	 30.928
9.542000	 30.9813
9.560000	 31.0341
9.577999	 31.0758
9.596000	 31.1007
9.614000	 31.1054
9.632000	 31.0848
9.650000	 31.0338
9.667999	 30.9529
9.686000	 30.8507
9.704000	 30.7407
9.722000	 30.6332
9.740000	 30.533
9.757999	 30.4419
9.776000	 30.364
9.794000	 30.3064
9.812000	 30.2742
9.830000	 30.2653
9.847999	 30.2679
9.866000	 30.2662
9.884000	 30.2474
9.902000	 30.2097
9.920000	 30.1654
9.937999	 30.1372
9.956000	 30.1489
9.974000	 30.2124
9.992000	 30.3209
10.01	30.4509
10.028	30.5736
10.046	30.6673
10.064	30.7234
10.082	30.744
10.1	30.7352
10.118	30.7028
10.136	30.6499
10.154	30.5795
10.172	30.4967
10.19	30.4094
10.208	30.3268
10.226	30.2531
10.244	30.1866
10.262	30.1166
10.28	30.031
10.298	29.9244
10.316	29.8035
10.334	29.6865
10.352	29.5944
10.37	29.5407
10.388	29.5269
10.406	29.5432
10.424	29.5768
10.442	29.6195
10.46	29.6703
10.478	29.7334
10.496	29.8114
10.514	29.9002
10.532	29.988
10.55	30.0594
10.568	30.1023
10.586	30.1139
10.604	30.1011
10.622	30.0765
10.64	30.0503
10.658	30.0267
10.676	30.0024
10.694	29.9724
10.712	29.9345
10.73	29.8918
10.748	29.8505
10.766	29.8152
10.784	29.7853
10.802	29.7554
10.82	29.7191
10.838	29.6713
10.856	29.611
10.874	29.5393
10.892	29.4579
10.91	29.3685
10.928	29.2737
10.946	29.1791
10.964	29.0935
10.982	29.0267
11	28.9864
11.018	28.975
11.036	28.9908
11.054	29.0293
11.072	29.0849
11.09	29.1508
11.108	29.219
11.126	29.28
11.144	29.3266
11.162	29.3552
11.18	29.3684
11.198	29.3741
11.216	29.3812
11.234	29.3952
11.252	29.416
11.27	29.4369
11.288	29.4474
11.306	29.4384
11.324	29.404
11.342	29.3426
11.36	29.2576
11.378	29.1551
11.396	29.0429
11.414	28.9299
11.432	28.824
11.45	28.7311
11.468	28.6552
11.486	28.5972
11.504	28.5547
11.522	28.5234
11.54	28.4989
11.558	28.4761
11.576	28.4522
11.594	28.4267
11.612	28.4001
11.63	28.3752
11.648	28.3552
11.666	28.3437
11.684	28.3436
11.702	28.3567
11.72	28.3834
11.738	28.4232
11.756	28.4742
11.774	28.5334
11.792	28.5966
11.81	28.6587
11.828	28.7147
11.846	28.7598
11.864	28.7907
11.882	28.8058
11.9	28.8045
11.918	28.7873
11.936	28.7551
11.954	28.71
11.972	28.6545
11.99	28.5924
12.008	28.5282
12.026	28.4656
12.044	28.4075
12.062	28.3537
12.08	28.3012
12.098	28.2461
12.116	28.185
12.134	28.1168
12.152	28.0436
12.17	27.9694
12.188	27.8986
12.206	27.8336
12.224	27.775
12.242	27.722
12.26	27.6733
12.278	27.6285
12.296	27.5896
12.314	27.5597
12.332	27.5421
12.35	27.5392
12.368	27.5513
12.386	27.5758
12.404	27.6082
12.422	27.6437
12.44	27.6771
12.458	27.7054
12.476	27.7273
12.494	27.7434
12.512	27.7564
12.53	27.7695
12.548	27.7858
12.566	27.8076
12.584	27.8352
12.602	27.8667
12.62	27.8981
12.638	27.9236
12.656	27.9372
12.674	27.9345
12.692	27.9139
12.71	27.8771
12.728	27.8286
12.746	27.7752
12.764	27.7225
12.782	27.6738
12.8	27.6283
12.818	27.5826
12.836	27.5313
12.854	27.4701
12.872	27.3975
12.89	27.3161
12.908	27.2315
12.926	27.1511
12.944	27.0815
12.962	27.0257
12.98	26.9825
12.998	26.9465
13.016	26.9101
13.034	26.867
13.052	26.8132
13.07	26.7496
13.088	26.681
13.106	26.6151
13.124	26.5596
13.142	26.5207
13.16	26.5013
13.178	26.5009
13.196	26.5157
13.214	26.5406
13.232	26.5697
13.25	26.5987
13.268	26.6246
13.286	26.6468
13.304	26.6666
13.322	26.6862
13.34	26.7079
13.358	26.7337
13.376	26.7643
13.394	26.7993
13.412	26.8371
13.43	26.8751
13.448	26.9102
13.466	26.939
13.484	26.9591
13.502	26.9684
13.52	26.9662
13.538	26.9531
13.556	26.9309
13.574	26.9022
13.592	26.87
13.61	26.8375
13.628	26.8074
13.646	26.7818
13.664	26.7614
13.682	26.7462
13.7	26.7348
13.718	26.7246
13.736	26.7123
13.754	26.6946
13.772	26.6686
13.79	26.6325
13.808	26.5861
13.826	26.5306
13.844	26.4686
13.862	26.4034
13.88	26.3383
13.898	26.2764
13.916	26.2194
13.934	26.168
13.952	26.1222
13.97	26.0808
13.988	26.0426
14.006	26.0066
14.024	25.9727
14.042	25.941
14.06	25.9125
14.078	25.8884
14.096	25.87
14.114	25.8577
14.132	25.8515
14.15	25.8502
14.168	25.8523
14.186	25.8563
14.204	25.8603
14.222	25.8631
14.24	25.8643
14.258	25.8645
14.276	25.8645
14.294	25.8655
14.312	25.8688
14.33	25.8755
14.348	25.8859
14.366	25.8995
14.384	25.9151
14.402	25.931
14.42	25.9455
14.438	25.9571
14.456	25.9649
14.474	25.9688
14.492	25.9694
14.51	25.9683
14.528	25.9674
14.546	25.9684
14.564	25.9721
14.582	25.9785
14.6	25.987
14.618	25.9955
14.636	26.001
14.654	25.9999
14.672	25.9893
14.69	25.9672
14.708	25.9321
14.726	25.8842
14.744	25.8243
14.762	25.755
14.78	25.6791
14.798	25.5991
14.816	25.5169
14.834	25.4336
14.852	25.3497
14.87	25.2647
14.888	25.1778
14.906	25.0885
14.924	24.9965
14.942	24.9024
14.96	24.8081
14.978	24.7159
14.996	24.6287
15.014	24.5493
15.032	24.4803
15.05	24.4231
15.068	24.3781
15.086	24.3444
15.104	24.3203
15.122	24.3029
15.14	24.2894
15.158	24.2778
15.176	24.2667
15.194	24.2551
15.212	24.2438
15.23	24.2342
15.248	24.2283
15.266	24.2285
15.284	24.2366
15.302	24.2545
15.32	24.283
15.338	24.3223
15.356	24.3724
15.374	24.4319
15.392	24.4993
15.41	24.5728
15.428	24.6503
15.446	24.7287
15.464	24.8056
15.482	24.8786
15.5	24.9449
15.518	25.0013
15.536	25.0458
15.554	25.0768
15.572	25.093
15.59	25.0943
15.608	25.0811
15.626	25.0548
15.644	25.0171
15.662	24.9715
15.68	24.921
15.698	24.8682
15.716	24.8161
15.734	24.7668
15.752	24.7216
15.77	24.6815
15.788	24.6466
15.806	24.6162
15.824	24.5895
15.842	24.5657
15.86	24.5435
15.878	24.5221
15.896	24.5007
15.914	24.4783
15.932	24.4545
15.95	24.4286
15.968	24.4001
15.986	24.3684
16.004	24.3332
16.022	24.2941
16.04	24.2507
16.058	24.2028
16.076	24.1502
16.094	24.0931
16.112	24.0319
16.13	23.9671
16.148	23.8994
16.166	23.8303
16.184	23.7612
16.202	23.6937
16.22	23.6306
16.238	23.5732
16.256	23.5232
16.274	23.4825
16.292	23.452
16.31	23.4322
16.328	23.4231
16.346	23.4236
16.364	23.4326
16.382	23.4478
16.4	23.467
16.418	23.4884
16.436	23.5092
16.454	23.5277
16.472	23.5427
16.49	23.5529
16.508	23.5588
16.526	23.5603
16.544	23.5591
16.562	23.5564
16.58	23.5536
16.598	23.5526
16.616	23.5544
16.634	23.5598
16.652	23.5693
16.67	23.5824
16.688	23.599
16.706	23.6177
16.724	23.6378
16.742	23.6581
16.76	23.6777
16.778	23.696
16.796	23.7123
16.814	23.7265
16.832	23.7386
16.85	23.7487
16.868	23.7569
16.886	23.7633
16.904	23.7679
16.922	23.7706
16.94	23.7712
16.958	23.7691
16.976	23.7641
16.994	23.7555
17.012	23.7429
17.03	23.7258
17.048	23.7038
17.066	23.6768
17.084	23.6446
17.102	23.6074
17.12	23.5654
17.138	23.5191
17.156	23.469
17.174	23.4156
17.192	23.3596
17.21	23.3016
17.228	23.2425
17.246	23.1829
17.264	23.1234
17.282	23.0649
17.3	23.0078
17.318	22.953
17.336	22.9011
17.354	22.8526
17.372	22.8081
17.39	22.7679
17.408	22.7325
17.426	22.7018
17.444	22.6758
17.462	22.6538
17.48	22.6356
17.498	22.6202
17.516	22.6069
17.534	22.5949
17.552	22.5827
17.57	22.5699
17.588	22.5549
17.606	22.5374
17.624	22.5164
17.642	22.4919
17.66	22.4634
17.678	22.4313
17.696	22.3958
17.714	22.3574
17.732	22.3169
17.75	22.2748
17.768	22.2324
17.786	22.1898
17.804	22.1482
17.822	22.1078
17.84	22.0692
17.858	22.0323
17.876	21.9971
17.894	21.9633
17.912	21.9309
17.93	21.8992
17.948	21.8683
17.966	21.838
17.984	21.8084
18.002	21.7797
18.02	21.7528
18.038	21.7281
18.056	21.707
18.074	21.6899
18.092	21.6787
18.11	21.6734
18.128	21.6757
18.146	21.6852
18.164	21.7024
18.182	21.7265
18.2	21.757
18.218	21.7917
18.236	21.8297
18.254	21.8674
18.272	21.9041
18.29	21.9355
18.308	21.9613
18.326	21.9775
18.344	21.9842
18.362	21.9791
18.38	21.9627
18.398	21.9348
18.416	21.8968
18.434	21.8498
18.452	21.7969
18.47	21.7395
18.488	21.6818
18.506	21.625
18.524	21.5733
18.542	21.5275
18.56	21.4911
18.578	21.4643
18.596	21.4487
18.614	21.4441
18.632	21.45
18.65	21.466
18.668	21.4897
18.686	21.5205
18.704	21.5551
18.722	21.5929
18.74	21.6301
18.758	21.6665
18.776	21.6991
18.794	21.7274
18.812	21.7495
18.83	21.7654
18.848	21.774
18.866	21.7757
18.884	21.7701
18.902	21.7576
18.92	21.7385
18.938	21.713
18.956	21.6818
18.974	21.6451
18.992	21.6034
19.01	21.5569
19.028	21.5062
19.046	21.4513
19.064	21.3924
19.082	21.3301
19.1	21.2646
19.118	21.1967
19.136	21.127
19.154	21.0562
19.172	20.9855
19.19	20.9155
19.208	20.8478
19.226	20.7827
19.244	20.7222
19.262	20.6665
19.28	20.6174
19.298	20.5749
19.316	20.5404
19.334	20.5138
19.352	20.4958
19.37	20.4864
19.388	20.4851
19.406	20.4921
19.424	20.506
19.442	20.5271
19.46	20.5536
19.478	20.5853
19.496	20.6204
19.514	20.6586
19.532	20.6981
19.55	20.738
19.568	20.7773
19.586	20.8146
19.604	20.8494
19.622	20.8799
19.64	20.9062
19.658	20.9267
19.676	20.9414
19.694	20.9491
19.712	20.9499
19.73	20.9435
19.748	20.9297
19.766	20.909
19.784	20.881
19.802	20.8469
19.82	20.8071
19.838	20.7625
19.856	20.7144
19.874	20.6633
19.892	20.612
19.91	20.5601
19.928	20.5113
19.946	20.4651
19.964	20.4247
19.982	20.3904
20	20.3638
20.018	20.3461
20.036	20.3373
20.054	20.3388
20.072	20.35
20.09	20.3712
20.108	20.4022
20.126	20.4412
20.144	20.4888
20.162	20.5421
20.18	20.6008
20.198	20.663
20.216	20.7262
20.234	20.7904
20.252	20.852
20.27	20.9115
20.288	20.9659
20.306	21.0151
20.324	21.058
20.342	21.0933
20.36	21.1216
20.378	21.1424
20.396	21.1557
20.414	21.1625
20.432	21.1624
20.45	21.1571
20.468	21.1469
20.486	21.1325
20.504	21.1155
20.522	21.0956
20.54	21.0746
20.558	21.0526
20.576	21.0303
20.594	21.0083
20.612	20.9865
20.63	20.9656
20.648	20.9454
20.666	20.9259
20.684	20.907
20.702	20.8886
20.72	20.8708
20.738	20.8534
20.756	20.8363
20.774	20.8193
20.792	20.8027
20.81	20.7866
20.828	20.7709
20.846	20.7557
20.864	20.741
20.882	20.7272
20.9	20.7144
20.918	20.7023
20.936	20.691
20.954	20.6802
20.972	20.6694
20.99	20.6587
21.008	20.6468
21.026	20.6334
21.044	20.6181
21.062	20.5991
21.08	20.577
21.098	20.5498
21.116	20.5173
21.134	20.4792
21.152	20.4344
21.17	20.383
21.188	20.3251
21.206	20.2603
21.224	20.1894
21.242	20.1132
21.26	20.0312
21.278	19.9462
21.296	19.8581
21.314	19.7682
21.332	19.6794
21.35	19.5908
21.368	19.5054
21.386	19.4242
21.404	19.3472
21.422	19.277
21.44	19.2128
21.458	19.1555
21.476	19.1056
21.494	19.0626
21.512	19.0256
21.53	18.9952
21.548	18.9691
21.566	18.9462
21.584	18.9267
21.602	18.9068
21.62	18.8873
21.638	18.866
21.656	18.84
21.674	18.8105
21.692	18.7751
21.71	18.733
21.728	18.6847
21.746	18.6293
21.764	18.5666
21.782	18.4982
21.8	18.4245
21.818	18.3454
21.836	18.2645
21.854	18.1813
21.872	18.0974
21.89	18.0167
21.908	17.9377
21.926	17.8634
21.944	17.796
21.962	17.7344
21.98	17.6811
21.998	17.6365
22.016	17.6003
22.034	17.5728
22.052	17.5542
22.07	17.5432
22.088	17.539
22.106	17.542
22.124	17.5492
22.142	17.5605
22.16	17.5753
22.178	17.5902
22.196	17.6061
22.214	17.6214
22.232	17.6337
22.25	17.6439
22.268	17.6508
22.286	17.6532
22.304	17.6517
22.322	17.6464
22.34	17.6368
22.358	17.6235
22.376	17.6079
22.394	17.5893
22.412	17.5689
22.43	17.5484
22.448	17.5269
22.466	17.5063
22.484	17.4879
22.502	17.471
22.52	17.4573
22.538	17.4475
22.556	17.4412
22.574	17.4394
22.592	17.4425
22.61	17.4502
22.628	17.4626
22.646	17.48
22.664	17.5018
22.682	17.5274
22.7	17.5572
22.718	17.5903
22.736	17.6254
22.754	17.6633
22.772	17.7027
22.79	17.7426
22.808	17.7836
22.826	17.8244
22.844	17.8645
22.862	17.9043
22.88	17.9426
22.898	17.9789
22.916	18.0135
22.934	18.046
22.952	18.0761
22.97	18.104
22.988	18.1296
23.006	18.1527
23.024	18.1735
23.042	18.1927
23.06	18.2102
23.078	18.2261
23.096	18.2412
23.114	18.2553
23.132	18.2687
23.15	18.2824
23.168	18.296
23.186	18.31
23.204	18.326
23.222	18.3439
23.24	18.3638
23.258	18.3865
23.276	18.4121
23.294	18.4404
23.312	18.4713
23.33	18.5055
23.348	18.5421
23.366	18.5798
23.384	18.6191
23.402	18.6593
23.42	18.6981
23.438	18.7359
23.456	18.7723
23.474	18.804
23.492	18.8309
23.51	18.8533
23.528	18.8686
23.546	18.8763
23.564	18.877
23.582	18.8685
23.6	18.8497
23.618	18.8217
23.636	18.783
23.654	18.7328
23.672	18.6716
23.69	18.5997
23.708	18.5171
23.726	18.4233
23.744	18.3202
23.762	18.209
23.78	18.0882
23.798	17.9607
23.816	17.8295
23.834	17.6924
23.852	17.5523
23.87	17.4137
23.888	17.2748
23.906	17.1372
23.924	17.0056
23.942	16.8798
23.96	16.7595
23.978	16.6484
23.996	16.5477
24.014	16.456
24.032	16.3762
24.05	16.3101
24.068	16.2563
24.086	16.2159
24.104	16.1903
24.122	16.1793
24.14	16.1819
24.158	16.197
24.176	16.2258
24.194	16.2669
24.212	16.317
24.23	16.3764
24.248	16.4455
24.266	16.52
24.284	16.5976
24.302	16.6808
24.32	16.7658
24.338	16.8494
24.356	16.9342
24.374	17.0173
24.392	17.0942
24.41	17.1652
24.428	17.2308
24.446	17.2889
24.464	17.3382
24.482	17.3797
24.5	17.4135
24.518	17.4392
24.536	17.4556
24.554	17.4657
24.572	17.4728
24.59	17.4742
24.608	17.472
24.626	17.4732
24.644	17.4803
24.662	17.4894
24.68	17.5073
24.698	17.5405
24.716	17.5841
24.734	17.642
24.752	17.7207
24.77	17.8218
24.788	17.9426
24.806	18.0846
24.824	18.2494
24.842	18.4376
24.86	18.6455
24.878	18.8694
24.896	19.1143
24.914	19.376
24.932	19.6435
24.95	19.9127
24.968	20.1915
24.986	20.466
25.004	20.7216
25.022	20.9679
25.04	21.1993
25.058	21.3987
25.076	21.5596
25.094	21.6922
25.112	21.7831
25.13	21.8184
25.148	21.8032
25.166	21.7377
25.184	21.6152
25.202	21.431
25.22	21.1881
25.238	20.8902
25.256	20.5405
25.274	20.1317
25.292	19.671
25.31	19.1734
25.328	18.645
25.346	18.0728
25.364	17.4775
25.382	16.8829
25.4	16.2789
25.418	15.6663
25.436	15.0718
25.454	14.5147
25.472	13.9751
25.49	13.4683
25.508	13.018
25.526	12.6279
25.544	12.2867
25.562	12.0104
25.58	11.8141
25.598	11.6918
25.616	11.6424
25.634	11.6721
25.652	11.7861
25.67	11.9829
25.688	12.2565
25.706	12.6007
25.724	13.0197
25.742	13.5138
25.76	14.0678
25.778	14.6677
25.796	15.3259
25.814	16.035
25.832	16.7764
25.85	17.539
25.868	18.3379
25.886	19.1593
25.904	19.9856
25.922	20.8137
25.94	21.6533
25.958	22.4908
25.976	23.3127
25.994	24.1233
26.012	24.9244
26.03	25.707
26.048	26.4632
26.066	27.1975
26.084	27.9097
26.102	28.5969
26.12	29.2568
26.138	29.8917
26.156	30.5009
26.174	31.0834
26.192	31.6392
26.21	32.1691
26.228	32.6722
26.246	33.1471
26.264	33.5955
26.282	34.0176
26.3	34.4095
26.318	34.7675
26.336	35.0959
26.354	35.3934
26.372	35.6523
26.39	35.8659
26.408	36.0404
26.426	36.1736
26.444	36.2579
26.462	36.2871
26.48	36.2686
26.498	36.1986
26.516	36.0698
26.534	35.876
26.552	35.6205
26.57	35.3056
26.588	34.9326
26.606	34.5001
26.624	34.0013
26.642	33.4492
26.66	32.8588
26.678	32.2352
26.696	31.5614
26.714	30.8581
26.732	30.1496
26.75	29.4439
26.768	28.7165
26.786	27.9951
26.804	27.3114
26.822	26.6783
26.84	26.0685
26.858	25.5048
26.876	25.0139
26.894	24.6079
26.912	24.2654
26.93	23.9999
26.948	23.8277
26.966	23.7808
26.984	23.8807
27.002	24.0455
27.02	24.1876
27.028	24.2181