File: Bakgrunnsmateriale/MATLAB/FTIR/ftir_data/LPE453/Mapping_121/LPE453_t81.asc
PE IR       SPECTRUM    SPECTRUM    ASCII       PEDS        1.60
  -1
LPC3BD~1.ASC
17/05/16
21:00:14.00
17/05/16
21:00:40.00
tln
$LPE453_t0081$<tbV0>[5.2,5.2,8.0,0.0,27,1,0]
27.028
64

2002,4.07
MIRTGS : RIGHTBACK : INTERNAL 2
MIR : ON : INTERNAL 2
OPTKBR

0.200000
8
8.000000
FILLER
RATIO
SPECTRUM
UNLOCKED 256

DOUBLE
64
COMBINED
1
0
0

0.002000
RATIO

1
0
TRUE
51149
0
LEFT NOT FITTED RIGHT NOT FITTED 0
NONE
NONE
15600
12
4.427000
51148
TRUE
1 0 8 72 0 0 0 0

15798

#HDR
-1
-1
#GR
µM
%T
2.38419e-05
0.0
2.000000
0.002000
12515
8
31.7959
-15.9125
#DATA
2.000000	 0.067949
2.018000	 -0.069444
2.036000	 0.104376
2.054000	 0.481584
2.072000	 0.093178
2.090000	 0.355531
2.108000	 -0.207046
2.126000	 -0.126183
2.144000	 0.426377
2.162000	 1.135183
2.180000	 0.572089
2.198000	 0.327179
2.216000	 0.293892
2.234000	 -3.125687
2.252000	 -0.669948
2.270000	 0.273556
2.288000	 0.527021
2.306000	 0.555018
2.324000	 0.053993
2.342000	 0.015656
2.360000	 0.342442
2.378000	 -0.045201
2.396000	 -0.044774
2.414000	 0.065379
2.432000	 0.397614
2.450000	 -0.031881
2.468000	 0.146842
2.486000	 -0.045247
2.504000	 0.156762
2.522000	 -0.049545
2.540000	 0.095702
2.558000	 0.167287
2.576000	 0.235786
2.594000	 0.000176
2.612000	 0.059956
2.630000	 0.036242
2.648000	 0.012403
2.666000	 -0.006526
2.684000	 0.171297
2.702000	 0.085542
2.720000	 -0.020389
2.738000	 0.071381
2.756000	 -0.046426
2.774000	 0.159238
2.792000	 0.172478
2.810000	 0.044496
2.828000	 0.094433
2.846000	 -0.063377
2.864000	 0.086275
2.882000	 0.033312
2.900000	 0.159882
2.918000	 0.021602
2.936000	 0.028554
2.954000	 0.075295
2.972000	 -0.004973
2.990000	 0.090678
3.008000	 0.103468
3.026000	 -0.033002
3.044000	 0.057670
3.062000	 0.135216
3.080000	 0.087313
3.098000	 -0.016331
3.116000	 0.148645
3.134000	 0.131405
3.152000	 -0.067916
3.170000	 -0.114332
3.188000	 0.030298
3.206000	 0.040724
3.224000	 -0.056108
3.242000	 0.071728
3.260000	 0.034447
3.278000	 0.057319
3.296000	 0.185466
3.314000	 0.009790
3.332000	 -0.060465
3.350000	 -0.099778
3.368000	 0.158147
3.386000	 0.032347
3.404000	 0.065889
3.422000	 -0.018698
3.440000	 0.062121
3.458000	 -0.020664
3.476000	 0.033872
3.494000	 0.153810
3.512000	 0.039619
3.530000	 -0.022527
3.548000	 0.119124
3.566000	 0.116835
3.584000	 0.010348
3.602000	 0.027836
3.620000	 0.069158
3.638000	 -0.041701
3.656000	 -0.000639
3.674000	 -0.007705
3.692000	 0.033401
3.710000	 0.058516
3.728000	 0.021218
3.746000	 -0.008596
3.764000	 0.076177
3.782000	 0.007216
3.800000	 -0.042218
3.818000	 0.001384
3.836000	 0.117515
3.854000	 0.084822
3.872000	 0.006150
3.890000	 -0.043859
3.908000	 -0.022377
3.926000	 0.000764
3.944000	 0.024052
3.962000	 0.076253
3.980000	 0.157484
3.998000	 -0.071297
4.016000	 -0.139611
4.034000	 -0.014467
4.052000	 0.007263
4.070000	 0.055780
4.088000	 -0.003156
4.106000	 -0.048979
4.124000	 0.021985
4.141999	 -0.048702
4.160000	 0.011885
4.178000	 -0.027612
4.196000	 0.055796
4.214000	 0.044363
4.232000	 0.094662
4.250000	 0.097119
4.268000	 0.058166
4.286000	 -0.144871
4.304000	 0.047558
4.322000	 0.183999
4.340000	 0.220974
4.358000	 0.163254
4.375999	 0.324776
4.394000	 0.425759
4.412000	 0.564505
4.430000	 0.655870
4.448000	 0.903472
4.466000	 1.100414
4.484000	 1.328528
4.502000	 1.729184
4.520000	 2.169961
4.538000	 2.622604
4.556000	 3.102133
4.574000	 3.678483
4.592000	 4.306941
4.609999	 5.026549
4.628000	 5.690006
4.646000	 6.517069
4.664000	 7.253148
4.682000	 8.158065
4.700000	 9.028809
4.718000	 9.891388
4.736000	 10.8494
4.754000	 11.7313
4.772000	 12.6658
4.790000	 13.5493
4.808000	 14.4907
4.826000	 15.3375
4.843999	 16.3263
4.862000	 17.1117
4.880000	 18.0184
4.898000	 18.7737
4.916000	 19.5622
4.934000	 20.3595
4.952000	 21.103
4.970000	 21.6978
4.988000	 22.3461
5.006000	 22.925
5.024000	 23.5248
5.042000	 24.0702
5.060000	 24.5776
5.077999	 25.0587
5.096000	 25.571
5.114000	 25.8292
5.132000	 26.2787
5.150000	 26.6677
5.168000	 27.0209
5.186000	 27.3437
5.204000	 27.6472
5.222000	 27.979
5.240000	 28.2113
5.258000	 28.4295
5.276000	 28.7259
5.294000	 28.896
5.312000	 29.1529
5.330000	 29.3941
5.348000	 29.4977
5.366000	 29.6193
5.384000	 29.8087
5.402000	 29.9114
5.420000	 30.0914
5.438000	 30.2342
5.456000	 30.38
5.474000	 30.4851
5.492000	 30.4749
5.510000	 30.5772
5.528000	 30.697
5.546000	 30.8005
5.564000	 30.9682
5.582000	 30.9807
5.600000	 30.9753
5.618000	 31.0188
5.636000	 31.1351
5.654000	 31.2646
5.672000	 31.3486
5.690000	 31.3346
5.708000	 31.2992
5.726000	 31.3624
5.744000	 31.4293
5.762000	 31.4436
5.780000	 31.4079
5.798000	 31.3875
5.816000	 31.3881
5.834000	 31.4456
5.852000	 31.5467
5.870000	 31.6447
5.888000	 31.6869
5.906000	 31.6957
5.923999	 31.7068
5.942000	 31.6561
5.960000	 31.6051
5.978000	 31.6317
5.996000	 31.6947
6.014000	 31.7705
6.032000	 31.7926
6.050000	 31.7536
6.068000	 31.7085
6.086000	 31.6738
6.104000	 31.6929
6.122000	 31.6491
6.140000	 31.62
6.158000	 31.6525
6.176000	 31.6188
6.194000	 31.5726
6.212000	 31.5999
6.230000	 31.6399
6.248000	 31.678
6.266000	 31.672
6.284000	 31.6753
6.302000	 31.672
6.320000	 31.6493
6.338000	 31.6974
6.356000	 31.7281
6.374000	 31.6665
6.392000	 31.6481
6.410000	 31.6753
6.428000	 31.655
6.446000	 31.6034
6.464000	 31.592
6.482000	 31.6528
6.500000	 31.6899
6.518000	 31.6293
6.536000	 31.5676
6.554000	 31.5188
6.572000	 31.4549
6.590000	 31.3855
6.608000	 31.3585
6.626000	 31.4234
6.644000	 31.4757
6.662000	 31.4407
6.680000	 31.3494
6.698000	 31.2918
6.716000	 31.344
6.734000	 31.3709
6.752000	 31.3276
6.770000	 31.3333
6.788000	 31.3767
6.806000	 31.3727
6.824000	 31.3341
6.842000	 31.2684
6.860000	 31.1754
6.878000	 31.0741
6.896000	 31.0287
6.914000	 31.0851
6.932000	 31.1596
6.950000	 31.2027
6.968000	 31.1951
6.986000	 31.1692
7.004000	 31.2282
7.022000	 31.3116
7.040000	 31.3023
7.058000	 31.2474
7.076000	 31.2066
7.094000	 31.195
7.112000	 31.2152
7.130000	 31.2165
7.148000	 31.1687
7.166000	 31.1038
7.184000	 31.0677
7.202000	 31.0927
7.220000	 31.1651
7.238000	 31.211
7.256000	 31.1572
7.274000	 31.0499
7.292000	 31.0068
7.310000	 31.0313
7.328000	 31.0335
7.346000	 30.994
7.364000	 30.9548
7.382000	 30.9307
7.400000	 30.9186
7.418000	 30.9197
7.436000	 30.9252
7.454000	 30.9419
7.472000	 30.9963
7.490000	 31.0627
7.508000	 31.0608
7.526000	 30.9709
7.544000	 30.874
7.562000	 30.8365
7.580000	 30.8353
7.598000	 30.8252
7.616000	 30.8
7.634000	 30.7755
7.652000	 30.7616
7.670000	 30.7612
7.688000	 30.776
7.706000	 30.8043
7.724000	 30.8288
7.742000	 30.8227
7.760000	 30.7736
7.778000	 30.7079
7.796000	 30.6779
7.814000	 30.6934
7.832000	 30.7019
7.850000	 30.6755
7.868000	 30.6552
7.886000	 30.6613
7.904000	 30.6436
7.922000	 30.5794
7.940000	 30.5331
7.958000	 30.5582
7.976000	 30.6169
7.994000	 30.6504
8.012000	 30.6602
8.030000	 30.6711
8.048000	 30.6633
8.065999	 30.6064
8.084000	 30.5217
8.102000	 30.4557
8.120000	 30.4192
8.138000	 30.3957
8.155999	 30.3791
8.173999	 30.3756
8.192000	 30.3817
8.210000	 30.3851
8.228000	 30.381
8.246000	 30.367
8.263999	 30.3344
8.282000	 30.2858
8.300000	 30.2507
8.318000	 30.2661
8.336000	 30.3369
8.353999	 30.415
8.372000	 30.4377
8.390000	 30.3994
8.408000	 30.3492
8.426000	 30.3221
8.443999	 30.3095
8.462000	 30.2947
8.480000	 30.2796
8.498000	 30.2652
8.516000	 30.2386
8.533999	 30.1917
8.552000	 30.1309
8.570000	 30.0693
8.588000	 30.0171
8.606000	 29.9828
8.624000	 29.9689
8.641999	 29.9677
8.660000	 29.9633
8.678000	 29.9454
8.696000	 29.9239
8.714000	 29.9254
8.731999	 29.9697
8.750000	 30.0409
8.768000	 30.0932
8.786000	 30.0905
8.804000	 30.0378
8.821999	 29.9688
8.840000	 29.9117
8.858000	 29.8679
8.876000	 29.8255
8.894000	 29.7847
8.911999	 29.7616
8.930000	 29.766
8.948000	 29.7826
8.966000	 29.7836
8.984000	 29.761
9.001999	 29.7346
9.020000	 29.7208
9.038000	 29.7063
9.056000	 29.6651
9.074000	 29.5961
9.092000	 29.5306
9.109999	 29.5027
9.128000	 29.5201
9.146000	 29.5636
9.164000	 29.607
9.182000	 29.6313
9.199999	 29.6273
9.218000	 29.5955
9.236000	 29.5483
9.254000	 29.5037
9.272000	 29.4744
9.289999	 29.4588
9.308000	 29.4435
9.326000	 29.4177
9.344000	 29.3858
9.362000	 29.3666
9.379999	 29.3768
9.398000	 29.4162
9.416000	 29.467
9.434000	 29.5069
9.452000	 29.521
9.469999	 29.5024
9.488000	 29.449
9.506000	 29.3666
9.524000	 29.2754
9.542000	 29.2045
9.560000	 29.1756
9.577999	 29.1906
9.596000	 29.2334
9.614000	 29.2787
9.632000	 29.302
9.650000	 29.2869
9.667999	 29.2314
9.686000	 29.1499
9.704000	 29.0669
9.722000	 29.0052
9.740000	 28.9748
9.757999	 28.9701
9.776000	 28.9762
9.794000	 28.9796
9.812000	 28.974
9.830000	 28.9627
9.847999	 28.9548
9.866000	 28.9583
9.884000	 28.9742
9.902000	 28.9942
9.920000	 29.0054
9.937999	 28.9991
9.956000	 28.9779
9.974000	 28.9542
9.992000	 28.9414
10.01	28.9444
10.028	28.953
10.046	28.9484
10.064	28.9145
10.082	28.8477
10.1	28.7587
10.118	28.6677
10.136	28.5949
10.154	28.5527
10.172	28.5448
10.19	28.5663
10.208	28.6067
10.226	28.6534
10.244	28.6938
10.262	28.7166
10.28	28.7144
10.298	28.6837
10.316	28.627
10.334	28.5551
10.352	28.4858
10.37	28.4396
10.388	28.4301
10.406	28.457
10.424	28.505
10.442	28.5504
10.46	28.5734
10.478	28.5655
10.496	28.5319
10.514	28.4844
10.532	28.4341
10.55	28.3863
10.568	28.34
10.586	28.2909
10.604	28.2361
10.622	28.1752
10.64	28.1126
10.658	28.0555
10.676	28.0131
10.694	27.991
10.712	27.9892
10.73	28.0005
10.748	28.0141
10.766	28.0213
10.784	28.0198
10.802	28.0143
10.82	28.0119
10.838	28.0152
10.856	28.019
10.874	28.0123
10.892	27.9859
10.91	27.9383
10.928	27.8787
10.946	27.8224
10.964	27.7822
10.982	27.7632
11	27.7606
11.018	27.7655
11.036	27.7714
11.054	27.7774
11.072	27.7871
11.09	27.8033
11.108	27.8222
11.126	27.8332
11.144	27.8244
11.162	27.788
11.18	27.7252
11.198	27.647
11.216	27.5698
11.234	27.5086
11.252	27.4728
11.27	27.4627
11.288	27.4696
11.306	27.4816
11.324	27.4873
11.342	27.481
11.36	27.464
11.378	27.4427
11.396	27.4237
11.414	27.4109
11.432	27.4015
11.45	27.3883
11.468	27.3631
11.486	27.3223
11.504	27.2694
11.522	27.2145
11.54	27.1693
11.558	27.1428
11.576	27.1378
11.594	27.1508
11.612	27.1735
11.63	27.1963
11.648	27.212
11.666	27.2166
11.684	27.2103
11.702	27.1961
11.72	27.1781
11.738	27.1611
11.756	27.1485
11.774	27.1418
11.792	27.1402
11.81	27.1408
11.828	27.1392
11.846	27.1303
11.864	27.1096
11.882	27.0744
11.9	27.0247
11.918	26.9625
11.936	26.8916
11.954	26.817
11.972	26.7445
11.99	26.6798
12.008	26.6281
12.026	26.5933
12.044	26.5767
12.062	26.5763
12.08	26.5873
12.098	26.6028
12.116	26.616
12.134	26.6231
12.152	26.6236
12.17	26.6209
12.188	26.6195
12.206	26.6233
12.224	26.6328
12.242	26.6445
12.26	26.6523
12.278	26.6486
12.296	26.6275
12.314	26.5865
12.332	26.5274
12.35	26.4557
12.368	26.3789
12.386	26.3046
12.404	26.2392
12.422	26.1866
12.44	26.1485
12.458	26.1253
12.476	26.1169
12.494	26.122
12.512	26.138
12.53	26.1599
12.548	26.1803
12.566	26.1906
12.584	26.1829
12.602	26.1528
12.62	26.1007
12.638	26.0329
12.656	25.9597
12.674	25.8927
12.692	25.8422
12.71	25.8139
12.728	25.8081
12.746	25.8202
12.764	25.8415
12.782	25.8622
12.8	25.8734
12.818	25.8693
12.836	25.8469
12.854	25.8068
12.872	25.7517
12.89	25.6868
12.908	25.618
12.926	25.5519
12.944	25.4947
12.962	25.4513
12.98	25.4242
12.998	25.4138
13.016	25.4182
13.034	25.4337
13.052	25.4559
13.07	25.4802
13.088	25.5026
13.106	25.5205
13.124	25.5323
13.142	25.538
13.16	25.5388
13.178	25.5368
13.196	25.5348
13.214	25.5353
13.232	25.5402
13.25	25.5495
13.268	25.5618
13.286	25.5734
13.304	25.5795
13.322	25.5743
13.34	25.5531
13.358	25.5138
13.376	25.4573
13.394	25.3885
13.412	25.3149
13.43	25.2448
13.448	25.1859
13.466	25.1431
13.484	25.1184
13.502	25.1102
13.52	25.1142
13.538	25.125
13.556	25.137
13.574	25.1458
13.592	25.1483
13.61	25.1431
13.628	25.1298
13.646	25.1089
13.664	25.081
13.682	25.046
13.7	25.0033
13.718	24.9526
13.736	24.8935
13.754	24.8264
13.772	24.7533
13.79	24.677
13.808	24.602
13.826	24.5333
13.844	24.4759
13.862	24.4344
13.88	24.412
13.898	24.41
13.916	24.4272
13.934	24.4602
13.952	24.5036
13.97	24.5511
13.988	24.5962
14.006	24.6332
14.024	24.6584
14.042	24.6704
14.06	24.6702
14.078	24.6602
14.096	24.6429
14.114	24.6209
14.132	24.5955
14.15	24.5669
14.168	24.5344
14.186	24.4963
14.204	24.4515
14.222	24.3997
14.24	24.342
14.258	24.2808
14.276	24.2197
14.294	24.1625
14.312	24.1124
14.33	24.0714
14.348	24.0395
14.366	24.015
14.384	23.9945
14.402	23.9738
14.42	23.9493
14.438	23.9185
14.456	23.8803
14.474	23.8359
14.492	23.7878
14.51	23.7401
14.528	23.6971
14.546	23.6625
14.564	23.6385
14.582	23.6259
14.6	23.6239
14.618	23.6298
14.636	23.6402
14.654	23.6514
14.672	23.6604
14.69	23.6648
14.708	23.6636
14.726	23.6566
14.744	23.645
14.762	23.6304
14.78	23.6147
14.798	23.5996
14.816	23.5866
14.834	23.5766
14.852	23.57
14.87	23.5664
14.888	23.565
14.906	23.5648
14.924	23.5642
14.942	23.562
14.96	23.5572
14.978	23.549
14.996	23.5371
15.014	23.522
15.032	23.5044
15.05	23.4858
15.068	23.4673
15.086	23.4503
15.104	23.4356
15.122	23.4238
15.14	23.4145
15.158	23.407
15.176	23.4003
15.194	23.3927
15.212	23.3825
15.23	23.3681
15.248	23.3486
15.266	23.3232
15.284	23.2921
15.302	23.2557
15.32	23.2151
15.338	23.1716
15.356	23.1265
15.374	23.0809
15.392	23.0356
15.41	22.9909
15.428	22.9467
15.446	22.9028
15.464	22.859
15.482	22.8151
15.5	22.7714
15.518	22.729
15.536	22.6895
15.554	22.6547
15.572	22.6268
15.59	22.6082
15.608	22.6005
15.626	22.6044
15.644	22.6201
15.662	22.6456
15.68	22.6782
15.698	22.7149
15.716	22.7514
15.734	22.783
15.752	22.8065
15.77	22.8188
15.788	22.8173
15.806	22.8017
15.824	22.7725
15.842	22.7312
15.86	22.681
15.878	22.6249
15.896	22.5659
15.914	22.5081
15.932	22.4539
15.95	22.4054
15.968	22.364
15.986	22.3303
16.004	22.3039
16.022	22.2844
16.04	22.2704
16.058	22.2607
16.076	22.2544
16.094	22.2502
16.112	22.2477
16.13	22.2464
16.148	22.2459
16.166	22.2461
16.184	22.2468
16.202	22.2477
16.22	22.2479
16.238	22.2467
16.256	22.2432
16.274	22.2357
16.292	22.2228
16.31	22.2032
16.328	22.1752
16.346	22.1382
16.364	22.0919
16.382	22.0364
16.4	21.9732
16.418	21.9034
16.436	21.8297
16.454	21.7549
16.472	21.6812
16.49	21.6122
16.508	21.5505
16.526	21.4976
16.544	21.4558
16.562	21.4254
16.58	21.4067
16.598	21.399
16.616	21.4007
16.634	21.4106
16.652	21.4258
16.67	21.4445
16.688	21.4647
16.706	21.4832
16.724	21.4987
16.742	21.5094
16.76	21.5136
16.778	21.5108
16.796	21.5004
16.814	21.4827
16.832	21.4578
16.85	21.4269
16.868	21.3913
16.886	21.352
16.904	21.3113
16.922	21.2707
16.94	21.232
16.958	21.1975
16.976	21.1681
16.994	21.1457
17.012	21.1307
17.03	21.1234
17.048	21.1236
17.066	21.1304
17.084	21.1427
17.102	21.1582
17.12	21.1759
17.138	21.1928
17.156	21.2076
17.174	21.2188
17.192	21.225
17.21	21.2258
17.228	21.221
17.246	21.2114
17.264	21.1974
17.282	21.181
17.3	21.1632
17.318	21.1459
17.336	21.1309
17.354	21.1191
17.372	21.1125
17.39	21.1111
17.408	21.1157
17.426	21.1261
17.444	21.1421
17.462	21.1622
17.48	21.1857
17.498	21.2105
17.516	21.2347
17.534	21.2568
17.552	21.2739
17.57	21.2853
17.588	21.2884
17.606	21.2825
17.624	21.2664
17.642	21.24
17.66	21.2029
17.678	21.1562
17.696	21.1005
17.714	21.0378
17.732	20.9698
17.75	20.8982
17.768	20.826
17.786	20.7541
17.804	20.686
17.822	20.6222
17.84	20.5649
17.858	20.5143
17.876	20.4712
17.894	20.4351
17.912	20.406
17.93	20.3826
17.948	20.3646
17.966	20.3503
17.984	20.3394
18.002	20.3304
18.02	20.3232
18.038	20.3171
18.056	20.312
18.074	20.3079
18.092	20.3048
18.11	20.3028
18.128	20.302
18.146	20.302
18.164	20.3024
18.182	20.3025
18.2	20.3015
18.218	20.298
18.236	20.2914
18.254	20.2801
18.272	20.2639
18.29	20.2415
18.308	20.213
18.326	20.1787
18.344	20.1389
18.362	20.0955
18.38	20.0496
18.398	20.0039
18.416	19.96
18.434	19.9207
18.452	19.888
18.47	19.8637
18.488	19.8493
18.506	19.8457
18.524	19.8528
18.542	19.8709
18.56	19.8975
18.578	19.9323
18.596	19.9714
18.614	20.0144
18.632	20.0564
18.65	20.0973
18.668	20.1329
18.686	20.1631
18.704	20.1852
18.722	20.1997
18.74	20.2059
18.758	20.2045
18.776	20.1964
18.794	20.1826
18.812	20.1655
18.83	20.1458
18.848	20.1263
18.866	20.1075
18.884	20.0918
18.902	20.0794
18.92	20.0717
18.938	20.0682
18.956	20.0695
18.974	20.0746
18.992	20.0831
19.01	20.0939
19.028	20.1057
19.046	20.1176
19.064	20.128
19.082	20.1362
19.1	20.1406
19.118	20.141
19.136	20.1361
19.154	20.1261
19.172	20.1103
19.19	20.0891
19.208	20.0626
19.226	20.0311
19.244	19.9953
19.262	19.9555
19.28	19.9129
19.298	19.8674
19.316	19.8204
19.334	19.7717
19.352	19.7226
19.37	19.6728
19.388	19.6232
19.406	19.5739
19.424	19.5252
19.442	19.4772
19.46	19.43
19.478	19.3838
19.496	19.3387
19.514	19.2948
19.532	19.2522
19.55	19.2109
19.568	19.1713
19.586	19.1336
19.604	19.098
19.622	19.0648
19.64	19.0341
19.658	19.0067
19.676	18.9823
19.694	18.9618
19.712	18.945
19.73	18.9324
19.748	18.9239
19.766	18.9193
19.784	18.9189
19.802	18.9217
19.82	18.9276
19.838	18.9357
19.856	18.9451
19.874	18.9552
19.892	18.9641
19.91	18.9719
19.928	18.9761
19.946	18.977
19.964	18.9724
19.982	18.9621
20	18.9452
20.018	18.9209
20.036	18.8894
20.054	18.8501
20.072	18.8034
20.09	18.7501
20.108	18.6901
20.126	18.6255
20.144	18.5561
20.162	18.4846
20.18	18.4116
20.198	18.3387
20.216	18.2684
20.234	18.2006
20.252	18.1387
20.27	18.0822
20.288	18.0333
20.306	17.9924
20.324	17.9599
20.342	17.9366
20.36	17.9218
20.378	17.9153
20.396	17.9171
20.414	17.9253
20.432	17.9403
20.45	17.9595
20.468	17.9821
20.486	18.0072
20.504	18.0323
20.522	18.0579
20.54	18.0814
20.558	18.1028
20.576	18.1216
20.594	18.1372
20.612	18.1498
20.63	18.1595
20.648	18.1663
20.666	18.1717
20.684	18.1754
20.702	18.179
20.72	18.1833
20.738	18.1884
20.756	18.1962
20.774	18.2064
20.792	18.2199
20.81	18.237
20.828	18.2574
20.846	18.2812
20.864	18.3083
20.882	18.3371
20.9	18.3682
20.918	18.3997
20.936	18.4305
20.954	18.4607
20.972	18.4876
20.99	18.5117
21.008	18.5314
21.026	18.5457
21.044	18.5547
21.062	18.5574
21.08	18.5539
21.098	18.5446
21.116	18.5292
21.134	18.5085
21.152	18.4838
21.17	18.4545
21.188	18.4232
21.206	18.3901
21.224	18.356
21.242	18.3232
21.26	18.291
21.278	18.2616
21.296	18.2355
21.314	18.2126
21.332	18.194
21.35	18.1795
21.368	18.1686
21.386	18.1618
21.404	18.1582
21.422	18.156
21.44	18.1561
21.458	18.156
21.476	18.155
21.494	18.153
21.512	18.147
21.53	18.1377
21.548	18.1232
21.566	18.102
21.584	18.0746
21.602	18.0395
21.62	17.9964
21.638	17.9456
21.656	17.8866
21.674	17.8194
21.692	17.7454
21.71	17.6645
21.728	17.5774
21.746	17.4868
21.764	17.3918
21.782	17.2951
21.8	17.1987
21.818	17.1017
21.836	17.0079
21.854	16.9172
21.872	16.8303
21.89	16.7498
21.908	16.675
21.926	16.6068
21.944	16.5462
21.962	16.4928
21.98	16.4464
21.998	16.4074
22.016	16.3749
22.034	16.3475
22.052	16.3259
22.07	16.3082
22.088	16.2931
22.106	16.2812
22.124	16.2702
22.142	16.2597
22.16	16.2496
22.178	16.2383
22.196	16.226
22.214	16.2124
22.232	16.1969
22.25	16.1797
22.268	16.161
22.286	16.141
22.304	16.1195
22.322	16.0976
22.34	16.0753
22.358	16.0529
22.376	16.0313
22.394	16.0105
22.412	15.9908
22.43	15.9729
22.448	15.9566
22.466	15.9422
22.484	15.9298
22.502	15.9194
22.52	15.9108
22.538	15.9038
22.556	15.8985
22.574	15.8948
22.592	15.8925
22.61	15.8918
22.628	15.8924
22.646	15.8944
22.664	15.898
22.682	15.9035
22.7	15.9108
22.718	15.9201
22.736	15.9318
22.754	15.9457
22.772	15.9622
22.79	15.9819
22.808	16.0046
22.826	16.0301
22.844	16.0584
22.862	16.0897
22.88	16.1229
22.898	16.1578
22.916	16.1947
22.934	16.231
22.952	16.2665
22.97	16.3013
22.988	16.3316
23.006	16.3574
23.024	16.3785
23.042	16.3909
23.06	16.3946
23.078	16.3895
23.096	16.3721
23.114	16.3423
23.132	16.3003
23.15	16.2447
23.168	16.1747
23.186	16.0914
23.204	15.996
23.222	15.8874
23.24	15.7672
23.258	15.6391
23.276	15.5018
23.294	15.357
23.312	15.2101
23.33	15.0596
23.348	14.907
23.366	14.7588
23.384	14.6137
23.402	14.4728
23.42	14.3421
23.438	14.2217
23.456	14.1112
23.474	14.0147
23.492	13.9331
23.51	13.8652
23.528	13.812
23.546	13.7743
23.564	13.7514
23.582	13.7413
23.6	13.7442
23.618	13.7604
23.636	13.7859
23.654	13.8193
23.672	13.8621
23.69	13.9102
23.708	13.961
23.726	14.0164
23.744	14.0735
23.762	14.1294
23.78	14.1857
23.798	14.2411
23.816	14.2936
23.834	14.3437
23.852	14.3916
23.87	14.4368
23.888	14.4785
23.906	14.518
23.924	14.5577
23.942	14.5967
23.96	14.6355
23.978	14.6778
23.996	14.7245
24.014	14.7744
24.032	14.8306
24.05	14.8951
24.068	14.9666
24.086	15.0458
24.104	15.1338
24.122	15.2306
24.14	15.3352
24.158	15.4462
24.176	15.5656
24.194	15.6912
24.212	15.8189
24.23	15.9495
24.248	16.0834
24.266	16.2133
24.284	16.3357
24.302	16.4549
24.32	16.5636
24.338	16.6551
24.356	16.7335
24.374	16.7957
24.392	16.8365
24.41	16.8558
24.428	16.8549
24.446	16.8318
24.464	16.7853
24.482	16.7162
24.5	16.626
24.518	16.515
24.536	16.381
24.554	16.2286
24.572	16.0635
24.59	15.8826
24.608	15.6879
24.626	15.4882
24.644	15.2861
24.662	15.0766
24.68	14.8702
24.698	14.6761
24.716	14.4873
24.734	14.3094
24.752	14.1527
24.77	14.017
24.788	13.8997
24.806	13.8096
24.824	13.7527
24.842	13.7237
24.86	13.7262
24.878	13.7654
24.896	13.8409
24.914	13.9513
24.932	14.0974
24.95	14.28
24.968	14.4995
24.986	14.7525
25.004	15.0362
25.022	15.3545
25.04	15.7035
25.058	16.0754
25.076	16.4681
25.094	16.8864
25.112	17.3206
25.13	17.7615
25.148	18.2165
25.166	18.6803
25.184	19.1399
25.202	19.5904
25.22	20.0405
25.238	20.4774
25.256	20.888
25.274	21.2799
25.292	21.6501
25.31	21.9856
25.328	22.2793
25.346	22.5401
25.364	22.7599
25.382	22.9286
25.4	23.048
25.418	23.1201
25.436	23.1393
25.454	23.101
25.472	23.0079
25.49	22.8605
25.508	22.6587
25.526	22.4003
25.544	22.0861
25.562	21.7223
25.58	21.3146
25.598	20.8568
25.616	20.3538
25.634	19.8162
25.652	19.2487
25.67	18.6415
25.688	18.0081
25.706	17.3646
25.724	16.7098
25.742	16.0381
25.76	15.3647
25.778	14.7037
25.796	14.0475
25.814	13.3976
25.832	12.7625
25.85	12.1491
25.868	11.5529
25.886	10.9733
25.904	10.4101
25.922	9.867847
25.94	9.346750
25.958	8.834368
25.976	8.318372
25.994	7.807329
26.012	7.299326
26.03	6.777371
26.048	6.226892
26.066	5.659413
26.084	5.070429
26.102	4.448126
26.12	3.784066
26.138	3.085222
26.156	2.350780
26.174	1.578427
26.192	0.763313
26.21	-0.094890
26.228	-0.984330
26.246	-1.892920
26.264	-2.827060
26.282	-3.789850
26.3	-4.759457
26.318	-5.714615
26.336	-6.667621
26.354	-7.618072
26.372	-8.544177
26.39	-9.426244
26.408	-10.281
26.426	-11.1025
26.444	-11.8706
26.462	-12.568
26.48	-13.2066
26.498	-13.7853
26.516	-14.2967
26.534	-14.735
26.552	-15.1047
26.57	-15.4061
26.588	-15.638
26.606	-15.7993
26.624	-15.8895
26.642	-15.9118
26.66	-15.8692
26.678	-15.7623
26.696	-15.5866
26.714	-15.3496
26.732	-15.0598
26.75	-14.7221
26.768	-14.3307
26.786	-13.8883
26.804	-13.3984
26.822	-12.8593
26.84	-12.2644
26.858	-11.6279
26.876	-10.9653
26.894	-10.2787
26.912	-9.549924
26.93	-8.804937
26.948	-8.072715
26.966	-7.344151
26.984	-6.560587
27.002	-5.825369
27.02	-5.252974
27.028	-5.098295