File: Bakgrunnsmateriale/MATLAB/FTIR/ftir_data/LPE453/Mapping_121/LPE453_t63_cm-1.asc
PE IR       SPECTRUM    SPECTRUM    ASCII       PEDS        1.60
  -1
LP5AD0~1.ASC
17/05/16
19:29:54.00
17/05/16
19:29:54.00
tln
$LPE453_t0063$<tbV0>[-5.2,0.0,8.0,0.0,27,1,0]
370
64

2002,4.07
MIRTGS : RIGHTBACK : INTERNAL 2
MIR : ON : INTERNAL 2
OPTKBR

0.200000
8
8.000000
FILLER
RATIO
SPECTRUM
UNLOCKED 256

DOUBLE
64
COMBINED
1
0
0

1.000000
RATIO

1
0
TRUE
51149
0
LEFT NOT FITTED RIGHT NOT FITTED 0
NONE
NONE
15600
12
4.427000
51148
TRUE
1 0 8 72 0 0 0 0

15798

#HDR
-1
-1
#GR
CM-1
%T
2.38419e-05
0.0
5000
-1.000000
4631
8
49.0439
-1.534128
#DATA
5000	-0.086164
4996	-0.051379
4992	0.073003
4988	0.086927
4984	-0.057578
4980	-0.219655
4976	-0.353407
4972	-0.244998
4968	0.042510
4964	0.219893
4960	0.299334
4956	0.235176
4952	0.114035
4948	-0.050282
4944	-0.317120
4940	-0.349283
4936	-0.079083
4932	0.086855
4928	0.097870
4924	0.170898
4920	0.273060
4916	0.417780
4912	0.441193
4908	0.209450
4904	0.211524
4900	0.535416
4896	0.586009
4892	0.505614
4888	0.547671
4884	0.214147
4880	-0.314188
4876	-0.372958
4872	-0.219345
4868	-0.224518
4864	-0.262546
4860	-0.077438
4856	0.002217
4852	-0.211572
4848	-0.191998
4844	0.061678
4840	0.392818
4836	0.616478
4832	0.517749
4828	0.348210
4824	0.182557
4820	0.099730
4816	0.241541
4812	0.320053
4808	0.070548
4804	-0.254106
4800	-0.256395
4796	0.121188
4792	0.509381
4788	0.536274
4784	0.437283
4780	0.272250
4776	-0.079774
4772	-0.171399
4768	-0.189208
4764	-0.384926
4760	0.059628
4756	0.960159
4752	1.197504
4748	0.897693
4744	0.728988
4740	0.607204
4736	0.198721
4732	-0.616693
4728	-1.081013
4724	0.046920
4720	1.929998
4716	2.755618
4712	2.271080
4708	1.536107
4704	1.134729
4700	0.417327
4696	-0.685071
4692	-1.094865
4688	-0.926899
4684	-1.108336
4680	-1.233935
4676	-1.204967
4672	-0.134396
4668	1.114583
4664	0.519061
4660	-0.318145
4656	0.178217
4652	0.841355
4648	0.130248
4644	-0.566792
4640	-0.121235
4636	0.322675
4632	0.700688
4628	0.882959
4624	0.489330
4620	0.304245
4616	0.508069
4612	0.604414
4608	0.403261
4604	0.163626
4600	0.134181
4596	0.040245
4592	-0.217032
4588	-0.471401
4584	-0.808310
4580	-0.750589
4576	-0.303220
4572	-0.286793
4568	-0.426959
4564	-0.296592
4560	-0.253105
4556	-0.337553
4552	-0.282073
4548	-0.029420
4544	-0.103282
4540	-0.427579
4536	-0.722169
4532	-1.008844
4528	-0.891542
4524	-0.568699
4520	-0.219917
4516	-0.118827
4512	-0.180411
4508	-0.264596
4504	-0.002670
4500	0.229120
4496	-0.383400
4492	-1.323246
4488	5.033087
4484	18.4591
4480	21.0351
4476	10.8721
4472	1.535654
4468	-1.496028
4464	-1.125907
4460	-0.513768
4456	-0.244283
4452	-0.731420
4448	-1.253652
4444	-1.379537
4440	-1.277995
4436	-1.076102
4432	-0.855922
4428	-0.490713
4424	-0.084018
4420	-0.053071
4416	-0.361227
4412	-0.613617
4408	-0.746703
4404	-0.736856
4400	-0.495123
4396	-0.277566
4392	-0.259280
4388	-0.212049
4384	-0.008535
4380	-0.016522
4376	-0.300073
4372	-0.423765
4368	-0.302743
4364	-0.208377
4360	-0.230956
4356	-0.135755
4352	0.014448
4348	-0.034475
4344	-0.113272
4340	0.035881
4336	0.320148
4332	0.503611
4328	0.513339
4324	0.375247
4320	0.164699
4316	0.111532
4312	0.103402
4308	-0.075602
4304	-0.108480
4300	0.210523
4296	0.492238
4292	0.512337
4288	0.367784
4284	0.205802
4280	0.165104
4276	0.080585
4272	0.063920
4268	0.261855
4264	0.175952
4260	-0.053930
4256	-0.059747
4252	-0.083327
4248	-0.035429
4244	0.058126
4240	0.092911
4236	0.231575
4232	0.367784
4228	0.285267
4224	0.036358
4220	-0.081849
4216	0.030612
4212	0.181913
4208	0.183105
4204	0.043272
4200	-0.048851
4196	-0.008606
4192	-0.014996
4188	-0.069332
4184	-0.063180
4180	0.056982
4176	0.183391
4172	0.127887
4168	0.072073
4164	0.239324
4160	0.310182
4156	0.111198
4152	0.026774
4148	0.060319
4144	0.079393
4140	0.122857
4136	0.106453
4132	0.139522
4128	0.303840
4124	0.371408
4120	0.261592
4116	0.243926
4112	0.406122
4108	0.459098
4104	0.270962
4100	0.055694
4096	0.028872
4092	0.129055
4088	0.156927
4084	0.125646
4080	0.135540
4076	0.119948
4072	0.015258
4068	-0.115776
4064	-0.165176
4060	-0.147843
4056	-0.110960
4052	-0.016283
4048	0.081062
4044	0.128674
4040	0.163197
4036	0.167798
4032	0.042772
4028	-0.084924
4024	-0.032567
4020	0.034356
4016	0.003099
4012	-0.018358
4008	-0.012922
4004	0.003910
4000	0.104522
3996	0.151538
3992	0.013875
3988	-0.087952
3984	0.074481
3980	0.332617
3976	0.293874
3972	0.023818
3968	-0.111317
3964	-0.082612
3960	-0.037550
3956	0.056052
3952	0.088882
3948	0.030279
3944	0.041842
3940	0.047183
3936	-0.001955
3932	-0.106120
3928	-0.199174
3924	-0.109648
3920	0.049161
3916	0.014781
3912	-0.102448
3908	-0.126338
3904	-0.089144
3900	-0.007700
3896	0.100922
3892	0.111699
3888	0.033020
3884	-0.063991
3880	-0.052309
3876	0.036144
3872	0.031924
3868	-0.010013
3864	-0.016045
3860	-0.055837
3856	-0.060963
3852	-0.015401
3848	-0.006723
3844	0.000452
3840	0.043869
3836	0.086188
3832	0.051689
3828	-0.042271
3824	-0.040555
3820	0.047183
3816	0.144314
3812	0.207734
3808	0.163102
3804	0.047421
3800	-0.033473
3796	0.020718
3792	0.118017
3788	0.121235
3784	0.087404
3780	0.075244
3776	0.080657
3772	0.063371
3768	-0.010323
3764	-0.093173
3760	-0.047373
3756	0.117754
3752	0.198221
3748	0.187063
3744	0.150012
3740	0.091385
3736	0.060415
3732	0.037980
3728	0.022244
3724	0.009584
3720	-0.023484
3716	-0.005555
3712	0.048136
3708	0.134348
3704	0.201106
3700	0.137281
3696	0.111675
3692	0.147032
3688	0.080013
3684	-0.016760
3680	-0.060987
3676	-0.100827
3672	-0.080871
3668	0.032567
3664	0.080537
3660	0.033044
3656	0.025606
3652	0.067591
3648	0.046420
3644	0.041127
3640	0.129532
3636	0.161886
3632	0.084996
3628	-0.014424
3624	-0.075531
3620	-0.093770
3616	-0.073027
3612	-0.014138
3608	0.019288
3604	-0.020360
3600	-0.015044
3596	0.093770
3592	0.108051
3588	-0.050878
3584	-0.136423
3580	-0.065207
3576	-0.014209
3572	0.031685
3568	0.130796
3564	0.181102
3560	0.152897
3556	0.058484
3552	-0.011587
3548	0.034213
3544	0.083971
3540	0.092697
3536	0.055503
3532	0.000715
3528	0.081419
3524	0.192832
3520	0.075006
3516	-0.101542
3512	-0.078153
3508	0.075197
3504	0.173568
3500	0.066637
3496	-0.062608
3492	0.003671
3488	0.143790
3484	0.232839
3480	0.188851
3476	0.042033
3472	0.053215
3468	0.233769
3464	0.327086
3460	0.242209
3456	0.090312
3452	0.045299
3448	0.096678
3444	0.138330
3440	0.183153
3436	0.196194
3432	0.125050
3428	0.093507
3424	0.146746
3420	0.144195
3416	0.076389
3412	0.047898
3408	0.018215
3404	-0.052762
3400	-0.093412
3396	-0.068545
3392	-0.036907
3388	-0.042462
3384	-0.005984
3380	0.065112
3376	0.048494
3372	-0.034427
3368	-0.031042
3364	0.046563
3360	0.097203
3356	0.128030
3352	0.156521
3348	0.152397
3344	0.035881
3340	-0.076556
3336	0.010442
3332	0.164461
3328	0.221872
3324	0.215363
3320	0.127339
3316	0.024819
3312	0.029659
3308	0.045204
3304	0.040245
3300	0.084924
3296	0.118350
3292	0.110220
3288	0.063419
3284	-0.053334
3280	-0.173926
3276	-0.188207
3272	-0.127863
3268	-0.087523
3264	-0.055384
3260	-0.001192
3256	0.048708
3252	0.090932
3248	0.090742
3244	0.053882
3240	0.065112
3236	0.017714
3232	-0.049996
3228	0.103592
3224	0.284552
3220	0.272798
3216	0.203299
3212	0.117611
3208	0.081586
3204	0.141310
3200	0.127577
3196	0.065946
3192	0.077915
3188	0.069093
3184	-0.021290
3180	-0.091648
3176	-0.072264
3172	-0.028991
3168	-0.017619
3164	-0.031709
3160	-0.092244
3156	-0.125002
3152	-0.031733
3148	0.057435
3144	0.009799
3140	-0.076985
3136	-0.032591
3132	0.123929
3128	0.188398
3124	0.066661
3120	-0.095057
3116	-0.139188
3112	-0.028944
3108	0.090432
3104	0.078010
3100	0.057172
3096	0.071811
3092	0.062298
3088	0.095438
3084	0.106692
3080	0.048232
3076	0.044298
3072	0.069117
3068	0.060486
3064	0.046753
3060	0.045084
3056	0.046324
3052	0.080966
3048	0.126290
3044	0.078749
3040	0.000977
3036	0.007390
3032	0.040054
3028	0.024676
3024	-0.003743
3020	0.025224
3016	0.064206
3012	-0.003099
3008	-0.076055
3004	-0.042676
3000	-0.000476
2996	-0.016546
2992	-0.099587
2988	-0.131440
2984	-0.020098
2980	0.051450
2976	-0.000643
2972	-0.048232
2968	-0.030469
2964	0.020098
2960	0.060153
2956	0.057673
2952	0.008916
2948	-0.023794
2944	-0.031352
2940	-0.037693
2936	0.012254
2932	0.088238
2928	0.116419
2924	0.113749
2920	0.108814
2916	0.105285
2912	0.129008
2908	0.151538
2904	0.137066
2900	0.099468
2896	0.003552
2892	-0.074052
2888	-0.055503
2884	-0.013327
2880	0.032830
2876	0.037956
2872	-0.019979
2868	-0.071048
2864	-0.073122
2860	-0.026512
2856	-0.023698
2852	-0.030326
2848	0.081133
2844	0.168371
2840	0.119662
2836	0.059413
2832	0.024652
2828	0.039911
2824	0.134038
2820	0.173044
2816	0.087237
2812	-0.025320
2808	-0.064301
2804	-0.042486
2800	-0.024580
2796	-0.018763
2792	-0.007700
2788	-0.030350
2784	-0.103020
2780	-0.119280
2776	-0.051259
2772	0.017499
2768	0.011634
2764	-0.026583
2760	0.023579
2756	0.113654
2752	0.151991
2748	0.159621
2744	0.132393
2740	0.079822
2736	0.033903
2732	0.040721
2728	0.120234
2724	0.150275
2720	0.091147
2716	0.013303
2712	-0.048708
2708	-0.066900
2704	-0.053715
2700	-0.057983
2696	-0.096273
2692	-0.090169
2688	-0.028800
2684	-0.011372
2680	-0.033903
2676	-0.011014
2672	0.041961
2668	0.099658
2664	0.171732
2660	0.186014
2656	0.131344
2652	0.096154
2648	0.095248
2644	0.104808
2640	0.101923
2636	0.069880
2632	0.046730
2628	0.005793
2624	-0.055408
2620	-0.063323
2616	-0.024127
2612	0.006675
2608	0.037646
2604	0.072026
2600	0.072193
2596	0.079321
2592	0.090265
2588	0.062394
2584	0.017237
2580	-0.023412
2576	-0.033783
2572	0.019478
2568	0.090408
2564	0.101542
2560	0.047302
2556	-0.002956
2552	-0.005602
2548	-0.001549
2544	-0.001335
2540	-0.011253
2536	-0.005435
2532	0.058412
2528	0.107598
2524	0.116181
2520	0.146460
2516	0.143504
2512	0.112104
2508	0.107097
2504	0.093126
2500	0.105857
2496	0.109839
2492	0.057244
2488	0.020694
2484	-0.018739
2480	-0.052261
2476	-0.045132
2472	-0.095462
2468	-0.170087
2464	-0.119781
2460	-0.007796
2456	0.001692
2452	-0.030303
2448	0.002217
2444	0.029349
2440	0.065302
2436	0.074768
2432	0.003027
2428	-0.000309
2424	0.061440
2420	0.066876
2416	0.002431
2412	-0.081110
2408	-0.121450
2404	-0.063228
2400	0.010704
2396	0.006747
2392	0.024342
2388	0.066113
2384	0.077891
2380	0.112342
2376	0.142979
2372	0.108385
2368	0.019216
2364	-0.065064
2360	-0.071692
2356	-0.007867
2352	0.046157
2348	0.051283
2344	0.034141
2340	0.044059
2336	0.084614
2332	0.104260
2328	0.114607
2324	0.120973
2320	0.099229
2316	0.099062
2312	0.130581
2308	0.142431
2304	0.142788
2300	0.191402
2296	0.299882
2292	0.414538
2288	0.505304
2284	0.556969
2280	0.580716
2276	0.605773
2272	0.620985
2268	0.657343
2264	0.742459
2260	0.846457
2256	0.945091
2252	1.066994
2248	1.206445
2244	1.326537
2240	1.473665
2236	1.639819
2232	1.774215
2228	1.890873
2224	2.028369
2220	2.205681
2216	2.392911
2212	2.599525
2208	2.854514
2204	3.088402
2200	3.288793
2196	3.539276
2192	3.805375
2188	4.091691
2184	4.433107
2180	4.729938
2176	5.002188
2172	5.357956
2168	5.772876
2164	6.139731
2160	6.471681
2156	6.844019
2152	7.196760
2148	7.609796
2144	8.162140
2140	8.675718
2136	9.108424
2132	9.561586
2128	10.0466
2124	10.5337
2120	11.0134
2116	11.4862
2112	11.9545
2108	12.4432
2104	12.9616
2100	13.4728
2096	13.9253
2092	14.3532
2088	14.8145
2084	15.3435
2080	15.9632
2076	16.4803
2072	16.8681
2068	17.2937
2064	17.6948
2060	18.1087
2056	18.5947
2052	19.0906
2048	19.5687
2044	20.0014
2040	20.4064
2036	20.845
2032	21.3377
2028	21.8182
2024	22.2165
2020	22.5746
2016	22.9404
2012	23.3145
2008	23.6962
2004	24.001
2000	24.2672
1996	24.5996
1992	24.9241
1988	25.208
1984	25.4968
1980	25.7993
1976	26.1106
1972	26.4556
1968	26.8105
1964	27.1031
1960	27.35
1956	27.5759
1952	27.7504
1948	27.9076
1944	28.1142
1940	28.3443
1936	28.5638
1932	28.7679
1928	28.9492
1924	29.143
1920	29.3837
1916	29.6101
1912	29.7678
1908	29.9172
1904	30.0783
1900	30.1962
1896	30.2773
1892	30.3422
1888	30.4296
1884	30.5996
1880	30.8275
1876	31.0373
1872	31.2046
1868	31.3217
1864	31.3956
1860	31.4448
1856	31.5127
1852	31.6007
1848	31.6207
1844	31.6592
1840	31.7894
1836	31.9188
1832	32.0359
1828	32.1529
1824	32.2381
1820	32.279
1816	32.2993
1812	32.3218
1808	32.3623
1804	32.4089
1800	32.4145
1796	32.4206
1792	32.4802
1788	32.5477
1784	32.6578
1780	32.8238
1776	32.9433
1772	32.9838
1768	32.9625
1764	32.9325
1760	32.9011
1756	32.8306
1752	32.7947
1748	32.8253
1744	32.8551
1740	32.8874
1736	32.9802
1732	33.0774
1728	33.1281
1724	33.2283
1720	33.3148
1716	33.2475
1712	33.162
1708	33.152
1704	33.1048
1700	33.0334
1696	33.0248
1692	33.0772
1688	33.1515
1684	33.2323
1680	33.3302
1676	33.4098
1672	33.4291
1668	33.3854
1664	33.2989
1660	33.2075
1656	33.1289
1652	33.0765
1648	33.0734
1644	33.1003
1640	33.1567
1636	33.2961
1632	33.4666
1628	33.5489
1624	33.5458
1620	33.5334
1616	33.4923
1612	33.3798
1608	33.2357
1604	33.162
1600	33.1704
1596	33.1488
1592	33.0983
1588	33.1456
1584	33.2494
1580	33.2784
1576	33.2905
1572	33.3418
1568	33.3838
1564	33.4136
1560	33.3688
1556	33.2159
1552	33.0889
1548	33.0779
1544	33.1256
1540	33.1325
1536	33.1525
1532	33.238
1528	33.3334
1524	33.4
1520	33.4189
1516	33.3748
1512	33.2609
1508	33.143
1504	33.06
1500	33.0281
1496	33.0727
1492	33.0869
1488	33.0351
1484	33.0581
1480	33.1478
1476	33.2281
1472	33.309
1468	33.3165
1464	33.1861
1460	33.0432
1456	32.9584
1452	32.7988
1448	32.542
1444	32.4879
1440	32.7336
1436	33.0042
1432	33.141
1428	33.1672
1424	33.2009
1420	33.2868
1416	33.2676
1412	33.1233
1408	33.0065
1404	32.8656
1400	32.6565
1396	32.5344
1392	32.5585
1388	32.6565
1384	32.7008
1380	32.7332
1376	32.8755
1372	33.0339
1368	33.0432
1364	32.9161
1360	32.7761
1356	32.64
1352	32.5169
1348	32.4533
1344	32.4284
1340	32.4386
1336	32.5282
1332	32.6599
1328	32.7277
1324	32.7185
1320	32.7217
1316	32.7625
1312	32.6912
1308	32.5004
1304	32.3572
1300	32.2368
1296	32.1455
1292	32.1322
1288	32.1488
1284	32.2332
1280	32.3884
1276	32.5203
1272	32.5903
1268	32.6407
1264	32.6381
1260	32.4776
1256	32.2227
1252	32.035
1248	31.9725
1244	31.9411
1240	31.8993
1236	31.9748
1232	32.1632
1228	32.3266
1224	32.4035
1220	32.4036
1216	32.3605
1212	32.2937
1208	32.1935
1204	32.0504
1200	31.8744
1196	31.7113
1192	31.6188
1188	31.6502
1184	31.7642
1180	31.9038
1176	32.0611
1172	32.2303
1168	32.3684
1164	32.3989
1160	32.2907
1156	32.0777
1152	31.8208
1148	31.6123
1144	31.4736
1140	31.3998
1136	31.4177
1132	31.5503
1128	31.7322
1124	31.8579
1120	31.9545
1116	32.0442
1112	32.0699
1108	32.0461
1104	31.901
1100	31.5369
1096	31.1392
1092	31.0347
1088	31.2103
1084	31.3588
1080	31.3633
1076	31.3408
1072	31.4235
1068	31.5681
1064	31.6755
1060	31.6243
1056	31.4321
1052	31.2271
1048	31.0492
1044	30.9232
1040	30.7904
1036	30.7149
1032	30.7991
1028	30.9379
1024	31.0305
1020	31.0831
1016	31.1101
1012	31.1003
1008	31.1288
1004	31.2022
1000	31.0884
996	 30.7583
992	 30.4402
988	 30.2174
984	 30.0783
980	 30.0989
976	 30.2634
972	 30.4077
968	 30.5321
964	 30.6597
960	 30.6561
956	 30.5434
952	 30.4347
948	 30.2603
944	 30.0012
940	 29.8756
936	 29.8838
932	 29.8595
928	 29.8497
924	 29.8454
920	 29.8546
916	 29.9417
912	 30.0087
908	 29.8941
904	 29.6866
900	 29.6408
896	 29.6451
892	 29.5027
888	 29.2829
884	 29.0793
880	 28.8662
876	 28.7395
872	 28.8697
868	 29.0954
864	 29.2682
860	 29.4248
856	 29.5175
852	 29.4302
848	 29.217
844	 29.045
840	 28.8254
836	 28.4443
832	 28.0809
828	 27.9055
824	 27.9167
820	 28.0577
816	 28.1945
812	 28.274
808	 28.4741
804	 28.7469
800	 28.8116
796	 28.6324
792	 28.1579
788	 27.5449
784	 27.2379
780	 27.3065
776	 27.4785
772	 27.4772
768	 27.4045
764	 27.4116
760	 27.5369
756	 27.9248
752	 28.2458
748	 28.0967
744	 27.7297
740	 27.3983
736	 27.0207
732	 26.743
728	 26.6015
724	 26.3464
720	 26.1747
716	 26.3297
712	 26.5667
708	 26.7141
704	 26.7466
700	 26.5949
696	 26.4037
692	 26.261
688	 26.0299
684	 25.7524
680	 25.5
676	 25.3014
672	 25.2889
668	 25.5086
664	 25.7376
660	 25.7207
656	 25.5876
652	 25.5641
648	 25.565
644	 25.4355
640	 25.2465
636	 25.006
632	 24.66
628	 24.3319
624	 24.1207
620	 24.0446
616	 24.011
612	 24.1497
608	 24.6164
604	 24.9355
600	 24.6308
596	 24.1156
592	 23.9543
588	 23.9737
584	 23.7643
580	 23.2817
576	 22.9196
572	 22.7856
568	 22.6089
564	 22.5238
560	 22.6164
556	 22.5209
552	 22.2602
548	 22.4945
544	 22.8854
540	 22.5778
536	 22.1054
532	 21.9854
528	 21.8748
524	 21.7331
520	 21.5647
516	 21.3839
512	 21.4183
508	 21.2078
504	 20.8583
500	 21.0219
496	 21.4186
492	 21.7292
488	 21.5578
484	 20.9115
480	 20.6836
476	 20.6853
472	 20.2019
468	 19.3705
464	 18.672
460	 18.6788
456	 19.4054
452	 19.659
448	 18.8035
444	 18.5462
440	 19.3466
436	 19.59
432	 19.3005
428	 18.8792
424	 17.5587
420	 16.4171
416	 18.2904
412	 22.7598
408	 25.7978
404	 23.9864
400	 12.8409
396	 0.864243
392	 4.668831
388	 9.739947
384	 8.290147
380	 24.3119
376	 46.8762
372	 45.0121
370	 38.3532