File: Bakgrunnsmateriale/MATLAB/FTIR/ftir_data/LPE453/Mapping_121/LPE453_t34_cm-1.asc
PE IR       SPECTRUM    SPECTRUM    ASCII       PEDS        1.60
  -1
LPE85B~1.ASC
17/05/16
17:08:36.00
17/05/16
17:08:36.00
tln
$LPE453_t0034$<tbV0>[13.0,-5.2,8.0,0.0,27,1,0]
370
64

2002,4.07
MIRTGS : RIGHTBACK : INTERNAL 2
MIR : ON : INTERNAL 2
OPTKBR

0.200000
8
8.000000
FILLER
RATIO
SPECTRUM
UNLOCKED 256

DOUBLE
64
COMBINED
1
0
0

1.000000
RATIO

1
0
TRUE
51149
0
LEFT NOT FITTED RIGHT NOT FITTED 0
NONE
NONE
15600
12
4.427000
51148
TRUE
1 0 8 72 0 0 0 0

15798

#HDR
-1
-1
#GR
CM-1
%T
2.38419e-05
0.0
5000
-1.000000
4631
8
40.6374
-18.0939
#DATA
5000	-0.196623
4996	-0.167942
4992	-0.079298
4988	-0.189805
4984	-0.350666
4980	-0.344300
4976	-0.220179
4972	0.081300
4968	0.251626
4964	-0.120639
4960	-0.506877
4956	-0.505447
4952	-0.393581
4948	-0.328302
4944	-0.225138
4940	-0.097179
4936	0.062775
4932	0.201416
4928	0.229072
4924	0.415802
4920	0.655817
4916	0.566434
4912	0.259375
4908	0.060796
4904	0.099325
4900	0.286364
4896	0.252556
4892	-0.031018
4888	-0.065159
4884	0.048708
4880	0.065469
4876	0.330948
4872	0.706291
4868	0.739240
4864	0.613570
4860	0.521469
4856	0.517845
4852	0.452280
4848	0.189042
4844	0.077319
4840	0.173425
4836	0.386810
4832	0.602340
4828	0.519013
4824	0.329923
4820	0.274515
4816	0.351905
4812	0.491070
4808	0.490021
4804	0.355434
4800	0.290966
4796	0.292778
4792	0.180101
4788	0.147628
4784	0.222826
4780	0.208854
4776	0.254607
4772	0.229501
4768	0.064015
4764	0.002002
4760	0.050020
4756	0.093412
4752	0.046682
4748	-0.059342
4744	-0.067400
4740	0.081706
4736	0.268292
4732	0.267171
4728	0.121808
4724	-0.037097
4720	-0.106477
4716	0.051498
4712	0.245881
4708	0.224757
4704	0.109767
4700	0.114393
4696	0.299954
4692	0.567197
4688	0.747394
4684	0.742888
4680	0.560688
4676	0.295901
4672	0.099945
4668	0.065541
4664	0.252485
4660	0.493884
4656	0.628948
4652	0.853443
4648	1.138091
4644	1.068615
4640	0.827240
4636	0.881743
4632	1.005339
4628	1.049804
4624	1.164746
4620	1.179575
4616	1.093745
4612	0.953888
4608	0.663757
4604	0.339508
4600	0.040555
4596	-0.100493
4592	-0.109124
4588	-0.375342
4584	-0.826573
4580	-1.212477
4576	-1.354432
4572	-0.935435
4568	-0.658035
4564	-0.864529
4560	-0.906395
4556	-1.138782
4552	-1.726031
4548	-2.027297
4544	-1.919507
4540	-2.253127
4536	-2.694296
4532	-2.394819
4528	-1.836371
4524	0.411939
4520	16.2766
4516	38.5382
4512	33.4855
4508	10.1038
4504	0.170755
4500	-0.438475
4496	-0.572681
4492	-0.464272
4488	-0.842213
4484	-0.874876
4480	-0.933146
4476	-1.086044
4472	-1.004505
4468	-0.820994
4464	-0.812101
4460	-0.635433
4456	-0.408101
4452	-0.844097
4448	-1.171755
4444	-0.877666
4440	-0.648093
4436	-0.612306
4432	-0.451087
4428	-0.288462
4424	-0.251364
4420	-0.152540
4416	0.193667
4412	0.731992
4408	1.101589
4404	0.970959
4400	0.815439
4396	0.749039
4392	0.599598
4388	0.625443
4384	0.670456
4380	0.728154
4376	0.936341
4372	1.059985
4368	0.915074
4364	0.666356
4360	0.564694
4356	0.706768
4352	0.761795
4348	0.478148
4344	0.144124
4340	0.030303
4336	0.205421
4332	0.343656
4328	0.240159
4324	0.228428
4320	0.341749
4316	0.350427
4312	0.273251
4308	0.289559
4304	0.333237
4300	0.247907
4296	0.093746
4292	0.014328
4288	0.048112
4284	0.065469
4280	0.161910
4276	0.262165
4272	0.154924
4268	0.124430
4264	0.285339
4260	0.376367
4256	0.420475
4252	0.480842
4248	0.498533
4244	0.567960
4240	0.540757
4236	0.326561
4232	0.196623
4228	0.183248
4224	0.201368
4220	0.280427
4216	0.347709
4212	0.317168
4208	0.295519
4204	0.341272
4200	0.455236
4196	0.478935
4192	0.277376
4188	0.015950
4184	-0.061225
4180	0.304913
4176	0.531244
4172	0.187301
4168	-0.024485
4164	0.031137
4160	0.072574
4156	0.171303
4152	0.261569
4148	0.247287
4144	0.211453
4140	0.136899
4136	-0.006198
4132	-0.089931
4128	-0.070786
4124	-0.041937
4120	0.021839
4116	0.045847
4112	0.033903
4108	0.062465
4104	0.082993
4100	0.076627
4096	0.056266
4092	0.062894
4088	0.134325
4084	0.139236
4080	0.072693
4076	0.055861
4072	0.006484
4068	-0.004410
4064	0.015854
4060	-0.022983
4056	-0.023746
4052	-0.023102
4048	-0.018787
4044	0.081539
4040	0.206375
4036	0.219082
4032	0.107455
4028	-0.046396
4024	-0.083088
4020	-0.015187
4016	0.031375
4012	0.069332
4008	0.089430
4004	0.122070
4000	0.189542
3996	0.146794
3992	0.015544
3988	0.029635
3984	0.209426
3980	0.340557
3976	0.288915
3972	0.153231
3968	0.094151
3964	0.132918
3960	0.217056
3956	0.211286
3952	0.102615
3948	0.154924
3944	0.280976
3940	0.240707
3936	0.204777
3932	0.179529
3928	0.043988
3924	-0.092530
3920	-0.102233
3916	0.061893
3912	0.224113
3908	0.162100
3904	-0.018119
3900	-0.062274
3896	0.043392
3892	0.133109
3888	0.118827
3884	0.060820
3880	0.030040
3876	0.060796
3872	0.117754
3868	0.087356
3864	0.000071
3860	-0.026679
3856	-0.025820
3852	-0.077772
3848	-0.148344
3844	-0.153708
3840	-0.027728
3836	0.069355
3832	0.005006
3828	-0.031566
3824	-0.004839
3820	-0.016260
3816	-0.026130
3812	0.037527
3808	0.107741
3804	0.097560
3800	0.116324
3796	0.231409
3792	0.249481
3788	0.109219
3784	0.044488
3780	0.105142
3776	0.110125
3772	0.030469
3768	0.020766
3764	0.145602
3760	0.267124
3756	0.264835
3752	0.159668
3748	0.078892
3744	0.072431
3740	0.088858
3736	0.122046
3732	0.172352
3728	0.197577
3724	0.136542
3720	0.058460
3716	0.005674
3712	-0.035142
3708	0.019741
3704	0.071239
3700	0.047349
3696	-0.008225
3692	-0.038123
3688	-0.038194
3684	-0.079965
3680	-0.170660
3676	-0.200819
3672	-0.170087
3668	-0.149559
3664	-0.104284
3660	-0.017094
3656	0.035858
3652	0.007200
3648	-0.009441
3644	0.063920
3640	0.137996
3636	0.144028
3632	0.117516
3628	0.096273
3624	0.049495
3620	0.005984
3616	-0.005960
3612	0.001287
3608	0.063276
3604	0.156617
3600	0.169348
3596	0.121092
3592	0.094485
3588	0.098228
3584	0.102019
3580	0.120568
3576	0.209093
3572	0.287532
3568	0.297331
3564	0.261378
3560	0.208449
3556	0.175023
3552	0.166606
3548	0.180768
3544	0.170183
3540	0.123381
3536	0.109624
3532	0.061655
3528	-0.036358
3524	-0.035023
3520	0.044465
3516	0.142741
3512	0.226712
3508	0.240802
3504	0.205707
3500	0.161886
3496	0.140142
3492	0.180602
3488	0.249934
3484	0.230765
3480	0.172400
3476	0.176000
3472	0.098729
3468	-0.058746
3464	-0.033187
3460	0.130963
3456	0.218868
3452	0.208520
3448	0.107502
3444	-0.028371
3440	-0.055432
3436	0.032711
3432	0.099778
3428	0.137829
3424	0.150895
3420	0.085711
3416	0.022315
3412	0.002264
3408	-0.001645
3404	0.019693
3400	0.042700
3396	0.042557
3392	0.041866
3388	0.074481
3384	0.011563
3380	-0.134944
3376	-0.130343
3372	-0.065588
3368	-0.054860
3364	0.018000
3360	0.075936
3356	0.056099
3352	0.053882
3348	0.036787
3344	0.002050
3340	-0.021529
3336	-0.062489
3332	-0.089240
3328	-0.033211
3324	0.135374
3320	0.246381
3316	0.176668
3312	0.023770
3308	-0.075173
3304	-0.092840
3300	-0.070452
3296	0.003242
3292	0.074315
3288	0.077795
3284	0.101208
3280	0.148844
3276	0.153875
3272	0.144338
3268	0.145101
3264	0.127959
3260	0.086092
3256	0.079441
3252	0.119018
3248	0.131487
3244	0.097894
3240	0.115060
3236	0.149250
3232	0.108385
3228	0.039124
3224	-0.008916
3220	-0.018072
3216	-0.017881
3212	-0.036168
3208	-0.063347
3204	-0.040698
3200	0.010943
3196	0.008940
3192	-0.023221
3188	-0.050115
3184	-0.066995
3180	-0.047683
3176	0.030660
3172	0.055909
3168	-0.008273
3164	-0.056695
3160	-0.067114
3156	-0.038313
3152	-0.021767
3148	-0.048661
3144	-0.017929
3140	0.035262
3136	0.045418
3132	0.110960
3128	0.117874
3124	-0.010609
3120	0.011682
3116	0.188899
3112	0.152921
3108	-0.020575
3104	-0.038146
3100	0.022768
3096	0.059008
3092	0.075650
3088	0.062465
3084	0.005578
3080	-0.021505
3076	0.028419
3072	0.020194
3068	-0.054550
3064	-0.013518
3060	0.095129
3056	0.066018
3052	0.009775
3048	0.041866
3044	0.056719
3040	0.043320
3036	0.080108
3032	0.144839
3028	0.148653
3024	0.099897
3020	0.046801
3016	0.037431
3012	0.073456
3008	0.127696
3004	0.159335
3000	0.162649
2996	0.160694
2992	0.143194
2988	0.089526
2984	0.039410
2980	0.027799
2976	-0.017023
2972	-0.065183
2968	-0.055456
2964	0.004529
2960	0.059342
2956	0.039434
2952	-0.004506
2948	-0.009322
2944	-0.004529
2940	-0.005340
2936	0.009846
2932	0.048160
2928	0.078940
2924	0.096702
2920	0.054407
2916	-0.031781
2912	-0.068807
2908	-0.088238
2904	-0.070738
2900	0.034761
2896	0.135183
2892	0.131058
2888	0.082874
2884	0.063157
2880	0.062108
2876	0.037860
2872	-0.011396
2868	-0.008726
2864	0.008344
2860	-0.041484
2856	-0.022649
2852	0.119876
2848	0.224065
2844	0.230884
2840	0.206708
2836	0.166130
2832	0.084567
2828	0.049567
2824	0.085616
2820	0.068950
2816	0.030112
2812	0.044155
2808	0.073480
2804	0.075578
2800	0.068044
2796	0.073289
2792	0.047636
2788	-0.015234
2784	-0.032973
2780	-0.001549
2776	0.025415
2772	0.062990
2768	0.088024
2764	0.027656
2760	-0.058603
2756	-0.071644
2752	-0.009870
2748	0.048136
2744	0.057530
2740	0.075006
2736	0.099325
2732	0.088024
2728	0.058054
2724	0.036263
2720	0.057864
2716	0.098347
2712	0.094509
2708	0.052833
2704	0.041913
2700	0.071263
2696	0.104045
2692	0.143170
2688	0.144219
2684	0.066852
2680	0.021266
2676	0.062322
2672	0.050258
2668	-0.024747
2664	-0.033807
2660	-0.011563
2656	0.029611
2652	0.097060
2648	0.062108
2644	-0.023317
2640	-0.065183
2636	-0.093960
2632	-0.049543
2628	0.077962
2624	0.169324
2620	0.147271
2616	0.080943
2612	0.039529
2608	-0.009632
2604	-0.059032
2600	-0.066137
2596	0.000429
2592	0.079679
2588	0.069189
2584	0.019526
2580	-0.022959
2576	-0.033426
2572	0.015377
2568	0.076580
2564	0.135898
2560	0.143003
2556	0.065350
2552	0.002956
2548	0.018668
2544	0.039744
2540	0.021362
2536	0.043392
2532	0.089001
2528	0.081324
2524	0.081777
2520	0.128126
2516	0.173878
2512	0.158095
2508	0.110507
2504	0.120854
2500	0.142741
2496	0.121593
2492	0.101876
2488	0.132679
2484	0.173878
2480	0.159120
2476	0.086331
2472	0.016999
2468	0.033330
2464	0.075459
2460	0.069332
2456	0.086641
2452	0.102996
2448	0.044202
2444	0.015306
2440	0.021457
2436	-0.009298
2432	-0.050449
2428	-0.066757
2424	0.014495
2420	0.197625
2416	0.262522
2412	0.060176
2408	-0.088143
2404	0.035715
2400	0.118994
2396	0.036883
2392	-0.048089
2388	-0.075483
2384	-0.070595
2380	-0.028634
2376	0.013661
2372	0.004839
2368	-0.027847
2364	-0.032329
2360	-0.028133
2356	-0.052738
2352	-0.089693
2348	-0.134372
2344	-0.138211
2340	-0.095605
2336	-0.039076
2332	0.008726
2328	0.008225
2324	-0.020194
2320	-0.043606
2316	-0.049734
2312	-0.031709
2308	0.007653
2304	0.048947
2300	0.065326
2296	0.067448
2292	0.068306
2288	0.054144
2284	0.041723
2280	0.054740
2276	0.096035
2272	0.137162
2268	0.148653
2264	0.155162
2260	0.157022
2256	0.171351
2252	0.232863
2248	0.322222
2244	0.388073
2240	0.400042
2236	0.435042
2232	0.542712
2228	0.663900
2224	0.740456
2220	0.777888
2216	0.846958
2212	0.980949
2208	1.114535
2204	1.215624
2200	1.336288
2196	1.460957
2192	1.562047
2188	1.662945
2184	1.814007
2180	2.048325
2176	2.311301
2172	2.528309
2168	2.658843
2164	2.789688
2160	2.970290
2156	3.157782
2152	3.396534
2148	3.632545
2144	3.842806
2140	4.170966
2136	4.580664
2132	4.957675
2128	5.283927
2124	5.572247
2120	5.893230
2116	6.251692
2112	6.584525
2108	6.892633
2104	7.174777
2100	7.452583
2096	7.769823
2092	8.085536
2088	8.416318
2084	8.806729
2080	9.177803
2076	9.523105
2072	9.891033
2068	10.2133
2064	10.5839
2060	11.0622
2056	11.4009
2052	11.6645
2048	12.0478
2044	12.4425
2040	12.8014
2036	13.1363
2032	13.4348
2028	13.7769
2024	14.1861
2020	14.5314
2016	14.7753
2012	15.0327
2008	15.3433
2004	15.6734
2000	16.01
1996	16.3434
1992	16.6132
1988	16.8099
1984	17.0666
1980	17.4366
1976	17.7905
1972	18.0273
1968	18.1693
1964	18.3083
1960	18.5428
1956	18.8333
1952	19.0723
1948	19.2843
1944	19.4668
1940	19.6175
1936	19.8623
1932	20.1509
1928	20.3353
1924	20.4841
1920	20.6846
1916	20.8789
1912	21.0431
1908	21.2257
1904	21.4451
1900	21.6133
1896	21.6761
1892	21.7075
1888	21.7645
1884	21.9037
1880	22.134
1876	22.3498
1872	22.4919
1868	22.629
1864	22.774
1860	22.8491
1856	22.9087
1852	23.0255
1848	23.1197
1844	23.1718
1840	23.2903
1836	23.4572
1832	23.5744
1828	23.6505
1824	23.6993
1820	23.7758
1816	23.9312
1812	24.0622
1808	24.0957
1804	24.0938
1800	24.158
1796	24.2601
1792	24.3099
1788	24.3591
1784	24.4451
1780	24.5204
1776	24.5636
1772	24.5877
1768	24.5924
1764	24.6112
1760	24.6783
1756	24.7475
1752	24.8047
1748	24.8688
1744	24.9434
1740	25.0015
1736	25.0291
1732	25.0361
1728	24.9994
1724	24.956
1720	24.9703
1716	25.0386
1712	25.134
1708	25.2053
1704	25.2629
1700	25.3794
1696	25.4943
1692	25.5363
1688	25.5306
1684	25.4743
1680	25.3656
1676	25.2758
1672	25.2701
1668	25.3336
1664	25.4138
1660	25.472
1656	25.5384
1652	25.6436
1648	25.7033
1644	25.6914
1640	25.6727
1636	25.6311
1632	25.5781
1628	25.5877
1624	25.639
1620	25.6695
1616	25.6762
1612	25.6861
1608	25.7004
1604	25.7132
1600	25.7276
1596	25.7409
1592	25.7504
1588	25.7593
1584	25.7869
1580	25.8396
1576	25.8533
1572	25.8115
1568	25.8412
1564	25.9584
1560	26.0113
1556	25.9697
1552	25.9003
1548	25.8138
1544	25.7511
1540	25.7995
1536	25.8843
1532	25.8967
1528	25.8841
1524	25.8823
1520	25.9067
1516	25.9293
1512	25.9163
1508	25.8502
1504	25.7468
1500	25.7414
1496	25.829
1492	25.8131
1488	25.722
1484	25.7386
1480	25.832
1476	25.8478
1472	25.8057
1468	25.8269
1464	25.8473
1460	25.8024
1456	25.7521
1452	25.7204
1448	25.7498
1444	25.8381
1440	25.8806
1436	25.8797
1432	25.8908
1428	25.8728
1424	25.8153
1420	25.7508
1416	25.7142
1412	25.7634
1408	25.8237
1404	25.8271
1400	25.8492
1396	25.8717
1392	25.8639
1388	25.8783
1384	25.9145
1380	25.8737
1376	25.7342
1372	25.6112
1368	25.5676
1364	25.6124
1360	25.7123
1356	25.7787
1352	25.8091
1348	25.8198
1344	25.8036
1340	25.7896
1336	25.7542
1332	25.6899
1328	25.6429
1324	25.6117
1320	25.5843
1316	25.6008
1312	25.616
1308	25.5857
1304	25.5812
1300	25.6238
1296	25.6966
1292	25.7264
1288	25.6862
1284	25.5877
1280	25.4548
1276	25.4045
1272	25.441
1268	25.4778
1264	25.4627
1260	25.4683
1256	25.515
1252	25.4883
1248	25.4492
1244	25.4454
1240	25.4016
1236	25.3531
1232	25.3397
1228	25.3121
1224	25.2908
1220	25.2878
1216	25.2613
1212	25.2675
1208	25.3329
1204	25.3775
1200	25.3398
1196	25.2
1192	25.089
1188	25.114
1184	25.1293
1180	25.0557
1176	25.0478
1172	25.1426
1168	25.2287
1164	25.2429
1160	25.1754
1156	25.1035
1152	25.0657
1148	25.0051
1144	24.929
1140	24.8804
1136	24.8154
1132	24.7499
1128	24.7829
1124	24.8531
1120	24.8642
1116	24.8434
1112	24.8932
1108	24.9893
1104	24.8582
1100	24.604
1096	24.486
1092	24.3936
1088	24.3813
1084	24.4907
1080	24.5471
1076	24.5171
1072	24.5008
1068	24.5287
1064	24.5771
1060	24.6325
1056	24.5964
1052	24.4428
1048	24.3408
1044	24.3438
1040	24.3488
1036	24.3232
1032	24.2406
1028	24.1456
1024	24.1945
1020	24.3221
1016	24.3057
1012	24.1503
1008	23.9769
1004	23.8144
1000	23.7446
996	 23.7982
992	 23.8055
988	 23.7586
984	 23.7563
980	 23.7534
976	 23.6749
972	 23.5622
968	 23.4646
964	 23.3675
960	 23.3177
956	 23.2981
952	 23.2723
948	 23.2532
944	 23.2463
940	 23.3212
936	 23.3557
932	 23.2164
928	 23.1028
924	 23.0749
920	 23.0156
916	 22.9505
912	 22.8439
908	 22.6581
904	 22.5753
900	 22.6252
896	 22.6264
892	 22.5804
888	 22.6259
884	 22.6795
880	 22.6228
876	 22.5353
872	 22.4734
868	 22.4067
864	 22.3341
860	 22.3132
856	 22.296
852	 22.2559
848	 22.2384
844	 22.1585
840	 22.004
836	 21.9244
832	 21.8836
828	 21.8285
824	 21.7502
820	 21.568
816	 21.3831
812	 21.3025
808	 21.3264
804	 21.3899
800	 21.4502
796	 21.4666
792	 21.3156
788	 21.0695
784	 20.9411
780	 20.8898
776	 20.7348
772	 20.6383
768	 20.728
764	 20.8462
760	 20.9864
756	 21.0562
752	 21.005
748	 20.9431
744	 20.8341
740	 20.5405
736	 20.2663
732	 20.1991
728	 20.1117
724	 19.9651
720	 19.8715
716	 19.8338
712	 19.8709
708	 19.9665
704	 20.0003
700	 19.8066
696	 19.4699
692	 19.3665
688	 19.4392
684	 19.2799
680	 19.0866
676	 19.0884
672	 18.9468
668	 18.7874
664	 18.9646
660	 19.1254
656	 19.0486
652	 18.9079
648	 18.6183
644	 18.1861
640	 18.0247
636	 18.1107
632	 18.08
628	 17.9402
624	 17.8415
620	 17.845
616	 17.7482
612	 17.5067
608	 17.4445
604	 17.3576
600	 17.0031
596	 16.8257
592	 16.9098
588	 17.0352
584	 17.1272
580	 17.0059
576	 16.995
572	 17.355
568	 17.5232
564	 17.3011
560	 16.8657
556	 16.3249
552	 15.7887
548	 15.4514
544	 15.4256
540	 15.401
536	 15.4993
532	 15.7326
528	 15.6573
524	 15.3898
520	 15.3927
516	 15.6504
512	 15.6072
508	 14.8074
504	 13.8552
500	 13.6865
496	 13.998
492	 14.2635
488	 14.5535
484	 14.9528
480	 15.0793
476	 14.522
472	 13.5985
468	 13.2029
464	 13.5975
460	 13.7096
456	 13.3229
452	 13.4149
448	 13.8549
444	 14.0699
440	 14.3615
436	 14.6447
432	 14.7178
428	 14.5456
424	 13.645
420	 12.1924
416	 12.1134
412	 11.5433
408	 5.202627
404	 0.531744
400	 3.161048
396	 2.023553
392	 -4.878520
388	 -5.382728
384	 3.080511
380	 2.442121
376	 -12.3109
372	 -16.3994
370	 -6.312179