File: Bakgrunnsmateriale/MATLAB/FTIR/ftir_data/LPE453/Mapping_121/LPE453_t107_cm-1.asc
PE IR       SPECTRUM    SPECTRUM    ASCII       PEDS        1.60
  -1
LP0A78~1.ASC
17/05/16
23:07:12.00
17/05/16
23:07:12.00
tln
$LPE453_t0107$<tbV0>[-5.2,10.4,8.0,0.0,27,1,0]
370
64

2002,4.07
MIRTGS : RIGHTBACK : INTERNAL 2
MIR : ON : INTERNAL 2
OPTKBR

0.200000
8
8.000000
FILLER
RATIO
SPECTRUM
UNLOCKED 256

DOUBLE
64
COMBINED
1
0
0

1.000000
RATIO

1
0
TRUE
51149
0
LEFT NOT FITTED RIGHT NOT FITTED 0
NONE
NONE
15600
12
4.427000
51148
TRUE
1 0 8 72 0 0 0 0

15798

#HDR
-1
-1
#GR
CM-1
%T
2.38419e-05
0.0
5000
-1.000000
4631
8
35.9482
-8.654284
#DATA
5000	-0.003767
4996	0.634312
4992	0.892210
4988	0.645089
4984	0.352478
4980	0.068974
4976	0.046014
4972	0.353932
4968	0.532436
4964	0.367021
4960	0.177097
4956	0.183773
4952	0.280308
4948	0.295019
4944	0.262522
4940	0.323438
4936	0.287985
4932	0.197529
4928	0.333976
4924	0.430941
4920	0.276541
4916	0.148940
4912	0.154757
4908	0.241804
4904	0.367283
4900	0.400590
4896	0.436449
4892	0.378346
4888	0.086379
4884	-0.072956
4880	-0.102853
4876	-0.103425
4872	0.239682
4868	0.626683
4864	0.423097
4860	-0.178098
4856	-0.367736
4852	0.031352
4848	0.354933
4844	0.326895
4840	0.266408
4836	0.299859
4832	0.346803
4828	0.347018
4824	0.199484
4820	0.098514
4816	0.104331
4812	-0.091695
4808	-0.339508
4804	-0.297880
4800	-0.064349
4796	0.077986
4792	0.083041
4788	0.033593
4784	0.164508
4780	0.478792
4776	0.605320
4772	0.507760
4768	0.403451
4764	0.248646
4760	0.103092
4756	0.085210
4752	0.017619
4748	-0.013470
4744	-0.090003
4740	-0.350022
4736	-0.264930
4732	0.204396
4728	0.562930
4724	0.687718
4720	0.555539
4716	0.329875
4712	0.217103
4708	0.147032
4704	0.022101
4700	-0.220394
4696	-0.129556
4692	0.438618
4688	0.432467
4684	0.154948
4680	0.669407
4676	1.657319
4672	2.314615
4668	2.139854
4664	1.512837
4660	0.872611
4656	0.407719
4652	0.666284
4648	0.958991
4644	0.047659
4640	-0.978779
4636	-1.049256
4632	-0.712060
4628	-0.174951
4624	0.152659
4620	0.336503
4616	0.870180
4612	1.208162
4608	1.186037
4604	0.799679
4600	0.073432
4596	-0.124621
4592	0.288796
4588	0.558304
4584	0.266742
4580	-0.378799
4576	-0.615859
4572	-0.380873
4568	-0.098180
4564	0.129199
4560	0.213861
4556	0.368237
4552	0.611805
4548	0.886392
4544	0.764966
4540	0.217199
4536	0.256347
4532	0.417613
4528	0.269055
4524	0.288963
4520	0.684142
4516	0.687766
4512	0.845384
4508	0.931906
4504	3.534579
4500	8.698582
4496	7.564687
4492	2.605962
4488	-4.648756
4484	-8.654284
4480	-5.021643
4476	-2.547407
4472	-1.706409
4468	-0.792169
4464	-0.599169
4460	-0.332045
4456	0.018930
4452	0.293707
4448	0.672841
4444	0.917983
4440	0.747942
4436	0.505495
4432	0.463962
4428	0.502347
4424	0.559806
4420	0.501394
4416	0.315189
4412	0.263357
4408	0.280833
4404	0.378727
4400	0.566792
4396	0.607156
4392	0.473499
4388	0.216603
4384	0.167322
4380	0.366616
4376	0.308370
4372	0.067520
4368	-0.137615
4364	-0.145888
4360	0.063371
4356	0.123238
4352	0.041198
4348	0.064444
4344	0.188255
4340	0.290751
4336	0.282168
4332	0.096893
4328	-0.113534
4324	-0.079822
4320	0.111603
4316	0.197315
4312	0.027036
4308	-0.152969
4304	-0.047254
4300	0.181388
4296	0.309395
4292	0.329661
4288	0.306391
4284	0.248599
4280	0.096845
4276	-0.069093
4272	-0.018525
4268	0.061726
4264	-0.021338
4260	-0.069141
4256	-0.109481
4252	-0.201272
4248	-0.138926
4244	0.083065
4240	0.281238
4236	0.345444
4232	0.232434
4228	0.152182
4224	0.145912
4220	0.073981
4216	0.040984
4212	0.090837
4208	0.192642
4204	0.183916
4200	0.019693
4196	-0.076079
4192	-0.010180
4188	0.197124
4184	0.338530
4180	0.329303
4176	0.299954
4172	0.205564
4168	0.104856
4164	0.139713
4160	0.234675
4156	0.212836
4152	0.162672
4148	0.191450
4144	0.168490
4140	0.102686
4136	0.081753
4132	0.118541
4128	0.153422
4124	0.193905
4120	0.233459
4116	0.202608
4112	0.073885
4108	-0.072193
4104	-0.028324
4100	0.056838
4096	0.014829
4092	0.085663
4088	0.291800
4084	0.371599
4080	0.229048
4076	0.036549
4072	-0.031661
4068	0.048446
4064	0.178956
4060	0.142216
4056	0.000548
4052	0.040435
4048	0.189304
4044	0.228929
4040	0.139355
4036	-0.005817
4032	-0.093555
4028	-0.010418
4024	0.175476
4020	0.229191
4016	0.117921
4012	0.023674
4008	0.059390
4004	0.179743
4000	0.249195
3996	0.308060
3992	0.340032
3988	0.266814
3984	0.154399
3980	0.023627
3976	-0.076413
3972	-0.067496
3968	-0.010728
3964	0.002074
3960	0.008940
3956	0.069618
3952	0.146365
3948	0.149965
3944	-0.008058
3940	-0.196743
3936	-0.199294
3932	-0.089263
3928	-0.064969
3924	-0.063800
3920	0.046849
3916	0.161314
3912	0.197219
3908	0.123023
3904	-0.004434
3900	-0.055289
3896	-0.087094
3892	-0.101900
3888	-0.046563
3884	0.028181
3880	0.042462
3876	0.019335
3872	0.090432
3868	0.124382
3864	0.071191
3860	0.071406
3856	0.049591
3852	0.073504
3848	0.230979
3844	0.295901
3840	0.197625
3836	0.079178
3832	-0.058484
3828	-0.161266
3824	-0.094652
3820	0.074839
3816	0.189185
3812	0.174832
3808	0.070476
3804	-0.016427
3800	-0.044202
3796	-0.038909
3792	-0.042414
3788	-0.053310
3784	-0.003361
3780	0.131297
3776	0.262594
3772	0.227713
3768	0.060367
3764	-0.001931
3760	0.045180
3756	0.049304
3752	0.002908
3748	-0.003266
3744	0.086688
3740	0.146126
3736	0.083065
3732	-0.000882
3728	-0.013828
3724	0.008988
3720	-0.001049
3716	0.000619
3712	0.022864
3708	-0.018692
3704	-0.084352
3700	-0.028204
3696	0.113797
3692	0.166797
3688	0.174188
3684	0.197362
3680	0.131893
3676	-0.005197
3672	-0.090217
3668	-0.077843
3664	-0.067067
3660	-0.101065
3656	-0.089621
3652	-0.028324
3648	0.001597
3644	-0.033140
3640	-0.012087
3636	0.130319
3632	0.199007
3628	0.149655
3624	0.105690
3620	0.074005
3616	0.016355
3612	-0.034093
3608	0.011181
3604	0.045371
3600	0.007534
3596	0.032758
3592	0.125169
3588	0.130486
3584	0.078058
3580	0.103068
3576	0.044894
3572	-0.055909
3568	-0.016331
3564	-0.005459
3560	-0.031423
3556	0.032043
3552	0.066614
3548	0.000858
3544	-0.066447
3540	-0.088953
3536	-0.068688
3532	-0.017118
3528	0.027680
3524	0.070810
3520	0.061440
3516	-0.046873
3512	-0.168728
3508	-0.157260
3504	-0.091075
3500	-0.164723
3496	-0.209712
3492	-0.060510
3488	0.114250
3484	0.189757
3480	0.193023
3476	0.152230
3472	0.086426
3468	0.009107
3464	-0.002193
3460	0.061941
3456	0.069642
3452	0.047302
3448	0.052070
3444	0.048542
3440	0.016617
3436	-0.034713
3432	-0.047683
3428	-0.017857
3424	0.025343
3420	0.089597
3416	0.179290
3412	0.263667
3408	0.260281
3404	0.186038
3400	0.157356
3396	0.128817
3392	0.018024
3388	-0.081419
3384	-0.083589
3380	-0.009679
3376	0.078868
3372	0.092482
3368	0.059652
3364	0.064992
3360	0.032567
3356	-0.072312
3352	-0.115132
3348	-0.040912
3344	0.060868
3340	0.158262
3336	0.210165
3332	0.183010
3328	0.136995
3324	0.063610
3320	0.001239
3316	-0.015282
3312	-0.067877
3308	-0.098776
3304	-0.034284
3300	0.030469
3296	0.025200
3292	0.042176
3288	0.101017
3284	0.031971
3280	-0.095796
3276	-0.030159
3272	0.131487
3268	0.147676
3264	0.055241
3260	0.004959
3256	-0.007581
3252	0.008296
3248	0.053858
3244	0.051045
3240	0.029587
3236	0.033164
3232	0.034952
3228	-0.011658
3224	-0.098514
3220	-0.161910
3216	-0.226998
3212	-0.185465
3208	0.054335
3204	0.246119
3200	0.276207
3196	0.255870
3192	0.233364
3188	0.226974
3184	0.203728
3180	0.139570
3176	0.073719
3172	0.048756
3168	0.071239
3164	0.103497
3160	0.139355
3156	0.174713
3152	0.156378
3148	0.105214
3144	0.088167
3140	0.134706
3136	0.181293
3132	0.117778
3128	0.015950
3124	-0.015020
3120	0.014758
3116	0.045537
3112	0.065445
3108	0.089526
3104	0.055336
3100	0.028729
3096	0.087428
3092	0.095915
3088	0.002861
3084	-0.045490
3080	-0.023031
3076	-0.024747
3072	0.048732
3068	0.148415
3064	0.063419
3060	-0.027179
3056	0.033259
3052	0.070810
3048	0.039911
3044	0.088500
3040	0.179862
3036	0.134301
3032	0.037026
3028	0.026798
3024	0.013041
3020	-0.020170
3016	0.009536
3012	0.078368
3008	0.144767
3004	0.142145
3000	0.056791
2996	-0.009012
2992	0.004911
2988	0.048232
2984	0.011062
2980	-0.050067
2976	-0.013804
2972	0.053596
2968	0.102519
2964	0.144052
2960	0.123214
2956	0.072574
2952	0.087833
2948	0.075221
2944	0.022125
2940	0.068306
2936	0.123405
2932	0.109934
2928	0.119709
2924	0.134611
2920	0.114607
2916	0.080275
2912	0.078892
2908	0.093555
2904	0.045228
2900	0.018358
2896	0.051474
2892	0.026965
2888	-0.027871
2884	-0.007224
2880	0.050020
2876	0.027298
2872	-0.051784
2868	-0.064873
2864	-0.028657
2860	-0.005960
2856	0.006389
2852	-0.000762
2848	0.034999
2844	0.133991
2840	0.170612
2836	0.102281
2832	0.031208
2828	0.028324
2824	0.045824
2820	0.054192
2816	0.040507
2812	-0.018858
2808	-0.038790
2804	0.015735
2800	0.062870
2796	0.095772
2792	0.112485
2788	0.066351
2784	0.000119
2780	-0.003075
2776	0.042390
2772	0.053405
2768	0.046563
2764	0.060415
2760	0.053191
2756	0.034618
2752	0.012588
2748	-0.031399
2744	-0.040411
2740	0.004982
2736	0.050067
2732	0.055003
2728	0.026369
2724	-0.006723
2720	-0.054645
2716	-0.101351
2712	-0.098752
2708	-0.060009
2704	-0.016188
2700	0.069832
2696	0.121235
2692	0.032687
2688	-0.040340
2684	-0.011157
2680	-0.001668
2676	-0.022888
2672	-0.002789
2668	0.069522
2664	0.113153
2660	0.095844
2656	0.062823
2652	0.029444
2648	0.010967
2644	-0.004816
2640	-0.009655
2636	0.008440
2632	0.032281
2628	0.025725
2624	-0.014090
2620	-0.005030
2616	0.056815
2612	0.070333
2608	0.000524
2604	-0.064158
2600	-0.040149
2596	0.063228
2592	0.120258
2588	0.059080
2584	0.006246
2580	0.021910
2576	0.016140
2572	-0.017118
2568	0.022864
2564	0.100016
2560	0.104880
2556	0.057840
2552	0.035667
2548	0.045847
2544	0.037384
2540	0.013947
2536	0.023293
2532	0.065541
2528	0.084280
2524	0.068092
2520	0.071430
2516	0.097346
2512	0.089383
2508	0.059318
2504	0.068950
2500	0.064826
2496	0.001525
2492	-0.044369
2488	-0.033450
2484	0.013899
2480	0.058364
2476	0.053095
2472	0.008201
2468	-0.000858
2464	0.043249
2460	0.078511
2456	0.107407
2452	0.144052
2448	0.103950
2444	-0.005960
2440	-0.048732
2436	-0.016546
2432	-0.043678
2428	-0.147533
2424	-0.143623
2420	0.013136
2416	0.098299
2412	0.069260
2408	0.108981
2404	0.174260
2400	0.163435
2396	0.161290
2392	0.177907
2388	0.164008
2384	0.124549
2380	0.083136
2376	0.059223
2372	0.043487
2368	0.062441
2364	0.139832
2360	0.201535
2356	0.226092
2352	0.255465
2348	0.259733
2344	0.224661
2340	0.189590
2336	0.217604
2332	0.269699
2328	0.280833
2324	0.313448
2320	0.347733
2316	0.378584
2312	0.481581
2308	0.592684
2304	0.642991
2300	0.682139
2296	0.737857
2292	0.807642
2288	0.891947
2284	0.968122
2280	1.041865
2276	1.129245
2272	1.205396
2268	1.277494
2264	1.379489
2260	1.480460
2256	1.575756
2252	1.728534
2248	1.922273
2244	2.106595
2240	2.282500
2236	2.460646
2232	2.658557
2228	2.869272
2224	3.084564
2220	3.314065
2216	3.549814
2212	3.806209
2208	4.101395
2204	4.397463
2200	4.700541
2196	5.052280
2192	5.373740
2188	5.647921
2184	5.962109
2180	6.318664
2176	6.702661
2172	7.155179
2168	7.667851
2164	8.096122
2160	8.414506
2156	8.778500
2152	9.269857
2148	9.763431
2144	10.1506
2140	10.5971
2136	11.171
2132	11.6958
2128	12.1046
2124	12.4881
2120	12.9469
2116	13.5012
2112	14.0609
2108	14.5792
2104	15.0856
2100	15.5811
2096	16.0558
2092	16.5222
2088	17.0115
2084	17.5112
2080	17.9357
2076	18.2797
2072	18.7446
2068	19.3928
2064	19.923
2060	20.2882
2056	20.7319
2052	21.2414
2048	21.7126
2044	22.153
2040	22.5582
2036	22.911
2032	23.2424
2028	23.5581
2024	23.9023
2020	24.3175
2016	24.7202
2012	25.1122
2008	25.5548
2004	25.9833
2000	26.3006
1996	26.5458
1992	26.824
1988	27.1523
1984	27.4521
1980	27.6485
1976	27.7782
1972	27.9657
1968	28.2558
1964	28.5147
1960	28.7114
1956	28.9846
1952	29.3459
1948	29.6831
1944	29.9644
1940	30.208
1936	30.3728
1932	30.4762
1928	30.5871
1924	30.68
1920	30.7142
1916	30.7585
1912	30.8945
1908	31.0972
1904	31.3091
1900	31.5066
1896	31.7293
1892	31.9901
1888	32.2275
1884	32.4231
1880	32.5492
1876	32.5551
1872	32.5177
1868	32.5244
1864	32.517
1860	32.5082
1856	32.5825
1852	32.6948
1848	32.8014
1844	32.9365
1840	33.1201
1836	33.3442
1832	33.537
1828	33.6611
1824	33.7288
1820	33.7227
1816	33.6943
1812	33.644
1808	33.5191
1804	33.4044
1800	33.3987
1796	33.4983
1792	33.6366
1788	33.755
1784	33.8818
1780	34.0471
1776	34.2238
1772	34.3562
1768	34.4035
1764	34.3665
1760	34.289
1756	34.1897
1752	34.059
1748	33.9719
1744	33.9233
1740	33.878
1736	33.9122
1732	34.0351
1728	34.1963
1724	34.3644
1720	34.5597
1716	34.7273
1712	34.7276
1708	34.6253
1704	34.5554
1700	34.4931
1696	34.4102
1692	34.2881
1688	34.1233
1684	34.0361
1680	34.0597
1676	34.1336
1672	34.2828
1668	34.4965
1664	34.6956
1660	34.8621
1656	34.9699
1652	34.9344
1648	34.8195
1644	34.7506
1640	34.6945
1636	34.5817
1632	34.4166
1628	34.3141
1624	34.3344
1620	34.389
1616	34.4608
1612	34.5818
1608	34.7606
1604	34.9417
1600	35.0386
1596	35.0592
1592	35.0111
1588	34.92
1584	34.7832
1580	34.6004
1576	34.4564
1572	34.3297
1568	34.2136
1564	34.1845
1560	34.257
1556	34.4393
1552	34.6666
1548	34.8338
1544	34.9648
1540	35.0651
1536	35.0754
1532	35.0518
1528	35.0101
1524	34.8551
1520	34.6371
1516	34.4765
1512	34.3289
1508	34.1944
1504	34.165
1500	34.192
1496	34.2528
1492	34.423
1488	34.6474
1484	34.8653
1480	35.0243
1476	35.0502
1472	35.0214
1468	34.9457
1464	34.7042
1460	34.3771
1456	34.1935
1452	34.1713
1448	34.1388
1444	34.1257
1440	34.2124
1436	34.3465
1432	34.5327
1428	34.7489
1424	34.9172
1420	35.0044
1416	35.0182
1412	34.9462
1408	34.7457
1404	34.5402
1400	34.3983
1396	34.1895
1392	34.0046
1388	33.938
1384	33.9526
1380	34.0981
1376	34.3475
1372	34.5956
1368	34.7714
1364	34.8682
1360	34.893
1356	34.8471
1352	34.7614
1348	34.6438
1344	34.5048
1340	34.3181
1336	34.1354
1332	34.0386
1328	34.0066
1324	34.0242
1320	34.1229
1316	34.3322
1312	34.5739
1308	34.7792
1304	34.8984
1300	34.8984
1296	34.8318
1292	34.7342
1288	34.5977
1284	34.3776
1280	34.1568
1276	34.0002
1272	33.8446
1268	33.7452
1264	33.721
1260	33.8291
1256	34.089
1252	34.3067
1248	34.4952
1244	34.7123
1240	34.8585
1236	34.8547
1232	34.7541
1228	34.6668
1224	34.5166
1220	34.2357
1216	33.9498
1212	33.7699
1208	33.7068
1204	33.7835
1200	33.9336
1196	34.0835
1192	34.2991
1188	34.5332
1184	34.6939
1180	34.7392
1176	34.715
1172	34.657
1168	34.5251
1164	34.2777
1160	33.9773
1156	33.7952
1152	33.7435
1148	33.6748
1144	33.5841
1140	33.5961
1136	33.7727
1132	34.0417
1128	34.3046
1124	34.4689
1120	34.5044
1116	34.5055
1112	34.4385
1108	34.2074
1104	33.9797
1100	33.8293
1096	33.5947
1092	33.3513
1088	33.2622
1084	33.2946
1080	33.3905
1076	33.5393
1072	33.7548
1068	33.9806
1064	34.1329
1060	34.2674
1056	34.3157
1052	34.1223
1048	33.9052
1044	33.7983
1040	33.5801
1036	33.3229
1032	33.1404
1028	32.9485
1024	32.8853
1020	33.0473
1016	33.2607
1012	33.472
1008	33.7572
1004	34.0201
1000	34.1526
996	 34.1562
992	 33.9877
988	 33.7625
984	 33.6595
980	 33.5043
976	 33.1117
972	 32.7413
968	 32.6054
964	 32.6169
960	 32.6922
956	 32.8322
952	 33.1116
948	 33.4639
944	 33.6479
940	 33.6822
936	 33.7368
932	 33.7698
928	 33.6816
924	 33.4154
920	 33.0089
916	 32.5955
912	 32.2988
908	 32.2225
904	 32.2832
900	 32.3197
896	 32.3984
892	 32.4951
888	 32.566
884	 32.7461
880	 32.9485
876	 33.0972
872	 33.2106
868	 33.0925
864	 32.7636
860	 32.448
856	 32.0842
852	 31.7195
848	 31.5381
844	 31.4802
840	 31.6167
836	 31.9166
832	 32.0918
828	 32.1319
824	 32.2488
820	 32.5028
816	 32.6952
812	 32.6167
808	 32.3447
804	 32.0418
800	 31.6702
796	 31.3013
792	 31.1506
788	 31.1265
784	 31.1165
780	 31.1273
776	 31.0578
772	 31.0082
768	 31.1447
764	 31.4235
760	 31.7085
756	 31.7406
752	 31.4619
748	 31.2641
744	 31.1728
740	 30.8619
736	 30.4742
732	 30.2613
728	 30.0341
724	 29.7606
720	 29.7848
716	 30.066
712	 30.2739
708	 30.3634
704	 30.4819
700	 30.6275
696	 30.8032
692	 30.8682
688	 30.6092
684	 30.2643
680	 30.0277
676	 29.7487
672	 29.2719
668	 28.8764
664	 28.8829
660	 29.0219
656	 29.0426
652	 28.9609
648	 28.9041
644	 29.1843
640	 29.6315
636	 29.8577
632	 29.909
628	 29.684
624	 29.2409
620	 28.8258
616	 28.4745
612	 28.1769
608	 27.815
604	 27.5762
600	 27.6948
596	 27.8949
592	 27.9376
588	 27.9474
584	 28.0368
580	 28.0683
576	 28.0295
572	 28.0862
568	 28.2191
564	 28.1943
560	 27.6993
556	 26.9434
552	 26.4621
548	 26.3106
544	 26.2797
540	 26.2217
536	 26.2167
532	 26.4267
528	 26.6187
524	 26.385
520	 26.0116
516	 26.0159
512	 26.26
508	 26.3344
504	 26.1999
500	 25.9669
496	 25.4445
492	 24.9314
488	 24.9104
484	 25.0001
480	 24.9012
476	 24.8451
472	 25.1597
468	 25.5748
464	 25.519
460	 24.9943
456	 24.2397
452	 23.8613
448	 24.383
444	 25.3587
440	 25.8717
436	 25.9219
432	 25.6695
428	 24.0485
424	 21.8096
420	 20.8807
416	 20.7403
412	 20.6945
408	 21.0711
404	 22.3702
400	 23.5604
396	 23.6726
392	 27.8635
388	 35.3222
384	 32.1676
380	 21.7816
376	 19.0576
372	 20.7892
370	 23.6245