File: Bakgrunnsmateriale/MATLAB/FTIR/ftir_data/LPE453/Mapping_121/LPE453_t113.asc
PE IR       SPECTRUM    SPECTRUM    ASCII       PEDS        1.60
  -1
LP9F78~1.ASC
17/05/16
23:41:05.00
17/05/16
23:41:31.00
tln
$LPE453_t0113$<tbV0>[7.8,13.0,8.0,0.0,27,1,0]
27.028
64

2002,4.07
MIRTGS : RIGHTBACK : INTERNAL 2
MIR : ON : INTERNAL 2
OPTKBR

0.200000
8
8.000000
FILLER
RATIO
SPECTRUM
UNLOCKED 256

DOUBLE
64
COMBINED
1
0
0

0.002000
RATIO

1
0
TRUE
51149
0
LEFT NOT FITTED RIGHT NOT FITTED 0
NONE
NONE
15600
12
4.427000
51148
TRUE
1 0 8 72 0 0 0 0

15798

#HDR
-1
-1
#GR
µM
%T
2.38419e-05
0.0
2.000000
0.002000
12515
8
52.3434
-2.292995
#DATA
2.000000	 0.052547
2.018000	 0.312835
2.036000	 0.434805
2.054000	 0.249563
2.072000	 0.035285
2.090000	 -0.018776
2.108000	 0.539144
2.126000	 -0.834367
2.144000	 0.176619
2.162000	 0.325117
2.180000	 1.396888
2.198000	 -0.304537
2.216000	 -1.590616
2.234000	 1.842889
2.252000	 -0.182391
2.270000	 0.041619
2.288000	 0.212749
2.306000	 0.535310
2.324000	 0.618811
2.342000	 0.470402
2.360000	 0.148376
2.378000	 0.014498
2.396000	 0.209247
2.414000	 0.217446
2.432000	 0.057890
2.450000	 0.245927
2.468000	 -0.000010
2.486000	 0.118826
2.504000	 0.056882
2.522000	 0.285509
2.540000	 0.042753
2.558000	 0.319443
2.576000	 0.087316
2.594000	 0.158239
2.612000	 -0.095031
2.630000	 0.196794
2.648000	 0.124961
2.666000	 0.060738
2.684000	 0.156195
2.702000	 0.035157
2.720000	 0.164479
2.738000	 0.207085
2.756000	 0.123396
2.774000	 0.183870
2.792000	 0.014599
2.810000	 0.159411
2.828000	 0.034400
2.846000	 0.033239
2.864000	 -0.006418
2.882000	 -0.045898
2.900000	 -0.039882
2.918000	 -0.023999
2.936000	 0.028655
2.954000	 0.289386
2.972000	 -0.001571
2.990000	 -0.097103
3.008000	 0.111914
3.026000	 -0.020938
3.044000	 -0.084040
3.062000	 0.047614
3.080000	 0.090960
3.098000	 0.054675
3.116000	 -0.046256
3.134000	 0.157168
3.152000	 0.005156
3.170000	 0.041126
3.188000	 -0.124755
3.206000	 0.040976
3.224000	 0.018962
3.242000	 0.003008
3.260000	 0.105103
3.278000	 0.011560
3.296000	 -0.108582
3.314000	 0.137543
3.332000	 0.022704
3.350000	 0.039431
3.368000	 -0.020718
3.386000	 0.129879
3.404000	 0.155073
3.422000	 -0.050642
3.440000	 -0.053463
3.458000	 -0.047362
3.476000	 0.101602
3.494000	 0.079940
3.512000	 -0.075945
3.530000	 0.019359
3.548000	 0.045075
3.566000	 -0.024411
3.584000	 0.029361
3.602000	 0.023094
3.620000	 -0.067590
3.638000	 0.089635
3.656000	 0.052270
3.674000	 -0.072766
3.692000	 -0.015908
3.710000	 0.027268
3.728000	 0.011587
3.746000	 0.011156
3.764000	 -0.038659
3.782000	 0.075112
3.800000	 0.090936
3.818000	 0.009566
3.836000	 0.056070
3.854000	 -0.000983
3.872000	 -0.089832
3.890000	 0.051519
3.908000	 -0.038380
3.926000	 -0.027030
3.944000	 0.041093
3.962000	 0.194957
3.980000	 -0.050656
3.998000	 -0.027229
4.016000	 -0.017016
4.034000	 0.008880
4.052000	 0.082363
4.070000	 0.013690
4.088000	 0.025356
4.106000	 0.015697
4.124000	 0.153960
4.141999	 0.035380
4.160000	 0.083839
4.178000	 0.088135
4.196000	 0.219627
4.214000	 0.235365
4.232000	 0.214963
4.250000	 0.248765
4.268000	 0.366777
4.286000	 0.497727
4.304000	 0.403885
4.322000	 0.628560
4.340000	 0.735810
4.358000	 0.810193
4.375999	 1.073817
4.394000	 1.488844
4.412000	 1.630954
4.430000	 1.906710
4.448000	 2.302646
4.466000	 2.722857
4.484000	 3.142105
4.502000	 3.696506
4.520000	 4.212340
4.538000	 4.880577
4.556000	 5.572710
4.574000	 6.138553
4.592000	 6.928285
4.609999	 7.835031
4.628000	 8.567152
4.646000	 9.530215
4.664000	 10.4029
4.682000	 11.1216
4.700000	 11.9738
4.718000	 12.8891
4.736000	 13.8037
4.754000	 14.7405
4.772000	 15.5149
4.790000	 16.2559
4.808000	 17.1179
4.826000	 18.0257
4.843999	 18.7468
4.862000	 19.3203
4.880000	 20.0851
4.898000	 20.7867
4.916000	 21.4212
4.934000	 21.9632
4.952000	 22.5463
4.970000	 23.1445
4.988000	 23.6598
5.006000	 24.1518
5.024000	 24.5701
5.042000	 24.9653
5.060000	 25.3204
5.077999	 25.7068
5.096000	 26.0517
5.114000	 26.3825
5.132000	 26.7838
5.150000	 27.0002
5.168000	 27.3551
5.186000	 27.7295
5.204000	 27.9185
5.222000	 28.1061
5.240000	 28.3834
5.258000	 28.6057
5.276000	 28.794
5.294000	 28.9469
5.312000	 29.1365
5.330000	 29.3098
5.348000	 29.6023
5.366000	 29.7387
5.384000	 29.8732
5.402000	 30.0697
5.420000	 30.1333
5.438000	 30.1503
5.456000	 30.3098
5.474000	 30.4304
5.492000	 30.4914
5.510000	 30.6356
5.528000	 30.7545
5.546000	 30.7965
5.564000	 30.9238
5.582000	 31.0012
5.600000	 31.0207
5.618000	 31.0264
5.636000	 31.0884
5.654000	 31.1927
5.672000	 31.2208
5.690000	 31.3107
5.708000	 31.4089
5.726000	 31.4855
5.744000	 31.5567
5.762000	 31.6375
5.780000	 31.7123
5.798000	 31.7044
5.816000	 31.675
5.834000	 31.758
5.852000	 31.8606
5.870000	 31.9193
5.888000	 31.9222
5.906000	 31.9299
5.923999	 31.9635
5.942000	 31.9863
5.960000	 32.0089
5.978000	 32.0701
5.996000	 32.1225
6.014000	 32.124
6.032000	 32.1173
6.050000	 32.1825
6.068000	 32.2529
6.086000	 32.2467
6.104000	 32.2835
6.122000	 32.376
6.140000	 32.4849
6.158000	 32.5008
6.176000	 32.5079
6.194000	 32.5479
6.212000	 32.541
6.230000	 32.5833
6.248000	 32.6365
6.266000	 32.6589
6.284000	 32.6507
6.302000	 32.6682
6.320000	 32.6989
6.338000	 32.676
6.356000	 32.6461
6.374000	 32.5954
6.392000	 32.5691
6.410000	 32.6045
6.428000	 32.6912
6.446000	 32.7623
6.464000	 32.771
6.482000	 32.763
6.500000	 32.8015
6.518000	 32.9447
6.536000	 33.0327
6.554000	 32.9622
6.572000	 32.8644
6.590000	 32.8517
6.608000	 32.8957
6.626000	 32.9129
6.644000	 32.9016
6.662000	 32.8609
6.680000	 32.7736
6.698000	 32.7442
6.716000	 32.8325
6.734000	 32.937
6.752000	 32.985
6.770000	 32.9775
6.788000	 32.9459
6.806000	 32.959
6.824000	 33.0132
6.842000	 33.014
6.860000	 32.9815
6.878000	 32.9712
6.896000	 32.9907
6.914000	 33.0293
6.932000	 33.0351
6.950000	 33.0045
6.968000	 32.9987
6.986000	 33.0743
7.004000	 33.1792
7.022000	 33.2304
7.040000	 33.2462
7.058000	 33.2775
7.076000	 33.3261
7.094000	 33.3564
7.112000	 33.3427
7.130000	 33.2802
7.148000	 33.2009
7.166000	 33.1594
7.184000	 33.1534
7.202000	 33.1542
7.220000	 33.163
7.238000	 33.1795
7.256000	 33.2039
7.274000	 33.2397
7.292000	 33.2748
7.310000	 33.2855
7.328000	 33.2563
7.346000	 33.2122
7.364000	 33.2225
7.382000	 33.316
7.400000	 33.4252
7.418000	 33.4773
7.436000	 33.4595
7.454000	 33.3904
7.472000	 33.3204
7.490000	 33.3048
7.508000	 33.3372
7.526000	 33.3674
7.544000	 33.3593
7.562000	 33.3161
7.580000	 33.2565
7.598000	 33.1841
7.616000	 33.1185
7.634000	 33.1092
7.652000	 33.1637
7.670000	 33.236
7.688000	 33.2954
7.706000	 33.3297
7.724000	 33.3312
7.742000	 33.3189
7.760000	 33.3234
7.778000	 33.3435
7.796000	 33.364
7.814000	 33.3881
7.832000	 33.4062
7.850000	 33.3796
7.868000	 33.2987
7.886000	 33.2187
7.904000	 33.1959
7.922000	 33.23
7.940000	 33.2826
7.958000	 33.3113
7.976000	 33.2909
7.994000	 33.2393
8.012000	 33.2072
8.030000	 33.2191
8.048000	 33.2553
8.065999	 33.3036
8.084000	 33.3755
8.102000	 33.4561
8.120000	 33.5011
8.138000	 33.4984
8.155999	 33.4784
8.173999	 33.455
8.192000	 33.4099
8.210000	 33.3451
8.228000	 33.2968
8.246000	 33.2903
8.263999	 33.3112
8.282000	 33.3268
8.300000	 33.3163
8.318000	 33.278
8.336000	 33.222
8.353999	 33.1644
8.372000	 33.1255
8.390000	 33.1205
8.408000	 33.1469
8.426000	 33.1813
8.443999	 33.1972
8.462000	 33.1891
8.480000	 33.1763
8.498000	 33.1858
8.516000	 33.2248
8.533999	 33.2736
8.552000	 33.3042
8.570000	 33.3055
8.588000	 33.29
8.606000	 33.282
8.624000	 33.2989
8.641999	 33.339
8.660000	 33.3826
8.678000	 33.4085
8.696000	 33.4133
8.714000	 33.412
8.731999	 33.4188
8.750000	 33.433
8.768000	 33.4409
8.786000	 33.4279
8.804000	 33.392
8.821999	 33.3503
8.840000	 33.3314
8.858000	 33.3528
8.876000	 33.4036
8.894000	 33.4507
8.911999	 33.465
8.930000	 33.4394
8.948000	 33.3899
8.966000	 33.3456
8.984000	 33.3345
9.001999	 33.3651
9.020000	 33.4148
9.038000	 33.4388
9.056000	 33.4071
9.074000	 33.3315
9.092000	 33.2567
9.109999	 33.2228
9.128000	 33.2374
9.146000	 33.2811
9.164000	 33.334
9.182000	 33.3921
9.199999	 33.4532
9.218000	 33.4953
9.236000	 33.48
9.254000	 33.3838
9.272000	 33.2281
9.289999	 33.0712
9.308000	 32.9689
9.326000	 32.9375
9.344000	 32.9543
9.362000	 32.9852
9.379999	 33.0106
9.398000	 33.0314
9.416000	 33.06
9.434000	 33.1064
9.452000	 33.1689
9.469999	 33.2307
9.488000	 33.2683
9.506000	 33.2683
9.524000	 33.2388
9.542000	 33.2001
9.560000	 33.167
9.577999	 33.1416
9.596000	 33.1225
9.614000	 33.1142
9.632000	 33.1215
9.650000	 33.1399
9.667999	 33.1526
9.686000	 33.1456
9.704000	 33.1219
9.722000	 33.1028
9.740000	 33.1113
9.757999	 33.1549
9.776000	 33.2202
9.794000	 33.2818
9.812000	 33.3172
9.830000	 33.3172
9.847999	 33.2867
9.866000	 33.2391
9.884000	 33.1878
9.902000	 33.1404
9.920000	 33.0968
9.937999	 33.0519
9.956000	 33.0031
9.974000	 32.953
9.992000	 32.9082
10.01	32.8751
10.028	32.8571
10.046	32.8533
10.064	32.8605
10.082	32.8728
10.1	32.8822
10.118	32.8808
10.136	32.8665
10.154	32.8469
10.172	32.8347
10.19	32.8401
10.208	32.8627
10.226	32.8936
10.244	32.9222
10.262	32.9446
10.28	32.9633
10.298	32.9808
10.316	32.9949
10.334	33.0002
10.352	32.9951
10.37	32.9848
10.388	32.9764
10.406	32.9723
10.424	32.9683
10.442	32.9582
10.46	32.941
10.478	32.9242
10.496	32.9177
10.514	32.9249
10.532	32.9379
10.55	32.9436
10.568	32.9331
10.586	32.9082
10.604	32.8807
10.622	32.8646
10.64	32.868
10.658	32.8895
10.676	32.9169
10.694	32.934
10.712	32.9259
10.73	32.8871
10.748	32.823
10.766	32.748
10.784	32.6781
10.802	32.624
10.82	32.5849
10.838	32.5504
10.856	32.5104
10.874	32.461
10.892	32.4098
10.91	32.3709
10.928	32.3559
10.946	32.3687
10.964	32.4033
10.982	32.4471
11	32.487
11.018	32.5141
11.036	32.5262
11.054	32.5272
11.072	32.5233
11.09	32.5219
11.108	32.5283
11.126	32.5447
11.144	32.5686
11.162	32.5941
11.18	32.6133
11.198	32.6192
11.216	32.6089
11.234	32.5835
11.252	32.5491
11.27	32.5136
11.288	32.4854
11.306	32.4703
11.324	32.4701
11.342	32.4812
11.36	32.4963
11.378	32.5051
11.396	32.4987
11.414	32.4713
11.432	32.4229
11.45	32.3588
11.468	32.2881
11.486	32.2198
11.504	32.1612
11.522	32.1161
11.54	32.0864
11.558	32.0725
11.576	32.0744
11.594	32.0923
11.612	32.1244
11.63	32.1666
11.648	32.2134
11.666	32.2578
11.684	32.2942
11.702	32.3203
11.72	32.3374
11.738	32.3488
11.756	32.3577
11.774	32.3653
11.792	32.3694
11.81	32.3656
11.828	32.3501
11.846	32.3213
11.864	32.2827
11.882	32.2407
11.9	32.2034
11.918	32.1767
11.936	32.1625
11.954	32.1589
11.972	32.1605
11.99	32.161
12.008	32.1549
12.026	32.1391
12.044	32.1129
12.062	32.0792
12.08	32.0429
12.098	32.0093
12.116	31.9835
12.134	31.9684
12.152	31.9639
12.17	31.968
12.188	31.9776
12.206	31.9892
12.224	32.0001
12.242	32.0079
12.26	32.0111
12.278	32.0078
12.296	31.996
12.314	31.9739
12.332	31.9408
12.35	31.8977
12.368	31.8475
12.386	31.7951
12.404	31.7461
12.422	31.7056
12.44	31.6763
12.458	31.6591
12.476	31.6522
12.494	31.6525
12.512	31.6562
12.53	31.6595
12.548	31.6592
12.566	31.6535
12.584	31.6417
12.602	31.6248
12.62	31.605
12.638	31.5864
12.656	31.5737
12.674	31.572
12.692	31.5844
12.71	31.6113
12.728	31.6494
12.746	31.6919
12.764	31.7296
12.782	31.753
12.8	31.7544
12.818	31.7303
12.836	31.6809
12.854	31.6113
12.872	31.5298
12.89	31.4466
12.908	31.3721
12.926	31.3152
12.944	31.2817
12.962	31.2735
12.98	31.2883
12.998	31.32
13.016	31.3599
13.034	31.3989
13.052	31.4287
13.07	31.4437
13.088	31.4421
13.106	31.4263
13.124	31.4017
13.142	31.3747
13.16	31.3516
13.178	31.3363
13.196	31.3297
13.214	31.33
13.232	31.3337
13.25	31.337
13.268	31.3373
13.286	31.3332
13.304	31.3253
13.322	31.3147
13.34	31.3027
13.358	31.2902
13.376	31.277
13.394	31.2623
13.412	31.2449
13.43	31.2242
13.448	31.2006
13.466	31.1756
13.484	31.1511
13.502	31.1296
13.52	31.1125
13.538	31.0999
13.556	31.0904
13.574	31.081
13.592	31.0684
13.61	31.0493
13.628	31.0212
13.646	30.9833
13.664	30.937
13.682	30.8846
13.7	30.8302
13.718	30.7781
13.736	30.7324
13.754	30.6967
13.772	30.6732
13.79	30.6628
13.808	30.6645
13.826	30.6766
13.844	30.6958
13.862	30.7182
13.88	30.7397
13.898	30.7558
13.916	30.7631
13.934	30.7586
13.952	30.7411
13.97	30.7106
13.988	30.6693
14.006	30.6204
14.024	30.5687
14.042	30.5194
14.06	30.4772
14.078	30.4459
14.096	30.4275
14.114	30.4223
14.132	30.4289
14.15	30.4446
14.168	30.466
14.186	30.4896
14.204	30.5122
14.222	30.5318
14.24	30.5471
14.258	30.5579
14.276	30.5645
14.294	30.5678
14.312	30.5687
14.33	30.568
14.348	30.5666
14.366	30.5652
14.384	30.5644
14.402	30.5645
14.42	30.5658
14.438	30.5685
14.456	30.5724
14.474	30.5774
14.492	30.5831
14.51	30.5885
14.528	30.5929
14.546	30.5953
14.564	30.5948
14.582	30.5907
14.6	30.5827
14.618	30.5707
14.636	30.555
14.654	30.5363
14.672	30.5153
14.69	30.4929
14.708	30.4697
14.726	30.4467
14.744	30.4244
14.762	30.4033
14.78	30.3839
14.798	30.3663
14.816	30.3506
14.834	30.337
14.852	30.3252
14.87	30.3148
14.888	30.3056
14.906	30.2973
14.924	30.2895
14.942	30.2817
14.96	30.2738
14.978	30.2656
14.996	30.257
15.014	30.2482
15.032	30.2395
15.05	30.2312
15.068	30.2237
15.086	30.2175
15.104	30.2127
15.122	30.2095
15.14	30.2073
15.158	30.2056
15.176	30.2033
15.194	30.1992
15.212	30.192
15.23	30.1804
15.248	30.1634
15.266	30.1404
15.284	30.111
15.302	30.076
15.32	30.0361
15.338	29.9926
15.356	29.947
15.374	29.9013
15.392	29.8569
15.41	29.8151
15.428	29.777
15.446	29.7429
15.464	29.7128
15.482	29.6865
15.5	29.6636
15.518	29.6432
15.536	29.6249
15.554	29.6081
15.572	29.5924
15.59	29.5777
15.608	29.5639
15.626	29.551
15.644	29.5391
15.662	29.528
15.68	29.5176
15.698	29.508
15.716	29.4994
15.734	29.492
15.752	29.4861
15.77	29.4821
15.788	29.4806
15.806	29.4821
15.824	29.4872
15.842	29.4963
15.86	29.5095
15.878	29.5265
15.896	29.5471
15.914	29.5707
15.932	29.5964
15.95	29.6235
15.968	29.6511
15.986	29.6787
16.004	29.706
16.022	29.733
16.04	29.76
16.058	29.7874
16.076	29.8157
16.094	29.8456
16.112	29.8772
16.13	29.9105
16.148	29.9455
16.166	29.9811
16.184	30.0161
16.202	30.0493
16.22	30.0781
16.238	30.1009
16.256	30.1164
16.274	30.1223
16.292	30.1179
16.31	30.1026
16.328	30.076
16.346	30.0387
16.364	29.9913
16.382	29.9353
16.4	29.8722
16.418	29.8034
16.436	29.731
16.454	29.6564
16.472	29.5809
16.49	29.5062
16.508	29.4334
16.526	29.3633
16.544	29.2972
16.562	29.2354
16.58	29.1785
16.598	29.1269
16.616	29.0805
16.634	29.0394
16.652	29.003
16.67	28.9707
16.688	28.9421
16.706	28.9158
16.724	28.8911
16.742	28.8672
16.76	28.8429
16.778	28.8179
16.796	28.7917
16.814	28.7646
16.832	28.7368
16.85	28.7093
16.868	28.6832
16.886	28.6591
16.904	28.6389
16.922	28.6231
16.94	28.6126
16.958	28.6078
16.976	28.6085
16.994	28.6142
17.012	28.6233
17.03	28.635
17.048	28.6463
17.066	28.6559
17.084	28.6615
17.102	28.6609
17.12	28.6532
17.138	28.6367
17.156	28.6114
17.174	28.5769
17.192	28.5344
17.21	28.4848
17.228	28.4301
17.246	28.3726
17.264	28.3138
17.282	28.257
17.3	28.2034
17.318	28.1558
17.336	28.1157
17.354	28.0842
17.372	28.0627
17.39	28.0512
17.408	28.0499
17.426	28.0579
17.444	28.0751
17.462	28.0996
17.48	28.1307
17.498	28.1665
17.516	28.2054
17.534	28.246
17.552	28.2858
17.57	28.3243
17.588	28.359
17.606	28.3893
17.624	28.4137
17.642	28.4317
17.66	28.4427
17.678	28.4466
17.696	28.4436
17.714	28.4343
17.732	28.4197
17.75	28.4005
17.768	28.3789
17.786	28.3555
17.804	28.3328
17.822	28.3115
17.84	28.2936
17.858	28.2798
17.876	28.2711
17.894	28.2678
17.912	28.2703
17.93	28.278
17.948	28.2907
17.966	28.3073
17.984	28.3273
18.002	28.3494
18.02	28.3728
18.038	28.3969
18.056	28.4206
18.074	28.4438
18.092	28.4661
18.11	28.4876
18.128	28.5086
18.146	28.5292
18.164	28.5501
18.182	28.5713
18.2	28.5932
18.218	28.6158
18.236	28.6392
18.254	28.6625
18.272	28.6855
18.29	28.707
18.308	28.7266
18.326	28.7424
18.344	28.7542
18.362	28.7603
18.38	28.7607
18.398	28.7542
18.416	28.7412
18.434	28.7214
18.452	28.6957
18.47	28.6644
18.488	28.6291
18.506	28.5902
18.524	28.5499
18.542	28.5085
18.56	28.4683
18.578	28.4294
18.596	28.3935
18.614	28.3607
18.632	28.3319
18.65	28.3069
18.668	28.2857
18.686	28.2681
18.704	28.2535
18.722	28.2416
18.74	28.2313
18.758	28.2224
18.776	28.2137
18.794	28.205
18.812	28.1954
18.83	28.1847
18.848	28.1723
18.866	28.1581
18.884	28.1418
18.902	28.1234
18.92	28.1026
18.938	28.0796
18.956	28.0544
18.974	28.027
18.992	27.9975
19.01	27.966
19.028	27.9328
19.046	27.898
19.064	27.8619
19.082	27.8245
19.1	27.7864
19.118	27.7477
19.136	27.7087
19.154	27.6697
19.172	27.6312
19.19	27.5931
19.208	27.5562
19.226	27.5203
19.244	27.4858
19.262	27.4526
19.28	27.4208
19.298	27.3906
19.316	27.362
19.334	27.3351
19.352	27.3103
19.37	27.2877
19.388	27.2675
19.406	27.2497
19.424	27.2349
19.442	27.2232
19.46	27.2152
19.478	27.211
19.496	27.2112
19.514	27.2162
19.532	27.226
19.55	27.2408
19.568	27.2604
19.586	27.2851
19.604	27.3143
19.622	27.3474
19.64	27.3842
19.658	27.4233
19.676	27.4648
19.694	27.5069
19.712	27.5496
19.73	27.591
19.748	27.6313
19.766	27.6689
19.784	27.7035
19.802	27.7345
19.82	27.7615
19.838	27.7844
19.856	27.8031
19.874	27.8179
19.892	27.8293
19.91	27.8371
19.928	27.8427
19.946	27.8457
19.964	27.8476
19.982	27.8482
20	27.8484
20.018	27.8487
20.036	27.849
20.054	27.8499
20.072	27.8513
20.09	27.8528
20.108	27.8547
20.126	27.8561
20.144	27.8571
20.162	27.8568
20.18	27.8547
20.198	27.8504
20.216	27.8429
20.234	27.8322
20.252	27.8169
20.27	27.7973
20.288	27.7724
20.306	27.7422
20.324	27.7064
20.342	27.6648
20.36	27.6174
20.378	27.5644
20.396	27.5057
20.414	27.4422
20.432	27.3736
20.45	27.3012
20.468	27.225
20.486	27.1459
20.504	27.0653
20.522	26.9829
20.54	26.9012
20.558	26.8197
20.576	26.7405
20.594	26.6644
20.612	26.592
20.63	26.5255
20.648	26.4644
20.666	26.411
20.684	26.3652
20.702	26.3279
20.72	26.3001
20.738	26.2816
20.756	26.2729
20.774	26.274
20.792	26.2843
20.81	26.3038
20.828	26.3317
20.846	26.3668
20.864	26.4092
20.882	26.4564
20.9	26.5087
20.918	26.5639
20.936	26.6205
20.954	26.6786
20.972	26.7347
20.99	26.7896
21.008	26.841
21.026	26.888
21.044	26.9306
21.062	26.9672
21.08	26.9982
21.098	27.0232
21.116	27.0418
21.134	27.0543
21.152	27.0612
21.17	27.0621
21.188	27.0582
21.206	27.0495
21.224	27.0366
21.242	27.0205
21.26	27.0008
21.278	26.9787
21.296	26.9545
21.314	26.9284
21.332	26.9009
21.35	26.872
21.368	26.842
21.386	26.8111
21.404	26.779
21.422	26.746
21.44	26.7118
21.458	26.6766
21.476	26.6403
21.494	26.603
21.512	26.5649
21.53	26.5259
21.548	26.4862
21.566	26.446
21.584	26.4051
21.602	26.3643
21.62	26.3235
21.638	26.283
21.656	26.2435
21.674	26.2046
21.692	26.1675
21.71	26.1323
21.728	26.0992
21.746	26.0692
21.764	26.0421
21.782	26.0186
21.8	25.9993
21.818	25.984
21.836	25.9733
21.854	25.9674
21.872	25.9661
21.89	25.9695
21.908	25.9776
21.926	25.99
21.944	26.0066
21.962	26.0273
21.98	26.0506
21.998	26.0769
22.016	26.1052
22.034	26.1339
22.052	26.1637
22.07	26.1926
22.088	26.219
22.106	26.2438
22.124	26.2641
22.142	26.2797
22.16	26.2903
22.178	26.2937
22.196	26.2903
22.214	26.2796
22.232	26.2603
22.25	26.2328
22.268	26.1973
22.286	26.1534
22.304	26.1014
22.322	26.0426
22.34	25.9766
22.358	25.9043
22.376	25.8282
22.394	25.7472
22.412	25.6633
22.43	25.5794
22.448	25.4941
22.466	25.4101
22.484	25.3296
22.502	25.2514
22.52	25.1785
22.538	25.1121
22.556	25.0514
22.574	24.9987
22.592	24.9542
22.61	24.9177
22.628	24.8903
22.646	24.8719
22.664	24.8623
22.682	24.8613
22.7	24.8693
22.718	24.8854
22.736	24.9087
22.754	24.9398
22.772	24.9775
22.79	25.0208
22.808	25.0703
22.826	25.1243
22.844	25.182
22.862	25.2439
22.88	25.308
22.898	25.3734
22.916	25.4408
22.934	25.5075
22.952	25.5728
22.97	25.6373
22.988	25.6987
23.006	25.7568
23.024	25.8117
23.042	25.861
23.06	25.905
23.078	25.9434
23.096	25.9733
23.114	25.995
23.132	26.0082
23.15	26.0107
23.168	26.0025
23.186	25.9837
23.204	25.9534
23.222	25.9111
23.24	25.8575
23.258	25.793
23.276	25.717
23.294	25.6304
23.312	25.535
23.33	25.4297
23.348	25.3159
23.366	25.1972
23.384	25.0724
23.402	24.9427
23.42	24.8128
23.438	24.6819
23.456	24.5505
23.474	24.4242
23.492	24.3029
23.51	24.1864
23.528	24.0802
23.546	23.9852
23.564	23.9002
23.582	23.8293
23.6	23.7742
23.618	23.7332
23.636	23.708
23.654	23.6995
23.672	23.7072
23.69	23.7305
23.708	23.7693
23.726	23.8241
23.744	23.8929
23.762	23.974
23.78	24.0695
23.798	24.1757
23.816	24.2891
23.834	24.4123
23.852	24.5421
23.87	24.6732
23.888	24.8077
23.906	24.9438
23.924	25.0764
23.942	25.2057
23.96	25.332
23.978	25.4514
23.996	25.5626
24.014	25.6671
24.032	25.7622
24.05	25.846
24.068	25.9197
24.086	25.9829
24.104	26.0347
24.122	26.075
24.14	26.1048
24.158	26.1248
24.176	26.1337
24.194	26.1331
24.212	26.126
24.23	26.1121
24.248	26.0911
24.266	26.0668
24.284	26.0409
24.302	26.011
24.32	25.9819
24.338	25.9577
24.356	25.9353
24.374	25.9178
24.392	25.9101
24.41	25.9109
24.428	25.9204
24.446	25.944
24.464	25.9829
24.482	26.0347
24.5	26.1045
24.518	26.1968
24.536	26.3083
24.554	26.4412
24.572	26.599
24.59	26.7819
24.608	26.9887
24.626	27.2194
24.644	27.4748
24.662	27.7552
24.68	28.0569
24.698	28.3767
24.716	28.7177
24.734	29.0766
24.752	29.4477
24.77	29.8329
24.788	30.2323
24.806	30.6367
24.824	31.0406
24.842	31.4508
24.86	31.8587
24.878	32.2542
24.896	32.6423
24.914	33.0208
24.932	33.3779
24.95	33.7079
24.968	34.0184
24.986	34.3002
25.004	34.5432
25.022	34.7524
25.04	34.9262
25.058	35.0562
25.076	35.1383
25.094	35.1773
25.112	35.1701
25.13	35.1131
25.148	35.0068
25.166	34.8527
25.184	34.6514
25.202	34.4023
25.22	34.1044
25.238	33.763
25.256	33.3834
25.274	32.961
25.292	32.4991
25.31	32.0066
25.328	31.4878
25.346	30.9354
25.364	30.3597
25.382	29.7718
25.4	29.1681
25.418	28.5481
25.436	27.9231
25.454	27.3012
25.472	26.6743
25.49	26.0485
25.508	25.433
25.526	24.8288
25.544	24.2314
25.562	23.6492
25.58	23.0897
25.598	22.5482
25.616	22.0263
25.634	21.5306
25.652	21.0655
25.67	20.6265
25.688	20.2158
25.706	19.8361
25.724	19.488
25.742	19.1703
25.76	18.8826
25.778	18.6251
25.796	18.3999
25.814	18.2044
25.832	18.0337
25.85	17.8852
25.868	17.7624
25.886	17.662
25.904	17.5792
25.922	17.5144
25.94	17.47
25.958	17.4396
25.976	17.417
25.994	17.4023
26.012	17.3976
26.03	17.4019
26.048	17.4142
26.066	17.4316
26.084	17.4582
26.102	17.4997
26.12	17.5581
26.138	17.6254
26.156	17.7124
26.174	17.8319
26.192	17.9853
26.21	18.1626
26.228	18.3805
26.246	18.6566
26.264	18.9887
26.282	19.3696
26.3	19.8143
26.318	20.3377
26.336	20.9357
26.354	21.6048
26.372	22.3511
26.39	23.1806
26.408	24.0959
26.426	25.0903
26.444	26.1564
26.462	27.2893
26.48	28.5034
26.498	29.7838
26.516	31.1085
26.534	32.4636
26.552	33.8755
26.57	35.3203
26.588	36.7646
26.606	38.1903
26.624	39.6306
26.642	41.0568
26.66	42.4321
26.678	43.7382
26.696	45.0084
26.714	46.2158
26.732	47.3279
26.75	48.3284
26.768	49.2433
26.786	50.0568
26.804	50.7497
26.822	51.3111
26.84	51.7546
26.858	52.0775
26.876	52.2757
26.894	52.3434
26.912	52.2799
26.93	52.0975
26.948	51.8088
26.966	51.3773
26.984	50.7293
27.002	50.0338
27.02	49.4753
27.028	49.3341