File: Bakgrunnsmateriale/MATLAB/FTIR/ftir_data/LPE453/Mapping_121/LPE453_t111_cm-1.asc
PE IR       SPECTRUM    SPECTRUM    ASCII       PEDS        1.60
  -1
LP04FC~1.ASC
17/05/16
23:31:51.00
17/05/16
23:31:51.00
tln
$LPE453_t0111$<tbV0>[13.0,13.0,8.0,0.0,27,1,0]
370
64

2002,4.07
MIRTGS : RIGHTBACK : INTERNAL 2
MIR : ON : INTERNAL 2
OPTKBR

0.200000
8
8.000000
FILLER
RATIO
SPECTRUM
UNLOCKED 256

DOUBLE
64
COMBINED
1
0
0

1.000000
RATIO

1
0
TRUE
51149
0
LEFT NOT FITTED RIGHT NOT FITTED 0
NONE
NONE
15600
12
4.427000
51148
TRUE
1 0 8 72 0 0 0 0

15798

#HDR
-1
-1
#GR
CM-1
%T
2.38419e-05
0.0
5000
-1.000000
4631
8
19.7411
-6.063604
#DATA
5000	-0.153827
4996	-0.017094
4992	0.038695
4988	-0.068736
4984	-0.152516
4980	-0.081229
4976	0.056242
4972	0.286293
4968	0.415873
4964	0.282287
4960	0.032210
4956	-0.018668
4952	0.114440
4948	0.222206
4944	0.353360
4940	0.371813
4936	0.248026
4932	0.103092
4928	-0.098919
4924	-0.226354
4920	-0.234532
4916	-0.187158
4912	-0.042581
4908	0.165534
4904	0.217247
4900	0.083804
4896	0.109028
4892	0.246930
4888	0.171732
4884	-0.002408
4880	-0.138831
4876	-0.272250
4872	-0.366353
4868	-0.356459
4864	-0.257277
4860	0.001978
4856	0.065994
4852	-0.206947
4848	-0.255441
4844	0.006365
4840	0.211286
4836	0.299143
4832	0.269293
4828	0.084376
4824	0.020837
4820	0.186109
4816	0.332713
4812	0.347781
4808	0.435066
4804	0.574922
4800	0.476050
4796	0.385999
4792	0.370717
4788	0.014781
4784	-0.484371
4780	-0.629043
4776	-0.409269
4772	-0.319433
4768	-0.396323
4764	-0.240993
4760	0.120925
4756	0.442504
4752	0.459527
4748	0.280451
4744	0.291991
4740	0.398635
4736	0.235819
4732	0.111389
4728	0.312733
4724	0.486207
4720	0.372409
4716	0.268197
4712	0.179672
4708	-0.017023
4704	0.077438
4700	0.291466
4696	0.347590
4692	0.329995
4688	0.095844
4684	-0.604915
4680	-1.386642
4676	-1.331377
4672	-0.952911
4668	-0.550031
4664	0.427007
4660	1.144146
4656	0.929141
4652	-0.154376
4648	-0.955128
4644	-0.506353
4640	0.233864
4636	0.936222
4632	1.676607
4628	2.004742
4624	1.939296
4620	1.229691
4616	0.262522
4612	0.015020
4608	0.099897
4604	0.495505
4600	1.057791
4596	1.266908
4592	1.330661
4588	1.062369
4584	0.694847
4580	0.635576
4576	0.778317
4572	0.808119
4568	0.595903
4564	0.492167
4560	0.250053
4556	-0.231003
4552	-0.518250
4548	-0.382947
4544	-0.043487
4540	0.424098
4536	0.759816
4532	0.623178
4528	0.177335
4524	-0.260210
4520	-0.045752
4516	-0.701427
4512	-1.171422
4508	-0.995922
4504	4.200339
4500	12.1249
4496	11.7307
4492	7.609486
4488	2.138328
4484	-2.511692
4480	-1.881647
4476	-1.085805
4472	-1.016879
4468	-0.004744
4464	0.141215
4460	-0.242877
4456	-0.624966
4452	-0.442123
4448	-0.118517
4444	-0.381851
4440	-0.602650
4436	-0.515484
4432	-0.405144
4428	-0.194787
4424	0.280880
4420	0.685715
4416	0.633120
4412	0.415658
4408	0.293040
4404	0.243687
4400	0.410389
4396	0.808763
4392	0.896978
4388	0.431299
4384	0.091123
4380	0.016498
4376	-0.118255
4372	0.008630
4368	0.347590
4364	0.481939
4360	0.465965
4356	0.399303
4352	0.263071
4348	0.093960
4344	0.051784
4340	0.293874
4336	0.545883
4332	0.399279
4328	-0.037837
4324	-0.340318
4320	-0.320982
4316	0.008821
4312	0.249242
4308	0.219845
4304	0.109982
4300	-0.114011
4296	-0.123858
4292	0.094485
4288	0.052428
4284	-0.000333
4280	0.090265
4276	0.010561
4272	-0.039219
4268	0.099825
4264	0.168251
4260	0.072526
4256	-0.075316
4252	-0.149083
4248	-0.135636
4244	-0.161504
4240	-0.156259
4236	0.078487
4232	0.355648
4228	0.344276
4224	0.064659
4220	-0.123262
4216	-0.082635
4212	0.051999
4208	0.200462
4204	0.198960
4200	0.026392
4196	-0.139784
4192	-0.128293
4188	0.139617
4184	0.438284
4180	0.473785
4176	0.400710
4172	0.574374
4168	0.649333
4164	0.256371
4160	-0.125312
4156	-0.153923
4152	0.053381
4148	0.196170
4144	0.123238
4140	0.028944
4136	0.038528
4132	0.109076
4128	0.179171
4124	0.230598
4120	0.179576
4116	0.085830
4112	0.077056
4108	0.056314
4104	0.044727
4100	0.049829
4096	-0.021910
4092	-0.091814
4088	-0.023913
4084	0.063848
4080	-0.016069
4076	-0.063061
4072	0.081658
4068	0.161218
4064	0.070333
4060	-0.037026
4056	-0.106573
4052	-0.110268
4048	-0.071954
4044	-0.060319
4040	-0.009083
4036	0.092363
4032	0.115156
4028	0.058412
4024	0.105643
4020	0.301837
4016	0.446653
4012	0.366830
4008	0.122237
4004	-0.051975
4000	-0.163555
3996	-0.331068
3992	-0.308942
3988	-0.029706
3984	0.083422
3980	0.008487
3976	-0.016307
3972	0.053071
3968	0.218319
3964	0.279998
3960	0.226521
3956	0.197243
3952	0.123572
3948	0.007176
3944	-0.066781
3940	-0.036740
3936	0.025010
3932	-0.001883
3928	-0.013399
3924	0.017380
3920	-0.021815
3916	-0.007057
3912	0.073289
3908	0.063967
3904	0.082564
3900	0.184941
3896	0.192213
3892	0.059366
3888	-0.034856
3884	-0.022387
3880	-0.013875
3876	-0.033020
3872	-0.073719
3868	-0.151705
3864	-0.172662
3860	-0.098013
3856	0.017499
3852	0.188398
3848	0.247550
3844	0.094294
3840	-0.018048
3836	0.008535
3832	0.082850
3828	0.157785
3824	0.183868
3820	0.186729
3816	0.192785
3812	0.111937
3808	-0.017404
3804	-0.005888
3800	0.105738
3796	0.119280
3792	0.057005
3788	-0.034022
3784	-0.109720
3780	-0.097584
3776	-0.048494
3772	0.052738
3768	0.160884
3764	0.138330
3760	0.042319
3756	-0.014948
3752	-0.027251
3748	-0.027847
3744	-0.060939
3740	-0.078177
3736	-0.067114
3732	-0.045204
3728	-0.021815
3724	-0.061845
3720	-0.058031
3716	0.019717
3712	0.029587
3708	0.041198
3704	0.148367
3700	0.210261
3696	0.166940
3692	0.109648
3688	0.008296
3684	-0.050210
3680	0.041127
3676	0.147557
3672	0.153255
3668	0.092744
3664	0.023937
3660	0.031948
3656	0.086665
3652	0.043153
3648	-0.040578
3644	-0.040483
3640	-0.008606
3636	0.031614
3632	0.097990
3628	0.059509
3624	-0.019264
3620	0.024771
3616	0.113749
3612	0.157904
3608	0.110721
3604	0.039696
3600	0.060057
3596	-0.000977
3592	-0.162458
3588	-0.153827
3584	-0.011849
3580	0.066018
3576	0.060248
3572	0.041604
3568	0.020384
3564	-0.007462
3560	-0.061035
3556	-0.141239
3552	-0.099301
3548	0.018072
3544	0.013375
3540	-0.031018
3536	0.028133
3532	0.094366
3528	0.109004
3524	0.124263
3520	0.123095
3516	0.106739
3512	0.046610
3508	-0.010323
3504	0.029706
3500	0.078749
3496	0.070881
3492	0.055432
3488	0.095343
3484	0.149393
3480	0.101804
3476	0.077748
3472	0.203871
3468	0.229978
3464	0.058460
3460	-0.090146
3456	-0.130271
3452	-0.059247
3448	0.054883
3444	0.051736
3440	-0.027847
3436	-0.020909
3432	0.046849
3428	0.101137
3424	0.117278
3420	0.071907
3416	0.067400
3412	0.180745
3408	0.279545
3404	0.236701
3400	0.152397
3396	0.118780
3392	0.110960
3388	0.166010
3384	0.251626
3380	0.277423
3376	0.225687
3372	0.141191
3368	0.136566
3364	0.153112
3360	0.098776
3356	0.084900
3352	0.070834
3348	-0.052666
3344	-0.126147
3340	-0.060629
3336	-0.030612
3332	-0.077843
3328	-0.102686
3324	-0.014233
3320	0.186228
3316	0.245809
3312	0.121068
3308	0.030946
3304	0.014805
3300	0.073504
3296	0.099802
3292	-0.044465
3288	-0.200748
3284	-0.152873
3280	0.012660
3276	0.088715
3272	0.086355
3268	0.058674
3264	0.027966
3260	0.045943
3256	0.103449
3252	0.123190
3248	0.098752
3244	0.059914
3240	-0.005054
3236	-0.003147
3232	0.094127
3228	0.155353
3224	0.147843
3220	0.096774
3216	0.010251
3212	-0.056195
3208	-0.061988
3204	-0.037741
3200	-0.025463
3196	-0.033473
3192	-0.060772
3188	-0.071001
3184	-0.037169
3180	0.024962
3176	0.085449
3172	0.112342
3168	0.017619
3164	-0.125527
3160	-0.089812
3156	0.032138
3152	0.052547
3148	0.033998
3144	0.051999
3140	0.094318
3136	0.090074
3132	0.076460
3128	0.139641
3124	0.139856
3120	0.020027
3116	-0.087523
3112	-0.082421
3108	0.002121
3104	0.034308
3100	0.021338
3096	0.024843
3092	0.011777
3088	-0.025629
3084	0.026917
3080	0.144219
3076	0.170087
3072	0.112080
3068	0.047564
3064	0.017237
3060	0.014734
3056	0.002765
3052	-0.019454
3048	0.012898
3044	0.062251
3040	0.052976
3036	0.028300
3032	0.017261
3028	0.026583
3024	0.073671
3020	0.110268
3016	0.080633
3012	0.050091
3008	0.007128
3004	-0.116467
3000	-0.168728
2996	-0.087690
2992	-0.011777
2988	0.041604
2984	0.063991
2980	0.061988
2976	0.147628
2972	0.218200
2968	0.143361
2964	0.022792
2960	-0.053644
2956	-0.042724
2952	0.037693
2948	0.079369
2944	0.054740
2940	0.038957
2936	0.031995
2932	-0.028777
2928	-0.068688
2924	-0.001621
2920	0.095057
2916	0.155854
2912	0.121808
2908	-0.029540
2904	-0.129556
2900	-0.034141
2896	0.134110
2892	0.194358
2888	0.160098
2884	0.082278
2880	0.001311
2876	-0.036597
2872	-0.039124
2868	-0.031685
2864	0.029754
2860	0.119328
2856	0.135111
2852	0.059890
2848	-0.045442
2844	-0.042462
2840	0.005722
2836	-0.016593
2832	-0.002789
2828	0.049734
2824	0.068402
2820	0.049161
2816	0.024390
2812	0.017571
2808	-0.003743
2804	-0.019836
2800	0.010037
2796	0.063705
2792	0.111913
2788	0.107645
2784	0.021600
2780	-0.038599
2776	0.033044
2772	0.117659
2768	0.085639
2764	0.042819
2760	0.068902
2756	0.087690
2752	0.010251
2748	-0.085735
2744	-0.060439
2740	0.015544
2736	0.072169
2732	0.100660
2728	0.062751
2724	0.003671
2720	-0.008058
2716	-0.007557
2712	-0.045871
2708	-0.063204
2704	-0.027251
2700	0.008559
2696	0.025439
2692	0.067114
2688	0.103783
2684	0.109934
2680	0.111198
2676	0.078105
2672	0.015974
2668	-0.004911
2664	0.021457
2660	0.036072
2656	0.026321
2652	0.015616
2648	0.021457
2644	0.036549
2640	0.044488
2636	0.048494
2632	0.047731
2628	0.038480
2624	0.025939
2620	0.004959
2616	-0.003814
2612	0.000858
2608	-0.028657
2604	-0.034427
2600	0.012421
2596	0.056219
2592	0.074529
2588	0.057721
2584	0.033068
2580	0.060272
2576	0.130867
2572	0.165605
2568	0.172114
2564	0.158810
2560	0.077819
2556	-0.035285
2552	-0.091791
2548	-0.093293
2544	-0.064444
2540	-0.006604
2536	0.055956
2532	0.114226
2528	0.128746
2524	0.080680
2520	0.023317
2516	0.017476
2512	0.031137
2508	-0.002741
2504	-0.005674
2500	0.042319
2496	0.077652
2492	0.104022
2488	0.087189
2484	0.003743
2480	-0.040960
2476	0.031447
2472	0.079798
2468	0.013923
2464	-0.057673
2460	-0.050640
2456	0.011944
2452	0.065088
2448	0.104665
2444	0.115537
2440	0.066518
2436	0.027847
2432	0.047087
2428	0.062465
2424	0.061178
2420	0.074219
2416	0.116848
2412	0.183987
2408	0.160455
2404	0.060439
2400	0.040316
2396	0.069189
2392	0.064468
2388	0.004339
2384	-0.067734
2380	-0.067067
2376	-0.023412
2372	-0.004148
2368	-0.009536
2364	-0.022435
2360	-0.039219
2356	-0.028347
2352	0.016093
2348	0.004577
2344	-0.032091
2340	-0.016283
2336	-0.015163
2332	-0.040316
2328	-0.037455
2324	0.007963
2320	0.062060
2316	0.063014
2312	0.043702
2308	0.054025
2304	0.041532
2300	-0.007176
2296	-0.005292
2292	0.079989
2288	0.138258
2284	0.106096
2280	0.073647
2276	0.066161
2272	0.051379
2268	0.052952
2264	0.092148
2260	0.133299
2256	0.121283
2252	0.082659
2248	0.087404
2244	0.137090
2240	0.159287
2236	0.189661
2232	0.289320
2228	0.403070
2224	0.461578
2220	0.439524
2216	0.418472
2212	0.450301
2208	0.499868
2204	0.552630
2200	0.591969
2196	0.641942
2192	0.726628
2188	0.793075
2184	0.841307
2180	0.951313
2176	1.119232
2172	1.288914
2168	1.422929
2164	1.498079
2160	1.625108
2156	1.864933
2152	2.054882
2148	2.150964
2144	2.255296
2140	2.387475
2136	2.574610
2132	2.784538
2128	2.955126
2124	3.135371
2120	3.330922
2116	3.531861
2112	3.751873
2108	3.956294
2104	4.164457
2100	4.419302
2096	4.699349
2092	4.985547
2088	5.248713
2084	5.444979
2080	5.633497
2076	5.908155
2072	6.215882
2068	6.464648
2064	6.708645
2060	7.026028
2056	7.371497
2052	7.652020
2048	7.860827
2044	8.048605
2040	8.262634
2036	8.568215
2032	8.897113
2028	9.156155
2024	9.376263
2020	9.578371
2016	9.793639
2012	10.0043
2008	10.2039
2004	10.461
2000	10.7362
1996	10.9735
1992	11.1921
1988	11.3988
1984	11.6515
1980	11.9715
1976	12.2096
1972	12.345
1968	12.5276
1964	12.7354
1960	12.9019
1956	13.0952
1952	13.3577
1948	13.6113
1944	13.7651
1940	13.8744
1936	14.0481
1932	14.211
1928	14.2916
1924	14.4125
1920	14.6164
1916	14.8161
1912	14.9941
1908	15.1828
1904	15.3584
1900	15.5199
1896	15.6649
1892	15.7708
1888	15.8595
1884	15.973
1880	16.1394
1876	16.2925
1872	16.3947
1868	16.474
1864	16.5153
1860	16.5566
1856	16.6687
1852	16.8226
1848	16.9386
1844	16.9837
1840	17.0213
1836	17.1295
1832	17.2819
1828	17.4198
1824	17.5188
1820	17.5706
1816	17.6105
1812	17.6776
1808	17.7454
1804	17.7936
1800	17.8332
1796	17.8832
1792	17.972
1788	18.0596
1784	18.1152
1780	18.1901
1776	18.2559
1772	18.2697
1768	18.2898
1764	18.3281
1760	18.376
1756	18.4686
1752	18.5516
1748	18.5619
1744	18.5457
1740	18.5619
1736	18.6158
1732	18.6985
1728	18.7812
1724	18.7788
1720	18.7216
1716	18.7541
1712	18.8476
1708	18.873
1704	18.8714
1700	18.9394
1696	19.0463
1692	19.0928
1688	19.095
1684	19.1568
1680	19.2031
1676	19.1334
1672	19.0974
1668	19.1712
1664	19.2172
1660	19.2443
1656	19.3156
1652	19.3444
1648	19.3178
1644	19.3295
1640	19.3789
1636	19.4319
1632	19.4773
1628	19.4861
1624	19.4796
1620	19.4666
1616	19.4443
1612	19.432
1608	19.4374
1604	19.4777
1600	19.5172
1596	19.4988
1592	19.4834
1588	19.5133
1584	19.5071
1580	19.511
1576	19.5865
1572	19.6566
1568	19.7181
1564	19.736
1560	19.6559
1556	19.5826
1552	19.6104
1548	19.6578
1544	19.6264
1540	19.5664
1536	19.5619
1532	19.614
1528	19.6181
1524	19.5226
1520	19.4674
1516	19.5504
1512	19.6717
1508	19.707
1504	19.6336
1500	19.5394
1496	19.5063
1492	19.4935
1488	19.4739
1484	19.5155
1480	19.5686
1476	19.4969
1472	19.412
1468	19.469
1464	19.5642
1460	19.593
1456	19.6318
1452	19.6908
1448	19.6494
1444	19.5928
1440	19.6275
1436	19.6505
1432	19.605
1428	19.5707
1424	19.5803
1420	19.5743
1416	19.5687
1412	19.5816
1408	19.5545
1404	19.516
1400	19.524
1396	19.5209
1392	19.471
1388	19.4331
1384	19.3935
1380	19.3581
1376	19.3784
1372	19.4104
1368	19.4247
1364	19.4462
1360	19.462
1356	19.4425
1352	19.4334
1348	19.4415
1344	19.4386
1340	19.4133
1336	19.3827
1332	19.3891
1328	19.3788
1324	19.3349
1320	19.2965
1316	19.276
1312	19.2489
1308	19.1847
1304	19.1467
1300	19.1432
1296	19.1258
1292	19.1092
1288	19.0748
1284	19.034
1280	19.0364
1276	19.0687
1272	19.0755
1268	19.0089
1264	18.9232
1260	18.9091
1256	18.9255
1252	18.8652
1248	18.7545
1244	18.6624
1240	18.589
1236	18.5453
1232	18.5195
1228	18.5131
1224	18.5178
1220	18.5228
1216	18.5532
1212	18.5846
1208	18.5964
1204	18.5854
1200	18.5527
1196	18.4725
1192	18.3623
1188	18.3055
1184	18.3168
1180	18.3345
1176	18.2703
1172	18.1671
1168	18.1843
1164	18.2755
1160	18.2879
1156	18.2051
1152	18.1137
1148	18.1283
1144	18.1694
1140	18.1449
1136	18.124
1132	18.0787
1128	17.9953
1124	17.9219
1120	17.813
1116	17.697
1112	17.6908
1108	17.7676
1104	17.7933
1100	17.7002
1096	17.5898
1092	17.5512
1088	17.4951
1084	17.4134
1080	17.3148
1076	17.2373
1072	17.257
1068	17.2951
1064	17.2963
1060	17.2237
1056	17.1319
1052	17.1351
1048	17.1725
1044	17.1269
1040	17.0361
1036	16.9596
1032	16.9159
1028	16.8989
1024	16.8195
1020	16.744
1016	16.7505
1012	16.732
1008	16.669
1004	16.6373
1000	16.6484
996	 16.6775
992	 16.6535
988	 16.5388
984	 16.4346
980	 16.3522
976	 16.2568
972	 16.1868
968	 16.1797
964	 16.221
960	 16.2177
956	 16.1341
952	 16.0351
948	 15.9881
944	 15.9981
940	 16.0148
936	 15.9882
932	 15.9265
928	 15.8717
924	 15.8432
920	 15.7872
916	 15.6597
912	 15.514
908	 15.4398
904	 15.4513
900	 15.4361
896	 15.3768
892	 15.3718
888	 15.4222
884	 15.4141
880	 15.2873
876	 15.1325
872	 14.978
868	 14.8498
864	 14.8213
860	 14.8341
856	 14.8198
852	 14.798
848	 14.8173
844	 14.8377
840	 14.7748
836	 14.6156
832	 14.4669
828	 14.4175
824	 14.4129
820	 14.5461
816	 14.659
812	 14.3877
808	 14.1117
804	 14.1824
800	 14.1944
796	 14.054
792	 14.0264
788	 14.0416
784	 13.9731
780	 13.8892
776	 13.8188
772	 13.6471
768	 13.441
764	 13.4421
760	 13.5537
756	 13.5342
752	 13.4302
748	 13.3448
744	 13.2812
740	 13.1951
736	 13.1352
732	 13.1465
728	 13.1403
724	 13.0754
720	 12.9399
716	 12.8225
712	 12.806
708	 12.7532
704	 12.6852
700	 12.7609
696	 12.8198
692	 12.6419
688	 12.3936
684	 12.2922
680	 12.2916
676	 12.2279
672	 12.0261
668	 11.7848
664	 11.5759
660	 11.4379
656	 11.43
652	 11.4808
648	 11.4685
644	 11.2921
640	 11.0515
636	 11.0297
632	 11.1687
628	 11.221
624	 11.2136
620	 11.2591
616	 11.2642
612	 11.1014
608	 10.8604
604	 10.7637
600	 10.7199
596	 10.5226
592	 10.3621
588	 10.3517
584	 10.3051
580	 10.1575
576	 10.1529
572	 10.3558
568	 10.4264
564	 10.2836
560	 10.1209
556	 10.1267
552	 10.0475
548	 9.512925
544	 9.114122
540	 9.195637
536	 9.356021
532	 9.306025
528	 8.953595
524	 8.733463
520	 8.861184
516	 9.078955
512	 9.301495
508	 9.415292
504	 9.218263
500	 8.843898
496	 8.557033
492	 8.332633
488	 8.282041
484	 8.463263
480	 8.663678
476	 8.547806
472	 8.186769
468	 8.119034
464	 8.083844
460	 7.918977
456	 8.061718
452	 7.867074
448	 7.348299
444	 7.249259
440	 7.185173
436	 6.713986
432	 5.720424
428	 4.549074
424	 3.509616
420	 3.296995
416	 4.181122
412	 5.127358
408	 3.933382
404	 -1.681518
400	 -6.063604
396	 -0.635075
392	 9.378933
388	 12.0363
384	 9.803414
380	 11.888
376	 14.4534
372	 6.880998
370	 -0.041055