File: Bakgrunnsmateriale/MATLAB/FTIR/ftir_data/LPE453/Mapping_121/LPE453_t61_cm-1.asc
PE IR       SPECTRUM    SPECTRUM    ASCII       PEDS        1.60
  -1
LP5AD5~1.ASC
17/05/16
19:20:41.00
17/05/16
19:20:41.00
tln
$LPE453_t0061$<tbV0>[0.0,0.0,8.0,0.0,27,1,0]
370
64

2002,4.07
MIRTGS : RIGHTBACK : INTERNAL 2
MIR : ON : INTERNAL 2
OPTKBR

0.200000
8
8.000000
FILLER
RATIO
SPECTRUM
UNLOCKED 256

DOUBLE
64
COMBINED
1
0
0

1.000000
RATIO

1
0
TRUE
51149
0
LEFT NOT FITTED RIGHT NOT FITTED 0
NONE
NONE
15600
12
4.427000
51148
TRUE
1 0 8 72 0 0 0 0

15798

#HDR
-1
-1
#GR
CM-1
%T
2.38419e-05
0.0
5000
-1.000000
4631
8
30.3524
-22.3091
#DATA
5000	0.046706
4996	-0.187611
4992	-0.274968
4988	-0.212717
4984	-0.271415
4980	-0.044393
4976	0.240159
4972	0.191164
4968	0.337886
4964	0.546765
4960	0.516819
4956	0.490593
4952	0.334358
4948	0.109243
4944	0.280404
4940	0.420260
4936	0.197124
4932	0.101995
4928	0.108051
4924	0.103616
4920	0.171160
4916	0.093412
4912	-0.075316
4908	-0.127720
4904	-0.167322
4900	-0.210762
4896	-0.143861
4892	0.070762
4888	0.057411
4884	-0.227212
4880	-0.095224
4876	0.384902
4872	0.651240
4868	0.758600
4864	0.632810
4860	0.212836
4856	-0.067615
4852	-0.093245
4848	0.077486
4844	0.360727
4840	0.340008
4836	0.113749
4832	0.000452
4828	0.155806
4824	0.522971
4820	0.579953
4816	0.169014
4812	-0.073766
4808	0.161194
4804	0.450587
4800	0.481534
4796	0.381231
4792	0.299334
4788	0.173830
4784	-0.113105
4780	-0.350761
4776	-0.158214
4772	0.271821
4768	0.154829
4764	-0.390005
4760	-0.197339
4756	0.809788
4752	1.300024
4748	0.520849
4744	-0.450348
4740	-0.193071
4736	0.844526
4732	1.276826
4728	0.915098
4724	0.326848
4720	-0.340890
4716	-1.009917
4712	-1.521229
4708	-1.114058
4704	-0.101804
4700	0.055313
4696	0.027894
4692	0.488829
4688	0.568723
4684	0.485420
4680	0.776648
4676	0.788879
4672	-0.030279
4668	-0.648713
4664	-0.259280
4660	0.297880
4656	0.707483
4652	0.728440
4648	0.098252
4644	-0.294899
4640	-0.053381
4636	0.091838
4632	0.021576
4628	-0.032997
4624	-0.171780
4620	-0.040721
4616	0.244235
4612	0.397610
4608	0.375270
4604	0.036144
4600	-0.142145
4596	0.051212
4592	0.315880
4588	0.466656
4584	0.400352
4580	0.537848
4576	0.777506
4572	0.671076
4568	0.510311
4564	0.485754
4560	0.461649
4556	0.385808
4552	0.445103
4548	0.434184
4544	0.537014
4540	0.806856
4536	0.980281
4532	0.662565
4528	-0.035715
4524	-0.933265
4520	-1.183509
4516	-0.410532
4512	0.237464
4508	0.198173
4504	-0.445652
4500	-0.659132
4496	-0.441026
4492	1.875305
4488	8.256530
4484	7.865881
4480	0.247931
4476	0.847554
4472	2.993917
4468	0.303387
4464	-0.414681
4460	0.227737
4456	0.462532
4452	0.479459
4448	0.137186
4444	-0.376510
4440	-0.563931
4436	-0.459313
4432	-0.276160
4428	-0.337839
4424	-0.623154
4420	-0.506544
4416	-0.137233
4412	0.065231
4408	0.217008
4404	0.493645
4400	0.586271
4396	0.312733
4392	0.134944
4388	0.212121
4384	0.311422
4380	0.261402
4376	0.092458
4372	0.025892
4368	0.142931
4364	0.259661
4360	0.114679
4356	-0.089836
4352	-0.130081
4348	-0.051927
4344	0.148797
4340	0.306129
4336	0.246238
4332	0.215768
4328	0.436091
4324	0.664973
4320	0.647068
4316	0.496268
4312	0.347661
4308	0.108122
4304	-0.244164
4300	-0.376629
4296	-0.133776
4292	0.108313
4288	-0.065946
4284	-0.279831
4280	-0.096035
4276	0.136852
4272	0.274062
4268	0.220990
4264	0.045442
4260	0.117278
4256	0.154471
4252	0.115633
4248	0.301289
4244	0.402927
4240	0.355553
4236	0.409793
4232	0.380420
4228	0.173449
4224	0.091934
4220	0.127220
4216	0.161194
4212	0.293278
4208	0.447869
4204	0.441837
4200	0.233435
4196	0.101518
4192	0.173950
4188	0.165677
4184	-0.044918
4180	-0.182294
4176	-0.171184
4172	-0.039601
4168	0.175404
4164	0.121283
4160	0.007414
4156	0.197243
4152	0.293779
4148	0.137329
4144	0.030994
4140	0.006151
4136	-0.033879
4132	-0.000596
4128	0.058555
4124	0.022459
4120	0.088930
4116	0.294804
4112	0.297546
4108	0.152993
4104	0.141763
4100	0.178146
4096	0.156950
4092	0.093555
4088	0.021576
4084	0.058531
4080	0.102877
4076	0.039434
4072	0.041484
4068	0.075125
4064	0.009322
4060	-0.042986
4056	-0.002813
4052	0.139451
4048	0.322055
4044	0.327682
4040	0.177145
4036	0.054621
4032	-0.065875
4028	-0.142073
4024	-0.099802
4020	-0.048112
4016	-0.015330
4012	0.024628
4008	0.046157
4004	0.057792
4000	0.083470
3996	0.158190
3992	0.180172
3988	0.095033
3984	0.093436
3980	0.120711
3976	0.121331
3972	0.176310
3968	0.229597
3964	0.283455
3960	0.217151
3956	0.039005
3952	-0.051045
3948	-0.053834
3944	-0.036478
3940	-0.030040
3936	-0.028491
3932	0.009012
3928	0.077056
3924	0.045323
3920	-0.106120
3916	-0.141644
3912	-0.057220
3908	-0.017046
3904	0.021743
3900	0.091695
3896	0.126075
3892	0.110077
3888	0.074696
3884	0.074315
3880	0.089073
3876	0.055408
3872	0.044870
3868	0.068759
3864	0.040507
3860	0.003600
3856	0.050020
3852	0.103092
3848	0.052237
3844	-0.000643
3840	0.001883
3836	0.079321
3832	0.199651
3828	0.171041
3824	0.071692
3820	0.004339
3816	-0.053310
3812	-0.037932
3808	0.025916
3804	0.056362
3800	0.005769
3796	-0.098824
3792	-0.139093
3788	-0.072669
3784	0.024580
3780	0.120973
3776	0.153541
3772	0.081086
3768	-0.003671
3764	-0.007247
3760	0.048184
3756	0.078153
3752	0.066113
3748	0.032544
3744	0.001716
3740	0.028514
3736	0.045013
3732	0.011825
3728	-0.041604
3724	-0.067901
3720	0.012540
3716	0.086736
3712	0.109910
3708	0.169658
3704	0.254321
3700	0.273776
3696	0.178909
3692	0.047659
3688	-0.035572
3684	-0.075364
3680	-0.059318
3676	0.018501
3672	0.060462
3668	0.004124
3664	-0.068020
3660	-0.027966
3656	0.107002
3652	0.181150
3648	0.121974
3644	0.059485
3640	0.106358
3636	0.120210
3632	0.060176
3628	0.053262
3624	0.029087
3620	-0.031089
3616	-0.036597
3612	-0.008296
3608	0.058579
3604	0.158977
3600	0.185418
3596	0.117707
3592	0.069355
3588	0.054907
3584	0.001025
3580	-0.061035
3576	-0.062727
3572	-0.008988
3568	0.048923
3564	0.032067
3560	-0.022649
3556	-0.009870
3552	0.043797
3548	0.069928
3544	0.071930
3540	0.052332
3536	0.024986
3532	0.002980
3528	-0.015044
3524	0.010418
3520	-0.002574
3516	-0.057554
3512	0.021529
3508	0.160169
3504	0.133752
3500	0.031137
3496	-0.013136
3492	-0.066351
3488	-0.123357
3484	-0.179553
3480	-0.098061
3476	0.114536
3472	0.182604
3468	0.121569
3464	0.077772
3460	0.063514
3456	0.066328
3452	0.086069
3448	0.114631
3444	0.124645
3440	0.075197
3436	-0.060033
3432	-0.137925
3428	-0.102066
3424	-0.049066
3420	0.002527
3416	0.011277
3412	-0.038504
3408	-0.035119
3404	-0.016212
3400	0.021266
3396	0.127243
3392	0.150442
3388	0.049734
3384	-0.065851
3380	-0.048398
3376	0.096249
3372	0.147581
3368	-0.004625
3364	-0.084829
3360	-0.003600
3356	-0.018668
3352	-0.080490
3348	-0.072836
3344	-0.024580
3340	-0.047588
3336	-0.112748
3332	-0.057244
3328	0.030159
3324	0.036168
3320	0.012540
3316	0.025820
3312	0.084280
3308	0.073432
3304	-0.049018
3300	-0.080251
3296	0.022697
3292	0.066685
3288	0.017118
3284	0.013613
3280	0.035333
3276	0.021052
3272	0.055837
3268	0.063490
3264	-0.012588
3260	-0.055050
3256	-0.042176
3252	-0.016283
3248	0.016069
3244	0.068712
3240	0.098657
3236	0.087261
3232	0.107645
3228	0.123357
3224	0.107192
3220	0.124359
3216	0.117158
3212	0.083732
3208	0.098061
3204	0.116920
3200	0.117945
3196	0.118446
3192	0.062227
3188	-0.004935
3184	0.033903
3180	0.101256
3176	0.103306
3172	0.078964
3168	0.056982
3164	0.073361
3160	0.137233
3156	0.178122
3152	0.170898
3148	0.127983
3144	0.115036
3140	0.179314
3136	0.184011
3132	0.173473
3128	0.243759
3124	0.204849
3120	0.059628
3116	-0.043487
3112	-0.079107
3108	-0.049471
3104	0.001144
3100	0.067400
3096	0.108885
3092	0.080728
3088	0.021648
3084	-0.046896
3080	-0.106120
3076	-0.122523
3072	-0.086569
3068	-0.026559
3064	-0.009560
3060	-0.049161
3056	-0.045371
3052	0.003123
3048	0.024175
3044	0.052928
3040	0.088453
3036	0.083518
3032	0.066661
3028	0.100088
3024	0.110721
3020	0.068402
3016	0.041794
3012	0.029230
3008	0.046753
3004	0.095629
3000	0.103330
2996	0.103926
2992	0.105476
2988	0.037169
2984	-0.029993
2980	-0.014114
2976	0.057792
2972	0.149703
2968	0.156545
2964	0.058770
2960	-0.004696
2956	0.018143
2952	0.064158
2948	0.057315
2944	0.008583
2940	-0.022530
2936	-0.001764
2932	0.030779
2928	0.015425
2924	-0.027322
2920	-0.073623
2916	-0.084948
2912	-0.047254
2908	-0.015664
2904	0.016832
2900	0.043487
2896	-0.007247
2892	-0.054073
2888	-0.032091
2884	-0.009131
2880	0.004768
2876	-0.038528
2872	-0.045943
2868	0.114464
2864	0.217986
2860	0.147795
2856	0.067639
2852	0.071310
2848	0.104022
2844	0.111937
2840	0.112581
2836	0.073409
2832	-0.002527
2828	-0.050210
2824	-0.035309
2820	0.025582
2816	0.043749
2812	-0.000429
2808	-0.027298
2804	-0.014495
2800	-0.014686
2796	-0.023889
2792	0.003027
2788	0.026750
2784	-0.014972
2780	-0.055265
2776	0.006294
2772	0.059914
2768	-0.008893
2764	-0.079607
2760	-0.036025
2756	0.042104
2752	0.046896
2748	0.048518
2744	0.092172
2740	0.081825
2736	0.006699
2732	-0.020980
2728	0.047254
2724	0.091791
2720	0.038671
2716	-0.008940
2712	-0.010871
2708	-0.007152
2704	-0.011253
2700	-0.041294
2696	-0.063300
2692	-0.010228
2688	0.060367
2684	0.029516
2680	-0.016260
2676	0.020337
2672	0.017952
2668	-0.042510
2664	-0.033497
2660	0.051140
2656	0.085592
2652	0.022029
2648	0.002312
2644	0.064325
2640	0.077915
2636	0.050783
2632	0.060558
2628	0.052070
2624	0.004363
2620	-0.029420
2616	-0.027966
2612	-0.012302
2608	-0.020456
2604	-0.039291
2600	-0.047707
2596	-0.014758
2592	0.030374
2588	0.042033
2584	0.047254
2580	0.029373
2576	-0.005221
2572	0.000762
2568	0.026369
2564	-0.039243
2560	-0.123810
2556	-0.108575
2552	-0.090265
2548	-0.081396
2544	-0.020647
2540	0.037932
2536	0.061988
2532	0.051665
2528	0.029015
2524	0.028085
2520	0.001549
2516	-0.017881
2512	0.030493
2508	0.046730
2504	-0.002145
2500	-0.022506
2496	0.035810
2492	0.068330
2488	0.036072
2484	0.057387
2480	0.087165
2476	0.058221
2472	0.033855
2468	0.040745
2464	0.019145
2460	-0.020766
2456	0.018906
2452	0.074005
2448	0.052762
2444	0.008273
2440	-0.015592
2436	-0.011134
2432	-0.049185
2428	-0.139164
2424	-0.106954
2420	0.036120
2416	0.114035
2412	0.124859
2408	0.106000
2404	0.070071
2400	0.086593
2396	0.097584
2392	0.036644
2388	-0.016450
2384	-0.023055
2380	0.002193
2376	0.047588
2372	0.093412
2368	0.096893
2364	0.033354
2360	-0.008368
2356	0.016665
2352	0.025558
2348	-0.005960
2344	-0.006318
2340	0.043320
2336	0.065422
2332	0.035381
2328	-0.010299
2324	-0.013470
2320	0.040149
2316	0.098228
2312	0.137734
2308	0.153422
2304	0.163936
2300	0.176715
2296	0.154066
2292	0.127792
2288	0.165128
2284	0.203824
2280	0.194883
2276	0.247216
2272	0.363993
2268	0.421237
2264	0.435805
2260	0.472736
2256	0.533938
2252	0.615262
2248	0.689983
2244	0.773930
2240	0.883078
2236	0.981402
2232	1.083397
2228	1.212525
2224	1.355314
2220	1.498818
2216	1.620435
2212	1.750373
2208	1.929402
2204	2.112746
2200	2.269482
2196	2.436828
2192	2.629899
2188	2.825880
2184	3.051042
2180	3.318142
2176	3.614306
2172	3.948664
2168	4.273533
2164	4.564070
2160	4.815936
2156	5.078840
2152	5.492210
2148	5.959224
2144	6.309938
2140	6.631422
2136	7.008194
2132	7.390189
2128	7.790446
2124	8.285021
2120	8.812928
2116	9.247326
2112	9.622550
2108	10.0348
2104	10.4427
2100	10.8485
2096	11.291
2092	11.7167
2088	12.1521
2084	12.6642
2080	13.2406
2076	13.7782
2072	14.1752
2068	14.5107
2064	14.9375
2060	15.3858
2056	15.7859
2052	16.2305
2048	16.6795
2044	17.0654
2040	17.4352
2036	17.8255
2032	18.2017
2028	18.5812
2024	19.0204
2020	19.4304
2016	19.756
2012	20.096
2008	20.4863
2004	20.8668
2000	21.2214
1996	21.5554
1992	21.858
1988	22.1471
1984	22.4174
1980	22.6898
1976	22.998
1972	23.3072
1968	23.5855
1964	23.8243
1960	24.0715
1956	24.3389
1952	24.5625
1948	24.7723
1944	24.9847
1940	25.1847
1936	25.4365
1932	25.7268
1928	25.9557
1924	26.1035
1920	26.2517
1916	26.4246
1912	26.597
1908	26.7683
1904	26.9219
1900	27.0715
1896	27.1987
1892	27.2746
1888	27.3724
1884	27.519
1880	27.6544
1876	27.7859
1872	27.9413
1868	28.0998
1864	28.2123
1860	28.2773
1856	28.3708
1852	28.5013
1848	28.6116
1844	28.6738
1840	28.7291
1836	28.8242
1832	28.9538
1828	29.064
1824	29.0761
1820	29.0521
1816	29.1204
1812	29.2368
1808	29.2894
1804	29.3388
1800	29.4461
1796	29.5344
1792	29.6072
1788	29.6896
1784	29.7324
1780	29.7269
1776	29.687
1772	29.6493
1768	29.6637
1764	29.6926
1760	29.7192
1756	29.7922
1752	29.8762
1748	29.9391
1744	30.0084
1740	30.0295
1736	29.9722
1732	29.9274
1728	29.92
1724	29.9601
1720	30.0632
1716	30.1312
1712	30.119
1708	30.0698
1704	30.041
1700	30.0715
1696	30.1485
1692	30.2082
1688	30.2345
1684	30.266
1680	30.2627
1676	30.2235
1672	30.218
1668	30.2342
1664	30.2361
1660	30.2449
1656	30.2788
1652	30.3068
1648	30.3146
1644	30.2956
1640	30.2254
1636	30.1968
1632	30.2679
1628	30.3242
1624	30.2834
1620	30.2152
1616	30.2189
1612	30.2553
1608	30.2983
1604	30.3482
1600	30.3318
1596	30.2637
1592	30.2302
1588	30.2237
1584	30.1756
1580	30.1403
1576	30.1734
1572	30.2045
1568	30.201
1564	30.1981
1560	30.2182
1556	30.2492
1552	30.3017
1548	30.3275
1544	30.2757
1540	30.1857
1536	30.087
1532	30.0462
1528	30.0719
1524	30.0774
1520	30.071
1516	30.0771
1512	30.0876
1508	30.1135
1504	30.127
1500	30.124
1496	30.128
1492	30.1181
1488	30.0511
1484	29.9519
1480	29.9077
1476	30.0012
1472	30.1325
1468	30.1083
1464	29.9937
1460	29.8677
1456	29.7642
1452	29.7901
1448	29.8409
1444	29.8318
1440	29.841
1436	29.8728
1432	29.8904
1428	29.9008
1424	29.9086
1420	29.88
1416	29.8114
1412	29.7793
1408	29.7784
1404	29.681
1400	29.5259
1396	29.4722
1392	29.5298
1388	29.6011
1384	29.6278
1380	29.6679
1376	29.7177
1372	29.695
1368	29.629
1364	29.5489
1360	29.4539
1356	29.358
1352	29.3388
1348	29.4476
1344	29.5038
1340	29.4748
1336	29.5057
1332	29.5707
1328	29.6078
1324	29.5587
1320	29.4598
1316	29.378
1312	29.2807
1308	29.2259
1304	29.2397
1300	29.2751
1296	29.3109
1292	29.3173
1288	29.3239
1284	29.3609
1280	29.372
1276	29.32
1272	29.1869
1268	29.0577
1264	29.0309
1260	29.0187
1256	29.0527
1252	29.1541
1248	29.1916
1244	29.1775
1240	29.1555
1236	29.1292
1232	29.0611
1228	28.9102
1224	28.7942
1220	28.7542
1216	28.7004
1212	28.6772
1208	28.7182
1204	28.7895
1200	28.9115
1196	29.0439
1192	29.0729
1188	28.9928
1184	28.863
1180	28.7386
1176	28.6009
1172	28.482
1168	28.4556
1164	28.5032
1160	28.6018
1156	28.7014
1152	28.7381
1148	28.7293
1144	28.7071
1140	28.643
1136	28.5356
1132	28.4217
1128	28.3019
1124	28.2221
1120	28.1851
1116	28.1967
1112	28.2346
1108	28.3152
1104	28.5356
1100	28.6387
1096	28.4831
1092	28.277
1088	28.0644
1084	27.9273
1080	27.9732
1076	28.028
1072	27.9027
1068	27.7978
1064	27.8277
1060	27.8684
1056	27.8727
1052	27.7543
1048	27.6779
1044	27.7385
1040	27.7455
1036	27.7196
1032	27.6854
1028	27.649
1024	27.6393
1020	27.6242
1016	27.6256
1012	27.6727
1008	27.6991
1004	27.6409
1000	27.5578
996	 27.4534
992	 27.3133
988	 27.1636
984	 26.9864
980	 26.9342
976	 27.0285
972	 27.0735
968	 27.0998
964	 27.121
960	 27.0152
956	 26.897
952	 26.8674
948	 26.7519
944	 26.5395
940	 26.3423
936	 26.1581
932	 26.1122
928	 26.2397
924	 26.3675
920	 26.412
916	 26.449
912	 26.4805
908	 26.4007
904	 26.2261
900	 25.9766
896	 25.7504
892	 25.6769
888	 25.6702
884	 25.6212
880	 25.5517
876	 25.5436
872	 25.6355
868	 25.7865
864	 25.8608
860	 25.781
856	 25.5641
852	 25.3393
848	 25.2381
844	 25.1093
840	 24.9209
836	 24.8746
832	 24.9494
828	 24.9457
824	 24.8932
820	 24.9475
816	 24.9526
812	 24.8175
808	 24.6656
804	 24.4449
800	 24.1914
796	 24.0843
792	 24.0313
788	 24.011
784	 24.1692
780	 24.348
776	 24.3584
772	 24.3306
768	 24.2594
764	 24.068
760	 23.7717
756	 23.3961
752	 23.1892
748	 23.2239
744	 23.3772
740	 23.5313
736	 23.4522
732	 23.2398
728	 23.2232
724	 23.2551
720	 23.1073
716	 22.9868
712	 22.9084
708	 22.6962
704	 22.4437
700	 22.3382
696	 22.3294
692	 22.1689
688	 21.9767
684	 22.0237
680	 22.1263
676	 22.0533
672	 21.9331
668	 21.7828
664	 21.5401
660	 21.4511
656	 21.4696
652	 21.4544
648	 21.4746
644	 21.4173
640	 21.2418
636	 21.0005
632	 20.7757
628	 20.6526
624	 20.5768
620	 20.4596
616	 20.2198
612	 19.9422
608	 19.7063
604	 19.5399
600	 19.6687
596	 19.9253
592	 19.9347
588	 19.977
584	 20.145
580	 19.8626
576	 19.3415
572	 19.1396
568	 19.1138
564	 19.1693
560	 19.2599
556	 19.0922
552	 18.8089
548	 18.7616
544	 18.8405
540	 19.0603
536	 19.1679
532	 18.8146
528	 18.4224
524	 18.3141
520	 18.2112
516	 17.8179
512	 17.3731
508	 17.1865
504	 17.4103
500	 17.7333
496	 17.8123
492	 17.9116
488	 17.7805
484	 17.0058
480	 16.238
476	 16.2391
472	 16.5697
468	 16.2744
464	 15.7254
460	 15.7919
456	 15.9488
452	 15.615
448	 15.2677
444	 15.1566
440	 15.4373
436	 15.4941
432	 14.6343
428	 14.2973
424	 15.2141
420	 15.1108
416	 13.5009
412	 13.1366
408	 12.308
404	 10.1263
400	 11.6011
396	 14.1167
392	 13.4574
388	 15.611
384	 19.9502
380	 19.3778
376	 11.4033
372	 -8.228182
370	 -22.3091