File: Bakgrunnsmateriale/MATLAB/FTIR/ftir_data/LPE453/Mapping_121/LPE453_t69_cm-1.asc
PE IR       SPECTRUM    SPECTRUM    ASCII       PEDS        1.60
  -1
LP6AD9~1.ASC
17/05/16
20:04:17.00
17/05/16
20:04:17.00
tln
$LPE453_t0069$<tbV0>[7.8,2.6,8.0,0.0,27,1,0]
370
64

2002,4.07
MIRTGS : RIGHTBACK : INTERNAL 2
MIR : ON : INTERNAL 2
OPTKBR

0.200000
8
8.000000
FILLER
RATIO
SPECTRUM
UNLOCKED 256

DOUBLE
64
COMBINED
1
0
0

1.000000
RATIO

1
0
TRUE
51149
0
LEFT NOT FITTED RIGHT NOT FITTED 0
NONE
NONE
15600
12
4.427000
51148
TRUE
1 0 8 72 0 0 0 0

15798

#HDR
-1
-1
#GR
CM-1
%T
2.38419e-05
0.0
5000
-1.000000
4631
8
29.3076
-8.951997
#DATA
5000	0.450301
4996	0.223374
4992	0.216794
4988	0.344896
4984	0.305628
4980	0.255084
4976	0.165843
4972	-0.002074
4968	-0.012683
4964	-0.070047
4960	-0.159001
4956	0.157094
4952	0.616526
4948	0.703263
4944	0.506281
4940	0.303792
4936	0.187778
4932	0.064325
4928	0.023913
4924	0.123095
4920	0.179386
4916	0.220918
4912	0.243997
4908	0.208044
4904	0.127434
4900	0.006484
4896	-0.075149
4892	-0.115180
4888	-0.026416
4884	0.177502
4880	0.249481
4876	0.220704
4872	0.176501
4868	-0.043272
4864	-0.080156
4860	0.165963
4856	0.167775
4852	0.017046
4848	0.007820
4844	0.068140
4840	0.151991
4836	0.197672
4832	0.094699
4828	0.039005
4824	0.208473
4820	0.307202
4816	0.182652
4812	0.069689
4808	0.078725
4804	0.094604
4800	-0.018286
4796	-0.286841
4792	-0.396537
4788	-0.072002
4784	0.228023
4780	0.303173
4776	0.439929
4772	0.525331
4768	0.431180
4764	0.280833
4760	0.329661
4756	0.787997
4752	1.112103
4748	0.705528
4744	0.120425
4740	-0.160408
4736	-0.250983
4732	0.050067
4728	0.311756
4724	0.093603
4720	-0.198459
4716	-0.632238
4712	-0.841879
4708	-0.229001
4704	0.463819
4700	0.846958
4696	1.797938
4692	2.640771
4688	1.930832
4684	0.665569
4680	0.066375
4676	-0.024843
4672	0.325798
4668	0.603342
4664	0.380825
4660	0.250220
4656	0.202226
4652	-0.012159
4648	-0.310134
4644	-0.328421
4640	-0.099682
4636	0.049996
4632	0.054240
4628	-0.240874
4624	-0.282478
4620	-0.059151
4616	-0.023007
4612	0.043177
4608	0.304365
4604	0.602674
4600	0.484442
4596	0.184965
4592	0.257325
4588	0.378918
4584	0.294804
4580	0.266742
4576	0.213885
4572	0.064420
4568	0.014114
4564	-0.072026
4560	-0.053501
4556	0.107836
4552	0.000715
4548	-0.382018
4544	-0.542259
4540	-0.207281
4536	0.055241
4532	-0.166821
4528	-0.396156
4524	-0.424313
4520	-0.602269
4516	-0.663971
4512	-0.213265
4508	0.635457
4504	1.687264
4500	2.762246
4496	3.367972
4492	10.5555
4488	15.9899
4484	4.915189
4480	-1.939129
4476	1.355886
4472	1.359915
4468	-0.449180
4464	-1.356244
4460	-1.498174
4456	-0.817418
4452	0.020194
4448	0.188374
4444	-0.170445
4440	-0.660133
4436	-0.882267
4432	-0.492668
4428	-0.016260
4424	0.205826
4420	0.241446
4416	0.178122
4412	0.111794
4408	0.202894
4404	0.443696
4400	0.624704
4396	0.538897
4392	0.250720
4388	0.151610
4384	0.362372
4380	0.432252
4376	0.183820
4372	-0.014328
4368	-0.088930
4364	-0.170969
4360	-0.150322
4356	0.064992
4352	0.389575
4348	0.579643
4344	0.628685
4340	0.657606
4336	0.567197
4332	0.468945
4328	0.344419
4324	0.172448
4320	0.238728
4316	0.488018
4312	0.517439
4308	0.288653
4304	0.205969
4300	0.352334
4296	0.478577
4292	0.540256
4288	0.425410
4284	0.222206
4280	0.200200
4276	0.247836
4272	0.149178
4268	-0.065135
4264	-0.283288
4260	-0.350618
4256	-0.156641
4252	-0.009250
4248	-0.117230
4244	-0.198578
4240	-0.127434
4236	-0.129437
4232	-0.140738
4228	0.036239
4224	0.240850
4220	0.284886
4216	0.169944
4212	0.074124
4208	0.007367
4204	-0.053572
4200	-0.018429
4196	0.023937
4192	0.018286
4188	0.168347
4184	0.643396
4180	0.894665
4176	0.534963
4172	0.248789
4168	0.343537
4164	0.284504
4160	0.072550
4156	0.087952
4152	0.196146
4148	0.116634
4144	0.009441
4140	0.072646
4136	0.108504
4132	-0.010585
4128	-0.194263
4124	-0.285959
4120	-0.236964
4116	-0.113892
4112	-0.046825
4108	-0.082993
4104	-0.024771
4100	0.089335
4096	0.053930
4092	0.030064
4088	0.122070
4084	0.090432
4080	0.004363
4076	-0.013518
4072	-0.037789
4068	-0.046396
4064	-0.140357
4060	-0.244212
4056	-0.166320
4052	-0.016140
4048	0.077438
4044	0.123119
4040	0.066065
4036	-0.027012
4032	0.031757
4028	0.238919
4024	0.328755
4020	0.214076
4016	0.046515
4012	-0.110936
4008	-0.170016
4004	-0.092244
4000	0.010442
3996	0.042867
3992	0.076055
3988	0.134778
3984	0.163888
3980	0.194525
3976	0.134539
3972	-0.045466
3968	-0.105357
3964	0.039720
3960	0.199675
3956	0.242114
3952	0.204133
3948	0.126338
3944	0.031232
3940	-0.014495
3936	-0.011944
3932	0.018715
3928	0.122094
3924	0.186419
3920	0.139331
3916	0.151133
3912	0.167322
3908	-0.000405
3904	-0.197553
3900	-0.146985
3896	-0.027799
3892	-0.046348
3888	-0.012230
3884	0.036525
3880	0.023460
3876	0.069022
3872	0.093293
3868	0.031161
3864	-0.004982
3860	0.075769
3856	0.168418
3852	0.154995
3848	0.116324
3844	0.073361
3840	0.045847
3836	0.038957
3832	-0.024008
3828	-0.027513
3824	0.060963
3820	0.108337
3816	0.097918
3812	0.008821
3808	-0.051999
3804	0.078940
3800	0.216794
3796	0.173425
3792	0.015234
3788	-0.049734
3784	0.089216
3780	0.165724
3776	0.086498
3772	0.019884
3768	0.033020
3764	0.104594
3760	0.100731
3756	0.058555
3752	0.030231
3748	-0.033450
3744	-0.028252
3740	0.038647
3736	0.090169
3732	0.131487
3728	0.118589
3724	0.084638
3720	0.052499
3716	0.026750
3712	0.104665
3708	0.200271
3704	0.174331
3700	0.099372
3696	0.044322
3692	0.022864
3688	0.057077
3684	0.098967
3680	0.127053
3676	0.143504
3672	0.120186
3668	0.070762
3664	0.009322
3660	-0.030493
3656	-0.034165
3652	-0.059151
3648	-0.064182
3644	0.001621
3640	0.012278
3636	-0.010919
3632	0.025248
3628	0.036525
3624	0.026249
3620	0.066852
3616	0.094079
3612	0.041508
3608	0.035929
3604	0.079131
3600	0.028729
3596	-0.035333
3592	-0.008058
3588	0.045514
3584	0.086307
3580	0.118041
3576	0.048351
3572	-0.070524
3568	-0.074267
3564	-0.011014
3560	0.076556
3556	0.177001
3552	0.197339
3548	0.150609
3544	0.102543
3540	0.098085
3536	0.148081
3532	0.199341
3528	0.232028
3524	0.232148
3520	0.169706
3516	0.113916
3512	0.069975
3508	0.053453
3504	0.183033
3500	0.222802
3496	0.019025
3492	-0.112152
3488	-0.093793
3484	-0.047492
3480	0.030851
3476	0.144767
3472	0.226998
3468	0.191593
3464	0.062346
3460	-0.043344
3456	-0.068950
3452	-0.053930
3448	-0.049328
3444	-0.071310
3440	-0.018763
3436	0.090360
3432	0.139641
3428	0.126600
3424	0.053977
3420	-0.059819
3416	-0.102543
3412	-0.011634
3408	0.058746
3404	0.031542
3400	0.005102
3396	0.010919
3392	0.050044
3388	0.039291
3384	0.002598
3380	0.047874
3376	0.071525
3372	0.034046
3368	0.013542
3364	-0.003671
3360	-0.063610
3356	-0.110745
3352	-0.110912
3348	-0.104069
3344	-0.031423
3340	0.145530
3336	0.264453
3332	0.186014
3328	0.068593
3324	0.061798
3320	0.096821
3316	0.141596
3312	0.183796
3308	0.161790
3304	0.073099
3300	0.007891
3296	-0.012922
3292	0.016069
3288	0.085139
3284	0.116896
3280	0.142717
3276	0.196695
3272	0.195765
3268	0.137138
3264	0.103425
3260	0.084996
3256	0.063180
3252	0.073647
3248	0.073719
3244	0.032830
3240	0.020265
3236	0.029873
3232	-0.022315
3228	-0.065684
3224	-0.008153
3220	0.046634
3216	0.025796
3212	-0.006985
3208	-0.042319
3204	-0.073528
3200	-0.031423
3196	0.000715
3192	-0.072360
3188	-0.114536
3184	-0.027346
3180	0.059604
3176	0.039100
3172	0.024700
3168	0.075531
3164	0.125145
3160	0.149989
3156	0.117325
3152	0.045204
3148	0.017952
3144	0.056099
3140	0.097060
3136	0.031065
3132	0.010466
3128	0.028777
3124	-0.004577
3120	0.002193
3116	-0.009655
3112	-0.072145
3108	-0.095677
3104	-0.006794
3100	0.066804
3096	0.048875
3092	0.020742
3088	0.050854
3084	0.122952
3080	0.138211
3076	0.092720
3072	0.046205
3068	0.020432
3064	0.020217
3060	0.055241
3056	0.099873
3052	0.053668
3048	-0.061154
3044	-0.044298
3040	0.050377
3036	0.045490
3032	-0.018739
3028	-0.062894
3024	-0.046706
3020	0.009441
3016	0.036811
3012	0.011372
3008	-0.008869
3004	0.030589
3000	0.079751
2996	0.112843
2992	0.084471
2988	-0.055575
2984	-0.142526
2980	-0.074601
2976	0.039482
2972	0.116348
2968	0.150537
2964	0.147151
2960	0.097370
2956	0.051093
2952	0.053501
2948	0.091266
2944	0.102019
2940	0.031137
2936	-0.018453
2932	0.022625
2928	0.034976
2924	-0.036144
2920	-0.071859
2916	0.006818
2912	0.118494
2908	0.164580
2904	0.116038
2900	0.036001
2896	0.011086
2892	0.033044
2888	0.023388
2884	-0.025057
2880	-0.041842
2876	-0.027918
2872	-0.019359
2868	0.037860
2864	0.136709
2860	0.172138
2856	0.106477
2852	0.008773
2848	0.019145
2844	0.128936
2840	0.153255
2836	0.061893
2832	-0.004792
2828	-0.020885
2824	-0.032186
2820	-0.030255
2816	-0.027370
2812	-0.012445
2808	0.035381
2804	0.079703
2800	0.072765
2796	0.062680
2792	0.080513
2788	0.059080
2784	0.036334
2780	0.054335
2776	0.056004
2772	0.042796
2768	0.037193
2764	0.021290
2760	-0.005626
2756	-0.014853
2752	-0.007605
2748	0.000476
2744	0.044775
2740	0.093197
2736	0.096940
2732	0.068449
2728	0.015091
2724	-0.064039
2720	-0.106382
2716	-0.059771
2712	-0.008964
2708	-0.010943
2704	-0.033044
2700	-0.044798
2696	-0.059914
2692	-0.070714
2688	-0.038337
2684	0.007128
2680	0.047373
2676	0.101613
2672	0.144195
2668	0.117921
2664	0.072169
2660	0.101637
2656	0.116038
2652	0.062179
2648	0.027561
2644	-0.005340
2640	-0.026082
2636	0.037240
2632	0.098228
2628	0.042629
2624	-0.037980
2620	0.015377
2616	0.121617
2612	0.118160
2608	0.022602
2604	-0.050306
2600	-0.035405
2596	0.018143
2592	0.016450
2588	-0.046229
2584	-0.052118
2580	0.029563
2576	0.081396
2572	0.058031
2568	0.020718
2564	-0.012993
2560	-0.027084
2556	0.041794
2552	0.097060
2548	0.071263
2544	0.074505
2540	0.094413
2536	0.113868
2532	0.197744
2528	0.257205
2524	0.215244
2520	0.157499
2516	0.128412
2512	0.081396
2508	-0.004363
2504	-0.077152
2500	-0.095963
2496	-0.041580
2492	0.069451
2488	0.134706
2484	0.110745
2480	0.078392
2476	0.074815
2472	0.044131
2468	-0.009632
2464	-0.006151
2460	0.020480
2456	0.023770
2452	0.016307
2448	-0.026082
2444	-0.070619
2440	-0.089836
2436	-0.094127
2432	-0.123810
2428	-0.083470
2424	0.177311
2420	0.436377
2416	0.407719
2412	0.162529
2408	-0.001835
2404	0.003385
2400	0.034451
2396	0.009632
2392	-0.044083
2388	-0.079774
2384	-0.070905
2380	-0.020599
2376	-0.009298
2372	-0.032377
2368	-0.033593
2364	-0.056505
2360	-0.043940
2356	0.038313
2352	0.037336
2348	-0.031495
2344	-0.054335
2340	-0.052404
2336	-0.040888
2332	-0.046372
2328	-0.034570
2324	0.053453
2320	0.125718
2316	0.103282
2312	0.039696
2308	-0.005292
2304	0.014448
2300	0.039958
2296	0.038146
2292	0.064277
2288	0.081038
2284	0.083589
2280	0.134563
2276	0.161695
2272	0.118541
2268	0.117611
2264	0.171065
2260	0.182962
2256	0.156712
2252	0.181555
2248	0.301241
2244	0.448250
2240	0.528264
2236	0.536060
2232	0.538444
2228	0.584840
2224	0.693583
2220	0.814056
2216	0.871515
2212	0.940823
2208	1.085281
2204	1.271700
2200	1.448535
2196	1.550698
2192	1.633644
2188	1.758265
2184	1.865196
2180	2.022528
2176	2.343368
2172	2.679538
2168	2.903151
2164	3.130578
2160	3.404712
2156	3.569030
2152	3.671717
2148	3.893637
2144	4.201555
2140	4.552674
2136	4.924607
2132	5.303978
2128	5.673813
2124	5.988526
2120	6.318354
2116	6.684565
2112	7.025408
2108	7.391262
2104	7.808899
2100	8.208680
2096	8.608102
2092	9.080862
2088	9.541320
2084	9.873533
2080	10.2049
2076	10.6357
2072	10.9928
2068	11.2674
2064	11.6832
2060	12.2332
2056	12.7511
2052	13.1845
2048	13.5553
2044	13.898
2040	14.2675
2036	14.6757
2032	15.108
2028	15.527
2024	15.8796
2020	16.1804
2016	16.4937
2012	16.8731
2008	17.2969
2004	17.7338
2000	18.1246
1996	18.3996
1992	18.6683
1988	19.005
1984	19.3024
1980	19.5685
1976	19.8723
1972	20.1827
1968	20.442
1964	20.686
1960	20.9896
1956	21.2594
1952	21.4597
1948	21.678
1944	21.9168
1940	22.157
1936	22.3746
1932	22.5657
1928	22.779
1924	23.0349
1920	23.2654
1916	23.4301
1912	23.6011
1908	23.8203
1904	24.0122
1900	24.146
1896	24.2799
1892	24.4109
1888	24.5308
1884	24.6812
1880	24.8643
1876	24.9812
1872	25.0515
1868	25.1863
1864	25.2989
1860	25.3793
1856	25.5007
1852	25.5919
1848	25.6369
1844	25.7
1840	25.7983
1836	25.9175
1832	26.0334
1828	26.0924
1824	26.1116
1820	26.173
1816	26.2681
1812	26.3857
1808	26.5333
1804	26.6642
1800	26.7234
1796	26.6996
1792	26.7002
1788	26.7845
1784	26.8716
1780	26.8972
1776	26.8896
1772	26.9224
1768	27.0156
1764	27.1378
1760	27.2115
1756	27.2242
1752	27.2662
1748	27.3027
1744	27.2835
1740	27.2722
1736	27.2619
1732	27.2616
1728	27.347
1724	27.4591
1720	27.5251
1716	27.5499
1712	27.5041
1708	27.4396
1704	27.4039
1700	27.3762
1696	27.4027
1692	27.4907
1688	27.5828
1684	27.614
1680	27.5796
1676	27.565
1672	27.5588
1668	27.5189
1664	27.5443
1660	27.6227
1656	27.6123
1652	27.5432
1648	27.5408
1644	27.6015
1640	27.653
1636	27.676
1632	27.6592
1628	27.6171
1624	27.5744
1620	27.5437
1616	27.5589
1612	27.5509
1608	27.4966
1604	27.4904
1600	27.5299
1596	27.5657
1592	27.5681
1588	27.5869
1584	27.632
1580	27.5903
1576	27.4747
1572	27.3895
1568	27.4024
1564	27.4807
1560	27.4959
1556	27.4605
1552	27.4853
1548	27.5342
1544	27.5817
1540	27.6429
1536	27.6202
1532	27.5215
1528	27.4591
1524	27.4795
1520	27.5319
1516	27.5088
1512	27.4611
1508	27.5038
1504	27.5137
1500	27.3687
1496	27.2042
1492	27.1792
1488	27.2065
1484	27.1909
1480	27.2095
1476	27.2621
1472	27.2513
1468	27.182
1464	27.169
1460	27.2137
1456	27.2125
1452	27.1962
1448	27.2528
1444	27.2984
1440	27.2242
1436	27.1506
1432	27.159
1428	27.1367
1424	27.1168
1420	27.1514
1416	27.1581
1412	27.1314
1408	27.1156
1404	27.0948
1400	27.0422
1396	27.0117
1392	27.0734
1388	27.1496
1384	27.1391
1380	27.1038
1376	27.0938
1372	27.0603
1368	26.9935
1364	26.9317
1360	26.9163
1356	26.9296
1352	26.9205
1348	26.8761
1344	26.832
1340	26.8487
1336	26.8983
1332	26.9001
1328	26.861
1324	26.8396
1320	26.8071
1316	26.7284
1312	26.6857
1308	26.7267
1304	26.7779
1300	26.7682
1296	26.7418
1292	26.7334
1288	26.6819
1284	26.6338
1280	26.6611
1276	26.6531
1272	26.5811
1268	26.572
1264	26.6191
1260	26.6167
1256	26.5691
1252	26.5334
1248	26.4909
1244	26.4201
1240	26.3367
1236	26.2749
1232	26.2765
1228	26.2899
1224	26.2826
1220	26.2971
1216	26.3091
1212	26.3326
1208	26.3407
1204	26.3302
1200	26.3613
1196	26.3766
1192	26.3243
1188	26.2338
1184	26.1508
1180	26.0964
1176	26.0935
1172	26.131
1168	26.1065
1164	26.0474
1160	26.0236
1156	25.9353
1152	25.7593
1148	25.7064
1144	25.8429
1140	25.9227
1136	25.9025
1132	25.9148
1128	25.9126
1124	25.8478
1120	25.7719
1116	25.7734
1112	25.8132
1108	25.756
1104	25.647
1100	25.5536
1096	25.4998
1092	25.5523
1088	25.6286
1084	25.6224
1080	25.5048
1076	25.3686
1072	25.3636
1068	25.3935
1064	25.3516
1060	25.2717
1056	25.238
1052	25.2905
1048	25.232
1044	25.0649
1040	25.0082
1036	24.9864
1032	24.9104
1028	24.842
1024	24.8898
1020	24.9851
1016	24.9312
1012	24.814
1008	24.7733
1004	24.7525
1000	24.6804
996	 24.6112
992	 24.592
988	 24.5855
984	 24.5746
980	 24.4993
976	 24.4101
972	 24.3991
968	 24.4405
964	 24.4656
960	 24.4015
956	 24.2824
952	 24.1241
948	 23.9807
944	 23.9461
940	 23.9344
936	 23.8137
932	 23.6729
928	 23.6516
924	 23.7404
920	 23.9045
916	 23.9799
912	 23.8814
908	 23.7863
904	 23.6907
900	 23.4812
896	 23.2434
892	 23.1183
888	 23.2159
884	 23.3684
880	 23.3092
876	 23.1467
872	 23.0276
868	 22.9565
864	 22.8878
860	 22.7899
856	 22.7377
852	 22.7467
848	 22.7411
844	 22.6836
840	 22.6128
836	 22.6151
832	 22.5923
828	 22.4719
824	 22.4206
820	 22.3953
816	 22.3186
812	 22.166
808	 21.9367
804	 21.8245
800	 21.8562
796	 21.8881
792	 21.8156
788	 21.643
784	 21.4088
780	 21.251
776	 21.26
772	 21.1911
768	 21.045
764	 20.8936
760	 20.6836
756	 20.7069
752	 20.9489
748	 21.0443
744	 20.9362
740	 20.7351
736	 20.5352
732	 20.4831
728	 20.5464
724	 20.5539
720	 20.4582
716	 20.2985
712	 20.0826
708	 19.8088
704	 19.5984
700	 19.519
696	 19.5305
692	 19.5527
688	 19.4715
684	 19.3236
680	 19.242
676	 19.1279
672	 18.9737
668	 18.9522
664	 19.0045
660	 19.0305
656	 18.9403
652	 18.7781
648	 18.6587
644	 18.4677
640	 18.1729
636	 17.9427
632	 17.8849
628	 17.9245
624	 17.9284
620	 17.8376
616	 17.6235
612	 17.474
608	 17.5561
604	 17.5987
600	 17.5438
596	 17.445
592	 17.278
588	 17.2377
584	 17.1993
580	 17.0238
576	 16.9522
572	 16.9302
568	 16.5998
564	 16.147
560	 15.8665
556	 15.7486
552	 15.953
548	 16.3053
544	 16.4753
540	 16.4105
536	 16.0778
532	 15.8196
528	 15.8572
524	 15.7861
520	 15.3098
516	 14.8108
512	 14.8718
508	 15.0164
504	 14.6802
500	 14.3516
496	 14.1525
492	 13.6566
488	 13.4732
484	 13.821
480	 13.8112
476	 13.8328
472	 13.9826
468	 13.8234
464	 13.7954
460	 13.6878
456	 13.5417
452	 13.6828
448	 13.2652
444	 12.4825
440	 12.1774
436	 11.8696
432	 11.4636
428	 10.9914
424	 10.7293
420	 10.2714
416	 8.673906
412	 8.994841
408	 16.1538
404	 27.0551
400	 27.8281
396	 19.3841
392	 20.1562
388	 25.9588
384	 14.3496
380	 -5.980563
376	 -5.512070
372	 5.042362
370	 6.894373