File: Bakgrunnsmateriale/MATLAB/FTIR/ftir_data/LPE453/Mapping_121/LPE453_t19_cm-1.asc
PE IR       SPECTRUM    SPECTRUM    ASCII       PEDS        1.60
  -1
LPE7D9~1.ASC
17/05/16
15:51:41.00
17/05/16
15:51:41.00
tln
$LPE453_t0019$<tbV0>[-5.2,-10.4,8.0,0.0,27,1,0]
370
64

2002,4.07
MIRTGS : RIGHTBACK : INTERNAL 2
MIR : ON : INTERNAL 2
OPTKBR

0.200000
8
8.000000
FILLER
RATIO
SPECTRUM
UNLOCKED 256

DOUBLE
64
COMBINED
1
0
0

1.000000
RATIO

1
0
TRUE
51149
0
LEFT NOT FITTED RIGHT NOT FITTED 0
NONE
NONE
15600
12
4.427000
51148
TRUE
1 0 8 72 0 0 0 0

15798

#HDR
-1
-1
#GR
CM-1
%T
2.38419e-05
0.0
5000
-1.000000
4631
8
41.6256
-1.298379
#DATA
5000	0.009632
4996	0.216960
4992	0.402808
4988	0.328278
4984	0.147652
4980	-0.171852
4976	-0.296306
4972	0.094103
4968	0.360703
4964	0.444364
4960	0.588965
4956	0.413823
4952	0.230908
4948	0.401711
4944	0.541400
4940	0.527024
4936	0.527000
4932	0.432777
4928	0.247669
4924	0.136327
4920	-0.012373
4916	-0.194716
4912	-0.075364
4908	0.271391
4904	0.415086
4900	0.405049
4896	0.370883
4892	0.148200
4888	-0.270700
4884	-0.526070
4880	-0.444793
4876	-0.284194
4872	-0.052523
4868	0.213265
4864	0.142145
4860	-0.103044
4856	-0.075483
4852	0.056219
4848	0.081801
4844	0.083422
4840	0.098490
4836	0.141453
4832	0.111770
4828	-0.012302
4824	0.027728
4820	0.128626
4816	0.145602
4812	0.209808
4808	0.266599
4804	0.229763
4800	0.063157
4796	-0.206589
4792	-0.264930
4788	-0.100803
4784	-0.064730
4780	-0.005054
4776	0.165057
4772	0.157237
4768	-0.078773
4764	-0.236988
4760	-0.213360
4756	-0.090694
4752	0.026154
4748	0.060820
4744	0.146818
4740	0.230526
4736	0.189495
4732	0.213861
4728	0.295710
4724	0.243091
4720	0.097775
4716	0.028324
4712	0.195121
4708	0.421476
4704	0.507283
4700	0.527238
4696	0.458121
4692	0.333476
4688	0.355935
4684	0.510406
4680	0.635790
4676	0.675749
4672	0.601840
4668	0.408697
4664	0.151419
4660	-0.032210
4656	0.046730
4652	0.257444
4648	0.279760
4644	0.259113
4640	0.375390
4636	0.667762
4632	0.981211
4628	1.018452
4624	0.841259
4620	0.505948
4616	0.159859
4612	0.074863
4608	0.276994
4604	0.631499
4600	0.855803
4596	0.693297
4592	0.314831
4588	-0.130128
4584	-0.665521
4580	-0.761437
4576	-0.638389
4572	-1.051044
4568	-1.290488
4564	-0.909233
4560	-0.462818
4556	-0.202584
4552	0.008201
4548	0.080084
4544	0.159835
4540	0.288152
4536	-0.037765
4532	-0.294589
4528	-0.193452
4524	0.399494
4520	6.010961
4516	15.5691
4512	16.082
4508	7.121706
4504	1.212739
4500	0.020670
4496	-0.443434
4492	-1.038122
4488	-0.993871
4484	-0.503993
4480	-0.484418
4476	-0.417947
4472	-0.230836
4468	-0.217819
4464	-0.278925
4460	-0.448751
4456	-0.586938
4452	-0.470185
4448	-0.267004
4444	-0.019192
4440	0.389885
4436	0.441408
4432	0.195860
4428	0.293755
4424	0.382113
4420	0.336837
4416	0.466156
4412	0.448822
4408	0.270605
4404	0.152683
4400	0.111627
4396	0.171422
4392	0.338840
4388	0.425076
4384	0.407528
4380	0.449419
4376	0.324463
4372	0.237154
4368	0.447273
4364	0.457310
4360	0.263738
4356	0.173163
4352	0.157380
4348	0.277996
4344	0.337076
4340	0.203943
4336	0.111150
4332	0.209474
4328	0.394630
4324	0.319862
4320	0.067853
4316	0.017809
4312	0.013256
4308	-0.187754
4304	-0.299119
4300	-0.118541
4296	-0.017213
4292	0.007891
4288	0.071477
4284	0.107479
4280	0.232148
4276	0.362896
4272	0.353503
4268	0.219893
4264	0.051069
4260	-0.113987
4256	-0.231814
4252	-0.276732
4248	-0.217795
4244	-0.125026
4240	-0.053763
4236	0.037980
4232	0.072622
4228	0.044608
4224	0.002408
4220	-0.113606
4216	-0.179219
4212	-0.093960
4208	0.023126
4204	0.133419
4200	0.310730
4196	0.450706
4192	0.411319
4188	0.389695
4184	0.561976
4180	0.758171
4176	0.654554
4172	0.416207
4168	0.312089
4164	0.155162
4160	-0.057864
4156	-0.119090
4152	-0.044536
4148	-0.056481
4144	-0.172948
4140	-0.071692
4136	0.073242
4132	0.050020
4128	0.080180
4124	0.119042
4120	0.098133
4116	0.021839
4112	-0.010585
4108	0.107407
4104	0.140976
4100	0.071167
4096	0.181651
4092	0.297570
4088	0.168681
4084	0.104737
4080	0.258803
4076	0.292563
4072	0.159358
4068	0.134539
4064	0.192832
4060	0.165128
4056	0.055241
4052	-0.073742
4048	-0.159621
4044	-0.111341
4040	-0.003814
4036	0.071406
4032	0.148010
4028	0.151348
4024	0.135397
4020	0.226283
4016	0.216126
4012	0.094509
4008	0.085496
4004	0.118255
4000	0.146698
3996	0.188922
3992	0.200867
3988	0.128626
3984	0.137352
3980	0.211191
3976	0.156044
3972	0.095582
3968	0.170922
3964	0.222015
3960	0.211834
3956	0.249624
3952	0.214123
3948	0.108242
3944	0.139212
3940	0.217199
3936	0.222134
3932	0.216960
3928	0.229883
3924	0.248837
3920	0.186133
3916	0.159263
3912	0.249290
3908	0.363302
3904	0.371885
3900	0.153851
3896	-0.015234
3892	0.020837
3888	0.128221
3884	0.178670
3880	0.063467
3876	-0.069284
3872	-0.041747
3868	-0.009012
3864	-0.030136
3860	0.040888
3856	0.150442
3852	0.146746
3848	0.067877
3844	-0.024008
3840	-0.037431
3836	0.079846
3832	0.178337
3828	0.209426
3824	0.236368
3820	0.165915
3816	-0.014638
3812	-0.056934
3808	0.047636
3804	0.144505
3800	0.201272
3796	0.143098
3792	0.046491
3788	0.009059
3784	-0.021767
3780	0.027203
3776	0.079059
3772	-0.027632
3768	-0.098037
3764	0.023388
3760	0.196528
3756	0.265407
3752	0.200676
3748	0.067329
3744	-0.066256
3740	-0.052523
3736	0.092887
3732	0.157761
3728	0.103354
3724	0.110530
3720	0.160789
3716	0.152611
3712	0.165557
3708	0.181841
3704	0.187301
3700	0.188732
3696	0.109410
3692	0.026369
3688	0.030183
3684	0.077176
3680	0.134968
3676	0.186467
3672	0.186347
3668	0.104832
3664	-0.001597
3660	-0.057864
3656	-0.033712
3652	0.042200
3648	0.087618
3644	0.068569
3640	0.013422
3636	-0.076103
3632	-0.099730
3628	-0.017356
3624	-0.012063
3620	-0.095725
3616	-0.112414
3612	-0.050973
3608	-0.000643
3604	0.019812
3600	0.068426
3596	0.097703
3592	0.127196
3588	0.169301
3584	0.129127
3580	0.080943
3576	0.111126
3572	0.136804
3568	0.086236
3564	-0.002408
3560	-0.037431
3556	0.027632
3552	0.138378
3548	0.111746
3544	-0.042510
3540	-0.060892
3536	0.083184
3532	0.126218
3528	-0.028133
3524	-0.132799
3520	-0.030326
3516	0.112104
3512	0.041007
3508	-0.124931
3504	-0.062584
3500	0.080037
3496	0.096631
3492	0.098490
3488	0.075888
3484	0.026750
3480	0.052666
3476	0.105714
3472	0.108027
3468	0.031900
3464	-0.099897
3460	-0.219798
3456	-0.156092
3452	-0.000977
3448	0.022912
3444	-0.006604
3440	0.023508
3436	0.056362
3432	0.061416
3428	0.028657
3424	-0.032949
3420	-0.019335
3416	0.065922
3412	0.125384
3408	0.089573
3404	0.032305
3400	0.028538
3396	-0.028848
3392	-0.100016
3388	-0.030422
3384	0.119256
3380	0.171470
3376	0.117826
3372	0.086832
3368	0.107097
3364	0.096893
3360	0.056409
3356	0.060176
3352	0.100469
3348	0.101947
3344	0.008511
3340	-0.111246
3336	-0.119686
3332	0.014734
3328	0.159287
3324	0.183391
3320	0.097513
3316	-0.017023
3312	-0.050687
3308	-0.010871
3304	-0.023698
3300	-0.072979
3296	-0.029110
3292	0.146818
3288	0.270366
3284	0.213909
3280	0.204062
3276	0.309371
3272	0.334024
3268	0.274443
3264	0.193572
3260	0.145435
3256	0.131011
3252	0.059628
3248	-0.013971
3244	0.000786
3240	0.059366
3236	0.084328
3232	0.045776
3228	-0.033569
3224	-0.093030
3220	-0.085997
3216	-0.021171
3212	0.066733
3208	0.120115
3204	0.120687
3200	0.147056
3196	0.168323
3192	0.103878
3188	0.056409
3184	0.092363
3180	0.157666
3176	0.168943
3172	0.098085
3168	0.062799
3164	0.084924
3160	0.076746
3156	0.037860
3152	-0.014519
3148	-0.087356
3144	-0.167655
3140	-0.203442
3136	-0.170230
3132	-0.000572
3128	0.219774
3124	0.175452
3120	0.003623
3116	0.015449
3112	0.001358
3108	-0.100922
3104	-0.064992
3100	0.043416
3096	0.076842
3092	0.013828
3088	0.004076
3084	0.094461
3080	0.114250
3076	0.084710
3072	0.112390
3068	0.139951
3064	0.083589
3060	0.039243
3056	0.059151
3052	0.066590
3048	0.043702
3044	0.005745
3040	0.023317
3036	0.109004
3032	0.140571
3028	0.133228
3024	0.114297
3020	0.049805
3016	-0.034451
3012	-0.056481
3008	0.000858
3004	0.058960
3000	0.047206
2996	-0.016140
2992	-0.054836
2988	-0.041151
2984	0.015187
2980	0.048565
2976	0.028562
2972	0.008630
2968	0.065588
2964	0.141024
2960	0.136089
2956	0.075674
2952	0.056266
2948	0.115728
2944	0.126743
2940	0.053811
2936	0.010561
2932	0.034070
2928	0.064754
2924	0.051951
2920	0.030136
2916	0.043582
2912	0.052237
2908	0.057530
2904	0.077128
2900	0.064516
2896	0.037932
2892	0.052976
2888	0.099587
2884	0.118517
2880	0.082015
2876	0.034260
2872	0.015711
2868	0.024580
2864	0.058197
2860	0.084710
2856	0.083422
2852	0.051331
2848	-0.007867
2844	-0.030040
2840	0.028991
2836	0.096368
2832	0.062441
2828	0.018525
2824	0.029373
2820	0.032782
2816	0.058293
2812	0.071549
2808	0.030732
2804	0.025177
2800	0.095462
2796	0.141787
2792	0.075030
2788	-0.035500
2784	-0.084114
2780	-0.047469
2776	0.021648
2772	0.047373
2768	0.002288
2764	-0.072383
2760	-0.110006
2756	-0.062251
2752	0.001001
2748	0.003600
2744	0.022697
2740	0.108551
2736	0.167942
2732	0.154924
2728	0.116038
2724	0.085425
2720	0.085806
2716	0.073027
2712	0.028061
2708	-0.035190
2704	-0.086617
2700	-0.040531
2696	0.040054
2692	0.062727
2688	0.083470
2684	0.126385
2680	0.140833
2676	0.080895
2672	-0.000119
2668	-0.010466
2664	-0.002717
2660	0.003075
2656	0.027179
2652	0.024199
2648	0.011062
2644	-0.026345
2640	-0.095772
2636	-0.119829
2632	-0.088834
2628	-0.009894
2624	0.099682
2620	0.123763
2616	0.059723
2612	0.030946
2608	0.029897
2604	-0.012755
2600	-0.057363
2596	-0.034594
2592	0.026607
2588	0.070214
2584	0.089955
2580	0.105977
2576	0.098466
2572	0.066161
2568	0.055837
2564	0.006008
2560	-0.046682
2556	-0.005960
2552	0.035071
2548	0.001621
2544	-0.043654
2540	-0.039815
2536	-0.020098
2532	0.011467
2528	0.067281
2524	0.053620
2520	-0.005125
2516	0.034141
2512	0.114512
2508	0.168561
2504	0.255298
2500	0.292491
2496	0.198364
2492	0.123095
2488	0.139617
2484	0.154066
2480	0.103950
2476	0.028347
2472	0.010943
2468	0.020933
2464	0.015068
2460	0.044441
2456	0.074362
2452	0.042200
2448	-0.002241
2444	-0.030016
2440	-0.043582
2436	-0.062608
2432	-0.103092
2428	-0.173282
2424	-0.203537
2420	-0.072646
2416	0.103688
2412	0.201559
2408	0.199460
2404	0.119638
2400	0.093984
2396	0.109839
2392	0.100159
2388	0.077652
2384	0.060725
2380	0.058412
2376	0.081014
2372	0.120115
2368	0.136184
2364	0.162625
2360	0.227952
2356	0.269627
2352	0.270056
2348	0.268626
2344	0.275111
2340	0.313186
2336	0.388121
2332	0.443863
2328	0.459694
2324	0.492000
2320	0.594496
2316	0.716447
2312	0.783824
2308	0.777101
2304	0.773835
2300	0.868272
2296	0.984239
2292	1.073718
2288	1.198863
2284	1.304459
2280	1.352334
2276	1.438379
2272	1.561832
2268	1.704263
2264	1.862001
2260	1.976108
2256	2.123260
2252	2.356457
2248	2.584600
2244	2.784132
2240	3.027367
2236	3.309798
2232	3.547024
2228	3.756189
2224	3.994178
2220	4.272127
2216	4.586291
2212	4.924988
2208	5.277061
2204	5.622458
2200	6.005764
2196	6.446933
2192	6.838130
2188	7.171583
2184	7.544517
2180	7.974076
2176	8.410215
2172	8.814835
2168	9.246993
2164	9.747886
2160	10.2517
2156	10.7558
2152	11.3227
2148	11.9151
2144	12.4167
2140	12.8582
2136	13.3534
2132	13.9057
2128	14.506
2124	15.0906
2120	15.5925
2116	16.1295
2112	16.7146
2108	17.2311
2104	17.7499
2100	18.3495
2096	18.9688
2092	19.5858
2088	20.2023
2084	20.7586
2080	21.2426
2076	21.6906
2072	22.0276
2068	22.3658
2064	23
2060	23.687
2056	24.1344
2052	24.5495
2048	25.018
2044	25.4575
2040	25.8734
2036	26.3191
2032	26.764
2028	27.1816
2024	27.6097
2020	27.9878
2016	28.2925
2012	28.5807
2008	28.8554
2004	29.1465
2000	29.4955
1996	29.8673
1992	30.2557
1988	30.6573
1984	31.0115
1980	31.3329
1976	31.6223
1972	31.863
1968	32.1131
1964	32.353
1960	32.5581
1956	32.7481
1952	32.8835
1948	33.0038
1944	33.2575
1940	33.5886
1936	33.8188
1932	33.9954
1928	34.2254
1924	34.4331
1920	34.5908
1916	34.7549
1912	34.8787
1908	34.9665
1904	35.0337
1900	35.0906
1896	35.1502
1892	35.2141
1888	35.3374
1884	35.5114
1880	35.6927
1876	35.868
1872	36.0634
1868	36.2571
1864	36.3729
1860	36.4837
1856	36.6181
1852	36.6899
1848	36.7055
1844	36.6556
1840	36.5473
1836	36.469
1832	36.4654
1828	36.5484
1824	36.6709
1820	36.7772
1816	36.9219
1812	37.1253
1808	37.2812
1804	37.3611
1800	37.4569
1796	37.5484
1792	37.5721
1788	37.5453
1784	37.4697
1780	37.3772
1776	37.3385
1772	37.3245
1768	37.3257
1764	37.4002
1760	37.4992
1756	37.6051
1752	37.7551
1748	37.9208
1744	38.0491
1740	38.1331
1736	38.2041
1732	38.1905
1728	38.036
1724	37.8974
1720	37.8512
1716	37.7741
1712	37.7043
1708	37.7362
1704	37.8654
1700	38.0522
1696	38.1563
1692	38.1758
1688	38.3317
1684	38.5274
1680	38.484
1676	38.3668
1672	38.3199
1668	38.2454
1664	38.1246
1660	38.0826
1656	38.1849
1652	38.1746
1648	37.9927
1644	37.8784
1640	37.9525
1636	38.1182
1632	38.2047
1628	38.3192
1624	38.5031
1620	38.6435
1616	38.67
1612	38.548
1608	38.3903
1604	38.2223
1600	38.0525
1596	37.9091
1592	37.7842
1588	37.7375
1584	37.7717
1580	37.8993
1576	38.0869
1572	38.1953
1568	38.2773
1564	38.5427
1560	38.93
1556	38.9947
1552	38.7314
1548	38.5171
1544	38.4811
1540	38.4465
1536	38.2173
1532	37.9338
1528	37.8258
1524	37.9271
1520	38.0131
1516	38.0042
1512	38.1146
1508	38.3282
1504	38.4238
1500	38.4316
1496	38.4368
1492	38.4052
1488	38.3803
1484	38.3251
1480	38.2193
1476	38.1449
1472	37.9972
1468	37.7383
1464	37.5926
1460	37.6471
1456	37.7581
1452	37.86
1448	38.0318
1444	38.2216
1440	38.3436
1436	38.378
1432	38.327
1428	38.2687
1424	38.2543
1420	38.2089
1416	38.0466
1412	37.836
1408	37.6941
1404	37.652
1400	37.6675
1396	37.6702
1392	37.6304
1388	37.629
1384	37.7328
1380	37.8976
1376	38.0734
1372	38.2395
1368	38.3523
1364	38.358
1360	38.242
1356	38.0434
1352	37.8401
1348	37.6658
1344	37.5449
1340	37.5004
1336	37.4523
1332	37.4092
1328	37.4739
1324	37.6085
1320	37.7507
1316	37.9151
1312	38.0597
1308	38.14
1304	38.2043
1300	38.2397
1296	38.174
1292	38.0261
1288	37.8608
1284	37.6603
1280	37.4032
1276	37.2255
1272	37.1447
1268	37.0702
1264	37.1056
1260	37.2681
1256	37.4805
1252	37.7644
1248	38.0208
1244	38.097
1240	38.0685
1236	38.0442
1232	37.9642
1228	37.7816
1224	37.5845
1220	37.4233
1216	37.2509
1212	37.1082
1208	37.0425
1204	37.0356
1200	37.1272
1196	37.317
1192	37.5232
1188	37.7447
1184	37.9755
1180	38.1264
1176	38.1507
1172	38.0751
1168	37.8989
1164	37.6599
1160	37.4194
1156	37.2012
1152	37.0594
1148	36.9707
1144	36.9482
1140	37.004
1136	37.0944
1132	37.2725
1128	37.5286
1124	37.7759
1120	37.9226
1116	37.9045
1112	37.7673
1108	37.6368
1104	37.6015
1100	37.5777
1096	37.4132
1092	37.0676
1088	36.7071
1084	36.5397
1080	36.5486
1076	36.6396
1072	36.8518
1068	37.1371
1064	37.3785
1060	37.5176
1056	37.5868
1052	37.6328
1048	37.5698
1044	37.4124
1040	37.3017
1036	37.2033
1032	36.9808
1028	36.6719
1024	36.435
1020	36.3094
1016	36.2085
1012	36.1642
1008	36.3168
1004	36.586
1000	36.8018
996	 37.0641
992	 37.4478
988	 37.6889
984	 37.6852
980	 37.6331
976	 37.5162
972	 37.2231
968	 36.8288
964	 36.4775
960	 36.2673
956	 36.158
952	 36.0737
948	 36.0801
944	 36.1751
940	 36.3881
936	 36.731
932	 36.995
928	 37.1135
924	 37.1271
920	 37.1111
916	 37.0842
912	 36.903
908	 36.6119
904	 36.2553
900	 35.8582
896	 35.6206
892	 35.4788
888	 35.3384
884	 35.4019
880	 35.6458
876	 35.9017
872	 36.1628
868	 36.3702
864	 36.5461
860	 36.6786
856	 36.6295
852	 36.4248
848	 36.1376
844	 35.7984
840	 35.501
836	 35.2966
832	 35.1596
828	 35.0337
824	 34.9311
820	 34.9639
816	 35.1583
812	 35.4064
808	 35.6017
804	 35.7545
800	 35.8947
796	 35.9257
792	 35.7893
788	 35.5255
784	 35.2287
780	 35.0388
776	 34.9289
772	 34.6945
768	 34.3392
764	 34.2784
760	 34.4902
756	 34.4293
752	 34.1994
748	 34.2428
744	 34.5729
740	 34.9042
736	 35.0255
732	 35.0163
728	 34.9463
724	 34.7798
720	 34.6161
716	 34.4333
712	 33.9696
708	 33.3515
704	 32.9988
700	 32.9687
696	 33.0598
692	 33.2564
688	 33.4845
684	 33.585
680	 33.757
676	 34.1605
672	 34.5793
668	 34.6728
664	 34.3995
660	 33.8509
656	 33.2962
652	 33.1256
648	 33.0501
644	 32.6584
640	 32.1858
636	 31.9718
632	 32.0313
628	 32.2115
624	 32.276
620	 32.2543
616	 32.3969
612	 32.6266
608	 32.8376
604	 32.8614
600	 32.5487
596	 32.2925
592	 32.285
588	 32.2481
584	 31.9288
580	 31.3884
576	 31.0114
572	 30.9378
568	 31.0209
564	 31.2673
560	 31.5127
556	 31.6441
552	 31.86
548	 31.88
544	 31.4869
540	 31.2618
536	 31.4022
532	 31.4431
528	 31.2619
524	 30.8934
520	 30.6008
516	 30.2654
512	 29.4541
508	 28.6634
504	 28.7474
500	 29.2095
496	 28.6387
492	 27.6529
488	 27.853
484	 28.644
480	 29.3703
476	 30.3862
472	 30.5901
468	 29.8533
464	 29.5993
460	 29.6402
456	 29.5032
452	 29.3278
448	 28.9286
444	 28.5409
440	 27.7002
436	 25.6618
432	 24.1452
428	 25.1093
424	 27.0752
420	 27.4429
416	 24.7483
412	 21.0742
408	 21.5795
404	 23.8104
400	 19.3714
396	 18.4187
392	 31.5458
388	 38.0988
384	 32.3515
380	 37.3829
376	 40.1397
372	 20.1578
370	 8.553647