File: Bakgrunnsmateriale/MATLAB/FTIR/ftir_data/LPE453/Mapping_121/LPE453_t116.asc
PE IR       SPECTRUM    SPECTRUM    ASCII       PEDS        1.60
  -1
LP9B88~1.ASC
17/05/17
00:09:23.00
17/05/17
00:09:49.00
tln
$LPE453_t0116$<tbV0>[0.0,13.0,8.0,0.0,27,1,0]
27.028
64

2002,4.07
MIRTGS : RIGHTBACK : INTERNAL 2
MIR : ON : INTERNAL 2
OPTKBR

0.200000
8
8.000000
FILLER
RATIO
SPECTRUM
UNLOCKED 256

DOUBLE
64
COMBINED
1
0
0

0.002000
RATIO

1
0
TRUE
51149
0
LEFT NOT FITTED RIGHT NOT FITTED 0
NONE
NONE
15600
12
4.427000
51148
TRUE
1 0 8 72 0 0 0 0

15798

#HDR
-1
-1
#GR
µM
%T
2.38419e-05
0.0
2.000000
0.002000
12515
8
36.1501
-2.260681
#DATA
2.000000	 0.855875
2.018000	 -0.477241
2.036000	 -0.181048
2.054000	 0.311936
2.072000	 0.538498
2.090000	 0.481513
2.108000	 0.340041
2.126000	 0.758763
2.144000	 0.691515
2.162000	 1.507436
2.180000	 -1.257245
2.198000	 -0.822231
2.216000	 -0.591290
2.234000	 -0.679093
2.252000	 -1.378040
2.270000	 0.669696
2.288000	 1.037465
2.306000	 0.258457
2.324000	 0.347840
2.342000	 0.192410
2.360000	 0.549051
2.378000	 0.156437
2.396000	 0.250382
2.414000	 0.437915
2.432000	 0.154046
2.450000	 -0.043406
2.468000	 -0.042060
2.486000	 0.148234
2.504000	 0.174660
2.522000	 0.166477
2.540000	 0.278825
2.558000	 0.171166
2.576000	 0.143204
2.594000	 0.097470
2.612000	 -0.051589
2.630000	 0.047847
2.648000	 0.156620
2.666000	 0.302956
2.684000	 0.073148
2.702000	 0.120741
2.720000	 -0.025140
2.738000	 0.004806
2.756000	 0.049247
2.774000	 0.159161
2.792000	 0.179361
2.810000	 -0.034241
2.828000	 0.148719
2.846000	 0.041451
2.864000	 0.170997
2.882000	 -0.011431
2.900000	 0.092949
2.918000	 0.036650
2.936000	 -0.062269
2.954000	 0.095457
2.972000	 -0.064719
2.990000	 0.121699
3.008000	 0.070782
3.026000	 -0.034722
3.044000	 0.195742
3.062000	 0.045641
3.080000	 0.104152
3.098000	 0.050286
3.116000	 0.065184
3.134000	 -0.141134
3.152000	 0.095489
3.170000	 0.172518
3.188000	 -0.028928
3.206000	 0.062647
3.224000	 0.044831
3.242000	 -0.035894
3.260000	 0.058951
3.278000	 0.036170
3.296000	 0.060529
3.314000	 -0.046642
3.332000	 -0.015437
3.350000	 -0.033261
3.368000	 -0.055125
3.386000	 0.021392
3.404000	 0.249423
3.422000	 0.038419
3.440000	 0.112672
3.458000	 0.055769
3.476000	 0.109102
3.494000	 -0.144663
3.512000	 0.199956
3.530000	 -0.004613
3.548000	 -0.025811
3.566000	 0.013555
3.584000	 -0.015330
3.602000	 0.019590
3.620000	 -0.004274
3.638000	 0.107608
3.656000	 0.025888
3.674000	 0.035337
3.692000	 0.022509
3.710000	 0.013334
3.728000	 0.024974
3.746000	 -0.036020
3.764000	 0.037242
3.782000	 0.061869
3.800000	 -0.029503
3.818000	 0.123183
3.836000	 0.077607
3.854000	 -0.125312
3.872000	 0.034348
3.890000	 0.004215
3.908000	 0.074916
3.926000	 -0.119550
3.944000	 0.024377
3.962000	 -0.021358
3.980000	 0.010086
3.998000	 0.033171
4.016000	 0.118666
4.034000	 0.003324
4.052000	 0.051021
4.070000	 -0.035533
4.088000	 0.054590
4.106000	 0.081451
4.124000	 0.178207
4.141999	 0.100587
4.160000	 0.128969
4.178000	 0.155200
4.196000	 0.115418
4.214000	 0.134899
4.232000	 0.179915
4.250000	 0.283819
4.268000	 0.388688
4.286000	 0.425442
4.304000	 0.543596
4.322000	 0.609909
4.340000	 0.823212
4.358000	 0.865724
4.375999	 1.211942
4.394000	 1.447359
4.412000	 1.753307
4.430000	 1.986017
4.448000	 2.396919
4.466000	 2.756285
4.484000	 3.240609
4.502000	 3.755469
4.520000	 4.416519
4.538000	 5.081119
4.556000	 5.757204
4.574000	 6.499744
4.592000	 7.304202
4.609999	 8.117753
4.628000	 9.070265
4.646000	 10.0346
4.664000	 10.9008
4.682000	 11.9418
4.700000	 12.7815
4.718000	 13.8339
4.736000	 14.7683
4.754000	 15.697
4.772000	 16.6978
4.790000	 17.6206
4.808000	 18.4577
4.826000	 19.3469
4.843999	 20.2398
4.862000	 21.0593
4.880000	 21.8396
4.898000	 22.619
4.916000	 23.371
4.934000	 24.0127
4.952000	 24.701
4.970000	 25.3632
4.988000	 25.9151
5.006000	 26.4356
5.024000	 26.9587
5.042000	 27.4153
5.060000	 27.943
5.077999	 28.4723
5.096000	 28.7959
5.114000	 29.1422
5.132000	 29.4936
5.150000	 29.9337
5.168000	 30.2349
5.186000	 30.5094
5.204000	 30.8029
5.222000	 31.0527
5.240000	 31.3644
5.258000	 31.6405
5.276000	 31.9577
5.294000	 32.3039
5.312000	 32.4414
5.330000	 32.5186
5.348000	 32.6071
5.366000	 32.8114
5.384000	 32.9841
5.402000	 33.197
5.420000	 33.2683
5.438000	 33.4417
5.456000	 33.7486
5.474000	 33.9369
5.492000	 34.0464
5.510000	 34.1345
5.528000	 34.1019
5.546000	 34.1398
5.564000	 34.2627
5.582000	 34.3209
5.600000	 34.4422
5.618000	 34.4941
5.636000	 34.6961
5.654000	 34.869
5.672000	 34.909
5.690000	 34.9044
5.708000	 34.9608
5.726000	 35.023
5.744000	 34.9745
5.762000	 34.9641
5.780000	 35.0627
5.798000	 35.1324
5.816000	 35.1886
5.834000	 35.282
5.852000	 35.3643
5.870000	 35.4103
5.888000	 35.4894
5.906000	 35.5156
5.923999	 35.5435
5.942000	 35.5567
5.960000	 35.4751
5.978000	 35.458
5.996000	 35.5058
6.014000	 35.5228
6.032000	 35.5894
6.050000	 35.6847
6.068000	 35.7817
6.086000	 35.8306
6.104000	 35.82
6.122000	 35.7838
6.140000	 35.8101
6.158000	 35.8289
6.176000	 35.7406
6.194000	 35.6366
6.212000	 35.6616
6.230000	 35.7098
6.248000	 35.7561
6.266000	 35.7908
6.284000	 35.8383
6.302000	 35.9774
6.320000	 36.0627
6.338000	 36.0706
6.356000	 36.0304
6.374000	 35.9869
6.392000	 35.9925
6.410000	 35.9502
6.428000	 35.8419
6.446000	 35.8117
6.464000	 35.8669
6.482000	 35.8483
6.500000	 35.8142
6.518000	 35.8844
6.536000	 35.9519
6.554000	 35.9726
6.572000	 35.9838
6.590000	 36.0524
6.608000	 36.1442
6.626000	 36.1149
6.644000	 36.0108
6.662000	 35.8777
6.680000	 35.7346
6.698000	 35.7277
6.716000	 35.8165
6.734000	 35.8303
6.752000	 35.7756
6.770000	 35.724
6.788000	 35.7371
6.806000	 35.7893
6.824000	 35.8295
6.842000	 35.9069
6.860000	 35.982
6.878000	 35.9828
6.896000	 35.9825
6.914000	 36.0176
6.932000	 36.009
6.950000	 35.9451
6.968000	 35.8787
6.986000	 35.819
7.004000	 35.7901
7.022000	 35.7932
7.040000	 35.7501
7.058000	 35.6625
7.076000	 35.6036
7.094000	 35.5966
7.112000	 35.6395
7.130000	 35.71
7.148000	 35.7699
7.166000	 35.8132
7.184000	 35.8572
7.202000	 35.9031
7.220000	 35.9371
7.238000	 35.9656
7.256000	 35.9787
7.274000	 35.9282
7.292000	 35.8285
7.310000	 35.7225
7.328000	 35.6144
7.346000	 35.5433
7.364000	 35.5258
7.382000	 35.5029
7.400000	 35.4752
7.418000	 35.4844
7.436000	 35.5134
7.454000	 35.556
7.472000	 35.6293
7.490000	 35.6969
7.508000	 35.7201
7.526000	 35.7178
7.544000	 35.7134
7.562000	 35.6959
7.580000	 35.6634
7.598000	 35.6554
7.616000	 35.6918
7.634000	 35.7116
7.652000	 35.6509
7.670000	 35.5501
7.688000	 35.4961
7.706000	 35.496
7.724000	 35.4904
7.742000	 35.4488
7.760000	 35.3859
7.778000	 35.3238
7.796000	 35.2809
7.814000	 35.2735
7.832000	 35.303
7.850000	 35.3487
7.868000	 35.3801
7.886000	 35.3817
7.904000	 35.3765
7.922000	 35.397
7.940000	 35.4357
7.958000	 35.4639
7.976000	 35.4748
7.994000	 35.469
8.012000	 35.4335
8.030000	 35.3702
8.048000	 35.2983
8.065999	 35.2217
8.084000	 35.1414
8.102000	 35.0825
8.120000	 35.0648
8.138000	 35.0668
8.155999	 35.0517
8.173999	 35.0096
8.192000	 34.9577
8.210000	 34.9188
8.228000	 34.9097
8.246000	 34.9292
8.263999	 34.9552
8.282000	 34.9679
8.300000	 34.979
8.318000	 35.0151
8.336000	 35.0777
8.353999	 35.1463
8.372000	 35.2063
8.390000	 35.2478
8.408000	 35.2578
8.426000	 35.2299
8.443999	 35.1656
8.462000	 35.0732
8.480000	 34.9673
8.498000	 34.862
8.516000	 34.7682
8.533999	 34.695
8.552000	 34.6411
8.570000	 34.5939
8.588000	 34.5436
8.606000	 34.4991
8.624000	 34.4808
8.641999	 34.5005
8.660000	 34.5502
8.678000	 34.6099
8.696000	 34.6629
8.714000	 34.7077
8.731999	 34.7586
8.750000	 34.8299
8.768000	 34.9082
8.786000	 34.9465
8.804000	 34.9106
8.821999	 34.8262
8.840000	 34.7632
8.858000	 34.7635
8.876000	 34.8003
8.894000	 34.8128
8.911999	 34.7683
8.930000	 34.6842
8.948000	 34.5951
8.966000	 34.5192
8.984000	 34.4526
9.001999	 34.3867
9.020000	 34.3234
9.038000	 34.2758
9.056000	 34.2589
9.074000	 34.2716
9.092000	 34.2909
9.109999	 34.2854
9.128000	 34.2419
9.146000	 34.1812
9.164000	 34.1416
9.182000	 34.1471
9.199999	 34.191
9.218000	 34.2449
9.236000	 34.278
9.254000	 34.2699
9.272000	 34.2246
9.289999	 34.1732
9.308000	 34.1621
9.326000	 34.2197
9.344000	 34.3332
9.362000	 34.4548
9.379999	 34.5383
9.398000	 34.5686
9.416000	 34.5623
9.434000	 34.5467
9.452000	 34.5392
9.469999	 34.5373
9.488000	 34.5209
9.506000	 34.4672
9.524000	 34.3686
9.542000	 34.2411
9.560000	 34.116
9.577999	 34.0199
9.596000	 33.9586
9.614000	 33.9187
9.632000	 33.8822
9.650000	 33.8414
9.667999	 33.8
9.686000	 33.7656
9.704000	 33.7426
9.722000	 33.7303
9.740000	 33.7281
9.757999	 33.7378
9.776000	 33.7609
9.794000	 33.7939
9.812000	 33.828
9.830000	 33.8561
9.847999	 33.8795
9.866000	 33.905
9.884000	 33.9357
9.902000	 33.9653
9.920000	 33.9819
9.937999	 33.9805
9.956000	 33.9699
9.974000	 33.967
9.992000	 33.9826
10.01	34.0119
10.028	34.0363
10.046	34.0369
10.064	34.0088
10.082	33.9614
10.1	33.9096
10.118	33.8616
10.136	33.8158
10.154	33.7679
10.172	33.7183
10.19	33.6747
10.208	33.6455
10.226	33.6324
10.244	33.6286
10.262	33.6216
10.28	33.601
10.298	33.5606
10.316	33.4994
10.334	33.4218
10.352	33.3377
10.37	33.2625
10.388	33.2125
10.406	33.1971
10.424	33.2128
10.442	33.2434
10.46	33.2695
10.478	33.2783
10.496	33.2723
10.514	33.265
10.532	33.273
10.55	33.3047
10.568	33.357
10.586	33.4188
10.604	33.479
10.622	33.5308
10.64	33.5725
10.658	33.6044
10.676	33.6268
10.694	33.6392
10.712	33.6429
10.73	33.641
10.748	33.637
10.766	33.6317
10.784	33.6213
10.802	33.5976
10.82	33.5532
10.838	33.485
10.856	33.3966
10.874	33.2987
10.892	33.2039
10.91	33.1242
10.928	33.0665
10.946	33.0317
10.964	33.0146
10.982	33.0054
11	32.9937
11.018	32.9704
11.036	32.9306
11.054	32.874
11.072	32.8046
11.09	32.7301
11.108	32.6587
11.126	32.5987
11.144	32.5558
11.162	32.5334
11.18	32.5325
11.198	32.5523
11.216	32.5909
11.234	32.6453
11.252	32.7109
11.27	32.7817
11.288	32.8502
11.306	32.91
11.324	32.9585
11.342	32.9976
11.36	33.0326
11.378	33.0691
11.396	33.1084
11.414	33.1465
11.432	33.1758
11.45	33.1898
11.468	33.1861
11.486	33.168
11.504	33.1428
11.522	33.1179
11.54	33.0967
11.558	33.0777
11.576	33.055
11.594	33.0222
11.612	32.9752
11.63	32.914
11.648	32.8422
11.666	32.7645
11.684	32.6853
11.702	32.6071
11.72	32.5307
11.738	32.4571
11.756	32.388
11.774	32.3255
11.792	32.2719
11.81	32.2272
11.828	32.1891
11.846	32.1532
11.864	32.1154
11.882	32.0739
11.9	32.0301
11.918	31.9887
11.936	31.956
11.954	31.9363
11.972	31.9303
11.99	31.9343
12.008	31.9408
12.026	31.9418
12.044	31.9314
12.062	31.9094
12.08	31.8812
12.098	31.856
12.116	31.8433
12.134	31.8485
12.152	31.8716
12.17	31.9071
12.188	31.9464
12.206	31.9813
12.224	32.0069
12.242	32.0226
12.26	32.0312
12.278	32.0382
12.296	32.049
12.314	32.0672
12.332	32.0933
12.35	32.1242
12.368	32.1541
12.386	32.1766
12.404	32.1866
12.422	32.1823
12.44	32.1654
12.458	32.1407
12.476	32.1149
12.494	32.0941
12.512	32.0821
12.53	32.0795
12.548	32.0836
12.566	32.0895
12.584	32.0913
12.602	32.0835
12.62	32.0625
12.638	32.027
12.656	31.9782
12.674	31.919
12.692	31.8537
12.71	31.7872
12.728	31.7244
12.746	31.6696
12.764	31.6254
12.782	31.5921
12.8	31.5677
12.818	31.5486
12.836	31.5301
12.854	31.5079
12.872	31.479
12.89	31.4426
12.908	31.4
12.926	31.3545
12.944	31.3102
12.962	31.2708
12.98	31.2386
12.998	31.2142
13.016	31.1968
13.034	31.1845
13.052	31.1749
13.07	31.1665
13.088	31.1586
13.106	31.152
13.124	31.1481
13.142	31.1489
13.16	31.1564
13.178	31.1715
13.196	31.1946
13.214	31.2244
13.232	31.2579
13.25	31.2914
13.268	31.321
13.286	31.3435
13.304	31.357
13.322	31.3621
13.34	31.3613
13.358	31.3592
13.376	31.3609
13.394	31.3707
13.412	31.3915
13.43	31.4228
13.448	31.4617
13.466	31.5022
13.484	31.5374
13.502	31.5602
13.52	31.5654
13.538	31.5505
13.556	31.5162
13.574	31.4664
13.592	31.4069
13.61	31.3445
13.628	31.2852
13.646	31.2343
13.664	31.1944
13.682	31.1662
13.7	31.1481
13.718	31.1376
13.736	31.1312
13.754	31.1256
13.772	31.1177
13.79	31.1058
13.808	31.089
13.826	31.0672
13.844	31.0411
13.862	31.0115
13.88	30.9796
13.898	30.9464
13.916	30.9129
13.934	30.8795
13.952	30.8464
13.97	30.8138
13.988	30.7817
14.006	30.7501
14.024	30.7193
14.042	30.6893
14.06	30.6605
14.078	30.6327
14.096	30.6056
14.114	30.5782
14.132	30.5496
14.15	30.5186
14.168	30.4841
14.186	30.4451
14.204	30.4016
14.222	30.3539
14.24	30.3028
14.258	30.2499
14.276	30.1966
14.294	30.145
14.312	30.097
14.33	30.0546
14.348	30.0197
14.366	29.9937
14.384	29.9779
14.402	29.9731
14.42	29.9799
14.438	29.9978
14.456	30.0259
14.474	30.0624
14.492	30.1051
14.51	30.1509
14.528	30.1967
14.546	30.24
14.564	30.2787
14.582	30.3117
14.6	30.3387
14.618	30.3602
14.636	30.3775
14.654	30.3917
14.672	30.4038
14.69	30.4144
14.708	30.4237
14.726	30.4316
14.744	30.4374
14.762	30.4404
14.78	30.4402
14.798	30.4364
14.816	30.4292
14.834	30.4188
14.852	30.4058
14.87	30.3905
14.888	30.3735
14.906	30.355
14.924	30.3351
14.942	30.3138
14.96	30.291
14.978	30.2667
14.996	30.2411
15.014	30.2143
15.032	30.1869
15.05	30.1597
15.068	30.1332
15.086	30.1081
15.104	30.0846
15.122	30.0626
15.14	30.0419
15.158	30.0222
15.176	30.0028
15.194	29.9834
15.212	29.9631
15.23	29.9415
15.248	29.9181
15.266	29.8923
15.284	29.8636
15.302	29.8315
15.32	29.7954
15.338	29.755
15.356	29.7097
15.374	29.6594
15.392	29.6044
15.41	29.5449
15.428	29.4816
15.446	29.4157
15.464	29.3486
15.482	29.2817
15.5	29.217
15.518	29.1564
15.536	29.1017
15.554	29.0542
15.572	29.0151
15.59	28.9852
15.608	28.9644
15.626	28.9522
15.644	28.9475
15.662	28.9484
15.68	28.9531
15.698	28.9596
15.716	28.9655
15.734	28.9688
15.752	28.9682
15.77	28.9628
15.788	28.9523
15.806	28.9374
15.824	28.9189
15.842	28.8985
15.86	28.8787
15.878	28.8613
15.896	28.8481
15.914	28.8413
15.932	28.842
15.95	28.8506
15.968	28.8674
15.986	28.8917
16.004	28.9227
16.022	28.9593
16.04	28.9996
16.058	29.0422
16.076	29.0858
16.094	29.1286
16.112	29.1694
16.13	29.2072
16.148	29.2411
16.166	29.2701
16.184	29.2937
16.202	29.3113
16.22	29.3225
16.238	29.3269
16.256	29.3244
16.274	29.3152
16.292	29.2997
16.31	29.2784
16.328	29.2524
16.346	29.2231
16.364	29.1916
16.382	29.1601
16.4	29.1303
16.418	29.1035
16.436	29.0817
16.454	29.0658
16.472	29.0564
16.49	29.0539
16.508	29.0579
16.526	29.0679
16.544	29.0823
16.562	29.0993
16.58	29.1177
16.598	29.1345
16.616	29.148
16.634	29.1568
16.652	29.1587
16.67	29.1531
16.688	29.1394
16.706	29.1179
16.724	29.0892
16.742	29.0544
16.76	29.0157
16.778	28.9744
16.796	28.9325
16.814	28.8923
16.832	28.8548
16.85	28.8216
16.868	28.793
16.886	28.7691
16.904	28.7492
16.922	28.7324
16.94	28.7174
16.958	28.7024
16.976	28.6862
16.994	28.667
17.012	28.6439
17.03	28.6161
17.048	28.5834
17.066	28.5464
17.084	28.5054
17.102	28.4623
17.12	28.4176
17.138	28.3735
17.156	28.3308
17.174	28.2908
17.192	28.2544
17.21	28.2217
17.228	28.1931
17.246	28.1682
17.264	28.1465
17.282	28.1273
17.3	28.1101
17.318	28.0943
17.336	28.0797
17.354	28.0661
17.372	28.0535
17.39	28.0423
17.408	28.0326
17.426	28.025
17.444	28.0195
17.462	28.0164
17.48	28.0154
17.498	28.016
17.516	28.0172
17.534	28.0183
17.552	28.0174
17.57	28.0139
17.588	28.0057
17.606	27.9923
17.624	27.9725
17.642	27.946
17.66	27.9128
17.678	27.8737
17.696	27.8293
17.714	27.7816
17.732	27.7322
17.75	27.6826
17.768	27.6355
17.786	27.5918
17.804	27.5541
17.822	27.5226
17.84	27.4989
17.858	27.4829
17.876	27.475
17.894	27.4744
17.912	27.481
17.93	27.493
17.948	27.5101
17.966	27.5303
17.984	27.5533
18.002	27.5777
18.02	27.603
18.038	27.6286
18.056	27.654
18.074	27.6792
18.092	27.704
18.11	27.7285
18.128	27.753
18.146	27.7773
18.164	27.8017
18.182	27.8261
18.2	27.8505
18.218	27.8747
18.236	27.8985
18.254	27.9214
18.272	27.9432
18.29	27.9635
18.308	27.9821
18.326	27.9987
18.344	28.0134
18.362	28.0262
18.38	28.0372
18.398	28.0467
18.416	28.0551
18.434	28.063
18.452	28.071
18.47	28.0793
18.488	28.0885
18.506	28.0988
18.524	28.11
18.542	28.1223
18.56	28.1351
18.578	28.1483
18.596	28.1604
18.614	28.1714
18.632	28.1794
18.65	28.1843
18.668	28.1839
18.686	28.1782
18.704	28.1653
18.722	28.1452
18.74	28.1166
18.758	28.0796
18.776	28.0338
18.794	27.9794
18.812	27.9169
18.83	27.8468
18.848	27.7704
18.866	27.6887
18.884	27.6034
18.902	27.5158
18.92	27.4281
18.938	27.3415
18.956	27.2583
18.974	27.1795
18.992	27.1072
19.01	27.0419
19.028	26.9852
19.046	26.9371
19.064	26.8986
19.082	26.8689
19.1	26.8481
19.118	26.8352
19.136	26.8292
19.154	26.8294
19.172	26.8338
19.19	26.8421
19.208	26.8523
19.226	26.8642
19.244	26.8759
19.262	26.8875
19.28	26.8981
19.298	26.9077
19.316	26.9162
19.334	26.9237
19.352	26.9309
19.37	26.9378
19.388	26.9455
19.406	26.9538
19.424	26.9636
19.442	26.9749
19.46	26.9877
19.478	27.0023
19.496	27.0176
19.514	27.0338
19.532	27.0496
19.55	27.0643
19.568	27.0769
19.586	27.0862
19.604	27.0917
19.622	27.0921
19.64	27.0873
19.658	27.0764
19.676	27.0594
19.694	27.0364
19.712	27.0074
19.73	26.9736
19.748	26.9347
19.766	26.8927
19.784	26.8478
19.802	26.8016
19.82	26.7552
19.838	26.7092
19.856	26.6651
19.874	26.6229
19.892	26.584
19.91	26.5481
19.928	26.5156
19.946	26.4867
19.964	26.4607
19.982	26.4379
20	26.4174
20.018	26.3992
20.036	26.3828
20.054	26.3674
20.072	26.3531
20.09	26.3391
20.108	26.3255
20.126	26.3122
20.144	26.2989
20.162	26.2863
20.18	26.2744
20.198	26.2636
20.216	26.2545
20.234	26.247
20.252	26.2422
20.27	26.2399
20.288	26.241
20.306	26.2455
20.324	26.2536
20.342	26.2656
20.36	26.2814
20.378	26.301
20.396	26.3244
20.414	26.3509
20.432	26.3806
20.45	26.4126
20.468	26.447
20.486	26.4829
20.504	26.5191
20.522	26.5558
20.54	26.5912
20.558	26.6258
20.576	26.6577
20.594	26.6862
20.612	26.7109
20.63	26.73
20.648	26.7439
20.666	26.7505
20.684	26.7499
20.702	26.7412
20.72	26.7236
20.738	26.6973
20.756	26.6616
20.774	26.6165
20.792	26.5625
20.81	26.4991
20.828	26.4275
20.846	26.3485
20.864	26.262
20.882	26.1711
20.9	26.0751
20.918	25.9766
20.936	25.8775
20.954	25.7779
20.972	25.6816
20.99	25.5879
21.008	25.4998
21.026	25.4186
21.044	25.3445
21.062	25.2801
21.08	25.2249
21.098	25.18
21.116	25.1461
21.134	25.1227
21.152	25.1098
21.17	25.1076
21.188	25.1143
21.206	25.1302
21.224	25.154
21.242	25.1834
21.26	25.2193
21.278	25.2583
21.296	25.3003
21.314	25.3443
21.332	25.3877
21.35	25.4313
21.368	25.4727
21.386	25.5113
21.404	25.5471
21.422	25.5783
21.44	25.6053
21.458	25.6277
21.476	25.6449
21.494	25.6574
21.512	25.6651
21.53	25.668
21.548	25.6666
21.566	25.6614
21.584	25.6522
21.602	25.64
21.62	25.6247
21.638	25.6069
21.656	25.5875
21.674	25.5661
21.692	25.5435
21.71	25.5196
21.728	25.4947
21.746	25.4692
21.764	25.4433
21.782	25.4167
21.8	25.3894
21.818	25.3615
21.836	25.3327
21.854	25.3032
21.872	25.2725
21.89	25.24
21.908	25.2059
21.926	25.1697
21.944	25.131
21.962	25.09
21.98	25.0459
21.998	24.9988
22.016	24.9483
22.034	24.894
22.052	24.8359
22.07	24.774
22.088	24.7083
22.106	24.6388
22.124	24.5663
22.142	24.4906
22.16	24.4122
22.178	24.3327
22.196	24.2515
22.214	24.17
22.232	24.0899
22.25	24.0102
22.268	23.9335
22.286	23.8608
22.304	23.7916
22.322	23.7286
22.34	23.6719
22.358	23.6217
22.376	23.5803
22.394	23.5472
22.412	23.523
22.43	23.5089
22.448	23.5044
22.466	23.5099
22.484	23.5255
22.502	23.5513
22.52	23.5864
22.538	23.6308
22.556	23.6845
22.574	23.7457
22.592	23.8146
22.61	23.8907
22.628	23.9716
22.646	24.058
22.664	24.1487
22.682	24.2414
22.7	24.337
22.718	24.4339
22.736	24.53
22.754	24.6265
22.772	24.7215
22.79	24.8133
22.808	24.9027
22.826	24.9882
22.844	25.0684
22.862	25.144
22.88	25.214
22.898	25.2776
22.916	25.3354
22.934	25.3865
22.952	25.4305
22.97	25.4678
22.988	25.4982
23.006	25.5219
23.024	25.5388
23.042	25.5489
23.06	25.5523
23.078	25.5489
23.096	25.5393
23.114	25.5235
23.132	25.5014
23.15	25.4732
23.168	25.4388
23.186	25.3982
23.204	25.352
23.222	25.3
23.24	25.2423
23.258	25.179
23.276	25.1099
23.294	25.0352
23.312	24.9554
23.33	24.8703
23.348	24.78
23.366	24.6853
23.384	24.5857
23.402	24.4816
23.42	24.3742
23.438	24.2631
23.456	24.1486
23.474	24.0325
23.492	23.9145
23.51	23.7947
23.528	23.6752
23.546	23.5562
23.564	23.4374
23.582	23.3213
23.6	23.2086
23.618	23.0984
23.636	22.9934
23.654	22.8948
23.672	22.8014
23.69	22.7152
23.708	22.6377
23.726	22.5678
23.744	22.5065
23.762	22.4549
23.78	22.4124
23.798	22.379
23.816	22.355
23.834	22.3405
23.852	22.3347
23.87	22.3366
23.888	22.347
23.906	22.3647
23.924	22.3876
23.942	22.4162
23.96	22.4501
23.978	22.4862
23.996	22.5239
24.014	22.5642
24.032	22.6035
24.05	22.6398
24.068	22.6751
24.086	22.7064
24.104	22.7308
24.122	22.7502
24.14	22.7629
24.158	22.7663
24.176	22.7609
24.194	22.7468
24.212	22.7226
24.23	22.6878
24.248	22.6431
24.266	22.5886
24.284	22.5241
24.302	22.4492
24.32	22.3658
24.338	22.2755
24.356	22.1766
24.374	22.0713
24.392	21.9626
24.41	21.8493
24.428	21.732
24.446	21.6148
24.464	21.4984
24.482	21.3812
24.5	21.2675
24.518	21.1613
24.536	21.0596
24.554	20.9648
24.572	20.8805
24.59	20.8064
24.608	20.7419
24.626	20.6884
24.644	20.6469
24.662	20.6169
24.68	20.5973
24.698	20.5874
24.716	20.5886
24.734	20.5989
24.752	20.6153
24.77	20.6384
24.788	20.6685
24.806	20.7016
24.824	20.7349
24.842	20.7713
24.86	20.8077
24.878	20.8402
24.896	20.8698
24.914	20.8966
24.932	20.9178
24.95	20.9318
24.968	20.9403
24.986	20.942
25.004	20.9354
25.022	20.9199
25.04	20.8969
25.058	20.8674
25.076	20.8313
25.094	20.7877
25.112	20.7398
25.13	20.6908
25.148	20.6379
25.166	20.5832
25.184	20.5314
25.202	20.4843
25.22	20.4389
25.238	20.3994
25.256	20.3703
25.274	20.3497
25.292	20.3379
25.31	20.338
25.328	20.3521
25.346	20.3784
25.364	20.4174
25.382	20.4699
25.4	20.5373
25.418	20.6182
25.436	20.7098
25.454	20.8102
25.472	20.9232
25.49	21.044
25.508	21.1667
25.526	21.2912
25.544	21.4202
25.562	21.5469
25.58	21.6649
25.598	21.7785
25.616	21.8859
25.634	21.9812
25.652	22.0607
25.67	22.1289
25.688	22.1824
25.706	22.217
25.724	22.2317
25.742	22.2287
25.76	22.2069
25.778	22.1655
25.796	22.1039
25.814	22.0234
25.832	21.9253
25.85	21.8099
25.868	21.6744
25.886	21.5237
25.904	21.3629
25.922	21.1923
25.94	21.009
25.958	20.819
25.976	20.6286
25.994	20.4331
26.012	20.2337
26.03	20.0396
26.048	19.8581
26.066	19.6799
26.084	19.5116
26.102	19.3656
26.12	19.249
26.138	19.1509
26.156	19.0806
26.174	19.0502
26.192	19.0622
26.21	19.1078
26.228	19.1985
26.246	19.3461
26.264	19.5518
26.282	19.8098
26.3	20.1243
26.318	20.4995
26.336	20.9383
26.354	21.4365
26.372	21.9878
26.39	22.5869
26.408	23.2447
26.426	23.9526
26.444	24.6935
26.462	25.4543
26.48	26.2553
26.498	27.0812
26.516	27.9056
26.534	28.711
26.552	29.5233
26.57	30.3236
26.588	31.084
26.606	31.7878
26.624	32.4598
26.642	33.083
26.66	33.6342
26.678	34.1004
26.696	34.4996
26.714	34.8225
26.732	35.057
26.75	35.1942
26.768	35.2402
26.786	35.2002
26.804	35.0789
26.822	34.8757
26.84	34.5838
26.858	34.2165
26.876	33.7884
26.894	33.3035
26.912	32.7473
26.93	32.1374
26.948	31.4936
26.966	30.79
26.984	29.958
27.002	29.1418
27.02	28.4995
27.028	28.3298