File: Bakgrunnsmateriale/MATLAB/FTIR/ftir_data/LPE453/Mapping_121/LPE453_t86.asc
PE IR       SPECTRUM    SPECTRUM    ASCII       PEDS        1.60
  -1
LPD3B1~1.ASC
17/05/16
21:23:18.00
17/05/16
21:23:44.00
tln
$LPE453_t0086$<tbV0>[-7.8,5.2,8.0,0.0,27,1,0]
27.028
64

2002,4.07
MIRTGS : RIGHTBACK : INTERNAL 2
MIR : ON : INTERNAL 2
OPTKBR

0.200000
8
8.000000
FILLER
RATIO
SPECTRUM
UNLOCKED 256

DOUBLE
64
COMBINED
1
0
0

0.002000
RATIO

1
0
TRUE
51149
0
LEFT NOT FITTED RIGHT NOT FITTED 0
NONE
NONE
15600
12
4.427000
51148
TRUE
1 0 8 72 0 0 0 0

15798

#HDR
-1
-1
#GR
µM
%T
2.38419e-05
0.0
2.000000
0.002000
12515
8
37.0353
-1.753078
#DATA
2.000000	 0.585174
2.018000	 0.098687
2.036000	 0.142927
2.054000	 0.338103
2.072000	 0.173576
2.090000	 0.112705
2.108000	 -0.056620
2.126000	 -0.215597
2.144000	 -0.890393
2.162000	 1.199260
2.180000	 0.742639
2.198000	 0.093410
2.216000	 -1.753078
2.234000	 -1.039322
2.252000	 0.093432
2.270000	 -0.662922
2.288000	 -0.110070
2.306000	 0.485754
2.324000	 0.137420
2.342000	 0.290621
2.360000	 0.123613
2.378000	 -0.010313
2.396000	 0.560321
2.414000	 0.103361
2.432000	 0.189821
2.450000	 -0.041524
2.468000	 0.132170
2.486000	 0.029316
2.504000	 -0.146477
2.522000	 0.159612
2.540000	 0.265407
2.558000	 -0.120353
2.576000	 0.111392
2.594000	 0.024935
2.612000	 0.117096
2.630000	 0.117240
2.648000	 0.283219
2.666000	 -0.057692
2.684000	 0.071259
2.702000	 0.096527
2.720000	 0.120308
2.738000	 -0.118095
2.756000	 0.035026
2.774000	 0.073038
2.792000	 0.156987
2.810000	 -0.074430
2.828000	 -0.034323
2.846000	 -0.024359
2.864000	 0.136698
2.882000	 0.069696
2.900000	 0.059789
2.918000	 0.175008
2.936000	 -0.074216
2.954000	 -0.055365
2.972000	 0.058017
2.990000	 0.229421
3.008000	 0.045799
3.026000	 0.041318
3.044000	 -0.060113
3.062000	 0.114581
3.080000	 0.016261
3.098000	 -0.059071
3.116000	 0.017252
3.134000	 0.259777
3.152000	 0.110084
3.170000	 0.039705
3.188000	 -0.029450
3.206000	 0.184709
3.224000	 -0.083646
3.242000	 0.022096
3.260000	 -0.028095
3.278000	 -0.077964
3.296000	 -0.081553
3.314000	 0.090821
3.332000	 -0.009701
3.350000	 -0.009992
3.368000	 0.103247
3.386000	 0.101748
3.404000	 0.027663
3.422000	 0.005319
3.440000	 0.070819
3.458000	 0.144528
3.476000	 0.066151
3.494000	 0.021819
3.512000	 0.033180
3.530000	 0.087320
3.548000	 0.141834
3.566000	 0.056322
3.584000	 0.040852
3.602000	 -0.040850
3.620000	 0.031637
3.638000	 0.051882
3.656000	 -0.050712
3.674000	 -0.062793
3.692000	 0.002694
3.710000	 0.078145
3.728000	 0.027123
3.746000	 0.107499
3.764000	 0.025611
3.782000	 0.000232
3.800000	 0.028874
3.818000	 0.209319
3.836000	 0.140405
3.854000	 0.017332
3.872000	 0.124603
3.890000	 -0.006858
3.908000	 0.003582
3.926000	 0.055512
3.944000	 0.012965
3.962000	 0.082357
3.980000	 -0.001085
3.998000	 0.090502
4.016000	 0.124582
4.034000	 0.009174
4.052000	 -0.101033
4.070000	 0.010778
4.088000	 0.077374
4.106000	 0.028481
4.124000	 0.009009
4.141999	 0.077858
4.160000	 -0.108057
4.178000	 0.105552
4.196000	 0.126084
4.214000	 0.106533
4.232000	 0.277079
4.250000	 0.269650
4.268000	 0.208510
4.286000	 0.339253
4.304000	 0.460599
4.322000	 0.615410
4.340000	 0.695800
4.358000	 0.860579
4.375999	 0.999811
4.394000	 1.219731
4.412000	 1.487169
4.430000	 1.868179
4.448000	 2.237589
4.466000	 2.581307
4.484000	 3.099307
4.502000	 3.642323
4.520000	 4.142383
4.538000	 4.952895
4.556000	 5.666787
4.574000	 6.314275
4.592000	 7.339257
4.609999	 8.302872
4.628000	 9.333895
4.646000	 10.3029
4.664000	 11.3463
4.682000	 12.4205
4.700000	 13.3455
4.718000	 14.3983
4.736000	 15.5887
4.754000	 16.7401
4.772000	 17.6865
4.790000	 18.8705
4.808000	 19.9498
4.826000	 20.9789
4.843999	 21.7884
4.862000	 22.6263
4.880000	 23.5451
4.898000	 24.4337
4.916000	 25.1923
4.934000	 25.8787
4.952000	 26.6409
4.970000	 27.2958
4.988000	 27.9365
5.006000	 28.5786
5.024000	 29.1694
5.042000	 29.7012
5.060000	 30.1266
5.077999	 30.7043
5.096000	 30.9948
5.114000	 31.3528
5.132000	 31.7622
5.150000	 32.1668
5.168000	 32.5753
5.186000	 32.8535
5.204000	 33.1756
5.222000	 33.5185
5.240000	 33.6713
5.258000	 33.9244
5.276000	 34.0535
5.294000	 34.2957
5.312000	 34.4736
5.330000	 34.7404
5.348000	 34.9186
5.366000	 35.0388
5.384000	 35.1408
5.402000	 35.2481
5.420000	 35.2738
5.438000	 35.3921
5.456000	 35.5646
5.474000	 35.722
5.492000	 35.8854
5.510000	 35.8874
5.528000	 35.9229
5.546000	 36.054
5.564000	 36.1281
5.582000	 36.1068
5.600000	 36.1885
5.618000	 36.2262
5.636000	 36.2077
5.654000	 36.3371
5.672000	 36.5087
5.690000	 36.5806
5.708000	 36.6024
5.726000	 36.5667
5.744000	 36.501
5.762000	 36.5278
5.780000	 36.4793
5.798000	 36.3913
5.816000	 36.5318
5.834000	 36.7409
5.852000	 36.7644
5.870000	 36.7853
5.888000	 36.7786
5.906000	 36.7634
5.923999	 36.7779
5.942000	 36.7566
5.960000	 36.6622
5.978000	 36.5497
5.996000	 36.5447
6.014000	 36.6584
6.032000	 36.7697
6.050000	 36.822
6.068000	 36.868
6.086000	 36.9232
6.104000	 36.9617
6.122000	 36.9271
6.140000	 36.8545
6.158000	 36.8183
6.176000	 36.7482
6.194000	 36.6519
6.212000	 36.6802
6.230000	 36.732
6.248000	 36.7419
6.266000	 36.7443
6.284000	 36.8652
6.302000	 37.0199
6.320000	 36.9997
6.338000	 36.8709
6.356000	 36.7826
6.374000	 36.7247
6.392000	 36.7256
6.410000	 36.7118
6.428000	 36.581
6.446000	 36.5262
6.464000	 36.536
6.482000	 36.5609
6.500000	 36.6655
6.518000	 36.7237
6.536000	 36.7462
6.554000	 36.8177
6.572000	 36.8892
6.590000	 36.9132
6.608000	 36.8941
6.626000	 36.822
6.644000	 36.6813
6.662000	 36.5346
6.680000	 36.4594
6.698000	 36.4811
6.716000	 36.5286
6.734000	 36.5195
6.752000	 36.5202
6.770000	 36.5834
6.788000	 36.6614
6.806000	 36.7143
6.824000	 36.7261
6.842000	 36.7156
6.860000	 36.7041
6.878000	 36.6658
6.896000	 36.6046
6.914000	 36.5326
6.932000	 36.4875
6.950000	 36.4702
6.968000	 36.3812
6.986000	 36.2429
7.004000	 36.1699
7.022000	 36.218
7.040000	 36.3661
7.058000	 36.5104
7.076000	 36.579
7.094000	 36.597
7.112000	 36.6223
7.130000	 36.681
7.148000	 36.695
7.166000	 36.6038
7.184000	 36.4864
7.202000	 36.4043
7.220000	 36.3324
7.238000	 36.2437
7.256000	 36.1308
7.274000	 36.0298
7.292000	 36.0227
7.310000	 36.1173
7.328000	 36.2198
7.346000	 36.2732
7.364000	 36.301
7.382000	 36.3417
7.400000	 36.4096
7.418000	 36.454
7.436000	 36.4123
7.454000	 36.3253
7.472000	 36.2736
7.490000	 36.2569
7.508000	 36.2334
7.526000	 36.182
7.544000	 36.1169
7.562000	 36.0726
7.580000	 36.0558
7.598000	 36.0477
7.616000	 36.0515
7.634000	 36.0742
7.652000	 36.1038
7.670000	 36.1398
7.688000	 36.194
7.706000	 36.2604
7.724000	 36.3231
7.742000	 36.369
7.760000	 36.3788
7.778000	 36.3535
7.796000	 36.3348
7.814000	 36.3441
7.832000	 36.3376
7.850000	 36.2697
7.868000	 36.1544
7.886000	 36.0289
7.904000	 35.9161
7.922000	 35.8311
7.940000	 35.7808
7.958000	 35.7605
7.976000	 35.7599
7.994000	 35.7708
8.012000	 35.794
8.030000	 35.8427
8.048000	 35.9131
8.065999	 35.9737
8.084000	 36.0076
8.102000	 36.0337
8.120000	 36.0717
8.138000	 36.1156
8.155999	 36.1483
8.173999	 36.1617
8.192000	 36.1602
8.210000	 36.1553
8.228000	 36.1483
8.246000	 36.1121
8.263999	 36.0191
8.282000	 35.8887
8.300000	 35.7701
8.318000	 35.6843
8.336000	 35.6216
8.353999	 35.5741
8.372000	 35.5356
8.390000	 35.4903
8.408000	 35.4426
8.426000	 35.4339
8.443999	 35.4949
8.462000	 35.6112
8.480000	 35.7472
8.498000	 35.8744
8.516000	 35.9744
8.533999	 36.035
8.552000	 36.0528
8.570000	 36.0393
8.588000	 36.0147
8.606000	 35.9865
8.624000	 35.9406
8.641999	 35.8621
8.660000	 35.7599
8.678000	 35.6625
8.696000	 35.586
8.714000	 35.5175
8.731999	 35.4347
8.750000	 35.3356
8.768000	 35.2427
8.786000	 35.1809
8.804000	 35.1601
8.821999	 35.1768
8.840000	 35.2214
8.858000	 35.2846
8.876000	 35.3596
8.894000	 35.4415
8.911999	 35.5235
8.930000	 35.5949
8.948000	 35.6434
8.966000	 35.6626
8.984000	 35.6602
9.001999	 35.6545
9.020000	 35.66
9.038000	 35.6741
9.056000	 35.6792
9.074000	 35.6603
9.092000	 35.6196
9.109999	 35.5708
9.128000	 35.5223
9.146000	 35.4695
9.164000	 35.4063
9.182000	 35.3383
9.199999	 35.2785
9.218000	 35.2315
9.236000	 35.1909
9.254000	 35.1509
9.272000	 35.1134
9.289999	 35.0815
9.308000	 35.0498
9.326000	 35.0105
9.344000	 34.967
9.362000	 34.937
9.379999	 34.9407
9.398000	 34.9854
9.416000	 35.0637
9.434000	 35.1606
9.452000	 35.2605
9.469999	 35.3509
9.488000	 35.4265
9.506000	 35.4901
9.524000	 35.5488
9.542000	 35.6027
9.560000	 35.6384
9.577999	 35.6367
9.596000	 35.5878
9.614000	 35.5003
9.632000	 35.3941
9.650000	 35.2855
9.667999	 35.1795
9.686000	 35.0742
9.704000	 34.9713
9.722000	 34.8804
9.740000	 34.8138
9.757999	 34.7778
9.776000	 34.7688
9.794000	 34.7745
9.812000	 34.7806
9.830000	 34.7758
9.847999	 34.7546
9.866000	 34.7163
9.884000	 34.6647
9.902000	 34.6086
9.920000	 34.5595
9.937999	 34.5304
9.956000	 34.5296
9.974000	 34.5569
9.992000	 34.6033
10.01	34.6567
10.028	34.7111
10.046	34.7688
10.064	34.8351
10.082	34.9109
10.1	34.9919
10.118	35.0726
10.136	35.1503
10.154	35.222
10.172	35.2787
10.19	35.302
10.208	35.2735
10.226	35.1883
10.244	35.0623
10.262	34.9257
10.28	34.8054
10.298	34.7131
10.316	34.6438
10.334	34.5839
10.352	34.523
10.37	34.4579
10.388	34.3907
10.406	34.3237
10.424	34.2574
10.442	34.1925
10.46	34.1331
10.478	34.0882
10.496	34.0665
10.514	34.0716
10.532	34.0994
10.55	34.1391
10.568	34.1793
10.586	34.2126
10.604	34.2381
10.622	34.2606
10.64	34.2864
10.658	34.3196
10.676	34.3605
10.694	34.4049
10.712	34.4461
10.73	34.4776
10.748	34.495
10.766	34.4989
10.784	34.4936
10.802	34.4865
10.82	34.4842
10.838	34.491
10.856	34.5077
10.874	34.5317
10.892	34.5564
10.91	34.571
10.928	34.5634
10.946	34.5229
10.964	34.4465
10.982	34.3404
11	34.2183
11.018	34.0967
11.036	33.9874
11.054	33.895
11.072	33.8167
11.09	33.7472
11.108	33.6837
11.126	33.6263
11.144	33.5763
11.162	33.5335
11.18	33.4953
11.198	33.4588
11.216	33.4239
11.234	33.395
11.252	33.3795
11.27	33.3838
11.288	33.4104
11.306	33.4549
11.324	33.5075
11.342	33.5573
11.36	33.5962
11.378	33.6227
11.396	33.6417
11.414	33.6627
11.432	33.6956
11.45	33.7476
11.468	33.8213
11.486	33.9136
11.504	34.017
11.522	34.1203
11.54	34.2116
11.558	34.2792
11.576	34.3147
11.594	34.3147
11.612	34.281
11.63	34.2206
11.648	34.1423
11.666	34.0555
11.684	33.9659
11.702	33.875
11.72	33.7815
11.738	33.6829
11.756	33.5791
11.774	33.4735
11.792	33.373
11.81	33.2855
11.828	33.2168
11.846	33.169
11.864	33.1389
11.882	33.1197
11.9	33.1031
11.918	33.0814
11.936	33.05
11.954	33.0078
11.972	32.9572
11.99	32.9027
12.008	32.8501
12.026	32.8062
12.044	32.7774
12.062	32.7688
12.08	32.7843
12.098	32.8247
12.116	32.8879
12.134	32.968
12.152	33.057
12.17	33.1458
12.188	33.2256
12.206	33.2898
12.224	33.3341
12.242	33.3572
12.26	33.3605
12.278	33.3477
12.296	33.3247
12.314	33.2987
12.332	33.2763
12.35	33.262
12.368	33.257
12.386	33.2591
12.404	33.2635
12.422	33.2645
12.44	33.2575
12.458	33.2398
12.476	33.2112
12.494	33.1729
12.512	33.1274
12.53	33.0771
12.548	33.0237
12.566	32.9683
12.584	32.9112
12.602	32.8523
12.62	32.791
12.638	32.7269
12.656	32.6596
12.674	32.5886
12.692	32.5142
12.71	32.4377
12.728	32.362
12.746	32.2909
12.764	32.2288
12.782	32.1791
12.8	32.1434
12.818	32.1211
12.836	32.109
12.854	32.1027
12.872	32.0973
12.89	32.0892
12.908	32.0762
12.926	32.0583
12.944	32.0376
12.962	32.0173
12.98	32.001
12.998	31.9917
13.016	31.9912
13.034	31.9991
13.052	32.0141
13.07	32.0341
13.088	32.0566
13.106	32.0798
13.124	32.1026
13.142	32.1254
13.16	32.1489
13.178	32.1743
13.196	32.2023
13.214	32.2327
13.232	32.2644
13.25	32.2954
13.268	32.3232
13.286	32.3457
13.304	32.3617
13.322	32.371
13.34	32.3746
13.358	32.3738
13.376	32.3697
13.394	32.3627
13.412	32.352
13.43	32.3364
13.448	32.3146
13.466	32.2856
13.484	32.2491
13.502	32.2065
13.52	32.1598
13.538	32.1122
13.556	32.0667
13.574	32.026
13.592	31.9914
13.61	31.963
13.628	31.9394
13.646	31.9179
13.664	31.8948
13.682	31.8665
13.7	31.8302
13.718	31.7838
13.736	31.7271
13.754	31.6617
13.772	31.5903
13.79	31.5166
13.808	31.4444
13.826	31.3771
13.844	31.3171
13.862	31.2653
13.88	31.2213
13.898	31.1836
13.916	31.1498
13.934	31.1177
13.952	31.0853
13.97	31.0516
13.988	31.0168
14.006	30.9822
14.024	30.9503
14.042	30.9239
14.06	30.9057
14.078	30.8978
14.096	30.9016
14.114	30.917
14.132	30.9428
14.15	30.9773
14.168	31.0177
14.186	31.0616
14.204	31.1063
14.222	31.1501
14.24	31.1924
14.258	31.2332
14.276	31.2733
14.294	31.3134
14.312	31.3543
14.33	31.3958
14.348	31.4376
14.366	31.4782
14.384	31.5157
14.402	31.5479
14.42	31.5731
14.438	31.5898
14.456	31.5974
14.474	31.596
14.492	31.5864
14.51	31.5696
14.528	31.5472
14.546	31.5207
14.564	31.4915
14.582	31.4611
14.6	31.4305
14.618	31.4009
14.636	31.3733
14.654	31.3483
14.672	31.3262
14.69	31.3071
14.708	31.29
14.726	31.2738
14.744	31.256
14.762	31.2339
14.78	31.2049
14.798	31.1666
14.816	31.1178
14.834	31.058
14.852	30.9886
14.87	30.9122
14.888	30.8321
14.906	30.7524
14.924	30.6769
14.942	30.6093
14.96	30.5514
14.978	30.5036
14.996	30.4648
15.014	30.4328
15.032	30.4039
15.05	30.3744
15.068	30.3408
15.086	30.3009
15.104	30.2528
15.122	30.1965
15.14	30.1337
15.158	30.0668
15.176	29.9987
15.194	29.9329
15.212	29.8733
15.23	29.822
15.248	29.7809
15.266	29.7506
15.284	29.731
15.302	29.7209
15.32	29.7182
15.338	29.721
15.356	29.727
15.374	29.7336
15.392	29.7396
15.41	29.744
15.428	29.7463
15.446	29.7474
15.464	29.7485
15.482	29.751
15.5	29.7565
15.518	29.7672
15.536	29.7844
15.554	29.8088
15.572	29.841
15.59	29.8802
15.608	29.9249
15.626	29.9736
15.644	30.0238
15.662	30.0725
15.68	30.1176
15.698	30.1569
15.716	30.1885
15.734	30.2115
15.752	30.2257
15.77	30.2314
15.788	30.2299
15.806	30.2225
15.824	30.2105
15.842	30.1955
15.86	30.1792
15.878	30.1624
15.896	30.1462
15.914	30.1311
15.932	30.1173
15.95	30.1049
15.968	30.0934
15.986	30.0822
16.004	30.0705
16.022	30.0574
16.04	30.0419
16.058	30.0229
16.076	29.9998
16.094	29.9719
16.112	29.9388
16.13	29.9004
16.148	29.857
16.166	29.8091
16.184	29.7572
16.202	29.7021
16.22	29.6449
16.238	29.5861
16.256	29.5268
16.274	29.4677
16.292	29.4094
16.31	29.352
16.328	29.2962
16.346	29.2422
16.364	29.1906
16.382	29.1422
16.4	29.0983
16.418	29.0597
16.436	29.028
16.454	29.0041
16.472	28.9885
16.49	28.9815
16.508	28.982
16.526	28.9892
16.544	29.0001
16.562	29.0117
16.58	29.0215
16.598	29.0251
16.616	29.0202
16.634	29.0046
16.652	28.9764
16.67	28.9359
16.688	28.8832
16.706	28.8205
16.724	28.7499
16.742	28.674
16.76	28.5967
16.778	28.5198
16.796	28.4469
16.814	28.3801
16.832	28.3205
16.85	28.2702
16.868	28.2296
16.886	28.1989
16.904	28.1787
16.922	28.1689
16.94	28.1696
16.958	28.1811
16.976	28.2034
16.994	28.2366
17.012	28.2805
17.03	28.3348
17.048	28.3981
17.066	28.4689
17.084	28.5455
17.102	28.6242
17.12	28.7033
17.138	28.7784
17.156	28.8469
17.174	28.9061
17.192	28.953
17.21	28.9868
17.228	29.0061
17.246	29.0115
17.264	29.0032
17.282	28.9833
17.3	28.9532
17.318	28.9155
17.336	28.8723
17.354	28.8253
17.372	28.7774
17.39	28.7291
17.408	28.6822
17.426	28.6369
17.444	28.5939
17.462	28.5525
17.48	28.5126
17.498	28.4738
17.516	28.4356
17.534	28.3977
17.552	28.3599
17.57	28.3221
17.588	28.2846
17.606	28.2478
17.624	28.212
17.642	28.1782
17.66	28.1468
17.678	28.1184
17.696	28.0934
17.714	28.0724
17.732	28.0553
17.75	28.0423
17.768	28.0329
17.786	28.0272
17.804	28.0243
17.822	28.0241
17.84	28.0258
17.858	28.0288
17.876	28.0325
17.894	28.0363
17.912	28.04
17.93	28.0426
17.948	28.0443
17.966	28.0445
17.984	28.0432
18.002	28.0403
18.02	28.0358
18.038	28.0296
18.056	28.0216
18.074	28.0116
18.092	27.9992
18.11	27.9843
18.128	27.966
18.146	27.9439
18.164	27.917
18.182	27.8848
18.2	27.8462
18.218	27.8006
18.236	27.7476
18.254	27.6869
18.272	27.6184
18.29	27.5428
18.308	27.4605
18.326	27.3736
18.344	27.2825
18.362	27.1901
18.38	27.0974
18.398	27.0071
18.416	26.9208
18.434	26.8407
18.452	26.7682
18.47	26.705
18.488	26.6516
18.506	26.6087
18.524	26.576
18.542	26.5537
18.56	26.54
18.578	26.5349
18.596	26.536
18.614	26.5429
18.632	26.5529
18.65	26.5656
18.668	26.5788
18.686	26.5925
18.704	26.6052
18.722	26.6169
18.74	26.6274
18.758	26.6369
18.776	26.6457
18.794	26.6541
18.812	26.6629
18.83	26.6723
18.848	26.6829
18.866	26.6946
18.884	26.7078
18.902	26.7218
18.92	26.7366
18.938	26.7512
18.956	26.7648
18.974	26.7767
18.992	26.7855
19.01	26.7909
19.028	26.7918
19.046	26.7882
19.064	26.7798
19.082	26.767
19.1	26.7502
19.118	26.7303
19.136	26.7086
19.154	26.686
19.172	26.6646
19.19	26.645
19.208	26.6298
19.226	26.619
19.244	26.6147
19.262	26.6168
19.28	26.6261
19.298	26.6423
19.316	26.6649
19.334	26.6935
19.352	26.7262
19.37	26.7629
19.388	26.8006
19.406	26.8395
19.424	26.8764
19.442	26.9116
19.46	26.9426
19.478	26.9692
19.496	26.9906
19.514	27.0064
19.532	27.0172
19.55	27.0227
19.568	27.0244
19.586	27.0231
19.604	27.0197
19.622	27.0162
19.64	27.0129
19.658	27.0125
19.676	27.0148
19.694	27.0218
19.712	27.0334
19.73	27.0506
19.748	27.0734
19.766	27.1015
19.784	27.1353
19.802	27.1731
19.82	27.2145
19.838	27.2584
19.856	27.3029
19.874	27.3477
19.892	27.3896
19.91	27.429
19.928	27.4625
19.946	27.4906
19.964	27.5107
19.982	27.5225
20	27.525
20.018	27.5176
20.036	27.5002
20.054	27.4726
20.072	27.4349
20.09	27.388
20.108	27.3318
20.126	27.2683
20.144	27.1971
20.162	27.1206
20.18	27.0393
20.198	26.9544
20.216	26.868
20.234	26.7799
20.252	26.6928
20.27	26.6063
20.288	26.5226
20.306	26.4417
20.324	26.3647
20.342	26.2924
20.36	26.2248
20.378	26.163
20.396	26.1069
20.414	26.057
20.432	26.0133
20.45	25.976
20.468	25.9452
20.486	25.9209
20.504	25.9028
20.522	25.891
20.54	25.8853
20.558	25.8857
20.576	25.8913
20.594	25.9022
20.612	25.9176
20.63	25.9364
20.648	25.9588
20.666	25.9821
20.684	26.0069
20.702	26.0308
20.72	26.0523
20.738	26.0712
20.756	26.0842
20.774	26.0921
20.792	26.0917
20.81	26.0825
20.828	26.064
20.846	26.0346
20.864	25.9947
20.882	25.9444
20.9	25.8832
20.918	25.813
20.936	25.7346
20.954	25.6483
20.972	25.5583
20.99	25.4633
21.008	25.3679
21.026	25.2735
21.044	25.181
21.062	25.0955
21.08	25.0156
21.098	24.9452
21.116	24.8853
21.134	24.836
21.152	24.7994
21.17	24.7749
21.188	24.7623
21.206	24.7622
21.224	24.7732
21.242	24.7937
21.26	24.8242
21.278	24.8614
21.296	24.905
21.314	24.9537
21.332	25.0041
21.35	25.0573
21.368	25.1101
21.386	25.1617
21.404	25.2118
21.422	25.2581
21.44	25.3011
21.458	25.34
21.476	25.3741
21.494	25.4037
21.512	25.4287
21.53	25.4491
21.548	25.4649
21.566	25.476
21.584	25.4826
21.602	25.4847
21.62	25.4824
21.638	25.4755
21.656	25.4638
21.674	25.4474
21.692	25.4261
21.71	25.3997
21.728	25.3685
21.746	25.3326
21.764	25.2917
21.782	25.2467
21.8	25.1978
21.818	25.1449
21.836	25.0901
21.854	25.0332
21.872	24.9751
21.89	24.918
21.908	24.8608
21.926	24.8059
21.944	24.7548
21.962	24.7068
21.98	24.6638
21.998	24.626
22.016	24.5934
22.034	24.5665
22.052	24.5456
22.07	24.5295
22.088	24.5178
22.106	24.5107
22.124	24.5055
22.142	24.5022
22.16	24.5003
22.178	24.496
22.196	24.4905
22.214	24.4817
22.232	24.4666
22.25	24.4466
22.268	24.4197
22.286	24.3843
22.304	24.3414
22.322	24.2906
22.34	24.2314
22.358	24.1646
22.376	24.092
22.394	24.0125
22.412	23.9284
22.43	23.8426
22.448	23.7534
22.466	23.6644
22.484	23.5787
22.502	23.4944
22.52	23.416
22.538	23.3454
22.556	23.2813
22.574	23.2275
22.592	23.1845
22.61	23.1518
22.628	23.1311
22.646	23.1226
22.664	23.1256
22.682	23.1403
22.7	23.1671
22.718	23.2044
22.736	23.2509
22.754	23.3075
22.772	23.3715
22.79	23.4408
22.808	23.5169
22.826	23.5959
22.844	23.6755
22.862	23.7573
22.88	23.8371
22.898	23.9134
22.916	23.9874
22.934	24.055
22.952	24.1155
22.97	24.1694
22.988	24.2137
23.006	24.2478
23.024	24.2722
23.042	24.2852
23.06	24.2864
23.078	24.2762
23.096	24.254
23.114	24.2194
23.132	24.1729
23.15	24.1157
23.168	24.0469
23.186	23.9677
23.204	23.8807
23.222	23.7853
23.24	23.6824
23.258	23.5757
23.276	23.4645
23.294	23.3496
23.312	23.235
23.33	23.1199
23.348	23.0051
23.366	22.8937
23.384	22.7855
23.402	22.6806
23.42	22.5823
23.438	22.4908
23.456	22.4057
23.474	22.3278
23.492	22.2579
23.51	22.1953
23.528	22.1391
23.546	22.0896
23.564	22.0467
23.582	22.0076
23.6	21.9719
23.618	21.9403
23.636	21.9094
23.654	21.8774
23.672	21.8459
23.69	21.8118
23.708	21.7731
23.726	21.7311
23.744	21.6844
23.762	21.6314
23.78	21.5728
23.798	21.5083
23.816	21.437
23.834	21.3591
23.852	21.2749
23.87	21.1847
23.888	21.0879
23.906	20.9855
23.924	20.8791
23.942	20.7683
23.96	20.6534
23.978	20.5369
23.996	20.4197
24.014	20.3007
24.032	20.1815
24.05	20.063
24.068	19.9447
24.086	19.8265
24.104	19.7087
24.122	19.5914
24.14	19.4741
24.158	19.3563
24.176	19.2384
24.194	19.1199
24.212	19.0003
24.23	18.8797
24.248	18.7581
24.266	18.634
24.284	18.5064
24.302	18.3761
24.32	18.2428
24.338	18.1064
24.356	17.9662
24.374	17.8234
24.392	17.6793
24.41	17.5325
24.428	17.3842
24.446	17.2383
24.464	17.0956
24.482	16.954
24.5	16.8191
24.518	16.6953
24.536	16.578
24.554	16.4723
24.572	16.3847
24.59	16.3142
24.608	16.2602
24.626	16.2271
24.644	16.2165
24.662	16.2262
24.68	16.2589
24.698	16.3175
24.716	16.4009
24.734	16.5086
24.752	16.641
24.77	16.7986
24.788	16.9807
24.806	17.186
24.824	17.4136
24.842	17.6648
24.86	17.9373
24.878	18.2284
24.896	18.5401
24.914	18.8709
24.932	19.2166
24.95	19.5753
24.968	19.9497
24.986	20.3355
25.004	20.728
25.022	21.131
25.04	21.5418
25.058	21.9529
25.076	22.3622
25.094	22.7741
25.112	23.181
25.13	23.5757
25.148	23.9642
25.166	24.3423
25.184	24.6996
25.202	25.0327
25.22	25.3485
25.238	25.6361
25.256	25.8841
25.274	26.0979
25.292	26.2762
25.31	26.4097
25.328	26.4925
25.346	26.5305
25.364	26.5206
25.382	26.459
25.4	26.3456
25.418	26.182
25.436	25.968
25.454	25.703
25.472	25.3858
25.49	25.0198
25.508	24.6088
25.526	24.1516
25.544	23.6471
25.562	23.1029
25.58	22.5262
25.598	21.9109
25.616	21.261
25.634	20.5864
25.652	19.8926
25.67	19.1715
25.688	18.4319
25.706	17.6848
25.724	16.9293
25.742	16.1618
25.76	15.3919
25.778	14.6289
25.796	13.8688
25.814	13.1115
25.832	12.3608
25.85	11.6196
25.868	10.8851
25.886	10.1586
25.904	9.442115
25.922	8.736768
25.94	8.041557
25.958	7.355346
25.976	6.677003
25.994	6.004682
26.012	5.340087
26.03	4.686598
26.048	4.046543
26.066	3.413378
26.084	2.793499
26.102	2.197185
26.12	1.629133
26.138	1.077554
26.156	0.556241
26.174	0.082079
26.192	-0.343952
26.21	-0.735445
26.228	-1.067963
26.246	-1.315909
26.264	-1.482139
26.282	-1.577162
26.3	-1.580238
26.318	-1.470988
26.336	-1.251812
26.354	-0.929905
26.372	-0.502658
26.39	0.032940
26.408	0.683426
26.426	1.439629
26.444	2.287745
26.462	3.218555
26.48	4.255434
26.498	5.375765
26.516	6.544668
26.534	7.739156
26.552	8.995101
26.57	10.2843
26.588	11.566
26.606	12.8153
26.624	14.0677
26.642	15.2993
26.66	16.4777
26.678	17.5859
26.696	18.6512
26.714	19.6546
26.732	20.5728
26.75	21.3907
26.768	22.1232
26.786	22.7705
26.804	23.3315
26.822	23.8054
26.84	24.1938
26.858	24.4967
26.876	24.7141
26.894	24.8467
26.912	24.8957
26.93	24.8596
26.948	24.7368
26.966	24.4942
26.984	24.0858
27.002	23.6326
27.02	23.2663
27.028	23.175