File: Bakgrunnsmateriale/MATLAB/FTIR/ftir_data/LPE453/Mapping_121/LPE453_t79.asc
PE IR       SPECTRUM    SPECTRUM    ASCII       PEDS        1.60
  -1
LPEFAD~1.ASC
17/05/16
20:51:01.00
17/05/16
20:51:27.00
tln
$LPE453_t0079$<tbV0>[10.4,5.2,8.0,0.0,27,1,0]
27.028
64

2002,4.07
MIRTGS : RIGHTBACK : INTERNAL 2
MIR : ON : INTERNAL 2
OPTKBR

0.200000
8
8.000000
FILLER
RATIO
SPECTRUM
UNLOCKED 256

DOUBLE
64
COMBINED
1
0
0

0.002000
RATIO

1
0
TRUE
51149
0
LEFT NOT FITTED RIGHT NOT FITTED 0
NONE
NONE
15600
12
4.427000
51148
TRUE
1 0 8 72 0 0 0 0

15798

#HDR
-1
-1
#GR
µM
%T
2.38419e-05
0.0
2.000000
0.002000
12515
8
28.5321
-4.001184
#DATA
2.000000	 0.505256
2.018000	 -0.064062
2.036000	 0.347828
2.054000	 -0.049309
2.072000	 0.059710
2.090000	 0.317995
2.108000	 0.313551
2.126000	 -0.678599
2.144000	 0.191044
2.162000	 -0.097792
2.180000	 -0.868482
2.198000	 -1.447123
2.216000	 -0.251471
2.234000	 -0.543739
2.252000	 -0.654139
2.270000	 0.324824
2.288000	 0.485438
2.306000	 0.130799
2.324000	 0.198359
2.342000	 -0.099312
2.360000	 0.079993
2.378000	 -0.022984
2.396000	 0.352003
2.414000	 0.172165
2.432000	 0.011540
2.450000	 0.138413
2.468000	 0.062443
2.486000	 -0.029974
2.504000	 -0.173606
2.522000	 0.231569
2.540000	 0.198428
2.558000	 -0.090585
2.576000	 0.046254
2.594000	 0.147949
2.612000	 0.086717
2.630000	 0.087667
2.648000	 -0.020606
2.666000	 0.067642
2.684000	 0.040623
2.702000	 0.100208
2.720000	 0.056467
2.738000	 0.149686
2.756000	 0.183933
2.774000	 -0.016332
2.792000	 0.123993
2.810000	 0.074024
2.828000	 0.001150
2.846000	 0.006277
2.864000	 0.145512
2.882000	 0.065119
2.900000	 0.153580
2.918000	 -0.031028
2.936000	 0.003652
2.954000	 0.166388
2.972000	 0.119678
2.990000	 0.010995
3.008000	 -0.116592
3.026000	 0.207336
3.044000	 -0.057038
3.062000	 0.063441
3.080000	 0.139798
3.098000	 -0.001135
3.116000	 0.020768
3.134000	 0.125397
3.152000	 0.041331
3.170000	 0.045565
3.188000	 -0.007503
3.206000	 0.072031
3.224000	 -0.028949
3.242000	 -0.059458
3.260000	 0.132429
3.278000	 0.036212
3.296000	 0.115867
3.314000	 0.210428
3.332000	 0.061066
3.350000	 0.018310
3.368000	 0.116674
3.386000	 0.105410
3.404000	 0.096473
3.422000	 -0.102642
3.440000	 -0.027185
3.458000	 0.046344
3.476000	 0.078992
3.494000	 0.130147
3.512000	 0.085939
3.530000	 0.016494
3.548000	 0.027742
3.566000	 0.118090
3.584000	 0.068818
3.602000	 0.047381
3.620000	 0.008382
3.638000	 -0.048569
3.656000	 0.046281
3.674000	 0.015174
3.692000	 -0.033898
3.710000	 0.104870
3.728000	 0.072832
3.746000	 -0.035655
3.764000	 0.053149
3.782000	 -0.078709
3.800000	 0.113633
3.818000	 0.034431
3.836000	 0.075492
3.854000	 0.064572
3.872000	 0.139927
3.890000	 0.059239
3.908000	 0.085637
3.926000	 0.031583
3.944000	 -0.023405
3.962000	 0.006739
3.980000	 0.080740
3.998000	 -0.116496
4.016000	 0.053701
4.034000	 -0.030999
4.052000	 0.041038
4.070000	 -0.003009
4.088000	 -0.033104
4.106000	 0.037730
4.124000	 0.036174
4.141999	 -0.007828
4.160000	 -0.015784
4.178000	 -0.054810
4.196000	 0.047311
4.214000	 0.097436
4.232000	 0.000206
4.250000	 0.079618
4.268000	 0.068561
4.286000	 0.064976
4.304000	 0.019554
4.322000	 0.028724
4.340000	 -0.044855
4.358000	 0.016335
4.375999	 0.254212
4.394000	 0.176353
4.412000	 0.198834
4.430000	 0.404620
4.448000	 0.412162
4.466000	 0.572071
4.484000	 0.687607
4.502000	 0.865174
4.520000	 1.170108
4.538000	 1.360897
4.556000	 1.676603
4.574000	 2.159557
4.592000	 2.535611
4.609999	 3.022432
4.628000	 3.590240
4.646000	 4.113891
4.664000	 4.681708
4.682000	 5.398510
4.700000	 6.105137
4.718000	 6.755287
4.736000	 7.549065
4.754000	 8.238161
4.772000	 9.059258
4.790000	 9.809742
4.808000	 10.6052
4.826000	 11.437
4.843999	 12.2592
4.862000	 13.1242
4.880000	 13.8401
4.898000	 14.4991
4.916000	 15.2333
4.934000	 15.872
4.952000	 16.6374
4.970000	 17.3572
4.988000	 17.973
5.006000	 18.4866
5.024000	 18.9903
5.042000	 19.5845
5.060000	 20.2382
5.077999	 20.7715
5.096000	 21.2321
5.114000	 21.5488
5.132000	 22.0083
5.150000	 22.4348
5.168000	 22.9675
5.186000	 23.459
5.204000	 23.7127
5.222000	 23.8599
5.240000	 24.1777
5.258000	 24.4636
5.276000	 24.723
5.294000	 25.0963
5.312000	 25.4074
5.330000	 25.5075
5.348000	 25.668
5.366000	 25.7452
5.384000	 25.9808
5.402000	 26.3392
5.420000	 26.5545
5.438000	 26.5963
5.456000	 26.6585
5.474000	 26.7288
5.492000	 26.8376
5.510000	 26.9118
5.528000	 27.1013
5.546000	 27.3279
5.564000	 27.4574
5.582000	 27.4652
5.600000	 27.4301
5.618000	 27.4795
5.636000	 27.5382
5.654000	 27.6268
5.672000	 27.804
5.690000	 27.9723
5.708000	 28.0665
5.726000	 27.9986
5.744000	 27.8382
5.762000	 27.8081
5.780000	 27.9112
5.798000	 28.0511
5.816000	 28.2372
5.834000	 28.3825
5.852000	 28.3138
5.870000	 28.2114
5.888000	 28.1827
5.906000	 28.1728
5.923999	 28.1789
5.942000	 28.2495
5.960000	 28.2822
5.978000	 28.2989
5.996000	 28.4242
6.014000	 28.4928
6.032000	 28.3813
6.050000	 28.3316
6.068000	 28.3115
6.086000	 28.3118
6.104000	 28.3585
6.122000	 28.3826
6.140000	 28.4293
6.158000	 28.4745
6.176000	 28.4603
6.194000	 28.3891
6.212000	 28.2849
6.230000	 28.2006
6.248000	 28.1723
6.266000	 28.1652
6.284000	 28.2657
6.302000	 28.3818
6.320000	 28.4129
6.338000	 28.4544
6.356000	 28.3922
6.374000	 28.2473
6.392000	 28.1819
6.410000	 28.1341
6.428000	 28.108
6.446000	 28.1595
6.464000	 28.2452
6.482000	 28.3901
6.500000	 28.5257
6.518000	 28.4773
6.536000	 28.3813
6.554000	 28.3887
6.572000	 28.3735
6.590000	 28.2701
6.608000	 28.1634
6.626000	 28.1607
6.644000	 28.2379
6.662000	 28.3169
6.680000	 28.3838
6.698000	 28.4114
6.716000	 28.3998
6.734000	 28.3613
6.752000	 28.2523
6.770000	 28.1086
6.788000	 28.0207
6.806000	 27.9753
6.824000	 27.9658
6.842000	 28.0011
6.860000	 28.0513
6.878000	 28.1195
6.896000	 28.1802
6.914000	 28.1853
6.932000	 28.1836
6.950000	 28.1844
6.968000	 28.1131
6.986000	 27.9915
7.004000	 27.8869
7.022000	 27.8118
7.040000	 27.8156
7.058000	 27.9242
7.076000	 28.0476
7.094000	 28.1233
7.112000	 28.1771
7.130000	 28.2244
7.148000	 28.2442
7.166000	 28.2129
7.184000	 28.1294
7.202000	 28.0135
7.220000	 27.896
7.238000	 27.8097
7.256000	 27.7495
7.274000	 27.7042
7.292000	 27.7258
7.310000	 27.8543
7.328000	 28.0212
7.346000	 28.1294
7.364000	 28.1558
7.382000	 28.1285
7.400000	 28.072
7.418000	 27.9965
7.436000	 27.9027
7.454000	 27.788
7.472000	 27.6691
7.490000	 27.5905
7.508000	 27.568
7.526000	 27.564
7.544000	 27.5699
7.562000	 27.6256
7.580000	 27.7348
7.598000	 27.8516
7.616000	 27.9261
7.634000	 27.9274
7.652000	 27.8766
7.670000	 27.8238
7.688000	 27.7568
7.706000	 27.6288
7.724000	 27.471
7.742000	 27.3621
7.760000	 27.3247
7.778000	 27.3348
7.796000	 27.3697
7.814000	 27.4118
7.832000	 27.4695
7.850000	 27.5721
7.868000	 27.7028
7.886000	 27.7888
7.904000	 27.7846
7.922000	 27.7138
7.940000	 27.6269
7.958000	 27.547
7.976000	 27.4677
7.994000	 27.3928
8.012000	 27.3537
8.030000	 27.3556
8.048000	 27.3442
8.065999	 27.2785
8.084000	 27.2071
8.102000	 27.2142
8.120000	 27.3091
8.138000	 27.4249
8.155999	 27.5049
8.173999	 27.5579
8.192000	 27.6124
8.210000	 27.6476
8.228000	 27.607
8.246000	 27.4788
8.263999	 27.3203
8.282000	 27.1983
8.300000	 27.1249
8.318000	 27.0722
8.336000	 27.0221
8.353999	 26.9775
8.372000	 26.9416
8.390000	 26.9245
8.408000	 26.9531
8.426000	 27.0497
8.443999	 27.2028
8.462000	 27.3669
8.480000	 27.4938
8.498000	 27.5606
8.516000	 27.5663
8.533999	 27.5183
8.552000	 27.4312
8.570000	 27.3305
8.588000	 27.237
8.606000	 27.1508
8.624000	 27.0561
8.641999	 26.9398
8.660000	 26.8071
8.678000	 26.682
8.696000	 26.6017
8.714000	 26.5957
8.731999	 26.6635
8.750000	 26.7709
8.768000	 26.8734
8.786000	 26.9504
8.804000	 27.0172
8.821999	 27.0991
8.840000	 27.1901
8.858000	 27.2505
8.876000	 27.2504
8.894000	 27.2007
8.911999	 27.1334
8.930000	 27.0571
8.948000	 26.9537
8.966000	 26.8144
8.984000	 26.6626
9.001999	 26.5338
9.020000	 26.4468
9.038000	 26.3999
9.056000	 26.3855
9.074000	 26.3977
9.092000	 26.4291
9.109999	 26.4672
9.128000	 26.4998
9.146000	 26.5241
9.164000	 26.5483
9.182000	 26.5855
9.199999	 26.6432
9.218000	 26.7158
9.236000	 26.7883
9.254000	 26.8455
9.272000	 26.8725
9.289999	 26.8538
9.308000	 26.7795
9.326000	 26.6582
9.344000	 26.5187
9.362000	 26.3939
9.379999	 26.2993
9.398000	 26.2284
9.416000	 26.1699
9.434000	 26.1226
9.452000	 26.0956
9.469999	 26.0944
9.488000	 26.1147
9.506000	 26.1455
9.524000	 26.1788
9.542000	 26.2144
9.560000	 26.257
9.577999	 26.3073
9.596000	 26.3594
9.614000	 26.4031
9.632000	 26.428
9.650000	 26.4246
9.667999	 26.3857
9.686000	 26.3082
9.704000	 26.2016
9.722000	 26.0923
9.740000	 26.013
9.757999	 25.9783
9.776000	 25.9706
9.794000	 25.9533
9.812000	 25.903
9.830000	 25.8311
9.847999	 25.7704
9.866000	 25.7441
9.884000	 25.7459
9.902000	 25.7513
9.920000	 25.7457
9.937999	 25.7373
9.956000	 25.7439
9.974000	 25.7708
9.992000	 25.8071
10.01	25.8374
10.028	25.8578
10.046	25.8776
10.064	25.9053
10.082	25.9383
10.1	25.9628
10.118	25.966
10.136	25.9478
10.154	25.9182
10.172	25.8875
10.19	25.8539
10.208	25.804
10.226	25.722
10.244	25.6024
10.262	25.4593
10.28	25.3205
10.298	25.2154
10.316	25.1618
10.334	25.1585
10.352	25.19
10.37	25.2334
10.388	25.2709
10.406	25.2941
10.424	25.3058
10.442	25.3156
10.46	25.3332
10.478	25.3642
10.496	25.4061
10.514	25.4502
10.532	25.4853
10.55	25.5022
10.568	25.4972
10.586	25.4721
10.604	25.4314
10.622	25.3805
10.64	25.3221
10.658	25.2577
10.676	25.1879
10.694	25.1135
10.712	25.0365
10.73	24.9598
10.748	24.8859
10.766	24.8173
10.784	24.7561
10.802	24.7056
10.82	24.6708
10.838	24.6571
10.856	24.6675
10.874	24.6994
10.892	24.7443
10.91	24.7904
10.928	24.8271
10.946	24.8498
10.964	24.8609
10.982	24.8674
11	24.875
11.018	24.8848
11.036	24.8926
11.054	24.8919
11.072	24.8784
11.09	24.8521
11.108	24.8179
11.126	24.7835
11.144	24.7558
11.162	24.7401
11.18	24.737
11.198	24.7428
11.216	24.7507
11.234	24.7524
11.252	24.7406
11.27	24.7115
11.288	24.6651
11.306	24.6053
11.324	24.5372
11.342	24.4645
11.36	24.3882
11.378	24.3062
11.396	24.2161
11.414	24.1177
11.432	24.0158
11.45	23.9192
11.468	23.8395
11.486	23.7869
11.504	23.7664
11.522	23.777
11.54	23.8127
11.558	23.8638
11.576	23.9209
11.594	23.9779
11.612	24.0309
11.63	24.0794
11.648	24.1243
11.666	24.1659
11.684	24.2033
11.702	24.2342
11.72	24.2557
11.738	24.2639
11.756	24.2561
11.774	24.2312
11.792	24.1889
11.81	24.1305
11.828	24.0587
11.846	23.9768
11.864	23.8888
11.882	23.7987
11.9	23.7101
11.918	23.626
11.936	23.5486
11.954	23.4795
11.972	23.4195
11.99	23.3689
12.008	23.3281
12.026	23.2968
12.044	23.2735
12.062	23.257
12.08	23.246
12.098	23.2391
12.116	23.2368
12.134	23.24
12.152	23.2501
12.17	23.268
12.188	23.2939
12.206	23.3259
12.224	23.361
12.242	23.3961
12.26	23.4291
12.278	23.4592
12.296	23.487
12.314	23.5141
12.332	23.5411
12.35	23.5669
12.368	23.5885
12.386	23.6014
12.404	23.601
12.422	23.584
12.44	23.5502
12.458	23.5019
12.476	23.4437
12.494	23.381
12.512	23.3179
12.53	23.2567
12.548	23.197
12.566	23.1372
12.584	23.0752
12.602	23.0105
12.62	22.9446
12.638	22.8813
12.656	22.8251
12.674	22.78
12.692	22.7475
12.71	22.7264
12.728	22.7126
12.746	22.7005
12.764	22.6847
12.782	22.6622
12.8	22.6328
12.818	22.599
12.836	22.5655
12.854	22.537
12.872	22.5159
12.89	22.5024
12.908	22.4939
12.926	22.4863
12.944	22.4754
12.962	22.4596
12.98	22.4409
12.998	22.4244
13.016	22.4171
13.034	22.4257
13.052	22.4543
13.07	22.5024
13.088	22.5655
13.106	22.6355
13.124	22.7032
13.142	22.7601
13.16	22.801
13.178	22.8244
13.196	22.8329
13.214	22.8307
13.232	22.8221
13.25	22.8093
13.268	22.792
13.286	22.766
13.304	22.7259
13.322	22.6657
13.34	22.5818
13.358	22.4742
13.376	22.3474
13.394	22.2095
13.412	22.0718
13.43	21.9457
13.448	21.8409
13.466	21.7637
13.484	21.7155
13.502	21.6926
13.52	21.6876
13.538	21.6905
13.556	21.6915
13.574	21.6833
13.592	21.6622
13.61	21.6285
13.628	21.587
13.646	21.5449
13.664	21.5107
13.682	21.4914
13.7	21.4913
13.718	21.5115
13.736	21.5491
13.754	21.598
13.772	21.6503
13.79	21.6983
13.808	21.7353
13.826	21.7573
13.844	21.7628
13.862	21.7532
13.88	21.7319
13.898	21.7036
13.916	21.6731
13.934	21.6447
13.952	21.6217
13.97	21.6063
13.988	21.5989
14.006	21.5987
14.024	21.603
14.042	21.6086
14.06	21.612
14.078	21.6094
14.096	21.5979
14.114	21.5754
14.132	21.5414
14.15	21.4969
14.168	21.4438
14.186	21.3854
14.204	21.3253
14.222	21.2668
14.24	21.2127
14.258	21.1642
14.276	21.1212
14.294	21.0822
14.312	21.0447
14.33	21.0058
14.348	20.9627
14.366	20.9133
14.384	20.857
14.402	20.7952
14.42	20.7304
14.438	20.6664
14.456	20.6069
14.474	20.5558
14.492	20.5164
14.51	20.4903
14.528	20.4775
14.546	20.4762
14.564	20.484
14.582	20.4978
14.6	20.5147
14.618	20.5324
14.636	20.5499
14.654	20.5678
14.672	20.5873
14.69	20.6102
14.708	20.638
14.726	20.6719
14.744	20.7115
14.762	20.7548
14.78	20.7985
14.798	20.839
14.816	20.8721
14.834	20.8939
14.852	20.9022
14.87	20.8965
14.888	20.8778
14.906	20.8486
14.924	20.8121
14.942	20.7727
14.96	20.734
14.978	20.6984
14.996	20.667
15.014	20.6398
15.032	20.6156
15.05	20.5919
15.068	20.5666
15.086	20.5375
15.104	20.5034
15.122	20.464
15.14	20.4203
15.158	20.3734
15.176	20.3252
15.194	20.2773
15.212	20.2314
15.23	20.1879
15.248	20.147
15.266	20.1081
15.284	20.0699
15.302	20.031
15.32	19.9906
15.338	19.9482
15.356	19.9039
15.374	19.8584
15.392	19.8132
15.41	19.7694
15.428	19.729
15.446	19.6937
15.464	19.6639
15.482	19.6401
15.5	19.6219
15.518	19.608
15.536	19.5968
15.554	19.5867
15.572	19.5759
15.59	19.5626
15.608	19.5462
15.626	19.5265
15.644	19.5039
15.662	19.4794
15.68	19.4546
15.698	19.431
15.716	19.4105
15.734	19.3949
15.752	19.385
15.77	19.3816
15.788	19.385
15.806	19.3942
15.824	19.4084
15.842	19.4261
15.86	19.4449
15.878	19.4626
15.896	19.4773
15.914	19.4859
15.932	19.4864
15.95	19.4772
15.968	19.4572
15.986	19.4256
16.004	19.3828
16.022	19.3295
16.04	19.2681
16.058	19.2013
16.076	19.1319
16.094	19.0637
16.112	19.0005
16.13	18.945
16.148	18.9004
16.166	18.869
16.184	18.8513
16.202	18.8478
16.22	18.857
16.238	18.8767
16.256	18.9048
16.274	18.9369
16.292	18.9697
16.31	19
16.328	19.0237
16.346	19.0388
16.364	19.0435
16.382	19.0364
16.4	19.0182
16.418	18.9891
16.436	18.9512
16.454	18.9067
16.472	18.8572
16.49	18.806
16.508	18.7553
16.526	18.7068
16.544	18.6627
16.562	18.6241
16.58	18.5917
16.598	18.5659
16.616	18.5466
16.634	18.5338
16.652	18.5265
16.67	18.5244
16.688	18.5268
16.706	18.533
16.724	18.543
16.742	18.5563
16.76	18.5726
16.778	18.5917
16.796	18.6135
16.814	18.6373
16.832	18.6629
16.85	18.6894
16.868	18.7161
16.886	18.7422
16.904	18.7664
16.922	18.7881
16.94	18.8062
16.958	18.82
16.976	18.829
16.994	18.8331
17.012	18.8325
17.03	18.8271
17.048	18.8181
17.066	18.8061
17.084	18.7917
17.102	18.7762
17.12	18.7599
17.138	18.7439
17.156	18.7286
17.174	18.7144
17.192	18.7017
17.21	18.6903
17.228	18.6802
17.246	18.671
17.264	18.6627
17.282	18.6548
17.3	18.6471
17.318	18.6393
17.336	18.6312
17.354	18.6225
17.372	18.6127
17.39	18.6015
17.408	18.5884
17.426	18.5728
17.444	18.5544
17.462	18.5328
17.48	18.5077
17.498	18.4791
17.516	18.4474
17.534	18.4126
17.552	18.3759
17.57	18.3376
17.588	18.2994
17.606	18.2619
17.624	18.2266
17.642	18.1943
17.66	18.1657
17.678	18.1413
17.696	18.1211
17.714	18.1047
17.732	18.0912
17.75	18.0799
17.768	18.0687
17.786	18.057
17.804	18.0421
17.822	18.0235
17.84	17.9991
17.858	17.9685
17.876	17.9306
17.894	17.8856
17.912	17.8335
17.93	17.7755
17.948	17.7119
17.966	17.6448
17.984	17.575
18.002	17.5048
18.02	17.4354
18.038	17.3682
18.056	17.305
18.074	17.2464
18.092	17.1939
18.11	17.1478
18.128	17.1093
18.146	17.0782
18.164	17.0554
18.182	17.0405
18.2	17.0338
18.218	17.0346
18.236	17.0429
18.254	17.0577
18.272	17.0789
18.29	17.1046
18.308	17.1346
18.326	17.1668
18.344	17.2007
18.362	17.2338
18.38	17.2657
18.398	17.2942
18.416	17.3187
18.434	17.3378
18.452	17.351
18.47	17.3575
18.488	17.3574
18.506	17.3504
18.524	17.3373
18.542	17.3182
18.56	17.2947
18.578	17.2668
18.596	17.2367
18.614	17.2046
18.632	17.1725
18.65	17.1406
18.668	17.1107
18.686	17.0827
18.704	17.0581
18.722	17.0367
18.74	17.019
18.758	17.005
18.776	16.9946
18.794	16.9878
18.812	16.9839
18.83	16.9827
18.848	16.9836
18.866	16.9862
18.884	16.9895
18.902	16.9932
18.92	16.9962
18.938	16.9981
18.956	16.9976
18.974	16.9944
18.992	16.9874
19.01	16.9762
19.028	16.9598
19.046	16.9383
19.064	16.9109
19.082	16.878
19.1	16.8396
19.118	16.7962
19.136	16.7487
19.154	16.6978
19.172	16.6449
19.19	16.5907
19.208	16.5374
19.226	16.4854
19.244	16.4374
19.262	16.3933
19.28	16.3558
19.298	16.3245
19.316	16.3014
19.334	16.2861
19.352	16.279
19.37	16.2801
19.388	16.2881
19.406	16.3033
19.424	16.323
19.442	16.3475
19.46	16.3735
19.478	16.4011
19.496	16.4274
19.514	16.4516
19.532	16.4719
19.55	16.4868
19.568	16.4959
19.586	16.4978
19.604	16.4927
19.622	16.4799
19.64	16.4599
19.658	16.4335
19.676	16.4008
19.694	16.3638
19.712	16.3224
19.73	16.2793
19.748	16.2343
19.766	16.1898
19.784	16.1462
19.802	16.1047
19.82	16.0664
19.838	16.0311
19.856	15.9998
19.874	15.9721
19.892	15.9479
19.91	15.9271
19.928	15.9086
19.946	15.8926
19.964	15.8774
19.982	15.8631
20	15.8486
20.018	15.8332
20.036	15.817
20.054	15.7994
20.072	15.7805
20.09	15.7611
20.108	15.7409
20.126	15.7217
20.144	15.7033
20.162	15.6875
20.18	15.675
20.198	15.6666
20.216	15.6641
20.234	15.6673
20.252	15.6778
20.27	15.6953
20.288	15.7199
20.306	15.752
20.324	15.7902
20.342	15.8342
20.36	15.8828
20.378	15.9336
20.396	15.9868
20.414	16.0381
20.432	16.0882
20.45	16.1336
20.468	16.173
20.486	16.2057
20.504	16.2289
20.522	16.2434
20.54	16.2475
20.558	16.2412
20.576	16.2252
20.594	16.1993
20.612	16.1648
20.63	16.1239
20.648	16.076
20.666	16.0255
20.684	15.9716
20.702	15.9176
20.72	15.8655
20.738	15.8155
20.756	15.7707
20.774	15.7306
20.792	15.6969
20.81	15.6703
20.828	15.6501
20.846	15.6363
20.864	15.6288
20.882	15.6254
20.9	15.6267
20.918	15.6299
20.936	15.6336
20.954	15.6375
20.972	15.6379
20.99	15.6358
21.008	15.6284
21.026	15.6146
21.044	15.5945
21.062	15.5662
21.08	15.5302
21.098	15.4866
21.116	15.4349
21.134	15.3762
21.152	15.3117
21.17	15.241
21.188	15.1671
21.206	15.0901
21.224	15.0113
21.242	14.9337
21.26	14.8565
21.278	14.7827
21.296	14.7129
21.314	14.6475
21.332	14.5887
21.35	14.5359
21.368	14.49
21.386	14.4513
21.404	14.4196
21.422	14.3944
21.44	14.3761
21.458	14.3634
21.476	14.3559
21.494	14.3534
21.512	14.3541
21.53	14.3584
21.548	14.365
21.566	14.3728
21.584	14.3823
21.602	14.392
21.62	14.402
21.638	14.4119
21.656	14.4212
21.674	14.4298
21.692	14.4379
21.71	14.4452
21.728	14.452
21.746	14.4585
21.764	14.4646
21.782	14.4708
21.8	14.4775
21.818	14.4845
21.836	14.492
21.854	14.5
21.872	14.5085
21.89	14.5176
21.908	14.5272
21.926	14.5371
21.944	14.547
21.962	14.5571
21.98	14.5668
21.998	14.5763
22.016	14.5853
22.034	14.5936
22.052	14.6013
22.07	14.6083
22.088	14.6145
22.106	14.62
22.124	14.625
22.142	14.6294
22.16	14.6333
22.178	14.6372
22.196	14.6408
22.214	14.6446
22.232	14.649
22.25	14.654
22.268	14.6595
22.286	14.6656
22.304	14.6724
22.322	14.6789
22.34	14.6854
22.358	14.6915
22.376	14.6958
22.394	14.6988
22.412	14.6994
22.43	14.6962
22.448	14.6898
22.466	14.6791
22.484	14.6634
22.502	14.643
22.52	14.6177
22.538	14.5872
22.556	14.5517
22.574	14.5123
22.592	14.4685
22.61	14.421
22.628	14.3717
22.646	14.3198
22.664	14.2667
22.682	14.2153
22.7	14.1644
22.718	14.1159
22.736	14.0725
22.754	14.0328
22.772	13.9986
22.79	13.9717
22.808	13.9513
22.826	13.9377
22.844	13.9316
22.862	13.9328
22.88	13.94
22.898	13.953
22.916	13.9721
22.934	13.9941
22.952	14.0186
22.97	14.0458
22.988	14.0714
23.006	14.0953
23.024	14.1175
23.042	14.1338
23.06	14.1441
23.078	14.1485
23.096	14.1438
23.114	14.1298
23.132	14.1069
23.15	14.0741
23.168	14.0309
23.186	13.9781
23.204	13.917
23.222	13.8466
23.24	13.7682
23.258	13.6854
23.276	13.5972
23.294	13.5049
23.312	13.4129
23.33	13.3199
23.348	13.2273
23.366	13.1403
23.384	13.0583
23.402	12.9817
23.42	12.9153
23.438	12.8588
23.456	12.8122
23.474	12.779
23.492	12.7596
23.51	12.7535
23.528	12.7621
23.546	12.7865
23.564	12.8256
23.582	12.8791
23.6	12.9471
23.618	13.0296
23.636	13.124
23.654	13.2295
23.672	13.3473
23.69	13.4729
23.708	13.6039
23.726	13.7427
23.744	13.8846
23.762	14.0256
23.78	14.1692
23.798	14.3102
23.816	14.4424
23.834	14.5698
23.852	14.6881
23.87	14.79
23.888	14.8783
23.906	14.9511
23.924	15.0021
23.942	15.0312
23.96	15.0393
23.978	15.0225
23.996	14.979
24.014	14.9107
24.032	14.8162
24.05	14.6941
24.068	14.5449
24.086	14.3705
24.104	14.1721
24.122	13.9474
24.14	13.7006
24.158	13.437
24.176	13.1533
24.194	12.8526
24.212	12.5431
24.23	12.2248
24.248	11.8962
24.266	11.5672
24.284	11.2428
24.302	10.9174
24.32	10.5994
24.338	10.297
24.356	10.0052
24.374	9.727664
24.392	9.471325
24.41	9.235300
24.428	9.018947
24.446	8.826175
24.464	8.659001
24.482	8.515519
24.5	8.396217
24.518	8.301777
24.536	8.232535
24.554	8.186848
24.572	8.162886
24.59	8.162373
24.608	8.183790
24.626	8.222531
24.644	8.276818
24.662	8.349027
24.68	8.435037
24.698	8.531077
24.716	8.639702
24.734	8.758883
24.752	8.884815
24.77	9.016959
24.788	9.156465
24.806	9.301629
24.824	9.451084
24.842	9.605432
24.86	9.764919
24.878	9.929638
24.896	10.0992
24.914	10.274
24.932	10.4546
24.95	10.6413
24.968	10.8338
24.986	11.0325
25.004	11.2381
25.022	11.4516
25.04	11.6714
25.058	11.8952
25.076	12.1227
25.094	12.3558
25.112	12.5893
25.13	12.818
25.148	13.0474
25.166	13.2731
25.184	13.4856
25.202	13.6818
25.22	13.8684
25.238	14.0342
25.256	14.1681
25.274	14.2761
25.292	14.3562
25.31	14.3976
25.328	14.3941
25.346	14.3525
25.364	14.268
25.382	14.1347
25.4	13.9524
25.418	13.7233
25.436	13.4466
25.454	13.1209
25.472	12.7448
25.49	12.3227
25.508	11.8597
25.526	11.3549
25.544	10.8061
25.562	10.2232
25.58	9.615234
25.598	8.973893
25.616	8.304663
25.634	7.621107
25.652	6.930723
25.67	6.223072
25.688	5.508582
25.706	4.800002
25.724	4.096461
25.742	3.393442
25.76	2.702520
25.778	2.034224
25.796	1.380605
25.814	0.745105
25.832	0.138461
25.85	-0.432764
25.868	-0.977365
25.886	-1.488192
25.904	-1.955824
25.922	-2.378872
25.94	-2.762821
25.958	-3.100189
25.976	-3.383412
25.994	-3.615340
26.012	-3.797026
26.03	-3.923255
26.048	-3.989364
26.066	-3.997642
26.084	-3.948968
26.102	-3.842805
26.12	-3.678218
26.138	-3.454538
26.156	-3.174993
26.174	-2.843126
26.192	-2.458280
26.21	-2.017506
26.228	-1.529297
26.246	-1.002462
26.264	-0.434378
26.282	0.177625
26.3	0.821974
26.318	1.487415
26.336	2.181922
26.354	2.903981
26.372	3.639051
26.39	4.373971
26.408	5.119586
26.426	5.872018
26.444	6.617861
26.462	7.346110
26.48	8.067108
26.498	8.776504
26.516	9.464503
26.534	10.124
26.552	10.7629
26.57	11.3775
26.588	11.9611
26.606	12.5094
26.624	13.0268
26.642	13.5123
26.66	13.9639
26.678	14.3802
26.696	14.7631
26.714	15.1119
26.732	15.4259
26.75	15.7047
26.768	15.9492
26.786	16.1589
26.804	16.3333
26.822	16.4723
26.84	16.577
26.858	16.6462
26.876	16.6784
26.894	16.673
26.912	16.6309
26.93	16.5523
26.948	16.437
26.966	16.2686
26.984	16.023
27.002	15.7621
27.02	15.5531
27.028	15.5