File: Bakgrunnsmateriale/MATLAB/FTIR/ftir_data/LPE453/Mapping_121/LPE453_t05_cm-1.asc
PE IR       SPECTRUM    SPECTRUM    ASCII       PEDS        1.60
  -1
LP67DB~1.ASC
17/05/16
14:46:28.00
17/05/16
14:46:28.00
tln
$LPE453_t0005$<tbV0>[2.6,-13.0,8.0,0.0,27,1,0]
370
64

2002,4.07
MIRTGS : RIGHTBACK : INTERNAL 2
MIR : ON : INTERNAL 2
OPTKBR

0.200000
8
8.000000
FILLER
RATIO
SPECTRUM
UNLOCKED 256

DOUBLE
64
COMBINED
1
0
0

1.000000
RATIO

1
0
TRUE
51149
0
LEFT NOT FITTED RIGHT NOT FITTED 0
NONE
NONE
15600
12
4.427000
51148
TRUE
1 0 8 72 0 0 0 0

15798

#HDR
-1
-1
#GR
CM-1
%T
2.38419e-05
0.0
5000
-1.000000
4631
8
44.1842
-6.525897
#DATA
5000	-0.225424
4996	-0.270104
4992	0.218772
4988	0.497746
4984	0.333213
4980	0.206446
4976	0.373744
4972	0.450873
4968	0.126481
4964	-0.347566
4960	-0.477361
4956	-0.151085
4952	0.200843
4948	0.266265
4944	0.172924
4940	0.070023
4936	-0.064396
4932	-0.210022
4928	-0.344896
4924	-0.286078
4920	-0.192761
4916	-0.183415
4912	-0.027728
4908	0.006890
4904	-0.042200
4900	0.036239
4896	0.050687
4892	0.096321
4888	0.322580
4884	0.456047
4880	0.337934
4876	0.167036
4872	0.229454
4868	0.495457
4864	0.536131
4860	0.321388
4856	0.059318
4852	-0.134706
4848	-0.137448
4844	-0.060653
4840	-0.026178
4836	0.008893
4832	0.118255
4828	0.231027
4824	0.323867
4820	0.408053
4816	0.447130
4812	0.404953
4808	0.201272
4804	-0.001740
4800	-0.118613
4796	-0.095319
4792	0.154590
4788	0.248122
4784	0.132107
4780	0.238752
4776	0.387763
4772	0.236487
4768	0.104117
4764	0.231695
4760	0.387620
4756	0.453710
4752	0.381278
4748	0.087714
4744	-0.205969
4740	-0.233817
4736	-0.057816
4732	0.063371
4728	0.166797
4724	0.272440
4720	0.195074
4716	-0.114130
4712	-0.321769
4708	-0.012063
4704	0.486898
4700	0.465369
4696	0.142383
4692	0.293087
4688	0.434398
4684	0.043869
4680	-0.174641
4676	-0.222158
4672	-0.358462
4668	-0.183534
4664	0.157356
4660	0.288867
4656	0.360846
4652	0.556325
4648	0.854682
4644	1.014208
4640	0.615501
4636	-0.141310
4632	-0.483465
4628	0.161957
4624	1.173257
4620	1.053118
4616	0.389885
4612	0.792121
4608	1.603937
4604	1.786112
4600	1.575350
4596	1.036548
4592	0.288319
4588	0.134682
4584	0.470352
4580	0.346565
4576	-0.034165
4572	-0.436377
4568	-0.991153
4564	-0.941777
4560	-0.193285
4556	0.667262
4552	1.244330
4548	1.124858
4544	0.182199
4540	-0.935983
4536	-0.912404
4532	-0.920844
4528	-1.972460
4524	-0.751757
4520	0.594878
4516	-2.057695
4512	0.078487
4508	9.528589
4504	15.1046
4500	13.1697
4496	5.936503
4492	-1.280188
4488	-3.878521
4484	-2.815914
4480	-0.551247
4476	0.548219
4472	0.755977
4468	0.720572
4464	0.203943
4460	-0.422763
4456	-0.650501
4452	-0.516605
4448	-0.271105
4444	-0.079011
4440	0.016927
4436	-0.072121
4432	-0.283217
4428	-0.334525
4424	-0.030899
4420	0.440669
4416	0.619411
4412	0.382781
4408	0.430393
4404	0.813078
4400	0.812649
4396	0.513076
4392	0.385260
4388	0.551033
4384	0.648808
4380	0.477719
4376	0.441265
4372	0.484561
4368	0.327706
4364	0.209331
4360	0.236463
4356	0.210142
4352	0.048637
4348	-0.117897
4344	-0.016856
4340	0.100040
4336	-0.033807
4332	-0.050210
4328	0.067305
4324	0.071883
4320	0.147461
4316	0.314950
4312	0.274419
4308	0.114154
4304	0.184369
4300	0.355553
4296	0.292778
4292	0.177764
4288	0.164723
4284	0.072360
4280	-0.011944
4276	-0.004649
4272	-0.058388
4268	-0.147771
4264	-0.157880
4260	-0.171160
4256	-0.244021
4252	-0.163769
4248	0.203299
4244	0.510454
4240	0.428652
4236	0.200057
4232	0.086903
4228	0.072503
4224	0.115418
4220	0.131082
4216	0.109958
4212	0.092005
4208	0.125217
4204	0.220918
4200	0.291371
4196	0.349140
4192	0.262570
4188	0.086283
4184	0.195980
4180	0.262618
4176	0.040268
4172	-0.134253
4168	-0.008034
4164	0.382542
4160	0.537729
4156	0.270056
4152	0.023388
4148	0.071573
4144	0.227642
4140	0.260138
4136	0.141811
4132	0.001645
4128	0.030612
4124	0.103020
4120	0.045013
4116	-0.008964
4112	0.027823
4108	0.169324
4104	0.241732
4100	0.049400
4096	-0.160741
4092	-0.184321
4088	-0.166106
4084	-0.138497
4080	-0.058388
4076	-0.081181
4072	-0.092172
4068	0.093674
4064	0.228500
4060	0.155377
4056	0.097513
4052	0.106215
4048	-0.034070
4044	-0.146746
4040	-0.034642
4036	0.066804
4032	0.089573
4028	0.113391
4024	0.103402
4020	0.081801
4016	0.071692
4012	0.045633
4008	0.051045
4004	0.119066
4000	0.204181
3996	0.240159
3992	0.246357
3988	0.263333
3984	0.252628
3980	0.210547
3976	0.219464
3972	0.223088
3968	0.154399
3964	0.103211
3960	0.127601
3956	0.229120
3952	0.297975
3948	0.219130
3944	0.167036
3940	0.283885
3936	0.420618
3932	0.414276
3928	0.237321
3924	0.077390
3920	0.108957
3916	0.116944
3912	-0.028705
3908	-0.091600
3904	-0.019836
3900	0.048184
3896	0.040507
3892	-0.008654
3888	0.024485
3884	0.117874
3880	0.132036
3876	0.071096
3872	-0.004720
3868	-0.044536
3864	-0.007534
3860	0.015425
3856	-0.016260
3852	-0.030565
3848	-0.023341
3844	-0.009822
3840	-0.003004
3836	0.062775
3832	0.227355
3828	0.286674
3824	0.197553
3820	0.179243
3816	0.136470
3812	-0.027179
3808	-0.032186
3804	0.048732
3800	-0.013089
3796	-0.044512
3792	0.014400
3788	-0.007653
3784	-0.083255
3780	-0.076079
3776	-0.017428
3772	0.064206
3768	0.123596
3764	0.078463
3760	0.015282
3756	0.000596
3752	0.001597
3748	0.004506
3744	0.058245
3740	0.112891
3736	0.072598
3732	0.040602
3728	0.029158
3724	-0.025320
3720	-0.002694
3716	0.107097
3712	0.175142
3708	0.182700
3704	0.184273
3700	0.184488
3696	0.116038
3692	0.060439
3688	0.098180
3684	0.153040
3680	0.199699
3676	0.111699
3672	-0.072336
3668	-0.130295
3664	-0.094199
3660	-0.059533
3656	-0.031805
3652	0.025844
3648	0.039362
3644	0.015401
3640	0.095438
3636	0.163054
3632	0.121569
3628	0.074744
3624	0.035691
3620	0.020980
3616	0.038909
3612	0.025701
3608	-0.022006
3604	-0.048565
3600	-0.105071
3596	-0.154113
3592	-0.058937
3588	0.050067
3584	0.047898
3580	0.011444
3576	0.010156
3572	0.001430
3568	-0.054216
3564	-0.043511
3560	0.072646
3556	0.173187
3552	0.159525
3548	0.031852
3544	-0.122809
3540	-0.120258
3536	0.002384
3532	0.083756
3528	0.147700
3524	0.189161
3520	0.174164
3516	0.147747
3512	0.186967
3508	0.225400
3504	0.141167
3500	0.052833
3496	0.083827
3492	0.123977
3488	0.061321
3484	0.040221
3480	0.195264
3476	0.273942
3472	0.119543
3468	-0.005698
3464	0.024724
3460	0.054931
3456	0.004410
3452	-0.034189
3448	0.042557
3444	0.121092
3440	0.086545
3436	0.020408
3432	0.044393
3428	0.104045
3424	0.086808
3420	0.081562
3416	0.102996
3412	0.080633
3408	0.098752
3404	0.114250
3400	0.080013
3396	0.047683
3392	0.008082
3388	0.023770
3384	0.083637
3380	0.097870
3376	0.069069
3372	-0.008893
3368	-0.071644
3364	-0.026535
3360	0.031781
3356	0.059127
3352	0.122261
3348	0.160741
3344	0.152325
3340	0.126838
3336	0.065302
3332	-0.016832
3328	-0.078868
3324	-0.068879
3320	0.004935
3316	0.074386
3312	0.151252
3308	0.196838
3304	0.164556
3300	0.157189
3296	0.174450
3292	0.155401
3288	0.118470
3284	0.079274
3280	0.052452
3276	0.025916
3272	0.032091
3268	0.043153
3264	0.003480
3260	0.063776
3256	0.163984
3252	0.118780
3248	0.063419
3244	0.067162
3240	0.058293
3236	0.011396
3232	-0.047898
3228	-0.019645
3224	0.092267
3220	0.135183
3216	0.058650
3212	0.033044
3208	0.071692
3204	0.004601
3200	-0.082230
3196	-0.060415
3192	0.014472
3188	0.086450
3184	0.118923
3180	0.063037
3176	-0.013232
3172	-0.041842
3168	-0.092554
3164	-0.128316
3160	-0.081419
3156	-0.002050
3152	0.011205
3148	-0.037646
3144	-0.010132
3140	0.101351
3136	0.147747
3132	0.109410
3128	0.095462
3124	0.095558
3120	0.082206
3116	0.117325
3112	0.159835
3108	0.105690
3104	0.032925
3100	0.072073
3096	0.130033
3092	0.075626
3088	-0.019335
3084	-0.067734
3080	-0.053572
3076	0.008893
3072	0.067186
3068	0.100541
3064	0.052499
3060	-0.043988
3056	-0.055265
3052	-0.021314
3048	-0.007462
3044	0.043702
3040	0.112581
3036	0.089979
3032	-0.027275
3028	-0.160431
3024	-0.165414
3020	0.016736
3016	0.180411
3012	0.191330
3008	0.151634
3004	0.118494
3000	0.121998
2996	0.153541
2992	0.110387
2988	0.038290
2984	0.051951
2980	0.083088
2976	0.046634
2972	0.014352
2968	0.024175
2964	0.037455
2960	0.057983
2956	0.056409
2952	0.027585
2948	0.041484
2944	0.107192
2940	0.145578
2936	0.095129
2932	0.020337
2928	0.000596
2924	-0.013184
2920	-0.011301
2916	0.039100
2912	0.083875
2908	0.141215
2904	0.186753
2900	0.139713
2896	0.060725
2892	0.051069
2888	0.070023
2884	0.080704
2880	0.131154
2876	0.124263
2872	0.001144
2868	-0.091409
2864	-0.075244
2860	-0.004720
2856	0.016450
2852	0.018930
2848	0.058460
2844	0.007677
2840	-0.092887
2836	-0.060558
2832	0.098991
2828	0.228166
2824	0.233101
2820	0.172591
2816	0.111222
2812	0.086760
2808	0.073862
2804	0.032258
2800	0.019788
2796	0.020885
2792	-0.000333
2788	0.002241
2784	0.039625
2780	0.075197
2776	0.042033
2772	-0.004673
2768	0.033926
2764	0.053405
2760	0.013470
2756	-0.003147
2752	-0.011920
2748	-0.040531
2744	-0.023698
2740	0.073671
2736	0.147604
2732	0.137424
2728	0.082015
2724	0.044369
2720	0.055122
2716	0.046110
2712	0.014805
2708	0.012254
2704	0.023341
2700	0.028300
2696	0.042223
2692	0.102686
2688	0.150370
2684	0.093102
2680	0.029659
2676	0.026750
2672	0.026512
2668	0.009298
2664	0.013208
2660	0.030612
2656	0.028347
2652	0.041127
2648	0.046038
2644	0.001049
2640	-0.070834
2636	-0.079083
2632	-0.007462
2628	-0.005412
2624	-0.069546
2620	-0.075936
2616	-0.044155
2612	0.000977
2608	0.050044
2604	0.039696
2600	0.009703
2596	0.020551
2592	0.003886
2588	-0.046777
2584	-0.066804
2580	-0.034165
2576	0.016951
2572	0.018835
2568	0.006651
2564	0.032734
2560	0.063538
2556	0.046610
2552	0.007915
2548	0.020742
2544	0.040936
2540	-0.007033
2536	-0.049066
2532	0.026082
2528	0.122809
2524	0.085926
2520	-0.010371
2516	-0.003266
2512	0.083827
2508	0.074148
2504	0.006079
2500	0.044393
2496	0.090289
2492	0.043678
2488	-0.025224
2484	-0.021719
2480	0.037121
2476	0.052046
2472	0.011658
2468	-0.033378
2464	-0.078344
2460	-0.077009
2456	-0.026202
2452	-0.028634
2448	-0.022554
2444	0.016140
2440	0.037002
2436	0.112032
2432	0.215697
2428	0.187039
2424	-0.021553
2420	-0.134515
2416	0.045418
2412	0.187373
2408	0.100994
2404	0.007295
2400	-0.010037
2396	-0.006031
2392	-0.033378
2388	-0.063633
2384	-0.050735
2380	-0.013446
2376	0.049924
2372	0.083136
2368	0.032210
2364	-0.029945
2360	0.002670
2356	0.077128
2352	0.069546
2348	0.012183
2344	-0.000095
2340	0.025892
2336	0.057721
2332	0.094771
2328	0.126671
2324	0.162386
2320	0.135254
2316	0.062680
2312	0.107979
2308	0.214028
2304	0.268793
2300	0.276136
2296	0.256085
2292	0.279927
2288	0.396919
2284	0.521659
2280	0.545144
2276	0.556278
2272	0.652599
2268	0.734066
2264	0.740480
2260	0.803971
2256	0.949931
2252	1.074266
2248	1.193141
2244	1.292061
2240	1.365518
2236	1.484084
2232	1.611971
2228	1.721024
2224	1.868176
2220	2.063941
2216	2.281618
2212	2.516269
2208	2.756738
2204	2.976036
2200	3.207087
2196	3.459978
2192	3.705191
2188	3.979730
2184	4.288077
2180	4.616212
2176	4.958176
2172	5.276489
2168	5.646085
2164	6.067538
2160	6.380629
2156	6.692838
2152	7.181644
2148	7.721519
2144	8.102202
2140	8.362770
2136	8.723402
2132	9.237003
2128	9.827876
2124	10.3856
2120	10.8578
2116	11.3123
2112	11.7921
2108	12.3013
2104	12.8207
2100	13.3155
2096	13.7655
2092	14.2048
2088	14.6476
2084	15.1331
2080	15.7847
2076	16.4012
2072	16.818
2068	17.2639
2064	17.716
2060	18.1927
2056	18.8044
2052	19.3411
2048	19.7327
2044	20.1127
2040	20.5437
2036	20.9846
2032	21.4092
2028	21.8765
2024	22.343
2020	22.7303
2016	23.1065
2012	23.4755
2008	23.8092
2004	24.184
2000	24.5706
1996	24.9314
1992	25.2924
1988	25.6551
1984	26.018
1980	26.3602
1976	26.6633
1972	26.9221
1968	27.1743
1964	27.4465
1960	27.7367
1956	28.0451
1952	28.2948
1948	28.5042
1944	28.7663
1940	29.0301
1936	29.2772
1932	29.5186
1928	29.7153
1924	29.8942
1920	30.0939
1916	30.2934
1912	30.442
1908	30.5443
1904	30.6585
1900	30.8293
1896	31.0467
1892	31.2403
1888	31.3684
1884	31.5037
1880	31.6535
1876	31.737
1872	31.8253
1868	31.9747
1864	32.1126
1860	32.2256
1856	32.3301
1852	32.4346
1848	32.5329
1844	32.5551
1840	32.5326
1836	32.602
1832	32.7805
1828	32.8948
1824	32.8923
1820	32.9468
1816	33.07
1812	33.152
1808	33.2122
1804	33.2706
1800	33.3101
1796	33.3985
1792	33.4649
1788	33.4488
1784	33.458
1780	33.5261
1776	33.6643
1772	33.7586
1768	33.7211
1764	33.6646
1760	33.639
1756	33.6808
1752	33.8125
1748	33.9025
1744	33.8776
1740	33.8612
1736	33.9311
1732	33.9829
1728	33.976
1724	33.9508
1720	33.9355
1716	33.9735
1712	34.0407
1708	34.1219
1704	34.21
1700	34.2393
1696	34.1638
1692	34.0819
1688	34.1542
1684	34.2737
1680	34.2424
1676	34.1506
1672	34.1339
1668	34.171
1664	34.2136
1660	34.2631
1656	34.36
1652	34.41
1648	34.2963
1644	34.1262
1640	34.065
1636	34.0764
1632	34.0596
1628	34.0822
1624	34.1313
1620	34.1739
1616	34.2095
1612	34.1488
1608	34.0648
1604	34.0504
1600	34.0499
1596	34.0358
1592	34.0456
1588	34.0633
1584	34.0585
1580	34.0454
1576	33.9888
1572	33.9267
1568	33.9557
1564	34.0878
1560	34.2554
1556	34.2916
1552	34.1775
1548	34.069
1544	34.0782
1540	34.1399
1536	34.132
1532	34.0592
1528	34.0344
1524	34.0976
1520	34.0914
1516	34.0002
1512	34.0103
1508	34.0728
1504	33.9954
1500	33.881
1496	33.8615
1492	33.8242
1488	33.7781
1484	33.8171
1480	33.8786
1476	33.8707
1472	33.7926
1468	33.7688
1464	33.8117
1460	33.8107
1456	33.6931
1452	33.5284
1448	33.4767
1444	33.5642
1440	33.6951
1436	33.7024
1432	33.6461
1428	33.6727
1424	33.6821
1420	33.5849
1416	33.4662
1412	33.4488
1408	33.5022
1404	33.519
1400	33.5048
1396	33.5141
1392	33.5037
1388	33.4115
1384	33.3106
1380	33.3034
1376	33.3212
1372	33.3237
1368	33.3764
1364	33.4256
1360	33.3683
1356	33.2741
1352	33.2651
1348	33.32
1344	33.4045
1340	33.4469
1336	33.3664
1332	33.3236
1328	33.3719
1324	33.344
1320	33.2953
1316	33.2728
1312	33.1887
1308	33.1127
1304	33.1024
1300	33.107
1296	33.1157
1292	33.1304
1288	33.134
1284	33.1211
1280	33.0417
1276	32.8964
1272	32.8161
1268	32.7995
1264	32.7563
1260	32.7375
1256	32.7967
1252	32.858
1248	32.8217
1244	32.7504
1240	32.7928
1236	32.8932
1232	32.8939
1228	32.7603
1224	32.639
1220	32.6627
1216	32.719
1212	32.7309
1208	32.7345
1204	32.715
1200	32.6702
1196	32.6558
1192	32.6535
1188	32.6109
1184	32.5652
1180	32.5367
1176	32.5325
1172	32.5276
1168	32.5402
1164	32.5546
1160	32.4677
1156	32.3693
1152	32.3428
1148	32.3672
1144	32.4094
1140	32.4027
1136	32.3308
1132	32.2155
1128	32.1499
1124	32.215
1120	32.2964
1116	32.2275
1112	32.1417
1108	32.2134
1104	32.1785
1100	31.9072
1096	31.7473
1092	31.8538
1088	32.0052
1084	32.055
1080	32.0197
1076	31.9557
1072	31.9315
1068	31.9312
1064	31.881
1060	31.7831
1056	31.7352
1052	31.7557
1048	31.736
1044	31.6993
1040	31.6784
1036	31.5911
1032	31.518
1028	31.5404
1024	31.5658
1020	31.5551
1016	31.4772
1012	31.3297
1008	31.2571
1004	31.2783
1000	31.3226
996	 31.3767
992	 31.4167
988	 31.406
984	 31.3474
980	 31.3036
976	 31.2276
972	 31.1242
968	 31.0857
964	 31.0275
960	 30.9283
956	 30.8993
952	 30.9365
948	 30.9462
944	 30.8888
940	 30.8389
936	 30.7993
932	 30.7271
928	 30.6543
924	 30.5994
920	 30.6111
916	 30.6826
912	 30.7317
908	 30.6815
904	 30.5738
900	 30.4029
896	 30.1778
892	 30.1989
888	 30.4056
884	 30.4756
880	 30.4248
876	 30.3453
872	 30.2387
868	 30.1363
864	 30.1033
860	 30.0627
856	 29.9331
852	 29.7754
848	 29.7232
844	 29.8297
840	 29.8719
836	 29.7783
832	 29.7158
828	 29.6232
824	 29.4837
820	 29.4081
816	 29.3106
812	 29.1619
808	 29.071
804	 29.0122
800	 29.0224
796	 29.2176
792	 29.3887
788	 29.3667
784	 29.2198
780	 29.0392
776	 28.9629
772	 28.9909
768	 28.925
764	 28.7255
760	 28.6346
756	 28.7248
752	 28.6831
748	 28.4191
744	 28.2516
740	 28.2952
736	 28.2779
732	 28.154
728	 28.1806
724	 28.2813
720	 28.3295
716	 28.2823
712	 28.0663
708	 27.7677
704	 27.5042
700	 27.404
696	 27.3787
692	 27.2464
688	 27.1178
684	 27.1374
680	 27.2188
676	 27.2524
672	 27.1909
668	 27.0126
664	 26.7933
660	 26.6088
656	 26.4209
652	 26.3104
648	 26.4373
644	 26.5971
640	 26.5926
636	 26.5698
632	 26.5029
628	 26.2597
624	 26.0404
620	 26.0837
616	 26.1757
612	 26.1306
608	 26.0464
604	 25.8914
600	 25.6345
596	 25.2699
592	 24.7269
588	 24.3932
584	 24.6188
580	 24.7666
576	 24.5659
572	 24.6869
568	 25.0745
564	 25.1
560	 24.7658
556	 24.3863
552	 23.9575
548	 23.6151
544	 23.7406
540	 23.9465
536	 23.7321
532	 23.3691
528	 23.3936
524	 23.6483
520	 23.4742
516	 23.1858
512	 23.2594
508	 23.2339
504	 22.8872
500	 22.7899
496	 23.0341
492	 23.0605
488	 22.9859
484	 23.0614
480	 22.8388
476	 22.4129
472	 22.5813
468	 22.9239
464	 22.6837
460	 22.4926
456	 22.623
452	 22.4927
448	 22.2738
444	 22.0637
440	 21.3246
436	 20.4839
432	 19.9466
428	 19.1365
424	 17.7871
420	 17.3717
416	 19.5217
412	 22.9139
408	 22.7969
404	 19.4758
400	 17.5464
396	 14.7035
392	 15.9939
388	 30.6143
384	 44.1842
380	 30.5074
376	 8.138275
372	 -2.964806
370	 -6.525897