File: Bakgrunnsmateriale/MATLAB/FTIR/ftir_data/LPE453/Mapping_121/LPE453_t51.asc
PE IR       SPECTRUM    SPECTRUM    ASCII       PEDS        1.60
  -1
LPC7AD~1.ASC
17/05/16
18:33:56.00
17/05/16
18:34:22.00
tln
$LPE453_t0051$<tbV0>[-2.6,-2.6,8.0,0.0,27,1,0]
27.028
64

2002,4.07
MIRTGS : RIGHTBACK : INTERNAL 2
MIR : ON : INTERNAL 2
OPTKBR

0.200000
8
8.000000
FILLER
RATIO
SPECTRUM
UNLOCKED 256

DOUBLE
64
COMBINED
1
0
0

0.002000
RATIO

1
0
TRUE
51149
0
LEFT NOT FITTED RIGHT NOT FITTED 0
NONE
NONE
15600
12
4.427000
51148
TRUE
1 0 8 72 0 0 0 0

15798

#HDR
-1
-1
#GR
µM
%T
2.38419e-05
0.0
2.000000
0.002000
12515
8
57.885
-11.3994
#DATA
2.000000	 -0.253653
2.018000	 0.430928
2.036000	 0.279228
2.054000	 0.131691
2.072000	 -0.047170
2.090000	 0.377557
2.108000	 0.009587
2.126000	 0.393629
2.144000	 0.579687
2.162000	 1.245477
2.180000	 0.188646
2.198000	 2.395038
2.216000	 13.841
2.234000	 -1.214386
2.252000	 -0.555984
2.270000	 0.696590
2.288000	 0.150169
2.306000	 0.032829
2.324000	 -0.000827
2.342000	 0.050391
2.360000	 0.175924
2.378000	 0.013037
2.396000	 0.220424
2.414000	 0.113393
2.432000	 0.098923
2.450000	 0.301086
2.468000	 0.060995
2.486000	 0.117573
2.504000	 0.240842
2.522000	 0.175600
2.540000	 0.122008
2.558000	 0.291349
2.576000	 0.065495
2.594000	 -0.022266
2.612000	 0.078802
2.630000	 0.103901
2.648000	 0.163533
2.666000	 0.216386
2.684000	 -0.015044
2.702000	 -0.011025
2.720000	 0.101441
2.738000	 -0.000476
2.756000	 0.084859
2.774000	 0.050509
2.792000	 -0.002164
2.810000	 0.153094
2.828000	 0.047302
2.846000	 -0.061723
2.864000	 0.086967
2.882000	 0.324641
2.900000	 0.108090
2.918000	 -0.038482
2.936000	 -0.047320
2.954000	 0.079952
2.972000	 -0.080563
2.990000	 -0.035478
3.008000	 -0.071882
3.026000	 0.100242
3.044000	 0.136383
3.062000	 -0.060659
3.080000	 0.064481
3.098000	 0.127569
3.116000	 -0.092478
3.134000	 0.094681
3.152000	 0.123167
3.170000	 0.030750
3.188000	 0.119634
3.206000	 0.066931
3.224000	 -0.053757
3.242000	 0.037949
3.260000	 0.146317
3.278000	 -0.034591
3.296000	 0.026762
3.314000	 0.042609
3.332000	 0.004555
3.350000	 -0.005029
3.368000	 0.006347
3.386000	 0.057033
3.404000	 -0.066860
3.422000	 0.208004
3.440000	 -0.043018
3.458000	 0.094466
3.476000	 0.067310
3.494000	 0.021822
3.512000	 -0.042873
3.530000	 -0.012857
3.548000	 0.109667
3.566000	 0.079215
3.584000	 -0.038235
3.602000	 0.005407
3.620000	 -0.000349
3.638000	 -0.027704
3.656000	 -0.018901
3.674000	 0.067092
3.692000	 0.070414
3.710000	 0.135932
3.728000	 0.022932
3.746000	 0.058973
3.764000	 0.037689
3.782000	 0.041333
3.800000	 -0.098914
3.818000	 0.117173
3.836000	 0.060811
3.854000	 0.007936
3.872000	 0.084050
3.890000	 0.071574
3.908000	 0.095348
3.926000	 0.113601
3.944000	 -0.036376
3.962000	 0.073171
3.980000	 -0.122964
3.998000	 -0.004554
4.016000	 0.096219
4.034000	 0.123632
4.052000	 0.122566
4.070000	 0.055151
4.088000	 0.007686
4.106000	 0.045406
4.124000	 0.119502
4.141999	 0.285461
4.160000	 -0.070717
4.178000	 0.035591
4.196000	 -0.047266
4.214000	 0.017100
4.232000	 -0.018143
4.250000	 0.005564
4.268000	 0.130032
4.286000	 0.192271
4.304000	 0.118839
4.322000	 0.243764
4.340000	 0.236018
4.358000	 0.208184
4.375999	 0.327395
4.394000	 0.274291
4.412000	 0.366076
4.430000	 0.592830
4.448000	 0.705128
4.466000	 0.962041
4.484000	 1.188969
4.502000	 1.478716
4.520000	 1.888231
4.538000	 2.338669
4.556000	 2.808624
4.574000	 3.312056
4.592000	 3.793016
4.609999	 4.465835
4.628000	 4.955626
4.646000	 5.659883
4.664000	 6.653091
4.682000	 7.596951
4.700000	 8.346810
4.718000	 9.267699
4.736000	 10.0859
4.754000	 10.9371
4.772000	 11.7867
4.790000	 12.708
4.808000	 13.6062
4.826000	 14.6292
4.843999	 15.3682
4.862000	 16.0957
4.880000	 17.0569
4.898000	 17.9676
4.916000	 18.7494
4.934000	 19.4952
4.952000	 20.225
4.970000	 20.8113
4.988000	 21.5083
5.006000	 22.1458
5.024000	 22.7636
5.042000	 23.2489
5.060000	 23.6745
5.077999	 24.1844
5.096000	 24.6414
5.114000	 25.247
5.132000	 25.5929
5.150000	 25.9017
5.168000	 26.2439
5.186000	 26.5347
5.204000	 26.8918
5.222000	 27.2371
5.240000	 27.6063
5.258000	 27.8957
5.276000	 28.1097
5.294000	 28.2855
5.312000	 28.4112
5.330000	 28.6239
5.348000	 28.9328
5.366000	 29.106
5.384000	 29.2855
5.402000	 29.3592
5.420000	 29.4691
5.438000	 29.6351
5.456000	 29.6596
5.474000	 29.8772
5.492000	 30.1143
5.510000	 30.2113
5.528000	 30.2022
5.546000	 30.25
5.564000	 30.363
5.582000	 30.4344
5.600000	 30.5093
5.618000	 30.5863
5.636000	 30.7529
5.654000	 30.8504
5.672000	 30.8299
5.690000	 30.8142
5.708000	 30.8127
5.726000	 30.7978
5.744000	 30.7866
5.762000	 30.804
5.780000	 30.8913
5.798000	 31.03
5.816000	 31.0745
5.834000	 31.0972
5.852000	 31.1164
5.870000	 31.0447
5.888000	 31.0078
5.906000	 31.0505
5.923999	 31.1928
5.942000	 31.2002
5.960000	 31.1828
5.978000	 31.2536
5.996000	 31.2515
6.014000	 31.1642
6.032000	 31.1263
6.050000	 31.1442
6.068000	 31.1483
6.086000	 31.1668
6.104000	 31.2445
6.122000	 31.3709
6.140000	 31.4195
6.158000	 31.4074
6.176000	 31.3935
6.194000	 31.3046
6.212000	 31.1981
6.230000	 31.1603
6.248000	 31.1738
6.266000	 31.2736
6.284000	 31.2967
6.302000	 31.2356
6.320000	 31.248
6.338000	 31.3073
6.356000	 31.3269
6.374000	 31.2531
6.392000	 31.1246
6.410000	 31.0323
6.428000	 31.0495
6.446000	 31.1257
6.464000	 31.1918
6.482000	 31.2606
6.500000	 31.3135
6.518000	 31.3223
6.536000	 31.2915
6.554000	 31.2062
6.572000	 31.1139
6.590000	 31.0234
6.608000	 30.9726
6.626000	 31.0572
6.644000	 31.1497
6.662000	 31.1205
6.680000	 31.09
6.698000	 31.1211
6.716000	 31.124
6.734000	 31.0797
6.752000	 31.0494
6.770000	 31.0714
6.788000	 31.0991
6.806000	 31.0542
6.824000	 30.9674
6.842000	 30.9413
6.860000	 30.9109
6.878000	 30.8074
6.896000	 30.7902
6.914000	 30.9265
6.932000	 31.0981
6.950000	 31.1802
6.968000	 31.1376
6.986000	 31.049
7.004000	 30.9355
7.022000	 30.8117
7.040000	 30.7619
7.058000	 30.7945
7.076000	 30.8298
7.094000	 30.8432
7.112000	 30.8661
7.130000	 30.8946
7.148000	 30.9295
7.166000	 30.9873
7.184000	 31.026
7.202000	 30.9887
7.220000	 30.8913
7.238000	 30.8039
7.256000	 30.7416
7.274000	 30.688
7.292000	 30.6531
7.310000	 30.6374
7.328000	 30.6333
7.346000	 30.6255
7.364000	 30.5934
7.382000	 30.567
7.400000	 30.5902
7.418000	 30.6545
7.436000	 30.7084
7.454000	 30.7014
7.472000	 30.6438
7.490000	 30.5905
7.508000	 30.5516
7.526000	 30.5137
7.544000	 30.4851
7.562000	 30.4569
7.580000	 30.4138
7.598000	 30.3839
7.616000	 30.3877
7.634000	 30.4021
7.652000	 30.4198
7.670000	 30.4542
7.688000	 30.4867
7.706000	 30.4934
7.724000	 30.493
7.742000	 30.5031
7.760000	 30.4997
7.778000	 30.4564
7.796000	 30.3809
7.814000	 30.3042
7.832000	 30.2577
7.850000	 30.2485
7.868000	 30.2474
7.886000	 30.2165
7.904000	 30.1516
7.922000	 30.1002
7.940000	 30.1225
7.958000	 30.2105
7.976000	 30.29
7.994000	 30.3144
8.012000	 30.3076
8.030000	 30.2942
8.048000	 30.2619
8.065999	 30.2111
8.084000	 30.1759
8.102000	 30.173
8.120000	 30.1632
8.138000	 30.1042
8.155999	 30.0178
8.173999	 29.9725
8.192000	 29.995
8.210000	 30.0405
8.228000	 30.0564
8.246000	 30.0402
8.263999	 30.0221
8.282000	 30.0254
8.300000	 30.0481
8.318000	 30.071
8.336000	 30.0755
8.353999	 30.0542
8.372000	 30.0122
8.390000	 29.9657
8.408000	 29.9293
8.426000	 29.9015
8.443999	 29.8708
8.462000	 29.8301
8.480000	 29.7835
8.498000	 29.7398
8.516000	 29.6958
8.533999	 29.64
8.552000	 29.5832
8.570000	 29.5608
8.588000	 29.5913
8.606000	 29.6546
8.624000	 29.7176
8.641999	 29.764
8.660000	 29.7955
8.678000	 29.8181
8.696000	 29.8375
8.714000	 29.8508
8.731999	 29.8375
8.750000	 29.7742
8.768000	 29.6682
8.786000	 29.5656
8.804000	 29.5084
8.821999	 29.4951
8.840000	 29.4906
8.858000	 29.4719
8.876000	 29.448
8.894000	 29.4429
8.911999	 29.4682
8.930000	 29.5149
8.948000	 29.5546
8.966000	 29.5492
8.984000	 29.4785
9.001999	 29.3709
9.020000	 29.2948
9.038000	 29.305
9.056000	 29.3936
9.074000	 29.498
9.092000	 29.5588
9.109999	 29.5629
9.128000	 29.5348
9.146000	 29.496
9.164000	 29.4467
9.182000	 29.3802
9.199999	 29.3022
9.218000	 29.2278
9.236000	 29.1637
9.254000	 29.1038
9.272000	 29.0423
9.289999	 28.987
9.308000	 28.9545
9.326000	 28.954
9.344000	 28.9789
9.362000	 29.0133
9.379999	 29.0455
9.398000	 29.0713
9.416000	 29.088
9.434000	 29.09
9.452000	 29.0731
9.469999	 29.043
9.488000	 29.0147
9.506000	 29.0019
9.524000	 29.0053
9.542000	 29.0157
9.560000	 29.0248
9.577999	 29.0301
9.596000	 29.0286
9.614000	 29.0124
9.632000	 28.9726
9.650000	 28.9104
9.667999	 28.8432
9.686000	 28.7978
9.704000	 28.7925
9.722000	 28.8234
9.740000	 28.8651
9.757999	 28.886
9.776000	 28.8681
9.794000	 28.8186
9.812000	 28.7611
9.830000	 28.716
9.847999	 28.6858
9.866000	 28.6614
9.884000	 28.6375
9.902000	 28.6209
9.920000	 28.6224
9.937999	 28.643
9.956000	 28.6697
9.974000	 28.6868
9.992000	 28.6893
10.01	28.6837
10.028	28.676
10.046	28.6605
10.064	28.6219
10.082	28.5506
10.1	28.4539
10.118	28.3551
10.136	28.2781
10.154	28.2333
10.172	28.2167
10.19	28.2164
10.208	28.223
10.226	28.2315
10.244	28.238
10.262	28.2374
10.28	28.2264
10.298	28.2074
10.316	28.1889
10.334	28.1797
10.352	28.183
10.37	28.1953
10.388	28.2125
10.406	28.2332
10.424	28.2575
10.442	28.2816
10.46	28.2951
10.478	28.2852
10.496	28.247
10.514	28.187
10.532	28.1228
10.55	28.0711
10.568	28.0392
10.586	28.0215
10.604	28.0054
10.622	27.9783
10.64	27.9321
10.658	27.864
10.676	27.7767
10.694	27.6774
10.712	27.5782
10.73	27.4927
10.748	27.4334
10.766	27.407
10.784	27.4126
10.802	27.4403
10.82	27.4768
10.838	27.5076
10.856	27.5239
10.874	27.5246
10.892	27.5162
10.91	27.5104
10.928	27.5178
10.946	27.5433
10.964	27.5823
10.982	27.6228
11	27.6519
11.018	27.6615
11.036	27.6529
11.054	27.6351
11.072	27.6198
11.09	27.615
11.108	27.6211
11.126	27.6305
11.144	27.6312
11.162	27.6116
11.18	27.5646
11.198	27.4896
11.216	27.3923
11.234	27.2832
11.252	27.1751
11.27	27.0793
11.288	27.004
11.306	26.9522
11.324	26.922
11.342	26.9088
11.36	26.9064
11.378	26.9111
11.396	26.9219
11.414	26.9391
11.432	26.9644
11.45	26.9978
11.468	27.037
11.486	27.0781
11.504	27.1167
11.522	27.1484
11.54	27.1703
11.558	27.1804
11.576	27.1781
11.594	27.1647
11.612	27.1433
11.63	27.1187
11.648	27.0953
11.666	27.0771
11.684	27.0634
11.702	27.0493
11.72	27.0268
11.738	26.9867
11.756	26.9236
11.774	26.8372
11.792	26.7334
11.81	26.6223
11.828	26.5149
11.846	26.4204
11.864	26.3439
11.882	26.2858
11.9	26.2428
11.918	26.2099
11.936	26.1818
11.954	26.1545
11.972	26.1251
11.99	26.0924
12.008	26.057
12.026	26.021
12.044	25.9879
12.062	25.9627
12.08	25.9501
12.098	25.9536
12.116	25.974
12.134	26.0087
12.152	26.0514
12.17	26.0948
12.188	26.1315
12.206	26.1573
12.224	26.1719
12.242	26.1791
12.26	26.1853
12.278	26.1974
12.296	26.22
12.314	26.2538
12.332	26.2946
12.35	26.3348
12.368	26.364
12.386	26.3731
12.404	26.3567
12.422	26.3152
12.44	26.2539
12.458	26.1808
12.476	26.104
12.494	26.0291
12.512	25.9583
12.53	25.8909
12.548	25.8249
12.566	25.7597
12.584	25.6959
12.602	25.6365
12.62	25.5849
12.638	25.5441
12.656	25.5153
12.674	25.4968
12.692	25.4849
12.71	25.4753
12.728	25.4635
12.746	25.4461
12.764	25.4212
12.782	25.3882
12.8	25.3473
12.818	25.2989
12.836	25.2444
12.854	25.1863
12.872	25.128
12.89	25.0744
12.908	25.031
12.926	25.0035
12.944	24.9957
12.962	25.0092
12.98	25.0425
12.998	25.0912
13.016	25.1494
13.034	25.21
13.052	25.2671
13.07	25.316
13.088	25.3543
13.106	25.3812
13.124	25.3966
13.142	25.401
13.16	25.3943
13.178	25.3756
13.196	25.3442
13.214	25.2991
13.232	25.2405
13.25	25.17
13.268	25.091
13.286	25.0089
13.304	24.9301
13.322	24.8613
13.34	24.8086
13.358	24.7758
13.376	24.7645
13.394	24.7734
13.412	24.7987
13.43	24.8346
13.448	24.8742
13.466	24.9109
13.484	24.9391
13.502	24.9547
13.52	24.9553
13.538	24.9406
13.556	24.9112
13.574	24.8689
13.592	24.816
13.61	24.7545
13.628	24.6869
13.646	24.6157
13.664	24.5439
13.682	24.4744
13.7	24.4097
13.718	24.3522
13.736	24.3036
13.754	24.2642
13.772	24.2339
13.79	24.2115
13.808	24.1959
13.826	24.1856
13.844	24.1802
13.862	24.1794
13.88	24.1836
13.898	24.1934
13.916	24.2093
13.934	24.2314
13.952	24.2587
13.97	24.2897
13.988	24.3219
14.006	24.3527
14.024	24.3792
14.042	24.3988
14.06	24.4093
14.078	24.4094
14.096	24.3981
14.114	24.3748
14.132	24.3393
14.15	24.292
14.168	24.2336
14.186	24.1656
14.204	24.0903
14.222	24.0107
14.24	23.9301
14.258	23.8517
14.276	23.7788
14.294	23.7144
14.312	23.6604
14.33	23.6176
14.348	23.5861
14.366	23.5648
14.384	23.5519
14.402	23.5446
14.42	23.5404
14.438	23.5363
14.456	23.5301
14.474	23.5198
14.492	23.5045
14.51	23.4841
14.528	23.4592
14.546	23.431
14.564	23.4012
14.582	23.3714
14.6	23.343
14.618	23.3171
14.636	23.294
14.654	23.2737
14.672	23.2552
14.69	23.2376
14.708	23.2198
14.726	23.2012
14.744	23.1817
14.762	23.162
14.78	23.1434
14.798	23.1278
14.816	23.1174
14.834	23.1144
14.852	23.1207
14.87	23.1368
14.888	23.1624
14.906	23.1961
14.924	23.2351
14.942	23.2759
14.96	23.3143
14.978	23.3468
14.996	23.3701
15.014	23.3818
15.032	23.3807
15.05	23.3672
15.068	23.3432
15.086	23.3109
15.104	23.2736
15.122	23.235
15.14	23.198
15.158	23.1649
15.176	23.137
15.194	23.1151
15.212	23.0981
15.23	23.0843
15.248	23.0714
15.266	23.0567
15.284	23.0373
15.302	23.0108
15.32	22.9757
15.338	22.9313
15.356	22.8772
15.374	22.8148
15.392	22.7455
15.41	22.6716
15.428	22.5954
15.446	22.5198
15.464	22.447
15.482	22.3787
15.5	22.3167
15.518	22.262
15.536	22.2148
15.554	22.1751
15.572	22.1426
15.59	22.1164
15.608	22.0952
15.626	22.0779
15.644	22.0632
15.662	22.0494
15.68	22.0355
15.698	22.0205
15.716	22.0034
15.734	21.984
15.752	21.9623
15.77	21.9384
15.788	21.9133
15.806	21.8882
15.824	21.8643
15.842	21.843
15.86	21.8259
15.878	21.8138
15.896	21.8077
15.914	21.8081
15.932	21.8146
15.95	21.8267
15.968	21.8433
15.986	21.8625
16.004	21.8825
16.022	21.9017
16.04	21.9174
16.058	21.9283
16.076	21.9333
16.094	21.9313
16.112	21.9228
16.13	21.9081
16.148	21.8884
16.166	21.866
16.184	21.8425
16.202	21.8201
16.22	21.8019
16.238	21.7894
16.256	21.7845
16.274	21.789
16.292	21.8033
16.31	21.828
16.328	21.8625
16.346	21.9059
16.364	21.957
16.382	22.0131
16.4	22.0718
16.418	22.1309
16.436	22.1866
16.454	22.2358
16.472	22.2764
16.49	22.3048
16.508	22.3193
16.526	22.3187
16.544	22.3019
16.562	22.2695
16.58	22.2221
16.598	22.1621
16.616	22.092
16.634	22.0139
16.652	21.9325
16.67	21.8505
16.688	21.7707
16.706	21.6968
16.724	21.6299
16.742	21.5716
16.76	21.5224
16.778	21.4818
16.796	21.4489
16.814	21.4218
16.832	21.3993
16.85	21.3787
16.868	21.3583
16.886	21.3369
16.904	21.3127
16.922	21.2854
16.94	21.2543
16.958	21.2196
16.976	21.1817
16.994	21.1413
17.012	21.0993
17.03	21.0561
17.048	21.0128
17.066	20.9695
17.084	20.9267
17.102	20.8845
17.12	20.8427
17.138	20.8012
17.156	20.7601
17.174	20.7191
17.192	20.6784
17.21	20.638
17.228	20.5983
17.246	20.5598
17.264	20.5231
17.282	20.4891
17.3	20.4582
17.318	20.4312
17.336	20.4082
17.354	20.3893
17.372	20.3745
17.39	20.3636
17.408	20.356
17.426	20.351
17.444	20.3481
17.462	20.346
17.48	20.3445
17.498	20.3423
17.516	20.3394
17.534	20.3352
17.552	20.33
17.57	20.3237
17.588	20.3173
17.606	20.3114
17.624	20.3066
17.642	20.3042
17.66	20.3048
17.678	20.3098
17.696	20.3194
17.714	20.3345
17.732	20.3548
17.75	20.3806
17.768	20.4106
17.786	20.4445
17.804	20.4804
17.822	20.5175
17.84	20.5536
17.858	20.5875
17.876	20.6177
17.894	20.6426
17.912	20.6613
17.93	20.6728
17.948	20.6768
17.966	20.6729
17.984	20.6612
18.002	20.6419
18.02	20.6155
18.038	20.5824
18.056	20.5436
18.074	20.4993
18.092	20.4506
18.11	20.3978
18.128	20.3416
18.146	20.2823
18.164	20.2205
18.182	20.1566
18.2	20.091
18.218	20.0246
18.236	19.9576
18.254	19.8913
18.272	19.826
18.29	19.7634
18.308	19.7037
18.326	19.6492
18.344	19.5998
18.362	19.5573
18.38	19.5219
18.398	19.4948
18.416	19.4758
18.434	19.4654
18.452	19.4629
18.47	19.4684
18.488	19.4805
18.506	19.4989
18.524	19.5217
18.542	19.5484
18.56	19.5767
18.578	19.6062
18.596	19.6345
18.614	19.6612
18.632	19.6841
18.65	19.7032
18.668	19.7167
18.686	19.7247
18.704	19.7261
18.722	19.7211
18.74	19.7094
18.758	19.6913
18.776	19.6674
18.794	19.6381
18.812	19.6046
18.83	19.5672
18.848	19.5273
18.866	19.4854
18.884	19.443
18.902	19.4003
18.92	19.3588
18.938	19.3186
18.956	19.2805
18.974	19.2446
18.992	19.2112
19.01	19.1802
19.028	19.1515
19.046	19.1248
19.064	19.0998
19.082	19.0761
19.1	19.0533
19.118	19.0313
19.136	19.0096
19.154	18.9884
19.172	18.9675
19.19	18.9471
19.208	18.9277
19.226	18.9096
19.244	18.8937
19.262	18.8801
19.28	18.8702
19.298	18.864
19.316	18.8624
19.334	18.8652
19.352	18.8729
19.37	18.8855
19.388	18.9022
19.406	18.9233
19.424	18.9472
19.442	18.9743
19.46	19.0027
19.478	19.0324
19.496	19.0617
19.514	19.0902
19.532	19.1168
19.55	19.1409
19.568	19.1617
19.586	19.1784
19.604	19.1909
19.622	19.1984
19.64	19.201
19.658	19.1979
19.676	19.1894
19.694	19.1752
19.712	19.1553
19.73	19.1298
19.748	19.0986
19.766	19.0623
19.784	19.0208
19.802	18.9749
19.82	18.9248
19.838	18.8713
19.856	18.8152
19.874	18.7569
19.892	18.6981
19.91	18.6385
19.928	18.5803
19.946	18.5233
19.964	18.4693
19.982	18.4183
20	18.3714
20.018	18.3292
20.036	18.2917
20.054	18.2592
20.072	18.2316
20.09	18.2086
20.108	18.1901
20.126	18.1751
20.144	18.1638
20.162	18.155
20.18	18.1485
20.198	18.1441
20.216	18.1409
20.234	18.1393
20.252	18.1388
20.27	18.1395
20.288	18.1421
20.306	18.1464
20.324	18.1532
20.342	18.163
20.36	18.1758
20.378	18.1921
20.396	18.212
20.414	18.2349
20.432	18.2614
20.45	18.2897
20.468	18.3196
20.486	18.3502
20.504	18.3791
20.522	18.4069
20.54	18.4299
20.558	18.4487
20.576	18.4609
20.594	18.4655
20.612	18.4624
20.63	18.4499
20.648	18.4283
20.666	18.3979
20.684	18.358
20.702	18.3109
20.72	18.2571
20.738	18.1974
20.756	18.1354
20.774	18.0702
20.792	18.0059
20.81	17.943
20.828	17.8829
20.846	17.8287
20.864	17.7795
20.882	17.738
20.9	17.7041
20.918	17.6779
20.936	17.6601
20.954	17.6499
20.972	17.6459
20.99	17.6487
21.008	17.6557
21.026	17.6662
21.044	17.6796
21.062	17.693
21.08	17.7073
21.098	17.7202
21.116	17.7311
21.134	17.7401
21.152	17.7464
21.17	17.75
21.188	17.7519
21.206	17.7516
21.224	17.7502
21.242	17.7495
21.26	17.7488
21.278	17.7508
21.296	17.7557
21.314	17.7642
21.332	17.7783
21.35	17.7975
21.368	17.8229
21.386	17.8552
21.404	17.8938
21.422	17.9385
21.44	17.9898
21.458	18.0458
21.476	18.1065
21.494	18.1713
21.512	18.2369
21.53	18.3044
21.548	18.3711
21.566	18.4354
21.584	18.4977
21.602	18.5542
21.62	18.6053
21.638	18.6498
21.656	18.6855
21.674	18.7132
21.692	18.7312
21.71	18.7388
21.728	18.7364
21.746	18.7235
21.764	18.7001
21.782	18.6665
21.8	18.623
21.818	18.5696
21.836	18.5078
21.854	18.4374
21.872	18.3591
21.89	18.2746
21.908	18.1832
21.926	18.0867
21.944	17.9862
21.962	17.8813
21.98	17.7741
21.998	17.6645
22.016	17.5532
22.034	17.4419
22.052	17.3301
22.07	17.2189
22.088	17.1095
22.106	17.0013
22.124	16.896
22.142	16.7938
22.16	16.6947
22.178	16.6
22.196	16.5095
22.214	16.4237
22.232	16.3434
22.25	16.2683
22.268	16.1989
22.286	16.1357
22.304	16.0783
22.322	16.0269
22.34	15.9817
22.358	15.9425
22.376	15.9092
22.394	15.8819
22.412	15.8604
22.43	15.8441
22.448	15.8335
22.466	15.8277
22.484	15.8265
22.502	15.8301
22.52	15.8373
22.538	15.8479
22.556	15.862
22.574	15.8782
22.592	15.8966
22.61	15.9168
22.628	15.9372
22.646	15.9584
22.664	15.9795
22.682	15.999
22.7	16.0176
22.718	16.0342
22.736	16.0477
22.754	16.0587
22.772	16.0659
22.79	16.068
22.808	16.0657
22.826	16.0578
22.844	16.0433
22.862	16.0229
22.88	15.9961
22.898	15.9625
22.916	15.9225
22.934	15.8766
22.952	15.8248
22.97	15.7672
22.988	15.7052
23.006	15.6386
23.024	15.5677
23.042	15.4946
23.06	15.4188
23.078	15.341
23.096	15.2644
23.114	15.1885
23.132	15.1137
23.15	15.0431
23.168	14.9763
23.186	14.9136
23.204	14.8565
23.222	14.8053
23.24	14.7597
23.258	14.7201
23.276	14.6869
23.294	14.6596
23.312	14.6377
23.33	14.6218
23.348	14.6112
23.366	14.6043
23.384	14.6015
23.402	14.6023
23.42	14.6043
23.438	14.6077
23.456	14.6123
23.474	14.6158
23.492	14.6181
23.51	14.6194
23.528	14.6175
23.546	14.6118
23.564	14.6029
23.582	14.5903
23.6	14.5735
23.618	14.5527
23.636	14.5289
23.654	14.5021
23.672	14.4718
23.69	14.4406
23.708	14.4099
23.726	14.3782
23.744	14.3483
23.762	14.3229
23.78	14.2997
23.798	14.2817
23.816	14.2724
23.834	14.2698
23.852	14.2757
23.87	14.2931
23.888	14.3219
23.906	14.3614
23.924	14.4122
23.942	14.4755
23.96	14.55
23.978	14.6329
23.996	14.7239
24.014	14.8238
24.032	14.9282
24.05	15.0346
24.068	15.146
24.086	15.2569
24.104	15.3627
24.122	15.4672
24.14	15.566
24.158	15.6522
24.176	15.7289
24.194	15.7941
24.212	15.8412
24.23	15.869
24.248	15.8796
24.266	15.8696
24.284	15.8367
24.302	15.7827
24.32	15.707
24.338	15.6086
24.356	15.4876
24.374	15.3448
24.392	15.1815
24.41	14.9967
24.428	14.7914
24.446	14.5677
24.464	14.3257
24.482	14.0643
24.5	13.7883
24.518	13.5015
24.536	13.2007
24.554	12.889
24.572	12.5711
24.59	12.2465
24.608	11.9147
24.626	11.5776
24.644	11.2363
24.662	10.8896
24.68	10.539
24.698	10.1856
24.716	9.828461
24.734	9.468457
24.752	9.106961
24.77	8.743291
24.788	8.377529
24.806	8.012565
24.824	7.649843
24.842	7.286548
24.86	6.927189
24.878	6.577059
24.896	6.233215
24.914	5.897050
24.932	5.575397
24.95	5.271395
24.968	4.980604
24.986	4.708715
25.004	4.461784
25.022	4.236705
25.04	4.034606
25.058	3.860566
25.076	3.717013
25.094	3.601031
25.112	3.514643
25.13	3.460109
25.148	3.437869
25.166	3.446129
25.184	3.483040
25.202	3.549269
25.22	3.646696
25.238	3.768094
25.256	3.906192
25.274	4.064749
25.292	4.242240
25.31	4.431690
25.328	4.629108
25.346	4.838929
25.364	5.057235
25.382	5.279296
25.4	5.504657
25.418	5.734989
25.436	5.970005
25.454	6.208980
25.472	6.450374
25.49	6.697424
25.508	6.954020
25.526	7.219280
25.544	7.491461
25.562	7.777489
25.58	8.083766
25.598	8.405229
25.616	8.744409
25.634	9.108754
25.652	9.502903
25.67	9.921843
25.688	10.3685
25.706	10.8469
25.724	11.3582
25.742	11.9003
25.76	12.4728
25.778	13.0757
25.796	13.7125
25.814	14.379
25.832	15.0678
25.85	15.775
25.868	16.5076
25.886	17.2575
25.904	18.0147
25.922	18.7777
25.94	19.5524
25.958	20.3292
25.976	21.0989
25.994	21.8637
26.012	22.6254
26.03	23.3789
26.048	24.1196
26.066	24.8482
26.084	25.567
26.102	26.2775
26.12	26.9796
26.138	27.6698
26.156	28.3543
26.174	29.0405
26.192	29.7288
26.21	30.4136
26.228	31.1051
26.246	31.8142
26.264	32.5397
26.282	33.2775
26.3	34.0357
26.318	34.8225
26.336	35.6342
26.354	36.4699
26.372	37.3363
26.39	38.2398
26.408	39.182
26.426	40.1575
26.444	41.1607
26.462	42.1878
26.48	43.2488
26.498	44.334
26.516	45.4287
26.534	46.5247
26.552	47.6425
26.57	48.7614
26.588	49.853
26.606	50.9022
26.624	51.9377
26.642	52.9344
26.66	53.8602
26.678	54.7002
26.696	55.4856
26.714	56.1884
26.732	56.7747
26.75	57.2293
26.768	57.5818
26.786	57.8094
26.804	57.885
26.822	57.7949
26.84	57.5595
26.858	57.1704
26.876	56.6166
26.894	55.8885
26.912	54.9899
26.93	53.9328
26.948	52.7295
26.966	51.2894
26.984	49.4605
27.002	47.6126
27.02	46.1484
27.028	45.7673