File: Bakgrunnsmateriale/MATLAB/FTIR/ftir_data/LPE453/Mapping_121/LPE453_t13.asc
PE IR       SPECTRUM    SPECTRUM    ASCII       PEDS        1.60
  -1
LPC795~1.ASC
17/05/16
15:24:00.00
17/05/16
15:24:26.00
tln
$LPE453_t0013$<tbV0>[10.4,-10.4,8.0,0.0,27,1,0]
27.028
64

2002,4.07
MIRTGS : RIGHTBACK : INTERNAL 2
MIR : ON : INTERNAL 2
OPTKBR

0.200000
8
8.000000
FILLER
RATIO
SPECTRUM
UNLOCKED 256

DOUBLE
64
COMBINED
1
0
0

0.002000
RATIO

1
0
TRUE
51149
0
LEFT NOT FITTED RIGHT NOT FITTED 0
NONE
NONE
15600
12
4.427000
51148
TRUE
1 0 8 72 0 0 0 0

15798

#HDR
-1
-1
#GR
µM
%T
2.38419e-05
0.0
2.000000
0.002000
12515
8
41.0347
-19.7971
#DATA
2.000000	 -0.148987
2.018000	 0.191675
2.036000	 -0.555034
2.054000	 0.093114
2.072000	 0.115118
2.090000	 0.064406
2.108000	 -0.049606
2.126000	 0.310563
2.144000	 0.346620
2.162000	 0.808169
2.180000	 -0.265286
2.198000	 -1.342290
2.216000	 26.0019
2.234000	 -0.327569
2.252000	 -0.320551
2.270000	 0.209775
2.288000	 0.974096
2.306000	 0.368550
2.324000	 0.446331
2.342000	 -0.079908
2.360000	 -0.008795
2.378000	 0.358277
2.396000	 0.433899
2.414000	 0.124444
2.432000	 0.094333
2.450000	 0.085272
2.468000	 0.027592
2.486000	 0.147270
2.504000	 0.098075
2.522000	 0.195402
2.540000	 0.104309
2.558000	 0.164741
2.576000	 0.229387
2.594000	 -0.188776
2.612000	 0.219347
2.630000	 0.005255
2.648000	 0.193247
2.666000	 0.168015
2.684000	 0.215636
2.702000	 0.035304
2.720000	 0.011814
2.738000	 -0.066802
2.756000	 -0.104803
2.774000	 -0.047670
2.792000	 0.019723
2.810000	 0.165931
2.828000	 0.228516
2.846000	 0.033056
2.864000	 0.037200
2.882000	 -0.057027
2.900000	 0.086924
2.918000	 -0.005734
2.936000	 0.041629
2.954000	 0.091088
2.972000	 0.037321
2.990000	 -0.058298
3.008000	 0.024265
3.026000	 0.181868
3.044000	 0.023561
3.062000	 0.094334
3.080000	 0.041646
3.098000	 0.269193
3.116000	 0.027570
3.134000	 0.029314
3.152000	 -0.017587
3.170000	 0.129736
3.188000	 0.134426
3.206000	 0.097856
3.224000	 0.088727
3.242000	 0.150116
3.260000	 0.009590
3.278000	 0.066359
3.296000	 -0.021001
3.314000	 0.009828
3.332000	 0.052013
3.350000	 0.123549
3.368000	 0.087837
3.386000	 0.010139
3.404000	 0.205458
3.422000	 0.159880
3.440000	 -0.105222
3.458000	 0.040241
3.476000	 0.036486
3.494000	 0.179511
3.512000	 0.158078
3.530000	 0.090512
3.548000	 0.088537
3.566000	 0.049823
3.584000	 0.093381
3.602000	 -0.006213
3.620000	 -0.045887
3.638000	 -0.004484
3.656000	 0.051366
3.674000	 0.008593
3.692000	 -0.073381
3.710000	 0.063628
3.728000	 0.055216
3.746000	 0.113192
3.764000	 0.120984
3.782000	 0.114325
3.800000	 0.035733
3.818000	 0.088954
3.836000	 0.038605
3.854000	 0.051671
3.872000	 0.022344
3.890000	 -0.062531
3.908000	 0.101479
3.926000	 -0.038706
3.944000	 0.028389
3.962000	 -0.013502
3.980000	 0.128794
3.998000	 0.124167
4.016000	 0.176894
4.034000	 0.039760
4.052000	 -0.058658
4.070000	 -0.039004
4.088000	 -0.034827
4.106000	 0.040659
4.124000	 0.131258
4.141999	 0.091406
4.160000	 -0.154820
4.178000	 -0.000194
4.196000	 -0.075534
4.214000	 -0.058960
4.232000	 0.028985
4.250000	 0.117915
4.268000	 0.086760
4.286000	 0.127755
4.304000	 0.200071
4.322000	 0.223315
4.340000	 0.312087
4.358000	 0.324586
4.375999	 0.276887
4.394000	 0.316442
4.412000	 0.563108
4.430000	 0.690987
4.448000	 0.847859
4.466000	 1.050916
4.484000	 1.358300
4.502000	 1.714727
4.520000	 2.089963
4.538000	 2.549784
4.556000	 2.982403
4.574000	 3.438731
4.592000	 4.007576
4.609999	 4.876187
4.628000	 5.429736
4.646000	 6.071667
4.664000	 6.766547
4.682000	 7.610518
4.700000	 8.553457
4.718000	 9.479565
4.736000	 10.2207
4.754000	 11.2021
4.772000	 12.138
4.790000	 12.9866
4.808000	 13.9001
4.826000	 14.6035
4.843999	 15.563
4.862000	 16.3951
4.880000	 17.2943
4.898000	 18.0359
4.916000	 18.7742
4.934000	 19.6261
4.952000	 20.3526
4.970000	 20.8655
4.988000	 21.5384
5.006000	 22.2458
5.024000	 22.8602
5.042000	 23.458
5.060000	 23.9124
5.077999	 24.3355
5.096000	 24.7844
5.114000	 25.2731
5.132000	 25.769
5.150000	 26.2081
5.168000	 26.5324
5.186000	 26.8758
5.204000	 27.1766
5.222000	 27.3764
5.240000	 27.7725
5.258000	 28.0837
5.276000	 28.3659
5.294000	 28.6834
5.312000	 28.8876
5.330000	 29.0786
5.348000	 29.2186
5.366000	 29.3195
5.384000	 29.4714
5.402000	 29.8414
5.420000	 30.1451
5.438000	 30.2519
5.456000	 30.3035
5.474000	 30.4247
5.492000	 30.4253
5.510000	 30.599
5.528000	 30.7304
5.546000	 30.906
5.564000	 31.1892
5.582000	 31.3184
5.600000	 31.3603
5.618000	 31.3299
5.636000	 31.3653
5.654000	 31.4074
5.672000	 31.446
5.690000	 31.5096
5.708000	 31.623
5.726000	 31.7865
5.744000	 31.8575
5.762000	 31.8519
5.780000	 31.6956
5.798000	 31.654
5.816000	 31.7873
5.834000	 31.728
5.852000	 31.8503
5.870000	 32.2322
5.888000	 32.4674
5.906000	 32.2937
5.923999	 32.2268
5.942000	 32.2146
5.960000	 32.0588
5.978000	 31.9581
5.996000	 31.9301
6.014000	 31.9392
6.032000	 32.1746
6.050000	 32.4766
6.068000	 32.4529
6.086000	 32.3802
6.104000	 32.453
6.122000	 32.4038
6.140000	 32.2667
6.158000	 32.1595
6.176000	 32.0889
6.194000	 32.0682
6.212000	 32.0135
6.230000	 32.0272
6.248000	 32.1196
6.266000	 32.3325
6.284000	 32.4316
6.302000	 32.3889
6.320000	 32.3272
6.338000	 32.2813
6.356000	 32.1275
6.374000	 31.972
6.392000	 32.0581
6.410000	 32.3372
6.428000	 32.4776
6.446000	 32.4876
6.464000	 32.5622
6.482000	 32.7047
6.500000	 32.7414
6.518000	 32.5853
6.536000	 32.4204
6.554000	 32.3246
6.572000	 32.2153
6.590000	 32.0611
6.608000	 32.0062
6.626000	 32.1257
6.644000	 32.1957
6.662000	 32.1459
6.680000	 32.161
6.698000	 32.2769
6.716000	 32.3797
6.734000	 32.3544
6.752000	 32.2302
6.770000	 32.1232
6.788000	 32.0242
6.806000	 31.9032
6.824000	 31.8255
6.842000	 31.8435
6.860000	 31.9241
6.878000	 32.0034
6.896000	 32.0964
6.914000	 32.1841
6.932000	 32.1646
6.950000	 32.1074
6.968000	 32.133
6.986000	 32.1431
7.004000	 32.0525
7.022000	 31.9388
7.040000	 31.8468
7.058000	 31.7535
7.076000	 31.6472
7.094000	 31.5721
7.112000	 31.6125
7.130000	 31.7442
7.148000	 31.8636
7.166000	 31.947
7.184000	 32.011
7.202000	 32.0408
7.220000	 31.9978
7.238000	 31.8743
7.256000	 31.7495
7.274000	 31.6892
7.292000	 31.6602
7.310000	 31.6015
7.328000	 31.4997
7.346000	 31.4039
7.364000	 31.376
7.382000	 31.4138
7.400000	 31.4773
7.418000	 31.5534
7.436000	 31.6526
7.454000	 31.7748
7.472000	 31.8951
7.490000	 31.9793
7.508000	 32.0031
7.526000	 31.9516
7.544000	 31.8288
7.562000	 31.6629
7.580000	 31.4893
7.598000	 31.3447
7.616000	 31.2441
7.634000	 31.1711
7.652000	 31.1456
7.670000	 31.212
7.688000	 31.3396
7.706000	 31.4563
7.724000	 31.5513
7.742000	 31.6452
7.760000	 31.7306
7.778000	 31.7836
7.796000	 31.7718
7.814000	 31.6853
7.832000	 31.5764
7.850000	 31.488
7.868000	 31.3843
7.886000	 31.2364
7.904000	 31.0876
7.922000	 30.9825
7.940000	 30.9294
7.958000	 30.9383
7.976000	 31.0055
7.994000	 31.0891
8.012000	 31.159
8.030000	 31.2233
8.048000	 31.2936
8.065999	 31.3682
8.084000	 31.4415
8.102000	 31.504
8.120000	 31.5435
8.138000	 31.5528
8.155999	 31.5212
8.173999	 31.4374
8.192000	 31.3123
8.210000	 31.1811
8.228000	 31.0837
8.246000	 31.0356
8.263999	 31.0141
8.282000	 30.9762
8.300000	 30.9118
8.318000	 30.8616
8.336000	 30.8703
8.353999	 30.9369
8.372000	 31.0312
8.390000	 31.1331
8.408000	 31.2354
8.426000	 31.3228
8.443999	 31.3703
8.462000	 31.3625
8.480000	 31.3072
8.498000	 31.2286
8.516000	 31.1499
8.533999	 31.0852
8.552000	 31.04
8.570000	 31.0109
8.588000	 30.9821
8.606000	 30.9329
8.624000	 30.8567
8.641999	 30.7718
8.660000	 30.7093
8.678000	 30.6866
8.696000	 30.694
8.714000	 30.7095
8.731999	 30.7259
8.750000	 30.7653
8.768000	 30.8521
8.786000	 30.9757
8.804000	 31.0907
8.821999	 31.1565
8.840000	 31.1682
8.858000	 31.1542
8.876000	 31.1485
8.894000	 31.1554
8.911999	 31.1439
8.930000	 31.0832
8.948000	 30.9753
8.966000	 30.8467
8.984000	 30.7186
9.001999	 30.5942
9.020000	 30.4713
9.038000	 30.3575
9.056000	 30.2702
9.074000	 30.2231
9.092000	 30.2199
9.109999	 30.2541
9.128000	 30.3141
9.146000	 30.3902
9.164000	 30.476
9.182000	 30.5652
9.199999	 30.6498
9.218000	 30.7226
9.236000	 30.7798
9.254000	 30.8199
9.272000	 30.8424
9.289999	 30.8496
9.308000	 30.8455
9.326000	 30.83
9.344000	 30.79
9.362000	 30.7094
9.379999	 30.5911
9.398000	 30.4634
9.416000	 30.3558
9.434000	 30.273
9.452000	 30.1956
9.469999	 30.1064
9.488000	 30.0131
9.506000	 29.9429
9.524000	 29.9176
9.542000	 29.9362
9.560000	 29.9804
9.577999	 30.0314
9.596000	 30.0813
9.614000	 30.134
9.632000	 30.1973
9.650000	 30.2718
9.667999	 30.3485
9.686000	 30.4142
9.704000	 30.4616
9.722000	 30.4958
9.740000	 30.5301
9.757999	 30.5762
9.776000	 30.6355
9.794000	 30.6976
9.812000	 30.7447
9.830000	 30.7531
9.847999	 30.6973
9.866000	 30.5644
9.884000	 30.3691
9.902000	 30.1558
9.920000	 29.9796
9.937999	 29.876
9.956000	 29.8396
9.974000	 29.832
9.992000	 29.8105
10.01	29.7553
10.028	29.681
10.046	29.6219
10.064	29.6061
10.082	29.6387
10.1	29.7016
10.118	29.7664
10.136	29.8158
10.154	29.8513
10.172	29.8871
10.19	29.9375
10.208	30.0046
10.226	30.0779
10.244	30.1423
10.262	30.1855
10.28	30.2033
10.298	30.1983
10.316	30.1768
10.334	30.1437
10.352	30.1015
10.37	30.05
10.388	29.9875
10.406	29.9138
10.424	29.8312
10.442	29.7456
10.46	29.665
10.478	29.596
10.496	29.5393
10.514	29.4887
10.532	29.4333
10.55	29.3663
10.568	29.2896
10.586	29.2157
10.604	29.1603
10.622	29.1347
10.64	29.1379
10.658	29.1603
10.676	29.1907
10.694	29.2255
10.712	29.2696
10.73	29.3305
10.748	29.41
10.766	29.4995
10.784	29.5836
10.802	29.6452
10.82	29.6742
10.838	29.6698
10.856	29.6396
10.874	29.5967
10.892	29.5538
10.91	29.5219
10.928	29.5069
10.946	29.5086
10.964	29.52
10.982	29.5297
11	29.525
11.018	29.4957
11.036	29.4372
11.054	29.3498
11.072	29.2388
11.09	29.1143
11.108	28.9875
11.126	28.8706
11.144	28.7716
11.162	28.6929
11.18	28.632
11.198	28.5825
11.216	28.5378
11.234	28.4942
11.252	28.4526
11.27	28.4178
11.288	28.3968
11.306	28.3954
11.324	28.4182
11.342	28.4676
11.36	28.5431
11.378	28.6416
11.396	28.7565
11.414	28.8767
11.432	28.9876
11.45	29.0751
11.468	29.1264
11.486	29.135
11.504	29.1033
11.522	29.0421
11.54	28.9664
11.558	28.8938
11.576	28.8378
11.594	28.8032
11.612	28.7871
11.63	28.7795
11.648	28.7685
11.666	28.7439
11.684	28.6996
11.702	28.6354
11.72	28.5553
11.738	28.4647
11.756	28.3682
11.774	28.2693
11.792	28.1715
11.81	28.0781
11.828	27.993
11.846	27.9206
11.864	27.8638
11.882	27.8236
11.9	27.7986
11.918	27.7855
11.936	27.7799
11.954	27.7772
11.972	27.7735
11.99	27.7667
12.008	27.7566
12.026	27.746
12.044	27.7397
12.062	27.7444
12.08	27.7671
12.098	27.8116
12.116	27.8775
12.134	27.9583
12.152	28.0428
12.17	28.1188
12.188	28.1763
12.206	28.2104
12.224	28.2232
12.242	28.2212
12.26	28.2129
12.278	28.2059
12.296	28.2043
12.314	28.2082
12.332	28.2135
12.35	28.2143
12.368	28.2032
12.386	28.175
12.404	28.1274
12.422	28.0617
12.44	27.9828
12.458	27.8973
12.476	27.8124
12.494	27.7338
12.512	27.6647
12.53	27.6058
12.548	27.5553
12.566	27.51
12.584	27.4663
12.602	27.4209
12.62	27.372
12.638	27.3198
12.656	27.267
12.674	27.2178
12.692	27.1766
12.71	27.1477
12.728	27.1342
12.746	27.1365
12.764	27.1525
12.782	27.1784
12.8	27.2091
12.818	27.2396
12.836	27.2669
12.854	27.2896
12.872	27.3078
12.89	27.3232
12.908	27.3377
12.926	27.3531
12.944	27.37
12.962	27.3888
12.98	27.4092
12.998	27.4315
13.016	27.4561
13.034	27.4833
13.052	27.5129
13.07	27.5436
13.088	27.5723
13.106	27.5945
13.124	27.6055
13.142	27.6011
13.16	27.5789
13.178	27.5396
13.196	27.487
13.214	27.4269
13.232	27.366
13.25	27.3099
13.268	27.262
13.286	27.2225
13.304	27.1886
13.322	27.1556
13.34	27.1187
13.358	27.0738
13.376	27.0194
13.394	26.9568
13.412	26.8892
13.43	26.8213
13.448	26.7578
13.466	26.702
13.484	26.6554
13.502	26.6177
13.52	26.5874
13.538	26.5622
13.556	26.5406
13.574	26.5216
13.592	26.506
13.61	26.4944
13.628	26.4881
13.646	26.4879
13.664	26.4937
13.682	26.5038
13.7	26.5158
13.718	26.5266
13.736	26.5339
13.754	26.5358
13.772	26.5324
13.79	26.5253
13.808	26.5174
13.826	26.5125
13.844	26.5139
13.862	26.5241
13.88	26.5441
13.898	26.573
13.916	26.6083
13.934	26.6468
13.952	26.6848
13.97	26.7189
13.988	26.7466
14.006	26.7664
14.024	26.7779
14.042	26.7816
14.06	26.7783
14.078	26.7691
14.096	26.7543
14.114	26.7342
14.132	26.7087
14.15	26.6773
14.168	26.6397
14.186	26.5953
14.204	26.5442
14.222	26.4867
14.24	26.4231
14.258	26.3539
14.276	26.2799
14.294	26.2022
14.312	26.1219
14.33	26.0404
14.348	25.9595
14.366	25.881
14.384	25.807
14.402	25.7388
14.42	25.6775
14.438	25.6233
14.456	25.5758
14.474	25.5341
14.492	25.4965
14.51	25.4616
14.528	25.4279
14.546	25.3945
14.564	25.3611
14.582	25.3278
14.6	25.295
14.618	25.2635
14.636	25.2342
14.654	25.2078
14.672	25.1847
14.69	25.1652
14.708	25.1492
14.726	25.137
14.744	25.1291
14.762	25.1259
14.78	25.1285
14.798	25.1378
14.816	25.1546
14.834	25.1796
14.852	25.2127
14.87	25.2533
14.888	25.3001
14.906	25.3515
14.924	25.4051
14.942	25.4584
14.96	25.5087
14.978	25.554
14.996	25.5924
15.014	25.6225
15.032	25.6436
15.05	25.6557
15.068	25.6596
15.086	25.6563
15.104	25.6475
15.122	25.635
15.14	25.6209
15.158	25.6069
15.176	25.5941
15.194	25.5839
15.212	25.5764
15.23	25.5712
15.248	25.5674
15.266	25.5638
15.284	25.5585
15.302	25.5501
15.32	25.5375
15.338	25.52
15.356	25.4972
15.374	25.47
15.392	25.4395
15.41	25.4069
15.428	25.3734
15.446	25.3402
15.464	25.3075
15.482	25.275
15.5	25.2421
15.518	25.2072
15.536	25.1686
15.554	25.1249
15.572	25.0748
15.59	25.0172
15.608	24.9525
15.626	24.8812
15.644	24.8047
15.662	24.7253
15.68	24.645
15.698	24.5659
15.716	24.4905
15.734	24.4206
15.752	24.3572
15.77	24.301
15.788	24.2524
15.806	24.2115
15.824	24.178
15.842	24.1516
15.86	24.1323
15.878	24.1199
15.896	24.1143
15.914	24.1159
15.932	24.1244
15.95	24.1396
15.968	24.1612
15.986	24.1881
16.004	24.2194
16.022	24.254
16.04	24.2897
16.058	24.325
16.076	24.3586
16.094	24.3889
16.112	24.4152
16.13	24.4371
16.148	24.4544
16.166	24.4676
16.184	24.4775
16.202	24.4847
16.22	24.4905
16.238	24.4956
16.256	24.5008
16.274	24.5067
16.292	24.5133
16.31	24.5207
16.328	24.5283
16.346	24.5357
16.364	24.5425
16.382	24.548
16.4	24.5515
16.418	24.5526
16.436	24.551
16.454	24.5465
16.472	24.5391
16.49	24.5289
16.508	24.5159
16.526	24.5003
16.544	24.4823
16.562	24.4619
16.58	24.4394
16.598	24.4148
16.616	24.388
16.634	24.3586
16.652	24.3266
16.67	24.2917
16.688	24.2534
16.706	24.2115
16.724	24.1659
16.742	24.1164
16.76	24.0629
16.778	24.0057
16.796	23.9453
16.814	23.8825
16.832	23.8179
16.85	23.7531
16.868	23.6893
16.886	23.6276
16.904	23.5699
16.922	23.5171
16.94	23.4704
16.958	23.4309
16.976	23.3988
16.994	23.3743
17.012	23.3569
17.03	23.3463
17.048	23.341
17.066	23.3402
17.084	23.3425
17.102	23.3463
17.12	23.3507
17.138	23.3543
17.156	23.3565
17.174	23.3567
17.192	23.3548
17.21	23.3506
17.228	23.3443
17.246	23.3364
17.264	23.3271
17.282	23.3171
17.3	23.3066
17.318	23.296
17.336	23.2852
17.354	23.2743
17.372	23.2629
17.39	23.2508
17.408	23.2378
17.426	23.2235
17.444	23.2078
17.462	23.1906
17.48	23.1721
17.498	23.1528
17.516	23.1333
17.534	23.1144
17.552	23.0973
17.57	23.0824
17.588	23.0711
17.606	23.0636
17.624	23.0607
17.642	23.0623
17.66	23.0686
17.678	23.0786
17.696	23.0922
17.714	23.1081
17.732	23.1257
17.75	23.1442
17.768	23.1627
17.786	23.1806
17.804	23.1974
17.822	23.2132
17.84	23.2274
17.858	23.2404
17.876	23.2523
17.894	23.2629
17.912	23.2724
17.93	23.2806
17.948	23.2875
17.966	23.2924
17.984	23.2949
18.002	23.2942
18.02	23.2894
18.038	23.2801
18.056	23.2653
18.074	23.2448
18.092	23.2183
18.11	23.1859
18.128	23.148
18.146	23.105
18.164	23.0582
18.182	23.0083
18.2	22.9565
18.218	22.904
18.236	22.8516
18.254	22.8001
18.272	22.7498
18.29	22.7011
18.308	22.654
18.326	22.6079
18.344	22.5626
18.362	22.5173
18.38	22.4716
18.398	22.4245
18.416	22.3761
18.434	22.326
18.452	22.2743
18.47	22.2209
18.488	22.1663
18.506	22.1103
18.524	22.0537
18.542	21.9965
18.56	21.9393
18.578	21.8821
18.596	21.8255
18.614	21.7696
18.632	21.7144
18.65	21.6598
18.668	21.606
18.686	21.5531
18.704	21.5014
18.722	21.4509
18.74	21.4023
18.758	21.3557
18.776	21.3122
18.794	21.2718
18.812	21.2357
18.83	21.204
18.848	21.1777
18.866	21.1569
18.884	21.1423
18.902	21.1337
18.92	21.1317
18.938	21.1356
18.956	21.1453
18.974	21.16
18.992	21.1787
19.01	21.2005
19.028	21.2241
19.046	21.2488
19.064	21.273
19.082	21.296
19.1	21.3163
19.118	21.3335
19.136	21.3463
19.154	21.3547
19.172	21.3579
19.19	21.3563
19.208	21.35
19.226	21.3393
19.244	21.3251
19.262	21.3077
19.28	21.2889
19.298	21.269
19.316	21.2504
19.334	21.233
19.352	21.22
19.37	21.2111
19.388	21.2091
19.406	21.2139
19.424	21.2277
19.442	21.2505
19.46	21.2833
19.478	21.3265
19.496	21.3798
19.514	21.4436
19.532	21.5165
19.55	21.5985
19.568	21.6881
19.586	21.7838
19.604	21.8845
19.622	21.9878
19.64	22.0932
19.658	22.1969
19.676	22.2993
19.694	22.3966
19.712	22.4891
19.73	22.5736
19.748	22.6501
19.766	22.7164
19.784	22.7722
19.802	22.8166
19.82	22.8485
19.838	22.8683
19.856	22.8755
19.874	22.8703
19.892	22.8528
19.91	22.8231
19.928	22.782
19.946	22.7295
19.964	22.6668
19.982	22.594
20	22.5125
20.018	22.4229
20.036	22.3262
20.054	22.224
20.072	22.1164
20.09	22.0059
20.108	21.8922
20.126	21.7782
20.144	21.6637
20.162	21.5511
20.18	21.441
20.198	21.3344
20.216	21.2333
20.234	21.1374
20.252	21.0485
20.27	20.9664
20.288	20.8916
20.306	20.8242
20.324	20.7637
20.342	20.71
20.36	20.6625
20.378	20.6198
20.396	20.5819
20.414	20.5468
20.432	20.5147
20.45	20.4835
20.468	20.4524
20.486	20.4209
20.504	20.3877
20.522	20.3529
20.54	20.3157
20.558	20.2759
20.576	20.2342
20.594	20.1905
20.612	20.1454
20.63	20.1
20.648	20.0541
20.666	20.0101
20.684	19.9677
20.702	19.9283
20.72	19.8931
20.738	19.862
20.756	19.8365
20.774	19.8165
20.792	19.8019
20.81	19.7933
20.828	19.7899
20.846	19.7911
20.864	19.7971
20.882	19.8058
20.9	19.8178
20.918	19.8312
20.936	19.8451
20.954	19.8595
20.972	19.8722
20.99	19.8836
21.008	19.8927
21.026	19.899
21.044	19.9027
21.062	19.9034
21.08	19.9013
21.098	19.8972
21.116	19.8908
21.134	19.8829
21.152	19.8745
21.17	19.8654
21.188	19.8568
21.206	19.849
21.224	19.8421
21.242	19.8369
21.26	19.8332
21.278	19.8308
21.296	19.8299
21.314	19.8299
21.332	19.83
21.35	19.8304
21.368	19.8294
21.386	19.8268
21.404	19.8221
21.422	19.8135
21.44	19.8017
21.458	19.7852
21.476	19.7633
21.494	19.7365
21.512	19.7042
21.53	19.6662
21.548	19.6235
21.566	19.5765
21.584	19.5252
21.602	19.4723
21.62	19.417
21.638	19.3612
21.656	19.307
21.674	19.2536
21.692	19.2038
21.71	19.1583
21.728	19.1171
21.746	19.0826
21.764	19.0542
21.782	19.0326
21.8	19.0185
21.818	19.0117
21.836	19.0115
21.854	19.0182
21.872	19.031
21.89	19.0483
21.908	19.0708
21.926	19.0966
21.944	19.1243
21.962	19.1544
21.98	19.1845
21.998	19.2145
22.016	19.2439
22.034	19.2709
22.052	19.2959
22.07	19.3184
22.088	19.3378
22.106	19.3543
22.124	19.3684
22.142	19.3798
22.16	19.389
22.178	19.3971
22.196	19.4037
22.214	19.4098
22.232	19.4165
22.25	19.4233
22.268	19.4312
22.286	19.4408
22.304	19.4518
22.322	19.4644
22.34	19.4787
22.358	19.4946
22.376	19.5114
22.394	19.5295
22.412	19.5483
22.43	19.5668
22.448	19.5857
22.466	19.6034
22.484	19.6189
22.502	19.633
22.52	19.6433
22.538	19.649
22.556	19.6506
22.574	19.6465
22.592	19.6367
22.61	19.6211
22.628	19.5987
22.646	19.57
22.664	19.5343
22.682	19.4905
22.7	19.4394
22.718	19.3798
22.736	19.3107
22.754	19.2328
22.772	19.1451
22.79	19.0466
22.808	18.9379
22.826	18.8182
22.844	18.6871
22.862	18.5449
22.88	18.3918
22.898	18.2277
22.916	18.0527
22.934	17.8688
22.952	17.6758
22.97	17.4739
22.988	17.2666
23.006	17.0538
23.024	16.8358
23.042	16.6176
23.06	16.3987
23.078	16.1798
23.096	15.9668
23.114	15.759
23.132	15.5571
23.15	15.3667
23.168	15.187
23.186	15.0186
23.204	14.8661
23.222	14.7294
23.24	14.6081
23.258	14.5042
23.276	14.4187
23.294	14.3501
23.312	14.2967
23.33	14.2597
23.348	14.2375
23.366	14.2261
23.384	14.2266
23.402	14.2378
23.42	14.2544
23.438	14.277
23.456	14.3051
23.474	14.3333
23.492	14.3615
23.51	14.39
23.528	14.4135
23.546	14.4304
23.564	14.4423
23.582	14.447
23.6	14.443
23.618	14.4315
23.636	14.4131
23.654	14.3875
23.672	14.3541
23.69	14.3175
23.708	14.2797
23.726	14.2383
23.744	14.1988
23.762	14.166
23.78	14.1354
23.798	14.1137
23.816	14.1083
23.834	14.1146
23.852	14.1373
23.87	14.1843
23.888	14.253
23.906	14.3448
23.924	14.4662
23.942	14.6177
23.96	14.7978
23.978	15.0088
23.996	15.2525
24.014	15.5275
24.032	15.8316
24.05	16.1647
24.068	16.5285
24.086	16.9165
24.104	17.3229
24.122	17.7532
24.14	18.2
24.158	18.6532
24.176	19.1182
24.194	19.5905
24.212	20.0567
24.23	20.5168
24.248	20.9732
24.266	21.4114
24.284	21.824
24.302	22.219
24.32	22.5849
24.338	22.9101
24.356	23.2019
24.374	23.4551
24.392	23.6603
24.41	23.8179
24.428	23.9298
24.446	23.9928
24.464	24.0051
24.482	23.9682
24.5	23.8834
24.518	23.7509
24.536	23.5673
24.554	23.3399
24.572	23.0779
24.59	22.775
24.608	22.4357
24.626	22.077
24.644	21.704
24.662	21.3069
24.68	20.9065
24.698	20.5209
24.716	20.1359
24.734	19.7635
24.752	19.4251
24.77	19.1201
24.788	18.8435
24.806	18.614
24.824	18.4442
24.842	18.3226
24.86	18.2583
24.878	18.2638
24.896	18.3375
24.914	18.477
24.932	18.6855
24.95	18.9666
24.968	19.3197
24.986	19.738
25.004	20.2154
25.022	20.759
25.04	21.3622
25.058	22.0104
25.076	22.6997
25.094	23.4391
25.112	24.2107
25.13	24.9968
25.148	25.809
25.166	26.6405
25.184	27.472
25.202	28.2955
25.22	29.123
25.238	29.9394
25.256	30.7286
25.274	31.4968
25.292	32.2435
25.31	32.9588
25.328	33.6363
25.346	34.2816
25.364	34.8927
25.382	35.4667
25.4	36.0021
25.418	36.5012
25.436	36.9667
25.454	37.4005
25.472	37.7992
25.49	38.1672
25.508	38.5102
25.526	38.829
25.544	39.1213
25.562	39.391
25.58	39.6423
25.598	39.8746
25.616	40.0869
25.634	40.2791
25.652	40.4519
25.67	40.6067
25.688	40.7401
25.706	40.8485
25.724	40.934
25.742	40.9974
25.76	41.0312
25.778	41.0283
25.796	40.994
25.814	40.9263
25.832	40.8183
25.85	40.6662
25.868	40.4759
25.886	40.2423
25.904	39.9591
25.922	39.6238
25.94	39.2402
25.958	38.8075
25.976	38.325
25.994	37.7922
26.012	37.2103
26.03	36.5802
26.048	35.9024
26.066	35.1751
26.084	34.4008
26.102	33.5835
26.12	32.7258
26.138	31.8246
26.156	30.8827
26.174	29.9037
26.192	28.889
26.21	27.8364
26.228	26.7483
26.246	25.6272
26.264	24.473
26.282	23.2847
26.3	22.0649
26.318	20.8156
26.336	19.5351
26.354	18.2241
26.372	16.8862
26.39	15.5247
26.408	14.135
26.426	12.7202
26.444	11.2874
26.462	9.842073
26.48	8.375922
26.498	6.895203
26.516	5.410500
26.534	3.928398
26.552	2.436602
26.57	0.945865
26.588	-0.528696
26.606	-1.979156
26.624	-3.421483
26.642	-4.841170
26.66	-6.219712
26.678	-7.548251
26.696	-8.843927
26.714	-10.0924
26.732	-11.2763
26.75	-12.3873
26.768	-13.4402
26.786	-14.4247
26.804	-15.3288
26.822	-16.1459
26.84	-16.885
26.858	-17.5434
26.876	-18.1174
26.894	-18.6027
26.912	-18.9997
26.93	-19.3158
26.948	-19.5591
26.966	-19.7237
26.984	-19.7887
27.002	-19.796
27.02	-19.7911
27.028	-19.7958