File: Bakgrunnsmateriale/MATLAB/FTIR/ftir_data/LPE453/Mapping_121/LPE453_t67.asc
PE IR       SPECTRUM    SPECTRUM    ASCII       PEDS        1.60
  -1
LPDBA5~1.ASC
17/05/16
19:55:04.00
17/05/16
19:55:30.00
tln
$LPE453_t0067$<tbV0>[13.0,2.6,8.0,0.0,27,1,0]
27.028
64

2002,4.07
MIRTGS : RIGHTBACK : INTERNAL 2
MIR : ON : INTERNAL 2
OPTKBR

0.200000
8
8.000000
FILLER
RATIO
SPECTRUM
UNLOCKED 256

DOUBLE
64
COMBINED
1
0
0

0.002000
RATIO

1
0
TRUE
51149
0
LEFT NOT FITTED RIGHT NOT FITTED 0
NONE
NONE
15600
12
4.427000
51148
TRUE
1 0 8 72 0 0 0 0

15798

#HDR
-1
-1
#GR
µM
%T
2.38419e-05
0.0
2.000000
0.002000
12515
8
45.5575
-1.372530
#DATA
2.000000	 0.182485
2.018000	 -0.277631
2.036000	 -0.474234
2.054000	 0.337498
2.072000	 0.199237
2.090000	 0.158658
2.108000	 -0.074954
2.126000	 -0.619096
2.144000	 1.306695
2.162000	 1.471336
2.180000	 -0.055087
2.198000	 0.226648
2.216000	 0.001950
2.234000	 2.480624
2.252000	 0.074917
2.270000	 -0.772766
2.288000	 0.385710
2.306000	 0.477414
2.324000	 0.154612
2.342000	 0.055166
2.360000	 0.462862
2.378000	 0.368899
2.396000	 0.056752
2.414000	 0.159628
2.432000	 0.033556
2.450000	 0.207226
2.468000	 0.114781
2.486000	 0.140600
2.504000	 -0.075819
2.522000	 -0.120621
2.540000	 0.268448
2.558000	 0.008535
2.576000	 0.147719
2.594000	 0.170428
2.612000	 0.197788
2.630000	 0.055826
2.648000	 -0.084080
2.666000	 0.108862
2.684000	 0.050305
2.702000	 -0.118752
2.720000	 0.151592
2.738000	 0.053168
2.756000	 0.021478
2.774000	 0.035047
2.792000	 0.035943
2.810000	 0.164937
2.828000	 0.127523
2.846000	 0.170818
2.864000	 -0.032255
2.882000	 0.008615
2.900000	 -0.021426
2.918000	 0.084315
2.936000	 0.089048
2.954000	 0.073838
2.972000	 0.117535
2.990000	 0.132052
3.008000	 -0.003544
3.026000	 0.038536
3.044000	 0.088692
3.062000	 0.211313
3.080000	 0.005862
3.098000	 -0.083596
3.116000	 0.259721
3.134000	 -0.062950
3.152000	 0.006474
3.170000	 -0.053380
3.188000	 0.198862
3.206000	 0.194755
3.224000	 -0.127374
3.242000	 0.195313
3.260000	 0.048443
3.278000	 0.217087
3.296000	 0.011042
3.314000	 0.100496
3.332000	 0.059161
3.350000	 0.087052
3.368000	 0.025271
3.386000	 0.010311
3.404000	 0.072517
3.422000	 0.045254
3.440000	 0.092628
3.458000	 0.031826
3.476000	 0.176988
3.494000	 -0.015143
3.512000	 0.170485
3.530000	 0.011879
3.548000	 0.058570
3.566000	 0.169924
3.584000	 0.131020
3.602000	 0.114726
3.620000	 -0.025578
3.638000	 0.002395
3.656000	 -0.079737
3.674000	 -0.039087
3.692000	 0.062981
3.710000	 0.004368
3.728000	 0.029268
3.746000	 0.093647
3.764000	 0.060721
3.782000	 0.056591
3.800000	 0.175796
3.818000	 0.111516
3.836000	 0.026822
3.854000	 -0.047849
3.872000	 0.058423
3.890000	 0.067514
3.908000	 -0.134989
3.926000	 -0.028353
3.944000	 -0.000155
3.962000	 0.015557
3.980000	 -0.047607
3.998000	 0.077559
4.016000	 0.149765
4.034000	 -0.042204
4.052000	 0.021793
4.070000	 0.092247
4.088000	 0.001112
4.106000	 0.062952
4.124000	 0.221481
4.141999	 0.021317
4.160000	 -0.065278
4.178000	 -0.038770
4.196000	 0.034610
4.214000	 0.099697
4.232000	 0.079235
4.250000	 -0.076214
4.268000	 0.059866
4.286000	 0.049430
4.304000	 0.034575
4.322000	 -0.028995
4.340000	 -0.029044
4.358000	 0.056001
4.375999	 0.060069
4.394000	 0.054593
4.412000	 0.162440
4.430000	 0.123155
4.448000	 0.191213
4.466000	 0.247394
4.484000	 0.374402
4.502000	 0.426650
4.520000	 0.471661
4.538000	 0.749760
4.556000	 0.948598
4.574000	 1.173764
4.592000	 1.292397
4.609999	 1.578587
4.628000	 1.905620
4.646000	 2.214282
4.664000	 2.632097
4.682000	 3.098215
4.700000	 3.506343
4.718000	 4.091606
4.736000	 4.586415
4.754000	 5.035153
4.772000	 5.609584
4.790000	 6.054473
4.808000	 6.495388
4.826000	 7.228356
4.843999	 7.870837
4.862000	 8.488106
4.880000	 8.919676
4.898000	 9.468060
4.916000	 10.0475
4.934000	 10.5619
4.952000	 10.9437
4.970000	 11.3786
4.988000	 11.9536
5.006000	 12.498
5.024000	 12.8796
5.042000	 13.2278
5.060000	 13.6658
5.077999	 14.0075
5.096000	 14.3771
5.114000	 14.8048
5.132000	 15.1614
5.150000	 15.371
5.168000	 15.605
5.186000	 16.0409
5.204000	 16.4481
5.222000	 16.6326
5.240000	 16.661
5.258000	 16.8909
5.276000	 17.1773
5.294000	 17.4432
5.312000	 17.7638
5.330000	 17.9497
5.348000	 17.9337
5.366000	 18.0423
5.384000	 18.2997
5.402000	 18.5059
5.420000	 18.7491
5.438000	 18.9223
5.456000	 18.9059
5.474000	 18.85
5.492000	 18.9637
5.510000	 19.2842
5.528000	 19.5093
5.546000	 19.4586
5.564000	 19.3807
5.582000	 19.388
5.600000	 19.5066
5.618000	 19.6548
5.636000	 19.8682
5.654000	 20.0413
5.672000	 19.9532
5.690000	 19.9009
5.708000	 19.9787
5.726000	 20.0017
5.744000	 20.0361
5.762000	 20.2442
5.780000	 20.3773
5.798000	 20.3045
5.816000	 20.2726
5.834000	 20.2627
5.852000	 20.2659
5.870000	 20.338
5.888000	 20.5442
5.906000	 20.6313
5.923999	 20.6173
5.942000	 20.6372
5.960000	 20.5605
5.978000	 20.4834
5.996000	 20.4753
6.014000	 20.6648
6.032000	 20.8245
6.050000	 20.919
6.068000	 20.937
6.086000	 20.7963
6.104000	 20.7055
6.122000	 20.673
6.140000	 20.6931
6.158000	 20.8125
6.176000	 20.9314
6.194000	 21.004
6.212000	 21.0924
6.230000	 21.1258
6.248000	 21.0184
6.266000	 20.8788
6.284000	 20.8314
6.302000	 20.924
6.320000	 21.0343
6.338000	 21.1485
6.356000	 21.2386
6.374000	 21.1524
6.392000	 21.0861
6.410000	 21.0278
6.428000	 20.8803
6.446000	 20.8273
6.464000	 20.9069
6.482000	 21.0025
6.500000	 21.1476
6.518000	 21.3059
6.536000	 21.3446
6.554000	 21.308
6.572000	 21.231
6.590000	 21.1098
6.608000	 21.0225
6.626000	 20.994
6.644000	 21.0056
6.662000	 21.0243
6.680000	 21.0181
6.698000	 21.0069
6.716000	 21.0172
6.734000	 21.0264
6.752000	 20.9824
6.770000	 20.9056
6.788000	 20.8903
6.806000	 20.942
6.824000	 21.0094
6.842000	 21.0765
6.860000	 21.1352
6.878000	 21.1396
6.896000	 21.0264
6.914000	 20.8919
6.932000	 20.8581
6.950000	 20.8585
6.968000	 20.8369
6.986000	 20.8375
7.004000	 20.8779
7.022000	 20.9686
7.040000	 21.1009
7.058000	 21.1967
7.076000	 21.1992
7.094000	 21.1166
7.112000	 20.999
7.130000	 20.9374
7.148000	 20.9239
7.166000	 20.8604
7.184000	 20.7935
7.202000	 20.8439
7.220000	 20.9794
7.238000	 21.0815
7.256000	 21.1002
7.274000	 21.0784
7.292000	 21.0759
7.310000	 21.0792
7.328000	 21.0337
7.346000	 20.9268
7.364000	 20.802
7.382000	 20.7192
7.400000	 20.6819
7.418000	 20.6617
7.436000	 20.697
7.454000	 20.8328
7.472000	 21.0085
7.490000	 21.1276
7.508000	 21.1641
7.526000	 21.1336
7.544000	 21.0481
7.562000	 20.9454
7.580000	 20.8657
7.598000	 20.79
7.616000	 20.699
7.634000	 20.6521
7.652000	 20.7025
7.670000	 20.804
7.688000	 20.8755
7.706000	 20.9006
7.724000	 20.918
7.742000	 20.9503
7.760000	 20.9771
7.778000	 20.9655
7.796000	 20.8998
7.814000	 20.7905
7.832000	 20.6831
7.850000	 20.6324
7.868000	 20.6439
7.886000	 20.6815
7.904000	 20.7256
7.922000	 20.781
7.940000	 20.8405
7.958000	 20.8895
7.976000	 20.9239
7.994000	 20.9368
8.012000	 20.9122
8.030000	 20.8489
8.048000	 20.7671
8.065999	 20.6853
8.084000	 20.6101
8.102000	 20.5518
8.120000	 20.5243
8.138000	 20.5338
8.155999	 20.5844
8.173999	 20.6732
8.192000	 20.7729
8.210000	 20.8423
8.228000	 20.8613
8.246000	 20.8412
8.263999	 20.7965
8.282000	 20.7251
8.300000	 20.628
8.318000	 20.5289
8.336000	 20.4521
8.353999	 20.3901
8.372000	 20.3199
8.390000	 20.2538
8.408000	 20.2341
8.426000	 20.2762
8.443999	 20.3517
8.462000	 20.4327
8.480000	 20.5257
8.498000	 20.6454
8.516000	 20.7743
8.533999	 20.8664
8.552000	 20.8779
8.570000	 20.7998
8.588000	 20.6672
8.606000	 20.5333
8.624000	 20.428
8.641999	 20.3419
8.660000	 20.2541
8.678000	 20.1681
8.696000	 20.113
8.714000	 20.1092
8.731999	 20.1454
8.750000	 20.1936
8.768000	 20.243
8.786000	 20.3107
8.804000	 20.4084
8.821999	 20.5126
8.840000	 20.5795
8.858000	 20.5877
8.876000	 20.5489
8.894000	 20.4808
8.911999	 20.3877
8.930000	 20.2712
8.948000	 20.1493
8.966000	 20.0477
8.984000	 19.9805
9.001999	 19.946
9.020000	 19.9414
9.038000	 19.9682
9.056000	 20.0258
9.074000	 20.1019
9.092000	 20.1794
9.109999	 20.2499
9.128000	 20.317
9.146000	 20.3819
9.164000	 20.4295
9.182000	 20.4322
9.199999	 20.373
9.218000	 20.2628
9.236000	 20.1375
9.254000	 20.0331
9.272000	 19.9666
9.289999	 19.9328
9.308000	 19.9162
9.326000	 19.9006
9.344000	 19.8751
9.362000	 19.8346
9.379999	 19.7871
9.398000	 19.7536
9.416000	 19.759
9.434000	 19.8136
9.452000	 19.9028
9.469999	 19.9902
9.488000	 20.0361
9.506000	 20.0221
9.524000	 19.962
9.542000	 19.8892
9.560000	 19.831
9.577999	 19.7935
9.596000	 19.7644
9.614000	 19.7264
9.632000	 19.6671
9.650000	 19.5853
9.667999	 19.4919
9.686000	 19.4082
9.704000	 19.3581
9.722000	 19.3548
9.740000	 19.3903
9.757999	 19.4394
9.776000	 19.4734
9.794000	 19.4816
9.812000	 19.4779
9.830000	 19.4907
9.847999	 19.5413
9.866000	 19.6274
9.884000	 19.723
9.902000	 19.7941
9.920000	 19.8184
9.937999	 19.7981
9.956000	 19.7554
9.974000	 19.7153
9.992000	 19.6869
10.01	19.6594
10.028	19.6096
10.046	19.5226
10.064	19.4034
10.082	19.2723
10.1	19.1512
10.118	19.0491
10.136	18.9649
10.154	18.898
10.172	18.8572
10.19	18.8573
10.208	18.9046
10.226	18.9896
10.244	19.0885
10.262	19.1762
10.28	19.2409
10.298	19.2846
10.316	19.3169
10.334	19.3437
10.352	19.3631
10.37	19.3687
10.388	19.3544
10.406	19.3212
10.424	19.2749
10.442	19.2238
10.46	19.1722
10.478	19.1182
10.496	19.0571
10.514	18.9871
10.532	18.9135
10.55	18.8489
10.568	18.8071
10.586	18.7982
10.604	18.825
10.622	18.8806
10.64	18.9538
10.658	19.0316
10.676	19.1013
10.694	19.1543
10.712	19.186
10.73	19.1977
10.748	19.1954
10.766	19.1852
10.784	19.1702
10.802	19.148
10.82	19.1127
10.838	19.0586
10.856	18.9825
10.874	18.8857
10.892	18.7748
10.91	18.6611
10.928	18.5573
10.946	18.4761
10.964	18.4247
10.982	18.4042
11	18.4102
11.018	18.4347
11.036	18.4699
11.054	18.5099
11.072	18.5498
11.09	18.5849
11.108	18.6103
11.126	18.6223
11.144	18.6213
11.162	18.6128
11.18	18.6054
11.198	18.6066
11.216	18.6186
11.234	18.637
11.252	18.6523
11.27	18.6543
11.288	18.6345
11.306	18.5906
11.324	18.5255
11.342	18.4463
11.36	18.3621
11.378	18.2821
11.396	18.2131
11.414	18.1592
11.432	18.1205
11.45	18.0931
11.468	18.0703
11.486	18.0451
11.504	18.0122
11.522	17.9703
11.54	17.9229
11.558	17.8762
11.576	17.8387
11.594	17.8175
11.612	17.8161
11.63	17.8341
11.648	17.8669
11.666	17.9069
11.684	17.9463
11.702	17.9798
11.72	18.005
11.738	18.0234
11.756	18.0394
11.774	18.0585
11.792	18.0844
11.81	18.1181
11.828	18.157
11.846	18.1945
11.864	18.2225
11.882	18.2331
11.9	18.22
11.918	18.1804
11.936	18.1157
11.954	18.0307
11.972	17.9332
11.99	17.832
12.008	17.7348
12.026	17.6468
12.044	17.5707
12.062	17.5059
12.08	17.4502
12.098	17.4007
12.116	17.3563
12.134	17.3178
12.152	17.2876
12.17	17.2688
12.188	17.2639
12.206	17.2731
12.224	17.2946
12.242	17.3255
12.26	17.362
12.278	17.4007
12.296	17.4388
12.314	17.4742
12.332	17.5048
12.35	17.5286
12.368	17.5437
12.386	17.5486
12.404	17.5428
12.422	17.5267
12.44	17.503
12.458	17.4751
12.476	17.4467
12.494	17.422
12.512	17.4037
12.53	17.3926
12.548	17.3871
12.566	17.384
12.584	17.3789
12.602	17.367
12.62	17.3444
12.638	17.309
12.656	17.2608
12.674	17.2023
12.692	17.1378
12.71	17.073
12.728	17.0138
12.746	16.9652
12.764	16.9302
12.782	16.9094
12.8	16.9011
12.818	16.902
12.836	16.9083
12.854	16.9166
12.872	16.9245
12.89	16.9308
12.908	16.935
12.926	16.9366
12.944	16.9344
12.962	16.9264
12.98	16.9101
12.998	16.883
13.016	16.8441
13.034	16.7942
13.052	16.7365
13.07	16.6764
13.088	16.6197
13.106	16.5717
13.124	16.5362
13.142	16.5153
13.16	16.509
13.178	16.5163
13.196	16.5355
13.214	16.565
13.232	16.6031
13.25	16.648
13.268	16.6971
13.286	16.7466
13.304	16.7919
13.322	16.8272
13.34	16.847
13.358	16.8467
13.376	16.824
13.394	16.7791
13.412	16.7151
13.43	16.638
13.448	16.5553
13.466	16.475
13.484	16.4052
13.502	16.3524
13.52	16.3213
13.538	16.314
13.556	16.3296
13.574	16.3646
13.592	16.4131
13.61	16.4676
13.628	16.5199
13.646	16.5624
13.664	16.5894
13.682	16.5973
13.7	16.5858
13.718	16.5567
13.736	16.514
13.754	16.4629
13.772	16.4081
13.79	16.3539
13.808	16.303
13.826	16.2565
13.844	16.2142
13.862	16.1755
13.88	16.1395
13.898	16.1056
13.916	16.0735
13.934	16.0435
13.952	16.0157
13.97	15.9902
13.988	15.9662
14.006	15.9425
14.024	15.9169
14.042	15.8875
14.06	15.8529
14.078	15.8121
14.096	15.7655
14.114	15.7143
14.132	15.661
14.15	15.6083
14.168	15.5592
14.186	15.5162
14.204	15.481
14.222	15.454
14.24	15.4346
14.258	15.4214
14.276	15.4126
14.294	15.4059
14.312	15.3997
14.33	15.3927
14.348	15.3845
14.366	15.3749
14.384	15.3643
14.402	15.3529
14.42	15.3409
14.438	15.3283
14.456	15.315
14.474	15.301
14.492	15.2865
14.51	15.2721
14.528	15.2588
14.546	15.2479
14.564	15.2408
14.582	15.2384
14.6	15.2415
14.618	15.25
14.636	15.2628
14.654	15.2781
14.672	15.2938
14.69	15.3077
14.708	15.3176
14.726	15.3215
14.744	15.3181
14.762	15.3069
14.78	15.2884
14.798	15.2635
14.816	15.2332
14.834	15.1988
14.852	15.162
14.87	15.1241
14.888	15.0864
14.906	15.05
14.924	15.0156
14.942	14.9842
14.96	14.956
14.978	14.9309
14.996	14.9086
15.014	14.8882
15.032	14.8683
15.05	14.8474
15.068	14.8244
15.086	14.7984
15.104	14.7685
15.122	14.7348
15.14	14.6978
15.158	14.659
15.176	14.6201
15.194	14.5828
15.212	14.5493
15.23	14.5212
15.248	14.4999
15.266	14.4864
15.284	14.4813
15.302	14.4843
15.32	14.495
15.338	14.5129
15.356	14.537
15.374	14.566
15.392	14.5988
15.41	14.6343
15.428	14.6713
15.446	14.7083
15.464	14.7443
15.482	14.7779
15.5	14.808
15.518	14.8332
15.536	14.8525
15.554	14.8653
15.572	14.8712
15.59	14.87
15.608	14.8618
15.626	14.8467
15.644	14.8248
15.662	14.7967
15.68	14.7626
15.698	14.7224
15.716	14.676
15.734	14.623
15.752	14.5634
15.77	14.4973
15.788	14.4249
15.806	14.347
15.824	14.2646
15.842	14.1792
15.86	14.0932
15.878	14.0089
15.896	13.9283
15.914	13.8541
15.932	13.7881
15.95	13.7313
15.968	13.6849
15.986	13.6484
16.004	13.6213
16.022	13.6026
16.04	13.5902
16.058	13.5825
16.076	13.578
16.094	13.575
16.112	13.5727
16.13	13.5707
16.148	13.5683
16.166	13.5661
16.184	13.5643
16.202	13.5631
16.22	13.5636
16.238	13.5656
16.256	13.5692
16.274	13.5745
16.292	13.5817
16.31	13.5907
16.328	13.6022
16.346	13.6165
16.364	13.6341
16.382	13.6557
16.4	13.6822
16.418	13.7139
16.436	13.7512
16.454	13.7938
16.472	13.8414
16.49	13.8924
16.508	13.945
16.526	13.9976
16.544	14.0473
16.562	14.0922
16.58	14.1306
16.598	14.1602
16.616	14.1805
16.634	14.1907
16.652	14.1913
16.67	14.1836
16.688	14.1684
16.706	14.1481
16.724	14.1241
16.742	14.098
16.76	14.0716
16.778	14.0455
16.796	14.0207
16.814	13.9973
16.832	13.9754
16.85	13.9543
16.868	13.9338
16.886	13.9134
16.904	13.8923
16.922	13.8702
16.94	13.8469
16.958	13.822
16.976	13.7955
16.994	13.7673
17.012	13.7373
17.03	13.7056
17.048	13.6719
17.066	13.6364
17.084	13.5989
17.102	13.5594
17.12	13.5178
17.138	13.4744
17.156	13.4295
17.174	13.3835
17.192	13.3374
17.21	13.2916
17.228	13.2473
17.246	13.2054
17.264	13.1666
17.282	13.1323
17.3	13.1029
17.318	13.079
17.336	13.0605
17.354	13.0476
17.372	13.0397
17.39	13.0365
17.408	13.0369
17.426	13.04
17.444	13.045
17.462	13.05
17.48	13.0545
17.498	13.0569
17.516	13.0562
17.534	13.0518
17.552	13.0423
17.57	13.0276
17.588	13.0068
17.606	12.9801
17.624	12.947
17.642	12.9082
17.66	12.8641
17.678	12.8159
17.696	12.7641
17.714	12.7107
17.732	12.6572
17.75	12.6049
17.768	12.5562
17.786	12.512
17.804	12.4748
17.822	12.445
17.84	12.4244
17.858	12.413
17.876	12.4115
17.894	12.4189
17.912	12.4353
17.93	12.4584
17.948	12.4877
17.966	12.5201
17.984	12.5546
18.002	12.5881
18.02	12.6189
18.038	12.6453
18.056	12.6654
18.074	12.6784
18.092	12.683
18.11	12.6793
18.128	12.667
18.146	12.6467
18.164	12.6192
18.182	12.5856
18.2	12.5472
18.218	12.5056
18.236	12.4615
18.254	12.4169
18.272	12.3722
18.29	12.329
18.308	12.2875
18.326	12.2488
18.344	12.2127
18.362	12.1798
18.38	12.15
18.398	12.123
18.416	12.0989
18.434	12.0774
18.452	12.0584
18.47	12.0417
18.488	12.0272
18.506	12.0148
18.524	12.0044
18.542	11.9959
18.56	11.989
18.578	11.9836
18.596	11.9792
18.614	11.9757
18.632	11.9722
18.65	11.9685
18.668	11.9637
18.686	11.9576
18.704	11.949
18.722	11.9378
18.74	11.9233
18.758	11.9056
18.776	11.8842
18.794	11.8597
18.812	11.8325
18.83	11.8031
18.848	11.7725
18.866	11.7416
18.884	11.7119
18.902	11.6844
18.92	11.6608
18.938	11.6419
18.956	11.6295
18.974	11.6237
18.992	11.6258
19.01	11.6357
19.028	11.6537
19.046	11.6793
19.064	11.7121
19.082	11.751
19.1	11.7948
19.118	11.8423
19.136	11.8915
19.154	11.9416
19.172	11.9902
19.19	12.0368
19.208	12.079
19.226	12.1168
19.244	12.1486
19.262	12.1746
19.28	12.1944
19.298	12.208
19.316	12.2157
19.334	12.2178
19.352	12.2153
19.37	12.2081
19.388	12.1981
19.406	12.1853
19.424	12.1713
19.442	12.1562
19.46	12.1411
19.478	12.1262
19.496	12.1116
19.514	12.0976
19.532	12.0841
19.55	12.0715
19.568	12.059
19.586	12.0465
19.604	12.0335
19.622	12.0195
19.64	12.0042
19.658	11.9867
19.676	11.9668
19.694	11.9439
19.712	11.9179
19.73	11.8883
19.748	11.8551
19.766	11.8182
19.784	11.7777
19.802	11.7339
19.82	11.6867
19.838	11.6366
19.856	11.584
19.874	11.5289
19.892	11.4723
19.91	11.4142
19.928	11.3557
19.946	11.2968
19.964	11.2385
19.982	11.1811
20	11.1251
20.018	11.0711
20.036	11.0195
20.054	10.9709
20.072	10.9255
20.09	10.8844
20.108	10.8474
20.126	10.8158
20.144	10.7893
20.162	10.769
20.18	10.7553
20.198	10.7484
20.216	10.7493
20.234	10.7578
20.252	10.7751
20.27	10.801
20.288	10.8359
20.306	10.8799
20.324	10.9328
20.342	10.9948
20.36	11.0655
20.378	11.144
20.396	11.2305
20.414	11.3232
20.432	11.4225
20.45	11.526
20.468	11.6332
20.486	11.7428
20.504	11.8523
20.522	11.9622
20.54	12.0692
20.558	12.1736
20.576	12.2733
20.594	12.367
20.612	12.4547
20.63	12.5346
20.648	12.607
20.666	12.6707
20.684	12.7257
20.702	12.772
20.72	12.8094
20.738	12.8383
20.756	12.8587
20.774	12.8705
20.792	12.8749
20.81	12.8721
20.828	12.8622
20.846	12.8457
20.864	12.8226
20.882	12.7935
20.9	12.7585
20.918	12.7174
20.936	12.6704
20.954	12.6174
20.972	12.5587
20.99	12.4942
21.008	12.4242
21.026	12.3485
21.044	12.2674
21.062	12.1817
21.08	12.091
21.098	11.997
21.116	11.8995
21.134	11.7998
21.152	11.6998
21.17	11.5989
21.188	11.5004
21.206	11.4044
21.224	11.3122
21.242	11.2268
21.26	11.1472
21.278	11.0764
21.296	11.0148
21.314	10.9628
21.332	10.9222
21.35	10.8925
21.368	10.8737
21.386	10.8665
21.404	10.8697
21.422	10.8821
21.44	10.9045
21.458	10.9336
21.476	10.9687
21.494	11.0094
21.512	11.0514
21.53	11.096
21.548	11.1399
21.566	11.1805
21.584	11.2188
21.602	11.2512
21.62	11.2779
21.638	11.2981
21.656	11.3098
21.674	11.3136
21.692	11.3096
21.71	11.2973
21.728	11.2773
21.746	11.2512
21.764	11.218
21.782	11.1802
21.8	11.1393
21.818	11.0947
21.836	11.0496
21.854	11.0041
21.872	10.959
21.89	10.9172
21.908	10.8777
21.926	10.8421
21.944	10.8118
21.962	10.786
21.98	10.7659
21.998	10.7516
22.016	10.7427
22.034	10.7392
22.052	10.7412
22.07	10.7479
22.088	10.7584
22.106	10.7732
22.124	10.7906
22.142	10.8105
22.16	10.8326
22.178	10.8553
22.196	10.8789
22.214	10.9029
22.232	10.9262
22.25	10.9492
22.268	10.9713
22.286	10.992
22.304	11.0115
22.322	11.0294
22.34	11.0456
22.358	11.0602
22.376	11.0728
22.394	11.0836
22.412	11.0923
22.43	11.0988
22.448	11.1032
22.466	11.1054
22.484	11.1051
22.502	11.1026
22.52	11.0978
22.538	11.0907
22.556	11.0812
22.574	11.0696
22.592	11.0558
22.61	11.0399
22.628	11.0225
22.646	11.0032
22.664	10.9825
22.682	10.9612
22.7	10.939
22.718	10.9166
22.736	10.8949
22.754	10.8735
22.772	10.8531
22.79	10.8347
22.808	10.8177
22.826	10.8029
22.844	10.7908
22.862	10.781
22.88	10.7741
22.898	10.7704
22.916	10.7697
22.934	10.772
22.952	10.7776
22.97	10.7863
22.988	10.7971
23.006	10.8103
23.024	10.8257
23.042	10.8422
23.06	10.8598
23.078	10.8783
23.096	10.8966
23.114	10.9145
23.132	10.9321
23.15	10.9485
23.168	10.9637
23.186	10.9777
23.204	10.9901
23.222	11.0006
23.24	11.0096
23.258	11.0177
23.276	11.0245
23.294	11.0304
23.312	11.0362
23.33	11.0416
23.348	11.0469
23.366	11.0539
23.384	11.0619
23.402	11.0715
23.42	11.0851
23.438	11.1026
23.456	11.1239
23.474	11.1504
23.492	11.1829
23.51	11.2205
23.528	11.263
23.546	11.3107
23.564	11.3633
23.582	11.4195
23.6	11.479
23.618	11.5421
23.636	11.6071
23.654	11.6735
23.672	11.742
23.69	11.8098
23.708	11.8752
23.726	11.9399
23.744	12.0006
23.762	12.0544
23.78	12.1035
23.798	12.1453
23.816	12.177
23.834	12.1998
23.852	12.2128
23.87	12.2137
23.888	12.203
23.906	12.1806
23.924	12.146
23.942	12.0987
23.96	12.0392
23.978	11.9683
23.996	11.8859
24.014	11.7919
24.032	11.6884
24.05	11.5766
24.068	11.4552
24.086	11.3267
24.104	11.1934
24.122	11.0539
24.14	10.9096
24.158	10.7629
24.176	10.6132
24.194	10.4607
24.212	10.3068
24.23	10.1516
24.248	9.994765
24.266	9.837858
24.284	9.681671
24.302	9.525442
24.32	9.370017
24.338	9.216310
24.356	9.064256
24.374	8.913364
24.392	8.763207
24.41	8.613901
24.428	8.465407
24.446	8.317316
24.464	8.169258
24.482	8.021393
24.5	7.874238
24.518	7.728050
24.536	7.581973
24.554	7.437470
24.572	7.296398
24.59	7.158052
24.608	7.022690
24.626	6.892302
24.644	6.767158
24.662	6.645972
24.68	6.532336
24.698	6.429594
24.716	6.336164
24.734	6.252457
24.752	6.179983
24.77	6.117572
24.788	6.065462
24.806	6.027743
24.824	6.006813
24.842	5.999360
24.86	6.009546
24.878	6.042412
24.896	6.094826
24.914	6.168301
24.932	6.269871
24.95	6.402873
24.968	6.562762
24.986	6.754793
25.004	6.984606
25.022	7.249299
25.04	7.549772
25.058	7.890570
25.076	8.274043
25.094	8.697588
25.112	9.162173
25.13	9.669068
25.148	10.22
25.166	10.812
25.184	11.4405
25.202	12.1054
25.22	12.8105
25.238	13.5451
25.256	14.2989
25.274	15.0796
25.292	15.8826
25.31	16.693
25.328	17.5034
25.346	18.325
25.364	19.1441
25.382	19.9447
25.4	20.7327
25.418	21.5085
25.436	22.2559
25.454	22.963
25.472	23.6417
25.49	24.2834
25.508	24.8751
25.526	25.4147
25.544	25.9086
25.562	26.3479
25.58	26.7242
25.598	27.0401
25.616	27.2972
25.634	27.4935
25.652	27.627
25.67	27.6977
25.688	27.7095
25.706	27.6665
25.724	27.5652
25.742	27.4057
25.76	27.1999
25.778	26.9584
25.796	26.6673
25.814	26.3373
25.832	25.9908
25.85	25.6404
25.868	25.2651
25.886	24.8872
25.904	24.5343
25.922	24.2081
25.94	23.8925
25.958	23.6184
25.976	23.4168
25.994	23.2758
26.012	23.1925
26.03	23.1904
26.048	23.2899
26.066	23.478
26.084	23.7565
26.102	24.1353
26.12	24.6236
26.138	25.2197
26.156	25.9135
26.174	26.6948
26.192	27.5669
26.21	28.5393
26.228	29.5839
26.246	30.6714
26.264	31.8131
26.282	33.0176
26.3	34.2421
26.318	35.4448
26.336	36.6513
26.354	37.8596
26.372	39.0246
26.39	40.1051
26.408	41.1335
26.426	42.1001
26.444	42.9663
26.462	43.7
26.48	44.3264
26.498	44.8399
26.516	45.2215
26.534	45.4562
26.552	45.554
26.57	45.5174
26.588	45.3457
26.606	45.0356
26.624	44.5814
26.642	43.9978
26.66	43.3012
26.678	42.4972
26.696	41.5672
26.714	40.535
26.732	39.4282
26.75	38.2576
26.768	36.9974
26.786	35.6743
26.804	34.3191
26.822	32.9436
26.84	31.5211
26.858	30.0764
26.876	28.6376
26.894	27.217
26.912	25.7906
26.93	24.3771
26.948	22.9984
26.966	21.6182
26.984	20.1484
27.002	18.7775
27.02	17.7118
27.028	17.4229