File: Bakgrunnsmateriale/MATLAB/FTIR/ftir_data/LPE453/Mapping_121/LPE453_t25_cm-1.asc
PE IR       SPECTRUM    SPECTRUM    ASCII       PEDS        1.60
  -1
LP68DB~1.ASC
17/05/16
16:26:29.00
17/05/16
16:26:29.00
tln
$LPE453_t0025$<tbV0>[7.8,-7.8,8.0,0.0,27,1,0]
370
64

2002,4.07
MIRTGS : RIGHTBACK : INTERNAL 2
MIR : ON : INTERNAL 2
OPTKBR

0.200000
8
8.000000
FILLER
RATIO
SPECTRUM
UNLOCKED 256

DOUBLE
64
COMBINED
1
0
0

1.000000
RATIO

1
0
TRUE
51149
0
LEFT NOT FITTED RIGHT NOT FITTED 0
NONE
NONE
15600
12
4.427000
51148
TRUE
1 0 8 72 0 0 0 0

15798

#HDR
-1
-1
#GR
CM-1
%T
2.38419e-05
0.0
5000
-1.000000
4631
8
64.823
-4.008865
#DATA
5000	0.300812
4996	0.327205
4992	0.092935
4988	-0.135850
4984	-0.236034
4980	-0.185585
4976	-0.033617
4972	0.458359
4968	1.077556
4964	0.967192
4960	0.471353
4956	0.363540
4952	0.468277
4948	0.390577
4944	0.124454
4940	-0.047349
4936	-0.136995
4932	-0.259709
4928	-0.300407
4924	-0.102901
4920	0.271296
4916	0.476908
4912	0.305104
4908	-0.086593
4904	-0.166606
4900	0.096273
4896	0.025939
4892	-0.212836
4888	0.041222
4884	0.666737
4880	1.050329
4876	0.651693
4872	-0.105428
4868	-0.521016
4864	-0.443935
4860	-0.026440
4856	0.234317
4852	0.206971
4848	0.063943
4844	0.024890
4840	0.171327
4836	0.345683
4832	0.270462
4828	0.007987
4824	-0.081443
4820	-0.099730
4816	-0.059342
4812	0.095748
4808	0.156855
4804	0.275778
4800	0.420761
4796	0.268554
4792	0.044465
4788	-0.055146
4784	-0.104999
4780	-0.057220
4776	0.005412
4772	-0.080084
4768	-0.123548
4764	-0.044775
4760	0.014257
4756	0.157070
4752	0.335192
4748	0.371551
4744	0.361299
4740	0.194287
4736	-0.160384
4732	-0.331664
4728	-0.130391
4724	0.132060
4720	0.211811
4716	0.084066
4712	-0.063037
4708	0.038337
4704	0.120425
4700	-0.100636
4696	-0.213766
4692	0.095963
4688	0.516462
4684	0.866150
4680	1.006555
4676	0.713062
4672	0.230360
4668	-0.182390
4664	-0.227236
4660	0.175428
4656	0.280904
4652	0.042676
4648	0.225567
4644	0.729727
4640	0.939488
4636	0.767588
4632	0.484132
4628	0.327348
4624	0.406622
4620	0.449156
4616	0.044894
4612	-0.306367
4608	-0.176835
4604	0.013875
4600	0.074148
4596	0.110220
4592	0.249457
4588	0.294899
4584	0.143980
4580	0.080084
4576	0.090956
4572	-0.170660
4568	-0.240731
4564	0.087881
4560	0.275182
4556	0.326704
4552	0.774884
4548	1.339244
4544	1.578688
4540	1.348686
4536	1.197052
4532	1.495313
4528	1.375174
4524	1.725530
4520	3.691816
4516	6.413531
4512	5.530810
4508	0.902652
4504	-1.222038
4500	-3.100991
4496	-3.737115
4492	-0.573897
4488	1.375007
4484	0.683140
4480	-0.791931
4476	-1.129150
4472	-0.525784
4468	-0.262546
4464	0.004220
4460	0.566315
4456	0.819206
4452	0.809717
4448	0.908374
4444	0.700640
4440	0.160431
4436	-0.122666
4432	-0.038838
4428	-0.036168
4424	-0.287818
4420	-0.354409
4416	-0.304460
4412	-0.356364
4408	-0.293374
4404	-0.084662
4400	0.146651
4396	0.292706
4392	0.370597
4388	0.338983
4384	0.181937
4380	0.046801
4376	0.050330
4372	0.240373
4368	0.519824
4364	0.571131
4360	0.305604
4356	0.101113
4352	-0.031971
4348	-0.164365
4344	-0.170183
4340	-0.224566
4336	-0.167918
4332	0.181889
4328	0.363945
4324	0.266695
4320	0.127315
4316	0.047230
4312	0.041508
4308	-0.024437
4304	-0.075340
4300	-0.121259
4296	-0.172948
4292	-0.129508
4288	-0.036787
4284	0.121045
4280	0.243091
4276	0.170445
4272	0.068807
4268	0.171065
4264	0.393509
4260	0.417304
4256	0.156450
4252	-0.087118
4248	-0.085401
4244	0.078129
4240	0.185632
4236	0.141620
4232	0.036859
4228	-0.079178
4224	-0.189065
4220	-0.176525
4216	-0.175404
4212	-0.101757
4208	0.093626
4204	0.142812
4200	0.207304
4196	0.257396
4192	0.096416
4188	0.110244
4184	0.356435
4180	0.264406
4176	-0.438046
4172	-0.998330
4168	-0.620365
4164	-0.005316
4160	0.143671
4156	0.189638
4152	0.190377
4148	0.115919
4144	0.140309
4140	0.193667
4136	0.197792
4132	0.177836
4128	0.162148
4124	0.165390
4120	0.142335
4116	0.035905
4112	-0.057482
4108	-0.072598
4104	-0.107264
4100	-0.181388
4096	-0.206708
4092	-0.178647
4088	-0.142765
4084	-0.014233
4080	0.227236
4076	0.364351
4072	0.280976
4068	0.132989
4064	0.034070
4060	-0.018715
4056	-0.016331
4052	0.074481
4048	0.112605
4044	0.012207
4040	-0.062131
4036	-0.027298
4032	-0.006675
4028	-0.097751
4024	-0.127696
4020	-0.114631
4016	-0.103616
4012	0.044298
4008	0.103831
4004	0.073719
4000	0.182509
3996	0.311255
3992	0.321102
3988	0.115084
3984	-0.194168
3980	-0.206875
3976	0.067639
3972	0.220537
3968	0.183582
3964	0.189614
3960	0.248694
3956	0.227594
3952	0.102782
3948	0.019073
3944	0.018095
3940	0.002360
3936	-0.041913
3932	-0.091385
3928	-0.071620
3924	-0.002694
3920	-0.037455
3916	-0.169038
3912	-0.171303
3908	-0.011444
3904	0.027775
3900	-0.087571
3896	-0.172495
3892	-0.182628
3888	-0.081062
3884	0.060033
3880	0.163912
3876	0.254392
3872	0.279450
3868	0.184845
3864	0.072836
3860	0.084137
3856	0.129771
3852	0.026702
3848	-0.094819
3844	-0.048518
3840	0.055694
3836	0.121235
3832	0.122570
3828	0.056791
3824	0.069737
3820	0.170755
3816	0.195837
3812	0.188779
3808	0.238347
3804	0.281834
3800	0.248527
3796	0.098991
3792	-0.070786
3788	-0.102329
3784	-0.054979
3780	-0.063443
3776	-0.094032
3772	-0.050330
3768	0.058341
3764	0.123763
3760	0.092577
3756	0.057315
3752	0.047397
3748	0.028753
3744	0.084400
3740	0.132346
3736	0.048494
3732	-0.027871
3728	-0.003886
3724	0.024652
3720	-0.004267
3716	0.013208
3712	0.105428
3708	0.170969
3704	0.200295
3700	0.200176
3696	0.131845
3692	0.046563
3688	0.037288
3684	0.065970
3680	0.082898
3676	0.068068
3672	0.024557
3668	-0.004291
3664	-0.001621
3660	0.017690
3656	-0.009012
3652	-0.091123
3648	-0.138807
3644	-0.072622
3640	0.033998
3636	0.060606
3632	0.063943
3628	0.057744
3624	-0.001430
3620	0.005769
3616	0.097775
3612	0.140523
3608	0.125455
3604	0.047683
3600	-0.058150
3596	-0.045013
3592	0.013375
3588	-0.001335
3584	-0.013422
3580	-0.014877
3576	-0.044584
3572	-0.072669
3568	-0.044798
3564	0.130891
3560	0.343394
3556	0.346803
3552	0.205039
3548	0.117158
3544	0.081777
3540	0.031304
3536	-0.009512
3532	-0.033044
3528	-0.060820
3524	-0.076723
3520	-0.019812
3516	0.053596
3512	0.026488
3508	0.020766
3504	0.124764
3500	0.195789
3496	0.150251
3492	0.079321
3488	0.093579
3484	0.101232
3480	-0.043869
3476	-0.118565
3472	0.011014
3468	0.077033
3464	0.091290
3460	0.131678
3456	0.088143
3452	-0.014114
3448	-0.029206
3444	0.018501
3440	0.002431
3436	-0.019574
3432	0.023651
3428	0.065255
3424	0.038552
3420	0.024151
3416	0.015878
3412	-0.046324
3408	-0.085139
3404	-0.011682
3400	0.112509
3396	0.084733
3392	-0.038766
3388	-0.074577
3384	-0.014114
3380	0.093746
3376	0.123739
3372	0.038933
3368	0.012588
3364	0.047612
3360	0.060868
3356	0.085139
3352	0.082159
3348	0.006866
3344	-0.031518
3340	0.043153
3336	0.108218
3332	0.113201
3328	0.114631
3324	0.165653
3320	0.273847
3316	0.284218
3312	0.180578
3308	0.071668
3304	-0.021123
3300	-0.021910
3296	0.035834
3292	0.041770
3288	0.036263
3284	0.043678
3280	-0.015592
3276	-0.063323
3272	-0.050306
3268	-0.095915
3264	-0.076770
3260	0.020146
3256	0.002217
3252	-0.052475
3248	-0.020098
3244	0.063753
3240	0.141692
3236	0.157546
3232	0.124382
3228	0.077629
3224	0.058126
3220	0.098037
3216	0.140166
3212	0.161671
3208	0.146484
3204	0.093126
3200	0.042057
3196	0.016522
3192	0.058770
3188	0.109601
3184	0.125360
3180	0.108909
3176	0.002741
3172	-0.041103
3168	0.093364
3164	0.153756
3160	0.041651
3156	-0.040030
3152	-0.003910
3148	0.037550
3144	0.074911
3140	0.155234
3136	0.085377
3132	-0.135302
3128	-0.183558
3124	0.006461
3120	0.116729
3116	0.063157
3112	0.022625
3108	0.020170
3104	0.068378
3100	0.136089
3096	0.158643
3092	0.181722
3088	0.137996
3084	-0.000238
3080	-0.090909
3076	-0.080823
3072	-0.033044
3068	-0.010657
3064	-0.006222
3060	-0.031781
3056	-0.111770
3052	-0.163412
3048	-0.123357
3044	-0.033593
3040	0.008678
3036	0.025916
3032	0.151729
3028	0.256037
3024	0.199747
3020	0.143289
3016	0.140452
3012	0.138139
3008	0.103712
3004	0.063085
3000	0.095987
2996	0.131011
2992	0.110173
2988	0.081086
2984	0.050878
2980	-0.015401
2976	-0.075721
2972	-0.079751
2968	-0.058197
2964	-0.036716
2960	-0.026297
2956	-0.031328
2952	-0.010800
2948	0.074219
2944	0.154590
2940	0.168728
2936	0.083374
2932	-0.071382
2928	-0.114822
2924	-0.043916
2920	-0.030732
2916	-0.051712
2912	-0.047159
2908	-0.033187
2904	0.043416
2900	0.140118
2896	0.176262
2892	0.186085
2888	0.115180
2884	-0.003719
2880	-0.034856
2876	-0.008630
2872	0.017595
2868	0.071668
2864	0.083732
2860	0.029516
2856	0.036668
2852	0.077342
2848	0.058746
2844	-0.004553
2840	-0.054621
2836	-0.055932
2832	-0.018787
2828	0.063586
2824	0.168967
2820	0.208282
2816	0.172710
2812	0.162506
2808	0.169634
2804	0.116086
2800	0.071978
2796	0.100421
2792	0.113224
2788	0.094866
2784	0.111722
2780	0.090408
2776	0.006699
2772	-0.004243
2768	0.057291
2764	0.095844
2760	0.082063
2756	0.027275
2752	-0.041532
2748	-0.086736
2744	-0.033521
2740	0.069093
2736	0.109505
2732	0.122880
2728	0.082206
2724	0.012993
2720	0.014877
2716	0.031304
2712	0.027418
2708	0.030565
2704	0.053477
2700	0.059127
2696	-0.028491
2692	-0.136947
2688	-0.100255
2684	0.013756
2680	0.086283
2676	0.119400
2672	0.108408
2668	0.064468
2664	0.034976
2660	0.047612
2656	0.043201
2652	-0.005006
2648	-0.023007
2644	0.008606
2640	0.075912
2636	0.146532
2632	0.170373
2628	0.183582
2624	0.165867
2620	0.074458
2616	0.003218
2612	0.006532
2608	0.053739
2604	0.119853
2600	0.159406
2596	0.146460
2592	0.118446
2588	0.061917
2584	0.021195
2580	-0.000596
2576	-0.022912
2572	0.008296
2568	0.049471
2564	0.021839
2560	-0.036334
2556	-0.037693
2552	0.000667
2548	0.024604
2544	0.028061
2540	-0.000786
2536	0.003671
2532	0.046896
2528	0.078916
2524	0.067973
2520	0.008702
2516	-0.005435
2512	0.029659
2508	0.104045
2504	0.101113
2500	0.005817
2496	0.071430
2492	0.194287
2488	0.129294
2484	-0.037026
2480	-0.123071
2476	-0.090312
2472	0.025248
2468	0.119757
2464	0.099349
2460	0.078678
2456	0.094556
2452	0.060820
2448	0.015592
2444	0.005578
2440	0.046229
2436	0.101184
2432	0.109577
2428	0.122451
2424	0.197553
2420	0.231409
2416	0.149798
2412	0.112581
2408	0.148749
2404	0.033307
2400	-0.142574
2396	-0.175809
2392	-0.112557
2388	-0.056076
2384	-0.018167
2380	0.005960
2376	0.000572
2372	-0.010299
2368	-0.006413
2364	-0.011944
2360	-0.059771
2356	-0.129103
2352	-0.145387
2348	-0.091981
2344	-0.017762
2340	0.031876
2336	0.037479
2332	0.017380
2328	0.042128
2324	0.076675
2320	0.055932
2316	0.045466
2312	0.022912
2308	-0.037813
2304	-0.027966
2300	0.059366
2296	0.109457
2292	0.079059
2288	0.021123
2284	-0.002312
2280	0.027275
2276	0.093626
2272	0.129437
2268	0.121688
2264	0.145792
2260	0.221419
2256	0.319218
2252	0.338149
2248	0.285887
2244	0.350999
2240	0.520706
2236	0.596499
2232	0.567841
2228	0.599503
2224	0.728607
2220	0.836563
2216	0.871348
2212	0.948190
2208	1.096820
2204	1.192760
2200	1.321148
2196	1.539826
2192	1.710152
2188	1.845145
2184	1.998877
2180	2.163171
2176	2.377796
2172	2.625393
2168	2.849984
2164	3.043174
2160	3.190374
2156	3.338766
2152	3.585338
2148	3.927135
2144	4.253792
2140	4.512953
2136	4.808950
2132	5.201292
2128	5.627465
2124	6.023263
2120	6.357789
2116	6.686735
2112	7.053065
2108	7.393932
2104	7.754278
2100	8.183813
2096	8.550858
2092	8.902668
2088	9.375691
2084	9.884667
2080	10.352
2076	10.8195
2072	11.2583
2068	11.5911
2064	11.8706
2060	12.2128
2056	12.6307
2052	13.0772
2048	13.4876
2044	13.8667
2040	14.3082
2036	14.7255
2032	15.042
2028	15.4194
2024	15.9154
2020	16.3879
2016	16.734
2012	16.9933
2008	17.2674
2004	17.609
2000	17.9923
1996	18.3014
1992	18.5642
1988	18.9008
1984	19.2495
1980	19.5673
1976	19.8882
1972	20.2153
1968	20.5448
1964	20.8412
1960	21.0693
1956	21.288
1952	21.5581
1948	21.8145
1944	21.9997
1940	22.1575
1936	22.3874
1932	22.693
1928	22.9584
1924	23.1616
1920	23.3273
1916	23.4824
1912	23.6686
1908	23.8312
1904	23.9396
1900	24.0649
1896	24.2378
1892	24.4213
1888	24.6077
1884	24.7792
1880	24.883
1876	24.9796
1872	25.1103
1868	25.2191
1864	25.3638
1860	25.5808
1856	25.7388
1852	25.7798
1848	25.8245
1844	25.9286
1840	26.0347
1836	26.121
1832	26.1961
1828	26.2796
1824	26.3779
1820	26.4673
1816	26.5304
1812	26.585
1808	26.6791
1804	26.7639
1800	26.7521
1796	26.7321
1792	26.8063
1788	26.9265
1784	26.995
1780	27.0225
1776	27.0815
1772	27.1249
1768	27.1223
1764	27.1738
1760	27.278
1756	27.3253
1752	27.3354
1748	27.3662
1744	27.4154
1740	27.4425
1736	27.4386
1732	27.4666
1728	27.4862
1724	27.4574
1720	27.4799
1716	27.5555
1712	27.5854
1708	27.5854
1704	27.5951
1700	27.6047
1696	27.5998
1692	27.5931
1688	27.6152
1684	27.6376
1680	27.6323
1676	27.6162
1672	27.5987
1668	27.641
1664	27.7518
1660	27.8163
1656	27.7956
1652	27.7896
1648	27.8582
1644	27.8744
1640	27.7982
1636	27.7743
1632	27.7783
1628	27.7018
1624	27.6094
1620	27.632
1616	27.758
1612	27.8429
1608	27.8704
1604	27.8466
1600	27.7706
1596	27.7562
1592	27.7842
1588	27.777
1584	27.7438
1580	27.6703
1576	27.6139
1572	27.6927
1568	27.8157
1564	27.8249
1560	27.8141
1556	27.8444
1552	27.8289
1548	27.7993
1544	27.7565
1540	27.7077
1536	27.7057
1532	27.7135
1528	27.7124
1524	27.7174
1520	27.7604
1516	27.815
1512	27.8056
1508	27.7071
1504	27.6008
1500	27.5327
1496	27.5127
1492	27.6043
1488	27.6907
1484	27.6679
1480	27.6213
1476	27.5964
1472	27.5664
1468	27.5501
1464	27.598
1460	27.668
1456	27.6808
1452	27.6454
1448	27.5654
1444	27.4876
1440	27.4606
1436	27.4733
1432	27.5109
1428	27.4863
1424	27.3355
1420	27.167
1416	27.1786
1412	27.28
1408	27.3142
1404	27.3131
1400	27.2641
1396	27.2332
1392	27.2737
1388	27.3093
1384	27.2284
1380	27.07
1376	27.0398
1372	27.0799
1368	27.0411
1364	27.0422
1360	27.1258
1356	27.1685
1352	27.1436
1348	27.0809
1344	27.0195
1340	27.0332
1336	27.0737
1332	27.0427
1328	26.9952
1324	26.9602
1320	26.9384
1316	26.9505
1312	26.9508
1308	26.9256
1304	26.8831
1300	26.8704
1296	26.9155
1292	26.8765
1288	26.7351
1284	26.6888
1280	26.7596
1276	26.8126
1272	26.7843
1268	26.7106
1264	26.6567
1260	26.6522
1256	26.6659
1252	26.6856
1248	26.7212
1244	26.7026
1240	26.6048
1236	26.5415
1232	26.5743
1228	26.5933
1224	26.5709
1220	26.5613
1216	26.5438
1212	26.5042
1208	26.4271
1204	26.361
1200	26.3514
1196	26.3705
1192	26.3789
1188	26.3474
1184	26.3094
1180	26.266
1176	26.1921
1172	26.176
1168	26.2203
1164	26.1756
1160	26.0697
1156	26.052
1152	26.0646
1148	26.0567
1144	26.1364
1140	26.2945
1136	26.3577
1132	26.2146
1128	26.0283
1124	25.9652
1120	25.9523
1116	25.8856
1112	25.7993
1108	25.7854
1104	25.823
1100	25.878
1096	25.9125
1092	25.8443
1088	25.6752
1084	25.5635
1080	25.6163
1076	25.685
1072	25.6166
1068	25.4904
1064	25.386
1060	25.2702
1056	25.1892
1052	25.1894
1048	25.1407
1044	25.0247
1040	25.0625
1036	25.2377
1032	25.331
1028	25.2411
1024	25.0156
1020	24.8815
1016	24.9005
1012	24.8152
1008	24.6725
1004	24.6979
1000	24.8293
996	 24.8897
992	 24.8395
988	 24.8259
984	 24.8731
980	 24.8165
976	 24.6828
972	 24.674
968	 24.7396
964	 24.7143
960	 24.5749
956	 24.3876
952	 24.292
948	 24.3094
944	 24.34
940	 24.2978
936	 24.1961
932	 24.144
928	 24.0907
924	 24.0415
920	 24.0789
916	 24.0457
912	 23.9026
908	 23.7469
904	 23.5964
900	 23.5505
896	 23.5871
892	 23.5502
888	 23.4639
884	 23.3772
880	 23.2785
876	 23.1899
872	 23.1409
868	 23.1205
864	 23.0929
860	 23.0377
856	 22.955
852	 22.9153
848	 22.8948
844	 22.8469
840	 22.8834
836	 23.0002
832	 22.9388
828	 22.6555
824	 22.4738
820	 22.4558
816	 22.4236
812	 22.3919
808	 22.3489
804	 22.1759
800	 21.9716
796	 21.9012
792	 21.8596
788	 21.7954
784	 21.7246
780	 21.6411
776	 21.5787
772	 21.5194
768	 21.3848
764	 21.2796
760	 21.294
756	 21.2163
752	 21.1322
748	 21.1283
744	 21.1886
740	 21.4309
736	 21.5029
732	 21.109
728	 20.6691
724	 20.5743
720	 20.595
716	 20.5268
712	 20.4473
708	 20.288
704	 20.0607
700	 20.001
696	 20.1286
692	 20.2178
688	 20.1774
684	 20.0128
680	 19.7581
676	 19.5325
672	 19.3612
668	 19.2858
664	 19.3049
660	 19.2035
656	 19.0703
652	 19.0376
648	 18.9523
644	 18.8776
640	 18.9472
636	 18.8822
632	 18.4922
628	 18.1097
624	 18.0392
620	 18.2028
616	 18.3107
612	 18.3317
608	 18.4466
604	 18.4282
600	 18.0861
596	 17.8376
592	 17.7609
588	 17.5809
584	 17.495
580	 17.3907
576	 16.9305
572	 16.6253
568	 16.6818
564	 16.6396
560	 16.5093
556	 16.4788
552	 16.5731
548	 16.6384
544	 16.4706
540	 16.2772
536	 16.1606
532	 15.9197
528	 15.7488
524	 15.7279
520	 15.7252
516	 15.7858
512	 15.7938
508	 15.8569
504	 15.9048
500	 15.7922
496	 15.2864
492	 13.9369
488	 13.041
484	 13.773
480	 14.4643
476	 13.8769
472	 13.4337
468	 13.6079
464	 13.2405
460	 13.0082
456	 13.8845
452	 14.7887
448	 14.4574
444	 13.7298
440	 13.5892
436	 13.7861
432	 15.3898
428	 17.8785
424	 17.5623
420	 14.7734
416	 12.3376
412	 10.5
408	 11.6489
404	 15.5427
400	 18.5424
396	 18.7147
392	 15.3003
388	 11.4334
384	 9.929251
380	 20.9704
376	 47.6914
372	 64.823
370	 62.5605