File: Bakgrunnsmateriale/MATLAB/FTIR/ftir_data/LPE453/Mapping_121/LPE453_t71_cm-1.asc
PE IR       SPECTRUM    SPECTRUM    ASCII       PEDS        1.60
  -1
LPDAD0~1.ASC
17/05/16
20:13:31.00
17/05/16
20:13:31.00
tln
$LPE453_t0071$<tbV0>[2.6,2.6,8.0,0.0,27,1,0]
370
64

2002,4.07
MIRTGS : RIGHTBACK : INTERNAL 2
MIR : ON : INTERNAL 2
OPTKBR

0.200000
8
8.000000
FILLER
RATIO
SPECTRUM
UNLOCKED 256

DOUBLE
64
COMBINED
1
0
0

1.000000
RATIO

1
0
TRUE
51149
0
LEFT NOT FITTED RIGHT NOT FITTED 0
NONE
NONE
15600
12
4.427000
51148
TRUE
1 0 8 72 0 0 0 0

15798

#HDR
-1
-1
#GR
CM-1
%T
2.38419e-05
0.0
5000
-1.000000
4631
8
29.7876
-31.8484
#DATA
5000	0.293374
4996	0.208401
4992	0.292921
4988	0.655746
4984	0.726199
4980	0.547409
4976	0.449180
4972	0.097417
4968	-0.336074
4964	-0.676012
4960	-0.729393
4956	-0.069427
4952	0.548768
4948	0.494003
4944	0.120902
4940	-0.157833
4936	0.035762
4932	0.302910
4928	0.205063
4924	0.000667
4920	-0.058770
4916	0.219249
4912	0.485467
4908	0.492286
4904	0.365591
4900	0.196599
4896	0.028800
4892	-0.028395
4888	0.053143
4884	0.197124
4880	0.303316
4876	0.268030
4872	0.167298
4868	0.291728
4864	0.242710
4860	-0.068402
4856	-0.168299
4852	-0.042510
4848	0.161314
4844	0.491786
4840	0.692653
4836	0.623345
4832	0.241494
4828	-0.150132
4824	0.043201
4820	0.386381
4816	0.381708
4812	0.311875
4808	0.350570
4804	0.479817
4800	0.473713
4796	0.278377
4792	0.125217
4788	-0.071859
4784	-0.194978
4780	-0.125670
4776	-0.044894
4772	0.142002
4768	0.223946
4764	-0.056123
4760	-0.359702
4756	-0.289678
4752	0.048494
4748	0.072431
4744	-0.079178
4740	-0.105118
4736	-0.052618
4732	-0.323629
4728	-0.607728
4724	-0.251102
4720	0.350832
4716	0.718212
4712	0.647354
4708	0.623393
4704	0.958657
4700	1.321840
4696	2.230930
4692	3.344559
4688	2.956366
4684	1.030969
4680	-0.038528
4676	0.082659
4672	0.368762
4668	1.021766
4664	1.480317
4660	1.680374
4656	1.729679
4652	1.374578
4648	1.146793
4644	1.189899
4640	0.964617
4636	0.509238
4632	0.368523
4628	0.683093
4624	1.029372
4620	1.008129
4616	0.667262
4612	0.365853
4608	0.284242
4604	0.410652
4600	0.340461
4596	-0.146317
4592	-0.496602
4588	-0.343966
4584	0.212502
4580	0.607132
4576	0.629115
4572	0.574278
4568	0.461030
4564	0.426959
4560	0.341081
4556	0.038290
4552	0.034689
4548	0.124096
4544	-0.044655
4540	-0.223040
4536	-0.419449
4532	-0.653553
4528	-0.656580
4524	-0.611400
4520	-0.649046
4516	-0.517344
4512	-0.058007
4508	0.115227
4504	-0.131249
4500	-0.221514
4496	-0.708556
4492	5.806255
4488	20.8035
4484	21.4851
4480	8.405399
4476	1.497626
4472	0.066542
4468	-0.801062
4464	-1.340508
4460	-1.268196
4456	-1.336789
4452	-1.403641
4448	-1.225924
4444	-1.240134
4440	-1.230144
4436	-0.980567
4432	-0.562715
4428	-0.348520
4424	-0.361323
4420	-0.225138
4416	0.119757
4412	0.264692
4408	0.266957
4404	0.518345
4400	0.601005
4396	0.488615
4392	0.663852
4388	0.938510
4384	0.902295
4380	0.727415
4376	0.637936
4372	0.611710
4368	0.645828
4364	0.648522
4360	0.646805
4356	0.697302
4352	0.691199
4348	0.508904
4344	0.330996
4340	0.374960
4336	0.376462
4332	0.287055
4328	0.252723
4324	0.175070
4320	0.004291
4316	-0.163221
4312	-0.064563
4308	0.392818
4304	0.643157
4300	0.279140
4296	-0.023508
4292	0.038504
4288	0.041007
4284	0.017857
4280	0.063991
4276	0.124263
4272	0.160193
4268	-0.016808
4264	-0.293374
4260	-0.189566
4256	0.247836
4252	0.355148
4248	0.180387
4244	0.147557
4240	0.154304
4236	0.162148
4232	0.236535
4228	0.254130
4224	0.215053
4220	0.208020
4216	0.289869
4212	0.425171
4208	0.430893
4204	0.348639
4200	0.395250
4196	0.455641
4192	0.305509
4188	-0.004363
4184	-0.181460
4180	-0.077772
4176	0.009918
4172	0.035953
4168	0.146365
4164	0.077652
4160	-0.021743
4156	0.088596
4152	0.123834
4148	0.017380
4144	-0.048542
4140	-0.008058
4136	0.130724
4132	0.298500
4128	0.354862
4124	0.204586
4120	-0.063896
4116	-0.099110
4112	0.078654
4108	0.097966
4104	0.100445
4100	0.166273
4096	0.084972
4092	0.004839
4088	0.061655
4084	0.167798
4080	0.266814
4076	0.155282
4072	-0.101280
4068	-0.129938
4064	-0.015616
4060	0.055599
4056	0.115799
4052	0.164628
4048	0.162887
4044	0.084257
4040	0.082445
4036	0.214052
4032	0.250434
4028	0.145459
4024	-0.013399
4020	-0.107622
4016	0.010943
4012	0.142407
4008	0.120353
4004	0.135540
4000	0.176095
3996	0.212836
3992	0.249958
3988	0.130200
3984	-0.081348
3980	-0.120353
3976	-0.021767
3972	0.041627
3968	0.051093
3964	0.058579
3960	0.099182
3956	0.090503
3952	0.044894
3948	0.038075
3944	0.036644
3940	0.035166
3936	0.039029
3932	0.094366
3928	0.129675
3924	0.002312
3920	-0.110340
3916	-0.020837
3912	0.089073
3908	0.093293
3904	0.058531
3900	0.032162
3896	0.050878
3892	0.080323
3888	0.067543
3884	0.029850
3880	0.046110
3876	0.113463
3872	0.158095
3868	0.131058
3864	0.062346
3860	0.094699
3856	0.161767
3852	0.105500
3848	0.098824
3844	0.192785
3840	0.159168
3836	0.125980
3832	0.166130
3828	0.043392
3824	-0.012755
3820	0.133752
3816	0.151991
3812	0.043892
3808	0.045895
3804	0.167274
3800	0.197696
3796	0.054788
3792	-0.037002
3788	0.038003
3784	0.134873
3780	0.112390
3776	0.013041
3772	-0.012564
3768	0.051331
3764	0.052070
3760	0.016427
3756	0.045561
3752	0.048160
3748	0.051689
3744	0.079846
3740	0.063371
3736	0.050806
3732	0.030207
3728	0.012898
3724	0.012660
3720	0.018572
3716	0.026202
3712	0.056147
3708	0.147223
3704	0.176739
3700	0.097656
3696	0.039768
3692	0.050711
3688	0.069808
3684	0.093841
3680	0.080132
3676	0.002479
3672	0.026178
3668	0.140929
3664	0.168490
3660	0.103521
3656	0.031328
3652	0.001311
3648	-0.004243
3644	-0.051975
3640	-0.075268
3636	-0.001430
3632	0.066161
3628	0.071811
3624	0.043201
3620	0.016927
3616	0.065135
3612	0.166630
3608	0.175762
3604	0.105524
3600	0.070142
3596	0.046086
3592	0.038957
3588	0.099587
3584	0.160479
3580	0.160670
3576	0.149822
3572	0.107002
3568	0.015878
3564	-0.041747
3560	-0.041031
3556	0.008487
3552	0.091409
3548	0.173544
3544	0.199747
3540	0.170302
3536	0.142264
3532	0.089955
3528	0.043821
3524	0.037980
3520	-0.020837
3516	-0.093960
3512	-0.060963
3508	0.051307
3504	0.117039
3500	0.142550
3496	0.146126
3492	0.104975
3488	0.097322
3484	0.045561
3480	-0.039124
3476	-0.052738
3472	-0.078439
3468	-0.136113
3464	-0.180792
3460	-0.137090
3456	-0.018954
3452	0.046730
3448	0.058174
3444	0.074625
3440	0.129175
3436	0.168251
3432	0.066995
3428	-0.089311
3424	-0.095343
3420	0.023293
3416	0.065350
3412	0.005817
3408	0.004839
3404	0.076651
3400	0.103640
3396	0.061678
3392	0.010728
3388	-0.025105
3384	-0.037217
3380	-0.006222
3376	0.053048
3372	0.088953
3368	0.063705
3364	-0.021052
3360	-0.105905
3356	-0.103974
3352	-0.014734
3348	0.047159
3344	0.022912
3340	0.023579
3336	0.094580
3332	0.138807
3328	0.102782
3324	0.034666
3320	0.045204
3316	0.152611
3312	0.214123
3308	0.156903
3304	0.082564
3300	0.075960
3296	0.112318
3292	0.120830
3288	0.060629
3284	-0.028991
3280	-0.098514
3276	-0.088763
3272	-0.005483
3268	0.058674
3264	0.090932
3260	0.097560
3256	0.075435
3252	0.043439
3248	0.034213
3244	0.032925
3240	0.012946
3236	0.008606
3232	0.004053
3228	-0.001478
3224	0.053548
3220	0.065398
3216	0.005984
3212	0.065541
3208	0.187325
3204	0.204157
3200	0.123524
3196	0.017476
3192	-0.029993
3188	-0.041961
3184	-0.004577
3180	0.080347
3176	0.045680
3172	-0.043678
3168	-0.028085
3164	0.027728
3160	0.055384
3156	0.072646
3152	0.078129
3148	0.047349
3144	0.035238
3140	0.046706
3136	0.056648
3132	0.060224
3128	0.021791
3124	-0.012230
3120	-0.033426
3116	-0.012040
3112	0.095105
3108	0.125956
3104	-0.002455
3100	-0.099492
3096	-0.065445
3092	0.011587
3088	0.084495
3084	0.165987
3080	0.209760
3076	0.140380
3072	0.030684
3068	-0.002002
3064	0.046825
3060	0.097060
3056	0.091624
3052	0.063538
3048	0.015401
3044	-0.048875
3040	-0.057530
3036	-0.000548
3032	0.060987
3028	0.091552
3024	0.110077
3020	0.103902
3016	0.059700
3012	0.035047
3008	0.055003
3004	0.091671
3000	0.098252
2996	0.029516
2992	-0.044894
2988	-0.042057
2984	-0.006103
2980	0.033378
2976	0.053906
2972	0.018334
2968	-0.032138
2964	-0.035047
2960	-0.000882
2956	-0.009202
2952	-0.079894
2948	-0.108838
2944	-0.004649
2940	0.113224
2936	0.110530
2932	0.065183
2928	0.049948
2924	0.055217
2920	0.071859
2916	0.066518
2912	0.027108
2908	0.005578
2904	-0.008511
2900	-0.047731
2896	-0.014948
2892	0.069785
2888	0.058197
2884	-0.002837
2880	-0.003004
2876	0.004339
2872	-0.033020
2868	-0.056433
2864	-0.057864
2860	-0.062775
2856	-0.008964
2852	0.106453
2848	0.191354
2844	0.177192
2840	0.089335
2836	0.064516
2832	0.099253
2828	0.097560
2824	0.094318
2820	0.084090
2816	0.036406
2812	-0.022196
2808	-0.072884
2804	-0.106525
2800	-0.091838
2796	-0.015330
2792	0.055480
2788	0.072026
2784	0.040793
2780	-0.024080
2776	-0.050568
2772	-0.014925
2768	0.010466
2764	0.014066
2760	-0.003361
2756	-0.005173
2752	0.057506
2748	0.076746
2744	0.027656
2740	0.037312
2736	0.073647
2732	0.016331
2728	-0.035047
2724	-0.003409
2720	0.038623
2716	0.038743
2712	-0.002694
2708	-0.008678
2704	0.032162
2700	0.030732
2696	0.007033
2692	0.016522
2688	0.024580
2684	0.006389
2680	-0.019717
2676	-0.031232
2672	-0.023627
2668	-0.005745
2664	0.026011
2660	0.064373
2656	0.051999
2652	-0.017642
2648	-0.062704
2644	-0.036716
2640	0.041198
2636	0.108718
2632	0.122857
2628	0.102758
2624	0.070357
2620	0.019192
2616	-0.009536
2612	0.014662
2608	0.031638
2604	0.019001
2600	0.029754
2596	0.036740
2592	-0.018119
2588	-0.045251
2584	-0.034856
2580	-0.068211
2576	-0.062298
2572	-0.020098
2568	-0.018715
2564	-0.000238
2560	0.063729
2556	0.120544
2552	0.139713
2548	0.118684
2544	0.052833
2540	-0.001382
2536	-0.004792
2532	0.018143
2528	0.039601
2524	0.050306
2520	0.061535
2516	-0.002384
2512	-0.108480
2508	-0.102996
2504	0.022435
2500	0.171709
2496	0.222182
2492	0.180625
2488	0.127935
2484	0.069308
2480	0.067782
2476	0.126433
2472	0.130724
2468	0.058054
2464	-0.016093
2460	-0.054550
2456	-0.039076
2452	-0.029420
2448	-0.081205
2444	-0.095272
2440	-0.009083
2436	-0.006437
2432	-0.068306
2428	-0.054860
2424	-0.148653
2420	-0.282335
2416	-0.190401
2412	-0.023531
2408	0.083422
2404	0.086832
2400	0.012111
2396	0.005054
2392	-0.007176
2388	-0.082898
2384	-0.099873
2380	-0.046229
2376	-0.001168
2372	0.003361
2368	-0.008320
2364	-0.022745
2360	-0.079631
2356	-0.112128
2352	-0.076293
2348	-0.048279
2344	-0.000715
2340	0.054788
2336	0.029087
2332	-0.027346
2328	-0.034475
2324	0.037407
2320	0.145053
2316	0.182962
2312	0.163412
2308	0.150680
2304	0.150728
2300	0.166106
2296	0.183796
2292	0.185084
2288	0.185656
2284	0.209856
2280	0.260806
2276	0.324845
2272	0.438046
2268	0.601863
2264	0.683546
2260	0.646209
2256	0.608539
2252	0.645399
2248	0.726604
2244	0.797963
2240	0.869679
2236	0.981140
2232	1.125597
2228	1.272654
2224	1.430034
2220	1.594281
2216	1.723980
2212	1.848363
2208	2.046394
2204	2.257466
2200	2.400422
2196	2.553534
2192	2.765464
2188	3.025913
2184	3.293371
2180	3.533673
2176	3.817939
2172	4.180359
2168	4.564547
2164	4.908299
2160	5.202460
2156	5.489420
2152	5.709815
2148	5.913090
2144	6.320762
2140	6.813597
2136	7.246756
2132	7.688522
2128	8.055901
2124	8.357167
2120	8.723139
2116	9.183430
2112	9.717130
2108	10.2131
2104	10.6181
2100	11.0262
2096	11.4821
2092	11.9503
2088	12.3589
2084	12.7121
2080	13.1239
2076	13.5495
2072	13.9581
2068	14.4698
2064	14.9674
2060	15.3638
2056	15.7692
2052	16.1796
2048	16.5899
2044	16.9945
2040	17.3696
2036	17.7535
2032	18.1489
2028	18.5573
2024	18.969
2020	19.3541
2016	19.7158
2012	20.052
2008	20.3601
2004	20.6581
2000	20.9856
1996	21.3142
1992	21.5847
1988	21.8511
1984	22.1585
1980	22.5155
1976	22.8775
1972	23.1422
1968	23.375
1964	23.6474
1960	23.8661
1956	24.0211
1952	24.2049
1948	24.4482
1944	24.7104
1940	24.9643
1936	25.1941
1932	25.3666
1928	25.5335
1924	25.7145
1920	25.8763
1916	26.0493
1912	26.2146
1908	26.3774
1904	26.55
1900	26.667
1896	26.7955
1892	26.9656
1888	27.0882
1884	27.1574
1880	27.2153
1876	27.2999
1872	27.4107
1868	27.5372
1864	27.6673
1860	27.783
1856	27.9066
1852	28.0466
1848	28.1538
1844	28.2459
1840	28.339
1836	28.4075
1832	28.4839
1828	28.5553
1824	28.5945
1820	28.62
1816	28.6722
1812	28.7626
1808	28.8723
1804	28.952
1800	28.9462
1796	28.9372
1792	29.0205
1788	29.1432
1784	29.2312
1780	29.2515
1776	29.2131
1772	29.2161
1768	29.3181
1764	29.4118
1760	29.3904
1756	29.3369
1752	29.3564
1748	29.4346
1744	29.4981
1740	29.507
1736	29.5054
1732	29.4858
1728	29.4932
1724	29.5707
1720	29.6666
1716	29.7405
1712	29.7348
1708	29.6852
1704	29.6399
1700	29.5858
1696	29.5716
1692	29.6263
1688	29.6836
1684	29.7008
1680	29.6867
1676	29.6761
1672	29.6827
1668	29.698
1664	29.7532
1660	29.7812
1656	29.7404
1652	29.7395
1648	29.7613
1644	29.7358
1640	29.7363
1636	29.7749
1632	29.7725
1628	29.722
1624	29.678
1620	29.6475
1616	29.6262
1612	29.602
1608	29.5571
1604	29.5968
1600	29.6847
1596	29.6941
1592	29.7261
1588	29.7847
1584	29.7647
1580	29.7243
1576	29.6918
1572	29.6244
1568	29.5988
1564	29.6306
1560	29.6231
1556	29.5938
1552	29.5619
1548	29.5394
1544	29.6187
1540	29.7089
1536	29.6817
1532	29.5854
1528	29.4958
1524	29.4592
1520	29.4263
1516	29.3995
1512	29.4363
1508	29.5078
1504	29.5384
1500	29.5252
1496	29.5307
1492	29.5087
1488	29.4699
1484	29.3947
1480	29.2701
1476	29.251
1472	29.307
1468	29.2931
1464	29.2892
1460	29.3751
1456	29.4616
1452	29.473
1448	29.3859
1444	29.322
1440	29.3278
1436	29.2593
1432	29.1487
1428	29.0672
1424	29.0521
1420	29.1639
1416	29.2426
1412	29.1916
1408	29.164
1404	29.2092
1400	29.2697
1396	29.3042
1392	29.2521
1388	29.1391
1384	29.0472
1380	29.0267
1376	29.0479
1372	29.0414
1368	29.0526
1364	29.1044
1360	29.1238
1356	29.0803
1352	29.0316
1348	28.9948
1344	28.9397
1340	28.9385
1336	28.9538
1332	28.896
1328	28.8367
1324	28.8648
1320	28.94
1316	28.9129
1312	28.8104
1308	28.798
1304	28.8777
1300	28.9246
1296	28.8836
1292	28.7887
1288	28.7153
1284	28.7371
1280	28.7951
1276	28.773
1272	28.7325
1268	28.7697
1264	28.7939
1260	28.7235
1256	28.5987
1252	28.5282
1248	28.5454
1244	28.5465
1240	28.5269
1236	28.5393
1232	28.5419
1228	28.5074
1224	28.4695
1220	28.4623
1216	28.441
1212	28.3792
1208	28.3409
1204	28.3539
1200	28.3686
1196	28.3612
1192	28.3353
1188	28.2946
1184	28.2738
1180	28.2835
1176	28.2534
1172	28.1552
1168	28.0754
1164	28.0533
1160	28.0372
1156	27.9886
1152	27.9214
1148	27.8985
1144	27.8896
1140	27.8568
1136	27.8776
1132	27.9256
1128	27.9278
1124	27.8528
1120	27.7154
1116	27.6259
1112	27.5665
1108	27.5336
1104	27.5721
1100	27.5944
1096	27.6201
1092	27.6255
1088	27.494
1084	27.4254
1080	27.5073
1076	27.5642
1072	27.5214
1068	27.4035
1064	27.3306
1060	27.2511
1056	27.1147
1052	27.0591
1048	27.1499
1044	27.2862
1040	27.2694
1036	27.1092
1032	26.985
1028	26.9118
1024	26.8602
1020	26.8204
1016	26.7842
1012	26.7644
1008	26.7472
1004	26.8191
1000	26.8828
996	 26.8047
992	 26.7116
988	 26.652
984	 26.6581
980	 26.6869
976	 26.6119
972	 26.5172
968	 26.431
964	 26.3298
960	 26.271
956	 26.2345
952	 26.2416
948	 26.1892
944	 26.0058
940	 25.8764
936	 25.8335
932	 25.862
928	 25.8823
924	 25.788
920	 25.772
916	 25.7973
912	 25.662
908	 25.5411
904	 25.5534
900	 25.5477
896	 25.43
892	 25.299
888	 25.2942
884	 25.2839
880	 25.1636
876	 25.1176
872	 25.1234
868	 25.02
864	 24.906
860	 24.9268
856	 24.9955
852	 24.9156
848	 24.7552
844	 24.6981
840	 24.6038
836	 24.4531
832	 24.4127
828	 24.4303
824	 24.395
820	 24.2905
816	 24.2001
812	 24.0978
808	 23.9897
804	 24.0205
800	 24.068
796	 23.9378
792	 23.7865
788	 23.7973
784	 23.8014
780	 23.6317
776	 23.4371
772	 23.3065
768	 23.1883
764	 23.188
760	 23.2838
756	 23.2168
752	 23.0785
748	 22.9517
744	 22.6378
740	 22.5137
736	 22.7999
732	 22.8862
728	 22.6044
724	 22.2872
720	 22.0992
716	 22.0662
712	 22.0309
708	 21.9166
704	 21.9069
700	 22.0072
696	 21.8962
692	 21.6656
688	 21.6179
684	 21.6179
680	 21.5526
676	 21.4955
672	 21.3766
668	 21.1368
664	 21.0107
660	 21.0698
656	 21.1308
652	 21.1362
648	 21.0716
644	 20.8642
640	 20.5548
636	 20.3957
632	 20.3516
628	 20.2066
624	 20.1267
620	 20.0301
616	 19.6296
612	 19.3738
608	 19.6535
604	 19.9426
600	 19.8897
596	 19.6791
592	 19.4133
588	 19.1963
584	 18.9704
580	 18.7265
576	 18.6662
572	 18.8015
568	 18.838
564	 18.5643
560	 18.2183
556	 18.09
552	 18.1577
548	 18.3609
544	 18.5943
540	 18.4876
536	 18.1271
532	 17.836
528	 17.5368
524	 17.4857
520	 17.9312
516	 18.0949
512	 17.4635
508	 16.9254
504	 16.9354
500	 17.019
496	 16.9541
492	 16.8412
488	 17.0146
484	 17.1093
480	 16.3448
476	 15.3092
472	 14.9729
468	 15.289
464	 15.6844
460	 15.8242
456	 15.4876
452	 14.7161
448	 13.839
444	 13.429
440	 14.0189
436	 14.666
432	 14.7459
428	 14.7219
424	 14.2465
420	 13.8013
416	 13.9542
412	 15.8177
408	 19.0785
404	 19.0501
400	 16.2057
396	 13.1944
392	 10.3174
388	 11.994
384	 16.6656
380	 13.9146
376	 -6.789350
372	 -25.0458
370	 -31.8484