File: Bakgrunnsmateriale/MATLAB/FTIR/ftir_data/LPE453/Mapping_121/LPE453_t101_cm-1.asc
PE IR       SPECTRUM    SPECTRUM    ASCII       PEDS        1.60
  -1
LP0478~1.ASC
17/05/16
22:39:33.00
17/05/16
22:39:33.00
tln
$LPE453_t0101$<tbV0>[10.4,10.4,8.0,0.0,27,1,0]
370
64

2002,4.07
MIRTGS : RIGHTBACK : INTERNAL 2
MIR : ON : INTERNAL 2
OPTKBR

0.200000
8
8.000000
FILLER
RATIO
SPECTRUM
UNLOCKED 256

DOUBLE
64
COMBINED
1
0
0

1.000000
RATIO

1
0
TRUE
51149
0
LEFT NOT FITTED RIGHT NOT FITTED 0
NONE
NONE
15600
12
4.427000
51148
TRUE
1 0 8 72 0 0 0 0

15798

#HDR
-1
-1
#GR
CM-1
%T
2.38419e-05
0.0
5000
-1.000000
4631
8
30.1195
-1.157712
#DATA
5000	0.232505
4996	0.845599
4992	1.092195
4988	0.736021
4984	0.348591
4980	0.034594
4976	-0.185990
4972	-0.261616
4968	-0.320482
4964	-0.208139
4960	0.088810
4956	-0.027227
4952	-0.416684
4948	-0.477123
4944	-0.390982
4940	-0.312376
4936	-0.190854
4932	-0.064992
4928	0.015497
4924	0.011205
4920	0.011992
4916	0.117015
4912	0.174689
4908	0.000238
4904	-0.177168
4900	-0.164842
4896	-0.146865
4892	-0.140023
4888	0.012183
4884	0.137066
4880	0.057983
4876	0.012993
4872	0.293374
4868	0.578618
4864	0.468230
4860	0.254178
4856	0.353360
4852	0.621080
4848	0.766921
4844	0.758886
4840	0.577402
4836	0.398182
4832	0.395655
4828	0.331377
4824	0.071525
4820	-0.136089
4816	-0.075030
4812	0.076913
4808	0.056266
4804	-0.083518
4800	-0.181007
4796	-0.191140
4792	-0.124955
4788	0.080966
4784	0.389075
4780	0.645446
4776	0.639748
4772	0.290966
4768	-0.077199
4764	-0.063061
4760	0.195050
4756	0.190424
4752	0.074076
4748	0.160694
4744	0.096321
4740	-0.086188
4736	0.077342
4732	0.289106
4728	0.484299
4724	0.703811
4720	0.229120
4716	-0.342869
4712	-0.261449
4708	-0.088739
4704	-0.095129
4700	-0.130200
4696	-0.206351
4692	-0.286984
4688	0.396108
4684	1.310634
4680	1.367402
4676	1.247620
4672	1.187586
4668	0.977826
4664	0.799536
4660	0.527429
4656	0.397300
4652	0.572109
4648	0.621843
4644	0.236082
4640	0.002861
4636	0.562238
4632	1.191115
4628	1.215219
4624	1.147699
4620	1.022815
4616	0.408577
4612	0.239992
4608	0.962090
4604	1.509094
4600	1.204204
4596	0.579857
4592	0.158047
4588	0.007438
4584	0.022697
4580	0.029945
4576	0.089693
4572	-0.112485
4568	-0.608777
4564	-0.547337
4560	-0.259637
4556	-0.455427
4552	-0.775408
4548	-0.651264
4544	-0.511217
4540	-0.843095
4536	-0.796675
4532	-0.240778
4528	0.133132
4524	-0.166893
4520	-0.893902
4516	-1.144790
4512	-0.639581
4508	0.394940
4504	2.284622
4500	8.019876
4496	15.5213
4492	15.0106
4488	6.577563
4484	1.779031
4480	2.326631
4476	2.299833
4472	1.161646
4468	-0.208783
4464	-0.750541
4460	-0.623273
4456	-0.659203
4452	-0.762510
4448	-0.430178
4444	0.050902
4440	0.088429
4436	-0.277209
4432	-0.343847
4428	-0.278568
4424	-0.108265
4420	0.064444
4416	0.022935
4412	-0.026726
4408	-0.189304
4404	-0.166201
4400	0.221943
4396	0.241827
4392	-0.115442
4388	-0.017333
4384	0.314998
4380	0.315928
4376	0.267171
4372	0.300025
4368	0.202512
4364	0.172066
4360	0.285553
4356	0.340247
4352	0.350260
4348	0.352883
4344	0.321817
4340	0.202679
4336	-0.000095
4332	-0.180053
4328	-0.195240
4324	-0.187849
4320	-0.376677
4316	-0.268816
4312	0.268769
4308	0.480341
4304	0.212955
4300	0.057435
4296	0.119471
4292	0.051331
4288	-0.057220
4284	-0.171613
4280	-0.284719
4276	-0.101637
4272	0.304746
4268	0.518703
4264	0.316047
4260	0.081467
4256	0.158071
4252	0.311565
4248	0.195622
4244	-0.052118
4240	0.042247
4236	0.259900
4232	0.274276
4228	0.300621
4224	0.389385
4220	0.395226
4216	0.251960
4212	0.102663
4208	0.081396
4204	0.063490
4200	-0.021314
4196	-0.026679
4192	0.064444
4188	0.142073
4184	0.175642
4180	0.061845
4176	-0.052022
4172	-0.056648
4168	-0.105571
4164	-0.071001
4160	0.082755
4156	0.216698
4152	0.285291
4148	0.300025
4144	0.268721
4140	0.167608
4136	0.110721
4132	0.225949
4128	0.270938
4124	0.114989
4120	0.021100
4116	-0.019836
4112	-0.013995
4108	0.107312
4104	0.181508
4100	0.202035
4096	0.180768
4092	0.027942
4088	-0.110220
4084	-0.112795
4080	-0.019574
4076	0.139331
4072	0.250720
4068	0.293684
4064	0.264978
4060	0.133371
4056	0.027751
4052	0.020098
4048	0.037050
4044	-0.019240
4040	-0.113081
4036	-0.122952
4032	-0.017571
4028	0.125622
4024	0.242781
4020	0.252008
4016	0.127720
4012	0.022935
4008	-0.003123
4004	0.088787
4000	0.317525
3996	0.410103
3992	0.305891
3988	0.234699
3984	0.177264
3980	0.078344
3976	0.028347
3972	0.017929
3968	-0.028157
3964	-0.042247
3960	0.038576
3956	0.125956
3952	0.139164
3948	0.106978
3944	0.102663
3940	0.119042
3936	0.074648
3932	-0.017857
3928	-0.054621
3924	-0.038576
3920	-0.016951
3916	0.045180
3912	0.109004
3908	0.106215
3904	0.078034
3900	0.074911
3896	0.096797
3892	0.047683
3888	-0.066161
3884	-0.106787
3880	-0.007963
3876	0.089573
3872	0.054478
3868	0.037431
3864	0.060224
3860	0.048971
3856	0.051403
3852	0.058746
3848	0.055456
3844	0.013279
3840	-0.058054
3836	-0.023221
3832	0.078773
3828	0.075483
3824	0.007510
3820	0.005269
3816	0.086855
3812	0.156211
3808	0.153446
3804	0.079369
3800	-0.026106
3796	-0.033283
3792	0.080180
3788	0.149345
3784	0.063753
3780	-0.038051
3776	-0.034213
3772	-0.012946
3768	-0.006103
3764	-0.038933
3760	-0.101900
3756	-0.049233
3752	0.014400
3748	-0.004220
3744	0.000977
3740	-0.006031
3736	-0.009894
3732	0.013661
3728	-0.009632
3724	-0.023627
3720	0.051283
3716	0.123357
3712	0.102066
3708	0.057053
3704	0.055742
3700	0.069642
3696	0.020289
3692	-0.071024
3688	-0.069141
3684	-0.030851
3680	0.010180
3676	0.067758
3672	0.016641
3668	-0.067257
3664	-0.019693
3660	0.084757
3656	0.120401
3652	0.124740
3648	0.125908
3644	0.174283
3640	0.247550
3636	0.220465
3632	0.159263
3628	0.133419
3624	0.096869
3620	0.029397
3616	-0.018310
3612	0.051903
3608	0.201201
3604	0.244879
3600	0.151848
3596	0.077104
3592	0.024724
3588	-0.050282
3584	-0.074863
3580	-0.059986
3576	0.019931
3572	0.135350
3568	0.145125
3564	0.131297
3560	0.147366
3556	0.074100
3552	-0.019145
3548	0.012898
3544	0.068759
3540	0.065517
3536	0.047373
3532	-0.020599
3528	-0.077128
3524	-0.039267
3520	0.037217
3516	0.125646
3512	0.189900
3508	0.139164
3504	0.027918
3500	-0.029993
3496	-0.009870
3492	0.057578
3488	0.071263
3484	-0.038480
3480	-0.104570
3476	0.009489
3472	0.158333
3468	0.221920
3464	0.179934
3460	0.111150
3456	0.101041
3452	0.084376
3448	0.019192
3444	-0.028252
3440	-0.012373
3436	0.062227
3432	0.124979
3428	0.086116
3424	-0.001406
3420	-0.001835
3416	0.139164
3412	0.255870
3408	0.206923
3404	0.037384
3400	-0.122261
3396	-0.077223
3392	0.103235
3388	0.192451
3384	0.120282
3380	-0.073432
3376	-0.196909
3372	-0.138378
3368	-0.002074
3364	0.118732
3360	0.145077
3356	0.042414
3352	-0.085949
3348	-0.096511
3344	-0.019598
3340	-0.017094
3336	-0.038743
3332	0.017976
3328	0.049138
3324	0.036549
3320	0.037431
3316	0.012731
3312	0.009632
3308	0.065374
3304	0.076818
3300	0.020480
3296	-0.002336
3292	0.015711
3288	0.015306
3284	0.024676
3280	0.069046
3276	0.086998
3272	0.031137
3268	-0.018286
3264	0.040316
3260	0.117135
3256	0.101494
3252	0.045180
3248	0.008130
3244	-0.030231
3240	-0.057196
3236	-0.066542
3232	-0.091147
3228	-0.053668
3224	0.018334
3220	0.005722
3216	-0.076174
3212	-0.131607
3208	-0.108647
3204	-0.031900
3200	0.093102
3196	0.176668
3192	0.126910
3188	0.035762
3184	-0.018739
3180	-0.024652
3176	0.041437
3172	0.080537
3168	-0.003552
3164	-0.073289
3160	-0.010538
3156	0.097250
3152	0.152254
3148	0.165748
3144	0.143218
3140	0.097465
3136	0.073504
3132	0.005793
3128	-0.057101
3124	-0.036454
3120	-0.008416
3116	0.000643
3112	-0.006651
3108	0.011467
3104	0.043320
3100	0.046896
3096	0.027966
3092	0.007057
3088	0.075864
3084	0.179028
3080	0.152254
3076	0.050234
3072	0.021219
3068	0.017595
3064	-0.023579
3060	0.002741
3056	0.089788
3052	0.120782
3048	0.111269
3044	0.111174
3040	0.123286
3036	0.108575
3032	0.055932
3028	0.034236
3024	0.042772
3020	0.067687
3016	0.124120
3012	0.186991
3008	0.215935
3004	0.165295
3000	0.074100
2996	0.035810
2992	0.041413
2988	0.038981
2984	0.010538
2980	-0.012183
2976	0.021624
2972	0.062537
2968	0.049638
2964	0.046849
2960	0.104045
2956	0.179266
2952	0.175881
2948	0.084352
2944	0.026035
2940	0.017523
2936	0.030875
2932	0.051283
2928	0.005888
2924	-0.049400
2920	-0.098586
2916	-0.169110
2912	-0.159740
2908	-0.026321
2904	0.099563
2900	0.072383
2896	-0.021648
2892	-0.034379
2888	0.002360
2884	0.005125
2880	0.000047
2876	0.014233
2872	0.033545
2868	0.049328
2864	0.058054
2860	0.084400
2856	0.129103
2852	0.159049
2848	0.091385
2844	-0.035667
2840	-0.064158
2836	-0.010108
2832	0.024247
2828	0.023674
2824	0.027585
2820	0.064039
2816	0.094103
2812	0.056648
2808	0.024461
2804	0.050592
2800	0.069165
2796	0.070071
2792	0.068354
2788	0.049042
2784	0.016236
2780	0.045680
2776	0.100350
2772	0.054693
2768	-0.002980
2764	0.025606
2760	0.039291
2756	0.010514
2752	0.022006
2748	0.053000
2744	0.027441
2740	-0.017642
2736	-0.001239
2732	0.058698
2728	0.112867
2724	0.151777
2720	0.159788
2716	0.119233
2712	0.064587
2708	0.000000
2704	-0.053453
2700	-0.039315
2696	0.031805
2692	0.077414
2688	0.073003
2684	0.030922
2680	-0.013208
2676	-0.017881
2672	0.000309
2668	0.018358
2664	0.018596
2660	0.032067
2656	0.082230
2652	0.099086
2648	0.068306
2644	0.052642
2640	0.057172
2636	-0.000238
2632	-0.111722
2628	-0.126123
2624	-0.039649
2620	0.024127
2616	0.055432
2612	0.058579
2608	0.061440
2604	0.098705
2600	0.110459
2596	0.083184
2592	0.024342
2588	0.001859
2584	0.048685
2580	0.022888
2576	-0.072050
2572	-0.082659
2568	0.006747
2564	0.037503
2560	-0.023293
2556	-0.043678
2552	-0.029683
2548	-0.007343
2544	0.022625
2540	0.032234
2536	0.084304
2532	0.157427
2528	0.152325
2524	0.101470
2520	0.058078
2516	0.058388
2512	0.128054
2508	0.170826
2504	0.099396
2500	-0.005483
2496	-0.084257
2492	-0.116801
2488	-0.044989
2484	0.038933
2480	0.024151
2476	-0.011014
2472	0.005698
2468	0.061273
2464	0.109624
2460	0.114274
2456	0.091099
2452	0.064373
2448	0.068902
2444	0.059580
2440	0.029993
2436	0.023269
2432	0.008106
2428	-0.031971
2424	-0.073194
2420	-0.077295
2416	-0.091648
2412	-0.132942
2408	-0.106382
2404	-0.017213
2400	0.018334
2396	-0.028920
2392	-0.029444
2388	0.052714
2384	0.058507
2380	-0.002026
2376	0.014114
2372	0.084733
2368	0.113987
2364	0.075483
2360	0.028109
2356	-0.018858
2352	-0.057816
2348	-0.040626
2344	-0.009608
2340	0.036978
2336	0.130629
2332	0.218296
2328	0.258684
2324	0.226068
2320	0.115776
2316	0.025868
2312	0.068521
2308	0.199937
2304	0.257754
2300	0.232291
2296	0.223255
2292	0.226974
2288	0.252652
2284	0.299525
2280	0.342488
2276	0.374579
2272	0.384426
2268	0.445270
2264	0.565075
2260	0.655722
2256	0.724077
2252	0.807094
2248	0.882458
2244	0.958228
2240	1.066374
2236	1.195192
2232	1.320791
2228	1.453757
2224	1.616811
2220	1.797723
2216	1.966333
2212	2.110910
2208	2.261900
2204	2.443766
2200	2.623009
2196	2.772045
2192	2.914237
2188	3.114366
2184	3.414273
2180	3.754115
2176	4.072332
2172	4.355573
2168	4.623079
2164	4.936075
2160	5.286574
2156	5.634069
2152	5.978918
2148	6.295228
2144	6.588459
2140	6.896710
2136	7.228851
2132	7.613968
2128	8.042311
2124	8.444786
2120	8.799958
2116	9.157586
2112	9.548878
2108	9.954810
2104	10.3961
2100	10.8517
2096	11.2529
2092	11.6629
2088	12.1089
2084	12.5834
2080	13.064
2076	13.4256
2072	13.7551
2068	14.1684
2064	14.5786
2060	14.9589
2056	15.35
2052	15.7469
2048	16.1348
2044	16.5294
2040	16.9212
2036	17.267
2032	17.5653
2028	17.8501
2024	18.1759
2020	18.5688
2016	18.9621
2012	19.3133
2008	19.6367
2004	19.9426
2000	20.247
1996	20.5512
1992	20.8366
1988	21.1127
1984	21.424
1980	21.7403
1976	21.9951
1972	22.2433
1968	22.5263
1964	22.7809
1960	22.9987
1956	23.2414
1952	23.4731
1948	23.6499
1944	23.8429
1940	24.0591
1936	24.2532
1932	24.4632
1928	24.6877
1924	24.8793
1920	25.0472
1916	25.2069
1912	25.3774
1908	25.559
1904	25.7139
1900	25.868
1896	26.0296
1892	26.1713
1888	26.3401
1884	26.511
1880	26.6197
1876	26.7252
1872	26.8762
1868	27.044
1864	27.2043
1860	27.3211
1856	27.3893
1852	27.4616
1848	27.5603
1844	27.6732
1840	27.7856
1836	27.8652
1832	27.919
1828	27.9886
1824	28.0844
1820	28.1952
1816	28.3008
1812	28.3704
1808	28.4116
1804	28.4705
1800	28.5366
1796	28.6161
1792	28.7167
1788	28.792
1784	28.8501
1780	28.875
1776	28.8684
1772	28.8993
1768	28.9778
1764	29.0915
1760	29.1594
1756	29.1375
1752	29.1258
1748	29.1441
1744	29.1614
1740	29.2177
1736	29.2932
1732	29.3383
1728	29.3784
1724	29.4528
1720	29.5399
1716	29.5593
1712	29.5142
1708	29.4669
1704	29.473
1700	29.5399
1696	29.6019
1692	29.644
1688	29.6838
1684	29.7372
1680	29.8005
1676	29.828
1672	29.8177
1668	29.8116
1664	29.8115
1660	29.7979
1656	29.7978
1652	29.8249
1648	29.85
1644	29.8622
1640	29.8582
1636	29.8723
1632	29.9114
1628	29.8959
1624	29.8499
1620	29.8464
1616	29.8763
1612	29.9098
1608	29.907
1604	29.8985
1600	29.9173
1596	29.9015
1592	29.9094
1588	29.9679
1584	29.9582
1580	29.9083
1576	29.9304
1572	30.004
1568	30.0733
1564	30.1178
1560	30.0927
1556	30.0107
1552	29.9507
1548	29.9505
1544	29.9706
1540	29.9539
1536	29.9388
1532	29.9583
1528	29.9554
1524	29.9026
1520	29.8836
1516	29.9827
1512	30.0766
1508	30.028
1504	29.9395
1500	29.926
1496	29.9312
1492	29.9286
1488	30.0087
1484	30.0809
1480	30.0497
1476	29.9934
1472	29.9751
1468	29.9675
1464	29.9121
1460	29.8729
1456	29.9263
1452	29.9997
1448	29.9734
1444	29.8674
1440	29.829
1436	29.8757
1432	29.9422
1428	29.9709
1424	29.9177
1420	29.8744
1416	29.8768
1412	29.853
1408	29.8429
1404	29.8924
1400	29.9883
1396	30.0905
1392	30.1078
1388	30.0484
1384	29.9767
1380	29.9151
1376	29.9022
1372	29.9084
1368	29.854
1364	29.7884
1360	29.8088
1356	29.8779
1352	29.928
1348	29.95
1344	29.9475
1340	29.9397
1336	29.9184
1332	29.9011
1328	29.9128
1324	29.8908
1320	29.8621
1316	29.8569
1312	29.8013
1308	29.7354
1304	29.7568
1300	29.831
1296	29.8537
1292	29.8358
1288	29.8131
1284	29.7809
1280	29.7932
1276	29.8238
1272	29.8013
1268	29.7714
1264	29.7512
1260	29.6951
1256	29.6369
1252	29.6417
1248	29.6972
1244	29.7439
1240	29.7453
1236	29.6926
1232	29.6281
1228	29.6429
1224	29.7563
1220	29.845
1216	29.8074
1212	29.7357
1208	29.7049
1204	29.6554
1200	29.6178
1196	29.6437
1192	29.6862
1188	29.7182
1184	29.7134
1180	29.6608
1176	29.5981
1172	29.5415
1168	29.5054
1164	29.4908
1160	29.5084
1156	29.536
1152	29.4951
1148	29.4512
1144	29.47
1140	29.464
1136	29.3936
1132	29.333
1128	29.3692
1124	29.4764
1120	29.5187
1116	29.4841
1112	29.4879
1108	29.5064
1104	29.4811
1100	29.3985
1096	29.2966
1092	29.2943
1088	29.323
1084	29.323
1080	29.3185
1076	29.2459
1072	29.1852
1068	29.196
1064	29.2069
1060	29.2241
1056	29.2092
1052	29.1218
1048	29.1072
1044	29.1522
1040	29.0833
1036	28.9476
1032	28.833
1028	28.7663
1024	28.8013
1020	28.8809
1016	28.9504
1012	29.0594
1008	29.0833
1004	28.9471
1000	28.8036
996	 28.7571
992	 28.7547
988	 28.724
984	 28.711
980	 28.6765
976	 28.5374
972	 28.4009
968	 28.3703
964	 28.4389
960	 28.5565
956	 28.6287
952	 28.5638
948	 28.449
944	 28.469
940	 28.4757
936	 28.3247
932	 28.1829
928	 28.1346
924	 28.1395
920	 28.1492
916	 28.1468
912	 28.1467
908	 28.1249
904	 28.0436
900	 27.9411
896	 27.8549
892	 27.8169
888	 27.7885
884	 27.7118
880	 27.6923
876	 27.6678
872	 27.5865
868	 27.5816
864	 27.6012
860	 27.5212
856	 27.4529
852	 27.5113
848	 27.5533
844	 27.5203
840	 27.4215
836	 27.2458
832	 27.102
828	 26.9629
824	 26.7817
820	 26.7385
816	 26.7717
812	 26.7921
808	 26.79
804	 26.7454
800	 26.8106
796	 26.9114
792	 26.937
788	 26.8832
784	 26.6881
780	 26.4566
776	 26.3066
772	 26.2259
768	 26.21
764	 26.1389
760	 25.9385
756	 25.8089
752	 25.7786
748	 25.7512
744	 25.8169
740	 25.8651
736	 25.8578
732	 25.8972
728	 25.8324
724	 25.6271
720	 25.3998
716	 25.2823
712	 25.2845
708	 25.2388
704	 25.0824
700	 24.9577
696	 24.9933
692	 24.9058
688	 24.6005
684	 24.5469
680	 24.7605
676	 24.8932
672	 24.8572
668	 24.7665
664	 24.6305
660	 24.3145
656	 24.0214
652	 23.96
648	 23.9347
644	 23.8493
640	 23.728
636	 23.5719
632	 23.6089
628	 23.844
624	 23.857
620	 23.546
616	 23.2075
612	 23.0055
608	 22.8778
604	 22.8161
600	 22.9645
596	 23.2611
592	 23.2744
588	 22.9047
584	 22.6269
580	 22.599
576	 22.5905
572	 22.6502
568	 22.741
564	 22.6509
560	 22.392
556	 22.0395
552	 21.867
548	 21.8737
544	 21.7387
540	 21.4582
536	 21.1199
532	 20.9302
528	 20.9
524	 20.8969
520	 21.1513
516	 21.4274
512	 21.323
508	 21.1707
504	 20.9741
500	 20.575
496	 20.0963
492	 19.5604
488	 19.1588
484	 18.9636
480	 19.102
476	 19.354
472	 19.1721
468	 18.9101
464	 19.1583
460	 19.3308
456	 18.6856
452	 18.0229
448	 17.9493
444	 17.8496
440	 17.9468
436	 18.8653
432	 19.4085
428	 18.3212
424	 16.689
420	 15.4087
416	 14.2919
412	 14.061
408	 14.1101
404	 13.1986
400	 15.4134
396	 22.464
392	 27.1836
388	 21.8057
384	 11.0634
380	 4.357504
376	 0.297713
372	 10.7523
370	 22.0201