File: Bakgrunnsmateriale/MATLAB/FTIR/ftir_data/LPE453/Mapping_121/LPE453_t35_cm-1.asc
PE IR       SPECTRUM    SPECTRUM    ASCII       PEDS        1.60
  -1
LPE8DB~1.ASC
17/05/16
17:13:13.00
17/05/16
17:13:13.00
tln
$LPE453_t0035$<tbV0>[10.4,-5.2,8.0,0.0,27,1,0]
370
64

2002,4.07
MIRTGS : RIGHTBACK : INTERNAL 2
MIR : ON : INTERNAL 2
OPTKBR

0.200000
8
8.000000
FILLER
RATIO
SPECTRUM
UNLOCKED 256

DOUBLE
64
COMBINED
1
0
0

1.000000
RATIO

1
0
TRUE
51149
0
LEFT NOT FITTED RIGHT NOT FITTED 0
NONE
NONE
15600
12
4.427000
51148
TRUE
1 0 8 72 0 0 0 0

15798

#HDR
-1
-1
#GR
CM-1
%T
2.38419e-05
0.0
5000
-1.000000
4631
8
24.7163
-14.5363
#DATA
5000	-0.109601
4996	-0.093460
4992	0.020980
4988	0.182294
4984	0.346994
4980	0.445246
4976	0.196838
4972	-0.092458
4968	0.052142
4964	0.207901
4960	0.094056
4956	0.088500
4952	0.240945
4948	0.112676
4944	-0.146913
4940	-0.047850
4936	0.117993
4932	0.243520
4928	0.424385
4924	0.284481
4920	-0.001811
4916	-0.011014
4912	0.136899
4908	0.273585
4904	0.296545
4900	0.254464
4896	0.306844
4892	0.505352
4888	0.651192
4884	0.360560
4880	-0.143051
4876	-0.104832
4872	0.300502
4868	0.306653
4864	0.074934
4860	0.152444
4856	0.479078
4852	0.687026
4848	0.639581
4844	0.621914
4840	0.851106
4836	0.976467
4832	0.687456
4828	0.364089
4824	0.307035
4820	0.381517
4816	0.459480
4812	0.489354
4808	0.479054
4804	0.489902
4800	0.394439
4796	0.225257
4792	0.128364
4788	0.008225
4784	0.109410
4780	0.324821
4776	0.244522
4772	0.099515
4768	0.098633
4764	0.185418
4760	0.193929
4756	0.019216
4752	-0.076150
4748	0.098037
4744	0.314927
4740	0.367379
4736	0.277805
4732	0.147461
4728	0.058603
4724	0.045061
4720	0.094413
4716	0.075411
4712	-0.018405
4708	-0.004601
4704	0.074005
4700	0.055575
4696	-0.018262
4692	0.034213
4688	0.241756
4684	0.316047
4680	0.379729
4676	0.566649
4672	0.536847
4668	0.342512
4664	0.278925
4660	0.307464
4656	0.362706
4652	0.499486
4648	0.574827
4644	0.495409
4640	0.410127
4636	0.443291
4632	0.640344
4628	0.875139
4624	1.052308
4620	1.204156
4616	1.416778
4612	1.476573
4608	1.195240
4604	0.822782
4600	0.522732
4596	0.313234
4592	0.278615
4588	0.133252
4584	-0.102233
4580	-0.087451
4576	-0.084209
4572	-0.259566
4568	-0.338220
4564	-0.397968
4560	-0.582051
4556	-0.777721
4552	-0.409388
4548	0.052595
4544	-0.322341
4540	-0.934410
4536	-0.860023
4532	-1.092052
4528	-1.682448
4524	-1.008224
4520	6.624436
4516	19.1284
4512	16.1544
4508	1.610279
4504	-2.622771
4500	-0.735569
4496	-0.086474
4492	0.343751
4488	0.660061
4484	0.893259
4480	0.431227
4476	0.040698
4472	-0.070500
4468	-0.148797
4464	-0.031304
4460	0.125432
4456	0.064516
4452	0.172948
4448	0.528407
4444	0.617885
4440	0.489449
4436	0.492453
4432	0.615406
4428	0.732302
4424	0.650334
4420	0.396013
4416	0.381803
4412	0.639533
4408	0.842618
4404	0.852108
4400	0.749444
4396	0.481891
4392	0.242805
4388	0.316214
4384	0.349330
4380	0.246381
4376	0.239276
4372	0.353169
4368	0.486516
4364	0.559115
4360	0.652194
4356	0.841474
4352	0.949978
4348	0.783276
4344	0.516486
4340	0.336503
4336	0.301885
4332	0.369620
4328	0.363731
4324	0.229239
4320	0.102853
4316	0.063323
4312	-0.053882
4308	-0.136113
4304	-0.055980
4300	-0.052499
4296	-0.206708
4292	-0.207090
4288	-0.047564
4284	0.125813
4280	0.173330
4276	0.085043
4272	0.086951
4268	0.184726
4264	0.222492
4260	0.146269
4256	0.010442
4252	0.056648
4248	0.326108
4244	0.434350
4240	0.230717
4236	0.131154
4232	0.286126
4228	0.442886
4224	0.460743
4220	0.424456
4216	0.303864
4212	0.079369
4208	0.024533
4204	0.120615
4200	0.108480
4196	-0.081562
4192	-0.205492
4188	-0.044870
4184	0.105309
4180	0.129675
4176	0.176453
4172	0.025177
4168	-0.209116
4164	-0.059390
4160	0.282001
4156	0.338578
4152	0.180220
4148	0.164651
4144	0.271749
4140	0.296258
4136	0.348043
4132	0.295567
4128	0.154852
4124	0.142598
4120	0.203108
4116	0.236511
4112	0.136566
4108	-0.012612
4104	-0.107145
4100	-0.054550
4096	0.066328
4092	0.104808
4088	0.091505
4084	0.059962
4080	0.112438
4076	0.171208
4072	0.138711
4068	0.067543
4064	0.052785
4060	0.161147
4056	0.243139
4052	0.241112
4048	0.151038
4044	0.038933
4040	0.035071
4036	0.097894
4032	0.190663
4028	0.279259
4024	0.260877
4020	0.218582
4016	0.191211
4012	0.052428
4008	0.005483
4004	0.132822
4000	0.138664
3996	0.074100
3992	0.107884
3988	0.091195
3984	-0.044178
3980	-0.082373
3976	0.017094
3972	0.073099
3968	0.042247
3964	0.036430
3960	0.098180
3956	0.190687
3952	0.251603
3948	0.181698
3944	0.033044
3940	-0.061559
3936	-0.032734
3932	0.039362
3928	0.030970
3924	-0.019335
3920	0.031304
3916	0.154948
3912	0.169634
3908	0.137948
3904	0.192904
3900	0.227046
3896	0.153732
3892	0.093340
3888	0.105619
3884	0.160932
3880	0.172591
3876	0.153899
3872	0.066065
3868	-0.120162
3864	-0.177788
3860	-0.084066
3856	0.021314
3852	0.115203
3848	0.113272
3844	0.003170
3840	-0.087189
3836	-0.078034
3832	0.021004
3828	0.099325
3824	0.009536
3820	-0.094318
3816	-0.033164
3812	0.051140
3808	0.109243
3804	0.213527
3800	0.276780
3796	0.195908
3792	0.081872
3788	0.056958
3784	0.092291
3780	0.131893
3776	0.151133
3772	0.095558
3768	-0.012350
3764	-0.043392
3760	0.034523
3756	0.223088
3752	0.341582
3748	0.257778
3744	0.152134
3740	0.143909
3736	0.138592
3732	0.078916
3728	0.066661
3724	0.107550
3720	0.085616
3716	0.014472
3712	-0.007677
3708	0.000786
3704	0.000262
3700	0.020527
3696	0.058817
3692	0.077009
3688	0.074005
3684	0.054335
3680	0.015139
3676	0.036168
3672	0.062727
3668	-0.011157
3664	-0.117969
3660	-0.110816
3656	-0.016307
3652	-0.023722
3648	-0.060844
3644	-0.012469
3640	0.016927
3636	-0.006937
3632	0.011944
3628	0.088453
3624	0.125265
3620	0.124740
3616	0.114035
3612	0.078415
3608	0.032830
3604	-0.030565
3600	-0.069022
3596	-0.056457
3592	-0.020766
3588	0.034594
3584	0.070810
3580	0.110554
3576	0.110101
3572	0.007152
3568	-0.010204
3564	0.077009
3560	0.086641
3556	0.083136
3552	0.180816
3548	0.271773
3544	0.254535
3540	0.215864
3536	0.176191
3532	0.071763
3528	-0.022149
3524	0.001406
3520	0.114846
3516	0.161957
3512	0.076699
3508	0.030350
3504	0.056767
3500	-0.017237
3496	-0.152873
3492	-0.130343
3488	0.061058
3484	0.211167
3480	0.232481
3476	0.141358
3472	-0.048398
3468	-0.217223
3464	-0.167584
3460	0.047063
3456	0.098752
3452	-0.016951
3448	-0.052022
3444	-0.048780
3440	-0.053524
3436	0.007390
3432	0.050234
3428	0.095248
3424	0.182676
3420	0.154757
3416	0.069975
3412	0.126242
3408	0.199460
3404	0.111413
3400	-0.034165
3396	-0.033545
3392	0.087118
3388	0.106573
3384	-0.042295
3380	-0.124001
3376	-0.025558
3372	0.068140
3368	0.046777
3364	-0.048851
3360	-0.116825
3356	-0.079965
3352	0.043249
3348	0.156617
3344	0.213170
3340	0.240969
3336	0.264334
3332	0.231885
3328	0.085210
3324	-0.043225
3320	-0.035405
3316	0.047135
3312	0.098586
3308	0.108933
3304	0.167775
3300	0.186872
3296	0.096964
3292	0.060486
3288	0.089001
3284	0.094985
3280	0.124883
3276	0.156760
3272	0.130963
3268	0.104570
3264	0.123333
3260	0.132870
3256	0.073838
3252	-0.049138
3248	-0.105333
3244	-0.015044
3240	0.066614
3236	0.099492
3232	0.153660
3228	0.134086
3224	0.032520
3220	-0.047373
3216	-0.096702
3212	-0.075101
3208	0.031661
3204	0.073528
3200	0.010585
3196	-0.030994
3192	0.013804
3188	0.145483
3184	0.248599
3180	0.181984
3176	0.032401
3172	-0.037717
3168	-0.005292
3164	0.061106
3160	0.046658
3156	-0.036096
3152	-0.024151
3148	0.062847
3144	0.066757
3140	0.039005
3136	0.034427
3132	-0.046825
3128	-0.092601
3124	-0.008130
3120	0.079584
3116	0.147008
3112	0.199007
3108	0.251388
3104	0.260877
3100	0.162625
3096	0.067234
3092	0.046515
3088	0.073313
3084	0.129365
3080	0.165271
3076	0.111436
3072	-0.030040
3068	-0.153231
3064	-0.156903
3060	-0.071763
3056	0.044608
3052	0.105619
3048	0.075197
3044	0.011754
3040	-0.071096
3036	-0.100493
3032	-0.030064
3028	0.062251
3024	0.117421
3020	0.143432
3016	0.130796
3012	0.094699
3008	0.131964
3004	0.127696
3000	0.013685
2996	-0.059342
2992	-0.043845
2988	-0.006151
2984	0.007414
2980	0.017452
2976	0.043582
2972	0.046205
2968	0.020360
2964	0.044250
2960	0.119447
2956	0.162696
2952	0.155997
2948	0.094962
2944	0.063467
2940	0.115585
2936	0.091719
2932	0.039196
2928	0.073194
2924	0.074863
2920	0.054359
2916	0.071001
2912	0.091552
2908	0.140023
2904	0.161504
2900	0.123596
2896	0.100588
2892	0.087714
2888	0.096631
2884	0.111603
2880	0.117087
2876	0.103116
2872	0.022745
2868	-0.038385
2864	-0.006937
2860	0.094532
2856	0.149774
2852	0.077056
2848	0.028681
2844	0.041389
2840	0.024986
2836	0.032687
2832	0.080323
2828	0.063610
2824	0.005054
2820	-0.020360
2816	0.018477
2812	0.115442
2808	0.157809
2804	0.107884
2800	0.065588
2796	0.005745
2792	-0.122737
2788	-0.155210
2784	-0.054812
2780	0.020146
2776	0.032162
2772	0.023484
2768	0.036311
2764	0.072550
2760	0.089240
2756	0.096797
2752	0.061583
2748	-0.042247
2744	-0.074124
2740	-0.002169
2736	0.057005
2732	0.060582
2728	0.070595
2724	0.143623
2720	0.184631
2716	0.150513
2712	0.135326
2708	0.132417
2704	0.056505
2700	-0.067400
2696	-0.119614
2692	-0.081968
2688	-0.042629
2684	-0.006318
2680	0.030851
2676	0.007367
2672	-0.035738
2668	-0.025582
2664	0.023818
2660	0.090193
2656	0.097894
2652	0.056242
2648	0.067877
2644	0.078439
2640	0.052523
2636	0.019860
2632	-0.026106
2628	-0.005865
2624	0.079345
2620	0.110006
2616	0.082468
2612	0.090193
2608	0.148272
2604	0.130033
2600	0.052785
2596	0.005722
2592	-0.039315
2588	-0.026559
2584	0.062751
2580	0.108242
2576	0.078773
2572	0.057435
2568	0.069665
2564	0.043582
2560	-0.017380
2556	0.012946
2552	0.090813
2548	0.075435
2544	0.014781
2540	0.017094
2536	0.077700
2532	0.145101
2528	0.168061
2524	0.124597
2520	0.058627
2516	-0.001454
2512	-0.025725
2508	-0.050497
2504	-0.091290
2500	-0.038146
2496	0.054335
2492	0.078105
2488	0.069332
2484	0.056791
2480	0.040245
2476	0.030922
2472	0.021505
2468	0.006246
2464	0.025725
2460	0.053501
2456	0.047063
2452	0.054264
2448	0.070238
2444	0.053143
2440	0.041937
2436	0.060486
2432	0.090074
2428	0.135540
2424	0.142836
2420	0.123429
2416	0.136137
2412	0.077033
2408	-0.060081
2404	-0.134181
2400	-0.094580
2396	-0.042080
2392	-0.037860
2388	-0.027585
2384	-0.063347
2380	-0.104975
2376	-0.063705
2372	-0.010800
2368	-0.019168
2364	-0.083065
2360	-0.121355
2356	-0.063586
2352	0.055408
2348	0.102496
2344	0.028443
2340	-0.055813
2336	-0.051665
2332	-0.014948
2328	-0.026774
2324	-0.038075
2320	-0.006628
2316	0.016260
2312	0.007629
2308	-0.004148
2304	-0.011754
2300	-0.022506
2296	-0.017929
2292	0.029373
2288	0.067424
2284	0.061154
2280	0.024247
2276	0.021004
2272	0.097870
2268	0.115275
2264	0.030612
2260	-0.010251
2256	0.070476
2252	0.176692
2248	0.235295
2244	0.272226
2240	0.287485
2236	0.309562
2232	0.340127
2228	0.386667
2224	0.464200
2220	0.529122
2216	0.594305
2212	0.658822
2208	0.715804
2204	0.805783
2200	0.941371
2196	1.100111
2192	1.183223
2188	1.217842
2184	1.328015
2180	1.495790
2176	1.685810
2172	1.847577
2168	1.982021
2164	2.167868
2160	2.343630
2156	2.498197
2152	2.761983
2148	3.065252
2144	3.310251
2140	3.594779
2136	3.906130
2132	4.099249
2128	4.236459
2124	4.466152
2120	4.736399
2116	5.065464
2112	5.466532
2108	5.766081
2104	6.028842
2100	6.372976
2096	6.694555
2092	7.047843
2088	7.511043
2084	7.980656
2080	8.339929
2076	8.576512
2072	8.915138
2068	9.434056
2064	9.860920
2060	10.0467
2056	10.2063
2052	10.5678
2048	10.9975
2044	11.3595
2040	11.6976
2036	12.0383
2032	12.3982
2028	12.7507
2024	13.0917
2020	13.4324
2016	13.7614
2012	14.0957
2008	14.4643
2004	14.8334
2000	15.1696
1996	15.5007
1992	15.7981
1988	16.0326
1984	16.2454
1980	16.4594
1976	16.6905
1972	16.9682
1968	17.2672
1964	17.5529
1960	17.8362
1956	18.1204
1952	18.3525
1948	18.5268
1944	18.702
1940	18.8863
1936	19.1131
1932	19.387
1928	19.5998
1924	19.76
1920	19.9669
1916	20.1845
1912	20.3856
1908	20.5756
1904	20.7141
1900	20.8402
1896	21.0023
1892	21.1982
1888	21.4061
1884	21.5759
1880	21.6892
1876	21.7506
1872	21.8392
1868	22.0314
1864	22.2183
1860	22.325
1856	22.4538
1852	22.6118
1848	22.6726
1844	22.6681
1840	22.7345
1836	22.8518
1832	22.9404
1828	23.0341
1824	23.1553
1820	23.2554
1816	23.3261
1812	23.3821
1808	23.4768
1804	23.5992
1800	23.6556
1796	23.6611
1792	23.699
1788	23.754
1784	23.7973
1780	23.8652
1776	23.9422
1772	23.9747
1768	23.985
1764	24.0015
1760	24.0094
1756	24.0408
1752	24.0955
1748	24.1272
1744	24.1807
1740	24.3067
1736	24.3706
1732	24.3322
1728	24.3418
1724	24.3441
1720	24.2729
1716	24.2514
1712	24.3108
1708	24.4107
1704	24.5183
1700	24.5338
1696	24.4814
1692	24.4753
1688	24.4932
1684	24.4808
1680	24.422
1676	24.3658
1672	24.4007
1668	24.5312
1664	24.644
1660	24.6211
1656	24.5474
1652	24.5754
1648	24.6234
1644	24.5821
1640	24.5527
1636	24.6049
1632	24.6613
1628	24.6543
1624	24.6305
1620	24.653
1616	24.6588
1612	24.6552
1608	24.7075
1604	24.6962
1600	24.6194
1596	24.5692
1592	24.5681
1588	24.6325
1584	24.6545
1580	24.5891
1576	24.5724
1572	24.6525
1568	24.7028
1564	24.6981
1560	24.6787
1556	24.6182
1552	24.5769
1548	24.6078
1544	24.6384
1540	24.6495
1536	24.6609
1532	24.6023
1528	24.5212
1524	24.5442
1520	24.6361
1516	24.6815
1512	24.648
1508	24.5975
1504	24.5392
1500	24.467
1496	24.4741
1492	24.5777
1488	24.6515
1484	24.6103
1480	24.5013
1476	24.4238
1472	24.3607
1468	24.3332
1464	24.4053
1460	24.4486
1456	24.3988
1452	24.3912
1448	24.4457
1444	24.4797
1440	24.5087
1436	24.4744
1432	24.3026
1428	24.1543
1424	24.165
1420	24.2648
1416	24.3067
1412	24.2177
1408	24.1018
1404	24.1081
1400	24.1949
1396	24.1997
1392	24.1752
1388	24.217
1384	24.2109
1380	24.0827
1376	23.9228
1372	23.8885
1368	23.9975
1364	24.0906
1360	24.1026
1356	24.0971
1352	24.0577
1348	23.9577
1344	23.9524
1340	24.0651
1336	24.0849
1332	23.9649
1328	23.8459
1324	23.8109
1320	23.8483
1316	23.867
1312	23.8293
1308	23.8219
1304	23.8327
1300	23.8595
1296	23.915
1292	23.883
1288	23.782
1284	23.7269
1280	23.7422
1276	23.7572
1272	23.6955
1268	23.6327
1264	23.6272
1260	23.6597
1256	23.6914
1252	23.6427
1248	23.5755
1244	23.5883
1240	23.6209
1236	23.638
1232	23.6252
1228	23.5945
1224	23.585
1220	23.5224
1216	23.4371
1212	23.4258
1208	23.4551
1204	23.42
1200	23.3395
1196	23.3397
1192	23.3442
1188	23.2884
1184	23.2522
1180	23.2212
1176	23.2054
1172	23.191
1168	23.1137
1164	23.0653
1160	23.1017
1156	23.149
1152	23.1541
1148	23.0985
1144	23.0202
1140	22.9317
1136	22.8664
1132	22.886
1128	22.9277
1124	22.9431
1120	22.9435
1116	22.9139
1112	22.8719
1108	22.8235
1104	22.7866
1100	22.711
1096	22.601
1092	22.631
1088	22.7087
1084	22.6654
1080	22.621
1076	22.5883
1072	22.4893
1068	22.4099
1064	22.4325
1060	22.509
1056	22.5078
1052	22.4779
1048	22.5132
1044	22.4957
1040	22.3313
1036	22.1206
1032	22.0763
1028	22.1949
1024	22.2677
1020	22.1939
1016	22.0467
1012	21.954
1008	21.9246
1004	21.9146
1000	21.9044
996	 21.821
992	 21.6622
988	 21.5984
984	 21.7059
980	 21.7958
976	 21.7094
972	 21.5157
968	 21.3933
964	 21.4093
960	 21.381
956	 21.3385
952	 21.4973
948	 21.6
944	 21.3564
940	 21.0518
936	 20.9795
932	 21.0894
928	 21.1747
924	 21.0655
920	 20.8621
916	 20.7167
912	 20.6606
908	 20.6322
904	 20.5894
900	 20.4969
896	 20.3849
892	 20.392
888	 20.416
884	 20.4012
880	 20.4108
876	 20.2387
872	 19.9307
868	 19.7988
864	 19.7894
860	 19.7307
856	 19.6495
852	 19.6584
848	 19.7131
844	 19.6891
840	 19.6487
836	 19.5622
832	 19.3732
828	 19.2707
824	 19.2163
820	 19.1098
816	 19.0946
812	 19.1229
808	 19.0276
804	 18.9478
800	 19.0421
796	 19.0428
792	 18.9198
788	 18.9448
784	 18.9995
780	 18.8476
776	 18.6233
772	 18.5296
768	 18.4564
764	 18.3542
760	 18.3166
756	 18.2741
752	 18.1828
748	 18.1194
744	 18.1433
740	 18.1602
736	 18.0927
732	 17.9785
728	 17.8367
724	 17.6622
720	 17.468
716	 17.3677
712	 17.359
708	 17.2127
704	 16.9749
700	 16.9611
696	 17.1147
692	 17.1135
688	 16.915
684	 16.7813
680	 16.7762
676	 16.6095
672	 16.4103
668	 16.45
664	 16.4656
660	 16.2413
656	 15.9733
652	 15.9722
648	 16.0454
644	 15.9048
640	 15.8444
636	 15.8873
632	 15.7045
628	 15.2975
624	 14.9576
620	 14.9306
616	 15.0823
612	 15.1214
608	 14.9486
604	 14.6594
600	 14.4191
596	 14.3626
592	 14.392
588	 14.2643
584	 13.8925
580	 13.5851
576	 13.6631
572	 13.8722
568	 14.0559
564	 14.1792
560	 14.1825
556	 14.0945
552	 13.623
548	 13.0325
544	 12.9903
540	 13.2179
536	 13.3231
532	 13.296
528	 13.1339
524	 13.2761
520	 13.6516
516	 13.4322
512	 12.6929
508	 12.0592
504	 11.9341
500	 12.117
496	 11.9063
492	 11.4448
488	 11.3789
484	 11.8367
480	 12.1436
476	 12.0006
472	 12.0506
468	 11.9273
464	 11.1392
460	 10.2859
456	 9.883594
452	 10.033
448	 9.951949
444	 9.647607
440	 10.6814
436	 12.5593
432	 12.7038
428	 11.0863
424	 10.6739
420	 11.4908
416	 11.4415
412	 10.7301
408	 9.635519
404	 10.0969
400	 9.446549
396	 -2.112770
392	 -14.3094
388	 -7.444572
384	 7.386255
380	 12.8868
376	 11.1444
372	 14.6389
370	 21.1118