File: Bakgrunnsmateriale/MATLAB/FTIR/ftir_data/LPE453/Mapping_121/LPE453_t94.asc
PE IR       SPECTRUM    SPECTRUM    ASCII       PEDS        1.60
  -1
LPD7B9~1.ASC
17/05/16
22:06:40.00
17/05/16
22:07:06.00
tln
$LPE453_t0094$<tbV0>[0.0,7.8,8.0,0.0,27,1,0]
27.028
64

2002,4.07
MIRTGS : RIGHTBACK : INTERNAL 2
MIR : ON : INTERNAL 2
OPTKBR

0.200000
8
8.000000
FILLER
RATIO
SPECTRUM
UNLOCKED 256

DOUBLE
64
COMBINED
1
0
0

0.002000
RATIO

1
0
TRUE
51149
0
LEFT NOT FITTED RIGHT NOT FITTED 0
NONE
NONE
15600
12
4.427000
51148
TRUE
1 0 8 72 0 0 0 0

15798

#HDR
-1
-1
#GR
µM
%T
2.38419e-05
0.0
2.000000
0.002000
12515
8
35.4468
-18.2271
#DATA
2.000000	 0.232148
2.018000	 0.056344
2.036000	 -0.161154
2.054000	 0.281991
2.072000	 -0.268890
2.090000	 -0.193724
2.108000	 -0.266041
2.126000	 -0.302859
2.144000	 -0.820959
2.162000	 -0.854655
2.180000	 0.088964
2.198000	 -1.809053
2.216000	 -1.156007
2.234000	 -0.643921
2.252000	 -0.374646
2.270000	 0.469039
2.288000	 -0.000009
2.306000	 0.222036
2.324000	 -0.021332
2.342000	 -0.031752
2.360000	 0.102894
2.378000	 0.245698
2.396000	 0.109825
2.414000	 0.227409
2.432000	 -0.010671
2.450000	 -0.034759
2.468000	 0.204197
2.486000	 0.108373
2.504000	 0.019739
2.522000	 0.059964
2.540000	 0.111637
2.558000	 0.034491
2.576000	 0.024364
2.594000	 0.220363
2.612000	 -0.000655
2.630000	 0.154075
2.648000	 0.139515
2.666000	 -0.008046
2.684000	 0.021833
2.702000	 0.085127
2.720000	 0.181412
2.738000	 0.007908
2.756000	 -0.100200
2.774000	 0.153776
2.792000	 0.093606
2.810000	 -0.170562
2.828000	 0.167964
2.846000	 0.013414
2.864000	 0.202342
2.882000	 -0.088729
2.900000	 0.015469
2.918000	 -0.070411
2.936000	 0.036319
2.954000	 0.124831
2.972000	 0.004213
2.990000	 0.117029
3.008000	 0.051681
3.026000	 0.298494
3.044000	 0.201352
3.062000	 0.177321
3.080000	 0.130751
3.098000	 0.087441
3.116000	 -0.094989
3.134000	 -0.021939
3.152000	 0.069247
3.170000	 0.167441
3.188000	 -0.026268
3.206000	 0.091711
3.224000	 -0.005604
3.242000	 0.107021
3.260000	 0.049375
3.278000	 -0.017090
3.296000	 0.088886
3.314000	 -0.066534
3.332000	 0.052330
3.350000	 -0.072378
3.368000	 0.137317
3.386000	 0.059624
3.404000	 -0.012234
3.422000	 0.081860
3.440000	 -0.017351
3.458000	 -0.010712
3.476000	 0.047245
3.494000	 0.023319
3.512000	 -0.026629
3.530000	 0.052977
3.548000	 0.048931
3.566000	 0.020309
3.584000	 -0.054312
3.602000	 0.114884
3.620000	 -0.015888
3.638000	 -0.088601
3.656000	 0.134790
3.674000	 -0.020371
3.692000	 -0.003317
3.710000	 0.082264
3.728000	 0.066179
3.746000	 0.000957
3.764000	 0.068675
3.782000	 0.018012
3.800000	 -0.007027
3.818000	 0.101901
3.836000	 0.111302
3.854000	 0.127623
3.872000	 0.093980
3.890000	 0.033291
3.908000	 0.121471
3.926000	 0.019189
3.944000	 0.002112
3.962000	 -0.027478
3.980000	 0.052871
3.998000	 0.096612
4.016000	 0.170246
4.034000	 -0.063125
4.052000	 0.096942
4.070000	 -0.001653
4.088000	 0.057123
4.106000	 0.039804
4.124000	 0.103208
4.141999	 -0.017716
4.160000	 0.053108
4.178000	 0.159750
4.196000	 0.153519
4.214000	 0.095229
4.232000	 0.089491
4.250000	 0.082755
4.268000	 0.116372
4.286000	 0.352167
4.304000	 0.433238
4.322000	 0.553807
4.340000	 0.593648
4.358000	 0.723534
4.375999	 0.848427
4.394000	 1.120102
4.412000	 1.336058
4.430000	 1.578087
4.448000	 2.058234
4.466000	 2.437130
4.484000	 2.839906
4.502000	 3.382502
4.520000	 3.972614
4.538000	 4.523046
4.556000	 5.159869
4.574000	 6.005136
4.592000	 6.844130
4.609999	 7.745551
4.628000	 8.714154
4.646000	 9.713012
4.664000	 10.6116
4.682000	 11.5629
4.700000	 12.6112
4.718000	 13.6321
4.736000	 14.6387
4.754000	 15.7944
4.772000	 16.7909
4.790000	 17.7564
4.808000	 18.7725
4.826000	 19.5651
4.843999	 20.5076
4.862000	 21.3846
4.880000	 22.1307
4.898000	 23.0748
4.916000	 23.9208
4.934000	 24.6166
4.952000	 25.1407
4.970000	 25.8094
4.988000	 26.2911
5.006000	 26.9665
5.024000	 27.6045
5.042000	 28.1633
5.060000	 28.6552
5.077999	 29.0147
5.096000	 29.3417
5.114000	 29.6297
5.132000	 30.0102
5.150000	 30.4381
5.168000	 30.8669
5.186000	 31.2322
5.204000	 31.5605
5.222000	 31.7416
5.240000	 31.8497
5.258000	 31.9721
5.276000	 32.1908
5.294000	 32.4361
5.312000	 32.7519
5.330000	 33.0773
5.348000	 33.3023
5.366000	 33.4324
5.384000	 33.3134
5.402000	 33.2863
5.420000	 33.325
5.438000	 33.5082
5.456000	 33.7195
5.474000	 33.8956
5.492000	 34.1053
5.510000	 34.1516
5.528000	 34.1607
5.546000	 34.2028
5.564000	 34.1132
5.582000	 34.0593
5.600000	 34.1738
5.618000	 34.3323
5.636000	 34.4286
5.654000	 34.6143
5.672000	 34.7826
5.690000	 34.714
5.708000	 34.6001
5.726000	 34.5628
5.744000	 34.5549
5.762000	 34.4485
5.780000	 34.4712
5.798000	 34.7148
5.816000	 34.9014
5.834000	 35.011
5.852000	 35.1115
5.870000	 35.1147
5.888000	 34.976
5.906000	 34.8824
5.923999	 34.7603
5.942000	 34.6598
5.960000	 34.6311
5.978000	 34.6394
5.996000	 34.7416
6.014000	 35.0045
6.032000	 35.1678
6.050000	 35.2006
6.068000	 35.2526
6.086000	 35.2328
6.104000	 35.0983
6.122000	 34.905
6.140000	 34.8039
6.158000	 34.7825
6.176000	 34.7949
6.194000	 34.8274
6.212000	 34.9341
6.230000	 35.1564
6.248000	 35.2575
6.266000	 35.2544
6.284000	 35.3021
6.302000	 35.288
6.320000	 35.1386
6.338000	 34.9555
6.356000	 34.7415
6.374000	 34.5907
6.392000	 34.5979
6.410000	 34.6853
6.428000	 34.8308
6.446000	 34.9666
6.464000	 35.1159
6.482000	 35.3203
6.500000	 35.4407
6.518000	 35.4231
6.536000	 35.3371
6.554000	 35.1973
6.572000	 35.0215
6.590000	 34.8722
6.608000	 34.7799
6.626000	 34.6906
6.644000	 34.6619
6.662000	 34.7728
6.680000	 34.9414
6.698000	 35.123
6.716000	 35.316
6.734000	 35.4317
6.752000	 35.4183
6.770000	 35.3209
6.788000	 35.2592
6.806000	 35.2599
6.824000	 35.1789
6.842000	 34.9672
6.860000	 34.727
6.878000	 34.5723
6.896000	 34.542
6.914000	 34.6167
6.932000	 34.7874
6.950000	 34.949
6.968000	 35.0227
6.986000	 35.0913
7.004000	 35.1849
7.022000	 35.2509
7.040000	 35.2489
7.058000	 35.1566
7.076000	 34.9876
7.094000	 34.7858
7.112000	 34.615
7.130000	 34.5387
7.148000	 34.538
7.166000	 34.5422
7.184000	 34.5418
7.202000	 34.56
7.220000	 34.6076
7.238000	 34.7126
7.256000	 34.8759
7.274000	 35.0463
7.292000	 35.168
7.310000	 35.2046
7.328000	 35.1711
7.346000	 35.1163
7.364000	 35.0428
7.382000	 34.9184
7.400000	 34.7446
7.418000	 34.5629
7.436000	 34.4001
7.454000	 34.2694
7.472000	 34.2149
7.490000	 34.2535
7.508000	 34.3176
7.526000	 34.3625
7.544000	 34.4263
7.562000	 34.5339
7.580000	 34.6611
7.598000	 34.785
7.616000	 34.8879
7.634000	 34.9463
7.652000	 34.9524
7.670000	 34.9149
7.688000	 34.844
7.706000	 34.7431
7.724000	 34.6082
7.742000	 34.4527
7.760000	 34.314
7.778000	 34.2093
7.796000	 34.1271
7.814000	 34.0772
7.832000	 34.0797
7.850000	 34.1197
7.868000	 34.1775
7.886000	 34.2649
7.904000	 34.3886
7.922000	 34.5237
7.940000	 34.6434
7.958000	 34.7415
7.976000	 34.8207
7.994000	 34.8717
8.012000	 34.8615
8.030000	 34.7633
8.048000	 34.6084
8.065999	 34.4682
8.084000	 34.3715
8.102000	 34.2841
8.120000	 34.1852
8.138000	 34.1042
8.155999	 34.0625
8.173999	 34.0356
8.192000	 33.9982
8.210000	 33.9638
8.228000	 33.9618
8.246000	 34.0045
8.263999	 34.0874
8.282000	 34.1961
8.300000	 34.313
8.318000	 34.4231
8.336000	 34.5188
8.353999	 34.5973
8.372000	 34.6556
8.390000	 34.6871
8.408000	 34.6814
8.426000	 34.6342
8.443999	 34.5547
8.462000	 34.4535
8.480000	 34.3295
8.498000	 34.1806
8.516000	 34.0226
8.533999	 33.8808
8.552000	 33.7665
8.570000	 33.6784
8.588000	 33.6232
8.606000	 33.6156
8.624000	 33.6568
8.641999	 33.7273
8.660000	 33.8087
8.678000	 33.8978
8.696000	 33.995
8.714000	 34.0895
8.731999	 34.1714
8.750000	 34.2494
8.768000	 34.3403
8.786000	 34.4401
8.804000	 34.5181
8.821999	 34.5438
8.840000	 34.5085
8.858000	 34.4255
8.876000	 34.3135
8.894000	 34.1851
8.911999	 34.047
8.930000	 33.9073
8.948000	 33.7785
8.966000	 33.6711
8.984000	 33.5838
9.001999	 33.5059
9.020000	 33.4309
9.038000	 33.3657
9.056000	 33.3251
9.074000	 33.3205
9.092000	 33.3575
9.109999	 33.4332
9.128000	 33.5353
9.146000	 33.6438
9.164000	 33.7424
9.182000	 33.83
9.199999	 33.9152
9.218000	 34.0002
9.236000	 34.0733
9.254000	 34.1212
9.272000	 34.1426
9.289999	 34.1468
9.308000	 34.1419
9.326000	 34.1273
9.344000	 34.0943
9.362000	 34.0337
9.379999	 33.9382
9.398000	 33.8065
9.416000	 33.6498
9.434000	 33.4934
9.452000	 33.3672
9.469999	 33.2879
9.488000	 33.2499
9.506000	 33.2338
9.524000	 33.2222
9.542000	 33.2117
9.560000	 33.2108
9.577999	 33.2295
9.596000	 33.2728
9.614000	 33.3373
9.632000	 33.4115
9.650000	 33.4791
9.667999	 33.5258
9.686000	 33.55
9.704000	 33.5661
9.722000	 33.5947
9.740000	 33.6431
9.757999	 33.6959
9.776000	 33.7261
9.794000	 33.7216
9.812000	 33.7006
9.830000	 33.6968
9.847999	 33.7279
9.866000	 33.7766
9.884000	 33.8032
9.902000	 33.7747
9.920000	 33.6864
9.937999	 33.5579
9.956000	 33.4122
9.974000	 33.2604
9.992000	 33.1046
10.01	32.9496
10.028	32.8067
10.046	32.6896
10.064	32.6056
10.082	32.5543
10.1	32.5304
10.118	32.5292
10.136	32.5492
10.154	32.5891
10.172	32.6458
10.19	32.7128
10.208	32.7819
10.226	32.8475
10.244	32.9072
10.262	32.9632
10.28	33.0212
10.298	33.0865
10.316	33.1614
10.334	33.2431
10.352	33.3253
10.37	33.3998
10.388	33.4588
10.406	33.4966
10.424	33.5082
10.442	33.4903
10.46	33.4409
10.478	33.3598
10.496	33.251
10.514	33.1219
10.532	32.9835
10.55	32.8474
10.568	32.7234
10.586	32.6165
10.604	32.5255
10.622	32.4446
10.64	32.3654
10.658	32.2818
10.676	32.1957
10.694	32.1169
10.712	32.0608
10.73	32.0396
10.748	32.0564
10.766	32.1018
10.784	32.1589
10.802	32.2098
10.82	32.2445
10.838	32.263
10.856	32.2738
10.874	32.2891
10.892	32.3184
10.91	32.3663
10.928	32.4312
10.946	32.5069
10.964	32.5851
10.982	32.6574
11	32.7186
11.018	32.7661
11.036	32.7992
11.054	32.8164
11.072	32.8142
11.09	32.7875
11.108	32.7328
11.126	32.6509
11.144	32.5482
11.162	32.4359
11.18	32.3248
11.198	32.2224
11.216	32.1301
11.234	32.0452
11.252	31.9639
11.27	31.8842
11.288	31.8062
11.306	31.7315
11.324	31.6613
11.342	31.595
11.36	31.5309
11.378	31.4677
11.396	31.4055
11.414	31.346
11.432	31.2916
11.45	31.244
11.468	31.2049
11.486	31.1767
11.504	31.1627
11.522	31.1671
11.54	31.1931
11.558	31.2416
11.576	31.3107
11.594	31.3964
11.612	31.4936
11.63	31.5967
11.648	31.701
11.666	31.8011
11.684	31.892
11.702	31.9694
11.72	32.0304
11.738	32.0755
11.756	32.1083
11.774	32.1339
11.792	32.156
11.81	32.1745
11.828	32.1849
11.846	32.1805
11.864	32.1557
11.882	32.1092
11.9	32.0445
11.918	31.9688
11.936	31.8903
11.954	31.8154
11.972	31.7467
11.99	31.6823
12.008	31.6176
12.026	31.5472
12.044	31.4673
12.062	31.3775
12.08	31.2811
12.098	31.1829
12.116	31.0885
12.134	31.0021
12.152	30.925
12.17	30.8566
12.188	30.7952
12.206	30.7391
12.224	30.6877
12.242	30.642
12.26	30.6036
12.278	30.5745
12.296	30.5556
12.314	30.5469
12.332	30.5479
12.35	30.557
12.368	30.5737
12.386	30.5975
12.404	30.6287
12.422	30.6673
12.44	30.7127
12.458	30.7632
12.476	30.8158
12.494	30.867
12.512	30.9139
12.53	30.9546
12.548	30.9894
12.566	31.0199
12.584	31.0491
12.602	31.0798
12.62	31.1133
12.638	31.1495
12.656	31.1861
12.674	31.2197
12.692	31.2468
12.71	31.2647
12.728	31.2722
12.746	31.27
12.764	31.2596
12.782	31.2426
12.8	31.2197
12.818	31.1902
12.836	31.1521
12.854	31.1024
12.872	31.039
12.89	30.9617
12.908	30.8731
12.926	30.7783
12.944	30.6841
12.962	30.597
12.98	30.5215
12.998	30.4587
13.016	30.4066
13.034	30.3606
13.052	30.3151
13.07	30.2654
13.088	30.2092
13.106	30.1472
13.124	30.0825
13.142	30.0198
13.16	29.964
13.178	29.9192
13.196	29.8876
13.214	29.8698
13.232	29.8651
13.25	29.8723
13.268	29.8899
13.286	29.9167
13.304	29.9514
13.322	29.9924
13.34	30.0374
13.358	30.0838
13.376	30.1284
13.394	30.1689
13.412	30.2033
13.43	30.2309
13.448	30.2526
13.466	30.27
13.484	30.285
13.502	30.2994
13.52	30.314
13.538	30.3285
13.556	30.3421
13.574	30.3536
13.592	30.362
13.61	30.3672
13.628	30.3692
13.646	30.3693
13.664	30.3684
13.682	30.3671
13.7	30.3651
13.718	30.3612
13.736	30.3533
13.754	30.3394
13.772	30.3177
13.79	30.2874
13.808	30.2489
13.826	30.204
13.844	30.1551
13.862	30.1049
13.88	30.0556
13.898	30.0084
13.916	29.9636
13.934	29.92
13.952	29.876
13.97	29.8293
13.988	29.7779
14.006	29.7202
14.024	29.6554
14.042	29.5835
14.06	29.5055
14.078	29.4229
14.096	29.3377
14.114	29.2523
14.132	29.1694
14.15	29.0911
14.168	29.0196
14.186	28.9564
14.204	28.9022
14.222	28.8573
14.24	28.8206
14.258	28.7909
14.276	28.7661
14.294	28.7444
14.312	28.7245
14.33	28.7058
14.348	28.6886
14.366	28.6742
14.384	28.6643
14.402	28.6605
14.42	28.6641
14.438	28.6753
14.456	28.6937
14.474	28.7179
14.492	28.7461
14.51	28.776
14.528	28.8058
14.546	28.8343
14.564	28.8612
14.582	28.8868
14.6	28.9121
14.618	28.9385
14.636	28.9679
14.654	29.0018
14.672	29.0416
14.69	29.0877
14.708	29.14
14.726	29.1977
14.744	29.2586
14.762	29.3205
14.78	29.3802
14.798	29.4345
14.816	29.48
14.834	29.5132
14.852	29.5318
14.87	29.5345
14.888	29.5218
14.906	29.4952
14.924	29.4578
14.942	29.4146
14.96	29.3704
14.978	29.33
14.996	29.2969
15.014	29.2738
15.032	29.2614
15.05	29.258
15.068	29.2604
15.086	29.2644
15.104	29.2652
15.122	29.2575
15.14	29.2373
15.158	29.2023
15.176	29.1514
15.194	29.0846
15.212	29.0043
15.23	28.9136
15.248	28.8158
15.266	28.7149
15.284	28.6148
15.302	28.5184
15.32	28.4279
15.338	28.3448
15.356	28.2701
15.374	28.2041
15.392	28.1464
15.41	28.0966
15.428	28.0539
15.446	28.0172
15.464	27.9852
15.482	27.9564
15.5	27.9297
15.518	27.9035
15.536	27.8774
15.554	27.851
15.572	27.8236
15.59	27.7961
15.608	27.7695
15.626	27.7449
15.644	27.7242
15.662	27.7092
15.68	27.701
15.698	27.7005
15.716	27.7082
15.734	27.7232
15.752	27.7441
15.77	27.7695
15.788	27.7959
15.806	27.8205
15.824	27.841
15.842	27.8546
15.86	27.8597
15.878	27.8561
15.896	27.8439
15.914	27.8253
15.932	27.8031
15.95	27.7801
15.968	27.7601
15.986	27.747
16.004	27.743
16.022	27.7499
16.04	27.7688
16.058	27.7986
16.076	27.8379
16.094	27.8837
16.112	27.9317
16.13	27.9786
16.148	28.0202
16.166	28.0522
16.184	28.0725
16.202	28.0788
16.22	28.0701
16.238	28.0468
16.256	28.0097
16.274	27.961
16.292	27.9033
16.31	27.8388
16.328	27.7712
16.346	27.7032
16.364	27.6368
16.382	27.5752
16.4	27.5199
16.418	27.4721
16.436	27.4332
16.454	27.4038
16.472	27.3839
16.49	27.3735
16.508	27.3718
16.526	27.3781
16.544	27.3905
16.562	27.4072
16.58	27.4266
16.598	27.4458
16.616	27.4627
16.634	27.4757
16.652	27.482
16.67	27.4806
16.688	27.4699
16.706	27.4494
16.724	27.419
16.742	27.3788
16.76	27.3303
16.778	27.2744
16.796	27.2126
16.814	27.1467
16.832	27.0777
16.85	27.0074
16.868	26.9365
16.886	26.866
16.904	26.7964
16.922	26.7281
16.94	26.6612
16.958	26.5959
16.976	26.5323
16.994	26.4706
17.012	26.4114
17.03	26.355
17.048	26.3025
17.066	26.2545
17.084	26.2121
17.102	26.1764
17.12	26.1478
17.138	26.1273
17.156	26.1148
17.174	26.1101
17.192	26.1123
17.21	26.1206
17.228	26.1333
17.246	26.1485
17.264	26.1646
17.282	26.1783
17.3	26.1886
17.318	26.1928
17.336	26.1898
17.354	26.1786
17.372	26.1585
17.39	26.13
17.408	26.0938
17.426	26.052
17.444	26.0054
17.462	25.9579
17.48	25.9107
17.498	25.8679
17.516	25.8312
17.534	25.8031
17.552	25.7856
17.57	25.7793
17.588	25.7851
17.606	25.8023
17.624	25.8305
17.642	25.8673
17.66	25.912
17.678	25.9605
17.696	26.0117
17.714	26.062
17.732	26.1099
17.75	26.1532
17.768	26.1907
17.786	26.2217
17.804	26.2461
17.822	26.2642
17.84	26.2773
17.858	26.2865
17.876	26.2931
17.894	26.2992
17.912	26.3056
17.93	26.3144
17.948	26.3258
17.966	26.3408
17.984	26.3592
18.002	26.3807
18.02	26.4042
18.038	26.4292
18.056	26.4539
18.074	26.4776
18.092	26.4984
18.11	26.516
18.128	26.5285
18.146	26.5362
18.164	26.5383
18.182	26.5351
18.2	26.5268
18.218	26.5143
18.236	26.4979
18.254	26.4789
18.272	26.4576
18.29	26.4353
18.308	26.412
18.326	26.3883
18.344	26.364
18.362	26.3391
18.38	26.3132
18.398	26.2853
18.416	26.255
18.434	26.2216
18.452	26.1842
18.47	26.1421
18.488	26.0949
18.506	26.0423
18.524	25.9844
18.542	25.9209
18.56	25.8528
18.578	25.7801
18.596	25.7046
18.614	25.6263
18.632	25.5474
18.65	25.4681
18.668	25.3907
18.686	25.3153
18.704	25.2437
18.722	25.1762
18.74	25.1143
18.758	25.058
18.776	25.0084
18.794	24.9654
18.812	24.9298
18.83	24.9013
18.848	24.8801
18.866	24.866
18.884	24.8589
18.902	24.8585
18.92	24.8646
18.938	24.8767
18.956	24.8942
18.974	24.9165
18.992	24.9427
19.01	24.972
19.028	25.0033
19.046	25.0357
19.064	25.068
19.082	25.0994
19.1	25.1282
19.118	25.1538
19.136	25.1746
19.154	25.1903
19.172	25.1997
19.19	25.2031
19.208	25.1999
19.226	25.1906
19.244	25.1756
19.262	25.1553
19.28	25.1313
19.298	25.1036
19.316	25.0748
19.334	25.0449
19.352	25.0164
19.37	24.9894
19.388	24.9663
19.406	24.9471
19.424	24.9331
19.442	24.9246
19.46	24.9215
19.478	24.9241
19.496	24.9312
19.514	24.9428
19.532	24.9575
19.55	24.9748
19.568	24.9934
19.586	25.0121
19.604	25.0303
19.622	25.0463
19.64	25.06
19.658	25.0702
19.676	25.0769
19.694	25.0801
19.712	25.0796
19.73	25.0764
19.748	25.0704
19.766	25.063
19.784	25.0543
19.802	25.0457
19.82	25.0378
19.838	25.031
19.856	25.0266
19.874	25.0243
19.892	25.0244
19.91	25.0268
19.928	25.0307
19.946	25.0364
19.964	25.0414
19.982	25.0461
20	25.0479
20.018	25.0459
20.036	25.0389
20.054	25.0244
20.072	25.0027
20.09	24.9712
20.108	24.9302
20.126	24.8784
20.144	24.8155
20.162	24.742
20.18	24.6576
20.198	24.5635
20.216	24.461
20.234	24.3504
20.252	24.2356
20.27	24.1159
20.288	23.996
20.306	23.8756
20.324	23.7584
20.342	23.6468
20.36	23.5413
20.378	23.4461
20.396	23.3603
20.414	23.288
20.432	23.2289
20.45	23.1845
20.468	23.1556
20.486	23.1419
20.504	23.1443
20.522	23.1623
20.54	23.1948
20.558	23.2422
20.576	23.3022
20.594	23.3745
20.612	23.4578
20.63	23.5493
20.648	23.6496
20.666	23.7543
20.684	23.8641
20.702	23.9758
20.72	24.0873
20.738	24.1986
20.756	24.3056
20.774	24.4091
20.792	24.5058
20.81	24.5951
20.828	24.6759
20.846	24.7462
20.864	24.8063
20.882	24.8547
20.9	24.8914
20.918	24.916
20.936	24.928
20.954	24.9279
20.972	24.916
20.99	24.8922
21.008	24.8575
21.026	24.812
21.044	24.7563
21.062	24.6918
21.08	24.6181
21.098	24.537
21.116	24.4487
21.134	24.3538
21.152	24.2541
21.17	24.1492
21.188	24.0407
21.206	23.9288
21.224	23.8139
21.242	23.6975
21.26	23.579
21.278	23.4602
21.296	23.3411
21.314	23.2224
21.332	23.1058
21.35	22.9908
21.368	22.8794
21.386	22.7718
21.404	22.6685
21.422	22.5716
21.44	22.4805
21.458	22.3969
21.476	22.3217
21.494	22.2547
21.512	22.1978
21.53	22.1507
21.548	22.1139
21.566	22.0878
21.584	22.0721
21.602	22.0667
21.62	22.072
21.638	22.087
21.656	22.1104
21.674	22.1427
21.692	22.1817
21.71	22.227
21.728	22.278
21.746	22.3319
21.764	22.3895
21.782	22.4485
21.8	22.5071
21.818	22.5661
21.836	22.6224
21.854	22.6761
21.872	22.7264
21.89	22.7713
21.908	22.8113
21.926	22.8454
21.944	22.8728
21.962	22.8939
21.98	22.9078
21.998	22.9147
22.016	22.9145
22.034	22.907
22.052	22.8921
22.07	22.8704
22.088	22.842
22.106	22.8069
22.124	22.7661
22.142	22.7197
22.16	22.668
22.178	22.6127
22.196	22.5533
22.214	22.4909
22.232	22.4271
22.25	22.3609
22.268	22.2948
22.286	22.2298
22.304	22.1654
22.322	22.1048
22.34	22.0479
22.358	21.9952
22.376	21.9498
22.394	21.9109
22.412	21.8797
22.43	21.8585
22.448	21.8464
22.466	21.8444
22.484	21.8538
22.502	21.874
22.52	21.9051
22.538	21.9475
22.556	22.001
22.574	22.0644
22.592	22.1381
22.61	22.2214
22.628	22.3121
22.646	22.4112
22.664	22.5169
22.682	22.6261
22.7	22.7404
22.718	22.8572
22.736	22.973
22.754	23.0897
22.772	23.2043
22.79	23.3143
22.808	23.4212
22.826	23.5221
22.844	23.6151
22.862	23.7014
22.88	23.7787
22.898	23.8459
22.916	23.9038
22.934	23.9507
22.952	23.986
22.97	24.0102
22.988	24.0226
23.006	24.0229
23.024	24.0114
23.042	23.9881
23.06	23.9528
23.078	23.9058
23.096	23.848
23.114	23.779
23.132	23.6992
23.15	23.6102
23.168	23.5113
23.186	23.4034
23.204	23.289
23.222	23.1674
23.24	23.0395
23.258	22.9082
23.276	22.7727
23.294	22.634
23.312	22.4954
23.33	22.3564
23.348	22.2174
23.366	22.0818
23.384	21.9489
23.402	21.8192
23.42	21.6956
23.438	21.5782
23.456	21.4667
23.474	21.3629
23.492	21.2671
23.51	21.1788
23.528	21.0986
23.546	21.0272
23.564	20.964
23.582	20.9078
23.6	20.8588
23.618	20.8172
23.636	20.7801
23.654	20.7466
23.672	20.7178
23.69	20.6909
23.708	20.6641
23.726	20.6388
23.744	20.6132
23.762	20.5854
23.78	20.5565
23.798	20.5257
23.816	20.4922
23.834	20.4559
23.852	20.4174
23.87	20.3768
23.888	20.3329
23.906	20.2876
23.924	20.2438
23.942	20.2006
23.96	20.1586
23.978	20.1228
23.996	20.0944
24.014	20.0717
24.032	20.0593
24.05	20.0601
24.068	20.0718
24.086	20.0966
24.104	20.1371
24.122	20.1922
24.14	20.2621
24.158	20.3474
24.176	20.4493
24.194	20.566
24.212	20.6949
24.23	20.8372
24.248	20.9925
24.266	21.1546
24.284	21.3209
24.302	21.4952
24.32	21.6698
24.338	21.8379
24.356	22.0048
24.374	22.1652
24.392	22.3102
24.41	22.4415
24.428	22.5593
24.446	22.6569
24.464	22.7315
24.482	22.7862
24.5	22.8178
24.518	22.8231
24.536	22.8027
24.554	22.7585
24.572	22.6922
24.59	22.6008
24.608	22.4873
24.626	22.359
24.644	22.2179
24.662	22.0598
24.68	21.8949
24.698	21.7322
24.716	21.5644
24.734	21.398
24.752	21.2443
24.77	21.1035
24.788	20.9727
24.806	20.8608
24.824	20.7739
24.842	20.7069
24.86	20.6632
24.878	20.6477
24.896	20.6612
24.914	20.7014
24.932	20.7664
24.95	20.8566
24.968	20.9742
24.986	21.1119
25.004	21.2626
25.022	21.4326
25.04	21.6169
25.058	21.8038
25.076	21.9889
25.094	22.1795
25.112	22.3646
25.13	22.5331
25.148	22.6917
25.166	22.8371
25.184	22.9584
25.202	23.0507
25.22	23.1204
25.238	23.1614
25.256	23.1675
25.274	23.1404
25.292	23.0808
25.31	22.9859
25.328	22.8535
25.346	22.6849
25.364	22.4813
25.382	22.2442
25.4	21.9721
25.418	21.6659
25.436	21.3295
25.454	20.9654
25.472	20.5701
25.49	20.1477
25.508	19.7034
25.526	19.2385
25.544	18.7505
25.562	18.2427
25.58	17.7181
25.598	17.1756
25.616	16.6153
25.634	16.0384
25.652	15.4456
25.67	14.8356
25.688	14.2102
25.706	13.5717
25.724	12.9191
25.742	12.252
25.76	11.5743
25.778	10.8896
25.796	10.1936
25.814	9.489447
25.832	8.783540
25.85	8.079397
25.868	7.370710
25.886	6.664467
25.904	5.969385
25.922	5.285542
25.94	4.607922
25.958	3.947178
25.976	3.314003
25.994	2.703502
26.012	2.115252
26.03	1.558869
26.048	1.042633
26.066	0.560183
26.084	0.113571
26.102	-0.291157
26.12	-0.649483
26.138	-0.964632
26.156	-1.237414
26.174	-1.468018
26.192	-1.654160
26.21	-1.794767
26.228	-1.897788
26.246	-1.971376
26.264	-2.011705
26.282	-2.016656
26.3	-2.000025
26.318	-1.975232
26.336	-1.933390
26.354	-1.875707
26.372	-1.818186
26.39	-1.775301
26.408	-1.734994
26.426	-1.701505
26.444	-1.689613
26.462	-1.711509
26.48	-1.756113
26.498	-1.827609
26.516	-1.935987
26.534	-2.088845
26.552	-2.279349
26.57	-2.509114
26.588	-2.781992
26.606	-3.101405
26.624	-3.466410
26.642	-3.873664
26.66	-4.319855
26.678	-4.804283
26.696	-5.331303
26.714	-5.894297
26.732	-6.485712
26.75	-7.102939
26.768	-7.753283
26.786	-8.428387
26.804	-9.118729
26.822	-9.820475
26.84	-10.5417
26.858	-11.2752
26.876	-12.0126
26.894	-12.7496
26.912	-13.4922
26.93	-14.2376
26.948	-14.982
26.966	-15.7561
26.984	-16.611
27.002	-17.4229
27.02	-18.0569
27.028	-18.2271