File: Bakgrunnsmateriale/MATLAB/FTIR/ftir_data/LPE453/Mapping_121/LPE453_t102_cm-1.asc
PE IR       SPECTRUM    SPECTRUM    ASCII       PEDS        1.60
  -1
LP0578~1.ASC
17/05/16
22:44:10.00
17/05/16
22:44:10.00
tln
$LPE453_t0102$<tbV0>[7.8,10.4,8.0,0.0,27,1,0]
370
64

2002,4.07
MIRTGS : RIGHTBACK : INTERNAL 2
MIR : ON : INTERNAL 2
OPTKBR

0.200000
8
8.000000
FILLER
RATIO
SPECTRUM
UNLOCKED 256

DOUBLE
64
COMBINED
1
0
0

1.000000
RATIO

1
0
TRUE
51149
0
LEFT NOT FITTED RIGHT NOT FITTED 0
NONE
NONE
15600
12
4.427000
51148
TRUE
1 0 8 72 0 0 0 0

15798

#HDR
-1
-1
#GR
CM-1
%T
2.38419e-05
0.0
5000
-1.000000
4631
8
35.2113
-11.5844
#DATA
5000	0.204348
4996	0.320672
4992	0.547933
4988	0.614762
4984	0.541925
4980	0.443267
4976	0.501799
4972	0.689625
4968	0.534391
4964	0.018668
4960	-0.156402
4956	0.176334
4952	0.341391
4948	0.237417
4944	0.230813
4940	0.162744
4936	0.062942
4932	0.160551
4928	0.170135
4924	0.091457
4920	0.072550
4916	0.058770
4912	0.140333
4908	0.110530
4904	0.006175
4900	0.135779
4896	0.204610
4892	0.067472
4888	-0.051569
4884	-0.001859
4880	0.146746
4876	0.272202
4872	0.452542
4868	0.411701
4864	0.246620
4860	0.301671
4856	0.253891
4852	0.086379
4848	0.107288
4844	0.247192
4840	0.352406
4836	0.330090
4832	0.238919
4828	0.130963
4824	-0.045180
4820	-0.078272
4816	0.091314
4812	0.260162
4808	0.317645
4804	0.205564
4800	0.051641
4796	0.148153
4792	0.358057
4788	0.373506
4784	0.366640
4780	0.198197
4776	-0.256776
4772	-0.393247
4768	-0.214505
4764	-0.160074
4760	0.006413
4756	0.199484
4752	0.055241
4748	-0.204610
4744	-0.289487
4740	-0.215840
4736	-0.286030
4732	-0.121998
4728	0.441646
4724	0.537490
4720	0.054693
4716	-0.340342
4712	-0.335574
4708	-0.326943
4704	-0.123500
4700	0.371170
4696	0.873780
4692	1.509094
4688	1.384210
4684	0.310540
4680	0.042080
4676	1.291513
4672	1.944565
4668	1.591682
4664	1.849675
4660	1.631665
4656	0.440430
4652	-0.494265
4648	-0.556683
4644	-0.336790
4640	-0.735569
4636	-0.399446
4632	0.886297
4628	1.129460
4624	0.111389
4620	-0.458621
4616	-0.152134
4612	0.253319
4608	0.386667
4604	1.098728
4600	1.972818
4596	1.493024
4592	0.405144
4588	0.012135
4584	-0.152325
4580	-0.270843
4576	-0.177383
4572	-0.300574
4568	-0.509738
4564	-0.197792
4560	0.114178
4556	-0.216317
4552	-0.268387
4548	0.127887
4544	0.283694
4540	0.022292
4536	-0.508522
4532	-0.795912
4528	-0.720953
4524	-0.617647
4520	-0.354671
4516	-0.407266
4512	-0.033473
4508	2.220726
4504	5.199122
4500	6.896662
4496	8.150601
4492	11.6557
4488	12.8776
4484	8.091425
4480	2.775359
4476	0.204062
4472	-0.858473
4468	-1.600527
4464	-1.999902
4460	-1.593708
4456	-0.744891
4452	-0.375509
4448	-0.550937
4444	-0.602650
4440	-0.431346
4436	-0.342345
4432	-0.171136
4428	0.167584
4424	0.382590
4420	0.192975
4416	-0.149989
4412	-0.051093
4408	0.273275
4404	0.496697
4400	0.690984
4396	0.736355
4392	0.546336
4388	0.419068
4384	0.459337
4380	0.419330
4376	0.342440
4372	0.316190
4368	0.444722
4364	0.542259
4360	0.495314
4356	0.386857
4352	0.242233
4348	0.223803
4344	0.408172
4340	0.728321
4336	0.884532
4332	0.637412
4328	0.303602
4324	0.262951
4320	0.318551
4316	0.328731
4312	0.406336
4308	0.365877
4304	0.215125
4300	0.221085
4296	0.262546
4292	0.164771
4288	0.098752
4284	0.085902
4280	0.081443
4276	0.224637
4272	0.255465
4268	-0.047922
4264	-0.308322
4260	-0.356531
4256	-0.270533
4252	0.018501
4248	0.268530
4244	0.217819
4240	0.038456
4236	-0.119471
4232	-0.224280
4228	-0.151705
4224	-0.002717
4220	0.019383
4216	0.027298
4212	0.105571
4208	0.098919
4204	0.127983
4200	0.251913
4196	0.171899
4192	0.090026
4188	0.307536
4184	0.443840
4180	0.308918
4176	0.293016
4172	0.438809
4168	0.391507
4164	0.213098
4160	0.065851
4156	0.040936
4152	0.135159
4148	0.156188
4144	0.062894
4140	-0.033760
4136	-0.057601
4132	0.002884
4128	0.055050
4124	-0.024008
4120	-0.170969
4116	-0.194883
4112	-0.112771
4108	0.027036
4104	0.175952
4100	0.166392
4096	0.038385
4092	-0.042271
4088	-0.060009
4084	-0.048375
4080	-0.015830
4076	0.069594
4072	0.136661
4068	0.129294
4064	0.162315
4060	0.195765
4056	0.162196
4052	0.183629
4048	0.261449
4044	0.246763
4040	0.165104
4036	0.120401
4032	0.058102
4028	-0.027823
4024	-0.017285
4020	0.059676
4016	0.076413
4012	0.023221
4008	0.015711
4004	0.073885
4000	0.100040
3996	0.091528
3992	0.134444
3988	0.243902
3984	0.232124
3980	0.095844
3976	0.077366
3972	0.166201
3968	0.263071
3964	0.293326
3960	0.201249
3956	0.117254
3952	0.127792
3948	0.167679
3944	0.168991
3940	0.135946
3936	0.111651
3932	0.114345
3928	0.150036
3924	0.166821
3920	0.192284
3916	0.260281
3912	0.227928
3908	0.159263
3904	0.201463
3900	0.251054
3896	0.242972
3892	0.202512
3888	0.192832
3884	0.255870
3880	0.230097
3876	0.100135
3872	0.069546
3868	0.070858
3864	0.005555
3860	-0.064420
3856	-0.118374
3852	-0.037264
3848	0.201392
3844	0.321102
3840	0.217604
3836	0.085592
3832	0.009918
3828	-0.035476
3824	-0.085568
3820	-0.119185
3816	-0.060820
3812	0.035452
3808	0.111174
3804	0.168943
3800	0.132632
3796	0.023460
3792	0.038671
3788	0.185561
3784	0.256490
3780	0.130343
3776	-0.029087
3772	-0.011348
3768	0.046873
3764	0.038290
3760	0.042295
3756	0.072216
3752	0.104999
3748	0.106143
3744	0.104498
3740	0.096869
3736	0.139331
3732	0.240612
3728	0.193834
3724	0.032520
3720	0.042343
3716	0.175070
3712	0.124716
3708	-0.039982
3704	-0.057649
3700	0.033307
3696	0.071406
3692	0.039505
3688	0.057268
3684	0.093603
3680	0.049805
3676	0.049686
3672	0.151920
3668	0.176000
3664	0.069618
3660	0.021290
3656	0.037455
3652	-0.010156
3648	0.009822
3644	0.105690
3640	0.111150
3636	0.112462
3632	0.178980
3628	0.159192
3624	0.032877
3620	-0.037527
3616	-0.019264
3612	0.014805
3608	0.018644
3604	-0.025558
3600	-0.034570
3596	0.054073
3592	0.116753
3588	0.072813
3584	0.012493
3580	0.002336
3576	0.062966
3572	0.136137
3568	0.163269
3564	0.223684
3560	0.217676
3556	0.112938
3552	0.062251
3548	0.025200
3544	-0.009202
3540	-0.014901
3536	-0.037121
3532	-0.014019
3528	0.048828
3524	0.085449
3520	0.123548
3516	0.168728
3512	0.196647
3508	0.138235
3504	0.076627
3500	0.134515
3496	0.177907
3492	0.148200
3488	0.148057
3484	0.146079
3480	0.069952
3476	0.009322
3472	0.021839
3468	0.023269
3464	0.018167
3460	0.073957
3456	0.151348
3452	0.195741
3448	0.144863
3444	0.022411
3440	-0.066328
3436	-0.099396
3432	-0.084853
3428	0.006556
3424	0.104117
3420	0.112223
3416	0.099229
3412	0.069570
3408	0.010848
3404	-0.005745
3400	-0.003004
3396	0.005841
3392	0.020384
3388	0.027489
3384	0.038456
3380	-0.002026
3376	-0.052356
3372	-0.022745
3368	0.058341
3364	0.139904
3360	0.171971
3356	0.179481
3352	0.187683
3348	0.204133
3344	0.213050
3340	0.129127
3336	0.017476
3332	-0.019741
3328	0.036978
3324	0.144100
3320	0.158429
3316	0.065898
3312	-0.043821
3308	-0.125384
3304	-0.135588
3300	-0.066685
3296	0.031709
3292	0.128579
3288	0.190138
3284	0.145173
3280	0.034546
3276	-0.011968
3272	0.002074
3268	0.018024
3264	0.064945
3260	0.086617
3256	0.049233
3252	0.035762
3248	0.029206
3244	0.079798
3240	0.155591
3236	0.112557
3232	0.059294
3228	0.072240
3224	0.062847
3220	0.008463
3216	-0.035142
3212	-0.017690
3208	0.030398
3204	0.041294
3200	-0.007939
3196	-0.046491
3192	-0.002241
3188	0.086760
3184	0.135850
3180	0.114941
3176	0.065112
3172	0.037503
3168	0.041151
3164	0.041556
3160	0.022816
3156	-0.005984
3152	0.006532
3148	0.068235
3144	0.088310
3140	0.047445
3136	-0.004553
3132	-0.025248
3128	-0.003576
3124	0.017666
3120	0.051903
3116	0.081181
3112	0.013184
3108	-0.032186
3104	0.046038
3100	0.083351
3096	0.013995
3092	-0.010848
3088	0.048041
3084	0.042867
3080	-0.005030
3076	0.006341
3072	-0.012207
3068	-0.041770
3064	-0.017571
3060	0.020933
3056	0.047945
3052	-0.006675
3048	-0.094509
3044	-0.088667
3040	-0.031018
3036	0.029969
3032	0.074100
3028	0.055313
3024	-0.003409
3020	-0.015950
3016	0.043845
3012	0.035119
3008	-0.049400
3004	-0.083756
3000	-0.041818
2996	0.024509
2992	0.052666
2988	0.082898
2984	0.117754
2980	0.071859
2976	-0.024867
2972	-0.080633
2968	-0.055766
2964	-0.036144
2960	-0.026273
2956	0.049567
2952	0.108742
2948	0.111865
2944	0.078511
2940	0.016212
2936	0.005841
2932	0.048923
2928	0.035643
2924	-0.024318
2920	-0.058341
2916	-0.045990
2912	0.025391
2908	0.065732
2904	0.048351
2900	0.070977
2896	0.106072
2892	0.101375
2888	0.085973
2884	0.095129
2880	0.091695
2876	0.024509
2872	-0.033831
2868	-0.035881
2864	-0.004744
2860	0.001263
2856	-0.019836
2852	0.050854
2848	0.177168
2844	0.226473
2840	0.234580
2836	0.211405
2832	0.128126
2828	0.063300
2824	0.038766
2820	0.034356
2816	0.044274
2812	0.051474
2808	0.051951
2804	0.065732
2800	0.089073
2796	0.089073
2792	0.075340
2788	0.097870
2784	0.120472
2780	0.072717
2776	0.000786
2772	-0.033092
2768	-0.019216
2764	-0.021600
2760	-0.040149
2756	-0.030207
2752	-0.007319
2748	0.003480
2744	-0.026297
2740	-0.062441
2736	-0.039172
2732	0.018906
2728	0.053215
2724	0.047659
2720	-0.007581
2716	-0.049757
2712	-0.040841
2708	0.004625
2704	0.083255
2700	0.122928
2696	0.131893
2692	0.128579
2688	0.072169
2684	-0.006461
2680	-0.042700
2676	-0.020122
2672	0.021791
2668	0.071978
2664	0.107574
2660	0.106382
2656	0.099039
2652	0.070858
2648	0.025415
2644	0.017690
2640	0.023102
2636	0.020766
2632	0.029730
2628	0.010585
2624	0.000214
2620	0.032305
2616	-0.005340
2612	-0.073075
2608	-0.053882
2604	-0.010418
2600	0.030994
2596	0.059366
2592	0.021553
2588	-0.008559
2584	0.020885
2580	0.067067
2576	0.067377
2572	0.031590
2568	0.050640
2564	0.054240
2560	0.004124
2556	0.002551
2552	0.015449
2548	-0.005698
2544	-0.032186
2540	-0.028967
2536	0.025868
2532	0.075078
2528	0.045156
2524	-0.008368
2520	-0.024819
2516	-0.013947
2512	0.013947
2508	0.037550
2504	-0.043582
2500	-0.207138
2496	-0.222253
2492	-0.111007
2488	-0.023198
2484	0.020813
2480	0.014185
2476	0.033617
2472	0.055170
2468	0.023841
2464	0.023078
2460	0.064039
2456	0.090861
2452	0.085282
2448	0.054264
2444	0.020194
2440	0.027656
2436	0.056743
2432	0.070333
2428	0.112771
2424	0.137639
2420	0.100612
2416	0.082826
2412	0.071549
2408	0.048685
2404	0.047922
2400	0.030779
2396	0.013637
2392	0.066471
2388	0.115919
2384	0.117349
2380	0.135207
2376	0.202012
2372	0.288248
2368	0.323700
2364	0.327968
2360	0.334596
2356	0.335526
2352	0.331592
2348	0.351405
2344	0.401735
2340	0.428485
2336	0.420427
2332	0.417685
2328	0.442099
2324	0.470376
2320	0.527310
2316	0.577235
2312	0.551986
2308	0.564169
2304	0.648808
2300	0.707650
2296	0.755333
2292	0.856733
2288	1.010227
2284	1.202130
2280	1.350045
2276	1.398110
2272	1.440429
2268	1.515889
2264	1.606178
2260	1.706838
2256	1.840114
2252	2.024102
2248	2.215981
2244	2.416348
2240	2.641677
2236	2.841258
2232	3.012585
2228	3.197813
2224	3.390479
2220	3.594827
2216	3.816986
2212	4.053068
2208	4.327845
2204	4.622483
2200	4.904460
2196	5.225896
2192	5.605936
2188	5.964398
2184	6.301188
2180	6.682014
2176	7.087755
2172	7.489585
2168	7.873010
2164	8.227038
2160	8.594822
2156	8.965039
2152	9.389281
2148	9.931874
2144	10.4563
2140	10.8713
2136	11.2554
2132	11.6855
2128	12.1371
2124	12.6055
2120	13.1344
2116	13.7171
2112	14.2733
2108	14.7301
2104	15.1151
2100	15.5178
2096	15.9597
2092	16.4032
2088	16.8554
2084	17.3394
2080	17.8735
2076	18.3493
2072	18.714
2068	19.1519
2064	19.6451
2060	20.0576
2056	20.4572
2052	20.9046
2048	21.3294
2044	21.6699
2040	22.0343
2036	22.4595
2032	22.8114
2028	23.0893
2024	23.4168
2020	23.8512
2016	24.2809
2012	24.6177
2008	24.9232
2004	25.2243
2000	25.5209
1996	25.8325
1992	26.1242
1988	26.3776
1984	26.6139
1980	26.8516
1976	27.1508
1972	27.4892
1968	27.7571
1964	27.9699
1960	28.1854
1956	28.3952
1952	28.6108
1948	28.8231
1944	28.9905
1940	29.1614
1936	29.3612
1932	29.5605
1928	29.7931
1924	30.004
1920	30.1494
1916	30.2923
1912	30.4629
1908	30.6409
1904	30.7865
1900	30.9509
1896	31.1148
1892	31.2041
1888	31.2666
1884	31.3523
1880	31.5151
1876	31.7022
1872	31.7971
1868	31.8865
1864	32.0224
1860	32.1591
1856	32.2915
1852	32.3686
1848	32.4002
1844	32.4512
1840	32.5677
1836	32.7339
1832	32.8234
1828	32.8038
1824	32.7965
1820	32.8762
1816	32.9719
1812	33.0393
1808	33.1269
1804	33.1858
1800	33.1814
1796	33.2333
1792	33.3469
1788	33.3946
1784	33.4064
1780	33.4267
1776	33.4527
1772	33.5639
1768	33.6938
1764	33.7072
1760	33.6756
1756	33.7128
1752	33.7532
1748	33.7286
1744	33.758
1740	33.8373
1736	33.8586
1732	33.917
1728	34.0299
1724	34.0552
1720	34.0169
1716	34.0491
1712	34.1341
1708	34.1657
1704	34.1393
1700	34.1126
1696	34.1199
1692	34.1228
1688	34.1373
1684	34.2147
1680	34.2827
1676	34.3233
1672	34.3995
1668	34.5104
1664	34.5606
1660	34.5229
1656	34.4994
1652	34.505
1648	34.5125
1644	34.519
1640	34.4867
1636	34.4661
1632	34.5204
1628	34.5946
1624	34.6291
1620	34.6085
1616	34.5585
1612	34.5243
1608	34.5316
1604	34.5842
1600	34.6527
1596	34.6623
1592	34.6432
1588	34.696
1584	34.7516
1580	34.6961
1576	34.5553
1572	34.4922
1568	34.5739
1564	34.6583
1560	34.6922
1556	34.7039
1552	34.6941
1548	34.7174
1544	34.7864
1540	34.8284
1536	34.8017
1532	34.7857
1528	34.8115
1524	34.7751
1520	34.7064
1516	34.7143
1512	34.7199
1508	34.6938
1504	34.7134
1500	34.7245
1496	34.6839
1492	34.6834
1488	34.7522
1484	34.82
1480	34.8455
1476	34.8366
1472	34.8653
1468	34.9001
1464	34.8651
1460	34.7918
1456	34.7478
1452	34.7862
1448	34.8202
1444	34.7798
1440	34.7344
1436	34.7417
1432	34.8376
1428	34.9472
1424	35.0165
1420	35.0354
1416	34.9683
1412	34.9217
1408	34.9388
1404	34.968
1400	34.9935
1396	35.0158
1392	35.032
1388	35.0085
1384	34.9847
1380	34.9598
1376	34.8797
1372	34.8189
1368	34.8206
1364	34.8358
1360	34.8568
1356	34.8785
1352	34.902
1348	34.9172
1344	34.952
1340	35.0285
1336	35.0228
1332	34.9706
1328	34.9888
1324	35.0015
1320	34.9629
1316	34.9245
1312	34.9104
1308	34.8867
1304	34.86
1300	34.8681
1296	34.8856
1292	34.8891
1288	34.9306
1284	34.9649
1280	34.9332
1276	34.9488
1272	35.005
1268	34.9904
1264	34.9271
1260	34.9402
1256	35.0198
1252	35.0464
1248	35.0267
1244	34.9469
1240	34.8581
1236	34.8807
1232	34.9747
1228	35.0359
1224	35.0386
1220	35.0444
1216	35.0832
1212	35.1211
1208	35.1444
1204	35.1763
1200	35.1709
1196	35.1157
1192	35.0907
1188	35.112
1184	35.1526
1180	35.1491
1176	35.1032
1172	35.0821
1168	35.0388
1164	34.9284
1160	34.8899
1156	34.9899
1152	35.063
1148	35.03
1144	34.9757
1140	35.0021
1136	35.0795
1132	35.1166
1128	35.119
1124	35.0889
1120	35.0175
1116	34.9374
1112	34.8869
1108	34.8772
1104	34.9534
1100	35.0868
1096	35.1488
1092	35.1356
1088	35.0774
1084	34.9179
1080	34.7354
1076	34.7005
1072	34.8241
1068	34.9715
1064	35.0726
1060	35.1814
1056	35.1964
1052	35.0714
1048	34.9936
1044	34.9371
1040	34.7922
1036	34.6533
1032	34.5859
1028	34.5325
1024	34.4971
1020	34.6176
1016	34.8761
1012	34.9945
1008	34.8912
1004	34.8445
1000	34.9132
996	 34.9068
992	 34.8217
988	 34.7527
984	 34.6665
980	 34.4938
976	 34.3832
972	 34.417
968	 34.441
964	 34.4886
960	 34.6064
956	 34.6092
952	 34.4847
948	 34.3831
944	 34.4326
940	 34.5711
936	 34.5847
932	 34.5085
928	 34.4354
924	 34.3606
920	 34.2314
916	 34.0921
912	 34.1028
908	 34.133
904	 34.0471
900	 33.9522
896	 33.8954
892	 33.8858
888	 33.9171
884	 33.9668
880	 34.0338
876	 34.1098
872	 34.1726
868	 34.1744
864	 34.1524
860	 34.1644
856	 34.1326
852	 33.9302
848	 33.6851
844	 33.6116
840	 33.5544
836	 33.3999
832	 33.2681
828	 33.1968
824	 33.2734
820	 33.5038
816	 33.6403
812	 33.6801
808	 33.6989
804	 33.5558
800	 33.4314
796	 33.4522
792	 33.3628
788	 33.2154
784	 33.1749
780	 33.1245
776	 32.9458
772	 32.7189
768	 32.6067
764	 32.6225
760	 32.7394
756	 32.8629
752	 32.8211
748	 32.7151
744	 32.7051
740	 32.8157
736	 32.8979
732	 32.714
728	 32.5037
724	 32.4587
720	 32.3233
716	 32.1298
712	 31.9869
708	 31.8578
704	 31.7731
700	 31.6768
696	 31.589
692	 31.6136
688	 31.7814
684	 31.972
680	 31.9846
676	 31.9232
672	 31.9357
668	 31.8442
664	 31.6577
660	 31.5957
656	 31.4684
652	 31.1522
648	 30.9686
644	 30.9082
640	 30.6954
636	 30.6196
632	 30.7956
628	 30.7395
624	 30.6669
620	 30.9287
616	 31.1596
612	 31.1871
608	 31.0975
604	 31.0194
600	 30.9179
596	 30.5728
592	 30.0596
588	 29.5698
584	 29.3647
580	 29.3767
576	 29.2237
572	 29.0659
568	 29.0983
564	 28.9889
560	 28.7661
556	 28.7533
552	 28.8228
548	 29.0118
544	 29.3027
540	 29.4568
536	 29.3179
532	 28.6881
528	 28.0537
524	 27.8988
520	 27.7569
516	 27.3949
512	 27.1345
508	 26.9681
504	 26.832
500	 26.8741
496	 27.0034
492	 27.0876
488	 27.2153
484	 27.0721
480	 26.6704
476	 26.634
472	 26.9139
468	 27.1782
464	 26.8002
460	 25.8937
456	 25.3414
452	 25.0389
448	 24.9696
444	 24.8844
440	 24.9826
436	 25.6447
432	 26.0602
428	 25.6229
424	 24.2201
420	 23.5651
416	 24.0288
412	 23.0397
408	 21.4194
404	 21.0164
400	 19.9389
396	 18.3516
392	 19.1506
388	 23.7051
384	 26.0597
380	 12.4936
376	 -8.535623
372	 -7.522749
370	 0.264859