File: Bakgrunnsmateriale/MATLAB/FTIR/ftir_data/LPE453/Mapping_121/LPE453_t77.asc
PE IR       SPECTRUM    SPECTRUM    ASCII       PEDS        1.60
  -1
LPDFA5~1.ASC
17/05/16
20:41:11.00
17/05/16
20:41:37.00
tln
$LPE453_t0077$<tbV0>[-13.0,2.6,8.0,0.0,27,1,0]
27.028
64

2002,4.07
MIRTGS : RIGHTBACK : INTERNAL 2
MIR : ON : INTERNAL 2
OPTKBR

0.200000
8
8.000000
FILLER
RATIO
SPECTRUM
UNLOCKED 256

DOUBLE
64
COMBINED
1
0
0

0.002000
RATIO

1
0
TRUE
51149
0
LEFT NOT FITTED RIGHT NOT FITTED 0
NONE
NONE
15600
12
4.427000
51148
TRUE
1 0 8 72 0 0 0 0

15798

#HDR
-1
-1
#GR
µM
%T
2.38419e-05
0.0
2.000000
0.002000
12515
8
32.0815
-10.7704
#DATA
2.000000	 0.234031
2.018000	 0.260771
2.036000	 0.126188
2.054000	 0.386340
2.072000	 0.099179
2.090000	 0.237693
2.108000	 0.011702
2.126000	 0.091973
2.144000	 -0.289738
2.162000	 1.569114
2.180000	 -0.782270
2.198000	 0.987721
2.216000	 0.446395
2.234000	 1.388614
2.252000	 -0.166265
2.270000	 0.179906
2.288000	 0.884116
2.306000	 0.080975
2.324000	 0.031597
2.342000	 0.075063
2.360000	 0.066191
2.378000	 -0.284393
2.396000	 0.853195
2.414000	 0.060224
2.432000	 0.127830
2.450000	 -0.175778
2.468000	 0.042582
2.486000	 0.233561
2.504000	 -0.014042
2.522000	 0.321564
2.540000	 0.081586
2.558000	 0.261924
2.576000	 -0.021422
2.594000	 -0.017130
2.612000	 0.106523
2.630000	 -0.059054
2.648000	 -0.022278
2.666000	 0.155521
2.684000	 0.105396
2.702000	 0.074677
2.720000	 0.008431
2.738000	 0.223602
2.756000	 0.052065
2.774000	 0.136838
2.792000	 -0.019839
2.810000	 -0.085064
2.828000	 0.076571
2.846000	 0.120720
2.864000	 -0.007061
2.882000	 -0.150335
2.900000	 0.081600
2.918000	 0.119660
2.936000	 0.006281
2.954000	 0.033231
2.972000	 0.196458
2.990000	 0.115587
3.008000	 0.081214
3.026000	 0.062081
3.044000	 -0.004064
3.062000	 -0.051646
3.080000	 0.197129
3.098000	 -0.010356
3.116000	 -0.157091
3.134000	 0.018112
3.152000	 0.000451
3.170000	 0.148955
3.188000	 0.037428
3.206000	 0.053420
3.224000	 0.032479
3.242000	 0.023246
3.260000	 -0.035537
3.278000	 0.137073
3.296000	 -0.010831
3.314000	 0.100374
3.332000	 0.034992
3.350000	 0.128181
3.368000	 -0.016472
3.386000	 0.030251
3.404000	 -0.067434
3.422000	 0.023475
3.440000	 0.143402
3.458000	 0.032817
3.476000	 -0.011489
3.494000	 0.095617
3.512000	 -0.020566
3.530000	 0.080834
3.548000	 0.044372
3.566000	 0.086661
3.584000	 -0.030461
3.602000	 -0.005548
3.620000	 0.036863
3.638000	 0.023466
3.656000	 0.015109
3.674000	 0.051916
3.692000	 0.035441
3.710000	 0.003375
3.728000	 0.070800
3.746000	 -0.068894
3.764000	 0.061155
3.782000	 -0.009340
3.800000	 0.080381
3.818000	 0.066940
3.836000	 0.010660
3.854000	 0.166878
3.872000	 0.058124
3.890000	 -0.063847
3.908000	 -0.065986
3.926000	 0.065611
3.944000	 0.065693
3.962000	 0.052560
3.980000	 0.132254
3.998000	 0.147779
4.016000	 0.105349
4.034000	 0.008276
4.052000	 -0.005665
4.070000	 -0.020897
4.088000	 0.081130
4.106000	 -0.014925
4.124000	 -0.084224
4.141999	 -0.002368
4.160000	 -0.177084
4.178000	 -0.012558
4.196000	 0.133495
4.214000	 0.082660
4.232000	 0.014981
4.250000	 0.075459
4.268000	 0.052665
4.286000	 0.110469
4.304000	 0.064259
4.322000	 0.084953
4.340000	 0.135997
4.358000	 0.228607
4.375999	 0.221394
4.394000	 0.425950
4.412000	 0.538015
4.430000	 0.681770
4.448000	 0.861114
4.466000	 1.085716
4.484000	 1.357487
4.502000	 1.630894
4.520000	 1.970772
4.538000	 2.338454
4.556000	 2.708045
4.574000	 3.271088
4.592000	 3.845154
4.609999	 4.402104
4.628000	 5.064123
4.646000	 5.722120
4.664000	 6.449083
4.682000	 7.259553
4.700000	 8.163746
4.718000	 8.893505
4.736000	 9.693884
4.754000	 10.5616
4.772000	 11.4134
4.790000	 12.1413
4.808000	 13.0635
4.826000	 13.7838
4.843999	 14.5893
4.862000	 15.4347
4.880000	 16.3223
4.898000	 17.1134
4.916000	 17.9065
4.934000	 18.5501
4.952000	 19.158
4.970000	 19.8485
4.988000	 20.4837
5.006000	 21.0968
5.024000	 21.6081
5.042000	 22.1482
5.060000	 22.638
5.077999	 23.2503
5.096000	 23.675
5.114000	 24.0917
5.132000	 24.5066
5.150000	 24.8333
5.168000	 25.2032
5.186000	 25.6119
5.204000	 25.9843
5.222000	 26.3533
5.240000	 26.7053
5.258000	 27.0276
5.276000	 27.1706
5.294000	 27.3131
5.312000	 27.5731
5.330000	 27.8262
5.348000	 27.9277
5.366000	 28.2033
5.384000	 28.4784
5.402000	 28.6194
5.420000	 28.8031
5.438000	 28.9843
5.456000	 29.1503
5.474000	 29.2107
5.492000	 29.3849
5.510000	 29.5557
5.528000	 29.6811
5.546000	 29.8049
5.564000	 29.9376
5.582000	 30.1229
5.600000	 30.1885
5.618000	 30.2097
5.636000	 30.2672
5.654000	 30.3741
5.672000	 30.4583
5.690000	 30.5
5.708000	 30.5971
5.726000	 30.7054
5.744000	 30.7384
5.762000	 30.8333
5.780000	 30.947
5.798000	 30.9513
5.816000	 30.9317
5.834000	 30.9476
5.852000	 31.0602
5.870000	 31.1603
5.888000	 31.1904
5.906000	 31.2817
5.923999	 31.3789
5.942000	 31.4177
5.960000	 31.4048
5.978000	 31.4106
5.996000	 31.3954
6.014000	 31.4203
6.032000	 31.4804
6.050000	 31.5134
6.068000	 31.5985
6.086000	 31.6225
6.104000	 31.6032
6.122000	 31.6165
6.140000	 31.6329
6.158000	 31.678
6.176000	 31.6715
6.194000	 31.6471
6.212000	 31.6977
6.230000	 31.7403
6.248000	 31.7166
6.266000	 31.7229
6.284000	 31.8019
6.302000	 31.8952
6.320000	 31.897
6.338000	 31.8127
6.356000	 31.7732
6.374000	 31.776
6.392000	 31.807
6.410000	 31.8051
6.428000	 31.747
6.446000	 31.8049
6.464000	 31.8997
6.482000	 31.9336
6.500000	 31.9652
6.518000	 31.9706
6.536000	 31.9495
6.554000	 31.9554
6.572000	 31.9715
6.590000	 31.964
6.608000	 31.9681
6.626000	 31.9644
6.644000	 31.9452
6.662000	 31.9545
6.680000	 31.9681
6.698000	 31.9841
6.716000	 31.9512
6.734000	 31.9308
6.752000	 32.0366
6.770000	 32.0709
6.788000	 31.937
6.806000	 31.797
6.824000	 31.7617
6.842000	 31.8305
6.860000	 31.8803
6.878000	 31.8593
6.896000	 31.829
6.914000	 31.8151
6.932000	 31.8463
6.950000	 31.915
6.968000	 31.963
6.986000	 31.9722
7.004000	 31.9757
7.022000	 31.9718
7.040000	 31.9242
7.058000	 31.8534
7.076000	 31.7804
7.094000	 31.7203
7.112000	 31.723
7.130000	 31.7745
7.148000	 31.7883
7.166000	 31.7507
7.184000	 31.7501
7.202000	 31.8209
7.220000	 31.8974
7.238000	 31.9236
7.256000	 31.8658
7.274000	 31.7283
7.292000	 31.598
7.310000	 31.5495
7.328000	 31.5703
7.346000	 31.6137
7.364000	 31.6516
7.382000	 31.6891
7.400000	 31.7341
7.418000	 31.7755
7.436000	 31.7924
7.454000	 31.7799
7.472000	 31.7629
7.490000	 31.7638
7.508000	 31.7652
7.526000	 31.744
7.544000	 31.7137
7.562000	 31.6981
7.580000	 31.6911
7.598000	 31.6783
7.616000	 31.6701
7.634000	 31.6747
7.652000	 31.6693
7.670000	 31.6459
7.688000	 31.6329
7.706000	 31.6383
7.724000	 31.6374
7.742000	 31.6225
7.760000	 31.6074
7.778000	 31.6022
7.796000	 31.6079
7.814000	 31.6074
7.832000	 31.5838
7.850000	 31.5551
7.868000	 31.5403
7.886000	 31.5071
7.904000	 31.4218
7.922000	 31.3286
7.940000	 31.3083
7.958000	 31.3728
7.976000	 31.4511
7.994000	 31.4769
8.012000	 31.4563
8.030000	 31.4395
8.048000	 31.4443
8.065999	 31.4454
8.084000	 31.4281
8.102000	 31.4049
8.120000	 31.3894
8.138000	 31.3843
8.155999	 31.3859
8.173999	 31.389
8.192000	 31.3851
8.210000	 31.3615
8.228000	 31.3113
8.246000	 31.2497
8.263999	 31.2087
8.282000	 31.2052
8.300000	 31.2151
8.318000	 31.1988
8.336000	 31.1547
8.353999	 31.119
8.372000	 31.1165
8.390000	 31.1384
8.408000	 31.1599
8.426000	 31.166
8.443999	 31.1621
8.462000	 31.1609
8.480000	 31.1599
8.498000	 31.1411
8.516000	 31.0945
8.533999	 31.0324
8.552000	 30.9742
8.570000	 30.9279
8.588000	 30.8924
8.606000	 30.8676
8.624000	 30.8538
8.641999	 30.8424
8.660000	 30.8195
8.678000	 30.7811
8.696000	 30.7412
8.714000	 30.7167
8.731999	 30.7112
8.750000	 30.7191
8.768000	 30.7389
8.786000	 30.7734
8.804000	 30.8135
8.821999	 30.8383
8.840000	 30.8361
8.858000	 30.8133
8.876000	 30.7774
8.894000	 30.7242
8.911999	 30.6522
8.930000	 30.5806
8.948000	 30.5401
8.966000	 30.5442
8.984000	 30.5754
9.001999	 30.5976
9.020000	 30.5797
9.038000	 30.5141
9.056000	 30.4281
9.074000	 30.3685
9.092000	 30.3672
9.109999	 30.4146
9.128000	 30.4704
9.146000	 30.4999
9.164000	 30.4969
9.182000	 30.4736
9.199999	 30.4354
9.218000	 30.3742
9.236000	 30.2846
9.254000	 30.1784
9.272000	 30.0826
9.289999	 30.0211
9.308000	 29.9991
9.326000	 30.0031
9.344000	 30.015
9.362000	 30.0235
9.379999	 30.025
9.398000	 30.018
9.416000	 30.0009
9.434000	 29.9714
9.452000	 29.9291
9.469999	 29.8799
9.488000	 29.8377
9.506000	 29.8178
9.524000	 29.8243
9.542000	 29.8425
9.560000	 29.8467
9.577999	 29.8203
9.596000	 29.7695
9.614000	 29.7184
9.632000	 29.6894
9.650000	 29.6875
9.667999	 29.701
9.686000	 29.7137
9.704000	 29.7174
9.722000	 29.7139
9.740000	 29.7103
9.757999	 29.7128
9.776000	 29.7211
9.794000	 29.7254
9.812000	 29.7071
9.830000	 29.6483
9.847999	 29.5444
9.866000	 29.4126
9.884000	 29.2857
9.902000	 29.195
9.920000	 29.1532
9.937999	 29.1521
9.956000	 29.1743
9.974000	 29.2056
9.992000	 29.2377
10.01	29.2644
10.028	29.2783
10.046	29.272
10.064	29.2413
10.082	29.1905
10.1	29.1328
10.118	29.0881
10.136	29.0746
10.154	29.0983
10.172	29.1468
10.19	29.1918
10.208	29.2051
10.226	29.1754
10.244	29.1148
10.262	29.049
10.28	28.9971
10.298	28.964
10.316	28.9416
10.334	28.9207
10.352	28.8995
10.37	28.8825
10.388	28.8737
10.406	28.87
10.424	28.8622
10.442	28.8416
10.46	28.8063
10.478	28.7622
10.496	28.719
10.514	28.6845
10.532	28.6608
10.55	28.6448
10.568	28.6303
10.586	28.6114
10.604	28.586
10.622	28.5555
10.64	28.5233
10.658	28.4929
10.676	28.4667
10.694	28.4445
10.712	28.4234
10.73	28.399
10.748	28.3674
10.766	28.3281
10.784	28.2852
10.802	28.2467
10.82	28.2196
10.838	28.2064
10.856	28.2015
10.874	28.1931
10.892	28.1701
10.91	28.1265
10.928	28.0665
10.946	28.0021
10.964	27.9468
10.982	27.9108
11	27.8965
11.018	27.8998
11.036	27.913
11.054	27.9283
11.072	27.9398
11.09	27.9431
11.108	27.9348
11.126	27.9128
11.144	27.8782
11.162	27.8364
11.18	27.7964
11.198	27.7684
11.216	27.7599
11.234	27.7721
11.252	27.7996
11.27	27.8314
11.288	27.8541
11.306	27.857
11.324	27.8352
11.342	27.7902
11.36	27.7293
11.378	27.6619
11.396	27.5956
11.414	27.536
11.432	27.4867
11.45	27.4497
11.468	27.4261
11.486	27.4156
11.504	27.4158
11.522	27.4211
11.54	27.4246
11.558	27.4194
11.576	27.4015
11.594	27.3718
11.612	27.3353
11.63	27.3002
11.648	27.2734
11.666	27.2587
11.684	27.2553
11.702	27.2581
11.72	27.2591
11.738	27.2497
11.756	27.2236
11.774	27.1783
11.792	27.1166
11.81	27.0465
11.828	26.9784
11.846	26.9228
11.864	26.8867
11.882	26.8719
11.9	26.8741
11.918	26.8846
11.936	26.8934
11.954	26.8923
11.972	26.8762
11.99	26.8448
12.008	26.8017
12.026	26.7526
12.044	26.7036
12.062	26.6588
12.08	26.6205
12.098	26.5888
12.116	26.5622
12.134	26.5384
12.152	26.5154
12.17	26.4929
12.188	26.4718
12.206	26.454
12.224	26.4419
12.242	26.437
12.26	26.4395
12.278	26.448
12.296	26.4599
12.314	26.4718
12.332	26.4805
12.35	26.4834
12.368	26.4785
12.386	26.4646
12.404	26.4417
12.422	26.4115
12.44	26.3768
12.458	26.3421
12.476	26.3131
12.494	26.295
12.512	26.291
12.53	26.301
12.548	26.3206
12.566	26.3422
12.584	26.3564
12.602	26.3543
12.62	26.3303
12.638	26.2832
12.656	26.216
12.674	26.1352
12.692	26.048
12.71	25.9604
12.728	25.876
12.746	25.7964
12.764	25.7217
12.782	25.6517
12.8	25.5875
12.818	25.5314
12.836	25.4861
12.854	25.4535
12.872	25.433
12.89	25.422
12.908	25.4158
12.926	25.4088
12.944	25.3964
12.962	25.3759
12.98	25.3471
12.998	25.3121
13.016	25.2744
13.034	25.2377
13.052	25.2055
13.07	25.18
13.088	25.1633
13.106	25.1577
13.124	25.1656
13.142	25.1896
13.16	25.2315
13.178	25.2918
13.196	25.3683
13.214	25.4556
13.232	25.5454
13.25	25.6282
13.268	25.6945
13.286	25.7367
13.304	25.7507
13.322	25.7365
13.34	25.6987
13.358	25.6447
13.376	25.5836
13.394	25.5243
13.412	25.4741
13.43	25.4373
13.448	25.4152
13.466	25.4056
13.484	25.4042
13.502	25.4049
13.52	25.4012
13.538	25.3872
13.556	25.3586
13.574	25.3131
13.592	25.2511
13.61	25.1752
13.628	25.0901
13.646	25.001
13.664	24.9133
13.682	24.8315
13.7	24.7584
13.718	24.6959
13.736	24.6442
13.754	24.602
13.772	24.5677
13.79	24.5396
13.808	24.5168
13.826	24.4979
13.844	24.4823
13.862	24.4694
13.88	24.4587
13.898	24.4493
13.916	24.4398
13.934	24.4286
13.952	24.414
13.97	24.3952
13.988	24.372
14.006	24.3451
14.024	24.3164
14.042	24.2888
14.06	24.2654
14.078	24.2494
14.096	24.243
14.114	24.2474
14.132	24.2617
14.15	24.2836
14.168	24.3093
14.186	24.3337
14.204	24.3515
14.222	24.3579
14.24	24.3491
14.258	24.3233
14.276	24.2809
14.294	24.2245
14.312	24.1585
14.33	24.088
14.348	24.0192
14.366	23.9578
14.384	23.9089
14.402	23.8756
14.42	23.8592
14.438	23.8592
14.456	23.8736
14.474	23.8991
14.492	23.9318
14.51	23.9671
14.528	24.0008
14.546	24.0292
14.564	24.0495
14.582	24.0599
14.6	24.0592
14.618	24.0472
14.636	24.0243
14.654	23.9914
14.672	23.9501
14.69	23.902
14.708	23.8491
14.726	23.7934
14.744	23.737
14.762	23.6821
14.78	23.6306
14.798	23.5844
14.816	23.5447
14.834	23.5124
14.852	23.488
14.87	23.4712
14.888	23.4613
14.906	23.4573
14.924	23.4577
14.942	23.4606
14.96	23.4637
14.978	23.4649
14.996	23.4623
15.014	23.4539
15.032	23.4382
15.05	23.4144
15.068	23.3826
15.086	23.3435
15.104	23.2985
15.122	23.2499
15.14	23.2002
15.158	23.1522
15.176	23.1082
15.194	23.0704
15.212	23.0405
15.23	23.0197
15.248	23.0086
15.266	23.0078
15.284	23.0172
15.302	23.0367
15.32	23.0659
15.338	23.1044
15.356	23.1518
15.374	23.2069
15.392	23.2683
15.41	23.3343
15.428	23.4026
15.446	23.4699
15.464	23.5335
15.482	23.5905
15.5	23.6379
15.518	23.6733
15.536	23.6951
15.554	23.703
15.572	23.697
15.59	23.6789
15.608	23.6505
15.626	23.6142
15.644	23.5727
15.662	23.5292
15.68	23.4858
15.698	23.4444
15.716	23.4067
15.734	23.3736
15.752	23.3453
15.77	23.322
15.788	23.3029
15.806	23.2868
15.824	23.2726
15.842	23.2586
15.86	23.2428
15.878	23.2238
15.896	23.2
15.914	23.1698
15.932	23.132
15.95	23.0864
15.968	23.0327
15.986	22.9718
16.004	22.905
16.022	22.8336
16.04	22.7605
16.058	22.6881
16.076	22.6186
16.094	22.5551
16.112	22.4998
16.13	22.454
16.148	22.4188
16.166	22.3941
16.184	22.3793
16.202	22.3736
16.22	22.3747
16.238	22.3809
16.256	22.3901
16.274	22.3997
16.292	22.4086
16.31	22.4157
16.328	22.4205
16.346	22.4231
16.364	22.4239
16.382	22.4241
16.4	22.4247
16.418	22.4268
16.436	22.4318
16.454	22.44
16.472	22.4518
16.49	22.467
16.508	22.4848
16.526	22.5045
16.544	22.5245
16.562	22.5435
16.58	22.5605
16.598	22.5741
16.616	22.584
16.634	22.5896
16.652	22.5913
16.67	22.5896
16.688	22.585
16.706	22.5788
16.724	22.5713
16.742	22.5634
16.76	22.5555
16.778	22.5476
16.796	22.5395
16.814	22.5307
16.832	22.5207
16.85	22.5083
16.868	22.4928
16.886	22.4737
16.904	22.4503
16.922	22.4224
16.94	22.3897
16.958	22.3527
16.976	22.3117
16.994	22.2675
17.012	22.2215
17.03	22.1741
17.048	22.1275
17.066	22.0824
17.084	22.0401
17.102	22.0018
17.12	21.9681
17.138	21.9397
17.156	21.9167
17.174	21.8994
17.192	21.8869
17.21	21.8789
17.228	21.8741
17.246	21.8713
17.264	21.8696
17.282	21.8673
17.3	21.8638
17.318	21.8578
17.336	21.8489
17.354	21.8366
17.372	21.8211
17.39	21.8027
17.408	21.7823
17.426	21.7611
17.444	21.7396
17.462	21.7197
17.48	21.7017
17.498	21.6868
17.516	21.6753
17.534	21.6675
17.552	21.6629
17.57	21.6616
17.588	21.6622
17.606	21.6644
17.624	21.6671
17.642	21.6695
17.66	21.6711
17.678	21.6713
17.696	21.6701
17.714	21.6671
17.732	21.6626
17.75	21.6568
17.768	21.6498
17.786	21.6417
17.804	21.6324
17.822	21.622
17.84	21.61
17.858	21.5959
17.876	21.5793
17.894	21.5594
17.912	21.5359
17.93	21.5082
17.948	21.4761
17.966	21.4397
17.984	21.3993
18.002	21.3555
18.02	21.3094
18.038	21.2617
18.056	21.2143
18.074	21.1679
18.092	21.1246
18.11	21.0847
18.128	21.0498
18.146	21.0199
18.164	20.9957
18.182	20.9769
18.2	20.9633
18.218	20.9541
18.236	20.949
18.254	20.9469
18.272	20.9475
18.29	20.9496
18.308	20.9532
18.326	20.9575
18.344	20.9626
18.362	20.9683
18.38	20.975
18.398	20.9828
18.416	20.9919
18.434	21.0025
18.452	21.0145
18.47	21.028
18.488	21.0425
18.506	21.058
18.524	21.0735
18.542	21.0889
18.56	21.1027
18.578	21.1149
18.596	21.124
18.614	21.1298
18.632	21.1315
18.65	21.129
18.668	21.1219
18.686	21.1103
18.704	21.0945
18.722	21.0749
18.74	21.0522
18.758	21.0267
18.776	20.9994
18.794	20.9707
18.812	20.9416
18.83	20.9123
18.848	20.8835
18.866	20.8555
18.884	20.8288
18.902	20.8033
18.92	20.7792
18.938	20.7566
18.956	20.7354
18.974	20.7158
18.992	20.6978
19.01	20.6814
19.028	20.6666
19.046	20.6535
19.064	20.642
19.082	20.6322
19.1	20.6241
19.118	20.6175
19.136	20.6121
19.154	20.6077
19.172	20.6039
19.19	20.6001
19.208	20.5955
19.226	20.5898
19.244	20.582
19.262	20.5719
19.28	20.5582
19.298	20.5411
19.316	20.5194
19.334	20.4932
19.352	20.4619
19.37	20.4255
19.388	20.3843
19.406	20.3382
19.424	20.2881
19.442	20.2338
19.46	20.177
19.478	20.1175
19.496	20.0569
19.514	19.9955
19.532	19.9343
19.55	19.8739
19.568	19.815
19.586	19.7583
19.604	19.7041
19.622	19.6533
19.64	19.6059
19.658	19.5628
19.676	19.5237
19.694	19.4889
19.712	19.4583
19.73	19.4322
19.748	19.4104
19.766	19.3931
19.784	19.3804
19.802	19.3721
19.82	19.3684
19.838	19.3691
19.856	19.3742
19.874	19.3834
19.892	19.3962
19.91	19.4126
19.928	19.4316
19.946	19.4531
19.964	19.4757
19.982	19.4994
20	19.5228
20.018	19.5451
20.036	19.5659
20.054	19.5837
20.072	19.5987
20.09	19.6095
20.108	19.6164
20.126	19.619
20.144	19.6171
20.162	19.6117
20.18	19.6028
20.198	19.5912
20.216	19.5782
20.234	19.5637
20.252	19.5502
20.27	19.5372
20.288	19.5272
20.306	19.5205
20.324	19.5181
20.342	19.5211
20.36	19.5295
20.378	19.5444
20.396	19.5656
20.414	19.5924
20.432	19.6252
20.45	19.6623
20.468	19.7038
20.486	19.7481
20.504	19.7928
20.522	19.8381
20.54	19.8798
20.558	19.9188
20.576	19.9511
20.594	19.9753
20.612	19.9906
20.63	19.9935
20.648	19.985
20.666	19.9623
20.684	19.9253
20.702	19.8739
20.72	19.8072
20.738	19.7262
20.756	19.632
20.774	19.5243
20.792	19.4067
20.81	19.2791
20.828	19.1441
20.846	19.0057
20.864	18.8631
20.882	18.7226
20.9	18.5833
20.918	18.4495
20.936	18.3241
20.954	18.2067
20.972	18.1022
20.99	18.0097
21.008	17.9312
21.026	17.8679
21.044	17.8193
21.062	17.7858
21.08	17.7675
21.098	17.7625
21.116	17.7709
21.134	17.7914
21.152	17.8211
21.17	17.861
21.188	17.9072
21.206	17.9593
21.224	18.0164
21.242	18.0754
21.26	18.1371
21.278	18.1993
21.296	18.2614
21.314	18.3234
21.332	18.3839
21.35	18.4433
21.368	18.5012
21.386	18.5573
21.404	18.6117
21.422	18.6644
21.44	18.7153
21.458	18.7643
21.476	18.8112
21.494	18.8559
21.512	18.8977
21.53	18.9369
21.548	18.9727
21.566	19.0047
21.584	19.0328
21.602	19.0561
21.62	19.0744
21.638	19.0877
21.656	19.0956
21.674	19.0981
21.692	19.0955
21.71	19.0874
21.728	19.0743
21.746	19.0574
21.764	19.0362
21.782	19.0119
21.8	18.9855
21.818	18.9565
21.836	18.9275
21.854	18.8983
21.872	18.8696
21.89	18.8431
21.908	18.8182
21.926	18.7959
21.944	18.7767
21.962	18.7605
21.98	18.747
21.998	18.7366
22.016	18.7287
22.034	18.7224
22.052	18.7182
22.07	18.7149
22.088	18.7112
22.106	18.7079
22.124	18.7029
22.142	18.6961
22.16	18.6874
22.178	18.6753
22.196	18.6601
22.214	18.6417
22.232	18.6196
22.25	18.5939
22.268	18.5651
22.286	18.5333
22.304	18.4984
22.322	18.4617
22.34	18.4232
22.358	18.3833
22.376	18.3437
22.394	18.3038
22.412	18.2647
22.43	18.2279
22.448	18.1927
22.466	18.1604
22.484	18.1322
22.502	18.1075
22.52	18.0876
22.538	18.0731
22.556	18.0636
22.574	18.0599
22.592	18.0622
22.61	18.0703
22.628	18.084
22.646	18.1036
22.664	18.1286
22.682	18.1585
22.7	18.1937
22.718	18.2333
22.736	18.2764
22.754	18.3238
22.772	18.3735
22.79	18.4239
22.808	18.476
22.826	18.5274
22.844	18.5765
22.862	18.6244
22.88	18.6691
22.898	18.7097
22.916	18.7468
22.934	18.7795
22.952	18.8075
22.97	18.831
22.988	18.8498
23.006	18.8634
23.024	18.8724
23.042	18.8776
23.06	18.8787
23.078	18.8762
23.096	18.8726
23.114	18.8672
23.132	18.8608
23.15	18.8561
23.168	18.8528
23.186	18.8512
23.204	18.8535
23.222	18.8595
23.24	18.8694
23.258	18.8843
23.276	18.9043
23.294	18.9292
23.312	18.9598
23.33	18.9964
23.348	19.0385
23.366	19.0851
23.384	19.1368
23.402	19.1928
23.42	19.251
23.438	19.3117
23.456	19.3746
23.474	19.4365
23.492	19.4974
23.51	19.5575
23.528	19.6138
23.546	19.6659
23.564	19.7142
23.582	19.7565
23.6	19.7917
23.618	19.8208
23.636	19.8424
23.654	19.8557
23.672	19.8612
23.69	19.8589
23.708	19.8487
23.726	19.8304
23.744	19.8051
23.762	19.7735
23.78	19.735
23.798	19.691
23.816	19.6431
23.834	19.5905
23.852	19.5342
23.87	19.4762
23.888	19.4159
23.906	19.3538
23.924	19.2909
23.942	19.2278
23.96	19.1638
23.978	19.099
23.996	19.0334
24.014	18.9672
24.032	18.8989
24.05	18.828
24.068	18.7557
24.086	18.6794
24.104	18.597
24.122	18.5106
24.14	18.4176
24.158	18.3144
24.176	18.2028
24.194	18.0814
24.212	17.9464
24.23	17.7972
24.248	17.635
24.266	17.4569
24.284	17.261
24.302	17.0489
24.32	16.8196
24.338	16.572
24.356	16.3057
24.374	16.0225
24.392	15.7243
24.41	15.4098
24.428	15.0802
24.446	14.7396
24.464	14.3892
24.482	14.0267
24.5	13.6579
24.518	13.2871
24.536	12.9106
24.554	12.5321
24.572	12.1573
24.59	11.7844
24.608	11.4139
24.626	11.0506
24.644	10.6968
24.662	10.3499
24.68	10.0124
24.698	9.686657
24.716	9.372093
24.734	9.068007
24.752	8.774085
24.77	8.490995
24.788	8.218344
24.806	7.954041
24.824	7.696841
24.842	7.448347
24.86	7.206358
24.878	6.968217
24.896	6.734758
24.914	6.505835
24.932	6.279288
24.95	6.054003
24.968	5.831247
24.986	5.609670
25.004	5.387752
25.022	5.165183
25.04	4.942890
25.058	4.721760
25.076	4.501411
25.094	4.280947
25.112	4.063809
25.13	3.853333
25.148	3.647258
25.166	3.446847
25.184	3.255816
25.202	3.076148
25.22	2.905790
25.238	2.745755
25.256	2.597196
25.274	2.459378
25.292	2.332546
25.31	2.217900
25.328	2.116086
25.346	2.026222
25.364	1.949026
25.382	1.885376
25.4	1.835625
25.418	1.799140
25.436	1.775232
25.454	1.763552
25.472	1.765084
25.49	1.778291
25.508	1.801210
25.526	1.833631
25.544	1.876397
25.562	1.927699
25.58	1.985848
25.598	2.051985
25.616	2.125527
25.634	2.204711
25.652	2.287870
25.67	2.375177
25.688	2.468535
25.706	2.569890
25.724	2.678607
25.742	2.794107
25.76	2.919305
25.778	3.056952
25.796	3.206338
25.814	3.366776
25.832	3.538437
25.85	3.722080
25.868	3.918953
25.886	4.125714
25.904	4.338585
25.922	4.559677
25.94	4.791312
25.958	5.022666
25.976	5.242973
25.994	5.459128
26.012	5.669961
26.03	5.861835
26.048	6.023140
26.066	6.163767
26.084	6.279344
26.102	6.359283
26.12	6.396719
26.138	6.399451
26.156	6.363343
26.174	6.282446
26.192	6.151720
26.21	5.973751
26.228	5.755031
26.246	5.502033
26.264	5.211753
26.282	4.882577
26.3	4.525500
26.318	4.151258
26.336	3.755132
26.354	3.336467
26.372	2.903833
26.39	2.465027
26.408	2.014207
26.426	1.553156
26.444	1.088892
26.462	0.627593
26.48	0.166426
26.498	-0.295681
26.516	-0.758255
26.534	-1.220861
26.552	-1.683561
26.57	-2.146679
26.588	-2.610528
26.606	-3.076565
26.624	-3.547465
26.642	-4.017389
26.66	-4.479680
26.678	-4.930572
26.696	-5.375229
26.714	-5.810802
26.732	-6.233558
26.75	-6.644236
26.768	-7.049286
26.786	-7.437265
26.804	-7.795568
26.822	-8.114569
26.84	-8.399714
26.858	-8.658112
26.876	-8.896535
26.894	-9.111919
26.912	-9.291171
26.93	-9.460281
26.948	-9.647505
26.966	-9.886335
26.984	-10.1821
27.002	-10.4767
27.02	-10.7095
27.028	-10.7704