File: Bakgrunnsmateriale/MATLAB/FTIR/ftir_data/LPE453/Mapping_121/LPE453_t31.asc
PE IR       SPECTRUM    SPECTRUM    ASCII       PEDS        1.60
  -1
LPCF9D~1.ASC
17/05/16
16:54:09.00
17/05/16
16:54:35.00
tln
$LPE453_t0031$<tbV0>[-7.8,-7.8,8.0,0.0,27,1,0]
27.028
64

2002,4.07
MIRTGS : RIGHTBACK : INTERNAL 2
MIR : ON : INTERNAL 2
OPTKBR

0.200000
8
8.000000
FILLER
RATIO
SPECTRUM
UNLOCKED 256

DOUBLE
64
COMBINED
1
0
0

0.002000
RATIO

1
0
TRUE
51149
0
LEFT NOT FITTED RIGHT NOT FITTED 0
NONE
NONE
15600
12
4.427000
51148
TRUE
1 0 8 72 0 0 0 0

15798

#HDR
-1
-1
#GR
µM
%T
2.38419e-05
0.0
2.000000
0.002000
12515
8
37.317
-0.886054
#DATA
2.000000	 0.082755
2.018000	 -0.001771
2.036000	 0.257770
2.054000	 -0.059553
2.072000	 0.301915
2.090000	 0.347294
2.108000	 0.291700
2.126000	 0.224344
2.144000	 0.444113
2.162000	 0.908537
2.180000	 0.237413
2.198000	 -0.680065
2.216000	 3.300624
2.234000	 -0.527220
2.252000	 0.420852
2.270000	 0.631677
2.288000	 0.183486
2.306000	 0.318936
2.324000	 -0.012851
2.342000	 0.048069
2.360000	 0.279737
2.378000	 0.062135
2.396000	 0.501948
2.414000	 0.269684
2.432000	 0.090094
2.450000	 -0.042546
2.468000	 -0.102324
2.486000	 0.049810
2.504000	 -0.022696
2.522000	 0.275392
2.540000	 0.054083
2.558000	 0.134519
2.576000	 0.005933
2.594000	 0.021899
2.612000	 0.125459
2.630000	 0.063596
2.648000	 -0.000731
2.666000	 0.036624
2.684000	 0.080798
2.702000	 0.157261
2.720000	 0.039105
2.738000	 0.060363
2.756000	 -0.035268
2.774000	 -0.021377
2.792000	 0.118458
2.810000	 0.160282
2.828000	 0.029085
2.846000	 -0.005857
2.864000	 0.207626
2.882000	 -0.108703
2.900000	 0.051973
2.918000	 0.165916
2.936000	 0.141499
2.954000	 0.161989
2.972000	 -0.059459
2.990000	 0.074080
3.008000	 0.035270
3.026000	 -0.028921
3.044000	 0.090966
3.062000	 0.111753
3.080000	 0.089605
3.098000	 0.066046
3.116000	 -0.006749
3.134000	 0.173370
3.152000	 0.070164
3.170000	 -0.017704
3.188000	 0.032697
3.206000	 0.195297
3.224000	 0.054823
3.242000	 0.084719
3.260000	 0.050128
3.278000	 -0.087574
3.296000	 -0.008746
3.314000	 0.088364
3.332000	 0.089099
3.350000	 0.200604
3.368000	 -0.085654
3.386000	 -0.011562
3.404000	 0.074292
3.422000	 -0.053719
3.440000	 0.078805
3.458000	 0.102236
3.476000	 0.127047
3.494000	 -0.006205
3.512000	 0.246432
3.530000	 -0.002869
3.548000	 -0.034973
3.566000	 0.028244
3.584000	 0.016755
3.602000	 0.146887
3.620000	 0.061445
3.638000	 -0.028351
3.656000	 0.017599
3.674000	 -0.075136
3.692000	 0.049887
3.710000	 0.077540
3.728000	 0.039148
3.746000	 -0.000496
3.764000	 0.125034
3.782000	 0.046227
3.800000	 0.032892
3.818000	 -0.069233
3.836000	 0.034334
3.854000	 -0.084599
3.872000	 0.021368
3.890000	 0.059969
3.908000	 -0.030248
3.926000	 0.061463
3.944000	 0.060926
3.962000	 -0.086759
3.980000	 0.085304
3.998000	 0.126187
4.016000	 -0.040520
4.034000	 0.002799
4.052000	 0.019986
4.070000	 -0.019974
4.088000	 0.122350
4.106000	 0.019340
4.124000	 0.242194
4.141999	 -0.001483
4.160000	 -0.105858
4.178000	 0.188229
4.196000	 0.140300
4.214000	 0.188974
4.232000	 0.154008
4.250000	 0.449765
4.268000	 0.432569
4.286000	 0.491450
4.304000	 0.664131
4.322000	 0.730353
4.340000	 0.877529
4.358000	 1.065055
4.375999	 1.278707
4.394000	 1.516000
4.412000	 1.874341
4.430000	 2.131117
4.448000	 2.842852
4.466000	 3.269130
4.484000	 3.875107
4.502000	 4.506831
4.520000	 5.106101
4.538000	 5.945267
4.556000	 6.755938
4.574000	 7.564592
4.592000	 8.534510
4.609999	 9.499335
4.628000	 10.4973
4.646000	 11.4201
4.664000	 12.483
4.682000	 13.7512
4.700000	 14.8091
4.718000	 15.8744
4.736000	 16.9677
4.754000	 18.0489
4.772000	 19.1178
4.790000	 19.9258
4.808000	 20.9159
4.826000	 22.1342
4.843999	 22.9189
4.862000	 23.8038
4.880000	 24.7057
4.898000	 25.3712
4.916000	 26.1154
4.934000	 26.8244
4.952000	 27.5109
4.970000	 28.1646
4.988000	 28.7966
5.006000	 29.253
5.024000	 29.7419
5.042000	 30.277
5.060000	 30.6973
5.077999	 31.1404
5.096000	 31.5304
5.114000	 31.9257
5.132000	 32.3575
5.150000	 32.6585
5.168000	 32.9451
5.186000	 33.1729
5.204000	 33.3291
5.222000	 33.5683
5.240000	 33.8908
5.258000	 34.1711
5.276000	 34.402
5.294000	 34.5934
5.312000	 34.683
5.330000	 34.8001
5.348000	 35.0091
5.366000	 35.1235
5.384000	 35.2338
5.402000	 35.3118
5.420000	 35.3597
5.438000	 35.6119
5.456000	 35.8385
5.474000	 35.9327
5.492000	 36.01
5.510000	 36.0969
5.528000	 36.0866
5.546000	 36.0057
5.564000	 36.0509
5.582000	 36.0305
5.600000	 36.1009
5.618000	 36.2374
5.636000	 36.3474
5.654000	 36.4024
5.672000	 36.3967
5.690000	 36.5268
5.708000	 36.6316
5.726000	 36.5541
5.744000	 36.5026
5.762000	 36.5362
5.780000	 36.4596
5.798000	 36.58
5.816000	 36.7695
5.834000	 36.7698
5.852000	 36.7874
5.870000	 36.802
5.888000	 36.7494
5.906000	 36.7808
5.923999	 36.819
5.942000	 36.7291
5.960000	 36.5995
5.978000	 36.6058
5.996000	 36.6243
6.014000	 36.6766
6.032000	 36.8313
6.050000	 36.9514
6.068000	 37.0066
6.086000	 37.086
6.104000	 37.0756
6.122000	 37.0346
6.140000	 37.0576
6.158000	 37.0104
6.176000	 36.9311
6.194000	 36.8173
6.212000	 36.7056
6.230000	 36.7261
6.248000	 36.8146
6.266000	 36.9465
6.284000	 36.9926
6.302000	 36.9844
6.320000	 37.0552
6.338000	 37.0765
6.356000	 37.0243
6.374000	 37.0058
6.392000	 36.994
6.410000	 36.8934
6.428000	 36.7982
6.446000	 36.7231
6.464000	 36.7177
6.482000	 36.8186
6.500000	 36.8615
6.518000	 36.8591
6.536000	 36.8936
6.554000	 36.943
6.572000	 37.0576
6.590000	 37.1827
6.608000	 37.2251
6.626000	 37.2206
6.644000	 37.1552
6.662000	 37.0609
6.680000	 36.9656
6.698000	 36.8496
6.716000	 36.7839
6.734000	 36.772
6.752000	 36.7869
6.770000	 36.8069
6.788000	 36.821
6.806000	 36.8989
6.824000	 37.049
6.842000	 37.1322
6.860000	 37.0732
6.878000	 37.0502
6.896000	 37.2094
6.914000	 37.316
6.932000	 37.1443
6.950000	 36.8767
6.968000	 36.787
6.986000	 36.827
7.004000	 36.8086
7.022000	 36.7293
7.040000	 36.6852
7.058000	 36.6835
7.076000	 36.6945
7.094000	 36.7231
7.112000	 36.7748
7.130000	 36.8498
7.148000	 36.9232
7.166000	 36.9701
7.184000	 37.0208
7.202000	 37.0939
7.220000	 37.1648
7.238000	 37.2124
7.256000	 37.1989
7.274000	 37.0791
7.292000	 36.8899
7.310000	 36.7453
7.328000	 36.6812
7.346000	 36.616
7.364000	 36.5166
7.382000	 36.4559
7.400000	 36.474
7.418000	 36.5301
7.436000	 36.6006
7.454000	 36.7053
7.472000	 36.8185
7.490000	 36.8852
7.508000	 36.9463
7.526000	 37.0663
7.544000	 37.1618
7.562000	 37.1176
7.580000	 36.9927
7.598000	 36.9128
7.616000	 36.8818
7.634000	 36.839
7.652000	 36.7727
7.670000	 36.6947
7.688000	 36.6017
7.706000	 36.4969
7.724000	 36.4053
7.742000	 36.3611
7.760000	 36.3795
7.778000	 36.4374
7.796000	 36.5025
7.814000	 36.5771
7.832000	 36.6752
7.850000	 36.7888
7.868000	 36.9006
7.886000	 36.9935
7.904000	 37.0575
7.922000	 37.103
7.940000	 37.1346
7.958000	 37.1207
7.976000	 37.0529
7.994000	 36.9767
8.012000	 36.9139
8.030000	 36.8234
8.048000	 36.6752
8.065999	 36.5053
8.084000	 36.3813
8.102000	 36.3366
8.120000	 36.336
8.138000	 36.3171
8.155999	 36.2738
8.173999	 36.2644
8.192000	 36.3312
8.210000	 36.4519
8.228000	 36.5644
8.246000	 36.618
8.263999	 36.6134
8.282000	 36.6133
8.300000	 36.6887
8.318000	 36.8366
8.336000	 36.9734
8.353999	 37.0311
8.372000	 37.0195
8.390000	 36.9876
8.408000	 36.9632
8.426000	 36.9446
8.443999	 36.916
8.462000	 36.862
8.480000	 36.7797
8.498000	 36.6806
8.516000	 36.5728
8.533999	 36.4551
8.552000	 36.3302
8.570000	 36.2105
8.588000	 36.1089
8.606000	 36.0417
8.624000	 36.0286
8.641999	 36.0673
8.660000	 36.127
8.678000	 36.1819
8.696000	 36.2425
8.714000	 36.3308
8.731999	 36.4382
8.750000	 36.5337
8.768000	 36.6097
8.786000	 36.6904
8.804000	 36.7883
8.821999	 36.874
8.840000	 36.9037
8.858000	 36.8713
8.876000	 36.8172
8.894000	 36.7833
8.911999	 36.7668
8.930000	 36.7243
8.948000	 36.6184
8.966000	 36.4568
8.984000	 36.2856
9.001999	 36.1473
9.020000	 36.0485
9.038000	 35.9661
9.056000	 35.8792
9.074000	 35.7995
9.092000	 35.7674
9.109999	 35.8173
9.128000	 35.9417
9.146000	 36.0872
9.164000	 36.1889
9.182000	 36.2129
9.199999	 36.1761
9.218000	 36.1327
9.236000	 36.1377
9.254000	 36.2153
9.272000	 36.3514
9.289999	 36.5094
9.308000	 36.6522
9.326000	 36.7564
9.344000	 36.8165
9.362000	 36.8401
9.379999	 36.8412
9.398000	 36.8283
9.416000	 36.797
9.434000	 36.7328
9.452000	 36.6263
9.469999	 36.4877
9.488000	 36.3479
9.506000	 36.2409
9.524000	 36.1826
9.542000	 36.1631
9.560000	 36.1542
9.577999	 36.1267
9.596000	 36.0638
9.614000	 35.9663
9.632000	 35.8508
9.650000	 35.7429
9.667999	 35.6662
9.686000	 35.6317
9.704000	 35.6355
9.722000	 35.6671
9.740000	 35.7203
9.757999	 35.7942
9.776000	 35.8882
9.794000	 35.9946
9.812000	 36.0998
9.830000	 36.1892
9.847999	 36.2526
9.866000	 36.2901
9.884000	 36.3132
9.902000	 36.3394
9.920000	 36.3841
9.937999	 36.4487
9.956000	 36.5182
9.974000	 36.5713
9.992000	 36.5946
10.01	36.5896
10.028	36.5669
10.046	36.5342
10.064	36.4911
10.082	36.4327
10.1	36.3534
10.118	36.2511
10.136	36.1268
10.154	35.985
10.172	35.837
10.19	35.7023
10.208	35.6018
10.226	35.5449
10.244	35.5238
10.262	35.5145
10.28	35.4931
10.298	35.4479
10.316	35.386
10.334	35.3297
10.352	35.3039
10.37	35.3261
10.388	35.3976
10.406	35.5059
10.424	35.6285
10.442	35.7426
10.46	35.8336
10.478	35.8984
10.496	35.9439
10.514	35.9785
10.532	36.009
10.55	36.0392
10.568	36.0718
10.586	36.1097
10.604	36.1544
10.622	36.2021
10.64	36.2429
10.658	36.2647
10.676	36.2594
10.694	36.2282
10.712	36.1806
10.73	36.1285
10.748	36.0796
10.766	36.0383
10.784	36.0069
10.802	35.9876
10.82	35.9808
10.838	35.9808
10.856	35.9746
10.874	35.9447
10.892	35.8784
10.91	35.7734
10.928	35.6423
10.946	35.5062
10.964	35.385
10.982	35.2899
11	35.2188
11.018	35.1617
11.036	35.106
11.054	35.0427
11.072	34.9715
11.09	34.8998
11.108	34.8394
11.126	34.8035
11.144	34.8004
11.162	34.8319
11.18	34.8934
11.198	34.9746
11.216	35.0632
11.234	35.1483
11.252	35.2213
11.27	35.2784
11.288	35.3207
11.306	35.353
11.324	35.3847
11.342	35.4269
11.36	35.4893
11.378	35.5763
11.396	35.6839
11.414	35.7997
11.432	35.9069
11.45	35.9901
11.468	36.0389
11.486	36.0512
11.504	36.0323
11.522	35.9915
11.54	35.9367
11.558	35.8731
11.576	35.8028
11.594	35.7248
11.612	35.6386
11.63	35.5446
11.648	35.4445
11.666	35.3401
11.684	35.2333
11.702	35.1254
11.72	35.0168
11.738	34.9084
11.756	34.8013
11.774	34.6974
11.792	34.5997
11.81	34.512
11.828	34.4392
11.846	34.3869
11.864	34.3597
11.882	34.3595
11.9	34.3846
11.918	34.4282
11.936	34.4797
11.954	34.5274
11.972	34.5611
11.99	34.5762
12.008	34.5737
12.026	34.5603
12.044	34.5452
12.062	34.536
12.08	34.5352
12.098	34.5415
12.116	34.551
12.134	34.5611
12.152	34.5733
12.17	34.5927
12.188	34.627
12.206	34.6817
12.224	34.7573
12.242	34.8472
12.26	34.9394
12.278	35.0187
12.296	35.0715
12.314	35.0898
12.332	35.0737
12.35	35.0318
12.368	34.9788
12.386	34.9307
12.404	34.9013
12.422	34.8979
12.44	34.9197
12.458	34.9588
12.476	35.0028
12.494	35.0379
12.512	35.0523
12.53	35.0387
12.548	34.9955
12.566	34.926
12.584	34.8376
12.602	34.74
12.62	34.6429
12.638	34.5539
12.656	34.4774
12.674	34.4141
12.692	34.3619
12.71	34.3164
12.728	34.2728
12.746	34.2268
12.764	34.1768
12.782	34.1235
12.8	34.0693
12.818	34.0177
12.836	33.9716
12.854	33.9326
12.872	33.9008
12.89	33.8744
12.908	33.8507
12.926	33.8272
12.944	33.8028
12.962	33.7777
12.98	33.7535
12.998	33.7327
13.016	33.718
13.034	33.7119
13.052	33.716
13.07	33.7314
13.088	33.7594
13.106	33.8007
13.124	33.8565
13.142	33.9263
13.16	34.0082
13.178	34.0975
13.196	34.187
13.214	34.2681
13.232	34.3322
13.25	34.3729
13.268	34.3875
13.286	34.3778
13.304	34.3503
13.322	34.315
13.34	34.2829
13.358	34.2639
13.376	34.2652
13.394	34.2892
13.412	34.3342
13.43	34.3952
13.448	34.4648
13.466	34.535
13.484	34.5986
13.502	34.65
13.52	34.6854
13.538	34.7026
13.556	34.7006
13.574	34.6802
13.592	34.6424
13.61	34.5894
13.628	34.5229
13.646	34.4452
13.664	34.3581
13.682	34.2633
13.7	34.1623
13.718	34.0573
13.736	33.9505
13.754	33.8448
13.772	33.7435
13.79	33.6499
13.808	33.5666
13.826	33.4957
13.844	33.4379
13.862	33.3924
13.88	33.3567
13.898	33.3273
13.916	33.3004
13.934	33.2717
13.952	33.2375
13.97	33.1954
13.988	33.1441
14.006	33.0838
14.024	33.0162
14.042	32.9433
14.06	32.8681
14.078	32.7932
14.096	32.7211
14.114	32.6537
14.132	32.5926
14.15	32.5387
14.168	32.4923
14.186	32.4543
14.204	32.4246
14.222	32.4046
14.24	32.395
14.258	32.3979
14.276	32.415
14.294	32.4485
14.312	32.5001
14.33	32.5708
14.348	32.6608
14.366	32.7688
14.384	32.8919
14.402	33.0253
14.42	33.163
14.438	33.2985
14.456	33.4248
14.474	33.5358
14.492	33.6262
14.51	33.6923
14.528	33.7334
14.546	33.7505
14.564	33.7468
14.582	33.7268
14.6	33.696
14.618	33.66
14.636	33.6245
14.654	33.5935
14.672	33.5697
14.69	33.5545
14.708	33.5478
14.726	33.5485
14.744	33.5542
14.762	33.5625
14.78	33.5707
14.798	33.5769
14.816	33.5793
14.834	33.5771
14.852	33.5698
14.87	33.5576
14.888	33.5413
14.906	33.5219
14.924	33.5003
14.942	33.4775
14.96	33.4539
14.978	33.4296
14.996	33.4043
15.014	33.3772
15.032	33.3471
15.05	33.3127
15.068	33.2729
15.086	33.227
15.104	33.1744
15.122	33.1152
15.14	33.0498
15.158	32.9794
15.176	32.9054
15.194	32.8294
15.212	32.7538
15.23	32.6803
15.248	32.6107
15.266	32.5464
15.284	32.4887
15.302	32.4382
15.32	32.3944
15.338	32.3565
15.356	32.3227
15.374	32.2904
15.392	32.2575
15.41	32.2217
15.428	32.1806
15.446	32.1329
15.464	32.0782
15.482	32.0171
15.5	31.9511
15.518	31.8834
15.536	31.8173
15.554	31.7562
15.572	31.7036
15.59	31.6629
15.608	31.6354
15.626	31.6221
15.644	31.623
15.662	31.6361
15.68	31.6594
15.698	31.6908
15.716	31.7274
15.734	31.7671
15.752	31.8086
15.77	31.8507
15.788	31.8935
15.806	31.9375
15.824	31.9833
15.842	32.0317
15.86	32.0831
15.878	32.1375
15.896	32.1945
15.914	32.2528
15.932	32.3109
15.95	32.3676
15.968	32.421
15.986	32.4697
16.004	32.513
16.022	32.55
16.04	32.5812
16.058	32.6068
16.076	32.6272
16.094	32.6432
16.112	32.6549
16.13	32.6622
16.148	32.6651
16.166	32.6626
16.184	32.654
16.202	32.6384
16.22	32.6151
16.238	32.5842
16.256	32.5458
16.274	32.5015
16.292	32.4531
16.31	32.4026
16.328	32.3531
16.346	32.307
16.364	32.2661
16.382	32.2326
16.4	32.2066
16.418	32.1881
16.436	32.1755
16.454	32.1661
16.472	32.1579
16.49	32.1473
16.508	32.1317
16.526	32.1093
16.544	32.078
16.562	32.0378
16.58	31.9885
16.598	31.9318
16.616	31.8695
16.634	31.8034
16.652	31.7366
16.67	31.6706
16.688	31.6074
16.706	31.5483
16.724	31.4938
16.742	31.4442
16.76	31.3992
16.778	31.3582
16.796	31.3205
16.814	31.2854
16.832	31.2525
16.85	31.2214
16.868	31.1921
16.886	31.1648
16.904	31.1399
16.922	31.1178
16.94	31.0992
16.958	31.0844
16.976	31.0737
16.994	31.0668
17.012	31.063
17.03	31.0619
17.048	31.0618
17.066	31.0618
17.084	31.0605
17.102	31.0563
17.12	31.0486
17.138	31.0359
17.156	31.0181
17.174	30.9946
17.192	30.966
17.21	30.9326
17.228	30.8956
17.246	30.8564
17.264	30.8158
17.282	30.7758
17.3	30.7371
17.318	30.7016
17.336	30.6704
17.354	30.6446
17.372	30.6255
17.39	30.6134
17.408	30.6091
17.426	30.613
17.444	30.6252
17.462	30.6455
17.48	30.6739
17.498	30.7098
17.516	30.7523
17.534	30.8008
17.552	30.8535
17.57	30.9099
17.588	30.9674
17.606	31.0249
17.624	31.0802
17.642	31.1312
17.66	31.1766
17.678	31.2138
17.696	31.2423
17.714	31.26
17.732	31.2667
17.75	31.2616
17.768	31.2452
17.786	31.2175
17.804	31.18
17.822	31.1334
17.84	31.0799
17.858	31.0212
17.876	30.9591
17.894	30.8963
17.912	30.834
17.93	30.7753
17.948	30.7206
17.966	30.6728
17.984	30.6324
18.002	30.6015
18.02	30.5805
18.038	30.5704
18.056	30.5715
18.074	30.5838
18.092	30.6071
18.11	30.6412
18.128	30.6849
18.146	30.7377
18.164	30.7978
18.182	30.8638
18.2	30.9341
18.218	31.0062
18.236	31.079
18.254	31.1492
18.272	31.2161
18.29	31.2765
18.308	31.3299
18.326	31.3735
18.344	31.4073
18.362	31.4297
18.38	31.4408
18.398	31.4402
18.416	31.4285
18.434	31.4062
18.452	31.3747
18.47	31.3345
18.488	31.288
18.506	31.2359
18.524	31.1809
18.542	31.1233
18.56	31.066
18.578	31.0092
18.596	30.9548
18.614	30.903
18.632	30.8552
18.65	30.8114
18.668	30.7718
18.686	30.7361
18.704	30.7042
18.722	30.6755
18.74	30.6486
18.758	30.6231
18.776	30.597
18.794	30.5697
18.812	30.5392
18.83	30.5049
18.848	30.4651
18.866	30.4196
18.884	30.3673
18.902	30.3083
18.92	30.2423
18.938	30.1702
18.956	30.0926
18.974	30.0109
18.992	29.9265
19.01	29.841
19.028	29.7566
19.046	29.6744
19.064	29.5969
19.082	29.5249
19.1	29.4602
19.118	29.4032
19.136	29.3549
19.154	29.3151
19.172	29.2839
19.19	29.2606
19.208	29.2441
19.226	29.2339
19.244	29.2277
19.262	29.2252
19.28	29.2234
19.298	29.2224
19.316	29.219
19.334	29.2136
19.352	29.2036
19.37	29.1894
19.388	29.1693
19.406	29.1436
19.424	29.1121
19.442	29.0748
19.46	29.0324
19.478	28.9847
19.496	28.9333
19.514	28.8786
19.532	28.8219
19.55	28.764
19.568	28.7062
19.586	28.6501
19.604	28.5962
19.622	28.5464
19.64	28.5008
19.658	28.4617
19.676	28.4289
19.694	28.4041
19.712	28.3872
19.73	28.3794
19.748	28.3807
19.766	28.3912
19.784	28.4112
19.802	28.4399
19.82	28.4774
19.838	28.5228
19.856	28.5749
19.874	28.6334
19.892	28.696
19.91	28.7629
19.928	28.8308
19.946	28.9003
19.964	28.968
19.982	29.034
20	29.0961
20.018	29.1531
20.036	29.2045
20.054	29.2483
20.072	29.2849
20.09	29.3129
20.108	29.3323
20.126	29.343
20.144	29.3448
20.162	29.3385
20.18	29.3242
20.198	29.3028
20.216	29.2753
20.234	29.2421
20.252	29.2055
20.27	29.1652
20.288	29.1241
20.306	29.0818
20.324	29.0407
20.342	29.0019
20.36	28.9659
20.378	28.9356
20.396	28.9102
20.414	28.8925
20.432	28.8823
20.45	28.8807
20.468	28.8885
20.486	28.9056
20.504	28.9323
20.522	28.9686
20.54	29.0135
20.558	29.0675
20.576	29.1285
20.594	29.196
20.612	29.2689
20.63	29.3444
20.648	29.4232
20.666	29.5007
20.684	29.5775
20.702	29.6506
20.72	29.7176
20.738	29.7785
20.756	29.8296
20.774	29.8716
20.792	29.9024
20.81	29.9214
20.828	29.9288
20.846	29.9239
20.864	29.907
20.882	29.8791
20.9	29.8398
20.918	29.7913
20.936	29.7347
20.954	29.6702
20.972	29.6016
20.99	29.5278
21.008	29.4527
21.026	29.3774
21.044	29.3025
21.062	29.2318
21.08	29.1642
21.098	29.1026
21.116	29.0477
21.134	28.9996
21.152	28.9599
21.17	28.9282
21.188	28.9042
21.206	28.8885
21.224	28.8798
21.242	28.8768
21.26	28.8801
21.278	28.8865
21.296	28.896
21.314	28.9074
21.332	28.9174
21.35	28.9272
21.368	28.9329
21.386	28.934
21.404	28.9297
21.422	28.9169
21.44	28.8964
21.458	28.8663
21.476	28.8257
21.494	28.7749
21.512	28.7132
21.53	28.6407
21.548	28.5578
21.566	28.4646
21.584	28.3612
21.602	28.2502
21.62	28.1309
21.638	28.0052
21.656	27.8756
21.674	27.7408
21.692	27.6056
21.71	27.4705
21.728	27.3365
21.746	27.2084
21.764	27.0846
21.782	26.9692
21.8	26.8652
21.818	26.7713
21.836	26.6922
21.854	26.6278
21.872	26.5789
21.89	26.5484
21.908	26.5355
21.926	26.5411
21.944	26.5666
21.962	26.6111
21.98	26.6734
21.998	26.7544
22.016	26.8521
22.034	26.9631
22.052	27.0893
22.07	27.2255
22.088	27.3684
22.106	27.5197
22.124	27.6715
22.142	27.8233
22.16	27.9741
22.178	28.1159
22.196	28.2508
22.214	28.3749
22.232	28.4824
22.25	28.5756
22.268	28.6511
22.286	28.7062
22.304	28.7424
22.322	28.759
22.34	28.7546
22.358	28.731
22.376	28.6916
22.394	28.6342
22.412	28.5631
22.43	28.4841
22.448	28.3938
22.466	28.2993
22.484	28.206
22.502	28.1107
22.52	28.0218
22.538	27.9423
22.556	27.8704
22.574	27.8141
22.592	27.7741
22.61	27.7501
22.628	27.7469
22.646	27.7643
22.664	27.8022
22.682	27.8617
22.7	27.9435
22.718	28.0453
22.736	28.1655
22.754	28.3058
22.772	28.4613
22.79	28.6284
22.808	28.81
22.826	28.9987
22.844	29.1901
22.862	29.3874
22.88	29.5834
22.898	29.7755
22.916	29.9655
22.934	30.1472
22.952	30.3189
22.97	30.4817
22.988	30.63
23.006	30.763
23.024	30.8812
23.042	30.9809
23.06	31.0611
23.078	31.1229
23.096	31.1649
23.114	31.1869
23.132	31.1895
23.15	31.1731
23.168	31.137
23.186	31.0823
23.204	31.011
23.222	30.9224
23.24	30.8173
23.258	30.6984
23.276	30.5649
23.294	30.4177
23.312	30.2603
23.33	30.0919
23.348	29.9133
23.366	29.7277
23.384	29.5344
23.402	29.3341
23.42	29.1302
23.438	28.9223
23.456	28.7106
23.474	28.4986
23.492	28.2861
23.51	28.073
23.528	27.863
23.546	27.6565
23.564	27.4529
23.582	27.2558
23.6	27.0663
23.618	26.8831
23.636	26.7097
23.654	26.5475
23.672	26.3948
23.69	26.2552
23.708	26.1308
23.726	26.0198
23.744	25.9249
23.762	25.8487
23.78	25.7889
23.798	25.7483
23.816	25.7298
23.834	25.7319
23.852	25.7557
23.87	25.8036
23.888	25.875
23.906	25.9699
23.924	26.0895
23.942	26.2346
23.96	26.4041
23.978	26.5959
23.996	26.81
24.014	27.0469
24.032	27.3021
24.05	27.574
24.068	27.8657
24.086	28.1692
24.104	28.4777
24.122	28.7982
24.14	29.1212
24.158	29.4337
24.176	29.743
24.194	30.0429
24.212	30.3157
24.23	30.5614
24.248	30.7835
24.266	30.9625
24.284	31.0885
24.302	31.1724
24.32	31.1991
24.338	31.1544
24.356	31.0462
24.374	30.8701
24.392	30.6165
24.41	30.2842
24.428	29.8769
24.446	29.3951
24.464	28.8362
24.482	28.2001
24.5	27.4981
24.518	26.7383
24.536	25.9098
24.554	25.0284
24.572	24.1153
24.59	23.1606
24.608	22.1698
24.626	21.1705
24.644	20.1727
24.662	19.1613
24.68	18.1628
24.698	17.2015
24.716	16.2604
24.734	15.352
24.752	14.5006
24.77	13.7075
24.788	12.9659
24.806	12.2908
24.824	11.6936
24.842	11.1661
24.86	10.7113
24.878	10.3339
24.896	10.0371
24.914	9.815754
24.932	9.663177
24.95	9.578279
24.968	9.566751
24.986	9.613440
25.004	9.703041
25.022	9.846580
25.04	10.0363
25.058	10.2515
25.076	10.4847
25.094	10.7485
25.112	11.0231
25.13	11.2888
25.148	11.5555
25.166	11.8195
25.184	12.0657
25.202	12.2866
25.22	12.4907
25.238	12.6718
25.256	12.8228
25.274	12.9432
25.292	13.0364
25.31	13.1048
25.328	13.1485
25.346	13.1643
25.364	13.16
25.382	13.1439
25.4	13.1098
25.418	13.06
25.436	13.0104
25.454	12.9721
25.472	12.9318
25.49	12.9016
25.508	12.8987
25.526	12.9249
25.544	12.972
25.562	13.0552
25.58	13.189
25.598	13.3665
25.616	13.5882
25.634	13.8621
25.652	14.1942
25.67	14.5811
25.688	15.0201
25.706	15.5092
25.724	16.0531
25.742	16.6507
25.76	17.288
25.778	17.9528
25.796	18.66
25.814	19.3988
25.832	20.1453
25.85	20.8864
25.868	21.6438
25.886	22.3949
25.904	23.1109
25.922	23.7895
25.94	24.4466
25.958	25.0542
25.976	25.5836
25.994	26.0455
26.012	26.4428
26.03	26.7549
26.048	26.9635
26.066	27.0783
26.084	27.1002
26.102	27.0242
26.12	26.8444
26.138	26.5598
26.156	26.1808
26.174	25.7189
26.192	25.1727
26.21	24.5327
26.228	23.8227
26.246	23.0674
26.264	22.2594
26.282	21.3907
26.3	20.4934
26.318	19.5989
26.336	18.6876
26.354	17.7612
26.372	16.8546
26.39	15.9996
26.408	15.1742
26.426	14.3831
26.444	13.6505
26.462	12.9968
26.48	12.4063
26.498	11.8823
26.516	11.4367
26.534	11.0804
26.552	10.811
26.57	10.6202
26.588	10.5001
26.606	10.4497
26.624	10.4839
26.642	10.5803
26.66	10.7119
26.678	10.8676
26.696	11.0744
26.714	11.3043
26.732	11.524
26.75	11.7211
26.768	11.927
26.786	12.11
26.804	12.2335
26.822	12.2783
26.84	12.2705
26.858	12.1997
26.876	12.0519
26.894	11.8146
26.912	11.4914
26.93	11.0979
26.948	10.6496
26.966	10.1206
26.984	9.448091
27.002	8.767902
27.02	8.228793
27.028	8.088564