File: Bakgrunnsmateriale/MATLAB/FTIR/ftir_data/LPE453/Mapping_121/LPE453_t03_cm-1.asc
PE IR       SPECTRUM    SPECTRUM    ASCII       PEDS        1.60
  -1
LP57D0~1.ASC
17/05/16
14:37:15.00
17/05/16
14:37:15.00
tln
$LPE453_t0003$<tbV0>[7.8,-13.0,8.0,0.0,27,1,0]
370
64

2002,4.07
MIRTGS : RIGHTBACK : INTERNAL 2
MIR : ON : INTERNAL 2
OPTKBR

0.200000
8
8.000000
FILLER
RATIO
SPECTRUM
UNLOCKED 256

DOUBLE
64
COMBINED
1
0
0

1.000000
RATIO

1
0
TRUE
51149
0
LEFT NOT FITTED RIGHT NOT FITTED 0
NONE
NONE
15600
12
4.427000
51148
TRUE
1 0 8 72 0 0 0 0

15798

#HDR
-1
-1
#GR
CM-1
%T
2.38419e-05
0.0
5000
-1.000000
4631
8
34.7463
-4.759025
#DATA
5000	0.348305
4996	0.628757
4992	0.709342
4988	0.472736
4984	0.305342
4980	0.342941
4976	0.395226
4972	0.114846
4968	-0.111317
4964	0.256991
4960	0.551533
4956	0.342822
4952	0.090122
4948	0.072455
4944	0.069308
4940	0.098943
4936	0.112438
4932	-0.046420
4928	-0.038909
4924	0.130224
4920	0.230836
4916	0.232434
4912	0.044178
4908	-0.150251
4904	-0.214838
4900	-0.279211
4896	-0.314044
4892	-0.263261
4888	0.092649
4884	0.498461
4880	0.271224
4876	-0.168776
4872	-0.393819
4868	-0.378298
4864	0.054979
4860	0.429391
4856	0.558090
4852	0.700449
4848	0.762033
4844	0.705933
4840	0.642061
4836	0.465536
4832	0.145649
4828	-0.027489
4824	-0.018167
4820	0.064420
4816	0.281333
4812	0.550293
4808	0.754785
4804	0.785613
4800	0.677633
4796	0.549292
4792	0.336766
4788	0.096416
4784	0.038552
4780	0.158786
4776	0.111508
4772	-0.148510
4768	-0.213074
4764	0.018191
4760	0.347876
4756	0.585484
4752	0.567650
4748	0.223159
4744	-0.195264
4740	-0.097131
4736	0.271415
4732	0.299119
4728	-0.241994
4724	-0.661253
4720	-0.411105
4716	0.200176
4712	0.219821
4708	-0.270652
4704	-0.159692
4700	-0.155591
4696	-0.547695
4692	-0.611329
4688	-0.344514
4684	-0.233530
4680	0.161075
4676	1.136994
4672	1.003956
4668	-0.303721
4664	-1.127910
4660	-0.961637
4656	0.110363
4652	1.236510
4648	1.367568
4644	1.021695
4640	0.806307
4636	0.441861
4632	0.404334
4628	0.582742
4624	-0.388741
4620	-1.429867
4616	-0.485634
4612	1.619625
4608	2.350687
4604	1.311159
4600	0.017833
4596	-0.952982
4592	-1.111412
4588	-0.461792
4584	-0.137519
4580	-0.537824
4576	-0.599169
4572	-0.024771
4568	-0.165653
4564	-0.735783
4560	-0.978493
4556	-1.213335
4552	-1.341938
4548	-1.266813
4544	-1.290631
4540	-1.165509
4536	-0.872683
4532	-1.249098
4528	-1.674962
4524	-1.094555
4520	-0.593185
4516	-0.786495
4512	-0.897955
4508	-0.438404
4504	0.782179
4500	-1.126313
4496	2.289915
4492	21.2182
4488	32.1627
4484	19.7688
4480	3.641009
4476	-2.009439
4472	-1.030182
4468	0.226664
4464	0.192880
4460	-0.034666
4456	-0.169634
4452	-0.622320
4448	-1.023149
4444	-0.866246
4440	-0.521564
4436	-0.520849
4432	-0.542664
4428	-0.287342
4424	-0.035548
4420	0.122737
4416	0.301337
4412	0.215196
4408	-0.086212
4404	-0.111913
4400	0.218486
4396	0.304031
4392	0.270915
4388	0.669479
4384	0.944614
4380	0.835561
4376	0.835347
4372	0.926828
4368	0.884032
4364	0.646710
4360	0.416064
4356	0.502896
4352	0.693941
4348	0.616240
4344	0.481152
4340	0.579166
4336	0.631237
4332	0.288057
4328	-0.059723
4324	-0.043511
4320	0.105237
4316	0.125217
4312	0.148773
4308	0.282931
4304	0.319099
4300	0.196647
4296	0.079846
4292	0.186681
4288	0.308394
4284	0.097680
4280	-0.132870
4276	0.055360
4272	0.421476
4268	0.374078
4264	0.076436
4260	-0.008273
4256	-0.045824
4252	-0.073552
4248	0.057363
4244	0.038647
4240	-0.086545
4236	0.074076
4232	0.253868
4228	0.238394
4224	0.252032
4220	0.279593
4216	0.219964
4212	0.208067
4208	0.267934
4204	0.297808
4200	0.213766
4196	-0.019621
4192	-0.099945
4188	0.072860
4184	0.189423
4180	0.133156
4176	0.159978
4172	0.186824
4168	0.156116
4164	0.246453
4160	0.356912
4156	0.266075
4152	0.120425
4148	0.204348
4144	0.321054
4140	0.284695
4136	0.149083
4132	0.027990
4128	0.111007
4124	0.182747
4120	0.124502
4116	0.153851
4112	0.153946
4108	0.048160
4104	0.035262
4100	0.088262
4096	0.061702
4092	0.051665
4088	0.062942
4084	0.013113
4080	0.038504
4076	0.171470
4072	0.213956
4068	0.121426
4064	0.068449
4060	0.093865
4056	0.094199
4052	0.086903
4048	0.038576
4044	-0.040674
4040	-0.048875
4036	-0.085544
4032	-0.050973
4028	0.061750
4024	0.042343
4020	-0.037407
4016	0.011324
4012	0.111174
4008	0.091695
4004	0.104713
4000	0.161004
3996	0.083971
3992	0.124359
3988	0.292372
3984	0.320506
3980	0.262880
3976	0.198888
3972	0.146603
3968	0.111818
3964	0.063323
3960	-0.002384
3956	-0.014400
3952	0.086951
3948	0.210285
3944	0.294089
3940	0.306034
3936	0.254940
3932	0.238847
3928	0.252604
3924	0.287747
3920	0.284576
3916	0.221204
3912	0.157070
3908	0.101232
3904	0.158476
3900	0.254464
3896	0.199604
3892	0.091338
3888	0.094580
3884	0.201964
3880	0.311851
3876	0.330924
3872	0.230908
3868	0.047087
3864	-0.033402
3860	0.107049
3856	0.221729
3852	0.182318
3848	0.119662
3844	0.131082
3840	0.199532
3836	0.186014
3832	0.178313
3828	0.202012
3824	0.100946
3820	0.087451
3816	0.247120
3812	0.288701
3808	0.175213
3804	0.077557
3800	0.098180
3796	0.174236
3792	0.125432
3788	0.033664
3784	0.103425
3780	0.184249
3776	0.070476
3772	-0.044083
3768	0.012993
3764	0.047707
3760	-0.015950
3756	0.012445
3752	0.135493
3748	0.149512
3744	0.067496
3740	0.050640
3736	0.119018
3732	0.176286
3728	0.119662
3724	0.049495
3720	0.075507
3716	0.093889
3712	0.112390
3708	0.129866
3704	0.029921
3700	-0.032830
3696	0.065207
3692	0.105547
3688	0.000572
3684	-0.100016
3680	-0.149989
3676	-0.155615
3672	-0.136899
3668	-0.103759
3664	-0.035905
3660	-0.023961
3656	-0.029253
3652	0.033235
3648	0.060844
3644	0.045180
3640	0.017213
3636	-0.028181
3632	-0.021958
3628	0.033569
3624	0.076723
3620	0.073266
3616	0.046515
3612	0.044488
3608	0.021243
3604	0.010704
3600	0.102829
3596	0.209426
3592	0.259041
3588	0.325012
3584	0.331664
3580	0.207114
3576	0.117707
3572	0.079321
3568	-0.040626
3564	-0.011897
3560	0.219798
3556	0.262832
3552	0.153112
3548	0.119543
3544	0.097870
3540	0.018429
3536	-0.062394
3532	0.009965
3528	0.200200
3524	0.255370
3520	0.124430
3516	0.001859
3512	0.010895
3508	0.078320
3504	0.085830
3500	0.053811
3496	0.088572
3492	0.151753
3488	0.152683
3484	0.096487
3480	-0.026726
3476	-0.151085
3472	-0.102424
3468	0.065398
3464	0.079274
3460	-0.019860
3456	-0.003290
3452	0.042867
3448	0.040197
3444	0.025153
3440	-0.003361
3436	0.073742
3432	0.150251
3428	0.081920
3424	0.006532
3420	-0.013852
3416	0.004673
3412	0.027227
3408	0.062370
3404	0.189781
3400	0.294446
3396	0.199484
3392	0.001716
3388	-0.095200
3384	-0.051856
3380	0.073099
3376	0.176453
3372	0.223827
3368	0.262975
3364	0.186133
3360	-0.003886
3356	-0.078797
3352	0.001382
3348	0.130128
3344	0.196456
3340	0.153756
3336	0.106954
3332	0.112509
3328	0.170350
3324	0.249528
3320	0.218892
3316	0.114059
3312	0.125789
3308	0.197696
3304	0.219583
3300	0.240659
3296	0.256705
3292	0.225543
3288	0.157070
3284	0.093245
3280	0.017738
3276	-0.026655
3272	-0.004267
3268	0.017452
3264	0.070261
3260	0.140905
3256	0.169515
3252	0.146412
3248	0.116610
3244	0.187659
3240	0.239229
3236	0.153565
3232	0.118851
3228	0.114965
3224	-0.013852
3220	-0.093197
3216	-0.034952
3212	0.026917
3208	0.063347
3204	0.082206
3200	0.082230
3196	0.132822
3192	0.197863
3188	0.136518
3184	0.013613
3180	-0.031566
3176	-0.025701
3172	-0.036907
3168	-0.004363
3164	0.123333
3160	0.141835
3156	0.036787
3152	0.043153
3148	0.104165
3144	0.190138
3140	0.264930
3136	0.124359
3132	-0.107693
3128	-0.114107
3124	0.013780
3120	0.110173
3116	0.163292
3112	0.072431
3108	0.008273
3104	0.058364
3100	0.108909
3096	0.094723
3092	0.013613
3088	0.069212
3084	0.197601
3080	0.244879
3076	0.215625
3072	0.131607
3068	0.096273
3064	0.093603
3060	0.041317
3056	-0.009489
3052	0.008726
3048	0.022864
3044	0.015783
3040	0.035047
3036	0.033044
3032	0.028634
3028	0.004220
3024	-0.081348
3020	-0.066518
3016	0.035023
3012	0.052332
3008	0.053763
3004	0.071620
3000	0.050592
2996	0.050544
2992	0.098967
2988	0.117802
2984	0.055146
2980	-0.004601
2976	0.000286
2972	0.015282
2968	0.022959
2964	0.009465
2960	-0.021243
2956	-0.044322
2952	-0.056266
2948	-0.072264
2944	-0.103068
2940	-0.090837
2936	-0.040173
2932	0.000834
2928	0.023674
2924	0.012612
2920	-0.035119
2916	-0.047779
2912	0.016903
2908	0.050330
2904	0.048971
2900	0.072360
2896	0.103640
2892	0.158357
2888	0.195932
2884	0.165939
2880	0.107479
2876	0.051307
2872	0.057482
2868	0.093913
2864	0.060200
2860	0.061368
2856	0.106239
2852	0.028371
2848	-0.055885
2844	-0.000762
2840	0.078415
2836	0.090789
2832	0.052189
2828	0.039052
2824	0.061941
2820	0.049948
2816	0.041198
2812	0.063085
2808	0.043106
2804	-0.002431
2800	0.008153
2796	0.038862
2792	0.033354
2788	0.068211
2784	0.101304
2780	0.053977
2776	0.026774
2772	0.018239
2768	0.002312
2764	-0.043845
2760	-0.081968
2756	-0.042772
2752	-0.051236
2748	-0.090217
2744	-0.022125
2740	0.073313
2736	0.085854
2732	0.039505
2728	0.019216
2724	0.034332
2720	0.057935
2716	0.096487
2712	0.097775
2708	0.082302
2704	0.080108
2700	0.052452
2696	0.037860
2692	0.101923
2688	0.142908
2684	0.083446
2680	0.024771
2676	0.046992
2672	0.127506
2668	0.192999
2664	0.144982
2660	0.032091
2656	-0.027847
2652	-0.016951
2648	0.014138
2644	0.026464
2640	0.045347
2636	0.033617
2632	0.025582
2628	0.080227
2624	0.113368
2620	0.087118
2616	0.038313
2612	0.017857
2608	0.039243
2604	0.034260
2600	-0.024580
2596	-0.030922
2592	0.025725
2588	0.068926
2584	0.104928
2580	0.125432
2576	0.118041
2572	0.092387
2568	0.073337
2564	0.096368
2560	0.108337
2556	0.067901
2552	0.025796
2548	-0.015997
2544	-0.017070
2540	0.049090
2536	0.064539
2532	0.033307
2528	0.039458
2524	0.093460
2520	0.150513
2516	0.130963
2512	0.052571
2508	0.038433
2504	0.141882
2500	0.160622
2496	0.050640
2492	0.047278
2488	0.112175
2484	0.058865
2480	-0.019502
2476	0.011038
2472	0.045561
2468	0.004267
2464	-0.040864
2460	-0.017762
2456	0.000238
2452	-0.047492
2448	-0.047588
2444	0.027275
2440	0.046610
2436	-0.044560
2432	-0.096106
2428	-0.027203
2424	0.018215
2420	-0.045204
2416	-0.145578
2412	-0.143957
2408	-0.059032
2404	-0.021266
2400	-0.011301
2396	0.023078
2392	0.034737
2388	0.018572
2384	0.007104
2380	0.008940
2376	0.032567
2372	0.033879
2368	0.015687
2364	0.023269
2360	0.051426
2356	0.061941
2352	0.068259
2348	0.123715
2344	0.172638
2340	0.188088
2336	0.203704
2332	0.205016
2328	0.209259
2324	0.232219
2320	0.236344
2316	0.231122
2312	0.253987
2308	0.264644
2304	0.255799
2300	0.302100
2296	0.382423
2292	0.418210
2288	0.408864
2284	0.419831
2280	0.467610
2276	0.553965
2272	0.660300
2268	0.695586
2264	0.723767
2260	0.835728
2256	0.964164
2252	1.064419
2248	1.139307
2244	1.196026
2240	1.305866
2236	1.512384
2232	1.708102
2228	1.835227
2224	1.958799
2220	2.109360
2216	2.308082
2212	2.554821
2208	2.783846
2204	2.988100
2200	3.233528
2196	3.505825
2192	3.738737
2188	3.955960
2184	4.214596
2180	4.544854
2176	4.923892
2172	5.290722
2168	5.647611
2164	6.024289
2160	6.432533
2156	6.869339
2152	7.324743
2148	7.704186
2144	7.991433
2140	8.419656
2136	8.986401
2132	9.445834
2128	9.864139
2124	10.3409
2120	10.7548
2116	11.1528
2112	11.6242
2108	12.1472
2104	12.7235
2100	13.2972
2096	13.8261
2092	14.3774
2088	14.9248
2084	15.3258
2080	15.7227
2076	16.2135
2072	16.5548
2068	16.8721
2064	17.4003
2060	17.9767
2056	18.4659
2052	18.8951
2048	19.373
2044	19.8878
2040	20.3102
2036	20.7192
2032	21.173
2028	21.6304
2024	22.1249
2020	22.6099
2016	22.9849
2012	23.3032
2008	23.6621
2004	24.0312
2000	24.3894
1996	24.7456
1992	25.0324
1988	25.2977
1984	25.6459
1980	25.9919
1976	26.3054
1972	26.6573
1968	27.0476
1964	27.4053
1960	27.6653
1956	27.8942
1952	28.1257
1948	28.3412
1944	28.6009
1940	28.8675
1936	29.0536
1932	29.2358
1928	29.5016
1924	29.7709
1920	29.9686
1916	30.1627
1912	30.3814
1908	30.5592
1904	30.6697
1900	30.7692
1896	30.9535
1892	31.1718
1888	31.2975
1884	31.3887
1880	31.5665
1876	31.8078
1872	32.0257
1868	32.1815
1864	32.2749
1860	32.3063
1856	32.3044
1852	32.3836
1848	32.569
1844	32.7162
1840	32.773
1836	32.8189
1832	32.921
1828	33.0624
1824	33.1742
1820	33.2631
1816	33.3576
1812	33.4249
1808	33.4672
1804	33.5209
1800	33.5668
1796	33.6097
1792	33.6584
1788	33.6683
1784	33.6571
1780	33.6957
1776	33.8018
1772	33.873
1768	33.9043
1764	33.9977
1760	34.0493
1756	34.032
1752	34.0451
1748	34.0545
1744	34.0167
1740	33.9842
1736	33.9997
1732	34.0069
1728	34.0588
1724	34.2181
1720	34.3473
1716	34.3249
1712	34.3032
1708	34.4215
1704	34.5613
1700	34.609
1696	34.4632
1692	34.2322
1688	34.2445
1684	34.3655
1680	34.3188
1676	34.237
1672	34.2259
1668	34.2925
1664	34.3994
1660	34.4987
1656	34.6498
1652	34.7463
1648	34.6682
1644	34.5165
1640	34.4286
1636	34.3752
1632	34.2825
1628	34.2531
1624	34.3112
1620	34.4389
1616	34.5642
1612	34.5646
1608	34.5102
1604	34.4562
1600	34.4244
1596	34.4012
1592	34.3251
1588	34.2435
1584	34.1817
1580	34.1803
1576	34.2882
1572	34.3611
1568	34.3376
1564	34.3912
1560	34.5608
1556	34.588
1552	34.4235
1548	34.3473
1544	34.4171
1540	34.4415
1536	34.3461
1532	34.1903
1528	34.0982
1524	34.1171
1520	34.1217
1516	34.0983
1512	34.167
1508	34.2942
1504	34.352
1500	34.3618
1496	34.3414
1492	34.2622
1488	34.1592
1484	34.0329
1480	33.9449
1476	33.9216
1472	33.9143
1468	33.8379
1464	33.6939
1460	33.7164
1456	33.8485
1452	33.884
1448	33.9209
1444	33.9868
1440	34.0295
1436	33.9624
1432	33.7946
1428	33.6916
1424	33.6409
1420	33.5709
1416	33.506
1412	33.4515
1408	33.4589
1404	33.5608
1400	33.6879
1396	33.813
1392	33.9028
1388	33.8962
1384	33.8347
1380	33.7816
1376	33.7087
1372	33.6353
1368	33.5066
1364	33.294
1360	33.2018
1356	33.2669
1352	33.3866
1348	33.5251
1344	33.6107
1340	33.6417
1336	33.6547
1332	33.6716
1328	33.6935
1324	33.6016
1320	33.374
1316	33.1595
1312	33.0653
1308	33.0491
1304	33.0184
1300	33.027
1296	33.154
1292	33.3274
1288	33.4353
1284	33.4672
1280	33.4433
1276	33.3618
1272	33.2166
1268	33.0608
1264	32.94
1260	32.8068
1256	32.7204
1252	32.7519
1248	32.8486
1244	32.9397
1240	33.0512
1236	33.1985
1232	33.2494
1228	33.1979
1224	33.1549
1220	33.0825
1216	32.9392
1212	32.8276
1208	32.7425
1204	32.623
1200	32.5611
1196	32.5163
1192	32.4287
1188	32.4816
1184	32.726
1180	32.9349
1176	32.9834
1172	32.9631
1168	32.8792
1164	32.7213
1160	32.5967
1156	32.4617
1152	32.3211
1148	32.2763
1144	32.2729
1140	32.2986
1136	32.342
1132	32.379
1128	32.4802
1124	32.6447
1120	32.7655
1116	32.7387
1112	32.5425
1108	32.3222
1104	32.1486
1100	31.9465
1096	31.7681
1092	31.7442
1088	31.8944
1084	32.0775
1080	32.2401
1076	32.4147
1072	32.5061
1068	32.495
1064	32.4229
1060	32.3061
1056	32.2074
1052	32.0692
1048	31.859
1044	31.6828
1040	31.6381
1036	31.6728
1032	31.606
1028	31.5621
1024	31.7855
1020	32.0385
1016	31.9839
1012	31.8356
1008	31.8581
1004	31.8759
1000	31.8013
996	 31.7179
992	 31.5324
988	 31.2762
984	 31.0634
980	 30.9403
976	 30.9807
972	 31.1272
968	 31.3214
964	 31.5589
960	 31.693
956	 31.6434
952	 31.5346
948	 31.4118
944	 31.2451
940	 31.0614
936	 30.8995
932	 30.7302
928	 30.5701
924	 30.5483
920	 30.5904
916	 30.6326
912	 30.7622
908	 30.9009
904	 31.009
900	 31.1203
896	 31.086
892	 30.8648
888	 30.6996
884	 30.5566
880	 30.249
876	 29.954
872	 29.7705
868	 29.7112
864	 29.8877
860	 30.107
856	 30.1739
852	 30.2611
848	 30.3833
844	 30.3207
840	 30.1007
836	 29.9017
832	 29.7336
828	 29.5013
824	 29.2623
820	 29.1467
816	 29.2068
812	 29.4006
808	 29.4662
804	 29.3905
800	 29.4163
796	 29.504
792	 29.6209
788	 29.6846
784	 29.5322
780	 29.3847
776	 29.2423
772	 28.8588
768	 28.5207
764	 28.4297
760	 28.5275
756	 28.687
752	 28.6859
748	 28.7378
744	 28.9131
740	 28.8885
736	 28.6959
732	 28.4976
728	 28.1998
724	 27.9532
720	 27.9698
716	 27.9192
712	 27.6273
708	 27.3499
704	 27.2619
700	 27.339
696	 27.4057
692	 27.4701
688	 27.6292
684	 27.6995
680	 27.665
676	 27.6447
672	 27.5058
668	 27.306
664	 27.2585
660	 27.0416
656	 26.5875
652	 26.4737
648	 26.6831
644	 26.7108
640	 26.6446
636	 26.8618
632	 27.0036
628	 26.812
624	 26.7644
620	 26.8845
616	 26.8414
612	 26.5212
608	 25.9541
604	 25.5728
600	 25.5144
596	 25.466
592	 25.4157
588	 25.4004
584	 25.5177
580	 25.7258
576	 25.6671
572	 25.4997
568	 25.5564
564	 25.4572
560	 24.9113
556	 24.429
552	 24.3621
548	 24.1187
544	 23.5823
540	 23.685
536	 24.2594
532	 24.4463
528	 24.4961
524	 24.5527
520	 24.2934
516	 23.9016
512	 23.7558
508	 23.7669
504	 23.579
500	 23.2329
496	 22.7949
492	 22.4411
488	 22.6568
484	 23.1474
480	 23.3675
476	 23.2823
472	 23.1483
468	 23.3687
464	 23.6675
460	 23.7737
456	 23.7413
452	 23.3094
448	 22.7795
444	 21.8013
440	 20.0947
436	 19.0766
432	 19.0237
428	 19.4117
424	 21.3571
420	 23.2189
416	 22.6156
412	 24.0159
408	 25.4356
404	 21.6568
400	 19.6162
396	 21.934
392	 21.2915
388	 16.5616
384	 8.933472
380	 -2.067041
376	 -2.194833
372	 16.4947
370	 25.8569