File: Bakgrunnsmateriale/MATLAB/FTIR/ftir_data/LPE453/Mapping_121/LPE453_t35.asc
PE IR       SPECTRUM    SPECTRUM    ASCII       PEDS        1.60
  -1
LPDF9D~1.ASC
17/05/16
17:13:13.00
17/05/16
17:13:39.00
tln
$LPE453_t0035$<tbV0>[10.4,-5.2,8.0,0.0,27,1,0]
27.028
64

2002,4.07
MIRTGS : RIGHTBACK : INTERNAL 2
MIR : ON : INTERNAL 2
OPTKBR

0.200000
8
8.000000
FILLER
RATIO
SPECTRUM
UNLOCKED 256

DOUBLE
64
COMBINED
1
0
0

0.002000
RATIO

1
0
TRUE
51149
0
LEFT NOT FITTED RIGHT NOT FITTED 0
NONE
NONE
15600
12
4.427000
51148
TRUE
1 0 8 72 0 0 0 0

15798

#HDR
-1
-1
#GR
µM
%T
2.38419e-05
0.0
2.000000
0.002000
12515
8
24.7167
-14.6198
#DATA
2.000000	 -0.109601
2.018000	 0.110416
2.036000	 0.153185
2.054000	 0.334566
2.072000	 0.309602
2.090000	 0.069222
2.108000	 0.320817
2.126000	 0.076777
2.144000	 0.278655
2.162000	 1.001099
2.180000	 0.075648
2.198000	 -0.069820
2.216000	 18.027
2.234000	 0.055662
2.252000	 0.502187
2.270000	 0.865097
2.288000	 0.404113
2.306000	 0.297757
2.324000	 -0.033513
2.342000	 0.139142
2.360000	 0.129477
2.378000	 0.092630
2.396000	 0.121104
2.414000	 0.288390
2.432000	 0.130678
2.450000	 0.079542
2.468000	 0.239560
2.486000	 0.239437
2.504000	 0.086813
2.522000	 0.030167
2.540000	 -0.050158
2.558000	 0.140781
2.576000	 0.174291
2.594000	 0.046517
2.612000	 0.097678
2.630000	 0.255429
2.648000	 0.151430
2.666000	 0.335475
2.684000	 0.090629
2.702000	 0.012763
2.720000	 0.030481
2.738000	 -0.019509
2.756000	 0.080387
2.774000	 -0.015733
2.792000	 0.091827
2.810000	 0.077989
2.828000	 0.177362
2.846000	 0.121007
2.864000	 -0.116765
2.882000	 -0.156954
2.900000	 -0.052703
2.918000	 0.117594
2.936000	 0.175469
2.954000	 0.010879
2.972000	 -0.029908
2.990000	 0.208673
3.008000	 -0.034919
3.026000	 0.155158
3.044000	 0.093795
3.062000	 0.111029
3.080000	 -0.088607
3.098000	 0.131885
3.116000	 -0.002893
3.134000	 0.045894
3.152000	 -0.034680
3.170000	 -0.048392
3.188000	 0.039175
3.206000	 0.094696
3.224000	 0.214129
3.242000	 0.121604
3.260000	 -0.160977
3.278000	 0.102684
3.296000	 -0.073860
3.314000	 0.142665
3.332000	 0.050972
3.350000	 0.005990
3.368000	 0.026412
3.386000	 0.164207
3.404000	 0.116887
3.422000	 0.061773
3.440000	 0.152468
3.458000	 0.087491
3.476000	 0.111585
3.494000	 0.038091
3.512000	 0.029652
3.530000	 0.072382
3.548000	 -0.014930
3.566000	 0.111875
3.584000	 -0.159596
3.602000	 0.032439
3.620000	 0.082174
3.638000	 -0.022809
3.656000	 0.061328
3.674000	 0.177576
3.692000	 0.135818
3.710000	 -0.117775
3.728000	 0.011987
3.746000	 -0.035607
3.764000	 0.103506
3.782000	 0.078795
3.800000	 -0.028782
3.818000	 0.106447
3.836000	 0.155027
3.854000	 -0.008890
3.872000	 0.088419
3.890000	 0.060086
3.908000	 -0.021453
3.926000	 0.061273
3.944000	 0.086721
3.962000	 0.124253
3.980000	 -0.024240
3.998000	 -0.066311
4.016000	 0.074434
4.034000	 0.036696
4.052000	 0.006195
4.070000	 0.049716
4.088000	 0.065892
4.106000	 0.063743
4.124000	 0.146547
4.141999	 0.126026
4.160000	 -0.134539
4.178000	 -0.038138
4.196000	 -0.075550
4.214000	 -0.020222
4.232000	 -0.099544
4.250000	 0.028667
4.268000	 0.002972
4.286000	 -0.022005
4.304000	 -0.035646
4.322000	 0.013589
4.340000	 -0.011437
4.358000	 -0.005575
4.375999	 0.067067
4.394000	 0.023043
4.412000	 0.090369
4.430000	 0.033609
4.448000	 0.233009
4.466000	 0.290524
4.484000	 0.357010
4.502000	 0.510811
4.520000	 0.653347
4.538000	 0.816826
4.556000	 1.133817
4.574000	 1.254384
4.592000	 1.604304
4.609999	 1.938457
4.628000	 2.315127
4.646000	 2.731665
4.664000	 3.305186
4.682000	 3.916731
4.700000	 4.251916
4.718000	 4.768917
4.736000	 5.513087
4.754000	 6.069228
4.772000	 6.729076
4.790000	 7.549795
4.808000	 8.349153
4.826000	 8.902826
4.843999	 9.828830
4.862000	 10.1625
4.880000	 10.8769
4.898000	 11.5587
4.916000	 12.201
4.934000	 12.8571
4.952000	 13.4838
4.970000	 14.0894
4.988000	 14.7614
5.006000	 15.3686
5.024000	 15.8952
5.042000	 16.2806
5.060000	 16.6727
5.077999	 17.1722
5.096000	 17.6706
5.114000	 18.1589
5.132000	 18.5034
5.150000	 18.8042
5.168000	 19.1815
5.186000	 19.5884
5.204000	 19.8783
5.222000	 20.2365
5.240000	 20.5586
5.258000	 20.7781
5.276000	 21.0308
5.294000	 21.3594
5.312000	 21.6243
5.330000	 21.7483
5.348000	 21.9324
5.366000	 22.2322
5.384000	 22.4023
5.402000	 22.6353
5.420000	 22.6664
5.438000	 22.766
5.456000	 22.9239
5.474000	 23.0691
5.492000	 23.2373
5.510000	 23.3416
5.528000	 23.4482
5.546000	 23.6198
5.564000	 23.6587
5.582000	 23.7066
5.600000	 23.7781
5.618000	 23.8654
5.636000	 23.9621
5.654000	 23.9828
5.672000	 24.0039
5.690000	 24.0244
5.708000	 24.0964
5.726000	 24.1399
5.744000	 24.2753
5.762000	 24.3686
5.780000	 24.3277
5.798000	 24.3507
5.816000	 24.2635
5.834000	 24.2733
5.852000	 24.3875
5.870000	 24.5257
5.888000	 24.5124
5.906000	 24.4713
5.923999	 24.4931
5.942000	 24.4693
5.960000	 24.385
5.978000	 24.3844
5.996000	 24.5394
6.014000	 24.6524
6.032000	 24.5742
6.050000	 24.5609
6.068000	 24.6234
6.086000	 24.5694
6.104000	 24.5679
6.122000	 24.6467
6.140000	 24.6593
6.158000	 24.6305
6.176000	 24.6585
6.194000	 24.6518
6.212000	 24.6825
6.230000	 24.7109
6.248000	 24.6285
6.266000	 24.5685
6.284000	 24.5755
6.302000	 24.6496
6.320000	 24.6315
6.338000	 24.5649
6.356000	 24.6227
6.374000	 24.6986
6.392000	 24.6993
6.410000	 24.6793
6.428000	 24.6129
6.446000	 24.5779
6.464000	 24.6182
6.482000	 24.6416
6.500000	 24.6567
6.518000	 24.6458
6.536000	 24.5542
6.554000	 24.5191
6.572000	 24.5987
6.590000	 24.6754
6.608000	 24.6644
6.626000	 24.612
6.644000	 24.5585
6.662000	 24.483
6.680000	 24.4604
6.698000	 24.5495
6.716000	 24.6427
6.734000	 24.6313
6.752000	 24.5294
6.770000	 24.4412
6.788000	 24.38
6.806000	 24.3312
6.824000	 24.3732
6.842000	 24.4453
6.860000	 24.4243
6.878000	 24.3826
6.896000	 24.4157
6.914000	 24.4631
6.932000	 24.4897
6.950000	 24.5116
6.968000	 24.4467
6.986000	 24.2748
7.004000	 24.1502
7.022000	 24.1631
7.040000	 24.2536
7.058000	 24.3088
7.076000	 24.2558
7.094000	 24.141
7.112000	 24.0858
7.130000	 24.1406
7.148000	 24.2068
7.166000	 24.1944
7.184000	 24.1753
7.202000	 24.211
7.220000	 24.2245
7.238000	 24.1456
7.256000	 24.0038
7.274000	 23.8928
7.292000	 23.8995
7.310000	 23.9979
7.328000	 24.082
7.346000	 24.104
7.364000	 24.0994
7.382000	 24.092
7.400000	 24.0434
7.418000	 23.9592
7.436000	 23.9394
7.454000	 24.02
7.472000	 24.0943
7.490000	 24.0663
7.508000	 23.9618
7.526000	 23.8622
7.544000	 23.8135
7.562000	 23.8207
7.580000	 23.8565
7.598000	 23.8676
7.616000	 23.8394
7.634000	 23.8192
7.652000	 23.8258
7.670000	 23.8332
7.688000	 23.8506
7.706000	 23.8949
7.724000	 23.9182
7.742000	 23.8752
7.760000	 23.7977
7.778000	 23.7407
7.796000	 23.7256
7.814000	 23.7443
7.832000	 23.7598
7.850000	 23.7323
7.868000	 23.6747
7.886000	 23.6333
7.904000	 23.6241
7.922000	 23.6371
7.940000	 23.666
7.958000	 23.6905
7.976000	 23.6747
7.994000	 23.6202
8.012000	 23.5765
8.030000	 23.577
8.048000	 23.602
8.065999	 23.6222
8.084000	 23.6352
8.102000	 23.6379
8.120000	 23.6211
8.138000	 23.5985
8.155999	 23.5906
8.173999	 23.5807
8.192000	 23.5386
8.210000	 23.4749
8.228000	 23.4295
8.246000	 23.4222
8.263999	 23.4414
8.282000	 23.456
8.300000	 23.4349
8.318000	 23.3803
8.336000	 23.3352
8.353999	 23.3325
8.372000	 23.3497
8.390000	 23.3432
8.408000	 23.3082
8.426000	 23.274
8.443999	 23.2539
8.462000	 23.2357
8.480000	 23.2156
8.498000	 23.2057
8.516000	 23.2047
8.533999	 23.1883
8.552000	 23.1432
8.570000	 23.091
8.588000	 23.0657
8.606000	 23.0771
8.624000	 23.1077
8.641999	 23.1381
8.660000	 23.157
8.678000	 23.1562
8.696000	 23.1316
8.714000	 23.0906
8.731999	 23.0445
8.750000	 22.9962
8.768000	 22.9434
8.786000	 22.8936
8.804000	 22.8656
8.821999	 22.8701
8.840000	 22.8955
8.858000	 22.9206
8.876000	 22.935
8.894000	 22.9422
8.911999	 22.9462
8.930000	 22.9428
8.948000	 22.9285
8.966000	 22.9071
8.984000	 22.8839
9.001999	 22.8584
9.020000	 22.831
9.038000	 22.8077
9.056000	 22.7889
9.074000	 22.7602
9.092000	 22.7071
9.109999	 22.64
9.128000	 22.5951
9.146000	 22.6022
9.164000	 22.6511
9.182000	 22.6983
9.199999	 22.7077
9.218000	 22.6802
9.236000	 22.6447
9.254000	 22.6241
9.272000	 22.6144
9.289999	 22.5949
9.308000	 22.5533
9.326000	 22.4968
9.344000	 22.4441
9.362000	 22.4112
9.379999	 22.4072
9.398000	 22.4316
9.416000	 22.4728
9.434000	 22.5091
9.452000	 22.5213
9.469999	 22.5074
9.488000	 22.4856
9.506000	 22.4779
9.524000	 22.4915
9.542000	 22.5132
9.560000	 22.5209
9.577999	 22.4971
9.596000	 22.4349
9.614000	 22.3395
9.632000	 22.2291
9.650000	 22.1315
9.667999	 22.074
9.686000	 22.0704
9.704000	 22.1122
9.722000	 22.1752
9.740000	 22.2324
9.757999	 22.2643
9.776000	 22.2619
9.794000	 22.2255
9.812000	 22.1642
9.830000	 22.0931
9.847999	 22.0284
9.866000	 21.9804
9.884000	 21.9508
9.902000	 21.9345
9.920000	 21.9248
9.937999	 21.9186
9.956000	 21.9151
9.974000	 21.9137
9.992000	 21.9095
10.01	21.8936
10.028	21.8579
10.046	21.8
10.064	21.7278
10.082	21.6575
10.1	21.6087
10.118	21.5963
10.136	21.6224
10.154	21.6762
10.172	21.737
10.19	21.782
10.208	21.7957
10.226	21.7726
10.244	21.7167
10.262	21.6391
10.28	21.553
10.298	21.4738
10.316	21.4169
10.334	21.3908
10.352	21.3927
10.37	21.407
10.388	21.4131
10.406	21.3986
10.424	21.3671
10.442	21.3388
10.46	21.3382
10.478	21.3802
10.496	21.4572
10.514	21.5425
10.532	21.5985
10.55	21.5974
10.568	21.5302
10.586	21.4121
10.604	21.2717
10.622	21.1416
10.64	21.0444
10.658	20.9894
10.676	20.9748
10.694	20.9939
10.712	21.0365
10.73	21.0906
10.748	21.1405
10.766	21.1707
10.784	21.1703
10.802	21.1367
10.82	21.0755
10.838	20.9989
10.856	20.9189
10.874	20.8447
10.892	20.7816
10.91	20.7321
10.928	20.6971
10.946	20.6747
10.964	20.6612
10.982	20.6514
11	20.6411
11.018	20.6288
11.036	20.6146
11.054	20.5982
11.072	20.5763
11.09	20.5456
11.108	20.5047
11.126	20.4579
11.144	20.4139
11.162	20.3834
11.18	20.3727
11.198	20.3802
11.216	20.3972
11.234	20.4122
11.252	20.4175
11.27	20.4126
11.288	20.4042
11.306	20.4005
11.324	20.4052
11.342	20.4134
11.36	20.4132
11.378	20.39
11.396	20.3345
11.414	20.2472
11.432	20.1391
11.45	20.0274
11.468	19.9302
11.486	19.8591
11.504	19.8167
11.522	19.7981
11.54	19.7937
11.558	19.7931
11.576	19.7885
11.594	19.7762
11.612	19.7551
11.63	19.7272
11.648	19.6966
11.666	19.6684
11.684	19.648
11.702	19.6393
11.72	19.6439
11.738	19.6594
11.756	19.6807
11.774	19.7007
11.792	19.7129
11.81	19.7143
11.828	19.7057
11.846	19.6911
11.864	19.6756
11.882	19.6627
11.9	19.6518
11.918	19.6384
11.936	19.6167
11.954	19.5817
11.972	19.5323
11.99	19.4723
12.008	19.4097
12.026	19.3535
12.044	19.311
12.062	19.2841
12.08	19.2688
12.098	19.2577
12.116	19.2428
12.134	19.2194
12.152	19.1878
12.17	19.1525
12.188	19.1203
12.206	19.0972
12.224	19.0865
12.242	19.0878
12.26	19.0981
12.278	19.1118
12.296	19.1224
12.314	19.1234
12.332	19.1107
12.35	19.0838
12.368	19.0464
12.386	19.0055
12.404	18.9706
12.422	18.95
12.44	18.9487
12.458	18.9663
12.476	18.9971
12.494	19.0317
12.512	19.0592
12.53	19.071
12.548	19.0632
12.566	19.0372
12.584	18.9998
12.602	18.9602
12.62	18.9279
12.638	18.9099
12.656	18.9089
12.674	18.9231
12.692	18.9472
12.71	18.9737
12.728	18.9944
12.746	19.0021
12.764	18.9921
12.782	18.963
12.8	18.9163
12.818	18.8566
12.836	18.7901
12.854	18.7237
12.872	18.6639
12.89	18.6151
12.908	18.5789
12.926	18.554
12.944	18.5369
12.962	18.5231
12.98	18.508
12.998	18.4885
13.016	18.4638
13.034	18.4352
13.052	18.4055
13.07	18.3781
13.088	18.3553
13.106	18.3388
13.124	18.328
13.142	18.3212
13.16	18.316
13.178	18.3097
13.196	18.3005
13.214	18.287
13.232	18.2694
13.25	18.2481
13.268	18.2242
13.286	18.1991
13.304	18.1746
13.322	18.1527
13.34	18.1351
13.358	18.1234
13.376	18.1182
13.394	18.1195
13.412	18.1263
13.43	18.1365
13.448	18.1476
13.466	18.157
13.484	18.1627
13.502	18.163
13.52	18.1575
13.538	18.1462
13.556	18.1298
13.574	18.1094
13.592	18.0859
13.61	18.0604
13.628	18.033
13.646	18.0041
13.664	17.9737
13.682	17.9418
13.7	17.9085
13.718	17.8736
13.736	17.8372
13.754	17.7991
13.772	17.7591
13.79	17.717
13.808	17.6727
13.826	17.6265
13.844	17.5793
13.862	17.5325
13.88	17.4883
13.898	17.4486
13.916	17.4156
13.934	17.3907
13.952	17.3747
13.97	17.3667
13.988	17.3647
14.006	17.3656
14.024	17.3656
14.042	17.3606
14.06	17.3474
14.078	17.3235
14.096	17.2884
14.114	17.2427
14.132	17.1889
14.15	17.1306
14.168	17.0724
14.186	17.0193
14.204	16.976
14.222	16.946
14.24	16.9315
14.258	16.9326
14.276	16.9479
14.294	16.9746
14.312	17.0088
14.33	17.046
14.348	17.0817
14.366	17.1121
14.384	17.1339
14.402	17.1448
14.42	17.1437
14.438	17.1303
14.456	17.1053
14.474	17.0704
14.492	17.0278
14.51	16.9807
14.528	16.9328
14.546	16.8874
14.564	16.8477
14.582	16.8162
14.6	16.7942
14.618	16.7821
14.636	16.7781
14.654	16.7793
14.672	16.7818
14.69	16.7816
14.708	16.7749
14.726	16.7586
14.744	16.7311
14.762	16.693
14.78	16.6464
14.798	16.5946
14.816	16.5419
14.834	16.4929
14.852	16.4521
14.87	16.4224
14.888	16.4052
14.906	16.4003
14.924	16.4065
14.942	16.4207
14.96	16.4392
14.978	16.4581
14.996	16.4742
15.014	16.484
15.032	16.485
15.05	16.4756
15.068	16.4556
15.086	16.4249
15.104	16.3842
15.122	16.3349
15.14	16.2792
15.158	16.2195
15.176	16.1585
15.194	16.0996
15.212	16.0461
15.23	16.001
15.248	15.9666
15.266	15.9447
15.284	15.9358
15.302	15.9391
15.32	15.9524
15.338	15.9729
15.356	15.9968
15.374	16.0193
15.392	16.0371
15.41	16.047
15.428	16.0468
15.446	16.0361
15.464	16.0159
15.482	15.988
15.5	15.9555
15.518	15.9223
15.536	15.8917
15.554	15.8664
15.572	15.8487
15.59	15.8397
15.608	15.8387
15.626	15.8448
15.644	15.8557
15.662	15.8682
15.68	15.8797
15.698	15.8876
15.716	15.889
15.734	15.8821
15.752	15.8658
15.77	15.8393
15.788	15.8025
15.806	15.756
15.824	15.7005
15.842	15.6372
15.86	15.5678
15.878	15.4937
15.896	15.4165
15.914	15.3385
15.932	15.2618
15.95	15.1881
15.968	15.1197
15.986	15.0589
16.004	15.0068
16.022	14.9648
16.04	14.9336
16.058	14.9135
16.076	14.9043
16.094	14.9051
16.112	14.9146
16.13	14.9317
16.148	14.9544
16.166	14.9805
16.184	15.0086
16.202	15.037
16.22	15.0637
16.238	15.0875
16.256	15.1072
16.274	15.1216
16.292	15.1301
16.31	15.1323
16.328	15.1278
16.346	15.1169
16.364	15.0996
16.382	15.0763
16.4	15.0474
16.418	15.0133
16.436	14.9749
16.454	14.9328
16.472	14.8876
16.49	14.8403
16.508	14.7915
16.526	14.742
16.544	14.6926
16.562	14.6442
16.58	14.5973
16.598	14.553
16.616	14.5118
16.634	14.4745
16.652	14.4419
16.67	14.4144
16.688	14.3927
16.706	14.3766
16.724	14.3661
16.742	14.3608
16.76	14.3598
16.778	14.3625
16.796	14.3679
16.814	14.3745
16.832	14.3817
16.85	14.3876
16.868	14.3915
16.886	14.3926
16.904	14.3896
16.922	14.3819
16.94	14.3689
16.958	14.3497
16.976	14.3241
16.994	14.2916
17.012	14.2523
17.03	14.2062
17.048	14.154
17.066	14.0964
17.084	14.0345
17.102	13.9702
17.12	13.9043
17.138	13.8397
17.156	13.7782
17.174	13.7217
17.192	13.6726
17.21	13.6319
17.228	13.6013
17.246	13.5809
17.264	13.5712
17.282	13.5715
17.3	13.5812
17.318	13.5988
17.336	13.6225
17.354	13.6511
17.372	13.6822
17.39	13.715
17.408	13.7477
17.426	13.7797
17.444	13.8104
17.462	13.84
17.48	13.8683
17.498	13.8958
17.516	13.9228
17.534	13.9496
17.552	13.9765
17.57	14.0034
17.588	14.0301
17.606	14.0564
17.624	14.0817
17.642	14.1051
17.66	14.1262
17.678	14.1444
17.696	14.1597
17.714	14.1713
17.732	14.1798
17.75	14.1852
17.768	14.1882
17.786	14.1888
17.804	14.1883
17.822	14.1868
17.84	14.1849
17.858	14.1823
17.876	14.1794
17.894	14.1749
17.912	14.1686
17.93	14.1587
17.948	14.1448
17.966	14.1246
17.984	14.0974
18.002	14.0614
18.02	14.0162
18.038	13.9609
18.056	13.8962
18.074	13.8222
18.092	13.7408
18.11	13.6528
18.128	13.5614
18.146	13.4678
18.164	13.3758
18.182	13.2873
18.2	13.2051
18.218	13.1317
18.236	13.0685
18.254	13.0174
18.272	12.9788
18.29	12.953
18.308	12.9399
18.326	12.9378
18.344	12.9464
18.362	12.963
18.38	12.9869
18.398	13.0155
18.416	13.0475
18.434	13.0806
18.452	13.1136
18.47	13.1452
18.488	13.1746
18.506	13.2011
18.524	13.2248
18.542	13.2456
18.56	13.2637
18.578	13.2792
18.596	13.2924
18.614	13.3035
18.632	13.313
18.65	13.3207
18.668	13.3266
18.686	13.3308
18.704	13.3327
18.722	13.3323
18.74	13.3288
18.758	13.3222
18.776	13.3121
18.794	13.2986
18.812	13.2817
18.83	13.2619
18.848	13.2398
18.866	13.2164
18.884	13.1929
18.902	13.1704
18.92	13.1507
18.938	13.1349
18.956	13.1249
18.974	13.1213
18.992	13.1257
19.01	13.1382
19.028	13.1596
19.046	13.1892
19.064	13.2268
19.082	13.2711
19.1	13.3205
19.118	13.3737
19.136	13.4279
19.154	13.4819
19.172	13.5323
19.19	13.5782
19.208	13.6161
19.226	13.6457
19.244	13.6643
19.262	13.6721
19.28	13.6676
19.298	13.651
19.316	13.6223
19.334	13.5818
19.352	13.5308
19.37	13.4692
19.388	13.3997
19.406	13.3222
19.424	13.2395
19.442	13.1516
19.46	13.0611
19.478	12.9682
19.496	12.8748
19.514	12.7813
19.532	12.6891
19.55	12.5989
19.568	12.5114
19.586	12.4275
19.604	12.3477
19.622	12.273
19.64	12.2037
19.658	12.1409
19.676	12.0846
19.694	12.0359
19.712	11.9948
19.73	11.9619
19.748	11.9372
19.766	11.9208
19.784	11.9126
19.802	11.9119
19.82	11.9185
19.838	11.9313
19.856	11.949
19.874	11.9712
19.892	11.9952
19.91	12.0213
19.928	12.0461
19.946	12.0701
19.964	12.0902
19.982	12.1064
20	12.117
20.018	12.1209
20.036	12.1183
20.054	12.1079
20.072	12.0902
20.09	12.0655
20.108	12.0336
20.126	11.9959
20.144	11.9522
20.162	11.9043
20.18	11.8528
20.198	11.7987
20.216	11.7439
20.234	11.6882
20.252	11.6344
20.27	11.582
20.288	11.5332
20.306	11.4879
20.324	11.4473
20.342	11.412
20.36	11.3822
20.378	11.3592
20.396	11.3427
20.414	11.3335
20.432	11.3317
20.45	11.3372
20.468	11.3504
20.486	11.3709
20.504	11.3983
20.522	11.4327
20.54	11.4727
20.558	11.5186
20.576	11.5687
20.594	11.6226
20.612	11.6795
20.63	11.7368
20.648	11.7952
20.666	11.8516
20.684	11.9063
20.702	11.9574
20.72	12.0032
20.738	12.044
20.756	12.0778
20.774	12.1049
20.792	12.125
20.81	12.1374
20.828	12.1431
20.846	12.1424
20.864	12.1354
20.882	12.1242
20.9	12.1085
20.918	12.0903
20.936	12.071
20.954	12.0506
20.972	12.0322
20.99	12.015
21.008	12.0008
21.026	11.9905
21.044	11.9838
21.062	11.9815
21.08	11.9836
21.098	11.9891
21.116	11.9983
21.134	12.0103
21.152	12.0233
21.17	12.0381
21.188	12.0516
21.206	12.0637
21.224	12.0733
21.242	12.0777
21.26	12.0776
21.278	12.071
21.296	12.0572
21.314	12.0363
21.332	12.0073
21.35	11.9705
21.368	11.926
21.386	11.8736
21.404	11.8138
21.422	11.7477
21.44	11.6747
21.458	11.5968
21.476	11.5146
21.494	11.4281
21.512	11.34
21.53	11.2494
21.548	11.1581
21.566	11.067
21.584	10.9757
21.602	10.8862
21.62	10.7982
21.638	10.7121
21.656	10.629
21.674	10.5484
21.692	10.4711
21.71	10.3973
21.728	10.3271
21.746	10.2613
21.764	10.1996
21.782	10.1426
21.8	10.0908
21.818	10.0439
21.836	10.0027
21.854	9.967343
21.872	9.937712
21.89	9.914224
21.908	9.896825
21.926	9.885303
21.944	9.879734
21.962	9.880018
21.98	9.885109
21.998	9.895401
22.016	9.909976
22.034	9.927037
22.052	9.947439
22.07	9.969162
22.088	9.990796
22.106	10.0131
22.124	10.0331
22.142	10.0504
22.16	10.0649
22.178	10.0744
22.196	10.0793
22.214	10.0789
22.232	10.072
22.25	10.0589
22.268	10.0401
22.286	10.0154
22.304	9.984903
22.322	9.950831
22.34	9.912715
22.358	9.871561
22.376	9.830967
22.394	9.789584
22.412	9.749852
22.43	9.715433
22.448	9.684436
22.466	9.660402
22.484	9.646196
22.502	9.640160
22.52	9.645692
22.538	9.664295
22.556	9.695000
22.574	9.739942
22.592	9.799759
22.61	9.873724
22.628	9.961783
22.646	10.0646
22.664	10.1808
22.682	10.3087
22.7	10.4497
22.718	10.6009
22.736	10.7592
22.754	10.9267
22.772	11.0991
22.79	11.2731
22.808	11.451
22.826	11.6274
22.844	11.799
22.862	11.9681
22.88	12.129
22.898	12.2792
22.916	12.4205
22.934	12.5477
22.952	12.6592
22.97	12.7561
22.988	12.835
23.006	12.8949
23.024	12.9366
23.042	12.9589
23.06	12.961
23.078	12.9439
23.096	12.9085
23.114	12.8539
23.132	12.7813
23.15	12.6943
23.168	12.5914
23.186	12.4745
23.204	12.3489
23.222	12.2131
23.24	12.0688
23.258	11.9226
23.276	11.7728
23.294	11.6212
23.312	11.4756
23.33	11.3349
23.348	11.1998
23.366	11.0765
23.384	10.965
23.402	10.8648
23.42	10.7792
23.438	10.7087
23.456	10.6525
23.474	10.6112
23.492	10.5852
23.51	10.5741
23.528	10.5767
23.546	10.5938
23.564	10.6249
23.582	10.6665
23.6	10.718
23.618	10.7803
23.636	10.8481
23.654	10.9191
23.672	10.9955
23.69	11.0724
23.708	11.1465
23.726	11.2203
23.744	11.2904
23.762	11.3534
23.78	11.4112
23.798	11.4625
23.816	11.5051
23.834	11.5395
23.852	11.5662
23.87	11.5851
23.888	11.5958
23.906	11.5991
23.924	11.5959
23.942	11.586
23.96	11.5696
23.978	11.5482
23.996	11.5218
24.014	11.4902
24.032	11.4548
24.05	11.4165
24.068	11.3746
24.086	11.33
24.104	11.2838
24.122	11.2359
24.14	11.1857
24.158	11.1329
24.176	11.0779
24.194	11.0204
24.212	10.9593
24.23	10.8945
24.248	10.8263
24.266	10.7543
24.284	10.6783
24.302	10.5981
24.32	10.5148
24.338	10.4291
24.356	10.3396
24.374	10.2484
24.392	10.1583
24.41	10.0679
24.428	9.978137
24.446	9.892762
24.464	9.812612
24.482	9.735749
24.5	9.667326
24.518	9.611668
24.536	9.565943
24.554	9.531955
24.572	9.512810
24.59	9.508099
24.608	9.517401
24.626	9.542179
24.644	9.584466
24.662	9.643948
24.68	9.715941
24.698	9.796622
24.716	9.890470
24.734	9.992384
24.752	10.0943
24.77	10.1994
24.788	10.3076
24.806	10.4047
24.824	10.4818
24.842	10.5501
24.86	10.5956
24.878	10.6014
24.896	10.5747
24.914	10.5134
24.932	10.4001
24.95	10.2261
24.968	10.0019
24.986	9.717276
25.004	9.360861
25.022	8.935577
25.04	8.442991
25.058	7.879943
25.076	7.242943
25.094	6.533090
25.112	5.757204
25.13	4.921379
25.148	4.016308
25.166	3.051251
25.184	2.044464
25.202	1.001030
25.22	-0.091568
25.238	-1.209535
25.256	-2.328605
25.274	-3.465878
25.292	-4.612036
25.31	-5.735425
25.328	-6.820142
25.346	-7.889539
25.364	-8.916563
25.382	-9.869745
25.4	-10.7575
25.418	-11.5834
25.436	-12.3222
25.454	-12.9551
25.472	-13.4976
25.49	-13.9425
25.508	-14.2767
25.526	-14.4954
25.544	-14.6056
25.562	-14.6069
25.58	-14.4982
25.598	-14.2745
25.616	-13.9432
25.634	-13.5153
25.652	-12.9955
25.67	-12.3723
25.688	-11.6638
25.706	-10.8907
25.724	-10.0491
25.742	-9.132985
25.76	-8.168112
25.778	-7.177817
25.796	-6.144435
25.814	-5.076446
25.832	-3.998729
25.85	-2.926907
25.868	-1.841838
25.886	-0.758652
25.904	0.302541
25.922	1.338528
25.94	2.360559
25.958	3.352632
25.976	4.298558
25.994	5.203235
26.012	6.069200
26.03	6.886754
26.048	7.647306
26.066	8.355507
26.084	9.011801
26.102	9.613658
26.12	10.1587
26.138	10.6472
26.156	11.0825
26.174	11.4679
26.192	11.8037
26.21	12.0876
26.228	12.3246
26.246	12.5201
26.264	12.6722
26.282	12.7795
26.3	12.8497
26.318	12.8903
26.336	12.8971
26.354	12.8705
26.372	12.818
26.39	12.7466
26.408	12.6493
26.426	12.5297
26.444	12.397
26.462	12.2586
26.48	12.1057
26.498	11.9437
26.516	11.7829
26.534	11.6303
26.552	11.4751
26.57	11.3255
26.588	11.1931
26.606	11.0837
26.624	10.9841
26.642	10.9073
26.66	10.8695
26.678	10.8796
26.696	10.924
26.714	11.0115
26.732	11.1529
26.75	11.3531
26.768	11.6027
26.786	11.9086
26.804	12.2792
26.822	12.7217
26.84	13.2337
26.858	13.8064
26.876	14.431
26.894	15.1082
26.912	15.8509
26.93	16.6366
26.948	17.4408
26.966	18.2884
26.984	19.2544
27.002	20.1865
27.02	20.9172
27.028	21.1118