File: Bakgrunnsmateriale/MATLAB/FTIR/ftir_data/LPE453/Mapping_121/LPE453_t41.asc
PE IR       SPECTRUM    SPECTRUM    ASCII       PEDS        1.60
  -1
LPC3AD~1.ASC
17/05/16
17:40:53.00
17/05/16
17:41:19.00
tln
$LPE453_t0041$<tbV0>[-5.2,-5.2,8.0,0.0,27,1,0]
27.028
64

2002,4.07
MIRTGS : RIGHTBACK : INTERNAL 2
MIR : ON : INTERNAL 2
OPTKBR

0.200000
8
8.000000
FILLER
RATIO
SPECTRUM
UNLOCKED 256

DOUBLE
64
COMBINED
1
0
0

0.002000
RATIO

1
0
TRUE
51149
0
LEFT NOT FITTED RIGHT NOT FITTED 0
NONE
NONE
15600
12
4.427000
51148
TRUE
1 0 8 72 0 0 0 0

15798

#HDR
-1
-1
#GR
µM
%T
2.38419e-05
0.0
2.000000
0.002000
12515
8
35.9047
-37.6906
#DATA
2.000000	 0.154805
2.018000	 -0.217524
2.036000	 0.254516
2.054000	 0.829959
2.072000	 0.025570
2.090000	 0.038907
2.108000	 0.329616
2.126000	 0.136713
2.144000	 0.320706
2.162000	 0.532577
2.180000	 0.289168
2.198000	 -1.507494
2.216000	 12.2758
2.234000	 -0.336566
2.252000	 -0.082125
2.270000	 0.365431
2.288000	 0.351021
2.306000	 -0.065756
2.324000	 -0.245853
2.342000	 0.055327
2.360000	 -0.132515
2.378000	 -0.152512
2.396000	 0.324583
2.414000	 0.249565
2.432000	 -0.130518
2.450000	 -0.046244
2.468000	 0.082974
2.486000	 0.108400
2.504000	 0.016988
2.522000	 0.014122
2.540000	 -0.025507
2.558000	 0.072010
2.576000	 -0.144426
2.594000	 0.076391
2.612000	 0.179915
2.630000	 0.003885
2.648000	 0.186448
2.666000	 0.104275
2.684000	 0.073630
2.702000	 -0.046724
2.720000	 0.131579
2.738000	 0.336023
2.756000	 0.070426
2.774000	 0.260779
2.792000	 0.146578
2.810000	 0.223031
2.828000	 0.187455
2.846000	 0.123634
2.864000	 0.019316
2.882000	 0.178589
2.900000	 0.080759
2.918000	 0.011375
2.936000	 0.096532
2.954000	 0.066683
2.972000	 0.009139
2.990000	 0.062177
3.008000	 0.001305
3.026000	 0.117405
3.044000	 0.108257
3.062000	 0.038004
3.080000	 0.196973
3.098000	 -0.103372
3.116000	 -0.020796
3.134000	 0.197800
3.152000	 0.076109
3.170000	 -0.028008
3.188000	 0.256976
3.206000	 0.257323
3.224000	 0.059124
3.242000	 -0.101381
3.260000	 -0.123221
3.278000	 0.106043
3.296000	 0.029782
3.314000	 0.037781
3.332000	 -0.082861
3.350000	 0.025520
3.368000	 0.077929
3.386000	 -0.025745
3.404000	 -0.009067
3.422000	 -0.011347
3.440000	 0.087763
3.458000	 0.112820
3.476000	 -0.037142
3.494000	 0.186538
3.512000	 0.189385
3.530000	 0.096649
3.548000	 0.010352
3.566000	 0.093980
3.584000	 0.017519
3.602000	 0.038706
3.620000	 -0.067855
3.638000	 -0.105454
3.656000	 -0.059057
3.674000	 0.032599
3.692000	 0.024919
3.710000	 0.044521
3.728000	 0.000318
3.746000	 0.039581
3.764000	 0.029647
3.782000	 0.069837
3.800000	 -0.018974
3.818000	 0.071913
3.836000	 0.123196
3.854000	 0.032013
3.872000	 -0.007404
3.890000	 -0.079858
3.908000	 0.057789
3.926000	 -0.013053
3.944000	 0.037894
3.962000	 0.061922
3.980000	 0.092654
3.998000	 0.149672
4.016000	 0.231024
4.034000	 0.188637
4.052000	 0.024620
4.070000	 0.069848
4.088000	 -0.019732
4.106000	 -0.014582
4.124000	 -0.163313
4.141999	 -0.100591
4.160000	 0.226214
4.178000	 0.016200
4.196000	 0.087978
4.214000	 0.098375
4.232000	 0.094886
4.250000	 0.077394
4.268000	 0.060667
4.286000	 0.224124
4.304000	 0.275680
4.322000	 0.336519
4.340000	 0.452864
4.358000	 0.458172
4.375999	 0.604746
4.394000	 0.724168
4.412000	 1.042800
4.430000	 1.294223
4.448000	 1.626570
4.466000	 1.834358
4.484000	 2.157034
4.502000	 2.684026
4.520000	 3.301035
4.538000	 3.828020
4.556000	 4.555106
4.574000	 5.258427
4.592000	 5.980101
4.609999	 7.006580
4.628000	 8.010607
4.646000	 8.884231
4.664000	 9.733611
4.682000	 10.809
4.700000	 11.7647
4.718000	 12.9181
4.736000	 13.752
4.754000	 14.8796
4.772000	 16.0814
4.790000	 17.1155
4.808000	 18.1762
4.826000	 19.2335
4.843999	 20.1635
4.862000	 20.9487
4.880000	 21.6904
4.898000	 22.629
4.916000	 23.5046
4.934000	 24.3456
4.952000	 25.1451
4.970000	 25.7138
4.988000	 26.3316
5.006000	 26.9426
5.024000	 27.389
5.042000	 28.0382
5.060000	 28.6925
5.077999	 29.1961
5.096000	 29.5901
5.114000	 29.8914
5.132000	 30.3605
5.150000	 30.7107
5.168000	 31.1142
5.186000	 31.4432
5.204000	 31.7827
5.222000	 32.1342
5.240000	 32.3742
5.258000	 32.6048
5.276000	 32.7305
5.294000	 33.0041
5.312000	 33.2481
5.330000	 33.5087
5.348000	 33.7601
5.366000	 33.8555
5.384000	 34.0036
5.402000	 34.1264
5.420000	 34.2233
5.438000	 34.2887
5.456000	 34.4208
5.474000	 34.4804
5.492000	 34.6896
5.510000	 34.8444
5.528000	 34.9475
5.546000	 34.9476
5.564000	 34.8993
5.582000	 34.9647
5.600000	 35.0766
5.618000	 35.1227
5.636000	 35.2023
5.654000	 35.305
5.672000	 35.331
5.690000	 35.3043
5.708000	 35.3259
5.726000	 35.3907
5.744000	 35.4499
5.762000	 35.4565
5.780000	 35.4341
5.798000	 35.4314
5.816000	 35.4799
5.834000	 35.5314
5.852000	 35.552
5.870000	 35.6156
5.888000	 35.6806
5.906000	 35.6572
5.923999	 35.6167
5.942000	 35.6573
5.960000	 35.6903
5.978000	 35.6997
5.996000	 35.7399
6.014000	 35.8119
6.032000	 35.8236
6.050000	 35.7891
6.068000	 35.7963
6.086000	 35.8439
6.104000	 35.8117
6.122000	 35.745
6.140000	 35.6712
6.158000	 35.729
6.176000	 35.8483
6.194000	 35.7977
6.212000	 35.6882
6.230000	 35.6855
6.248000	 35.7576
6.266000	 35.8194
6.284000	 35.8366
6.302000	 35.8425
6.320000	 35.8796
6.338000	 35.8546
6.356000	 35.7199
6.374000	 35.6438
6.392000	 35.6063
6.410000	 35.5573
6.428000	 35.615
6.446000	 35.687
6.464000	 35.7556
6.482000	 35.8784
6.500000	 35.8887
6.518000	 35.8146
6.536000	 35.8051
6.554000	 35.7628
6.572000	 35.6384
6.590000	 35.5797
6.608000	 35.598
6.626000	 35.6339
6.644000	 35.6281
6.662000	 35.594
6.680000	 35.6158
6.698000	 35.6371
6.716000	 35.6236
6.734000	 35.6284
6.752000	 35.6522
6.770000	 35.6492
6.788000	 35.5615
6.806000	 35.4258
6.824000	 35.3292
6.842000	 35.2905
6.860000	 35.3121
6.878000	 35.3821
6.896000	 35.439
6.914000	 35.4378
6.932000	 35.3969
6.950000	 35.3693
6.968000	 35.4221
6.986000	 35.5487
7.004000	 35.6158
7.022000	 35.5825
7.040000	 35.5458
7.058000	 35.5194
7.076000	 35.4714
7.094000	 35.403
7.112000	 35.3013
7.130000	 35.1934
7.148000	 35.1358
7.166000	 35.1528
7.184000	 35.241
7.202000	 35.3335
7.220000	 35.3624
7.238000	 35.3765
7.256000	 35.4306
7.274000	 35.4785
7.292000	 35.4639
7.310000	 35.397
7.328000	 35.3221
7.346000	 35.2603
7.364000	 35.207
7.382000	 35.1747
7.400000	 35.1676
7.418000	 35.1519
7.436000	 35.1187
7.454000	 35.1028
7.472000	 35.1088
7.490000	 35.1062
7.508000	 35.1053
7.526000	 35.16
7.544000	 35.2802
7.562000	 35.3947
7.580000	 35.431
7.598000	 35.3911
7.616000	 35.3243
7.634000	 35.2591
7.652000	 35.1854
7.670000	 35.0938
7.688000	 35.0195
7.706000	 35.0061
7.724000	 35.0197
7.742000	 34.99
7.760000	 34.9346
7.778000	 34.9209
7.796000	 34.9375
7.814000	 34.9314
7.832000	 34.9121
7.850000	 34.9257
7.868000	 34.9772
7.886000	 35.0324
7.904000	 35.0631
7.922000	 35.0634
7.940000	 35.0364
7.958000	 34.9851
7.976000	 34.9275
7.994000	 34.8868
8.012000	 34.8533
8.030000	 34.8074
8.048000	 34.7638
8.065999	 34.7547
8.084000	 34.7808
8.102000	 34.8096
8.120000	 34.8191
8.138000	 34.8226
8.155999	 34.8454
8.173999	 34.8794
8.192000	 34.8878
8.210000	 34.8629
8.228000	 34.8424
8.246000	 34.859
8.263999	 34.9056
8.282000	 34.9581
8.300000	 35.0007
8.318000	 35.0163
8.336000	 34.9879
8.353999	 34.924
8.372000	 34.8593
8.390000	 34.8146
8.408000	 34.7753
8.426000	 34.7171
8.443999	 34.6384
8.462000	 34.5633
8.480000	 34.5135
8.498000	 34.4831
8.516000	 34.4516
8.533999	 34.4185
8.552000	 34.4058
8.570000	 34.4206
8.588000	 34.4396
8.606000	 34.4427
8.624000	 34.4453
8.641999	 34.4729
8.660000	 34.5206
8.678000	 34.5618
8.696000	 34.592
8.714000	 34.6259
8.731999	 34.6555
8.750000	 34.6471
8.768000	 34.5891
8.786000	 34.5169
8.804000	 34.4758
8.821999	 34.4743
8.840000	 34.4834
8.858000	 34.4702
8.876000	 34.4245
8.894000	 34.3591
8.911999	 34.2967
8.930000	 34.2524
8.948000	 34.2253
8.966000	 34.2059
8.984000	 34.1907
9.001999	 34.1861
9.020000	 34.1946
9.038000	 34.2029
9.056000	 34.1921
9.074000	 34.1602
9.092000	 34.1281
9.109999	 34.122
9.128000	 34.1496
9.146000	 34.1923
9.164000	 34.2221
9.182000	 34.2238
9.199999	 34.202
9.218000	 34.1654
9.236000	 34.114
9.254000	 34.0433
9.272000	 33.9582
9.289999	 33.8801
9.308000	 33.8331
9.326000	 33.8233
9.344000	 33.8333
9.362000	 33.838
9.379999	 33.8235
9.398000	 33.7959
9.416000	 33.7719
9.434000	 33.7603
9.452000	 33.7533
9.469999	 33.7375
9.488000	 33.7121
9.506000	 33.691
9.524000	 33.6886
9.542000	 33.706
9.560000	 33.7339
9.577999	 33.7679
9.596000	 33.8139
9.614000	 33.8761
9.632000	 33.9429
9.650000	 33.9922
9.667999	 34.0085
9.686000	 33.9926
9.704000	 33.9565
9.722000	 33.914
9.740000	 33.8771
9.757999	 33.8527
9.776000	 33.8401
9.794000	 33.8298
9.812000	 33.8082
9.830000	 33.7662
9.847999	 33.7051
9.866000	 33.6323
9.884000	 33.5525
9.902000	 33.4639
9.920000	 33.3652
9.937999	 33.2673
9.956000	 33.1951
9.974000	 33.1731
9.992000	 33.2082
10.01	33.2796
10.028	33.3494
10.046	33.3864
10.064	33.3874
10.082	33.3749
10.1	33.381
10.118	33.4244
10.136	33.5028
10.154	33.6007
10.172	33.6994
10.19	33.7823
10.208	33.8359
10.226	33.8498
10.244	33.8199
10.262	33.7516
10.28	33.6599
10.298	33.5619
10.316	33.4706
10.334	33.3895
10.352	33.3149
10.37	33.2403
10.388	33.16
10.406	33.0718
10.424	32.9775
10.442	32.8826
10.46	32.7918
10.478	32.7068
10.496	32.627
10.514	32.555
10.532	32.4977
10.55	32.4654
10.568	32.4653
10.586	32.4966
10.604	32.5506
10.622	32.6146
10.64	32.6793
10.658	32.7426
10.676	32.8088
10.694	32.8825
10.712	32.9645
10.73	33.0492
10.748	33.1264
10.766	33.1847
10.784	33.2164
10.802	33.2211
10.82	33.2051
10.838	33.1807
10.856	33.1568
10.874	33.1352
10.892	33.109
10.91	33.065
10.928	32.9936
10.946	32.894
10.964	32.7765
10.982	32.6589
11	32.5574
11.018	32.4797
11.036	32.4226
11.054	32.3753
11.072	32.3261
11.09	32.2676
11.108	32.1991
11.126	32.1267
11.144	32.0601
11.162	32.0094
11.18	31.9813
11.198	31.9785
11.216	31.9985
11.234	32.036
11.252	32.0827
11.27	32.1309
11.288	32.1735
11.306	32.2055
11.324	32.2261
11.342	32.2379
11.36	32.2468
11.378	32.2601
11.396	32.2837
11.414	32.3201
11.432	32.3665
11.45	32.4158
11.468	32.4592
11.486	32.4901
11.504	32.5058
11.522	32.5076
11.54	32.4976
11.558	32.4779
11.576	32.4476
11.594	32.4038
11.612	32.344
11.63	32.2677
11.648	32.1777
11.666	32.0804
11.684	31.9832
11.702	31.8921
11.72	31.8106
11.738	31.7392
11.756	31.6756
11.774	31.617
11.792	31.561
11.81	31.5061
11.828	31.4525
11.846	31.4023
11.864	31.3579
11.882	31.3222
11.9	31.2977
11.918	31.2859
11.936	31.2868
11.954	31.2992
11.972	31.3213
11.99	31.3514
12.008	31.3885
12.026	31.433
12.044	31.4853
12.062	31.5452
12.08	31.6107
12.098	31.6773
12.116	31.7384
12.134	31.7863
12.152	31.8151
12.17	31.8219
12.188	31.8071
12.206	31.7748
12.224	31.7314
12.242	31.6836
12.26	31.6371
12.278	31.5956
12.296	31.5611
12.314	31.5343
12.332	31.5148
12.35	31.5019
12.368	31.4944
12.386	31.49
12.404	31.486
12.422	31.479
12.44	31.4652
12.458	31.4419
12.476	31.4078
12.494	31.3637
12.512	31.3128
12.53	31.2596
12.548	31.209
12.566	31.1642
12.584	31.126
12.602	31.092
12.62	31.057
12.638	31.0144
12.656	30.9587
12.674	30.887
12.692	30.8009
12.71	30.7051
12.728	30.6081
12.746	30.519
12.764	30.4459
12.782	30.3939
12.8	30.3646
12.818	30.3563
12.836	30.3645
12.854	30.384
12.872	30.4099
12.89	30.4386
12.908	30.4676
12.926	30.4949
12.944	30.5189
12.962	30.5378
12.98	30.5497
12.998	30.553
13.016	30.5476
13.034	30.5356
13.052	30.5211
13.07	30.5096
13.088	30.5071
13.106	30.518
13.124	30.544
13.142	30.5834
13.16	30.6319
13.178	30.6832
13.196	30.7312
13.214	30.7718
13.232	30.8034
13.25	30.8277
13.268	30.8485
13.286	30.8703
13.304	30.8967
13.322	30.9289
13.34	30.9651
13.358	31.0011
13.376	31.0312
13.394	31.0494
13.412	31.0514
13.43	31.0351
13.448	31.0014
13.466	30.9533
13.484	30.8949
13.502	30.8298
13.52	30.7605
13.538	30.688
13.556	30.6119
13.574	30.5319
13.592	30.4476
13.61	30.3603
13.628	30.2724
13.646	30.1868
13.664	30.1071
13.682	30.0353
13.7	29.9727
13.718	29.9184
13.736	29.8704
13.754	29.8257
13.772	29.7816
13.79	29.7356
13.808	29.6869
13.826	29.6355
13.844	29.5831
13.862	29.5316
13.88	29.4839
13.898	29.4425
13.916	29.4095
13.934	29.3874
13.952	29.378
13.97	29.3829
13.988	29.4024
14.006	29.4363
14.024	29.4829
14.042	29.5387
14.06	29.599
14.078	29.6581
14.096	29.7106
14.114	29.7519
14.132	29.7787
14.15	29.7904
14.168	29.7884
14.186	29.7765
14.204	29.7595
14.222	29.7436
14.24	29.7339
14.258	29.7341
14.276	29.7465
14.294	29.7713
14.312	29.8067
14.33	29.85
14.348	29.8971
14.366	29.9442
14.384	29.9866
14.402	30.0205
14.42	30.0419
14.438	30.0478
14.456	30.0356
14.474	30.0034
14.492	29.9506
14.51	29.878
14.528	29.7881
14.546	29.6844
14.564	29.5716
14.582	29.4548
14.6	29.3391
14.618	29.2292
14.636	29.1288
14.654	29.0396
14.672	28.9618
14.69	28.8942
14.708	28.8346
14.726	28.7804
14.744	28.7288
14.762	28.6775
14.78	28.6255
14.798	28.5728
14.816	28.5198
14.834	28.4686
14.852	28.4213
14.87	28.38
14.888	28.3465
14.906	28.3222
14.924	28.3077
14.942	28.3029
14.96	28.3062
14.978	28.3158
14.996	28.3295
15.014	28.3443
15.032	28.357
15.05	28.3651
15.068	28.3672
15.086	28.3625
15.104	28.3509
15.122	28.3337
15.14	28.3129
15.158	28.291
15.176	28.2705
15.194	28.2543
15.212	28.2448
15.23	28.2431
15.248	28.2499
15.266	28.2652
15.284	28.2879
15.302	28.3166
15.32	28.3494
15.338	28.3845
15.356	28.4202
15.374	28.4548
15.392	28.4878
15.41	28.5184
15.428	28.5464
15.446	28.5716
15.464	28.5942
15.482	28.6142
15.5	28.6315
15.518	28.646
15.536	28.6572
15.554	28.6648
15.572	28.6683
15.59	28.6669
15.608	28.66
15.626	28.6472
15.644	28.6277
15.662	28.6013
15.68	28.568
15.698	28.5281
15.716	28.4821
15.734	28.4311
15.752	28.3762
15.77	28.3183
15.788	28.2587
15.806	28.1984
15.824	28.1381
15.842	28.078
15.86	28.0181
15.878	27.9582
15.896	27.8978
15.914	27.8364
15.932	27.7739
15.95	27.7103
15.968	27.6462
15.986	27.5826
16.004	27.5208
16.022	27.4622
16.04	27.4088
16.058	27.3623
16.076	27.3236
16.094	27.2939
16.112	27.2728
16.13	27.2598
16.148	27.2537
16.166	27.2518
16.184	27.2523
16.202	27.2525
16.22	27.2494
16.238	27.2414
16.256	27.2269
16.274	27.2047
16.292	27.1751
16.31	27.1383
16.328	27.0957
16.346	27.0488
16.364	26.9991
16.382	26.9486
16.4	26.8985
16.418	26.8499
16.436	26.8036
16.454	26.7599
16.472	26.7189
16.49	26.6807
16.508	26.6449
16.526	26.6116
16.544	26.581
16.562	26.5537
16.58	26.5304
16.598	26.5124
16.616	26.501
16.634	26.4973
16.652	26.5029
16.67	26.5182
16.688	26.544
16.706	26.5801
16.724	26.6258
16.742	26.6804
16.76	26.7415
16.778	26.8079
16.796	26.877
16.814	26.9465
16.832	27.0148
16.85	27.0794
16.868	27.139
16.886	27.1924
16.904	27.2385
16.922	27.2768
16.94	27.3069
16.958	27.3287
16.976	27.3424
16.994	27.3479
17.012	27.346
17.03	27.337
17.048	27.3221
17.066	27.3019
17.084	27.2778
17.102	27.2516
17.12	27.2243
17.138	27.1981
17.156	27.1746
17.174	27.155
17.192	27.1413
17.21	27.134
17.228	27.1341
17.246	27.1408
17.264	27.154
17.282	27.1713
17.3	27.1914
17.318	27.2115
17.336	27.2287
17.354	27.2412
17.372	27.2452
17.39	27.2398
17.408	27.2224
17.426	27.1929
17.444	27.1507
17.462	27.097
17.48	27.0325
17.498	26.9598
17.516	26.8809
17.534	26.7979
17.552	26.7144
17.57	26.6315
17.588	26.5525
17.606	26.4784
17.624	26.4109
17.642	26.3505
17.66	26.2976
17.678	26.2518
17.696	26.2129
17.714	26.1796
17.732	26.1511
17.75	26.1266
17.768	26.1042
17.786	26.0836
17.804	26.0627
17.822	26.041
17.84	26.0173
17.858	25.9912
17.876	25.962
17.894	25.9297
17.912	25.8943
17.93	25.8559
17.948	25.8147
17.966	25.7718
17.984	25.7279
18.002	25.6843
18.02	25.6423
18.038	25.6032
18.056	25.5687
18.074	25.5394
18.092	25.5173
18.11	25.5025
18.128	25.4962
18.146	25.4981
18.164	25.5083
18.182	25.5257
18.2	25.5497
18.218	25.5784
18.236	25.6108
18.254	25.6446
18.272	25.6791
18.29	25.7116
18.308	25.7419
18.326	25.768
18.344	25.79
18.362	25.8073
18.38	25.8203
18.398	25.8294
18.416	25.8357
18.434	25.8402
18.452	25.8442
18.47	25.8486
18.488	25.8546
18.506	25.8627
18.524	25.8732
18.542	25.8863
18.56	25.9013
18.578	25.9183
18.596	25.935
18.614	25.9514
18.632	25.9648
18.65	25.9751
18.668	25.9793
18.686	25.9774
18.704	25.9678
18.722	25.9505
18.74	25.9247
18.758	25.8908
18.776	25.8491
18.794	25.8001
18.812	25.7451
18.83	25.6848
18.848	25.6211
18.866	25.5547
18.884	25.4874
18.902	25.4199
18.92	25.3537
18.938	25.289
18.956	25.2269
18.974	25.1673
18.992	25.1107
19.01	25.0566
19.028	25.0049
19.046	24.955
19.064	24.9063
19.082	24.8583
19.1	24.8099
19.118	24.7611
19.136	24.7109
19.154	24.6594
19.172	24.6062
19.19	24.5516
19.208	24.4961
19.226	24.4401
19.244	24.3846
19.262	24.3299
19.28	24.278
19.298	24.2289
19.316	24.1849
19.334	24.1459
19.352	24.1139
19.37	24.0888
19.388	24.0715
19.406	24.062
19.424	24.0601
19.442	24.0659
19.46	24.078
19.478	24.0965
19.496	24.1192
19.514	24.1462
19.532	24.175
19.55	24.2048
19.568	24.2342
19.586	24.2616
19.604	24.2869
19.622	24.3082
19.64	24.3259
19.658	24.3393
19.676	24.3487
19.694	24.3546
19.712	24.3567
19.73	24.3569
19.748	24.355
19.766	24.3528
19.784	24.3507
19.802	24.3499
19.82	24.3512
19.838	24.3549
19.856	24.362
19.874	24.3721
19.892	24.3852
19.91	24.4013
19.928	24.4188
19.946	24.438
19.964	24.4566
19.982	24.4747
20	24.4904
20.018	24.503
20.036	24.5118
20.054	24.5149
20.072	24.5128
20.09	24.5041
20.108	24.4888
20.126	24.4673
20.144	24.4392
20.162	24.4061
20.18	24.3681
20.198	24.3266
20.216	24.2829
20.234	24.2372
20.252	24.1922
20.27	24.1472
20.288	24.1049
20.306	24.0652
20.324	24.0293
20.342	23.998
20.36	23.9712
20.378	23.9495
20.396	23.9329
20.414	23.9206
20.432	23.913
20.45	23.9089
20.468	23.9081
20.486	23.9099
20.504	23.9129
20.522	23.9172
20.54	23.9211
20.558	23.9248
20.576	23.9272
20.594	23.9277
20.612	23.9261
20.63	23.9214
20.648	23.9139
20.666	23.9031
20.684	23.8889
20.702	23.8714
20.72	23.8504
20.738	23.8263
20.756	23.7997
20.774	23.7703
20.792	23.739
20.81	23.7055
20.828	23.6707
20.846	23.6355
20.864	23.5996
20.882	23.5648
20.9	23.5306
20.918	23.4985
20.936	23.4693
20.954	23.443
20.972	23.4214
20.99	23.4039
21.008	23.392
21.026	23.3864
21.044	23.387
21.062	23.3953
21.08	23.4109
21.098	23.4345
21.116	23.4664
21.134	23.5062
21.152	23.554
21.17	23.6097
21.188	23.6724
21.206	23.7423
21.224	23.8185
21.242	23.8997
21.26	23.9864
21.278	24.0762
21.296	24.1691
21.314	24.2641
21.332	24.3588
21.35	24.4541
21.368	24.5474
21.386	24.6383
21.404	24.7265
21.422	24.8094
21.44	24.8879
21.458	24.9603
21.476	25.0259
21.494	25.0849
21.512	25.1357
21.53	25.1785
21.548	25.2128
21.566	25.2378
21.584	25.254
21.602	25.2603
21.62	25.2568
21.638	25.2435
21.656	25.2205
21.674	25.1877
21.692	25.1455
21.71	25.0938
21.728	25.033
21.746	24.9643
21.764	24.887
21.782	24.8027
21.8	24.7122
21.818	24.6151
21.836	24.5143
21.854	24.4095
21.872	24.3018
21.89	24.1939
21.908	24.0847
21.926	23.9768
21.944	23.872
21.962	23.7695
21.98	23.6722
21.998	23.58
22.016	23.4934
22.034	23.4145
22.052	23.3426
22.07	23.2782
22.088	23.222
22.106	23.1736
22.124	23.1325
22.142	23.099
22.16	23.0725
22.178	23.0512
22.196	23.036
22.214	23.0252
22.232	23.0169
22.25	23.012
22.268	23.0082
22.286	23.0041
22.304	23.0005
22.322	22.9951
22.34	22.9875
22.358	22.9777
22.376	22.9641
22.394	22.947
22.412	22.9261
22.43	22.9007
22.448	22.871
22.466	22.8372
22.484	22.7995
22.502	22.7576
22.52	22.7126
22.538	22.6649
22.556	22.6142
22.574	22.5621
22.592	22.5084
22.61	22.4535
22.628	22.3989
22.646	22.3441
22.664	22.2897
22.682	22.2372
22.7	22.186
22.718	22.1369
22.736	22.0909
22.754	22.0475
22.772	22.0075
22.79	21.9717
22.808	21.9397
22.826	21.912
22.844	21.889
22.862	21.8706
22.88	21.8569
22.898	21.8482
22.916	21.8442
22.934	21.8447
22.952	21.8497
22.97	21.859
22.988	21.8717
23.006	21.8877
23.024	21.9069
23.042	21.9278
23.06	21.9504
23.078	21.9747
23.096	21.9987
23.114	22.0225
23.132	22.0459
23.15	22.0675
23.168	22.0872
23.186	22.105
23.204	22.1199
23.222	22.1319
23.24	22.1412
23.258	22.1474
23.276	22.1506
23.294	22.1508
23.312	22.1479
23.33	22.1417
23.348	22.1325
23.366	22.1208
23.384	22.1063
23.402	22.0894
23.42	22.0718
23.438	22.0533
23.456	22.034
23.474	22.0153
23.492	21.9972
23.51	21.9795
23.528	21.963
23.546	21.9479
23.564	21.934
23.582	21.9209
23.6	21.9089
23.618	21.8978
23.636	21.8869
23.654	21.8759
23.672	21.8652
23.69	21.8532
23.708	21.8389
23.726	21.8233
23.744	21.8047
23.762	21.7815
23.78	21.7549
23.798	21.7236
23.816	21.6862
23.834	21.6431
23.852	21.5942
23.87	21.5386
23.888	21.4762
23.906	21.4074
23.924	21.3329
23.942	21.252
23.96	21.1653
23.978	21.0751
23.996	20.9817
24.014	20.8844
24.032	20.7862
24.05	20.6888
24.068	20.5904
24.086	20.494
24.104	20.4024
24.122	20.313
24.14	20.2289
24.158	20.1545
24.176	20.088
24.194	20.0305
24.212	19.9859
24.23	19.9552
24.248	19.9369
24.266	19.9321
24.284	19.9418
24.302	19.9656
24.32	20.0019
24.338	20.049
24.356	20.1087
24.374	20.1787
24.392	20.2557
24.41	20.3409
24.428	20.4337
24.446	20.5298
24.464	20.6288
24.482	20.7328
24.5	20.8346
24.518	20.9285
24.536	21.0185
24.554	21.1016
24.572	21.1729
24.59	21.232
24.608	21.2806
24.626	21.3183
24.644	21.344
24.662	21.3572
24.68	21.3627
24.698	21.3642
24.716	21.3573
24.734	21.347
24.752	21.3407
24.77	21.3373
24.788	21.3357
24.806	21.3453
24.824	21.3724
24.842	21.4105
24.86	21.4661
24.878	21.5474
24.896	21.6526
24.914	21.781
24.932	21.9372
24.95	22.1244
24.968	22.3404
24.986	22.5844
25.004	22.8564
25.022	23.1592
25.04	23.4892
25.058	23.8398
25.076	24.2099
25.094	24.604
25.112	25.0111
25.13	25.4206
25.148	25.8403
25.166	26.2653
25.184	26.6818
25.202	27.0844
25.22	27.4817
25.238	27.8628
25.256	28.2161
25.274	28.5469
25.292	28.854
25.31	29.1291
25.328	29.3669
25.346	29.5725
25.364	29.7433
25.382	29.8758
25.4	29.9686
25.418	30.0241
25.436	30.0447
25.454	30.0314
25.472	29.9809
25.49	29.8985
25.508	29.791
25.526	29.6589
25.544	29.499
25.562	29.3186
25.58	29.1243
25.598	28.913
25.616	28.6853
25.634	28.4454
25.652	28.1962
25.67	27.9354
25.688	27.6638
25.706	27.3831
25.724	27.0952
25.742	26.7989
25.76	26.4908
25.778	26.1675
25.796	25.8337
25.814	25.4861
25.832	25.1173
25.85	24.7239
25.868	24.3137
25.886	23.8774
25.904	23.4033
25.922	22.8894
25.94	22.3421
25.958	21.7536
25.976	21.1157
25.994	20.4321
26.012	19.7035
26.03	18.9228
26.048	18.0844
26.066	17.1948
26.084	16.2503
26.102	15.2435
26.12	14.1692
26.138	13.033
26.156	11.8327
26.174	10.5652
26.192	9.227350
26.21	7.820741
26.228	6.350113
26.246	4.820217
26.264	3.226136
26.282	1.567704
26.3	-0.140501
26.318	-1.884312
26.336	-3.673224
26.354	-5.505639
26.372	-7.364125
26.39	-9.233339
26.408	-11.132
26.426	-13.0495
26.444	-14.9595
26.462	-16.8417
26.48	-18.724
26.498	-20.5876
26.516	-22.3994
26.534	-24.1367
26.552	-25.8318
26.57	-27.4626
26.588	-28.9957
26.606	-30.4108
26.624	-31.7366
26.642	-32.9555
26.66	-34.0429
26.678	-34.985
26.696	-35.8013
26.714	-36.4822
26.732	-37.0147
26.75	-37.3892
26.768	-37.6122
26.786	-37.6905
26.804	-37.6308
26.822	-37.4329
26.84	-37.0884
26.858	-36.6134
26.876	-36.0257
26.894	-35.3298
26.912	-34.5078
26.93	-33.5828
26.948	-32.5801
26.966	-31.4486
26.984	-30.073
27.002	-28.7074
27.02	-27.6297
27.028	-27.3467