File: Bakgrunnsmateriale/MATLAB/FTIR/ftir_data/LPE453/Mapping_121/LPE453_t90.asc
PE IR       SPECTRUM    SPECTRUM    ASCII       PEDS        1.60
  -1
LPC7B9~1.ASC
17/05/16
21:48:13.00
17/05/16
21:48:39.00
tln
$LPE453_t0090$<tbV0>[10.4,7.8,8.0,0.0,27,1,0]
27.028
64

2002,4.07
MIRTGS : RIGHTBACK : INTERNAL 2
MIR : ON : INTERNAL 2
OPTKBR

0.200000
8
8.000000
FILLER
RATIO
SPECTRUM
UNLOCKED 256

DOUBLE
64
COMBINED
1
0
0

0.002000
RATIO

1
0
TRUE
51149
0
LEFT NOT FITTED RIGHT NOT FITTED 0
NONE
NONE
15600
12
4.427000
51148
TRUE
1 0 8 72 0 0 0 0

15798

#HDR
-1
-1
#GR
µM
%T
2.38419e-05
0.0
2.000000
0.002000
12515
8
33.5304
-5.198629
#DATA
2.000000	 0.354862
2.018000	 -0.026345
2.036000	 -0.045519
2.054000	 0.246831
2.072000	 0.142468
2.090000	 0.354299
2.108000	 -0.030792
2.126000	 -0.285015
2.144000	 0.766685
2.162000	 0.617409
2.180000	 0.510595
2.198000	 0.505074
2.216000	 3.900568
2.234000	 -0.578639
2.252000	 0.358559
2.270000	 -0.098841
2.288000	 0.275355
2.306000	 0.347832
2.324000	 -0.006077
2.342000	 0.217692
2.360000	 -0.086622
2.378000	 0.182075
2.396000	 0.094499
2.414000	 0.297056
2.432000	 0.095053
2.450000	 -0.096995
2.468000	 0.034230
2.486000	 -0.030047
2.504000	 -0.068733
2.522000	 0.166347
2.540000	 -0.061607
2.558000	 0.192166
2.576000	 0.154393
2.594000	 0.174890
2.612000	 0.046786
2.630000	 0.039778
2.648000	 0.094954
2.666000	 0.206143
2.684000	 0.063896
2.702000	 -0.108317
2.720000	 0.075701
2.738000	 0.103929
2.756000	 0.082850
2.774000	 -0.032888
2.792000	 0.030640
2.810000	 -0.051996
2.828000	 -0.008354
2.846000	 -0.097519
2.864000	 0.192765
2.882000	 0.074349
2.900000	 0.031049
2.918000	 -0.049315
2.936000	 0.102293
2.954000	 0.014313
2.972000	 -0.021475
2.990000	 -0.050158
3.008000	 0.018101
3.026000	 0.003226
3.044000	 0.157240
3.062000	 0.006658
3.080000	 0.009469
3.098000	 0.074998
3.116000	 -0.101831
3.134000	 -0.017901
3.152000	 0.124006
3.170000	 0.047607
3.188000	 0.112079
3.206000	 0.089064
3.224000	 0.104960
3.242000	 -0.035562
3.260000	 0.074374
3.278000	 -0.014292
3.296000	 -0.026361
3.314000	 0.152553
3.332000	 0.096048
3.350000	 0.059323
3.368000	 0.017232
3.386000	 -0.055511
3.404000	 0.024733
3.422000	 -0.083062
3.440000	 0.007780
3.458000	 0.093808
3.476000	 -0.012285
3.494000	 -0.004455
3.512000	 0.028843
3.530000	 0.114706
3.548000	 0.056854
3.566000	 -0.031686
3.584000	 0.009796
3.602000	 -0.018710
3.620000	 -0.026776
3.638000	 -0.037220
3.656000	 0.024035
3.674000	 0.078378
3.692000	 0.082982
3.710000	 -0.085216
3.728000	 0.043499
3.746000	 -0.004522
3.764000	 0.088933
3.782000	 0.057930
3.800000	 0.047406
3.818000	 -0.006871
3.836000	 -0.093405
3.854000	 -0.006754
3.872000	 0.123193
3.890000	 0.040400
3.908000	 0.002731
3.926000	 0.027097
3.944000	 0.055345
3.962000	 0.028373
3.980000	 0.070813
3.998000	 0.025184
4.016000	 -0.030366
4.034000	 -0.039154
4.052000	 0.022180
4.070000	 -0.065537
4.088000	 -0.051578
4.106000	 0.000662
4.124000	 0.087096
4.141999	 -0.000921
4.160000	 0.118323
4.178000	 0.031674
4.196000	 0.014605
4.214000	 0.044927
4.232000	 -0.035256
4.250000	 0.060996
4.268000	 0.019147
4.286000	 0.047057
4.304000	 -0.016307
4.322000	 0.114688
4.340000	 0.246701
4.358000	 0.281858
4.375999	 0.176093
4.394000	 0.228445
4.412000	 0.290984
4.430000	 0.470059
4.448000	 0.561451
4.466000	 0.798053
4.484000	 0.965505
4.502000	 1.236106
4.520000	 1.521183
4.538000	 1.880720
4.556000	 2.109196
4.574000	 2.410030
4.592000	 2.868932
4.609999	 3.263664
4.628000	 3.727661
4.646000	 4.583347
4.664000	 4.849707
4.682000	 5.556016
4.700000	 6.079824
4.718000	 6.738043
4.736000	 7.352815
4.754000	 7.960490
4.772000	 8.574046
4.790000	 9.303428
4.808000	 10.0398
4.826000	 10.6044
4.843999	 11.2488
4.862000	 11.9481
4.880000	 12.36
4.898000	 12.9745
4.916000	 13.5249
4.934000	 14.1095
4.952000	 14.5907
4.970000	 15.0087
4.988000	 15.4639
5.006000	 15.9416
5.024000	 16.28
5.042000	 16.752
5.060000	 17.2515
5.077999	 17.6535
5.096000	 18.0353
5.114000	 18.4243
5.132000	 18.7248
5.150000	 18.9583
5.168000	 19.2732
5.186000	 19.5022
5.204000	 19.7863
5.222000	 20.0338
5.240000	 20.2596
5.258000	 20.523
5.276000	 20.7292
5.294000	 20.9267
5.312000	 21.0755
5.330000	 21.2775
5.348000	 21.5748
5.366000	 21.6818
5.384000	 21.874
5.402000	 22.1075
5.420000	 22.2125
5.438000	 22.2997
5.456000	 22.3782
5.474000	 22.4678
5.492000	 22.5749
5.510000	 22.7298
5.528000	 22.8588
5.546000	 22.9894
5.564000	 23.0756
5.582000	 23.1484
5.600000	 23.1585
5.618000	 23.1484
5.636000	 23.2269
5.654000	 23.4039
5.672000	 23.4627
5.690000	 23.5547
5.708000	 23.6552
5.726000	 23.7661
5.744000	 23.8047
5.762000	 23.8276
5.780000	 23.915
5.798000	 23.8881
5.816000	 23.9324
5.834000	 24.0141
5.852000	 24.0829
5.870000	 24.1217
5.888000	 24.19
5.906000	 24.2046
5.923999	 24.2165
5.942000	 24.2994
5.960000	 24.3722
5.978000	 24.4426
5.996000	 24.4811
6.014000	 24.4857
6.032000	 24.4653
6.050000	 24.4932
6.068000	 24.5762
6.086000	 24.6675
6.104000	 24.7046
6.122000	 24.7186
6.140000	 24.7377
6.158000	 24.8041
6.176000	 24.851
6.194000	 24.7347
6.212000	 24.8069
6.230000	 25.0778
6.248000	 25.0855
6.266000	 25.0333
6.284000	 25.0829
6.302000	 25.0786
6.320000	 25.0442
6.338000	 25.0678
6.356000	 25.1197
6.374000	 25.1413
6.392000	 25.1675
6.410000	 25.2497
6.428000	 25.354
6.446000	 25.3344
6.464000	 25.2644
6.482000	 25.3285
6.500000	 25.4162
6.518000	 25.4088
6.536000	 25.3163
6.554000	 25.2397
6.572000	 25.2866
6.590000	 25.3952
6.608000	 25.4591
6.626000	 25.4742
6.644000	 25.4887
6.662000	 25.5086
6.680000	 25.5324
6.698000	 25.5332
6.716000	 25.556
6.734000	 25.6127
6.752000	 25.6575
6.770000	 25.6977
6.788000	 25.704
6.806000	 25.6803
6.824000	 25.6557
6.842000	 25.6563
6.860000	 25.7082
6.878000	 25.753
6.896000	 25.7657
6.914000	 25.8412
6.932000	 26.0158
6.950000	 26.1491
6.968000	 26.099
6.986000	 25.9699
7.004000	 25.9177
7.022000	 25.9268
7.040000	 25.9357
7.058000	 25.9164
7.076000	 25.9077
7.094000	 25.9934
7.112000	 26.1361
7.130000	 26.1988
7.148000	 26.1631
7.166000	 26.1382
7.184000	 26.1764
7.202000	 26.2415
7.220000	 26.304
7.238000	 26.3483
7.256000	 26.3682
7.274000	 26.3807
7.292000	 26.3832
7.310000	 26.3578
7.328000	 26.3186
7.346000	 26.3021
7.364000	 26.3219
7.382000	 26.3456
7.400000	 26.3427
7.418000	 26.3372
7.436000	 26.3579
7.454000	 26.3906
7.472000	 26.4109
7.490000	 26.4115
7.508000	 26.4122
7.526000	 26.4478
7.544000	 26.5103
7.562000	 26.5496
7.580000	 26.5473
7.598000	 26.5242
7.616000	 26.4992
7.634000	 26.4893
7.652000	 26.5013
7.670000	 26.5163
7.688000	 26.5335
7.706000	 26.5877
7.724000	 26.6779
7.742000	 26.743
7.760000	 26.7476
7.778000	 26.7278
7.796000	 26.7364
7.814000	 26.7864
7.832000	 26.8414
7.850000	 26.8444
7.868000	 26.7822
7.886000	 26.7137
7.904000	 26.6985
7.922000	 26.7222
7.940000	 26.7383
7.958000	 26.7479
7.976000	 26.7787
7.994000	 26.818
8.012000	 26.836
8.030000	 26.845
8.048000	 26.883
8.065999	 26.9526
8.084000	 27.0225
8.102000	 27.0712
8.120000	 27.0894
8.138000	 27.0663
8.155999	 27.0167
8.173999	 26.9823
8.192000	 26.9799
8.210000	 26.9802
8.228000	 26.9575
8.246000	 26.9323
8.263999	 26.941
8.282000	 26.978
8.300000	 26.9994
8.318000	 26.9804
8.336000	 26.9477
8.353999	 26.9507
8.372000	 27.0091
8.390000	 27.0911
8.408000	 27.1535
8.426000	 27.1829
8.443999	 27.1885
8.462000	 27.1803
8.480000	 27.1709
8.498000	 27.1782
8.516000	 27.2087
8.533999	 27.2454
8.552000	 27.2616
8.570000	 27.2431
8.588000	 27.195
8.606000	 27.1351
8.624000	 27.0881
8.641999	 27.075
8.660000	 27.1032
8.678000	 27.1602
8.696000	 27.2242
8.714000	 27.2791
8.731999	 27.3201
8.750000	 27.3491
8.768000	 27.3742
8.786000	 27.4088
8.804000	 27.4598
8.821999	 27.5134
8.840000	 27.5399
8.858000	 27.5234
8.876000	 27.4814
8.894000	 27.4458
8.911999	 27.431
8.930000	 27.4261
8.948000	 27.4181
8.966000	 27.4091
8.984000	 27.4071
9.001999	 27.4104
9.020000	 27.4098
9.038000	 27.4002
9.056000	 27.3843
9.074000	 27.3674
9.092000	 27.3564
9.109999	 27.362
9.128000	 27.3948
9.146000	 27.4533
9.164000	 27.5225
9.182000	 27.5862
9.199999	 27.6385
9.218000	 27.6797
9.236000	 27.7063
9.254000	 27.7107
9.272000	 27.6879
9.289999	 27.6419
9.308000	 27.5846
9.326000	 27.5297
9.344000	 27.4881
9.362000	 27.465
9.379999	 27.4591
9.398000	 27.4643
9.416000	 27.4745
9.434000	 27.4847
9.452000	 27.4913
9.469999	 27.4905
9.488000	 27.4804
9.506000	 27.4618
9.524000	 27.4375
9.542000	 27.412
9.560000	 27.3918
9.577999	 27.3841
9.596000	 27.3922
9.614000	 27.4112
9.632000	 27.4306
9.650000	 27.4442
9.667999	 27.4564
9.686000	 27.4772
9.704000	 27.5096
9.722000	 27.5432
9.740000	 27.563
9.757999	 27.564
9.776000	 27.5577
9.794000	 27.56
9.812000	 27.574
9.830000	 27.5856
9.847999	 27.5787
9.866000	 27.5518
9.884000	 27.5202
9.902000	 27.5012
9.920000	 27.4977
9.937999	 27.4969
9.956000	 27.4857
9.974000	 27.4634
9.992000	 27.4426
10.01	27.437
10.028	27.4513
10.046	27.4784
10.064	27.5073
10.082	27.5294
10.1	27.5423
10.118	27.5486
10.136	27.555
10.154	27.5693
10.172	27.5965
10.19	27.6335
10.208	27.6682
10.226	27.6859
10.244	27.6783
10.262	27.6484
10.28	27.6085
10.298	27.5703
10.316	27.5382
10.334	27.5088
10.352	27.4773
10.37	27.4438
10.388	27.4157
10.406	27.4003
10.424	27.3989
10.442	27.4022
10.46	27.3953
10.478	27.365
10.496	27.3108
10.514	27.2458
10.532	27.1939
10.55	27.1767
10.568	27.2043
10.586	27.2689
10.604	27.3493
10.622	27.4196
10.64	27.46
10.658	27.4633
10.676	27.4363
10.694	27.3921
10.712	27.3444
10.73	27.3009
10.748	27.2637
10.766	27.2334
10.784	27.2115
10.802	27.2016
10.82	27.2058
10.838	27.2215
10.856	27.2405
10.874	27.2523
10.892	27.2511
10.91	27.2396
10.928	27.2275
10.946	27.2254
10.964	27.2361
10.982	27.2522
11	27.2601
11.018	27.2463
11.036	27.206
11.054	27.1436
11.072	27.0702
11.09	26.9989
11.108	26.9392
11.126	26.8975
11.144	26.8772
11.162	26.8801
11.18	26.9049
11.198	26.9449
11.216	26.9889
11.234	27.0253
11.252	27.0461
11.27	27.0517
11.288	27.0504
11.306	27.0538
11.324	27.0712
11.342	27.1048
11.36	27.1486
11.378	27.1902
11.396	27.2174
11.414	27.222
11.432	27.2025
11.45	27.1644
11.468	27.1176
11.486	27.0726
11.504	27.0383
11.522	27.02
11.54	27.0173
11.558	27.0254
11.576	27.0358
11.594	27.0404
11.612	27.0321
11.63	27.008
11.648	26.97
11.666	26.9235
11.684	26.8753
11.702	26.8309
11.72	26.7934
11.738	26.7624
11.756	26.7358
11.774	26.7119
11.792	26.6906
11.81	26.6739
11.828	26.6647
11.846	26.6659
11.864	26.6775
11.882	26.6959
11.9	26.7148
11.918	26.7267
11.936	26.726
11.954	26.711
11.972	26.6846
11.99	26.6533
12.008	26.624
12.026	26.6024
12.044	26.5916
12.062	26.5926
12.08	26.6055
12.098	26.6304
12.116	26.668
12.134	26.7187
12.152	26.7803
12.17	26.8481
12.188	26.9138
12.206	26.9672
12.224	26.9989
12.242	27.0021
12.26	26.9751
12.278	26.921
12.296	26.8469
12.314	26.7621
12.332	26.6767
12.35	26.5992
12.368	26.5366
12.386	26.4932
12.404	26.4706
12.422	26.4673
12.44	26.4791
12.458	26.4997
12.476	26.522
12.494	26.5388
12.512	26.5442
12.53	26.5349
12.548	26.5101
12.566	26.4715
12.584	26.4231
12.602	26.3706
12.62	26.3197
12.638	26.2761
12.656	26.2444
12.674	26.2277
12.692	26.2273
12.71	26.243
12.728	26.2729
12.746	26.3132
12.764	26.3591
12.782	26.4052
12.8	26.4461
12.818	26.4766
12.836	26.4931
12.854	26.4937
12.872	26.4787
12.89	26.4506
12.908	26.4137
12.926	26.3733
12.944	26.3348
12.962	26.3022
12.98	26.2781
12.998	26.2624
13.016	26.2535
13.034	26.2486
13.052	26.245
13.07	26.2407
13.088	26.2352
13.106	26.2285
13.124	26.222
13.142	26.2163
13.16	26.2112
13.178	26.2045
13.196	26.1929
13.214	26.1721
13.232	26.1384
13.25	26.0892
13.268	26.0244
13.286	25.9463
13.304	25.8601
13.322	25.7722
13.34	25.689
13.358	25.6157
13.376	25.5554
13.394	25.5084
13.412	25.473
13.43	25.4459
13.448	25.4237
13.466	25.4041
13.484	25.3859
13.502	25.37
13.52	25.3586
13.538	25.3544
13.556	25.3598
13.574	25.377
13.592	25.4068
13.61	25.4485
13.628	25.4998
13.646	25.558
13.664	25.6192
13.682	25.6794
13.7	25.7343
13.718	25.7798
13.736	25.8126
13.754	25.8302
13.772	25.8314
13.79	25.8167
13.808	25.7881
13.826	25.7497
13.844	25.7064
13.862	25.6636
13.88	25.6261
13.898	25.5975
13.916	25.58
13.934	25.573
13.952	25.574
13.97	25.5788
13.988	25.5824
14.006	25.5797
14.024	25.5661
14.042	25.5385
14.06	25.496
14.078	25.4392
14.096	25.3703
14.114	25.2927
14.132	25.2105
14.15	25.1278
14.168	25.0487
14.186	24.9768
14.204	24.9149
14.222	24.8651
14.24	24.8287
14.258	24.8065
14.276	24.7979
14.294	24.8023
14.312	24.8181
14.33	24.8435
14.348	24.876
14.366	24.9129
14.384	24.9512
14.402	24.9879
14.42	25.0199
14.438	25.0449
14.456	25.0609
14.474	25.0664
14.492	25.0609
14.51	25.0449
14.528	25.0198
14.546	24.988
14.564	24.9525
14.582	24.9165
14.6	24.8833
14.618	24.8559
14.636	24.8364
14.654	24.8258
14.672	24.8238
14.69	24.8293
14.708	24.8403
14.726	24.8541
14.744	24.8681
14.762	24.8801
14.78	24.8886
14.798	24.8933
14.816	24.8944
14.834	24.8934
14.852	24.8922
14.87	24.8932
14.888	24.8981
14.906	24.9081
14.924	24.9238
14.942	24.9449
14.96	24.9699
14.978	24.9967
14.996	25.0234
15.014	25.0474
15.032	25.0662
15.05	25.0778
15.068	25.0809
15.086	25.0744
15.104	25.0576
15.122	25.0307
15.14	24.9942
15.158	24.9494
15.176	24.8977
15.194	24.8413
15.212	24.7826
15.23	24.724
15.248	24.6679
15.266	24.6163
15.284	24.5709
15.302	24.5327
15.32	24.5018
15.338	24.4777
15.356	24.4595
15.374	24.4452
15.392	24.4332
15.41	24.4221
15.428	24.4102
15.446	24.3969
15.464	24.3819
15.482	24.3652
15.5	24.3474
15.518	24.3294
15.536	24.3121
15.554	24.296
15.572	24.2814
15.59	24.2682
15.608	24.2561
15.626	24.2448
15.644	24.2334
15.662	24.2216
15.68	24.2089
15.698	24.195
15.716	24.18
15.734	24.164
15.752	24.1471
15.77	24.1296
15.788	24.1117
15.806	24.0932
15.824	24.0737
15.842	24.053
15.86	24.0304
15.878	24.0054
15.896	23.9778
15.914	23.9477
15.932	23.9155
15.95	23.882
15.968	23.8482
15.986	23.816
16.004	23.7865
16.022	23.7613
16.04	23.7416
16.058	23.7281
16.076	23.7209
16.094	23.7202
16.112	23.725
16.13	23.7343
16.148	23.7466
16.166	23.7599
16.184	23.7726
16.202	23.783
16.22	23.7895
16.238	23.7915
16.256	23.7879
16.274	23.7793
16.292	23.7665
16.31	23.7503
16.328	23.7334
16.346	23.7177
16.364	23.7049
16.382	23.6979
16.4	23.6977
16.418	23.7052
16.436	23.7207
16.454	23.7432
16.472	23.7718
16.49	23.8038
16.508	23.8364
16.526	23.8676
16.544	23.8937
16.562	23.9125
16.58	23.9222
16.598	23.9207
16.616	23.9077
16.634	23.8828
16.652	23.8468
16.67	23.8008
16.688	23.7458
16.706	23.684
16.724	23.6165
16.742	23.5447
16.76	23.4703
16.778	23.3942
16.796	23.3173
16.814	23.2404
16.832	23.164
16.85	23.0887
16.868	23.0151
16.886	22.9439
16.904	22.8764
16.922	22.8132
16.94	22.7554
16.958	22.7046
16.976	22.6613
16.994	22.6266
17.012	22.6009
17.03	22.5845
17.048	22.5771
17.066	22.5783
17.084	22.5874
17.102	22.6026
17.12	22.6231
17.138	22.6466
17.156	22.6718
17.174	22.6973
17.192	22.721
17.21	22.7421
17.228	22.7592
17.246	22.7716
17.264	22.7786
17.282	22.7798
17.3	22.7751
17.318	22.7646
17.336	22.7485
17.354	22.7272
17.372	22.7016
17.39	22.6721
17.408	22.6399
17.426	22.6062
17.444	22.5718
17.462	22.5385
17.48	22.507
17.498	22.4791
17.516	22.4559
17.534	22.4381
17.552	22.4271
17.57	22.4229
17.588	22.426
17.606	22.4359
17.624	22.4524
17.642	22.4739
17.66	22.4999
17.678	22.528
17.696	22.5574
17.714	22.5855
17.732	22.611
17.75	22.6324
17.768	22.6482
17.786	22.6576
17.804	22.6599
17.822	22.6551
17.84	22.6434
17.858	22.6254
17.876	22.6017
17.894	22.5741
17.912	22.5429
17.93	22.5105
17.948	22.4771
17.966	22.4448
17.984	22.414
18.002	22.386
18.02	22.3611
18.038	22.3399
18.056	22.3223
18.074	22.3086
18.092	22.2982
18.11	22.2911
18.128	22.2866
18.146	22.2845
18.164	22.284
18.182	22.2848
18.2	22.2865
18.218	22.2886
18.236	22.291
18.254	22.2932
18.272	22.2951
18.29	22.2965
18.308	22.2974
18.326	22.2971
18.344	22.2957
18.362	22.2924
18.38	22.2869
18.398	22.2785
18.416	22.2666
18.434	22.2506
18.452	22.2297
18.47	22.2034
18.488	22.1712
18.506	22.1329
18.524	22.0887
18.542	22.0384
18.56	21.983
18.578	21.9226
18.596	21.859
18.614	21.7923
18.632	21.7254
18.65	21.6585
18.668	21.5944
18.686	21.5333
18.704	21.4777
18.722	21.4278
18.74	21.3853
18.758	21.3498
18.776	21.3222
18.794	21.3019
18.812	21.2884
18.83	21.2809
18.848	21.2778
18.866	21.2784
18.884	21.2807
18.902	21.2839
18.92	21.2863
18.938	21.2874
18.956	21.2858
18.974	21.2816
18.992	21.2741
19.01	21.2639
19.028	21.2509
19.046	21.2361
19.064	21.2203
19.082	21.2042
19.1	21.1892
19.118	21.1758
19.136	21.1656
19.154	21.1587
19.172	21.1565
19.19	21.1587
19.208	21.1659
19.226	21.1779
19.244	21.1945
19.262	21.2152
19.28	21.2389
19.298	21.2653
19.316	21.2923
19.334	21.32
19.352	21.3456
19.37	21.3691
19.388	21.3879
19.406	21.4021
19.424	21.4094
19.442	21.4098
19.46	21.4022
19.478	21.3863
19.496	21.3624
19.514	21.33
19.532	21.2903
19.55	21.2434
19.568	21.1906
19.586	21.1329
19.604	21.0712
19.622	21.0076
19.64	20.9423
19.658	20.8778
19.676	20.814
19.694	20.7533
19.712	20.6954
19.73	20.6419
19.748	20.5928
19.766	20.5485
19.784	20.5092
19.802	20.4746
19.82	20.4445
19.838	20.4184
19.856	20.3958
19.874	20.3764
19.892	20.359
19.91	20.3439
19.928	20.33
19.946	20.3172
19.964	20.3051
19.982	20.2936
20	20.2827
20.018	20.2725
20.036	20.2633
20.054	20.2554
20.072	20.249
20.09	20.2449
20.108	20.243
20.126	20.2442
20.144	20.2486
20.162	20.2565
20.18	20.2683
20.198	20.2837
20.216	20.3027
20.234	20.3252
20.252	20.3502
20.27	20.3779
20.288	20.4067
20.306	20.437
20.324	20.4669
20.342	20.4958
20.36	20.5231
20.378	20.547
20.396	20.5677
20.414	20.583
20.432	20.5932
20.45	20.597
20.468	20.5939
20.486	20.5839
20.504	20.5663
20.522	20.5414
20.54	20.5096
20.558	20.4706
20.576	20.4258
20.594	20.3753
20.612	20.32
20.63	20.2617
20.648	20.2001
20.666	20.1378
20.684	20.0746
20.702	20.0124
20.72	19.9524
20.738	19.8948
20.756	19.8414
20.774	19.792
20.792	19.7476
20.81	19.7088
20.828	19.6753
20.846	19.6473
20.864	19.6247
20.882	19.6067
20.9	19.5935
20.918	19.5838
20.936	19.5769
20.954	19.5729
20.972	19.5696
20.99	19.5677
21.008	19.5656
21.026	19.5627
21.044	19.5592
21.062	19.5538
21.08	19.5469
21.098	19.5383
21.116	19.5279
21.134	19.5161
21.152	19.5035
21.17	19.4899
21.188	19.477
21.206	19.4647
21.224	19.454
21.242	19.4467
21.26	19.442
21.278	19.442
21.296	19.4469
21.314	19.4569
21.332	19.4731
21.35	19.4951
21.368	19.523
21.386	19.5571
21.404	19.5968
21.422	19.6412
21.44	19.6907
21.458	19.7434
21.476	19.7985
21.494	19.8559
21.512	19.9127
21.53	19.9696
21.548	20.0246
21.566	20.0763
21.584	20.1252
21.602	20.1692
21.62	20.2082
21.638	20.242
21.656	20.2695
21.674	20.2911
21.692	20.3068
21.71	20.3162
21.728	20.3199
21.746	20.3189
21.764	20.3126
21.782	20.3023
21.8	20.2889
21.818	20.272
21.836	20.2535
21.854	20.2334
21.872	20.2121
21.89	20.1909
21.908	20.1696
21.926	20.1487
21.944	20.1288
21.962	20.1097
21.98	20.0917
21.998	20.0749
22.016	20.0591
22.034	20.0444
22.052	20.0307
22.07	20.0179
22.088	20.0056
22.106	19.9939
22.124	19.9827
22.142	19.9719
22.16	19.9615
22.178	19.9513
22.196	19.9413
22.214	19.9316
22.232	19.922
22.25	19.9127
22.268	19.9035
22.286	19.8943
22.304	19.8851
22.322	19.8755
22.34	19.8656
22.358	19.8553
22.376	19.8437
22.394	19.8311
22.412	19.817
22.43	19.8004
22.448	19.7816
22.466	19.7602
22.484	19.7355
22.502	19.7079
22.52	19.6769
22.538	19.6423
22.556	19.6043
22.574	19.5632
22.592	19.5188
22.61	19.4713
22.628	19.4213
22.646	19.3686
22.664	19.3137
22.682	19.2573
22.7	19.1993
22.718	19.14
22.736	19.0803
22.754	19.0198
22.772	18.9588
22.79	18.8976
22.808	18.8361
22.826	18.7743
22.844	18.7122
22.862	18.6498
22.88	18.5867
22.898	18.5228
22.916	18.4582
22.934	18.3926
22.952	18.3258
22.97	18.2581
22.988	18.1898
23.006	18.1205
23.024	18.0506
23.042	17.9812
23.06	17.9119
23.078	17.8431
23.096	17.7767
23.114	17.7123
23.132	17.6504
23.15	17.593
23.168	17.5399
23.186	17.4914
23.204	17.4492
23.222	17.4133
23.24	17.3836
23.258	17.3611
23.276	17.3458
23.294	17.3374
23.312	17.336
23.33	17.3419
23.348	17.3545
23.366	17.3721
23.384	17.3955
23.402	17.4237
23.42	17.4536
23.438	17.4856
23.456	17.5192
23.474	17.5508
23.492	17.5802
23.51	17.6077
23.528	17.6299
23.546	17.6461
23.564	17.657
23.582	17.6605
23.6	17.6553
23.618	17.6425
23.636	17.6214
23.654	17.5916
23.672	17.5533
23.69	17.5072
23.708	17.4535
23.726	17.3919
23.744	17.3237
23.762	17.25
23.78	17.1697
23.798	17.0847
23.816	16.9969
23.834	16.905
23.852	16.8105
23.87	16.716
23.888	16.6207
23.906	16.525
23.924	16.4303
23.942	16.337
23.96	16.2445
23.978	16.1532
23.996	16.0633
24.014	15.9747
24.032	15.8872
24.05	15.8006
24.068	15.7152
24.086	15.6307
24.104	15.547
24.122	15.4642
24.14	15.3821
24.158	15.3006
24.176	15.2194
24.194	15.1389
24.212	15.0597
24.23	14.9817
24.248	14.9047
24.266	14.8301
24.284	14.7583
24.302	14.6883
24.32	14.6222
24.338	14.5615
24.356	14.5047
24.374	14.4537
24.392	14.4112
24.41	14.3765
24.428	14.3498
24.446	14.3335
24.464	14.3285
24.482	14.3336
24.5	14.3507
24.518	14.3817
24.536	14.4261
24.554	14.4831
24.572	14.5524
24.59	14.6353
24.608	14.7305
24.626	14.8345
24.644	14.9465
24.662	15.0688
24.68	15.1952
24.698	15.3204
24.716	15.4492
24.734	15.5769
24.752	15.6957
24.77	15.8064
24.788	15.9104
24.806	15.9998
24.824	16.0693
24.842	16.1241
24.86	16.1593
24.878	16.1682
24.896	16.1519
24.914	16.1114
24.932	16.0437
24.95	15.9465
24.968	15.8211
24.986	15.6692
25.004	15.4926
25.022	15.2881
25.04	15.059
25.058	14.8118
25.076	14.5482
25.094	14.2641
25.112	13.968
25.13	13.668
25.148	13.3575
25.166	13.0411
25.184	12.7305
25.202	12.4299
25.22	12.132
25.238	11.8472
25.256	11.5866
25.274	11.3439
25.292	11.1215
25.31	10.9299
25.328	10.7751
25.346	10.65
25.364	10.5604
25.382	10.5139
25.4	10.5088
25.418	10.5439
25.436	10.6235
25.454	10.7511
25.472	10.9246
25.49	11.1436
25.508	11.4082
25.526	11.7203
25.544	12.0792
25.562	12.4797
25.58	12.9175
25.598	13.3981
25.616	13.9169
25.634	14.4637
25.652	15.034
25.67	15.6372
25.688	16.2604
25.706	16.8885
25.724	17.5238
25.742	18.1714
25.76	18.8135
25.778	19.4341
25.796	20.0448
25.814	20.6408
25.832	21.2067
25.85	21.7326
25.868	22.2299
25.886	22.6909
25.904	23.1051
25.922	23.47
25.94	23.7916
25.958	24.0643
25.976	24.2823
25.994	24.4451
26.012	24.5555
26.03	24.615
26.048	24.6242
26.066	24.5789
26.084	24.4845
26.102	24.3488
26.12	24.1756
26.138	23.9558
26.156	23.7008
26.174	23.4239
26.192	23.1274
26.21	22.8012
26.228	22.4615
26.246	22.1253
26.264	21.7895
26.282	21.4479
26.3	21.1173
26.318	20.8141
26.336	20.5306
26.354	20.2657
26.372	20.0325
26.39	19.8431
26.408	19.6901
26.426	19.5742
26.444	19.5026
26.462	19.4819
26.48	19.5086
26.498	19.5817
26.516	19.7016
26.534	19.8696
26.552	20.0876
26.57	20.3511
26.588	20.6552
26.606	20.9975
26.624	21.3841
26.642	21.808
26.66	22.2603
26.678	22.7373
26.696	23.2474
26.714	23.7821
26.732	24.3311
26.75	24.8902
26.768	25.4678
26.786	26.0565
26.804	26.6479
26.822	27.2381
26.84	27.8344
26.858	28.431
26.876	29.0207
26.894	29.601
26.912	30.1781
26.93	30.7464
26.948	31.2995
26.966	31.8535
26.984	32.4417
27.002	32.9894
27.02	33.415
27.028	33.5304