File: Bakgrunnsmateriale/MATLAB/FTIR/ftir_data/LPE453/Mapping_121/LPE453_t24.asc
PE IR       SPECTRUM    SPECTRUM    ASCII       PEDS        1.60
  -1
LPDB99~1.ASC
17/05/16
16:21:52.00
17/05/16
16:22:19.00
tln
$LPE453_t0024$<tbV0>[10.4,-7.8,8.0,0.0,27,1,0]
27.028
64

2002,4.07
MIRTGS : RIGHTBACK : INTERNAL 2
MIR : ON : INTERNAL 2
OPTKBR

0.200000
8
8.000000
FILLER
RATIO
SPECTRUM
UNLOCKED 256

DOUBLE
64
COMBINED
1
0
0

0.002000
RATIO

1
0
TRUE
51149
0
LEFT NOT FITTED RIGHT NOT FITTED 0
NONE
NONE
15600
12
4.427000
51148
TRUE
1 0 8 72 0 0 0 0

15798

#HDR
-1
-1
#GR
µM
%T
2.38419e-05
0.0
2.000000
0.002000
12515
8
39.1874
-2.198343
#DATA
2.000000	 -0.007224
2.018000	 0.294162
2.036000	 -0.127586
2.054000	 0.238710
2.072000	 0.414293
2.090000	 -0.031688
2.108000	 -0.252345
2.126000	 0.318725
2.144000	 0.611199
2.162000	 0.778840
2.180000	 1.038628
2.198000	 -0.458531
2.216000	 13.4711
2.234000	 0.020275
2.252000	 -0.850886
2.270000	 0.099412
2.288000	 -0.039439
2.306000	 0.124697
2.324000	 0.150968
2.342000	 0.278726
2.360000	 0.301096
2.378000	 0.248818
2.396000	 -0.682364
2.414000	 0.138261
2.432000	 0.333674
2.450000	 -0.063003
2.468000	 0.043726
2.486000	 -0.108128
2.504000	 0.116379
2.522000	 0.143517
2.540000	 0.159829
2.558000	 -0.086497
2.576000	 -0.024087
2.594000	 0.080393
2.612000	 -0.068931
2.630000	 0.067349
2.648000	 0.189845
2.666000	 0.134714
2.684000	 -0.147710
2.702000	 0.146397
2.720000	 0.129824
2.738000	 0.151556
2.756000	 0.032544
2.774000	 0.007667
2.792000	 0.057070
2.810000	 0.244838
2.828000	 0.189126
2.846000	 0.282737
2.864000	 -0.024757
2.882000	 0.058194
2.900000	 -0.026174
2.918000	 -0.133408
2.936000	 0.008288
2.954000	 0.083013
2.972000	 -0.071293
2.990000	 0.115230
3.008000	 0.137691
3.026000	 0.073805
3.044000	 0.043506
3.062000	 0.214719
3.080000	 -0.061256
3.098000	 0.099804
3.116000	 0.031966
3.134000	 0.147005
3.152000	 0.066863
3.170000	 -0.120081
3.188000	 0.098287
3.206000	 -0.105906
3.224000	 0.184304
3.242000	 0.044968
3.260000	 -0.006723
3.278000	 0.003658
3.296000	 -0.004552
3.314000	 0.032058
3.332000	 -0.000064
3.350000	 0.090960
3.368000	 0.040289
3.386000	 0.026679
3.404000	 0.083187
3.422000	 0.177731
3.440000	 -0.056917
3.458000	 -0.034301
3.476000	 0.124107
3.494000	 -0.049012
3.512000	 0.123670
3.530000	 0.049299
3.548000	 0.028890
3.566000	 0.034999
3.584000	 -0.031117
3.602000	 0.055479
3.620000	 0.019857
3.638000	 -0.002475
3.656000	 -0.039611
3.674000	 0.015274
3.692000	 0.107665
3.710000	 0.067574
3.728000	 -0.074615
3.746000	 -0.015161
3.764000	 0.150224
3.782000	 0.125753
3.800000	 0.042475
3.818000	 0.030093
3.836000	 -0.036154
3.854000	 -0.004966
3.872000	 0.017905
3.890000	 0.012284
3.908000	 0.114237
3.926000	 0.084887
3.944000	 -0.005564
3.962000	 0.174715
3.980000	 0.139502
3.998000	 0.245550
4.016000	 0.099375
4.034000	 0.103568
4.052000	 0.051117
4.070000	 -0.001134
4.088000	 -0.057851
4.106000	 -0.091954
4.124000	 0.183033
4.141999	 0.137714
4.160000	 -0.038330
4.178000	 -0.100690
4.196000	 -0.040251
4.214000	 -0.102098
4.232000	 0.023225
4.250000	 0.103719
4.268000	 -0.149907
4.286000	 0.004747
4.304000	 0.045870
4.322000	 0.135589
4.340000	 0.103745
4.358000	 0.162344
4.375999	 0.012562
4.394000	 0.233006
4.412000	 0.297538
4.430000	 0.370236
4.448000	 0.527740
4.466000	 0.692072
4.484000	 0.869818
4.502000	 1.074218
4.520000	 1.334029
4.538000	 1.569777
4.556000	 1.802632
4.574000	 2.352746
4.592000	 2.724745
4.609999	 3.066305
4.628000	 3.733769
4.646000	 4.377514
4.664000	 4.935169
4.682000	 5.471903
4.700000	 6.188957
4.718000	 7.045652
4.736000	 7.872570
4.754000	 8.564231
4.772000	 9.449613
4.790000	 10.3917
4.808000	 10.9879
4.826000	 11.7462
4.843999	 12.4819
4.862000	 13.1513
4.880000	 13.9567
4.898000	 14.7943
4.916000	 15.5904
4.934000	 16.1126
4.952000	 16.9286
4.970000	 17.6231
4.988000	 18.2109
5.006000	 18.8445
5.024000	 19.4047
5.042000	 19.9336
5.060000	 20.4825
5.077999	 20.8788
5.096000	 21.2795
5.114000	 21.7834
5.132000	 22.1449
5.150000	 22.5585
5.168000	 22.96
5.186000	 23.3576
5.204000	 23.7236
5.222000	 23.9937
5.240000	 24.2521
5.258000	 24.608
5.276000	 24.861
5.294000	 25.025
5.312000	 25.2596
5.330000	 25.5335
5.348000	 25.823
5.366000	 25.9604
5.384000	 26.0647
5.402000	 26.2726
5.420000	 26.4697
5.438000	 26.5981
5.456000	 26.7191
5.474000	 26.8727
5.492000	 27.0178
5.510000	 27.2322
5.528000	 27.2487
5.546000	 27.1892
5.564000	 27.2915
5.582000	 27.5286
5.600000	 27.5906
5.618000	 27.6454
5.636000	 27.7218
5.654000	 27.8385
5.672000	 27.8875
5.690000	 27.8538
5.708000	 27.8435
5.726000	 27.864
5.744000	 27.95
5.762000	 27.9917
5.780000	 28.1246
5.798000	 28.2573
5.816000	 28.2728
5.834000	 28.3431
5.852000	 28.3869
5.870000	 28.3978
5.888000	 28.2847
5.906000	 28.3001
5.923999	 28.3507
5.942000	 28.349
5.960000	 28.4073
5.978000	 28.393
5.996000	 28.3897
6.014000	 28.4943
6.032000	 28.484
6.050000	 28.4136
6.068000	 28.4433
6.086000	 28.5285
6.104000	 28.5484
6.122000	 28.565
6.140000	 28.6046
6.158000	 28.5588
6.176000	 28.5382
6.194000	 28.5701
6.212000	 28.5717
6.230000	 28.5958
6.248000	 28.5779
6.266000	 28.5205
6.284000	 28.5108
6.302000	 28.5343
6.320000	 28.5344
6.338000	 28.5458
6.356000	 28.5824
6.374000	 28.6294
6.392000	 28.6617
6.410000	 28.6121
6.428000	 28.5775
6.446000	 28.6117
6.464000	 28.5771
6.482000	 28.4736
6.500000	 28.4435
6.518000	 28.4732
6.536000	 28.4895
6.554000	 28.5526
6.572000	 28.6124
6.590000	 28.5683
6.608000	 28.4946
6.626000	 28.44
6.644000	 28.446
6.662000	 28.5046
6.680000	 28.501
6.698000	 28.4446
6.716000	 28.4302
6.734000	 28.4257
6.752000	 28.3792
6.770000	 28.3583
6.788000	 28.4201
6.806000	 28.4961
6.824000	 28.5194
6.842000	 28.5084
6.860000	 28.4549
6.878000	 28.3585
6.896000	 28.3213
6.914000	 28.3514
6.932000	 28.3579
6.950000	 28.3611
6.968000	 28.372
6.986000	 28.3327
7.004000	 28.3111
7.022000	 28.3641
7.040000	 28.3935
7.058000	 28.3802
7.076000	 28.3986
7.094000	 28.3974
7.112000	 28.3145
7.130000	 28.2467
7.148000	 28.256
7.166000	 28.2871
7.184000	 28.29
7.202000	 28.2497
7.220000	 28.2101
7.238000	 28.2125
7.256000	 28.2357
7.274000	 28.2565
7.292000	 28.2646
7.310000	 28.2773
7.328000	 28.2922
7.346000	 28.2531
7.364000	 28.1726
7.382000	 28.1243
7.400000	 28.1177
7.418000	 28.1324
7.436000	 28.1574
7.454000	 28.1726
7.472000	 28.166
7.490000	 28.1432
7.508000	 28.118
7.526000	 28.1015
7.544000	 28.1057
7.562000	 28.1424
7.580000	 28.1877
7.598000	 28.1969
7.616000	 28.1713
7.634000	 28.1356
7.652000	 28.0986
7.670000	 28.0689
7.688000	 28.0478
7.706000	 28.0085
7.724000	 27.9394
7.742000	 27.8757
7.760000	 27.8687
7.778000	 27.9237
7.796000	 27.9781
7.814000	 27.9738
7.832000	 27.928
7.850000	 27.8906
7.868000	 27.8692
7.886000	 27.8416
7.904000	 27.8042
7.922000	 27.7753
7.940000	 27.7704
7.958000	 27.7896
7.976000	 27.8155
7.994000	 27.8175
8.012000	 27.7746
8.030000	 27.7082
8.048000	 27.6724
8.065999	 27.6979
8.084000	 27.7638
8.102000	 27.8296
8.120000	 27.87
8.138000	 27.8692
8.155999	 27.8194
8.173999	 27.7456
8.192000	 27.6995
8.210000	 27.7015
8.228000	 27.7161
8.246000	 27.7036
8.263999	 27.668
8.282000	 27.6327
8.300000	 27.6044
8.318000	 27.5804
8.336000	 27.566
8.353999	 27.5707
8.372000	 27.5917
8.390000	 27.6073
8.408000	 27.5999
8.426000	 27.581
8.443999	 27.579
8.462000	 27.6036
8.480000	 27.6366
8.498000	 27.6612
8.516000	 27.6832
8.533999	 27.7119
8.552000	 27.7367
8.570000	 27.7287
8.588000	 27.6685
8.606000	 27.5683
8.624000	 27.4662
8.641999	 27.3982
8.660000	 27.3772
8.678000	 27.3892
8.696000	 27.4074
8.714000	 27.411
8.731999	 27.3982
8.750000	 27.3851
8.768000	 27.387
8.786000	 27.4008
8.804000	 27.4113
8.821999	 27.4088
8.840000	 27.389
8.858000	 27.3464
8.876000	 27.278
8.894000	 27.1966
8.911999	 27.1266
8.930000	 27.0847
8.948000	 27.0687
8.966000	 27.0688
8.984000	 27.0821
9.001999	 27.1113
9.020000	 27.152
9.038000	 27.1879
9.056000	 27.1997
9.074000	 27.1763
9.092000	 27.1175
9.109999	 27.0341
9.128000	 26.9469
9.146000	 26.8792
9.164000	 26.8438
9.182000	 26.8323
9.199999	 26.8232
9.218000	 26.8003
9.236000	 26.7683
9.254000	 26.7493
9.272000	 26.762
9.289999	 26.8019
9.308000	 26.8397
9.326000	 26.8416
9.344000	 26.7971
9.362000	 26.7292
9.379999	 26.6767
9.398000	 26.6657
9.416000	 26.6918
9.434000	 26.7291
9.452000	 26.7534
9.469999	 26.7624
9.488000	 26.7749
9.506000	 26.8068
9.524000	 26.8504
9.542000	 26.8796
9.560000	 26.8752
9.577999	 26.8436
9.596000	 26.8093
9.614000	 26.7925
9.632000	 26.7913
9.650000	 26.7843
9.667999	 26.7498
9.686000	 26.6871
9.704000	 26.6204
9.722000	 26.5842
9.740000	 26.5983
9.757999	 26.6523
9.776000	 26.7124
9.794000	 26.7468
9.812000	 26.7469
9.830000	 26.7249
9.847999	 26.6947
9.866000	 26.6602
9.884000	 26.6198
9.902000	 26.5761
9.920000	 26.5378
9.937999	 26.5112
9.956000	 26.4923
9.974000	 26.4703
9.992000	 26.4397
10.01	26.4064
10.028	26.3826
10.046	26.3753
10.064	26.3808
10.082	26.3883
10.1	26.3866
10.118	26.3689
10.136	26.3342
10.154	26.2879
10.172	26.2389
10.19	26.1961
10.208	26.1636
10.226	26.1379
10.244	26.1104
10.262	26.076
10.28	26.0389
10.298	26.01
10.316	25.9985
10.334	26.0031
10.352	26.0122
10.37	26.0124
10.388	26
10.406	25.9836
10.424	25.979
10.442	25.9969
10.46	26.0344
10.478	26.0761
10.496	26.1017
10.514	26.0967
10.532	26.059
10.55	25.9996
10.568	25.9363
10.586	25.8876
10.604	25.8637
10.622	25.8633
10.64	25.8726
10.658	25.8721
10.676	25.8441
10.694	25.7824
10.712	25.6949
10.73	25.5999
10.748	25.5178
10.766	25.4636
10.784	25.4416
10.802	25.447
10.82	25.4693
10.838	25.4959
10.856	25.5162
10.874	25.522
10.892	25.5085
10.91	25.4744
10.928	25.4224
10.946	25.3589
10.964	25.2923
10.982	25.2317
11	25.1854
11.018	25.1592
11.036	25.1559
11.054	25.1745
11.072	25.2104
11.09	25.2538
11.108	25.2936
11.126	25.3182
11.144	25.3191
11.162	25.2937
11.18	25.2464
11.198	25.1864
11.216	25.1239
11.234	25.0657
11.252	25.0137
11.27	24.9657
11.288	24.918
11.306	24.8695
11.324	24.8232
11.342	24.7849
11.36	24.7603
11.378	24.7528
11.396	24.7621
11.414	24.785
11.432	24.8176
11.45	24.8561
11.468	24.8957
11.486	24.9302
11.504	24.9508
11.522	24.9487
11.54	24.9191
11.558	24.8643
11.576	24.7941
11.594	24.7222
11.612	24.663
11.63	24.626
11.648	24.6128
11.666	24.6178
11.684	24.6305
11.702	24.6408
11.72	24.6409
11.738	24.6288
11.756	24.6071
11.774	24.5815
11.792	24.5574
11.81	24.5381
11.828	24.5236
11.846	24.5124
11.864	24.5017
11.882	24.4898
11.9	24.4773
11.918	24.4666
11.936	24.4601
11.954	24.4596
11.972	24.4638
11.99	24.4688
12.008	24.4677
12.026	24.453
12.044	24.4188
12.062	24.3633
12.08	24.2898
12.098	24.2059
12.116	24.1229
12.134	24.052
12.152	24.0012
12.17	23.9732
12.188	23.9655
12.206	23.9703
12.224	23.9768
12.242	23.9751
12.26	23.9576
12.278	23.9222
12.296	23.8729
12.314	23.8187
12.332	23.7714
12.35	23.7413
12.368	23.7357
12.386	23.7559
12.404	23.7966
12.422	23.8469
12.44	23.8939
12.458	23.9249
12.476	23.9307
12.494	23.9072
12.512	23.8567
12.53	23.7865
12.548	23.7074
12.566	23.6306
12.584	23.5652
12.602	23.5157
12.62	23.4824
12.638	23.4608
12.656	23.4434
12.674	23.4223
12.692	23.3923
12.71	23.3517
12.728	23.3039
12.746	23.2557
12.764	23.2154
12.782	23.19
12.8	23.1834
12.818	23.195
12.836	23.2205
12.854	23.2531
12.872	23.2855
12.89	23.3111
12.908	23.3256
12.926	23.3271
12.944	23.3162
12.962	23.2964
12.98	23.2728
12.998	23.2513
13.016	23.2377
13.034	23.2362
13.052	23.2491
13.07	23.2756
13.088	23.312
13.106	23.3529
13.124	23.3916
13.142	23.4231
13.16	23.4447
13.178	23.457
13.196	23.4636
13.214	23.469
13.232	23.478
13.25	23.4929
13.268	23.5128
13.286	23.5342
13.304	23.5518
13.322	23.5607
13.34	23.5573
13.358	23.5411
13.376	23.514
13.394	23.4797
13.412	23.4428
13.43	23.4066
13.448	23.3729
13.466	23.341
13.484	23.309
13.502	23.2741
13.52	23.2344
13.538	23.1894
13.556	23.1402
13.574	23.0896
13.592	23.0407
13.61	22.9958
13.628	22.9561
13.646	22.9212
13.664	22.889
13.682	22.8567
13.7	22.8211
13.718	22.7797
13.736	22.7318
13.754	22.6777
13.772	22.6196
13.79	22.5605
13.808	22.504
13.826	22.4533
13.844	22.4112
13.862	22.3788
13.88	22.3565
13.898	22.3433
13.916	22.3376
13.934	22.3373
13.952	22.3402
13.97	22.3444
13.988	22.3479
14.006	22.3494
14.024	22.3477
14.042	22.3417
14.06	22.3304
14.078	22.3126
14.096	22.2873
14.114	22.2532
14.132	22.2101
14.15	22.1587
14.168	22.1005
14.186	22.0388
14.204	21.9778
14.222	21.9228
14.24	21.8784
14.258	21.8488
14.276	21.8365
14.294	21.8423
14.312	21.865
14.33	21.9019
14.348	21.9492
14.366	22.002
14.384	22.0559
14.402	22.1071
14.42	22.1526
14.438	22.1904
14.456	22.2192
14.474	22.2384
14.492	22.2479
14.51	22.2474
14.528	22.2367
14.546	22.2155
14.564	22.1839
14.582	22.1424
14.6	22.0921
14.618	22.0349
14.636	21.9735
14.654	21.911
14.672	21.8506
14.69	21.7951
14.708	21.7472
14.726	21.7085
14.744	21.68
14.762	21.6616
14.78	21.6524
14.798	21.6511
14.816	21.656
14.834	21.6655
14.852	21.678
14.87	21.6922
14.888	21.7071
14.906	21.7215
14.924	21.7342
14.942	21.7438
14.96	21.7478
14.978	21.7436
14.996	21.7282
15.014	21.6984
15.032	21.6509
15.05	21.5839
15.068	21.4974
15.086	21.3929
15.104	21.2736
15.122	21.1456
15.14	21.0161
15.158	20.8926
15.176	20.7824
15.194	20.6925
15.212	20.6284
15.23	20.5918
15.248	20.5829
15.266	20.5995
15.284	20.6366
15.302	20.6873
15.32	20.7451
15.338	20.8036
15.356	20.8564
15.374	20.8986
15.392	20.9284
15.41	20.9449
15.428	20.9488
15.446	20.9432
15.464	20.9311
15.482	20.9155
15.5	20.8995
15.518	20.8857
15.536	20.8748
15.554	20.867
15.572	20.8617
15.59	20.857
15.608	20.8513
15.626	20.8431
15.644	20.8309
15.662	20.8141
15.68	20.7932
15.698	20.7687
15.716	20.7424
15.734	20.7163
15.752	20.6918
15.77	20.6705
15.788	20.6535
15.806	20.6405
15.824	20.6312
15.842	20.6243
15.86	20.6179
15.878	20.6104
15.896	20.6003
15.914	20.5857
15.932	20.5662
15.95	20.5418
15.968	20.5129
15.986	20.4805
16.004	20.4456
16.022	20.4091
16.04	20.3722
16.058	20.3352
16.076	20.2987
16.094	20.263
16.112	20.228
16.13	20.1939
16.148	20.1606
16.166	20.1284
16.184	20.0976
16.202	20.0688
16.22	20.043
16.238	20.0208
16.256	20.0028
16.274	19.9896
16.292	19.9812
16.31	19.9779
16.328	19.9791
16.346	19.9838
16.364	19.9913
16.382	19.9998
16.4	20.0081
16.418	20.0153
16.436	20.0198
16.454	20.0208
16.472	20.0176
16.49	20.0098
16.508	19.9972
16.526	19.9802
16.544	19.959
16.562	19.9346
16.58	19.9074
16.598	19.879
16.616	19.8502
16.634	19.8219
16.652	19.7958
16.67	19.7725
16.688	19.7529
16.706	19.7376
16.724	19.7263
16.742	19.7189
16.76	19.7145
16.778	19.7125
16.796	19.7118
16.814	19.711
16.832	19.7093
16.85	19.7054
16.868	19.6989
16.886	19.6894
16.904	19.6765
16.922	19.6604
16.94	19.641
16.958	19.6184
16.976	19.5924
16.994	19.5631
17.012	19.53
17.03	19.4928
17.048	19.4506
17.066	19.4032
17.084	19.3496
17.102	19.2897
17.12	19.2233
17.138	19.1506
17.156	19.0729
17.174	18.9907
17.192	18.9068
17.21	18.8223
17.228	18.7401
17.246	18.6624
17.264	18.5907
17.282	18.528
17.3	18.4746
17.318	18.4321
17.336	18.4002
17.354	18.3791
17.372	18.3676
17.39	18.3651
17.408	18.3701
17.426	18.3812
17.444	18.3974
17.462	18.417
17.48	18.4397
17.498	18.464
17.516	18.49
17.534	18.5173
17.552	18.5455
17.57	18.5745
17.588	18.6042
17.606	18.6343
17.624	18.6647
17.642	18.6947
17.66	18.7241
17.678	18.752
17.696	18.7781
17.714	18.801
17.732	18.8203
17.75	18.8351
17.768	18.8445
17.786	18.8481
17.804	18.8453
17.822	18.8363
17.84	18.8208
17.858	18.799
17.876	18.7711
17.894	18.7377
17.912	18.699
17.93	18.6561
17.948	18.6094
17.966	18.56
17.984	18.5084
18.002	18.4557
18.02	18.4027
18.038	18.3502
18.056	18.2992
18.074	18.2503
18.092	18.2048
18.11	18.1627
18.128	18.1252
18.146	18.0924
18.164	18.0649
18.182	18.0427
18.2	18.026
18.218	18.0143
18.236	18.0075
18.254	18.0045
18.272	18.0051
18.29	18.0075
18.308	18.0114
18.326	18.0149
18.344	18.0176
18.362	18.0173
18.38	18.0136
18.398	18.005
18.416	17.991
18.434	17.9706
18.452	17.944
18.47	17.9109
18.488	17.8726
18.506	17.829
18.524	17.7827
18.542	17.7341
18.56	17.6863
18.578	17.6398
18.596	17.5982
18.614	17.5617
18.632	17.5339
18.65	17.5148
18.668	17.5067
18.686	17.5093
18.704	17.5233
18.722	17.5481
18.74	17.5824
18.758	17.6254
18.776	17.6746
18.794	17.7287
18.812	17.7842
18.83	17.8399
18.848	17.892
18.866	17.9394
18.884	17.9788
18.902	18.0096
18.92	18.0296
18.938	18.0387
18.956	18.0358
18.974	18.0217
18.992	17.9964
19.01	17.9611
19.028	17.9172
19.046	17.866
19.064	17.8094
19.082	17.749
19.1	17.6874
19.118	17.6257
19.136	17.5667
19.154	17.511
19.172	17.4613
19.19	17.4177
19.208	17.382
19.226	17.3543
19.244	17.3359
19.262	17.3265
19.28	17.3263
19.298	17.3349
19.316	17.3514
19.334	17.3758
19.352	17.4057
19.37	17.4412
19.388	17.4791
19.406	17.5196
19.424	17.5592
19.442	17.598
19.46	17.6324
19.478	17.6624
19.496	17.6855
19.514	17.7011
19.532	17.7079
19.55	17.705
19.568	17.6925
19.586	17.6698
19.604	17.6378
19.622	17.5971
19.64	17.5482
19.658	17.4932
19.676	17.4322
19.694	17.3683
19.712	17.3014
19.73	17.2346
19.748	17.1677
19.766	17.1032
19.784	17.0416
19.802	16.9834
19.82	16.9296
19.838	16.8797
19.856	16.8341
19.874	16.7924
19.892	16.7536
19.91	16.7179
19.928	16.6839
19.946	16.6517
19.964	16.6202
19.982	16.5891
20	16.5585
20.018	16.5277
20.036	16.4974
20.054	16.468
20.072	16.4398
20.09	16.4148
20.108	16.3927
20.126	16.3758
20.144	16.364
20.162	16.3592
20.18	16.3622
20.198	16.3732
20.216	16.3935
20.234	16.4227
20.252	16.4611
20.27	16.5086
20.288	16.5638
20.306	16.6269
20.324	16.6956
20.342	16.7688
20.36	16.8457
20.378	16.9229
20.396	17.0012
20.414	17.0762
20.432	17.1485
20.45	17.2155
20.468	17.2761
20.486	17.3299
20.504	17.3749
20.522	17.4115
20.54	17.439
20.558	17.4571
20.576	17.4663
20.594	17.4664
20.612	17.4579
20.63	17.4419
20.648	17.4182
20.666	17.3883
20.684	17.3522
20.702	17.3109
20.72	17.2654
20.738	17.2157
20.756	17.1631
20.774	17.1072
20.792	17.0495
20.81	16.9902
20.828	16.9295
20.846	16.8682
20.864	16.8062
20.882	16.7443
20.9	16.6824
20.918	16.621
20.936	16.5604
20.954	16.5008
20.972	16.443
20.99	16.3869
21.008	16.3331
21.026	16.2819
21.044	16.2333
21.062	16.188
21.08	16.1457
21.098	16.1068
21.116	16.0712
21.134	16.0389
21.152	16.0098
21.17	15.9838
21.188	15.9602
21.206	15.939
21.224	15.9198
21.242	15.9017
21.26	15.8848
21.278	15.8679
21.296	15.8507
21.314	15.8328
21.332	15.8129
21.35	15.7914
21.368	15.7673
21.386	15.7404
21.404	15.7107
21.422	15.6779
21.44	15.642
21.458	15.6032
21.476	15.5616
21.494	15.5173
21.512	15.4713
21.53	15.4233
21.548	15.3743
21.566	15.3248
21.584	15.2748
21.602	15.2259
21.62	15.178
21.638	15.1316
21.656	15.0876
21.674	15.0458
21.692	15.0072
21.71	14.9721
21.728	14.9405
21.746	14.9132
21.764	14.8899
21.782	14.8712
21.8	14.8575
21.818	14.8486
21.836	14.8446
21.854	14.8457
21.872	14.8517
21.89	14.8629
21.908	14.8793
21.926	14.9008
21.944	14.9276
21.962	14.9595
21.98	14.9964
21.998	15.0387
22.016	15.0857
22.034	15.1369
22.052	15.1924
22.07	15.2515
22.088	15.3136
22.106	15.379
22.124	15.4465
22.142	15.5162
22.16	15.5876
22.178	15.6593
22.196	15.7318
22.214	15.8041
22.232	15.8747
22.25	15.9445
22.268	16.0115
22.286	16.0747
22.304	16.1347
22.322	16.1891
22.34	16.2378
22.358	16.2806
22.376	16.3154
22.394	16.3427
22.412	16.3618
22.43	16.3716
22.448	16.3725
22.466	16.3642
22.484	16.3461
22.502	16.3185
22.52	16.282
22.538	16.2364
22.556	16.1819
22.574	16.1204
22.592	16.0514
22.61	15.9756
22.628	15.8958
22.646	15.8109
22.664	15.7225
22.682	15.6333
22.7	15.5421
22.718	15.4509
22.736	15.362
22.754	15.274
22.772	15.1894
22.79	15.1101
22.808	15.0349
22.826	14.9658
22.844	14.9044
22.862	14.8497
22.88	14.8023
22.898	14.7627
22.916	14.7306
22.934	14.7055
22.952	14.687
22.97	14.6754
22.988	14.6703
23.006	14.6718
23.024	14.6797
23.042	14.6928
23.06	14.7115
23.078	14.7353
23.096	14.7625
23.114	14.7935
23.132	14.8277
23.15	14.8623
23.168	14.8977
23.186	14.9335
23.204	14.967
23.222	14.9991
23.24	15.0287
23.258	15.0523
23.276	15.0711
23.294	15.0837
23.312	15.0862
23.33	15.0793
23.348	15.0624
23.366	15.0315
23.384	14.9871
23.402	14.9289
23.42	14.854
23.438	14.7618
23.456	14.6531
23.474	14.5273
23.492	14.3836
23.51	14.223
23.528	14.0476
23.546	13.8569
23.564	13.6512
23.582	13.4361
23.6	13.2127
23.618	12.9794
23.636	12.7443
23.654	12.5108
23.672	12.2751
23.69	12.0461
23.708	11.8293
23.726	11.62
23.744	11.4252
23.762	11.2517
23.78	11.0955
23.798	10.9598
23.816	10.8494
23.834	10.763
23.852	10.7001
23.87	10.6614
23.888	10.6485
23.906	10.6586
23.924	10.6872
23.942	10.736
23.96	10.8037
23.978	10.8826
23.996	10.9712
24.014	11.072
24.032	11.1756
24.05	11.2763
24.068	11.379
24.086	11.4775
24.104	11.5654
24.122	11.646
24.14	11.7174
24.158	11.7763
24.176	11.8214
24.194	11.8552
24.212	11.881
24.23	11.8968
24.248	11.9031
24.266	11.9094
24.284	11.9195
24.302	11.9275
24.32	11.9457
24.338	11.9857
24.356	12.039
24.374	12.1133
24.392	12.2217
24.41	12.3617
24.428	12.5329
24.446	12.7446
24.464	13.0014
24.482	13.2987
24.5	13.639
24.518	14.0249
24.536	14.4576
24.554	14.9317
24.572	15.4418
24.59	15.9925
24.608	16.58
24.626	17.1915
24.644	17.8235
24.662	18.4833
24.68	19.1539
24.698	19.82
24.716	20.4941
24.734	21.1653
24.752	21.8145
24.77	22.4425
24.788	23.0534
24.806	23.6306
24.824	24.1626
24.842	24.6593
24.86	25.1133
24.878	25.5146
24.896	25.8641
24.914	26.164
24.932	26.4115
24.95	26.6036
24.968	26.7412
24.986	26.8288
25.004	26.8707
25.022	26.862
25.04	26.8073
25.058	26.7169
25.076	26.5938
25.094	26.4317
25.112	26.2429
25.13	26.0396
25.148	25.8141
25.166	25.5709
25.184	25.3227
25.202	25.0748
25.22	24.8194
25.238	24.5663
25.256	24.326
25.274	24.0954
25.292	23.8739
25.31	23.6666
25.328	23.477
25.346	23.3028
25.364	23.1432
25.382	22.9979
25.4	22.8691
25.418	22.755
25.436	22.6506
25.454	22.5525
25.472	22.4652
25.49	22.384
25.508	22.3024
25.526	22.2195
25.544	22.1383
25.562	22.0536
25.58	21.9602
25.598	21.8594
25.616	21.7522
25.634	21.6376
25.652	21.514
25.67	21.3808
25.688	21.2416
25.706	21.1004
25.724	20.9544
25.742	20.8031
25.76	20.6558
25.778	20.5209
25.796	20.3895
25.814	20.2671
25.832	20.1671
25.85	20.0971
25.868	20.0457
25.886	20.0235
25.904	20.0443
25.922	20.1103
25.94	20.2138
25.958	20.365
25.976	20.5741
25.994	20.8394
26.012	21.1581
26.03	21.5331
26.048	21.9677
26.066	22.4633
26.084	23.0153
26.102	23.6187
26.12	24.2722
26.138	24.9837
26.156	25.7406
26.174	26.5278
26.192	27.3438
26.21	28.2
26.228	29.0759
26.246	29.9503
26.264	30.8287
26.282	31.7185
26.3	32.5943
26.318	33.4313
26.336	34.2431
26.354	35.0299
26.372	35.768
26.39	36.4356
26.408	37.0485
26.426	37.6031
26.444	38.082
26.462	38.4703
26.48	38.78
26.498	39.0083
26.516	39.1466
26.534	39.1871
26.552	39.1329
26.57	38.9883
26.588	38.7571
26.606	38.4394
26.624	38.0274
26.642	37.534
26.66	36.9743
26.678	36.3536
26.696	35.6547
26.714	34.8988
26.732	34.1101
26.75	33.2978
26.768	32.4388
26.786	31.5572
26.804	30.6809
26.822	29.8203
26.84	28.9504
26.858	28.095
26.876	27.2814
26.894	26.5207
26.912	25.7891
26.93	25.1062
26.948	24.4947
26.966	23.9647
26.984	23.4952
27.002	23.1024
27.02	22.8059
27.028	22.7205