File: Bakgrunnsmateriale/MATLAB/FTIR/ftir_data/LPE453/Mapping_121/LPE453_t14.asc
PE IR       SPECTRUM    SPECTRUM    ASCII       PEDS        1.60
  -1
LPD799~1.ASC
17/05/16
15:28:37.00
17/05/16
15:29:03.00
tln
$LPE453_t0014$<tbV0>[7.8,-10.4,8.0,0.0,27,1,0]
27.028
64

2002,4.07
MIRTGS : RIGHTBACK : INTERNAL 2
MIR : ON : INTERNAL 2
OPTKBR

0.200000
8
8.000000
FILLER
RATIO
SPECTRUM
UNLOCKED 256

DOUBLE
64
COMBINED
1
0
0

0.002000
RATIO

1
0
TRUE
51149
0
LEFT NOT FITTED RIGHT NOT FITTED 0
NONE
NONE
15600
12
4.427000
51148
TRUE
1 0 8 72 0 0 0 0

15798

#HDR
-1
-1
#GR
µM
%T
2.38419e-05
0.0
2.000000
0.002000
12515
8
32.4616
-6.658506
#DATA
2.000000	 -0.105190
2.018000	 0.176421
2.036000	 0.007937
2.054000	 0.099503
2.072000	 0.355759
2.090000	 -0.095182
2.108000	 0.212573
2.126000	 0.519039
2.144000	 0.339025
2.162000	 0.057804
2.180000	 0.341843
2.198000	 1.141702
2.216000	 7.004581
2.234000	 -0.520126
2.252000	 0.435646
2.270000	 0.544068
2.288000	 0.333279
2.306000	 -0.030865
2.324000	 -0.253519
2.342000	 0.069646
2.360000	 -0.139705
2.378000	 -0.077325
2.396000	 0.507308
2.414000	 -0.113819
2.432000	 0.271803
2.450000	 0.200978
2.468000	 -0.145450
2.486000	 0.039738
2.504000	 -0.125420
2.522000	 0.033797
2.540000	 0.253034
2.558000	 0.311498
2.576000	 0.167378
2.594000	 0.063892
2.612000	 0.000878
2.630000	 0.065783
2.648000	 0.029387
2.666000	 -0.012501
2.684000	 0.067310
2.702000	 0.094459
2.720000	 0.175801
2.738000	 0.027485
2.756000	 0.015960
2.774000	 0.156926
2.792000	 -0.145750
2.810000	 0.119792
2.828000	 0.074044
2.846000	 0.026563
2.864000	 0.005234
2.882000	 0.187574
2.900000	 -0.034746
2.918000	 -0.046948
2.936000	 0.173005
2.954000	 0.111655
2.972000	 -0.115238
2.990000	 -0.028417
3.008000	 0.101740
3.026000	 0.065857
3.044000	 0.129438
3.062000	 0.078597
3.080000	 -0.005613
3.098000	 -0.021012
3.116000	 -0.104132
3.134000	 0.205809
3.152000	 0.091393
3.170000	 0.105076
3.188000	 0.229711
3.206000	 0.036331
3.224000	 -0.117142
3.242000	 -0.007724
3.260000	 0.018376
3.278000	 0.031647
3.296000	 0.038389
3.314000	 0.000134
3.332000	 0.090848
3.350000	 0.124550
3.368000	 0.117903
3.386000	 -0.082786
3.404000	 0.022583
3.422000	 -0.069129
3.440000	 0.185466
3.458000	 0.037528
3.476000	 0.112762
3.494000	 0.194924
3.512000	 0.179955
3.530000	 0.082834
3.548000	 0.086068
3.566000	 0.030841
3.584000	 0.127728
3.602000	 -0.068478
3.620000	 -0.035719
3.638000	 0.019861
3.656000	 0.007458
3.674000	 0.002107
3.692000	 0.097634
3.710000	 0.016626
3.728000	 -0.022943
3.746000	 0.043001
3.764000	 0.120673
3.782000	 -0.046358
3.800000	 0.090519
3.818000	 -0.034922
3.836000	 0.210732
3.854000	 0.101992
3.872000	 0.076106
3.890000	 0.051024
3.908000	 0.059074
3.926000	 0.034129
3.944000	 -0.063687
3.962000	 -0.136470
3.980000	 -0.097618
3.998000	 0.266844
4.016000	 0.084186
4.034000	 0.027404
4.052000	 -0.049328
4.070000	 -0.001456
4.088000	 0.042857
4.106000	 0.080386
4.124000	 0.348370
4.141999	 0.190194
4.160000	 0.198754
4.178000	 0.098750
4.196000	 0.021428
4.214000	 0.015046
4.232000	 -0.009717
4.250000	 -0.003110
4.268000	 0.026414
4.286000	 0.073701
4.304000	 0.118477
4.322000	 0.036724
4.340000	 0.005615
4.358000	 0.203196
4.375999	 0.402961
4.394000	 0.413283
4.412000	 0.420099
4.430000	 0.591833
4.448000	 0.664915
4.466000	 1.007031
4.484000	 1.213723
4.502000	 1.548304
4.520000	 1.820132
4.538000	 2.307795
4.556000	 2.660978
4.574000	 3.076147
4.592000	 3.687739
4.609999	 4.344219
4.628000	 4.903869
4.646000	 5.627852
4.664000	 6.430175
4.682000	 7.237199
4.700000	 8.237708
4.718000	 9.105446
4.736000	 9.960613
4.754000	 10.9197
4.772000	 11.9024
4.790000	 12.7856
4.808000	 13.5485
4.826000	 14.3376
4.843999	 15.4
4.862000	 16.4068
4.880000	 17.3846
4.898000	 18.1815
4.916000	 19.0426
4.934000	 19.7437
4.952000	 20.5185
4.970000	 21.1535
4.988000	 21.8813
5.006000	 22.5179
5.024000	 23.0798
5.042000	 23.6226
5.060000	 24.1826
5.077999	 24.7681
5.096000	 25.2189
5.114000	 25.6809
5.132000	 26.1063
5.150000	 26.5822
5.168000	 26.9858
5.186000	 27.3059
5.204000	 27.6727
5.222000	 27.9631
5.240000	 28.3388
5.258000	 28.6384
5.276000	 28.8424
5.294000	 29.0304
5.312000	 29.2887
5.330000	 29.5651
5.348000	 29.7234
5.366000	 29.9199
5.384000	 30.0814
5.402000	 30.1269
5.420000	 30.3131
5.438000	 30.46
5.456000	 30.6289
5.474000	 30.6662
5.492000	 30.7452
5.510000	 30.9578
5.528000	 31.0859
5.546000	 31.1281
5.564000	 31.2899
5.582000	 31.4641
5.600000	 31.351
5.618000	 31.4418
5.636000	 31.6419
5.654000	 31.6635
5.672000	 31.6576
5.690000	 31.6746
5.708000	 31.6577
5.726000	 31.7285
5.744000	 31.8192
5.762000	 31.9901
5.780000	 31.9913
5.798000	 31.823
5.816000	 31.9347
5.834000	 32.0297
5.852000	 32.0506
5.870000	 32.192
5.888000	 32.3469
5.906000	 32.1926
5.923999	 32.187
5.942000	 32.2815
5.960000	 32.2443
5.978000	 32.2531
5.996000	 32.1848
6.014000	 32.1522
6.032000	 32.3348
6.050000	 32.4601
6.068000	 32.3319
6.086000	 32.2651
6.104000	 32.3335
6.122000	 32.2763
6.140000	 32.1799
6.158000	 32.2033
6.176000	 32.2269
6.194000	 32.1904
6.212000	 32.1622
6.230000	 32.1461
6.248000	 32.1196
6.266000	 32.1368
6.284000	 32.1551
6.302000	 32.1706
6.320000	 32.2214
6.338000	 32.3353
6.356000	 32.4
6.374000	 32.37
6.392000	 32.3851
6.410000	 32.4267
6.428000	 32.3031
6.446000	 32.1934
6.464000	 32.2247
6.482000	 32.2879
6.500000	 32.2865
6.518000	 32.2535
6.536000	 32.2331
6.554000	 32.2017
6.572000	 32.2283
6.590000	 32.2251
6.608000	 32.1683
6.626000	 32.1771
6.644000	 32.1081
6.662000	 31.9399
6.680000	 31.8782
6.698000	 31.9377
6.716000	 32.0306
6.734000	 32.0575
6.752000	 32.016
6.770000	 32.0218
6.788000	 32.0089
6.806000	 31.9291
6.824000	 31.8985
6.842000	 31.8872
6.860000	 31.8224
6.878000	 31.7113
6.896000	 31.6599
6.914000	 31.7855
6.932000	 31.9837
6.950000	 32.0854
6.968000	 32.0423
6.986000	 31.9599
7.004000	 31.9361
7.022000	 31.9137
7.040000	 31.8282
7.058000	 31.7431
7.076000	 31.7109
7.094000	 31.7005
7.112000	 31.6754
7.130000	 31.6309
7.148000	 31.6313
7.166000	 31.7041
7.184000	 31.7533
7.202000	 31.7234
7.220000	 31.6458
7.238000	 31.5722
7.256000	 31.5502
7.274000	 31.5809
7.292000	 31.6419
7.310000	 31.7186
7.328000	 31.7548
7.346000	 31.6661
7.364000	 31.4682
7.382000	 31.2965
7.400000	 31.241
7.418000	 31.2873
7.436000	 31.4093
7.454000	 31.5513
7.472000	 31.6158
7.490000	 31.5878
7.508000	 31.5359
7.526000	 31.4838
7.544000	 31.4168
7.562000	 31.3464
7.580000	 31.2866
7.598000	 31.2439
7.616000	 31.232
7.634000	 31.2384
7.652000	 31.2321
7.670000	 31.2054
7.688000	 31.1764
7.706000	 31.1796
7.724000	 31.2319
7.742000	 31.2847
7.760000	 31.2773
7.778000	 31.2334
7.796000	 31.2209
7.814000	 31.2519
7.832000	 31.2801
7.850000	 31.2533
7.868000	 31.1574
7.886000	 31.0379
7.904000	 30.9499
7.922000	 30.891
7.940000	 30.8305
7.958000	 30.7761
7.976000	 30.7616
7.994000	 30.8002
8.012000	 30.8769
8.030000	 30.9608
8.048000	 31.0294
8.065999	 31.0813
8.084000	 31.1155
8.102000	 31.1154
8.120000	 31.0847
8.138000	 31.0592
8.155999	 31.0532
8.173999	 31.0342
8.192000	 30.9783
8.210000	 30.9068
8.228000	 30.8561
8.246000	 30.8387
8.263999	 30.8393
8.282000	 30.8264
8.300000	 30.7796
8.318000	 30.7179
8.336000	 30.6862
8.353999	 30.7108
8.372000	 30.7812
8.390000	 30.8666
8.408000	 30.9359
8.426000	 30.9659
8.443999	 30.9529
8.462000	 30.9164
8.480000	 30.8828
8.498000	 30.8639
8.516000	 30.8524
8.533999	 30.8344
8.552000	 30.7997
8.570000	 30.7474
8.588000	 30.6851
8.606000	 30.617
8.624000	 30.5414
8.641999	 30.4647
8.660000	 30.4097
8.678000	 30.3953
8.696000	 30.4122
8.714000	 30.4289
8.731999	 30.4278
8.750000	 30.4245
8.768000	 30.4483
8.786000	 30.509
8.804000	 30.5852
8.821999	 30.6452
8.840000	 30.6714
8.858000	 30.6687
8.876000	 30.6523
8.894000	 30.631
8.911999	 30.6063
8.930000	 30.5829
8.948000	 30.5686
8.966000	 30.5565
8.984000	 30.5224
9.001999	 30.4475
9.020000	 30.3372
9.038000	 30.2195
9.056000	 30.129
9.074000	 30.087
9.092000	 30.091
9.109999	 30.1226
9.128000	 30.1614
9.146000	 30.1935
9.164000	 30.2146
9.182000	 30.2318
9.199999	 30.2583
9.218000	 30.2995
9.236000	 30.3416
9.254000	 30.359
9.272000	 30.3375
9.289999	 30.2872
9.308000	 30.2287
9.326000	 30.17
9.344000	 30.1029
9.362000	 30.0226
9.379999	 29.9423
9.398000	 29.8861
9.416000	 29.8679
9.434000	 29.877
9.452000	 29.8906
9.469999	 29.8989
9.488000	 29.9179
9.506000	 29.9659
9.524000	 30.0341
9.542000	 30.087
9.560000	 30.0953
9.577999	 30.0645
9.596000	 30.0291
9.614000	 30.0217
9.632000	 30.0484
9.650000	 30.0903
9.667999	 30.1246
9.686000	 30.1406
9.704000	 30.1404
9.722000	 30.1275
9.740000	 30.1011
9.757999	 30.0582
9.776000	 29.9994
9.794000	 29.9289
9.812000	 29.8492
9.830000	 29.758
9.847999	 29.6514
9.866000	 29.5349
9.884000	 29.4289
9.902000	 29.3592
9.920000	 29.3417
9.937999	 29.3736
9.956000	 29.4373
9.974000	 29.5121
9.992000	 29.5835
10.01	29.6429
10.028	29.6881
10.046	29.7203
10.064	29.7447
10.082	29.7664
10.1	29.7831
10.118	29.7838
10.136	29.757
10.154	29.7042
10.172	29.6427
10.19	29.5963
10.208	29.5785
10.226	29.582
10.244	29.5837
10.262	29.5567
10.28	29.4868
10.298	29.3772
10.316	29.2466
10.334	29.1208
10.352	29.0229
10.37	28.9662
10.388	28.9503
10.406	28.9631
10.424	28.9883
10.442	29.0136
10.46	29.0367
10.478	29.0629
10.496	29.0968
10.514	29.1355
10.532	29.1687
10.55	29.1871
10.568	29.1896
10.586	29.1853
10.604	29.185
10.622	29.1933
10.64	29.2055
10.658	29.2133
10.676	29.211
10.694	29.1997
10.712	29.1857
10.73	29.1729
10.748	29.1597
10.766	29.1385
10.784	29.1026
10.802	29.0511
10.82	28.9901
10.838	28.9293
10.856	28.8744
10.874	28.8244
10.892	28.772
10.91	28.7095
10.928	28.6351
10.946	28.5557
10.964	28.4847
10.982	28.4347
11	28.4099
11.018	28.4042
11.036	28.4046
11.054	28.3979
11.072	28.3781
11.09	28.3484
11.108	28.318
11.126	28.2971
11.144	28.2918
11.162	28.3017
11.18	28.3227
11.198	28.3496
11.216	28.3785
11.234	28.4073
11.252	28.4336
11.27	28.4547
11.288	28.4664
11.306	28.4663
11.324	28.4545
11.342	28.4354
11.36	28.4155
11.378	28.4004
11.396	28.3913
11.414	28.3831
11.432	28.3655
11.45	28.3275
11.468	28.2612
11.486	28.1662
11.504	28.0507
11.522	27.9293
11.54	27.8167
11.558	27.7245
11.576	27.6572
11.594	27.6127
11.612	27.5843
11.63	27.5652
11.648	27.552
11.666	27.5442
11.684	27.5437
11.702	27.5524
11.72	27.569
11.738	27.5897
11.756	27.6096
11.774	27.6243
11.792	27.632
11.81	27.6344
11.828	27.6348
11.846	27.6374
11.864	27.6445
11.882	27.6561
11.9	27.6709
11.918	27.6869
11.936	27.7033
11.954	27.72
11.972	27.7376
11.99	27.7561
12.008	27.7739
12.026	27.787
12.044	27.7906
12.062	27.7794
12.08	27.7497
12.098	27.7008
12.116	27.6348
12.134	27.5564
12.152	27.4721
12.17	27.3878
12.188	27.3082
12.206	27.2361
12.224	27.1724
12.242	27.1168
12.26	27.0683
12.278	27.0259
12.296	26.9888
12.314	26.9563
12.332	26.9283
12.35	26.9053
12.368	26.8881
12.386	26.8771
12.404	26.8723
12.422	26.8733
12.44	26.8784
12.458	26.8861
12.476	26.896
12.494	26.9088
12.512	26.9264
12.53	26.951
12.548	26.9842
12.566	27.0255
12.584	27.0727
12.602	27.1218
12.62	27.1685
12.638	27.2087
12.656	27.2402
12.674	27.2628
12.692	27.2775
12.71	27.2851
12.728	27.2853
12.746	27.2768
12.764	27.257
12.782	27.2238
12.8	27.1758
12.818	27.1139
12.836	27.0412
12.854	26.9625
12.872	26.8832
12.89	26.8083
12.908	26.7418
12.926	26.6859
12.944	26.641
12.962	26.6055
12.98	26.5767
12.998	26.5508
13.016	26.5239
13.034	26.4926
13.052	26.4546
13.07	26.4095
13.088	26.3597
13.106	26.3098
13.124	26.2664
13.142	26.2355
13.16	26.2208
13.178	26.2225
13.196	26.2364
13.214	26.2543
13.232	26.2661
13.25	26.2619
13.268	26.2346
13.286	26.182
13.304	26.1071
13.322	26.0179
13.34	25.9255
13.358	25.8417
13.376	25.7772
13.394	25.7396
13.412	25.7323
13.43	25.7548
13.448	25.8032
13.466	25.8711
13.484	25.9509
13.502	26.0346
13.52	26.115
13.538	26.1859
13.556	26.2431
13.574	26.2852
13.592	26.3133
13.61	26.331
13.628	26.343
13.646	26.3546
13.664	26.3691
13.682	26.3885
13.7	26.4109
13.718	26.4322
13.736	26.4453
13.754	26.4435
13.772	26.4205
13.79	26.3737
13.808	26.3032
13.826	26.2136
13.844	26.1117
13.862	26.0054
13.88	25.9025
13.898	25.8086
13.916	25.7269
13.934	25.6575
13.952	25.5981
13.97	25.5458
13.988	25.4974
14.006	25.4507
14.024	25.4047
14.042	25.3599
14.06	25.3174
14.078	25.2788
14.096	25.2453
14.114	25.2169
14.132	25.1926
14.15	25.1704
14.168	25.1485
14.186	25.1251
14.204	25.0989
14.222	25.0696
14.24	25.0378
14.258	25.0047
14.276	24.9712
14.294	24.9382
14.312	24.9064
14.33	24.8762
14.348	24.8476
14.366	24.8205
14.384	24.7953
14.402	24.7724
14.42	24.7531
14.438	24.7388
14.456	24.7315
14.474	24.733
14.492	24.7451
14.51	24.7693
14.528	24.8061
14.546	24.8543
14.564	24.9117
14.582	24.9745
14.6	25.0381
14.618	25.0972
14.636	25.1463
14.654	25.1814
14.672	25.1997
14.69	25.2004
14.708	25.184
14.726	25.1531
14.744	25.1115
14.762	25.0641
14.78	25.0149
14.798	24.9676
14.816	24.9247
14.834	24.8867
14.852	24.8533
14.87	24.8223
14.888	24.7913
14.906	24.758
14.924	24.7202
14.942	24.6766
14.96	24.6278
14.978	24.5751
14.996	24.5207
15.014	24.4679
15.032	24.4202
15.05	24.3808
15.068	24.3513
15.086	24.3324
15.104	24.3237
15.122	24.323
15.14	24.327
15.158	24.3319
15.176	24.3336
15.194	24.3279
15.212	24.3114
15.23	24.2821
15.248	24.2393
15.266	24.1835
15.284	24.1167
15.302	24.0425
15.32	23.965
15.338	23.8884
15.356	23.8178
15.374	23.7577
15.392	23.7104
15.41	23.6776
15.428	23.6594
15.446	23.6541
15.464	23.6583
15.482	23.6686
15.5	23.6811
15.518	23.6911
15.536	23.6967
15.554	23.6967
15.572	23.6908
15.59	23.6814
15.608	23.6714
15.626	23.664
15.644	23.6632
15.662	23.6723
15.68	23.6926
15.698	23.7249
15.716	23.7682
15.734	23.8194
15.752	23.8753
15.77	23.932
15.788	23.9843
15.806	24.0288
15.824	24.0632
15.842	24.0854
15.86	24.0957
15.878	24.0952
15.896	24.0856
15.914	24.0698
15.932	24.0503
15.95	24.0289
15.968	24.0074
15.986	23.9863
16.004	23.9652
16.022	23.9434
16.04	23.9193
16.058	23.8914
16.076	23.8586
16.094	23.8198
16.112	23.7749
16.13	23.7245
16.148	23.6698
16.166	23.6133
16.184	23.5569
16.202	23.5031
16.22	23.4546
16.238	23.4125
16.256	23.3781
16.274	23.3513
16.292	23.3309
16.31	23.3157
16.328	23.3026
16.346	23.2889
16.364	23.2722
16.382	23.2494
16.4	23.2195
16.418	23.1817
16.436	23.1362
16.454	23.0848
16.472	23.0287
16.49	22.9717
16.508	22.9166
16.526	22.8658
16.544	22.8229
16.562	22.7891
16.58	22.7657
16.598	22.7532
16.616	22.7508
16.634	22.7578
16.652	22.7717
16.67	22.7903
16.688	22.8118
16.706	22.8327
16.724	22.8517
16.742	22.867
16.76	22.8769
16.778	22.8812
16.796	22.8795
16.814	22.8725
16.832	22.8606
16.85	22.8455
16.868	22.8285
16.886	22.811
16.904	22.7951
16.922	22.7817
16.94	22.7726
16.958	22.7685
16.976	22.7698
16.994	22.7772
17.012	22.7896
17.03	22.8067
17.048	22.8264
17.066	22.8473
17.084	22.8674
17.102	22.8838
17.12	22.8955
17.138	22.8997
17.156	22.8956
17.174	22.882
17.192	22.8588
17.21	22.8263
17.228	22.7854
17.246	22.7378
17.264	22.6846
17.282	22.6288
17.3	22.5714
17.318	22.5148
17.336	22.4603
17.354	22.4089
17.372	22.3617
17.39	22.3191
17.408	22.2813
17.426	22.248
17.444	22.2192
17.462	22.1943
17.48	22.1732
17.498	22.1553
17.516	22.1404
17.534	22.1282
17.552	22.1187
17.57	22.1116
17.588	22.107
17.606	22.1045
17.624	22.1041
17.642	22.105
17.66	22.1072
17.678	22.1095
17.696	22.1117
17.714	22.1125
17.732	22.1115
17.75	22.1078
17.768	22.1006
17.786	22.0897
17.804	22.0749
17.822	22.056
17.84	22.0335
17.858	22.0077
17.876	21.9792
17.894	21.9488
17.912	21.9169
17.93	21.8847
17.948	21.8525
17.966	21.8211
17.984	21.7907
18.002	21.7617
18.02	21.7341
18.038	21.7078
18.056	21.6824
18.074	21.6577
18.092	21.6328
18.11	21.6077
18.128	21.5814
18.146	21.5537
18.164	21.524
18.182	21.492
18.2	21.4574
18.218	21.4204
18.236	21.3807
18.254	21.3391
18.272	21.2957
18.29	21.2516
18.308	21.2069
18.326	21.1635
18.344	21.1216
18.362	21.0831
18.38	21.0485
18.398	21.0194
18.416	20.9965
18.434	20.9809
18.452	20.9734
18.47	20.9745
18.488	20.9844
18.506	21.0034
18.524	21.0307
18.542	21.0664
18.56	21.1087
18.578	21.1576
18.596	21.2104
18.614	21.2672
18.632	21.3248
18.65	21.3832
18.668	21.4393
18.686	21.4931
18.704	21.5419
18.722	21.5855
18.74	21.6222
18.758	21.652
18.776	21.6739
18.794	21.6882
18.812	21.6944
18.83	21.693
18.848	21.6841
18.866	21.668
18.884	21.6451
18.902	21.616
18.92	21.5812
18.938	21.541
18.956	21.496
18.974	21.4464
18.992	21.3928
19.01	21.3355
19.028	21.2748
19.046	21.2111
19.064	21.1449
19.082	21.0766
19.1	21.007
19.118	20.9365
19.136	20.8662
19.154	20.7965
19.172	20.7287
19.19	20.6631
19.208	20.6014
19.226	20.5437
19.244	20.4915
19.262	20.445
19.28	20.4054
19.298	20.3728
19.316	20.3477
19.334	20.3299
19.352	20.3193
19.37	20.3158
19.388	20.3186
19.406	20.3277
19.424	20.3414
19.442	20.3599
19.46	20.3814
19.478	20.4057
19.496	20.4311
19.514	20.457
19.532	20.4824
19.55	20.5065
19.568	20.5285
19.586	20.5472
19.604	20.5623
19.622	20.5725
19.64	20.5776
19.658	20.5761
19.676	20.5681
19.694	20.5524
19.712	20.5289
19.73	20.497
19.748	20.4564
19.766	20.4073
19.784	20.3496
19.802	20.2839
19.82	20.2104
19.838	20.1299
19.856	20.0435
19.874	19.9516
19.892	19.8562
19.91	19.7572
19.928	19.6576
19.946	19.5569
19.964	19.4577
19.982	19.3603
20	19.2662
20.018	19.1764
20.036	19.0914
20.054	19.0125
20.072	18.9394
20.09	18.8734
20.108	18.8143
20.126	18.7626
20.144	18.7183
20.162	18.6816
20.18	18.6527
20.198	18.6316
20.216	18.6184
20.234	18.613
20.252	18.6158
20.27	18.6266
20.288	18.6453
20.306	18.672
20.324	18.7064
20.342	18.7485
20.36	18.7978
20.378	18.8533
20.396	18.9152
20.414	18.9818
20.432	19.0534
20.45	19.128
20.468	19.2049
20.486	19.2833
20.504	19.3613
20.522	19.4392
20.54	19.5144
20.558	19.5873
20.576	19.6564
20.594	19.7207
20.612	19.7805
20.63	19.835
20.648	19.8844
20.666	19.9283
20.684	19.9666
20.702	19.9997
20.72	20.0279
20.738	20.0511
20.756	20.0695
20.774	20.0832
20.792	20.0922
20.81	20.0967
20.828	20.0964
20.846	20.0912
20.864	20.0811
20.882	20.0655
20.9	20.0447
20.918	20.0182
20.936	19.986
20.954	19.9483
20.972	19.9052
20.99	19.8564
21.008	19.8036
21.026	19.7466
21.044	19.6864
21.062	19.6255
21.08	19.5629
21.098	19.5024
21.116	19.4441
21.134	19.3893
21.152	19.3413
21.17	19.2992
21.188	19.2656
21.206	19.2412
21.224	19.226
21.242	19.221
21.26	19.2262
21.278	19.2402
21.296	19.2636
21.314	19.2949
21.332	19.3316
21.35	19.3747
21.368	19.4199
21.386	19.4666
21.404	19.5138
21.422	19.5571
21.44	19.5979
21.458	19.6329
21.476	19.6606
21.494	19.6816
21.512	19.6941
21.53	19.698
21.548	19.6942
21.566	19.6828
21.584	19.664
21.602	19.641
21.62	19.6131
21.638	19.5826
21.656	19.5527
21.674	19.5221
21.692	19.495
21.71	19.4721
21.728	19.4538
21.746	19.4433
21.764	19.44
21.782	19.4447
21.8	19.4584
21.818	19.4806
21.836	19.5103
21.854	19.5481
21.872	19.5926
21.89	19.6408
21.908	19.6941
21.926	19.7492
21.944	19.8043
21.962	19.8602
21.98	19.9122
21.998	19.9603
22.016	20.0036
22.034	20.039
22.052	20.0674
22.07	20.0872
22.088	20.0965
22.106	20.0962
22.124	20.0855
22.142	20.0638
22.16	20.0317
22.178	19.9894
22.196	19.9365
22.214	19.8741
22.232	19.803
22.25	19.7227
22.268	19.6352
22.286	19.5415
22.304	19.4411
22.322	19.3369
22.34	19.2289
22.358	19.1178
22.376	19.007
22.394	18.8954
22.412	18.7851
22.43	18.6791
22.448	18.576
22.466	18.4783
22.484	18.388
22.502	18.304
22.52	18.2283
22.538	18.1618
22.556	18.1039
22.574	18.0557
22.592	18.0176
22.61	17.9891
22.628	17.9701
22.646	17.9612
22.664	17.9611
22.682	17.9678
22.7	17.9827
22.718	18.0032
22.736	18.0266
22.754	18.0545
22.772	18.0837
22.79	18.1115
22.808	18.1397
22.826	18.1648
22.844	18.1848
22.862	18.2011
22.88	18.2107
22.898	18.2121
22.916	18.2063
22.934	18.1918
22.952	18.1679
22.97	18.1352
22.988	18.0935
23.006	18.0424
23.024	17.9824
23.042	17.9153
23.06	17.8405
23.078	17.7588
23.096	17.6736
23.114	17.5841
23.132	17.4911
23.15	17.3987
23.168	17.3064
23.186	17.2146
23.204	17.1269
23.222	17.043
23.24	16.9631
23.258	16.8898
23.276	16.8229
23.294	16.7626
23.312	16.7103
23.33	16.6663
23.348	16.6301
23.366	16.6016
23.384	16.5814
23.402	16.5687
23.42	16.562
23.438	16.5616
23.456	16.5672
23.474	16.5762
23.492	16.5886
23.51	16.6045
23.528	16.6212
23.546	16.6383
23.564	16.6563
23.582	16.673
23.6	16.6876
23.618	16.7008
23.636	16.7114
23.654	16.7182
23.672	16.722
23.69	16.7228
23.708	16.7208
23.726	16.7155
23.744	16.7084
23.762	16.7004
23.78	16.6901
23.798	16.6804
23.816	16.674
23.834	16.6688
23.852	16.6675
23.87	16.6744
23.888	16.6878
23.906	16.709
23.924	16.7424
23.942	16.7877
23.96	16.8446
23.978	16.9161
23.996	17.0032
24.014	17.1047
24.032	17.2225
24.05	17.358
24.068	17.5104
24.086	17.6796
24.104	17.8657
24.122	18.0694
24.14	18.2891
24.158	18.5229
24.176	18.7727
24.194	19.0365
24.212	19.3099
24.23	19.5934
24.248	19.8875
24.266	20.1861
24.284	20.4868
24.302	20.7931
24.32	21.0982
24.338	21.3958
24.356	21.6905
24.374	21.978
24.392	22.2512
24.41	22.5123
24.428	22.7607
24.446	22.9894
24.464	23.196
24.482	23.3839
24.5	23.5475
24.518	23.6819
24.536	23.7908
24.554	23.8716
24.572	23.9202
24.59	23.9364
24.608	23.9216
24.626	23.8756
24.644	23.7977
24.662	23.688
24.68	23.5489
24.698	23.3822
24.716	23.1854
24.734	22.962
24.752	22.7172
24.77	22.4502
24.788	22.1605
24.806	21.8547
24.824	21.5368
24.842	21.2019
24.86	20.8564
24.878	20.5086
24.896	20.1554
24.914	19.7976
24.932	19.4422
24.95	19.093
24.968	18.7458
24.986	18.4047
25.004	18.0744
25.022	17.7528
25.04	17.4405
25.058	17.1405
25.076	16.8543
25.094	16.58
25.112	16.3191
25.13	16.0728
25.148	15.8403
25.166	15.622
25.184	15.4189
25.202	15.2316
25.22	15.059
25.238	14.9024
25.256	14.7626
25.274	14.6383
25.292	14.5304
25.31	14.4415
25.328	14.3728
25.346	14.322
25.364	14.2921
25.382	14.2867
25.4	14.304
25.418	14.3441
25.436	14.4114
25.454	14.5089
25.472	14.6335
25.49	14.7872
25.508	14.9731
25.526	15.1915
25.544	15.4408
25.562	15.723
25.58	16.0402
25.598	16.3924
25.616	16.7783
25.634	17.1964
25.652	17.6468
25.67	18.1318
25.688	18.6462
25.706	19.1839
25.724	19.748
25.742	20.3394
25.76	20.9465
25.778	21.5588
25.796	22.1869
25.814	22.8242
25.832	23.4542
25.85	24.0678
25.868	24.6799
25.886	25.2755
25.904	25.8354
25.922	26.3581
25.94	26.8545
25.958	27.3056
25.976	27.6925
25.994	28.0231
26.012	28.2989
26.03	28.5045
26.048	28.6264
26.066	28.6728
26.084	28.6432
26.102	28.5322
26.12	28.3352
26.138	28.0541
26.156	27.6927
26.174	27.2547
26.192	26.7379
26.21	26.1384
26.228	25.4704
26.246	24.7483
26.264	23.9678
26.282	23.1245
26.3	22.2374
26.318	21.3248
26.336	20.3757
26.354	19.3912
26.372	18.3912
26.39	17.3941
26.408	16.3866
26.426	15.3723
26.444	14.3668
26.462	13.383
26.48	12.4105
26.498	11.4523
26.516	10.5167
26.534	9.610252
26.552	8.727945
26.57	7.870029
26.588	7.038292
26.606	6.234711
26.624	5.459712
26.642	4.709880
26.66	3.981545
26.678	3.272993
26.696	2.587567
26.714	1.921990
26.732	1.272339
26.75	0.635595
26.768	0.013315
26.786	-0.592633
26.804	-1.180510
26.822	-1.750230
26.84	-2.304113
26.858	-2.838833
26.876	-3.350715
26.894	-3.838432
26.912	-4.305498
26.93	-4.748800
26.948	-5.164753
26.966	-5.561259
26.984	-5.955709
27.002	-6.310137
27.02	-6.583022
27.028	-6.658506