File: Bakgrunnsmateriale/MATLAB/FTIR/ftir_data/LPE453/Mapping_121/LPE453_t61.asc
PE IR       SPECTRUM    SPECTRUM    ASCII       PEDS        1.60
  -1
LPCBAD~1.ASC
17/05/16
19:20:41.00
17/05/16
19:21:07.00
tln
$LPE453_t0061$<tbV0>[0.0,0.0,8.0,0.0,27,1,0]
27.028
64

2002,4.07
MIRTGS : RIGHTBACK : INTERNAL 2
MIR : ON : INTERNAL 2
OPTKBR

0.200000
8
8.000000
FILLER
RATIO
SPECTRUM
UNLOCKED 256

DOUBLE
64
COMBINED
1
0
0

0.002000
RATIO

1
0
TRUE
51149
0
LEFT NOT FITTED RIGHT NOT FITTED 0
NONE
NONE
15600
12
4.427000
51148
TRUE
1 0 8 72 0 0 0 0

15798

#HDR
-1
-1
#GR
µM
%T
2.38419e-05
0.0
2.000000
0.002000
12515
8
30.3525
-22.3091
#DATA
2.000000	 0.046706
2.018000	 0.483250
2.036000	 -0.086194
2.054000	 0.750843
2.072000	 0.312264
2.090000	 -0.056247
2.108000	 -0.468506
2.126000	 -0.048202
2.144000	 -0.287298
2.162000	 -0.134155
2.180000	 0.463712
2.198000	 0.446150
2.216000	 0.171152
2.234000	 0.570937
2.252000	 -0.563211
2.270000	 0.401164
2.288000	 0.047591
2.306000	 0.260777
2.324000	 -0.316880
2.342000	 0.281185
2.360000	 0.384837
2.378000	 0.469701
2.396000	 -0.113541
2.414000	 0.020796
2.432000	 0.292358
2.450000	 0.099297
2.468000	 0.145965
2.486000	 -0.076248
2.504000	 0.188929
2.522000	 0.272962
2.540000	 -0.030598
2.558000	 -0.024596
2.576000	 0.086077
2.594000	 0.068666
2.612000	 0.182672
2.630000	 0.045615
2.648000	 0.155548
2.666000	 0.059232
2.684000	 -0.067574
2.702000	 0.279768
2.720000	 0.008834
2.738000	 0.180515
2.756000	 0.052280
2.774000	 0.138434
2.792000	 -0.040110
2.810000	 -0.027809
2.828000	 0.025350
2.846000	 -0.032856
2.864000	 -0.072029
2.882000	 0.152800
2.900000	 0.113033
2.918000	 -0.087900
2.936000	 -0.021956
2.954000	 -0.037654
2.972000	 -0.087892
2.990000	 -0.028928
3.008000	 0.038675
3.026000	 -0.027674
3.044000	 0.006533
3.062000	 0.025814
3.080000	 0.030686
3.098000	 0.123039
3.116000	 0.089367
3.134000	 0.036331
3.152000	 0.082716
3.170000	 0.180473
3.188000	 0.190529
3.206000	 0.032175
3.224000	 0.037182
3.242000	 -0.037846
3.260000	 -0.020484
3.278000	 0.013354
3.296000	 0.070641
3.314000	 0.048605
3.332000	 0.105506
3.350000	 -0.019362
3.368000	 0.168798
3.386000	 0.051971
3.404000	 -0.016655
3.422000	 -0.048236
3.440000	 -0.009236
3.458000	 -0.054198
3.476000	 -0.024343
3.494000	 0.197069
3.512000	 0.106594
3.530000	 0.013436
3.548000	 0.041881
3.566000	 -0.015478
3.584000	 0.019472
3.602000	 0.000954
3.620000	 -0.075863
3.638000	 0.043522
3.656000	 -0.006046
3.674000	 0.070371
3.692000	 -0.007482
3.710000	 -0.060922
3.728000	 0.002573
3.746000	 -0.021445
3.764000	 0.088283
3.782000	 0.062880
3.800000	 0.061991
3.818000	 -0.032016
3.836000	 -0.025742
3.854000	 0.002382
3.872000	 0.045164
3.890000	 0.012625
3.908000	 -0.128121
3.926000	 -0.072053
3.944000	 0.062685
3.962000	 0.028052
3.980000	 0.022596
3.998000	 -0.025074
4.016000	 0.052786
4.034000	 0.083875
4.052000	 0.040809
4.070000	 0.001607
4.088000	 0.031412
4.106000	 -0.011393
4.124000	 -0.128406
4.141999	 0.122590
4.160000	 0.069511
4.178000	 0.064021
4.196000	 -0.020319
4.214000	 0.083139
4.232000	 0.015508
4.250000	 0.028347
4.268000	 0.003634
4.286000	 0.047947
4.304000	 -0.008182
4.322000	 0.123177
4.340000	 0.163345
4.358000	 0.140793
4.375999	 0.198610
4.394000	 0.251688
4.412000	 0.426418
4.430000	 0.510609
4.448000	 0.686376
4.466000	 0.905854
4.484000	 1.140354
4.502000	 1.456038
4.520000	 1.735581
4.538000	 2.128797
4.556000	 2.488095
4.574000	 2.917228
4.592000	 3.483629
4.609999	 4.180120
4.628000	 4.771105
4.646000	 5.445761
4.664000	 6.303552
4.682000	 7.023804
4.700000	 7.828456
4.718000	 8.868627
4.736000	 9.672978
4.754000	 10.4927
4.772000	 11.3396
4.790000	 12.1895
4.808000	 13.2599
4.826000	 14.1659
4.843999	 14.89
4.862000	 15.7082
4.880000	 16.5532
4.898000	 17.2805
4.916000	 18.001
4.934000	 18.7128
4.952000	 19.4844
4.970000	 20.0893
4.988000	 20.7922
5.006000	 21.4252
5.024000	 21.9713
5.042000	 22.4606
5.060000	 22.9755
5.077999	 23.5011
5.096000	 23.9232
5.114000	 24.3749
5.132000	 24.742
5.150000	 25.0955
5.168000	 25.5104
5.186000	 25.9434
5.204000	 26.1882
5.222000	 26.4688
5.240000	 26.7519
5.258000	 27.0013
5.276000	 27.2131
5.294000	 27.3438
5.312000	 27.5717
5.330000	 27.7797
5.348000	 28.0287
5.366000	 28.2203
5.384000	 28.3329
5.402000	 28.5277
5.420000	 28.6613
5.438000	 28.7505
5.456000	 28.9252
5.474000	 29.0787
5.492000	 29.0522
5.510000	 29.1545
5.528000	 29.282
5.546000	 29.3598
5.564000	 29.511
5.582000	 29.6183
5.600000	 29.7209
5.618000	 29.7269
5.636000	 29.6668
5.654000	 29.6584
5.672000	 29.6971
5.690000	 29.7601
5.708000	 29.8774
5.726000	 29.9663
5.744000	 30.0332
5.762000	 29.9643
5.780000	 29.9206
5.798000	 29.9469
5.816000	 30.0784
5.834000	 30.1336
5.852000	 30.08
5.870000	 30.0412
5.888000	 30.1003
5.906000	 30.1954
5.923999	 30.2342
5.942000	 30.271
5.960000	 30.2411
5.978000	 30.2156
5.996000	 30.2347
6.014000	 30.2363
6.032000	 30.2614
6.050000	 30.3026
6.068000	 30.3146
6.086000	 30.2835
6.104000	 30.2
6.122000	 30.2358
6.140000	 30.3212
6.158000	 30.2815
6.176000	 30.2094
6.194000	 30.233
6.212000	 30.2762
6.230000	 30.3376
6.248000	 30.3385
6.266000	 30.2624
6.284000	 30.2295
6.302000	 30.2143
6.320000	 30.152
6.338000	 30.1536
6.356000	 30.1984
6.374000	 30.2034
6.392000	 30.1971
6.410000	 30.2178
6.428000	 30.2525
6.446000	 30.3102
6.464000	 30.3213
6.482000	 30.2495
6.500000	 30.1465
6.518000	 30.0572
6.536000	 30.0567
6.554000	 30.0796
6.572000	 30.0718
6.590000	 30.0746
6.608000	 30.0826
6.626000	 30.1053
6.644000	 30.1258
6.662000	 30.1247
6.680000	 30.1265
6.698000	 30.1247
6.716000	 30.073
6.734000	 29.9755
6.752000	 29.9078
6.770000	 29.9623
6.788000	 30.1044
6.806000	 30.1341
6.824000	 30.0356
6.842000	 29.9193
6.860000	 29.7973
6.878000	 29.7625
6.896000	 29.8222
6.914000	 29.8403
6.932000	 29.8302
6.950000	 29.8499
6.968000	 29.8783
6.986000	 29.8918
7.004000	 29.9016
7.022000	 29.9087
7.040000	 29.8861
7.058000	 29.8257
7.076000	 29.7815
7.094000	 29.7835
7.112000	 29.7477
7.130000	 29.621
7.148000	 29.4991
7.166000	 29.4751
7.184000	 29.5301
7.202000	 29.5946
7.220000	 29.6231
7.238000	 29.6465
7.256000	 29.6958
7.274000	 29.7194
7.292000	 29.6858
7.310000	 29.6288
7.328000	 29.5627
7.346000	 29.4854
7.364000	 29.4028
7.382000	 29.3364
7.400000	 29.3503
7.418000	 29.4454
7.436000	 29.5039
7.454000	 29.4847
7.472000	 29.4782
7.490000	 29.5201
7.508000	 29.572
7.526000	 29.6058
7.544000	 29.5895
7.562000	 29.5187
7.580000	 29.444
7.598000	 29.381
7.616000	 29.3056
7.634000	 29.2417
7.652000	 29.2252
7.670000	 29.2413
7.688000	 29.268
7.706000	 29.2978
7.724000	 29.3168
7.742000	 29.3169
7.760000	 29.3202
7.778000	 29.3443
7.796000	 29.3701
7.814000	 29.3708
7.832000	 29.3368
7.850000	 29.2586
7.868000	 29.1465
7.886000	 29.059
7.904000	 29.0323
7.922000	 29.0276
7.940000	 29.0178
7.958000	 29.0408
7.976000	 29.1104
7.994000	 29.173
8.012000	 29.1916
8.030000	 29.1837
8.048000	 29.1702
8.065999	 29.1541
8.084000	 29.1368
8.102000	 29.1098
8.120000	 29.0468
8.138000	 28.943
8.155999	 28.842
8.173999	 28.7856
8.192000	 28.7607
8.210000	 28.7299
8.228000	 28.6921
8.246000	 28.6758
8.263999	 28.6919
8.282000	 28.7265
8.300000	 28.7719
8.318000	 28.8367
8.336000	 28.9257
8.353999	 29.016
8.372000	 29.0704
8.390000	 29.072
8.408000	 29.0286
8.426000	 28.9557
8.443999	 28.8719
8.462000	 28.7924
8.480000	 28.7145
8.498000	 28.628
8.516000	 28.5409
8.533999	 28.478
8.552000	 28.454
8.570000	 28.4633
8.588000	 28.4956
8.606000	 28.548
8.624000	 28.6145
8.641999	 28.678
8.660000	 28.7204
8.678000	 28.7374
8.696000	 28.7363
8.714000	 28.7275
8.731999	 28.716
8.750000	 28.695
8.768000	 28.6546
8.786000	 28.5961
8.804000	 28.5313
8.821999	 28.4664
8.840000	 28.398
8.858000	 28.328
8.876000	 28.2681
8.894000	 28.2271
8.911999	 28.2001
8.930000	 28.1843
8.948000	 28.1853
8.966000	 28.2031
8.984000	 28.2248
9.001999	 28.2466
9.020000	 28.2924
9.038000	 28.3901
9.056000	 28.5218
9.074000	 28.6225
9.092000	 28.6369
9.109999	 28.5673
9.128000	 28.4586
9.146000	 28.347
9.164000	 28.2368
9.182000	 28.1219
9.199999	 28.0141
9.218000	 27.9412
9.236000	 27.924
9.254000	 27.958
9.272000	 28.0091
9.289999	 28.0305
9.308000	 27.9941
9.326000	 27.9141
9.344000	 27.8362
9.362000	 27.7987
9.379999	 27.8036
9.398000	 27.827
9.416000	 27.8495
9.434000	 27.8684
9.452000	 27.8814
9.469999	 27.8723
9.488000	 27.8256
9.506000	 27.7531
9.524000	 27.693
9.542000	 27.6779
9.560000	 27.7039
9.577999	 27.7377
9.596000	 27.7524
9.614000	 27.7464
9.632000	 27.7334
9.650000	 27.7213
9.667999	 27.7081
9.686000	 27.6899
9.704000	 27.6691
9.722000	 27.6526
9.740000	 27.644
9.757999	 27.6407
9.776000	 27.6365
9.794000	 27.6288
9.812000	 27.6211
9.830000	 27.6199
9.847999	 27.6299
9.866000	 27.6506
9.884000	 27.6762
9.902000	 27.6959
9.920000	 27.6994
9.937999	 27.6823
9.956000	 27.6496
9.974000	 27.6114
9.992000	 27.5742
10.01	27.5362
10.028	27.4904
10.046	27.4342
10.064	27.3716
10.082	27.3086
10.1	27.246
10.118	27.1778
10.136	27.1002
10.154	27.0203
10.172	26.9566
10.19	26.9281
10.208	26.9398
10.226	26.9795
10.244	27.0243
10.262	27.0561
10.28	27.0706
10.298	27.0766
10.316	27.0862
10.334	27.1034
10.352	27.1206
10.37	27.1233
10.388	27.1
10.406	27.0514
10.424	26.9897
10.442	26.9338
10.46	26.8973
10.478	26.8812
10.496	26.8732
10.514	26.8552
10.532	26.8132
10.55	26.7455
10.568	26.6612
10.586	26.5735
10.604	26.4905
10.622	26.4123
10.64	26.3349
10.658	26.2569
10.676	26.1846
10.694	26.1298
10.712	26.1042
10.73	26.1127
10.748	26.1505
10.766	26.2062
10.784	26.2669
10.802	26.3212
10.82	26.3629
10.838	26.3898
10.856	26.4047
10.874	26.4142
10.892	26.4252
10.91	26.4414
10.928	26.4611
10.946	26.477
10.964	26.4808
10.982	26.4668
11	26.4343
11.018	26.3869
11.036	26.3282
11.054	26.2596
11.072	26.1806
11.09	26.0908
11.108	25.9935
11.126	25.8972
11.144	25.812
11.162	25.7465
11.18	25.7042
11.198	25.6829
11.216	25.6758
11.234	25.675
11.252	25.6731
11.27	25.6656
11.288	25.6511
11.306	25.6297
11.324	25.604
11.342	25.5779
11.36	25.5554
11.378	25.5404
11.396	25.5356
11.414	25.5425
11.432	25.5617
11.45	25.5933
11.468	25.6358
11.486	25.6864
11.504	25.74
11.522	25.7897
11.54	25.8291
11.558	25.8536
11.576	25.8607
11.594	25.8494
11.612	25.8205
11.63	25.7748
11.648	25.7134
11.666	25.6387
11.684	25.5559
11.702	25.4724
11.72	25.3971
11.738	25.3367
11.756	25.2932
11.774	25.2633
11.792	25.2387
11.81	25.21
11.828	25.1701
11.846	25.117
11.864	25.0544
11.882	24.9901
11.9	24.9335
11.918	24.8926
11.936	24.8713
11.954	24.8699
11.972	24.8847
11.99	24.9091
12.008	24.9354
12.026	24.956
12.044	24.9648
12.062	24.9595
12.08	24.9427
12.098	24.9208
12.116	24.9019
12.134	24.8933
12.152	24.8983
12.17	24.9154
12.188	24.9385
12.206	24.9594
12.224	24.9704
12.242	24.966
12.26	24.9451
12.278	24.9105
12.296	24.8672
12.314	24.8208
12.332	24.7754
12.35	24.7318
12.368	24.6873
12.386	24.6381
12.404	24.5803
12.422	24.512
12.44	24.4353
12.458	24.3548
12.476	24.2777
12.494	24.2107
12.512	24.1581
12.53	24.1212
12.548	24.0975
12.566	24.0818
12.584	24.0688
12.602	24.0545
12.62	24.0375
12.638	24.0198
12.656	24.0063
12.674	24.0024
12.692	24.0127
12.71	24.0397
12.728	24.083
12.746	24.1386
12.764	24.1997
12.782	24.2587
12.8	24.3086
12.818	24.3443
12.836	24.3641
12.854	24.3697
12.872	24.3655
12.89	24.3566
12.908	24.3473
12.926	24.3397
12.944	24.3338
12.962	24.327
12.98	24.3157
12.998	24.2968
13.016	24.2686
13.034	24.2309
13.052	24.1846
13.07	24.1312
13.088	24.0716
13.106	24.0057
13.124	23.9325
13.142	23.851
13.16	23.7608
13.178	23.6635
13.196	23.5629
13.214	23.4647
13.232	23.3751
13.25	23.2997
13.268	23.2422
13.286	23.2041
13.304	23.1845
13.322	23.181
13.34	23.19
13.358	23.2087
13.376	23.2349
13.394	23.2677
13.412	23.3061
13.43	23.3494
13.448	23.3958
13.466	23.4423
13.484	23.4844
13.502	23.5173
13.52	23.5362
13.538	23.5376
13.556	23.5204
13.574	23.4859
13.592	23.4377
13.61	23.3819
13.628	23.325
13.646	23.2741
13.664	23.2347
13.682	23.2104
13.7	23.2022
13.718	23.2079
13.736	23.2229
13.754	23.2413
13.772	23.2567
13.79	23.2635
13.808	23.2581
13.826	23.2395
13.844	23.2091
13.862	23.1704
13.88	23.1281
13.898	23.0869
13.916	23.0507
13.934	23.0216
13.952	22.9999
13.97	22.984
13.988	22.9709
14.006	22.957
14.024	22.9388
14.042	22.9134
14.06	22.8795
14.078	22.8368
14.096	22.7865
14.114	22.7302
14.132	22.6702
14.15	22.6091
14.168	22.5495
14.186	22.494
14.204	22.445
14.222	22.4045
14.24	22.3737
14.258	22.3529
14.276	22.3412
14.294	22.337
14.312	22.3373
14.33	22.3389
14.348	22.3379
14.366	22.3306
14.384	22.3142
14.402	22.2872
14.42	22.2502
14.438	22.2048
14.456	22.1543
14.474	22.1027
14.492	22.0545
14.51	22.014
14.528	21.9846
14.546	21.9682
14.564	21.9652
14.582	21.9746
14.6	21.9941
14.618	22.0207
14.636	22.0501
14.654	22.0785
14.672	22.1023
14.69	22.119
14.708	22.1267
14.726	22.1247
14.744	22.1137
14.762	22.0955
14.78	22.072
14.798	22.0458
14.816	22.019
14.834	21.993
14.852	21.969
14.87	21.9465
14.888	21.9245
14.906	21.9014
14.924	21.8751
14.942	21.8438
14.96	21.8063
14.978	21.7629
14.996	21.7144
15.014	21.6631
15.032	21.612
15.05	21.5645
15.068	21.5234
15.086	21.491
15.104	21.4684
15.122	21.4555
15.14	21.4508
15.158	21.4521
15.176	21.457
15.194	21.4629
15.212	21.4675
15.23	21.4698
15.248	21.4693
15.266	21.4664
15.284	21.4622
15.302	21.4581
15.32	21.4552
15.338	21.4544
15.356	21.4563
15.374	21.4604
15.392	21.4656
15.41	21.4706
15.428	21.4742
15.446	21.4746
15.464	21.4709
15.482	21.4623
15.5	21.4484
15.518	21.4296
15.536	21.4063
15.554	21.379
15.572	21.3482
15.59	21.3145
15.608	21.2782
15.626	21.2396
15.644	21.1988
15.662	21.1561
15.68	21.1116
15.698	21.0657
15.716	21.0192
15.734	20.9729
15.752	20.9277
15.77	20.8844
15.788	20.844
15.806	20.807
15.824	20.7736
15.842	20.7443
15.86	20.7187
15.878	20.6966
15.896	20.6776
15.914	20.6608
15.932	20.6457
15.95	20.6319
15.968	20.6188
15.986	20.606
16.004	20.5931
16.022	20.5797
16.04	20.5652
16.058	20.5492
16.076	20.5312
16.094	20.5104
16.112	20.4861
16.13	20.458
16.148	20.4256
16.166	20.389
16.184	20.3484
16.202	20.3042
16.22	20.2571
16.238	20.2082
16.256	20.1585
16.274	20.1093
16.292	20.0612
16.31	20.0148
16.328	19.9705
16.346	19.9279
16.364	19.887
16.382	19.8471
16.4	19.8079
16.418	19.769
16.436	19.7304
16.454	19.6924
16.472	19.6556
16.49	19.6212
16.508	19.5908
16.526	19.5655
16.544	19.5475
16.562	19.5379
16.58	19.5376
16.598	19.5476
16.616	19.5674
16.634	19.5968
16.652	19.6339
16.67	19.6769
16.688	19.7242
16.706	19.7719
16.724	19.8182
16.742	19.8606
16.76	19.8963
16.778	19.9246
16.796	19.9442
16.814	19.9554
16.832	19.9585
16.85	19.9552
16.868	19.9478
16.886	19.9378
16.904	19.9288
16.922	19.9224
16.94	19.9212
16.958	19.9265
16.976	19.9388
16.994	19.9589
17.012	19.9852
17.03	20.0166
17.048	20.0499
17.066	20.0827
17.084	20.1117
17.102	20.1328
17.12	20.1443
17.138	20.1426
17.156	20.1268
17.174	20.0958
17.192	20.0502
17.21	19.991
17.228	19.9205
17.246	19.8419
17.264	19.7572
17.282	19.6715
17.3	19.5863
17.318	19.5057
17.336	19.4315
17.354	19.3652
17.372	19.3083
17.39	19.2607
17.408	19.2223
17.426	19.1922
17.444	19.1696
17.462	19.1528
17.48	19.141
17.498	19.1324
17.516	19.1264
17.534	19.1221
17.552	19.1187
17.57	19.116
17.588	19.1143
17.606	19.1138
17.624	19.1147
17.642	19.1176
17.66	19.123
17.678	19.1312
17.696	19.142
17.714	19.1553
17.732	19.1706
17.75	19.1876
17.768	19.205
17.786	19.2221
17.804	19.2371
17.822	19.2495
17.84	19.2573
17.858	19.2599
17.876	19.2562
17.894	19.2458
17.912	19.2283
17.93	19.204
17.948	19.173
17.966	19.1368
17.984	19.096
18.002	19.0524
18.02	19.0077
18.038	18.9631
18.056	18.9207
18.074	18.8814
18.092	18.8468
18.11	18.8173
18.128	18.7938
18.146	18.7761
18.164	18.7641
18.182	18.757
18.2	18.7542
18.218	18.7549
18.236	18.7583
18.254	18.7634
18.272	18.7701
18.29	18.7779
18.308	18.7866
18.326	18.7967
18.344	18.8082
18.362	18.822
18.38	18.8381
18.398	18.8575
18.416	18.88
18.434	18.9062
18.452	18.9354
18.47	18.9676
18.488	19.0013
18.506	19.0364
18.524	19.0705
18.542	19.1031
18.56	19.1315
18.578	19.1555
18.596	19.1723
18.614	19.1818
18.632	19.1821
18.65	19.1735
18.668	19.1552
18.686	19.1276
18.704	19.0916
18.722	19.0478
18.74	18.9981
18.758	18.943
18.776	18.8849
18.794	18.8245
18.812	18.7643
18.83	18.7047
18.848	18.6477
18.866	18.5936
18.884	18.5441
18.902	18.499
18.92	18.4593
18.938	18.4249
18.956	18.3959
18.974	18.3722
18.992	18.3536
19.01	18.3395
19.028	18.3294
19.046	18.3225
19.064	18.3177
19.082	18.3145
19.1	18.3113
19.118	18.3076
19.136	18.3019
19.154	18.2938
19.172	18.2818
19.19	18.2659
19.208	18.2449
19.226	18.219
19.244	18.1876
19.262	18.1511
19.28	18.1098
19.298	18.0638
19.316	18.0143
19.334	17.9612
19.352	17.9063
19.37	17.8493
19.388	17.7918
19.406	17.7337
19.424	17.6764
19.442	17.6197
19.46	17.5649
19.478	17.512
19.496	17.4619
19.514	17.4149
19.532	17.3713
19.55	17.3314
19.568	17.2956
19.586	17.2643
19.604	17.2377
19.622	17.2163
19.64	17.2003
19.658	17.1903
19.676	17.1862
19.694	17.1884
19.712	17.1967
19.73	17.211
19.748	17.2315
19.766	17.2571
19.784	17.2879
19.802	17.3229
19.82	17.3615
19.838	17.4028
19.856	17.4453
19.874	17.4889
19.892	17.5315
19.91	17.5733
19.928	17.6123
19.946	17.6485
19.964	17.6809
19.982	17.7092
20	17.7333
20.018	17.7529
20.036	17.7685
20.054	17.7805
20.072	17.7892
20.09	17.7958
20.108	17.8003
20.126	17.8044
20.144	17.8081
20.162	17.8125
20.18	17.8181
20.198	17.8251
20.216	17.8343
20.234	17.8451
20.252	17.8573
20.27	17.8709
20.288	17.8846
20.306	17.8985
20.324	17.9109
20.342	17.9209
20.36	17.9279
20.378	17.9297
20.396	17.9267
20.414	17.9165
20.432	17.899
20.45	17.8734
20.468	17.8391
20.486	17.7962
20.504	17.7445
20.522	17.684
20.54	17.6157
20.558	17.5393
20.576	17.4566
20.594	17.368
20.612	17.2744
20.63	17.1781
20.648	17.0785
20.666	16.9791
20.684	16.8795
20.702	16.7819
20.72	16.6878
20.738	16.5974
20.756	16.5136
20.774	16.4356
20.792	16.3657
20.81	16.3043
20.828	16.2516
20.846	16.2089
20.864	16.1758
20.882	16.1527
20.9	16.1397
20.918	16.1361
20.936	16.1416
20.954	16.1558
20.972	16.1768
20.99	16.2052
21.008	16.2383
21.026	16.2756
21.044	16.3161
21.062	16.3569
21.08	16.3988
21.098	16.4384
21.116	16.4752
21.134	16.5084
21.152	16.5353
21.17	16.5567
21.188	16.5705
21.206	16.5762
21.224	16.574
21.242	16.5629
21.26	16.5431
21.278	16.5154
21.296	16.4794
21.314	16.4361
21.332	16.3871
21.35	16.3316
21.368	16.2728
21.386	16.2108
21.404	16.1467
21.422	16.0835
21.44	16.0202
21.458	15.9598
21.476	15.9034
21.494	15.8509
21.512	15.8048
21.53	15.7646
21.548	15.7313
21.566	15.7058
21.584	15.6878
21.602	15.6771
21.62	15.6741
21.638	15.6779
21.656	15.6877
21.674	15.7039
21.692	15.724
21.71	15.7479
21.728	15.775
21.746	15.8024
21.764	15.831
21.782	15.8588
21.8	15.8841
21.818	15.9076
21.836	15.9269
21.854	15.9418
21.872	15.9523
21.89	15.9572
21.908	15.9567
21.926	15.9508
21.944	15.9391
21.962	15.9218
21.98	15.9
21.998	15.8733
22.016	15.8424
22.034	15.8089
22.052	15.7722
22.07	15.7338
22.088	15.6947
22.106	15.6546
22.124	15.6148
22.142	15.5756
22.16	15.5371
22.178	15.5003
22.196	15.465
22.214	15.4313
22.232	15.3995
22.25	15.3694
22.268	15.3412
22.286	15.3147
22.304	15.2899
22.322	15.267
22.34	15.2457
22.358	15.2262
22.376	15.2087
22.394	15.1931
22.412	15.1796
22.43	15.1686
22.448	15.1598
22.466	15.154
22.484	15.1513
22.502	15.1518
22.52	15.1557
22.538	15.1636
22.556	15.1751
22.574	15.1904
22.592	15.2097
22.61	15.2326
22.628	15.2584
22.646	15.2875
22.664	15.3191
22.682	15.3515
22.7	15.3858
22.718	15.4203
22.736	15.4531
22.754	15.4853
22.772	15.5147
22.79	15.5391
22.808	15.5599
22.826	15.5747
22.844	15.5817
22.862	15.5821
22.88	15.5744
22.898	15.5574
22.916	15.5319
22.934	15.4979
22.952	15.455
22.97	15.4035
22.988	15.3449
23.006	15.2787
23.024	15.2055
23.042	15.1285
23.06	15.0471
23.078	14.9621
23.096	14.8772
23.114	14.7918
23.132	14.7068
23.15	14.6263
23.168	14.5497
23.186	14.4778
23.204	14.4143
23.222	14.359
23.24	14.3121
23.258	14.2762
23.276	14.2514
23.294	14.2373
23.312	14.2353
23.33	14.2457
23.348	14.2678
23.366	14.3004
23.384	14.3443
23.402	14.3986
23.42	14.4608
23.438	14.5318
23.456	14.6106
23.474	14.6928
23.492	14.7788
23.51	14.8683
23.528	14.9562
23.546	15.0417
23.564	15.1257
23.582	15.2027
23.6	15.271
23.618	15.3325
23.636	15.3823
23.654	15.418
23.672	15.4418
23.69	15.451
23.708	15.4436
23.726	15.4209
23.744	15.3826
23.762	15.3281
23.78	15.2569
23.798	15.1716
23.816	15.0744
23.834	14.963
23.852	14.8409
23.87	14.7136
23.888	14.5782
23.906	14.4374
23.924	14.2978
23.942	14.1587
23.96	14.02
23.978	13.8875
23.996	13.7632
24.014	13.6448
24.032	13.5365
24.05	13.4412
24.068	13.3569
24.086	13.2846
24.104	13.2255
24.122	13.1801
24.14	13.1464
24.158	13.1223
24.176	13.1099
24.194	13.1069
24.212	13.1082
24.23	13.114
24.248	13.1252
24.266	13.1349
24.284	13.1397
24.302	13.1434
24.32	13.1404
24.338	13.1253
24.356	13.1016
24.374	13.0666
24.392	13.0161
24.41	12.9496
24.428	12.8685
24.446	12.7723
24.464	12.6599
24.482	12.5316
24.5	12.3899
24.518	12.2363
24.536	12.0677
24.554	11.889
24.572	11.7068
24.59	11.5174
24.608	11.323
24.626	11.1332
24.644	10.9514
24.662	10.7723
24.68	10.6052
24.698	10.4588
24.716	10.3277
24.734	10.2151
24.752	10.1282
24.77	10.0679
24.788	10.0319
24.806	10.023
24.824	10.0439
24.842	10.0933
24.86	10.1703
24.878	10.2743
24.896	10.4079
24.914	10.5684
24.932	10.7499
24.95	10.9506
24.968	11.1753
24.986	11.4137
25.004	11.6548
25.022	11.9055
25.04	12.1617
25.058	12.4118
25.076	12.6507
25.094	12.8853
25.112	13.1074
25.13	13.3082
25.148	13.4913
25.166	13.6562
25.184	13.7982
25.202	13.9144
25.22	14.0072
25.238	14.077
25.256	14.1239
25.274	14.1453
25.292	14.1443
25.31	14.1262
25.328	14.0935
25.346	14.0412
25.364	13.9771
25.382	13.9097
25.4	13.8352
25.418	13.754
25.436	13.6766
25.454	13.6103
25.472	13.5475
25.49	13.4943
25.508	13.4599
25.526	13.4461
25.544	13.4486
25.562	13.4727
25.58	13.5241
25.598	13.6012
25.616	13.7029
25.634	13.8299
25.652	13.9831
25.67	14.1631
25.688	14.3669
25.706	14.5915
25.724	14.8385
25.742	15.1084
25.76	15.3946
25.778	15.6912
25.796	16.004
25.814	16.3294
25.832	16.6585
25.85	16.9863
25.868	17.3205
25.886	17.6535
25.904	17.9759
25.922	18.2861
25.94	18.5894
25.958	18.8784
25.976	19.1457
25.994	19.3944
26.012	19.6251
26.03	19.8318
26.048	20.0093
26.066	20.1605
26.084	20.2856
26.102	20.3829
26.12	20.4514
26.138	20.4925
26.156	20.5056
26.174	20.49
26.192	20.4453
26.21	20.372
26.228	20.2704
26.246	20.141
26.264	19.9849
26.282	19.8017
26.3	19.5894
26.318	19.3462
26.336	19.0727
26.354	18.7693
26.372	18.4354
26.39	18.0703
26.408	17.6771
26.426	17.2534
26.444	16.7946
26.462	16.2971
26.48	15.7644
26.498	15.1953
26.516	14.5868
26.534	13.9373
26.552	13.2512
26.57	12.5244
26.588	11.7515
26.606	10.9291
26.624	10.0628
26.642	9.148839
26.66	8.181954
26.678	7.159282
26.696	6.085051
26.714	4.957435
26.732	3.773921
26.75	2.533015
26.768	1.236604
26.786	-0.115127
26.804	-1.522197
26.822	-2.987338
26.84	-4.513583
26.858	-6.090674
26.876	-7.707688
26.894	-9.363189
26.912	-11.0703
26.93	-12.8097
26.948	-14.5602
26.966	-16.3894
26.984	-18.4301
27.002	-20.3782
27.02	-21.9012
27.028	-22.3091