File: Bakgrunnsmateriale/MATLAB/FTIR/ftir_data/LPE453/Mapping_121/LPE453_t88_cm-1.asc
PE IR       SPECTRUM    SPECTRUM    ASCII       PEDS        1.60
  -1
LP6B59~1.ASC
17/05/16
21:32:31.00
17/05/16
21:32:31.00
tln
$LPE453_t0088$<tbV0>[-13.0,5.2,8.0,0.0,27,1,0]
370
64

2002,4.07
MIRTGS : RIGHTBACK : INTERNAL 2
MIR : ON : INTERNAL 2
OPTKBR

0.200000
8
8.000000
FILLER
RATIO
SPECTRUM
UNLOCKED 256

DOUBLE
64
COMBINED
1
0
0

1.000000
RATIO

1
0
TRUE
51149
0
LEFT NOT FITTED RIGHT NOT FITTED 0
NONE
NONE
15600
12
4.427000
51148
TRUE
1 0 8 72 0 0 0 0

15798

#HDR
-1
-1
#GR
CM-1
%T
2.38419e-05
0.0
5000
-1.000000
4631
8
33.0479
-4.677271
#DATA
5000	-0.499010
4996	-0.868010
4992	-0.783061
4988	-0.407314
4984	-0.073361
4980	0.237774
4976	0.509071
4972	0.597333
4968	0.511002
4964	0.584077
4960	0.757169
4956	0.677275
4952	0.389099
4948	0.134921
4944	0.095152
4940	0.176286
4936	0.185799
4932	0.027251
4928	-0.024080
4924	0.159811
4920	0.105547
4916	-0.211501
4912	-0.281500
4908	-0.063371
4904	0.061488
4900	0.072836
4896	0.100064
4892	-0.050854
4888	-0.296807
4884	-0.255608
4880	0.120782
4876	0.439143
4872	0.406742
4868	0.199866
4864	0.055408
4860	0.145220
4856	0.320482
4852	0.149202
4848	-0.081014
4844	0.006341
4840	0.088620
4836	0.089716
4832	0.100779
4828	0.094628
4824	0.081682
4820	0.104403
4816	0.215435
4812	0.331997
4808	0.370526
4804	0.271368
4800	0.217080
4796	0.367951
4792	0.379681
4788	0.217127
4784	0.221014
4780	0.373458
4776	0.344133
4772	0.028872
4768	0.041437
4764	0.391817
4760	0.362324
4756	0.223684
4752	0.291275
4748	0.303673
4744	0.277471
4740	0.290560
4736	0.289368
4732	0.285577
4728	0.227475
4724	0.114870
4720	0.108695
4716	0.006604
4712	-0.340676
4708	-0.553679
4704	-0.236463
4700	0.321888
4696	0.351476
4692	0.172495
4688	0.447034
4684	0.819039
4680	0.941610
4676	0.782489
4672	0.832891
4668	1.360011
4664	1.525449
4660	1.105785
4656	0.854682
4652	0.882649
4648	0.693273
4644	0.577020
4640	0.810742
4636	1.117467
4632	1.323199
4628	1.428866
4624	0.956153
4620	-0.167274
4616	-0.173187
4612	1.095199
4608	1.686215
4604	0.777053
4600	0.076508
4596	0.837874
4592	1.366591
4588	1.274752
4584	1.469755
4580	1.430940
4576	0.857353
4572	0.564742
4568	0.693774
4564	1.037669
4560	1.267147
4556	0.794315
4552	0.210428
4548	0.436925
4544	0.683426
4540	0.667715
4536	1.096296
4532	1.169371
4528	0.273919
4524	-0.801348
4520	-1.371264
4516	-1.679062
4512	-1.286458
4508	0.744485
4504	-2.261638
4500	-3.534841
4496	10.2427
4492	17.3442
4488	9.944725
4484	3.998732
4480	1.037979
4476	-0.103735
4472	0.130152
4468	-0.320982
4464	-0.419116
4460	-0.379943
4456	-0.564837
4452	-0.428056
4448	-0.289964
4444	-0.238776
4440	-0.244450
4436	-0.346350
4432	-0.312519
4428	-0.353741
4424	-0.228166
4420	0.125432
4416	0.254535
4412	0.134539
4408	0.037264
4404	0.082015
4400	0.144267
4396	0.197958
4392	0.328326
4388	0.433158
4384	0.373363
4380	0.278329
4376	0.244736
4372	0.180220
4368	0.178670
4364	0.147247
4360	0.070309
4356	0.213861
4352	0.361180
4348	0.365519
4344	0.310087
4340	0.111436
4336	-0.056171
4332	-0.008392
4328	0.027632
4324	-0.053071
4320	-0.064015
4316	0.016212
4312	-0.007867
4308	-0.136756
4304	-0.241732
4300	-0.275135
4296	-0.210285
4292	-0.165224
4288	-0.232863
4284	-0.218176
4280	-0.024819
4276	0.205492
4272	0.279664
4268	0.058364
4264	-0.214004
4260	-0.297856
4256	-0.200700
4252	-0.044202
4248	0.005722
4244	-0.027418
4240	0.025200
4236	0.093078
4232	0.047111
4228	-0.036311
4224	0.020217
4220	0.144004
4216	0.121712
4212	0.067353
4208	0.028944
4204	-0.075459
4200	-0.069785
4196	0.131583
4192	0.183749
4188	0.030231
4184	0.142312
4180	0.521183
4176	0.675725
4172	0.537943
4168	0.313186
4164	0.056934
4160	-0.044393
4156	0.024032
4152	-0.010919
4148	-0.019478
4144	0.082802
4140	0.073695
4136	-0.090599
4132	-0.232672
4128	-0.175809
4124	-0.017905
4120	0.078129
4116	0.080156
4112	0.049757
4108	0.051856
4104	0.049638
4100	0.035095
4096	0.014138
4092	0.025653
4088	0.101637
4084	0.162434
4080	0.229406
4076	0.299930
4072	0.254702
4068	0.082945
4064	-0.051856
4060	-0.013351
4056	0.115871
4052	0.134277
4048	-0.033450
4044	-0.144958
4040	-0.082421
4036	-0.046348
4032	-0.064826
4028	0.029039
4024	0.143408
4020	0.149536
4016	0.170469
4012	0.217413
4008	0.184869
4004	0.044775
4000	-0.144124
3996	-0.152993
3992	0.056624
3988	0.232982
3984	0.287771
3980	0.233006
3976	0.155282
3972	0.158357
3968	0.187110
3964	0.155496
3960	0.013446
3956	-0.057911
3952	0.045180
3948	0.098800
3944	0.095987
3940	0.150465
3936	0.161242
3932	0.129771
3928	0.086474
3924	0.001001
3920	-0.038552
3916	-0.063419
3912	-0.120115
3908	-0.083088
3904	0.087690
3900	0.207066
3896	0.135207
3892	0.011587
3888	-0.036191
3884	0.002241
3880	0.090122
3876	0.108146
3872	0.017833
3868	0.006151
3864	0.097060
3860	0.131082
3856	0.079822
3852	0.029373
3848	0.049543
3844	0.064682
3840	0.069165
3836	0.086641
3832	0.061845
3828	0.079941
3824	0.125789
3820	0.073099
3816	0.002884
3812	-0.009012
3808	0.030303
3804	0.063824
3800	0.003194
3796	-0.101566
3792	-0.169730
3788	-0.136971
3784	-0.071239
3780	-0.088810
3776	-0.078296
3772	-0.085091
3768	-0.157070
3764	-0.137305
3760	-0.035786
3756	0.001859
3752	-0.017857
3748	-0.015139
3744	0.012612
3740	0.089788
3736	0.206327
3732	0.226068
3728	0.130295
3724	0.074696
3720	0.105953
3716	0.104141
3712	0.026035
3708	-0.031948
3704	-0.039362
3700	-0.068330
3696	-0.038623
3692	0.088238
3688	0.083112
3684	-0.051712
3680	-0.101637
3676	0.002980
3672	0.161337
3668	0.192737
3664	0.126242
3660	0.068855
3656	0.030684
3652	-0.006651
3648	-0.020337
3644	0.015044
3640	0.001811
3636	-0.065207
3632	-0.058889
3628	-0.032711
3624	-0.015401
3620	0.033903
3616	0.029659
3612	0.008845
3608	0.021886
3604	0.052404
3600	0.051045
3596	0.021123
3592	0.038599
3588	0.057291
3584	0.035119
3580	0.031971
3576	0.075483
3572	0.066137
3568	0.023674
3564	0.079441
3560	0.119471
3556	0.054979
3552	-0.013279
3548	-0.010848
3544	0.067663
3540	0.108742
3536	0.044703
3532	-0.018382
3528	0.018978
3524	0.047159
3520	-0.024127
3516	-0.049352
3512	-0.068545
3508	-0.139403
3504	-0.149536
3500	-0.103569
3496	-0.001025
3492	0.087332
3488	0.079035
3484	0.011324
3480	0.003862
3476	0.087475
3472	0.125479
3468	0.139904
3464	0.146508
3460	0.104522
3456	0.072908
3452	0.047206
3448	0.027990
3444	0.040936
3440	0.094723
3436	0.161027
3432	0.158214
3428	0.083947
3424	0.012254
3420	-0.011992
3416	0.016808
3412	0.090956
3408	0.107169
3404	0.020170
3400	-0.046563
3396	-0.039672
3392	0.047707
3388	0.146961
3384	0.163555
3380	0.116896
3376	0.026631
3372	-0.044322
3368	-0.065970
3364	-0.065588
3360	-0.025320
3356	0.021314
3352	0.042629
3348	0.018358
3344	0.045204
3340	0.127887
3336	0.078320
3332	-0.016331
3328	-0.046730
3324	-0.052356
3320	-0.025629
3316	0.044178
3312	0.105857
3308	0.111079
3304	0.120806
3300	0.134205
3296	0.149726
3292	0.150966
3288	0.042819
3284	-0.062394
3280	-0.045871
3276	0.004506
3272	0.025367
3268	-0.004744
3264	-0.068545
3260	-0.079655
3256	-0.073575
3252	-0.097465
3248	-0.091743
3244	-0.049805
3240	0.005412
3236	0.016498
3232	-0.022149
3228	-0.006341
3224	0.058031
3220	0.069236
3216	0.041937
3212	0.014805
3208	-0.013232
3204	0.013637
3200	0.091934
3196	0.138378
3192	0.102758
3188	0.024986
3184	-0.026011
3180	-0.042986
3176	-0.011587
3172	0.060987
3168	0.118374
3164	0.133919
3160	0.125622
3156	0.093626
3152	0.046849
3148	0.026202
3144	0.021886
3140	0.025844
3136	0.014090
3132	-0.026535
3128	-0.012493
3124	0.069308
3120	0.109958
3116	0.092458
3112	0.050902
3108	0.014472
3104	0.061106
3100	0.104928
3096	0.067639
3092	0.061058
3088	0.087881
3084	0.086784
3080	0.083613
3076	0.071787
3072	0.022530
3068	-0.009727
3064	0.031757
3060	0.098943
3056	0.114989
3052	0.080156
3048	0.070405
3044	0.084900
3040	0.043869
3036	-0.026488
3032	-0.047993
3028	-0.031518
3024	0.010442
3020	0.094771
3016	0.119137
3012	0.033330
3008	-0.032496
3004	-0.015187
3000	-0.004529
2996	-0.013971
2992	-0.001835
2988	0.021862
2984	0.069093
2980	0.101852
2976	0.109505
2972	0.110816
2968	0.075888
2964	0.051045
2960	0.083708
2956	0.132250
2952	0.119924
2948	0.038385
2944	-0.031900
2940	-0.034737
2936	0.040054
2932	0.135064
2928	0.132465
2924	0.035786
2920	-0.048637
2916	-0.068736
2912	-0.009417
2908	0.055432
2904	0.056529
2900	0.001406
2896	-0.073027
2892	-0.077819
2888	-0.000762
2884	0.063061
2880	0.089669
2876	0.101613
2872	0.106430
2868	0.147509
2864	0.192356
2860	0.117683
2856	-0.019288
2852	-0.024771
2848	0.071406
2844	0.102281
2840	0.030684
2836	-0.059723
2832	-0.040793
2828	0.015997
2824	0.010275
2820	0.025200
2816	0.058531
2812	0.099968
2808	0.129795
2804	0.104236
2800	0.093889
2796	0.084257
2792	0.046730
2788	0.049304
2784	0.036168
2780	-0.023436
2776	-0.027966
2772	0.012826
2768	0.019311
2764	0.014925
2760	0.030636
2756	0.059008
2752	0.130987
2748	0.161838
2744	0.097131
2740	0.050091
2736	0.055265
2732	0.074791
2728	0.084328
2724	0.081253
2720	0.056505
2716	0.001287
2712	-0.024437
2708	0.008797
2704	0.052785
2700	0.091075
2696	0.086545
2692	0.012588
2688	-0.047349
2684	-0.037050
2680	-0.001668
2676	0.033068
2672	0.065088
2668	0.067877
2664	0.046420
2660	0.014734
2656	0.018692
2652	0.067090
2648	0.078463
2644	0.048613
2640	0.001621
2636	-0.042915
2632	-0.038528
2628	-0.003290
2624	0.033974
2620	0.044631
2616	0.004935
2612	-0.044345
2608	-0.028347
2604	0.037765
2600	0.048780
2596	0.013852
2592	0.013113
2588	0.072598
2584	0.147128
2580	0.155448
2576	0.096940
2572	0.044798
2568	0.020241
2564	-0.019288
2560	-0.065922
2556	-0.045943
2552	0.058317
2548	0.160026
2544	0.173354
2540	0.077342
2536	-0.009703
2532	0.035548
2528	0.088953
2524	0.063467
2520	0.059843
2516	0.087285
2512	0.099992
2508	0.109004
2504	0.095129
2500	0.056743
2496	0.023508
2492	-0.008678
2488	-0.000500
2484	0.066280
2480	0.110673
2476	0.075864
2472	0.002145
2468	-0.055980
2464	-0.034189
2460	-0.006604
2456	-0.039625
2452	0.003743
2448	0.076866
2444	0.022029
2440	-0.053262
2436	0.064659
2432	0.228738
2428	0.155186
2424	0.003218
2420	-0.027108
2416	0.020766
2412	0.078916
2408	0.058031
2404	0.026774
2400	0.020694
2396	-0.009989
2392	-0.007247
2388	0.014901
2384	-0.001406
2380	-0.031638
2376	-0.029659
2372	0.016236
2368	0.038599
2364	0.018095
2360	0.027441
2356	0.098562
2352	0.143003
2348	0.117826
2344	0.068187
2340	0.018787
2336	0.027441
2332	0.059342
2328	0.029230
2324	0.000214
2320	0.035977
2316	0.111937
2312	0.154948
2308	0.125336
2304	0.143694
2300	0.209450
2296	0.212121
2292	0.242495
2288	0.332283
2284	0.405693
2280	0.450801
2276	0.511288
2272	0.596141
2268	0.645303
2264	0.680661
2260	0.756907
2256	0.876688
2252	0.984597
2248	1.055359
2244	1.125621
2240	1.192831
2236	1.300835
2232	1.486587
2228	1.682353
2224	1.853990
2220	2.036738
2216	2.235221
2212	2.423691
2208	2.592730
2204	2.740192
2200	2.932667
2196	3.208684
2192	3.461837
2188	3.686571
2184	3.948926
2180	4.223895
2176	4.529333
2172	4.873228
2168	5.231308
2164	5.592679
2160	5.899286
2156	6.153535
2152	6.452965
2148	6.839036
2144	7.292389
2140	7.782626
2136	8.200263
2132	8.473801
2128	8.772039
2124	9.216547
2120	9.696936
2116	10.1384
2112	10.5681
2108	11.0255
2104	11.4842
2100	11.8968
2096	12.3078
2092	12.7858
2088	13.281
2084	13.6899
2080	14.0367
2076	14.4232
2072	14.873
2068	15.3318
2064	15.7779
2060	16.213
2056	16.6551
2052	17.1351
2048	17.6253
2044	18.052
2040	18.4041
2036	18.7752
2032	19.1787
2028	19.5721
2024	19.9672
2020	20.3179
2016	20.6173
2012	20.9355
2008	21.268
2004	21.6236
2000	21.9751
1996	22.2548
1992	22.5443
1988	22.9007
1984	23.2508
1980	23.5471
1976	23.8053
1972	24.0791
1968	24.3673
1964	24.6202
1960	24.8483
1956	25.0575
1952	25.291
1948	25.5838
1944	25.8472
1940	26.0436
1936	26.2506
1932	26.4959
1928	26.7135
1924	26.9228
1920	27.1528
1916	27.3227
1912	27.449
1908	27.5804
1904	27.7167
1900	27.8697
1896	28.0406
1892	28.2279
1888	28.4272
1884	28.6236
1880	28.7762
1876	28.8749
1872	28.9761
1868	29.1206
1864	29.2778
1860	29.3826
1856	29.455
1852	29.5413
1848	29.6437
1844	29.7702
1840	29.8776
1836	29.9552
1832	30.0797
1828	30.2197
1824	30.3133
1820	30.4011
1816	30.4504
1812	30.4676
1808	30.5563
1804	30.6979
1800	30.8093
1796	30.8392
1792	30.8373
1788	30.9082
1784	31.0082
1780	31.0757
1776	31.1792
1772	31.3004
1768	31.3408
1764	31.3667
1760	31.4511
1756	31.5063
1752	31.5129
1748	31.5377
1744	31.577
1740	31.6419
1736	31.7551
1732	31.848
1728	31.8627
1724	31.8393
1720	31.8998
1716	32.0537
1712	32.1263
1708	32.1069
1704	32.073
1700	32.0459
1696	32.0641
1692	32.0944
1688	32.1285
1684	32.1773
1680	32.2043
1676	32.2022
1672	32.2108
1668	32.229
1664	32.2391
1660	32.2795
1656	32.349
1652	32.383
1648	32.3797
1644	32.4066
1640	32.4564
1636	32.4912
1632	32.4995
1628	32.4951
1624	32.4912
1620	32.4557
1616	32.4008
1612	32.3606
1608	32.3422
1604	32.364
1600	32.4338
1596	32.5162
1592	32.6427
1588	32.7937
1584	32.815
1580	32.7708
1576	32.7905
1572	32.7626
1568	32.6829
1564	32.6746
1560	32.6962
1556	32.6986
1552	32.7555
1548	32.8654
1544	32.9344
1540	32.9523
1536	32.9438
1532	32.9048
1528	32.8832
1524	32.9091
1520	32.8897
1516	32.8519
1512	32.9211
1508	33.0082
1504	32.9958
1500	32.9117
1496	32.8346
1492	32.8489
1488	32.8818
1484	32.8478
1480	32.834
1476	32.8869
1472	32.9162
1468	32.8674
1464	32.8578
1460	32.9181
1456	32.9054
1452	32.8629
1448	32.9249
1444	33.0089
1440	33.0171
1436	32.9557
1432	32.902
1428	32.9376
1424	33.021
1420	33.0445
1416	32.9885
1412	32.9473
1408	32.9417
1404	32.9071
1400	32.8655
1396	32.8278
1392	32.8155
1388	32.8405
1384	32.8208
1380	32.8182
1376	32.8828
1372	32.9126
1368	32.8905
1364	32.8629
1360	32.8503
1356	32.8782
1352	32.9421
1348	32.939
1344	32.8409
1340	32.7812
1336	32.8197
1332	32.8638
1328	32.8752
1324	32.901
1320	32.9221
1316	32.9169
1312	32.9104
1308	32.9109
1304	32.9062
1300	32.854
1296	32.7708
1292	32.745
1288	32.7847
1284	32.8438
1280	32.8626
1276	32.8453
1272	32.865
1268	32.882
1264	32.8158
1260	32.7166
1256	32.6724
1252	32.6905
1248	32.7343
1244	32.7495
1240	32.7086
1236	32.6209
1232	32.5534
1228	32.5378
1224	32.532
1220	32.5874
1216	32.6485
1212	32.5979
1208	32.5478
1204	32.6172
1200	32.6383
1196	32.5283
1192	32.4432
1188	32.4033
1184	32.4077
1180	32.4462
1176	32.4836
1172	32.5083
1168	32.4851
1164	32.4003
1160	32.3167
1156	32.2696
1152	32.2062
1148	32.1288
1144	32.1057
1140	32.1184
1136	32.0943
1132	32.0514
1128	31.9883
1124	31.9242
1120	31.9593
1116	32.0263
1112	32.0287
1108	31.9599
1104	31.8069
1100	31.6817
1096	31.7271
1092	31.7633
1088	31.6419
1084	31.5739
1080	31.5835
1076	31.5648
1072	31.59
1068	31.6543
1064	31.6549
1060	31.587
1056	31.5124
1052	31.4506
1048	31.4366
1044	31.4427
1040	31.3711
1036	31.2533
1032	31.1267
1028	31.0539
1024	31.101
1020	31.1478
1016	31.1491
1012	31.1625
1008	31.1333
1004	31.0416
1000	30.9308
996	 30.8441
992	 30.7705
988	 30.6433
984	 30.4899
980	 30.3794
976	 30.3789
972	 30.461
968	 30.5591
964	 30.6645
960	 30.6294
956	 30.399
952	 30.1828
948	 30.1299
944	 30.1507
940	 30.0965
936	 30.0051
932	 29.9279
928	 29.7873
924	 29.6018
920	 29.454
916	 29.4377
912	 29.5911
908	 29.7415
904	 29.7183
900	 29.5495
896	 29.4052
892	 29.379
888	 29.3593
884	 29.2417
880	 29.0593
876	 28.9138
872	 28.8655
868	 28.8505
864	 28.8704
860	 28.9584
856	 29.0433
852	 29.0793
848	 29.0846
844	 28.9987
840	 28.7685
836	 28.5091
832	 28.303
828	 28.3012
824	 28.518
820	 28.5066
816	 28.2342
812	 28.1304
808	 28.2306
804	 28.2219
800	 28.0469
796	 27.8941
792	 27.8254
788	 27.84
784	 27.7853
780	 27.6308
776	 27.4889
772	 27.3257
768	 27.1404
764	 26.9547
760	 26.8344
756	 26.8669
752	 27.0357
748	 27.0726
744	 26.9233
740	 26.931
736	 26.9089
732	 26.682
728	 26.5584
724	 26.5566
720	 26.5058
716	 26.36
712	 26.1346
708	 25.959
704	 26.016
700	 25.9846
696	 25.686
692	 25.6054
688	 25.7788
684	 25.8425
680	 25.763
676	 25.6474
672	 25.5588
668	 25.4769
664	 25.2997
660	 25.0543
656	 24.7913
652	 24.636
648	 24.6237
644	 24.5137
640	 24.4545
636	 24.7013
632	 25.015
628	 25.1084
624	 24.9306
620	 24.6904
616	 24.4672
612	 24.1929
608	 24.045
604	 24.0068
600	 23.7518
596	 23.4102
592	 23.4472
588	 23.7908
584	 24.1691
580	 24.5315
576	 24.5667
572	 24.1696
568	 23.6262
564	 23.111
560	 22.6743
556	 22.3753
552	 22.3863
548	 22.7299
544	 23.0555
540	 23.019
536	 22.7997
532	 22.5392
528	 22.3293
524	 22.3293
520	 22.423
516	 22.5602
512	 22.5879
508	 22.3703
504	 22.0347
500	 21.4704
496	 20.7874
492	 20.2883
488	 20.2004
484	 20.6284
480	 20.8738
476	 20.4989
472	 20.3377
468	 20.7725
464	 20.8891
460	 20.5996
456	 20.1848
452	 19.67
448	 19.7551
444	 20.2463
440	 20.371
436	 18.9445
432	 16.6248
428	 16.5345
424	 18.1813
420	 18.9535
416	 18.549
412	 17.3165
408	 17.1351
404	 18.9991
400	 21.5507
396	 24.036
392	 23.8201
388	 20.1299
384	 15.1026
380	 9.763789
376	 5.849146
372	 6.947636
370	 15.0275