File: Bakgrunnsmateriale/MATLAB/FTIR/ftir_data/LPE453/Mapping_121/LPE453_t117.asc
PE IR       SPECTRUM    SPECTRUM    ASCII       PEDS        1.60
  -1
LP9F88~1.ASC
17/05/17
00:13:59.00
17/05/17
00:14:26.00
tln
$LPE453_t0117$<tbV0>[-2.6,13.0,8.0,0.0,27,1,0]
27.028
64

2002,4.07
MIRTGS : RIGHTBACK : INTERNAL 2
MIR : ON : INTERNAL 2
OPTKBR

0.200000
8
8.000000
FILLER
RATIO
SPECTRUM
UNLOCKED 256

DOUBLE
64
COMBINED
1
0
0

0.002000
RATIO

1
0
TRUE
51149
0
LEFT NOT FITTED RIGHT NOT FITTED 0
NONE
NONE
15600
12
4.427000
51148
TRUE
1 0 8 72 0 0 0 0

15798

#HDR
-1
-1
#GR
µM
%T
2.38419e-05
0.0
2.000000
0.002000
12515
8
35.1775
-1.357202
#DATA
2.000000	 0.248789
2.018000	 -0.070863
2.036000	 -0.157604
2.054000	 0.009658
2.072000	 0.445794
2.090000	 0.217996
2.108000	 -0.663471
2.126000	 0.005092
2.144000	 2.053218
2.162000	 1.484973
2.180000	 0.880387
2.198000	 0.710599
2.216000	 0.077009
2.234000	 -0.272815
2.252000	 0.381890
2.270000	 0.294412
2.288000	 -0.060414
2.306000	 0.278835
2.324000	 0.058365
2.342000	 0.177401
2.360000	 0.062999
2.378000	 0.125339
2.396000	 0.022384
2.414000	 0.063997
2.432000	 0.122899
2.450000	 -0.025839
2.468000	 0.049475
2.486000	 0.029972
2.504000	 0.102788
2.522000	 -0.031789
2.540000	 -0.236848
2.558000	 0.012643
2.576000	 0.092976
2.594000	 0.189645
2.612000	 0.078397
2.630000	 0.132975
2.648000	 -0.035304
2.666000	 -0.050371
2.684000	 0.051942
2.702000	 0.090443
2.720000	 -0.008653
2.738000	 -0.031029
2.756000	 0.142217
2.774000	 -0.053829
2.792000	 -0.016809
2.810000	 0.172251
2.828000	 0.069951
2.846000	 0.190766
2.864000	 0.154465
2.882000	 0.002587
2.900000	 -0.020962
2.918000	 0.006027
2.936000	 0.045288
2.954000	 0.106838
2.972000	 -0.020380
2.990000	 0.006512
3.008000	 -0.081534
3.026000	 -0.022918
3.044000	 -0.043800
3.062000	 -0.005177
3.080000	 0.098135
3.098000	 0.284587
3.116000	 0.074782
3.134000	 -0.007164
3.152000	 -0.062260
3.170000	 0.011603
3.188000	 0.185008
3.206000	 -0.106986
3.224000	 -0.006112
3.242000	 0.076154
3.260000	 0.005411
3.278000	 -0.007491
3.296000	 0.013207
3.314000	 -0.038799
3.332000	 0.095437
3.350000	 0.102292
3.368000	 0.098552
3.386000	 0.051372
3.404000	 0.076661
3.422000	 0.019373
3.440000	 -0.015886
3.458000	 0.066218
3.476000	 0.069123
3.494000	 0.033079
3.512000	 0.037777
3.530000	 0.046701
3.548000	 0.042433
3.566000	 0.022250
3.584000	 0.026518
3.602000	 -0.033967
3.620000	 0.078600
3.638000	 0.010602
3.656000	 0.137032
3.674000	 0.021444
3.692000	 -0.059296
3.710000	 0.034946
3.728000	 0.016015
3.746000	 -0.062983
3.764000	 0.055343
3.782000	 -0.036401
3.800000	 0.065031
3.818000	 -0.021738
3.836000	 -0.022046
3.854000	 0.015622
3.872000	 0.047141
3.890000	 -0.010261
3.908000	 0.067424
3.926000	 -0.029392
3.944000	 0.030310
3.962000	 0.090114
3.980000	 0.106143
3.998000	 -0.046774
4.016000	 -0.038408
4.034000	 0.053577
4.052000	 0.043307
4.070000	 -0.045461
4.088000	 -0.049011
4.106000	 -0.012185
4.124000	 -0.080068
4.141999	 -0.017225
4.160000	 -0.033067
4.178000	 0.076251
4.196000	 0.205054
4.214000	 0.118270
4.232000	 0.173907
4.250000	 0.143452
4.268000	 0.266309
4.286000	 0.388300
4.304000	 0.312161
4.322000	 0.575708
4.340000	 0.666466
4.358000	 0.726228
4.375999	 0.969325
4.394000	 1.200198
4.412000	 1.462045
4.430000	 1.656110
4.448000	 1.918334
4.466000	 2.356973
4.484000	 2.744218
4.502000	 3.379597
4.520000	 3.872203
4.538000	 4.421005
4.556000	 5.137243
4.574000	 5.854031
4.592000	 6.530281
4.609999	 7.373937
4.628000	 8.236412
4.646000	 9.097047
4.664000	 9.888424
4.682000	 10.8688
4.700000	 11.8364
4.718000	 12.8293
4.736000	 13.6288
4.754000	 14.6289
4.772000	 15.5341
4.790000	 16.4612
4.808000	 17.3025
4.826000	 18.2377
4.843999	 19.0519
4.862000	 20.0243
4.880000	 20.7751
4.898000	 21.4964
4.916000	 22.1738
4.934000	 22.838
4.952000	 23.4657
4.970000	 24.1019
4.988000	 24.7263
5.006000	 25.2854
5.024000	 25.8348
5.042000	 26.3703
5.060000	 26.8367
5.077999	 27.2052
5.096000	 27.6517
5.114000	 28.0393
5.132000	 28.3969
5.150000	 28.778
5.168000	 29.2038
5.186000	 29.4625
5.204000	 29.854
5.222000	 30.1268
5.240000	 30.2804
5.258000	 30.539
5.276000	 30.7998
5.294000	 30.9674
5.312000	 31.1853
5.330000	 31.4492
5.348000	 31.6237
5.366000	 31.8081
5.384000	 31.9743
5.402000	 32.1117
5.420000	 32.1798
5.438000	 32.3069
5.456000	 32.548
5.474000	 32.7852
5.492000	 32.9175
5.510000	 33.0266
5.528000	 33.1158
5.546000	 33.2109
5.564000	 33.2942
5.582000	 33.3139
5.600000	 33.3928
5.618000	 33.4139
5.636000	 33.4663
5.654000	 33.6229
5.672000	 33.7573
5.690000	 33.8882
5.708000	 34.0106
5.726000	 34.1106
5.744000	 34.0329
5.762000	 34.001
5.780000	 34.0202
5.798000	 33.9811
5.816000	 34.0313
5.834000	 34.111
5.852000	 34.1995
5.870000	 34.3197
5.888000	 34.455
5.906000	 34.5911
5.923999	 34.6422
5.942000	 34.5288
5.960000	 34.42
5.978000	 34.4197
5.996000	 34.4349
6.014000	 34.4036
6.032000	 34.4434
6.050000	 34.4956
6.068000	 34.589
6.086000	 34.6935
6.104000	 34.794
6.122000	 34.8601
6.140000	 34.8891
6.158000	 34.8646
6.176000	 34.7798
6.194000	 34.6979
6.212000	 34.6897
6.230000	 34.7392
6.248000	 34.7926
6.266000	 34.7898
6.284000	 34.8216
6.302000	 34.896
6.320000	 34.9659
6.338000	 35.0207
6.356000	 35.0563
6.374000	 35.1022
6.392000	 35.1029
6.410000	 35.0208
6.428000	 34.9234
6.446000	 34.8499
6.464000	 34.8503
6.482000	 34.8624
6.500000	 34.863
6.518000	 34.9192
6.536000	 34.99
6.554000	 35.0246
6.572000	 35.0187
6.590000	 35.0496
6.608000	 35.1211
6.626000	 35.1717
6.644000	 35.1626
6.662000	 35.0733
6.680000	 34.9651
6.698000	 34.8813
6.716000	 34.7871
6.734000	 34.7109
6.752000	 34.671
6.770000	 34.6718
6.788000	 34.7462
6.806000	 34.8056
6.824000	 34.8106
6.842000	 34.8488
6.860000	 34.9117
6.878000	 34.9461
6.896000	 34.9209
6.914000	 34.8644
6.932000	 34.8681
6.950000	 34.9091
6.968000	 34.9097
6.986000	 34.8758
7.004000	 34.8029
7.022000	 34.6912
7.040000	 34.6007
7.058000	 34.5473
7.076000	 34.5223
7.094000	 34.5632
7.112000	 34.6776
7.130000	 34.7876
7.148000	 34.8497
7.166000	 34.9113
7.184000	 34.9682
7.202000	 34.9417
7.220000	 34.8376
7.238000	 34.7446
7.256000	 34.6816
7.274000	 34.614
7.292000	 34.5638
7.310000	 34.5473
7.328000	 34.5305
7.346000	 34.5028
7.364000	 34.4615
7.382000	 34.4046
7.400000	 34.3843
7.418000	 34.4249
7.436000	 34.4623
7.454000	 34.4842
7.472000	 34.5598
7.490000	 34.6766
7.508000	 34.7426
7.526000	 34.7417
7.544000	 34.7231
7.562000	 34.6976
7.580000	 34.6481
7.598000	 34.5804
7.616000	 34.5051
7.634000	 34.4119
7.652000	 34.3068
7.670000	 34.2365
7.688000	 34.2341
7.706000	 34.2706
7.724000	 34.301
7.742000	 34.3209
7.760000	 34.339
7.778000	 34.343
7.796000	 34.3332
7.814000	 34.3401
7.832000	 34.3818
7.850000	 34.446
7.868000	 34.5114
7.886000	 34.5537
7.904000	 34.56
7.922000	 34.5413
7.940000	 34.5063
7.958000	 34.4447
7.976000	 34.3527
7.994000	 34.2483
8.012000	 34.1547
8.030000	 34.0897
8.048000	 34.0533
8.065999	 34.0255
8.084000	 33.9899
8.102000	 33.9567
8.120000	 33.9483
8.138000	 33.9669
8.155999	 33.9953
8.173999	 34.0243
8.192000	 34.066
8.210000	 34.1316
8.228000	 34.2042
8.246000	 34.2544
8.263999	 34.2682
8.282000	 34.2425
8.300000	 34.1887
8.318000	 34.145
8.336000	 34.1428
8.353999	 34.1607
8.372000	 34.1416
8.390000	 34.0591
8.408000	 33.947
8.426000	 33.8584
8.443999	 33.809
8.462000	 33.7762
8.480000	 33.7369
8.498000	 33.6916
8.516000	 33.6529
8.533999	 33.6299
8.552000	 33.6224
8.570000	 33.6261
8.588000	 33.6385
8.606000	 33.6643
8.624000	 33.7121
8.641999	 33.7823
8.660000	 33.8595
8.678000	 33.9203
8.696000	 33.9469
8.714000	 33.9363
8.731999	 33.9018
8.750000	 33.8692
8.768000	 33.8601
8.786000	 33.8744
8.804000	 33.8934
8.821999	 33.8997
8.840000	 33.8847
8.858000	 33.8419
8.876000	 33.7668
8.894000	 33.6663
8.911999	 33.5616
8.930000	 33.4716
8.948000	 33.3983
8.966000	 33.3338
8.984000	 33.2786
9.001999	 33.2474
9.020000	 33.2552
9.038000	 33.3003
9.056000	 33.3639
9.074000	 33.421
9.092000	 33.4535
9.109999	 33.4603
9.128000	 33.4574
9.146000	 33.4652
9.164000	 33.4924
9.182000	 33.5318
9.199999	 33.569
9.218000	 33.5919
9.236000	 33.5922
9.254000	 33.5653
9.272000	 33.5134
9.289999	 33.4488
9.308000	 33.3895
9.326000	 33.3439
9.344000	 33.3026
9.362000	 33.2446
9.379999	 33.1569
9.398000	 33.0475
9.416000	 32.943
9.434000	 32.8705
9.452000	 32.8413
9.469999	 32.8492
9.488000	 32.8782
9.506000	 32.908
9.524000	 32.9172
9.542000	 32.8935
9.560000	 32.8459
9.577999	 32.8038
9.596000	 32.7961
9.614000	 32.8307
9.632000	 32.8912
9.650000	 32.9558
9.667999	 33.015
9.686000	 33.0707
9.704000	 33.1225
9.722000	 33.1592
9.740000	 33.1693
9.757999	 33.1571
9.776000	 33.1445
9.794000	 33.1556
9.812000	 33.1946
9.830000	 33.2407
9.847999	 33.2639
9.866000	 33.2458
9.884000	 33.1894
9.902000	 33.1123
9.920000	 33.0315
9.937999	 32.9543
9.956000	 32.8788
9.974000	 32.8024
9.992000	 32.7276
10.01	32.6597
10.028	32.6015
10.046	32.5505
10.064	32.5042
10.082	32.4646
10.1	32.4373
10.118	32.4254
10.136	32.4236
10.154	32.4216
10.172	32.4106
10.19	32.3911
10.208	32.374
10.226	32.3726
10.244	32.3953
10.262	32.4405
10.28	32.4983
10.298	32.555
10.316	32.5981
10.334	32.6224
10.352	32.6298
10.37	32.6274
10.388	32.6208
10.406	32.6112
10.424	32.5966
10.442	32.5766
10.46	32.5556
10.478	32.5416
10.496	32.5393
10.514	32.5435
10.532	32.5392
10.55	32.5112
10.568	32.4541
10.586	32.3777
10.604	32.3012
10.622	32.2427
10.64	32.2088
10.658	32.1936
10.676	32.1824
10.694	32.1622
10.712	32.1275
10.73	32.0808
10.748	32.0294
10.766	31.9805
10.784	31.9387
10.802	31.9055
10.82	31.8806
10.838	31.8624
10.856	31.8496
10.874	31.8403
10.892	31.8323
10.91	31.8237
10.928	31.8147
10.946	31.8091
10.964	31.8134
10.982	31.8343
11	31.8741
11.018	31.9281
11.036	31.9848
11.054	32.0304
11.072	32.0554
11.09	32.0588
11.108	32.048
11.126	32.0341
11.144	32.0243
11.162	32.0184
11.18	32.0108
11.198	31.9942
11.216	31.9665
11.234	31.9328
11.252	31.9027
11.27	31.8836
11.288	31.8759
11.306	31.8715
11.324	31.8563
11.342	31.8177
11.36	31.7509
11.378	31.6612
11.396	31.5617
11.414	31.4683
11.432	31.3927
11.45	31.3389
11.468	31.3026
11.486	31.2744
11.504	31.2445
11.522	31.2063
11.54	31.1586
11.558	31.1055
11.576	31.0548
11.594	31.0145
11.612	30.9912
11.63	30.988
11.648	31.0037
11.666	31.0334
11.684	31.07
11.702	31.1068
11.72	31.1379
11.738	31.1599
11.756	31.1721
11.774	31.1762
11.792	31.176
11.81	31.1768
11.828	31.1844
11.846	31.204
11.864	31.239
11.882	31.2892
11.9	31.3513
11.918	31.4183
11.936	31.4811
11.954	31.5305
11.972	31.5587
11.99	31.5603
12.008	31.5338
12.026	31.481
12.044	31.4065
12.062	31.3174
12.08	31.2216
12.098	31.1274
12.116	31.0431
12.134	30.9755
12.152	30.929
12.17	30.9054
12.188	30.9031
12.206	30.9172
12.224	30.9401
12.242	30.9624
12.26	30.9747
12.278	30.9695
12.296	30.9427
12.314	30.8949
12.332	30.8307
12.35	30.7578
12.368	30.6843
12.386	30.617
12.404	30.5603
12.422	30.5148
12.44	30.4786
12.458	30.4487
12.476	30.4223
12.494	30.3983
12.512	30.3772
12.53	30.3606
12.548	30.3505
12.566	30.348
12.584	30.3533
12.602	30.3652
12.62	30.3818
12.638	30.4009
12.656	30.4207
12.674	30.44
12.692	30.458
12.71	30.4748
12.728	30.4908
12.746	30.5065
12.764	30.5218
12.782	30.5363
12.8	30.5489
12.818	30.5579
12.836	30.5618
12.854	30.5594
12.872	30.5506
12.89	30.5373
12.908	30.5227
12.926	30.5114
12.944	30.5074
12.962	30.513
12.98	30.5277
12.998	30.5476
13.016	30.5656
13.034	30.5732
13.052	30.5622
13.07	30.5275
13.088	30.4682
13.106	30.3887
13.124	30.2976
13.142	30.2059
13.16	30.1248
13.178	30.0629
13.196	30.0249
13.214	30.0101
13.232	30.0138
13.25	30.0279
13.268	30.0436
13.286	30.0523
13.304	30.0474
13.322	30.0253
13.34	29.9853
13.358	29.9293
13.376	29.8612
13.394	29.7859
13.412	29.7087
13.43	29.6347
13.448	29.5683
13.466	29.5127
13.484	29.4695
13.502	29.4389
13.52	29.4194
13.538	29.4084
13.556	29.4028
13.574	29.3997
13.592	29.3975
13.61	29.3955
13.628	29.3943
13.646	29.396
13.664	29.4032
13.682	29.418
13.7	29.4423
13.718	29.4768
13.736	29.5211
13.754	29.5736
13.772	29.6319
13.79	29.6934
13.808	29.755
13.826	29.8138
13.844	29.8669
13.862	29.9119
13.88	29.9466
13.898	29.9691
13.916	29.9783
13.934	29.9741
13.952	29.9572
13.97	29.9294
13.988	29.8936
14.006	29.8534
14.024	29.8124
14.042	29.7739
14.06	29.7404
14.078	29.7135
14.096	29.693
14.114	29.6783
14.132	29.6676
14.15	29.6585
14.168	29.6492
14.186	29.6377
14.204	29.6227
14.222	29.6035
14.24	29.5798
14.258	29.5521
14.276	29.5206
14.294	29.486
14.312	29.4487
14.33	29.4097
14.348	29.3696
14.366	29.3294
14.384	29.2896
14.402	29.2512
14.42	29.2144
14.438	29.1795
14.456	29.1459
14.474	29.113
14.492	29.0798
14.51	29.0451
14.528	29.008
14.546	28.9676
14.564	28.9236
14.582	28.8765
14.6	28.827
14.618	28.7765
14.636	28.727
14.654	28.6801
14.672	28.6374
14.69	28.6003
14.708	28.5699
14.726	28.5465
14.744	28.5299
14.762	28.5194
14.78	28.5141
14.798	28.5127
14.816	28.5136
14.834	28.5154
14.852	28.5166
14.87	28.5163
14.888	28.5139
14.906	28.5095
14.924	28.5035
14.942	28.4966
14.96	28.4903
14.978	28.4856
14.996	28.4837
15.014	28.4857
15.032	28.4918
15.05	28.5024
15.068	28.5172
15.086	28.5361
15.104	28.5586
15.122	28.584
15.14	28.6115
15.158	28.6406
15.176	28.6705
15.194	28.7002
15.212	28.7284
15.23	28.7538
15.248	28.7751
15.266	28.791
15.284	28.8002
15.302	28.802
15.32	28.7963
15.338	28.7837
15.356	28.7652
15.374	28.7434
15.392	28.7207
15.41	28.6997
15.428	28.6833
15.446	28.6741
15.464	28.6734
15.482	28.6815
15.5	28.698
15.518	28.7204
15.536	28.7458
15.554	28.7707
15.572	28.7911
15.59	28.8024
15.608	28.8018
15.626	28.7872
15.644	28.757
15.662	28.7119
15.68	28.6533
15.698	28.5833
15.716	28.5052
15.734	28.4226
15.752	28.3385
15.77	28.2556
15.788	28.1766
15.806	28.1025
15.824	28.0341
15.842	27.9716
15.86	27.9145
15.878	27.8622
15.896	27.8142
15.914	27.7702
15.932	27.73
15.95	27.6935
15.968	27.6611
15.986	27.6329
16.004	27.6092
16.022	27.5899
16.04	27.5744
16.058	27.5619
16.076	27.5516
16.094	27.542
16.112	27.5318
16.13	27.5203
16.148	27.5065
16.166	27.4901
16.184	27.471
16.202	27.4495
16.22	27.4264
16.238	27.4027
16.256	27.3793
16.274	27.3576
16.292	27.3387
16.31	27.3232
16.328	27.3122
16.346	27.3057
16.364	27.3038
16.382	27.3061
16.4	27.3118
16.418	27.3203
16.436	27.3302
16.454	27.3402
16.472	27.3495
16.49	27.3567
16.508	27.3612
16.526	27.3626
16.544	27.3606
16.562	27.3556
16.58	27.3479
16.598	27.3385
16.616	27.3282
16.634	27.3176
16.652	27.308
16.67	27.3
16.688	27.2942
16.706	27.2911
16.724	27.2907
16.742	27.2931
16.76	27.2979
16.778	27.3048
16.796	27.3136
16.814	27.324
16.832	27.3359
16.85	27.3495
16.868	27.3648
16.886	27.382
16.904	27.4013
16.922	27.4229
16.94	27.4471
16.958	27.4735
16.976	27.5019
16.994	27.5314
17.012	27.561
17.03	27.5898
17.048	27.616
17.066	27.6389
17.084	27.6568
17.102	27.6684
17.12	27.6732
17.138	27.6701
17.156	27.659
17.174	27.6399
17.192	27.6132
17.21	27.5796
17.228	27.5399
17.246	27.4953
17.264	27.4466
17.282	27.3954
17.3	27.3424
17.318	27.289
17.336	27.2359
17.354	27.1837
17.372	27.1335
17.39	27.0855
17.408	27.0401
17.426	26.9978
17.444	26.9587
17.462	26.923
17.48	26.8906
17.498	26.8613
17.516	26.8348
17.534	26.8107
17.552	26.7882
17.57	26.7669
17.588	26.7457
17.606	26.724
17.624	26.701
17.642	26.6756
17.66	26.6476
17.678	26.616
17.696	26.581
17.714	26.542
17.732	26.4992
17.75	26.4525
17.768	26.4024
17.786	26.3489
17.804	26.2927
17.822	26.2339
17.84	26.1732
17.858	26.1107
17.876	26.047
17.894	25.9825
17.912	25.9174
17.93	25.8522
17.948	25.7869
17.966	25.7223
17.984	25.6584
18.002	25.5958
18.02	25.535
18.038	25.4765
18.056	25.421
18.074	25.3689
18.092	25.3215
18.11	25.2789
18.128	25.2426
18.146	25.213
18.164	25.1911
18.182	25.177
18.2	25.1716
18.218	25.1746
18.236	25.1863
18.254	25.2061
18.272	25.2341
18.29	25.2687
18.308	25.3097
18.326	25.3553
18.344	25.405
18.362	25.4566
18.38	25.5096
18.398	25.5623
18.416	25.6139
18.434	25.6633
18.452	25.7099
18.47	25.7531
18.488	25.793
18.506	25.8292
18.524	25.8621
18.542	25.8917
18.56	25.919
18.578	25.944
18.596	25.9674
18.614	25.9894
18.632	26.0105
18.65	26.0306
18.668	26.0496
18.686	26.0675
18.704	26.0837
18.722	26.0982
18.74	26.1101
18.758	26.1193
18.776	26.1253
18.794	26.1279
18.812	26.1268
18.83	26.1222
18.848	26.1142
18.866	26.1031
18.884	26.0893
18.902	26.0733
18.92	26.0555
18.938	26.0363
18.956	26.0163
18.974	25.9954
18.992	25.9741
19.01	25.9523
19.028	25.9299
19.046	25.9066
19.064	25.8819
19.082	25.8555
19.1	25.8268
19.118	25.7956
19.136	25.7612
19.154	25.7237
19.172	25.6826
19.19	25.6382
19.208	25.5907
19.226	25.5403
19.244	25.4879
19.262	25.4337
19.28	25.3792
19.298	25.3246
19.316	25.2715
19.334	25.2201
19.352	25.1722
19.37	25.1275
19.388	25.0873
19.406	25.0515
19.424	25.0205
19.442	24.9943
19.46	24.9727
19.478	24.9559
19.496	24.9433
19.514	24.9347
19.532	24.9293
19.55	24.9267
19.568	24.9263
19.586	24.9272
19.604	24.9289
19.622	24.9305
19.64	24.9319
19.658	24.9317
19.676	24.9301
19.694	24.9259
19.712	24.9191
19.73	24.9091
19.748	24.8959
19.766	24.8794
19.784	24.8594
19.802	24.8363
19.82	24.8102
19.838	24.7815
19.856	24.7508
19.874	24.7182
19.892	24.6846
19.91	24.65
19.928	24.6153
19.946	24.5805
19.964	24.5463
19.982	24.5129
20	24.4805
20.018	24.4494
20.036	24.4197
20.054	24.3917
20.072	24.3653
20.09	24.3407
20.108	24.318
20.126	24.2975
20.144	24.2791
20.162	24.2632
20.18	24.25
20.198	24.2395
20.216	24.2323
20.234	24.2281
20.252	24.2272
20.27	24.2295
20.288	24.2348
20.306	24.2431
20.324	24.2537
20.342	24.2663
20.36	24.2803
20.378	24.2941
20.396	24.308
20.414	24.3196
20.432	24.3293
20.45	24.3351
20.468	24.336
20.486	24.3318
20.504	24.3208
20.522	24.3034
20.54	24.2791
20.558	24.2477
20.576	24.2102
20.594	24.1666
20.612	24.1179
20.63	24.066
20.648	24.0106
20.666	23.9551
20.684	23.8991
20.702	23.8448
20.72	23.7941
20.738	23.7468
20.756	23.7054
20.774	23.6696
20.792	23.6401
20.81	23.6175
20.828	23.6012
20.846	23.5912
20.864	23.5874
20.882	23.5881
20.9	23.5937
20.918	23.6026
20.936	23.6139
20.954	23.6276
20.972	23.6418
20.99	23.6567
21.008	23.6715
21.026	23.6857
21.044	23.6993
21.062	23.7123
21.08	23.7245
21.098	23.7366
21.116	23.7486
21.134	23.7609
21.152	23.7743
21.17	23.7887
21.188	23.8048
21.206	23.8228
21.224	23.8426
21.242	23.8643
21.26	23.8879
21.278	23.9128
21.296	23.9391
21.314	23.9661
21.332	23.9926
21.35	24.0191
21.368	24.0437
21.386	24.0663
21.404	24.0865
21.422	24.1025
21.44	24.1148
21.458	24.1223
21.476	24.1248
21.494	24.1222
21.512	24.1142
21.53	24.1005
21.548	24.0815
21.566	24.0572
21.584	24.0275
21.602	23.9931
21.62	23.9537
21.638	23.9099
21.656	23.8621
21.674	23.8102
21.692	23.7549
21.71	23.6964
21.728	23.6348
21.746	23.5709
21.764	23.5044
21.782	23.436
21.8	23.3662
21.818	23.2948
21.836	23.223
21.854	23.1504
21.872	23.0778
21.89	23.0061
21.908	22.9349
21.926	22.8654
21.944	22.7985
21.962	22.7338
21.98	22.6729
21.998	22.6159
22.016	22.563
22.034	22.5151
22.052	22.472
22.07	22.4341
22.088	22.4019
22.106	22.3751
22.124	22.3538
22.142	22.3381
22.16	22.3277
22.178	22.3222
22.196	22.3219
22.214	22.3259
22.232	22.3334
22.25	22.3447
22.268	22.359
22.286	22.3757
22.304	22.395
22.322	22.4163
22.34	22.4393
22.358	22.4641
22.376	22.4903
22.394	22.5179
22.412	22.5469
22.43	22.5771
22.448	22.6086
22.466	22.6413
22.484	22.675
22.502	22.7099
22.52	22.7456
22.538	22.782
22.556	22.8193
22.574	22.8564
22.592	22.8937
22.61	22.9307
22.628	22.9665
22.646	23.0013
22.664	23.0347
22.682	23.0653
22.7	23.0936
22.718	23.1191
22.736	23.1406
22.754	23.1587
22.772	23.1729
22.79	23.183
22.808	23.189
22.826	23.1913
22.844	23.1898
22.862	23.1844
22.88	23.1764
22.898	23.1663
22.916	23.1536
22.934	23.1399
22.952	23.1253
22.97	23.1098
22.988	23.095
23.006	23.0812
23.024	23.0682
23.042	23.0566
23.06	23.0469
23.078	23.0386
23.096	23.0315
23.114	23.026
23.132	23.0215
23.15	23.0164
23.168	23.0111
23.186	23.0051
23.204	22.9966
23.222	22.986
23.24	22.9728
23.258	22.9547
23.276	22.932
23.294	22.9045
23.312	22.8701
23.33	22.8291
23.348	22.7814
23.366	22.7259
23.384	22.6623
23.402	22.5911
23.42	22.513
23.438	22.4277
23.456	22.3356
23.474	22.2381
23.492	22.1349
23.51	22.0264
23.528	21.9141
23.546	21.7985
23.564	21.6791
23.582	21.5579
23.6	21.4354
23.618	21.3111
23.636	21.1863
23.654	21.0618
23.672	20.9368
23.69	20.8126
23.708	20.6899
23.726	20.5681
23.744	20.4481
23.762	20.3307
23.78	20.2153
23.798	20.1028
23.816	19.9944
23.834	19.8892
23.852	19.7882
23.87	19.693
23.888	19.6025
23.906	19.5176
23.924	19.4408
23.942	19.3715
23.96	19.3099
23.978	19.2584
23.996	19.2179
24.014	19.1873
24.032	19.1686
24.05	19.163
24.068	19.1696
24.086	19.1888
24.104	19.2214
24.122	19.2675
24.14	19.326
24.158	19.396
24.176	19.4786
24.194	19.5723
24.212	19.6743
24.23	19.7851
24.248	19.9048
24.266	20.0284
24.284	20.1537
24.302	20.2834
24.32	20.4127
24.338	20.5372
24.356	20.66
24.374	20.7782
24.392	20.8866
24.41	20.9859
24.428	21.0764
24.446	21.1551
24.464	21.2204
24.482	21.2736
24.5	21.3146
24.518	21.3428
24.536	21.3573
24.554	21.3606
24.572	21.3556
24.59	21.3405
24.608	21.3166
24.626	21.2882
24.644	21.2567
24.662	21.2196
24.68	21.1824
24.698	21.1504
24.716	21.1194
24.734	21.0929
24.752	21.077
24.77	21.0717
24.788	21.0755
24.806	21.0932
24.824	21.128
24.842	21.1772
24.86	21.2426
24.878	21.3271
24.896	21.431
24.914	21.5531
24.932	21.6925
24.95	21.8498
24.968	22.0259
24.986	22.2168
25.004	22.4187
25.022	22.635
25.04	22.8629
25.058	23.0959
25.076	23.3317
25.094	23.5742
25.112	23.8171
25.13	24.0538
25.148	24.2886
25.166	24.5191
25.184	24.7385
25.202	24.9439
25.22	25.1393
25.238	25.3202
25.256	25.4819
25.274	25.6264
25.292	25.7535
25.31	25.8595
25.328	25.9424
25.346	26.0043
25.364	26.0441
25.382	26.0602
25.4	26.0522
25.418	26.0211
25.436	25.9674
25.454	25.8912
25.472	25.7916
25.49	25.6705
25.508	25.5306
25.526	25.3712
25.544	25.1915
25.562	24.9959
25.58	24.7888
25.598	24.5665
25.616	24.3313
25.634	24.0886
25.652	23.8412
25.67	23.584
25.688	23.3234
25.706	23.0667
25.724	22.8134
25.742	22.5609
25.76	22.3163
25.778	22.0862
25.796	21.8677
25.814	21.6606
25.832	21.468
25.85	21.292
25.868	21.1311
25.886	20.985
25.904	20.854
25.922	20.7405
25.94	20.6444
25.958	20.5592
25.976	20.4783
25.994	20.4046
26.012	20.3383
26.03	20.2731
26.048	20.2034
26.066	20.1302
26.084	20.056
26.102	19.9822
26.12	19.9086
26.138	19.8315
26.156	19.7574
26.174	19.6938
26.192	19.64
26.21	19.5894
26.228	19.5566
26.246	19.557
26.264	19.5887
26.282	19.6454
26.3	19.7404
26.318	19.8863
26.336	20.0798
26.354	20.3179
26.372	20.6059
26.39	20.949
26.408	21.3497
26.426	21.8021
26.444	22.2995
26.462	22.8376
26.48	23.4322
26.498	24.0668
26.516	24.7167
26.534	25.366
26.552	26.0408
26.57	26.7201
26.588	27.3741
26.606	27.9847
26.624	28.5789
26.642	29.1378
26.66	29.6362
26.678	30.0603
26.696	30.4305
26.714	30.7346
26.732	30.9567
26.75	31.0858
26.768	31.1306
26.786	31.0953
26.804	30.9835
26.822	30.7943
26.84	30.5226
26.858	30.1793
26.876	29.7764
26.894	29.3175
26.912	28.7912
26.93	28.2109
26.948	27.5917
26.966	26.9042
26.984	26.0816
27.002	25.2706
27.02	24.6315
27.028	24.4632