File: Bakgrunnsmateriale/MATLAB/FTIR/ftir_data/LPE453/Mapping_121/LPE453_t10_cm-1.asc
PE IR       SPECTRUM    SPECTRUM    ASCII       PEDS        1.60
  -1
LPD755~1.ASC
17/05/16
15:09:32.00
17/05/16
15:09:32.00
tln
$LPE453_t0010$<tbV0>[-10.4,-13.0,8.0,0.0,27,1,0]
370
64

2002,4.07
MIRTGS : RIGHTBACK : INTERNAL 2
MIR : ON : INTERNAL 2
OPTKBR

0.200000
8
8.000000
FILLER
RATIO
SPECTRUM
UNLOCKED 256

DOUBLE
64
COMBINED
1
0
0

1.000000
RATIO

1
0
TRUE
51149
0
LEFT NOT FITTED RIGHT NOT FITTED 0
NONE
NONE
15600
12
4.427000
51148
TRUE
1 0 8 72 0 0 0 0

15798

#HDR
-1
-1
#GR
CM-1
%T
2.38419e-05
0.0
5000
-1.000000
4631
8
70.4176
-5.533123
#DATA
5000	0.144243
4996	0.059509
4992	-0.030589
4988	0.012159
4984	0.025725
4980	0.195097
4976	0.416803
4972	0.537061
4968	0.722980
4964	0.632119
4960	0.168704
4956	-0.043201
4952	0.019359
4948	-0.013041
4944	-0.184202
4940	-0.141191
4936	0.353765
4932	0.766897
4928	0.572705
4924	0.047540
4920	-0.108551
4916	0.018000
4912	-0.069236
4908	-0.066900
4904	0.156784
4900	0.524497
4896	0.854301
4892	0.659823
4888	0.504899
4884	0.759673
4880	0.770401
4876	0.642204
4872	0.716233
4868	0.650358
4864	0.386905
4860	0.239276
4856	0.150489
4852	-0.099658
4848	-0.288867
4844	-0.126528
4840	0.181508
4836	0.278973
4832	0.114274
4828	-0.067853
4824	-0.180888
4820	-0.227236
4816	-0.109505
4812	0.004482
4808	0.084996
4804	0.160026
4800	0.212216
4796	0.279664
4792	0.261521
4788	0.286841
4784	0.315475
4780	0.146102
4776	-0.018334
4772	-0.069189
4768	0.018572
4764	0.204467
4760	0.214934
4756	0.135421
4752	0.041818
4748	-0.016927
4744	0.057387
4740	0.113272
4736	0.028276
4732	-0.049924
4728	0.068068
4724	0.210118
4720	0.238275
4716	0.169754
4712	0.111365
4708	0.212526
4704	0.300240
4700	0.184202
4696	0.076603
4692	0.176501
4688	0.153207
4684	0.024294
4680	0.035738
4676	0.126361
4672	0.307726
4668	0.250649
4664	-0.091838
4660	-0.139737
4656	0.112342
4652	0.353813
4648	0.516557
4644	0.611400
4640	0.798559
4636	0.874614
4632	0.579786
4628	0.233626
4624	0.120878
4620	0.048398
4616	-0.050258
4612	0.174307
4608	0.437140
4604	0.325107
4600	0.244927
4596	0.326347
4592	0.338411
4588	0.442481
4584	0.882601
4580	1.146578
4576	0.930762
4572	0.662040
4568	0.503706
4564	0.149512
4560	-0.320792
4556	-0.536632
4552	-0.413131
4548	-0.178170
4544	0.266218
4540	0.484323
4536	0.543856
4532	1.356792
4528	1.927757
4524	0.320291
4520	-4.322266
4516	-4.371094
4512	2.881693
4508	6.362843
4504	4.223012
4500	2.060675
4496	0.969719
4492	0.010466
4488	-0.950694
4484	-0.787687
4480	0.072813
4476	0.746822
4472	0.962138
4468	0.839662
4464	0.573587
4460	0.373411
4456	0.387072
4452	0.383591
4448	0.326752
4444	0.551533
4440	0.892186
4436	0.853443
4432	0.643277
4428	0.461912
4424	0.346088
4420	0.395607
4416	0.440740
4412	0.419163
4408	0.431585
4404	0.453853
4400	0.416922
4396	0.361442
4392	0.405693
4388	0.482439
4384	0.423383
4380	0.376796
4376	0.331425
4372	0.252342
4368	0.238561
4364	0.167393
4360	0.120139
4356	0.179815
4352	0.203061
4348	0.224900
4344	0.269150
4340	0.202155
4336	0.049948
4332	-0.170779
4328	-0.340962
4324	-0.293135
4320	-0.228357
4316	-0.301504
4312	-0.270223
4308	-0.054669
4304	0.113010
4300	0.142073
4296	0.125193
4292	0.075316
4288	-0.040340
4284	-0.066876
4280	0.047802
4276	0.150513
4272	0.158429
4268	0.163626
4264	0.189185
4260	0.232720
4256	0.334978
4252	0.454688
4248	0.412034
4244	0.148677
4240	-0.093913
4236	-0.224471
4232	-0.264573
4228	-0.128650
4224	-0.012636
4220	-0.110340
4216	-0.219964
4212	-0.212955
4208	-0.195121
4204	-0.084471
4200	0.134205
4196	0.138902
4192	0.201153
4188	0.607299
4184	0.755167
4180	0.386786
4176	0.187754
4172	0.555729
4168	0.886654
4164	0.821375
4160	0.619220
4156	0.341176
4152	0.086474
4148	-0.103211
4144	-0.316643
4140	-0.359034
4136	-0.127673
4132	0.096821
4128	0.128388
4124	0.063371
4120	0.046730
4116	0.082015
4112	0.116324
4108	0.196552
4104	0.209999
4100	0.064587
4096	-0.010251
4092	0.026583
4088	0.075435
4084	0.082278
4080	-0.007677
4076	-0.068187
4072	-0.034475
4068	0.072932
4064	0.128269
4060	0.093746
4056	0.128364
4052	0.156950
4048	0.116181
4044	0.055956
4040	0.024795
4036	0.022101
4032	-0.058460
4028	-0.092005
4024	0.085020
4020	0.262713
4016	0.256228
4012	0.170469
4008	0.149130
4004	0.183677
4000	0.212979
3996	0.269818
3992	0.309443
3988	0.280475
3984	0.234603
3980	0.117278
3976	-0.041270
3972	-0.042629
3968	0.064611
3964	0.109624
3960	0.158953
3956	0.242853
3952	0.238609
3948	0.183701
3944	0.134611
3940	0.110554
3936	0.204944
3932	0.211215
3928	-0.014972
3924	-0.168800
3920	-0.146961
3916	-0.027680
3912	0.162410
3908	0.227212
3904	0.120210
3900	0.050735
3896	0.054311
3892	0.031232
3888	0.016045
3884	-0.005769
3880	-0.020718
3876	0.033831
3872	0.007390
3868	-0.055742
3864	-0.012397
3860	-0.002360
3856	0.005745
3852	0.166130
3848	0.272536
3844	0.133943
3840	0.017666
3836	0.133967
3832	0.215387
3828	0.078010
3824	-0.063824
3820	0.007104
3816	0.055432
3812	-0.058102
3808	-0.081253
3804	-0.000572
3800	0.072336
3796	0.112342
3792	0.096726
3788	0.085854
3784	0.089645
3780	0.083613
3776	0.073909
3772	0.031900
3768	0.037193
3764	0.096678
3760	0.053834
3756	-0.006341
3752	0.048947
3748	0.078153
3744	0.080752
3740	0.168871
3736	0.235295
3732	0.215744
3728	0.094962
3724	-0.009608
3720	0.078725
3716	0.186920
3712	0.126218
3708	0.046205
3704	0.072741
3700	0.126457
3696	0.130772
3692	0.118327
3688	0.124812
3684	0.115585
3680	0.099587
3676	0.098848
3672	0.119972
3668	0.136899
3664	0.100946
3660	0.055122
3656	0.047802
3652	0.017237
3648	-0.040459
3644	-0.014948
3640	0.066161
3636	0.122380
3632	0.088429
3628	0.005340
3624	0.030899
3620	0.111603
3616	0.112771
3612	0.038242
3608	0.015020
3604	0.075840
3600	0.106573
3596	0.128436
3592	0.208139
3588	0.268626
3584	0.154113
3580	0.018692
3576	0.083684
3572	0.120973
3568	-0.005316
3564	-0.105047
3560	-0.089788
3556	-0.058937
3552	-0.053477
3548	0.036835
3544	0.152206
3540	0.136446
3536	0.110125
3532	0.130391
3528	0.136566
3524	0.070238
3520	-0.041627
3516	-0.119876
3512	-0.152015
3508	-0.105834
3504	-0.015854
3500	0.044608
3496	0.064826
3492	0.046777
3488	0.004935
3484	-0.044178
3480	-0.080204
3476	-0.016427
3472	0.046491
3468	-0.034642
3464	-0.118041
3460	-0.070071
3456	0.051593
3452	0.135898
3448	0.139856
3444	0.108790
3440	0.110149
3436	0.110507
3432	0.050163
3428	-0.001168
3424	-0.003480
3420	-0.019383
3416	-0.032758
3412	0.047969
3408	0.172400
3404	0.163030
3400	0.084328
3396	0.081944
3392	0.038623
3388	-0.083208
3384	-0.080275
3380	0.019764
3376	0.048255
3372	0.047039
3368	0.036764
3364	0.016474
3360	0.005650
3356	0.000858
3352	0.026988
3348	0.098729
3344	0.172495
3340	0.178527
3336	0.110816
3332	0.045084
3328	0.047492
3324	0.056147
3320	0.012254
3316	-0.039601
3312	-0.056743
3308	0.003337
3304	0.097918
3300	0.111174
3296	0.069618
3292	0.095939
3288	0.133132
3284	0.092005
3280	0.105166
3276	0.107550
3272	-0.015974
3268	-0.093054
3264	-0.065398
3260	0.027203
3256	0.101733
3252	0.062060
3248	-0.016045
3244	-0.082993
3240	-0.149130
3236	-0.118660
3232	0.004649
3228	0.134587
3224	0.215649
3220	0.212526
3216	0.131106
3212	0.020217
3208	0.093603
3204	0.291800
3200	0.276303
3196	0.167202
3192	0.189709
3188	0.209045
3184	0.133395
3180	0.057435
3176	0.103378
3172	0.149607
3168	0.092124
3164	0.070953
3160	0.119471
3156	0.124526
3152	0.061631
3148	0.097632
3144	0.234079
3140	0.290179
3136	0.209164
3132	0.065040
3128	0.004601
3124	0.043463
3120	-0.009298
3116	-0.081562
3112	0.000500
3108	0.011420
3104	-0.104165
3100	-0.095987
3096	0.029897
3092	0.131916
3088	0.158762
3084	0.115036
3080	0.085830
3076	0.108098
3072	0.114536
3068	0.082540
3064	0.037837
3060	0.022172
3056	0.040221
3052	0.062680
3048	0.096344
3044	0.161862
3040	0.260186
3036	0.240278
3032	0.075292
3028	-0.015139
3024	-0.005578
3020	-0.015306
3016	-0.033330
3012	-0.010585
3008	0.005078
3004	-0.000357
3000	0.012516
2996	0.046706
2992	0.079154
2988	0.075626
2984	0.081086
2980	0.114631
2976	0.114393
2972	0.092244
2968	0.030112
2964	-0.037789
2960	0.003409
2956	0.088095
2952	0.096774
2948	0.041103
2944	-0.028228
2940	-0.050497
2936	0.039529
2932	0.200986
2928	0.270843
2924	0.147128
2920	-0.036644
2916	-0.101947
2912	-0.054049
2908	0.008893
2904	0.015234
2900	-0.030493
2896	-0.047063
2892	-0.004148
2888	-0.000047
2884	-0.033521
2880	0.003862
2876	0.077772
2872	0.124120
2868	0.142025
2864	0.123643
2860	0.079917
2856	0.038862
2852	0.033903
2848	-0.001621
2844	-0.079202
2840	-0.058364
2836	0.033426
2832	0.086593
2828	0.107288
2824	0.109386
2820	0.082039
2816	0.017571
2812	-0.025343
2808	0.025200
2804	0.128412
2800	0.154280
2796	0.099682
2792	0.078487
2788	0.057125
2784	-0.004625
2780	-0.024652
2776	0.002336
2772	-0.009942
2768	-0.057458
2764	-0.071740
2760	-0.000786
2756	0.119590
2752	0.104117
2748	0.019311
2744	0.044751
2740	0.083041
2736	0.073814
2732	0.025534
2728	-0.077152
2724	-0.133132
2720	-0.088477
2716	-0.013375
2712	0.064611
2708	0.145411
2704	0.154781
2700	0.098919
2696	0.053620
2692	0.019025
2688	-0.019454
2684	-0.014662
2680	0.040483
2676	0.106430
2672	0.143313
2668	0.124430
2664	0.082659
2660	0.058436
2656	0.050306
2652	0.021409
2648	-0.008940
2644	0.003123
2640	0.026655
2636	0.054049
2632	0.091958
2628	0.080990
2624	0.025153
2620	-0.014281
2616	-0.031399
2612	-0.069022
2608	-0.116753
2604	-0.089859
2600	-0.044298
2596	0.019860
2592	0.116038
2588	0.127339
2584	0.075840
2580	0.054073
2576	0.061058
2572	0.052857
2568	-0.002288
2564	-0.032138
2560	0.001215
2556	0.034356
2552	0.054907
2548	0.072407
2544	0.093793
2540	0.101304
2536	0.075292
2532	0.036859
2528	0.008797
2524	0.032830
2520	0.113272
2516	0.153827
2512	0.089120
2508	0.073742
2504	0.179409
2500	0.234079
2496	0.149154
2492	-0.019359
2488	-0.147366
2484	-0.169682
2480	-0.126194
2476	-0.032401
2472	0.042176
2468	0.056338
2464	0.101876
2460	0.155615
2456	0.139808
2452	0.095319
2448	0.058126
2444	0.018644
2440	-0.018191
2436	0.002717
2432	0.035333
2428	0.036191
2424	0.119805
2420	0.186109
2416	0.071597
2412	-0.014138
2408	0.045013
2404	0.080156
2400	0.094580
2396	0.165557
2392	0.214743
2388	0.182533
2384	0.166606
2380	0.163102
2376	0.133657
2372	0.168347
2368	0.177192
2364	0.108289
2360	0.078248
2356	0.118660
2352	0.161671
2348	0.161647
2344	0.178146
2340	0.224399
2336	0.270295
2332	0.298666
2328	0.296521
2324	0.285863
2320	0.299310
2316	0.352215
2312	0.405740
2308	0.457668
2304	0.559878
2300	0.650215
2296	0.680875
2292	0.726652
2288	0.754690
2284	0.745964
2280	0.809311
2276	0.929474
2272	1.042699
2268	1.127719
2264	1.188492
2260	1.288509
2256	1.397514
2252	1.472330
2248	1.587677
2244	1.752471
2240	1.883006
2236	2.028274
2232	2.251005
2228	2.471780
2224	2.667021
2220	2.866029
2216	3.070425
2212	3.298258
2208	3.567910
2204	3.879570
2200	4.196882
2196	4.475784
2192	4.735302
2188	5.013728
2184	5.300664
2180	5.589127
2176	5.933332
2172	6.297612
2168	6.597399
2164	6.936764
2160	7.413530
2156	7.877850
2152	8.212733
2148	8.526372
2144	8.960413
2140	9.447050
2136	9.921073
2132	10.4553
2128	10.926
2124	11.3105
2120	11.7507
2116	12.1994
2112	12.6093
2108	13.0306
2104	13.496
2100	13.9877
2096	14.4946
2092	15.0355
2088	15.5481
2084	15.9621
2080	16.321
2076	16.7464
2072	17.3254
2068	17.8656
2064	18.2714
2060	18.7186
2056	19.1222
2052	19.4503
2048	19.8508
2044	20.279
2040	20.6723
2036	21.0467
2032	21.4481
2028	21.9101
2024	22.3365
2020	22.6395
2016	22.8887
2012	23.1983
2008	23.6115
2004	24.0861
2000	24.5256
1996	24.8593
1992	25.0799
1988	25.2526
1984	25.4993
1980	25.7919
1976	26.0363
1972	26.3196
1968	26.63
1964	26.8804
1960	27.1373
1956	27.3929
1952	27.6316
1948	27.9001
1944	28.1457
1940	28.3551
1936	28.5702
1932	28.7834
1928	28.9668
1924	29.1147
1920	29.2828
1916	29.47
1912	29.6067
1908	29.7294
1904	29.903
1900	30.0974
1896	30.3266
1892	30.5664
1888	30.6867
1884	30.7232
1880	30.8051
1876	30.9416
1872	31.0966
1868	31.2631
1864	31.4134
1860	31.5459
1856	31.6735
1852	31.7633
1848	31.8355
1844	31.9438
1840	32.0535
1836	32.1328
1832	32.2665
1828	32.4213
1824	32.4748
1820	32.5444
1816	32.7017
1812	32.8337
1808	32.9125
1804	32.9647
1800	33.0656
1796	33.23
1792	33.2978
1788	33.3033
1784	33.3913
1780	33.4591
1776	33.4974
1772	33.593
1768	33.6319
1764	33.5943
1760	33.6163
1756	33.7246
1752	33.8401
1748	33.9012
1744	33.9516
1740	34.077
1736	34.2036
1732	34.2895
1728	34.3758
1724	34.3605
1720	34.3765
1716	34.5079
1712	34.4937
1708	34.3625
1704	34.368
1700	34.5132
1696	34.5586
1692	34.4959
1688	34.5592
1684	34.7121
1680	34.7774
1676	34.7844
1672	34.7635
1668	34.7146
1664	34.6917
1660	34.7556
1656	34.9427
1652	35.0648
1648	34.9841
1644	34.8323
1640	34.7967
1636	34.895
1632	34.9387
1628	34.9315
1624	34.9904
1620	35.1489
1616	35.2412
1612	35.0718
1608	34.8913
1604	34.8927
1600	34.9202
1596	34.8834
1592	34.8206
1588	34.8058
1584	34.9088
1580	35.114
1576	35.2281
1572	35.1665
1568	35.1052
1564	35.2256
1560	35.4491
1556	35.4456
1552	35.2561
1548	35.1842
1544	35.229
1540	35.2279
1536	35.1212
1532	35.0197
1528	35.0731
1524	35.2939
1520	35.4609
1516	35.4224
1512	35.3814
1508	35.4285
1504	35.3592
1500	35.1986
1496	35.139
1492	35.1357
1488	35.0628
1484	34.9786
1480	35.0036
1476	35.0855
1472	35.092
1468	35.0713
1464	35.1069
1460	35.1364
1456	35.1146
1452	35.1075
1448	35.0709
1444	34.9977
1440	34.9868
1436	34.9293
1432	34.8088
1428	34.8369
1424	34.9813
1420	35.0629
1416	35.0436
1412	35.0046
1408	35.016
1404	35.0332
1400	35.0422
1396	35.0781
1392	35.1132
1388	35.1015
1384	35.0384
1380	34.9562
1376	34.8458
1372	34.7318
1368	34.6908
1364	34.6687
1360	34.6282
1356	34.6684
1352	34.7494
1348	34.7553
1344	34.7775
1340	34.9123
1336	34.9988
1332	34.9095
1328	34.7783
1324	34.7373
1320	34.7135
1316	34.6131
1312	34.5237
1308	34.4988
1304	34.4674
1300	34.4165
1296	34.4133
1292	34.4293
1288	34.3973
1284	34.4539
1280	34.588
1276	34.5637
1272	34.4444
1268	34.3873
1264	34.3122
1260	34.1878
1256	34.1423
1252	34.1766
1248	34.1604
1244	34.0902
1240	34.0805
1236	34.1311
1232	34.1663
1228	34.1857
1224	34.1485
1220	34.0897
1216	34.1207
1212	34.1593
1208	34.1106
1204	34.0223
1200	33.9311
1196	33.8544
1192	33.8118
1188	33.7602
1184	33.6911
1180	33.6665
1176	33.7187
1172	33.8114
1168	33.8614
1164	33.8565
1160	33.7925
1156	33.672
1152	33.5919
1148	33.5668
1144	33.518
1140	33.4189
1136	33.3038
1132	33.1961
1128	33.1444
1124	33.2159
1120	33.3107
1116	33.3246
1112	33.3868
1108	33.629
1104	33.8374
1100	33.7679
1096	33.5865
1092	33.4659
1088	33.2968
1084	33.0294
1080	32.8829
1076	32.8582
1072	32.7527
1068	32.7241
1064	32.8206
1060	32.8898
1056	32.9447
1052	32.9429
1048	32.8192
1044	32.7462
1040	32.862
1036	32.9133
1032	32.7899
1028	32.6121
1024	32.3226
1020	32.1361
1016	32.1933
1012	32.099
1008	31.917
1004	32.0371
1000	32.2815
996	 32.3545
992	 32.3305
988	 32.4569
984	 32.6068
980	 32.5798
976	 32.5415
972	 32.4499
968	 32.2354
964	 32.0109
960	 31.8003
956	 31.6926
952	 31.7972
948	 31.9212
944	 31.8301
940	 31.746
936	 31.7719
932	 31.7887
928	 31.8775
924	 31.9656
920	 31.9172
916	 31.7705
912	 31.5835
908	 31.3908
904	 31.2255
900	 31.1469
896	 31.1079
892	 31.0542
888	 31.0904
884	 31.1867
880	 31.2149
876	 31.0857
872	 30.9736
868	 31.1397
864	 31.3061
860	 31.2263
856	 31.0481
852	 30.9318
848	 30.8183
844	 30.6317
840	 30.4841
836	 30.3111
832	 30.115
828	 30.1258
824	 30.2418
820	 30.2597
816	 30.356
812	 30.57
808	 30.6544
804	 30.6295
800	 30.6593
796	 30.7263
792	 30.7075
788	 30.4555
784	 30.0446
780	 29.6324
776	 29.3916
772	 29.4344
768	 29.5539
764	 29.6284
760	 29.6384
756	 29.6227
752	 29.794
748	 29.8854
744	 29.5458
740	 29.3861
736	 29.6354
732	 29.7182
728	 29.6257
724	 29.4472
720	 29.1079
716	 28.7611
712	 28.5592
708	 28.5259
704	 28.4769
700	 28.3021
696	 28.2301
692	 28.461
688	 28.8312
684	 28.8959
680	 28.6818
676	 28.565
672	 28.5035
668	 28.3812
664	 28.2477
660	 28.0071
656	 27.7625
652	 27.6685
648	 27.4734
644	 27.1469
640	 27.0308
636	 27.2187
632	 27.4216
628	 27.4736
624	 27.5138
620	 27.611
616	 27.6684
612	 27.6084
608	 27.2989
604	 26.8764
600	 26.5926
596	 26.4245
592	 26.2534
588	 26.2084
584	 26.5328
580	 26.8845
576	 26.8578
572	 26.6182
568	 26.4878
564	 26.547
560	 26.6147
556	 26.4299
552	 26.0913
548	 25.8205
544	 25.2707
540	 24.5618
536	 24.4625
532	 24.8791
528	 25.3
524	 25.5812
520	 25.8267
516	 25.9892
512	 25.782
508	 25.5161
504	 25.4372
500	 25.1421
496	 24.6417
492	 24.0675
488	 23.8188
484	 24.1797
480	 24.1171
476	 23.4865
472	 23.3191
468	 23.9931
464	 24.9886
460	 24.7416
456	 23.5335
452	 23.1221
448	 23.8011
444	 24.8762
440	 24.5118
436	 23.194
432	 23.2198
428	 23.394
424	 22.2095
420	 21.7908
416	 21.054
412	 20.0725
408	 24.1323
404	 28.5451
400	 30.6846
396	 36.1138
392	 37.944
388	 39.1368
384	 60.5618
380	 68.2716
376	 45.4628
372	 31.5522
370	 27.4046