File: Bakgrunnsmateriale/MATLAB/FTIR/ftir_data/LPE453/Mapping_121/LPE453_e123_cm-1.asc
PE IR       SPECTRUM    SPECTRUM    ASCII       PEDS        1.60
  -1
LP06BB~1.ASC
17/05/16
16:11:26.00
17/05/16
16:11:26.00
tln
$LPE453_e0123$<ebV0>[-23.3,12.1,10.0,0.0,27,1,0]
370
64

2002,4.07
MIRTGS : RIGHTBACK : INTERNAL 2
MIR : ON : INTERNAL 2
OPTKBR

0.200000
8
8.000000
FILLER
SINGLE
SPECTRUM
UNLOCKED 256

DOUBLE

COMBINED
1
0
0

1.000000
BACKG

1
0
TRUE
51149
0
LEFT NOT FITTED RIGHT NOT FITTED 0
NONE
NONE
15600
12
4.427000
51148
TRUE
1 0 8 72 0 0 0 0

15798

#HDR
-1
-1
#GR
CM-1
EGY
2.38419e-05
0.0
5000
-1.000000
4631
8
2.420973
0.006079
#DATA
5000	0.765037
4996	0.767827
4992	0.769567
4988	0.770139
4984	0.772643
4980	0.775432
4976	0.776100
4972	0.776076
4968	0.776672
4964	0.778341
4960	0.781559
4956	0.784039
4952	0.784087
4948	0.785088
4944	0.788021
4940	0.790524
4936	0.792121
4932	0.793910
4928	0.796270
4924	0.797295
4920	0.798368
4916	0.801014
4912	0.802969
4908	0.804185
4904	0.805187
4900	0.805735
4896	0.805783
4892	0.805783
4888	0.807857
4884	0.811624
4880	0.813579
4876	0.815391
4872	0.820207
4868	0.823402
4864	0.823092
4860	0.824403
4856	0.826978
4852	0.829267
4848	0.831937
4844	0.834226
4840	0.836777
4836	0.839710
4832	0.842022
4828	0.844764
4824	0.848150
4820	0.850868
4816	0.852823
4812	0.855183
4808	0.858020
4804	0.860786
4800	0.863432
4796	0.865936
4792	0.867938
4788	0.869131
4784	0.870203
4780	0.872421
4776	0.874233
4772	0.875449
4768	0.878190
4764	0.880861
4760	0.883030
4756	0.885462
4752	0.886130
4748	0.885939
4744	0.887584
4740	0.889277
4736	0.891232
4732	0.894665
4728	0.895977
4724	0.895309
4720	0.896072
4716	0.897860
4712	0.898504
4708	0.897955
4704	0.897479
4700	0.899910
4696	0.903367
4692	0.903177
4688	0.900316
4684	0.899291
4680	0.901436
4676	0.903534
4672	0.904011
4668	0.903892
4664	0.905227
4660	0.907182
4656	0.906753
4652	0.906181
4648	0.906515
4644	0.906848
4640	0.909638
4636	0.913429
4632	0.916266
4628	0.919151
4624	0.920891
4620	0.922536
4616	0.925993
4612	0.931334
4608	0.935316
4604	0.934028
4600	0.930547
4596	0.927853
4592	0.928473
4588	0.932669
4584	0.938653
4580	0.948596
4576	0.954031
4572	0.951242
4568	0.952410
4564	0.959396
4560	0.962781
4556	0.960135
4552	0.957155
4548	0.959801
4544	0.967001
4540	0.978589
4536	0.989651
4532	0.990486
4528	0.992774
4524	0.993585
4520	1.001262
4516	1.017904
4512	0.990319
4508	0.953197
4504	0.976419
4500	1.010107
4496	0.999498
4492	0.976920
4488	0.980496
4484	0.994324
4480	0.996065
4476	0.991773
4472	0.992083
4468	0.997900
4464	1.003265
4460	1.006126
4456	1.007318
4452	1.007676
4448	1.007866
4444	1.006889
4440	1.007151
4436	1.008701
4432	1.008152
4428	1.007556
4424	1.009869
4420	1.012587
4416	1.012754
4412	1.012229
4408	1.013970
4404	1.018667
4400	1.022362
4396	1.023674
4392	1.024031
4388	1.023125
4384	1.023483
4380	1.026344
4376	1.030302
4372	1.034617
4368	1.038599
4364	1.041722
4360	1.043701
4356	1.045441
4352	1.048684
4348	1.052522
4344	1.056742
4340	1.062297
4336	1.067423
4332	1.071381
4328	1.074171
4324	1.076841
4320	1.082205
4316	1.088690
4312	1.093029
4308	1.095676
4304	1.100158
4300	1.106905
4296	1.113557
4292	1.118850
4288	1.121425
4284	1.122832
4280	1.126432
4276	1.131725
4272	1.137804
4268	1.143240
4264	1.146221
4260	1.149058
4256	1.153087
4252	1.157164
4248	1.160287
4244	1.162362
4240	1.165223
4236	1.169061
4232	1.170730
4228	1.171183
4224	1.173400
4220	1.176142
4216	1.178216
4212	1.180839
4208	1.184129
4204	1.186776
4200	1.188421
4196	1.188158
4192	1.186776
4188	1.188564
4184	1.192355
4180	1.194620
4176	1.198172
4172	1.202964
4168	1.205158
4164	1.207351
4160	1.210594
4156	1.211977
4152	1.213383
4148	1.216125
4144	1.217889
4140	1.219201
4136	1.222419
4132	1.226139
4128	1.230359
4124	1.235151
4120	1.238799
4116	1.242136
4112	1.245141
4108	1.248407
4104	1.252722
4100	1.256537
4096	1.260995
4092	1.266884
4088	1.271438
4084	1.274895
4080	1.280045
4076	1.286292
4072	1.291823
4068	1.296162
4064	1.300764
4060	1.307153
4056	1.313424
4052	1.318693
4048	1.323938
4044	1.329016
4040	1.332950
4036	1.337218
4032	1.343703
4028	1.349449
4024	1.352739
4020	1.355838
4016	1.360321
4012	1.365447
4008	1.370215
4004	1.375031
4000	1.379275
3996	1.382708
3992	1.385951
3988	1.388716
3984	1.391553
3980	1.394081
3976	1.396536
3972	1.399898
3968	1.402950
3964	1.403784
3960	1.403522
3956	1.405215
3952	1.407408
3948	1.408505
3944	1.410388
3940	1.413273
3936	1.414585
3932	1.413965
3928	1.413726
3924	1.415014
3920	1.417279
3916	1.419138
3912	1.422071
3908	1.423096
3904	1.420211
3900	1.420712
3896	1.425313
3892	1.427650
3888	1.427054
3884	1.428055
3880	1.432585
3876	1.435756
3872	1.436638
3868	1.439213
3864	1.443314
3860	1.442503
3856	1.435875
3852	1.438069
3848	1.450395
3844	1.457667
3840	1.459002
3836	1.462745
3832	1.470422
3828	1.476669
3824	1.477360
3820	1.476001
3816	1.479816
3812	1.488041
3808	1.493477
3804	1.495862
3800	1.501035
3796	1.510643
3792	1.519179
3788	1.523303
3784	1.525163
3780	1.527643
3776	1.531291
3772	1.533794
3768	1.535630
3764	1.537704
3760	1.538753
3756	1.535415
3752	1.529192
3748	1.527357
3744	1.533055
3740	1.541042
3736	1.545357
3732	1.549744
3728	1.555037
3724	1.557874
3720	1.560091
3716	1.559305
3712	1.556634
3708	1.558589
3704	1.562714
3700	1.565384
3696	1.564764
3692	1.558470
3688	1.554608
3684	1.558017
3680	1.558041
3676	1.552271
3672	1.551175
3668	1.557469
3664	1.564192
3660	1.565313
3656	1.560997
3652	1.555418
3648	1.555919
3644	1.562952
3640	1.567864
3636	1.566696
3632	1.562047
3628	1.561665
3624	1.565980
3620	1.567745
3616	1.568198
3612	1.569867
3608	1.572942
3604	1.577401
3600	1.581549
3596	1.583886
3592	1.583743
3588	1.583719
3584	1.586103
3580	1.588916
3576	1.590824
3572	1.590776
3568	1.590824
3564	1.595115
3560	1.600384
3556	1.602983
3552	1.604676
3548	1.606106
3544	1.606607
3540	1.606726
3536	1.607608
3532	1.608562
3528	1.608228
3524	1.607775
3520	1.608896
3516	1.609921
3512	1.609063
3508	1.607799
3504	1.607418
3500	1.607298
3496	1.606464
3492	1.604652
3488	1.601314
3484	1.597881
3480	1.596784
3476	1.595997
3472	1.593518
3468	1.590919
3464	1.588940
3460	1.587796
3456	1.586961
3452	1.585054
3448	1.581859
3444	1.578307
3440	1.574802
3436	1.570987
3432	1.568222
3428	1.567435
3424	1.568770
3420	1.571846
3416	1.574754
3412	1.576828
3408	1.578927
3404	1.580452
3400	1.580905
3396	1.582479
3392	1.586127
3388	1.590156
3384	1.593327
3380	1.595354
3376	1.597762
3372	1.601386
3368	1.605558
3364	1.611638
3360	1.618266
3356	1.623773
3352	1.630067
3348	1.636600
3344	1.641297
3340	1.645565
3336	1.651477
3332	1.657366
3328	1.661801
3324	1.667046
3320	1.673531
3316	1.680111
3312	1.686525
3308	1.692318
3304	1.696801
3300	1.700949
3296	1.705622
3292	1.709675
3288	1.713991
3284	1.719212
3280	1.723790
3276	1.728129
3272	1.732826
3268	1.737260
3264	1.740980
3260	1.745033
3256	1.749610
3252	1.754045
3248	1.757264
3244	1.758599
3240	1.760005
3236	1.762795
3232	1.765894
3228	1.767826
3224	1.768064
3220	1.768112
3216	1.768922
3212	1.769113
3208	1.768827
3204	1.769518
3200	1.771140
3196	1.772880
3192	1.774764
3188	1.776385
3184	1.777291
3180	1.777434
3176	1.777219
3172	1.777577
3168	1.779484
3164	1.782894
3160	1.785302
3156	1.786303
3152	1.788115
3148	1.791119
3144	1.795005
3140	1.800084
3136	1.804518
3132	1.806378
3128	1.808190
3124	1.812458
3120	1.818919
3116	1.826024
3112	1.831698
3108	1.838088
3104	1.846337
3100	1.853513
3096	1.860380
3092	1.868343
3088	1.875782
3084	1.883411
3080	1.891446
3076	1.898026
3072	1.902461
3068	1.906251
3064	1.911449
3060	1.918625
3056	1.925826
3052	1.931810
3048	1.937818
3044	1.944231
3040	1.950049
3036	1.953816
3032	1.953315
3028	1.947450
3024	1.938772
3020	1.933550
3016	1.940417
3012	1.959919
3008	1.980638
3004	1.993513
3000	2.000784
2996	2.006840
2992	2.010393
2988	2.009820
2984	2.004599
2980	1.994919
2976	1.980519
2972	1.959419
2968	1.935458
2964	1.916027
2960	1.905345
2956	1.903057
2952	1.901531
2948	1.891326
2944	1.867151
2940	1.831936
2936	1.796674
2932	1.767706
2928	1.748156
2924	1.751112
2920	1.784706
2916	1.834607
2912	1.878452
2908	1.907587
2904	1.927018
2900	1.942729
2896	1.956319
2892	1.967597
2888	1.976132
2884	1.982498
2880	1.985073
2876	1.979255
2872	1.961469
2868	1.930737
2864	1.897311
2860	1.885414
2856	1.906132
2852	1.944279
2848	1.983451
2844	2.017760
2840	2.044558
2836	2.063226
2832	2.077150
2828	2.089929
2824	2.101778
2820	2.113223
2816	2.124285
2812	2.132320
2808	2.138018
2804	2.144575
2800	2.152538
2796	2.160859
2792	2.168464
2788	2.175784
2784	2.183699
2780	2.191185
2776	2.198266
2772	2.205562
2768	2.210569
2764	2.213025
2760	2.216362
2756	2.220821
2752	2.225017
2748	2.228164
2744	2.229785
2740	2.230525
2736	2.232003
2732	2.233719
2728	2.233624
2724	2.232742
2720	2.231836
2716	2.229619
2712	2.227282
2708	2.225446
2704	2.223372
2700	2.222180
2696	2.222800
2692	2.223348
2688	2.222418
2684	2.220487
2680	2.217078
2676	2.213573
2672	2.210736
2668	2.207493
2664	2.205157
2660	2.203631
2656	2.201890
2652	2.201128
2648	2.200484
2644	2.198934
2640	2.196955
2636	2.195215
2632	2.194833
2628	2.195620
2624	2.196645
2620	2.198076
2616	2.199625
2612	2.200126
2608	2.200150
2604	2.200818
2600	2.201294
2596	2.201175
2592	2.203035
2588	2.208709
2584	2.215600
2580	2.221488
2576	2.226948
2572	2.232146
2568	2.237057
2564	2.242112
2560	2.247214
2556	2.252149
2552	2.257156
2548	2.261257
2544	2.265262
2540	2.270984
2536	2.277350
2532	2.281761
2528	2.284646
2524	2.287459
2520	2.290081
2516	2.293515
2512	2.296090
2508	2.296948
2504	2.298259
2500	2.299761
2496	2.301096
2492	2.302002
2488	2.299952
2484	2.296042
2480	2.294850
2476	2.295398
2472	2.293920
2468	2.291250
2464	2.289223
2460	2.285718
2456	2.280354
2452	2.275657
2448	2.272963
2444	2.271056
2440	2.267980
2436	2.264904
2432	2.260160
2428	2.253174
2424	2.249813
2420	2.248811
2416	2.245044
2412	2.239704
2408	2.235412
2404	2.232289
2400	2.229714
2396	2.227711
2392	2.226305
2388	2.225542
2384	2.225089
2380	2.222490
2376	2.217793
2372	2.213358
2368	2.209591
2364	2.207732
2360	2.210092
2356	2.217388
2352	2.227640
2348	2.235627
2344	2.238440
2340	2.239131
2336	2.242136
2332	2.248454
2328	2.256393
2324	2.264642
2320	2.272152
2316	2.279400
2312	2.287530
2308	2.295374
2304	2.302575
2300	2.309513
2296	2.314448
2292	2.318000
2288	2.322077
2284	2.325320
2280	2.328205
2276	2.332401
2272	2.337598
2268	2.342581
2264	2.345848
2260	2.347135
2256	2.347874
2252	2.348875
2248	2.349781
2244	2.350497
2240	2.351021
2236	2.351021
2232	2.349972
2228	2.347731
2224	2.344393
2220	2.340936
2216	2.338457
2212	2.335715
2208	2.332401
2204	2.330636
2200	2.329325
2196	2.326464
2192	2.323436
2188	2.320170
2184	2.316570
2180	2.313876
2176	2.311801
2172	2.310252
2168	2.308988
2164	2.307367
2160	2.306437
2156	2.305769
2152	2.304530
2148	2.303886
2144	2.303838
2140	2.302503
2136	2.300572
2132	2.299666
2128	2.300763
2124	2.303433
2120	2.304744
2116	2.304434
2112	2.305865
2108	2.307367
2104	2.306199
2100	2.304029
2096	2.302670
2092	2.302479
2088	2.302908
2084	2.304935
2080	2.308154
2076	2.312159
2072	2.319383
2068	2.328801
2064	2.337074
2060	2.344274
2056	2.352333
2052	2.361822
2048	2.371621
2044	2.379655
2040	2.386021
2036	2.391791
2032	2.397131
2028	2.402019
2024	2.404880
2020	2.406811
2016	2.409696
2012	2.412843
2008	2.415394
2004	2.417683
2000	2.419900
1996	2.420949
1992	2.420496
1988	2.418994
1984	2.416086
1980	2.412247
1976	2.408480
1972	2.404308
1968	2.400302
1964	2.397370
1960	2.395224
1956	2.393484
1952	2.391266
1948	2.387261
1944	2.383089
1940	2.380204
1936	2.377772
1932	2.374768
1928	2.370667
1924	2.364826
1920	2.359032
1916	2.355527
1912	2.351832
1908	2.346086
1904	2.340388
1900	2.336835
1896	2.334499
1892	2.332329
1888	2.332901
1884	2.336049
1880	2.338790
1876	2.339243
1872	2.337193
1868	2.337241
1864	2.341818
1860	2.346420
1856	2.349781
1852	2.352118
1848	2.351999
1844	2.353525
1840	2.359461
1836	2.364492
1832	2.365851
1828	2.367377
1824	2.371978
1820	2.377390
1816	2.381443
1812	2.384996
1808	2.387571
1804	2.388644
1800	2.389216
1796	2.387762
1792	2.385973
1788	2.387022
1784	2.388215
1780	2.386713
1776	2.379822
1772	2.373409
1768	2.375078
1764	2.376174
1760	2.370953
1756	2.361273
1752	2.348732
1748	2.337956
1744	2.325177
1740	2.305221
1736	2.287244
1732	2.283978
1728	2.289342
1724	2.285695
1720	2.270722
1716	2.261638
1712	2.262902
1708	2.256846
1704	2.238225
1700	2.220129
1696	2.216482
1692	2.221155
1688	2.213740
1684	2.202987
1680	2.203011
1676	2.199983
1672	2.192330
1668	2.186822
1664	2.180457
1660	2.167606
1656	2.143025
1652	2.124381
1648	2.123785
1644	2.126121
1640	2.118802
1636	2.105879
1632	2.098250
1628	2.089118
1624	2.069783
1620	2.040672
1616	2.003264
1612	1.964950
1608	1.940441
1604	1.941871
1600	1.958894
1596	1.974225
1592	1.981782
1588	1.981520
1584	1.974177
1580	1.960897
1576	1.950836
1572	1.948404
1568	1.942539
1564	1.921844
1560	1.898026
1556	1.899170
1552	1.917743
1548	1.923727
1544	1.920390
1540	1.940774
1536	1.993966
1532	2.046108
1528	2.071690
1524	2.075862
1520	2.071714
1516	2.065420
1512	2.052211
1508	2.024316
1504	1.958203
1500	1.818799
1496	1.673197
1492	1.656556
1488	1.760697
1484	1.870894
1480	1.928591
1476	1.943945
1472	1.943778
1468	1.934266
1464	1.904892
1460	1.846861
1456	1.772928
1452	1.731300
1448	1.754474
1444	1.804494
1440	1.830649
1436	1.836442
1432	1.839184
1428	1.839351
1424	1.834797
1420	1.826262
1416	1.814222
1412	1.786661
1408	1.738977
1404	1.702070
1400	1.705551
1396	1.736617
1392	1.760363
1388	1.760506
1384	1.757407
1380	1.768636
1376	1.780533
1372	1.785182
1368	1.787018
1364	1.787543
1360	1.788210
1356	1.788520
1352	1.787757
1348	1.786375
1344	1.784682
1340	1.785731
1336	1.794314
1332	1.806855
1328	1.815247
1324	1.819086
1320	1.821517
1316	1.822376
1312	1.821875
1308	1.821875
1304	1.822829
1300	1.823663
1296	1.823830
1292	1.823830
1288	1.823925
1284	1.823043
1280	1.818299
1276	1.805067
1272	1.777195
1268	1.733398
1264	1.694607
1260	1.693391
1256	1.730251
1252	1.771521
1248	1.795673
1244	1.805639
1240	1.808500
1236	1.806640
1232	1.801228
1228	1.794648
1224	1.786088
1220	1.772689
1216	1.754403
1212	1.736688
1208	1.725721
1204	1.721668
1200	1.720809
1196	1.719164
1192	1.714682
1188	1.707553
1184	1.697897
1180	1.687312
1176	1.675605
1172	1.661229
1168	1.643490
1164	1.624250
1160	1.607847
1156	1.597666
1152	1.592636
1148	1.586389
1144	1.576161
1140	1.565122
1136	1.552939
1132	1.537895
1128	1.519966
1124	1.499581
1120	1.477909
1116	1.456975
1112	1.437783
1108	1.421642
1104	1.411294
1100	1.405978
1096	1.402974
1092	1.402831
1088	1.405739
1084	1.408171
1080	1.406955
1076	1.407098
1072	1.412653
1068	1.418042
1064	1.416873
1060	1.399445
1056	1.349878
1052	1.291728
1048	1.286578
1044	1.329493
1040	1.360774
1036	1.365113
1032	1.358270
1028	1.348018
1024	1.338863
1020	1.337099
1016	1.344299
1012	1.355671
1008	1.366901
1004	1.375508
1000	1.379704
996	 1.379156
992	 1.375436
988	 1.368522
984	 1.359534
980	 1.351308
976	 1.343083
972	 1.333355
968	 1.322007
964	 1.308822
960	 1.294398
956	 1.280045
952	 1.266527
948	 1.255631
944	 1.247334
940	 1.239728
936	 1.232314
932	 1.223993
928	 1.214480
924	 1.205420
920	 1.195430
916	 1.182270
912	 1.166796
908	 1.153373
904	 1.144504
900	 1.138639
896	 1.133275
892	 1.123905
888	 1.104211
884	 1.071882
880	 1.035380
876	 1.014328
872	 1.020693
868	 1.044940
864	 1.067256
860	 1.076650
856	 1.076507
852	 1.072502
848	 1.066541
844	 1.059031
840	 1.044535
836	 1.010775
832	 0.947070
828	 0.869894
824	 0.831794
820	 0.857996
816	 0.905227
812	 0.930953
808	 0.935935
804	 0.933146
800	 0.931453
796	 0.935626
792	 0.945210
788	 0.956439
784	 0.963830
780	 0.965023
776	 0.962471
772	 0.958943
768	 0.955438
764	 0.952076
760	 0.949144
756	 0.946450
752	 0.940918
748	 0.932955
744	 0.926089
740	 0.919985
736	 0.911641
732	 0.900530
728	 0.888776
724	 0.877141
720	 0.865817
716	 0.854516
712	 0.842952
708	 0.830841
704	 0.816988
700	 0.800204
696	 0.777435
692	 0.747036
688	 0.722861
684	 0.718522
680	 0.721979
676	 0.719356
672	 0.712561
668	 0.704979
664	 0.696563
660	 0.687789
656	 0.678372
652	 0.666356
648	 0.653886
644	 0.642704
640	 0.631260
636	 0.620102
632	 0.610589
628	 0.601363
624	 0.591492
620	 0.580239
616	 0.565934
612	 0.548005
608	 0.529336
604	 0.518345
600	 0.517082
596	 0.516295
592	 0.511026
588	 0.504517
584	 0.500011
580	 0.496339
576	 0.491142
572	 0.485253
568	 0.479793
564	 0.474286
560	 0.469660
556	 0.466156
552	 0.461435
548	 0.453925
544	 0.445294
540	 0.437164
536	 0.429153
532	 0.420403
528	 0.410842
524	 0.401401
520	 0.393080
516	 0.385785
512	 0.377845
508	 0.367236
504	 0.354361
500	 0.340771
496	 0.327587
492	 0.314426
488	 0.300693
484	 0.286054
480	 0.271511
476	 0.259041
472	 0.247502
468	 0.235009
464	 0.222039
460	 0.208806
456	 0.194263
452	 0.179600
448	 0.166988
444	 0.156593
440	 0.145864
436	 0.133681
432	 0.120687
428	 0.107645
424	 0.095891
420	 0.085473
416	 0.075340
412	 0.064492
408	 0.054526
404	 0.047111
400	 0.039625
396	 0.033164
392	 0.028634
388	 0.022792
384	 0.016927
380	 0.012469
376	 0.008988
372	 0.006914
370	 0.006079