File: Bakgrunnsmateriale/MATLAB/FTIR/ftir_data/LPE453/Mapping_121/LPE453_t62_cm-1.asc
PE IR       SPECTRUM    SPECTRUM    ASCII       PEDS        1.60
  -1
LP5A50~1.ASC
17/05/16
19:25:17.00
17/05/16
19:25:17.00
tln
$LPE453_t0062$<tbV0>[-2.6,0.0,8.0,0.0,27,1,0]
370
64

2002,4.07
MIRTGS : RIGHTBACK : INTERNAL 2
MIR : ON : INTERNAL 2
OPTKBR

0.200000
8
8.000000
FILLER
RATIO
SPECTRUM
UNLOCKED 256

DOUBLE
64
COMBINED
1
0
0

1.000000
RATIO

1
0
TRUE
51149
0
LEFT NOT FITTED RIGHT NOT FITTED 0
NONE
NONE
15600
12
4.427000
51148
TRUE
1 0 8 72 0 0 0 0

15798

#HDR
-1
-1
#GR
CM-1
%T
2.38419e-05
0.0
5000
-1.000000
4631
8
32.0322
-6.486630
#DATA
5000	-0.057744
4996	-0.078654
4992	0.013732
4988	0.314950
4984	0.453901
4980	0.330448
4976	0.213456
4972	0.150036
4968	0.060367
4964	0.059199
4960	0.259780
4956	0.413203
4952	0.448775
4948	0.325274
4944	0.032663
4940	-0.059628
4936	0.090646
4932	0.155639
4928	0.111746
4924	0.133681
4920	-0.008606
4916	-0.145578
4912	0.023221
4908	0.173950
4904	0.171923
4900	0.117087
4896	-0.088763
4892	-0.261664
4888	-0.230407
4884	-0.100064
4880	0.012135
4876	0.219035
4872	0.525808
4868	0.382328
4864	0.026082
4860	0.060176
4856	0.209474
4852	0.242280
4848	0.309276
4844	0.421953
4840	0.431561
4836	0.229644
4832	-0.102758
4828	-0.347781
4824	-0.261712
4820	0.051617
4816	0.272750
4812	0.421094
4808	0.523591
4804	0.531458
4800	0.659632
4796	0.717449
4792	0.293803
4788	-0.213170
4784	-0.245594
4780	0.078558
4776	0.195980
4772	-0.093412
4768	-0.146389
4764	0.284743
4760	0.675106
4756	0.736188
4752	0.499677
4748	0.220561
4744	0.169706
4740	0.125694
4736	-0.229454
4732	-0.917291
4728	-1.200985
4724	-0.691294
4720	-0.010704
4716	0.546860
4712	0.635051
4708	0.762701
4704	1.932525
4700	2.365326
4696	-0.044107
4692	-2.805066
4688	-2.320528
4684	0.442266
4680	1.882672
4676	1.714348
4672	1.269078
4668	0.594401
4664	0.353050
4660	0.985789
4656	1.245832
4652	0.468778
4648	-0.245189
4644	-0.051140
4640	0.722956
4636	0.856304
4632	0.575399
4628	0.582146
4624	0.581026
4620	0.780749
4616	0.976943
4612	0.903201
4608	0.729203
4604	0.630640
4600	0.481200
4596	0.293207
4592	0.300717
4588	0.401425
4584	0.355243
4580	0.271320
4576	0.465130
4572	0.804948
4568	0.873780
4564	0.935649
4560	1.130747
4556	1.131653
4552	0.712823
4548	0.370836
4544	0.285983
4540	0.056004
4536	-0.163578
4532	-0.386953
4528	-0.769567
4524	-0.889348
4520	-0.510168
4516	-0.183558
4512	-0.169873
4508	-0.359106
4504	-1.226902
4500	-4.147052
4496	-6.385564
4492	0.667786
4488	11.4624
4484	19.6367
4480	20.3133
4476	9.280157
4472	1.906681
4468	1.013469
4464	-1.251268
4460	-1.958727
4456	-0.928544
4452	-0.100255
4448	-0.154256
4444	-0.607633
4440	-0.711870
4436	-0.639700
4432	-0.576186
4428	-0.651144
4424	-0.814437
4420	-0.736904
4416	-0.477671
4412	-0.270867
4408	0.013136
4404	0.242114
4400	0.279402
4396	0.409770
4392	0.476002
4388	0.269174
4384	0.319337
4380	0.762224
4376	1.178908
4372	1.189517
4368	0.717473
4364	0.189614
4360	0.032591
4356	0.158643
4352	0.415992
4348	0.694823
4344	0.723266
4340	0.497293
4336	0.338792
4332	0.348687
4328	0.272798
4324	0.234007
4320	0.397920
4316	0.574040
4312	0.702238
4308	0.690007
4304	0.427889
4300	0.107192
4296	-0.104022
4292	-0.215411
4288	-0.224065
4284	-0.140190
4280	0.078797
4276	0.216698
4272	0.133657
4268	0.037956
4264	-0.089430
4260	-0.091958
4256	0.227141
4252	0.366830
4248	0.110530
4244	0.006127
4240	0.131416
4236	0.040483
4232	-0.105333
4228	0.053095
4224	0.185871
4220	0.139141
4216	0.149941
4212	0.176787
4208	0.160622
4204	0.232315
4200	0.354671
4196	0.302600
4192	0.123739
4188	0.137591
4184	0.284051
4180	0.300478
4176	0.321173
4172	0.381040
4168	0.397467
4164	0.343012
4160	0.202226
4156	0.133872
4152	0.153732
4148	0.207543
4144	0.310325
4140	0.421881
4136	0.377631
4132	0.100731
4128	-0.086307
4124	0.067448
4120	0.308394
4116	0.347495
4112	0.214695
4108	0.153350
4104	0.231623
4100	0.212478
4096	0.108671
4092	0.060248
4088	-0.019288
4084	-0.066995
4080	-0.007486
4076	0.086212
4072	0.153183
4068	0.177001
4064	0.181221
4060	0.154185
4056	0.145673
4052	0.189685
4048	0.095677
4044	-0.094747
4040	-0.084209
4036	0.039029
4032	0.075101
4028	-0.023198
4024	-0.101304
4020	0.047588
4016	0.225663
4012	0.171780
4008	0.064277
4004	0.108718
4000	0.228929
3996	0.234532
3992	0.138092
3988	0.062990
3984	0.063991
3980	0.137948
3976	0.098061
3972	0.017189
3968	0.055480
3964	0.103616
3960	0.093865
3956	0.076532
3952	0.141763
3948	0.205445
3944	0.171470
3940	0.076746
3936	-0.084233
3932	-0.167202
3928	-0.014472
3924	0.191688
3920	0.255751
3916	0.201320
3912	0.116062
3908	0.039100
3904	0.015759
3900	-0.008058
3896	-0.019240
3892	0.110554
3888	0.185918
3884	0.107026
3880	0.064730
3876	0.060248
3872	0.049448
3868	0.086665
3864	0.132870
3860	0.094413
3856	0.000643
3852	-0.030803
3848	0.059747
3844	0.145149
3840	0.062847
3836	-0.072908
3832	-0.032377
3828	0.129985
3824	0.208544
3820	0.127553
3816	0.045871
3812	0.113153
3808	0.179028
3804	0.150442
3800	0.119280
3796	0.135087
3792	0.159525
3788	0.120759
3784	0.033950
3780	-0.039672
3776	-0.008988
3772	0.162935
3768	0.286865
3764	0.196242
3760	-0.001645
3756	-0.048017
3752	0.064587
3748	0.117850
3744	0.095772
3740	0.099015
3736	0.105619
3732	0.078558
3728	0.045704
3724	0.046515
3720	0.061392
3716	0.047087
3712	0.029826
3708	0.048899
3704	0.083112
3700	0.091862
3696	-0.015330
3692	-0.140881
3688	-0.073289
3684	0.053334
3680	0.040078
3676	-0.046133
3672	-0.095486
3668	-0.065493
3664	0.004625
3660	0.056076
3656	0.034570
3652	0.010061
3648	0.016260
3644	-0.001072
3640	0.024271
3636	0.096654
3632	0.126099
3628	0.039339
3624	-0.107240
3620	-0.145411
3616	-0.074911
3612	0.000429
3608	0.091528
3604	0.180125
3600	0.158405
3596	-0.020146
3592	-0.201654
3588	-0.185275
3584	-0.048542
3580	0.037240
3576	0.083947
3572	0.127482
3568	0.122642
3564	0.091266
3560	0.084519
3556	0.069618
3552	0.081229
3548	0.102901
3544	0.107383
3540	0.137853
3536	0.099730
3532	-0.020766
3528	-0.047421
3524	0.061416
3520	0.172162
3516	0.191116
3512	0.173115
3508	0.149130
3504	0.056886
3500	-0.008845
3496	0.003552
3492	-0.002646
3488	-0.007534
3484	0.014257
3480	0.018668
3476	0.038909
3472	0.113868
3468	0.187849
3464	0.189709
3460	0.074648
3456	-0.037574
3452	0.040960
3448	0.173354
3444	0.138950
3440	-0.031542
3436	-0.103664
3432	-0.026035
3428	0.068712
3424	0.156211
3420	0.146603
3416	0.060153
3412	0.035905
3408	0.022554
3404	-0.001144
3400	-0.018310
3396	-0.042748
3392	-0.064992
3388	-0.081157
3384	-0.010943
3380	0.100278
3376	0.069141
3372	0.008988
3368	0.068783
3364	0.081491
3360	-0.001168
3356	-0.000810
3352	0.105714
3348	0.147080
3344	0.086665
3340	0.013756
3336	-0.027132
3332	0.037932
3328	0.104594
3324	0.092363
3320	0.140595
3316	0.164651
3312	0.088953
3308	0.078272
3304	0.158572
3300	0.187635
3296	0.137710
3292	0.097322
3288	0.078845
3284	0.087833
3280	0.104022
3276	0.084233
3272	0.023674
3268	-0.059652
3264	-0.074243
3260	-0.057935
3256	-0.093030
3252	-0.083661
3248	0.014376
3244	0.107121
3240	0.097632
3236	0.053906
3232	0.087571
3228	0.175738
3224	0.235009
3220	0.192761
3216	0.115633
3212	0.083732
3208	0.057291
3204	0.037693
3200	0.062632
3196	0.025200
3192	-0.067877
3188	-0.084757
3184	-0.056862
3180	0.016236
3176	0.125861
3172	0.198626
3168	0.149416
3164	0.013113
3160	0.000476
3156	0.061368
3152	0.058197
3148	0.065803
3144	0.060248
3140	0.002336
3136	-0.029873
3132	-0.075268
3128	-0.172901
3124	-0.155711
3120	-0.060176
3116	-0.109410
3112	-0.163412
3108	-0.107407
3104	-0.061368
3100	-0.044989
3096	-0.005006
3092	0.034928
3088	0.055789
3084	0.055241
3080	-0.006794
3076	-0.025105
3072	0.047564
3068	0.077342
3064	0.051546
3060	0.086951
3056	0.146436
3052	0.153231
3048	0.143933
3044	0.074815
3040	-0.062680
3036	-0.124335
3032	-0.048089
3028	0.045895
3024	0.020170
3020	-0.039148
3016	-0.022506
3012	0.006055
3008	0.052380
3004	0.081992
3000	0.081062
2996	0.138998
2992	0.190186
2988	0.185418
2984	0.187444
2980	0.189042
2976	0.168561
2972	0.150728
2968	0.111794
2964	0.029706
2960	-0.048160
2956	-0.057649
2952	-0.006651
2948	0.061225
2944	0.143194
2940	0.181198
2936	0.105619
2932	0.017905
2928	-0.000286
2924	-0.036907
2920	-0.065159
2916	-0.047039
2912	-0.044059
2908	-0.043058
2904	-0.038886
2900	-0.043749
2896	-0.059604
2892	-0.029921
2888	0.084710
2884	0.161147
2880	0.114107
2876	0.011086
2872	-0.018095
2868	0.045752
2864	0.090408
2860	0.060439
2856	0.009274
2852	-0.037693
2848	-0.021553
2844	0.078010
2840	0.086140
2836	0.020122
2832	0.018167
2828	-0.019383
2824	-0.096368
2820	-0.111627
2816	-0.053095
2812	0.069069
2808	0.141739
2804	0.100970
2800	0.025296
2796	0.021719
2792	0.059890
2788	0.044536
2784	0.042891
2780	0.050330
2776	0.011277
2772	-0.010466
2768	-0.019574
2764	-0.029087
2760	-0.014281
2756	0.004196
2752	0.016641
2748	0.022959
2744	0.041580
2740	0.028324
2736	-0.039625
2732	-0.030279
2728	0.026798
2724	0.018405
2720	0.034713
2716	0.085067
2712	0.088047
2708	0.057554
2704	0.051927
2700	0.086951
2696	0.088667
2692	0.043416
2688	0.044751
2684	0.049495
2680	-0.034737
2676	-0.089788
2672	-0.066280
2668	-0.037217
2664	-0.008273
2660	0.007653
2656	0.044488
2652	0.080442
2648	0.045776
2644	0.015354
2640	0.007224
2636	0.003242
2632	0.058341
2628	0.125169
2624	0.119781
2620	0.091600
2616	0.107026
2612	0.072121
2608	-0.009059
2604	-0.005650
2600	0.050187
2596	0.083112
2592	0.050020
2588	-0.028443
2584	-0.047063
2580	-0.013852
2576	-0.004911
2572	0.010132
2568	0.049161
2564	0.067496
2560	0.055480
2556	0.030326
2552	0.021386
2548	0.030899
2544	0.027251
2540	-0.000977
2536	-0.049734
2532	-0.067019
2528	-0.005483
2524	0.058770
2520	0.080752
2516	0.111889
2512	0.086665
2508	-0.007534
2504	-0.083923
2500	-0.125288
2496	-0.049114
2492	0.075578
2488	0.064611
2484	0.004291
2480	-0.007843
2476	-0.026750
2472	-0.010108
2468	0.079631
2464	0.125312
2460	0.044751
2456	-0.052142
2452	-0.074434
2448	-0.058746
2444	0.031113
2440	0.109577
2436	0.088095
2432	0.069689
2428	0.021338
2424	0.000739
2420	0.028061
2416	-0.087332
2412	-0.177955
2408	-0.112700
2404	-0.035834
2400	0.089931
2396	0.236701
2392	0.215601
2388	0.051450
2384	-0.009441
2380	0.059795
2376	0.087547
2372	0.087499
2368	0.103425
2364	0.103735
2360	0.088524
2356	0.084686
2352	0.117921
2348	0.148344
2344	0.149774
2340	0.142216
2336	0.124311
2332	0.116634
2328	0.164985
2324	0.212740
2320	0.202822
2316	0.191974
2312	0.189137
2308	0.151753
2304	0.093102
2300	0.119447
2296	0.223088
2292	0.288414
2288	0.333690
2284	0.361490
2280	0.365710
2276	0.419425
2272	0.522327
2268	0.616908
2264	0.655794
2260	0.679111
2256	0.780391
2252	0.904273
2248	0.951576
2244	0.996565
2240	1.079320
2236	1.160144
2232	1.316308
2228	1.561546
2224	1.764369
2220	1.897788
2216	2.035021
2212	2.215552
2208	2.470564
2204	2.720165
2200	2.910494
2196	3.131175
2192	3.354144
2188	3.604292
2184	3.973507
2180	4.332661
2176	4.592013
2172	4.805135
2168	5.074930
2164	5.477762
2160	5.853438
2156	6.118535
2152	6.407904
2148	6.772756
2144	7.228064
2140	7.747840
2136	8.222675
2132	8.627891
2128	9.051084
2124	9.542655
2120	10.031
2116	10.4554
2112	10.907
2108	11.432
2104	11.9199
2100	12.3499
2096	12.778
2092	13.2696
2088	13.7864
2084	14.2283
2080	14.6812
2076	15.168
2072	15.6005
2068	15.9944
2064	16.445
2060	16.9649
2056	17.4488
2052	17.8482
2048	18.2355
2044	18.671
2040	19.0856
2036	19.4894
2032	19.9394
2028	20.3676
2024	20.772
2020	21.1404
2016	21.4736
2012	21.8309
2008	22.1717
2004	22.5298
2000	22.9197
1996	23.2561
1992	23.5498
1988	23.87
1984	24.1921
1980	24.4667
1976	24.7457
1972	25.0532
1968	25.3537
1964	25.6166
1960	25.8569
1956	26.112
1952	26.3912
1948	26.6456
1944	26.8474
1940	27.0566
1936	27.2634
1932	27.4382
1928	27.6205
1924	27.7736
1920	27.8996
1916	28.0732
1912	28.2945
1908	28.5179
1904	28.686
1900	28.8501
1896	29.0181
1892	29.118
1888	29.1994
1884	29.3236
1880	29.4835
1876	29.6071
1872	29.6675
1868	29.723
1864	29.8051
1860	29.9777
1856	30.2205
1852	30.3795
1848	30.3996
1844	30.3895
1840	30.4806
1836	30.58
1832	30.5965
1828	30.6463
1824	30.7403
1820	30.8104
1816	30.8821
1812	30.9581
1808	31.0295
1804	31.1123
1800	31.1601
1796	31.1981
1792	31.2872
1788	31.3421
1784	31.3161
1780	31.3242
1776	31.3983
1772	31.4512
1768	31.4778
1764	31.4748
1760	31.4776
1756	31.5537
1752	31.6283
1748	31.6613
1744	31.6745
1740	31.6237
1736	31.5562
1732	31.5505
1728	31.5758
1724	31.6512
1720	31.7678
1716	31.8413
1712	31.8877
1708	31.9364
1704	31.9707
1700	31.9611
1696	31.9163
1692	31.8975
1688	31.8591
1684	31.7753
1680	31.7107
1676	31.7123
1672	31.7888
1668	31.8689
1664	31.9388
1660	31.9949
1656	31.9807
1652	31.9541
1648	31.9347
1644	31.8435
1640	31.7391
1636	31.7081
1632	31.766
1628	31.892
1624	31.9913
1620	32.0057
1616	31.9772
1612	31.9725
1608	31.9704
1604	31.959
1600	31.9364
1596	31.8643
1592	31.8157
1588	31.8455
1584	31.8742
1580	31.8656
1576	31.8867
1572	31.9485
1568	32.0059
1564	32.0322
1560	32.0104
1556	31.989
1552	31.9822
1548	31.9167
1544	31.8254
1540	31.808
1536	31.8457
1532	31.865
1528	31.8353
1524	31.821
1520	31.8861
1516	31.9231
1512	31.9073
1508	31.9097
1504	31.8567
1500	31.7106
1496	31.5541
1492	31.4852
1488	31.4632
1484	31.4774
1480	31.5785
1476	31.6669
1472	31.7522
1468	31.8465
1464	31.8492
1460	31.8008
1456	31.7142
1452	31.6059
1448	31.5372
1444	31.4874
1440	31.4656
1436	31.4656
1432	31.4872
1428	31.5646
1424	31.6393
1420	31.6781
1416	31.723
1412	31.7277
1408	31.6494
1404	31.5359
1400	31.3972
1396	31.2698
1392	31.2382
1388	31.2798
1384	31.3034
1380	31.3361
1376	31.4342
1372	31.5058
1368	31.5327
1364	31.5234
1360	31.4355
1356	31.3184
1352	31.1899
1348	31.0991
1344	31.057
1340	31.0164
1336	31.048
1332	31.1878
1328	31.3629
1324	31.4327
1320	31.3913
1316	31.3295
1312	31.2105
1308	31.0897
1304	31.0371
1300	30.956
1296	30.8381
1292	30.76
1288	30.7576
1284	30.8665
1280	31.0225
1276	31.1482
1272	31.2233
1268	31.2019
1264	31.1351
1260	31.1137
1256	31.0503
1252	30.8499
1248	30.674
1244	30.6018
1240	30.5456
1236	30.5674
1232	30.7488
1228	30.9621
1224	31.021
1220	30.9679
1216	30.911
1212	30.8307
1208	30.6982
1204	30.542
1200	30.4495
1196	30.4575
1192	30.4867
1188	30.5058
1184	30.5475
1180	30.6743
1176	30.8008
1172	30.8277
1168	30.8147
1164	30.7321
1160	30.5386
1156	30.3722
1152	30.2738
1148	30.2095
1144	30.2351
1140	30.2948
1136	30.3053
1132	30.3253
1128	30.4
1124	30.4918
1120	30.4799
1116	30.3899
1112	30.3084
1108	30.1387
1104	29.9197
1100	29.6944
1096	29.5596
1092	29.6911
1088	29.937
1084	30.1144
1080	30.1546
1076	30.0985
1072	30.0009
1068	29.8403
1064	29.7012
1060	29.5977
1056	29.4777
1052	29.353
1048	29.2182
1044	29.1383
1040	29.232
1036	29.3647
1032	29.4173
1028	29.4898
1024	29.5976
1020	29.72
1016	29.6671
1012	29.3501
1008	29.0541
1004	28.9017
1000	28.8435
996	 28.8744
992	 28.9293
988	 28.9046
984	 28.9056
980	 29.0377
976	 29.1246
972	 29.0712
968	 28.961
964	 28.8153
960	 28.6565
956	 28.5534
952	 28.3628
948	 28.1443
944	 28.1469
940	 28.173
936	 28.1824
932	 28.3707
928	 28.5488
924	 28.5359
920	 28.4966
916	 28.4492
912	 28.2224
908	 27.85
904	 27.593
900	 27.5923
896	 27.6174
892	 27.5778
888	 27.5801
884	 27.6536
880	 27.7457
876	 27.7802
872	 27.7578
868	 27.677
864	 27.56
860	 27.3619
856	 27.146
852	 27.0344
848	 26.9493
844	 26.8847
840	 26.914
836	 26.9731
832	 26.9716
828	 26.973
824	 26.9773
820	 26.8914
816	 26.7443
812	 26.589
808	 26.4147
804	 26.177
800	 25.9821
796	 25.9448
792	 25.9745
788	 25.9987
784	 26.0278
780	 26.061
776	 26.0968
772	 26.06
768	 25.9734
764	 25.9269
760	 25.6882
756	 25.344
752	 25.2544
748	 25.2083
744	 25.1538
740	 25.2969
736	 25.4274
732	 25.4028
728	 25.3395
724	 25.342
720	 25.2513
716	 24.9106
712	 24.5967
708	 24.3892
704	 24.1226
700	 23.8508
696	 23.7362
692	 23.8192
688	 23.8566
684	 23.9606
680	 24.2253
676	 24.3248
672	 24.225
668	 23.9511
664	 23.6169
660	 23.4273
656	 23.3307
652	 23.2255
648	 23.1297
644	 23.0746
640	 22.9183
636	 22.8053
632	 22.8968
628	 23.0672
624	 23.2222
620	 23.0851
616	 22.7283
612	 22.3754
608	 22.1052
604	 22.0486
600	 21.885
596	 21.4668
592	 21.221
588	 21.2937
584	 21.3652
580	 21.3472
576	 21.6524
572	 22.1718
568	 22.1809
564	 21.6679
560	 21.2202
556	 20.8141
552	 20.3628
548	 20.4546
544	 21.0424
540	 21.2591
536	 21.087
532	 21.1403
528	 21.3552
524	 21.2035
520	 20.8151
516	 20.598
512	 20.1512
508	 19.6271
504	 19.6583
500	 19.863
496	 19.5588
492	 18.7868
488	 18.4283
484	 18.5945
480	 18.6628
476	 18.6603
472	 18.6609
468	 18.6134
464	 18.3628
460	 17.5861
456	 16.8543
452	 17.2924
448	 18.4944
444	 19.3038
440	 19.3826
436	 18.8441
432	 17.5804
428	 16.7251
424	 17.0978
420	 15.925
416	 13.9285
412	 15.3085
408	 15.6224
404	 10.7664
400	 9.333109
396	 13.667
392	 16.5835
388	 17.332
384	 17.223
380	 19.0224
376	 24.5069
372	 18.2888
370	 5.348277