File: Bakgrunnsmateriale/MATLAB/FTIR/ftir_data/LPE453/Mapping_121/LPE453_t51_cm-1.asc
PE IR       SPECTRUM    SPECTRUM    ASCII       PEDS        1.60
  -1
LPD9D5~1.ASC
17/05/16
18:33:56.00
17/05/16
18:33:56.00
tln
$LPE453_t0051$<tbV0>[-2.6,-2.6,8.0,0.0,27,1,0]
370
64

2002,4.07
MIRTGS : RIGHTBACK : INTERNAL 2
MIR : ON : INTERNAL 2
OPTKBR

0.200000
8
8.000000
FILLER
RATIO
SPECTRUM
UNLOCKED 256

DOUBLE
64
COMBINED
1
0
0

1.000000
RATIO

1
0
TRUE
51149
0
LEFT NOT FITTED RIGHT NOT FITTED 0
NONE
NONE
15600
12
4.427000
51148
TRUE
1 0 8 72 0 0 0 0

15798

#HDR
-1
-1
#GR
CM-1
%T
2.38419e-05
0.0
5000
-1.000000
4631
8
57.8731
-11.6214
#DATA
5000	-0.253653
4996	-0.586867
4992	-0.486612
4988	-0.135684
4984	0.034189
4980	-0.076293
4976	-0.182867
4972	-0.172519
4968	-0.182485
4964	-0.084519
4960	0.204944
4956	0.417304
4952	0.462770
4948	0.503492
4944	0.419330
4940	0.062727
4936	-0.202989
4932	-0.103807
4928	0.114989
4924	0.263619
4920	0.328850
4916	0.352978
4912	0.293827
4908	0.115680
4904	0.028014
4900	0.198531
4896	0.438022
4892	0.391411
4888	0.285100
4884	0.264811
4880	0.090575
4876	0.034856
4872	0.155186
4868	0.112843
4864	-0.015330
4860	0.074553
4856	0.191617
4852	0.100040
4848	0.094342
4844	0.369787
4840	0.617575
4836	0.642704
4832	0.423383
4828	0.061225
4824	-0.109577
4820	-0.113654
4816	-0.065159
4812	0.023508
4808	0.032186
4804	0.011014
4800	0.091338
4796	0.293779
4792	0.462245
4788	0.453639
4784	0.363135
4780	0.348472
4776	0.519371
4772	0.618243
4768	0.375032
4764	0.121283
4760	-0.018167
4756	-0.149846
4752	-0.125908
4748	-0.015091
4744	0.008654
4740	0.086426
4736	0.240063
4732	0.373482
4728	0.567269
4724	0.685524
4720	0.481915
4716	0.303983
4712	0.363445
4708	0.400090
4704	0.398659
4700	0.220108
4696	-0.041842
4692	-0.059390
4688	-0.024580
4684	0.022125
4680	0.297164
4676	0.561785
4672	0.400710
4668	0.276088
4664	0.598621
4660	0.987982
4656	1.257061
4652	1.087522
4648	0.381422
4644	0.229811
4640	0.759482
4636	0.753331
4632	0.348591
4628	0.648713
4624	1.521015
4620	1.650595
4616	1.061296
4612	0.999665
4608	0.992512
4604	0.583910
4600	0.429010
4596	-0.211834
4592	-0.756931
4588	0.004696
4584	0.381445
4580	-0.081372
4576	0.182938
4572	0.688624
4568	0.451135
4564	0.277853
4560	0.572228
4556	1.281476
4552	2.193212
4548	2.280354
4544	1.182532
4540	-0.323128
4536	-0.923943
4532	-0.396299
4528	0.743341
4524	1.549768
4520	1.738190
4516	5.804491
4512	15.512
4508	21.2436
4504	10.4072
4500	-7.113194
4496	-11.0902
4492	-4.751873
4488	-1.371121
4484	-1.227593
4480	-0.892138
4476	-1.241922
4472	-1.117420
4468	-0.471353
4464	-0.414943
4460	-0.543928
4456	-0.464653
4452	-0.285744
4448	-0.210452
4444	-0.392103
4440	-0.570750
4436	-0.597548
4432	-0.476217
4428	-0.432109
4424	-0.484180
4420	-0.461864
4416	-0.325345
4412	-0.065708
4408	0.444531
4404	0.710272
4400	0.368142
4396	0.042128
4392	0.196194
4388	0.588607
4384	0.646305
4380	0.313615
4376	-0.034403
4372	0.035858
4368	0.311803
4364	0.188779
4360	-0.055527
4356	-0.075888
4352	-0.023865
4348	-0.011610
4344	0.020337
4340	0.023078
4336	0.039625
4332	0.119972
4328	0.143837
4324	0.107455
4320	0.145053
4316	0.166273
4312	0.012564
4308	-0.056838
4304	-0.005626
4300	-0.015735
4296	-0.013256
4292	0.082540
4288	0.198793
4284	0.253534
4280	0.260353
4276	0.246977
4272	0.144076
4268	-0.026679
4264	-0.127053
4260	-0.146675
4256	-0.088167
4252	0.019955
4248	0.186157
4244	0.354409
4240	0.307726
4236	0.108361
4232	-0.094389
4228	-0.211262
4224	-0.064110
4220	0.080060
4216	-0.024080
4212	-0.029087
4208	0.033640
4204	0.011157
4200	0.152730
4196	0.414419
4192	0.473475
4188	0.258898
4184	0.042986
4180	0.000333
4176	0.111222
4172	0.285673
4168	0.365614
4164	0.364303
4160	0.241398
4156	0.126123
4152	0.138044
4148	0.065970
4144	0.057959
4140	0.228166
4136	0.309014
4132	0.248527
4128	0.149893
4124	0.074362
4120	-0.003457
4116	-0.007033
4112	0.095486
4108	0.150418
4104	0.209641
4100	0.203776
4096	0.115752
4092	0.077033
4088	0.119280
4084	0.262165
4080	0.277447
4076	0.140476
4072	0.094771
4068	0.106668
4064	0.078964
4060	0.020003
4056	-0.014758
4052	0.056242
4048	0.206971
4044	0.234818
4040	0.161337
4036	0.123047
4032	0.089979
4028	0.070023
4024	0.106978
4020	0.086665
4016	-0.076222
4012	-0.126361
4008	-0.026464
4004	0.144052
4000	0.276160
3996	0.279784
3992	0.205087
3988	0.124120
3984	0.128960
3980	0.123739
3976	0.068354
3972	0.093054
3968	0.135707
3964	0.195121
3960	0.221991
3956	0.136899
3952	0.049018
3948	-0.014567
3944	0.013709
3940	0.121235
3936	0.100660
3932	0.002050
3928	0.027060
3924	0.101256
3920	0.095868
3916	0.113606
3912	0.226449
3908	0.294566
3904	0.154256
3900	-0.049877
3896	-0.118780
3892	-0.114679
3888	-0.052332
3884	0.041842
3880	0.066971
3876	0.051689
3872	0.096154
3868	0.142431
3864	0.068712
3860	-0.043034
3856	-0.043797
3852	0.070428
3848	0.148534
3844	0.148010
3840	0.080013
3836	-0.011777
3832	0.022101
3828	0.078487
3824	-0.008630
3820	-0.087046
3816	-0.003290
3812	0.115275
3808	0.110745
3804	0.082492
3800	0.155568
3796	0.219154
3792	0.195717
3788	0.126719
3784	0.051665
3780	0.082731
3776	0.168871
3772	0.139617
3768	0.041031
3764	-0.031852
3760	-0.046968
3756	0.007748
3752	0.169515
3748	0.280618
3744	0.172877
3740	0.030469
3736	-0.034546
3732	-0.039124
3728	-0.017118
3724	-0.016736
3720	-0.020956
3716	-0.038504
3712	-0.029468
3708	0.002241
3704	-0.018167
3700	0.006031
3696	0.125527
3692	0.193452
3688	0.168251
3684	0.117063
3680	0.064682
3676	0.114727
3672	0.225400
3668	0.167798
3664	0.038933
3660	-0.001788
3656	-0.014162
3652	0.002455
3648	0.051760
3644	0.088262
3640	0.095868
3636	0.102567
3632	0.109601
3628	0.081014
3624	0.052094
3620	0.023627
3616	-0.028324
3612	-0.050091
3608	0.015115
3604	0.051259
3600	0.040316
3596	0.022482
3592	-0.066995
3588	-0.098800
3584	-0.021815
3580	-0.007390
3576	-0.003266
3572	0.064277
3568	0.069499
3564	0.050640
3560	0.119614
3556	0.220751
3552	0.278806
3548	0.232601
3544	0.092411
3540	0.009965
3536	0.048422
3532	0.101447
3528	0.104141
3524	0.081467
3520	0.046873
3516	-0.011873
3512	-0.100755
3508	-0.137400
3504	-0.023460
3500	0.118970
3496	0.129604
3492	0.089526
3488	0.073671
3484	0.092101
3480	0.142335
3476	0.178694
3472	0.267243
3468	0.348997
3464	0.310516
3460	0.233578
3456	0.176692
3452	0.161314
3448	0.099706
3444	-0.071406
3440	-0.188159
3436	-0.156426
3432	-0.099182
3428	-0.056719
3424	0.034856
3420	0.118565
3416	0.143122
3412	0.125598
3408	0.030255
3404	-0.114917
3400	-0.122451
3396	0.007224
3392	0.092959
3388	0.089502
3384	0.080609
3380	0.073480
3376	-0.011062
3372	-0.109338
3368	-0.125360
3364	-0.065231
3360	0.022125
3356	0.038981
3352	-0.027370
3348	-0.064349
3344	-0.029492
3340	0.001239
3336	-0.019431
3332	-0.049614
3328	-0.070571
3324	-0.070714
3320	-0.054764
3316	-0.002288
3312	0.096130
3308	0.134754
3304	0.090146
3300	0.055408
3296	0.102663
3292	0.167798
3288	0.160360
3284	0.126814
3280	0.077080
3276	0.007295
3272	-0.024223
3268	-0.043225
3264	-0.070738
3260	-0.039124
3256	0.039839
3252	0.056266
3248	0.050520
3244	0.115203
3240	0.135612
3236	0.052666
3232	0.038957
3228	0.125503
3224	0.141859
3220	0.084066
3216	0.056004
3212	-0.022411
3208	-0.103807
3204	-0.024962
3200	0.058484
3196	0.062108
3192	0.090432
3188	0.075435
3184	0.009703
3180	-0.003194
3176	0.066137
3172	0.125932
3168	0.080466
3164	0.028610
3160	0.039887
3156	0.033688
3152	0.041699
3148	0.075268
3144	0.064039
3140	0.065851
3136	0.135850
3132	0.193142
3128	0.197315
3124	0.207591
3120	0.108027
3116	-0.087666
3112	-0.173902
3108	-0.151443
3104	-0.082921
3100	-0.051403
3096	-0.090551
3092	-0.079202
3088	0.001120
3084	0.038337
3080	0.032806
3076	0.068569
3072	0.134634
3068	0.150108
3064	0.098943
3060	0.018310
3056	-0.056362
3052	-0.054430
3048	0.014114
3044	0.055432
3040	0.028276
3036	0.020170
3032	0.025558
3028	0.009393
3024	0.029730
3020	0.045061
3016	0.042605
3012	0.052618
3008	0.050997
3004	0.024056
3000	-0.001311
2996	-0.011444
2992	-0.013232
2988	-0.010037
2984	-0.000333
2980	0.029778
2976	0.024914
2972	-0.013589
2968	0.027036
2964	0.099062
2960	0.102114
2956	0.076675
2952	0.043559
2948	-0.009155
2944	-0.060200
2940	-0.081992
2936	-0.043559
2932	0.022482
2928	0.108027
2924	0.201773
2920	0.166320
2916	0.036358
2912	-0.017476
2908	-0.036001
2904	-0.053691
2900	-0.026559
2896	0.027179
2892	0.092482
2888	0.114107
2884	0.101351
2880	0.089955
2876	0.061082
2872	0.059175
2868	0.071501
2864	0.034999
2860	0.027680
2856	0.056815
2852	0.022959
2848	-0.037312
2844	-0.042319
2840	0.001955
2836	0.008630
2832	-0.014162
2828	0.035977
2824	0.117516
2820	0.124168
2816	0.084161
2812	0.072693
2808	0.089359
2804	0.076961
2800	0.031208
2796	-0.006508
2792	-0.029921
2788	-0.046038
2784	-0.043392
2780	-0.010848
2776	0.004673
2772	-0.039792
2768	-0.081562
2764	-0.033926
2760	0.038814
2756	0.035452
2752	-0.006651
2748	-0.030612
2744	-0.043725
2740	-0.054025
2736	-0.027227
2732	0.002241
2728	-0.007653
2724	0.029349
2720	0.086426
2716	0.068974
2712	0.056099
2708	0.070786
2704	0.057721
2700	0.088477
2696	0.136351
2692	0.091624
2688	0.030875
2684	0.020623
2680	0.029969
2676	0.046563
2672	0.051760
2668	0.070452
2664	0.112175
2660	0.096750
2656	0.026249
2652	0.020384
2648	0.058722
2644	0.040125
2640	-0.015783
2636	-0.076222
2632	-0.102472
2628	-0.013017
2624	0.100398
2620	0.119566
2616	0.112462
2612	0.108718
2608	0.075149
2604	0.022673
2600	-0.006198
2596	0.002551
2592	0.014185
2588	0.016403
2584	0.057744
2580	0.133562
2576	0.148534
2572	0.092577
2568	0.044298
2564	0.063204
2560	0.094079
2556	0.094580
2552	0.112748
2548	0.119137
2544	0.071310
2540	-0.011563
2536	-0.039720
2532	0.005578
2528	0.044870
2524	0.073099
2520	0.047421
2516	-0.047254
2512	-0.131034
2508	-0.135040
2504	-0.062561
2500	0.018644
2496	0.074863
2492	0.094079
2488	0.106859
2484	0.152778
2480	0.140738
2476	0.085830
2472	0.103282
2468	0.122666
2464	0.101947
2460	0.069427
2456	0.053930
2452	0.050020
2448	0.023198
2444	-0.008869
2440	-0.018548
2436	0.033831
2432	0.112128
2428	0.118660
2424	0.130987
2420	0.246620
2416	0.309586
2412	0.214099
2408	0.047516
2404	-0.068473
2400	-0.076651
2396	-0.017666
2392	0.060939
2388	0.045704
2384	-0.038981
2380	-0.039505
2376	-0.002694
2372	0.024056
2368	0.037837
2364	-0.000667
2360	-0.061941
2356	-0.056695
2352	0.028562
2348	0.101518
2344	0.125288
2340	0.151324
2336	0.181198
2332	0.193142
2328	0.168991
2324	0.121903
2320	0.142431
2316	0.218439
2312	0.250005
2308	0.245404
2304	0.235676
2300	0.230050
2296	0.216078
2292	0.208258
2288	0.279331
2284	0.332117
2280	0.296759
2276	0.274324
2272	0.283789
2268	0.332117
2264	0.436592
2260	0.535655
2256	0.621390
2252	0.685024
2248	0.706577
2244	0.781536
2240	0.929832
2236	1.061153
2232	1.149606
2228	1.243209
2224	1.373147
2220	1.529836
2216	1.714873
2212	1.906156
2208	2.091836
2204	2.315354
2200	2.548718
2196	2.752733
2192	2.969360
2188	3.211236
2184	3.434133
2180	3.644657
2176	3.922128
2172	4.253244
2168	4.547953
2164	4.789543
2160	4.994153
2156	5.261445
2152	5.709147
2148	6.205964
2144	6.662797
2140	7.155013
2136	7.582497
2132	7.919335
2128	8.309531
2124	8.766841
2120	9.218549
2116	9.630823
2112	10.0327
2108	10.4562
2104	10.8838
2100	11.2991
2096	11.7357
2092	12.2047
2088	12.6711
2084	13.1343
2080	13.5905
2076	14.1039
2072	14.6425
2068	15.052
2064	15.4063
2060	15.7924
2056	16.17
2052	16.6407
2048	17.2316
2044	17.7321
2040	18.1311
2036	18.5566
2032	18.9671
2028	19.3641
2024	19.7902
2020	20.1742
2016	20.4827
2012	20.818
2008	21.2129
2004	21.5786
2000	21.9248
1996	22.296
1992	22.6447
1988	22.9362
1984	23.2053
1980	23.4573
1976	23.6923
1972	23.9793
1968	24.2712
1964	24.5209
1960	24.8389
1956	25.2003
1952	25.4608
1948	25.6117
1944	25.7775
1940	26.0025
1936	26.2016
1932	26.3641
1928	26.5481
1924	26.7606
1920	26.9778
1916	27.1843
1912	27.3988
1908	27.6281
1904	27.8153
1900	27.9621
1896	28.0921
1892	28.1991
1888	28.3113
1884	28.392
1880	28.4594
1876	28.6335
1872	28.851
1868	28.9844
1864	29.0929
1860	29.2209
1856	29.3089
1852	29.3522
1848	29.3965
1844	29.5021
1840	29.619
1836	29.6448
1832	29.6745
1828	29.8201
1824	30.0068
1820	30.1352
1816	30.2024
1812	30.2139
1808	30.2013
1804	30.2347
1800	30.3125
1796	30.3818
1792	30.4282
1788	30.4797
1784	30.529
1780	30.5861
1776	30.6974
1772	30.815
1768	30.8504
1764	30.8335
1760	30.8215
1756	30.811
1752	30.8127
1748	30.8059
1744	30.7877
1740	30.7879
1736	30.8007
1732	30.8498
1728	30.9467
1724	31.0441
1720	31.0748
1716	31.0802
1712	31.1175
1708	31.1079
1704	31.05
1700	31.0145
1696	31.0104
1692	31.0815
1688	31.1937
1684	31.2108
1680	31.1762
1676	31.2053
1672	31.262
1668	31.2543
1664	31.1851
1660	31.1324
1656	31.1309
1652	31.1466
1648	31.1483
1644	31.1602
1640	31.2075
1636	31.3051
1632	31.3978
1628	31.4188
1624	31.4075
1620	31.3993
1616	31.3429
1612	31.2409
1608	31.1774
1604	31.157
1600	31.1815
1596	31.2718
1592	31.3031
1588	31.248
1584	31.2334
1580	31.2773
1576	31.3249
1572	31.3145
1568	31.2299
1564	31.1115
1560	31.0317
1556	31.0452
1552	31.1143
1548	31.1777
1544	31.2395
1540	31.2996
1536	31.3228
1532	31.3128
1528	31.2562
1524	31.1651
1520	31.0799
1516	30.9944
1512	30.9854
1508	31.094
1504	31.152
1500	31.1062
1496	31.0946
1492	31.1275
1488	31.1156
1484	31.0681
1480	31.0504
1476	31.0824
1472	31.0949
1468	31.024
1464	30.9493
1460	30.9386
1456	30.8668
1452	30.7774
1448	30.8535
1444	31.0381
1440	31.1694
1436	31.1548
1432	31.0636
1428	30.9441
1424	30.8091
1420	30.7628
1416	30.8049
1412	30.8352
1408	30.8516
1404	30.8832
1400	30.9172
1396	30.9783
1392	31.026
1388	30.9767
1384	30.8615
1380	30.7733
1376	30.7062
1372	30.6578
1368	30.6375
1364	30.633
1360	30.6157
1356	30.5735
1352	30.5812
1348	30.6561
1344	30.7134
1340	30.6764
1336	30.603
1332	30.5526
1328	30.506
1324	30.4729
1320	30.4244
1316	30.3834
1312	30.3925
1308	30.4117
1304	30.4514
1300	30.4906
1296	30.492
1292	30.502
1288	30.4939
1284	30.416
1280	30.3097
1276	30.2521
1272	30.2495
1268	30.2153
1264	30.1249
1260	30.1114
1256	30.2307
1252	30.3111
1248	30.3071
1244	30.2822
1240	30.2152
1236	30.1721
1232	30.1679
1228	30.0786
1224	29.9765
1220	30.0075
1216	30.0564
1212	30.0341
1208	30.0226
1204	30.0563
1200	30.0765
1196	30.0392
1192	29.9675
1188	29.9142
1184	29.8669
1180	29.7976
1176	29.7272
1172	29.6453
1168	29.5649
1164	29.6007
1160	29.7072
1156	29.7804
1152	29.8209
1148	29.8496
1144	29.8118
1140	29.6436
1136	29.5105
1132	29.4933
1128	29.4615
1124	29.4448
1120	29.511
1116	29.5576
1112	29.4267
1108	29.2877
1104	29.4055
1100	29.5568
1096	29.5422
1092	29.4663
1088	29.3409
1084	29.2014
1080	29.086
1076	28.9779
1072	28.9561
1068	29.0157
1064	29.0719
1060	29.09
1056	29.0435
1052	29.002
1048	29.0157
1044	29.0301
1040	29.0102
1036	28.9008
1032	28.7929
1028	28.8369
1024	28.8833
1020	28.7863
1016	28.6939
1012	28.6408
1008	28.6228
1004	28.6749
1000	28.6872
996	 28.6672
992	 28.5571
988	 28.338
984	 28.2225
980	 28.2213
976	 28.2383
972	 28.2185
968	 28.1804
964	 28.1983
960	 28.2472
956	 28.2951
952	 28.2214
948	 28.0746
944	 28.0156
940	 27.9374
936	 27.7348
932	 27.4943
928	 27.4065
924	 27.4817
920	 27.5257
916	 27.5112
912	 27.5844
908	 27.6609
904	 27.6273
900	 27.6227
896	 27.6138
892	 27.4223
888	 27.1236
884	 26.9395
880	 26.9069
876	 26.9409
872	 27.0367
868	 27.1465
864	 27.179
860	 27.1215
856	 27.0647
852	 26.9893
848	 26.7307
844	 26.4094
840	 26.2333
836	 26.1423
832	 26.0344
828	 25.951
824	 26.0129
820	 26.1432
816	 26.1831
812	 26.2564
808	 26.3712
804	 26.2621
800	 26.005
796	 25.7711
792	 25.5693
788	 25.4858
784	 25.4345
780	 25.2916
776	 25.0838
772	 25
768	 25.1656
764	 25.3561
760	 25.3957
756	 25.2563
752	 24.956
748	 24.7663
744	 24.8585
740	 24.9569
736	 24.8317
732	 24.555
728	 24.3029
724	 24.193
720	 24.1877
716	 24.2835
712	 24.4011
708	 24.356
704	 24.088
700	 23.7428
696	 23.5631
692	 23.5323
688	 23.4487
684	 23.3145
680	 23.222
676	 23.1317
672	 23.1513
668	 23.3335
664	 23.3547
660	 23.1762
656	 23.0745
652	 22.9329
648	 22.5781
644	 22.2349
640	 22.0788
636	 21.9959
632	 21.8658
628	 21.8107
624	 21.9052
620	 21.909
616	 21.7916
612	 21.8902
608	 22.2187
604	 22.2815
600	 21.8655
596	 21.4807
592	 21.3293
588	 21.1115
584	 20.8351
580	 20.5695
576	 20.383
572	 20.3442
568	 20.3115
564	 20.3529
560	 20.586
556	 20.6598
552	 20.3796
548	 19.9126
544	 19.5179
540	 19.5144
536	 19.7089
532	 19.6329
528	 19.3156
524	 19.0736
520	 18.9052
516	 18.8941
512	 19.1158
508	 19.183
504	 18.8613
500	 18.3714
496	 18.1553
492	 18.1538
488	 18.3596
484	 18.407
480	 17.8663
476	 17.6558
472	 17.7518
468	 17.8221
464	 18.3845
460	 18.7297
456	 18.0658
452	 16.8966
448	 16.0285
444	 15.8385
440	 16.0415
436	 15.8717
432	 15.0501
428	 14.6048
424	 14.5879
420	 14.2748
416	 14.9658
412	 15.8613
408	 13.6336
404	 9.097409
400	 4.514408
396	 3.878355
392	 6.986284
388	 12.9116
384	 23.8606
380	 34.7242
376	 50.3073
372	 56.4044
370	 45.7673