File: Bakgrunnsmateriale/MATLAB/FTIR/ftir_data/LPE453/Mapping_121/LPE453_t20.asc
PE IR       SPECTRUM    SPECTRUM    ASCII       PEDS        1.60
  -1
LPCB99~1.ASC
17/05/16
15:56:17.00
17/05/16
15:56:44.00
tln
$LPE453_t0020$<tbV0>[-7.8,-10.4,8.0,0.0,27,1,0]
27.028
64

2002,4.07
MIRTGS : RIGHTBACK : INTERNAL 2
MIR : ON : INTERNAL 2
OPTKBR

0.200000
8
8.000000
FILLER
RATIO
SPECTRUM
UNLOCKED 256

DOUBLE
64
COMBINED
1
0
0

0.002000
RATIO

1
0
TRUE
51149
0
LEFT NOT FITTED RIGHT NOT FITTED 0
NONE
NONE
15600
12
4.427000
51148
TRUE
1 0 8 72 0 0 0 0

15798

#HDR
-1
-1
#GR
µM
%T
2.38419e-05
0.0
2.000000
0.002000
12515
8
34.5041
-15.9177
#DATA
2.000000	 -0.224494
2.018000	 0.511193
2.036000	 0.220355
2.054000	 -0.168388
2.072000	 -0.036533
2.090000	 0.182398
2.108000	 0.446650
2.126000	 0.130481
2.144000	 0.153195
2.162000	 0.203234
2.180000	 -0.132687
2.198000	 -0.339527
2.216000	 25.4886
2.234000	 -0.904705
2.252000	 0.037192
2.270000	 0.067854
2.288000	 0.384432
2.306000	 -0.303832
2.324000	 0.076446
2.342000	 -0.142173
2.360000	 0.320696
2.378000	 0.108599
2.396000	 0.227459
2.414000	 0.049627
2.432000	 0.114507
2.450000	 0.115189
2.468000	 0.085356
2.486000	 -0.033580
2.504000	 0.115996
2.522000	 0.143594
2.540000	 -0.144703
2.558000	 0.066333
2.576000	 -0.002826
2.594000	 0.093225
2.612000	 0.123985
2.630000	 0.034394
2.648000	 0.109603
2.666000	 0.005817
2.684000	 0.111563
2.702000	 0.009391
2.720000	 0.189590
2.738000	 0.027823
2.756000	 0.122525
2.774000	 -0.077789
2.792000	 0.200367
2.810000	 0.082850
2.828000	 0.078905
2.846000	 -0.009059
2.864000	 0.282852
2.882000	 0.099748
2.900000	 -0.060591
2.918000	 0.003593
2.936000	 0.053349
2.954000	 0.091728
2.972000	 0.003605
2.990000	 -0.024208
3.008000	 0.001118
3.026000	 0.103438
3.044000	 -0.064572
3.062000	 0.052130
3.080000	 -0.053973
3.098000	 0.090690
3.116000	 -0.007654
3.134000	 -0.024841
3.152000	 0.089664
3.170000	 -0.050907
3.188000	 0.265463
3.206000	 0.052723
3.224000	 0.019657
3.242000	 -0.008290
3.260000	 0.129164
3.278000	 -0.013586
3.296000	 0.098593
3.314000	 0.003022
3.332000	 -0.001203
3.350000	 0.091637
3.368000	 -0.004142
3.386000	 -0.031524
3.404000	 0.028371
3.422000	 0.062706
3.440000	 0.125927
3.458000	 0.088922
3.476000	 0.175369
3.494000	 0.021068
3.512000	 0.136735
3.530000	 0.058988
3.548000	 0.006849
3.566000	 0.012263
3.584000	 0.045951
3.602000	 0.077111
3.620000	 -0.017956
3.638000	 -0.047654
3.656000	 0.083905
3.674000	 -0.065938
3.692000	 0.028596
3.710000	 0.047362
3.728000	 0.050119
3.746000	 0.065609
3.764000	 0.060887
3.782000	 0.037286
3.800000	 0.048033
3.818000	 0.074336
3.836000	 -0.026576
3.854000	 0.128265
3.872000	 0.087136
3.890000	 0.094110
3.908000	 -0.025429
3.926000	 0.023087
3.944000	 -0.076450
3.962000	 0.125728
3.980000	 0.131456
3.998000	 0.134722
4.016000	 0.075456
4.034000	 0.091976
4.052000	 0.129797
4.070000	 0.162331
4.088000	 0.023368
4.106000	 0.156959
4.124000	 0.072890
4.141999	 0.038101
4.160000	 0.183353
4.178000	 0.236492
4.196000	 0.202164
4.214000	 0.134983
4.232000	 0.136769
4.250000	 0.197810
4.268000	 0.420354
4.286000	 0.468453
4.304000	 0.535313
4.322000	 0.604355
4.340000	 0.761300
4.358000	 0.993927
4.375999	 1.136528
4.394000	 1.410588
4.412000	 1.511750
4.430000	 1.764432
4.448000	 2.168716
4.466000	 2.605568
4.484000	 3.080315
4.502000	 3.549251
4.520000	 3.935980
4.538000	 4.700918
4.556000	 5.250423
4.574000	 5.858986
4.592000	 6.575262
4.609999	 7.242639
4.628000	 8.090338
4.646000	 8.751819
4.664000	 9.466018
4.682000	 10.2982
4.700000	 11.2335
4.718000	 12.1064
4.736000	 12.8527
4.754000	 13.6126
4.772000	 14.3559
4.790000	 15.1949
4.808000	 16.1029
4.826000	 17.0645
4.843999	 17.7532
4.862000	 18.3433
4.880000	 18.8097
4.898000	 19.1874
4.916000	 19.5866
4.934000	 20.1286
4.952000	 20.7353
4.970000	 21.3613
4.988000	 21.9102
5.006000	 22.3923
5.024000	 22.7272
5.042000	 22.9456
5.060000	 23.154
5.077999	 23.4606
5.096000	 23.9
5.114000	 24.3447
5.132000	 24.8055
5.150000	 25.0854
5.168000	 25.3274
5.186000	 25.3531
5.204000	 25.4623
5.222000	 25.6401
5.240000	 25.7156
5.258000	 26.0021
5.276000	 26.218
5.294000	 26.5648
5.312000	 26.8615
5.330000	 26.9698
5.348000	 26.9988
5.366000	 26.9492
5.384000	 26.9499
5.402000	 26.9984
5.420000	 27.1525
5.438000	 27.2648
5.456000	 27.4357
5.474000	 27.6919
5.492000	 27.8851
5.510000	 28.0053
5.528000	 28.0287
5.546000	 28.0362
5.564000	 27.9307
5.582000	 27.8306
5.600000	 27.7565
5.618000	 27.7789
5.636000	 28.0778
5.654000	 28.3796
5.672000	 28.5087
5.690000	 28.6411
5.708000	 28.8599
5.726000	 28.8807
5.744000	 28.7055
5.762000	 28.5689
5.780000	 28.4666
5.798000	 28.3376
5.816000	 28.3807
5.834000	 28.3892
5.852000	 28.5168
5.870000	 28.922
5.888000	 29.219
5.906000	 29.2952
5.923999	 29.4114
5.942000	 29.4474
5.960000	 29.1299
5.978000	 28.9227
5.996000	 28.8717
6.014000	 28.7679
6.032000	 28.7575
6.050000	 28.9606
6.068000	 29.0666
6.086000	 29.2066
6.104000	 29.4312
6.122000	 29.5486
6.140000	 29.6305
6.158000	 29.7594
6.176000	 29.815
6.194000	 29.6917
6.212000	 29.436
6.230000	 29.282
6.248000	 29.1199
6.266000	 28.9419
6.284000	 28.9624
6.302000	 29.1519
6.320000	 29.4132
6.338000	 29.6294
6.356000	 29.733
6.374000	 29.8318
6.392000	 30.0313
6.410000	 30.2648
6.428000	 30.2177
6.446000	 30.004
6.464000	 29.9329
6.482000	 29.996
6.500000	 29.8796
6.518000	 29.5453
6.536000	 29.3552
6.554000	 29.4022
6.572000	 29.4806
6.590000	 29.5302
6.608000	 29.7038
6.626000	 30.0044
6.644000	 30.2003
6.662000	 30.2751
6.680000	 30.3938
6.698000	 30.5006
6.716000	 30.4908
6.734000	 30.3716
6.752000	 30.2042
6.770000	 30.06
6.788000	 29.9462
6.806000	 29.8279
6.824000	 29.7067
6.842000	 29.6685
6.860000	 29.7522
6.878000	 29.8376
6.896000	 29.8721
6.914000	 29.9466
6.932000	 30.1378
6.950000	 30.4358
6.968000	 30.6683
6.986000	 30.7574
7.004000	 30.8255
7.022000	 30.9143
7.040000	 30.9312
7.058000	 30.8027
7.076000	 30.5868
7.094000	 30.3924
7.112000	 30.2455
7.130000	 30.1507
7.148000	 30.1465
7.166000	 30.2097
7.184000	 30.2625
7.202000	 30.3036
7.220000	 30.3818
7.238000	 30.5035
7.256000	 30.6684
7.274000	 30.8719
7.292000	 31.0657
7.310000	 31.2041
7.328000	 31.2663
7.346000	 31.2466
7.364000	 31.1798
7.382000	 31.1137
7.400000	 31.0395
7.418000	 30.9146
7.436000	 30.7734
7.454000	 30.7102
7.472000	 30.7075
7.490000	 30.655
7.508000	 30.5481
7.526000	 30.4612
7.544000	 30.4272
7.562000	 30.4746
7.580000	 30.6311
7.598000	 30.8487
7.616000	 31.0447
7.634000	 31.1855
7.652000	 31.3026
7.670000	 31.4378
7.688000	 31.5738
7.706000	 31.6525
7.724000	 31.6599
7.742000	 31.6366
7.760000	 31.6251
7.778000	 31.6229
7.796000	 31.567
7.814000	 31.4013
7.832000	 31.1616
7.850000	 30.9382
7.868000	 30.7818
7.886000	 30.7084
7.904000	 30.7235
7.922000	 30.7957
7.940000	 30.8689
7.958000	 30.9324
7.976000	 31.0259
7.994000	 31.1836
8.012000	 31.3913
8.030000	 31.59
8.048000	 31.7371
8.065999	 31.8497
8.084000	 31.9575
8.102000	 32.0541
8.120000	 32.1321
8.138000	 32.2033
8.155999	 32.2435
8.173999	 32.1968
8.192000	 32.0622
8.210000	 31.9033
8.228000	 31.7697
8.246000	 31.6602
8.263999	 31.5635
8.282000	 31.4792
8.300000	 31.406
8.318000	 31.3398
8.336000	 31.2786
8.353999	 31.2267
8.372000	 31.2045
8.390000	 31.2442
8.408000	 31.3585
8.426000	 31.5229
8.443999	 31.6991
8.462000	 31.855
8.480000	 31.9684
8.498000	 32.039
8.516000	 32.103
8.533999	 32.2068
8.552000	 32.3582
8.570000	 32.5195
8.588000	 32.6447
8.606000	 32.706
8.624000	 32.6987
8.641999	 32.6435
8.660000	 32.5744
8.678000	 32.511
8.696000	 32.4469
8.714000	 32.3628
8.731999	 32.254
8.750000	 32.1411
8.768000	 32.0513
8.786000	 31.9861
8.804000	 31.9169
8.821999	 31.8232
8.840000	 31.7275
8.858000	 31.6802
8.876000	 31.7064
8.894000	 31.7873
8.911999	 31.8945
8.930000	 32.0267
8.948000	 32.1961
8.966000	 32.3926
8.984000	 32.5861
9.001999	 32.7598
9.020000	 32.9194
9.038000	 33.0723
9.056000	 33.2137
9.074000	 33.3306
9.092000	 33.4096
9.109999	 33.4407
9.128000	 33.4197
9.146000	 33.3505
9.164000	 33.2422
9.182000	 33.1054
9.199999	 32.9508
9.218000	 32.7936
9.236000	 32.6482
9.254000	 32.518
9.272000	 32.3981
9.289999	 32.2861
9.308000	 32.1858
9.326000	 32.1013
9.344000	 32.0338
9.362000	 31.9846
9.379999	 31.9533
9.398000	 31.936
9.416000	 31.9263
9.434000	 31.9274
9.452000	 31.9595
9.469999	 32.0479
9.488000	 32.195
9.506000	 32.3669
9.524000	 32.5127
9.542000	 32.6061
9.560000	 32.6684
9.577999	 32.7495
9.596000	 32.8842
9.614000	 33.0656
9.632000	 33.2524
9.650000	 33.3977
9.667999	 33.4759
9.686000	 33.4941
9.704000	 33.4811
9.722000	 33.4607
9.740000	 33.4316
9.757999	 33.3734
9.776000	 33.271
9.794000	 33.1365
9.812000	 33.0058
9.830000	 32.9124
9.847999	 32.8625
9.866000	 32.8347
9.884000	 32.8005
9.902000	 32.7439
9.920000	 32.6648
9.937999	 32.5728
9.956000	 32.4802
9.974000	 32.3999
9.992000	 32.3443
10.01	32.3221
10.028	32.3321
10.046	32.3651
10.064	32.4135
10.082	32.4795
10.1	32.5726
10.118	32.6995
10.136	32.8536
10.154	33.0166
10.172	33.1669
10.19	33.2907
10.208	33.3887
10.226	33.4726
10.244	33.5569
10.262	33.6497
10.28	33.7475
10.298	33.839
10.316	33.9104
10.334	33.9533
10.352	33.9671
10.37	33.9574
10.388	33.9325
10.406	33.8987
10.424	33.8622
10.442	33.8276
10.46	33.799
10.478	33.777
10.496	33.756
10.514	33.7253
10.532	33.6714
10.55	33.586
10.568	33.4702
10.586	33.3374
10.604	33.208
10.622	33.1033
10.64	33.0349
10.658	33.0015
10.676	32.9886
10.694	32.9772
10.712	32.9527
10.73	32.9129
10.748	32.8689
10.766	32.8389
10.784	32.8374
10.802	32.8679
10.82	32.9208
10.838	32.978
10.856	33.0252
10.874	33.0575
10.892	33.0837
10.91	33.1206
10.928	33.1839
10.946	33.2815
10.964	33.4096
10.982	33.5558
11	33.705
11.018	33.8447
11.036	33.9692
11.054	34.078
11.072	34.1734
11.09	34.2568
11.108	34.3267
11.126	34.3786
11.144	34.4078
11.162	34.411
11.18	34.3894
11.198	34.3479
11.216	34.2939
11.234	34.2358
11.252	34.1792
11.27	34.1247
11.288	34.0678
11.306	34.0017
11.324	33.9213
11.342	33.8272
11.36	33.7264
11.378	33.6309
11.396	33.5504
11.414	33.4877
11.432	33.436
11.45	33.382
11.468	33.311
11.486	33.2147
11.504	33.0956
11.522	32.9652
11.54	32.839
11.558	32.7319
11.576	32.6545
11.594	32.6118
11.612	32.6055
11.63	32.6339
11.648	32.6934
11.666	32.7776
11.684	32.8773
11.702	32.9832
11.72	33.0868
11.738	33.1831
11.756	33.2727
11.774	33.3598
11.792	33.4512
11.81	33.5518
11.828	33.6633
11.846	33.7829
11.864	33.9049
11.882	34.0233
11.9	34.1332
11.918	34.2318
11.936	34.3177
11.954	34.3899
11.972	34.4463
11.99	34.4846
12.008	34.5028
12.026	34.5003
12.044	34.4804
12.062	34.449
12.08	34.4127
12.098	34.3767
12.116	34.3422
12.134	34.3059
12.152	34.2608
12.17	34.2007
12.188	34.123
12.206	34.0303
12.224	33.9301
12.242	33.8322
12.26	33.7444
12.278	33.6703
12.296	33.6088
12.314	33.5546
12.332	33.5008
12.35	33.4415
12.368	33.3741
12.386	33.2993
12.404	33.2219
12.422	33.1491
12.44	33.0882
12.458	33.0446
12.476	33.0202
12.494	33.0137
12.512	33.0206
12.53	33.0351
12.548	33.052
12.566	33.0682
12.584	33.0829
12.602	33.0968
12.62	33.1127
12.638	33.1328
12.656	33.1579
12.674	33.187
12.692	33.219
12.71	33.252
12.728	33.2854
12.746	33.3197
12.764	33.3568
12.782	33.3983
12.8	33.4453
12.818	33.4977
12.836	33.5542
12.854	33.6129
12.872	33.6718
12.89	33.7293
12.908	33.7847
12.926	33.8378
12.944	33.8884
12.962	33.9365
12.98	33.9825
12.998	34.0263
13.016	34.0688
13.034	34.1116
13.052	34.1568
13.07	34.2054
13.088	34.2574
13.106	34.31
13.124	34.358
13.142	34.3936
13.16	34.4092
13.178	34.3983
13.196	34.358
13.214	34.289
13.232	34.1964
13.25	34.088
13.268	33.9731
13.286	33.8599
13.304	33.7544
13.322	33.6593
13.34	33.5745
13.358	33.4968
13.376	33.4217
13.394	33.3445
13.412	33.2618
13.43	33.1714
13.448	33.073
13.466	32.9679
13.484	32.8587
13.502	32.7489
13.52	32.6422
13.538	32.543
13.556	32.4552
13.574	32.3821
13.592	32.3262
13.61	32.2889
13.628	32.2704
13.646	32.2693
13.664	32.2831
13.682	32.3083
13.7	32.3415
13.718	32.3786
13.736	32.4173
13.754	32.4551
13.772	32.4919
13.79	32.5285
13.808	32.5671
13.826	32.6101
13.844	32.6598
13.862	32.7176
13.88	32.7833
13.898	32.8557
13.916	32.9324
13.934	33.0103
13.952	33.0863
13.97	33.1578
13.988	33.2237
14.006	33.2839
14.024	33.3396
14.042	33.393
14.06	33.4469
14.078	33.5035
14.096	33.5649
14.114	33.6323
14.132	33.7058
14.15	33.7846
14.168	33.8669
14.186	33.9494
14.204	34.0289
14.222	34.1003
14.24	34.1592
14.258	34.2004
14.276	34.2194
14.294	34.2125
14.312	34.1782
14.33	34.1172
14.348	34.0328
14.366	33.9307
14.384	33.819
14.402	33.7066
14.42	33.6026
14.438	33.5145
14.456	33.4478
14.474	33.4053
14.492	33.3872
14.51	33.3903
14.528	33.4085
14.546	33.4347
14.564	33.4616
14.582	33.4826
14.6	33.4919
14.618	33.4856
14.636	33.4625
14.654	33.424
14.672	33.3728
14.69	33.3127
14.708	33.2481
14.726	33.1831
14.744	33.1204
14.762	33.0617
14.78	33.0065
14.798	32.9529
14.816	32.8981
14.834	32.8384
14.852	32.7699
14.87	32.6909
14.888	32.6011
14.906	32.5023
14.924	32.3981
14.942	32.2948
14.96	32.1992
14.978	32.1171
14.996	32.0537
15.014	32.0123
15.032	31.9941
15.05	31.9966
15.068	32.0155
15.086	32.0454
15.104	32.0798
15.122	32.1123
15.14	32.1379
15.158	32.1539
15.176	32.1589
15.194	32.1533
15.212	32.1403
15.23	32.1236
15.248	32.107
15.266	32.0947
15.284	32.0903
15.302	32.0962
15.32	32.1135
15.338	32.1427
15.356	32.1834
15.374	32.234
15.392	32.2928
15.41	32.3576
15.428	32.426
15.446	32.495
15.464	32.5616
15.482	32.6234
15.5	32.6779
15.518	32.7228
15.536	32.7571
15.554	32.7806
15.572	32.7934
15.59	32.7973
15.608	32.7946
15.626	32.7875
15.644	32.7793
15.662	32.7731
15.68	32.771
15.698	32.775
15.716	32.7864
15.734	32.8055
15.752	32.8319
15.77	32.8649
15.788	32.9029
15.806	32.9443
15.824	32.9879
15.842	33.0321
15.86	33.0752
15.878	33.1163
15.896	33.1545
15.914	33.1889
15.932	33.2185
15.95	33.2424
15.968	33.2595
15.986	33.2684
16.004	33.2683
16.022	33.2583
16.04	33.2378
16.058	33.2064
16.076	33.1643
16.094	33.1125
16.112	33.0524
16.13	32.9853
16.148	32.9132
16.166	32.8383
16.184	32.7622
16.202	32.6867
16.22	32.6134
16.238	32.5429
16.256	32.4758
16.274	32.412
16.292	32.3511
16.31	32.2926
16.328	32.2357
16.346	32.1797
16.364	32.1243
16.382	32.0691
16.4	32.0142
16.418	31.9599
16.436	31.9068
16.454	31.8559
16.472	31.8077
16.49	31.7634
16.508	31.7232
16.526	31.6874
16.544	31.6563
16.562	31.6295
16.58	31.6067
16.598	31.587
16.616	31.5695
16.634	31.5534
16.652	31.5376
16.67	31.5212
16.688	31.5036
16.706	31.4837
16.724	31.461
16.742	31.4348
16.76	31.4047
16.778	31.3704
16.796	31.332
16.814	31.2897
16.832	31.2437
16.85	31.1954
16.868	31.1456
16.886	31.0954
16.904	31.0471
16.922	31.0019
16.94	30.9613
16.958	30.9274
16.976	30.9009
16.994	30.8832
17.012	30.8747
17.03	30.8758
17.048	30.8861
17.066	30.9053
17.084	30.9327
17.102	30.9669
17.12	31.0072
17.138	31.0523
17.156	31.1012
17.174	31.1532
17.192	31.2075
17.21	31.264
17.228	31.3223
17.246	31.3828
17.264	31.4453
17.282	31.5104
17.3	31.578
17.318	31.6486
17.336	31.7218
17.354	31.7978
17.372	31.8761
17.39	31.9561
17.408	32.0369
17.426	32.1176
17.444	32.1976
17.462	32.275
17.48	32.3492
17.498	32.4186
17.516	32.4819
17.534	32.5383
17.552	32.5865
17.57	32.6261
17.588	32.6562
17.606	32.6771
17.624	32.6887
17.642	32.6916
17.66	32.6859
17.678	32.6733
17.696	32.6541
17.714	32.6297
17.732	32.6007
17.75	32.5685
17.768	32.5336
17.786	32.4965
17.804	32.4577
17.822	32.4171
17.84	32.3749
17.858	32.331
17.876	32.2854
17.894	32.2384
17.912	32.1899
17.93	32.1405
17.948	32.0904
17.966	32.0409
17.984	31.9926
18.002	31.9471
18.02	31.9053
18.038	31.8684
18.056	31.8375
18.074	31.813
18.092	31.7952
18.11	31.7843
18.128	31.7795
18.146	31.7803
18.164	31.7849
18.182	31.7921
18.2	31.7999
18.218	31.8069
18.236	31.8117
18.254	31.8132
18.272	31.8108
18.29	31.8044
18.308	31.7939
18.326	31.7802
18.344	31.7636
18.362	31.746
18.38	31.7278
18.398	31.7107
18.416	31.6949
18.434	31.6815
18.452	31.6702
18.47	31.661
18.488	31.6525
18.506	31.6446
18.524	31.6344
18.542	31.6215
18.56	31.6028
18.578	31.5779
18.596	31.5438
18.614	31.5003
18.632	31.4459
18.65	31.3807
18.668	31.3048
18.686	31.2185
18.704	31.1237
18.722	31.0212
18.74	30.9139
18.758	30.8026
18.776	30.6906
18.794	30.5786
18.812	30.4699
18.83	30.3649
18.848	30.2661
18.866	30.1739
18.884	30.0898
18.902	30.0139
18.92	29.9469
18.938	29.8887
18.956	29.8395
18.974	29.7989
18.992	29.7667
19.01	29.7423
19.028	29.725
19.046	29.714
19.064	29.7083
19.082	29.7071
19.1	29.7087
19.118	29.7126
19.136	29.717
19.154	29.7215
19.172	29.7244
19.19	29.7258
19.208	29.7246
19.226	29.7209
19.244	29.7148
19.262	29.7063
19.28	29.6967
19.298	29.6859
19.316	29.6757
19.334	29.6663
19.352	29.6595
19.37	29.6554
19.388	29.6556
19.406	29.6602
19.424	29.6696
19.442	29.6841
19.46	29.7027
19.478	29.7256
19.496	29.751
19.514	29.7786
19.532	29.8065
19.55	29.8337
19.568	29.8591
19.586	29.8811
19.604	29.8993
19.622	29.9123
19.64	29.9204
19.658	29.9231
19.676	29.9205
19.694	29.9141
19.712	29.9036
19.73	29.8915
19.748	29.8776
19.766	29.8644
19.784	29.8521
19.802	29.8423
19.82	29.836
19.838	29.8334
19.856	29.8354
19.874	29.8418
19.892	29.8526
19.91	29.8676
19.928	29.8855
19.946	29.9065
19.964	29.9288
19.982	29.9523
20	29.9758
20.018	29.9987
20.036	30.0204
20.054	30.0395
20.072	30.0561
20.09	30.069
20.108	30.0783
20.126	30.0835
20.144	30.0845
20.162	30.0817
20.18	30.075
20.198	30.065
20.216	30.0521
20.234	30.0366
20.252	30.0198
20.27	30.0015
20.288	29.9835
20.306	29.9655
20.324	29.9488
20.342	29.9342
20.36	29.9219
20.378	29.9132
20.396	29.908
20.414	29.9073
20.432	29.9112
20.45	29.9196
20.468	29.9329
20.486	29.9506
20.504	29.9724
20.522	29.9983
20.54	30.0273
20.558	30.0596
20.576	30.0939
20.594	30.13
20.612	30.1674
20.63	30.2046
20.648	30.242
20.666	30.2781
20.684	30.3129
20.702	30.3459
20.72	30.3767
20.738	30.4054
20.756	30.4314
20.774	30.4548
20.792	30.4755
20.81	30.4937
20.828	30.5093
20.846	30.522
20.864	30.5321
20.882	30.5388
20.9	30.5424
20.918	30.5424
20.936	30.5385
20.954	30.5309
20.972	30.5188
20.99	30.5023
21.008	30.4819
21.026	30.4574
21.044	30.4294
21.062	30.3993
21.08	30.3666
21.098	30.3343
21.116	30.3025
21.134	30.2725
21.152	30.2478
21.17	30.2272
21.188	30.2147
21.206	30.2107
21.224	30.216
21.242	30.233
21.26	30.2611
21.278	30.3006
21.296	30.3524
21.314	30.4148
21.332	30.4859
21.35	30.5669
21.368	30.6527
21.386	30.7433
21.404	30.8368
21.422	30.927
21.44	31.0163
21.458	31.0984
21.476	31.1713
21.494	31.235
21.512	31.2836
21.53	31.3181
21.548	31.3367
21.566	31.3369
21.584	31.3199
21.602	31.2851
21.62	31.2317
21.638	31.1617
21.656	31.0765
21.674	30.9753
21.692	30.8626
21.71	30.7387
21.728	30.6047
21.746	30.4656
21.764	30.3199
21.782	30.1715
21.8	30.0237
21.818	29.875
21.836	29.7302
21.854	29.5892
21.872	29.453
21.89	29.3248
21.908	29.2036
21.926	29.0914
21.944	28.9896
21.962	28.8975
21.98	28.8169
21.998	28.7479
22.016	28.6906
22.034	28.646
22.052	28.6138
22.07	28.5941
22.088	28.5871
22.106	28.5927
22.124	28.6103
22.142	28.6401
22.16	28.6815
22.178	28.7328
22.196	28.7948
22.214	28.8655
22.232	28.9425
22.25	29.0273
22.268	29.1159
22.286	29.2064
22.304	29.2997
22.322	29.3903
22.34	29.4779
22.358	29.5618
22.376	29.6369
22.394	29.7044
22.412	29.7626
22.43	29.8078
22.448	29.8416
22.466	29.8623
22.484	29.8683
22.502	29.8605
22.52	29.8388
22.538	29.8026
22.556	29.7524
22.574	29.6905
22.592	29.6163
22.61	29.5309
22.628	29.4378
22.646	29.3358
22.664	29.227
22.682	29.1153
22.7	28.9991
22.718	28.8808
22.736	28.7641
22.754	28.6473
22.772	28.5322
22.79	28.4204
22.808	28.3113
22.826	28.2055
22.844	28.1037
22.862	28.0055
22.88	27.912
22.898	27.8235
22.916	27.7397
22.934	27.6616
22.952	27.5893
22.97	27.5226
22.988	27.4626
23.006	27.4095
23.024	27.3632
23.042	27.3245
23.06	27.2934
23.078	27.2697
23.096	27.254
23.114	27.2463
23.132	27.2464
23.15	27.2535
23.168	27.2682
23.186	27.2896
23.204	27.3159
23.222	27.3477
23.24	27.384
23.258	27.422
23.276	27.4627
23.294	27.5047
23.312	27.5439
23.33	27.5808
23.348	27.6149
23.366	27.6427
23.384	27.6642
23.402	27.6795
23.42	27.6864
23.438	27.6842
23.456	27.6739
23.474	27.6554
23.492	27.6284
23.51	27.5933
23.528	27.552
23.546	27.5037
23.564	27.4489
23.582	27.3923
23.6	27.3347
23.618	27.275
23.636	27.219
23.654	27.1694
23.672	27.1232
23.69	27.0875
23.708	27.0667
23.726	27.0569
23.744	27.0638
23.762	27.0925
23.78	27.1397
23.798	27.2085
23.816	27.3031
23.834	27.4223
23.852	27.5657
23.87	27.7341
23.888	27.9286
23.906	28.147
23.924	28.3861
23.942	28.6478
23.96	28.9304
23.978	29.226
23.996	29.5341
24.014	29.8569
24.032	30.1817
24.05	30.5018
24.068	30.8251
24.086	31.1372
24.104	31.4251
24.122	31.6985
24.14	31.9472
24.158	32.1556
24.176	32.3294
24.194	32.4656
24.212	32.5514
24.23	32.5847
24.248	32.5696
24.266	32.4985
24.284	32.3663
24.302	32.1764
24.32	31.9297
24.338	31.6264
24.356	31.2634
24.374	30.847
24.392	30.3856
24.41	29.8734
24.428	29.315
24.446	28.7266
24.464	28.1121
24.482	27.4636
24.5	26.8017
24.518	26.1424
24.536	25.471
24.554	24.8033
24.572	24.1618
24.59	23.5394
24.608	22.9379
24.626	22.3787
24.644	21.8709
24.662	21.4033
24.68	20.9895
24.698	20.6428
24.716	20.3575
24.734	20.1339
24.752	19.9765
24.77	19.8877
24.788	19.8645
24.806	19.9029
24.824	20.001
24.842	20.1633
24.86	20.3809
24.878	20.6436
24.896	20.9571
24.914	21.3182
24.932	21.7126
24.95	22.134
24.968	22.5916
24.986	23.0717
25.004	23.5602
25.022	24.0644
25.04	24.5808
25.058	25.0966
25.076	25.6063
25.094	26.1175
25.112	26.6211
25.13	27.1078
25.148	27.5813
25.166	28.0412
25.184	28.4819
25.202	28.9006
25.22	29.3003
25.238	29.6794
25.256	30.0362
25.274	30.371
25.292	30.6843
25.31	30.9754
25.328	31.2444
25.346	31.4919
25.364	31.7169
25.382	31.9184
25.4	32.0981
25.418	32.2552
25.436	32.3862
25.454	32.489
25.472	32.5675
25.49	32.6174
25.508	32.6331
25.526	32.6162
25.544	32.5694
25.562	32.4817
25.58	32.3433
25.598	32.1621
25.616	31.9343
25.634	31.6479
25.652	31.2965
25.67	30.8893
25.688	30.4182
25.706	29.8733
25.724	29.2524
25.742	28.5606
25.76	27.7964
25.778	26.9581
25.796	26.0389
25.814	25.0481
25.832	23.9999
25.85	22.9007
25.868	21.7336
25.886	20.5218
25.904	19.2936
25.922	18.0469
25.94	16.7656
25.958	15.491
25.976	14.2643
25.994	13.0648
26.012	11.8927
26.03	10.7894
26.048	9.790260
26.066	8.866931
26.084	8.030408
26.102	7.309567
26.12	6.724932
26.138	6.259091
26.156	5.914252
26.174	5.696347
26.192	5.614016
26.21	5.666044
26.228	5.833726
26.246	6.098078
26.264	6.471802
26.282	6.958549
26.3	7.517329
26.318	8.108337
26.336	8.761618
26.354	9.470877
26.372	10.1818
26.39	10.8454
26.408	11.5032
26.426	12.14
26.444	12.7047
26.462	13.155
26.48	13.5291
26.498	13.8128
26.516	13.9713
26.534	13.9778
26.552	13.8537
26.57	13.5971
26.588	13.1992
26.606	12.6507
26.624	11.9509
26.642	11.1141
26.66	10.1557
26.678	9.077644
26.696	7.857595
26.714	6.530459
26.732	5.135949
26.75	3.687566
26.768	2.146241
26.786	0.555925
26.804	-1.033247
26.822	-2.603728
26.84	-4.201761
26.858	-5.780495
26.876	-7.286691
26.894	-8.697760
26.912	-10.0592
26.93	-11.3356
26.948	-12.4854
26.966	-13.4932
26.984	-14.4011
27.002	-15.1693
27.02	-15.7512
27.028	-15.9177