File: Bakgrunnsmateriale/MATLAB/FTIR/ftir_data/LPE453/Mapping_121/LPE453_t36_cm-1.asc
PE IR       SPECTRUM    SPECTRUM    ASCII       PEDS        1.60
  -1
LPE85A~1.ASC
17/05/16
17:17:50.00
17/05/16
17:17:50.00
tln
$LPE453_t0036$<tbV0>[7.8,-5.2,8.0,0.0,27,1,0]
370
64

2002,4.07
MIRTGS : RIGHTBACK : INTERNAL 2
MIR : ON : INTERNAL 2
OPTKBR

0.200000
8
8.000000
FILLER
RATIO
SPECTRUM
UNLOCKED 256

DOUBLE
64
COMBINED
1
0
0

1.000000
RATIO

1
0
TRUE
51149
0
LEFT NOT FITTED RIGHT NOT FITTED 0
NONE
NONE
15600
12
4.427000
51148
TRUE
1 0 8 72 0 0 0 0

15798

#HDR
-1
-1
#GR
CM-1
%T
2.38419e-05
0.0
5000
-1.000000
4631
8
32.3275
-10.628
#DATA
5000	0.272011
4996	0.477981
4992	0.571846
4988	0.368380
4984	0.051069
4980	-0.135970
4976	-0.061988
4972	0.075578
4968	0.018191
4964	0.081229
4960	0.367665
4956	0.376892
4952	0.178122
4948	0.070953
4944	-0.050878
4940	-0.037789
4936	0.156521
4932	0.255322
4928	0.067257
4924	-0.201821
4920	-0.230598
4916	-0.152850
4912	-0.222110
4908	-0.316214
4904	-0.194597
4900	-0.006794
4896	0.186133
4892	0.462031
4888	0.440955
4884	0.165843
4880	0.071263
4876	0.149703
4872	0.083994
4868	0.061273
4864	0.196123
4860	0.144076
4856	-0.035524
4852	-0.131916
4848	0.034308
4844	0.298523
4840	0.398135
4836	0.327110
4832	0.085306
4828	-0.097846
4824	-0.129914
4820	-0.097465
4816	-0.057077
4812	0.067234
4808	0.181007
4804	0.147819
4800	0.229048
4796	0.318956
4792	0.321888
4788	0.297164
4784	0.125122
4780	-0.097608
4776	-0.137209
4772	-0.056147
4768	-0.081014
4764	0.058484
4760	0.268459
4756	0.137233
4752	-0.008916
4748	-0.018596
4744	0.037312
4740	0.145268
4736	0.104284
4732	0.023007
4728	0.076055
4724	0.120234
4720	0.143909
4716	0.306415
4712	0.303673
4708	0.059938
4704	0.009632
4700	0.081062
4696	0.008153
4692	-0.095939
4688	0.037956
4684	0.422334
4680	0.785493
4676	0.812625
4672	0.513172
4668	0.286102
4664	0.406718
4660	0.735592
4656	0.884342
4652	0.815153
4648	0.668478
4644	0.428056
4640	0.321841
4636	0.440025
4632	0.545811
4628	0.596904
4624	0.637674
4620	0.681638
4616	0.645494
4612	0.425243
4608	0.301837
4604	0.477480
4600	0.560021
4596	0.243735
4592	-0.094819
4588	0.028276
4584	0.109791
4580	-0.332307
4576	-0.715065
4572	-0.754547
4568	-0.763940
4564	-0.650072
4560	-0.614976
4556	-0.799226
4552	-1.174569
4548	-1.305222
4544	-0.985336
4540	-1.022338
4536	-1.660895
4532	-1.821041
4528	-0.906324
4524	3.238630
4520	18.8865
4516	32.3275
4512	21.1685
4508	3.701162
4504	0.336813
4500	0.945472
4496	-0.162959
4492	-0.691962
4488	-0.151491
4484	-0.305056
4480	-0.965785
4476	-0.868153
4472	-0.863957
4468	-0.926518
4464	-0.863623
4460	-0.964093
4456	-1.121139
4452	-1.013326
4448	-0.878095
4444	-0.841355
4440	-0.699734
4436	-0.599408
4432	-0.432181
4428	-0.160050
4424	0.003504
4420	-0.026297
4416	0.020432
4412	0.301027
4408	0.463533
4404	0.396823
4400	0.439167
4396	0.609517
4392	0.710368
4388	0.779795
4384	0.811934
4380	0.689506
4376	0.605225
4372	0.676226
4368	0.625848
4364	0.495266
4360	0.459146
4356	0.463294
4352	0.429868
4348	0.363588
4344	0.304841
4340	0.262689
4336	0.319910
4332	0.407290
4328	0.382590
4324	0.293350
4320	0.181841
4316	0.071382
4312	-0.005078
4308	0.062751
4304	0.217103
4300	0.164914
4296	-0.038909
4292	0.046086
4288	0.255846
4284	0.224208
4280	0.084304
4276	-0.016856
4272	-0.034403
4268	0.023746
4264	0.136184
4260	0.219845
4256	0.208401
4252	0.291037
4248	0.392723
4244	0.308275
4240	0.205111
4236	0.213956
4232	0.258970
4228	0.230836
4224	0.154113
4220	0.138854
4216	0.156021
4212	0.145459
4208	0.209712
4204	0.358510
4200	0.358080
4196	0.087642
4192	-0.126314
4188	-0.022768
4184	0.135517
4180	0.378060
4176	0.466799
4172	0.029230
4168	-0.194430
4164	0.020146
4160	0.088834
4156	0.060105
4152	0.050640
4148	-0.019645
4144	-0.042796
4140	0.028562
4136	0.048899
4132	0.028085
4128	0.064873
4124	0.172710
4120	0.220441
4116	0.123620
4112	0.044965
4108	-0.040030
4104	-0.076699
4100	0.022506
4096	0.001025
4092	-0.122451
4088	-0.167417
4084	-0.206017
4080	-0.112175
4076	0.171589
4072	0.279402
4068	0.075268
4064	-0.104713
4060	-0.066018
4056	0.015974
4052	0.029611
4048	0.018978
4044	0.008082
4040	0.029563
4036	0.074577
4032	0.103259
4028	0.083565
4024	0.119709
4020	0.287604
4016	0.338363
4012	0.219178
4008	0.151443
4004	0.180649
4000	0.234341
3996	0.226211
3992	0.162553
3988	0.179147
3984	0.198650
3980	0.109457
3976	0.136280
3972	0.267982
3968	0.295495
3964	0.266718
3960	0.248289
3956	0.204062
3952	0.144767
3948	0.174570
3944	0.282907
3940	0.352764
3936	0.340795
3932	0.300359
3928	0.292015
3924	0.308108
3920	0.314354
3916	0.172781
3912	0.017285
3908	0.104451
3904	0.194859
3900	0.129580
3896	0.086426
3892	0.089359
3888	0.073933
3884	0.105714
3880	0.124144
3876	0.079560
3872	0.024199
3868	-0.020861
3864	-0.014901
3860	0.037336
3856	0.053167
3852	0.037264
3848	0.135159
3844	0.292539
3840	0.334715
3836	0.292396
3832	0.203776
3828	0.088214
3824	0.015187
3820	-0.066685
3816	-0.150108
3812	-0.115036
3808	0.005722
3804	0.126552
3800	0.164270
3796	0.083494
3792	0.066542
3788	0.169372
3784	0.207138
3780	0.148153
3776	0.107550
3772	0.116848
3768	0.177693
3764	0.228452
3760	0.170755
3756	0.138998
3752	0.189018
3748	0.158977
3744	0.053095
3740	0.006127
3736	0.048899
3732	0.141906
3728	0.195431
3724	0.142383
3720	0.089597
3716	0.062823
3712	0.007963
3708	0.001215
3704	0.064349
3700	0.087690
3696	0.052642
3692	0.055193
3688	0.114011
3684	0.159406
3680	0.144219
3676	0.141000
3672	0.208520
3668	0.251293
3664	0.166225
3660	0.003719
3656	-0.037217
3652	0.037336
3648	0.024652
3644	-0.015592
3640	0.001668
3636	-0.039744
3632	-0.090122
3628	-0.009083
3624	0.094676
3620	0.090622
3616	0.086617
3612	0.069189
3608	-0.020623
3604	-0.005626
3600	0.094342
3596	0.087690
3592	0.063800
3588	0.127983
3584	0.136685
3580	0.052881
3576	0.021600
3572	0.104260
3568	0.171923
3564	0.117397
3560	0.035381
3556	0.084018
3552	0.157356
3548	0.056743
3544	0.008916
3540	0.095629
3536	0.060129
3532	-0.025725
3528	-0.004243
3524	0.037884
3520	0.024771
3516	-0.003170
3512	-0.000977
3508	0.052475
3504	0.162243
3500	0.205349
3496	0.113105
3492	0.090599
3488	0.180935
3484	0.242996
3480	0.237870
3476	0.141406
3472	0.044965
3468	0.063920
3464	0.178122
3460	0.242805
3456	0.164270
3452	0.060367
3448	0.042390
3444	0.103926
3440	0.153207
3436	0.126814
3432	0.060415
3428	0.055408
3424	0.123381
3420	0.144982
3416	0.138807
3412	0.146651
3408	0.084972
3404	0.020194
3400	0.021982
3396	0.055694
3392	0.086641
3388	0.079393
3384	0.094294
3380	0.135159
3376	0.142669
3372	0.088167
3368	0.047349
3364	0.122737
3360	0.144481
3356	0.016260
3352	-0.045251
3348	0.053334
3344	0.098681
3340	0.023651
3336	0.056219
3332	0.166034
3328	0.204801
3324	0.203275
3320	0.134396
3316	0.011706
3312	-0.040435
3308	0.014328
3304	0.089335
3300	0.094366
3296	0.068688
3292	0.067567
3288	0.028514
3284	-0.042986
3280	-0.075960
3276	-0.090336
3272	-0.059866
3268	0.024318
3264	0.041890
3260	-0.004696
3256	0.004410
3252	0.050115
3248	0.052809
3244	0.074076
3240	0.105619
3236	0.085711
3232	0.085067
3228	0.085997
3224	0.042152
3220	0.046682
3216	0.094699
3212	0.084805
3208	0.025272
3204	-0.033473
3200	-0.035166
3196	0.043177
3192	0.100350
3188	0.036764
3184	-0.081467
3180	-0.109291
3176	-0.049233
3172	0.000381
3168	0.047874
3164	0.127077
3160	0.161695
3156	0.156617
3152	0.196504
3148	0.215625
3144	0.218749
3140	0.285220
3136	0.276613
3132	0.132846
3128	-0.014209
3124	0.001168
3120	0.172996
3116	0.190305
3112	0.105953
3108	0.109362
3104	0.053095
3100	-0.038814
3096	-0.006079
3092	0.096273
3088	0.093603
3084	0.013160
3080	-0.055003
3076	-0.034618
3072	0.041246
3068	0.018191
3064	0.025343
3060	0.091981
3056	0.044035
3052	-0.061440
3048	-0.075244
3044	-0.013089
3040	0.023603
3036	0.024414
3032	0.027251
3028	-0.013160
3024	-0.058627
3020	-0.018978
3016	0.062227
3012	0.088763
3008	0.086140
3004	0.135183
3000	0.149941
2996	0.074172
2992	0.044870
2988	0.068402
2984	0.091981
2980	0.115561
2976	0.089335
2972	0.061893
2968	0.109052
2964	0.180745
2960	0.162410
2956	0.130891
2952	0.167441
2948	0.133728
2944	0.057029
2940	0.030946
2936	-0.002169
2932	0.037193
2928	0.165510
2924	0.191473
2920	0.125885
2916	0.092172
2912	0.120329
2908	0.178456
2904	0.169897
2900	0.119376
2896	0.075268
2892	0.018095
2888	0.018358
2884	0.061225
2880	0.076389
2876	0.086069
2872	0.111389
2868	0.109362
2864	0.095009
2860	0.148367
2856	0.166630
2852	0.064754
2848	0.015211
2844	0.085806
2840	0.115489
2836	0.100231
2832	0.142526
2828	0.133681
2824	0.051283
2820	0.054144
2816	0.090241
2812	0.049710
2808	-0.005912
2804	-0.012111
2800	0.002002
2796	-0.017452
2792	-0.028252
2788	-0.022053
2784	-0.075793
2780	-0.100541
2776	-0.005698
2772	0.073337
2768	0.052833
2764	0.066256
2760	0.096821
2756	0.010299
2752	-0.079345
2748	-0.095725
2744	-0.097298
2740	-0.046253
2736	0.069212
2732	0.104451
2728	0.031113
2724	-0.013184
2720	-0.033473
2716	-0.061249
2712	-0.041103
2708	0.009131
2704	0.053668
2700	0.077581
2696	0.063514
2692	0.023198
2688	0.022435
2684	0.045061
2680	0.068664
2676	0.062084
2672	0.008678
2668	-0.007820
2664	0.014424
2660	0.039720
2656	0.069022
2652	0.038743
2648	-0.029110
2644	-0.077271
2640	-0.127840
2636	-0.133442
2632	-0.051403
2628	0.062060
2624	0.109767
2620	0.068521
2616	0.038027
2612	0.028204
2608	0.026416
2604	0.067615
2600	0.078701
2596	0.055122
2592	0.070762
2588	0.068235
2584	0.017333
2580	-0.018048
2576	0.011897
2572	0.033187
2568	0.006484
2564	0.052523
2560	0.082898
2556	0.030469
2552	0.067090
2548	0.119662
2544	0.049471
2540	-0.022721
2536	-0.008654
2532	-0.008630
2528	-0.053286
2524	-0.036811
2520	-0.010132
2516	0.021934
2512	0.140237
2508	0.195574
2504	0.143742
2500	0.131893
2496	0.142431
2492	0.129961
2488	0.159072
2484	0.203704
2480	0.143599
2476	0.030899
2472	0.005125
2468	0.062966
2464	0.087976
2460	0.018072
2456	-0.021028
2452	0.012087
2448	0.020408
2444	0.028204
2440	0.085949
2436	0.138640
2432	0.155234
2428	0.127267
2424	-0.022935
2420	-0.178146
2416	-0.117921
2412	0.026941
2408	0.071501
2404	0.074768
2400	0.083780
2396	0.083494
2392	0.043249
2388	-0.030326
2384	-0.073337
2380	-0.055885
2376	-0.017070
2372	-0.007009
2368	0.010871
2364	0.049662
2360	0.071382
2356	0.092554
2352	0.075054
2348	0.029373
2344	0.029659
2340	0.052833
2336	0.067162
2332	0.043153
2328	0.014853
2324	0.042629
2320	0.063729
2316	0.024747
2312	-0.010681
2308	-0.027799
2304	-0.072169
2300	-0.092935
2296	-0.038933
2292	0.047612
2288	0.084209
2284	0.029969
2280	-0.062322
2276	-0.088214
2272	-0.006842
2268	0.092387
2264	0.089240
2260	0.026011
2256	0.031590
2252	0.075340
2248	0.083184
2244	0.089550
2240	0.122189
2236	0.162220
2232	0.200223
2228	0.239944
2224	0.261282
2220	0.258040
2216	0.278139
2212	0.354433
2208	0.469708
2204	0.578427
2200	0.673699
2196	0.765752
2192	0.857281
2188	0.946116
2184	1.027607
2180	1.120638
2176	1.233077
2172	1.389193
2168	1.542639
2164	1.655197
2160	1.807546
2156	1.970219
2152	2.097964
2148	2.218246
2144	2.355384
2140	2.596163
2136	2.868676
2132	3.105187
2128	3.419971
2124	3.729915
2120	3.942418
2116	4.175186
2112	4.450750
2108	4.681468
2104	4.907298
2100	5.239105
2096	5.597209
2092	5.867338
2088	6.095600
2084	6.331706
2080	6.583714
2076	6.905269
2072	7.352519
2068	7.767438
2064	8.040380
2060	8.325362
2056	8.769178
2052	9.239530
2048	9.543013
2044	9.826803
2040	10.166
2036	10.4834
2032	10.8131
2028	11.1523
2024	11.485
2020	11.8047
2016	12.0864
2012	12.3374
2008	12.5963
2004	12.8763
2000	13.1753
1996	13.4757
1992	13.7627
1988	14.0945
1984	14.445
1980	14.7402
1976	14.9797
1972	15.2231
1968	15.4986
1964	15.722
1960	15.9224
1956	16.1381
1952	16.3369
1948	16.5805
1944	16.8411
1940	17.0487
1936	17.2096
1932	17.3316
1928	17.442
1924	17.6198
1920	17.8645
1916	18.0845
1912	18.2659
1908	18.4543
1904	18.6417
1900	18.7713
1896	18.9031
1892	19.0686
1888	19.1941
1884	19.2917
1880	19.4045
1876	19.5426
1872	19.7047
1868	19.8314
1864	19.9029
1860	20.031
1856	20.2019
1852	20.3008
1848	20.3464
1844	20.3847
1840	20.4406
1836	20.5168
1832	20.5863
1828	20.6749
1824	20.7889
1820	20.8935
1816	20.9742
1812	21.0277
1808	21.1036
1804	21.1988
1800	21.2441
1796	21.26
1792	21.32
1788	21.4186
1784	21.4925
1780	21.5254
1776	21.5415
1772	21.5528
1768	21.5706
1764	21.6114
1760	21.6424
1756	21.6658
1752	21.7014
1748	21.7117
1744	21.766
1740	21.865
1736	21.8689
1732	21.8926
1728	21.9849
1724	21.9345
1720	21.9039
1716	22.0542
1712	22.106
1708	22.0818
1704	22.1693
1700	22.2561
1696	22.2631
1692	22.2478
1688	22.2358
1684	22.194
1680	22.1476
1676	22.1427
1672	22.1118
1668	22.082
1664	22.124
1660	22.1676
1656	22.1888
1652	22.2043
1648	22.2212
1644	22.2559
1640	22.273
1636	22.2117
1632	22.1135
1628	22.0781
1624	22.0916
1620	22.1296
1616	22.2008
1612	22.244
1608	22.2245
1604	22.1794
1600	22.1586
1596	22.194
1592	22.2245
1588	22.1896
1584	22.1327
1580	22.1109
1576	22.093
1572	22.0638
1568	22.0795
1564	22.1151
1560	22.0648
1556	21.9668
1552	21.9735
1548	22.0408
1544	22.0707
1540	22.1305
1536	22.1867
1532	22.184
1528	22.1745
1524	22.1177
1520	22.0297
1516	22.0211
1512	22.07
1508	22.105
1504	22.1115
1500	22.1043
1496	22.0737
1492	21.967
1488	21.8806
1484	21.9174
1480	21.977
1476	21.9895
1472	21.9831
1468	21.9642
1464	21.9466
1460	21.9562
1456	21.9163
1452	21.8215
1448	21.8049
1444	21.8665
1440	21.88
1436	21.8139
1432	21.7758
1428	21.7996
1424	21.824
1420	21.7887
1416	21.714
1412	21.695
1408	21.6954
1404	21.6427
1400	21.6414
1396	21.7118
1392	21.7446
1388	21.7525
1384	21.7116
1380	21.6006
1376	21.5679
1372	21.6392
1368	21.6676
1364	21.624
1360	21.5484
1356	21.4753
1352	21.417
1348	21.3695
1344	21.4065
1340	21.5386
1336	21.6043
1332	21.5558
1328	21.569
1324	21.6387
1320	21.6352
1316	21.5739
1312	21.5107
1308	21.4631
1304	21.3842
1300	21.3295
1296	21.3567
1292	21.3445
1288	21.3075
1284	21.3371
1280	21.3094
1276	21.1929
1272	21.1444
1268	21.1739
1264	21.2281
1260	21.2926
1256	21.3083
1252	21.2664
1248	21.2315
1244	21.2364
1240	21.2215
1236	21.1705
1232	21.1703
1228	21.2059
1224	21.1808
1220	21.1312
1216	21.0932
1212	21.048
1208	21.0138
1204	20.9627
1200	20.9157
1196	20.9041
1192	20.9285
1188	20.9603
1184	20.9319
1180	20.881
1176	20.8826
1172	20.8935
1168	20.8165
1164	20.7255
1160	20.7506
1156	20.7615
1152	20.6665
1148	20.6285
1144	20.6498
1140	20.5877
1136	20.4598
1132	20.3918
1128	20.435
1124	20.4904
1120	20.5102
1116	20.4978
1112	20.5084
1108	20.6082
1104	20.5361
1100	20.3542
1096	20.3883
1092	20.3296
1088	20.1301
1084	20.1798
1080	20.3419
1076	20.3839
1072	20.2922
1068	20.1031
1064	20.0142
1060	20.0383
1056	19.9967
1052	19.9564
1048	19.9935
1044	20.0125
1040	19.9253
1036	19.757
1032	19.6283
1028	19.6131
1024	19.6278
1020	19.5894
1016	19.5881
1012	19.542
1008	19.4228
1004	19.4004
1000	19.3717
996	 19.3045
992	 19.2511
988	 19.181
984	 19.2643
980	 19.3712
976	 19.2469
972	 19.1174
968	 19.093
964	 19.0346
960	 18.9613
956	 18.8627
952	 18.7649
948	 18.7773
944	 18.7678
940	 18.6749
936	 18.6053
932	 18.5427
928	 18.4842
924	 18.4633
920	 18.4871
916	 18.4425
912	 18.2817
908	 18.2142
904	 18.2458
900	 18.1676
896	 18.0385
892	 17.9784
888	 17.8947
884	 17.7918
880	 17.7598
876	 17.7592
872	 17.7262
868	 17.6605
864	 17.5532
860	 17.4473
856	 17.3964
852	 17.3448
848	 17.3022
844	 17.2438
840	 17.101
836	 17.0133
832	 17.1436
828	 17.2981
824	 17.2291
820	 17.1049
816	 17.0396
812	 17.0029
808	 16.9569
804	 16.8144
800	 16.6463
796	 16.5364
792	 16.5078
788	 16.4565
784	 16.3038
780	 16.1963
776	 16.0856
772	 15.8981
768	 15.8096
764	 15.8605
760	 15.8886
756	 15.8146
752	 15.6311
748	 15.3308
744	 15.2448
740	 15.4017
736	 15.328
732	 15.1785
728	 15.2292
724	 15.313
720	 15.241
716	 14.9669
712	 14.8026
708	 14.8315
704	 14.8178
700	 14.7059
696	 14.5271
692	 14.3458
688	 14.2484
684	 14.2296
680	 14.155
676	 14.0389
672	 14.0297
668	 13.9544
664	 13.6174
660	 13.4101
656	 13.5899
652	 13.7241
648	 13.5937
644	 13.4169
640	 13.306
636	 13.225
632	 13.2292
628	 13.3243
624	 13.2723
620	 13.1543
616	 13.1408
612	 12.9288
608	 12.4266
604	 12.0239
600	 12.0134
596	 12.1752
592	 12.3208
588	 12.4938
584	 12.3903
580	 12.0436
576	 11.9447
572	 12.101
568	 12.1255
564	 11.9058
560	 11.6315
556	 11.2842
552	 10.7892
548	 10.6026
544	 11.1704
540	 11.8056
536	 11.7058
532	 11.3426
528	 11.3165
524	 11.3782
520	 11.1125
516	 10.8137
512	 10.8356
508	 10.7673
504	 10.4978
500	 10.2239
496	 10.0603
492	 10.0276
488	 9.955167
484	 9.942770
480	 10.0072
476	 9.859395
472	 9.334301
468	 8.765316
464	 8.873510
460	 9.982585
456	 10.9834
452	 10.8196
448	 9.849500
444	 9.003186
440	 8.491420
436	 7.956910
432	 8.361577
428	 9.364080
424	 8.485102
420	 6.867122
416	 7.548713
412	 8.643412
408	 8.903908
404	 11.1258
400	 9.833884
396	 -1.144027
392	 -10.341
388	 -5.995655
384	 6.864643
380	 8.296942
376	 -1.504659
372	 2.326893
370	 7.444787