File: Bakgrunnsmateriale/MATLAB/FTIR/ftir_data/LPE453/Mapping_121/LPE453_t101.asc
PE IR       SPECTRUM    SPECTRUM    ASCII       PEDS        1.60
  -1
LP9776~1.ASC
17/05/16
22:39:33.00
17/05/16
22:39:59.00
tln
$LPE453_t0101$<tbV0>[10.4,10.4,8.0,0.0,27,1,0]
27.028
64

2002,4.07
MIRTGS : RIGHTBACK : INTERNAL 2
MIR : ON : INTERNAL 2
OPTKBR

0.200000
8
8.000000
FILLER
RATIO
SPECTRUM
UNLOCKED 256

DOUBLE
64
COMBINED
1
0
0

0.002000
RATIO

1
0
TRUE
51149
0
LEFT NOT FITTED RIGHT NOT FITTED 0
NONE
NONE
15600
12
4.427000
51148
TRUE
1 0 8 72 0 0 0 0

15798

#HDR
-1
-1
#GR
µM
%T
2.38419e-05
0.0
2.000000
0.002000
12515
8
30.1195
-1.159362
#DATA
2.000000	 0.232505
2.018000	 -0.087818
2.036000	 0.167069
2.054000	 0.560331
2.072000	 0.232994
2.090000	 0.334844
2.108000	 0.087353
2.126000	 -0.099357
2.144000	 0.808805
2.162000	 1.146284
2.180000	 0.005003
2.198000	 -0.754684
2.216000	 -0.762543
2.234000	 2.344003
2.252000	 0.118439
2.270000	 -0.226479
2.288000	 0.279864
2.306000	 0.027677
2.324000	 0.138615
2.342000	 0.469857
2.360000	 0.210147
2.378000	 0.078282
2.396000	 -0.055176
2.414000	 0.237606
2.432000	 -0.010850
2.450000	 -0.068546
2.468000	 0.020909
2.486000	 0.264355
2.504000	 0.355046
2.522000	 -0.048241
2.540000	 0.093804
2.558000	 0.113212
2.576000	 -0.071107
2.594000	 0.053973
2.612000	 0.082179
2.630000	 0.031220
2.648000	 -0.037513
2.666000	 0.013061
2.684000	 -0.026992
2.702000	 0.069006
2.720000	 0.064642
2.738000	 0.124640
2.756000	 0.135873
2.774000	 0.250666
2.792000	 -0.069863
2.810000	 0.136465
2.828000	 0.048012
2.846000	 0.172371
2.864000	 0.063295
2.882000	 0.206251
2.900000	 0.024011
2.918000	 0.063839
2.936000	 0.131633
2.954000	 0.160194
2.972000	 0.100883
2.990000	 -0.027191
3.008000	 0.037318
3.026000	 0.081615
3.044000	 0.017716
3.062000	 0.001091
3.080000	 -0.002688
3.098000	 -0.051525
3.116000	 -0.122693
3.134000	 0.098156
3.152000	 0.082643
3.170000	 0.124036
3.188000	 0.078995
3.206000	 -0.004930
3.224000	 0.048290
3.242000	 0.170844
3.260000	 0.013202
3.278000	 0.118479
3.296000	 0.082602
3.314000	 0.100151
3.332000	 0.099044
3.350000	 0.020288
3.368000	 0.056842
3.386000	 0.190732
3.404000	 0.021376
3.422000	 -0.067238
3.440000	 0.014742
3.458000	 -0.033173
3.476000	 0.010290
3.494000	 0.067650
3.512000	 0.071271
3.530000	 0.020632
3.548000	 0.080991
3.566000	 0.048444
3.584000	 0.063275
3.602000	 0.099397
3.620000	 0.038897
3.638000	 0.050029
3.656000	 0.008886
3.674000	 0.162236
3.692000	 0.009593
3.710000	 0.041605
3.728000	 0.010163
3.746000	 0.012856
3.764000	 0.072924
3.782000	 0.052578
3.800000	 -0.120080
3.818000	 0.032339
3.836000	 0.070038
3.854000	 0.066757
3.872000	 0.053855
3.890000	 -0.058470
3.908000	 -0.036470
3.926000	 0.000275
3.944000	 0.094836
3.962000	 0.101188
3.980000	 0.116421
3.998000	 0.024779
4.016000	 -0.093706
4.034000	 0.011625
4.052000	 0.062558
4.070000	 0.098746
4.088000	 0.070000
4.106000	 0.022609
4.124000	 -0.067080
4.141999	 -0.111150
4.160000	 -0.014157
4.178000	 -0.043077
4.196000	 0.046636
4.214000	 0.066981
4.232000	 0.061622
4.250000	 -0.053146
4.268000	 -0.001943
4.286000	 0.196522
4.304000	 0.213793
4.322000	 0.031562
4.340000	 0.257735
4.358000	 0.224181
4.375999	 0.285635
4.394000	 0.375249
4.412000	 0.486863
4.430000	 0.699931
4.448000	 0.878970
4.466000	 1.093357
4.484000	 1.379489
4.502000	 1.741885
4.520000	 2.097324
4.538000	 2.461961
4.556000	 2.809492
4.574000	 3.233333
4.592000	 3.940939
4.609999	 4.540751
4.628000	 5.219658
4.646000	 5.946067
4.664000	 6.582336
4.682000	 7.243077
4.700000	 8.078445
4.718000	 8.839582
4.736000	 9.600323
4.754000	 10.4551
4.772000	 11.2961
4.790000	 12.1451
4.808000	 13.0783
4.826000	 13.7449
4.843999	 14.5387
4.862000	 15.2738
4.880000	 16.0207
4.898000	 16.7629
4.916000	 17.4073
4.934000	 17.9443
4.952000	 18.6313
4.970000	 19.3073
4.988000	 19.8812
5.006000	 20.4304
5.024000	 20.9424
5.042000	 21.4783
5.060000	 21.9783
5.077999	 22.4352
5.096000	 22.8727
5.114000	 23.2782
5.132000	 23.6262
5.150000	 23.9663
5.168000	 24.3031
5.186000	 24.6735
5.204000	 24.9815
5.222000	 25.2484
5.240000	 25.5418
5.258000	 25.7933
5.276000	 26.0525
5.294000	 26.2972
5.312000	 26.5575
5.330000	 26.7197
5.348000	 26.9658
5.366000	 27.2191
5.384000	 27.3686
5.402000	 27.4803
5.420000	 27.6436
5.438000	 27.8115
5.456000	 27.9075
5.474000	 28.0145
5.492000	 28.1718
5.510000	 28.325
5.528000	 28.4012
5.546000	 28.4857
5.564000	 28.5872
5.582000	 28.7286
5.600000	 28.8265
5.618000	 28.875
5.636000	 28.8748
5.654000	 28.9618
5.672000	 29.1163
5.690000	 29.1504
5.708000	 29.126
5.726000	 29.1495
5.744000	 29.2002
5.762000	 29.3005
5.780000	 29.3549
5.798000	 29.4361
5.816000	 29.5485
5.834000	 29.5419
5.852000	 29.474
5.870000	 29.4781
5.888000	 29.5685
5.906000	 29.6323
5.923999	 29.6833
5.942000	 29.7547
5.960000	 29.8218
5.978000	 29.8206
5.996000	 29.8117
6.014000	 29.8085
6.032000	 29.7938
6.050000	 29.818
6.068000	 29.8501
6.086000	 29.8625
6.104000	 29.8589
6.122000	 29.8994
6.140000	 29.9033
6.158000	 29.8492
6.176000	 29.8508
6.194000	 29.8909
6.212000	 29.9135
6.230000	 29.8969
6.248000	 29.9159
6.266000	 29.901
6.284000	 29.9183
6.302000	 29.9755
6.320000	 29.9334
6.338000	 29.9097
6.356000	 29.9789
6.374000	 30.0592
6.392000	 30.1155
6.410000	 30.0937
6.428000	 30.0044
6.446000	 29.9468
6.464000	 29.9563
6.482000	 29.9697
6.500000	 29.9437
6.518000	 29.9455
6.536000	 29.9636
6.554000	 29.9296
6.572000	 29.8786
6.590000	 29.9363
6.608000	 30.0593
6.626000	 30.055
6.644000	 29.9585
6.662000	 29.923
6.680000	 29.9334
6.698000	 29.9237
6.716000	 29.9829
6.734000	 30.0725
6.752000	 30.0647
6.770000	 30.0062
6.788000	 29.9764
6.806000	 29.9737
6.824000	 29.9363
6.842000	 29.8784
6.860000	 29.8935
6.878000	 29.9707
6.896000	 30.0037
6.914000	 29.9306
6.932000	 29.841
6.950000	 29.837
6.968000	 29.89
6.986000	 29.9504
7.004000	 29.9698
7.022000	 29.9193
7.040000	 29.8758
7.058000	 29.877
7.076000	 29.863
7.094000	 29.8402
7.112000	 29.86
7.130000	 29.923
7.148000	 30.017
7.166000	 30.099
7.184000	 30.1077
7.202000	 30.0573
7.220000	 29.9954
7.238000	 29.9361
7.256000	 29.902
7.274000	 29.9066
7.292000	 29.9046
7.310000	 29.8538
7.328000	 29.7943
7.346000	 29.7926
7.364000	 29.8438
7.382000	 29.8982
7.400000	 29.9335
7.418000	 29.9498
7.436000	 29.949
7.454000	 29.9431
7.472000	 29.9332
7.490000	 29.9121
7.508000	 29.9012
7.526000	 29.9113
7.544000	 29.905
7.562000	 29.8751
7.580000	 29.8613
7.598000	 29.8576
7.616000	 29.8211
7.634000	 29.7606
7.652000	 29.731
7.670000	 29.7605
7.688000	 29.8191
7.706000	 29.8528
7.724000	 29.8489
7.742000	 29.8342
7.760000	 29.818
7.778000	 29.7927
7.796000	 29.778
7.814000	 29.7956
7.832000	 29.8211
7.850000	 29.8177
7.868000	 29.7915
7.886000	 29.7717
7.904000	 29.7596
7.922000	 29.7323
7.940000	 29.6853
7.958000	 29.6426
7.976000	 29.6306
7.994000	 29.6538
8.012000	 29.6953
8.030000	 29.7322
8.048000	 29.7507
8.065999	 29.7437
8.084000	 29.71
8.102000	 29.6608
8.120000	 29.6241
8.138000	 29.6305
8.155999	 29.6896
8.173999	 29.7756
8.192000	 29.838
8.210000	 29.8403
8.228000	 29.7943
8.246000	 29.7451
8.263999	 29.7188
8.282000	 29.7001
8.300000	 29.6677
8.318000	 29.6314
8.336000	 29.6178
8.353999	 29.6331
8.372000	 29.6608
8.390000	 29.6872
8.408000	 29.7096
8.426000	 29.7223
8.443999	 29.7155
8.462000	 29.6875
8.480000	 29.6488
8.498000	 29.6095
8.516000	 29.5721
8.533999	 29.5389
8.552000	 29.5145
8.570000	 29.4994
8.588000	 29.4912
8.606000	 29.4944
8.624000	 29.5126
8.641999	 29.533
8.660000	 29.5312
8.678000	 29.5006
8.696000	 29.4647
8.714000	 29.4509
8.731999	 29.4619
8.750000	 29.4752
8.768000	 29.4689
8.786000	 29.4371
8.804000	 29.3904
8.821999	 29.3483
8.840000	 29.3309
8.858000	 29.3508
8.876000	 29.4039
8.894000	 29.4676
8.911999	 29.5112
8.930000	 29.518
8.948000	 29.4985
8.966000	 29.4803
8.984000	 29.4815
9.001999	 29.4958
9.020000	 29.5059
9.038000	 29.5022
9.056000	 29.484
9.074000	 29.449
9.092000	 29.3948
9.109999	 29.3331
9.128000	 29.2902
9.146000	 29.2837
9.164000	 29.3022
9.182000	 29.3195
9.199999	 29.3235
9.218000	 29.3223
9.236000	 29.3249
9.254000	 29.3226
9.272000	 29.2996
9.289999	 29.2558
9.308000	 29.2111
9.326000	 29.1865
9.344000	 29.1855
9.362000	 29.1952
9.379999	 29.2028
9.398000	 29.2068
9.416000	 29.2136
9.434000	 29.2241
9.452000	 29.2272
9.469999	 29.2087
9.488000	 29.1672
9.506000	 29.1212
9.524000	 29.0973
9.542000	 29.1072
9.560000	 29.1357
9.577999	 29.1522
9.596000	 29.1361
9.614000	 29.0879
9.632000	 29.0229
9.650000	 28.9565
9.667999	 28.8961
9.686000	 28.8434
9.704000	 28.7995
9.722000	 28.7708
9.740000	 28.7658
9.757999	 28.7867
9.776000	 28.8239
9.794000	 28.8625
9.812000	 28.8945
9.830000	 28.9246
9.847999	 28.9638
9.866000	 29.0151
9.884000	 29.0658
9.902000	 29.0942
9.920000	 29.0844
9.937999	 29.0365
9.956000	 28.9649
9.974000	 28.8892
9.992000	 28.8255
10.01	28.7826
10.028	28.7616
10.046	28.7567
10.064	28.7575
10.082	28.7541
10.1	28.7425
10.118	28.7268
10.136	28.7151
10.154	28.7112
10.172	28.71
10.19	28.6992
10.208	28.6676
10.226	28.6135
10.244	28.5449
10.262	28.4761
10.28	28.4199
10.298	28.3835
10.316	28.3681
10.334	28.3726
10.352	28.3945
10.37	28.4307
10.388	28.4771
10.406	28.5276
10.424	28.5749
10.442	28.6113
10.46	28.6286
10.478	28.6204
10.496	28.5861
10.514	28.5342
10.532	28.4818
10.55	28.4472
10.568	28.441
10.586	28.4588
10.604	28.4831
10.622	28.4924
10.64	28.4725
10.658	28.4228
10.676	28.3554
10.694	28.2857
10.712	28.2261
10.73	28.1821
10.748	28.1539
10.766	28.1386
10.784	28.1331
10.802	28.134
10.82	28.1387
10.838	28.1442
10.856	28.148
10.874	28.1493
10.892	28.1486
10.91	28.1472
10.928	28.1465
10.946	28.1467
10.964	28.1468
10.982	28.1443
11	28.1362
11.018	28.1195
11.036	28.0936
11.054	28.06
11.072	28.0224
11.09	27.9842
11.108	27.9473
11.126	27.9124
11.144	27.8804
11.162	27.8532
11.18	27.8333
11.198	27.8214
11.216	27.8155
11.234	27.8099
11.252	27.7982
11.27	27.7769
11.288	27.7486
11.306	27.7201
11.324	27.6997
11.342	27.6912
11.36	27.6918
11.378	27.6933
11.396	27.6874
11.414	27.6698
11.432	27.6423
11.45	27.6116
11.468	27.5863
11.486	27.5729
11.504	27.5727
11.522	27.5825
11.54	27.5954
11.558	27.6034
11.576	27.6002
11.594	27.583
11.612	27.5531
11.63	27.5169
11.648	27.4827
11.666	27.4595
11.684	27.453
11.702	27.4636
11.72	27.4862
11.738	27.5126
11.756	27.5351
11.774	27.5491
11.792	27.5533
11.81	27.5492
11.828	27.5386
11.846	27.5228
11.864	27.5011
11.882	27.4719
11.9	27.4334
11.918	27.3851
11.936	27.3292
11.954	27.2705
11.972	27.2146
11.99	27.1658
12.008	27.1249
12.026	27.0886
12.044	27.0513
12.062	27.0073
12.08	26.9544
12.098	26.8951
12.116	26.8362
12.134	26.7862
12.152	26.7519
12.17	26.7358
12.188	26.7356
12.206	26.7449
12.224	26.7567
12.242	26.7666
12.26	26.7733
12.278	26.7785
12.296	26.7845
12.314	26.7917
12.332	26.7979
12.35	26.7999
12.368	26.7948
12.386	26.7825
12.404	26.7662
12.422	26.7517
12.44	26.7452
12.458	26.7511
12.476	26.7701
12.494	26.7995
12.512	26.8337
12.53	26.8668
12.548	26.8943
12.566	26.9144
12.584	26.9272
12.602	26.9344
12.62	26.9371
12.638	26.9352
12.656	26.9267
12.674	26.9092
12.692	26.8801
12.71	26.8383
12.728	26.7848
12.746	26.7221
12.764	26.6544
12.782	26.5864
12.8	26.522
12.818	26.4641
12.836	26.4135
12.854	26.3701
12.872	26.3329
12.89	26.3008
12.908	26.2733
12.926	26.2505
12.944	26.2329
12.962	26.221
12.98	26.2146
12.998	26.2121
13.016	26.2107
13.034	26.2065
13.052	26.1955
13.07	26.1743
13.088	26.1411
13.106	26.0965
13.124	26.0436
13.142	25.987
13.16	25.9324
13.178	25.8847
13.196	25.8474
13.214	25.8215
13.232	25.8057
13.25	25.7967
13.268	25.7905
13.286	25.784
13.304	25.7754
13.322	25.7654
13.34	25.7562
13.358	25.7511
13.376	25.7529
13.394	25.7629
13.412	25.7804
13.43	25.8027
13.448	25.8258
13.466	25.8456
13.484	25.8589
13.502	25.8648
13.52	25.8643
13.538	25.8602
13.556	25.8562
13.574	25.8554
13.592	25.8595
13.61	25.8686
13.628	25.8802
13.646	25.8913
13.664	25.8978
13.682	25.8967
13.7	25.8858
13.718	25.8644
13.736	25.833
13.754	25.7929
13.772	25.7461
13.79	25.6946
13.808	25.6399
13.826	25.5838
13.844	25.5276
13.862	25.4733
13.88	25.4228
13.898	25.3779
13.916	25.3404
13.934	25.3115
13.952	25.2917
13.97	25.2807
13.988	25.2769
14.006	25.2781
14.024	25.2814
14.042	25.2843
14.06	25.2843
14.078	25.2795
14.096	25.2689
14.114	25.2517
14.132	25.2278
14.15	25.1978
14.168	25.1626
14.186	25.1238
14.204	25.0836
14.222	25.0446
14.24	25.0099
14.258	24.9821
14.276	24.9636
14.294	24.9552
14.312	24.9567
14.33	24.966
14.348	24.9795
14.366	24.9924
14.384	24.9991
14.402	24.9947
14.42	24.9758
14.438	24.9406
14.456	24.8899
14.474	24.8269
14.492	24.7567
14.51	24.6861
14.528	24.622
14.546	24.5703
14.564	24.5354
14.582	24.5197
14.6	24.5232
14.618	24.544
14.636	24.5784
14.654	24.6219
14.672	24.6702
14.69	24.7192
14.708	24.7656
14.726	24.8067
14.744	24.8409
14.762	24.8672
14.78	24.8853
14.798	24.8952
14.816	24.8974
14.834	24.8926
14.852	24.8822
14.87	24.8676
14.888	24.8503
14.906	24.8316
14.924	24.8126
14.942	24.7944
14.96	24.7765
14.978	24.7585
14.996	24.7391
15.014	24.7166
15.032	24.6888
15.05	24.654
15.068	24.6108
15.086	24.559
15.104	24.4987
15.122	24.4318
15.14	24.3608
15.158	24.2887
15.176	24.2185
15.194	24.1535
15.212	24.0969
15.23	24.0502
15.248	24.0142
15.266	23.9888
15.284	23.9728
15.302	23.9641
15.32	23.9606
15.338	23.96
15.356	23.96
15.374	23.9586
15.392	23.9547
15.41	23.9477
15.428	23.9374
15.446	23.9246
15.464	23.9099
15.482	23.8937
15.5	23.8767
15.518	23.8592
15.536	23.8412
15.554	23.8222
15.572	23.8017
15.59	23.7791
15.608	23.7541
15.626	23.7264
15.644	23.6965
15.662	23.6654
15.68	23.6344
15.698	23.6052
15.716	23.5802
15.734	23.5617
15.752	23.5514
15.77	23.5507
15.788	23.5608
15.806	23.5812
15.824	23.6112
15.842	23.6492
15.86	23.6925
15.878	23.7383
15.896	23.7838
15.914	23.8249
15.932	23.8588
15.95	23.8836
15.968	23.8972
15.986	23.8984
16.004	23.8871
16.022	23.8632
16.04	23.828
16.058	23.783
16.076	23.7297
16.094	23.6705
16.112	23.6076
16.13	23.5425
16.148	23.4775
16.166	23.4142
16.184	23.3536
16.202	23.2967
16.22	23.2444
16.238	23.1967
16.256	23.1538
16.274	23.1154
16.292	23.081
16.31	23.0503
16.328	23.0225
16.346	22.997
16.364	22.9734
16.382	22.951
16.4	22.9297
16.418	22.9092
16.436	22.8896
16.454	22.8712
16.472	22.8541
16.49	22.8392
16.508	22.8272
16.526	22.8189
16.544	22.8154
16.562	22.8175
16.58	22.8258
16.598	22.8412
16.616	22.8638
16.634	22.8936
16.652	22.9302
16.67	22.9728
16.688	23.0202
16.706	23.0705
16.724	23.1219
16.742	23.1724
16.76	23.219
16.778	23.2601
16.796	23.2929
16.814	23.3155
16.832	23.327
16.85	23.3258
16.868	23.312
16.886	23.2855
16.904	23.2477
16.922	23.1998
16.94	23.1435
16.958	23.0819
16.976	23.0164
16.994	22.9506
17.012	22.8866
17.03	22.8262
17.048	22.772
17.066	22.7246
17.084	22.6851
17.102	22.6538
17.12	22.6304
17.138	22.6142
17.156	22.604
17.174	22.5989
17.192	22.5969
17.21	22.5973
17.228	22.5982
17.246	22.5991
17.264	22.5992
17.282	22.5984
17.3	22.5966
17.318	22.5943
17.336	22.5922
17.354	22.5906
17.372	22.5908
17.39	22.5931
17.408	22.5983
17.426	22.6065
17.444	22.6179
17.462	22.6317
17.48	22.6478
17.498	22.6652
17.516	22.6829
17.534	22.7
17.552	22.7151
17.57	22.7278
17.588	22.7365
17.606	22.741
17.624	22.741
17.642	22.7363
17.66	22.7269
17.678	22.7132
17.696	22.6954
17.714	22.6738
17.732	22.6487
17.75	22.6205
17.768	22.5893
17.786	22.5551
17.804	22.518
17.822	22.4781
17.84	22.4353
17.858	22.3898
17.876	22.3418
17.894	22.292
17.912	22.2407
17.93	22.1893
17.948	22.1383
17.966	22.0895
17.984	22.0434
18.002	22.0015
18.02	21.9645
18.038	21.9332
18.056	21.908
18.074	21.8891
18.092	21.876
18.11	21.8686
18.128	21.8654
18.146	21.8658
18.164	21.8682
18.182	21.8716
18.2	21.8748
18.218	21.8765
18.236	21.8759
18.254	21.8721
18.272	21.8647
18.29	21.8534
18.308	21.8381
18.326	21.8192
18.344	21.7966
18.362	21.771
18.38	21.7426
18.398	21.7118
18.416	21.6789
18.434	21.644
18.452	21.6074
18.47	21.5691
18.488	21.5292
18.506	21.4878
18.524	21.4451
18.542	21.4009
18.56	21.356
18.578	21.3104
18.596	21.265
18.614	21.2199
18.632	21.1765
18.65	21.1347
18.668	21.0959
18.686	21.0602
18.704	21.0285
18.722	21.0007
18.74	20.9773
18.758	20.9582
18.776	20.9432
18.794	20.9318
18.812	20.9236
18.83	20.918
18.848	20.914
18.866	20.9112
18.884	20.9088
18.902	20.9065
18.92	20.9036
18.938	20.9002
18.956	20.8963
18.974	20.8921
18.992	20.888
19.01	20.8847
19.028	20.883
19.046	20.8836
19.064	20.8877
19.082	20.8957
19.1	20.9088
19.118	20.9269
19.136	20.9506
19.154	20.9797
19.172	21.0138
19.19	21.0525
19.208	21.0946
19.226	21.1394
19.244	21.1848
19.262	21.2305
19.28	21.2736
19.298	21.3142
19.316	21.3496
19.334	21.3801
19.352	21.4039
19.37	21.421
19.388	21.4311
19.406	21.4341
19.424	21.431
19.442	21.4215
19.46	21.4076
19.478	21.3893
19.496	21.3685
19.514	21.3456
19.532	21.3221
19.55	21.2989
19.568	21.2767
19.586	21.2562
19.604	21.2373
19.622	21.2204
19.64	21.2052
19.658	21.1909
19.676	21.1776
19.694	21.1638
19.712	21.1499
19.73	21.134
19.748	21.1163
19.766	21.0958
19.784	21.0722
19.802	21.0453
19.82	21.0146
19.838	20.9806
19.856	20.9434
19.874	20.9032
19.892	20.8608
19.91	20.8159
19.928	20.7697
19.946	20.7221
19.964	20.6737
19.982	20.6246
20	20.575
20.018	20.5249
20.036	20.4742
20.054	20.4229
20.072	20.3708
20.09	20.3177
20.108	20.2636
20.126	20.2083
20.144	20.1517
20.162	20.0941
20.18	20.0353
20.198	19.9757
20.216	19.9157
20.234	19.8553
20.252	19.7953
20.27	19.7356
20.288	19.677
20.306	19.6197
20.324	19.564
20.342	19.5105
20.36	19.4591
20.378	19.4102
20.396	19.3636
20.414	19.3198
20.432	19.2787
20.45	19.24
20.468	19.2036
20.486	19.1694
20.504	19.1373
20.522	19.1074
20.54	19.0797
20.558	19.0541
20.576	19.0311
20.594	19.0108
20.612	18.9935
20.63	18.9795
20.648	18.9689
20.666	18.9622
20.684	18.9597
20.702	18.9613
20.72	18.9677
20.738	18.9784
20.756	18.9936
20.774	19.0132
20.792	19.0364
20.81	19.0633
20.828	19.093
20.846	19.1243
20.864	19.1574
20.882	19.19
20.9	19.2227
20.918	19.2535
20.936	19.2815
20.954	19.3067
20.972	19.3271
20.99	19.3431
21.008	19.3538
21.026	19.3586
21.044	19.3578
21.062	19.351
21.08	19.3382
21.098	19.3203
21.116	19.2972
21.134	19.2696
21.152	19.2389
21.17	19.2046
21.188	19.169
21.206	19.1323
21.224	19.0952
21.242	19.0598
21.26	19.0255
21.278	18.9947
21.296	18.9675
21.314	18.9446
21.332	18.9274
21.35	18.9157
21.368	18.9101
21.386	18.9111
21.404	18.9183
21.422	18.9313
21.44	18.9505
21.458	18.9745
21.476	19.0035
21.494	19.0368
21.512	19.0724
21.53	19.111
21.548	19.1504
21.566	19.189
21.584	19.2273
21.602	19.2619
21.62	19.2932
21.638	19.3198
21.656	19.3393
21.674	19.3527
21.692	19.358
21.71	19.3546
21.728	19.3427
21.746	19.3216
21.764	19.2911
21.782	19.252
21.8	19.2046
21.818	19.1487
21.836	19.0865
21.854	19.0175
21.872	18.9432
21.89	18.866
21.908	18.7849
21.926	18.7028
21.944	18.6215
21.962	18.5402
21.98	18.4623
21.998	18.3878
22.016	18.3172
22.034	18.2527
22.052	18.1938
22.07	18.141
22.088	18.0951
22.106	18.0557
22.124	18.0227
22.142	17.9965
22.16	17.9765
22.178	17.9613
22.196	17.9516
22.214	17.9461
22.232	17.9429
22.25	17.9429
22.268	17.9443
22.286	17.9458
22.304	17.9481
22.322	17.9493
22.34	17.9493
22.358	17.9482
22.376	17.9449
22.394	17.9394
22.412	17.9319
22.43	17.9223
22.448	17.9102
22.466	17.8967
22.484	17.8823
22.502	17.8666
22.52	17.8515
22.538	17.8377
22.556	17.8248
22.574	17.8152
22.592	17.8091
22.61	17.8067
22.628	17.8102
22.646	17.8192
22.664	17.8342
22.682	17.8569
22.7	17.887
22.718	17.9244
22.736	17.9699
22.754	18.0234
22.772	18.0841
22.79	18.1518
22.808	18.227
22.826	18.3076
22.844	18.3926
22.862	18.4827
22.88	18.5748
22.898	18.6682
22.916	18.7634
22.934	18.8563
22.952	18.9462
22.97	19.0337
22.988	19.1146
23.006	19.1884
23.024	19.2556
23.042	19.3123
23.06	19.3583
23.078	19.3939
23.096	19.4165
23.114	19.4262
23.132	19.423
23.15	19.4061
23.168	19.3748
23.186	19.3301
23.204	19.2731
23.222	19.2033
23.24	19.1215
23.258	19.0301
23.276	18.9284
23.294	18.8173
23.312	18.6998
23.33	18.5751
23.348	18.4441
23.366	18.3098
23.384	18.1715
23.402	18.0299
23.42	17.8887
23.438	17.7479
23.456	17.6074
23.474	17.4694
23.492	17.3345
23.51	17.2022
23.528	17.0732
23.546	16.948
23.564	16.8263
23.582	16.7078
23.6	16.5926
23.618	16.4806
23.636	16.3713
23.654	16.2646
23.672	16.1608
23.69	16.0588
23.708	15.9581
23.726	15.8591
23.744	15.7612
23.762	15.6636
23.78	15.5667
23.798	15.4703
23.816	15.3741
23.834	15.2779
23.852	15.182
23.87	15.0867
23.888	14.9911
23.906	14.8963
23.924	14.8036
23.942	14.7127
23.96	14.6237
23.978	14.539
23.996	14.4595
24.014	14.3842
24.032	14.3149
24.05	14.2529
24.068	14.1971
24.086	14.1484
24.104	14.1073
24.122	14.0736
24.14	14.0473
24.158	14.0282
24.176	14.017
24.194	14.0128
24.212	14.0146
24.23	14.0227
24.248	14.0372
24.266	14.055
24.284	14.0747
24.302	14.0981
24.32	14.122
24.338	14.1433
24.356	14.1641
24.374	14.1825
24.392	14.1946
24.41	14.2011
24.428	14.2021
24.446	14.1958
24.464	14.1815
24.482	14.1602
24.5	14.1304
24.518	14.0907
24.536	14.0408
24.554	13.9825
24.572	13.918
24.59	13.8454
24.608	13.7661
24.626	13.6849
24.644	13.6027
24.662	13.5167
24.68	13.4345
24.698	13.3626
24.716	13.2952
24.734	13.2377
24.752	13.1992
24.77	13.1791
24.788	13.1754
24.806	13.1969
24.824	13.2498
24.842	13.329
24.86	13.4376
24.878	13.5799
24.896	13.7554
24.914	13.9631
24.932	14.2039
24.95	14.479
24.968	14.7882
24.986	15.1287
25.004	15.498
25.022	15.8991
25.04	16.3291
25.058	16.7813
25.076	17.2541
25.094	17.7515
25.112	18.2653
25.13	18.7871
25.148	19.3231
25.166	19.8692
25.184	20.4154
25.202	20.9575
25.22	21.5019
25.238	22.0403
25.256	22.5638
25.274	23.0781
25.292	23.5806
25.31	24.0611
25.328	24.5146
25.346	24.9484
25.364	25.3545
25.382	25.7233
25.4	26.0583
25.418	26.36
25.436	26.619
25.454	26.8285
25.472	26.9955
25.49	27.1152
25.508	27.1798
25.526	27.1875
25.544	27.1423
25.562	27.041
25.58	26.8805
25.598	26.6605
25.616	26.3835
25.634	26.0514
25.652	25.6644
25.67	25.2193
25.688	24.7234
25.706	24.185
25.724	23.6018
25.742	22.9718
25.76	22.3074
25.778	21.6198
25.796	20.8984
25.814	20.1497
25.832	19.3902
25.85	18.6296
25.868	17.8548
25.886	17.0773
25.904	16.3126
25.922	15.5642
25.94	14.8237
25.958	14.1
25.976	13.4026
25.994	12.7298
26.012	12.0794
26.03	11.4541
26.048	10.8565
26.066	10.2868
26.084	9.742766
26.102	9.222213
26.12	8.724193
26.138	8.251407
26.156	7.800035
26.174	7.365505
26.192	6.947856
26.21	6.550759
26.228	6.166346
26.246	5.786409
26.264	5.410125
26.282	5.041142
26.3	4.676391
26.318	4.312820
26.336	3.948984
26.354	3.587100
26.372	3.229867
26.39	2.879329
26.408	2.528092
26.426	2.182353
26.444	1.853916
26.462	1.551837
26.48	1.263068
26.498	0.996535
26.516	0.767934
26.534	0.587542
26.552	0.438771
26.57	0.334172
26.588	0.292066
26.606	0.323524
26.624	0.412437
26.642	0.569022
26.66	0.807316
26.678	1.135602
26.696	1.543296
26.714	2.034363
26.732	2.614486
26.75	3.288742
26.768	4.055311
26.786	4.907815
26.804	5.839842
26.822	6.852058
26.84	7.953538
26.858	9.127136
26.876	10.3542
26.894	11.6301
26.912	12.9747
26.93	14.3628
26.948	15.7663
26.966	17.2335
26.984	18.8801
27.002	20.4567
27.02	21.6902
27.028	22.0201