File: Bakgrunnsmateriale/MATLAB/FTIR/ftir_data/LPE453/Mapping_121/LPE453_t109_cm-1.asc
PE IR       SPECTRUM    SPECTRUM    ASCII       PEDS        1.60
  -1
LP0C78~1.ASC
17/05/16
23:16:25.00
17/05/16
23:16:25.00
tln
$LPE453_t0109$<tbV0>[-10.4,10.4,8.0,0.0,27,1,0]
370
64

2002,4.07
MIRTGS : RIGHTBACK : INTERNAL 2
MIR : ON : INTERNAL 2
OPTKBR

0.200000
8
8.000000
FILLER
RATIO
SPECTRUM
UNLOCKED 256

DOUBLE
64
COMBINED
1
0
0

1.000000
RATIO

1
0
TRUE
51149
0
LEFT NOT FITTED RIGHT NOT FITTED 0
NONE
NONE
15600
12
4.427000
51148
TRUE
1 0 8 72 0 0 0 0

15798

#HDR
-1
-1
#GR
CM-1
%T
2.38419e-05
0.0
5000
-1.000000
4631
8
29.0646
-5.376911
#DATA
5000	0.004339
4996	-0.192022
4992	-0.564455
4988	-0.429081
4984	0.025200
4980	0.070452
4976	-0.219774
4972	-0.258255
4968	-0.094199
4964	-0.130367
4960	-0.135707
4956	0.056862
4952	0.231242
4948	0.261473
4944	0.133609
4940	0.081157
4936	0.246214
4932	0.230598
4928	0.044345
4924	0.004959
4920	-0.019526
4916	0.003790
4912	0.137805
4908	0.113344
4904	0.006961
4900	0.134468
4896	0.273251
4892	0.301074
4888	0.386118
4884	0.447463
4880	0.408196
4876	0.307106
4872	0.310993
4868	0.438737
4864	0.471496
4860	0.397491
4856	0.391149
4852	0.483512
4848	0.545978
4844	0.480389
4840	0.355195
4836	0.163483
4832	0.006532
4828	0.041770
4824	0.056242
4820	0.041818
4816	0.123214
4812	0.133323
4808	0.072145
4804	0.043749
4800	0.111746
4796	0.354409
4792	0.543212
4788	0.492668
4784	0.297045
4780	0.080156
4776	0.125217
4772	0.310587
4768	0.162124
4764	-0.115752
4760	-0.156402
4756	-0.027728
4752	0.132703
4748	0.063085
4744	-0.008964
4740	0.012540
4736	-0.063776
4732	-0.061655
4728	0.050687
4724	0.011372
4720	-0.111961
4716	-0.184321
4712	-0.265264
4708	-0.072288
4704	0.530123
4700	0.841426
4696	0.581002
4692	0.046491
4688	-0.711369
4684	-1.332306
4680	-1.167154
4676	-0.522112
4672	-0.041079
4668	0.247263
4664	0.868034
4660	2.187252
4656	2.569937
4652	1.140809
4648	0.098228
4644	-0.013184
4640	-0.899624
4636	-1.823735
4632	-1.005434
4628	0.701355
4624	1.979184
4620	2.221775
4616	1.376175
4612	0.917959
4608	1.429176
4604	1.488852
4600	1.018953
4596	0.892210
4592	0.831437
4588	0.610470
4584	0.652766
4580	1.032972
4576	1.358699
4572	1.130104
4568	0.347948
4564	-0.251579
4560	-0.293231
4556	-0.419473
4552	-0.846052
4548	-0.525140
4544	-0.013375
4540	-0.427317
4536	-0.974178
4532	-1.005983
4528	-0.602436
4524	-0.087404
4520	0.247812
4516	-0.081348
4512	-0.161051
4508	-1.077318
4504	0.624299
4500	15.0438
4496	28.5051
4492	23.4593
4488	6.428456
4484	-4.809403
4480	-3.681564
4476	-0.158762
4472	0.654387
4468	-0.310325
4464	-1.243853
4460	-1.253890
4456	-0.826191
4452	-0.597071
4448	-0.628352
4444	-0.967288
4440	-1.194334
4436	-1.174569
4432	-0.993895
4428	-1.047611
4424	-1.392006
4420	-0.906181
4416	0.088930
4412	0.457596
4408	0.545048
4404	0.869536
4400	1.175308
4396	1.031446
4392	0.798463
4388	1.018643
4384	1.015591
4380	0.451970
4376	0.145769
4372	0.338268
4368	0.463390
4364	0.156331
4360	-0.035429
4356	0.232148
4352	0.475192
4348	0.547933
4344	0.478172
4340	0.215315
4336	0.142288
4332	0.414681
4328	0.654554
4324	0.740933
4320	0.703668
4316	0.445890
4312	0.208067
4308	0.211024
4304	0.180649
4300	0.090050
4296	0.044250
4292	-0.078582
4288	-0.185322
4284	-0.137114
4280	0.025773
4276	0.166010
4272	0.278282
4268	0.406813
4264	0.439286
4260	0.337576
4256	0.228977
4252	0.144863
4248	0.052285
4244	0.085878
4240	0.048971
4236	-0.192952
4232	-0.305223
4228	-0.190639
4224	-0.049018
4220	0.021076
4216	0.080657
4212	0.082659
4208	0.067591
4204	0.019645
4200	-0.116348
4196	-0.121855
4192	0.069618
4188	0.267386
4184	0.307893
4180	0.136184
4176	-0.003886
4172	0.155210
4168	0.249505
4164	0.060701
4160	0.062489
4156	0.238704
4152	0.312376
4148	0.295996
4144	0.238132
4140	0.298666
4136	0.366139
4132	0.244069
4128	0.121259
4124	0.160694
4120	0.209712
4116	0.162315
4112	0.209021
4108	0.299000
4104	0.255823
4100	0.190973
4096	0.155043
4092	0.073933
4088	-0.016927
4084	-0.045537
4080	-0.051355
4076	-0.079154
4072	-0.142335
4068	-0.142955
4064	0.014162
4060	0.169944
4056	0.161767
4052	0.039768
4048	-0.030994
4044	0.053143
4040	0.129795
4036	0.052475
4032	-0.035071
4028	-0.081872
4024	-0.114297
4020	-0.058579
4016	0.040221
4012	0.167346
4008	0.291728
4004	0.299167
4000	0.252342
3996	0.134181
3992	-0.040626
3988	-0.088262
3984	0.005722
3980	0.073528
3976	0.050640
3972	0.034523
3968	0.008010
3964	-0.019717
3960	0.029206
3956	0.087046
3952	0.091290
3948	0.091743
3944	0.178956
3940	0.279545
3936	0.252103
3932	0.131249
3928	0.025200
3924	0.003242
3920	0.017619
3916	-0.025629
3912	-0.056457
3908	0.035524
3904	0.139427
3900	0.189805
3896	0.186729
3892	0.119662
3888	0.064563
3884	-0.021147
3880	-0.052928
3876	0.037837
3872	0.091552
3868	0.102353
3864	0.131678
3860	0.173187
3856	0.219631
3852	0.236415
3848	0.139570
3844	-0.077033
3840	-0.204014
3836	-0.157833
3832	-0.038576
3828	0.070810
3824	0.089263
3820	0.089073
3816	0.095224
3812	0.052762
3808	-0.000929
3804	-0.022840
3800	-0.000405
3796	0.004100
3792	-0.018692
3788	-0.026583
3784	-0.008106
3780	0.034546
3776	0.038456
3772	0.027108
3768	0.015687
3764	-0.035715
3760	-0.100302
3756	-0.155711
3752	-0.150513
3748	-0.073242
3744	0.001263
3740	0.063276
3736	0.052404
3732	0.044202
3728	0.094485
3724	0.075221
3720	0.009179
3716	0.027370
3712	0.136065
3708	0.212836
3704	0.181913
3700	0.063228
3696	-0.036191
3692	-0.026559
3688	-0.015616
3684	-0.004887
3680	0.055241
3676	0.033736
3672	-0.043511
3668	-0.090670
3664	-0.066661
3660	0.054979
3656	0.110149
3652	0.062370
3648	-0.001454
3644	-0.066256
3640	-0.096726
3636	-0.051736
3632	0.026750
3628	0.022530
3624	-0.001668
3620	0.006628
3616	0.020503
3612	0.032448
3608	-0.006771
3604	0.001835
3600	0.085639
3596	0.074720
3592	-0.013351
3588	-0.029730
3584	-0.008058
3580	-0.031590
3576	-0.053739
3572	-0.022006
3568	0.039482
3564	0.107264
3560	0.125384
3556	0.062632
3552	-0.016450
3548	-0.054264
3544	0.014328
3540	0.148081
3536	0.163841
3532	0.080561
3528	0.071740
3524	0.093913
3520	0.115370
3516	0.211453
3512	0.246262
3508	0.122570
3504	0.036478
3500	0.104403
3496	0.152564
3492	0.033879
3488	-0.084519
3484	-0.029420
3480	0.014448
3476	-0.050687
3472	-0.064992
3468	-0.021100
3464	0.021123
3460	0.045800
3456	0.024223
3452	-0.046610
3448	-0.084972
3444	-0.013899
3440	0.038599
3436	0.019335
3432	0.006580
3428	0.024199
3424	0.064659
3420	0.069189
3416	0.089216
3412	0.127267
3408	0.104808
3404	0.060677
3400	-0.041341
3396	-0.080370
3392	0.058054
3388	0.201725
3384	0.266623
3380	0.232148
3376	0.141978
3372	0.075793
3368	0.027942
3364	0.012588
3360	0.004506
3356	0.018239
3352	0.062465
3348	0.062108
3344	0.064396
3340	0.113010
3336	0.171494
3332	0.195240
3328	0.170779
3324	0.143122
3320	0.084280
3316	0.052022
3312	0.123095
3308	0.136518
3304	0.092148
3300	0.124812
3296	0.158238
3292	0.140523
3288	0.101113
3284	0.046777
3280	0.004196
3276	0.020837
3272	0.112175
3268	0.191617
3264	0.163364
3260	0.071263
3256	0.018835
3252	-0.003600
3248	-0.049400
3244	-0.085139
3240	-0.041031
3236	0.023341
3232	0.023651
3228	0.049161
3224	0.077891
3220	0.003790
3216	-0.036811
3212	0.014948
3208	0.029516
3204	0.029301
3200	0.070428
3196	0.050044
3192	-0.021743
3188	-0.048446
3184	-0.045490
3180	-0.002241
3176	0.071573
3172	0.079631
3168	0.023341
3164	-0.003600
3160	0.001120
3156	0.009155
3152	-0.003933
3148	-0.028967
3144	-0.015473
3140	0.015306
3136	0.037908
3132	0.044560
3128	0.028467
3124	0.068354
3120	0.102734
3116	0.069499
3112	0.026726
3108	0.022244
3104	0.037527
3100	0.025129
3096	0.024199
3092	0.055837
3088	0.027561
3084	-0.055360
3080	-0.065898
3076	-0.003910
3072	0.047683
3068	0.100803
3064	0.129938
3060	0.066304
3056	-0.001072
3052	0.017547
3048	0.095224
3044	0.171923
3040	0.176906
3036	0.152420
3032	0.141906
3028	0.119829
3024	0.120830
3020	0.124597
3016	0.077819
3012	0.017762
3008	0.007128
3004	0.063681
3000	0.141334
2996	0.154304
2992	0.113344
2988	0.114989
2984	0.149106
2980	0.141453
2976	0.047421
2972	-0.093197
2968	-0.101041
2964	0.059986
2960	0.138640
2956	0.071048
2952	0.013566
2948	0.014257
2944	0.043249
2940	0.096368
2936	0.107097
2932	0.004887
2928	-0.071525
2924	-0.064778
2920	-0.034976
2916	0.028133
2912	0.070881
2908	0.071692
2904	0.072717
2900	0.057983
2896	0.052356
2892	0.077724
2888	0.046491
2884	-0.060677
2880	-0.088596
2876	0.007987
2872	0.051283
2868	-0.005459
2864	-0.045251
2860	-0.044655
2856	-0.016212
2852	0.042033
2848	0.066590
2844	0.050497
2840	0.008106
2836	-0.029706
2832	0.035238
2828	0.077438
2824	-0.013828
2820	-0.060749
2816	-0.085663
2812	-0.125503
2808	-0.046253
2804	0.043988
2800	0.032615
2796	0.016760
2792	0.025391
2788	0.027012
2784	0.012111
2780	-0.021123
2776	-0.018358
2772	0.009441
2768	0.030899
2764	0.042843
2760	0.033617
2756	0.024223
2752	0.019860
2748	0.011587
2744	-0.003314
2740	0.006699
2736	0.036931
2732	0.032758
2728	0.046586
2724	0.071859
2720	0.046014
2716	0.035476
2712	0.043487
2708	0.031065
2704	0.038957
2700	0.053477
2696	0.045347
2692	0.037932
2688	0.014233
2684	-0.043678
2680	-0.042438
2676	0.061464
2672	0.134062
2668	0.085234
2664	-0.002646
2660	-0.046586
2656	-0.044727
2652	0.013208
2648	0.072336
2644	0.033473
2640	-0.056362
2636	-0.058722
2632	0.019407
2628	0.051832
2624	0.058269
2620	0.094413
2616	0.095796
2612	0.047421
2608	-0.009131
2604	-0.032639
2600	-0.004935
2596	0.035262
2592	0.063776
2588	0.044894
2584	-0.007486
2580	-0.030565
2576	-0.013422
2572	0.047707
2568	0.106477
2564	0.094771
2560	0.046277
2556	0.008630
2552	-0.006079
2548	0.001668
2544	-0.016331
2540	-0.041913
2536	-0.014281
2532	0.012111
2528	0.017809
2524	0.047707
2520	0.070142
2516	0.039696
2512	-0.054502
2508	-0.076317
2504	0.033068
2500	0.098919
2496	0.081729
2492	0.103735
2488	0.151729
2484	0.121712
2480	0.045204
2476	-0.006270
2472	-0.044083
2468	-0.050878
2464	-0.020670
2460	0.023007
2456	0.096225
2452	0.093364
2448	-0.014877
2444	-0.029492
2440	0.057220
2436	0.083875
2432	0.042009
2428	0.018811
2424	0.053119
2420	0.122666
2416	0.185847
2412	0.208330
2408	0.167369
2404	0.115752
2400	0.057983
2396	-0.031995
2392	-0.082683
2388	-0.065517
2384	-0.025892
2380	-0.004887
2376	0.013494
2372	0.068950
2368	0.132822
2364	0.118827
2360	0.084686
2356	0.176167
2352	0.295400
2348	0.302529
2344	0.276827
2340	0.285506
2336	0.282716
2332	0.243043
2328	0.218605
2324	0.255513
2320	0.296831
2316	0.335669
2312	0.407099
2308	0.468111
2304	0.510001
2300	0.526809
2296	0.524759
2292	0.568056
2288	0.627231
2284	0.660133
2280	0.717496
2276	0.787329
2272	0.843214
2268	0.915551
2264	0.988578
2260	1.037740
2256	1.134586
2252	1.284646
2248	1.396417
2244	1.488327
2240	1.581239
2236	1.646995
2232	1.727485
2228	1.897668
2224	2.112817
2220	2.302002
2216	2.477836
2212	2.597212
2208	2.696728
2204	2.903795
2200	3.175044
2196	3.393054
2192	3.563761
2188	3.746819
2184	3.967905
2180	4.218745
2176	4.491829
2172	4.776215
2168	5.059576
2164	5.360007
2160	5.656528
2156	5.936360
2152	6.231117
2148	6.533288
2144	6.850290
2140	7.187056
2136	7.533931
2132	7.884168
2128	8.174180
2124	8.419513
2120	8.738660
2116	9.115409
2112	9.469842
2108	9.834671
2104	10.1883
2100	10.4895
2096	10.8044
2092	11.1676
2088	11.5179
2084	11.8126
2080	12.0923
2076	12.4318
2072	12.8293
2068	13.2116
2064	13.5267
2060	13.7329
2056	13.9266
2052	14.2397
2048	14.6024
2044	14.9182
2040	15.2118
2036	15.4995
2032	15.7658
2028	15.9825
2024	16.1431
2020	16.3604
2016	16.6706
2012	16.9585
2008	17.1888
2004	17.4545
2000	17.7999
1996	18.1158
1992	18.3222
1988	18.4732
1984	18.6381
1980	18.8168
1976	18.9557
1972	19.0641
1968	19.1536
1964	19.2795
1960	19.4932
1956	19.6887
1952	19.8762
1948	20.1036
1944	20.2974
1940	20.4572
1936	20.6421
1932	20.8261
1928	20.9186
1924	20.9454
1920	20.9887
1916	21.0672
1912	21.1507
1908	21.2024
1904	21.2557
1900	21.3614
1896	21.5147
1892	21.6949
1888	21.8854
1884	22.0551
1880	22.2035
1876	22.3332
1872	22.4042
1868	22.4184
1864	22.4064
1860	22.3983
1856	22.3987
1852	22.369
1848	22.3489
1844	22.4152
1840	22.5357
1836	22.6597
1832	22.7716
1828	22.8804
1824	23.0145
1820	23.1398
1816	23.2088
1812	23.2239
1808	23.2051
1804	23.1618
1800	23.1
1796	23.01
1792	22.9251
1788	22.9185
1784	22.9743
1780	23.0569
1776	23.1502
1772	23.2635
1768	23.412
1764	23.5516
1760	23.6537
1756	23.7058
1752	23.661
1748	23.5234
1744	23.4156
1740	23.372
1736	23.3021
1732	23.2239
1728	23.2238
1724	23.2641
1720	23.31
1716	23.4343
1712	23.5953
1708	23.6914
1704	23.7386
1700	23.7691
1696	23.7735
1692	23.7479
1688	23.6689
1684	23.5475
1680	23.4411
1676	23.3384
1672	23.2532
1668	23.2655
1664	23.3537
1660	23.4278
1656	23.4743
1652	23.5441
1648	23.6654
1644	23.797
1640	23.8794
1636	23.874
1632	23.7957
1628	23.6961
1624	23.5932
1620	23.49
1616	23.3756
1612	23.267
1608	23.2572
1604	23.3584
1600	23.4827
1596	23.5861
1592	23.7
1588	23.8086
1584	23.8439
1580	23.8368
1576	23.85
1572	23.8645
1568	23.8088
1564	23.6875
1560	23.5471
1556	23.4106
1552	23.301
1548	23.2525
1544	23.2929
1540	23.3639
1536	23.4289
1532	23.5497
1528	23.728
1524	23.8768
1520	23.9405
1516	23.9541
1512	23.945
1508	23.8377
1504	23.6567
1500	23.4902
1496	23.2966
1492	23.1724
1488	23.2424
1484	23.3587
1480	23.4464
1476	23.5124
1472	23.578
1468	23.6905
1464	23.8168
1460	23.9104
1456	23.9541
1452	23.9244
1448	23.8548
1444	23.7826
1440	23.6358
1436	23.3681
1432	23.1302
1428	23.0772
1424	23.1332
1420	23.1843
1416	23.2638
1412	23.3619
1408	23.462
1404	23.6241
1400	23.7808
1396	23.8151
1392	23.7508
1388	23.694
1384	23.6412
1380	23.5077
1376	23.338
1372	23.1961
1368	23.1031
1364	23.0741
1360	23.1337
1356	23.2706
1352	23.4166
1348	23.5532
1344	23.6617
1340	23.763
1336	23.8747
1332	23.8849
1328	23.7823
1324	23.7039
1320	23.626
1316	23.4524
1312	23.2808
1308	23.1794
1304	23.0955
1300	23.092
1296	23.1802
1292	23.2902
1288	23.4254
1284	23.5721
1280	23.7271
1276	23.8338
1272	23.8559
1268	23.8433
1264	23.7707
1260	23.5846
1256	23.3581
1252	23.2197
1248	23.1533
1244	23.1071
1240	23.1191
1236	23.2064
1232	23.3366
1228	23.5023
1224	23.6492
1220	23.7463
1216	23.8786
1212	23.9925
1208	23.9939
1204	23.911
1200	23.7556
1196	23.5486
1192	23.3453
1188	23.2023
1184	23.1386
1180	23.1289
1176	23.1522
1172	23.1889
1168	23.2657
1164	23.4037
1160	23.6486
1156	23.9211
1152	24.0495
1148	24.0407
1144	23.936
1140	23.7999
1136	23.674
1132	23.4998
1128	23.3219
1124	23.1606
1120	23.0376
1116	23.0357
1112	23.1028
1108	23.2453
1104	23.5592
1100	23.8586
1096	23.9221
1092	23.932
1088	24.0433
1084	24.1195
1080	23.9941
1076	23.7305
1072	23.553
1068	23.4534
1064	23.3498
1060	23.3072
1056	23.3495
1052	23.3845
1048	23.4614
1044	23.6524
1040	23.8335
1036	24.0099
1032	24.1902
1028	24.2617
1024	24.2423
1020	24.1683
1016	24.0682
1012	23.9864
1008	23.8462
1004	23.6676
1000	23.5456
996	 23.4758
992	 23.4262
988	 23.4094
984	 23.4948
980	 23.6675
976	 23.8641
972	 24.0799
968	 24.2206
964	 24.2002
960	 24.1507
956	 24.1265
952	 23.9669
948	 23.7393
944	 23.6336
940	 23.5481
936	 23.3997
932	 23.292
928	 23.2821
924	 23.3646
920	 23.4787
916	 23.6479
912	 23.9423
908	 24.2341
904	 24.3077
900	 24.155
896	 24.082
892	 24.0951
888	 23.8735
884	 23.5704
880	 23.444
876	 23.3276
872	 23.1872
868	 23.1662
864	 23.2635
860	 23.4153
856	 23.5202
852	 23.6746
848	 23.9325
844	 24.0966
840	 24.1914
836	 24.2641
832	 24.1815
828	 24.008
824	 23.8163
820	 23.6545
816	 23.5402
812	 23.3375
808	 23.1747
804	 23.1482
800	 23.2235
796	 23.4303
792	 23.7162
788	 23.9677
784	 24.0592
780	 24.0662
776	 24.0693
772	 24.0467
768	 23.9856
764	 23.8843
760	 23.7333
756	 23.5485
752	 23.4026
748	 23.2153
744	 23.0588
740	 23.0682
736	 23.2332
732	 23.4904
728	 23.623
724	 23.643
720	 23.7344
716	 23.8542
712	 23.929
708	 23.9399
704	 23.7744
700	 23.4326
696	 23.1049
692	 22.8928
688	 22.8204
684	 22.8181
680	 22.8907
676	 23.1406
672	 23.2767
668	 23.2109
664	 23.408
660	 23.7044
656	 23.655
652	 23.5837
648	 23.6501
644	 23.6348
640	 23.5921
636	 23.3998
632	 22.9701
628	 22.588
624	 22.3666
620	 22.3624
616	 22.5478
612	 22.6976
608	 22.833
604	 23.0738
600	 23.3369
596	 23.5478
592	 23.6314
588	 23.516
584	 23.4107
580	 23.4263
576	 23.215
572	 22.7282
568	 22.4308
564	 22.4351
560	 22.4847
556	 22.4002
552	 22.2824
548	 22.4861
544	 22.9029
540	 23.0313
536	 22.815
532	 22.6713
528	 22.7962
524	 22.8529
520	 22.6611
516	 22.5777
512	 22.7688
508	 22.6185
504	 22.061
500	 21.7556
496	 21.5402
492	 21.4036
488	 21.6845
484	 21.9071
480	 22.1963
476	 23.0563
472	 23.7251
468	 23.5828
464	 22.8848
460	 22.1541
456	 22.129
452	 22.4346
448	 22.1024
444	 21.0586
440	 19.6445
436	 19.4996
432	 21.0064
428	 22.3604
424	 22.1777
420	 19.6571
416	 17.7381
412	 18.8286
408	 21.4068
404	 25.5129
400	 26.6244
396	 21.9754
392	 14.5095
388	 6.045866
384	 5.683708
380	 17.9217
376	 19.917
372	 2.581644
370	 -0.828671