File: Bakgrunnsmateriale/MATLAB/FTIR/ftir_data/LPE453/Mapping_121/LPE453_t26.asc
PE IR       SPECTRUM    SPECTRUM    ASCII       PEDS        1.60
  -1
LPDB91~1.ASC
17/05/16
16:31:06.00
17/05/16
16:31:32.00
tln
$LPE453_t0026$<tbV0>[5.2,-7.8,8.0,0.0,27,1,0]
27.028
64

2002,4.07
MIRTGS : RIGHTBACK : INTERNAL 2
MIR : ON : INTERNAL 2
OPTKBR

0.200000
8
8.000000
FILLER
RATIO
SPECTRUM
UNLOCKED 256

DOUBLE
64
COMBINED
1
0
0

0.002000
RATIO

1
0
TRUE
51149
0
LEFT NOT FITTED RIGHT NOT FITTED 0
NONE
NONE
15600
12
4.427000
51148
TRUE
1 0 8 72 0 0 0 0

15798

#HDR
-1
-1
#GR
µM
%T
2.38419e-05
0.0
2.000000
0.002000
12515
8
27.186
-4.014942
#DATA
2.000000	 0.228953
2.018000	 0.114634
2.036000	 0.176755
2.054000	 0.209414
2.072000	 0.292479
2.090000	 0.424937
2.108000	 0.357228
2.126000	 -0.050826
2.144000	 0.486920
2.162000	 0.020068
2.180000	 -1.223225
2.198000	 -4.014942
2.216000	 26.8963
2.234000	 -1.821592
2.252000	 -1.507688
2.270000	 0.181720
2.288000	 0.516312
2.306000	 0.392258
2.324000	 0.220396
2.342000	 0.297737
2.360000	 0.106389
2.378000	 0.343509
2.396000	 0.478353
2.414000	 0.378481
2.432000	 0.247580
2.450000	 0.084770
2.468000	 -0.117138
2.486000	 0.192446
2.504000	 0.062568
2.522000	 0.160012
2.540000	 0.031424
2.558000	 0.040372
2.576000	 0.128717
2.594000	 0.112995
2.612000	 0.144757
2.630000	 0.183409
2.648000	 -0.025760
2.666000	 0.088501
2.684000	 0.173727
2.702000	 0.123972
2.720000	 0.025347
2.738000	 0.164327
2.756000	 -0.048146
2.774000	 0.183862
2.792000	 0.039962
2.810000	 0.089455
2.828000	 0.114812
2.846000	 -0.169472
2.864000	 0.092032
2.882000	 0.159764
2.900000	 -0.053969
2.918000	 0.128292
2.936000	 -0.017040
2.954000	 -0.028559
2.972000	 0.111725
2.990000	 0.264755
3.008000	 -0.080130
3.026000	 0.025943
3.044000	 0.198855
3.062000	 0.022006
3.080000	 -0.116677
3.098000	 0.047229
3.116000	 -0.174714
3.134000	 -0.003235
3.152000	 -0.047628
3.170000	 -0.022033
3.188000	 0.208256
3.206000	 0.025852
3.224000	 0.081903
3.242000	 0.080076
3.260000	 0.009539
3.278000	 0.131767
3.296000	 -0.041630
3.314000	 0.050156
3.332000	 0.068156
3.350000	 0.053518
3.368000	 0.247742
3.386000	 0.087199
3.404000	 0.076550
3.422000	 0.078630
3.440000	 0.090705
3.458000	 0.065473
3.476000	 0.146686
3.494000	 0.092152
3.512000	 0.006543
3.530000	 0.085540
3.548000	 -0.014653
3.566000	 0.032344
3.584000	 0.119647
3.602000	 -0.020656
3.620000	 -0.017586
3.638000	 -0.037002
3.656000	 0.020331
3.674000	 0.064079
3.692000	 0.112489
3.710000	 -0.010278
3.728000	 0.030612
3.746000	 0.107195
3.764000	 -0.010139
3.782000	 0.026324
3.800000	 0.025595
3.818000	 0.040257
3.836000	 0.077119
3.854000	 0.056621
3.872000	 0.011847
3.890000	 -0.037674
3.908000	 -0.055355
3.926000	 0.088659
3.944000	 -0.003748
3.962000	 0.139954
3.980000	 -0.007832
3.998000	 -0.064614
4.016000	 0.139594
4.034000	 0.059270
4.052000	 0.049752
4.070000	 -0.004863
4.088000	 0.064564
4.106000	 -0.020583
4.124000	 -0.031530
4.141999	 0.172198
4.160000	 0.165808
4.178000	 0.044940
4.196000	 -0.020799
4.214000	 0.043536
4.232000	 0.003807
4.250000	 -0.086395
4.268000	 -0.030791
4.286000	 0.063458
4.304000	 -0.043378
4.322000	 -0.028985
4.340000	 0.084648
4.358000	 -0.031019
4.375999	 0.029643
4.394000	 0.138324
4.412000	 0.115909
4.430000	 0.064931
4.448000	 0.321751
4.466000	 0.481233
4.484000	 0.578731
4.502000	 0.739964
4.520000	 0.880627
4.538000	 1.141991
4.556000	 1.497129
4.574000	 1.708481
4.592000	 2.186620
4.609999	 2.382134
4.628000	 3.036073
4.646000	 3.506588
4.664000	 3.980673
4.682000	 4.843032
4.700000	 5.478918
4.718000	 5.996399
4.736000	 6.759249
4.754000	 7.377425
4.772000	 8.185334
4.790000	 9.003000
4.808000	 9.906153
4.826000	 10.5653
4.843999	 11.2823
4.862000	 12.0601
4.880000	 12.8842
4.898000	 13.5092
4.916000	 14.1968
4.934000	 14.955
4.952000	 15.6098
4.970000	 16.2892
4.988000	 16.9713
5.006000	 17.6052
5.024000	 18.1069
5.042000	 18.6959
5.060000	 19.2131
5.077999	 19.6504
5.096000	 20.0251
5.114000	 20.4541
5.132000	 20.8977
5.150000	 21.3593
5.168000	 21.7663
5.186000	 21.9676
5.204000	 22.3748
5.222000	 22.7095
5.240000	 22.9374
5.258000	 23.2972
5.276000	 23.557
5.294000	 23.7669
5.312000	 23.9626
5.330000	 24.2046
5.348000	 24.4301
5.366000	 24.667
5.384000	 24.7686
5.402000	 24.9374
5.420000	 25.071
5.438000	 25.2058
5.456000	 25.4306
5.474000	 25.5428
5.492000	 25.6214
5.510000	 25.6913
5.528000	 25.6954
5.546000	 25.817
5.564000	 25.9924
5.582000	 26.1833
5.600000	 26.2918
5.618000	 26.3625
5.636000	 26.4208
5.654000	 26.326
5.672000	 26.2809
5.690000	 26.482
5.708000	 26.5165
5.726000	 26.578
5.744000	 26.6821
5.762000	 26.701
5.780000	 26.6447
5.798000	 26.7872
5.816000	 26.7452
5.834000	 26.6487
5.852000	 26.8383
5.870000	 26.8975
5.888000	 26.9732
5.906000	 26.955
5.923999	 26.846
5.942000	 26.8581
5.960000	 26.91
5.978000	 26.9911
5.996000	 27.0455
6.014000	 27.0758
6.032000	 27.0877
6.050000	 27.0822
6.068000	 26.9483
6.086000	 26.7831
6.104000	 26.7397
6.122000	 26.8441
6.140000	 26.9949
6.158000	 27.0918
6.176000	 27.16
6.194000	 27.1298
6.212000	 27.0255
6.230000	 26.9573
6.248000	 26.9308
6.266000	 26.9296
6.284000	 26.8849
6.302000	 26.9312
6.320000	 27.1101
6.338000	 27.1857
6.356000	 27.122
6.374000	 27.0255
6.392000	 26.9228
6.410000	 26.8025
6.428000	 26.7448
6.446000	 26.801
6.464000	 26.9158
6.482000	 27.0038
6.500000	 27.0251
6.518000	 27.0175
6.536000	 27.0245
6.554000	 26.9878
6.572000	 26.8967
6.590000	 26.7952
6.608000	 26.6819
6.626000	 26.6729
6.644000	 26.8295
6.662000	 26.9862
6.680000	 27.059
6.698000	 27.0821
6.716000	 26.9989
6.734000	 26.8507
6.752000	 26.7761
6.770000	 26.7606
6.788000	 26.7018
6.806000	 26.6053
6.824000	 26.592
6.842000	 26.6867
6.860000	 26.7936
6.878000	 26.9065
6.896000	 27.0066
6.914000	 26.9779
6.932000	 26.8451
6.950000	 26.6889
6.968000	 26.548
6.986000	 26.4519
7.004000	 26.4032
7.022000	 26.4566
7.040000	 26.5976
7.058000	 26.7124
7.076000	 26.7834
7.094000	 26.802
7.112000	 26.7272
7.130000	 26.6232
7.148000	 26.5643
7.166000	 26.5298
7.184000	 26.4751
7.202000	 26.4018
7.220000	 26.3542
7.238000	 26.3564
7.256000	 26.4033
7.274000	 26.4838
7.292000	 26.5653
7.310000	 26.6225
7.328000	 26.6378
7.346000	 26.5814
7.364000	 26.4665
7.382000	 26.3499
7.400000	 26.2607
7.418000	 26.1851
7.436000	 26.1305
7.454000	 26.1411
7.472000	 26.2074
7.490000	 26.273
7.508000	 26.3478
7.526000	 26.4514
7.544000	 26.5261
7.562000	 26.5171
7.580000	 26.4553
7.598000	 26.3986
7.616000	 26.3483
7.634000	 26.2687
7.652000	 26.1736
7.670000	 26.1146
7.688000	 26.1099
7.706000	 26.1473
7.724000	 26.1971
7.742000	 26.218
7.760000	 26.2075
7.778000	 26.2034
7.796000	 26.2062
7.814000	 26.1856
7.832000	 26.1472
7.850000	 26.1171
7.868000	 26.0891
7.886000	 26.0337
7.904000	 25.9535
7.922000	 25.8913
7.940000	 25.8769
7.958000	 25.8906
7.976000	 25.8953
7.994000	 25.8855
8.012000	 25.8908
8.030000	 25.9419
8.048000	 26.0261
8.065999	 26.0897
8.084000	 26.0934
8.102000	 26.0449
8.120000	 25.9701
8.138000	 25.8898
8.155999	 25.8202
8.173999	 25.7631
8.192000	 25.6979
8.210000	 25.6188
8.228000	 25.559
8.246000	 25.5495
8.263999	 25.5822
8.282000	 25.638
8.300000	 25.7173
8.318000	 25.8113
8.336000	 25.8734
8.353999	 25.869
8.372000	 25.8201
8.390000	 25.7623
8.408000	 25.6974
8.426000	 25.6192
8.443999	 25.5468
8.462000	 25.5069
8.480000	 25.5006
8.498000	 25.5071
8.516000	 25.5014
8.533999	 25.4656
8.552000	 25.4094
8.570000	 25.3714
8.588000	 25.38
8.606000	 25.4249
8.624000	 25.4779
8.641999	 25.5263
8.660000	 25.5666
8.678000	 25.5856
8.696000	 25.5713
8.714000	 25.5329
8.731999	 25.4853
8.750000	 25.4292
8.768000	 25.3606
8.786000	 25.2936
8.804000	 25.2494
8.821999	 25.2303
8.840000	 25.2215
8.858000	 25.2174
8.876000	 25.2281
8.894000	 25.2531
8.911999	 25.2665
8.930000	 25.2411
8.948000	 25.1793
8.966000	 25.1178
8.984000	 25.1064
9.001999	 25.1757
9.020000	 25.3071
9.038000	 25.4289
9.056000	 25.4576
9.074000	 25.3607
9.092000	 25.1815
9.109999	 24.9973
9.128000	 24.8603
9.146000	 24.7805
9.164000	 24.7516
9.182000	 24.7675
9.199999	 24.8126
9.218000	 24.8553
9.236000	 24.8625
9.254000	 24.8263
9.272000	 24.7716
9.289999	 24.7371
9.308000	 24.7526
9.326000	 24.8237
9.344000	 24.9335
9.362000	 25.0513
9.379999	 25.1448
9.398000	 25.1897
9.416000	 25.1736
9.434000	 25.1006
9.452000	 24.9933
9.469999	 24.8859
9.488000	 24.8057
9.506000	 24.7522
9.524000	 24.6969
9.542000	 24.613
9.560000	 24.5068
9.577999	 24.4172
9.596000	 24.38
9.614000	 24.3975
9.632000	 24.4398
9.650000	 24.4747
9.667999	 24.4907
9.686000	 24.4992
9.704000	 24.5153
9.722000	 24.5414
9.740000	 24.5689
9.757999	 24.5903
9.776000	 24.6041
9.794000	 24.6063
9.812000	 24.5838
9.830000	 24.5253
9.847999	 24.4401
9.866000	 24.3591
9.884000	 24.3122
9.902000	 24.3025
9.920000	 24.3007
9.937999	 24.2717
9.956000	 24.2086
9.974000	 24.1377
9.992000	 24.0941
10.01	24.0904
10.028	24.1085
10.046	24.1175
10.064	24.1032
10.082	24.0772
10.1	24.0685
10.118	24.1025
10.136	24.1828
10.154	24.2923
10.172	24.4008
10.19	24.4763
10.208	24.4977
10.226	24.4597
10.244	24.3744
10.262	24.2648
10.28	24.1549
10.298	24.0604
10.316	23.9857
10.334	23.924
10.352	23.8634
10.37	23.7936
10.388	23.7125
10.406	23.627
10.424	23.5511
10.442	23.4986
10.46	23.4759
10.478	23.4794
10.496	23.4981
10.514	23.5233
10.532	23.5516
10.55	23.5847
10.568	23.6234
10.586	23.6639
10.604	23.7011
10.622	23.731
10.64	23.7544
10.658	23.7766
10.676	23.8018
10.694	23.8293
10.712	23.8519
10.73	23.8575
10.748	23.8351
10.766	23.779
10.784	23.6912
10.802	23.5837
10.82	23.4729
10.838	23.377
10.856	23.3066
10.874	23.2613
10.892	23.2298
10.91	23.1966
10.928	23.1499
10.946	23.0886
10.964	23.0233
10.982	22.9714
11	22.948
11.018	22.959
11.036	22.9981
11.054	23.0497
11.072	23.0964
11.09	23.1263
11.108	23.1379
11.126	23.1389
11.144	23.1416
11.162	23.1567
11.18	23.1864
11.198	23.223
11.216	23.2529
11.234	23.2612
11.252	23.2382
11.27	23.1838
11.288	23.1058
11.306	23.0171
11.324	22.9315
11.342	22.8593
11.36	22.805
11.378	22.7665
11.396	22.737
11.414	22.7067
11.432	22.6674
11.45	22.6147
11.468	22.5502
11.486	22.4824
11.504	22.423
11.522	22.3857
11.54	22.38
11.558	22.4092
11.576	22.4681
11.594	22.5454
11.612	22.6247
11.63	22.69
11.648	22.73
11.666	22.7393
11.684	22.7202
11.702	22.6801
11.72	22.6302
11.738	22.5806
11.756	22.538
11.774	22.5054
11.792	22.4813
11.81	22.4614
11.828	22.4407
11.846	22.4148
11.864	22.381
11.882	22.3389
11.9	22.2898
11.918	22.2364
11.936	22.1819
11.954	22.1294
11.972	22.081
11.99	22.0375
12.008	21.9971
12.026	21.9562
12.044	21.9105
12.062	21.8578
12.08	21.7991
12.098	21.7385
12.116	21.6835
12.134	21.6418
12.152	21.6185
12.17	21.6149
12.188	21.6282
12.206	21.6523
12.224	21.6806
12.242	21.7081
12.26	21.7322
12.278	21.7524
12.296	21.7694
12.314	21.7838
12.332	21.7959
12.35	21.8053
12.368	21.812
12.386	21.8165
12.404	21.8192
12.422	21.8193
12.44	21.8146
12.458	21.8014
12.476	21.7744
12.494	21.7293
12.512	21.6642
12.53	21.5804
12.548	21.4831
12.566	21.3798
12.584	21.2789
12.602	21.1881
12.62	21.112
12.638	21.0531
12.656	21.0113
12.674	20.9856
12.692	20.9743
12.71	20.9758
12.728	20.9886
12.746	21.0096
12.764	21.0355
12.782	21.0616
12.8	21.0828
12.818	21.0941
12.836	21.0922
12.854	21.0758
12.872	21.0461
12.89	21.0062
12.908	20.9611
12.926	20.9162
12.944	20.8763
12.962	20.8453
12.98	20.8248
12.998	20.814
13.016	20.8101
13.034	20.8085
13.052	20.8036
13.07	20.7908
13.088	20.7673
13.106	20.7336
13.124	20.6937
13.142	20.6538
13.16	20.6212
13.178	20.602
13.196	20.5992
13.214	20.6113
13.232	20.6325
13.25	20.6538
13.268	20.6659
13.286	20.6616
13.304	20.6384
13.322	20.599
13.34	20.5508
13.358	20.5035
13.376	20.4659
13.394	20.4437
13.412	20.4377
13.43	20.4437
13.448	20.454
13.466	20.4596
13.484	20.4527
13.502	20.4283
13.52	20.3856
13.538	20.3269
13.556	20.2576
13.574	20.184
13.592	20.1119
13.61	20.0459
13.628	19.9885
13.646	19.9411
13.664	19.9036
13.682	19.8758
13.7	19.8572
13.718	19.8473
13.736	19.8454
13.754	19.8498
13.772	19.8588
13.79	19.8695
13.808	19.8796
13.826	19.8866
13.844	19.8892
13.862	19.8874
13.88	19.8821
13.898	19.8752
13.916	19.8687
13.934	19.8644
13.952	19.8631
13.97	19.8648
13.988	19.8683
14.006	19.8713
14.024	19.8713
14.042	19.8659
14.06	19.8535
14.078	19.8335
14.096	19.8066
14.114	19.7739
14.132	19.7374
14.15	19.699
14.168	19.6606
14.186	19.6238
14.204	19.5897
14.222	19.5591
14.24	19.533
14.258	19.5122
14.276	19.4974
14.294	19.489
14.312	19.4869
14.33	19.4906
14.348	19.4983
14.366	19.5077
14.384	19.5154
14.402	19.5179
14.42	19.5122
14.438	19.4959
14.456	19.4681
14.474	19.4297
14.492	19.3832
14.51	19.333
14.528	19.284
14.546	19.241
14.564	19.208
14.582	19.1877
14.6	19.1812
14.618	19.1874
14.636	19.204
14.654	19.2273
14.672	19.2534
14.69	19.2782
14.708	19.2981
14.726	19.3095
14.744	19.31
14.762	19.2974
14.78	19.2711
14.798	19.2312
14.816	19.1784
14.834	19.115
14.852	19.0447
14.87	18.9716
14.888	18.9001
14.906	18.8345
14.924	18.7786
14.942	18.7357
14.96	18.7066
14.978	18.6908
14.996	18.6861
15.014	18.6892
15.032	18.6952
15.05	18.6989
15.068	18.6962
15.086	18.6835
15.104	18.6584
15.122	18.6203
15.14	18.5706
15.158	18.5119
15.176	18.4474
15.194	18.3812
15.212	18.3176
15.23	18.2592
15.248	18.2078
15.266	18.1641
15.284	18.1277
15.302	18.0971
15.32	18.0707
15.338	18.0467
15.356	18.0236
15.374	18.0005
15.392	17.9776
15.41	17.9558
15.428	17.9363
15.446	17.9215
15.464	17.9129
15.482	17.9115
15.5	17.9183
15.518	17.9329
15.536	17.9541
15.554	17.9803
15.572	18.0093
15.59	18.0381
15.608	18.0647
15.626	18.0871
15.644	18.1038
15.662	18.1137
15.68	18.117
15.698	18.1138
15.716	18.105
15.734	18.0918
15.752	18.0751
15.77	18.056
15.788	18.0358
15.806	18.0153
15.824	17.9956
15.842	17.9775
15.86	17.962
15.878	17.9498
15.896	17.9416
15.914	17.938
15.932	17.9389
15.95	17.9442
15.968	17.9534
15.986	17.9644
16.004	17.9755
16.022	17.9846
16.04	17.9889
16.058	17.9862
16.076	17.975
16.094	17.9536
16.112	17.922
16.13	17.8806
16.148	17.8307
16.166	17.7749
16.184	17.7154
16.202	17.6546
16.22	17.5956
16.238	17.5395
16.256	17.4876
16.274	17.4402
16.292	17.3964
16.31	17.3555
16.328	17.3153
16.346	17.2742
16.364	17.231
16.382	17.1842
16.4	17.1337
16.418	17.0798
16.436	17.0235
16.454	16.9667
16.472	16.9107
16.49	16.8582
16.508	16.8106
16.526	16.7692
16.544	16.7349
16.562	16.7073
16.58	16.6861
16.598	16.6698
16.616	16.657
16.634	16.6466
16.652	16.6367
16.67	16.6269
16.688	16.6166
16.706	16.6062
16.724	16.5967
16.742	16.5891
16.76	16.5855
16.778	16.5867
16.796	16.5945
16.814	16.6091
16.832	16.6307
16.85	16.6586
16.868	16.691
16.886	16.7265
16.904	16.7614
16.922	16.7939
16.94	16.8214
16.958	16.841
16.976	16.8521
16.994	16.8531
17.012	16.8447
17.03	16.827
17.048	16.8025
17.066	16.773
17.084	16.7408
17.102	16.7093
17.12	16.6802
17.138	16.6565
17.156	16.6392
17.174	16.6293
17.192	16.6269
17.21	16.6317
17.228	16.6425
17.246	16.6574
17.264	16.6753
17.282	16.6933
17.3	16.7102
17.318	16.7238
17.336	16.733
17.354	16.7369
17.372	16.7346
17.39	16.7263
17.408	16.7119
17.426	16.6921
17.444	16.6675
17.462	16.6394
17.48	16.6083
17.498	16.576
17.516	16.543
17.534	16.5104
17.552	16.4793
17.57	16.4499
17.588	16.4229
17.606	16.3982
17.624	16.3762
17.642	16.3563
17.66	16.3385
17.678	16.3219
17.696	16.306
17.714	16.2899
17.732	16.2729
17.75	16.2544
17.768	16.2336
17.786	16.2103
17.804	16.1841
17.822	16.155
17.84	16.1235
17.858	16.0899
17.876	16.0549
17.894	16.0196
17.912	15.9846
17.93	15.9512
17.948	15.9198
17.966	15.8915
17.984	15.8664
18.002	15.845
18.02	15.8271
18.038	15.8128
18.056	15.8013
18.074	15.7925
18.092	15.7853
18.11	15.7795
18.128	15.7742
18.146	15.7693
18.164	15.7643
18.182	15.7592
18.2	15.7539
18.218	15.7488
18.236	15.744
18.254	15.7398
18.272	15.7364
18.29	15.7338
18.308	15.732
18.326	15.7304
18.344	15.7288
18.362	15.7263
18.38	15.7225
18.398	15.7163
18.416	15.7073
18.434	15.6946
18.452	15.6781
18.47	15.6574
18.488	15.6328
18.506	15.6043
18.524	15.5732
18.542	15.5394
18.56	15.5053
18.578	15.4712
18.596	15.4395
18.614	15.4104
18.632	15.386
18.65	15.3664
18.668	15.3527
18.686	15.3447
18.704	15.3424
18.722	15.3453
18.74	15.3521
18.758	15.3623
18.776	15.3738
18.794	15.3859
18.812	15.3966
18.83	15.4055
18.848	15.4107
18.866	15.4122
18.884	15.4091
18.902	15.4019
18.92	15.3908
18.938	15.3765
18.956	15.3602
18.974	15.3426
18.992	15.3253
19.01	15.309
19.028	15.2949
19.046	15.2834
19.064	15.2752
19.082	15.2699
19.1	15.2675
19.118	15.2671
19.136	15.2674
19.154	15.2677
19.172	15.2658
19.19	15.2612
19.208	15.2515
19.226	15.2367
19.244	15.2151
19.262	15.187
19.28	15.1523
19.298	15.1114
19.316	15.066
19.334	15.0162
19.352	14.9657
19.37	14.9144
19.388	14.8668
19.406	14.8228
19.424	14.7867
19.442	14.7587
19.46	14.7415
19.478	14.7356
19.496	14.7415
19.514	14.7599
19.532	14.7891
19.55	14.8292
19.568	14.8777
19.586	14.9325
19.604	14.992
19.622	15.0522
19.64	15.1126
19.658	15.1677
19.676	15.2182
19.694	15.259
19.712	15.2906
19.73	15.3101
19.748	15.3174
19.766	15.3122
19.784	15.294
19.802	15.2644
19.82	15.2236
19.838	15.1735
19.856	15.1161
19.874	15.0519
19.892	14.9847
19.91	14.914
19.928	14.8435
19.946	14.7728
19.964	14.7042
19.982	14.6381
20	14.575
20.018	14.5157
20.036	14.4596
20.054	14.4069
20.072	14.3574
20.09	14.3103
20.108	14.2656
20.126	14.2228
20.144	14.1817
20.162	14.1426
20.18	14.1051
20.198	14.0702
20.216	14.0385
20.234	14.0102
20.252	13.9878
20.27	13.9706
20.288	13.9613
20.306	13.9599
20.324	13.9676
20.342	13.9856
20.36	14.0135
20.378	14.0522
20.396	14.1016
20.414	14.1602
20.432	14.2288
20.45	14.3041
20.468	14.3856
20.486	14.4712
20.504	14.557
20.522	14.6436
20.54	14.7249
20.558	14.8021
20.576	14.8705
20.594	14.9285
20.612	14.9755
20.63	15.0081
20.648	15.0271
20.666	15.0311
20.684	15.0196
20.702	14.9937
20.72	14.9532
20.738	14.899
20.756	14.834
20.774	14.7572
20.792	14.6733
20.81	14.5823
20.828	14.4868
20.846	14.3906
20.864	14.2928
20.882	14.1987
20.9	14.1077
20.918	14.0224
20.936	13.945
20.954	13.8752
20.972	13.8154
20.99	13.7653
21.008	13.7256
21.026	13.6969
21.044	13.6789
21.062	13.6716
21.08	13.6751
21.098	13.6882
21.116	13.711
21.134	13.7426
21.152	13.7815
21.17	13.8283
21.188	13.8803
21.206	13.9377
21.224	13.9991
21.242	14.0622
21.26	14.1277
21.278	14.1926
21.296	14.2568
21.314	14.319
21.332	14.3766
21.35	14.4305
21.368	14.4777
21.386	14.5178
21.404	14.5502
21.422	14.5724
21.44	14.585
21.458	14.5865
21.476	14.5759
21.494	14.5538
21.512	14.5187
21.53	14.4709
21.548	14.4104
21.566	14.3371
21.584	14.2511
21.602	14.1539
21.62	14.0449
21.638	13.9257
21.656	13.798
21.674	13.6609
21.692	13.5185
21.71	13.3711
21.728	13.2197
21.746	13.0693
21.764	12.918
21.782	12.7702
21.8	12.6294
21.818	12.494
21.836	12.3702
21.854	12.258
21.872	12.1586
21.89	12.0766
21.908	12.0104
21.926	11.9622
21.944	11.934
21.962	11.9246
21.98	11.9339
21.998	11.9627
22.016	12.0093
22.034	12.0711
22.052	12.1497
22.07	12.2403
22.088	12.3396
22.106	12.4494
22.124	12.5615
22.142	12.6754
22.16	12.7901
22.178	12.8973
22.196	12.999
22.214	13.0916
22.232	13.1692
22.25	13.2343
22.268	13.2833
22.286	13.3136
22.304	13.3267
22.322	13.3217
22.34	13.2975
22.358	13.2555
22.376	13.1986
22.394	13.125
22.412	13.0381
22.43	12.9426
22.448	12.8358
22.466	12.7236
22.484	12.6102
22.502	12.4931
22.52	12.379
22.538	12.2706
22.556	12.1663
22.574	12.0715
22.592	11.987
22.61	11.9122
22.628	11.8495
22.646	11.7991
22.664	11.7603
22.682	11.733
22.7	11.7179
22.718	11.7129
22.736	11.7159
22.754	11.7286
22.772	11.7474
22.79	11.7694
22.808	11.7964
22.826	11.8245
22.844	11.8512
22.862	11.8781
22.88	11.9017
22.898	11.9202
22.916	11.9348
22.934	11.9439
22.952	11.9465
22.97	11.9435
22.988	11.9353
23.006	11.921
23.024	11.9015
23.042	11.8794
23.06	11.8545
23.078	11.8271
23.096	11.8005
23.114	11.7742
23.132	11.7487
23.15	11.7279
23.168	11.7114
23.186	11.6995
23.204	11.6951
23.222	11.698
23.24	11.7084
23.258	11.7278
23.276	11.7566
23.294	11.7942
23.312	11.8408
23.33	11.897
23.348	11.9619
23.366	12.034
23.384	12.1141
23.402	12.2014
23.42	12.2929
23.438	12.3892
23.456	12.4899
23.474	12.5915
23.492	12.694
23.51	12.7977
23.528	12.8995
23.546	12.9989
23.564	13.0966
23.582	13.1902
23.6	13.2789
23.618	13.3636
23.636	13.4429
23.654	13.5163
23.672	13.5843
23.69	13.6465
23.708	13.7024
23.726	13.7523
23.744	13.7963
23.762	13.8341
23.78	13.866
23.798	13.8919
23.816	13.9115
23.834	13.9253
23.852	13.9327
23.87	13.9334
23.888	13.9281
23.906	13.9159
23.924	13.8952
23.942	13.8667
23.96	13.8301
23.978	13.7831
23.996	13.7252
24.014	13.6574
24.032	13.577
24.05	13.4825
24.068	13.3754
24.086	13.2541
24.104	13.1173
24.122	12.9656
24.14	12.799
24.158	12.6173
24.176	12.4195
24.194	12.207
24.212	11.9828
24.23	11.746
24.248	11.4966
24.266	11.2401
24.284	10.9783
24.302	10.7079
24.32	10.4364
24.338	10.1704
24.356	9.903765
24.374	9.643337
24.392	9.399486
24.41	9.169010
24.428	8.952951
24.446	8.761744
24.464	8.599299
24.482	8.460559
24.5	8.352752
24.518	8.282190
24.536	8.245313
24.554	8.243310
24.572	8.278986
24.59	8.353534
24.608	8.464790
24.626	8.610237
24.644	8.790386
24.662	9.006954
24.68	9.251621
24.698	9.517299
24.716	9.811066
24.734	10.1254
24.752	10.448
24.77	10.7808
24.788	11.1256
24.806	11.4673
24.824	11.7965
24.842	12.1242
24.86	12.4375
24.878	12.7204
24.896	12.9778
24.914	13.2095
24.932	13.4034
24.95	13.5527
24.968	13.6642
24.986	13.7335
25.004	13.7552
25.022	13.7287
25.04	13.6572
25.058	13.5436
25.076	13.3872
25.094	13.1855
25.112	12.9485
25.13	12.6859
25.148	12.3892
25.166	12.0649
25.184	11.728
25.202	11.3841
25.22	11.0237
25.238	10.6609
25.256	10.3103
25.274	9.964216
25.292	9.625446
25.31	9.307621
25.328	9.018490
25.346	8.749069
25.364	8.506903
25.382	8.301147
25.4	8.131324
25.418	7.994834
25.436	7.894576
25.454	7.833322
25.472	7.811029
25.49	7.824581
25.508	7.870735
25.526	7.950845
25.544	8.066040
25.562	8.208359
25.58	8.370510
25.598	8.559044
25.616	8.769735
25.634	8.992026
25.652	9.219998
25.67	9.461640
25.688	9.709218
25.706	9.953227
25.724	10.1939
25.742	10.4346
25.76	10.668
25.778	10.887
25.796	11.0952
25.814	11.2923
25.832	11.4743
25.85	11.6388
25.868	11.7884
25.886	11.9218
25.904	12.0366
25.922	12.1327
25.94	12.2113
25.958	12.2706
25.976	12.3085
25.994	12.3267
26.012	12.3248
26.03	12.2998
26.048	12.2496
26.066	12.1791
26.084	12.084
26.102	11.9568
26.12	11.793
26.138	11.5983
26.156	11.3691
26.174	11.1005
26.192	10.7915
26.21	10.446
26.228	10.0589
26.246	9.624647
26.264	9.139430
26.282	8.606969
26.3	8.033185
26.318	7.423705
26.336	6.767655
26.354	6.070948
26.372	5.353707
26.39	4.633583
26.408	3.888020
26.426	3.130193
26.444	2.391878
26.462	1.697688
26.48	1.014020
26.498	0.363212
26.516	-0.214888
26.534	-0.692316
26.552	-1.104412
26.57	-1.430216
26.588	-1.636655
26.606	-1.702570
26.624	-1.654332
26.642	-1.479130
26.66	-1.158081
26.678	-0.676756
26.696	-0.044038
26.714	0.731635
26.732	1.642772
26.75	2.692553
26.768	3.895480
26.786	5.220724
26.804	6.634629
26.822	8.130384
26.84	9.744653
26.858	11.4274
26.876	13.123
26.894	14.8135
26.912	16.5531
26.93	18.2838
26.948	19.9401
26.966	21.5284
26.984	23.1612
27.002	24.6573
27.02	25.8151
27.028	26.132