File: Bakgrunnsmateriale/MATLAB/FTIR/ftir_data/LPE453/Mapping_121/LPE453_t66_cm-1.asc
PE IR       SPECTRUM    SPECTRUM    ASCII       PEDS        1.60
  -1
LP6A5A~1.ASC
17/05/16
19:43:44.00
17/05/16
19:43:44.00
tln
$LPE453_t0066$<tbV0>[-13.0,0.0,8.0,0.0,27,1,0]
370
64

2002,4.07
MIRTGS : RIGHTBACK : INTERNAL 2
MIR : ON : INTERNAL 2
OPTKBR

0.200000
8
8.000000
FILLER
RATIO
SPECTRUM
UNLOCKED 256

DOUBLE
64
COMBINED
1
0
0

1.000000
RATIO

1
0
TRUE
51149
0
LEFT NOT FITTED RIGHT NOT FITTED 0
NONE
NONE
15600
12
4.427000
51148
TRUE
1 0 8 72 0 0 0 0

15798

#HDR
-1
-1
#GR
CM-1
%T
2.38419e-05
0.0
5000
-1.000000
4631
8
39.889
-3.929185
#DATA
5000	0.444149
4996	0.246429
4992	0.153064
4988	0.169563
4984	0.198864
4980	0.039148
4976	-0.204920
4972	-0.331068
4968	-0.302219
4964	-0.199365
4960	-0.202226
4956	-0.178670
4952	0.090527
4948	0.339651
4944	0.465989
4940	0.423002
4936	0.309538
4932	0.235533
4928	0.049042
4924	0.052189
4920	0.132894
4916	-0.087881
4912	-0.224041
4908	-0.101947
4904	0.021839
4900	0.093030
4896	0.178313
4892	0.238370
4888	0.271892
4884	0.435733
4880	0.475025
4876	0.186157
4872	-0.100779
4868	-0.159406
4864	-0.129818
4860	-0.092601
4856	0.050830
4852	0.159859
4848	0.078725
4844	0.000238
4840	0.140690
4836	0.212001
4832	0.059628
4828	0.035548
4824	0.095939
4820	0.105047
4816	0.306272
4812	0.516247
4808	0.309634
4804	-0.002264
4800	-0.014829
4796	-0.000715
4792	-0.114941
4788	-0.347328
4784	-0.370097
4780	-0.004196
4776	0.263977
4772	0.311088
4768	0.348186
4764	0.149869
4760	-0.097584
4756	-0.007271
4752	0.125670
4748	0.239562
4744	0.187420
4740	-0.078916
4736	-0.504970
4732	-0.963187
4728	-0.893354
4724	-0.162959
4720	0.643992
4716	1.059484
4712	0.559902
4708	-0.383806
4704	-0.124049
4700	0.886297
4696	0.969386
4692	1.103496
4688	2.278065
4684	3.032565
4680	2.730846
4676	1.957249
4672	0.902986
4668	0.345659
4664	0.612521
4660	0.886893
4656	0.813865
4652	0.415802
4648	0.228333
4644	0.285005
4640	0.101447
4636	-0.095105
4632	-0.362277
4628	-0.520777
4624	-0.271868
4620	-0.266814
4616	-0.362300
4612	0.183010
4608	0.568342
4604	0.267434
4600	-0.025773
4596	-0.081253
4592	-0.232076
4588	-0.438976
4584	-0.215530
4580	0.289726
4576	0.569462
4572	0.593328
4568	0.557470
4564	0.437903
4560	-0.009655
4556	-0.389003
4552	-0.129747
4548	0.263309
4544	0.271630
4540	0.316095
4536	0.412321
4532	0.504946
4528	0.531840
4524	0.257802
4520	-0.010752
4516	-0.251412
4512	-0.245928
4508	-0.659298
4504	-2.146387
4500	-3.804421
4496	-2.965331
4492	0.004553
4488	2.567625
4484	6.087374
4480	7.224512
4476	4.065346
4472	1.270294
4468	0.213766
4464	0.126552
4460	0.658249
4456	1.000046
4452	0.595569
4448	-0.001764
4444	-0.236606
4440	-0.036525
4436	0.204110
4432	0.071525
4428	0.019717
4424	0.228238
4420	0.255918
4416	0.202035
4412	0.145316
4408	-0.100016
4404	-0.145983
4400	0.033068
4396	-0.072121
4392	-0.228428
4388	-0.050449
4384	0.187230
4380	0.290656
4376	0.264883
4372	0.190138
4368	0.194573
4364	0.072240
4360	-0.058484
4356	0.098752
4352	0.226902
4348	0.149893
4344	0.148272
4340	0.296735
4336	0.362420
4332	0.444173
4328	0.538325
4324	0.493383
4320	0.472950
4316	0.387144
4312	0.151109
4308	-0.054788
4304	-0.105285
4300	0.011110
4296	0.111055
4292	-0.032734
4288	-0.243663
4284	-0.163340
4280	0.112271
4276	0.318408
4272	0.368785
4268	0.251245
4264	0.146818
4260	0.239157
4256	0.357151
4252	0.262975
4248	0.082707
4244	0.076246
4240	0.201129
4236	0.318503
4232	0.290775
4228	0.137996
4224	0.092077
4220	0.096702
4216	-0.048971
4212	-0.246286
4208	-0.320315
4204	-0.303125
4200	-0.102567
4196	0.160360
4192	0.087976
4188	-0.077581
4184	0.134921
4180	0.592112
4176	0.707340
4172	0.311326
4168	-0.068283
4164	-0.102734
4160	-0.041866
4156	-0.030612
4152	-0.049114
4148	-0.056767
4144	0.026535
4140	0.089669
4136	0.058197
4132	0.042605
4128	0.081443
4124	0.080776
4120	0.026249
4116	-0.017833
4112	0.041270
4108	0.132274
4104	0.077915
4100	-0.001478
4096	0.015854
4092	0.056934
4088	0.068426
4084	0.094270
4080	0.151705
4076	0.151205
4072	0.131821
4068	0.172400
4064	0.160360
4060	0.021505
4056	-0.072717
4052	0.026297
4048	0.096249
4044	0.015211
4040	-0.015354
4036	0.019407
4032	0.064921
4028	0.040912
4024	-0.106978
4020	-0.118827
4016	0.094604
4012	0.235819
4008	0.163364
4004	0.042510
4000	-0.008010
3996	0.010228
3992	0.084686
3988	0.123047
3984	0.069570
3980	-0.013113
3976	-0.103616
3972	-0.128412
3968	-0.097203
3964	-0.065398
3960	-0.009584
3956	0.039649
3952	0.115418
3948	0.202345
3944	0.218176
3940	0.108528
3936	-0.004148
3932	-0.000023
3928	-0.012040
3924	-0.050282
3920	-0.038266
3916	-0.011277
3912	0.026011
3908	0.132179
3904	0.220274
3900	0.196909
3896	0.102019
3892	-0.007343
3888	0.002431
3884	0.088524
3880	0.073122
3876	-0.043797
3872	-0.101280
3868	-0.116491
3864	-0.163865
3860	-0.102496
3856	0.030446
3852	0.066900
3848	0.049948
3844	0.063037
3840	0.041604
3836	-0.002574
3832	0.061726
3828	0.113773
3824	0.032401
3820	0.005674
3816	0.108599
3812	0.201058
3808	0.208973
3804	0.196981
3800	0.240778
3796	0.259828
3792	0.145125
3788	0.012874
3784	-0.012302
3780	0.000095
3776	0.014829
3772	0.062227
3768	0.063586
3764	0.018858
3760	0.025677
3756	0.017046
3752	-0.005602
3748	0.047254
3744	0.113391
3740	0.137710
3736	0.138258
3732	0.127458
3728	0.094699
3724	0.067377
3720	0.060868
3716	0.048947
3712	0.084757
3708	0.161218
3704	0.181150
3700	0.122070
3696	0.039267
3692	-0.018429
3688	-0.030231
3684	0.001239
3680	0.021076
3676	0.016331
3672	0.029945
3668	0.109171
3664	0.209975
3660	0.202059
3656	0.062799
3652	-0.063180
3648	-0.087738
3644	-0.056433
3640	-0.010871
3636	0.004529
3632	-0.024795
3628	-0.035905
3624	-0.049924
3620	-0.087261
3616	-0.055146
3612	0.002241
3608	-0.012183
3604	-0.012516
3600	0.052022
3596	0.058054
3592	-0.005960
3588	-0.023508
3584	0.008440
3580	0.066852
3576	0.087118
3572	0.002884
3568	-0.049448
3564	0.045967
3560	0.176572
3556	0.224184
3552	0.225186
3548	0.218272
3544	0.167798
3540	0.076937
3536	0.058841
3532	0.137901
3528	0.140428
3524	0.004410
3520	-0.069332
3516	0.012922
3512	0.077629
3508	0.065660
3504	0.100779
3500	0.189447
3496	0.160264
3492	0.028157
3488	-0.000762
3484	0.038504
3480	-0.002932
3476	-0.061964
3472	-0.066351
3468	-0.038504
3464	0.006365
3460	0.000882
3456	-0.065231
3452	-0.088429
3448	-0.024509
3444	0.049376
3440	0.124979
3436	0.226163
3432	0.238323
3428	0.154614
3424	0.087666
3420	0.052976
3416	0.039243
3412	0.098609
3408	0.154995
3404	0.055170
3400	-0.052118
3396	-0.050592
3392	-0.027942
3388	-0.017499
3384	-0.060653
3380	-0.062894
3376	0.031566
3372	0.112867
3368	0.121259
3364	0.132799
3360	0.181627
3356	0.168037
3352	0.083327
3348	0.021719
3344	0.062108
3340	0.087571
3336	0.061607
3332	0.096416
3328	0.130438
3324	0.085139
3320	0.030398
3316	0.021004
3312	-0.034999
3308	-0.095582
3304	-0.061440
3300	0.023031
3296	0.038290
3292	0.021171
3288	0.076985
3284	0.098776
3280	0.065326
3276	0.032281
3272	-0.025200
3268	-0.074076
3264	-0.063920
3260	-0.008559
3256	0.071406
3252	0.151157
3248	0.174665
3244	0.125575
3240	0.066709
3236	0.057578
3232	0.058770
3228	0.060296
3224	0.117993
3220	0.157523
3216	0.090265
3212	0.051522
3208	0.089573
3204	0.106215
3200	0.086712
3196	-0.002694
3192	-0.076031
3188	-0.063800
3184	-0.052499
3180	-0.022602
3176	0.020956
3172	0.016140
3168	0.006771
3164	0.050902
3160	0.141549
3156	0.205540
3152	0.195813
3148	0.171113
3144	0.139975
3140	0.091624
3136	0.089144
3132	0.059437
3128	-0.029540
3124	-0.060725
3120	-0.041151
3116	-0.012683
3112	-0.045657
3108	-0.127077
3104	-0.136804
3100	-0.044918
3096	0.077033
3092	0.101566
3088	0.094151
3084	0.162458
3080	0.175905
3076	0.085306
3072	0.005841
3068	-0.013327
3064	-0.011754
3060	-0.019478
3056	-0.015425
3052	-0.027060
3048	-0.028181
3044	0.053477
3040	0.103163
3036	0.024366
3032	-0.076198
3028	-0.104951
3024	-0.065708
3020	-0.007843
3016	-0.002312
3012	-0.013184
3008	-0.002002
3004	0.027918
3000	0.091171
2996	0.136876
2992	0.080561
2988	-0.000619
2984	0.023579
2980	0.058007
2976	0.067949
2972	0.153923
2968	0.211238
2964	0.144338
2960	0.035381
2956	0.001072
2952	0.040912
2948	0.052833
2944	0.077056
2940	0.129103
2936	0.141525
2932	0.122594
2928	0.081539
2924	0.082063
2920	0.122952
2916	0.131940
2912	0.129175
2908	0.141024
2904	0.150513
2900	0.123977
2896	0.071883
2892	-0.002694
2888	-0.083184
2884	-0.095438
2880	-0.077152
2876	-0.075268
2872	-0.068974
2868	-0.064444
2864	-0.062966
2860	-0.055480
2856	-0.026035
2852	-0.015497
2848	-0.033688
2844	-0.015926
2840	0.054287
2836	0.135970
2832	0.134587
2828	0.053405
2824	-0.017046
2820	-0.060319
2816	-0.044798
2812	0.005912
2808	0.003385
2804	-0.017738
2800	0.006556
2796	0.024056
2792	-0.000762
2788	0.013637
2784	0.034499
2780	-0.017237
2776	-0.057411
2772	-0.004744
2768	0.087285
2764	0.102090
2760	0.070142
2756	0.067734
2752	0.054550
2748	0.015902
2744	-0.028014
2740	-0.009083
2736	0.068616
2732	0.080442
2728	0.053429
2724	0.044059
2720	0.030565
2716	0.024461
2712	-0.030136
2708	-0.105953
2704	-0.062823
2700	0.056767
2696	0.103259
2692	0.075674
2688	0.051116
2684	0.037741
2680	0.049471
2676	0.086402
2672	0.083899
2668	0.043463
2664	0.027751
2660	0.026249
2656	0.018501
2652	0.048232
2648	0.116181
2644	0.127124
2640	0.061845
2636	0.046157
2632	0.074386
2628	0.066471
2624	0.056028
2620	0.049877
2616	0.026011
2612	0.002217
2608	-0.003838
2604	-0.026416
2600	-0.076556
2596	-0.038242
2592	0.080823
2588	0.111341
2584	0.052237
2580	0.008726
2576	0.048398
2572	0.057578
2568	-0.035905
2564	-0.093770
2560	-0.051593
2556	-0.035047
2552	-0.057768
2548	-0.025820
2544	0.051569
2540	0.120425
2536	0.129795
2532	0.048422
2528	-0.015997
2524	0.012183
2520	0.075483
2516	0.141477
2512	0.114369
2508	-0.020647
2504	-0.099396
2500	-0.020861
2496	0.061511
2492	0.029253
2488	0.022220
2484	0.057268
2480	0.020837
2476	-0.028371
2472	-0.008106
2468	0.043582
2464	0.068068
2460	0.047898
2456	0.043296
2452	0.091552
2448	0.126194
2444	0.117897
2440	0.163340
2436	0.224947
2432	0.074148
2428	-0.127768
2424	-0.042223
2420	0.072073
2416	-0.033402
2412	-0.101757
2408	-0.015473
2404	0.108861
2400	0.157594
2396	0.085449
2392	0.044393
2388	0.051212
2384	0.023388
2380	0.024676
2376	0.023102
2372	-0.020837
2368	-0.040745
2364	-0.005936
2360	0.026631
2356	0.032973
2352	0.027346
2348	-0.043845
2344	-0.129222
2340	-0.090074
2336	0.032114
2332	0.066947
2328	0.004267
2324	0.002861
2320	0.059866
2316	0.086164
2312	0.132107
2308	0.176978
2304	0.134730
2300	0.068736
2296	0.058746
2292	0.088572
2288	0.152444
2284	0.232243
2280	0.269770
2276	0.265622
2272	0.269103
2268	0.283646
2264	0.294566
2260	0.351428
2256	0.456333
2252	0.530815
2248	0.571250
2244	0.633835
2240	0.687885
2236	0.711822
2232	0.790953
2228	0.925302
2224	1.069998
2220	1.222872
2216	1.371526
2212	1.495957
2208	1.569032
2204	1.647448
2200	1.809477
2196	2.029585
2192	2.252626
2188	2.462601
2184	2.663683
2180	2.863287
2176	3.080511
2172	3.328037
2168	3.577065
2164	3.821587
2160	4.040956
2156	4.239177
2152	4.509377
2148	4.841399
2144	5.179977
2140	5.505251
2136	5.846142
2132	6.231856
2128	6.613874
2124	6.966948
2120	7.265472
2116	7.570886
2112	7.961845
2108	8.378267
2104	8.791089
2100	9.221601
2096	9.621548
2092	9.950900
2088	10.2768
2084	10.6713
2080	11.13
2076	11.5492
2072	11.8696
2068	12.276
2064	12.8052
2060	13.1894
2056	13.4701
2052	13.8697
2048	14.3129
2044	14.7003
2040	15.0837
2036	15.4995
2032	15.8987
2028	16.2841
2024	16.7115
2020	17.1087
2016	17.3973
2012	17.6501
2008	17.9448
2004	18.2582
2000	18.5611
1996	18.8669
1992	19.168
1988	19.4744
1984	19.8128
1980	20.1333
1976	20.4257
1972	20.7218
1968	20.9671
1964	21.1799
1960	21.4248
1956	21.6817
1952	21.9522
1948	22.2189
1944	22.4636
1940	22.6892
1936	22.8961
1932	23.1115
1928	23.3249
1924	23.5174
1920	23.6892
1916	23.8311
1912	23.9797
1908	24.1827
1904	24.4052
1900	24.5997
1896	24.7608
1892	24.8977
1888	25.0331
1884	25.2063
1880	25.3663
1876	25.456
1872	25.5471
1868	25.6668
1864	25.7862
1860	25.9071
1856	26.061
1852	26.2354
1848	26.3546
1844	26.4538
1840	26.5826
1836	26.6711
1832	26.7219
1828	26.785
1824	26.8448
1820	26.9229
1816	27.05
1812	27.186
1808	27.3087
1804	27.4541
1800	27.5882
1796	27.6885
1792	27.7827
1788	27.8364
1784	27.8435
1780	27.8265
1776	27.8164
1772	27.8473
1768	27.9389
1764	28.0954
1760	28.2348
1756	28.3348
1752	28.4342
1748	28.4543
1744	28.4108
1740	28.4006
1736	28.3792
1732	28.3052
1728	28.2494
1724	28.3504
1720	28.5532
1716	28.671
1712	28.7758
1708	28.923
1704	28.9863
1700	28.9679
1696	28.9733
1692	28.9738
1688	28.8956
1684	28.8457
1680	28.8956
1676	28.9468
1672	28.9977
1668	29.1169
1664	29.2613
1660	29.3641
1656	29.3726
1652	29.3119
1648	29.2657
1644	29.1955
1640	29.0964
1636	29.0884
1632	29.1867
1628	29.2592
1624	29.2842
1620	29.3418
1616	29.4351
1612	29.5049
1608	29.4897
1604	29.4371
1600	29.4096
1596	29.3768
1592	29.3332
1588	29.2861
1584	29.2759
1580	29.332
1576	29.4184
1572	29.533
1568	29.6367
1564	29.6993
1560	29.7134
1556	29.6711
1552	29.6451
1548	29.6127
1544	29.5317
1540	29.4774
1536	29.4712
1532	29.4901
1528	29.5703
1524	29.7316
1520	29.8527
1516	29.8393
1512	29.7605
1508	29.6712
1504	29.5715
1500	29.4656
1496	29.4147
1492	29.4778
1488	29.5746
1484	29.6592
1480	29.7378
1476	29.8081
1472	29.8649
1468	29.9016
1464	29.9459
1460	29.9225
1456	29.7525
1452	29.5473
1448	29.4354
1444	29.4416
1440	29.5148
1436	29.5781
1432	29.6669
1428	29.772
1424	29.7969
1420	29.7525
1416	29.6843
1412	29.6334
1408	29.5871
1404	29.4804
1400	29.3627
1396	29.3334
1392	29.41
1388	29.4953
1384	29.4943
1380	29.4939
1376	29.5562
1372	29.5912
1368	29.5671
1364	29.5268
1360	29.4487
1356	29.3211
1352	29.1934
1348	29.1234
1344	29.1843
1340	29.3547
1336	29.4959
1332	29.5329
1328	29.4924
1324	29.4562
1320	29.4566
1316	29.4086
1312	29.2954
1308	29.17
1304	29.047
1300	28.9814
1296	29.0073
1292	29.089
1288	29.2128
1284	29.3509
1280	29.4298
1276	29.409
1272	29.2784
1268	29.1224
1264	29.067
1260	29.0476
1256	28.9425
1252	28.8782
1248	28.9694
1244	29.0524
1240	29.0765
1236	29.1234
1232	29.1611
1228	29.1434
1224	29.0769
1220	28.9589
1216	28.7647
1212	28.6252
1208	28.5979
1204	28.5673
1200	28.585
1196	28.7327
1192	28.8477
1188	28.875
1184	28.9258
1180	28.9321
1176	28.8139
1172	28.6454
1168	28.4699
1164	28.256
1160	28.0769
1156	28.0779
1152	28.1949
1148	28.3385
1144	28.4534
1140	28.46
1136	28.4579
1132	28.4802
1128	28.4232
1124	28.3124
1120	28.1883
1116	28.0209
1112	27.8018
1108	27.7174
1104	27.8528
1100	27.961
1096	27.9896
1092	28.0733
1088	28.139
1084	28.1261
1080	28.039
1076	27.8422
1072	27.6264
1068	27.4598
1064	27.3383
1060	27.3197
1056	27.3928
1052	27.4575
1048	27.5301
1044	27.648
1040	27.6908
1036	27.6074
1032	27.4976
1028	27.4241
1024	27.2642
1020	27.0259
1016	26.9127
1012	26.8743
1008	26.8583
1004	26.9517
1000	27.0553
996	 27.0853
992	 27.0642
988	 26.9846
984	 26.861
980	 26.702
976	 26.4887
972	 26.2789
968	 26.1925
964	 26.1965
960	 26.2075
956	 26.2451
952	 26.3145
948	 26.4098
944	 26.5339
940	 26.5812
936	 26.399
932	 26.0952
928	 25.9121
924	 25.7703
920	 25.488
916	 25.2751
912	 25.3357
908	 25.4932
904	 25.595
900	 25.6816
896	 25.7394
892	 25.7061
888	 25.5427
884	 25.2237
880	 24.9207
876	 24.8498
872	 24.8736
868	 24.8493
864	 24.8593
860	 24.8547
856	 24.8231
852	 24.7975
848	 24.7808
844	 24.7943
840	 24.7369
836	 24.6098
832	 24.377
828	 24.0412
824	 23.904
820	 23.9668
816	 23.9345
812	 23.8573
808	 23.9409
804	 24.0711
800	 24.059
796	 24.0034
792	 23.966
788	 23.8122
784	 23.5925
780	 23.4537
776	 23.2675
772	 23.0348
768	 23.0402
764	 23.2677
760	 23.3296
756	 23.1917
752	 23.2146
748	 23.3287
744	 23.1637
740	 22.6715
736	 22.2425
732	 22.2914
728	 22.4979
724	 22.4424
720	 22.2904
716	 22.204
712	 22.2301
708	 22.3647
704	 22.4051
700	 22.3081
696	 22.1462
692	 21.8309
688	 21.5294
684	 21.4655
680	 21.4473
676	 21.3691
672	 21.4072
668	 21.4424
664	 21.2622
660	 21.2296
656	 21.5172
652	 21.6284
648	 21.2862
644	 20.7805
640	 20.4641
636	 20.3339
632	 20.2454
628	 20.2334
624	 20.194
620	 20.0933
616	 20.1935
612	 20.2888
608	 20.2114
604	 20.1298
600	 20.0311
596	 19.9468
592	 19.8596
588	 19.7437
584	 19.5891
580	 19.3378
576	 18.9762
572	 18.7343
568	 18.8206
564	 18.9869
560	 19.0406
556	 19.0964
552	 19.1872
548	 18.9642
544	 18.5439
540	 18.4096
536	 18.4302
532	 18.4927
528	 18.5205
524	 18.1821
520	 17.5929
516	 17.4584
512	 17.8807
508	 18.1053
504	 17.8599
500	 17.5258
496	 17.2834
492	 17.2109
488	 17.4248
484	 17.4838
480	 17.0677
476	 16.9016
472	 17.1986
468	 17.0435
464	 16.7669
460	 16.8784
456	 16.2702
452	 15.5148
448	 15.7652
444	 15.4573
440	 14.155
436	 13.0523
432	 13.2128
428	 15.0565
424	 17.1061
420	 17.5328
416	 15.4347
412	 11.6027
408	 9.279870
404	 12.361
400	 17.9459
396	 18.4842
392	 15.08
388	 17.9538
384	 31.3103
380	 39.889
376	 23.0036
372	 4.609441
370	 5.628299