File: Bakgrunnsmateriale/MATLAB/FTIR/ftir_data/LPE453/Mapping_121/LPE453_t72_cm-1.asc
PE IR       SPECTRUM    SPECTRUM    ASCII       PEDS        1.60
  -1
LPDA50~1.ASC
17/05/16
20:18:07.00
17/05/16
20:18:07.00
tln
$LPE453_t0072$<tbV0>[0.0,2.6,8.0,0.0,27,1,0]
370
64

2002,4.07
MIRTGS : RIGHTBACK : INTERNAL 2
MIR : ON : INTERNAL 2
OPTKBR

0.200000
8
8.000000
FILLER
RATIO
SPECTRUM
UNLOCKED 256

DOUBLE
64
COMBINED
1
0
0

1.000000
RATIO

1
0
TRUE
51149
0
LEFT NOT FITTED RIGHT NOT FITTED 0
NONE
NONE
15600
12
4.427000
51148
TRUE
1 0 8 72 0 0 0 0

15798

#HDR
-1
-1
#GR
CM-1
%T
2.38419e-05
0.0
5000
-1.000000
4631
8
33.1835
-0.964546
#DATA
5000	0.122928
4996	-0.001120
4992	0.090146
4988	0.447511
4984	0.611281
4980	0.476908
4976	0.371575
4972	0.200080
4968	-0.045752
4964	0.093603
4960	0.440764
4956	0.448036
4952	0.181126
4948	-0.042033
4944	-0.081920
4940	0.008296
4936	0.101280
4932	0.018787
4928	-0.211262
4924	-0.316524
4920	-0.309872
4916	-0.147581
4912	0.152635
4908	0.222325
4904	0.203871
4900	0.212383
4896	0.096750
4892	0.153422
4888	0.422501
4884	0.459647
4880	0.295495
4876	0.251650
4872	0.178694
4868	-0.179052
4864	-0.496625
4860	-0.408935
4856	-0.227999
4852	-0.134181
4848	0.030708
4844	0.214076
4840	0.240206
4836	0.172472
4832	0.185322
4828	0.202250
4824	0.204324
4820	0.323367
4816	0.401306
4812	0.305533
4808	0.316119
4804	0.491094
4800	0.591278
4796	0.620961
4792	0.761747
4788	0.807547
4784	0.383567
4780	-0.212645
4776	-0.403809
4772	-0.110507
4768	0.281786
4764	0.529980
4760	0.648951
4756	0.514197
4752	0.136756
4748	-0.019454
4744	0.085997
4740	-0.111055
4736	0.045585
4732	0.349736
4728	0.190377
4724	-0.110411
4720	-0.503587
4716	-0.463509
4712	-0.394678
4708	-0.637292
4704	-0.494217
4700	-0.355291
4696	0.322604
4692	1.440024
4688	0.675511
4684	-0.878763
4680	-0.320196
4676	1.078891
4672	1.553630
4668	1.586794
4664	1.261782
4660	0.284552
4656	-0.494241
4652	-0.447177
4648	-0.192809
4644	0.395059
4640	0.968456
4636	1.037287
4632	1.442646
4628	1.684427
4624	1.122951
4620	0.464892
4616	0.301551
4612	0.421452
4608	0.439310
4604	0.244021
4600	0.156903
4596	0.381755
4592	0.568723
4588	0.348854
4584	-0.123476
4580	-0.255513
4576	-0.292968
4572	-0.433087
4568	-0.328230
4564	-0.104856
4560	0.006008
4556	-0.165009
4552	-0.593972
4548	-0.767755
4544	-0.583124
4540	-0.368285
4536	-0.034928
4532	-0.007843
4528	-0.095510
4524	-0.087904
4520	-0.022149
4516	0.131893
4512	0.482892
4508	0.630807
4504	0.926375
4500	4.372000
4496	11.6908
4492	11.5086
4488	3.869509
4484	6.940507
4480	9.581184
4476	3.366041
4472	-0.158166
4468	-0.340414
4464	0.140380
4460	-0.007295
4456	-0.211715
4452	-0.010800
4448	0.023388
4444	-0.284743
4440	-0.639104
4436	-0.580739
4432	-0.251889
4428	0.004386
4424	0.068402
4420	-0.100183
4416	-0.238990
4412	-0.171566
4408	-0.060939
4404	-0.064206
4400	-0.173044
4396	-0.310516
4392	-0.339078
4388	-0.119185
4384	0.083255
4380	0.051569
4376	-0.011420
4372	0.058770
4368	0.092744
4364	0.010323
4360	0.054693
4356	0.104546
4352	-0.024986
4348	-0.054454
4344	0.173377
4340	0.303483
4336	0.265717
4332	0.340580
4328	0.388646
4324	0.270724
4320	0.020098
4316	-0.143957
4312	0.066971
4308	0.321602
4304	0.300693
4300	0.122666
4296	0.090837
4292	0.191235
4288	-0.006532
4284	-0.425601
4280	-0.489711
4276	-0.117301
4272	0.192761
4268	0.252175
4264	0.334024
4260	0.234150
4256	-0.028753
4252	-0.098395
4248	-0.020480
4244	0.133395
4240	0.270342
4236	0.289416
4232	0.268054
4228	0.320720
4224	0.448727
4220	0.482010
4216	0.380969
4212	0.286936
4208	0.166821
4204	0.090265
4200	0.232696
4196	0.345373
4192	0.290155
4188	0.412559
4184	0.608062
4180	0.724411
4176	0.718331
4172	0.127887
4168	-0.516581
4164	-0.340056
4160	0.212264
4156	0.513648
4152	0.479745
4148	0.207948
4144	-0.050306
4140	-0.093150
4136	0.069975
4132	0.215673
4128	0.192737
4124	0.160074
4120	0.238132
4116	0.314188
4112	0.290107
4108	0.162506
4104	0.089764
4100	0.166249
4096	0.156617
4092	-0.043511
4088	-0.209832
4084	-0.184655
4080	-0.084114
4076	-0.077700
4072	-0.120639
4068	-0.054836
4064	0.116181
4060	0.202012
4056	0.148463
4052	0.091743
4048	0.079226
4044	0.112175
4040	0.173878
4036	0.166463
4032	0.066995
4028	0.002312
4024	0.071883
4020	0.158095
4016	0.160002
4012	0.069355
4008	-0.079917
4004	-0.080466
4000	0.046801
3996	0.157499
3992	0.185608
3988	0.141906
3984	0.152873
3980	0.228595
3976	0.207996
3972	0.087070
3968	-0.030732
3964	-0.102329
3960	-0.079059
3956	-0.025653
3952	0.010895
3948	0.041532
3944	0.015282
3940	0.017905
3936	0.064897
3932	0.068855
3928	0.163865
3924	0.314331
3920	0.276279
3916	0.145006
3912	0.073409
3908	0.055289
3904	0.132107
3900	0.272107
3896	0.291967
3892	0.119304
3888	-0.049281
3884	-0.087809
3880	-0.072932
3876	-0.035381
3872	0.032663
3868	0.068044
3864	0.075960
3860	0.164675
3856	0.262093
3852	0.214958
3848	0.111103
3844	-0.001192
3840	-0.110244
3836	-0.064206
3832	0.013351
3828	-0.071811
3824	-0.189018
3820	-0.166249
3816	-0.066518
3812	-0.056505
3808	-0.057792
3804	0.052809
3800	0.124001
3796	0.124359
3792	0.126743
3788	0.043940
3784	-0.032854
3780	-0.019240
3776	0.013089
3772	0.062632
3768	0.068283
3764	0.019264
3760	0.006890
3756	0.035905
3752	0.103378
3748	0.177621
3744	0.149202
3740	0.029587
3736	-0.013875
3732	-0.029778
3728	-0.125861
3724	-0.172996
3720	-0.136446
3716	-0.106906
3712	-0.084114
3708	-0.004434
3704	0.097298
3700	0.089240
3696	0.031304
3692	0.073122
3688	0.110626
3684	0.090837
3680	0.079989
3676	0.020956
3672	0.035667
3668	0.118374
3664	0.055480
3660	-0.023078
3656	0.058913
3652	0.153827
3648	0.148296
3644	0.096058
3640	0.046253
3636	0.057458
3632	0.085926
3628	0.071024
3624	0.051116
3620	0.052857
3616	0.046920
3612	0.014877
3608	0.068569
3604	0.181102
3600	0.177812
3596	0.098538
3592	0.049996
3588	0.067543
3584	0.069069
3580	0.029468
3576	0.088119
3572	0.163412
3568	0.107336
3564	0.018548
3560	0.025177
3556	0.085973
3552	0.114536
3548	0.091671
3544	0.047135
3540	0.011467
3536	-0.001549
3532	-0.023555
3528	-0.092029
3524	-0.120830
3520	-0.037598
3516	0.111055
3512	0.189137
3508	0.141429
3504	0.050616
3500	0.012898
3496	0.097966
3492	0.200915
3488	0.212502
3484	0.162291
3480	0.081968
3476	0.020599
3472	0.015044
3468	0.018239
3464	-0.039696
3460	-0.124287
3456	-0.076580
3452	0.096869
3448	0.126934
3444	0.008869
3440	-0.050687
3436	-0.042128
3432	-0.005102
3428	0.061249
3424	0.127387
3420	0.134301
3416	0.077939
3412	0.005197
3408	0.024580
3404	0.142121
3400	0.185418
3396	0.119924
3392	0.099515
3388	0.146150
3384	0.097513
3380	0.025534
3376	0.071573
3372	0.133132
3368	0.111532
3364	0.025725
3360	-0.019955
3356	0.016880
3352	0.007724
3348	-0.006222
3344	0.115633
3340	0.190949
3336	0.101351
3332	0.045132
3328	0.077676
3324	0.096392
3320	0.074219
3316	0.031518
3312	0.041055
3308	0.106573
3304	0.077581
3300	-0.054979
3296	-0.108623
3292	-0.053596
3288	0.017070
3284	0.074696
3280	0.099182
3276	0.071668
3272	-0.006937
3268	-0.092267
3264	-0.084376
3260	0.026154
3256	0.105309
3252	0.083088
3248	0.040578
3244	0.083661
3240	0.203776
3236	0.271630
3232	0.234556
3228	0.106120
3224	-0.016045
3220	-0.009083
3216	0.041866
3212	0.051093
3208	0.011825
3204	-0.024127
3200	0.030159
3196	0.078797
3192	0.032234
3188	-0.028419
3184	-0.025439
3180	0.004673
3176	0.018024
3172	0.056648
3168	0.095796
3164	0.087642
3160	0.066852
3156	0.059580
3152	0.073432
3148	0.093650
3144	0.086498
3140	0.070500
3136	0.061511
3132	0.021648
3128	0.026845
3124	0.042462
3120	-0.063276
3116	-0.053262
3112	0.113725
3108	0.172758
3104	0.163030
3100	0.149202
3096	0.054359
3092	-0.105452
3088	-0.141263
3084	-0.075030
3080	-0.072002
3076	-0.043606
3072	0.064063
3068	0.148510
3064	0.092768
3060	-0.013923
3056	0.021362
3052	0.101709
3048	0.106143
3044	0.085043
3040	0.058197
3036	0.062441
3032	0.090742
3028	0.060200
3024	0.022506
3020	0.016570
3016	-0.012803
3012	-0.008463
3008	0.068259
3004	0.146436
3000	0.131201
2996	0.043320
2992	0.014853
2988	0.032949
2984	0.001120
2980	-0.021648
2976	0.013971
2972	0.038957
2968	0.020861
2964	0.007438
2960	0.032353
2956	0.043916
2952	0.027346
2948	0.027298
2944	0.046682
2940	0.039887
2936	0.016236
2932	0.060629
2928	0.128102
2924	0.095224
2920	0.033593
2916	0.027203
2912	0.020217
2908	0.015425
2904	0.022101
2900	0.019216
2896	0.020575
2892	0.024914
2888	0.005435
2884	-0.041151
2880	-0.060844
2876	-0.012946
2872	0.087761
2868	0.112056
2864	0.021266
2860	0.002813
2856	0.056457
2852	0.069808
2848	0.065159
2844	0.030136
2840	-0.020551
2836	0.002694
2832	0.074863
2828	0.095438
2824	0.079560
2820	0.086593
2816	0.060391
2812	-0.040626
2808	-0.087952
2804	-0.016021
2800	0.080132
2796	0.127935
2792	0.117158
2788	0.053930
2784	-0.015139
2780	-0.027704
2776	-0.023484
2772	-0.075244
2768	-0.097656
2764	-0.035309
2760	0.006127
2756	0.018548
2752	0.042486
2748	0.040650
2744	-0.006914
2740	-0.036549
2736	0.000953
2732	0.046324
2728	0.058865
2724	0.035834
2720	0.020647
2716	0.033926
2712	0.039529
2708	0.041961
2704	0.048494
2700	0.044083
2696	0.009965
2692	0.006484
2688	0.068521
2684	0.094103
2680	0.046038
2676	-0.028181
2672	-0.062799
2668	0.005412
2664	0.088381
2660	0.095105
2656	0.076460
2652	0.084686
2648	0.089836
2644	0.089764
2640	0.097346
2636	0.019168
2632	-0.075697
2628	-0.077700
2624	-0.092864
2620	-0.126647
2616	-0.109767
2612	-0.068998
2608	-0.016617
2604	0.048637
2600	0.068616
2596	0.026535
2592	-0.015401
2588	-0.010848
2584	0.047516
2580	0.064301
2576	0.035452
2572	0.048208
2568	0.030708
2564	-0.059342
2560	-0.093746
2556	-0.007081
2552	0.075316
2548	0.063753
2544	0.053787
2540	0.095152
2536	0.115156
2532	0.105547
2528	0.067448
2524	0.033450
2520	0.066113
2516	0.114488
2512	0.099372
2508	0.063896
2504	0.125575
2500	0.216770
2496	0.223731
2492	0.145816
2488	0.021362
2484	-0.090265
2480	-0.128412
2476	-0.037622
2472	0.087499
2468	0.139880
2464	0.143647
2460	0.109076
2456	0.046944
2452	0.009298
2448	0.018763
2444	0.035858
2440	0.029993
2436	0.057721
2432	0.143456
2428	0.208353
2424	0.198268
2420	0.127148
2416	0.040698
2412	0.037407
2408	0.104546
2404	0.057530
2400	-0.032949
2396	-0.029063
2392	-0.035333
2388	-0.019240
2384	0.066828
2380	0.118637
2376	0.117301
2372	0.090527
2368	0.056004
2364	0.049567
2360	0.038957
2356	0.007748
2352	0.003504
2348	0.018262
2344	0.040602
2340	0.118446
2336	0.222277
2332	0.234174
2328	0.197887
2324	0.193858
2320	0.179767
2316	0.201964
2312	0.275158
2308	0.276947
2304	0.249648
2300	0.298690
2296	0.375628
2292	0.450277
2288	0.526738
2284	0.601434
2280	0.641894
2276	0.639295
2272	0.659346
2268	0.732612
2264	0.847649
2260	0.948476
2256	1.022982
2252	1.130080
2248	1.276946
2244	1.418638
2240	1.541399
2236	1.703262
2232	1.890492
2228	2.060580
2224	2.254009
2220	2.449440
2216	2.653312
2212	2.911424
2208	3.169107
2204	3.410959
2200	3.656959
2196	3.907442
2192	4.178285
2188	4.478836
2184	4.813575
2180	5.139565
2176	5.450129
2172	5.811738
2168	6.266498
2164	6.721901
2160	7.025313
2156	7.242012
2152	7.555103
2148	8.039236
2144	8.629894
2140	9.172463
2136	9.622669
2132	10.0919
2128	10.5826
2124	10.9902
2120	11.3924
2116	11.9117
2112	12.4832
2108	12.9935
2104	13.4547
2100	13.9457
2096	14.4418
2092	14.9258
2088	15.4412
2084	15.903
2080	16.2943
2076	16.7618
2072	17.3574
2068	17.8922
2064	18.2557
2060	18.6798
2056	19.1763
2052	19.5754
2048	19.9476
2044	20.3423
2040	20.7656
2036	21.2249
2032	21.6493
2028	22.0145
2024	22.365
2020	22.7134
2016	23.0673
2012	23.453
2008	23.8646
2004	24.2742
2000	24.6182
1996	24.8915
1992	25.1318
1988	25.3965
1984	25.7038
1980	25.9911
1976	26.2825
1972	26.5689
1968	26.845
1964	27.1163
1960	27.327
1956	27.485
1952	27.6654
1948	27.9043
1944	28.122
1940	28.3076
1936	28.5075
1932	28.7167
1928	28.9389
1924	29.1516
1920	29.3286
1916	29.4903
1912	29.6771
1908	29.8304
1904	29.9264
1900	30.0698
1896	30.2326
1892	30.3406
1888	30.4703
1884	30.639
1880	30.7972
1876	30.9232
1872	31.0025
1868	31.0771
1864	31.1841
1860	31.3158
1856	31.4179
1852	31.456
1848	31.4706
1844	31.4931
1840	31.568
1836	31.699
1832	31.8218
1828	31.9291
1824	32.0423
1820	32.1295
1816	32.1414
1812	32.1227
1808	32.1605
1804	32.2355
1800	32.2694
1796	32.2252
1792	32.2069
1788	32.2837
1784	32.3659
1780	32.4342
1776	32.5461
1772	32.6787
1768	32.7408
1764	32.747
1760	32.7449
1756	32.712
1752	32.6554
1748	32.6057
1744	32.579
1740	32.6113
1736	32.7322
1732	32.8441
1728	32.8523
1724	32.8417
1720	32.892
1716	32.9638
1712	32.9889
1708	32.9509
1704	32.8724
1700	32.8001
1696	32.7741
1692	32.7763
1688	32.7859
1684	32.8592
1680	32.9946
1676	33.0824
1672	33.1214
1668	33.1449
1664	33.145
1660	33.0884
1656	32.9817
1652	32.935
1648	32.9332
1644	32.9107
1640	32.9058
1636	32.9522
1632	33.0077
1628	33.0468
1624	33.1139
1620	33.1765
1616	33.1688
1612	33.0728
1608	32.9354
1604	32.8591
1600	32.8286
1596	32.7932
1592	32.8194
1588	32.895
1584	32.9358
1580	32.9785
1576	33.0583
1572	33.1183
1568	33.1299
1564	33.118
1560	33.0584
1556	32.9329
1552	32.7934
1548	32.6837
1544	32.6628
1540	32.741
1536	32.8592
1532	32.9607
1528	33.0267
1524	33.0852
1520	33.1197
1516	33.0907
1512	32.9933
1508	32.8758
1504	32.7924
1500	32.6936
1496	32.5573
1492	32.5058
1488	32.5056
1484	32.5265
1480	32.6617
1476	32.8012
1472	32.8529
1468	32.8754
1464	32.8348
1460	32.6752
1456	32.5152
1452	32.4896
1448	32.4941
1444	32.4043
1440	32.4066
1436	32.569
1432	32.6578
1428	32.6601
1424	32.7009
1420	32.7577
1416	32.7657
1412	32.7104
1408	32.6013
1404	32.4366
1400	32.3056
1396	32.2987
1392	32.3705
1388	32.4208
1384	32.4767
1380	32.5999
1376	32.6758
1372	32.6711
1368	32.6397
1364	32.5807
1360	32.5404
1356	32.4801
1352	32.3097
1348	32.1011
1344	31.9989
1340	32.0401
1336	32.115
1332	32.1714
1328	32.2762
1324	32.4365
1320	32.5558
1316	32.4934
1312	32.3117
1308	32.1863
1304	32.0993
1300	31.9918
1296	31.8812
1292	31.8253
1288	31.8393
1284	31.8874
1280	31.982
1276	32.1247
1272	32.2594
1268	32.318
1264	32.2945
1260	32.1954
1256	32.0128
1252	31.7846
1248	31.5743
1244	31.4749
1240	31.4937
1236	31.531
1232	31.5736
1228	31.7104
1224	31.9237
1220	32.0663
1216	32.0486
1212	31.9557
1208	31.8395
1204	31.6684
1200	31.5223
1196	31.4401
1192	31.3318
1188	31.2313
1184	31.2324
1180	31.3534
1176	31.5194
1172	31.618
1168	31.6409
1164	31.6442
1160	31.6397
1156	31.545
1152	31.3837
1148	31.2392
1144	31.0938
1140	30.9773
1136	30.9476
1132	31.007
1128	31.075
1124	31.1395
1120	31.305
1116	31.4645
1112	31.4933
1108	31.459
1104	31.3333
1100	31.1451
1096	30.9263
1092	30.654
1088	30.4844
1084	30.4669
1080	30.5426
1076	30.7271
1072	30.9145
1068	31.0294
1064	31.1278
1060	31.1967
1056	31.1336
1052	30.8717
1048	30.5825
1044	30.4227
1040	30.3102
1036	30.2436
1032	30.2463
1028	30.2521
1024	30.236
1020	30.2997
1016	30.5193
1012	30.7069
1008	30.6002
1004	30.3483
1000	30.2627
996	 30.2187
992	 29.9855
988	 29.6837
984	 29.5683
980	 29.6297
976	 29.6895
972	 29.7747
968	 29.8817
964	 29.8857
960	 29.9216
956	 30.0339
952	 29.947
948	 29.6974
944	 29.5215
940	 29.3558
936	 29.1748
932	 29.0675
928	 28.9775
924	 28.9623
920	 29.0987
916	 29.2786
912	 29.4165
908	 29.4391
904	 29.3176
900	 29.1775
896	 29.0812
892	 28.911
888	 28.576
884	 28.2891
880	 28.2263
876	 28.2252
872	 28.2867
868	 28.4773
864	 28.6878
860	 28.8358
856	 28.8826
852	 28.7708
848	 28.5563
844	 28.3601
840	 28.1614
836	 27.9159
832	 27.6494
828	 27.5322
824	 27.6077
820	 27.6909
816	 27.6901
812	 27.6195
808	 27.6522
804	 27.8296
800	 27.8886
796	 27.6762
792	 27.3974
788	 27.2246
784	 27.025
780	 26.7818
776	 26.6914
772	 26.7642
768	 26.868
764	 26.9642
760	 27.0355
756	 27.0611
752	 26.9435
748	 26.6252
744	 26.294
740	 26.2285
736	 26.3426
732	 26.2251
728	 25.8816
724	 25.5221
720	 25.2675
716	 25.2835
712	 25.514
708	 25.7569
704	 25.8496
700	 25.7836
696	 25.6833
692	 25.6374
688	 25.5172
684	 25.1589
680	 24.7384
676	 24.4341
672	 24.2789
668	 24.2638
664	 24.3171
660	 24.3854
656	 24.4935
652	 24.6413
648	 24.7183
644	 24.6594
640	 24.53
636	 24.3193
632	 24.0433
628	 23.7881
624	 23.4649
620	 23.1774
616	 23.0684
612	 23.0972
608	 23.2342
604	 23.2574
600	 23.2902
596	 23.4363
592	 23.31
588	 23.0617
584	 22.9549
580	 22.688
576	 22.1462
572	 21.8775
568	 22.0085
564	 22.0701
560	 22.011
556	 21.8401
552	 21.7278
548	 21.9617
544	 22.0725
540	 21.9324
536	 21.9133
532	 21.9389
528	 21.9333
524	 21.6197
520	 20.8748
516	 20.2117
512	 20.0352
508	 20.1857
504	 20.281
500	 20.2417
496	 20.0549
492	 19.7246
488	 19.5922
484	 19.7302
480	 19.4933
476	 18.8037
472	 18.5502
468	 18.7089
464	 18.7097
460	 18.6807
456	 18.6139
452	 19.0802
448	 19.9194
444	 19.6607
440	 18.9977
436	 18.6512
432	 17.7118
428	 16.1728
424	 14.6839
420	 13.7477
416	 14.905
412	 18.1037
408	 17.833
404	 10.472
400	 5.779552
396	 15.7667
392	 26.8289
388	 19.6507
384	 11.9158
380	 18.8263
376	 23.28
372	 14.6543
370	 7.647943