File: Bakgrunnsmateriale/MATLAB/FTIR/ftir_data/LPE453/Mapping_121/LPE453_t87_cm-1.asc
PE IR       SPECTRUM    SPECTRUM    ASCII       PEDS        1.60
  -1
LP6BDB~1.ASC
17/05/16
21:27:55.00
17/05/16
21:27:55.00
tln
$LPE453_t0087$<tbV0>[-10.4,5.2,8.0,0.0,27,1,0]
370
64

2002,4.07
MIRTGS : RIGHTBACK : INTERNAL 2
MIR : ON : INTERNAL 2
OPTKBR

0.200000
8
8.000000
FILLER
RATIO
SPECTRUM
UNLOCKED 256

DOUBLE
64
COMBINED
1
0
0

1.000000
RATIO

1
0
TRUE
51149
0
LEFT NOT FITTED RIGHT NOT FITTED 0
NONE
NONE
15600
12
4.427000
51148
TRUE
1 0 8 72 0 0 0 0

15798

#HDR
-1
-1
#GR
CM-1
%T
2.38419e-05
0.0
5000
-1.000000
4631
8
51.8504
-7.566308
#DATA
5000	-0.188159
4996	0.247192
4992	0.408720
4988	0.176382
4984	0.013279
4980	-0.133609
4976	-0.207138
4972	-0.094580
4968	-0.136709
4964	-0.330781
4960	-0.137925
4956	0.298905
4952	0.348329
4948	0.182056
4944	0.282692
4940	0.525879
4936	0.507450
4932	0.264048
4928	0.097417
4924	0.114178
4920	0.156354
4916	-0.017237
4912	-0.204467
4908	-0.160741
4904	-0.043749
4900	-0.041341
4896	-0.113320
4892	-0.103592
4888	0.033903
4884	0.053048
4880	-0.011062
4876	0.192570
4872	0.311899
4868	0.072121
4864	-0.073003
4860	-0.040125
4856	0.007200
4852	0.124406
4848	0.222897
4844	0.049662
4840	-0.280666
4836	-0.409674
4832	-0.263023
4828	-0.002455
4824	0.181603
4820	0.287747
4816	0.357794
4812	0.345420
4808	0.241065
4804	0.148582
4800	0.115823
4796	0.156855
4792	0.210642
4788	0.204372
4784	0.115323
4780	0.028705
4776	0.118422
4772	0.142192
4768	-0.137448
4764	-0.440645
4760	-0.509691
4756	-0.320529
4752	0.001382
4748	0.241303
4744	0.232982
4740	0.193691
4736	0.273299
4732	0.284552
4728	0.188279
4724	0.134658
4720	0.473785
4716	0.974464
4712	1.106667
4708	0.987935
4704	0.555610
4700	0.044465
4696	0.168633
4692	0.548315
4688	0.600481
4684	0.469589
4680	0.073599
4676	-0.066852
4672	0.371050
4668	0.499773
4664	0.430011
4660	0.470042
4656	0.528430
4652	0.876021
4648	1.111507
4644	1.106572
4640	0.911116
4636	0.359034
4632	0.053834
4628	0.533008
4624	1.321744
4620	1.841783
4616	1.520395
4612	0.554990
4608	0.504326
4604	1.138377
4600	0.812935
4596	0.225377
4592	0.563144
4588	1.259136
4584	1.658415
4580	1.294016
4576	0.775241
4572	1.073741
4568	1.462769
4564	1.328897
4560	0.907635
4556	0.469875
4552	0.394988
4548	0.817465
4544	1.280665
4540	1.132249
4536	0.620937
4532	-0.311946
4528	-1.068949
4524	-0.745844
4520	-0.918483
4516	-4.215645
4512	-7.081317
4508	-7.189297
4504	-1.414489
4500	10.5943
4496	17.6261
4492	12.1018
4488	6.319332
4484	6.232142
4480	3.014445
4476	-0.336503
4472	-1.104617
4468	-1.301312
4464	-0.926780
4460	0.009036
4456	0.394773
4452	-0.098013
4448	-0.517797
4444	-0.537133
4440	-0.483870
4436	-0.508689
4432	-0.417900
4428	-0.054359
4424	0.206255
4420	-0.030779
4416	-0.272297
4412	-0.283217
4408	-0.140571
4404	0.130629
4400	0.317192
4396	0.264239
4392	0.114774
4388	0.097131
4384	0.222349
4380	0.376677
4376	0.508904
4372	0.569438
4368	0.515294
4364	0.448107
4360	0.238513
4356	0.042223
4352	0.134468
4348	0.202941
4344	0.054383
4340	-0.041174
4336	0.173163
4332	0.451922
4328	0.490784
4324	0.477480
4320	0.504899
4316	0.480508
4312	0.499296
4308	0.444722
4304	0.163674
4300	-0.062727
4296	-0.035429
4292	0.035715
4288	-0.035929
4284	-0.110650
4280	0.034904
4276	0.088930
4272	-0.118136
4268	-0.167417
4264	-0.141668
4260	-0.141286
4256	0.050115
4252	0.202536
4248	0.097084
4244	0.009608
4240	0.018000
4236	0.054931
4232	0.180506
4228	0.204157
4224	0.134205
4220	0.136828
4216	0.191807
4212	0.198650
4208	0.121593
4204	0.070714
4200	0.075435
4196	0.229167
4192	0.397515
4188	0.212430
4184	-0.154733
4180	-0.341272
4176	-0.252318
4172	0.027108
4168	0.270485
4164	0.293493
4160	0.103926
4156	-0.073313
4152	-0.019121
4148	0.161170
4144	0.284433
4140	0.266623
4136	0.163912
4132	0.131916
4128	0.038981
4124	-0.088024
4120	-0.008249
4116	0.020003
4112	-0.096940
4108	-0.057220
4104	0.084185
4100	0.144648
4096	0.161147
4092	0.218749
4088	0.256466
4084	0.236725
4080	0.194954
4076	0.111746
4072	0.028991
4068	0.013923
4064	-0.033593
4060	-0.114250
4056	-0.125694
4052	-0.080442
4048	0.038433
4044	0.106763
4040	0.011634
4036	-0.104761
4032	-0.042009
4028	0.099635
4024	0.041341
4020	-0.076842
4016	-0.006794
4012	0.109958
4008	0.130558
4004	0.121855
4000	0.155687
3996	0.146770
3992	0.033593
3988	0.014138
3984	0.040197
3980	-0.007390
3976	0.015783
3972	0.032734
3968	-0.000119
3964	0.057721
3960	0.167989
3956	0.174236
3952	0.056266
3948	-0.008344
3944	0.077795
3940	0.129127
3936	0.074481
3932	0.062704
3928	0.074028
3924	0.030183
3920	-0.019550
3916	0.002598
3912	0.093317
3908	0.161862
3904	0.137591
3900	0.068187
3896	0.056862
3892	0.108551
3888	0.101685
3884	-0.014901
3880	-0.097870
3876	-0.039362
3872	0.081181
3868	0.172019
3864	0.170326
3860	0.127553
3856	0.159978
3852	0.130820
3848	0.023865
3844	0.001764
3840	0.075268
3836	0.160479
3832	0.165724
3828	0.160837
3824	0.169539
3820	0.067949
3816	-0.037455
3812	-0.003504
3808	0.019955
3804	-0.033092
3800	-0.040054
3796	0.001406
3792	0.063776
3788	0.145053
3784	0.181746
3780	0.169968
3776	0.206685
3772	0.210022
3768	0.030589
3764	-0.142931
3760	-0.099539
3756	0.049924
3752	0.136828
3748	0.111937
3744	0.063300
3740	0.085592
3736	0.047397
3732	-0.115752
3728	-0.163841
3724	-0.018024
3720	0.146317
3716	0.237965
3712	0.198864
3708	0.054621
3704	0.002121
3700	0.100278
3696	0.171542
3692	0.078225
3688	-0.071525
3684	-0.024056
3680	0.111055
3676	0.068759
3672	-0.019836
3668	0.000190
3664	0.066280
3660	0.105667
3656	0.160598
3652	0.205969
3648	0.158190
3644	0.133776
3640	0.147414
3636	0.057721
3632	-0.019121
3628	0.035524
3624	0.100874
3620	0.106573
3616	0.093054
3612	0.073075
3608	0.053811
3604	0.073361
3600	0.110554
3596	0.120544
3592	0.142550
3588	0.186467
3584	0.145006
3580	0.057148
3576	0.030183
3572	0.034260
3568	0.061035
3564	0.110602
3560	0.112605
3556	0.082707
3552	0.097131
3548	0.175738
3544	0.254058
3540	0.242185
3536	0.253725
3532	0.272202
3528	0.134682
3524	0.023746
3520	0.077795
3516	0.133585
3512	0.117802
3508	0.059676
3504	0.030565
3500	0.055646
3496	0.060820
3492	0.019311
3488	-0.034308
3484	-0.028467
3480	-0.020098
3476	-0.088286
3472	-0.085186
3468	0.043249
3464	0.100207
3460	0.092005
3456	0.112986
3452	0.082707
3448	0.072813
3444	0.193619
3440	0.304841
3436	0.266957
3432	0.145244
3428	0.048089
3424	0.021147
3420	0.026917
3416	0.041675
3412	0.046443
3408	0.013756
3404	0.032877
3400	0.139689
3396	0.224137
3392	0.132513
3388	-0.019049
3384	-0.000739
3380	0.062155
3376	0.047326
3372	-0.003361
3368	-0.048279
3364	-0.045967
3360	0.005769
3356	0.015878
3352	-0.082969
3348	-0.153064
3344	-0.087118
3340	0.036406
3336	0.114607
3332	0.170230
3328	0.192236
3324	0.065779
3320	-0.029087
3316	0.016736
3312	0.025081
3308	0.006461
3304	-0.010228
3300	-0.040864
3296	0.023174
3292	0.179433
3288	0.219273
3284	0.123453
3280	0.065684
3276	0.040864
3272	0.000500
3268	-0.010466
3264	-0.002670
3260	0.010204
3256	0.064039
3252	0.098800
3248	0.037193
3244	0.002408
3240	0.045895
3236	0.049519
3232	0.020480
3228	0.018548
3224	0.030899
3220	0.040078
3216	0.065231
3212	0.062584
3208	0.008416
3204	0.002336
3200	0.060892
3196	0.097966
3192	0.111532
3188	0.131750
3184	0.103783
3180	0.040316
3176	0.027322
3172	0.037074
3168	0.019550
3164	0.005149
3160	0.055718
3156	0.089430
3152	0.024223
3148	0.014615
3144	0.033903
3140	-0.071597
3136	-0.189399
3132	-0.152134
3128	0.026035
3124	0.188612
3120	0.232529
3116	0.188589
3112	0.094032
3108	-0.004982
3104	-0.027370
3100	0.015974
3096	0.023126
3092	-0.026774
3088	-0.033664
3084	0.049781
3080	0.128650
3076	0.112557
3072	0.042581
3068	0.013518
3064	0.029993
3060	0.068807
3056	0.111246
3052	0.075626
3048	0.020432
3044	0.026345
3040	0.011467
3036	-0.029230
3032	-0.022792
3028	0.028252
3024	0.042319
3020	-0.005435
3016	-0.025558
3012	-0.014257
3008	-0.002074
3004	0.056648
3000	0.118231
2996	0.128054
2992	0.131678
2988	0.164031
2984	0.188231
2980	0.157094
2976	0.090980
2972	0.041484
2968	0.027966
2964	0.030183
2960	0.036096
2956	0.051760
2952	0.058197
2948	0.038909
2944	0.009274
2940	0.046515
2936	0.156569
2932	0.174307
2928	0.099873
2924	0.055313
2920	0.090050
2916	0.210475
2912	0.233817
2908	0.112199
2904	0.053715
2900	0.072026
2896	0.054407
2892	0.008273
2888	-0.023674
2884	-0.063276
2880	-0.109958
2876	-0.127625
2872	-0.119423
2868	-0.086903
2864	-0.054955
2860	-0.040531
2856	-0.014519
2852	-0.019001
2848	-0.060868
2844	-0.081110
2840	-0.086736
2836	-0.059199
2832	-0.008606
2828	-0.003194
2824	0.012946
2820	0.043320
2816	0.017380
2812	-0.008893
2808	0.022196
2804	0.059366
2800	0.023841
2796	-0.012254
2792	0.037121
2788	0.122809
2784	0.198721
2780	0.222635
2776	0.183415
2772	0.099110
2768	0.021290
2764	0.028133
2760	0.091218
2756	0.088882
2752	0.027871
2748	0.014233
2744	0.041532
2740	0.029921
2736	-0.043272
2732	-0.112462
2728	-0.127005
2724	-0.098681
2720	-0.038528
2716	0.023174
2712	0.046277
2708	0.034332
2704	0.021982
2700	0.017476
2696	0.003957
2692	0.013971
2688	0.058317
2684	0.084614
2680	0.070524
2676	0.029993
2672	0.022792
2668	0.088691
2664	0.133609
2660	0.096845
2656	0.065779
2652	0.065422
2648	0.073337
2644	0.090622
2640	0.102496
2636	0.109744
2632	0.095176
2628	0.020766
2624	-0.082540
2620	-0.088357
2616	-0.001525
2612	0.044035
2608	0.015211
2604	-0.010037
2600	0.036907
2596	0.113201
2592	0.123357
2588	0.041866
2584	-0.041222
2580	-0.027370
2576	0.047135
2572	0.067400
2568	0.040984
2564	0.001788
2560	-0.060057
2556	-0.068974
2552	-0.026965
2548	0.000476
2544	0.022125
2540	0.037670
2536	0.034856
2532	0.025439
2528	0.017094
2524	0.028824
2520	0.053000
2516	0.060057
2512	0.078034
2508	0.111889
2504	0.127911
2500	0.077033
2496	-0.050663
2492	-0.129795
2488	-0.084352
2484	-0.005888
2480	0.010228
2476	-0.016593
2472	-0.008368
2468	0.041413
2464	0.092673
2460	0.112557
2456	0.089192
2452	0.047159
2448	0.028824
2444	0.028705
2440	0.032782
2436	0.077962
2432	0.188422
2428	0.286865
2424	0.294613
2420	0.244832
2416	0.182318
2412	0.142240
2408	0.135207
2404	0.137162
2400	0.092673
2396	-0.004434
2392	-0.004863
2388	0.065875
2384	0.028109
2380	-0.018882
2376	0.045037
2372	0.081706
2368	0.062966
2364	0.081110
2360	0.116229
2356	0.144886
2352	0.168347
2348	0.166797
2344	0.154829
2340	0.163984
2336	0.176858
2332	0.223636
2328	0.308966
2324	0.373721
2320	0.395178
2316	0.388121
2312	0.416374
2308	0.469183
2304	0.487732
2300	0.498843
2296	0.564432
2292	0.664806
2288	0.756335
2284	0.809860
2280	0.827288
2276	0.889825
2272	1.024603
2268	1.159715
2264	1.234912
2260	1.297783
2256	1.401185
2252	1.526236
2248	1.676297
2244	1.862573
2240	2.039098
2236	2.221727
2232	2.445650
2228	2.637195
2224	2.806854
2220	3.028869
2216	3.288078
2212	3.541064
2208	3.765273
2204	3.986740
2200	4.274106
2196	4.637336
2192	4.983901
2188	5.244898
2184	5.470705
2180	5.758428
2176	6.142973
2172	6.561756
2168	6.951069
2164	7.366347
2160	7.853984
2156	8.327221
2152	8.743453
2148	9.160447
2144	9.608578
2140	10.1035
2136	10.5885
2132	10.9682
2128	11.3254
2124	11.7573
2120	12.2015
2116	12.6738
2112	13.2052
2108	13.7593
2104	14.3557
2100	14.9048
2096	15.3304
2092	15.7592
2088	16.2658
2084	16.7489
2080	17.1794
2076	17.6152
2072	18.0844
2068	18.6121
2064	19.0802
2060	19.487
2056	19.9743
2052	20.4734
2048	20.9543
2044	21.428
2040	21.848
2036	22.2485
2032	22.6168
2028	22.9569
2024	23.337
2020	23.7328
2016	24.0765
2012	24.4206
2008	24.83
2004	25.2341
2000	25.5703
1996	25.8764
1992	26.1846
1988	26.4889
1984	26.7915
1980	27.0522
1976	27.2439
1972	27.477
1968	27.7989
1964	28.0761
1960	28.2521
1956	28.4205
1952	28.6774
1948	28.9803
1944	29.2197
1940	29.4253
1936	29.6183
1932	29.7602
1928	29.9252
1924	30.1191
1920	30.3035
1916	30.4688
1912	30.5771
1908	30.6893
1904	30.8577
1900	31.0451
1896	31.2198
1892	31.3502
1888	31.4538
1884	31.5508
1880	31.626
1876	31.7071
1872	31.8353
1868	31.9666
1864	32.0702
1860	32.1555
1856	32.2197
1852	32.3305
1848	32.449
1844	32.5042
1840	32.567
1836	32.6854
1832	32.8288
1828	32.9228
1824	32.969
1820	32.9837
1816	32.9579
1812	32.9718
1808	33.0384
1804	33.0998
1800	33.1733
1796	33.2348
1792	33.2735
1788	33.3362
1784	33.4039
1780	33.4294
1776	33.4506
1772	33.5307
1768	33.5963
1764	33.5937
1760	33.5663
1756	33.5471
1752	33.5415
1748	33.5422
1744	33.5695
1740	33.5997
1736	33.5771
1732	33.5487
1728	33.6209
1724	33.7514
1720	33.8283
1716	33.8276
1712	33.7678
1708	33.722
1704	33.6998
1700	33.6757
1696	33.7176
1692	33.8037
1688	33.8413
1684	33.831
1680	33.8098
1676	33.8248
1672	33.9
1668	33.9442
1664	33.9253
1660	33.9257
1656	33.9166
1652	33.8705
1648	33.8469
1644	33.8386
1640	33.8297
1636	33.8385
1632	33.8376
1628	33.8611
1624	33.9427
1620	33.9812
1616	33.9562
1612	33.9522
1608	33.9864
1604	34.0114
1600	33.9859
1596	33.9382
1592	33.9223
1588	33.9612
1584	33.9937
1580	33.9059
1576	33.7656
1572	33.7431
1568	33.836
1564	33.9494
1560	34.0483
1556	34.086
1552	34.0552
1548	34.0283
1544	33.984
1540	33.8892
1536	33.8062
1532	33.7693
1528	33.7557
1524	33.7339
1520	33.7199
1516	33.7497
1512	33.7876
1508	33.8245
1504	33.8443
1500	33.7902
1496	33.7436
1492	33.8232
1488	33.8606
1484	33.7289
1480	33.5885
1476	33.5589
1472	33.6112
1468	33.6232
1464	33.5745
1460	33.5957
1456	33.624
1452	33.5516
1448	33.5553
1444	33.6679
1440	33.6947
1436	33.6335
1432	33.6458
1428	33.7015
1424	33.6939
1420	33.6809
1416	33.6327
1412	33.5088
1408	33.3897
1404	33.3214
1400	33.3336
1396	33.4014
1392	33.4592
1388	33.5578
1384	33.7203
1380	33.7995
1376	33.7235
1372	33.5933
1368	33.5287
1364	33.4886
1360	33.369
1356	33.2544
1352	33.253
1348	33.295
1344	33.321
1340	33.3932
1336	33.5082
1332	33.544
1328	33.5046
1324	33.516
1320	33.5574
1316	33.5494
1312	33.4845
1308	33.3978
1304	33.3176
1300	33.2045
1296	33.0716
1292	33.0056
1288	33.031
1284	33.1441
1280	33.2951
1276	33.3696
1272	33.4099
1268	33.4442
1264	33.415
1260	33.4454
1256	33.4918
1252	33.3919
1248	33.2658
1244	33.2251
1240	33.1921
1236	33.1186
1232	33.0406
1228	33.013
1224	33.0756
1220	33.163
1216	33.2444
1212	33.3724
1208	33.4836
1204	33.4987
1200	33.4227
1196	33.3149
1192	33.2268
1188	33.1409
1184	33.046
1180	32.9657
1176	32.8657
1172	32.7528
1168	32.7021
1164	32.8001
1160	33.0355
1156	33.1992
1152	33.2257
1148	33.2308
1144	33.1919
1140	33.0795
1136	32.9813
1132	32.933
1128	32.8346
1124	32.606
1120	32.4197
1116	32.472
1112	32.6476
1108	32.8428
1104	33.0215
1100	33.0758
1096	33.0258
1092	33.0089
1088	33.0635
1084	33.0867
1080	33.0415
1076	32.9701
1072	32.849
1068	32.6646
1064	32.5295
1060	32.4948
1056	32.4922
1052	32.4988
1048	32.568
1044	32.7101
1040	32.825
1036	32.8615
1032	32.8742
1028	32.9067
1024	32.9056
1020	32.7246
1016	32.4064
1012	32.1952
1008	32.092
1004	32.0267
1000	32.0571
996	 32.1027
992	 32.0834
988	 32.1165
984	 32.3148
980	 32.5365
976	 32.6039
972	 32.5866
968	 32.5788
964	 32.5427
960	 32.4109
956	 32.2085
952	 31.9789
948	 31.7702
944	 31.7004
940	 31.7037
936	 31.6619
932	 31.7192
928	 31.8937
924	 32.0099
920	 32.12
916	 32.2602
912	 32.2838
908	 32.2446
904	 32.1842
900	 31.914
896	 31.5406
892	 31.3275
888	 31.2289
884	 31.2124
880	 31.2682
876	 31.246
872	 31.2236
868	 31.3178
864	 31.4294
860	 31.4748
856	 31.5789
852	 31.7981
848	 31.8259
844	 31.5968
840	 31.375
836	 31.1854
832	 30.943
828	 30.7525
824	 30.6459
820	 30.614
816	 30.6499
812	 30.6473
808	 30.6359
804	 30.7
800	 30.9446
796	 31.2169
792	 31.2384
788	 31.0599
784	 30.8604
780	 30.6961
776	 30.4666
772	 30.2128
768	 30.0149
764	 29.8065
760	 29.6833
756	 29.7779
752	 29.9444
748	 29.9747
744	 30.0111
740	 30.3014
736	 30.6108
732	 30.6131
728	 30.3877
724	 30.1015
720	 29.7948
716	 29.47
712	 29.2114
708	 29.1288
704	 29.1878
700	 29.2914
696	 29.3638
692	 29.3237
688	 29.2611
684	 29.2448
680	 29.2713
676	 29.3725
672	 29.4207
668	 29.3796
664	 29.2812
660	 29.0939
656	 28.8182
652	 28.5025
648	 28.2881
644	 28.2199
640	 28.2066
636	 28.1667
632	 28.0888
628	 28.1346
624	 28.3728
620	 28.5036
616	 28.551
612	 28.6
608	 28.2475
604	 27.7126
600	 27.5129
596	 27.5194
592	 27.4598
588	 27.329
584	 27.2178
580	 27.1766
576	 27.3265
572	 27.4189
568	 27.1937
564	 27.035
560	 27.0686
556	 27.0867
552	 27.1961
548	 27.3052
544	 27.0877
540	 26.5624
536	 25.9828
532	 25.6418
528	 25.6777
524	 25.8825
520	 25.9651
516	 25.742
512	 25.4687
508	 25.4825
504	 25.5921
500	 25.6351
496	 25.6118
492	 25.5787
488	 25.5755
484	 25.0616
480	 24.1423
476	 23.733
472	 23.8193
468	 23.8472
464	 23.7599
460	 23.8985
456	 24.1069
452	 24.0817
448	 24.0886
444	 24.6585
440	 25.3065
436	 25.1725
432	 24.4143
428	 23.865
424	 23.8155
420	 23.6836
416	 23.8869
412	 24.3361
408	 25.269
404	 28.0022
400	 31.2823
396	 33.341
392	 29.9511
388	 21.5026
384	 19.0885
380	 33.4764
376	 42.7246
372	 41.4423
370	 51.8504