File: Bakgrunnsmateriale/MATLAB/FTIR/ftir_data/LPE453/Mapping_121/LPE453_t18.asc
PE IR       SPECTRUM    SPECTRUM    ASCII       PEDS        1.60
  -1
LPE799~1.ASC
17/05/16
15:47:04.00
17/05/16
15:47:30.00
tln
$LPE453_t0018$<tbV0>[-2.6,-10.4,8.0,0.0,27,1,0]
27.028
64

2002,4.07
MIRTGS : RIGHTBACK : INTERNAL 2
MIR : ON : INTERNAL 2
OPTKBR

0.200000
8
8.000000
FILLER
RATIO
SPECTRUM
UNLOCKED 256

DOUBLE
64
COMBINED
1
0
0

0.002000
RATIO

1
0
TRUE
51149
0
LEFT NOT FITTED RIGHT NOT FITTED 0
NONE
NONE
15600
12
4.427000
51148
TRUE
1 0 8 72 0 0 0 0

15798

#HDR
-1
-1
#GR
µM
%T
2.38419e-05
0.0
2.000000
0.002000
12515
8
42.5883
-8.107309
#DATA
2.000000	 0.158143
2.018000	 0.768161
2.036000	 -0.260615
2.054000	 0.326728
2.072000	 0.029336
2.090000	 0.288464
2.108000	 0.016399
2.126000	 0.329502
2.144000	 0.557619
2.162000	 0.264981
2.180000	 1.160617
2.198000	 0.545236
2.216000	 4.055365
2.234000	 1.085987
2.252000	 1.132790
2.270000	 0.632415
2.288000	 0.548530
2.306000	 0.476517
2.324000	 -0.131473
2.342000	 0.318480
2.360000	 0.152426
2.378000	 0.189439
2.396000	 -0.086903
2.414000	 0.178713
2.432000	 0.312583
2.450000	 0.012197
2.468000	 -0.136955
2.486000	 -0.159987
2.504000	 0.167115
2.522000	 0.084225
2.540000	 0.103699
2.558000	 0.071822
2.576000	 0.027250
2.594000	 -0.070323
2.612000	 0.077677
2.630000	 0.122388
2.648000	 -0.002366
2.666000	 -0.079190
2.684000	 0.086399
2.702000	 0.053436
2.720000	 0.185713
2.738000	 -0.113776
2.756000	 0.281690
2.774000	 0.159349
2.792000	 0.063454
2.810000	 0.038977
2.828000	 0.115542
2.846000	 0.176796
2.864000	 0.039634
2.882000	 0.096191
2.900000	 0.106856
2.918000	 0.029601
2.936000	 0.223604
2.954000	 -0.001882
2.972000	 0.097975
2.990000	 0.139884
3.008000	 0.116571
3.026000	 0.073669
3.044000	 0.052290
3.062000	 0.030490
3.080000	 0.063175
3.098000	 -0.065226
3.116000	 -0.081485
3.134000	 0.088578
3.152000	 0.166554
3.170000	 -0.000438
3.188000	 0.080116
3.206000	 -0.107965
3.224000	 0.000882
3.242000	 -0.061601
3.260000	 0.030302
3.278000	 0.010352
3.296000	 -0.022468
3.314000	 0.071919
3.332000	 -0.005436
3.350000	 0.010265
3.368000	 0.068206
3.386000	 0.060103
3.404000	 0.021722
3.422000	 -0.026215
3.440000	 0.144279
3.458000	 0.012311
3.476000	 -0.096339
3.494000	 0.152482
3.512000	 0.023670
3.530000	 -0.004792
3.548000	 -0.050383
3.566000	 0.024744
3.584000	 0.056213
3.602000	 0.043132
3.620000	 -0.065486
3.638000	 -0.027613
3.656000	 0.102370
3.674000	 -0.031991
3.692000	 0.011434
3.710000	 0.085618
3.728000	 0.048097
3.746000	 0.134799
3.764000	 0.040665
3.782000	 0.118323
3.800000	 -0.066189
3.818000	 0.114804
3.836000	 0.088294
3.854000	 0.182651
3.872000	 0.044633
3.890000	 -0.006331
3.908000	 0.090355
3.926000	 0.089093
3.944000	 -0.021317
3.962000	 -0.032668
3.980000	 0.018708
3.998000	 -0.024966
4.016000	 0.140954
4.034000	 0.001064
4.052000	 -0.024605
4.070000	 0.103594
4.088000	 0.003666
4.106000	 -0.271151
4.124000	 -0.080616
4.141999	 0.075041
4.160000	 0.102042
4.178000	 0.007729
4.196000	 -0.028934
4.214000	 0.210344
4.232000	 -0.013967
4.250000	 0.035622
4.268000	 0.222650
4.286000	 0.154571
4.304000	 0.298718
4.322000	 0.345072
4.340000	 0.493518
4.358000	 0.584853
4.375999	 0.681165
4.394000	 0.910109
4.412000	 1.074883
4.430000	 1.298415
4.448000	 1.708292
4.466000	 2.033617
4.484000	 2.579687
4.502000	 3.046834
4.520000	 3.499113
4.538000	 4.045076
4.556000	 4.720036
4.574000	 5.490216
4.592000	 6.256049
4.609999	 7.157536
4.628000	 8.148990
4.646000	 9.092802
4.664000	 10.1211
4.682000	 10.8401
4.700000	 12.0556
4.718000	 12.9828
4.736000	 13.9733
4.754000	 15.1493
4.772000	 16.1978
4.790000	 17.2826
4.808000	 18.4137
4.826000	 19.0955
4.843999	 20.172
4.862000	 21.0494
4.880000	 21.9272
4.898000	 22.7489
4.916000	 23.5902
4.934000	 24.3322
4.952000	 24.8901
4.970000	 25.6135
4.988000	 26.2908
5.006000	 26.9871
5.024000	 27.6235
5.042000	 28.0837
5.060000	 28.5319
5.077999	 29.0886
5.096000	 29.606
5.114000	 30.0985
5.132000	 30.4006
5.150000	 30.6601
5.168000	 31.0275
5.186000	 31.3852
5.204000	 31.6359
5.222000	 31.9279
5.240000	 32.2271
5.258000	 32.4187
5.276000	 32.5834
5.294000	 32.7747
5.312000	 33.0532
5.330000	 33.2808
5.348000	 33.5153
5.366000	 33.641
5.384000	 33.7428
5.402000	 33.9701
5.420000	 34.1743
5.438000	 34.1555
5.456000	 34.2602
5.474000	 34.4102
5.492000	 34.4835
5.510000	 34.4985
5.528000	 34.5396
5.546000	 34.6101
5.564000	 34.7467
5.582000	 34.8808
5.600000	 34.8955
5.618000	 34.9865
5.636000	 35.1449
5.654000	 35.2393
5.672000	 35.223
5.690000	 35.2218
5.708000	 35.3162
5.726000	 35.4002
5.744000	 35.4565
5.762000	 35.5598
5.780000	 35.5993
5.798000	 35.655
5.816000	 35.6638
5.834000	 35.6112
5.852000	 35.6427
5.870000	 35.7025
5.888000	 35.7941
5.906000	 35.7639
5.923999	 35.7955
5.942000	 35.858
5.960000	 35.768
5.978000	 35.7088
5.996000	 35.6597
6.014000	 35.6471
6.032000	 35.8608
6.050000	 36.134
6.068000	 36.0169
6.086000	 35.8512
6.104000	 35.843
6.122000	 35.8159
6.140000	 35.7833
6.158000	 35.8021
6.176000	 35.8748
6.194000	 35.888
6.212000	 35.7988
6.230000	 35.86
6.248000	 35.8747
6.266000	 35.7771
6.284000	 35.725
6.302000	 35.7744
6.320000	 35.8668
6.338000	 35.9589
6.356000	 35.9483
6.374000	 35.8775
6.392000	 35.991
6.410000	 36.2901
6.428000	 36.2546
6.446000	 36.0075
6.464000	 36.0907
6.482000	 36.2949
6.500000	 36.2365
6.518000	 36.0119
6.536000	 35.8749
6.554000	 35.9106
6.572000	 35.9938
6.590000	 35.9478
6.608000	 35.9267
6.626000	 36.0709
6.644000	 36.1099
6.662000	 35.9936
6.680000	 35.9844
6.698000	 36.0397
6.716000	 35.9729
6.734000	 35.8492
6.752000	 35.814
6.770000	 35.9107
6.788000	 35.9905
6.806000	 35.919
6.824000	 35.8597
6.842000	 35.9841
6.860000	 36.0638
6.878000	 35.9181
6.896000	 35.7859
6.914000	 35.7782
6.932000	 35.7828
6.950000	 35.779
6.968000	 35.816
6.986000	 35.9143
7.004000	 35.9757
7.022000	 35.9291
7.040000	 35.8446
7.058000	 35.7727
7.076000	 35.7174
7.094000	 35.6804
7.112000	 35.6556
7.130000	 35.6803
7.148000	 35.7576
7.166000	 35.8032
7.184000	 35.7979
7.202000	 35.8184
7.220000	 35.8899
7.238000	 35.9384
7.256000	 35.9037
7.274000	 35.8203
7.292000	 35.7846
7.310000	 35.8034
7.328000	 35.7617
7.346000	 35.6607
7.364000	 35.619
7.382000	 35.6305
7.400000	 35.6436
7.418000	 35.67
7.436000	 35.6824
7.454000	 35.668
7.472000	 35.6932
7.490000	 35.762
7.508000	 35.8066
7.526000	 35.8194
7.544000	 35.8305
7.562000	 35.811
7.580000	 35.7318
7.598000	 35.6407
7.616000	 35.5919
7.634000	 35.5734
7.652000	 35.5623
7.670000	 35.5582
7.688000	 35.5479
7.706000	 35.5126
7.724000	 35.4601
7.742000	 35.4111
7.760000	 35.378
7.778000	 35.3708
7.796000	 35.397
7.814000	 35.4525
7.832000	 35.5289
7.850000	 35.6054
7.868000	 35.6402
7.886000	 35.6133
7.904000	 35.5625
7.922000	 35.5304
7.940000	 35.5099
7.958000	 35.4822
7.976000	 35.4625
7.994000	 35.4697
8.012000	 35.4884
8.030000	 35.49
8.048000	 35.4704
8.065999	 35.4463
8.084000	 35.4243
8.102000	 35.3881
8.120000	 35.3302
8.138000	 35.2784
8.155999	 35.2673
8.173999	 35.2994
8.192000	 35.3547
8.210000	 35.4243
8.228000	 35.5056
8.246000	 35.5846
8.263999	 35.6437
8.282000	 35.6692
8.300000	 35.6482
8.318000	 35.5802
8.336000	 35.4938
8.353999	 35.4326
8.372000	 35.4162
8.390000	 35.419
8.408000	 35.3975
8.426000	 35.3339
8.443999	 35.2528
8.462000	 35.1947
8.480000	 35.1784
8.498000	 35.1913
8.516000	 35.2141
8.533999	 35.2448
8.552000	 35.2947
8.570000	 35.3653
8.588000	 35.4375
8.606000	 35.4819
8.624000	 35.4891
8.641999	 35.4825
8.660000	 35.49
8.678000	 35.5127
8.696000	 35.538
8.714000	 35.5638
8.731999	 35.5913
8.750000	 35.6112
8.768000	 35.6055
8.786000	 35.567
8.804000	 35.5091
8.821999	 35.4492
8.840000	 35.3864
8.858000	 35.3083
8.876000	 35.2176
8.894000	 35.1338
8.911999	 35.0659
8.930000	 34.9993
8.948000	 34.9209
8.966000	 34.8462
8.984000	 34.812
9.001999	 34.8407
9.020000	 34.9194
9.038000	 35.014
9.056000	 35.0924
9.074000	 35.1335
9.092000	 35.1302
9.109999	 35.1025
9.128000	 35.0997
9.146000	 35.1668
9.164000	 35.2957
9.182000	 35.4214
9.199999	 35.48
9.218000	 35.4667
9.236000	 35.4279
9.254000	 35.3999
9.272000	 35.3753
9.289999	 35.3255
9.308000	 35.2407
9.326000	 35.1355
9.344000	 35.0243
9.362000	 34.9087
9.379999	 34.7895
9.398000	 34.6836
9.416000	 34.6151
9.434000	 34.5981
9.452000	 34.6284
9.469999	 34.6886
9.488000	 34.7556
9.506000	 34.804
9.524000	 34.8168
9.542000	 34.7965
9.560000	 34.7692
9.577999	 34.7713
9.596000	 34.8238
9.614000	 34.9215
9.632000	 35.0407
9.650000	 35.154
9.667999	 35.238
9.686000	 35.2734
9.704000	 35.249
9.722000	 35.1725
9.740000	 35.0771
9.757999	 35.0125
9.776000	 35.0153
9.794000	 35.0792
9.812000	 35.1521
9.830000	 35.1691
9.847999	 35.0972
9.866000	 34.9546
9.884000	 34.794
9.902000	 34.6652
9.920000	 34.5882
9.937999	 34.5516
9.956000	 34.5307
9.974000	 34.5057
9.992000	 34.4678
10.01	34.4182
10.028	34.3673
10.046	34.333
10.064	34.3317
10.082	34.3679
10.1	34.4274
10.118	34.4818
10.136	34.5078
10.154	34.5023
10.172	34.4828
10.19	34.477
10.208	34.5042
10.226	34.5687
10.244	34.661
10.262	34.7625
10.28	34.8529
10.298	34.9165
10.316	34.9475
10.334	34.9496
10.352	34.9314
10.37	34.9
10.388	34.8546
10.406	34.7885
10.424	34.6953
10.442	34.5768
10.46	34.4446
10.478	34.3162
10.496	34.2059
10.514	34.1194
10.532	34.0534
10.55	34.0001
10.568	33.9525
10.586	33.9108
10.604	33.8814
10.622	33.8722
10.64	33.8865
10.658	33.9195
10.676	33.9602
10.694	33.9986
10.712	34.0303
10.73	34.0587
10.748	34.091
10.766	34.132
10.784	34.1806
10.802	34.2293
10.82	34.2708
10.838	34.3015
10.856	34.3235
10.874	34.3426
10.892	34.364
10.91	34.3891
10.928	34.4144
10.946	34.4329
10.964	34.4372
10.982	34.4235
11	34.3954
11.018	34.3622
11.036	34.3342
11.054	34.318
11.072	34.3109
11.09	34.3009
11.108	34.2733
11.126	34.2157
11.144	34.1262
11.162	34.0145
11.18	33.8976
11.198	33.7941
11.216	33.7168
11.234	33.6688
11.252	33.6435
11.27	33.6278
11.288	33.6047
11.306	33.5609
11.324	33.491
11.342	33.3999
11.36	33.3008
11.378	33.2116
11.396	33.1467
11.414	33.1133
11.432	33.1106
11.45	33.1322
11.468	33.1708
11.486	33.2219
11.504	33.2855
11.522	33.3633
11.54	33.4559
11.558	33.5592
11.576	33.6645
11.594	33.7615
11.612	33.8409
11.63	33.8978
11.648	33.9325
11.666	33.9493
11.684	33.9534
11.702	33.9478
11.72	33.9328
11.738	33.9054
11.756	33.862
11.774	33.8019
11.792	33.7292
11.81	33.6537
11.828	33.5869
11.846	33.5387
11.864	33.5125
11.882	33.5036
11.9	33.501
11.918	33.4904
11.936	33.4598
11.954	33.4031
11.972	33.3214
11.99	33.2223
12.008	33.1178
12.026	33.0209
12.044	32.9425
12.062	32.8887
12.08	32.8602
12.098	32.853
12.116	32.8592
12.134	32.8697
12.152	32.877
12.17	32.8764
12.188	32.8673
12.206	32.8534
12.224	32.8409
12.242	32.8363
12.26	32.8441
12.278	32.866
12.296	32.9004
12.314	32.9427
12.332	32.9869
12.35	33.0272
12.368	33.059
12.386	33.08
12.404	33.091
12.422	33.0951
12.44	33.0973
12.458	33.1027
12.476	33.1156
12.494	33.1385
12.512	33.1719
12.53	33.2144
12.548	33.2633
12.566	33.3148
12.584	33.3651
12.602	33.4099
12.62	33.4446
12.638	33.4648
12.656	33.4668
12.674	33.4486
12.692	33.4103
12.71	33.3544
12.728	33.2858
12.746	33.2114
12.764	33.1384
12.782	33.0728
12.8	33.0182
12.818	32.9746
12.836	32.9393
12.854	32.9067
12.872	32.8702
12.89	32.824
12.908	32.7641
12.926	32.6892
12.944	32.6005
12.962	32.5009
12.98	32.3946
12.998	32.2864
13.016	32.1811
13.034	32.0839
13.052	31.9999
13.07	31.9341
13.088	31.8909
13.106	31.8736
13.124	31.8825
13.142	31.9154
13.16	31.9667
13.178	32.0293
13.196	32.095
13.214	32.1562
13.232	32.2076
13.25	32.2468
13.268	32.2738
13.286	32.2903
13.304	32.2979
13.322	32.2979
13.34	32.2908
13.358	32.277
13.376	32.2576
13.394	32.2353
13.412	32.2151
13.43	32.2031
13.448	32.2056
13.466	32.2273
13.484	32.2694
13.502	32.3289
13.52	32.3983
13.538	32.4671
13.556	32.5238
13.574	32.5582
13.592	32.5634
13.61	32.5375
13.628	32.4835
13.646	32.4087
13.664	32.3227
13.682	32.2356
13.7	32.1561
13.718	32.0907
13.736	32.0421
13.754	32.0104
13.772	31.9924
13.79	31.9837
13.808	31.979
13.826	31.973
13.844	31.9615
13.862	31.9413
13.88	31.9114
13.898	31.8721
13.916	31.8251
13.934	31.7732
13.952	31.7194
13.97	31.6671
13.988	31.619
14.006	31.5767
14.024	31.5408
14.042	31.5104
14.06	31.4836
14.078	31.4579
14.096	31.4309
14.114	31.4006
14.132	31.3654
14.15	31.3254
14.168	31.2813
14.186	31.2352
14.204	31.1894
14.222	31.1466
14.24	31.1088
14.258	31.0778
14.276	31.0543
14.294	31.0384
14.312	31.0295
14.33	31.0265
14.348	31.0285
14.366	31.0343
14.384	31.0434
14.402	31.0553
14.42	31.07
14.438	31.0875
14.456	31.1082
14.474	31.1328
14.492	31.1622
14.51	31.1971
14.528	31.2378
14.546	31.2839
14.564	31.3344
14.582	31.3876
14.6	31.4409
14.618	31.491
14.636	31.5347
14.654	31.5691
14.672	31.5925
14.69	31.6042
14.708	31.6047
14.726	31.5957
14.744	31.5798
14.762	31.5601
14.78	31.5391
14.798	31.5189
14.816	31.5009
14.834	31.4854
14.852	31.4719
14.87	31.4593
14.888	31.4464
14.906	31.4323
14.924	31.4162
14.942	31.3984
14.96	31.3795
14.978	31.3603
14.996	31.3415
15.014	31.3233
15.032	31.3057
15.05	31.287
15.068	31.2653
15.086	31.2381
15.104	31.2027
15.122	31.1565
15.14	31.0987
15.158	31.0297
15.176	30.9512
15.194	30.8661
15.212	30.7789
15.23	30.6939
15.248	30.6147
15.266	30.5447
15.284	30.4855
15.302	30.4369
15.32	30.3977
15.338	30.3657
15.356	30.3381
15.374	30.3115
15.392	30.2838
15.41	30.2534
15.428	30.2194
15.446	30.1825
15.464	30.1439
15.482	30.1051
15.5	30.0685
15.518	30.0362
15.536	30.0102
15.554	29.9921
15.572	29.983
15.59	29.9838
15.608	29.9949
15.626	30.0164
15.644	30.0481
15.662	30.0892
15.68	30.1384
15.698	30.1938
15.716	30.253
15.734	30.3122
15.752	30.3683
15.77	30.4178
15.788	30.4564
15.806	30.4819
15.824	30.4928
15.842	30.4882
15.86	30.4694
15.878	30.4387
15.896	30.3984
15.914	30.3529
15.932	30.3059
15.95	30.2603
15.968	30.2196
15.986	30.186
16.004	30.1602
16.022	30.1429
16.04	30.1335
16.058	30.1308
16.076	30.1335
16.094	30.1401
16.112	30.1492
16.13	30.1598
16.148	30.1708
16.166	30.1815
16.184	30.1916
16.202	30.2008
16.22	30.2087
16.238	30.2151
16.256	30.2196
16.274	30.2212
16.292	30.2192
16.31	30.213
16.328	30.2016
16.346	30.1844
16.364	30.1612
16.382	30.1317
16.4	30.0963
16.418	30.0552
16.436	30.0092
16.454	29.9593
16.472	29.9065
16.49	29.8523
16.508	29.7982
16.526	29.7452
16.544	29.6951
16.562	29.649
16.58	29.6074
16.598	29.5713
16.616	29.5405
16.634	29.5148
16.652	29.4933
16.67	29.4746
16.688	29.4573
16.706	29.4387
16.724	29.4169
16.742	29.3896
16.76	29.3541
16.778	29.3095
16.796	29.2541
16.814	29.1879
16.832	29.1108
16.85	29.0243
16.868	28.9305
16.886	28.831
16.904	28.7305
16.922	28.6312
16.94	28.5367
16.958	28.451
16.976	28.3757
16.994	28.3141
17.012	28.2668
17.03	28.2349
17.048	28.2178
17.066	28.2146
17.084	28.2242
17.102	28.2437
17.12	28.2718
17.138	28.3049
17.156	28.3409
17.174	28.3775
17.192	28.4118
17.21	28.4429
17.228	28.4686
17.246	28.4885
17.264	28.5019
17.282	28.5091
17.3	28.5105
17.318	28.5068
17.336	28.4994
17.354	28.4888
17.372	28.4774
17.39	28.4658
17.408	28.4558
17.426	28.4486
17.444	28.4451
17.462	28.4464
17.48	28.4527
17.498	28.4646
17.516	28.4816
17.534	28.5036
17.552	28.5296
17.57	28.5592
17.588	28.5907
17.606	28.6232
17.624	28.6553
17.642	28.6856
17.66	28.7132
17.678	28.7365
17.696	28.755
17.714	28.7678
17.732	28.7749
17.75	28.7761
17.768	28.7722
17.786	28.7636
17.804	28.752
17.822	28.738
17.84	28.7239
17.858	28.7111
17.876	28.7016
17.894	28.6974
17.912	28.6996
17.93	28.7102
17.948	28.7295
17.966	28.7582
17.984	28.7956
18.002	28.8412
18.02	28.8927
18.038	28.9489
18.056	29.0056
18.074	29.0618
18.092	29.112
18.11	29.1554
18.128	29.1867
18.146	29.2052
18.164	29.2074
18.182	29.1931
18.2	29.1608
18.218	29.1117
18.236	29.046
18.254	28.9673
18.272	28.876
18.29	28.7782
18.308	28.6745
18.326	28.5714
18.344	28.4698
18.362	28.3753
18.38	28.2886
18.398	28.2132
18.416	28.1494
18.434	28.0988
18.452	28.0603
18.47	28.0338
18.488	28.0168
18.506	28.0088
18.524	28.0055
18.542	28.006
18.56	28.0059
18.578	28.0045
18.596	27.9976
18.614	27.985
18.632	27.9637
18.65	27.9337
18.668	27.8941
18.686	27.8449
18.704	27.7865
18.722	27.7196
18.74	27.646
18.758	27.5665
18.776	27.4837
18.794	27.3985
18.812	27.3141
18.83	27.2312
18.848	27.1527
18.866	27.0792
18.884	27.0131
18.902	26.9548
18.92	26.906
18.938	26.8667
18.956	26.8375
18.974	26.8178
18.992	26.8077
19.01	26.8058
19.028	26.8111
19.046	26.8224
19.064	26.838
19.082	26.8564
19.1	26.8754
19.118	26.894
19.136	26.9099
19.154	26.9229
19.172	26.9311
19.19	26.9349
19.208	26.9339
19.226	26.9286
19.244	26.92
19.262	26.9087
19.28	26.8971
19.298	26.8854
19.316	26.8768
19.334	26.8712
19.352	26.8716
19.37	26.8777
19.388	26.8912
19.406	26.912
19.424	26.9398
19.442	26.9749
19.46	27.0148
19.478	27.06
19.496	27.1071
19.514	27.1556
19.532	27.2029
19.55	27.2474
19.568	27.2878
19.586	27.3217
19.604	27.3493
19.622	27.3686
19.64	27.3803
19.658	27.3839
19.676	27.3798
19.694	27.3698
19.712	27.3536
19.73	27.3341
19.748	27.311
19.766	27.2868
19.784	27.2617
19.802	27.2369
19.82	27.2133
19.838	27.1907
19.856	27.1699
19.874	27.1503
19.892	27.1315
19.91	27.1133
19.928	27.094
19.946	27.0738
19.964	27.0512
19.982	27.0258
20	26.9971
20.018	26.9647
20.036	26.9287
20.054	26.8891
20.072	26.846
20.09	26.8006
20.108	26.7527
20.126	26.7045
20.144	26.6556
20.162	26.608
20.18	26.5625
20.198	26.5199
20.216	26.4818
20.234	26.4481
20.252	26.42
20.27	26.3974
20.288	26.3804
20.306	26.3695
20.324	26.3634
20.342	26.3619
20.36	26.3641
20.378	26.3683
20.396	26.3748
20.414	26.3803
20.432	26.3855
20.45	26.3873
20.468	26.3847
20.486	26.3771
20.504	26.362
20.522	26.34
20.54	26.3093
20.558	26.2697
20.576	26.222
20.594	26.1657
20.612	26.1019
20.63	26.0316
20.648	25.9545
20.666	25.8748
20.684	25.7917
20.702	25.7088
20.72	25.6283
20.738	25.5505
20.756	25.481
20.774	25.4183
20.792	25.3673
20.81	25.3285
20.828	25.3031
20.846	25.2936
20.864	25.2992
20.882	25.3205
20.9	25.3581
20.918	25.4097
20.936	25.475
20.954	25.5531
20.972	25.6394
20.99	25.7353
21.008	25.8353
21.026	25.938
21.044	26.0421
21.062	26.1419
21.08	26.2389
21.098	26.3284
21.116	26.4092
21.134	26.4809
21.152	26.5407
21.17	26.5893
21.188	26.6261
21.206	26.6505
21.224	26.6637
21.242	26.6665
21.26	26.6587
21.278	26.6433
21.296	26.6203
21.314	26.591
21.332	26.5584
21.35	26.5215
21.368	26.4835
21.386	26.4454
21.404	26.4072
21.422	26.3709
21.44	26.3362
21.458	26.3037
21.476	26.2741
21.494	26.2467
21.512	26.2206
21.53	26.1963
21.548	26.172
21.566	26.147
21.584	26.1215
21.602	26.0922
21.62	26.0597
21.638	26.0226
21.656	25.9783
21.674	25.9278
21.692	25.8692
21.71	25.8019
21.728	25.7262
21.746	25.6414
21.764	25.5471
21.782	25.4449
21.8	25.3358
21.818	25.2193
21.836	25.0994
21.854	24.975
21.872	24.8487
21.89	24.7255
21.908	24.6034
21.926	24.4875
21.944	24.3811
21.962	24.2828
21.98	24.1992
21.998	24.1303
22.016	24.077
22.034	24.0441
22.052	24.0304
22.07	24.0369
22.088	24.0651
22.106	24.1144
22.124	24.1827
22.142	24.2707
22.16	24.3768
22.178	24.4954
22.196	24.629
22.214	24.7724
22.232	24.9192
22.25	25.0729
22.268	25.2254
22.286	25.3726
22.304	25.5166
22.322	25.6495
22.34	25.7702
22.358	25.8787
22.376	25.9697
22.394	26.0436
22.412	26.1002
22.43	26.1372
22.448	26.1549
22.466	26.1549
22.484	26.1379
22.502	26.1031
22.52	26.0548
22.538	25.994
22.556	25.9204
22.574	25.8395
22.592	25.7516
22.61	25.6571
22.628	25.5609
22.646	25.4625
22.664	25.3627
22.682	25.2644
22.7	25.1672
22.718	25.0709
22.736	24.9761
22.754	24.883
22.772	24.7903
22.79	24.6972
22.808	24.6046
22.826	24.5101
22.844	24.4124
22.862	24.3124
22.88	24.2081
22.898	24.0985
22.916	23.9842
22.934	23.8647
22.952	23.7392
22.97	23.6084
22.988	23.4741
23.006	23.3356
23.024	23.1937
23.042	23.0525
23.06	22.9119
23.078	22.7722
23.096	22.6378
23.114	22.5079
23.132	22.3834
23.15	22.2694
23.168	22.165
23.186	22.0711
23.204	21.9922
23.222	21.9278
23.24	21.8782
23.258	21.8464
23.276	21.8329
23.294	21.8367
23.312	21.8574
23.33	21.8956
23.348	21.9502
23.366	22.0188
23.384	22.1021
23.402	22.1991
23.42	22.3064
23.438	22.4246
23.456	22.553
23.474	22.6867
23.492	22.8255
23.51	22.9697
23.528	23.1143
23.546	23.259
23.564	23.4045
23.582	23.5449
23.6	23.6787
23.618	23.8077
23.636	23.9254
23.654	24.0286
23.672	24.1202
23.69	24.1952
23.708	24.2501
23.726	24.2872
23.744	24.3046
23.762	24.3
23.78	24.2745
23.798	24.2278
23.816	24.1588
23.834	24.0673
23.852	23.9546
23.87	23.8214
23.888	23.6657
23.906	23.4904
23.924	23.301
23.942	23.0954
23.96	22.8752
23.978	22.6489
23.996	22.4182
24.014	22.1803
24.032	21.9455
24.05	21.7195
24.068	21.4966
24.086	21.2853
24.104	21.0938
24.122	20.9169
24.14	20.7588
24.158	20.6264
24.176	20.5184
24.194	20.4345
24.212	20.3775
24.23	20.3494
24.248	20.3482
24.266	20.3711
24.284	20.4172
24.302	20.4886
24.32	20.5793
24.338	20.6844
24.356	20.8089
24.374	20.9467
24.392	21.0884
24.41	21.2355
24.428	21.3883
24.446	21.5404
24.464	21.6896
24.482	21.8387
24.5	21.9829
24.518	22.1177
24.536	22.2433
24.554	22.3631
24.572	22.4802
24.59	22.5903
24.608	22.697
24.626	22.8115
24.644	22.9365
24.662	23.0655
24.68	23.2139
24.698	23.3955
24.716	23.5984
24.734	23.8333
24.752	24.1184
24.77	24.4549
24.788	24.8375
24.806	25.2773
24.824	25.7829
24.842	26.3494
24.86	26.9762
24.878	27.6644
24.896	28.421
24.914	29.2383
24.932	30.1003
24.95	31.0025
24.968	31.9573
24.986	32.9384
25.004	33.9187
25.022	34.9198
25.04	35.9265
25.058	36.8987
25.076	37.8225
25.094	38.7224
25.112	39.5611
25.13	40.3013
25.148	40.9649
25.166	41.5421
25.184	41.9985
25.202	42.3174
25.22	42.5193
25.238	42.5883
25.256	42.5069
25.274	42.2785
25.292	41.9074
25.31	41.3907
25.328	40.7239
25.346	39.9058
25.364	38.9493
25.382	37.8679
25.4	36.6507
25.418	35.3031
25.436	33.8531
25.454	32.3195
25.472	30.6767
25.49	28.952
25.508	27.1829
25.526	25.3698
25.544	23.4959
25.562	21.6048
25.58	19.7369
25.598	17.8632
25.616	15.9975
25.634	14.1828
25.652	12.4429
25.67	10.7447
25.688	9.119343
25.706	7.605485
25.724	6.203806
25.742	4.898890
25.76	3.716530
25.778	2.680870
25.796	1.782450
25.814	1.018425
25.832	0.395865
25.85	-0.077844
25.868	-0.402232
25.886	-0.589537
25.904	-0.652738
25.922	-0.586677
25.94	-0.384217
25.958	-0.077679
25.976	0.300790
25.994	0.772315
26.012	1.332091
26.03	1.937143
26.048	2.551471
26.066	3.210375
26.084	3.893378
26.102	4.557801
26.12	5.177245
26.138	5.785369
26.156	6.358124
26.174	6.863267
26.192	7.289348
26.21	7.657394
26.228	7.950737
26.246	8.151279
26.264	8.254560
26.282	8.270093
26.3	8.198192
26.318	8.039004
26.336	7.784492
26.354	7.441113
26.372	7.024543
26.39	6.548514
26.408	5.995404
26.426	5.376122
26.444	4.716244
26.462	4.036561
26.48	3.316238
26.498	2.565688
26.516	1.806376
26.534	1.053225
26.552	0.286855
26.57	-0.480174
26.588	-1.228569
26.606	-1.946389
26.624	-2.649758
26.642	-3.328817
26.66	-3.969871
26.678	-4.565124
26.696	-5.125207
26.714	-5.644681
26.732	-6.116302
26.75	-6.536213
26.768	-6.909936
26.786	-7.235230
26.804	-7.509139
26.822	-7.729426
26.84	-7.897602
26.858	-8.015670
26.876	-8.085554
26.894	-8.107118
26.912	-8.077760
26.93	-8.002633
26.948	-7.887353
26.966	-7.718324
26.984	-7.466867
27.002	-7.197786
27.02	-6.981853
27.028	-6.927180