File: Bakgrunnsmateriale/MATLAB/FTIR/ftir_data/LPE453/Mapping_121/LPE453_t56.asc
PE IR       SPECTRUM    SPECTRUM    ASCII       PEDS        1.60
  -1
LPD7A1~1.ASC
17/05/16
18:57:37.00
17/05/16
18:58:03.00
tln
$LPE453_t0056$<tbV0>[13.0,0.0,8.0,0.0,27,1,0]
27.028
64

2002,4.07
MIRTGS : RIGHTBACK : INTERNAL 2
MIR : ON : INTERNAL 2
OPTKBR

0.200000
8
8.000000
FILLER
RATIO
SPECTRUM
UNLOCKED 256

DOUBLE
64
COMBINED
1
0
0

0.002000
RATIO

1
0
TRUE
51149
0
LEFT NOT FITTED RIGHT NOT FITTED 0
NONE
NONE
15600
12
4.427000
51148
TRUE
1 0 8 72 0 0 0 0

15798

#HDR
-1
-1
#GR
µM
%T
2.38419e-05
0.0
2.000000
0.002000
12515
8
25.044
-12.0075
#DATA
2.000000	 0.447511
2.018000	 0.153796
2.036000	 -0.341249
2.054000	 0.582070
2.072000	 0.027179
2.090000	 0.431191
2.108000	 -0.193710
2.126000	 0.456487
2.144000	 0.563703
2.162000	 0.509653
2.180000	 1.036618
2.198000	 0.828541
2.216000	 -2.307228
2.234000	 -4.213702
2.252000	 -1.009287
2.270000	 0.114907
2.288000	 0.351496
2.306000	 0.494771
2.324000	 0.156110
2.342000	 0.342904
2.360000	 0.081213
2.378000	 0.270714
2.396000	 0.235770
2.414000	 0.481306
2.432000	 0.196521
2.450000	 0.204086
2.468000	 0.052239
2.486000	 0.086365
2.504000	 -0.042813
2.522000	 0.039910
2.540000	 0.052043
2.558000	 0.091145
2.576000	 0.150312
2.594000	 0.091053
2.612000	 0.346976
2.630000	 0.069051
2.648000	 0.135872
2.666000	 0.199451
2.684000	 0.078567
2.702000	 0.085351
2.720000	 0.132609
2.738000	 0.009316
2.756000	 0.014500
2.774000	 0.141018
2.792000	 0.032804
2.810000	 0.100126
2.828000	 -0.037296
2.846000	 -0.002660
2.864000	 0.116720
2.882000	 0.145869
2.900000	 -0.007584
2.918000	 -0.033703
2.936000	 0.099893
2.954000	 -0.059546
2.972000	 -0.033855
2.990000	 0.086824
3.008000	 0.070161
3.026000	 0.127317
3.044000	 0.040763
3.062000	 0.038726
3.080000	 -0.008111
3.098000	 -0.009856
3.116000	 0.058655
3.134000	 0.051270
3.152000	 0.137823
3.170000	 -0.026741
3.188000	 0.140812
3.206000	 0.036049
3.224000	 0.098125
3.242000	 -0.029399
3.260000	 -0.058691
3.278000	 0.109225
3.296000	 -0.041392
3.314000	 0.012458
3.332000	 -0.032785
3.350000	 0.073833
3.368000	 -0.029940
3.386000	 0.161914
3.404000	 0.034322
3.422000	 0.047330
3.440000	 -0.002774
3.458000	 -0.016813
3.476000	 0.146413
3.494000	 -0.073093
3.512000	 -0.079767
3.530000	 0.084314
3.548000	 0.047444
3.566000	 0.036693
3.584000	 0.049473
3.602000	 0.049908
3.620000	 -0.170078
3.638000	 -0.021980
3.656000	 0.006930
3.674000	 0.115197
3.692000	 0.047857
3.710000	 0.000863
3.728000	 -0.024957
3.746000	 0.103522
3.764000	 0.013682
3.782000	 -0.019393
3.800000	 0.029922
3.818000	 0.051783
3.836000	 0.063006
3.854000	 0.012528
3.872000	 0.040561
3.890000	 0.008122
3.908000	 0.086816
3.926000	 0.084484
3.944000	 0.127680
3.962000	 0.150194
3.980000	 0.069956
3.998000	 0.080694
4.016000	 0.123285
4.034000	 0.026546
4.052000	 -0.026599
4.070000	 -0.026958
4.088000	 0.024903
4.106000	 -0.009387
4.124000	 -0.039772
4.141999	 0.197975
4.160000	 -0.045715
4.178000	 0.101292
4.196000	 0.166501
4.214000	 0.149698
4.232000	 0.045102
4.250000	 0.047067
4.268000	 -0.011805
4.286000	 -0.024654
4.304000	 -0.003815
4.322000	 0.023539
4.340000	 -0.009733
4.358000	 0.076336
4.375999	 -0.026525
4.394000	 0.033191
4.412000	 0.207370
4.430000	 0.169312
4.448000	 0.276229
4.466000	 0.399881
4.484000	 0.427264
4.502000	 0.542489
4.520000	 0.701995
4.538000	 0.878088
4.556000	 1.027462
4.574000	 1.332932
4.592000	 1.605158
4.609999	 2.037541
4.628000	 2.468154
4.646000	 2.733582
4.664000	 3.273164
4.682000	 3.699867
4.700000	 4.329571
4.718000	 4.781858
4.736000	 5.354126
4.754000	 5.959701
4.772000	 6.677145
4.790000	 7.271100
4.808000	 7.936964
4.826000	 8.622615
4.843999	 9.131077
4.862000	 9.921416
4.880000	 10.5699
4.898000	 11.1499
4.916000	 11.7049
4.934000	 12.2785
4.952000	 12.8623
4.970000	 13.4382
4.988000	 14.0127
5.006000	 14.4868
5.024000	 15.0538
5.042000	 15.506
5.060000	 16.0219
5.077999	 16.4636
5.096000	 16.819
5.114000	 17.2298
5.132000	 17.6185
5.150000	 17.9267
5.168000	 18.2029
5.186000	 18.5769
5.204000	 18.9235
5.222000	 19.2018
5.240000	 19.4718
5.258000	 19.682
5.276000	 19.9343
5.294000	 20.1607
5.312000	 20.4011
5.330000	 20.577
5.348000	 20.7782
5.366000	 20.8986
5.384000	 21.1394
5.402000	 21.3839
5.420000	 21.4264
5.438000	 21.5539
5.456000	 21.6758
5.474000	 21.8312
5.492000	 21.9852
5.510000	 22.0676
5.528000	 22.2447
5.546000	 22.4332
5.564000	 22.5238
5.582000	 22.5075
5.600000	 22.5955
5.618000	 22.7091
5.636000	 22.7996
5.654000	 22.8361
5.672000	 22.8829
5.690000	 23.0117
5.708000	 23.0415
5.726000	 23.0933
5.744000	 23.1799
5.762000	 23.2526
5.780000	 23.3496
5.798000	 23.4296
5.816000	 23.5185
5.834000	 23.5106
5.852000	 23.4965
5.870000	 23.5247
5.888000	 23.5631
5.906000	 23.6619
5.923999	 23.7208
5.942000	 23.6951
5.960000	 23.6649
5.978000	 23.71
5.996000	 23.678
6.014000	 23.6341
6.032000	 23.6961
6.050000	 23.7605
6.068000	 23.8521
6.086000	 23.8644
6.104000	 23.8363
6.122000	 23.8671
6.140000	 23.8658
6.158000	 23.8738
6.176000	 23.8713
6.194000	 23.889
6.212000	 23.9664
6.230000	 24.0125
6.248000	 24.0291
6.266000	 24.0405
6.284000	 24.0462
6.302000	 24.0305
6.320000	 24.0186
6.338000	 24.0488
6.356000	 24.0821
6.374000	 24.1541
6.392000	 24.1894
6.410000	 24.1078
6.428000	 23.9968
6.446000	 23.9475
6.464000	 23.9659
6.482000	 24.012
6.500000	 24.0445
6.518000	 24.0592
6.536000	 24.092
6.554000	 24.0999
6.572000	 24.1067
6.590000	 24.1062
6.608000	 24.0681
6.626000	 24.0461
6.644000	 24.0587
6.662000	 24.0256
6.680000	 23.9809
6.698000	 24.0775
6.716000	 24.1792
6.734000	 24.1606
6.752000	 24.0973
6.770000	 24.0273
6.788000	 23.9968
6.806000	 24.0073
6.824000	 23.9961
6.842000	 23.9403
6.860000	 23.9166
6.878000	 23.9873
6.896000	 24.0389
6.914000	 24.048
6.932000	 24.1166
6.950000	 24.1734
6.968000	 24.1403
6.986000	 24.0623
7.004000	 23.9847
7.022000	 23.9601
7.040000	 24.0009
7.058000	 24.0422
7.076000	 24.0446
7.094000	 24.0455
7.112000	 24.0734
7.130000	 24.055
7.148000	 23.956
7.166000	 23.8806
7.184000	 23.8669
7.202000	 23.8482
7.220000	 23.8361
7.238000	 23.8778
7.256000	 23.9266
7.274000	 23.9398
7.292000	 23.9407
7.310000	 23.945
7.328000	 23.9443
7.346000	 23.9243
7.364000	 23.8802
7.382000	 23.8176
7.400000	 23.7293
7.418000	 23.6388
7.436000	 23.6101
7.454000	 23.6521
7.472000	 23.7072
7.490000	 23.7404
7.508000	 23.7567
7.526000	 23.7648
7.544000	 23.7674
7.562000	 23.7723
7.580000	 23.7779
7.598000	 23.7647
7.616000	 23.7177
7.634000	 23.6466
7.652000	 23.5819
7.670000	 23.5571
7.688000	 23.5663
7.706000	 23.5588
7.724000	 23.5246
7.742000	 23.528
7.760000	 23.5987
7.778000	 23.6712
7.796000	 23.6808
7.814000	 23.6387
7.832000	 23.5851
7.850000	 23.532
7.868000	 23.4733
7.886000	 23.4206
7.904000	 23.4056
7.922000	 23.4309
7.940000	 23.4545
7.958000	 23.4511
7.976000	 23.4478
7.994000	 23.4822
8.012000	 23.5566
8.030000	 23.631
8.048000	 23.6559
8.065999	 23.6164
8.084000	 23.5417
8.102000	 23.4641
8.120000	 23.3887
8.138000	 23.3133
8.155999	 23.2536
8.173999	 23.2286
8.192000	 23.2357
8.210000	 23.2577
8.228000	 23.2871
8.246000	 23.3309
8.263999	 23.3881
8.282000	 23.428
8.300000	 23.4225
8.318000	 23.3902
8.336000	 23.3688
8.353999	 23.3525
8.372000	 23.3036
8.390000	 23.2199
8.408000	 23.1433
8.426000	 23.1044
8.443999	 23.0983
8.462000	 23.1058
8.480000	 23.1138
8.498000	 23.1192
8.516000	 23.1283
8.533999	 23.1522
8.552000	 23.1954
8.570000	 23.2451
8.588000	 23.2811
8.606000	 23.298
8.624000	 23.3035
8.641999	 23.2956
8.660000	 23.2571
8.678000	 23.1809
8.696000	 23.084
8.714000	 22.9936
8.731999	 22.9273
8.750000	 22.893
8.768000	 22.8886
8.786000	 22.8952
8.804000	 22.8843
8.821999	 22.8481
8.840000	 22.8186
8.858000	 22.8392
8.876000	 22.9192
8.894000	 23.0196
8.911999	 23.0859
8.930000	 23.0894
8.948000	 23.0399
8.966000	 22.967
8.984000	 22.895
9.001999	 22.8292
9.020000	 22.7596
9.038000	 22.6757
9.056000	 22.5812
9.074000	 22.4942
9.092000	 22.4331
9.109999	 22.404
9.128000	 22.3998
9.146000	 22.4103
9.164000	 22.4299
9.182000	 22.4598
9.199999	 22.4975
9.218000	 22.5314
9.236000	 22.5486
9.254000	 22.549
9.272000	 22.548
9.289999	 22.5613
9.308000	 22.5878
9.326000	 22.611
9.344000	 22.6161
9.362000	 22.6011
9.379999	 22.5703
9.398000	 22.5269
9.416000	 22.475
9.434000	 22.4266
9.452000	 22.3968
9.469999	 22.3899
9.488000	 22.3932
9.506000	 22.3896
9.524000	 22.3736
9.542000	 22.3506
9.560000	 22.3245
9.577999	 22.292
9.596000	 22.2528
9.614000	 22.2174
9.632000	 22.2014
9.650000	 22.2087
9.667999	 22.2263
9.686000	 22.235
9.704000	 22.2265
9.722000	 22.2041
9.740000	 22.1731
9.757999	 22.1306
9.776000	 22.0723
9.794000	 22.0039
9.812000	 21.9443
9.830000	 21.9123
9.847999	 21.9108
9.866000	 21.9248
9.884000	 21.935
9.902000	 21.932
9.920000	 21.9204
9.937999	 21.9104
9.956000	 21.9101
9.974000	 21.9209
9.992000	 21.9405
10.01	21.965
10.028	21.9904
10.046	22.0122
10.064	22.0253
10.082	22.0268
10.1	22.0149
10.118	21.9898
10.136	21.9512
10.154	21.8988
10.172	21.833
10.19	21.7551
10.208	21.6704
10.226	21.5876
10.244	21.5159
10.262	21.4609
10.28	21.42
10.298	21.3863
10.316	21.3532
10.334	21.321
10.352	21.2975
10.37	21.2924
10.388	21.3108
10.406	21.3486
10.424	21.3971
10.442	21.4488
10.46	21.5018
10.478	21.5581
10.496	21.6163
10.514	21.6662
10.532	21.6908
10.55	21.6737
10.568	21.6097
10.586	21.5091
10.604	21.3923
10.622	21.2836
10.64	21.1996
10.658	21.1457
10.676	21.1156
10.694	21.0954
10.712	21.0689
10.73	21.0235
10.748	20.954
10.766	20.8665
10.784	20.7747
10.802	20.6966
10.82	20.6455
10.838	20.6263
10.856	20.6362
10.874	20.6673
10.892	20.7111
10.91	20.7599
10.928	20.8057
10.946	20.84
10.964	20.8561
10.982	20.851
11	20.828
11.018	20.797
11.036	20.7694
11.054	20.7546
11.072	20.7547
11.09	20.7631
11.108	20.7692
11.126	20.7603
11.144	20.7279
11.162	20.669
11.18	20.5864
11.198	20.4875
11.216	20.3818
11.234	20.2786
11.252	20.186
11.27	20.1097
11.288	20.0539
11.306	20.0199
11.324	20.0077
11.342	20.0154
11.36	20.0394
11.378	20.0761
11.396	20.1225
11.414	20.1757
11.432	20.2331
11.45	20.292
11.468	20.3479
11.486	20.3954
11.504	20.4279
11.522	20.4393
11.54	20.4252
11.558	20.3851
11.576	20.3227
11.594	20.2444
11.612	20.1599
11.63	20.0783
11.648	20.0058
11.666	19.9461
11.684	19.8988
11.702	19.8606
11.72	19.828
11.738	19.798
11.756	19.7693
11.774	19.7423
11.792	19.7181
11.81	19.6971
11.828	19.679
11.846	19.6626
11.864	19.6465
11.882	19.6293
11.9	19.6107
11.918	19.5912
11.936	19.5715
11.954	19.5532
11.972	19.5382
11.99	19.5284
12.008	19.5256
12.026	19.5307
12.044	19.5438
12.062	19.5636
12.08	19.5871
12.098	19.6112
12.116	19.6328
12.134	19.6496
12.152	19.6606
12.17	19.6658
12.188	19.6653
12.206	19.6589
12.224	19.6455
12.242	19.6232
12.26	19.5905
12.278	19.5463
12.296	19.4909
12.314	19.4263
12.332	19.356
12.35	19.2839
12.368	19.2148
12.386	19.153
12.404	19.102
12.422	19.0646
12.44	19.0418
12.458	19.0335
12.476	19.0378
12.494	19.0511
12.512	19.0687
12.53	19.0857
12.548	19.0975
12.566	19.1004
12.584	19.0923
12.602	19.073
12.62	19.0435
12.638	19.0061
12.656	18.9642
12.674	18.9213
12.692	18.8813
12.71	18.8476
12.728	18.8228
12.746	18.8085
12.764	18.8048
12.782	18.8105
12.8	18.8228
12.818	18.8382
12.836	18.8518
12.854	18.859
12.872	18.8561
12.89	18.8409
12.908	18.8127
12.926	18.7725
12.944	18.7226
12.962	18.6656
12.98	18.6043
12.998	18.5405
13.016	18.4757
13.034	18.411
13.052	18.3482
13.07	18.2898
13.088	18.2395
13.106	18.2011
13.124	18.1779
13.142	18.1717
13.16	18.1812
13.178	18.2026
13.196	18.2292
13.214	18.2542
13.232	18.2719
13.25	18.2795
13.268	18.2775
13.286	18.2697
13.304	18.262
13.322	18.2595
13.34	18.2656
13.358	18.2797
13.376	18.2978
13.394	18.3135
13.412	18.3194
13.43	18.3104
13.448	18.2848
13.466	18.2455
13.484	18.1993
13.502	18.1553
13.52	18.1225
13.538	18.1079
13.556	18.1139
13.574	18.1382
13.592	18.1737
13.61	18.2108
13.628	18.239
13.646	18.2488
13.664	18.2338
13.682	18.192
13.7	18.1253
13.718	18.0396
13.736	17.9431
13.754	17.8446
13.772	17.7523
13.79	17.6728
13.808	17.61
13.826	17.5648
13.844	17.5358
13.862	17.5197
13.88	17.5125
13.898	17.5098
13.916	17.5076
13.934	17.5033
13.952	17.4958
13.97	17.4854
13.988	17.4731
14.006	17.4611
14.024	17.4517
14.042	17.4469
14.06	17.4479
14.078	17.4548
14.096	17.4671
14.114	17.483
14.132	17.5009
14.15	17.5186
14.168	17.5345
14.186	17.5475
14.204	17.5566
14.222	17.5615
14.24	17.5619
14.258	17.5571
14.276	17.5465
14.294	17.5288
14.312	17.5025
14.33	17.4664
14.348	17.4194
14.366	17.3614
14.384	17.2932
14.402	17.2167
14.42	17.1344
14.438	17.0496
14.456	16.966
14.474	16.8872
14.492	16.8163
14.51	16.7556
14.528	16.7068
14.546	16.6704
14.564	16.6462
14.582	16.6333
14.6	16.6306
14.618	16.6361
14.636	16.6474
14.654	16.6621
14.672	16.6776
14.69	16.6914
14.708	16.7013
14.726	16.7055
14.744	16.7026
14.762	16.6922
14.78	16.6747
14.798	16.6509
14.816	16.622
14.834	16.5895
14.852	16.5552
14.87	16.5208
14.888	16.4876
14.906	16.4571
14.924	16.4304
14.942	16.4085
14.96	16.392
14.978	16.3813
14.996	16.3763
15.014	16.3767
15.032	16.3815
15.05	16.3893
15.068	16.3985
15.086	16.4077
15.104	16.4152
15.122	16.4197
15.14	16.4207
15.158	16.4184
15.176	16.4136
15.194	16.4079
15.212	16.4037
15.23	16.4029
15.248	16.4073
15.266	16.4181
15.284	16.4361
15.302	16.4603
15.32	16.4897
15.338	16.5225
15.356	16.5563
15.374	16.5889
15.392	16.6185
15.41	16.6436
15.428	16.663
15.446	16.676
15.464	16.6829
15.482	16.6837
15.5	16.6785
15.518	16.6676
15.536	16.6507
15.554	16.6273
15.572	16.5974
15.59	16.5599
15.608	16.5143
15.626	16.4602
15.644	16.3971
15.662	16.3254
15.68	16.2461
15.698	16.1601
15.716	16.0698
15.734	15.9774
15.752	15.8854
15.77	15.7961
15.788	15.7126
15.806	15.6368
15.824	15.5704
15.842	15.5148
15.86	15.4706
15.878	15.4376
15.896	15.4156
15.914	15.4035
15.932	15.3998
15.95	15.403
15.968	15.4114
15.986	15.4225
16.004	15.4352
16.022	15.4481
16.04	15.4595
16.058	15.4691
16.076	15.4766
16.094	15.4821
16.112	15.4866
16.13	15.491
16.148	15.4964
16.166	15.5041
16.184	15.5148
16.202	15.5292
16.22	15.5473
16.238	15.5684
16.256	15.5919
16.274	15.6154
16.292	15.6371
16.31	15.6552
16.328	15.6667
16.346	15.6703
16.364	15.6647
16.382	15.6492
16.4	15.624
16.418	15.5898
16.436	15.5484
16.454	15.5021
16.472	15.4525
16.49	15.4028
16.508	15.3545
16.526	15.3091
16.544	15.2679
16.562	15.2311
16.58	15.1989
16.598	15.1704
16.616	15.1451
16.634	15.1221
16.652	15.1003
16.67	15.0795
16.688	15.0592
16.706	15.0395
16.724	15.0205
16.742	15.0028
16.76	14.9867
16.778	14.9724
16.796	14.9606
16.814	14.9511
16.832	14.9441
16.85	14.9395
16.868	14.9368
16.886	14.9356
16.904	14.9349
16.922	14.9346
16.94	14.934
16.958	14.933
16.976	14.9312
16.994	14.9287
17.012	14.9254
17.03	14.9216
17.048	14.9177
17.066	14.9141
17.084	14.9109
17.102	14.9086
17.12	14.9071
17.138	14.9064
17.156	14.9062
17.174	14.9064
17.192	14.9062
17.21	14.9054
17.228	14.9035
17.246	14.8999
17.264	14.8943
17.282	14.886
17.3	14.875
17.318	14.861
17.336	14.8443
17.354	14.8248
17.372	14.8031
17.39	14.7795
17.408	14.7544
17.426	14.7286
17.444	14.7026
17.462	14.6769
17.48	14.6518
17.498	14.6276
17.516	14.6041
17.534	14.581
17.552	14.5578
17.57	14.5342
17.588	14.509
17.606	14.4817
17.624	14.4515
17.642	14.4177
17.66	14.38
17.678	14.3378
17.696	14.2913
17.714	14.2406
17.732	14.186
17.75	14.128
17.768	14.0677
17.786	14.0054
17.804	13.9426
17.822	13.8795
17.84	13.8181
17.858	13.759
17.876	13.7033
17.894	13.6526
17.912	13.6076
17.93	13.5697
17.948	13.5394
17.966	13.518
17.984	13.5058
18.002	13.5035
18.02	13.5111
18.038	13.5289
18.056	13.5562
18.074	13.5927
18.092	13.6369
18.11	13.6884
18.128	13.7446
18.146	13.8049
18.164	13.8666
18.182	13.9284
18.2	13.9882
18.218	14.0439
18.236	14.0945
18.254	14.1379
18.272	14.1737
18.29	14.2008
18.308	14.219
18.326	14.2283
18.344	14.2289
18.362	14.2218
18.38	14.2075
18.398	14.1874
18.416	14.1625
18.434	14.1343
18.452	14.1042
18.47	14.0731
18.488	14.0425
18.506	14.0131
18.524	13.9856
18.542	13.9603
18.56	13.9375
18.578	13.9174
18.596	13.8994
18.614	13.8832
18.632	13.8678
18.65	13.853
18.668	13.8371
18.686	13.82
18.704	13.8
18.722	13.7773
18.74	13.7507
18.758	13.7204
18.776	13.686
18.794	13.648
18.812	13.6069
18.83	13.5634
18.848	13.5189
18.866	13.4742
18.884	13.4311
18.902	13.3904
18.92	13.3538
18.938	13.322
18.956	13.2964
18.974	13.277
18.992	13.2648
19.01	13.2592
19.028	13.2604
19.046	13.2675
19.064	13.2798
19.082	13.2962
19.1	13.3151
19.118	13.3358
19.136	13.3562
19.154	13.3758
19.172	13.3927
19.19	13.407
19.208	13.4172
19.226	13.4237
19.244	13.4259
19.262	13.4242
19.28	13.4191
19.298	13.4107
19.316	13.4008
19.334	13.3892
19.352	13.3779
19.37	13.3669
19.388	13.3577
19.406	13.3502
19.424	13.3452
19.442	13.3427
19.46	13.3424
19.478	13.3446
19.496	13.3481
19.514	13.3529
19.532	13.3577
19.55	13.3621
19.568	13.3651
19.586	13.3657
19.604	13.3636
19.622	13.3577
19.64	13.348
19.658	13.334
19.676	13.3158
19.694	13.2938
19.712	13.2679
19.73	13.2395
19.748	13.2085
19.766	13.1768
19.784	13.1445
19.802	13.113
19.82	13.0832
19.838	13.0557
19.856	13.0317
19.874	13.0111
19.892	12.9947
19.91	12.9823
19.928	12.9738
19.946	12.9691
19.964	12.9672
19.982	12.9681
20	12.9705
20.018	12.9739
20.036	12.9775
20.054	12.98
20.072	12.9815
20.09	12.9806
20.108	12.9774
20.126	12.9714
20.144	12.9625
20.162	12.9511
20.18	12.937
20.198	12.9207
20.216	12.9028
20.234	12.8831
20.252	12.8627
20.27	12.8414
20.288	12.8198
20.306	12.798
20.324	12.7762
20.342	12.7544
20.36	12.7325
20.378	12.7102
20.396	12.6876
20.414	12.6641
20.432	12.6397
20.45	12.614
20.468	12.5867
20.486	12.558
20.504	12.5276
20.522	12.4956
20.54	12.4624
20.558	12.4279
20.576	12.393
20.594	12.3579
20.612	12.323
20.63	12.2897
20.648	12.2575
20.666	12.228
20.684	12.2009
20.702	12.1771
20.72	12.157
20.738	12.1404
20.756	12.1275
20.774	12.1184
20.792	12.1121
20.81	12.1087
20.828	12.1073
20.846	12.1067
20.864	12.1072
20.882	12.1069
20.9	12.106
20.918	12.1033
20.936	12.098
20.954	12.0902
20.972	12.0789
20.99	12.0642
21.008	12.0461
21.026	12.0244
21.044	11.9997
21.062	11.9729
21.08	11.9434
21.098	11.9134
21.116	11.8828
21.134	11.8525
21.152	11.8243
21.17	11.7976
21.188	11.7747
21.206	11.7557
21.224	11.7411
21.242	11.7322
21.26	11.7286
21.278	11.731
21.296	11.7397
21.314	11.7543
21.332	11.7744
21.35	11.8003
21.368	11.8305
21.386	11.865
21.404	11.903
21.422	11.9426
21.44	11.9844
21.458	12.0263
21.476	12.0674
21.494	12.1077
21.512	12.145
21.53	12.1796
21.548	12.2108
21.566	12.2377
21.584	12.2606
21.602	12.2793
21.62	12.2934
21.638	12.3036
21.656	12.3104
21.674	12.3136
21.692	12.3143
21.71	12.3127
21.728	12.309
21.746	12.3045
21.764	12.2991
21.782	12.293
21.8	12.2868
21.818	12.2802
21.836	12.2733
21.854	12.2665
21.872	12.259
21.89	12.2501
21.908	12.2402
21.926	12.2279
21.944	12.2125
21.962	12.1942
21.98	12.1711
21.998	12.1431
22.016	12.1098
22.034	12.07
22.052	12.0239
22.07	11.9714
22.088	11.9119
22.106	11.8456
22.124	11.7734
22.142	11.695
22.16	11.6112
22.178	11.5238
22.196	11.4321
22.214	11.3379
22.232	11.2437
22.25	11.1481
22.268	11.0541
22.286	10.9632
22.304	10.8745
22.322	10.7909
22.34	10.7127
22.358	10.6399
22.376	10.5743
22.394	10.5157
22.412	10.4643
22.43	10.4207
22.448	10.3847
22.466	10.356
22.484	10.3347
22.502	10.3209
22.52	10.3136
22.538	10.3128
22.556	10.3183
22.574	10.3288
22.592	10.3444
22.61	10.3647
22.628	10.388
22.646	10.4147
22.664	10.4441
22.682	10.4744
22.7	10.5063
22.718	10.5388
22.736	10.5704
22.754	10.6021
22.772	10.632
22.79	10.6585
22.808	10.6827
22.826	10.7027
22.844	10.7174
22.862	10.7276
22.88	10.7321
22.898	10.73
22.916	10.722
22.934	10.7079
22.952	10.6874
22.97	10.6608
22.988	10.6291
23.006	10.5921
23.024	10.5502
23.042	10.5055
23.06	10.4576
23.078	10.4071
23.096	10.357
23.114	10.3069
23.132	10.2572
23.15	10.2108
23.168	10.1673
23.186	10.1271
23.204	10.0925
23.222	10.0636
23.24	10.0402
23.258	10.0232
23.276	10.0132
23.294	10.0094
23.312	10.0108
23.33	10.018
23.348	10.0304
23.366	10.0458
23.384	10.0648
23.402	10.0868
23.42	10.1097
23.438	10.1336
23.456	10.1584
23.474	10.1822
23.492	10.2047
23.51	10.2262
23.528	10.2452
23.546	10.261
23.564	10.2742
23.582	10.2848
23.6	10.2923
23.618	10.297
23.636	10.3001
23.654	10.302
23.672	10.3022
23.69	10.3026
23.708	10.3046
23.726	10.307
23.744	10.3116
23.762	10.3201
23.78	10.3317
23.798	10.347
23.816	10.3667
23.834	10.3911
23.852	10.4194
23.87	10.4507
23.888	10.4862
23.906	10.5244
23.924	10.5623
23.942	10.6009
23.96	10.6395
23.978	10.6735
23.996	10.7019
24.014	10.7263
24.032	10.7417
24.05	10.7453
24.068	10.7397
24.086	10.7214
24.104	10.6869
24.122	10.638
24.14	10.5736
24.158	10.4911
24.176	10.3907
24.194	10.2731
24.212	10.1385
24.23	9.985914
24.248	9.816077
24.266	9.631871
24.284	9.434337
24.302	9.221561
24.32	8.998249
24.338	8.768539
24.356	8.528677
24.374	8.282981
24.392	8.038080
24.41	7.791849
24.428	7.545132
24.446	7.304905
24.464	7.074176
24.482	6.849682
24.5	6.634898
24.518	6.432773
24.536	6.241144
24.554	6.061635
24.572	5.896854
24.59	5.746290
24.608	5.609735
24.626	5.488776
24.644	5.383906
24.662	5.294140
24.68	5.221122
24.698	5.166358
24.716	5.128762
24.734	5.108937
24.752	5.108177
24.77	5.126000
24.788	5.162232
24.806	5.218920
24.824	5.297423
24.842	5.396339
24.86	5.516717
24.878	5.659961
24.896	5.825569
24.914	6.013437
24.932	6.224512
24.95	6.459502
24.968	6.717917
24.986	6.999148
25.004	7.302717
25.022	7.630136
25.04	7.979568
25.058	8.347666
25.076	8.733874
25.094	9.140441
25.112	9.561672
25.13	9.992090
25.148	10.4371
25.166	10.8924
25.184	11.3482
25.202	11.8013
25.22	12.2585
25.238	12.7083
25.256	13.1389
25.274	13.5575
25.292	13.961
25.31	14.3364
25.328	14.6767
25.346	14.9912
25.364	15.2707
25.382	15.5047
25.4	15.6948
25.418	15.8432
25.436	15.9445
25.454	15.9938
25.472	15.9932
25.49	15.9445
25.508	15.8491
25.526	15.7046
25.544	15.5107
25.562	15.2769
25.58	15.0118
25.598	14.706
25.616	14.3663
25.634	14.0084
25.652	13.6399
25.67	13.2474
25.688	12.847
25.706	12.4579
25.724	12.0789
25.742	11.7033
25.76	11.3477
25.778	11.0275
25.796	10.7323
25.814	10.4658
25.832	10.2413
25.85	10.0686
25.868	9.939859
25.886	9.856338
25.904	9.820851
25.922	9.838089
25.94	9.906597
25.958	10.0162
25.976	10.1568
25.994	10.3396
26.012	10.5596
26.03	10.7947
26.048	11.0267
26.066	11.2776
26.084	11.532
26.102	11.7606
26.12	11.9463
26.138	12.1144
26.156	12.2436
26.174	12.3063
26.192	12.2938
26.21	12.225
26.228	12.0817
26.246	11.8444
26.264	11.5098
26.282	11.0876
26.3	10.575
26.318	9.969032
26.336	9.262854
26.354	8.463324
26.372	7.584049
26.39	6.636607
26.408	5.601185
26.426	4.492083
26.444	3.339614
26.462	2.167064
26.48	0.941374
26.498	-0.314044
26.516	-1.558446
26.534	-2.764067
26.552	-3.969809
26.57	-5.148724
26.588	-6.260332
26.606	-7.279963
26.624	-8.242463
26.642	-9.125567
26.66	-9.898701
26.678	-10.5435
26.696	-11.0822
26.714	-11.5068
26.732	-11.8058
26.75	-11.9699
26.768	-12.0044
26.786	-11.917
26.804	-11.7151
26.822	-11.3962
26.84	-10.9473
26.858	-10.3955
26.876	-9.770104
26.894	-9.077918
26.912	-8.287481
26.93	-7.439229
26.948	-6.578335
26.966	-5.693333
26.984	-4.696862
27.002	-3.740235
27.02	-2.991257
27.028	-2.791261