File: Bakgrunnsmateriale/MATLAB/FTIR/ftir_data/LPE453/Mapping_121/LPE453_t28.asc
PE IR       SPECTRUM    SPECTRUM    ASCII       PEDS        1.60
  -1
LPEB99~1.ASC
17/05/16
16:40:19.00
17/05/16
16:40:45.00
tln
$LPE453_t0028$<tbV0>[0.0,-7.8,8.0,0.0,27,1,0]
27.028
64

2002,4.07
MIRTGS : RIGHTBACK : INTERNAL 2
MIR : ON : INTERNAL 2
OPTKBR

0.200000
8
8.000000
FILLER
RATIO
SPECTRUM
UNLOCKED 256

DOUBLE
64
COMBINED
1
0
0

0.002000
RATIO

1
0
TRUE
51149
0
LEFT NOT FITTED RIGHT NOT FITTED 0
NONE
NONE
15600
12
4.427000
51148
TRUE
1 0 8 72 0 0 0 0

15798

#HDR
-1
-1
#GR
µM
%T
2.38419e-05
0.0
2.000000
0.002000
12515
8
54.7985
-13.2571
#DATA
2.000000	 -0.045609
2.018000	 0.251942
2.036000	 0.175735
2.054000	 0.491808
2.072000	 0.356320
2.090000	 0.117400
2.108000	 0.105740
2.126000	 0.035792
2.144000	 0.347730
2.162000	 0.615074
2.180000	 0.536022
2.198000	 -0.172332
2.216000	 11.18
2.234000	 0.114438
2.252000	 -0.368159
2.270000	 0.372832
2.288000	 -0.248101
2.306000	 0.152144
2.324000	 0.025825
2.342000	 0.220428
2.360000	 0.266474
2.378000	 0.293017
2.396000	 0.633758
2.414000	 0.018235
2.432000	 0.206053
2.450000	 -0.022929
2.468000	 -0.069408
2.486000	 0.058966
2.504000	 0.114154
2.522000	 0.192716
2.540000	 0.152605
2.558000	 -0.098177
2.576000	 0.011192
2.594000	 -0.140627
2.612000	 0.006162
2.630000	 0.193979
2.648000	 -0.029401
2.666000	 -0.129142
2.684000	 -0.095116
2.702000	 0.044649
2.720000	 -0.027579
2.738000	 0.148455
2.756000	 -0.002051
2.774000	 0.105684
2.792000	 -0.058749
2.810000	 0.015703
2.828000	 0.192635
2.846000	 -0.015061
2.864000	 -0.014391
2.882000	 0.012573
2.900000	 0.037662
2.918000	 0.042780
2.936000	 0.142580
2.954000	 -0.006387
2.972000	 -0.004220
2.990000	 -0.084388
3.008000	 0.053203
3.026000	 -0.019376
3.044000	 0.052123
3.062000	 0.090611
3.080000	 0.158875
3.098000	 0.160460
3.116000	 -0.049891
3.134000	 0.048541
3.152000	 0.017121
3.170000	 -0.015671
3.188000	 0.085006
3.206000	 0.100948
3.224000	 -0.079327
3.242000	 0.049660
3.260000	 -0.016747
3.278000	 0.007696
3.296000	 0.131035
3.314000	 -0.028155
3.332000	 0.043734
3.350000	 -0.068710
3.368000	 0.028330
3.386000	 0.065283
3.404000	 -0.053483
3.422000	 0.016710
3.440000	 0.115952
3.458000	 0.084195
3.476000	 0.129418
3.494000	 0.078302
3.512000	 -0.076416
3.530000	 -0.097483
3.548000	 0.131908
3.566000	 0.021432
3.584000	 0.061748
3.602000	 0.066081
3.620000	 0.142725
3.638000	 -0.025457
3.656000	 0.129628
3.674000	 -0.005669
3.692000	 -0.034276
3.710000	 -0.011155
3.728000	 0.110720
3.746000	 0.044091
3.764000	 0.052615
3.782000	 0.027902
3.800000	 0.049214
3.818000	 0.049564
3.836000	 -0.026199
3.854000	 -0.033744
3.872000	 0.018774
3.890000	 0.040413
3.908000	 0.109735
3.926000	 -0.074073
3.944000	 -0.046378
3.962000	 0.006276
3.980000	 0.182624
3.998000	 -0.018143
4.016000	 0.110891
4.034000	 -0.025053
4.052000	 0.158035
4.070000	 -0.083330
4.088000	 0.051116
4.106000	 0.071583
4.124000	 0.198628
4.141999	 -0.182956
4.160000	 0.169554
4.178000	 -0.024994
4.196000	 0.031138
4.214000	 -0.019867
4.232000	 -0.029241
4.250000	 0.050018
4.268000	 0.093823
4.286000	 0.045963
4.304000	 0.083361
4.322000	 0.038641
4.340000	 0.046033
4.358000	 0.270949
4.375999	 0.348697
4.394000	 0.345157
4.412000	 0.467228
4.430000	 0.519740
4.448000	 0.797545
4.466000	 1.001329
4.484000	 1.201830
4.502000	 1.509246
4.520000	 2.015298
4.538000	 2.292132
4.556000	 2.653257
4.574000	 3.285444
4.592000	 3.817568
4.609999	 4.358270
4.628000	 5.031763
4.646000	 6.086749
4.664000	 6.707531
4.682000	 7.481933
4.700000	 8.333538
4.718000	 9.105140
4.736000	 9.955716
4.754000	 10.8565
4.772000	 11.8354
4.790000	 12.8093
4.808000	 13.5592
4.826000	 14.4954
4.843999	 15.3904
4.862000	 16.4465
4.880000	 17.1164
4.898000	 17.8454
4.916000	 18.673
4.934000	 19.5051
4.952000	 20.0712
4.970000	 20.6814
4.988000	 21.3285
5.006000	 22.0473
5.024000	 22.6181
5.042000	 23.1058
5.060000	 23.5457
5.077999	 24.0893
5.096000	 24.582
5.114000	 25.0144
5.132000	 25.4405
5.150000	 25.6992
5.168000	 26.0309
5.186000	 26.3318
5.204000	 26.6437
5.222000	 27.0067
5.240000	 27.2487
5.258000	 27.5664
5.276000	 27.8371
5.294000	 28.0732
5.312000	 28.218
5.330000	 28.3474
5.348000	 28.6503
5.366000	 28.7461
5.384000	 28.8739
5.402000	 29.0418
5.420000	 29.1473
5.438000	 29.287
5.456000	 29.4478
5.474000	 29.5604
5.492000	 29.6894
5.510000	 29.8434
5.528000	 29.9172
5.546000	 30.065
5.564000	 30.1093
5.582000	 30.206
5.600000	 30.2716
5.618000	 30.2634
5.636000	 30.2907
5.654000	 30.3166
5.672000	 30.4285
5.690000	 30.618
5.708000	 30.5772
5.726000	 30.572
5.744000	 30.6592
5.762000	 30.7116
5.780000	 30.7697
5.798000	 30.8275
5.816000	 30.8376
5.834000	 30.8942
5.852000	 30.8668
5.870000	 30.8213
5.888000	 30.8021
5.906000	 30.9198
5.923999	 30.9384
5.942000	 30.9155
5.960000	 30.946
5.978000	 30.9534
5.996000	 30.9899
6.014000	 31.1117
6.032000	 31.1411
6.050000	 31.1431
6.068000	 31.1445
6.086000	 31.1675
6.104000	 31.1419
6.122000	 31.0309
6.140000	 31.0124
6.158000	 31.098
6.176000	 31.1259
6.194000	 31.0891
6.212000	 31.032
6.230000	 31.0512
6.248000	 31.1413
6.266000	 31.1086
6.284000	 30.9776
6.302000	 30.9494
6.320000	 31.0318
6.338000	 31.0621
6.356000	 31.0074
6.374000	 31.0042
6.392000	 31.0672
6.410000	 31.0719
6.428000	 31.0696
6.446000	 31.0919
6.464000	 31.0963
6.482000	 31.0773
6.500000	 30.9902
6.518000	 30.9243
6.536000	 30.9476
6.554000	 30.9896
6.572000	 31.0259
6.590000	 31.0628
6.608000	 31.0975
6.626000	 31.1392
6.644000	 31.1704
6.662000	 31.1204
6.680000	 31.0193
6.698000	 30.9972
6.716000	 31.0011
6.734000	 30.9392
6.752000	 30.9043
6.770000	 30.9513
6.788000	 30.9355
6.806000	 30.8115
6.824000	 30.8416
6.842000	 31.0783
6.860000	 31.1923
6.878000	 31.0761
6.896000	 30.9703
6.914000	 30.9756
6.932000	 30.939
6.950000	 30.8155
6.968000	 30.7918
6.986000	 30.914
7.004000	 30.994
7.022000	 30.9664
7.040000	 30.9098
7.058000	 30.8819
7.076000	 30.8794
7.094000	 30.8506
7.112000	 30.8057
7.130000	 30.8019
7.148000	 30.8154
7.166000	 30.8049
7.184000	 30.8017
7.202000	 30.8195
7.220000	 30.812
7.238000	 30.7732
7.256000	 30.7564
7.274000	 30.775
7.292000	 30.7756
7.310000	 30.7155
7.328000	 30.6506
7.346000	 30.6578
7.364000	 30.7122
7.382000	 30.7648
7.400000	 30.8032
7.418000	 30.7916
7.436000	 30.7211
7.454000	 30.6579
7.472000	 30.6569
7.490000	 30.6926
7.508000	 30.6984
7.526000	 30.6628
7.544000	 30.6461
7.562000	 30.6659
7.580000	 30.6706
7.598000	 30.6566
7.616000	 30.6784
7.634000	 30.7396
7.652000	 30.7758
7.670000	 30.7546
7.688000	 30.7097
7.706000	 30.667
7.724000	 30.6087
7.742000	 30.5291
7.760000	 30.4621
7.778000	 30.4422
7.796000	 30.4776
7.814000	 30.5407
7.832000	 30.5803
7.850000	 30.5632
7.868000	 30.5033
7.886000	 30.4414
7.904000	 30.4117
7.922000	 30.4138
7.940000	 30.4137
7.958000	 30.3939
7.976000	 30.3762
7.994000	 30.3812
8.012000	 30.3976
8.030000	 30.4097
8.048000	 30.4152
8.065999	 30.4113
8.084000	 30.3984
8.102000	 30.388
8.120000	 30.3809
8.138000	 30.3543
8.155999	 30.2929
8.173999	 30.2221
8.192000	 30.187
8.210000	 30.2074
8.228000	 30.2625
8.246000	 30.3123
8.263999	 30.3318
8.282000	 30.3259
8.300000	 30.3189
8.318000	 30.3216
8.336000	 30.3098
8.353999	 30.254
8.372000	 30.1644
8.390000	 30.0869
8.408000	 30.0567
8.426000	 30.0709
8.443999	 30.1051
8.462000	 30.144
8.480000	 30.1861
8.498000	 30.2273
8.516000	 30.2548
8.533999	 30.2585
8.552000	 30.2329
8.570000	 30.1737
8.588000	 30.0861
8.606000	 30
8.624000	 29.9545
8.641999	 29.958
8.660000	 29.9848
8.678000	 30.0082
8.696000	 30.0218
8.714000	 30.0305
8.731999	 30.039
8.750000	 30.0522
8.768000	 30.0698
8.786000	 30.0787
8.804000	 30.0644
8.821999	 30.0311
8.840000	 29.9983
8.858000	 29.9811
8.876000	 29.9811
8.894000	 29.9862
8.911999	 29.9771
8.930000	 29.9439
8.948000	 29.9018
8.966000	 29.8867
8.984000	 29.9185
9.001999	 29.9723
9.020000	 29.9943
9.038000	 29.9524
9.056000	 29.8686
9.074000	 29.8017
9.092000	 29.7995
9.109999	 29.8636
9.128000	 29.9544
9.146000	 30.0233
9.164000	 30.0423
9.182000	 30.0098
9.199999	 29.9429
9.218000	 29.8696
9.236000	 29.8188
9.254000	 29.8036
9.272000	 29.8102
9.289999	 29.8039
9.308000	 29.7557
9.326000	 29.6659
9.344000	 29.5633
9.362000	 29.4824
9.379999	 29.4436
9.398000	 29.4475
9.416000	 29.4815
9.434000	 29.528
9.452000	 29.5712
9.469999	 29.599
9.488000	 29.6061
9.506000	 29.596
9.524000	 29.5769
9.542000	 29.554
9.560000	 29.5246
9.577999	 29.484
9.596000	 29.4358
9.614000	 29.3936
9.632000	 29.3709
9.650000	 29.3678
9.667999	 29.371
9.686000	 29.3647
9.704000	 29.3438
9.722000	 29.3162
9.740000	 29.2934
9.757999	 29.2807
9.776000	 29.2731
9.794000	 29.2594
9.812000	 29.23
9.830000	 29.1826
9.847999	 29.1247
9.866000	 29.0707
9.884000	 29.0361
9.902000	 29.0313
9.920000	 29.0567
9.937999	 29.1016
9.956000	 29.1483
9.974000	 29.1782
9.992000	 29.1783
10.01	29.1451
10.028	29.0854
10.046	29.0143
10.064	28.9512
10.082	28.9145
10.1	28.9174
10.118	28.9622
10.136	29.0369
10.154	29.1179
10.172	29.1778
10.19	29.1969
10.208	29.1728
10.226	29.1191
10.244	29.0574
10.262	29.0057
10.28	28.9689
10.298	28.9414
10.316	28.9114
10.334	28.8701
10.352	28.8153
10.37	28.7522
10.388	28.6901
10.406	28.6382
10.424	28.6018
10.442	28.5806
10.46	28.5709
10.478	28.5667
10.496	28.5625
10.514	28.5549
10.532	28.5415
10.55	28.5211
10.568	28.4948
10.586	28.4659
10.604	28.4384
10.622	28.4164
10.64	28.4011
10.658	28.3909
10.676	28.3846
10.694	28.3844
10.712	28.3945
10.73	28.4163
10.748	28.4457
10.766	28.4712
10.784	28.4814
10.802	28.4697
10.82	28.4394
10.838	28.4021
10.856	28.3703
10.874	28.3524
10.892	28.3479
10.91	28.3491
10.928	28.3472
10.946	28.3349
10.964	28.31
10.982	28.2737
11	28.2297
11.018	28.183
11.036	28.1379
11.054	28.0981
11.072	28.0664
11.09	28.0452
11.108	28.0347
11.126	28.033
11.144	28.0365
11.162	28.0402
11.18	28.0407
11.198	28.0373
11.216	28.0308
11.234	28.023
11.252	28.0137
11.27	27.9999
11.288	27.977
11.306	27.9428
11.324	27.9006
11.342	27.8611
11.36	27.8371
11.378	27.8378
11.396	27.8622
11.414	27.897
11.432	27.9221
11.45	27.9197
11.468	27.8807
11.486	27.809
11.504	27.7187
11.522	27.6283
11.54	27.552
11.558	27.4974
11.576	27.464
11.594	27.4469
11.612	27.4401
11.63	27.4389
11.648	27.4403
11.666	27.4412
11.684	27.4379
11.702	27.4259
11.72	27.4017
11.738	27.3643
11.756	27.3166
11.774	27.265
11.792	27.2172
11.81	27.18
11.828	27.1568
11.846	27.1487
11.864	27.1534
11.882	27.1679
11.9	27.189
11.918	27.2143
11.936	27.2419
11.954	27.2697
11.972	27.2954
11.99	27.317
12.008	27.3326
12.026	27.3415
12.044	27.3445
12.062	27.3425
12.08	27.3373
12.098	27.3303
12.116	27.3225
12.134	27.3143
12.152	27.3059
12.17	27.2966
12.188	27.2842
12.206	27.2649
12.224	27.2339
12.242	27.1863
12.26	27.1195
12.278	27.0343
12.296	26.9358
12.314	26.8334
12.332	26.7385
12.35	26.6613
12.368	26.6088
12.386	26.5825
12.404	26.5783
12.422	26.5882
12.44	26.6025
12.458	26.6135
12.476	26.6172
12.494	26.6137
12.512	26.6063
12.53	26.5995
12.548	26.5962
12.566	26.5969
12.584	26.599
12.602	26.5977
12.62	26.5881
12.638	26.5672
12.656	26.5348
12.674	26.494
12.692	26.4505
12.71	26.4107
12.728	26.3813
12.746	26.3673
12.764	26.3706
12.782	26.3897
12.8	26.4208
12.818	26.458
12.836	26.4938
12.854	26.5211
12.872	26.5341
12.89	26.5295
12.908	26.507
12.926	26.4698
12.944	26.4233
12.962	26.3746
12.98	26.3302
12.998	26.2945
13.016	26.2686
13.034	26.2508
13.052	26.2363
13.07	26.2195
13.088	26.1954
13.106	26.1622
13.124	26.1207
13.142	26.0765
13.16	26.0373
13.178	26.0125
13.196	26.0101
13.214	26.0346
13.232	26.0858
13.25	26.1579
13.268	26.2413
13.286	26.3243
13.304	26.3953
13.322	26.4448
13.34	26.4675
13.358	26.4617
13.376	26.4293
13.394	26.3745
13.412	26.3023
13.43	26.218
13.448	26.1262
13.466	26.0307
13.484	25.9344
13.502	25.84
13.52	25.7497
13.538	25.6655
13.556	25.5897
13.574	25.5242
13.592	25.4711
13.61	25.4317
13.628	25.4074
13.646	25.3988
13.664	25.4064
13.682	25.4292
13.7	25.4655
13.718	25.5125
13.736	25.5662
13.754	25.6215
13.772	25.6728
13.79	25.7143
13.808	25.7413
13.826	25.7503
13.844	25.7396
13.862	25.7097
13.88	25.6625
13.898	25.6017
13.916	25.5315
13.934	25.4562
13.952	25.3796
13.97	25.3049
13.988	25.2348
14.006	25.1704
14.024	25.1123
14.042	25.0607
14.06	25.0155
14.078	24.9766
14.096	24.9434
14.114	24.9151
14.132	24.8908
14.15	24.8695
14.168	24.8496
14.186	24.8299
14.204	24.8092
14.222	24.787
14.24	24.7633
14.258	24.739
14.276	24.7154
14.294	24.6938
14.312	24.676
14.33	24.6634
14.348	24.6567
14.366	24.6556
14.384	24.6596
14.402	24.6674
14.42	24.6781
14.438	24.6907
14.456	24.7048
14.474	24.7203
14.492	24.7377
14.51	24.7579
14.528	24.7814
14.546	24.8082
14.564	24.8376
14.582	24.8679
14.6	24.8968
14.618	24.9213
14.636	24.9381
14.654	24.9447
14.672	24.9396
14.69	24.9223
14.708	24.8936
14.726	24.8558
14.744	24.8118
14.762	24.7651
14.78	24.7187
14.798	24.6747
14.816	24.6346
14.834	24.5988
14.852	24.5661
14.87	24.5348
14.888	24.5034
14.906	24.4706
14.924	24.4355
14.942	24.3984
14.96	24.3608
14.978	24.3244
14.996	24.2917
15.014	24.2647
15.032	24.2454
15.05	24.2342
15.068	24.2302
15.086	24.2315
15.104	24.2353
15.122	24.2379
15.14	24.236
15.158	24.2271
15.176	24.2096
15.194	24.1829
15.212	24.1484
15.23	24.1083
15.248	24.0651
15.266	24.0217
15.284	23.9809
15.302	23.9444
15.32	23.9129
15.338	23.8866
15.356	23.8642
15.374	23.8439
15.392	23.8237
15.41	23.8013
15.428	23.7749
15.446	23.7429
15.464	23.7047
15.482	23.66
15.5	23.6097
15.518	23.5556
15.536	23.5003
15.554	23.4465
15.572	23.3968
15.59	23.3549
15.608	23.3231
15.626	23.3034
15.644	23.2976
15.662	23.3064
15.68	23.3297
15.698	23.367
15.716	23.417
15.734	23.4776
15.752	23.5468
15.77	23.6225
15.788	23.7015
15.806	23.7811
15.824	23.8589
15.842	23.9321
15.86	23.9978
15.878	24.0543
15.896	24.0999
15.914	24.1327
15.932	24.1522
15.95	24.1582
15.968	24.1504
15.986	24.13
16.004	24.0977
16.022	24.0544
16.04	24.0024
16.058	23.9426
16.076	23.8762
16.094	23.8045
16.112	23.728
16.13	23.6471
16.148	23.5623
16.166	23.4739
16.184	23.3826
16.202	23.2892
16.22	23.1955
16.238	23.1031
16.256	23.0136
16.274	22.9305
16.292	22.8559
16.31	22.7919
16.328	22.7416
16.346	22.7058
16.364	22.6854
16.382	22.6806
16.4	22.6902
16.418	22.7132
16.436	22.7467
16.454	22.7879
16.472	22.8343
16.49	22.882
16.508	22.9279
16.526	22.9701
16.544	23.0053
16.562	23.032
16.58	23.0492
16.598	23.0558
16.616	23.052
16.634	23.0379
16.652	23.0145
16.67	22.9831
16.688	22.9446
16.706	22.902
16.724	22.8564
16.742	22.81
16.76	22.7655
16.778	22.724
16.796	22.6872
16.814	22.6558
16.832	22.63
16.85	22.6091
16.868	22.5918
16.886	22.5768
16.904	22.5614
16.922	22.5439
16.94	22.5224
16.958	22.4946
16.976	22.46
16.994	22.4175
17.012	22.3681
17.03	22.3118
17.048	22.2507
17.066	22.1863
17.084	22.1207
17.102	22.0565
17.12	21.9949
17.138	21.9388
17.156	21.8893
17.174	21.8478
17.192	21.8153
17.21	21.7922
17.228	21.7788
17.246	21.7748
17.264	21.7802
17.282	21.7944
17.3	21.8169
17.318	21.847
17.336	21.8838
17.354	21.9266
17.372	21.974
17.39	22.0252
17.408	22.079
17.426	22.1335
17.444	22.1879
17.462	22.2396
17.48	22.2879
17.498	22.3309
17.516	22.3676
17.534	22.397
17.552	22.4185
17.57	22.4319
17.588	22.4369
17.606	22.4339
17.624	22.4231
17.642	22.4052
17.66	22.3803
17.678	22.3497
17.696	22.3139
17.714	22.2736
17.732	22.2294
17.75	22.182
17.768	22.1319
17.786	22.0792
17.804	22.0252
17.822	21.97
17.84	21.9141
17.858	21.8578
17.876	21.8014
17.894	21.7447
17.912	21.6879
17.93	21.631
17.948	21.574
17.966	21.5168
17.984	21.4593
18.002	21.4015
18.02	21.3437
18.038	21.2859
18.056	21.2287
18.074	21.1724
18.092	21.118
18.11	21.0657
18.128	21.0168
18.146	20.9715
18.164	20.9307
18.182	20.8946
18.2	20.8636
18.218	20.8373
18.236	20.8159
18.254	20.7984
18.272	20.7849
18.29	20.7734
18.308	20.7636
18.326	20.7536
18.344	20.7433
18.362	20.7311
18.38	20.7172
18.398	20.7011
18.416	20.6831
18.434	20.6635
18.452	20.6435
18.47	20.6237
18.488	20.6058
18.506	20.5903
18.524	20.5793
18.542	20.5735
18.56	20.5741
18.578	20.5813
18.596	20.596
18.614	20.6182
18.632	20.6475
18.65	20.6837
18.668	20.7257
18.686	20.7732
18.704	20.8246
18.722	20.8796
18.74	20.9363
18.758	20.9945
18.776	21.0522
18.794	21.1093
18.812	21.1643
18.83	21.2168
18.848	21.266
18.866	21.3115
18.884	21.3526
18.902	21.389
18.92	21.42
18.938	21.4453
18.956	21.4644
18.974	21.4771
18.992	21.4827
19.01	21.481
19.028	21.4716
19.046	21.454
19.064	21.428
19.082	21.3934
19.1	21.3499
19.118	21.2977
19.136	21.2368
19.154	21.1675
19.172	21.0904
19.19	21.0061
19.208	20.9157
19.226	20.8199
19.244	20.7206
19.262	20.6182
19.28	20.5156
19.298	20.4131
19.316	20.3143
19.334	20.2189
19.352	20.1312
19.37	20.0508
19.388	19.9811
19.406	19.9221
19.424	19.8761
19.442	19.8434
19.46	19.8246
19.478	19.8199
19.496	19.8286
19.514	19.851
19.532	19.8848
19.55	19.9294
19.568	19.9829
19.586	20.0433
19.604	20.1094
19.622	20.1777
19.64	20.2481
19.658	20.3168
19.676	20.3842
19.694	20.447
19.712	20.5055
19.73	20.5579
19.748	20.6041
19.766	20.6438
19.784	20.6766
19.802	20.7033
19.82	20.7237
19.838	20.7384
19.856	20.7481
19.874	20.7528
19.892	20.7535
19.91	20.75
19.928	20.7427
19.946	20.7318
19.964	20.7169
19.982	20.6982
20	20.6752
20.018	20.6477
20.036	20.6154
20.054	20.5776
20.072	20.5343
20.09	20.4848
20.108	20.4293
20.126	20.3675
20.144	20.2995
20.162	20.2258
20.18	20.1466
20.198	20.0626
20.216	19.9748
20.234	19.8832
20.252	19.7901
20.27	19.695
20.288	19.6002
20.306	19.5058
20.324	19.4132
20.342	19.3238
20.36	19.2376
20.378	19.1567
20.396	19.0805
20.414	19.0111
20.432	18.9483
20.45	18.8931
20.468	18.8459
20.486	18.8069
20.504	18.7769
20.522	18.7558
20.54	18.7437
20.558	18.7407
20.576	18.7465
20.594	18.7613
20.612	18.7845
20.63	18.8153
20.648	18.8538
20.666	18.8983
20.684	18.949
20.702	19.0042
20.72	19.0626
20.738	19.1241
20.756	19.1859
20.774	19.2489
20.792	19.3098
20.81	19.3684
20.828	19.4237
20.846	19.4736
20.864	19.5188
20.882	19.5573
20.9	19.5891
20.918	19.6142
20.936	19.632
20.954	19.6431
20.972	19.648
20.99	19.6465
21.008	19.6404
21.026	19.6301
21.044	19.6164
21.062	19.6021
21.08	19.5862
21.098	19.5717
21.116	19.5592
21.134	19.5492
21.152	19.5439
21.17	19.5427
21.188	19.5466
21.206	19.5561
21.224	19.5707
21.242	19.5899
21.26	19.6141
21.278	19.6409
21.296	19.6707
21.314	19.702
21.332	19.7322
21.35	19.7622
21.368	19.7886
21.386	19.8109
21.404	19.8287
21.422	19.8391
21.44	19.843
21.458	19.839
21.476	19.8264
21.494	19.8057
21.512	19.7769
21.53	19.7396
21.548	19.6954
21.566	19.6451
21.584	19.5884
21.602	19.5285
21.62	19.4645
21.638	19.3985
21.656	19.3329
21.674	19.2669
21.692	19.2031
21.71	19.1423
21.728	19.0843
21.746	19.0307
21.764	18.9815
21.782	18.9364
21.8	18.8958
21.818	18.8595
21.836	18.8265
21.854	18.7972
21.872	18.7707
21.89	18.7456
21.908	18.7224
21.926	18.6999
21.944	18.677
21.962	18.6541
21.98	18.6301
21.998	18.6047
22.016	18.5782
22.034	18.5502
22.052	18.5205
22.07	18.4899
22.088	18.4588
22.106	18.4268
22.124	18.3956
22.142	18.3652
22.16	18.3358
22.178	18.3091
22.196	18.2847
22.214	18.2632
22.232	18.2452
22.25	18.2305
22.268	18.2194
22.286	18.2122
22.304	18.2087
22.322	18.2086
22.34	18.2122
22.358	18.2191
22.376	18.2282
22.394	18.24
22.412	18.2535
22.43	18.2674
22.448	18.2823
22.466	18.2966
22.484	18.3091
22.502	18.3205
22.52	18.3287
22.538	18.3331
22.556	18.334
22.574	18.3296
22.592	18.3198
22.61	18.3045
22.628	18.2828
22.646	18.2547
22.664	18.2202
22.682	18.1785
22.7	18.1296
22.718	18.0739
22.736	18.0115
22.754	17.942
22.772	17.8666
22.79	17.7862
22.808	17.6999
22.826	17.6104
22.844	17.5189
22.862	17.4244
22.88	17.3301
22.898	17.2371
22.916	17.1444
22.934	17.056
22.952	16.9726
22.97	16.8936
22.988	16.8227
23.006	16.7604
23.024	16.7062
23.042	16.6632
23.06	16.6314
23.078	16.6106
23.096	16.6027
23.114	16.6081
23.132	16.6261
23.15	16.6568
23.168	16.701
23.186	16.7574
23.204	16.8235
23.222	16.9002
23.24	16.9861
23.258	17.0771
23.276	17.1738
23.294	17.2755
23.312	17.3786
23.33	17.484
23.348	17.5906
23.366	17.6939
23.384	17.7952
23.402	17.8932
23.42	17.9827
23.438	18.0639
23.456	18.1369
23.474	18.1973
23.492	18.2446
23.51	18.2795
23.528	18.3003
23.546	18.3064
23.564	18.2984
23.582	18.2757
23.6	18.2379
23.618	18.1855
23.636	18.1189
23.654	18.0382
23.672	17.9432
23.69	17.8357
23.708	17.7167
23.726	17.585
23.744	17.4432
23.762	17.2929
23.78	17.1323
23.798	16.9649
23.816	16.7943
23.834	16.6175
23.852	16.4384
23.87	16.2626
23.888	16.0877
23.906	15.9157
23.924	15.7524
23.942	15.5973
23.96	15.4502
23.978	15.3163
23.996	15.1968
24.014	15.0897
24.032	15.0005
24.05	14.9323
24.068	14.8821
24.086	14.8539
24.104	14.8516
24.122	14.8734
24.14	14.9198
24.158	14.9926
24.176	15.0922
24.194	15.2173
24.212	15.3666
24.23	15.5409
24.248	15.7397
24.266	15.9589
24.284	16.197
24.302	16.4566
24.32	16.7315
24.338	17.0163
24.356	17.3151
24.374	17.6237
24.392	17.935
24.41	18.2518
24.428	18.5727
24.446	18.8887
24.464	19.1963
24.482	19.4997
24.5	19.7932
24.518	20.0723
24.536	20.3421
24.554	20.5966
24.572	20.8273
24.59	21.038
24.608	21.227
24.626	21.385
24.644	21.5093
24.662	21.6055
24.68	21.6621
24.698	21.6686
24.716	21.6324
24.734	21.5485
24.752	21.4069
24.77	21.2083
24.788	20.9552
24.806	20.6379
24.824	20.25
24.842	19.7975
24.86	19.2763
24.878	18.6806
24.896	18.0103
24.914	17.2678
24.932	16.4536
24.95	15.566
24.968	14.6036
24.986	13.5754
25.004	12.4901
25.022	11.3386
25.04	10.129
25.058	8.879172
25.076	7.594359
25.094	6.263195
25.112	4.907486
25.13	3.548650
25.148	2.169741
25.166	0.782259
25.184	-0.584410
25.202	-1.919567
25.22	-3.242254
25.238	-4.524792
25.256	-5.738451
25.274	-6.899740
25.292	-8.002270
25.31	-9.016960
25.328	-9.928050
25.346	-10.7558
25.364	-11.4813
25.382	-12.0819
25.4	-12.5619
25.418	-12.9258
25.436	-13.1603
25.454	-13.2545
25.472	-13.2148
25.49	-13.0428
25.508	-12.7381
25.526	-12.2976
25.544	-11.7228
25.562	-11.023
25.58	-10.2065
25.598	-9.262664
25.616	-8.200920
25.634	-7.040482
25.652	-5.790462
25.67	-4.433792
25.688	-2.993352
25.706	-1.496099
25.724	0.062557
25.742	1.690777
25.76	3.356603
25.778	5.031299
25.796	6.740927
25.814	8.470494
25.832	10.1816
25.85	11.8511
25.868	13.5103
25.886	15.1321
25.904	16.681
25.922	18.1522
25.94	19.5657
25.958	20.8916
25.976	22.0997
25.994	23.1975
26.012	24.1913
26.03	25.0662
26.048	25.8086
26.066	26.4205
26.084	26.9096
26.102	27.282
26.12	27.5378
26.138	27.6651
26.156	27.6857
26.174	27.625
26.192	27.4835
26.21	27.241
26.228	26.9391
26.246	26.6211
26.264	26.2784
26.282	25.8955
26.3	25.5176
26.318	25.1893
26.336	24.8903
26.354	24.6174
26.372	24.4058
26.39	24.2882
26.408	24.2461
26.426	24.2799
26.444	24.4069
26.462	24.6436
26.48	24.989
26.498	25.4311
26.516	25.9588
26.534	26.5659
26.552	27.2684
26.57	28.0489
26.588	28.8841
26.606	29.7604
26.624	30.6987
26.642	31.6826
26.66	32.6908
26.678	33.7117
26.696	34.7632
26.714	35.8323
26.732	36.9029
26.75	37.9644
26.768	39.0263
26.786	40.0894
26.804	41.1532
26.822	42.2165
26.84	43.2782
26.858	44.3421
26.876	45.4123
26.894	46.4896
26.912	47.5695
26.93	48.6578
26.948	49.7609
26.966	50.9376
26.984	52.2645
27.002	53.5367
27.02	54.5324
27.028	54.7985