File: Bakgrunnsmateriale/MATLAB/FTIR/ftir_data/LPE453/Mapping_121/LPE453_t01.asc
PE IR       SPECTRUM    SPECTRUM    ASCII       PEDS        1.60
  -1
LPE453~4.ASC
17/05/16
14:28:01.00
17/05/16
14:28:28.00
tln
$LPE453_t0001$<tbV0>[13.0,-13.0,8.0,0.0,27,1,0]
27.028
64

2002,4.07
MIRTGS : RIGHTBACK : INTERNAL 2
MIR : ON : INTERNAL 2
OPTKBR

0.200000
8
8.000000
FILLER
RATIO
SPECTRUM
UNLOCKED 256

DOUBLE
64
COMBINED
1
0
0

0.002000
RATIO

1
0
TRUE
51149
0
LEFT NOT FITTED RIGHT NOT FITTED 0
NONE
NONE
15600
12
4.427000
51148
TRUE
1 0 8 72 0 0 0 0

15798

#HDR
-1
-1
#GR
µM
%T
2.38419e-05
0.0
2.000000
0.002000
12515
8
33.3907
-6.039347
#DATA
2.000000	 0.128602
2.018000	 0.033925
2.036000	 0.357618
2.054000	 0.179464
2.072000	 0.355966
2.090000	 0.592694
2.108000	 0.680891
2.126000	 0.079500
2.144000	 0.075577
2.162000	 0.280992
2.180000	 0.039966
2.198000	 -0.529316
2.216000	 0.041498
2.234000	 5.136379
2.252000	 0.603822
2.270000	 -0.145638
2.288000	 0.271303
2.306000	 0.214420
2.324000	 0.147404
2.342000	 0.164513
2.360000	 0.302749
2.378000	 0.159172
2.396000	 0.205582
2.414000	 0.404164
2.432000	 0.025765
2.450000	 0.224137
2.468000	 0.088165
2.486000	 -0.101798
2.504000	 0.010890
2.522000	 0.194821
2.540000	 0.202442
2.558000	 -0.099795
2.576000	 0.096301
2.594000	 0.043714
2.612000	 -0.018895
2.630000	 0.174795
2.648000	 0.064451
2.666000	 0.225639
2.684000	 -0.022218
2.702000	 -0.067934
2.720000	 0.105260
2.738000	 -0.172620
2.756000	 0.215206
2.774000	 -0.021338
2.792000	 0.161535
2.810000	 0.073275
2.828000	 0.178001
2.846000	 0.121309
2.864000	 -0.003977
2.882000	 0.116462
2.900000	 0.006901
2.918000	 0.024028
2.936000	 0.013252
2.954000	 -0.029233
2.972000	 -0.013598
2.990000	 0.011144
3.008000	 0.070407
3.026000	 0.061917
3.044000	 -0.000579
3.062000	 -0.002692
3.080000	 0.099652
3.098000	 0.120137
3.116000	 0.087740
3.134000	 0.134476
3.152000	 -0.100899
3.170000	 -0.026921
3.188000	 0.128782
3.206000	 -0.024947
3.224000	 0.105674
3.242000	 0.035402
3.260000	 -0.141404
3.278000	 -0.056367
3.296000	 0.051630
3.314000	 0.036754
3.332000	 0.030886
3.350000	 -0.054976
3.368000	 0.100840
3.386000	 0.058229
3.404000	 0.004701
3.422000	 0.012563
3.440000	 0.114707
3.458000	 0.042203
3.476000	 0.032239
3.494000	 -0.090641
3.512000	 0.047635
3.530000	 -0.071872
3.548000	 -0.002406
3.566000	 -0.008366
3.584000	 0.133484
3.602000	 -0.048385
3.620000	 0.049116
3.638000	 0.081841
3.656000	 -0.022190
3.674000	 -0.022120
3.692000	 0.062014
3.710000	 0.059078
3.728000	 0.120603
3.746000	 -0.003507
3.764000	 0.132480
3.782000	 0.090165
3.800000	 -0.016303
3.818000	 0.160919
3.836000	 -0.033291
3.854000	 0.077985
3.872000	 0.104319
3.890000	 0.043180
3.908000	 -0.057663
3.926000	 0.079008
3.944000	 0.022779
3.962000	 0.015813
3.980000	 -0.103843
3.998000	 0.004604
4.016000	 0.030013
4.034000	 0.175468
4.052000	 0.021030
4.070000	 0.055234
4.088000	 0.133922
4.106000	 0.066073
4.124000	 0.126784
4.141999	 0.214940
4.160000	 -0.012006
4.178000	 0.107376
4.196000	 0.235845
4.214000	 -0.029829
4.232000	 0.020429
4.250000	 0.027754
4.268000	 0.027403
4.286000	 0.042765
4.304000	 -0.029152
4.322000	 -0.048389
4.340000	 0.142557
4.358000	 0.178264
4.375999	 0.161261
4.394000	 0.251227
4.412000	 0.359255
4.430000	 0.496292
4.448000	 0.577478
4.466000	 0.774463
4.484000	 0.992449
4.502000	 1.203712
4.520000	 1.513539
4.538000	 1.744123
4.556000	 2.154960
4.574000	 2.469096
4.592000	 2.793546
4.609999	 3.323183
4.628000	 3.987837
4.646000	 4.630382
4.664000	 5.108255
4.682000	 5.736902
4.700000	 6.383158
4.718000	 7.011702
4.736000	 7.729434
4.754000	 8.412224
4.772000	 9.217756
4.790000	 9.928251
4.808000	 10.6661
4.826000	 11.3451
4.843999	 12.2612
4.862000	 12.7754
4.880000	 13.4127
4.898000	 14.0466
4.916000	 14.7043
4.934000	 15.323
4.952000	 15.924
4.970000	 16.4973
4.988000	 17.014
5.006000	 17.499
5.024000	 18.0972
5.042000	 18.4835
5.060000	 18.8413
5.077999	 19.3856
5.096000	 19.8333
5.114000	 20.1444
5.132000	 20.5209
5.150000	 20.9618
5.168000	 21.221
5.186000	 21.4738
5.204000	 21.7791
5.222000	 22.0368
5.240000	 22.3048
5.258000	 22.5942
5.276000	 22.8643
5.294000	 23.0387
5.312000	 23.1649
5.330000	 23.3782
5.348000	 23.6381
5.366000	 23.7326
5.384000	 23.8895
5.402000	 24.1365
5.420000	 24.338
5.438000	 24.4716
5.456000	 24.5047
5.474000	 24.6525
5.492000	 24.7292
5.510000	 24.8507
5.528000	 25.0193
5.546000	 25.0742
5.564000	 25.1083
5.582000	 25.1794
5.600000	 25.3056
5.618000	 25.4469
5.636000	 25.5042
5.654000	 25.5254
5.672000	 25.5353
5.690000	 25.6149
5.708000	 25.699
5.726000	 25.7508
5.744000	 25.7908
5.762000	 25.852
5.780000	 25.854
5.798000	 25.9312
5.816000	 26.1279
5.834000	 26.2088
5.852000	 26.169
5.870000	 26.2386
5.888000	 26.41
5.906000	 26.3793
5.923999	 26.3604
5.942000	 26.3827
5.960000	 26.2999
5.978000	 26.307
5.996000	 26.3595
6.014000	 26.4239
6.032000	 26.6505
6.050000	 26.7286
6.068000	 26.6284
6.086000	 26.6688
6.104000	 26.6967
6.122000	 26.6467
6.140000	 26.6657
6.158000	 26.759
6.176000	 26.8296
6.194000	 26.8248
6.212000	 26.7716
6.230000	 26.7282
6.248000	 26.734
6.266000	 26.7537
6.284000	 26.8043
6.302000	 26.8187
6.320000	 26.8035
6.338000	 26.9205
6.356000	 27.0103
6.374000	 26.9454
6.392000	 26.9455
6.410000	 27.0413
6.428000	 27.0153
6.446000	 26.9401
6.464000	 26.9258
6.482000	 26.9513
6.500000	 27.0086
6.518000	 26.9684
6.536000	 26.9075
6.554000	 26.9685
6.572000	 27.0495
6.590000	 27.02
6.608000	 26.9198
6.626000	 26.9208
6.644000	 26.9399
6.662000	 26.8612
6.680000	 26.9212
6.698000	 27.1069
6.716000	 27.1129
6.734000	 26.9938
6.752000	 26.903
6.770000	 26.8956
6.788000	 26.8841
6.806000	 26.8072
6.824000	 26.8384
6.842000	 27.0055
6.860000	 27.1427
6.878000	 27.2104
6.896000	 27.1472
6.914000	 26.9766
6.932000	 26.9361
6.950000	 27.0311
6.968000	 27.0642
6.986000	 26.9993
7.004000	 26.9432
7.022000	 26.9821
7.040000	 27.0635
7.058000	 27.0762
7.076000	 27.0418
7.094000	 27.0248
7.112000	 27.0334
7.130000	 27.0506
7.148000	 27.0572
7.166000	 27.0635
7.184000	 27.0649
7.202000	 27.0443
7.220000	 27.0329
7.238000	 27.0491
7.256000	 27.0776
7.274000	 27.1119
7.292000	 27.1426
7.310000	 27.1401
7.328000	 27.0912
7.346000	 27.035
7.364000	 27.0339
7.382000	 27.0928
7.400000	 27.1311
7.418000	 27.0809
7.436000	 26.997
7.454000	 26.9714
7.472000	 27.0021
7.490000	 27.0292
7.508000	 27.0274
7.526000	 27.0173
7.544000	 27.0164
7.562000	 27.0183
7.580000	 27.0155
7.598000	 27.0136
7.616000	 27.0213
7.634000	 27.0349
7.652000	 27.029
7.670000	 26.9866
7.688000	 26.9307
7.706000	 26.8935
7.724000	 26.8829
7.742000	 26.8953
7.760000	 26.9249
7.778000	 26.9347
7.796000	 26.8757
7.814000	 26.7726
7.832000	 26.7167
7.850000	 26.7321
7.868000	 26.7448
7.886000	 26.7163
7.904000	 26.6851
7.922000	 26.6795
7.940000	 26.6917
7.958000	 26.724
7.976000	 26.7898
7.994000	 26.871
8.012000	 26.9189
8.030000	 26.902
8.048000	 26.839
8.065999	 26.7717
8.084000	 26.7214
8.102000	 26.6945
8.120000	 26.6937
8.138000	 26.7064
8.155999	 26.7138
8.173999	 26.7159
8.192000	 26.7285
8.210000	 26.7572
8.228000	 26.7945
8.246000	 26.832
8.263999	 26.8599
8.282000	 26.8639
8.300000	 26.8384
8.318000	 26.799
8.336000	 26.7707
8.353999	 26.7635
8.372000	 26.7651
8.390000	 26.7551
8.408000	 26.7228
8.426000	 26.6737
8.443999	 26.6236
8.462000	 26.5872
8.480000	 26.572
8.498000	 26.5855
8.516000	 26.6353
8.533999	 26.7114
8.552000	 26.7749
8.570000	 26.7818
8.588000	 26.7275
8.606000	 26.6568
8.624000	 26.622
8.641999	 26.635
8.660000	 26.6626
8.678000	 26.6616
8.696000	 26.6151
8.714000	 26.5458
8.731999	 26.4994
8.750000	 26.5085
8.768000	 26.5609
8.786000	 26.6078
8.804000	 26.6104
8.821999	 26.5738
8.840000	 26.5257
8.858000	 26.4825
8.876000	 26.4475
8.894000	 26.4284
8.911999	 26.4358
8.930000	 26.4633
8.948000	 26.4773
8.966000	 26.4396
8.984000	 26.3475
9.001999	 26.2475
9.020000	 26.201
9.038000	 26.2365
9.056000	 26.3309
9.074000	 26.4327
9.092000	 26.5005
9.109999	 26.5237
9.128000	 26.5164
9.146000	 26.4976
9.164000	 26.4767
9.182000	 26.4527
9.199999	 26.4234
9.218000	 26.3894
9.236000	 26.3524
9.254000	 26.3073
9.272000	 26.2447
9.289999	 26.1624
9.308000	 26.0751
9.326000	 26.0067
9.344000	 25.9732
9.362000	 25.9692
9.379999	 25.9784
9.398000	 25.9943
9.416000	 26.0291
9.434000	 26.0984
9.452000	 26.1962
9.469999	 26.2857
9.488000	 26.3206
9.506000	 26.282
9.524000	 26.1944
9.542000	 26.1047
9.560000	 26.0455
9.577999	 26.021
9.596000	 26.02
9.614000	 26.0324
9.632000	 26.05
9.650000	 26.0607
9.667999	 26.0514
9.686000	 26.0211
9.704000	 25.9858
9.722000	 25.9655
9.740000	 25.9616
9.757999	 25.9509
9.776000	 25.9032
9.794000	 25.8086
9.812000	 25.6895
9.830000	 25.5831
9.847999	 25.5148
9.866000	 25.4874
9.884000	 25.491
9.902000	 25.5177
9.920000	 25.5665
9.937999	 25.6328
9.956000	 25.7001
9.974000	 25.744
9.992000	 25.7453
10.01	25.704
10.028	25.6408
10.046	25.5861
10.064	25.5617
10.082	25.5712
10.1	25.5988
10.118	25.62
10.136	25.6156
10.154	25.5823
10.172	25.5321
10.19	25.4833
10.208	25.4496
10.226	25.4339
10.244	25.4303
10.262	25.4309
10.28	25.432
10.298	25.4351
10.316	25.443
10.334	25.4543
10.352	25.4625
10.37	25.46
10.388	25.4438
10.406	25.4194
10.424	25.3967
10.442	25.3843
10.46	25.384
10.478	25.3906
10.496	25.3954
10.514	25.3903
10.532	25.3712
10.55	25.3397
10.568	25.3012
10.586	25.2614
10.604	25.2236
10.622	25.1881
10.64	25.154
10.658	25.1213
10.676	25.0927
10.694	25.072
10.712	25.0613
10.73	25.0591
10.748	25.0608
10.766	25.0608
10.784	25.0555
10.802	25.0433
10.82	25.0219
10.838	24.9883
10.856	24.9417
10.874	24.8862
10.892	24.8326
10.91	24.7957
10.928	24.7879
10.946	24.8146
10.964	24.87
10.982	24.9399
11	25.006
11.018	25.0512
11.036	25.0658
11.054	25.0482
11.072	25.0053
11.09	24.9499
11.108	24.8955
11.126	24.8529
11.144	24.8252
11.162	24.8086
11.18	24.7966
11.198	24.7836
11.216	24.7692
11.234	24.7573
11.252	24.753
11.27	24.7589
11.288	24.7722
11.306	24.7863
11.324	24.7927
11.342	24.785
11.36	24.7621
11.378	24.7275
11.396	24.6871
11.414	24.6468
11.432	24.6105
11.45	24.5789
11.468	24.5505
11.486	24.5228
11.504	24.4945
11.522	24.4665
11.54	24.4421
11.558	24.4258
11.576	24.4206
11.594	24.4264
11.612	24.4386
11.63	24.4497
11.648	24.453
11.666	24.4444
11.684	24.4255
11.702	24.4025
11.72	24.383
11.738	24.3726
11.756	24.3709
11.774	24.3719
11.792	24.3656
11.81	24.3435
11.828	24.302
11.846	24.2443
11.864	24.1802
11.882	24.1215
11.9	24.08
11.918	24.0622
11.936	24.0681
11.954	24.0923
11.972	24.1249
11.99	24.1551
12.008	24.1741
12.026	24.1765
12.044	24.1606
12.062	24.1282
12.08	24.0833
12.098	24.0307
12.116	23.9755
12.134	23.9223
12.152	23.875
12.17	23.8366
12.188	23.8094
12.206	23.7944
12.224	23.791
12.242	23.797
12.26	23.8084
12.278	23.8191
12.296	23.8225
12.314	23.8124
12.332	23.7848
12.35	23.7395
12.368	23.6801
12.386	23.6144
12.404	23.552
12.422	23.5023
12.44	23.4713
12.458	23.4609
12.476	23.4685
12.494	23.4878
12.512	23.5106
12.53	23.5302
12.548	23.5425
12.566	23.5468
12.584	23.5449
12.602	23.5404
12.62	23.5364
12.638	23.5349
12.656	23.5358
12.674	23.5377
12.692	23.5385
12.71	23.5359
12.728	23.5283
12.746	23.5149
12.764	23.4955
12.782	23.4702
12.8	23.4392
12.818	23.4026
12.836	23.3604
12.854	23.3121
12.872	23.2582
12.89	23.1996
12.908	23.1381
12.926	23.0765
12.944	23.0178
12.962	22.9651
12.98	22.9213
12.998	22.8881
13.016	22.8657
13.034	22.8532
13.052	22.8481
13.07	22.8476
13.088	22.8484
13.106	22.8484
13.124	22.8464
13.142	22.8426
13.16	22.8386
13.178	22.8372
13.196	22.8415
13.214	22.8542
13.232	22.877
13.25	22.9097
13.268	22.9498
13.286	22.9923
13.304	23.0302
13.322	23.0552
13.34	23.0599
13.358	23.0383
13.376	22.9881
13.394	22.9114
13.412	22.8145
13.43	22.7075
13.448	22.6026
13.466	22.5117
13.484	22.4445
13.502	22.4066
13.52	22.3987
13.538	22.4168
13.556	22.4535
13.574	22.4993
13.592	22.5455
13.61	22.5848
13.628	22.613
13.646	22.6289
13.664	22.634
13.682	22.6308
13.7	22.6223
13.718	22.6109
13.736	22.5977
13.754	22.5829
13.772	22.5649
13.79	22.5426
13.808	22.5142
13.826	22.4796
13.844	22.4392
13.862	22.3948
13.88	22.3488
13.898	22.3041
13.916	22.2633
13.934	22.2283
13.952	22.2002
13.97	22.1791
13.988	22.164
14.006	22.1534
14.024	22.1457
14.042	22.1392
14.06	22.1328
14.078	22.126
14.096	22.1182
14.114	22.1095
14.132	22.0995
14.15	22.0878
14.168	22.0736
14.186	22.0552
14.204	22.0312
14.222	22.0001
14.24	21.9614
14.258	21.9159
14.276	21.8653
14.294	21.8129
14.312	21.7632
14.33	21.721
14.348	21.6914
14.366	21.6781
14.384	21.6835
14.402	21.7073
14.42	21.747
14.438	21.7984
14.456	21.8556
14.474	21.9124
14.492	21.9624
14.51	22
14.528	22.0217
14.546	22.026
14.564	22.0133
14.582	21.9854
14.6	21.9454
14.618	21.8973
14.636	21.8455
14.654	21.7936
14.672	21.7451
14.69	21.7026
14.708	21.668
14.726	21.6431
14.744	21.6281
14.762	21.623
14.78	21.6266
14.798	21.6368
14.816	21.6508
14.834	21.6651
14.852	21.6753
14.87	21.6779
14.888	21.6704
14.906	21.6518
14.924	21.6225
14.942	21.5851
14.96	21.5439
14.978	21.5036
14.996	21.4689
15.014	21.4438
15.032	21.4313
15.05	21.4315
15.068	21.4427
15.086	21.4616
15.104	21.4837
15.122	21.5032
15.14	21.5156
15.158	21.518
15.176	21.5087
15.194	21.4878
15.212	21.4578
15.23	21.4221
15.248	21.3841
15.266	21.3473
15.284	21.3149
15.302	21.2879
15.32	21.2661
15.338	21.2485
15.356	21.2325
15.374	21.2154
15.392	21.1949
15.41	21.1691
15.428	21.1369
15.446	21.0984
15.464	21.0545
15.482	21.0067
15.5	20.9569
15.518	20.9078
15.536	20.8615
15.554	20.8195
15.572	20.783
15.59	20.7529
15.608	20.7296
15.626	20.7135
15.644	20.7046
15.662	20.7029
15.68	20.7082
15.698	20.72
15.716	20.738
15.734	20.7613
15.752	20.7887
15.77	20.8193
15.788	20.8511
15.806	20.8828
15.824	20.9131
15.842	20.9407
15.86	20.9649
15.878	20.9853
15.896	21.0019
15.914	21.0148
15.932	21.0246
15.95	21.0314
15.968	21.0354
15.986	21.0364
16.004	21.0334
16.022	21.0258
16.04	21.0123
16.058	20.992
16.076	20.9642
16.094	20.9283
16.112	20.8844
16.13	20.8331
16.148	20.7758
16.166	20.714
16.184	20.6493
16.202	20.5832
16.22	20.5172
16.238	20.452
16.256	20.388
16.274	20.3253
16.292	20.2635
16.31	20.2024
16.328	20.1416
16.346	20.0815
16.364	20.0224
16.382	19.9659
16.4	19.9136
16.418	19.8672
16.436	19.8292
16.454	19.8015
16.472	19.7852
16.49	19.7814
16.508	19.7898
16.526	19.8099
16.544	19.8392
16.562	19.8751
16.58	19.9154
16.598	19.9562
16.616	19.9956
16.634	20.0319
16.652	20.0632
16.67	20.0898
16.688	20.1114
16.706	20.1294
16.724	20.1446
16.742	20.1585
16.76	20.1722
16.778	20.186
16.796	20.2004
16.814	20.2146
16.832	20.2282
16.85	20.2394
16.868	20.2471
16.886	20.2504
16.904	20.2476
16.922	20.2385
16.94	20.2224
16.958	20.2
16.976	20.1715
16.994	20.1387
17.012	20.103
17.03	20.0657
17.048	20.0292
17.066	19.9944
17.084	19.9628
17.102	19.9354
17.12	19.9125
17.138	19.8944
17.156	19.8803
17.174	19.87
17.192	19.8619
17.21	19.8553
17.228	19.8486
17.246	19.8407
17.264	19.8305
17.282	19.8164
17.3	19.7979
17.318	19.7739
17.336	19.7444
17.354	19.7092
17.372	19.6686
17.39	19.6232
17.408	19.5737
17.426	19.5216
17.444	19.4677
17.462	19.4142
17.48	19.3619
17.498	19.313
17.516	19.2687
17.534	19.2303
17.552	19.1988
17.57	19.1745
17.588	19.1577
17.606	19.1482
17.624	19.1458
17.642	19.1494
17.66	19.1584
17.678	19.1711
17.696	19.1868
17.714	19.2036
17.732	19.2209
17.75	19.2375
17.768	19.2526
17.786	19.2657
17.804	19.2759
17.822	19.2833
17.84	19.2873
17.858	19.2879
17.876	19.2849
17.894	19.2784
17.912	19.2682
17.93	19.2546
17.948	19.2374
17.966	19.2172
17.984	19.1942
18.002	19.169
18.02	19.1425
18.038	19.1156
18.056	19.0901
18.074	19.0664
18.092	19.0472
18.11	19.0328
18.128	19.0257
18.146	19.0259
18.164	19.0351
18.182	19.0529
18.2	19.0798
18.218	19.1144
18.236	19.1563
18.254	19.2024
18.272	19.2521
18.29	19.3009
18.308	19.3485
18.326	19.3899
18.344	19.4248
18.362	19.4496
18.38	19.4639
18.398	19.4656
18.416	19.4552
18.434	19.4324
18.452	19.3987
18.47	19.3545
18.488	19.3026
18.506	19.2438
18.524	19.1815
18.542	19.1164
18.56	19.0517
18.578	18.9877
18.596	18.9269
18.614	18.8694
18.632	18.8166
18.65	18.7684
18.668	18.7252
18.686	18.6868
18.704	18.6528
18.722	18.6231
18.74	18.5971
18.758	18.5748
18.776	18.5559
18.794	18.5405
18.812	18.5285
18.83	18.5199
18.848	18.5148
18.866	18.5131
18.884	18.5149
18.902	18.52
18.92	18.5282
18.938	18.5391
18.956	18.5524
18.974	18.5672
18.992	18.5827
19.01	18.5985
19.028	18.6136
19.046	18.6276
19.064	18.6397
19.082	18.65
19.1	18.6581
19.118	18.6642
19.136	18.6686
19.154	18.6715
19.172	18.6737
19.19	18.6755
19.208	18.6778
19.226	18.6806
19.244	18.6849
19.262	18.6905
19.28	18.6975
19.298	18.7057
19.316	18.7146
19.334	18.7239
19.352	18.7317
19.37	18.7381
19.388	18.7409
19.406	18.7403
19.424	18.7339
19.442	18.7216
19.46	18.7019
19.478	18.6746
19.496	18.6392
19.514	18.5951
19.532	18.5431
19.55	18.483
19.568	18.4159
19.586	18.3425
19.604	18.2637
19.622	18.181
19.64	18.095
19.658	18.008
19.676	17.92
19.694	17.8338
19.712	17.749
19.73	17.668
19.748	17.5907
19.766	17.5183
19.784	17.451
19.802	17.3891
19.82	17.3329
19.838	17.2822
19.856	17.237
19.874	17.197
19.892	17.1616
19.91	17.1308
19.928	17.1038
19.946	17.0806
19.964	17.0602
19.982	17.0426
20	17.0272
20.018	17.0135
20.036	17.0014
20.054	16.9903
20.072	16.9803
20.09	16.9712
20.108	16.9628
20.126	16.9551
20.144	16.9481
20.162	16.9418
20.18	16.9361
20.198	16.9313
20.216	16.9276
20.234	16.925
20.252	16.9241
20.27	16.9247
20.288	16.9273
20.306	16.9319
20.324	16.9386
20.342	16.9476
20.36	16.9588
20.378	16.972
20.396	16.9873
20.414	17.0041
20.432	17.0227
20.45	17.0422
20.468	17.0624
20.486	17.083
20.504	17.1032
20.522	17.1232
20.54	17.142
20.558	17.1598
20.576	17.1763
20.594	17.1912
20.612	17.2047
20.63	17.2168
20.648	17.2276
20.666	17.2375
20.684	17.2465
20.702	17.2552
20.72	17.264
20.738	17.2729
20.756	17.2827
20.774	17.2931
20.792	17.3047
20.81	17.3177
20.828	17.3317
20.846	17.3467
20.864	17.3628
20.882	17.3786
20.9	17.3946
20.918	17.4097
20.936	17.4231
20.954	17.4348
20.972	17.4437
20.99	17.4499
21.008	17.4527
21.026	17.4517
21.044	17.447
21.062	17.4384
21.08	17.4257
21.098	17.4096
21.116	17.3901
21.134	17.3676
21.152	17.3433
21.17	17.3167
21.188	17.2896
21.206	17.2618
21.224	17.234
21.242	17.2071
21.26	17.181
21.278	17.1562
21.296	17.1329
21.314	17.1108
21.332	17.0898
21.35	17.07
21.368	17.0505
21.386	17.0315
21.404	17.0124
21.422	16.9923
21.44	16.9715
21.458	16.9493
21.476	16.9252
21.494	16.8996
21.512	16.872
21.53	16.8423
21.548	16.811
21.566	16.7782
21.584	16.744
21.602	16.7094
21.62	16.6741
21.638	16.6387
21.656	16.6042
21.674	16.5701
21.692	16.5373
21.71	16.506
21.728	16.4762
21.746	16.448
21.764	16.4215
21.782	16.3965
21.8	16.3729
21.818	16.3508
21.836	16.329
21.854	16.3073
21.872	16.2856
21.89	16.2631
21.908	16.2399
21.926	16.2161
21.944	16.1914
21.962	16.1659
21.98	16.1407
21.998	16.1156
22.016	16.0913
22.034	16.0696
22.052	16.0496
22.07	16.0334
22.088	16.0225
22.106	16.0162
22.124	16.017
22.142	16.0254
22.16	16.0413
22.178	16.0662
22.196	16.1002
22.214	16.1429
22.232	16.1946
22.25	16.2558
22.268	16.3239
22.286	16.3986
22.304	16.48
22.322	16.5633
22.34	16.6488
22.358	16.7352
22.376	16.817
22.394	16.8957
22.412	16.9687
22.43	17.0311
22.448	17.0852
22.466	17.1277
22.484	17.1557
22.502	17.1708
22.52	17.1713
22.538	17.1558
22.556	17.1253
22.574	17.0809
22.592	17.0218
22.61	16.9494
22.628	16.8674
22.646	16.7743
22.664	16.6728
22.682	16.5681
22.7	16.4579
22.718	16.346
22.736	16.2376
22.754	16.1299
22.772	16.0271
22.79	15.9331
22.808	15.8458
22.826	15.7678
22.844	15.7013
22.862	15.6451
22.88	15.5997
22.898	15.5663
22.916	15.5442
22.934	15.5313
22.952	15.5273
22.97	15.5323
22.988	15.5428
23.006	15.5589
23.024	15.5802
23.042	15.6017
23.06	15.6238
23.078	15.6459
23.096	15.6624
23.114	15.6736
23.132	15.6792
23.15	15.6744
23.168	15.6593
23.186	15.634
23.204	15.596
23.222	15.545
23.24	15.4817
23.258	15.4061
23.276	15.3177
23.294	15.2174
23.312	15.106
23.33	14.9824
23.348	14.8482
23.366	14.7074
23.384	14.5589
23.402	14.4038
23.42	14.2479
23.438	14.09
23.456	13.931
23.474	13.7784
23.492	13.6322
23.51	13.4919
23.528	13.3647
23.546	13.2516
23.564	13.1511
23.582	13.0699
23.6	13.0104
23.618	12.9701
23.636	12.9534
23.654	12.9627
23.672	12.9959
23.69	13.0553
23.708	13.1424
23.726	13.2564
23.744	13.3966
23.762	13.5632
23.78	13.7572
23.798	13.9752
23.816	14.2139
23.834	14.4766
23.852	14.7585
23.87	15.0524
23.888	15.3623
23.906	15.6842
23.924	16.009
23.942	16.338
23.96	16.6708
23.978	16.9973
23.996	17.315
24.014	17.6275
24.032	17.9251
24.05	18.2018
24.068	18.4631
24.086	18.7021
24.104	18.9122
24.122	19.0973
24.14	19.2546
24.158	19.3796
24.176	19.4726
24.194	19.5346
24.212	19.5653
24.23	19.5637
24.248	19.5307
24.266	19.4696
24.284	19.3812
24.302	19.2632
24.32	19.1225
24.338	18.9651
24.356	18.7852
24.374	18.5898
24.392	18.3893
24.41	18.1795
24.428	17.9625
24.446	17.7513
24.464	17.5503
24.482	17.3532
24.5	17.1707
24.518	17.0112
24.536	16.8676
24.554	16.7465
24.572	16.658
24.59	16.5992
24.608	16.5705
24.626	16.5798
24.644	16.6309
24.662	16.7194
24.68	16.8497
24.698	17.0261
24.716	17.2464
24.734	17.5109
24.752	17.8218
24.77	18.1806
24.788	18.5855
24.806	19.0332
24.824	19.5224
24.842	20.0569
24.86	20.6288
24.878	21.229
24.896	21.8635
24.914	22.5286
24.932	23.2103
24.95	23.9028
24.968	24.6152
24.986	25.3335
25.004	26.0426
25.022	26.752
25.04	27.4564
25.058	28.1387
25.076	28.7926
25.094	29.4281
25.112	30.0318
25.13	30.5899
25.148	31.11
25.166	31.5892
25.184	32.0158
25.202	32.3845
25.22	32.702
25.238	32.9628
25.256	33.1608
25.274	33.2974
25.292	33.3738
25.31	33.3886
25.328	33.3402
25.346	33.2285
25.364	33.0574
25.382	32.8305
25.4	32.5449
25.418	32.2022
25.436	31.8104
25.454	31.375
25.472	30.8886
25.49	30.3595
25.508	29.7988
25.526	29.2065
25.544	28.5774
25.562	27.9262
25.58	27.2662
25.598	26.5872
25.616	25.8947
25.634	25.2041
25.652	24.5241
25.67	23.8421
25.688	23.1709
25.706	22.526
25.724	21.9074
25.742	21.3091
25.76	20.7426
25.778	20.2186
25.796	19.7312
25.814	19.2813
25.832	18.8752
25.85	18.5182
25.868	18.2078
25.886	17.9412
25.904	17.7163
25.922	17.5354
25.94	17.3999
25.958	17.2994
25.976	17.2239
25.994	17.1818
26.012	17.1702
26.03	17.1719
26.048	17.1729
26.066	17.1909
26.084	17.2132
26.102	17.2156
26.12	17.1838
26.138	17.1376
26.156	17.0617
26.174	16.936
26.192	16.7547
26.21	16.5313
26.228	16.2519
26.246	15.9016
26.264	15.476
26.282	14.983
26.3	14.4247
26.318	13.803
26.336	13.1083
26.354	12.3473
26.372	11.5379
26.39	10.6959
26.408	9.797779
26.426	8.858968
26.444	7.913592
26.462	6.988090
26.48	6.046229
26.498	5.112502
26.516	4.230332
26.534	3.429721
26.552	2.670550
26.57	1.978730
26.588	1.394025
26.606	0.941251
26.624	0.587387
26.642	0.351140
26.66	0.258960
26.678	0.328347
26.696	0.542564
26.714	0.901455
26.732	1.407317
26.75	2.067939
26.768	2.889776
26.786	3.847805
26.804	4.915325
26.822	6.087114
26.84	7.392299
26.858	8.790145
26.876	10.2355
26.894	11.7131
26.912	13.2657
26.93	14.8487
26.948	16.411
26.966	17.9816
26.984	19.6827
27.002	21.2841
27.02	22.5319
27.028	22.8685