File: Bakgrunnsmateriale/MATLAB/FTIR/ftir_data/LPE453/Mapping_121/LPE453_t02.asc
PE IR       SPECTRUM    SPECTRUM    ASCII       PEDS        1.60
  -1
LPC391~1.ASC
17/05/16
14:32:38.00
17/05/16
14:33:04.00
tln
$LPE453_t0002$<tbV0>[10.4,-13.0,8.0,0.0,27,1,0]
27.028
64

2002,4.07
MIRTGS : RIGHTBACK : INTERNAL 2
MIR : ON : INTERNAL 2
OPTKBR

0.200000
8
8.000000
FILLER
RATIO
SPECTRUM
UNLOCKED 256

DOUBLE
64
COMBINED
1
0
0

0.002000
RATIO

1
0
TRUE
51149
0
LEFT NOT FITTED RIGHT NOT FITTED 0
NONE
NONE
15600
12
4.427000
51148
TRUE
1 0 8 72 0 0 0 0

15798

#HDR
-1
-1
#GR
µM
%T
2.38419e-05
0.0
2.000000
0.002000
12515
8
33.9781
-8.430671
#DATA
2.000000	 0.318956
2.018000	 -0.004150
2.036000	 -0.038881
2.054000	 0.659483
2.072000	 0.310810
2.090000	 0.069198
2.108000	 -0.304915
2.126000	 0.745328
2.144000	 -1.234131
2.162000	 0.199353
2.180000	 0.158536
2.198000	 0.893290
2.216000	 -1.694851
2.234000	 15.2967
2.252000	 -0.782710
2.270000	 0.208420
2.288000	 0.620009
2.306000	 0.366829
2.324000	 0.469123
2.342000	 -0.173758
2.360000	 0.081773
2.378000	 0.116982
2.396000	 0.300640
2.414000	 0.405250
2.432000	 0.030862
2.450000	 -0.044080
2.468000	 0.148567
2.486000	 0.003321
2.504000	 0.257587
2.522000	 0.139614
2.540000	 0.103595
2.558000	 0.019392
2.576000	 0.144442
2.594000	 0.015907
2.612000	 0.100303
2.630000	 0.082522
2.648000	 -0.006038
2.666000	 0.076564
2.684000	 0.033868
2.702000	 0.065744
2.720000	 0.030954
2.738000	 0.086089
2.756000	 0.132033
2.774000	 -0.053138
2.792000	 0.062378
2.810000	 0.040466
2.828000	 0.120738
2.846000	 0.101211
2.864000	 0.140783
2.882000	 -0.005323
2.900000	 -0.003788
2.918000	 0.072794
2.936000	 -0.066591
2.954000	 0.069797
2.972000	 0.126988
2.990000	 0.053562
3.008000	 0.123688
3.026000	 0.115797
3.044000	 0.156167
3.062000	 0.122657
3.080000	 0.117893
3.098000	 0.072667
3.116000	 0.034466
3.134000	 0.025882
3.152000	 0.217766
3.170000	 -0.060438
3.188000	 0.121485
3.206000	 0.053696
3.224000	 0.099532
3.242000	 0.047337
3.260000	 0.017081
3.278000	 -0.039946
3.296000	 0.037628
3.314000	 -0.006510
3.332000	 0.161671
3.350000	 0.027820
3.368000	 -0.053547
3.386000	 0.065951
3.404000	 -0.001942
3.422000	 -0.092636
3.440000	 0.113576
3.458000	 0.054194
3.476000	 0.066491
3.494000	 0.021228
3.512000	 0.017200
3.530000	 0.032169
3.548000	 0.031369
3.566000	 0.040868
3.584000	 -0.026080
3.602000	 -0.012705
3.620000	 0.086701
3.638000	 0.001442
3.656000	 0.013959
3.674000	 0.028017
3.692000	 -0.042805
3.710000	 0.080026
3.728000	 -0.008300
3.746000	 0.055990
3.764000	 -0.010278
3.782000	 -0.034525
3.800000	 -0.055530
3.818000	 0.097811
3.836000	 -0.008132
3.854000	 0.081215
3.872000	 0.053818
3.890000	 -0.032498
3.908000	 -0.017476
3.926000	 0.082755
3.944000	 0.003419
3.962000	 0.139725
3.980000	 -0.042287
3.998000	 0.037332
4.016000	 -0.057551
4.034000	 0.023353
4.052000	 -0.068448
4.070000	 0.002725
4.088000	 0.070134
4.106000	 0.106614
4.124000	 0.280196
4.141999	 -0.035391
4.160000	 0.107887
4.178000	 0.036881
4.196000	 0.141509
4.214000	 -0.041658
4.232000	 0.077901
4.250000	 0.172063
4.268000	 -0.009200
4.286000	 0.028415
4.304000	 0.145360
4.322000	 0.177278
4.340000	 0.245803
4.358000	 0.306611
4.375999	 0.443901
4.394000	 0.578446
4.412000	 0.658298
4.430000	 0.886272
4.448000	 1.052616
4.466000	 1.398659
4.484000	 1.662496
4.502000	 2.007606
4.520000	 2.379716
4.538000	 2.795914
4.556000	 3.443775
4.574000	 3.969172
4.592000	 4.574100
4.609999	 5.236456
4.628000	 6.062765
4.646000	 6.767081
4.664000	 7.508707
4.682000	 8.395656
4.700000	 9.354844
4.718000	 10.3223
4.736000	 11.1188
4.754000	 11.9988
4.772000	 13.0241
4.790000	 14.0351
4.808000	 14.9969
4.826000	 15.7143
4.843999	 16.7145
4.862000	 17.405
4.880000	 18.2927
4.898000	 19.0513
4.916000	 19.7926
4.934000	 20.5561
4.952000	 21.2599
4.970000	 22.0587
4.988000	 22.7394
5.006000	 23.3998
5.024000	 23.942
5.042000	 24.3702
5.060000	 24.9543
5.077999	 25.4602
5.096000	 26.0222
5.114000	 26.5295
5.132000	 26.8489
5.150000	 27.1969
5.168000	 27.4474
5.186000	 27.7394
5.204000	 28.1818
5.222000	 28.6483
5.240000	 28.9536
5.258000	 29.2296
5.276000	 29.3762
5.294000	 29.4467
5.312000	 29.7391
5.330000	 30.1222
5.348000	 30.4846
5.366000	 30.7237
5.384000	 30.9759
5.402000	 31.0274
5.420000	 31.085
5.438000	 31.1758
5.456000	 31.245
5.474000	 31.4412
5.492000	 31.6627
5.510000	 31.8519
5.528000	 32.0568
5.546000	 32.2458
5.564000	 32.3154
5.582000	 32.2455
5.600000	 32.1377
5.618000	 32.1519
5.636000	 32.3707
5.654000	 32.6632
5.672000	 32.9449
5.690000	 33.0246
5.708000	 32.9685
5.726000	 33.0125
5.744000	 33.0092
5.762000	 32.8975
5.780000	 32.7476
5.798000	 32.8329
5.816000	 33.1291
5.834000	 33.3072
5.852000	 33.4914
5.870000	 33.6256
5.888000	 33.5218
5.906000	 33.381
5.923999	 33.3304
5.942000	 33.2883
5.960000	 33.2895
5.978000	 33.4055
5.996000	 33.4591
6.014000	 33.5407
6.032000	 33.7599
6.050000	 33.9138
6.068000	 33.8017
6.086000	 33.6058
6.104000	 33.4986
6.122000	 33.3744
6.140000	 33.2811
6.158000	 33.2969
6.176000	 33.3681
6.194000	 33.5805
6.212000	 33.7654
6.230000	 33.8671
6.248000	 33.8943
6.266000	 33.8728
6.284000	 33.7651
6.302000	 33.5938
6.320000	 33.5271
6.338000	 33.5357
6.356000	 33.4519
6.374000	 33.3274
6.392000	 33.4275
6.410000	 33.7455
6.428000	 33.785
6.446000	 33.6422
6.464000	 33.7065
6.482000	 33.922
6.500000	 33.9453
6.518000	 33.6776
6.536000	 33.4226
6.554000	 33.3389
6.572000	 33.2926
6.590000	 33.218
6.608000	 33.312
6.626000	 33.5549
6.644000	 33.6849
6.662000	 33.6716
6.680000	 33.6406
6.698000	 33.6255
6.716000	 33.5676
6.734000	 33.4497
6.752000	 33.3155
6.770000	 33.2069
6.788000	 33.1218
6.806000	 33.0331
6.824000	 32.9861
6.842000	 33.0013
6.860000	 33.0689
6.878000	 33.2313
6.896000	 33.4451
6.914000	 33.5976
6.932000	 33.6294
6.950000	 33.5404
6.968000	 33.3896
6.986000	 33.2416
7.004000	 33.126
7.022000	 33.0351
7.040000	 32.929
7.058000	 32.7958
7.076000	 32.6817
7.094000	 32.6503
7.112000	 32.6983
7.130000	 32.7694
7.148000	 32.8932
7.166000	 33.072
7.184000	 33.1673
7.202000	 33.1502
7.220000	 33.1457
7.238000	 33.1835
7.256000	 33.1556
7.274000	 32.9971
7.292000	 32.8047
7.310000	 32.7047
7.328000	 32.675
7.346000	 32.6349
7.364000	 32.5833
7.382000	 32.5435
7.400000	 32.5266
7.418000	 32.5796
7.436000	 32.7265
7.454000	 32.8919
7.472000	 33.0001
7.490000	 33.0617
7.508000	 33.0829
7.526000	 33.0238
7.544000	 32.881
7.562000	 32.7106
7.580000	 32.5495
7.598000	 32.385
7.616000	 32.2101
7.634000	 32.0676
7.652000	 32.016
7.670000	 32.0699
7.688000	 32.1826
7.706000	 32.2831
7.724000	 32.3418
7.742000	 32.3961
7.760000	 32.498
7.778000	 32.636
7.796000	 32.7338
7.814000	 32.735
7.832000	 32.6619
7.850000	 32.5665
7.868000	 32.4671
7.886000	 32.3634
7.904000	 32.2568
7.922000	 32.1399
7.940000	 32.0157
7.958000	 31.921
7.976000	 31.8867
7.994000	 31.8939
8.012000	 31.9108
8.030000	 31.9526
8.048000	 32.047
8.065999	 32.168
8.084000	 32.265
8.102000	 32.3404
8.120000	 32.4338
8.138000	 32.5371
8.155999	 32.5947
8.173999	 32.5675
8.192000	 32.4666
8.210000	 32.3323
8.228000	 32.2065
8.246000	 32.1046
8.263999	 32.0058
8.282000	 31.8794
8.300000	 31.7306
8.318000	 31.6029
8.336000	 31.538
8.353999	 31.542
8.372000	 31.5906
8.390000	 31.6548
8.408000	 31.7166
8.426000	 31.7751
8.443999	 31.8465
8.462000	 31.9449
8.480000	 32.0571
8.498000	 32.1475
8.516000	 32.1922
8.533999	 32.202
8.552000	 32.2038
8.570000	 32.203
8.588000	 32.1753
8.606000	 32.0994
8.624000	 31.986
8.641999	 31.8638
8.660000	 31.7449
8.678000	 31.618
8.696000	 31.4772
8.714000	 31.3438
8.731999	 31.2499
8.750000	 31.2134
8.768000	 31.2244
8.786000	 31.2564
8.804000	 31.2905
8.821999	 31.328
8.840000	 31.3794
8.858000	 31.4507
8.876000	 31.5463
8.894000	 31.6643
8.911999	 31.7856
8.930000	 31.8781
8.948000	 31.9189
8.966000	 31.9102
8.984000	 31.8714
9.001999	 31.8165
9.020000	 31.7433
9.038000	 31.6454
9.056000	 31.5306
9.074000	 31.4195
9.092000	 31.3269
9.109999	 31.2506
9.128000	 31.1767
9.146000	 31.0933
9.164000	 31.0015
9.182000	 30.9202
9.199999	 30.8772
9.218000	 30.8927
9.236000	 30.9655
9.254000	 31.074
9.272000	 31.1921
9.289999	 31.2999
9.308000	 31.3872
9.326000	 31.4479
9.344000	 31.4807
9.362000	 31.4935
9.379999	 31.4992
9.398000	 31.5057
9.416000	 31.5077
9.434000	 31.4901
9.452000	 31.4392
9.469999	 31.3526
9.488000	 31.2375
9.506000	 31.1029
9.524000	 30.954
9.542000	 30.7956
9.560000	 30.6395
9.577999	 30.5083
9.596000	 30.4258
9.614000	 30.4027
9.632000	 30.4276
9.650000	 30.4726
9.667999	 30.5108
9.686000	 30.5326
9.704000	 30.5466
9.722000	 30.5676
9.740000	 30.6031
9.757999	 30.6509
9.776000	 30.7078
9.794000	 30.7746
9.812000	 30.8519
9.830000	 30.9313
9.847999	 30.9947
9.866000	 31.0271
9.884000	 31.03
9.902000	 31.0215
9.920000	 31.0229
9.937999	 31.0402
9.956000	 31.0592
9.974000	 31.0562
9.992000	 31.0134
10.01	30.9281
10.028	30.8124
10.046	30.6853
10.064	30.5634
10.082	30.4571
10.1	30.3675
10.118	30.2878
10.136	30.2091
10.154	30.1281
10.172	30.0518
10.19	29.9968
10.208	29.9791
10.226	30.0051
10.244	30.0661
10.262	30.1431
10.28	30.2171
10.298	30.2801
10.316	30.3371
10.334	30.3996
10.352	30.4762
10.37	30.5662
10.388	30.6602
10.406	30.7472
10.424	30.8187
10.442	30.8713
10.46	30.9048
10.478	30.9194
10.496	30.9138
10.514	30.8856
10.532	30.833
10.55	30.7553
10.568	30.6534
10.586	30.5306
10.604	30.3919
10.622	30.2444
10.64	30.0961
10.658	29.9545
10.676	29.8274
10.694	29.7215
10.712	29.641
10.73	29.5862
10.748	29.5526
10.766	29.5331
10.784	29.5218
10.802	29.5163
10.82	29.5196
10.838	29.5358
10.856	29.5665
10.874	29.607
10.892	29.6487
10.91	29.6826
10.928	29.7056
10.946	29.722
10.964	29.741
10.982	29.7725
11	29.8208
11.018	29.8833
11.036	29.9522
11.054	30.0171
11.072	30.0691
11.09	30.1012
11.108	30.1091
11.126	30.0921
11.144	30.053
11.162	29.9987
11.18	29.9371
11.198	29.8744
11.216	29.8127
11.234	29.7488
11.252	29.677
11.27	29.5934
11.288	29.4985
11.306	29.3979
11.324	29.2998
11.342	29.2111
11.36	29.1339
11.378	29.0662
11.396	29.0041
11.414	28.9446
11.432	28.8885
11.45	28.8399
11.468	28.8048
11.486	28.7887
11.504	28.794
11.522	28.8193
11.54	28.86
11.558	28.9092
11.576	28.9605
11.594	29.0105
11.612	29.0582
11.63	29.1061
11.648	29.1578
11.666	29.2164
11.684	29.2821
11.702	29.352
11.72	29.4204
11.738	29.4808
11.756	29.5293
11.774	29.5649
11.792	29.5896
11.81	29.6068
11.828	29.6193
11.846	29.6276
11.864	29.6298
11.882	29.6215
11.9	29.5977
11.918	29.5542
11.936	29.4881
11.954	29.3997
11.972	29.2914
11.99	29.1685
12.008	29.038
12.026	28.9082
12.044	28.7876
12.062	28.6841
12.08	28.6031
12.098	28.5469
12.116	28.5145
12.134	28.5023
12.152	28.5042
12.17	28.5139
12.188	28.5253
12.206	28.5329
12.224	28.5321
12.242	28.5199
12.26	28.4942
12.278	28.4545
12.296	28.403
12.314	28.3444
12.332	28.2862
12.35	28.2367
12.368	28.2041
12.386	28.1942
12.404	28.2091
12.422	28.2464
12.44	28.2999
12.458	28.3617
12.476	28.4231
12.494	28.4773
12.512	28.5201
12.53	28.5501
12.548	28.568
12.566	28.5754
12.584	28.5738
12.602	28.5638
12.62	28.5454
12.638	28.5182
12.656	28.4824
12.674	28.44
12.692	28.3936
12.71	28.3472
12.728	28.3038
12.746	28.2661
12.764	28.2342
12.782	28.2063
12.8	28.1789
12.818	28.1474
12.836	28.1075
12.854	28.0555
12.872	27.9904
12.89	27.9136
12.908	27.8284
12.926	27.74
12.944	27.6543
12.962	27.5766
12.98	27.5105
12.998	27.4574
13.016	27.4164
13.034	27.386
13.052	27.364
13.07	27.3489
13.088	27.3403
13.106	27.3391
13.124	27.3465
13.142	27.3634
13.16	27.3893
13.178	27.4218
13.196	27.4568
13.214	27.4893
13.232	27.5149
13.25	27.5314
13.268	27.5392
13.286	27.5425
13.304	27.5477
13.322	27.5627
13.34	27.5939
13.358	27.6448
13.376	27.7145
13.394	27.7974
13.412	27.8837
13.43	27.9616
13.448	28.0192
13.466	28.0478
13.484	28.0434
13.502	28.0072
13.52	27.9459
13.538	27.8701
13.556	27.7916
13.574	27.7212
13.592	27.6665
13.61	27.6307
13.628	27.6122
13.646	27.6062
13.664	27.6057
13.682	27.6035
13.7	27.5936
13.718	27.5721
13.736	27.5377
13.754	27.4913
13.772	27.4347
13.79	27.3709
13.808	27.3025
13.826	27.2314
13.844	27.1584
13.862	27.0839
13.88	27.0078
13.898	26.9306
13.916	26.8535
13.934	26.7787
13.952	26.7093
13.97	26.6488
13.988	26.6004
14.006	26.5664
14.024	26.5475
14.042	26.5423
14.06	26.5476
14.078	26.5589
14.096	26.5714
14.114	26.5809
14.132	26.5849
14.15	26.5822
14.168	26.5739
14.186	26.5621
14.204	26.55
14.222	26.5411
14.24	26.5369
14.258	26.5376
14.276	26.5415
14.294	26.5456
14.312	26.5469
14.33	26.5426
14.348	26.5314
14.366	26.5139
14.384	26.4928
14.402	26.4725
14.42	26.4579
14.438	26.4535
14.456	26.4626
14.474	26.4867
14.492	26.525
14.51	26.5742
14.528	26.6295
14.546	26.6854
14.564	26.7368
14.582	26.7801
14.6	26.8126
14.618	26.8339
14.636	26.8455
14.654	26.8502
14.672	26.8513
14.69	26.8521
14.708	26.8554
14.726	26.8634
14.744	26.8765
14.762	26.8944
14.78	26.9153
14.798	26.9367
14.816	26.9556
14.834	26.9684
14.852	26.9717
14.87	26.9632
14.888	26.9416
14.906	26.907
14.924	26.8605
14.942	26.8052
14.96	26.7447
14.978	26.6829
14.996	26.6234
15.014	26.5688
15.032	26.5211
15.05	26.4796
15.068	26.4426
15.086	26.4076
15.104	26.3711
15.122	26.3289
15.14	26.2784
15.158	26.2182
15.176	26.1484
15.194	26.0704
15.212	25.9886
15.23	25.9082
15.248	25.8343
15.266	25.7727
15.284	25.7284
15.302	25.7044
15.32	25.7014
15.338	25.7188
15.356	25.7538
15.374	25.8013
15.392	25.8557
15.41	25.9115
15.428	25.9628
15.446	26.0039
15.464	26.0318
15.482	26.0443
15.5	26.0405
15.518	26.0216
15.536	25.99
15.554	25.9482
15.572	25.8993
15.59	25.8469
15.608	25.7935
15.626	25.7414
15.644	25.6923
15.662	25.6476
15.68	25.608
15.698	25.574
15.716	25.5463
15.734	25.5258
15.752	25.5131
15.77	25.5091
15.788	25.5147
15.806	25.5304
15.824	25.5563
15.842	25.5919
15.86	25.6361
15.878	25.6871
15.896	25.7429
15.914	25.8005
15.932	25.857
15.95	25.9103
15.968	25.9575
15.986	25.9967
16.004	26.0269
16.022	26.047
16.04	26.057
16.058	26.0572
16.076	26.048
16.094	26.0305
16.112	26.005
16.13	25.9719
16.148	25.9321
16.166	25.8857
16.184	25.833
16.202	25.7744
16.22	25.7104
16.238	25.6416
16.256	25.5689
16.274	25.4934
16.292	25.4165
16.31	25.3391
16.328	25.2629
16.346	25.1892
16.364	25.1188
16.382	25.0529
16.4	24.9917
16.418	24.9354
16.436	24.884
16.454	24.8375
16.472	24.7956
16.49	24.7584
16.508	24.7258
16.526	24.6979
16.544	24.6749
16.562	24.6568
16.58	24.6437
16.598	24.6351
16.616	24.6304
16.634	24.629
16.652	24.6293
16.67	24.6298
16.688	24.6294
16.706	24.6257
16.724	24.6181
16.742	24.6051
16.76	24.5865
16.778	24.5622
16.796	24.5325
16.814	24.4989
16.832	24.4622
16.85	24.4247
16.868	24.3877
16.886	24.3522
16.904	24.3203
16.922	24.2921
16.94	24.2685
16.958	24.2497
16.976	24.2355
16.994	24.2257
17.012	24.2201
17.03	24.2186
17.048	24.2211
17.066	24.2279
17.084	24.2393
17.102	24.2563
17.12	24.2789
17.138	24.308
17.156	24.3429
17.174	24.3838
17.192	24.4288
17.21	24.477
17.228	24.526
17.246	24.5732
17.264	24.6169
17.282	24.6536
17.3	24.6823
17.318	24.7008
17.336	24.709
17.354	24.7066
17.372	24.6951
17.39	24.6758
17.408	24.651
17.426	24.6239
17.444	24.5963
17.462	24.572
17.48	24.552
17.498	24.5389
17.516	24.5328
17.534	24.5342
17.552	24.5416
17.57	24.5545
17.588	24.5697
17.606	24.5855
17.624	24.5993
17.642	24.6083
17.66	24.611
17.678	24.6053
17.696	24.5908
17.714	24.567
17.732	24.5347
17.75	24.4946
17.768	24.4493
17.786	24.3995
17.804	24.3488
17.822	24.298
17.84	24.2501
17.858	24.2058
17.876	24.1666
17.894	24.1328
17.912	24.1046
17.93	24.0812
17.948	24.0625
17.966	24.0467
17.984	24.0332
18.002	24.0204
18.02	24.0074
18.038	23.993
18.056	23.9767
18.074	23.9579
18.092	23.9366
18.11	23.9128
18.128	23.8872
18.146	23.8602
18.164	23.8325
18.182	23.8046
18.2	23.7772
18.218	23.7507
18.236	23.7255
18.254	23.7019
18.272	23.6799
18.29	23.6597
18.308	23.6411
18.326	23.6241
18.344	23.6085
18.362	23.5941
18.38	23.581
18.398	23.5688
18.416	23.5577
18.434	23.5476
18.452	23.5387
18.47	23.5308
18.488	23.524
18.506	23.518
18.524	23.5125
18.542	23.5077
18.56	23.5026
18.578	23.4973
18.596	23.4911
18.614	23.4842
18.632	23.4762
18.65	23.4672
18.668	23.4576
18.686	23.4476
18.704	23.4379
18.722	23.4288
18.74	23.4215
18.758	23.4163
18.776	23.4149
18.794	23.4173
18.812	23.4245
18.83	23.4364
18.848	23.4533
18.866	23.4746
18.884	23.4995
18.902	23.5269
18.92	23.5556
18.938	23.5839
18.956	23.61
18.974	23.6323
18.992	23.6487
19.01	23.6584
19.028	23.6593
19.046	23.6516
19.064	23.6344
19.082	23.6085
19.1	23.5741
19.118	23.5327
19.136	23.4861
19.154	23.4358
19.172	23.3851
19.19	23.3352
19.208	23.2901
19.226	23.2503
19.244	23.22
19.262	23.1989
19.28	23.19
19.298	23.1928
19.316	23.208
19.334	23.2355
19.352	23.2733
19.37	23.3215
19.388	23.3765
19.406	23.4385
19.424	23.5023
19.442	23.5682
19.46	23.6314
19.478	23.6917
19.496	23.7452
19.514	23.7909
19.532	23.827
19.55	23.8522
19.568	23.866
19.586	23.8672
19.604	23.8563
19.622	23.8331
19.64	23.7979
19.658	23.7518
19.676	23.6947
19.694	23.6288
19.712	23.5539
19.73	23.4723
19.748	23.3839
19.766	23.2909
19.784	23.1936
19.802	23.0933
19.82	22.9908
19.838	22.8869
19.856	22.7831
19.874	22.6793
19.892	22.5772
19.91	22.4765
19.928	22.3786
19.946	22.2833
19.964	22.1915
19.982	22.1033
20	22.0189
20.018	21.9388
20.036	21.8627
20.054	21.7905
20.072	21.7222
20.09	21.6574
20.108	21.596
20.126	21.5373
20.144	21.4813
20.162	21.4276
20.18	21.3759
20.198	21.3263
20.216	21.2787
20.234	21.2332
20.252	21.1905
20.27	21.1503
20.288	21.1138
20.306	21.0811
20.324	21.0529
20.342	21.0302
20.36	21.0127
20.378	21.0013
20.396	20.9958
20.414	20.9959
20.432	21.002
20.45	21.0127
20.468	21.0279
20.486	21.0467
20.504	21.0673
20.522	21.0901
20.54	21.112
20.558	21.1333
20.576	21.1523
20.594	21.1679
20.612	21.18
20.63	21.187
20.648	21.1892
20.666	21.1869
20.684	21.1795
20.702	21.1685
20.72	21.1543
20.738	21.1374
20.756	21.1205
20.774	21.1029
20.792	21.0874
20.81	21.0745
20.828	21.065
20.846	21.061
20.864	21.0619
20.882	21.069
20.9	21.0824
20.918	21.1019
20.936	21.1276
20.954	21.159
20.972	21.1947
20.99	21.2351
21.008	21.2782
21.026	21.3236
21.044	21.3709
21.062	21.4182
21.08	21.4659
21.098	21.5126
21.116	21.5581
21.134	21.6022
21.152	21.6444
21.17	21.6849
21.188	21.7237
21.206	21.7608
21.224	21.7966
21.242	21.8317
21.26	21.866
21.278	21.8999
21.296	21.9334
21.314	21.9666
21.332	21.9996
21.35	22.0322
21.368	22.0643
21.386	22.0958
21.404	22.1267
21.422	22.1564
21.44	22.1851
21.458	22.2127
21.476	22.2391
21.494	22.2644
21.512	22.2888
21.53	22.3121
21.548	22.3351
21.566	22.3584
21.584	22.3819
21.602	22.4066
21.62	22.4324
21.638	22.4598
21.656	22.49
21.674	22.5225
21.692	22.5575
21.71	22.5951
21.728	22.635
21.746	22.676
21.764	22.7188
21.782	22.7613
21.8	22.8023
21.818	22.8424
21.836	22.8778
21.854	22.9088
21.872	22.9342
21.89	22.9511
21.908	22.9604
21.926	22.9606
21.944	22.9506
21.962	22.931
21.98	22.9017
21.998	22.8621
22.016	22.8134
22.034	22.7579
22.052	22.6942
22.07	22.6254
22.088	22.5533
22.106	22.4768
22.124	22.4002
22.142	22.3243
22.16	22.249
22.178	22.1772
22.196	22.1085
22.214	22.0433
22.232	21.9827
22.25	21.9268
22.268	21.8737
22.286	21.8233
22.304	21.7756
22.322	21.7265
22.34	21.6762
22.358	21.6238
22.376	21.5643
22.394	21.4989
22.412	21.4257
22.43	21.341
22.448	21.2462
22.466	21.1395
22.484	21.0189
22.502	20.8852
22.52	20.7387
22.538	20.5787
22.556	20.4056
22.574	20.223
22.592	20.0298
22.61	19.8277
22.628	19.6225
22.646	19.4123
22.664	19.2002
22.682	18.9924
22.7	18.7863
22.718	18.5859
22.736	18.3967
22.754	18.2158
22.772	18.0473
22.79	17.8947
22.808	17.7561
22.826	17.6339
22.844	17.5299
22.862	17.4431
22.88	17.3732
22.898	17.3205
22.916	17.2848
22.934	17.2634
22.952	17.2557
22.97	17.2621
22.988	17.2782
23.006	17.3039
23.024	17.3392
23.042	17.3791
23.06	17.4237
23.078	17.4728
23.096	17.5216
23.114	17.5703
23.132	17.6186
23.15	17.6627
23.168	17.7033
23.186	17.7397
23.204	17.769
23.222	17.7912
23.24	17.8064
23.258	17.8134
23.276	17.812
23.294	17.8027
23.312	17.7851
23.33	17.7588
23.348	17.7245
23.366	17.6838
23.384	17.6361
23.402	17.582
23.42	17.5236
23.438	17.4604
23.456	17.3928
23.474	17.3241
23.492	17.2542
23.51	17.1831
23.528	17.1139
23.546	17.0467
23.564	16.9811
23.582	16.921
23.6	16.8675
23.618	16.8192
23.636	16.7801
23.654	16.7518
23.672	16.7326
23.69	16.726
23.708	16.7342
23.726	16.7555
23.744	16.7921
23.762	16.8462
23.78	16.9164
23.798	17.0038
23.816	17.1096
23.834	17.2337
23.852	17.3755
23.87	17.5348
23.888	17.7124
23.906	17.907
23.924	18.1162
23.942	18.3408
23.96	18.5803
23.978	18.8307
23.996	19.0916
24.014	19.3641
24.032	19.6426
24.05	19.9239
24.068	20.2112
24.086	20.4994
24.104	20.7834
24.122	21.0662
24.14	21.3454
24.158	21.6171
24.176	21.8818
24.194	22.1399
24.212	22.3899
24.23	22.631
24.248	22.864
24.266	23.0897
24.284	23.3081
24.302	23.5188
24.32	23.7238
24.338	23.9252
24.356	24.1208
24.374	24.3133
24.392	24.5064
24.41	24.6995
24.428	24.8924
24.446	25.0876
24.464	25.286
24.482	25.4866
24.5	25.6905
24.518	25.8993
24.536	26.1133
24.554	26.3304
24.572	26.5479
24.59	26.7681
24.608	26.9893
24.626	27.2056
24.644	27.4155
24.662	27.6224
24.68	27.8184
24.698	27.9967
24.716	28.1636
24.734	28.3132
24.752	28.4357
24.77	28.5307
24.788	28.601
24.806	28.6402
24.824	28.6432
24.842	28.6125
24.86	28.5495
24.878	28.4547
24.896	28.3251
24.914	28.1638
24.932	27.9782
24.95	27.7704
24.968	27.535
24.986	27.2835
25.004	27.028
25.022	26.7603
25.04	26.4856
25.058	26.2191
25.076	25.9665
25.094	25.7188
25.112	25.4887
25.13	25.2894
25.148	25.1146
25.166	24.9661
25.184	24.8529
25.202	24.7801
25.22	24.743
25.238	24.7425
25.256	24.7803
25.274	24.8584
25.292	24.9736
25.31	25.1218
25.328	25.3014
25.346	25.5167
25.364	25.7597
25.382	26.0218
25.4	26.3074
25.418	26.6154
25.436	26.934
25.454	27.2545
25.472	27.5869
25.49	27.9221
25.508	28.2476
25.526	28.5632
25.544	28.8746
25.562	29.1675
25.58	29.4286
25.598	29.6673
25.616	29.8794
25.634	30.0513
25.652	30.1756
25.67	30.2634
25.688	30.3038
25.706	30.2834
25.724	30.2019
25.742	30.0649
25.76	29.8637
25.778	29.5902
25.796	29.2464
25.814	28.8348
25.832	28.3553
25.85	27.8062
25.868	27.1843
25.886	26.4986
25.904	25.7594
25.922	24.9639
25.94	24.1064
25.958	23.2082
25.976	22.2903
25.994	21.3393
26.012	20.3577
26.03	19.373
26.048	18.4083
26.066	17.4398
26.084	16.4817
26.102	15.5629
26.12	14.7015
26.138	13.8748
26.156	13.0983
26.174	12.3929
26.192	11.7666
26.21	11.2056
26.228	10.7192
26.246	10.3176
26.264	10.0059
26.282	9.777842
26.3	9.626792
26.318	9.546525
26.336	9.548369
26.354	9.626033
26.372	9.758170
26.39	9.925961
26.408	10.1519
26.426	10.4231
26.444	10.708
26.462	10.9817
26.48	11.2738
26.498	11.5666
26.516	11.827
26.534	12.0318
26.552	12.2097
26.57	12.3437
26.588	12.407
26.606	12.3823
26.624	12.2905
26.642	12.1217
26.66	11.8609
26.678	11.4975
26.696	11.0399
26.714	10.4911
26.732	9.852956
26.75	9.122876
26.768	8.294899
26.786	7.384317
26.804	6.407686
26.822	5.368127
26.84	4.247435
26.858	3.071262
26.876	1.868027
26.894	0.647307
26.912	-0.617998
26.93	-1.899482
26.948	-3.164877
26.966	-4.444001
26.984	-5.831322
27.002	-7.137903
27.02	-8.156069
27.028	-8.430671