File: Bakgrunnsmateriale/MATLAB/FTIR/ftir_data/LPE453/Mapping_121/LPE453_t65.asc
PE IR       SPECTRUM    SPECTRUM    ASCII       PEDS        1.60
  -1
LPDBAD~1.ASC
17/05/16
19:39:07.00
17/05/16
19:39:33.00
tln
$LPE453_t0065$<tbV0>[-10.4,0.0,8.0,0.0,27,1,0]
27.028
64

2002,4.07
MIRTGS : RIGHTBACK : INTERNAL 2
MIR : ON : INTERNAL 2
OPTKBR

0.200000
8
8.000000
FILLER
RATIO
SPECTRUM
UNLOCKED 256

DOUBLE
64
COMBINED
1
0
0

0.002000
RATIO

1
0
TRUE
51149
0
LEFT NOT FITTED RIGHT NOT FITTED 0
NONE
NONE
15600
12
4.427000
51148
TRUE
1 0 8 72 0 0 0 0

15798

#HDR
-1
-1
#GR
µM
%T
2.38419e-05
0.0
2.000000
0.002000
12515
8
31.8995
-12.9589
#DATA
2.000000	 0.094962
2.018000	 -0.016622
2.036000	 -0.037664
2.054000	 0.317694
2.072000	 0.454093
2.090000	 0.291356
2.108000	 -0.119093
2.126000	 1.068984
2.144000	 0.167263
2.162000	 -0.263887
2.180000	 0.193388
2.198000	 0.650605
2.216000	 -0.757494
2.234000	 0.577497
2.252000	 -0.357399
2.270000	 0.448659
2.288000	 0.476629
2.306000	 -0.044996
2.324000	 0.565342
2.342000	 -0.236460
2.360000	 -0.281742
2.378000	 0.155440
2.396000	 0.228836
2.414000	 0.221986
2.432000	 0.020905
2.450000	 0.113293
2.468000	 -0.041605
2.486000	 0.158644
2.504000	 -0.020679
2.522000	 -0.121044
2.540000	 -0.066320
2.558000	 0.002316
2.576000	 0.206889
2.594000	 -0.092849
2.612000	 0.008941
2.630000	 0.072950
2.648000	 -0.101854
2.666000	 0.078101
2.684000	 0.224731
2.702000	 0.041390
2.720000	 -0.009561
2.738000	 -0.076113
2.756000	 0.017517
2.774000	 -0.009862
2.792000	 0.156944
2.810000	 0.167333
2.828000	 0.080098
2.846000	 -0.047219
2.864000	 -0.018440
2.882000	 0.020635
2.900000	 0.154989
2.918000	 0.220199
2.936000	 0.138947
2.954000	 -0.044508
2.972000	 0.080322
2.990000	 0.087308
3.008000	 0.077915
3.026000	 -0.073148
3.044000	 -0.056788
3.062000	 0.073925
3.080000	 0.031818
3.098000	 -0.099681
3.116000	 -0.069213
3.134000	 0.161808
3.152000	 -0.100753
3.170000	 0.172587
3.188000	 0.345169
3.206000	 0.052990
3.224000	 -0.095928
3.242000	 0.015242
3.260000	 -0.006098
3.278000	 0.045748
3.296000	 0.033811
3.314000	 -0.004762
3.332000	 0.065275
3.350000	 -0.082319
3.368000	 0.016281
3.386000	 0.005114
3.404000	 -0.066162
3.422000	 -0.063460
3.440000	 -0.011636
3.458000	 0.128591
3.476000	 0.009253
3.494000	 0.062938
3.512000	 0.119734
3.530000	 0.098234
3.548000	 0.079247
3.566000	 0.034785
3.584000	 0.090258
3.602000	 0.094736
3.620000	 0.090096
3.638000	 0.039189
3.656000	 -0.000103
3.674000	 0.100721
3.692000	 -0.101171
3.710000	 -0.023440
3.728000	 0.038950
3.746000	 0.041880
3.764000	 0.016980
3.782000	 0.121908
3.800000	 0.070051
3.818000	 0.004376
3.836000	 0.028166
3.854000	 -0.014630
3.872000	 -0.082340
3.890000	 0.016845
3.908000	 0.118600
3.926000	 0.080345
3.944000	 0.019463
3.962000	 0.071773
3.980000	 0.004304
3.998000	 0.126696
4.016000	 0.099786
4.034000	 -0.036605
4.052000	 0.054774
4.070000	 0.019916
4.088000	 0.047893
4.106000	 0.266699
4.124000	 0.145645
4.141999	 0.002330
4.160000	 0.029313
4.178000	 0.014184
4.196000	 -0.042986
4.214000	 0.031951
4.232000	 -0.030328
4.250000	 -0.050115
4.268000	 0.069726
4.286000	 0.096908
4.304000	 0.012696
4.322000	 0.053824
4.340000	 0.216243
4.358000	 0.264088
4.375999	 0.289106
4.394000	 0.310107
4.412000	 0.566936
4.430000	 0.643159
4.448000	 0.890132
4.466000	 1.099124
4.484000	 1.415496
4.502000	 1.559063
4.520000	 2.025673
4.538000	 2.553740
4.556000	 3.041710
4.574000	 3.495027
4.592000	 4.039181
4.609999	 4.659345
4.628000	 5.480531
4.646000	 6.003148
4.664000	 6.955607
4.682000	 7.944554
4.700000	 8.884823
4.718000	 9.693835
4.736000	 10.5904
4.754000	 11.6152
4.772000	 12.4329
4.790000	 13.3954
4.808000	 14.3676
4.826000	 15.1266
4.843999	 16.2306
4.862000	 17.1775
4.880000	 17.8966
4.898000	 18.6136
4.916000	 19.4494
4.934000	 20.3224
4.952000	 20.9601
4.970000	 21.6617
4.988000	 22.297
5.006000	 22.9354
5.024000	 23.5152
5.042000	 24.0736
5.060000	 24.5232
5.077999	 25.1512
5.096000	 25.5153
5.114000	 25.9479
5.132000	 26.389
5.150000	 26.7935
5.168000	 27.1632
5.186000	 27.524
5.204000	 27.7866
5.222000	 28.0303
5.240000	 28.3358
5.258000	 28.517
5.276000	 28.7631
5.294000	 29.029
5.312000	 29.2648
5.330000	 29.4735
5.348000	 29.6619
5.366000	 29.8493
5.384000	 30.0157
5.402000	 30.0698
5.420000	 30.1817
5.438000	 30.3881
5.456000	 30.5056
5.474000	 30.6199
5.492000	 30.6679
5.510000	 30.7227
5.528000	 30.7828
5.546000	 30.9525
5.564000	 31.0652
5.582000	 31.0287
5.600000	 31.1377
5.618000	 31.2479
5.636000	 31.3428
5.654000	 31.3622
5.672000	 31.3726
5.690000	 31.3579
5.708000	 31.3613
5.726000	 31.4819
5.744000	 31.5297
5.762000	 31.5211
5.780000	 31.5344
5.798000	 31.6065
5.816000	 31.6236
5.834000	 31.5627
5.852000	 31.6405
5.870000	 31.7072
5.888000	 31.7565
5.906000	 31.8248
5.923999	 31.7908
5.942000	 31.8145
5.960000	 31.8154
5.978000	 31.7035
5.996000	 31.6579
6.014000	 31.6847
6.032000	 31.6987
6.050000	 31.7078
6.068000	 31.7946
6.086000	 31.8908
6.104000	 31.8897
6.122000	 31.888
6.140000	 31.879
6.158000	 31.767
6.176000	 31.6551
6.194000	 31.6265
6.212000	 31.724
6.230000	 31.8005
6.248000	 31.7887
6.266000	 31.8057
6.284000	 31.8262
6.302000	 31.7818
6.320000	 31.6688
6.338000	 31.679
6.356000	 31.7492
6.374000	 31.7104
6.392000	 31.6643
6.410000	 31.7266
6.428000	 31.77
6.446000	 31.7235
6.464000	 31.7062
6.482000	 31.7439
6.500000	 31.7641
6.518000	 31.7165
6.536000	 31.6957
6.554000	 31.6898
6.572000	 31.6263
6.590000	 31.5798
6.608000	 31.5932
6.626000	 31.6405
6.644000	 31.6725
6.662000	 31.6429
6.680000	 31.5859
6.698000	 31.6064
6.716000	 31.6274
6.734000	 31.4962
6.752000	 31.3471
6.770000	 31.3501
6.788000	 31.4599
6.806000	 31.5277
6.824000	 31.4883
6.842000	 31.4845
6.860000	 31.5303
6.878000	 31.4389
6.896000	 31.2697
6.914000	 31.203
6.932000	 31.2026
6.950000	 31.1779
6.968000	 31.1768
6.986000	 31.2317
7.004000	 31.2511
7.022000	 31.2374
7.040000	 31.2897
7.058000	 31.361
7.076000	 31.3418
7.094000	 31.3069
7.112000	 31.3502
7.130000	 31.3848
7.148000	 31.3393
7.166000	 31.2379
7.184000	 31.1358
7.202000	 31.1178
7.220000	 31.1497
7.238000	 31.1155
7.256000	 31.0587
7.274000	 31.0734
7.292000	 31.1208
7.310000	 31.1591
7.328000	 31.2035
7.346000	 31.2056
7.364000	 31.1215
7.382000	 31.0274
7.400000	 30.9841
7.418000	 30.9549
7.436000	 30.9181
7.454000	 30.8883
7.472000	 30.8711
7.490000	 30.8661
7.508000	 30.8656
7.526000	 30.8686
7.544000	 30.8849
7.562000	 30.9147
7.580000	 30.9652
7.598000	 31.0442
7.616000	 31.1112
7.634000	 31.1105
7.652000	 31.0358
7.670000	 30.9268
7.688000	 30.8377
7.706000	 30.8024
7.724000	 30.7996
7.742000	 30.7748
7.760000	 30.7116
7.778000	 30.6535
7.796000	 30.6525
7.814000	 30.7093
7.832000	 30.7759
7.850000	 30.8185
7.868000	 30.8494
7.886000	 30.8818
7.904000	 30.9006
7.922000	 30.9058
7.940000	 30.9168
7.958000	 30.9078
7.976000	 30.8334
7.994000	 30.7192
8.012000	 30.6378
8.030000	 30.6045
8.048000	 30.5779
8.065999	 30.5419
8.084000	 30.518
8.102000	 30.5106
8.120000	 30.4989
8.138000	 30.4844
8.155999	 30.5032
8.173999	 30.5759
8.192000	 30.6696
8.210000	 30.726
8.228000	 30.7146
8.246000	 30.6504
8.263999	 30.566
8.282000	 30.4826
8.300000	 30.4062
8.318000	 30.3387
8.336000	 30.2821
8.353999	 30.2312
8.372000	 30.1791
8.390000	 30.137
8.408000	 30.1249
8.426000	 30.15
8.443999	 30.2094
8.462000	 30.287
8.480000	 30.3535
8.498000	 30.3928
8.516000	 30.4208
8.533999	 30.4583
8.552000	 30.4986
8.570000	 30.5152
8.588000	 30.4941
8.606000	 30.446
8.624000	 30.3892
8.641999	 30.3364
8.660000	 30.2957
8.678000	 30.2712
8.696000	 30.257
8.714000	 30.2327
8.731999	 30.1758
8.750000	 30.0859
8.768000	 29.9924
8.786000	 29.9353
8.804000	 29.9317
8.821999	 29.9628
8.840000	 29.9916
8.858000	 29.9955
8.876000	 29.9807
8.894000	 29.9676
8.911999	 29.9697
8.930000	 29.9867
8.948000	 30.0115
8.966000	 30.0338
8.984000	 30.0392
9.001999	 30.0171
9.020000	 29.9753
9.038000	 29.9381
9.056000	 29.9237
9.074000	 29.9272
9.092000	 29.9289
9.109999	 29.9124
9.128000	 29.8728
9.146000	 29.8151
9.164000	 29.7522
9.182000	 29.7026
9.199999	 29.6797
9.218000	 29.6823
9.236000	 29.6984
9.254000	 29.7213
9.272000	 29.7521
9.289999	 29.7867
9.308000	 29.8088
9.326000	 29.8044
9.344000	 29.7799
9.362000	 29.7622
9.379999	 29.7734
9.398000	 29.8056
9.416000	 29.8237
9.434000	 29.7932
9.452000	 29.7078
9.469999	 29.5962
9.488000	 29.5024
9.506000	 29.4541
9.524000	 29.4466
9.542000	 29.4565
9.560000	 29.4648
9.577999	 29.4658
9.596000	 29.457
9.614000	 29.4334
9.632000	 29.393
9.650000	 29.347
9.667999	 29.3146
9.686000	 29.3063
9.704000	 29.3125
9.722000	 29.3143
9.740000	 29.3042
9.757999	 29.296
9.776000	 29.3139
9.794000	 29.3709
9.812000	 29.457
9.830000	 29.5451
9.847999	 29.6054
9.866000	 29.6177
9.884000	 29.5767
9.902000	 29.4935
9.920000	 29.3931
9.937999	 29.3044
9.956000	 29.2455
9.974000	 29.2152
9.992000	 29.1975
10.01	29.176
10.028	29.1457
10.046	29.1135
10.064	29.0895
10.082	29.0768
10.1	29.0726
10.118	29.0739
10.136	29.0835
10.154	29.1054
10.172	29.1386
10.19	29.1731
10.208	29.1933
10.226	29.1876
10.244	29.1561
10.262	29.111
10.28	29.0687
10.298	29.0388
10.316	29.0178
10.334	28.993
10.352	28.9533
10.37	28.8986
10.388	28.8434
10.406	28.8069
10.424	28.8023
10.442	28.8241
10.46	28.8529
10.478	28.8651
10.496	28.8475
10.514	28.8029
10.532	28.7479
10.55	28.7024
10.568	28.6798
10.586	28.682
10.604	28.7003
10.622	28.7219
10.64	28.737
10.658	28.7412
10.676	28.7346
10.694	28.7176
10.712	28.6892
10.73	28.6479
10.748	28.5955
10.766	28.5397
10.784	28.4921
10.802	28.4648
10.82	28.4635
10.838	28.4844
10.856	28.5173
10.874	28.5488
10.892	28.5678
10.91	28.5657
10.928	28.5392
10.946	28.4894
10.964	28.4215
10.982	28.3445
11	28.2677
11.018	28.1991
11.036	28.1435
11.054	28.1032
11.072	28.0788
11.09	28.069
11.108	28.0712
11.126	28.0797
11.144	28.087
11.162	28.0846
11.18	28.0676
11.198	28.0368
11.216	27.9989
11.234	27.9638
11.252	27.9394
11.27	27.9281
11.288	27.9266
11.306	27.9277
11.324	27.9246
11.342	27.9149
11.36	27.9015
11.378	27.8919
11.396	27.8945
11.414	27.9152
11.432	27.9543
11.45	28.0067
11.468	28.0619
11.486	28.1084
11.504	28.1356
11.522	28.137
11.54	28.1119
11.558	28.065
11.576	28.0048
11.594	27.9402
11.612	27.8789
11.63	27.8247
11.648	27.7774
11.666	27.7348
11.684	27.6939
11.702	27.6535
11.72	27.6144
11.738	27.5789
11.756	27.5491
11.774	27.5257
11.792	27.5081
11.81	27.495
11.828	27.4849
11.846	27.4767
11.864	27.4688
11.882	27.4593
11.9	27.446
11.918	27.4258
11.936	27.3967
11.954	27.3588
11.972	27.3154
11.99	27.2725
12.008	27.2372
12.026	27.2155
12.044	27.2102
12.062	27.2189
12.08	27.2343
12.098	27.2473
12.116	27.2493
12.134	27.2361
12.152	27.2092
12.17	27.1749
12.188	27.1418
12.206	27.1179
12.224	27.1074
12.242	27.1101
12.26	27.1214
12.278	27.134
12.296	27.1402
12.314	27.1336
12.332	27.1118
12.35	27.0756
12.368	27.0296
12.386	26.98
12.404	26.9333
12.422	26.8937
12.44	26.863
12.458	26.8401
12.476	26.8222
12.494	26.806
12.512	26.7892
12.53	26.7715
12.548	26.7538
12.566	26.738
12.584	26.7251
12.602	26.715
12.62	26.7054
12.638	26.6926
12.656	26.673
12.674	26.6446
12.692	26.608
12.71	26.5668
12.728	26.5267
12.746	26.4944
12.764	26.4753
12.782	26.4719
12.8	26.483
12.818	26.504
12.836	26.5286
12.854	26.5506
12.872	26.5649
12.89	26.569
12.908	26.563
12.926	26.5488
12.944	26.5294
12.962	26.5075
12.98	26.4846
12.998	26.4609
13.016	26.4359
13.034	26.4087
13.052	26.3786
13.07	26.3462
13.088	26.3125
13.106	26.2796
13.124	26.2501
13.142	26.227
13.16	26.2132
13.178	26.2111
13.196	26.2222
13.214	26.2458
13.232	26.2789
13.25	26.3158
13.268	26.3493
13.286	26.3715
13.304	26.3755
13.322	26.3572
13.34	26.3163
13.358	26.2563
13.376	26.1839
13.394	26.107
13.412	26.0328
13.43	25.9661
13.448	25.9086
13.466	25.8586
13.484	25.8121
13.502	25.7649
13.52	25.7142
13.538	25.6597
13.556	25.6041
13.574	25.5522
13.592	25.5101
13.61	25.4824
13.628	25.4719
13.646	25.479
13.664	25.5011
13.682	25.5337
13.7	25.5713
13.718	25.609
13.736	25.6436
13.754	25.6733
13.772	25.6983
13.79	25.7202
13.808	25.741
13.826	25.7618
13.844	25.7827
13.862	25.8024
13.88	25.8181
13.898	25.8267
13.916	25.8251
13.934	25.8112
13.952	25.7845
13.97	25.7465
13.988	25.7002
14.006	25.65
14.024	25.5997
14.042	25.5533
14.06	25.5126
14.078	25.4779
14.096	25.4472
14.114	25.417
14.132	25.3834
14.15	25.3428
14.168	25.2924
14.186	25.2314
14.204	25.1609
14.222	25.0845
14.24	25.0068
14.258	24.933
14.276	24.8675
14.294	24.8136
14.312	24.7731
14.33	24.7457
14.348	24.7293
14.366	24.7207
14.384	24.7157
14.402	24.7109
14.42	24.7035
14.438	24.6921
14.456	24.6767
14.474	24.6585
14.492	24.6397
14.51	24.623
14.528	24.6107
14.546	24.6045
14.564	24.605
14.582	24.6121
14.6	24.6244
14.618	24.6402
14.636	24.6571
14.654	24.6733
14.672	24.6878
14.69	24.7
14.708	24.7104
14.726	24.7194
14.744	24.7287
14.762	24.7393
14.78	24.7523
14.798	24.7683
14.816	24.7877
14.834	24.8101
14.852	24.8349
14.87	24.8612
14.888	24.8876
14.906	24.9129
14.924	24.9358
14.942	24.955
14.96	24.9695
14.978	24.9784
14.996	24.981
15.014	24.9766
15.032	24.9651
15.05	24.9459
15.068	24.9189
15.086	24.884
15.104	24.8409
15.122	24.7899
15.14	24.7312
15.158	24.6654
15.176	24.5933
15.194	24.5163
15.212	24.4365
15.23	24.3561
15.248	24.2774
15.266	24.203
15.284	24.1354
15.302	24.0768
15.32	24.0283
15.338	23.9906
15.356	23.9638
15.374	23.9464
15.392	23.9364
15.41	23.9317
15.428	23.9295
15.446	23.9272
15.464	23.9228
15.482	23.9147
15.5	23.9021
15.518	23.8849
15.536	23.8644
15.554	23.8416
15.572	23.8181
15.59	23.796
15.608	23.7765
15.626	23.7606
15.644	23.749
15.662	23.7414
15.68	23.7372
15.698	23.7358
15.716	23.7364
15.734	23.7383
15.752	23.7412
15.77	23.745
15.788	23.7501
15.806	23.7572
15.824	23.7669
15.842	23.7802
15.86	23.7972
15.878	23.8179
15.896	23.842
15.914	23.868
15.932	23.8943
15.95	23.9192
15.968	23.9404
15.986	23.9552
16.004	23.9621
16.022	23.9595
16.04	23.9464
16.058	23.9231
16.076	23.8901
16.094	23.8489
16.112	23.8018
16.13	23.751
16.148	23.6995
16.166	23.6504
16.184	23.6059
16.202	23.5681
16.22	23.5385
16.238	23.5174
16.256	23.5051
16.274	23.5002
16.292	23.5006
16.31	23.5049
16.328	23.5094
16.346	23.5118
16.364	23.51
16.382	23.5013
16.4	23.4848
16.418	23.4599
16.436	23.4267
16.454	23.3864
16.472	23.34
16.49	23.2899
16.508	23.2378
16.526	23.1851
16.544	23.1336
16.562	23.0839
16.58	23.0364
16.598	22.991
16.616	22.9472
16.634	22.9044
16.652	22.8615
16.67	22.818
16.688	22.7734
16.706	22.7277
16.724	22.6812
16.742	22.6347
16.76	22.5897
16.778	22.547
16.796	22.5086
16.814	22.4762
16.832	22.4506
16.85	22.4336
16.868	22.4256
16.886	22.4267
16.904	22.4366
16.922	22.4543
16.94	22.4789
16.958	22.5082
16.976	22.541
16.994	22.5749
17.012	22.6083
17.03	22.6398
17.048	22.6672
17.066	22.6901
17.084	22.7075
17.102	22.7191
17.12	22.7248
17.138	22.7252
17.156	22.7209
17.174	22.7125
17.192	22.7014
17.21	22.6881
17.228	22.6738
17.246	22.6592
17.264	22.6447
17.282	22.6306
17.3	22.6168
17.318	22.6033
17.336	22.5894
17.354	22.5749
17.372	22.5591
17.39	22.5418
17.408	22.5223
17.426	22.5007
17.444	22.4769
17.462	22.4513
17.48	22.424
17.498	22.3955
17.516	22.3661
17.534	22.3361
17.552	22.3059
17.57	22.2757
17.588	22.2459
17.606	22.2164
17.624	22.1874
17.642	22.159
17.66	22.1311
17.678	22.104
17.696	22.0778
17.714	22.0529
17.732	22.0296
17.75	22.0084
17.768	21.9897
17.786	21.9738
17.804	21.9612
17.822	21.9519
17.84	21.9461
17.858	21.9438
17.876	21.9447
17.894	21.9482
17.912	21.9542
17.93	21.9612
17.948	21.9691
17.966	21.9764
17.984	21.9828
18.002	21.9873
18.02	21.9897
18.038	21.9892
18.056	21.9856
18.074	21.9787
18.092	21.9682
18.11	21.9542
18.128	21.937
18.146	21.9166
18.164	21.8933
18.182	21.8673
18.2	21.8388
18.218	21.8081
18.236	21.7755
18.254	21.7418
18.272	21.707
18.29	21.6725
18.308	21.6383
18.326	21.6058
18.344	21.5752
18.362	21.5479
18.38	21.524
18.398	21.5045
18.416	21.4896
18.434	21.4799
18.452	21.4752
18.47	21.4757
18.488	21.4804
18.506	21.4892
18.524	21.5006
18.542	21.5143
18.56	21.5284
18.578	21.5428
18.596	21.5554
18.614	21.5661
18.632	21.5731
18.65	21.5766
18.668	21.5753
18.686	21.5695
18.704	21.5588
18.722	21.5435
18.74	21.524
18.758	21.5004
18.776	21.4735
18.794	21.4435
18.812	21.4113
18.83	21.3767
18.848	21.3405
18.866	21.3026
18.884	21.263
18.902	21.2215
18.92	21.178
18.938	21.1322
18.956	21.0837
18.974	21.0322
18.992	20.9773
19.01	20.919
19.028	20.857
19.046	20.7915
19.064	20.7225
19.082	20.6506
19.1	20.5762
19.118	20.4998
19.136	20.4227
19.154	20.3454
19.172	20.2693
19.19	20.1951
19.208	20.1249
19.226	20.0587
19.244	19.9984
19.262	19.9441
19.28	19.8976
19.298	19.8587
19.316	19.8286
19.334	19.8073
19.352	19.7957
19.37	19.7935
19.388	19.8007
19.406	19.8171
19.424	19.842
19.442	19.8754
19.46	19.9158
19.478	19.9632
19.496	20.0158
19.514	20.0734
19.532	20.1341
19.55	20.1973
19.568	20.2614
19.586	20.325
19.604	20.3873
19.622	20.446
19.64	20.5011
19.658	20.55
19.676	20.5929
19.694	20.6278
19.712	20.6548
19.73	20.6728
19.748	20.6817
19.766	20.6812
19.784	20.6709
19.802	20.6518
19.82	20.6238
19.838	20.5879
19.856	20.5452
19.874	20.4963
19.892	20.4436
19.91	20.387
19.928	20.3297
19.946	20.2713
19.964	20.2151
19.982	20.1612
20	20.1115
20.018	20.0673
20.036	20.0287
20.054	19.9974
20.072	19.973
20.09	19.956
20.108	19.9462
20.126	19.9426
20.144	19.9454
20.162	19.9524
20.18	19.9632
20.198	19.9761
20.216	19.9886
20.234	20.0007
20.252	20.0084
20.27	20.0124
20.288	20.0089
20.306	19.9978
20.324	19.9776
20.342	19.9469
20.36	19.906
20.378	19.8538
20.396	19.7905
20.414	19.7174
20.432	19.6341
20.45	19.5432
20.468	19.445
20.486	19.3414
20.504	19.2361
20.522	19.1284
20.54	19.0236
20.558	18.9209
20.576	18.8243
20.594	18.7357
20.612	18.6556
20.63	18.5875
20.648	18.5307
20.666	18.4876
20.684	18.4583
20.702	18.4431
20.72	18.4427
20.738	18.4565
20.756	18.4836
20.774	18.5243
20.792	18.5762
20.81	18.6392
20.828	18.7116
20.846	18.7907
20.864	18.877
20.882	18.9662
20.9	19.0589
20.918	19.1522
20.936	19.2437
20.954	19.3336
20.972	19.4178
20.99	19.4972
21.008	19.5688
21.026	19.6316
21.044	19.6852
21.062	19.7271
21.08	19.758
21.098	19.7764
21.116	19.7819
21.134	19.7748
21.152	19.7547
21.17	19.7217
21.188	19.6769
21.206	19.6201
21.224	19.5524
21.242	19.4755
21.26	19.3888
21.278	19.2957
21.296	19.1963
21.314	19.0921
21.332	18.9868
21.35	18.879
21.368	18.7727
21.386	18.6686
21.404	18.5675
21.422	18.4726
21.44	18.383
21.458	18.301
21.476	18.2277
21.494	18.1627
21.512	18.1077
21.53	18.0625
21.548	18.0273
21.566	18.0027
21.584	17.9882
21.602	17.9833
21.62	17.9885
21.638	18.0026
21.656	18.0245
21.674	18.0546
21.692	18.0906
21.71	18.1323
21.728	18.179
21.746	18.228
21.764	18.2803
21.782	18.3336
21.8	18.3865
21.818	18.4395
21.836	18.4896
21.854	18.5367
21.872	18.5803
21.89	18.6183
21.908	18.6515
21.926	18.6788
21.944	18.6992
21.962	18.7132
21.98	18.7209
21.998	18.7217
22.016	18.7165
22.034	18.7062
22.052	18.6901
22.07	18.6701
22.088	18.6473
22.106	18.6211
22.124	18.5944
22.142	18.5676
22.16	18.5409
22.178	18.517
22.196	18.4953
22.214	18.4769
22.232	18.4635
22.25	18.4544
22.268	18.4503
22.286	18.4518
22.304	18.4587
22.322	18.4704
22.34	18.4874
22.358	18.5091
22.376	18.5344
22.394	18.5636
22.412	18.5959
22.43	18.63
22.448	18.6665
22.466	18.7042
22.484	18.7423
22.502	18.7813
22.52	18.8203
22.538	18.8587
22.556	18.8969
22.574	18.9352
22.592	18.9734
22.61	19.0117
22.628	19.051
22.646	19.0911
22.664	19.1322
22.682	19.1747
22.7	19.2189
22.718	19.2641
22.736	19.31
22.754	19.357
22.772	19.4036
22.79	19.4487
22.808	19.4934
22.826	19.5346
22.844	19.5707
22.862	19.6031
22.88	19.6277
22.898	19.6428
22.916	19.6497
22.934	19.6443
22.952	19.6253
22.97	19.5938
22.988	19.5475
23.006	19.4858
23.024	19.4093
23.042	19.3186
23.06	19.2127
23.078	19.0927
23.096	18.9616
23.114	18.8181
23.132	18.6638
23.15	18.5039
23.168	18.3368
23.186	18.1645
23.204	17.9938
23.222	17.8235
23.24	17.655
23.258	17.4949
23.276	17.3421
23.294	17.1976
23.312	17.0665
23.33	16.9491
23.348	16.8446
23.366	16.7553
23.384	16.6823
23.402	16.6239
23.42	16.578
23.438	16.5455
23.456	16.5254
23.474	16.5131
23.492	16.5087
23.51	16.5123
23.528	16.519
23.546	16.5282
23.564	16.5407
23.582	16.5519
23.6	16.5604
23.618	16.5677
23.636	16.5699
23.654	16.5646
23.672	16.5533
23.69	16.5361
23.708	16.5124
23.726	16.4816
23.744	16.4472
23.762	16.4116
23.78	16.3719
23.798	16.3333
23.816	16.3011
23.834	16.2717
23.852	16.2491
23.87	16.24
23.888	16.2419
23.906	16.2566
23.924	16.29
23.942	16.3423
23.96	16.4126
23.978	16.5035
23.996	16.6166
24.014	16.7506
24.032	16.9048
24.05	17.0792
24.068	17.275
24.086	17.4878
24.104	17.7143
24.122	17.9585
24.14	18.2143
24.158	18.4733
24.176	18.7398
24.194	19.0103
24.212	19.2749
24.23	19.5329
24.248	19.7866
24.266	20.0266
24.284	20.2477
24.302	20.4545
24.32	20.6425
24.338	20.8069
24.356	20.9492
24.374	21.0699
24.392	21.169
24.41	21.244
24.428	21.2975
24.446	21.3348
24.464	21.3566
24.482	21.3601
24.5	21.3547
24.518	21.3475
24.536	21.332
24.554	21.3152
24.572	21.3076
24.59	21.3054
24.608	21.31
24.626	21.3322
24.644	21.3776
24.662	21.4408
24.68	21.5255
24.698	21.6357
24.716	21.7711
24.734	21.9296
24.752	22.1094
24.77	22.3145
24.788	22.5429
24.806	22.7827
24.824	23.0271
24.842	23.2859
24.86	23.5454
24.878	23.7896
24.896	24.0279
24.914	24.2554
24.932	24.45
24.95	24.6015
24.968	24.7239
24.986	24.7994
25.004	24.8089
25.022	24.7622
25.04	24.6556
25.058	24.473
25.076	24.2066
25.094	23.8657
25.112	23.4436
25.13	22.9329
25.148	22.333
25.166	21.6485
25.184	20.8836
25.202	20.0369
25.22	19.1046
25.238	18.1019
25.256	17.044
25.274	15.9174
25.292	14.7314
25.31	13.5118
25.328	12.2706
25.346	10.9879
25.364	9.690200
25.382	8.407741
25.4	7.128921
25.418	5.853536
25.436	4.613588
25.454	3.432330
25.472	2.285677
25.49	1.192031
25.508	0.179071
25.526	-0.748916
25.544	-1.605405
25.562	-2.370873
25.58	-3.026714
25.598	-3.581410
25.616	-4.035106
25.634	-4.378699
25.652	-4.605287
25.67	-4.719255
25.688	-4.723653
25.706	-4.620929
25.724	-4.406848
25.742	-4.082642
25.76	-3.661660
25.778	-3.155740
25.796	-2.552266
25.814	-1.860375
25.832	-1.100443
25.85	-0.283963
25.868	0.607363
25.886	1.553878
25.904	2.530893
25.922	3.537132
25.94	4.586321
25.958	5.650627
25.976	6.702107
25.994	7.754308
26.012	8.807266
26.03	9.833712
26.048	10.8103
26.066	11.7562
26.084	12.6633
26.102	13.5118
26.12	14.2891
26.138	15.0105
26.156	15.6665
26.174	16.2441
26.192	16.7382
26.21	17.1576
26.228	17.4967
26.246	17.7495
26.264	17.9149
26.282	17.9964
26.3	17.9934
26.318	17.9056
26.336	17.7314
26.354	17.4728
26.372	17.1336
26.39	16.7169
26.408	16.2181
26.426	15.6408
26.444	14.9932
26.462	14.2813
26.48	13.4975
26.498	12.6474
26.516	11.7406
26.534	10.7832
26.552	9.763781
26.57	8.693107
26.588	7.586044
26.606	6.450034
26.624	5.268752
26.642	4.058617
26.66	2.840241
26.678	1.622485
26.696	0.384805
26.714	-0.852240
26.732	-2.064177
26.75	-3.241750
26.768	-4.408078
26.786	-5.540195
26.804	-6.611601
26.822	-7.611745
26.84	-8.563802
26.858	-9.448126
26.876	-10.242
26.894	-10.935
26.912	-11.5457
26.93	-12.0625
26.948	-12.4716
26.966	-12.7489
26.984	-12.8808
27.002	-12.9255
27.02	-12.9449
27.028	-12.9589