File: Bakgrunnsmateriale/MATLAB/FTIR/ftir_data/LPE453/Mapping_121/LPE453_t57.asc
PE IR       SPECTRUM    SPECTRUM    ASCII       PEDS        1.60
  -1
LPD7A5~1.ASC
17/05/16
19:02:14.00
17/05/16
19:02:40.00
tln
$LPE453_t0057$<tbV0>[10.4,0.0,8.0,0.0,27,1,0]
27.028
64

2002,4.07
MIRTGS : RIGHTBACK : INTERNAL 2
MIR : ON : INTERNAL 2
OPTKBR

0.200000
8
8.000000
FILLER
RATIO
SPECTRUM
UNLOCKED 256

DOUBLE
64
COMBINED
1
0
0

0.002000
RATIO

1
0
TRUE
51149
0
LEFT NOT FITTED RIGHT NOT FITTED 0
NONE
NONE
15600
12
4.427000
51148
TRUE
1 0 8 72 0 0 0 0

15798

#HDR
-1
-1
#GR
µM
%T
2.38419e-05
0.0
2.000000
0.002000
12515
8
23.3199
-19.3054
#DATA
2.000000	 0.297307
2.018000	 -0.119131
2.036000	 0.010022
2.054000	 0.014374
2.072000	 0.023871
2.090000	 0.249083
2.108000	 0.761907
2.126000	 1.589774
2.144000	 2.171166
2.162000	 1.541402
2.180000	 1.054607
2.198000	 0.377342
2.216000	 0.446594
2.234000	 -2.659962
2.252000	 0.890417
2.270000	 -0.119860
2.288000	 0.021659
2.306000	 -0.022662
2.324000	 0.371543
2.342000	 0.096302
2.360000	 0.105334
2.378000	 0.335836
2.396000	 -0.113136
2.414000	 -0.076400
2.432000	 -0.058187
2.450000	 0.022910
2.468000	 0.124579
2.486000	 0.199010
2.504000	 -0.113911
2.522000	 -0.043466
2.540000	 0.158272
2.558000	 0.050743
2.576000	 0.025148
2.594000	 0.049407
2.612000	 0.140739
2.630000	 -0.063962
2.648000	 0.202840
2.666000	 0.011487
2.684000	 -0.035340
2.702000	 0.031508
2.720000	 0.001311
2.738000	 0.213653
2.756000	 0.196466
2.774000	 0.170406
2.792000	 0.013258
2.810000	 0.191501
2.828000	 -0.089207
2.846000	 0.050192
2.864000	 0.079209
2.882000	 -0.079698
2.900000	 0.062279
2.918000	 0.074229
2.936000	 0.142788
2.954000	 -0.109687
2.972000	 0.075389
2.990000	 -0.034447
3.008000	 0.177667
3.026000	 0.077534
3.044000	 0.063004
3.062000	 0.047074
3.080000	 0.059342
3.098000	 0.011207
3.116000	 -0.082451
3.134000	 0.167982
3.152000	 0.026384
3.170000	 0.034628
3.188000	 -0.003013
3.206000	 0.141708
3.224000	 0.107362
3.242000	 -0.009970
3.260000	 0.224550
3.278000	 -0.052255
3.296000	 0.173112
3.314000	 0.039342
3.332000	 0.031231
3.350000	 0.082465
3.368000	 0.043268
3.386000	 -0.001385
3.404000	 -0.047356
3.422000	 0.046051
3.440000	 0.054233
3.458000	 0.133789
3.476000	 0.028515
3.494000	 0.276197
3.512000	 -0.051441
3.530000	 0.129743
3.548000	 0.110075
3.566000	 0.080732
3.584000	 0.072689
3.602000	 0.065492
3.620000	 -0.032141
3.638000	 -0.026508
3.656000	 0.017908
3.674000	 0.042510
3.692000	 0.037454
3.710000	 -0.027330
3.728000	 0.035020
3.746000	 0.055997
3.764000	 0.031439
3.782000	 -0.012064
3.800000	 0.151609
3.818000	 0.079395
3.836000	 0.092849
3.854000	 0.070268
3.872000	 -0.000277
3.890000	 0.010719
3.908000	 0.172767
3.926000	 0.072678
3.944000	 -0.103292
3.962000	 -0.137565
3.980000	 0.068759
3.998000	 -0.068109
4.016000	 0.146896
4.034000	 -0.116424
4.052000	 -0.040763
4.070000	 0.015132
4.088000	 0.048715
4.106000	 0.256730
4.124000	 0.064192
4.141999	 0.171193
4.160000	 -0.040461
4.178000	 -0.015866
4.196000	 0.085660
4.214000	 -0.051019
4.232000	 -0.008992
4.250000	 0.017612
4.268000	 -0.084578
4.286000	 -0.024562
4.304000	 -0.093296
4.322000	 0.063428
4.340000	 -0.004420
4.358000	 -0.004050
4.375999	 0.069830
4.394000	 0.063848
4.412000	 0.119915
4.430000	 0.221774
4.448000	 0.185727
4.466000	 0.167644
4.484000	 0.364720
4.502000	 0.409662
4.520000	 0.459050
4.538000	 0.789682
4.556000	 0.857440
4.574000	 1.076603
4.592000	 1.433859
4.609999	 1.651599
4.628000	 1.956247
4.646000	 2.378715
4.664000	 2.741370
4.682000	 3.323943
4.700000	 3.790531
4.718000	 4.253015
4.736000	 4.876294
4.754000	 5.460733
4.772000	 6.071783
4.790000	 6.627806
4.808000	 7.408578
4.826000	 7.774669
4.843999	 8.385361
4.862000	 9.220864
4.880000	 9.874371
4.898000	 10.4935
4.916000	 11.0958
4.934000	 11.7376
4.952000	 12.3602
4.970000	 12.9516
4.988000	 13.5222
5.006000	 14.0565
5.024000	 14.559
5.042000	 15.0402
5.060000	 15.4491
5.077999	 15.9925
5.096000	 16.3921
5.114000	 16.8515
5.132000	 17.2679
5.150000	 17.6723
5.168000	 18.0956
5.186000	 18.2837
5.204000	 18.6301
5.222000	 18.9652
5.240000	 19.2721
5.258000	 19.4886
5.276000	 19.6863
5.294000	 20.0089
5.312000	 20.2523
5.330000	 20.4491
5.348000	 20.5942
5.366000	 20.7933
5.384000	 21.0497
5.402000	 21.1788
5.420000	 21.2985
5.438000	 21.4595
5.456000	 21.6169
5.474000	 21.6887
5.492000	 21.7378
5.510000	 21.8661
5.528000	 22.062
5.546000	 22.1369
5.564000	 22.2091
5.582000	 22.3199
5.600000	 22.4324
5.618000	 22.4433
5.636000	 22.5281
5.654000	 22.6669
5.672000	 22.6666
5.690000	 22.716
5.708000	 22.773
5.726000	 22.8207
5.744000	 22.8868
5.762000	 22.8835
5.780000	 22.9257
5.798000	 23.0158
5.816000	 23.0469
5.834000	 22.9963
5.852000	 22.992
5.870000	 22.9309
5.888000	 22.9141
5.906000	 23.0354
5.923999	 23.0774
5.942000	 23.0804
5.960000	 23.1083
5.978000	 23.1965
5.996000	 23.2303
6.014000	 23.1759
6.032000	 23.1583
6.050000	 23.164
6.068000	 23.1716
6.086000	 23.1798
6.104000	 23.2114
6.122000	 23.2923
6.140000	 23.2563
6.158000	 23.195
6.176000	 23.1916
6.194000	 23.2302
6.212000	 23.294
6.230000	 23.3191
6.248000	 23.3005
6.266000	 23.2295
6.284000	 23.1803
6.302000	 23.1666
6.320000	 23.1597
6.338000	 23.1833
6.356000	 23.2111
6.374000	 23.1909
6.392000	 23.1433
6.410000	 23.1474
6.428000	 23.168
6.446000	 23.1809
6.464000	 23.2338
6.482000	 23.2469
6.500000	 23.2437
6.518000	 23.2764
6.536000	 23.2922
6.554000	 23.233
6.572000	 23.1435
6.590000	 23.0988
6.608000	 23.102
6.626000	 23.1439
6.644000	 23.1789
6.662000	 23.1681
6.680000	 23.1515
6.698000	 23.173
6.716000	 23.2077
6.734000	 23.2111
6.752000	 23.1789
6.770000	 23.1166
6.788000	 23.0531
6.806000	 23.0459
6.824000	 23.0611
6.842000	 23.0563
6.860000	 23.0566
6.878000	 23.0351
6.896000	 23.0092
6.914000	 23.0612
6.932000	 23.1283
6.950000	 23.1063
6.968000	 23.007
6.986000	 22.8964
7.004000	 22.8583
7.022000	 22.9298
7.040000	 23.0085
7.058000	 23.0255
7.076000	 23.0166
7.094000	 22.9669
7.112000	 22.8853
7.130000	 22.8645
7.148000	 22.8793
7.166000	 22.8225
7.184000	 22.7414
7.202000	 22.7472
7.220000	 22.7939
7.238000	 22.7936
7.256000	 22.8004
7.274000	 22.8566
7.292000	 22.8741
7.310000	 22.7995
7.328000	 22.6969
7.346000	 22.6244
7.364000	 22.5842
7.382000	 22.584
7.400000	 22.6289
7.418000	 22.6883
7.436000	 22.731
7.454000	 22.7512
7.472000	 22.7446
7.490000	 22.7181
7.508000	 22.6984
7.526000	 22.683
7.544000	 22.6535
7.562000	 22.626
7.580000	 22.6166
7.598000	 22.6181
7.616000	 22.6297
7.634000	 22.6338
7.652000	 22.5942
7.670000	 22.538
7.688000	 22.5399
7.706000	 22.5933
7.724000	 22.6128
7.742000	 22.5694
7.760000	 22.514
7.778000	 22.4724
7.796000	 22.4221
7.814000	 22.3661
7.832000	 22.3353
7.850000	 22.3318
7.868000	 22.341
7.886000	 22.3686
7.904000	 22.4131
7.922000	 22.4454
7.940000	 22.4497
7.958000	 22.4423
7.976000	 22.4382
7.994000	 22.4291
8.012000	 22.4017
8.030000	 22.3572
8.048000	 22.3074
8.065999	 22.26
8.084000	 22.2207
8.102000	 22.2044
8.120000	 22.2157
8.138000	 22.2272
8.155999	 22.2123
8.173999	 22.1828
8.192000	 22.1629
8.210000	 22.1464
8.228000	 22.1152
8.246000	 22.0835
8.263999	 22.0817
8.282000	 22.1089
8.300000	 22.1283
8.318000	 22.1139
8.336000	 22.0802
8.353999	 22.0564
8.372000	 22.0544
8.390000	 22.068
8.408000	 22.0858
8.426000	 22.0954
8.443999	 22.0901
8.462000	 22.0675
8.480000	 22.029
8.498000	 21.9879
8.516000	 21.9611
8.533999	 21.9491
8.552000	 21.9406
8.570000	 21.9322
8.588000	 21.929
8.606000	 21.9286
8.624000	 21.9236
8.641999	 21.918
8.660000	 21.9231
8.678000	 21.9348
8.696000	 21.9335
8.714000	 21.9046
8.731999	 21.8512
8.750000	 21.7895
8.768000	 21.7393
8.786000	 21.7167
8.804000	 21.7192
8.821999	 21.7213
8.840000	 21.6964
8.858000	 21.6431
8.876000	 21.5825
8.894000	 21.5381
8.911999	 21.5223
8.930000	 21.5339
8.948000	 21.5597
8.966000	 21.5756
8.984000	 21.5584
9.001999	 21.5056
9.020000	 21.4401
9.038000	 21.3939
9.056000	 21.3778
9.074000	 21.3725
9.092000	 21.348
9.109999	 21.2961
9.128000	 21.2405
9.146000	 21.2145
9.164000	 21.2278
9.182000	 21.2585
9.199999	 21.2772
9.218000	 21.277
9.236000	 21.2792
9.254000	 21.3094
9.272000	 21.3659
9.289999	 21.415
9.308000	 21.4187
9.326000	 21.3676
9.344000	 21.2875
9.362000	 21.2171
9.379999	 21.18
9.398000	 21.1755
9.416000	 21.1859
9.434000	 21.1891
9.452000	 21.1674
9.469999	 21.115
9.488000	 21.0435
9.506000	 20.9761
9.524000	 20.9336
9.542000	 20.9213
9.560000	 20.9284
9.577999	 20.9387
9.596000	 20.942
9.614000	 20.9382
9.632000	 20.9334
9.650000	 20.9324
9.667999	 20.9342
9.686000	 20.9309
9.704000	 20.9125
9.722000	 20.8766
9.740000	 20.8342
9.757999	 20.8034
9.776000	 20.7971
9.794000	 20.8119
9.812000	 20.8297
9.830000	 20.8296
9.847999	 20.8022
9.866000	 20.7554
9.884000	 20.7091
9.902000	 20.6831
9.920000	 20.6843
9.937999	 20.7041
9.956000	 20.7259
9.974000	 20.7367
9.992000	 20.7347
10.01	20.728
10.028	20.7277
10.046	20.738
10.064	20.7529
10.082	20.7606
10.1	20.7524
10.118	20.7294
10.136	20.7001
10.154	20.6723
10.172	20.6458
10.19	20.6124
10.208	20.5643
10.226	20.5025
10.244	20.4378
10.262	20.383
10.28	20.3423
10.298	20.312
10.316	20.2846
10.334	20.2558
10.352	20.2266
10.37	20.2001
10.388	20.1782
10.406	20.1604
10.424	20.1454
10.442	20.134
10.46	20.1285
10.478	20.1306
10.496	20.1398
10.514	20.1535
10.532	20.1663
10.55	20.1702
10.568	20.1553
10.586	20.113
10.604	20.0418
10.622	19.9503
10.64	19.8546
10.658	19.7724
10.676	19.717
10.694	19.6921
10.712	19.6931
10.73	19.7103
10.748	19.733
10.766	19.7528
10.784	19.764
10.802	19.7648
10.82	19.7563
10.838	19.7425
10.856	19.7265
10.874	19.7097
10.892	19.6898
10.91	19.663
10.928	19.6267
10.946	19.5803
10.964	19.5261
10.982	19.4679
11	19.409
11.018	19.3527
11.036	19.3009
11.054	19.2554
11.072	19.2184
11.09	19.1914
11.108	19.1743
11.126	19.1647
11.144	19.1584
11.162	19.1509
11.18	19.139
11.198	19.1224
11.216	19.1041
11.234	19.089
11.252	19.082
11.27	19.0851
11.288	19.0964
11.306	19.1106
11.324	19.1211
11.342	19.1228
11.36	19.1139
11.378	19.0953
11.396	19.0687
11.414	19.0362
11.432	18.999
11.45	18.9586
11.468	18.9186
11.486	18.884
11.504	18.8607
11.522	18.8534
11.54	18.8621
11.558	18.882
11.576	18.9042
11.594	18.919
11.612	18.9184
11.63	18.8992
11.648	18.8631
11.666	18.8152
11.684	18.7624
11.702	18.7102
11.72	18.662
11.738	18.6193
11.756	18.5827
11.774	18.5525
11.792	18.5297
11.81	18.5155
11.828	18.5109
11.846	18.5152
11.864	18.5263
11.882	18.5414
11.9	18.5566
11.918	18.5686
11.936	18.575
11.954	18.5746
11.972	18.566
11.99	18.5474
12.008	18.5156
12.026	18.4666
12.044	18.3966
12.062	18.3051
12.08	18.1968
12.098	18.0809
12.116	17.9704
12.134	17.8788
12.152	17.816
12.17	17.7856
12.188	17.7847
12.206	17.8046
12.224	17.8338
12.242	17.8627
12.26	17.8849
12.278	17.8982
12.296	17.9046
12.314	17.9078
12.332	17.9106
12.35	17.9142
12.368	17.9172
12.386	17.9165
12.404	17.908
12.422	17.8884
12.44	17.8561
12.458	17.8121
12.476	17.7598
12.494	17.7044
12.512	17.6523
12.53	17.6093
12.548	17.5799
12.566	17.566
12.584	17.5665
12.602	17.5774
12.62	17.5928
12.638	17.6058
12.656	17.6104
12.674	17.6022
12.692	17.5802
12.71	17.5461
12.728	17.5044
12.746	17.461
12.764	17.4219
12.782	17.392
12.8	17.3743
12.818	17.3691
12.836	17.3742
12.854	17.3853
12.872	17.3967
12.89	17.4024
12.908	17.3976
12.926	17.3792
12.944	17.346
12.962	17.2996
12.98	17.2439
12.998	17.1839
13.016	17.1252
13.034	17.0728
13.052	17.0301
13.07	16.9985
13.088	16.9772
13.106	16.9641
13.124	16.9561
13.142	16.9506
13.16	16.946
13.178	16.9426
13.196	16.9419
13.214	16.9463
13.232	16.9581
13.25	16.9781
13.268	17.0052
13.286	17.0356
13.304	17.0632
13.322	17.081
13.34	17.0828
13.358	17.0641
13.376	17.0234
13.394	16.9629
13.412	16.8876
13.43	16.8047
13.448	16.7215
13.466	16.6444
13.484	16.5777
13.502	16.5231
13.52	16.4803
13.538	16.4476
13.556	16.4224
13.574	16.4029
13.592	16.3879
13.61	16.3775
13.628	16.3724
13.646	16.3733
13.664	16.3808
13.682	16.3941
13.7	16.4122
13.718	16.4332
13.736	16.4554
13.754	16.4767
13.772	16.4961
13.79	16.5134
13.808	16.5286
13.826	16.5423
13.844	16.5547
13.862	16.5659
13.88	16.5757
13.898	16.5829
13.916	16.5863
13.934	16.5842
13.952	16.5752
13.97	16.5582
13.988	16.5324
14.006	16.4976
14.024	16.4539
14.042	16.4026
14.06	16.3458
14.078	16.2863
14.096	16.2274
14.114	16.1729
14.132	16.1265
14.15	16.0912
14.168	16.069
14.186	16.0601
14.204	16.0628
14.222	16.0736
14.24	16.0879
14.258	16.1009
14.276	16.1078
14.294	16.1052
14.312	16.0914
14.33	16.0664
14.348	16.0318
14.366	15.9907
14.384	15.9463
14.402	15.9015
14.42	15.8577
14.438	15.8154
14.456	15.7739
14.474	15.7317
14.492	15.6873
14.51	15.6399
14.528	15.5899
14.546	15.5393
14.564	15.4911
14.582	15.4491
14.6	15.4168
14.618	15.3976
14.636	15.3929
14.654	15.4023
14.672	15.4232
14.69	15.4517
14.708	15.4825
14.726	15.5099
14.744	15.528
14.762	15.5325
14.78	15.5214
14.798	15.494
14.816	15.4515
14.834	15.3972
14.852	15.3357
14.87	15.2721
14.888	15.2113
14.906	15.1574
14.924	15.1137
14.942	15.0825
14.96	15.0639
14.978	15.0568
14.996	15.0594
15.014	15.0689
15.032	15.0817
15.05	15.0946
15.068	15.1049
15.086	15.1104
15.104	15.1095
15.122	15.1017
15.14	15.0873
15.158	15.0674
15.176	15.0436
15.194	15.0176
15.212	14.9915
15.23	14.9665
15.248	14.9437
15.266	14.9237
15.284	14.9065
15.302	14.8917
15.32	14.8783
15.338	14.8658
15.356	14.8533
15.374	14.8405
15.392	14.8276
15.41	14.8151
15.428	14.804
15.446	14.7957
15.464	14.7914
15.482	14.7919
15.5	14.798
15.518	14.8095
15.536	14.8253
15.554	14.8439
15.572	14.8635
15.59	14.8806
15.608	14.8928
15.626	14.8978
15.644	14.893
15.662	14.8769
15.68	14.8489
15.698	14.8088
15.716	14.757
15.734	14.6947
15.752	14.6233
15.77	14.5442
15.788	14.4595
15.806	14.3709
15.824	14.2799
15.842	14.1882
15.86	14.0977
15.878	14.0098
15.896	13.9259
15.914	13.8479
15.932	13.777
15.95	13.7146
15.968	13.662
15.986	13.6202
16.004	13.5898
16.022	13.5711
16.04	13.5638
16.058	13.5672
16.076	13.5802
16.094	13.6011
16.112	13.6281
16.13	13.6594
16.148	13.6927
16.166	13.7257
16.184	13.7569
16.202	13.7846
16.22	13.8072
16.238	13.8241
16.256	13.8344
16.274	13.8378
16.292	13.8346
16.31	13.8248
16.328	13.8092
16.346	13.7887
16.364	13.7638
16.382	13.7361
16.4	13.7066
16.418	13.6765
16.436	13.6476
16.454	13.6211
16.472	13.598
16.49	13.5801
16.508	13.5681
16.526	13.5628
16.544	13.5647
16.562	13.5738
16.58	13.59
16.598	13.6118
16.616	13.6376
16.634	13.6662
16.652	13.6946
16.67	13.7212
16.688	13.7439
16.706	13.7603
16.724	13.7695
16.742	13.7701
16.76	13.762
16.778	13.7455
16.796	13.7214
16.814	13.6912
16.832	13.656
16.85	13.6179
16.868	13.5782
16.886	13.5381
16.904	13.4989
16.922	13.4609
16.94	13.4248
16.958	13.3899
16.976	13.3561
16.994	13.3225
17.012	13.2885
17.03	13.2537
17.048	13.2175
17.066	13.1801
17.084	13.1415
17.102	13.1025
17.12	13.0633
17.138	13.0251
17.156	12.9887
17.174	12.9548
17.192	12.9244
17.21	12.8978
17.228	12.8752
17.246	12.8567
17.264	12.8423
17.282	12.8319
17.3	12.8254
17.318	12.8225
17.336	12.823
17.354	12.827
17.372	12.8341
17.39	12.8445
17.408	12.8579
17.426	12.8742
17.444	12.893
17.462	12.9136
17.48	12.9356
17.498	12.9579
17.516	12.9796
17.534	12.9999
17.552	13.0171
17.57	13.0308
17.588	13.0395
17.606	13.043
17.624	13.0407
17.642	13.0326
17.66	13.0186
17.678	12.9998
17.696	12.9763
17.714	12.9495
17.732	12.9199
17.75	12.8885
17.768	12.8561
17.786	12.8232
17.804	12.7905
17.822	12.7582
17.84	12.7264
17.858	12.6952
17.876	12.6646
17.894	12.6342
17.912	12.6041
17.93	12.5742
17.948	12.5446
17.966	12.515
17.984	12.4856
18.002	12.4563
18.02	12.4271
18.038	12.3977
18.056	12.3681
18.074	12.3382
18.092	12.3077
18.11	12.2764
18.128	12.244
18.146	12.2103
18.164	12.1752
18.182	12.1386
18.2	12.1007
18.218	12.0616
18.236	12.0216
18.254	11.9814
18.272	11.9411
18.29	11.9017
18.308	11.8633
18.326	11.8271
18.344	11.7932
18.362	11.7623
18.38	11.7347
18.398	11.7109
18.416	11.6909
18.434	11.6749
18.452	11.6627
18.47	11.6545
18.488	11.6499
18.506	11.649
18.524	11.6515
18.542	11.6572
18.56	11.6657
18.578	11.677
18.596	11.6904
18.614	11.7059
18.632	11.7225
18.65	11.7402
18.668	11.7578
18.686	11.7752
18.704	11.791
18.722	11.805
18.74	11.8159
18.758	11.8238
18.776	11.8278
18.794	11.828
18.812	11.8243
18.83	11.817
18.848	11.8065
18.866	11.7935
18.884	11.7787
18.902	11.763
18.92	11.7476
18.938	11.7329
18.956	11.7203
18.974	11.7099
18.992	11.7026
19.01	11.6983
19.028	11.6971
19.046	11.6986
19.064	11.7023
19.082	11.7074
19.1	11.7131
19.118	11.7187
19.136	11.7231
19.154	11.7259
19.172	11.7258
19.19	11.723
19.208	11.7166
19.226	11.707
19.244	11.6944
19.262	11.6789
19.28	11.6619
19.298	11.6434
19.316	11.6255
19.334	11.6079
19.352	11.5928
19.37	11.58
19.388	11.5712
19.406	11.5663
19.424	11.5657
19.442	11.5696
19.46	11.5774
19.478	11.5892
19.496	11.6035
19.514	11.6201
19.532	11.6371
19.55	11.654
19.568	11.6694
19.586	11.6815
19.604	11.6901
19.622	11.6932
19.64	11.691
19.658	11.682
19.676	11.6663
19.694	11.6431
19.712	11.6126
19.73	11.575
19.748	11.5303
19.766	11.4795
19.784	11.4227
19.802	11.3612
19.82	11.2957
19.838	11.2269
19.856	11.1564
19.874	11.0842
19.892	11.0126
19.91	10.9413
19.928	10.8727
19.946	10.8064
19.964	10.7448
19.982	10.6877
20	10.6367
20.018	10.5925
20.036	10.5555
20.054	10.5271
20.072	10.507
20.09	10.4963
20.108	10.4949
20.126	10.5029
20.144	10.5206
20.162	10.547
20.18	10.5823
20.198	10.6254
20.216	10.675
20.234	10.7309
20.252	10.7902
20.27	10.8536
20.288	10.9172
20.306	10.9812
20.324	11.0432
20.342	11.1015
20.36	11.1557
20.378	11.2031
20.396	11.2443
20.414	11.2772
20.432	11.3019
20.45	11.3183
20.468	11.3261
20.486	11.3256
20.504	11.3172
20.522	11.301
20.54	11.2783
20.558	11.2491
20.576	11.2144
20.594	11.1745
20.612	11.1298
20.63	11.0813
20.648	11.0288
20.666	10.9727
20.684	10.913
20.702	10.8498
20.72	10.7834
20.738	10.7135
20.756	10.6402
20.774	10.5633
20.792	10.483
20.81	10.3992
20.828	10.3124
20.846	10.2229
20.864	10.1308
20.882	10.0378
20.9	9.943578
20.918	9.849929
20.936	9.758004
20.954	9.667858
20.972	9.582203
20.99	9.500314
21.008	9.424617
21.026	9.355963
21.044	9.294544
21.062	9.242484
21.08	9.199234
21.098	9.165915
21.116	9.143012
21.134	9.130134
21.152	9.127382
21.17	9.134781
21.188	9.151103
21.206	9.176568
21.224	9.210120
21.242	9.250045
21.26	9.296934
21.278	9.348065
21.296	9.403343
21.314	9.461761
21.332	9.520885
21.35	9.581545
21.368	9.641067
21.386	9.698932
21.404	9.754806
21.422	9.806643
21.44	9.855064
21.458	9.898634
21.476	9.936623
21.494	9.969320
21.512	9.995922
21.53	10.0164
21.548	10.0312
21.566	10.0404
21.584	10.0442
21.602	10.0438
21.62	10.039
21.638	10.0306
21.656	10.0203
21.674	10.0074
21.692	9.993485
21.71	9.978855
21.728	9.963690
21.746	9.949546
21.764	9.936260
21.782	9.923839
21.8	9.912563
21.818	9.902308
21.836	9.892581
21.854	9.883872
21.872	9.875210
21.89	9.864985
21.908	9.854005
21.926	9.840202
21.944	9.822430
21.962	9.801188
21.98	9.773670
21.998	9.739774
22.016	9.699252
22.034	9.650512
22.052	9.593967
22.07	9.529255
22.088	9.455776
22.106	9.373810
22.124	9.284040
22.142	9.186091
22.16	9.080694
22.178	8.969919
22.196	8.852777
22.214	8.731395
22.232	8.608302
22.25	8.482131
22.268	8.356216
22.286	8.232305
22.304	8.109483
22.322	7.991366
22.34	7.878237
22.358	7.770273
22.376	7.670313
22.394	7.577870
22.412	7.493535
22.43	7.418735
22.448	7.352933
22.466	7.296615
22.484	7.250380
22.502	7.213937
22.52	7.187046
22.538	7.169826
22.556	7.162107
22.574	7.162799
22.592	7.172184
22.61	7.189690
22.628	7.213345
22.646	7.243908
22.664	7.280053
22.682	7.319281
22.7	7.362890
22.718	7.408630
22.736	7.453828
22.754	7.500205
22.772	7.544439
22.79	7.583743
22.808	7.619927
22.826	7.649454
22.844	7.670143
22.862	7.683497
22.88	7.686388
22.898	7.677230
22.916	7.657142
22.934	7.624659
22.952	7.578972
22.97	7.520775
22.988	7.450485
23.006	7.367371
23.024	7.272275
23.042	7.168205
23.06	7.054534
23.078	6.932150
23.096	6.805621
23.114	6.673822
23.132	6.538200
23.15	6.404886
23.168	6.272755
23.186	6.143084
23.204	6.021986
23.222	5.908253
23.24	5.803106
23.258	5.712294
23.276	5.635081
23.294	5.571945
23.312	5.527030
23.33	5.500164
23.348	5.491129
23.366	5.501993
23.384	5.533131
23.402	5.583787
23.42	5.653813
23.438	5.744160
23.456	5.853618
23.474	5.979200
23.492	6.121633
23.51	6.280231
23.528	6.449692
23.546	6.629868
23.564	6.821227
23.582	7.016711
23.6	7.214547
23.618	7.416831
23.636	7.616064
23.654	7.808896
23.672	7.998638
23.69	8.178511
23.708	8.344022
23.726	8.498798
23.744	8.638067
23.762	8.757461
23.78	8.859728
23.798	8.942456
23.816	9.002437
23.834	9.040811
23.852	9.057399
23.87	9.051088
23.888	9.021242
23.906	8.969273
23.924	8.897005
23.942	8.803379
23.96	8.689361
23.978	8.559213
23.996	8.413746
24.014	8.251662
24.032	8.078001
24.05	7.895606
24.068	7.701623
24.086	7.500704
24.104	7.297144
24.122	7.087755
24.14	6.876018
24.158	6.667088
24.176	6.459056
24.194	6.253076
24.212	6.053742
24.23	5.861384
24.248	5.674921
24.266	5.498365
24.284	5.333945
24.302	5.179501
24.32	5.037413
24.338	4.910091
24.356	4.796495
24.374	4.696761
24.392	4.611676
24.41	4.541500
24.428	4.485682
24.446	4.443669
24.464	4.415665
24.482	4.401899
24.5	4.400297
24.518	4.409244
24.536	4.430195
24.554	4.461437
24.572	4.500557
24.59	4.548053
24.608	4.603883
24.626	4.666247
24.644	4.734341
24.662	4.809057
24.68	4.889202
24.698	4.973750
24.716	5.063906
24.734	5.158266
24.752	5.254626
24.77	5.352901
24.788	5.453641
24.806	5.555285
24.824	5.656808
24.842	5.759219
24.86	5.861514
24.878	5.962406
24.896	6.062131
24.914	6.160814
24.932	6.257809
24.95	6.352761
24.968	6.446038
24.986	6.537365
25.004	6.626425
25.022	6.713234
25.04	6.797913
25.058	6.880513
25.076	6.960993
25.094	7.039303
25.112	7.115734
25.13	7.190580
25.148	7.263856
25.166	7.335443
25.184	7.405264
25.202	7.473308
25.22	7.539641
25.238	7.604154
25.256	7.666785
25.274	7.728695
25.292	7.788707
25.31	7.844528
25.328	7.895267
25.346	7.942962
25.364	7.984503
25.382	8.016382
25.4	8.041907
25.418	8.059705
25.436	8.062024
25.454	8.043652
25.472	8.011867
25.49	7.959462
25.508	7.876383
25.526	7.761479
25.544	7.619616
25.562	7.442581
25.58	7.222530
25.598	6.962568
25.616	6.663250
25.634	6.321594
25.652	5.935174
25.67	5.505181
25.688	5.033455
25.706	4.521720
25.724	3.967027
25.742	3.369983
25.76	2.739512
25.778	2.083297
25.796	1.389852
25.814	0.668443
25.832	-0.061972
25.85	-0.790995
25.868	-1.536518
25.886	-2.279251
25.904	-2.995022
25.922	-3.681935
25.94	-4.353711
25.958	-4.985552
25.976	-5.552487
25.994	-6.063840
26.012	-6.522168
26.03	-6.909059
26.048	-7.208212
26.066	-7.428457
26.084	-7.570398
26.102	-7.628942
26.12	-7.598385
26.138	-7.477516
26.156	-7.276816
26.174	-7.007529
26.192	-6.669569
26.21	-6.254055
26.228	-5.780616
26.246	-5.269712
26.264	-4.713266
26.282	-4.105271
26.3	-3.476524
26.318	-2.856959
26.336	-2.225335
26.354	-1.585128
26.372	-0.974312
26.39	-0.427361
26.408	0.082639
26.426	0.547672
26.444	0.936012
26.462	1.221691
26.48	1.429882
26.498	1.550133
26.516	1.558882
26.534	1.437059
26.552	1.196778
26.57	0.841236
26.588	0.369925
26.606	-0.221799
26.624	-0.943151
26.642	-1.772772
26.66	-2.686361
26.678	-3.676451
26.696	-4.771961
26.714	-5.935752
26.732	-7.124823
26.75	-8.324760
26.768	-9.578356
26.786	-10.8377
26.804	-12.0482
26.822	-13.1871
26.84	-14.3009
26.858	-15.3514
26.876	-16.2945
26.894	-17.1086
26.912	-17.8285
26.93	-18.4347
26.948	-18.9035
26.966	-19.1977
26.984	-19.2998
27.002	-19.294
27.02	-19.2697
27.028	-19.2744