File: Bakgrunnsmateriale/MATLAB/FTIR/ftir_data/LPE453/Mapping_121/LPE453_t37_cm-1.asc
PE IR       SPECTRUM    SPECTRUM    ASCII       PEDS        1.60
  -1
LPE8DA~1.ASC
17/05/16
17:22:26.00
17/05/16
17:22:26.00
tln
$LPE453_t0037$<tbV0>[5.2,-5.2,8.0,0.0,27,1,0]
370
64

2002,4.07
MIRTGS : RIGHTBACK : INTERNAL 2
MIR : ON : INTERNAL 2
OPTKBR

0.200000
8
8.000000
FILLER
RATIO
SPECTRUM
UNLOCKED 256

DOUBLE
64
COMBINED
1
0
0

1.000000
RATIO

1
0
TRUE
51149
0
LEFT NOT FITTED RIGHT NOT FITTED 0
NONE
NONE
15600
12
4.427000
51148
TRUE
1 0 8 72 0 0 0 0

15798

#HDR
-1
-1
#GR
CM-1
%T
2.38419e-05
0.0
5000
-1.000000
4631
8
27.3683
-45.4029
#DATA
5000	-0.066399
4996	-0.112056
4992	-0.196504
4988	-0.094318
4984	0.164222
4980	0.393390
4976	0.433230
4972	0.363731
4968	0.351762
4964	0.475025
4960	0.637507
4956	0.634455
4952	0.401544
4948	0.119686
4944	0.087738
4940	0.194597
4936	0.163292
4932	0.001740
4928	-0.108194
4924	0.008726
4920	0.206637
4916	0.224971
4912	0.049567
4908	-0.119328
4904	-0.140023
4900	-0.055456
4896	0.182771
4892	0.510406
4888	0.594067
4884	0.468873
4880	0.538587
4876	0.679278
4872	0.578880
4868	0.406289
4864	0.392818
4860	0.428533
4856	0.387644
4852	0.293421
4848	0.053000
4844	-0.011634
4840	0.330638
4836	0.539255
4832	0.432777
4828	0.393939
4824	0.440835
4820	0.495123
4816	0.498914
4812	0.383472
4808	0.218009
4804	0.128459
4800	0.219821
4796	0.408148
4792	0.496268
4788	0.441312
4784	0.366258
4780	0.377535
4776	0.434875
4772	0.376725
4768	0.274300
4764	0.178670
4760	0.003480
4756	-0.140094
4752	-0.111746
4748	-0.020933
4744	0.055384
4740	-0.019145
4736	-0.170922
4732	-0.151109
4728	0.103640
4724	0.407195
4720	0.359034
4716	0.310206
4712	0.503063
4708	0.419521
4704	0.232648
4700	0.301671
4696	0.447773
4692	0.567007
4688	0.608229
4684	0.557351
4680	0.503182
4676	0.460195
4672	0.321555
4668	0.298619
4664	0.550031
4660	0.697875
4656	0.660419
4652	0.708222
4648	0.818443
4644	0.758147
4640	0.635218
4636	0.613975
4632	0.693368
4628	0.857663
4624	0.928568
4620	0.807714
4616	0.528597
4612	0.637412
4608	0.878000
4604	0.621843
4600	0.303125
4596	0.113797
4592	-0.056576
4588	-0.063657
4584	-0.136232
4580	-0.451731
4576	-0.615906
4572	-0.552392
4568	-0.654363
4564	-0.546360
4560	-0.363159
4556	-0.469541
4552	-0.610828
4548	-0.915670
4544	-1.081085
4540	-1.092886
4536	-0.970196
4532	-0.880050
4528	-0.241160
4524	2.421832
4520	12.3224
4516	25.9477
4512	23.013
4508	6.522083
4504	-1.785492
4500	-2.031350
4496	-1.529645
4492	-1.653194
4488	-2.019834
4484	-1.269149
4480	-0.232052
4476	0.003647
4472	-0.506448
4468	-1.087784
4464	-1.444721
4460	-1.326107
4456	-0.875210
4452	-0.624275
4448	-0.682616
4444	-0.691819
4440	-0.469470
4436	-0.473999
4432	-0.645852
4428	-0.408387
4424	0.128602
4420	0.276374
4416	0.017142
4412	0.004315
4408	0.276207
4404	0.408601
4400	0.456571
4396	0.509333
4392	0.502586
4388	0.404214
4384	0.290036
4380	0.343537
4376	0.398349
4372	0.230884
4368	0.052285
4364	0.183010
4360	0.499176
4356	0.557494
4352	0.478625
4348	0.527167
4344	0.433230
4340	0.298643
4336	0.364208
4332	0.439643
4328	0.442051
4324	0.311470
4320	-0.021433
4316	-0.196146
4312	-0.055408
4308	0.089764
4304	0.043773
4300	-0.125455
4296	-0.260686
4292	-0.151824
4288	0.059938
4284	0.072598
4280	0.040698
4276	0.169897
4272	0.258708
4268	0.275683
4264	0.389289
4260	0.364947
4256	0.234627
4252	0.203514
4248	0.204896
4244	0.186276
4240	0.144243
4236	0.224947
4232	0.313544
4228	0.301194
4224	0.349092
4220	0.360655
4216	0.275611
4212	0.196146
4208	0.078320
4204	0.004029
4200	0.069665
4196	0.159096
4192	0.302600
4188	0.508284
4184	0.572681
4180	0.646448
4176	0.800251
4172	0.557088
4168	0.100803
4164	-0.009918
4160	0.151538
4156	0.267601
4152	0.207924
4148	0.137329
4144	0.001335
4140	-0.149798
4136	-0.071549
4132	-0.032043
4128	-0.044608
4124	0.040912
4120	0.132298
4116	0.211906
4112	0.183844
4108	0.024938
4104	-0.075984
4100	0.042223
4096	0.195503
4092	0.134682
4088	0.053334
4084	0.119447
4080	0.223684
4076	0.257205
4072	0.180816
4068	0.102496
4064	0.053501
4060	0.003409
4056	0.057291
4052	0.167560
4048	0.281095
4044	0.405454
4040	0.369572
4036	0.233101
4032	0.154113
4028	0.054812
4024	0.070667
4020	0.295162
4016	0.454092
4012	0.376963
4008	0.193929
4004	0.100302
4000	0.131511
3996	0.178265
3992	0.175023
3988	0.134634
3984	0.029253
3980	-0.076055
3976	-0.080275
3972	-0.041460
3968	0.026297
3964	0.110602
3960	0.203657
3956	0.327491
3952	0.326299
3948	0.140714
3944	0.007867
3940	0.063729
3936	0.205397
3932	0.244164
3928	0.093626
3924	-0.073170
3920	-0.149512
3916	-0.113153
3912	-0.035357
3908	0.010442
3904	-0.002026
3900	-0.080060
3896	-0.008940
3892	0.163340
3888	0.202274
3884	0.185656
3880	0.169801
3876	0.100445
3872	0.022864
3868	0.041651
3864	0.098705
3860	0.135684
3856	0.166058
3852	0.151348
3848	0.070261
3844	-0.052952
3840	-0.109505
3836	-0.005030
3832	0.168657
3828	0.231266
3824	0.076746
3820	-0.122594
3816	-0.105857
3812	0.019550
3808	0.075125
3804	0.099492
3800	0.104475
3796	0.125598
3792	0.232958
3788	0.310587
3784	0.239682
3780	0.152969
3776	0.159430
3772	0.152516
3768	0.121355
3764	0.131249
3760	0.088691
3756	-0.027108
3752	-0.103878
3748	-0.027656
3744	0.093173
3740	0.063014
3736	0.010800
3732	0.048780
3728	0.130867
3724	0.193834
3720	0.225448
3716	0.277638
3712	0.229883
3708	0.067424
3704	0.007033
3700	0.051021
3696	0.068473
3692	0.065350
3688	0.091600
3684	0.172901
3680	0.286436
3676	0.322270
3672	0.288486
3668	0.304746
3664	0.314784
3660	0.238728
3656	0.149559
3652	0.108742
3648	0.023126
3644	-0.140929
3640	-0.158095
3636	-0.018525
3632	0.101947
3628	0.204920
3624	0.218915
3620	0.117373
3616	0.037455
3612	-0.000262
3608	-0.033521
3604	0.015807
3600	0.095391
3596	0.071167
3592	0.027418
3588	0.030994
3584	0.004482
3580	-0.011944
3576	0.021719
3572	0.031971
3568	0.043487
3564	-0.010919
3560	-0.107550
3556	-0.110912
3552	-0.069117
3548	-0.005626
3544	0.085425
3540	0.140810
3536	0.152158
3532	0.154972
3528	0.125265
3524	0.064873
3520	0.041866
3516	0.042915
3512	0.028133
3508	-0.017666
3504	-0.079846
3500	-0.115489
3496	-0.088548
3492	0.025153
3488	0.111150
3484	0.084805
3480	0.019097
3476	0.023818
3472	0.143456
3468	0.300598
3464	0.332999
3460	0.192189
3456	0.057792
3452	-0.027966
3448	-0.085616
3444	-0.077724
3440	-0.102066
3436	-0.119996
3432	-0.016713
3428	0.094604
3424	0.094461
3420	0.047230
3416	0.046539
3412	0.075078
3408	0.084233
3404	0.099325
3400	0.156140
3396	0.164556
3392	0.043702
3388	-0.018262
3384	0.015115
3380	-0.036573
3376	-0.083065
3372	0.003743
3368	0.098586
3364	0.096678
3360	0.059962
3356	0.028300
3352	0.010061
3348	-0.008034
3344	-0.028085
3340	-0.013113
3336	0.007438
3332	0.031280
3328	0.081491
3324	0.135278
3320	0.162982
3316	0.100421
3312	0.010681
3308	0.017428
3304	0.043892
3300	0.019907
3296	-0.008916
3292	-0.035452
3288	-0.062274
3284	-0.052881
3280	-0.009894
3276	0.060176
3272	0.149989
3268	0.175333
3264	0.071287
3260	-0.052666
3256	-0.074863
3252	-0.056076
3248	-0.051283
3244	-0.029659
3240	0.030231
3236	0.055027
3232	-0.004482
3228	-0.038719
3224	0.030589
3220	0.097084
3216	0.083160
3212	0.081157
3208	0.123381
3204	0.123906
3200	0.108790
3196	0.125169
3192	0.098013
3188	0.053715
3184	0.075435
3180	0.082373
3176	-0.015974
3172	-0.133299
3168	-0.160837
3164	-0.145792
3160	-0.136923
3156	-0.022602
3152	0.140261
3148	0.194549
3144	0.198483
3140	0.157833
3136	0.105118
3132	0.147652
3128	0.215744
3124	0.231528
3120	0.157761
3116	0.010633
3112	-0.068354
3108	-0.062632
3104	-0.070929
3100	-0.089454
3096	-0.052928
3092	0.031805
3088	0.096130
3084	0.134992
3080	0.084471
3076	-0.050926
3072	-0.054073
3068	0.064945
3064	0.121212
3060	0.068879
3056	-0.027799
3052	-0.032472
3048	0.060272
3044	0.102281
3040	0.050520
3036	-0.013709
3032	-0.018000
3028	0.010299
3024	0.005602
3020	-0.001239
3016	0.013542
3012	0.004887
3008	-0.026726
3004	-0.008368
3000	0.042581
2996	0.074458
2992	0.096487
2988	0.084686
2984	0.067830
2980	0.066065
2976	0.007867
2972	-0.067472
2968	-0.059390
2964	-0.030755
2960	-0.039458
2956	-0.016140
2952	0.030326
2948	0.056338
2944	0.059461
2940	0.059938
2936	0.087118
2932	0.112557
2928	0.129032
2924	0.117635
2920	0.046038
2916	-0.003814
2912	-0.028634
2908	-0.056242
2904	-0.029158
2900	0.007510
2896	-0.008702
2892	-0.017690
2888	0.028157
2884	0.106692
2880	0.138974
2876	0.077438
2872	0.050592
2868	0.115561
2864	0.140142
2860	0.059008
2856	-0.034761
2852	-0.070381
2848	-0.049948
2844	0.004768
2840	0.017642
2836	0.012922
2832	0.074529
2828	0.124788
2824	0.085377
2820	0.048565
2816	0.071597
2812	0.035524
2808	-0.046682
2804	-0.041174
2800	0.015735
2796	0.080633
2792	0.151562
2788	0.164103
2784	0.126266
2780	0.065374
2776	-0.029516
2772	-0.063037
2768	-0.017857
2764	0.032258
2760	0.059127
2756	0.057601
2752	0.035619
2748	-0.011444
2744	-0.023674
2740	0.014781
2736	0.060462
2732	0.064015
2728	0.034213
2724	0.009679
2720	-0.021839
2716	-0.048112
2712	-0.039649
2708	-0.031065
2704	-0.011730
2700	0.004363
2696	-0.051307
2692	-0.089621
2688	-0.056028
2684	-0.038099
2680	-0.005340
2676	0.046110
2672	0.050783
2668	0.054979
2664	0.072026
2660	0.056648
2656	0.009226
2652	-0.021314
2648	-0.010871
2644	0.041508
2640	0.107145
2636	0.074195
2632	-0.020051
2628	0.000238
2624	0.116038
2620	0.148272
2616	0.113344
2612	0.125217
2608	0.147080
2604	0.134015
2600	0.089526
2596	0.076675
2592	0.111436
2588	0.071263
2584	-0.046157
2580	-0.037884
2576	0.045752
2572	0.082063
2568	0.040626
2564	-0.055360
2560	-0.094795
2556	-0.047874
2552	0.014305
2548	0.044846
2544	0.059938
2540	0.095081
2536	0.072479
2532	-0.017905
2528	-0.029349
2524	0.021600
2520	-0.023770
2516	-0.105834
2512	-0.064516
2508	0.038981
2504	0.056576
2500	0.040173
2496	0.062727
2492	0.072789
2488	0.064301
2484	0.008201
2480	-0.075340
2476	-0.039577
2472	0.082039
2468	0.159859
2464	0.198197
2460	0.211930
2456	0.226807
2452	0.229191
2448	0.143551
2444	0.057148
2440	0.080132
2436	0.175666
2432	0.254440
2428	0.194168
2424	0.069427
2420	0.039124
2416	0.002241
2412	-0.077581
2408	-0.096940
2404	-0.063562
2400	-0.064373
2396	-0.070381
2392	-0.062394
2388	-0.024199
2384	0.016474
2380	-0.046658
2376	-0.100755
2372	-0.081419
2368	-0.059056
2364	-0.004172
2360	0.035595
2356	0.033307
2352	-0.016736
2348	-0.081324
2344	-0.077438
2340	-0.039577
2336	-0.013542
2332	0.001144
2328	-0.005960
2324	-0.007724
2320	0.019788
2316	0.027537
2312	0.006055
2308	0.000691
2304	-0.009202
2300	-0.038266
2296	-0.089597
2292	-0.131464
2288	-0.106883
2284	-0.066852
2280	-0.025343
2276	0.018501
2272	-0.023651
2268	-0.096583
2264	-0.061154
2260	0.016570
2256	0.074267
2252	0.113987
2248	0.134468
2244	0.191998
2240	0.239634
2236	0.219511
2232	0.213599
2228	0.284600
2224	0.346159
2220	0.361704
2216	0.393438
2212	0.464344
2208	0.574588
2204	0.708842
2200	0.813317
2196	0.858950
2192	0.917649
2188	1.033258
2184	1.124048
2180	1.188182
2176	1.336526
2172	1.541876
2168	1.732921
2164	1.917862
2160	2.069354
2156	2.258706
2152	2.569866
2148	2.835345
2144	2.981758
2140	3.213667
2136	3.551268
2132	3.789472
2128	3.969812
2124	4.227805
2120	4.506731
2116	4.779076
2112	5.062007
2108	5.371809
2104	5.682873
2100	5.958557
2096	6.238579
2092	6.549954
2088	6.890702
2084	7.231688
2080	7.583498
2076	7.982349
2072	8.437323
2068	8.851528
2064	9.118819
2060	9.354114
2056	9.699320
2052	10.1373
2048	10.5472
2044	10.902
2040	11.2882
2036	11.6606
2032	11.9896
2028	12.3492
2024	12.7207
2020	13.086
2016	13.4398
2012	13.7637
2008	14.0537
2004	14.2881
2000	14.5196
1996	14.8395
1992	15.203
1988	15.4834
1984	15.7163
1980	16.0146
1976	16.3111
1972	16.5628
1968	16.8762
1964	17.187
1960	17.403
1956	17.6049
1952	17.8308
1948	18.0629
1944	18.2842
1940	18.485
1936	18.6663
1932	18.8494
1928	19.0536
1924	19.294
1920	19.5211
1916	19.6859
1912	19.8575
1908	20.0493
1904	20.2187
1900	20.3723
1896	20.5151
1892	20.6683
1888	20.843
1884	20.9985
1880	21.1431
1876	21.2743
1872	21.351
1868	21.4172
1864	21.538
1860	21.6552
1856	21.7683
1852	21.9055
1848	21.9861
1844	22.0405
1840	22.1234
1836	22.211
1832	22.2997
1828	22.405
1824	22.5515
1820	22.7085
1816	22.8089
1812	22.867
1808	22.898
1804	22.8828
1800	22.8981
1796	22.9769
1792	23.0552
1788	23.122
1784	23.19
1780	23.2606
1776	23.321
1772	23.3387
1768	23.2747
1764	23.193
1760	23.2127
1756	23.2796
1752	23.3329
1748	23.4157
1744	23.5416
1740	23.6654
1736	23.6921
1732	23.6192
1728	23.5377
1724	23.516
1720	23.5666
1716	23.6444
1712	23.7149
1708	23.7762
1704	23.8343
1700	23.8813
1696	23.8819
1692	23.8327
1688	23.7883
1684	23.8001
1680	23.8405
1676	23.8571
1672	23.8594
1668	23.9045
1664	23.9609
1660	23.9201
1656	23.8475
1652	23.8582
1648	23.9084
1644	23.9318
1640	23.9606
1636	24.0403
1632	24.1006
1628	24.0649
1624	23.9918
1620	23.9473
1616	23.929
1612	23.9126
1608	23.8789
1604	23.8309
1600	23.8125
1596	23.8877
1592	23.9744
1588	23.9694
1584	23.8864
1580	23.7842
1576	23.7363
1572	23.7033
1568	23.6924
1564	23.8227
1560	23.9931
1556	24.0349
1552	23.9696
1548	23.885
1544	23.8465
1540	23.8288
1536	23.8101
1532	23.8311
1528	23.8477
1524	23.8806
1520	23.9883
1516	24.0533
1512	24.024
1508	23.9344
1504	23.7902
1500	23.6597
1496	23.5817
1492	23.625
1488	23.7698
1484	23.831
1480	23.7584
1476	23.6338
1472	23.5542
1468	23.5196
1464	23.4988
1460	23.5224
1456	23.5294
1452	23.4662
1448	23.4133
1444	23.3488
1440	23.2462
1436	23.1735
1432	23.1786
1428	23.2694
1424	23.3549
1420	23.3736
1416	23.3753
1412	23.3894
1408	23.4224
1404	23.4477
1400	23.3975
1396	23.2887
1392	23.1949
1388	23.1358
1384	23.1272
1380	23.17
1376	23.2323
1372	23.3147
1368	23.3526
1364	23.2878
1360	23.1708
1356	23.0602
1352	23.0102
1348	23.0104
1344	23.0086
1340	23.0542
1336	23.1636
1332	23.2202
1328	23.1859
1324	23.1293
1320	23.0518
1316	22.9668
1312	22.9333
1308	22.9535
1304	23.0116
1300	23.0482
1296	23.0223
1292	22.9638
1288	22.9269
1284	22.9314
1280	22.9091
1276	22.8172
1272	22.7233
1268	22.7005
1264	22.7085
1260	22.7197
1256	22.7618
1252	22.7856
1248	22.7504
1244	22.681
1240	22.5977
1236	22.53
1232	22.4729
1228	22.4365
1224	22.4683
1220	22.5176
1216	22.5167
1212	22.469
1208	22.3996
1204	22.3115
1200	22.2286
1196	22.2527
1192	22.3416
1188	22.3691
1184	22.399
1180	22.4435
1176	22.4152
1172	22.3388
1168	22.2705
1164	22.1504
1160	21.9872
1156	21.9026
1152	21.9552
1148	22.0918
1144	22.1488
1140	22.0912
1136	22.0507
1132	22.0047
1128	21.876
1124	21.7512
1120	21.7264
1116	21.7639
1112	21.7746
1108	21.7665
1104	21.7409
1100	21.6558
1096	21.6109
1092	21.6613
1088	21.6901
1084	21.6224
1080	21.5676
1076	21.558
1072	21.5095
1068	21.5302
1064	21.641
1060	21.6603
1056	21.5689
1052	21.4947
1048	21.4086
1044	21.2008
1040	20.9945
1036	20.9595
1032	21.0075
1028	21.0519
1024	21.1209
1020	21.0423
1016	20.751
1012	20.5621
1008	20.5676
1004	20.5694
1000	20.5351
996	 20.5685
992	 20.6562
988	 20.6999
984	 20.7126
980	 20.6357
976	 20.4009
972	 20.1449
968	 20.044
964	 20.0734
960	 20.1045
956	 20.1299
952	 20.1391
948	 20.0624
944	 19.9161
940	 19.8212
936	 19.7722
932	 19.626
928	 19.5023
924	 19.5527
920	 19.6044
916	 19.6394
912	 19.7238
908	 19.7008
904	 19.5833
900	 19.4346
896	 19.2699
892	 19.1976
888	 19.1417
884	 19.0899
880	 19.1786
876	 19.3236
872	 19.3227
868	 19.1265
864	 18.9343
860	 18.837
856	 18.7157
852	 18.5629
848	 18.4397
844	 18.372
840	 18.3568
836	 18.3567
832	 18.3697
828	 18.3703
824	 18.2578
820	 18.0844
816	 17.9734
812	 17.8654
808	 17.81
804	 17.9096
800	 17.9878
796	 17.8719
792	 17.6532
788	 17.48
784	 17.3988
780	 17.379
776	 17.3602
772	 17.3074
768	 17.2347
764	 17.2704
760	 17.4176
756	 17.4561
752	 17.3158
748	 17.1377
744	 17.0141
740	 16.8324
736	 16.5606
732	 16.3867
728	 16.4089
724	 16.4189
720	 16.2747
716	 16.0948
712	 16.0037
708	 15.9859
704	 15.8729
700	 15.7723
696	 15.9395
692	 16.1987
688	 16.1699
684	 15.9024
680	 15.7503
676	 15.7537
672	 15.6371
668	 15.4039
664	 15.2336
660	 15.1007
656	 14.943
652	 14.8577
648	 14.8854
644	 14.8569
640	 14.8152
636	 14.7717
632	 14.5888
628	 14.3883
624	 14.2175
620	 14.0341
616	 13.9572
612	 13.9037
608	 13.6074
604	 13.4094
600	 13.6065
596	 13.6891
592	 13.53
588	 13.411
584	 13.261
580	 13.0088
576	 12.9552
572	 13.0542
568	 12.9007
564	 12.5412
560	 12.1953
556	 12.0359
552	 12.1394
548	 12.2626
544	 12.3136
540	 12.2897
536	 12.0322
532	 11.7402
528	 11.7416
524	 12.0323
520	 12.0891
516	 11.6044
512	 11.084
508	 10.9005
504	 10.9738
500	 10.7622
496	 10.0489
492	 9.656906
488	 9.984827
484	 10.4872
480	 10.8033
476	 10.8579
472	 10.5332
468	 10.3197
464	 10.7211
460	 10.6306
456	 9.048962
452	 7.833242
448	 8.312010
444	 8.678197
440	 8.195710
436	 7.633209
432	 8.000659
428	 9.360051
424	 9.953141
420	 9.762024
416	 8.695006
412	 6.337809
408	 5.936622
404	 7.812833
400	 5.764389
396	 -0.187897
392	 -1.334357
388	 6.508398
384	 12.8415
380	 5.198836
376	 -9.764528
372	 -29.795
370	 -45.4029