File: Bakgrunnsmateriale/MATLAB/FTIR/ftir_data/LPE453/Mapping_121/LPE453_t76.asc
PE IR       SPECTRUM    SPECTRUM    ASCII       PEDS        1.60
  -1
LPDFA1~1.ASC
17/05/16
20:36:34.00
17/05/16
20:37:00.00
tln
$LPE453_t0076$<tbV0>[-10.4,2.6,8.0,0.0,27,1,0]
27.028
64

2002,4.07
MIRTGS : RIGHTBACK : INTERNAL 2
MIR : ON : INTERNAL 2
OPTKBR

0.200000
8
8.000000
FILLER
RATIO
SPECTRUM
UNLOCKED 256

DOUBLE
64
COMBINED
1
0
0

0.002000
RATIO

1
0
TRUE
51149
0
LEFT NOT FITTED RIGHT NOT FITTED 0
NONE
NONE
15600
12
4.427000
51148
TRUE
1 0 8 72 0 0 0 0

15798

#HDR
-1
-1
#GR
µM
%T
2.38419e-05
0.0
2.000000
0.002000
12515
8
33.0615
-1.221912
#DATA
2.000000	 -0.038647
2.018000	 -0.054756
2.036000	 0.297802
2.054000	 0.451542
2.072000	 0.188641
2.090000	 -0.006199
2.108000	 -0.148543
2.126000	 0.315870
2.144000	 -0.792857
2.162000	 -0.184707
2.180000	 -0.169703
2.198000	 -0.479613
2.216000	 -0.850901
2.234000	 0.904811
2.252000	 -0.455219
2.270000	 0.224070
2.288000	 0.333890
2.306000	 -0.056530
2.324000	 0.019305
2.342000	 0.092244
2.360000	 0.024915
2.378000	 -0.142435
2.396000	 0.452632
2.414000	 -0.001004
2.432000	 0.233566
2.450000	 -0.205408
2.468000	 0.090804
2.486000	 0.143768
2.504000	 -0.123567
2.522000	 0.279626
2.540000	 -0.005109
2.558000	 -0.038175
2.576000	 -0.052613
2.594000	 -0.068535
2.612000	 0.194128
2.630000	 0.115872
2.648000	 -0.015748
2.666000	 0.029578
2.684000	 0.100359
2.702000	 -0.068772
2.720000	 0.039778
2.738000	 -0.054847
2.756000	 0.015487
2.774000	 0.142885
2.792000	 -0.029054
2.810000	 -0.111753
2.828000	 0.092579
2.846000	 0.033684
2.864000	 -0.165531
2.882000	 0.081045
2.900000	 0.174392
2.918000	 0.068331
2.936000	 0.241042
2.954000	 -0.043226
2.972000	 0.154946
2.990000	 0.030842
3.008000	 0.036846
3.026000	 0.109689
3.044000	 0.152971
3.062000	 0.001185
3.080000	 0.069388
3.098000	 0.130004
3.116000	 -0.049603
3.134000	 0.080692
3.152000	 0.060340
3.170000	 -0.067352
3.188000	 0.088137
3.206000	 0.091102
3.224000	 0.041579
3.242000	 0.066640
3.260000	 0.031056
3.278000	 -0.100648
3.296000	 -0.031350
3.314000	 0.060441
3.332000	 0.048400
3.350000	 0.020707
3.368000	 -0.034116
3.386000	 -0.070825
3.404000	 -0.002509
3.422000	 0.068891
3.440000	 0.009382
3.458000	 -0.005000
3.476000	 -0.055708
3.494000	 0.046346
3.512000	 0.024525
3.530000	 0.041009
3.548000	 0.056694
3.566000	 0.013622
3.584000	 -0.077907
3.602000	 0.023869
3.620000	 0.002478
3.638000	 0.201680
3.656000	 0.010383
3.674000	 0.012855
3.692000	 -0.070437
3.710000	 -0.051393
3.728000	 0.065687
3.746000	 0.006237
3.764000	 0.022463
3.782000	 0.051469
3.800000	 -0.025088
3.818000	 0.106863
3.836000	 0.088490
3.854000	 -0.026136
3.872000	 0.033622
3.890000	 -0.001476
3.908000	 -0.039656
3.926000	 0.010509
3.944000	 -0.018654
3.962000	 -0.064123
3.980000	 -0.015395
3.998000	 0.089091
4.016000	 0.141247
4.034000	 0.094882
4.052000	 -0.029470
4.070000	 0.024707
4.088000	 -0.038810
4.106000	 0.024754
4.124000	 -0.052813
4.141999	 0.103287
4.160000	 -0.067907
4.178000	 -0.138167
4.196000	 -0.040770
4.214000	 0.043648
4.232000	 0.043828
4.250000	 0.123765
4.268000	 0.183998
4.286000	 0.203296
4.304000	 0.194048
4.322000	 0.244355
4.340000	 0.274535
4.358000	 0.267364
4.375999	 0.444836
4.394000	 0.732925
4.412000	 0.818084
4.430000	 1.025843
4.448000	 1.317939
4.466000	 1.552409
4.484000	 1.875121
4.502000	 2.253942
4.520000	 2.692829
4.538000	 3.204377
4.556000	 3.833861
4.574000	 4.481961
4.592000	 5.158990
4.609999	 5.893372
4.628000	 6.646438
4.646000	 7.531353
4.664000	 8.346307
4.682000	 9.218053
4.700000	 10.2599
4.718000	 11.119
4.736000	 12.115
4.754000	 13.0586
4.772000	 14.0434
4.790000	 15.0542
4.808000	 15.924
4.826000	 16.7829
4.843999	 17.8641
4.862000	 18.6023
4.880000	 19.4003
4.898000	 20.2857
4.916000	 21.0926
4.934000	 21.8499
4.952000	 22.4916
4.970000	 23.2037
4.988000	 23.8353
5.006000	 24.4288
5.024000	 24.9251
5.042000	 25.4394
5.060000	 25.9324
5.077999	 26.5109
5.096000	 26.9767
5.114000	 27.3978
5.132000	 27.7565
5.150000	 28.0266
5.168000	 28.3603
5.186000	 28.7388
5.204000	 29.1809
5.222000	 29.4313
5.240000	 29.5923
5.258000	 29.8018
5.276000	 29.9798
5.294000	 30.1991
5.312000	 30.4489
5.330000	 30.6925
5.348000	 30.9294
5.366000	 31.0757
5.384000	 31.1553
5.402000	 31.2364
5.420000	 31.3344
5.438000	 31.5211
5.456000	 31.7427
5.474000	 31.866
5.492000	 31.9203
5.510000	 31.91
5.528000	 31.9458
5.546000	 32.0558
5.564000	 32.0105
5.582000	 32.0998
5.600000	 32.2403
5.618000	 32.3377
5.636000	 32.4682
5.654000	 32.5517
5.672000	 32.5055
5.690000	 32.5242
5.708000	 32.5066
5.726000	 32.5503
5.744000	 32.6341
5.762000	 32.6926
5.780000	 32.6917
5.798000	 32.6699
5.816000	 32.6143
5.834000	 32.716
5.852000	 32.8714
5.870000	 32.7105
5.888000	 32.6336
5.906000	 32.7271
5.923999	 32.813
5.942000	 32.8765
5.960000	 32.9548
5.978000	 32.9578
5.996000	 32.9393
6.014000	 32.971
6.032000	 32.9818
6.050000	 32.9973
6.068000	 32.9424
6.086000	 32.8587
6.104000	 32.8897
6.122000	 32.9341
6.140000	 32.968
6.158000	 33.0589
6.176000	 33.0056
6.194000	 32.9545
6.212000	 32.9522
6.230000	 32.8846
6.248000	 32.8341
6.266000	 32.8062
6.284000	 32.8044
6.302000	 32.7771
6.320000	 32.7672
6.338000	 32.848
6.356000	 32.9002
6.374000	 32.9363
6.392000	 33.0161
6.410000	 33.0014
6.428000	 32.8422
6.446000	 32.7456
6.464000	 32.7767
6.482000	 32.7997
6.500000	 32.751
6.518000	 32.7139
6.536000	 32.7751
6.554000	 32.8409
6.572000	 32.8537
6.590000	 32.8546
6.608000	 32.8714
6.626000	 32.8764
6.644000	 32.8124
6.662000	 32.6924
6.680000	 32.6218
6.698000	 32.6622
6.716000	 32.6684
6.734000	 32.604
6.752000	 32.5953
6.770000	 32.6419
6.788000	 32.6764
6.806000	 32.6718
6.824000	 32.6207
6.842000	 32.588
6.860000	 32.6069
6.878000	 32.6252
6.896000	 32.6276
6.914000	 32.6093
6.932000	 32.5831
6.950000	 32.5605
6.968000	 32.5054
6.986000	 32.4621
7.004000	 32.4905
7.022000	 32.5662
7.040000	 32.657
7.058000	 32.6765
7.076000	 32.583
7.094000	 32.5112
7.112000	 32.5249
7.130000	 32.4994
7.148000	 32.3719
7.166000	 32.2597
7.184000	 32.2691
7.202000	 32.3257
7.220000	 32.3214
7.238000	 32.2936
7.256000	 32.306
7.274000	 32.3358
7.292000	 32.3533
7.310000	 32.3537
7.328000	 32.3456
7.346000	 32.3571
7.364000	 32.3811
7.382000	 32.3844
7.400000	 32.381
7.418000	 32.3784
7.436000	 32.328
7.454000	 32.2343
7.472000	 32.1811
7.490000	 32.1941
7.508000	 32.2061
7.526000	 32.1764
7.544000	 32.1483
7.562000	 32.1731
7.580000	 32.2367
7.598000	 32.2904
7.616000	 32.313
7.634000	 32.309
7.652000	 32.28
7.670000	 32.2364
7.688000	 32.1937
7.706000	 32.1395
7.724000	 32.0629
7.742000	 31.9942
7.760000	 31.9582
7.778000	 31.9479
7.796000	 31.9733
7.814000	 32.0391
7.832000	 32.0835
7.850000	 32.0483
7.868000	 31.9833
7.886000	 31.9803
7.904000	 32.0444
7.922000	 32.1053
7.940000	 32.1247
7.958000	 32.1249
7.976000	 32.1227
7.994000	 32.0953
8.012000	 32.0278
8.030000	 31.9477
8.048000	 31.887
8.065999	 31.842
8.084000	 31.7927
8.102000	 31.7376
8.120000	 31.6935
8.138000	 31.6803
8.155999	 31.7146
8.173999	 31.7937
8.192000	 31.8866
8.210000	 31.9564
8.228000	 31.9855
8.246000	 31.9746
8.263999	 31.9392
8.282000	 31.9089
8.300000	 31.9062
8.318000	 31.9187
8.336000	 31.9129
8.353999	 31.8784
8.372000	 31.8347
8.390000	 31.7953
8.408000	 31.7468
8.426000	 31.6784
8.443999	 31.6108
8.462000	 31.576
8.480000	 31.5774
8.498000	 31.5917
8.516000	 31.6081
8.533999	 31.636
8.552000	 31.6737
8.570000	 31.6975
8.588000	 31.6991
8.606000	 31.711
8.624000	 31.764
8.641999	 31.8326
8.660000	 31.8531
8.678000	 31.7986
8.696000	 31.7083
8.714000	 31.636
8.731999	 31.5947
8.750000	 31.564
8.768000	 31.5327
8.786000	 31.5074
8.804000	 31.4862
8.821999	 31.4482
8.840000	 31.3795
8.858000	 31.2966
8.876000	 31.2375
8.894000	 31.2299
8.911999	 31.2711
8.930000	 31.3328
8.948000	 31.3844
8.966000	 31.4141
8.984000	 31.429
9.001999	 31.4381
9.020000	 31.436
9.038000	 31.4101
9.056000	 31.3604
9.074000	 31.3068
9.092000	 31.2733
9.109999	 31.2693
9.128000	 31.2853
9.146000	 31.2988
9.164000	 31.2864
9.182000	 31.24
9.199999	 31.1726
9.218000	 31.1088
9.236000	 31.0643
9.254000	 31.034
9.272000	 31.0034
9.289999	 30.97
9.308000	 30.9509
9.326000	 30.9654
9.344000	 31.0116
9.362000	 31.0628
9.379999	 31.0863
9.398000	 31.0706
9.416000	 31.0349
9.434000	 31.0129
9.452000	 31.0274
9.469999	 31.0749
9.488000	 31.1325
9.506000	 31.1753
9.524000	 31.19
9.542000	 31.1771
9.560000	 31.1443
9.577999	 31.1028
9.596000	 31.0653
9.614000	 31.0391
9.632000	 31.0199
9.650000	 30.9913
9.667999	 30.937
9.686000	 30.8585
9.704000	 30.7809
9.722000	 30.7393
9.740000	 30.7526
9.757999	 30.8066
9.776000	 30.8617
9.794000	 30.8811
9.812000	 30.8574
9.830000	 30.8159
9.847999	 30.792
9.866000	 30.8045
9.884000	 30.8452
9.902000	 30.8889
9.920000	 30.9126
9.937999	 30.9086
9.956000	 30.884
9.974000	 30.852
9.992000	 30.8251
10.01	30.8126
10.028	30.8196
10.046	30.8432
10.064	30.8717
10.082	30.8863
10.1	30.8699
10.118	30.8182
10.136	30.7435
10.154	30.6683
10.172	30.6129
10.19	30.5821
10.208	30.5646
10.226	30.5437
10.244	30.5078
10.262	30.4576
10.28	30.402
10.298	30.3502
10.316	30.3057
10.334	30.2667
10.352	30.2321
10.37	30.2051
10.388	30.1937
10.406	30.2053
10.424	30.2421
10.442	30.2967
10.46	30.3542
10.478	30.3971
10.496	30.4138
10.514	30.4047
10.532	30.3824
10.55	30.3637
10.568	30.361
10.586	30.3753
10.604	30.3976
10.622	30.4154
10.64	30.4207
10.658	30.4128
10.676	30.3959
10.694	30.3734
10.712	30.3439
10.73	30.3023
10.748	30.2445
10.766	30.1711
10.784	30.0885
10.802	30.0083
10.82	29.9425
10.838	29.8994
10.856	29.88
10.874	29.8765
10.892	29.8765
10.91	29.8668
10.928	29.8405
10.946	29.7995
10.964	29.754
10.982	29.7188
11	29.7066
11.018	29.7241
11.036	29.7693
11.054	29.833
11.072	29.903
11.09	29.9658
11.108	30.0117
11.126	30.0362
11.144	30.0418
11.162	30.0353
11.18	30.0239
11.198	30.0115
11.216	29.9978
11.234	29.9803
11.252	29.9573
11.27	29.9295
11.288	29.899
11.306	29.8677
11.324	29.8344
11.342	29.7957
11.36	29.7484
11.378	29.6935
11.396	29.637
11.414	29.5881
11.432	29.5532
11.45	29.5316
11.468	29.5146
11.486	29.4902
11.504	29.4488
11.522	29.3877
11.54	29.3118
11.558	29.2315
11.576	29.1588
11.594	29.1024
11.612	29.0663
11.63	29.0492
11.648	29.0469
11.666	29.0537
11.684	29.0649
11.702	29.0777
11.72	29.0912
11.738	29.1061
11.756	29.1243
11.774	29.1481
11.792	29.1793
11.81	29.2186
11.828	29.2654
11.846	29.317
11.864	29.3696
11.882	29.4184
11.9	29.4581
11.918	29.4838
11.936	29.4918
11.954	29.4812
11.972	29.4531
11.99	29.4115
12.008	29.362
12.026	29.3095
12.044	29.258
12.062	29.2088
12.08	29.1603
12.098	29.1095
12.116	29.0535
12.134	28.9914
12.152	28.9258
12.17	28.8614
12.188	28.8042
12.206	28.7595
12.224	28.7302
12.242	28.7159
12.26	28.7134
12.278	28.7173
12.296	28.7218
12.314	28.7218
12.332	28.714
12.35	28.6968
12.368	28.6702
12.386	28.6356
12.404	28.5948
12.422	28.5493
12.44	28.5008
12.458	28.451
12.476	28.4023
12.494	28.358
12.512	28.3219
12.53	28.298
12.548	28.2896
12.566	28.2978
12.584	28.3221
12.602	28.3589
12.62	28.403
12.638	28.4473
12.656	28.4853
12.674	28.5117
12.692	28.5238
12.71	28.5225
12.728	28.5118
12.746	28.498
12.764	28.4873
12.782	28.484
12.8	28.4896
12.818	28.5017
12.836	28.5153
12.854	28.5234
12.872	28.5205
12.89	28.502
12.908	28.4666
12.926	28.4153
12.944	28.3516
12.962	28.2802
12.98	28.2053
12.998	28.1312
13.016	28.0608
13.034	27.9962
13.052	27.9384
13.07	27.8883
13.088	27.8459
13.106	27.8104
13.124	27.7803
13.142	27.7543
13.16	27.7311
13.178	27.7107
13.196	27.6934
13.214	27.6811
13.232	27.6755
13.25	27.6786
13.268	27.6911
13.286	27.7126
13.304	27.7417
13.322	27.7757
13.34	27.8111
13.358	27.8443
13.376	27.872
13.394	27.8915
13.412	27.901
13.43	27.9005
13.448	27.8918
13.466	27.8778
13.484	27.8624
13.502	27.8499
13.52	27.8443
13.538	27.8486
13.556	27.8636
13.574	27.8886
13.592	27.9205
13.61	27.9548
13.628	27.9863
13.646	28.0109
13.664	28.0254
13.682	28.0287
13.7	28.0212
13.718	28.0052
13.736	27.9829
13.754	27.9572
13.772	27.9294
13.79	27.9001
13.808	27.8684
13.826	27.8332
13.844	27.7924
13.862	27.7442
13.88	27.6873
13.898	27.6218
13.916	27.5488
13.934	27.4711
13.952	27.3922
13.97	27.3165
13.988	27.2478
14.006	27.1893
14.024	27.1422
14.042	27.1057
14.06	27.0771
14.078	27.0517
14.096	27.024
14.114	26.9885
14.132	26.9412
14.15	26.8796
14.168	26.804
14.186	26.7172
14.204	26.624
14.222	26.5312
14.24	26.4452
14.258	26.3721
14.276	26.3159
14.294	26.2788
14.312	26.2616
14.33	26.2631
14.348	26.2814
14.366	26.3138
14.384	26.3574
14.402	26.4091
14.42	26.4658
14.438	26.5243
14.456	26.5812
14.474	26.6334
14.492	26.6778
14.51	26.7118
14.528	26.7336
14.546	26.7431
14.564	26.7411
14.582	26.7297
14.6	26.7122
14.618	26.6925
14.636	26.6751
14.654	26.6635
14.672	26.6604
14.69	26.6674
14.708	26.6843
14.726	26.7103
14.744	26.7428
14.762	26.7787
14.78	26.8148
14.798	26.848
14.816	26.8755
14.834	26.8953
14.852	26.9061
14.87	26.9082
14.888	26.9023
14.906	26.8897
14.924	26.8726
14.942	26.8534
14.96	26.8341
14.978	26.8162
14.996	26.8001
15.014	26.7858
15.032	26.7722
15.05	26.7573
15.068	26.7392
15.086	26.7161
15.104	26.6864
15.122	26.649
15.14	26.6035
15.158	26.5504
15.176	26.4903
15.194	26.4245
15.212	26.3546
15.23	26.2817
15.248	26.2073
15.266	26.1324
15.284	26.0579
15.302	25.9847
15.32	25.9132
15.338	25.844
15.356	25.7777
15.374	25.7152
15.392	25.6572
15.41	25.6047
15.428	25.5582
15.446	25.5185
15.464	25.4858
15.482	25.46
15.5	25.4407
15.518	25.4265
15.536	25.4164
15.554	25.4091
15.572	25.4029
15.59	25.3964
15.608	25.3885
15.626	25.3785
15.644	25.3663
15.662	25.3522
15.68	25.3374
15.698	25.3231
15.716	25.3113
15.734	25.3042
15.752	25.3032
15.77	25.3096
15.788	25.3241
15.806	25.3459
15.824	25.374
15.842	25.4063
15.86	25.4397
15.878	25.4716
15.896	25.4996
15.914	25.5213
15.932	25.5358
15.95	25.5427
15.968	25.5425
15.986	25.5371
16.004	25.5285
16.022	25.5188
16.04	25.5108
16.058	25.5061
16.076	25.5059
16.094	25.5111
16.112	25.5213
16.13	25.5361
16.148	25.5546
16.166	25.5753
16.184	25.5974
16.202	25.6199
16.22	25.6419
16.238	25.6636
16.256	25.685
16.274	25.7064
16.292	25.7278
16.31	25.7494
16.328	25.7705
16.346	25.7903
16.364	25.808
16.382	25.8216
16.4	25.8294
16.418	25.83
16.436	25.8214
16.454	25.8027
16.472	25.7734
16.49	25.7334
16.508	25.6838
16.526	25.6253
16.544	25.5598
16.562	25.4892
16.58	25.4146
16.598	25.3384
16.616	25.2615
16.634	25.1848
16.652	25.1089
16.67	25.0338
16.688	24.9595
16.706	24.8856
16.724	24.8122
16.742	24.7391
16.76	24.6666
16.778	24.5952
16.796	24.5256
16.814	24.4592
16.832	24.3968
16.85	24.3404
16.868	24.2909
16.886	24.2491
16.904	24.2165
16.922	24.1932
16.94	24.1798
16.958	24.1763
16.976	24.1829
16.994	24.1987
17.012	24.2233
17.03	24.2564
17.048	24.2969
17.066	24.3442
17.084	24.3977
17.102	24.4558
17.12	24.5178
17.138	24.5819
17.156	24.6468
17.174	24.7112
17.192	24.7723
17.21	24.8291
17.228	24.8789
17.246	24.9198
17.264	24.9504
17.282	24.9685
17.3	24.9736
17.318	24.9648
17.336	24.9424
17.354	24.9065
17.372	24.8592
17.39	24.8016
17.408	24.7363
17.426	24.6664
17.444	24.5937
17.462	24.5226
17.48	24.4544
17.498	24.3929
17.516	24.339
17.534	24.2945
17.552	24.2602
17.57	24.2364
17.588	24.2226
17.606	24.2178
17.624	24.2206
17.642	24.2289
17.66	24.2414
17.678	24.2552
17.696	24.2695
17.714	24.2818
17.732	24.2913
17.75	24.2968
17.768	24.2979
17.786	24.2942
17.804	24.2858
17.822	24.2729
17.84	24.2562
17.858	24.236
17.876	24.2128
17.894	24.187
17.912	24.1588
17.93	24.1285
17.948	24.096
17.966	24.0614
17.984	24.0247
18.002	23.9857
18.02	23.9446
18.038	23.9015
18.056	23.8569
18.074	23.8108
18.092	23.7645
18.11	23.7181
18.128	23.6729
18.146	23.6294
18.164	23.5885
18.182	23.5506
18.2	23.5163
18.218	23.4855
18.236	23.4585
18.254	23.4346
18.272	23.414
18.29	23.3955
18.308	23.3788
18.326	23.363
18.344	23.3479
18.362	23.3326
18.38	23.3172
18.398	23.3014
18.416	23.2855
18.434	23.2698
18.452	23.255
18.47	23.2415
18.488	23.2301
18.506	23.2209
18.524	23.2145
18.542	23.2111
18.56	23.2103
18.578	23.212
18.596	23.2154
18.614	23.2203
18.632	23.225
18.65	23.2294
18.668	23.2321
18.686	23.2328
18.704	23.2304
18.722	23.225
18.74	23.2163
18.758	23.2047
18.776	23.1908
18.794	23.175
18.812	23.159
18.83	23.1431
18.848	23.1293
18.866	23.1179
18.884	23.1106
18.902	23.1075
18.92	23.1096
18.938	23.1168
18.956	23.1292
18.974	23.1462
18.992	23.1673
19.01	23.1914
19.028	23.2174
19.046	23.2444
19.064	23.2708
19.082	23.296
19.1	23.3186
19.118	23.3382
19.136	23.354
19.154	23.366
19.172	23.3738
19.19	23.3777
19.208	23.3782
19.226	23.3756
19.244	23.3708
19.262	23.364
19.28	23.3564
19.298	23.3481
19.316	23.3404
19.334	23.3331
19.352	23.3269
19.37	23.3217
19.388	23.3176
19.406	23.3148
19.424	23.3122
19.442	23.31
19.46	23.3071
19.478	23.3036
19.496	23.2981
19.514	23.2906
19.532	23.2801
19.55	23.2662
19.568	23.2487
19.586	23.227
19.604	23.2013
19.622	23.1714
19.64	23.1378
19.658	23.1009
19.676	23.0609
19.694	23.0191
19.712	22.9754
19.73	22.9316
19.748	22.8876
19.766	22.8448
19.784	22.8036
19.802	22.7647
19.82	22.7286
19.838	22.6956
19.856	22.6659
19.874	22.6395
19.892	22.6162
19.91	22.5957
19.928	22.5773
19.946	22.561
19.964	22.5455
19.982	22.5307
20	22.5158
20.018	22.5001
20.036	22.4836
20.054	22.4656
20.072	22.4463
20.09	22.4255
20.108	22.4033
20.126	22.3804
20.144	22.3568
20.162	22.3333
20.18	22.3103
20.198	22.2881
20.216	22.2676
20.234	22.2485
20.252	22.2313
20.27	22.2159
20.288	22.2019
20.306	22.1894
20.324	22.1774
20.342	22.1654
20.36	22.1528
20.378	22.138
20.396	22.1213
20.414	22.1005
20.432	22.0757
20.45	22.0462
20.468	22.011
20.486	21.9707
20.504	21.9248
20.522	21.8737
20.54	21.8185
20.558	21.7588
20.576	21.6967
20.594	21.6329
20.612	21.5682
20.63	21.5051
20.648	21.443
20.666	21.3852
20.684	21.3313
20.702	21.2829
20.72	21.2412
20.738	21.2059
20.756	21.1782
20.774	21.1581
20.792	21.145
20.81	21.1391
20.828	21.1396
20.846	21.1455
20.864	21.157
20.882	21.172
20.9	21.1909
20.918	21.2123
20.936	21.2349
20.954	21.259
20.972	21.2828
20.99	21.3067
21.008	21.3297
21.026	21.3514
21.044	21.3719
21.062	21.3909
21.08	21.4083
21.098	21.4241
21.116	21.4383
21.134	21.451
21.152	21.462
21.17	21.4715
21.188	21.4794
21.206	21.4858
21.224	21.4907
21.242	21.4942
21.26	21.4963
21.278	21.4971
21.296	21.4966
21.314	21.4952
21.332	21.493
21.35	21.4901
21.368	21.4875
21.386	21.4854
21.404	21.4842
21.422	21.4856
21.44	21.4889
21.458	21.4959
21.476	21.5072
21.494	21.5228
21.512	21.5441
21.53	21.5709
21.548	21.6035
21.566	21.6428
21.584	21.6883
21.602	21.7393
21.62	21.7963
21.638	21.8581
21.656	21.9234
21.674	21.9928
21.692	22.063
21.71	22.1337
21.728	22.2042
21.746	22.2705
21.764	22.3337
21.782	22.391
21.8	22.4397
21.818	22.481
21.836	22.5118
21.854	22.5318
21.872	22.5411
21.89	22.538
21.908	22.5228
21.926	22.4961
21.944	22.4579
21.962	22.4082
21.98	22.3493
21.998	22.2805
22.016	22.2033
22.034	22.1209
22.052	22.0318
22.07	21.939
22.088	21.8444
22.106	21.747
22.124	21.65
22.142	21.5539
22.16	21.4586
22.178	21.3662
22.196	21.2764
22.214	21.1894
22.232	21.1061
22.25	21.0262
22.268	20.9496
22.286	20.8762
22.304	20.8061
22.322	20.7387
22.34	20.6738
22.358	20.6115
22.376	20.5511
22.394	20.4926
22.412	20.4361
22.43	20.3814
22.448	20.3283
22.466	20.2771
22.484	20.2277
22.502	20.1801
22.52	20.1344
22.538	20.0907
22.556	20.0489
22.574	20.0085
22.592	19.9699
22.61	19.9326
22.628	19.8955
22.646	19.8594
22.664	19.8231
22.682	19.7849
22.7	19.7456
22.718	19.7039
22.736	19.6579
22.754	19.6088
22.772	19.5549
22.79	19.4947
22.808	19.429
22.826	19.3573
22.844	19.2789
22.862	19.1942
22.88	19.1045
22.898	19.0096
22.916	18.9095
22.934	18.8079
22.952	18.705
22.97	18.6006
22.988	18.4998
23.006	18.4027
23.024	18.3094
23.042	18.2253
23.06	18.1504
23.078	18.0849
23.096	18.0338
23.114	17.9973
23.132	17.9751
23.15	17.9699
23.168	17.9823
23.186	18.0113
23.204	18.0566
23.222	18.1192
23.24	18.1974
23.258	18.2874
23.276	18.391
23.294	18.5059
23.312	18.6257
23.33	18.7521
23.348	18.8831
23.366	19.0112
23.384	19.1374
23.402	19.2608
23.42	19.3741
23.438	19.4772
23.456	19.5707
23.474	19.6494
23.492	19.7125
23.51	19.7611
23.528	19.7936
23.546	19.8088
23.564	19.8078
23.582	19.7924
23.6	19.7625
23.618	19.7179
23.636	19.6629
23.654	19.5992
23.672	19.525
23.69	19.4458
23.708	19.3649
23.726	19.2794
23.744	19.1942
23.762	19.1133
23.78	19.0341
23.798	18.9593
23.816	18.8925
23.834	18.8322
23.852	18.7791
23.87	18.7344
23.888	18.6986
23.906	18.6707
23.924	18.6502
23.942	18.6377
23.96	18.6326
23.978	18.6329
23.996	18.6379
24.014	18.6484
24.032	18.6624
24.05	18.6788
24.068	18.6985
24.086	18.7204
24.104	18.7434
24.122	18.7679
24.14	18.7937
24.158	18.8201
24.176	18.8472
24.194	18.8751
24.212	18.9033
24.23	18.9317
24.248	18.9604
24.266	18.9896
24.284	19.0194
24.302	19.0498
24.32	19.0803
24.338	19.1104
24.356	19.141
24.374	19.1707
24.392	19.1978
24.41	19.2231
24.428	19.2461
24.446	19.2636
24.464	19.2752
24.482	19.2824
24.5	19.2808
24.518	19.2669
24.536	19.2435
24.554	19.2082
24.572	19.1574
24.59	19.091
24.608	19.0101
24.626	18.9136
24.644	18.8004
24.662	18.671
24.68	18.5273
24.698	18.3709
24.716	18.1994
24.734	18.0159
24.752	17.8251
24.77	17.6259
24.788	17.4179
24.806	17.2078
24.824	16.9999
24.842	16.7893
24.86	16.5817
24.878	16.3845
24.896	16.1951
24.914	16.014
24.932	15.8473
24.95	15.6984
24.968	15.5635
24.986	15.4461
25.004	15.35
25.022	15.2748
25.04	15.2194
25.058	15.1838
25.076	15.169
25.094	15.1754
25.112	15.1992
25.13	15.2368
25.148	15.2917
25.166	15.3611
25.184	15.438
25.202	15.5202
25.22	15.6119
25.238	15.7064
25.256	15.7969
25.274	15.8874
25.292	15.9761
25.31	16.0555
25.328	16.1215
25.346	16.1794
25.364	16.2239
25.382	16.2485
25.4	16.2532
25.418	16.2401
25.436	16.2077
25.454	16.1543
25.472	16.0789
25.49	15.9851
25.508	15.877
25.526	15.7538
25.544	15.6138
25.562	15.4643
25.58	15.312
25.598	15.1509
25.616	14.9846
25.634	14.8225
25.652	14.6694
25.67	14.5179
25.688	14.3757
25.706	14.2521
25.724	14.1467
25.742	14.0562
25.76	13.9876
25.778	13.9474
25.796	13.9305
25.814	13.9391
25.832	13.9799
25.85	14.0575
25.868	14.1681
25.886	14.3123
25.904	14.4919
25.922	14.7082
25.94	14.9601
25.958	15.2458
25.976	15.5639
25.994	15.9192
26.012	16.3084
26.03	16.7218
26.048	17.1519
26.066	17.6112
26.084	18.0888
26.102	18.5666
26.12	19.0347
26.138	19.5112
26.156	19.9775
26.174	20.4105
26.192	20.8061
26.21	21.1817
26.228	21.5113
26.246	21.7676
26.264	21.9523
26.282	22.077
26.3	22.1221
26.318	22.0687
26.336	21.9193
26.354	21.6804
26.372	21.3487
26.39	20.9206
26.408	20.3899
26.426	19.7655
26.444	19.0609
26.462	18.2852
26.48	17.4175
26.498	16.4774
26.516	15.495
26.534	14.4904
26.552	13.4319
26.57	12.3447
26.588	11.265
26.606	10.2145
26.624	9.160714
26.642	8.126834
26.66	7.143845
26.678	6.228336
26.696	5.354616
26.714	4.539652
26.732	3.804935
26.75	3.164074
26.768	2.603853
26.786	2.123444
26.804	1.723535
26.822	1.405611
26.84	1.170178
26.858	1.012672
26.876	0.928313
26.894	0.915666
26.912	0.979208
26.93	1.112869
26.948	1.309878
26.966	1.593812
26.984	2.009793
27.002	2.452625
27.02	2.807596
27.028	2.897691