File: Bakgrunnsmateriale/MATLAB/FTIR/ftir_data/LPE453/Mapping_121/LPE453_t27.asc
PE IR       SPECTRUM    SPECTRUM    ASCII       PEDS        1.60
  -1
LPDB95~1.ASC
17/05/16
16:35:42.00
17/05/16
16:36:09.00
tln
$LPE453_t0027$<tbV0>[2.6,-7.8,8.0,0.0,27,1,0]
27.028
64

2002,4.07
MIRTGS : RIGHTBACK : INTERNAL 2
MIR : ON : INTERNAL 2
OPTKBR

0.200000
8
8.000000
FILLER
RATIO
SPECTRUM
UNLOCKED 256

DOUBLE
64
COMBINED
1
0
0

0.002000
RATIO

1
0
TRUE
51149
0
LEFT NOT FITTED RIGHT NOT FITTED 0
NONE
NONE
15600
12
4.427000
51148
TRUE
1 0 8 72 0 0 0 0

15798

#HDR
-1
-1
#GR
µM
%T
2.38419e-05
0.0
2.000000
0.002000
12515
8
28.1651
-19.0796
#DATA
2.000000	 -0.009989
2.018000	 -0.339626
2.036000	 0.073175
2.054000	 0.253210
2.072000	 0.181064
2.090000	 0.002026
2.108000	 0.106368
2.126000	 0.264734
2.144000	 0.143566
2.162000	 -0.143239
2.180000	 -0.180164
2.198000	 0.238836
2.216000	 26.8424
2.234000	 0.162319
2.252000	 0.024554
2.270000	 0.875413
2.288000	 0.032008
2.306000	 0.240656
2.324000	 -0.000741
2.342000	 0.108473
2.360000	 0.250985
2.378000	 0.313496
2.396000	 0.118007
2.414000	 0.089200
2.432000	 -0.005172
2.450000	 0.164268
2.468000	 0.011811
2.486000	 0.379668
2.504000	 0.326269
2.522000	 0.152935
2.540000	 0.200418
2.558000	 0.039424
2.576000	 0.196471
2.594000	 0.137703
2.612000	 0.056860
2.630000	 0.040476
2.648000	 0.089034
2.666000	 0.091117
2.684000	 0.239793
2.702000	 0.033589
2.720000	 0.045957
2.738000	 -0.021489
2.756000	 0.171492
2.774000	 -0.081702
2.792000	 0.069882
2.810000	 0.061520
2.828000	 0.062795
2.846000	 0.102555
2.864000	 -0.094491
2.882000	 0.310359
2.900000	 0.033306
2.918000	 -0.039756
2.936000	 -0.022241
2.954000	 0.076505
2.972000	 -0.058224
2.990000	 -0.047748
3.008000	 0.010772
3.026000	 0.097159
3.044000	 0.047323
3.062000	 0.144762
3.080000	 0.091151
3.098000	 0.130597
3.116000	 0.011580
3.134000	 0.116943
3.152000	 0.031448
3.170000	 -0.021355
3.188000	 0.065870
3.206000	 0.073023
3.224000	 -0.000667
3.242000	 -0.110348
3.260000	 0.027791
3.278000	 0.202083
3.296000	 0.034861
3.314000	 -0.065423
3.332000	 0.119762
3.350000	 0.067309
3.368000	 0.033398
3.386000	 -0.072289
3.404000	 0.047655
3.422000	 0.073874
3.440000	 0.061970
3.458000	 -0.073181
3.476000	 0.029580
3.494000	 0.086412
3.512000	 0.174980
3.530000	 -0.070049
3.548000	 -0.037325
3.566000	 0.003475
3.584000	 0.075490
3.602000	 0.025708
3.620000	 -0.025562
3.638000	 0.000180
3.656000	 0.009745
3.674000	 0.016021
3.692000	 0.092883
3.710000	 0.074801
3.728000	 0.052910
3.746000	 0.041824
3.764000	 0.052074
3.782000	 0.016321
3.800000	 0.063332
3.818000	 0.089823
3.836000	 -0.036946
3.854000	 -0.012497
3.872000	 0.000935
3.890000	 0.009291
3.908000	 0.021181
3.926000	 -0.069345
3.944000	 -0.100267
3.962000	 -0.009469
3.980000	 0.100558
3.998000	 0.006687
4.016000	 0.041287
4.034000	 0.060129
4.052000	 0.075011
4.070000	 0.013209
4.088000	 0.046938
4.106000	 -0.050637
4.124000	 0.064297
4.141999	 0.181967
4.160000	 -0.151348
4.178000	 -0.071792
4.196000	 -0.044945
4.214000	 0.035490
4.232000	 0.076788
4.250000	 0.110406
4.268000	 0.155896
4.286000	 -0.038942
4.304000	 0.050607
4.322000	 0.052310
4.340000	 0.006850
4.358000	 -0.022713
4.375999	 0.081554
4.394000	 0.036109
4.412000	 0.038203
4.430000	 0.250721
4.448000	 0.380078
4.466000	 0.477974
4.484000	 0.627594
4.502000	 0.893139
4.520000	 1.098292
4.538000	 1.300431
4.556000	 1.613900
4.574000	 2.001893
4.592000	 2.452416
4.609999	 2.923308
4.628000	 3.533845
4.646000	 4.019982
4.664000	 4.612852
4.682000	 5.234037
4.700000	 5.780840
4.718000	 6.630316
4.736000	 7.335495
4.754000	 8.067414
4.772000	 9.019154
4.790000	 9.656512
4.808000	 10.4135
4.826000	 11.6323
4.843999	 12.2054
4.862000	 13.252
4.880000	 13.7482
4.898000	 14.4746
4.916000	 15.3012
4.934000	 16.0235
4.952000	 16.6166
4.970000	 17.2419
4.988000	 17.8894
5.006000	 18.4912
5.024000	 19.0979
5.042000	 19.6126
5.060000	 20.2212
5.077999	 20.7116
5.096000	 21.1686
5.114000	 21.5369
5.132000	 21.9882
5.150000	 22.4223
5.168000	 22.79
5.186000	 23.1403
5.204000	 23.4035
5.222000	 23.7415
5.240000	 23.9829
5.258000	 24.2669
5.276000	 24.5579
5.294000	 24.7721
5.312000	 25.0226
5.330000	 25.241
5.348000	 25.5894
5.366000	 25.8378
5.384000	 25.8865
5.402000	 26.0167
5.420000	 26.2111
5.438000	 26.4149
5.456000	 26.4077
5.474000	 26.4413
5.492000	 26.6207
5.510000	 26.8654
5.528000	 26.8766
5.546000	 26.9382
5.564000	 26.9415
5.582000	 27.0213
5.600000	 27.2373
5.618000	 27.3168
5.636000	 27.3912
5.654000	 27.4652
5.672000	 27.4061
5.690000	 27.5462
5.708000	 27.5748
5.726000	 27.5166
5.744000	 27.5868
5.762000	 27.7214
5.780000	 27.7778
5.798000	 27.7769
5.816000	 27.7961
5.834000	 27.8336
5.852000	 27.8737
5.870000	 27.8219
5.888000	 27.8879
5.906000	 28.0128
5.923999	 27.9766
5.942000	 27.9314
5.960000	 27.9736
5.978000	 27.9442
5.996000	 27.9322
6.014000	 28.0273
6.032000	 28.1215
6.050000	 28.1431
6.068000	 28.1641
6.086000	 28.0635
6.104000	 27.9586
6.122000	 27.9927
6.140000	 27.9585
6.158000	 27.9016
6.176000	 27.9104
6.194000	 27.9018
6.212000	 27.9027
6.230000	 28.0153
6.248000	 28.0308
6.266000	 27.9619
6.284000	 27.953
6.302000	 27.9705
6.320000	 27.9901
6.338000	 27.9756
6.356000	 27.9666
6.374000	 27.972
6.392000	 27.9273
6.410000	 27.9217
6.428000	 27.983
6.446000	 27.9918
6.464000	 27.9599
6.482000	 27.9151
6.500000	 27.8829
6.518000	 27.867
6.536000	 27.8312
6.554000	 27.8005
6.572000	 27.8388
6.590000	 27.9204
6.608000	 27.9264
6.626000	 27.9245
6.644000	 27.9321
6.662000	 27.9128
6.680000	 27.8743
6.698000	 27.7792
6.716000	 27.6857
6.734000	 27.644
6.752000	 27.6888
6.770000	 27.742
6.788000	 27.7131
6.806000	 27.6932
6.824000	 27.6701
6.842000	 27.6544
6.860000	 27.7231
6.878000	 27.7382
6.896000	 27.6779
6.914000	 27.6403
6.932000	 27.5656
6.950000	 27.5205
6.968000	 27.5685
6.986000	 27.5752
7.004000	 27.544
7.022000	 27.5608
7.040000	 27.5576
7.058000	 27.5267
7.076000	 27.5399
7.094000	 27.5654
7.112000	 27.5555
7.130000	 27.5374
7.148000	 27.5459
7.166000	 27.5702
7.184000	 27.5657
7.202000	 27.5132
7.220000	 27.447
7.238000	 27.4084
7.256000	 27.4066
7.274000	 27.4411
7.292000	 27.4929
7.310000	 27.5107
7.328000	 27.4704
7.346000	 27.421
7.364000	 27.4025
7.382000	 27.3788
7.400000	 27.3435
7.418000	 27.3572
7.436000	 27.4058
7.454000	 27.4147
7.472000	 27.3901
7.490000	 27.3783
7.508000	 27.3626
7.526000	 27.3056
7.544000	 27.2149
7.562000	 27.1262
7.580000	 27.0649
7.598000	 27.0472
7.616000	 27.0793
7.634000	 27.1275
7.652000	 27.1525
7.670000	 27.1648
7.688000	 27.1881
7.706000	 27.1994
7.724000	 27.167
7.742000	 27.1095
7.760000	 27.0716
7.778000	 27.0619
7.796000	 27.0505
7.814000	 27.0292
7.832000	 27.0214
7.850000	 27.0313
7.868000	 27.0381
7.886000	 27.0399
7.904000	 27.0516
7.922000	 27.0665
7.940000	 27.0623
7.958000	 27.0291
7.976000	 26.9718
7.994000	 26.8996
8.012000	 26.8294
8.030000	 26.7843
8.048000	 26.7827
8.065999	 26.8226
8.084000	 26.8743
8.102000	 26.9032
8.120000	 26.9033
8.138000	 26.8954
8.155999	 26.8938
8.173999	 26.8896
8.192000	 26.8671
8.210000	 26.8224
8.228000	 26.7693
8.246000	 26.7267
8.263999	 26.7025
8.282000	 26.6905
8.300000	 26.6869
8.318000	 26.7
8.336000	 26.7345
8.353999	 26.7705
8.372000	 26.7732
8.390000	 26.7248
8.408000	 26.6486
8.426000	 26.5897
8.443999	 26.5695
8.462000	 26.5747
8.480000	 26.5867
8.498000	 26.6023
8.516000	 26.625
8.533999	 26.6516
8.552000	 26.6719
8.570000	 26.671
8.588000	 26.6359
8.606000	 26.573
8.624000	 26.5103
8.641999	 26.4715
8.660000	 26.4504
8.678000	 26.4231
8.696000	 26.3789
8.714000	 26.3266
8.731999	 26.2811
8.750000	 26.2592
8.768000	 26.2733
8.786000	 26.312
8.804000	 26.3352
8.821999	 26.3087
8.840000	 26.2425
8.858000	 26.182
8.876000	 26.1566
8.894000	 26.1524
8.911999	 26.1343
8.930000	 26.0859
8.948000	 26.0257
8.966000	 25.9923
8.984000	 26.0087
9.001999	 26.0595
9.020000	 26.105
9.038000	 26.1176
9.056000	 26.1032
9.074000	 26.0855
9.092000	 26.0773
9.109999	 26.0746
9.128000	 26.0726
9.146000	 26.0725
9.164000	 26.0704
9.182000	 26.0522
9.199999	 26.0082
9.218000	 25.9505
9.236000	 25.9071
9.254000	 25.8943
9.272000	 25.9019
9.289999	 25.907
9.308000	 25.8993
9.326000	 25.885
9.344000	 25.8682
9.362000	 25.8393
9.379999	 25.789
9.398000	 25.7267
9.416000	 25.6774
9.434000	 25.657
9.452000	 25.6569
9.469999	 25.6555
9.488000	 25.6415
9.506000	 25.6241
9.524000	 25.6176
9.542000	 25.6262
9.560000	 25.6395
9.577999	 25.6437
9.596000	 25.6326
9.614000	 25.6083
9.632000	 25.5766
9.650000	 25.5439
9.667999	 25.5173
9.686000	 25.5046
9.704000	 25.51
9.722000	 25.5288
9.740000	 25.5465
9.757999	 25.5436
9.776000	 25.5048
9.794000	 25.429
9.812000	 25.3328
9.830000	 25.245
9.847999	 25.1919
9.866000	 25.1853
9.884000	 25.2169
9.902000	 25.2626
9.920000	 25.2941
9.937999	 25.2916
9.956000	 25.2547
9.974000	 25.2014
9.992000	 25.158
10.01	25.1452
10.028	25.1657
10.046	25.2013
10.064	25.2242
10.082	25.2136
10.1	25.1694
10.118	25.1133
10.136	25.0741
10.154	25.0688
10.172	25.0924
10.19	25.1192
10.208	25.1226
10.226	25.0895
10.244	25.0256
10.262	24.9493
10.28	24.877
10.298	24.8173
10.316	24.7711
10.334	24.7365
10.352	24.711
10.37	24.6911
10.388	24.6714
10.406	24.6465
10.424	24.6166
10.442	24.5918
10.46	24.587
10.478	24.6133
10.496	24.6668
10.514	24.7279
10.532	24.7671
10.55	24.7613
10.568	24.7041
10.586	24.6102
10.604	24.5057
10.622	24.417
10.64	24.3557
10.658	24.3181
10.676	24.2902
10.694	24.2607
10.712	24.2271
10.73	24.1949
10.748	24.1704
10.766	24.1551
10.784	24.1437
10.802	24.1272
10.82	24.1009
10.838	24.0669
10.856	24.0336
10.874	24.0102
10.892	24.0029
10.91	24.0142
10.928	24.0416
10.946	24.0806
10.964	24.1258
10.982	24.1722
11	24.2148
11.018	24.2491
11.036	24.2702
11.054	24.2715
11.072	24.2479
11.09	24.1972
11.108	24.1233
11.126	24.0371
11.144	23.9526
11.162	23.8829
11.18	23.8335
11.198	23.7994
11.216	23.7683
11.234	23.7264
11.252	23.666
11.27	23.5899
11.288	23.5107
11.306	23.4436
11.324	23.4029
11.342	23.3962
11.36	23.4214
11.378	23.4702
11.396	23.5308
11.414	23.5908
11.432	23.6404
11.45	23.6731
11.468	23.6854
11.486	23.6771
11.504	23.6514
11.522	23.615
11.54	23.5764
11.558	23.5458
11.576	23.5312
11.594	23.5347
11.612	23.5523
11.63	23.5731
11.648	23.5834
11.666	23.5706
11.684	23.5279
11.702	23.4568
11.72	23.3666
11.738	23.27
11.756	23.1779
11.774	23.0971
11.792	23.0292
11.81	22.9719
11.828	22.9219
11.846	22.8781
11.864	22.8421
11.882	22.8177
11.9	22.8093
11.918	22.8193
11.936	22.8456
11.954	22.8823
11.972	22.9206
11.99	22.9513
12.008	22.968
12.026	22.9681
12.044	22.9541
12.062	22.9328
12.08	22.9122
12.098	22.8993
12.116	22.896
12.134	22.8986
12.152	22.8992
12.17	22.8894
12.188	22.8636
12.206	22.8216
12.224	22.7683
12.242	22.711
12.26	22.6567
12.278	22.6105
12.296	22.5749
12.314	22.5512
12.332	22.539
12.35	22.5376
12.368	22.5448
12.386	22.5565
12.404	22.5666
12.422	22.5681
12.44	22.5541
12.458	22.5209
12.476	22.4692
12.494	22.4046
12.512	22.3357
12.53	22.271
12.548	22.2159
12.566	22.1706
12.584	22.1315
12.602	22.0927
12.62	22.0489
12.638	21.9984
12.656	21.9446
12.674	21.8948
12.692	21.8583
12.71	21.8429
12.728	21.8533
12.746	21.8888
12.764	21.9437
12.782	22.0081
12.8	22.0712
12.818	22.1232
12.836	22.1576
12.854	22.1714
12.872	22.1664
12.89	22.1467
12.908	22.1179
12.926	22.0858
12.944	22.0543
12.962	22.0249
12.98	21.9961
12.998	21.9646
13.016	21.9263
13.034	21.8778
13.052	21.8178
13.07	21.748
13.088	21.6727
13.106	21.598
13.124	21.5303
13.142	21.4747
13.16	21.4341
13.178	21.4084
13.196	21.3948
13.214	21.3885
13.232	21.3841
13.25	21.3781
13.268	21.3686
13.286	21.3572
13.304	21.3476
13.322	21.3453
13.34	21.3548
13.358	21.3787
13.376	21.416
13.394	21.462
13.412	21.5091
13.43	21.5488
13.448	21.5738
13.466	21.5796
13.484	21.5651
13.502	21.5326
13.52	21.4867
13.538	21.4334
13.556	21.3779
13.574	21.3243
13.592	21.2745
13.61	21.2288
13.628	21.1862
13.646	21.1453
13.664	21.1049
13.682	21.0651
13.7	21.0272
13.718	20.9933
13.736	20.9669
13.754	20.951
13.772	20.9478
13.79	20.9588
13.808	20.9834
13.826	21.0192
13.844	21.0621
13.862	21.1062
13.88	21.1451
13.898	21.1726
13.916	21.1833
13.934	21.1742
13.952	21.1446
13.97	21.0964
13.988	21.034
14.006	20.963
14.024	20.889
14.042	20.8172
14.06	20.751
14.078	20.6921
14.096	20.6405
14.114	20.5951
14.132	20.5542
14.15	20.5163
14.168	20.4804
14.186	20.4462
14.204	20.414
14.222	20.3849
14.24	20.3597
14.258	20.3393
14.276	20.3238
14.294	20.3126
14.312	20.3053
14.33	20.3009
14.348	20.2987
14.366	20.2981
14.384	20.299
14.402	20.3011
14.42	20.3043
14.438	20.3084
14.456	20.3132
14.474	20.3187
14.492	20.3251
14.51	20.333
14.528	20.3429
14.546	20.3552
14.564	20.3703
14.582	20.3877
14.6	20.4067
14.618	20.4252
14.636	20.4406
14.654	20.4496
14.672	20.4491
14.69	20.4368
14.708	20.4107
14.726	20.37
14.744	20.3151
14.762	20.2482
14.78	20.1721
14.798	20.0903
14.816	20.0061
14.834	19.9229
14.852	19.844
14.87	19.7714
14.888	19.7068
14.906	19.6513
14.924	19.6052
14.942	19.5686
14.96	19.541
14.978	19.5216
14.996	19.5092
15.014	19.5021
15.032	19.4982
15.05	19.4951
15.068	19.491
15.086	19.4845
15.104	19.4741
15.122	19.4592
15.14	19.4401
15.158	19.4178
15.176	19.3936
15.194	19.369
15.212	19.3458
15.23	19.3251
15.248	19.3077
15.266	19.2941
15.284	19.284
15.302	19.277
15.32	19.2728
15.338	19.2713
15.356	19.2728
15.374	19.2783
15.392	19.2888
15.41	19.3052
15.428	19.3285
15.446	19.3586
15.464	19.395
15.482	19.4363
15.5	19.4804
15.518	19.5238
15.536	19.5634
15.554	19.5965
15.572	19.6202
15.59	19.6325
15.608	19.6325
15.626	19.6198
15.644	19.5947
15.662	19.559
15.68	19.5143
15.698	19.4623
15.716	19.4052
15.734	19.3448
15.752	19.2824
15.77	19.2193
15.788	19.1566
15.806	19.0951
15.824	19.0354
15.842	18.9779
15.86	18.9232
15.878	18.8714
15.896	18.8227
15.914	18.7773
15.932	18.7348
15.95	18.6949
15.968	18.6572
15.986	18.6213
16.004	18.5873
16.022	18.5555
16.04	18.5262
16.058	18.5006
16.076	18.4795
16.094	18.4642
16.112	18.4561
16.13	18.4558
16.148	18.4637
16.166	18.4796
16.184	18.5026
16.202	18.5316
16.22	18.5641
16.238	18.5977
16.256	18.6303
16.274	18.6585
16.292	18.6804
16.31	18.6945
16.328	18.6992
16.346	18.6946
16.364	18.6806
16.382	18.6582
16.4	18.6292
16.418	18.595
16.436	18.5578
16.454	18.5194
16.472	18.4811
16.49	18.4441
16.508	18.4085
16.526	18.3745
16.544	18.3414
16.562	18.3084
16.58	18.2749
16.598	18.2398
16.616	18.2026
16.634	18.163
16.652	18.1215
16.67	18.0787
16.688	18.0356
16.706	17.9942
16.724	17.9557
16.742	17.9218
16.76	17.8945
16.778	17.8742
16.796	17.8623
16.814	17.8588
16.832	17.8637
16.85	17.8761
16.868	17.8947
16.886	17.9184
16.904	17.9441
16.922	17.9701
16.94	17.9939
16.958	18.0123
16.976	18.0239
16.994	18.0258
17.012	18.0168
17.03	17.9959
17.048	17.9626
17.066	17.9175
17.084	17.8613
17.102	17.7965
17.12	17.7245
17.138	17.6491
17.156	17.573
17.174	17.4986
17.192	17.4301
17.21	17.3687
17.228	17.3174
17.246	17.2766
17.264	17.2471
17.282	17.2282
17.3	17.2188
17.318	17.217
17.336	17.2202
17.354	17.227
17.372	17.2335
17.39	17.2389
17.408	17.2404
17.426	17.237
17.444	17.2278
17.462	17.2127
17.48	17.1916
17.498	17.1652
17.516	17.1343
17.534	17.0996
17.552	17.0622
17.57	17.0224
17.588	16.9813
17.606	16.939
17.624	16.896
17.642	16.8527
17.66	16.8092
17.678	16.7662
17.696	16.724
17.714	16.6833
17.732	16.645
17.75	16.6097
17.768	16.5789
17.786	16.5529
17.804	16.5331
17.822	16.5198
17.84	16.5138
17.858	16.5149
17.876	16.5231
17.894	16.5376
17.912	16.5581
17.93	16.5827
17.948	16.6109
17.966	16.6407
17.984	16.6719
18.002	16.7029
18.02	16.7335
18.038	16.763
18.056	16.7914
18.074	16.8187
18.092	16.8451
18.11	16.8706
18.128	16.8955
18.146	16.9197
18.164	16.9431
18.182	16.9653
18.2	16.9857
18.218	17.0031
18.236	17.0169
18.254	17.0249
18.272	17.0266
18.29	17.0201
18.308	17.0052
18.326	16.9807
18.344	16.9467
18.362	16.9031
18.38	16.8505
18.398	16.7896
18.416	16.7218
18.434	16.6487
18.452	16.5724
18.47	16.4943
18.488	16.417
18.506	16.3417
18.524	16.2709
18.542	16.2055
18.56	16.1473
18.578	16.0967
18.596	16.0547
18.614	16.0214
18.632	15.9972
18.65	15.9818
18.668	15.9747
18.686	15.9757
18.704	15.9836
18.722	15.998
18.74	16.0172
18.758	16.0406
18.776	16.0663
18.794	16.0934
18.812	16.1196
18.83	16.144
18.848	16.1642
18.866	16.1793
18.884	16.1871
18.902	16.187
18.92	16.1771
18.938	16.1576
18.956	16.1273
18.974	16.087
18.992	16.0366
19.01	15.9776
19.028	15.9111
19.046	15.8391
19.064	15.7639
19.082	15.6875
19.1	15.6132
19.118	15.5426
19.136	15.4793
19.154	15.4242
19.172	15.3812
19.19	15.3503
19.208	15.3344
19.226	15.3329
19.244	15.3469
19.262	15.3757
19.28	15.418
19.298	15.4733
19.316	15.5384
19.334	15.6131
19.352	15.6924
19.37	15.7764
19.388	15.8594
19.406	15.9418
19.424	16.0183
19.442	16.0888
19.46	16.1494
19.478	16.1996
19.496	16.2373
19.514	16.2618
19.532	16.2728
19.55	16.2698
19.568	16.2538
19.586	16.225
19.604	16.1845
19.622	16.1341
19.64	16.0743
19.658	16.0081
19.676	15.9355
19.694	15.8606
19.712	15.7829
19.73	15.7059
19.748	15.6296
19.766	15.5562
19.784	15.4863
19.802	15.4206
19.82	15.3598
19.838	15.304
19.856	15.2537
19.874	15.2086
19.892	15.1687
19.91	15.1338
19.928	15.1037
19.946	15.0783
19.964	15.0571
19.982	15.04
20	15.0266
20.018	15.0166
20.036	15.0098
20.054	15.0054
20.072	15.0035
20.09	15.003
20.108	15.0042
20.126	15.0052
20.144	15.0062
20.162	15.0056
20.18	15.0028
20.198	14.9969
20.216	14.9864
20.234	14.9715
20.252	14.9505
20.27	14.9236
20.288	14.8902
20.306	14.85
20.324	14.8037
20.342	14.7515
20.36	14.6939
20.378	14.6325
20.396	14.567
20.414	14.5006
20.432	14.4329
20.45	14.3666
20.468	14.3027
20.486	14.2423
20.504	14.1882
20.522	14.1397
20.54	14.0995
20.558	14.0673
20.576	14.044
20.594	14.0305
20.612	14.026
20.63	14.0305
20.648	14.0441
20.666	14.0651
20.684	14.094
20.702	14.1291
20.72	14.1696
20.738	14.2153
20.756	14.264
20.774	14.3162
20.792	14.3697
20.81	14.4246
20.828	14.4799
20.846	14.5343
20.864	14.5881
20.882	14.6398
20.9	14.6895
20.918	14.7363
20.936	14.7795
20.954	14.8192
20.972	14.8539
20.99	14.8841
21.008	14.9084
21.026	14.9266
21.044	14.9385
21.062	14.9428
21.08	14.9399
21.098	14.929
21.116	14.9098
21.134	14.8826
21.152	14.8472
21.17	14.8037
21.188	14.7527
21.206	14.6941
21.224	14.6288
21.242	14.558
21.26	14.4811
21.278	14.4008
21.296	14.3167
21.314	14.2302
21.332	14.1437
21.35	14.0563
21.368	13.9711
21.386	13.8885
21.404	13.8092
21.422	13.7359
21.44	13.6679
21.458	13.6072
21.476	13.5548
21.494	13.5105
21.512	13.4759
21.53	13.4507
21.548	13.4352
21.566	13.4297
21.584	13.434
21.602	13.4471
21.62	13.4696
21.638	13.5002
21.656	13.5374
21.674	13.5818
21.692	13.6308
21.71	13.6839
21.728	13.7408
21.746	13.7983
21.764	13.8575
21.782	13.9161
21.8	13.9726
21.818	14.0275
21.836	14.0784
21.854	14.1252
21.872	14.1674
21.89	14.2036
21.908	14.234
21.926	14.2582
21.944	14.2753
21.962	14.2858
21.98	14.2895
21.998	14.2863
22.016	14.2765
22.034	14.2604
22.052	14.2378
22.07	14.2096
22.088	14.1765
22.106	14.1381
22.124	14.0963
22.142	14.0512
22.16	14.0031
22.178	13.9539
22.196	13.9032
22.214	13.8518
22.232	13.8012
22.25	13.7507
22.268	13.7016
22.286	13.6546
22.304	13.6093
22.322	13.5671
22.34	13.5282
22.358	13.4926
22.376	13.4606
22.394	13.4323
22.412	13.4075
22.43	13.3858
22.448	13.3675
22.466	13.3519
22.484	13.3383
22.502	13.3272
22.52	13.3175
22.538	13.3088
22.556	13.3012
22.574	13.2937
22.592	13.2861
22.61	13.2784
22.628	13.2697
22.646	13.2603
22.664	13.25
22.682	13.2386
22.7	13.2262
22.718	13.213
22.736	13.1991
22.754	13.1843
22.772	13.1696
22.79	13.1556
22.808	13.1419
22.826	13.1294
22.844	13.119
22.862	13.1102
22.88	13.1032
22.898	13.0983
22.916	13.0954
22.934	13.0938
22.952	13.0936
22.97	13.0948
22.988	13.0956
23.006	13.0959
23.024	13.0958
23.042	13.0931
23.06	13.0877
23.078	13.0798
23.096	13.0682
23.114	13.0527
23.132	13.0337
23.15	13.0105
23.168	12.983
23.186	12.9516
23.204	12.9171
23.222	12.8792
23.24	12.8382
23.258	12.7955
23.276	12.7507
23.294	12.7042
23.312	12.6575
23.33	12.6106
23.348	12.5634
23.366	12.5167
23.384	12.4705
23.402	12.4247
23.42	12.3801
23.438	12.3373
23.456	12.2955
23.474	12.2534
23.492	12.2118
23.51	12.17
23.528	12.1246
23.546	12.0752
23.564	12.0225
23.582	11.9626
23.6	11.8942
23.618	11.8186
23.636	11.7333
23.654	11.6371
23.672	11.531
23.69	11.4138
23.708	11.2843
23.726	11.1431
23.744	10.9908
23.762	10.8276
23.78	10.6529
23.798	10.4684
23.816	10.276
23.834	10.0741
23.852	9.864953
23.87	9.651983
23.888	9.433095
23.906	9.210483
23.924	8.989404
23.942	8.768739
23.96	8.548940
23.978	8.336427
23.996	8.132954
24.014	7.936213
24.032	7.751541
24.05	7.582171
24.068	7.425160
24.086	7.284087
24.104	7.162356
24.122	7.057386
24.14	6.971688
24.158	6.909105
24.176	6.868605
24.194	6.850308
24.212	6.856424
24.23	6.887518
24.248	6.942669
24.266	7.022357
24.284	7.127501
24.302	7.258229
24.32	7.411498
24.338	7.584933
24.356	7.781799
24.374	7.997334
24.392	8.224800
24.41	8.467794
24.428	8.723901
24.446	8.982517
24.464	9.241166
24.482	9.505011
24.5	9.760844
24.518	9.998057
24.536	10.2256
24.554	10.4349
24.572	10.613
24.59	10.7636
24.608	10.8861
24.626	10.9698
24.644	11.009
24.662	11.0091
24.68	10.9676
24.698	10.8818
24.716	10.7515
24.734	10.5793
24.752	10.3679
24.77	10.1128
24.788	9.816180
24.806	9.492221
24.824	9.148579
24.842	8.773066
24.86	8.383970
24.878	8.002981
24.896	7.618373
24.914	7.235810
24.932	6.882948
24.95	6.572386
24.968	6.286206
24.986	6.048208
25.004	5.883734
25.022	5.781082
25.04	5.743788
25.058	5.790872
25.076	5.931817
25.094	6.156019
25.112	6.469767
25.13	6.880331
25.148	7.391185
25.166	7.994175
25.184	8.679255
25.202	9.446377
25.22	10.3038
25.238	11.2273
25.256	12.1925
25.274	13.219
25.292	14.2944
25.31	15.3818
25.328	16.463
25.346	17.5659
25.364	18.6561
25.382	19.6937
25.4	20.6914
25.418	21.6517
25.436	22.5386
25.454	23.3249
25.472	24.0352
25.49	24.6546
25.508	25.1591
25.526	25.5434
25.544	25.8197
25.562	25.9759
25.58	26.0001
25.598	25.894
25.616	25.6624
25.634	25.3078
25.652	24.8292
25.67	24.2217
25.688	23.4986
25.706	22.6744
25.724	21.7436
25.742	20.7033
25.76	19.5791
25.778	18.3939
25.796	17.1236
25.814	15.7844
25.832	14.414
25.85	13.034
25.868	11.6122
25.886	10.18
25.904	8.777657
25.922	7.409230
25.94	6.052052
25.958	4.745043
25.976	3.527436
25.994	2.385876
26.012	1.315501
26.03	0.342917
26.048	-0.508433
26.066	-1.252171
26.084	-1.887969
26.102	-2.406771
26.12	-2.799775
26.138	-3.067633
26.156	-3.222047
26.174	-3.275163
26.192	-3.222888
26.21	-3.053769
26.228	-2.801901
26.246	-2.502609
26.264	-2.146127
26.282	-1.720766
26.3	-1.270076
26.318	-0.836557
26.336	-0.399410
26.354	0.043175
26.372	0.454409
26.39	0.800566
26.408	1.103380
26.426	1.359596
26.444	1.546100
26.462	1.642553
26.48	1.658572
26.498	1.598312
26.516	1.460835
26.534	1.243648
26.552	0.941300
26.57	0.564831
26.588	0.127516
26.606	-0.364467
26.624	-0.926672
26.642	-1.541969
26.66	-2.189158
26.678	-2.857716
26.696	-3.566320
26.714	-4.299361
26.732	-5.037780
26.75	-5.769802
26.768	-6.507197
26.786	-7.248878
26.804	-7.992320
26.822	-8.735417
26.84	-9.479012
26.858	-10.2251
26.876	-10.9756
26.894	-11.7309
26.912	-12.4888
26.93	-13.2521
26.948	-14.024
26.966	-14.8438
26.984	-15.7653
27.002	-16.6475
27.02	-17.3377
27.028	-17.5223