File: Bakgrunnsmateriale/MATLAB/FTIR/ftir_data/LPE453/Mapping_121/LPE453_t77_cm-1.asc
PE IR       SPECTRUM    SPECTRUM    ASCII       PEDS        1.60
  -1
LPEADB~1.ASC
17/05/16
20:41:11.00
17/05/16
20:41:11.00
tln
$LPE453_t0077$<tbV0>[-13.0,2.6,8.0,0.0,27,1,0]
370
64

2002,4.07
MIRTGS : RIGHTBACK : INTERNAL 2
MIR : ON : INTERNAL 2
OPTKBR

0.200000
8
8.000000
FILLER
RATIO
SPECTRUM
UNLOCKED 256

DOUBLE
64
COMBINED
1
0
0

1.000000
RATIO

1
0
TRUE
51149
0
LEFT NOT FITTED RIGHT NOT FITTED 0
NONE
NONE
15600
12
4.427000
51148
TRUE
1 0 8 72 0 0 0 0

15798

#HDR
-1
-1
#GR
CM-1
%T
2.38419e-05
0.0
5000
-1.000000
4631
8
32.0808
-10.7704
#DATA
5000	0.234031
4996	0.525665
4992	0.759649
4988	0.525474
4984	0.182795
4980	0.127196
4976	0.175952
4972	0.322818
4968	0.461864
4964	0.478339
4960	0.470042
4956	0.299692
4952	0.076293
4948	0.057768
4944	0.198984
4940	0.279331
4936	0.180339
4932	0.145673
4928	0.135064
4924	0.117182
4920	0.203728
4916	0.217056
4912	0.137114
4908	0.030779
4904	0.038433
4900	0.177931
4896	0.304985
4892	0.340723
4888	0.320625
4884	0.468730
4880	0.637626
4876	0.586366
4872	0.478148
4868	0.365138
4864	0.166344
4860	0.058078
4856	0.072312
4852	0.048565
4848	0.112009
4844	0.217080
4840	0.101184
4836	-0.082278
4832	-0.157856
4828	-0.018167
4824	0.211501
4820	0.130128
4816	-0.035858
4812	0.097203
4808	0.369858
4804	0.501847
4800	0.398898
4796	0.327944
4792	0.393605
4788	0.326132
4784	0.222134
4780	0.074458
4776	-0.093793
4772	-0.082373
4768	-0.122880
4764	-0.171422
4760	-0.042486
4756	0.060415
4752	0.036287
4748	0.044584
4744	0.015759
4740	-0.043272
4736	0.208044
4732	0.483822
4728	0.365281
4724	0.064420
4720	-0.070524
4716	0.162577
4712	0.523281
4708	0.457715
4704	0.112032
4700	0.015711
4696	0.097966
4692	0.620031
4688	1.401996
4684	1.170015
4680	0.136995
4676	-0.537657
4672	-0.969171
4668	-1.007699
4664	-0.259017
4660	-0.193548
4656	-0.718617
4652	-0.406408
4648	0.507521
4644	0.899481
4640	0.829482
4636	1.714038
4632	2.316761
4628	1.888656
4624	1.446008
4620	1.125860
4616	0.841856
4612	0.620269
4608	0.353527
4604	0.030899
4600	-0.209617
4596	-0.497817
4592	-0.887346
4588	-0.892043
4584	-0.135183
4580	0.480341
4576	0.642967
4572	0.841760
4568	0.819849
4564	0.599002
4560	0.356459
4556	0.435972
4552	0.899505
4548	0.902104
4544	0.503373
4540	0.239419
4536	0.049567
4532	0.174665
4528	0.191760
4524	-0.245571
4520	-0.137734
4516	0.461697
4512	0.366902
4508	-0.335836
4504	-0.131845
4500	2.617263
4496	8.405828
4492	8.079481
4488	-3.753066
4484	-7.942748
4480	-1.544952
4476	1.443099
4472	1.234483
4468	0.857377
4464	0.912404
4460	0.473332
4456	-0.439739
4452	-0.572872
4448	-0.323128
4444	-0.311660
4440	-0.131869
4436	0.057220
4432	-0.082063
4428	-0.274705
4424	-0.275039
4420	-0.173616
4416	-0.047874
4412	0.094676
4408	0.134825
4404	0.229883
4400	0.380039
4396	0.288009
4392	0.150942
4388	0.190281
4384	0.424623
4380	0.659871
4376	0.789356
4372	0.895786
4368	0.761151
4364	0.486636
4360	0.345873
4356	0.364494
4352	0.462341
4348	0.397706
4344	0.121474
4340	-0.040841
4336	0.112175
4332	0.304079
4328	0.247263
4324	0.085830
4320	-0.016570
4316	0.000357
4312	0.193548
4308	0.256299
4304	0.089526
4300	-0.132513
4296	-0.281333
4292	-0.087928
4288	0.255823
4284	0.204539
4280	-0.065255
4276	-0.078225
4272	0.051760
4268	0.053000
4264	-0.037193
4260	0.041890
4256	0.248050
4252	0.353622
4248	0.310420
4244	0.182008
4240	0.106334
4236	0.043654
4232	0.028109
4228	0.176143
4224	0.291824
4220	0.168514
4216	-0.006031
4212	-0.158405
4208	-0.299024
4204	-0.250577
4200	-0.153422
4196	-0.158381
4192	-0.049090
4188	0.218844
4184	0.350928
4180	0.455236
4176	0.738000
4172	0.852608
4168	0.613975
4164	0.349545
4160	0.214910
4156	0.089001
4152	-0.049710
4148	-0.081944
4144	0.023508
4140	0.096678
4136	0.157737
4132	0.194072
4128	0.047445
4124	-0.073742
4120	0.073218
4116	0.257110
4112	0.137591
4108	-0.062060
4104	0.066661
4100	0.290346
4096	0.272417
4092	0.126004
4088	-0.118970
4084	-0.258803
4080	-0.073242
4076	0.132250
4072	0.176668
4068	0.130295
4064	0.059247
4060	0.091314
4056	0.122928
4052	0.045371
4048	-0.012874
4044	-0.075221
4040	-0.122046
4036	-0.089740
4032	0.020766
4028	0.188159
4024	0.257587
4020	0.137472
4016	-0.069117
4012	-0.195026
4008	-0.221180
4004	-0.228476
4000	-0.204586
3996	-0.117921
3992	0.080418
3988	0.284790
3984	0.252223
3980	0.167179
3976	0.223445
3972	0.312495
3968	0.366401
3964	0.284314
3960	0.149917
3956	0.108599
3952	0.067472
3948	-0.027704
3944	-0.066757
3940	0.018906
3936	0.090456
3932	0.088071
3928	0.087404
3924	0.073003
3920	0.113153
3916	0.196385
3912	0.232124
3908	0.272893
3904	0.232291
3900	0.141382
3896	0.044441
3892	-0.095057
3888	-0.068831
3884	0.005102
3880	-0.064754
3876	-0.064516
3872	0.034046
3868	0.096368
3864	0.114798
3860	0.062561
3856	-0.013327
3852	0.015926
3848	0.058507
3844	0.001811
3840	-0.063633
3836	-0.062727
3832	0.013589
3828	0.118541
3824	0.195932
3820	0.199031
3816	0.123310
3812	0.055384
3808	-0.017285
3804	-0.070285
3800	-0.030636
3796	-0.059723
3792	-0.156879
3788	-0.151848
3784	-0.106453
3780	-0.078916
3776	-0.012278
3772	0.090885
3768	0.146579
3764	0.121998
3760	0.082254
3756	0.075578
3752	0.132918
3748	0.212144
3744	0.199103
3740	0.072813
3736	0.017356
3732	0.049805
3728	0.074911
3724	0.140714
3720	0.189709
3716	0.114679
3712	-0.000786
3708	-0.029158
3704	0.024676
3700	0.084304
3696	0.078964
3692	0.072884
3688	0.122261
3684	0.127267
3680	0.051069
3676	0.009012
3672	0.060129
3668	0.081825
3664	0.025296
3660	0.054430
3656	0.181627
3652	0.222182
3648	0.167942
3644	0.095963
3640	0.035691
3636	0.012564
3632	0.026798
3628	0.054287
3624	0.045156
3620	-0.023198
3616	-0.038599
3612	0.066518
3608	0.149130
3604	0.122404
3600	0.032711
3596	-0.040936
3592	-0.061774
3588	-0.032114
3584	-0.011968
3580	-0.023007
3576	0.002837
3572	-0.025343
3568	-0.146031
3564	-0.178313
3560	-0.117349
3556	-0.002837
3552	0.064969
3548	0.007963
3544	-0.022745
3540	0.039792
3536	0.076317
3532	0.033879
3528	0.044870
3524	0.093245
3520	0.092458
3516	0.090074
3512	0.160479
3508	0.230240
3504	0.159430
3500	0.056672
3496	0.012063
3492	-0.007057
3488	0.007939
3484	0.008511
3480	-0.055170
3476	-0.118589
3472	-0.142145
3468	-0.153899
3464	-0.130844
3460	-0.053906
3456	0.057911
3452	0.124001
3448	0.075197
3444	-0.027728
3440	-0.064492
3436	0.020432
3432	0.127196
3428	0.132656
3424	0.069093
3420	0.009655
3416	-0.009679
3412	0.017309
3408	0.020194
3404	-0.003433
3400	0.021147
3396	0.096583
3392	0.154876
3388	0.098800
3384	0.016689
3380	0.032496
3376	0.087761
3372	0.165534
3368	0.231027
3364	0.176334
3360	0.043892
3356	-0.032401
3352	-0.040888
3348	0.018239
3344	0.127148
3340	0.161123
3336	0.120258
3332	0.111508
3328	0.111746
3324	0.076985
3320	0.069117
3316	0.101733
3312	0.116324
3308	0.116634
3304	0.037360
3300	-0.160193
3296	-0.258064
3292	-0.173377
3288	-0.054526
3284	0.003743
3280	-0.022268
3276	-0.068211
3272	-0.085687
3268	-0.081086
3264	-0.003027
3260	0.141358
3256	0.221085
3252	0.220727
3248	0.207638
3244	0.150918
3240	0.039696
3236	-0.050282
3232	-0.058197
3228	-0.011992
3224	0.044250
3220	0.041079
3216	-0.059175
3212	-0.156664
3208	-0.135040
3204	0.006437
3200	0.145769
3196	0.128555
3192	0.032091
3188	0.019311
3184	0.049734
3180	0.064229
3176	0.038099
3172	-0.004816
3168	-0.021839
3164	0.006103
3160	0.059032
3156	0.120282
3152	0.197005
3148	0.181674
3144	0.056385
3140	-0.005412
3136	0.056457
3132	0.175619
3128	0.234341
3124	0.180530
3120	0.078725
3116	-0.044560
3112	-0.099539
3108	-0.031566
3104	0.024962
3100	0.036072
3096	0.043892
3092	0.036048
3088	0.028848
3084	0.022888
3080	0.037169
3076	0.047516
3072	0.005698
3068	-0.032806
3064	-0.040793
3060	-0.006556
3056	0.058126
3052	0.119757
3048	0.159430
3044	0.172829
3040	0.169301
3036	0.065851
3032	-0.066876
3028	-0.074052
3024	0.004553
3020	0.083971
3016	0.094461
3012	0.054812
3008	0.031304
3004	0.018644
3000	0.056219
2996	0.167775
2992	0.206995
2988	0.144791
2984	0.131630
2980	0.136160
2976	0.086140
2972	0.022697
2968	-0.027418
2964	-0.032234
2960	-0.013208
2956	0.003957
2952	0.048875
2948	0.087404
2944	0.021600
2940	-0.059318
2936	-0.060057
2932	-0.023889
2928	0.013017
2924	0.019621
2920	0.046896
2916	0.131750
2912	0.184726
2908	0.159168
2904	0.085282
2900	0.016498
2896	0.003647
2892	0.031328
2888	0.061678
2884	0.038552
2880	-0.011014
2876	-0.000429
2872	0.113534
2868	0.219583
2864	0.161695
2860	0.029134
2856	-0.065112
2852	-0.087380
2848	-0.031256
2844	0.038170
2840	0.125980
2836	0.152349
2832	0.056672
2828	-0.006985
2824	0.006794
2820	0.030207
2816	0.078725
2812	0.128674
2808	0.123095
2804	0.083780
2800	0.043082
2796	0.018048
2792	-0.012350
2788	-0.046157
2784	-0.046896
2780	-0.029492
2776	-0.004315
2772	-0.001859
2768	-0.014996
2764	0.015711
2760	0.062203
2756	0.052571
2752	0.011467
2748	0.035214
2744	0.114130
2740	0.113034
2736	0.027465
2732	0.011086
2728	0.070118
2724	0.077104
2720	0.031304
2716	0.030970
2712	0.057983
2708	0.028085
2704	-0.016045
2700	-0.014281
2696	0.001478
2692	0.017976
2688	0.047326
2684	0.072264
2680	0.043249
2676	-0.055217
2672	-0.098705
2668	-0.041389
2664	0.017619
2660	0.041055
2656	0.068545
2652	0.101637
2648	0.054478
2644	-0.009894
2640	0.020837
2636	0.078487
2632	0.082826
2628	0.055718
2624	0.049614
2620	0.063705
2616	0.073337
2612	0.053882
2608	0.018668
2604	0.000858
2600	0.037026
2596	0.135064
2592	0.208520
2588	0.185680
2584	0.092935
2580	0.003194
2576	-0.029516
2572	-0.050020
2568	-0.093555
2564	-0.101685
2560	-0.075125
2556	-0.037384
2552	0.015878
2548	0.059509
2544	0.073170
2540	0.059318
2536	0.062513
2532	0.094842
2528	0.103163
2524	0.052952
2520	-0.003170
2516	0.043225
2512	0.143384
2508	0.165152
2504	0.141096
2500	0.157523
2496	0.179696
2492	0.141358
2488	0.067949
2484	0.020051
2480	0.008726
2476	0.003123
2472	-0.006985
2468	-0.005626
2464	-0.013995
2460	-0.024437
2456	-0.014591
2452	0.036740
2448	0.082159
2444	0.061416
2440	0.017452
2436	-0.009202
2432	-0.079369
2428	-0.149393
2424	-0.044894
2420	0.152182
2416	0.094532
2412	-0.118756
2408	-0.182056
2404	-0.177478
2400	-0.134968
2396	-0.043320
2392	-0.006961
2388	0.020837
2384	0.115513
2380	0.163435
2376	0.111484
2372	0.080299
2368	0.072693
2364	0.027179
2360	0.003075
2356	0.044012
2352	0.077342
2348	0.042128
2344	0.036692
2340	0.119924
2336	0.148320
2332	0.091409
2328	0.054621
2324	0.061464
2320	0.084376
2316	0.095939
2312	0.071001
2308	0.067138
2304	0.139284
2300	0.209832
2296	0.229954
2292	0.215339
2288	0.194478
2284	0.245881
2280	0.346589
2276	0.423383
2272	0.476717
2268	0.521850
2264	0.570869
2260	0.639367
2256	0.698184
2252	0.755715
2248	0.867080
2244	0.960421
2240	1.054978
2236	1.210117
2232	1.318717
2228	1.416945
2224	1.555943
2220	1.659822
2216	1.790118
2212	1.990818
2208	2.170801
2204	2.323222
2200	2.485370
2196	2.654886
2192	2.876663
2188	3.152990
2184	3.418445
2180	3.682303
2176	3.963232
2172	4.213953
2168	4.495573
2164	4.829978
2160	5.115509
2156	5.413198
2152	5.755662
2148	6.100630
2144	6.456422
2140	6.819725
2136	7.241129
2132	7.708024
2128	8.130884
2124	8.498072
2120	8.852219
2116	9.226274
2112	9.638643
2108	10.0732
2104	10.5067
2100	10.9404
2096	11.3682
2092	11.7525
2088	12.1113
2084	12.5344
2080	13.0465
2076	13.4872
2072	13.7923
2068	14.1827
2064	14.6324
2060	15.0407
2056	15.5369
2052	16.037
2048	16.4348
2044	16.8474
2040	17.2993
2036	17.7241
2032	18.1137
2028	18.454
2024	18.7611
2020	19.1013
2016	19.4806
2012	19.855
2008	20.2065
2004	20.5551
2000	20.9038
1996	21.216
1992	21.496
1988	21.7931
1984	22.0996
1980	22.3817
1976	22.6592
1972	23.0011
1968	23.3535
1964	23.5913
1960	23.8052
1956	24.0563
1952	24.2937
1948	24.5404
1944	24.7427
1940	24.9101
1936	25.1382
1932	25.3921
1928	25.6271
1924	25.8487
1920	26.0759
1916	26.2989
1912	26.5089
1908	26.7275
1904	26.9391
1900	27.0845
1896	27.1606
1892	27.2336
1888	27.3424
1884	27.5022
1880	27.6951
1876	27.8299
1872	27.8873
1868	27.9861
1864	28.1806
1860	28.3843
1856	28.5133
1852	28.5993
1848	28.7096
1844	28.834
1840	28.9515
1836	29.0727
1832	29.1641
1828	29.1989
1824	29.2698
1820	29.4167
1816	29.5337
1812	29.6104
1808	29.7052
1804	29.7894
1800	29.8635
1796	29.9795
1792	30.1094
1788	30.1776
1784	30.1924
1780	30.2097
1776	30.2461
1772	30.3044
1768	30.3883
1764	30.4509
1760	30.4754
1756	30.5214
1752	30.5956
1748	30.6787
1744	30.7284
1740	30.7449
1736	30.8201
1732	30.9193
1728	30.9592
1724	30.9473
1720	30.9321
1716	30.9364
1712	30.9769
1708	31.084
1704	31.1576
1700	31.1744
1696	31.2283
1692	31.3048
1688	31.3797
1684	31.4177
1680	31.4084
1676	31.4069
1672	31.4097
1668	31.396
1664	31.407
1660	31.4576
1656	31.4917
1652	31.5247
1648	31.5983
1644	31.6267
1640	31.6044
1636	31.6101
1632	31.6183
1628	31.6386
1624	31.6774
1620	31.6773
1616	31.6492
1612	31.6651
1608	31.7232
1604	31.7378
1600	31.7141
1596	31.7221
1592	31.7872
1588	31.8754
1584	31.9114
1580	31.8563
1576	31.7879
1572	31.7719
1568	31.7795
1564	31.8106
1560	31.8044
1556	31.7486
1552	31.7885
1548	31.8846
1544	31.9257
1540	31.954
1536	31.974
1532	31.959
1528	31.9475
1524	31.9648
1520	31.9699
1516	31.963
1512	31.9704
1508	31.9577
1504	31.9452
1500	31.9582
1496	31.9725
1492	31.9827
1488	31.9372
1484	31.9484
1480	32.0634
1476	32.0448
1472	31.8877
1468	31.771
1464	31.7796
1460	31.8603
1456	31.876
1452	31.8428
1448	31.8178
1444	31.8279
1440	31.8933
1436	31.9558
1432	31.972
1428	31.9753
1424	31.9711
1420	31.9157
1416	31.8369
1412	31.756
1408	31.7117
1404	31.7526
1400	31.7916
1396	31.7564
1392	31.7499
1388	31.8335
1384	31.9122
1380	31.9088
1376	31.7834
1372	31.6172
1368	31.5495
1364	31.5781
1360	31.6293
1356	31.6729
1352	31.7249
1348	31.7762
1344	31.7916
1340	31.7701
1336	31.7621
1332	31.7654
1328	31.7368
1324	31.7037
1320	31.6931
1316	31.6777
1312	31.6708
1308	31.674
1304	31.6475
1300	31.6333
1296	31.6398
1292	31.6245
1288	31.6051
1284	31.6048
1280	31.6083
1276	31.5749
1272	31.5449
1268	31.5057
1264	31.3796
1260	31.3045
1256	31.3911
1252	31.4747
1248	31.4552
1244	31.4403
1240	31.4461
1236	31.4193
1232	31.3912
1228	31.3843
1224	31.3885
1220	31.3813
1216	31.3254
1212	31.2353
1208	31.2034
1204	31.214
1200	31.1617
1196	31.1138
1192	31.1374
1188	31.1651
1184	31.1618
1180	31.1612
1176	31.1299
1172	31.0379
1168	30.9479
1164	30.8873
1160	30.8558
1156	30.8337
1152	30.7751
1148	30.7196
1144	30.7138
1140	30.7452
1136	30.8112
1132	30.8398
1128	30.8004
1124	30.7141
1120	30.5855
1116	30.5387
1112	30.5897
1108	30.5649
1104	30.4195
1100	30.3656
1096	30.4598
1092	30.5011
1088	30.4563
1084	30.3421
1080	30.1479
1076	30.0136
1072	30.0045
1068	30.0239
1064	30.0177
1060	29.9714
1056	29.8807
1052	29.8179
1048	29.8425
1044	29.8191
1040	29.7152
1036	29.6889
1032	29.7153
1028	29.7124
1024	29.716
1020	29.7194
1016	29.5803
1012	29.3022
1008	29.1525
1004	29.1811
1000	29.2506
996	 29.2766
992	 29.1948
988	 29.0827
984	 29.1199
980	 29.2059
976	 29.1078
972	 28.9803
968	 28.9248
964	 28.8801
960	 28.8665
956	 28.8057
952	 28.7019
948	 28.646
944	 28.602
940	 28.5263
936	 28.4567
932	 28.3996
928	 28.3046
924	 28.217
920	 28.1962
916	 28.1045
912	 27.9445
908	 27.8976
904	 27.9341
900	 27.932
896	 27.8394
892	 27.7601
888	 27.8163
884	 27.8524
880	 27.716
876	 27.5314
872	 27.4262
868	 27.4208
864	 27.404
860	 27.304
856	 27.2552
852	 27.2506
848	 27.115
844	 26.9169
840	 26.8764
836	 26.8874
832	 26.7714
828	 26.6258
824	 26.5359
820	 26.4643
816	 26.4381
812	 26.4726
808	 26.4733
804	 26.3811
800	 26.292
796	 26.3388
792	 26.3165
788	 26.056
784	 25.7581
780	 25.5244
776	 25.4236
772	 25.3869
768	 25.2643
764	 25.1626
760	 25.2256
756	 25.5234
752	 25.7493
748	 25.6075
744	 25.4222
740	 25.4035
736	 25.27
732	 24.9266
728	 24.6435
724	 24.5121
720	 24.454
716	 24.3993
712	 24.2846
708	 24.2544
704	 24.3519
700	 24.252
696	 23.9523
692	 23.8682
688	 24.0124
684	 24.0453
680	 23.8554
676	 23.5969
672	 23.4644
668	 23.4648
664	 23.3973
660	 23.1691
656	 23.0102
652	 23.1031
648	 23.418
644	 23.6871
640	 23.6164
636	 23.3927
632	 23.2736
628	 23.1507
624	 22.819
620	 22.4561
616	 22.3792
612	 22.4225
608	 22.4365
604	 22.5377
600	 22.5901
596	 22.5474
592	 22.4665
588	 22.2349
584	 21.9625
580	 21.8719
576	 21.8308
572	 21.6994
568	 21.6643
564	 21.6631
560	 21.5966
556	 21.3956
552	 21.0726
548	 20.9473
544	 20.9759
540	 21.0689
536	 21.1269
532	 20.966
528	 20.7549
524	 20.6313
520	 20.5879
516	 20.4036
512	 19.9368
508	 19.5057
504	 19.3697
500	 19.5228
496	 19.612
492	 19.5182
488	 19.7623
484	 19.9699
480	 19.1037
476	 17.9296
472	 17.903
468	 18.4997
464	 18.9796
460	 19.0644
456	 18.7915
452	 18.7029
448	 18.4629
444	 18.0853
440	 18.2549
436	 18.7824
432	 18.8564
428	 19.081
424	 19.7626
420	 19.6608
416	 18.8736
412	 17.3951
408	 13.4564
404	 8.766460
400	 5.437159
396	 2.624964
392	 1.804590
388	 3.018927
384	 5.969691
380	 4.197931
376	 -2.810406
372	 -8.969211
370	 -10.7704