File: Bakgrunnsmateriale/MATLAB/FTIR/ftir_data/LPE453/Mapping_121/LPE453_t110.asc
PE IR       SPECTRUM    SPECTRUM    ASCII       PEDS        1.60
  -1
LP9378~1.ASC
17/05/16
23:21:02.00
17/05/16
23:21:28.00
tln
$LPE453_t0110$<tbV0>[-13.0,10.4,8.0,0.0,27,1,0]
27.028
64

2002,4.07
MIRTGS : RIGHTBACK : INTERNAL 2
MIR : ON : INTERNAL 2
OPTKBR

0.200000
8
8.000000
FILLER
RATIO
SPECTRUM
UNLOCKED 256

DOUBLE
64
COMBINED
1
0
0

0.002000
RATIO

1
0
TRUE
51149
0
LEFT NOT FITTED RIGHT NOT FITTED 0
NONE
NONE
15600
12
4.427000
51148
TRUE
1 0 8 72 0 0 0 0

15798

#HDR
-1
-1
#GR
µM
%T
2.38419e-05
0.0
2.000000
0.002000
12515
8
33.7663
-14.2751
#DATA
2.000000	 0.098323
2.018000	 0.320323
2.036000	 0.628813
2.054000	 0.385910
2.072000	 0.037052
2.090000	 0.161436
2.108000	 0.197891
2.126000	 -0.164053
2.144000	 -0.266685
2.162000	 0.348306
2.180000	 1.113621
2.198000	 0.325897
2.216000	 -2.460980
2.234000	 -0.195968
2.252000	 0.313431
2.270000	 0.062056
2.288000	 0.360390
2.306000	 0.652999
2.324000	 0.395814
2.342000	 0.103246
2.360000	 0.320829
2.378000	 0.487327
2.396000	 0.308708
2.414000	 0.365860
2.432000	 0.188787
2.450000	 -0.098260
2.468000	 0.082651
2.486000	 0.092263
2.504000	 0.060909
2.522000	 0.011605
2.540000	 -0.040464
2.558000	 0.051577
2.576000	 0.023186
2.594000	 0.006951
2.612000	 0.189015
2.630000	 -0.058496
2.648000	 0.068258
2.666000	 0.238188
2.684000	 0.207455
2.702000	 -0.015736
2.720000	 0.083324
2.738000	 0.148901
2.756000	 -0.143775
2.774000	 0.119087
2.792000	 -0.014690
2.810000	 -0.051999
2.828000	 0.027600
2.846000	 0.223817
2.864000	 -0.072622
2.882000	 0.032727
2.900000	 -0.058098
2.918000	 0.037013
2.936000	 0.134490
2.954000	 0.007067
2.972000	 0.055892
2.990000	 0.068865
3.008000	 0.055896
3.026000	 0.178771
3.044000	 0.164583
3.062000	 -0.010982
3.080000	 0.081829
3.098000	 -0.010805
3.116000	 0.097056
3.134000	 0.004452
3.152000	 0.145618
3.170000	 0.027548
3.188000	 -0.025904
3.206000	 0.144677
3.224000	 -0.041758
3.242000	 0.028179
3.260000	 0.099668
3.278000	 0.114327
3.296000	 0.125183
3.314000	 0.095297
3.332000	 0.079192
3.350000	 -0.032329
3.368000	 0.030787
3.386000	 0.124559
3.404000	 0.139022
3.422000	 0.028163
3.440000	 0.134110
3.458000	 0.102968
3.476000	 0.106073
3.494000	 -0.099631
3.512000	 -0.103918
3.530000	 0.071716
3.548000	 0.033855
3.566000	 -0.106366
3.584000	 0.093751
3.602000	 0.049335
3.620000	 0.031948
3.638000	 0.023638
3.656000	 0.060584
3.674000	 0.067600
3.692000	 0.003936
3.710000	 -0.005031
3.728000	 -0.002068
3.746000	 0.111890
3.764000	 0.018441
3.782000	 -0.060953
3.800000	 -0.037422
3.818000	 -0.032281
3.836000	 0.047930
3.854000	 0.065621
3.872000	 0.004234
3.890000	 0.094047
3.908000	 -0.088447
3.926000	 -0.053300
3.944000	 0.086357
3.962000	 -0.064076
3.980000	 0.078651
3.998000	 0.061503
4.016000	 -0.043529
4.034000	 -0.023264
4.052000	 -0.046059
4.070000	 0.041062
4.088000	 0.014116
4.106000	 0.032781
4.124000	 -0.133104
4.141999	 0.015356
4.160000	 0.114704
4.178000	 -0.002040
4.196000	 0.123375
4.214000	 0.051594
4.232000	 0.099219
4.250000	 0.120226
4.268000	 0.053234
4.286000	 0.180685
4.304000	 0.242150
4.322000	 0.279042
4.340000	 0.517537
4.358000	 0.444176
4.375999	 0.542816
4.394000	 0.760719
4.412000	 0.960601
4.430000	 1.106706
4.448000	 1.394976
4.466000	 1.720333
4.484000	 2.047917
4.502000	 2.410986
4.520000	 2.859565
4.538000	 3.318967
4.556000	 3.876846
4.574000	 4.429229
4.592000	 5.085933
4.609999	 5.698439
4.628000	 6.517592
4.646000	 7.183187
4.664000	 7.856086
4.682000	 8.653254
4.700000	 9.581715
4.718000	 10.5634
4.736000	 11.434
4.754000	 12.2982
4.772000	 13.117
4.790000	 13.9763
4.808000	 14.7888
4.826000	 15.4403
4.843999	 16.5063
4.862000	 17.2391
4.880000	 18.0405
4.898000	 18.7488
4.916000	 19.5003
4.934000	 20.058
4.952000	 20.7201
4.970000	 21.3549
4.988000	 21.9487
5.006000	 22.48
5.024000	 23.0079
5.042000	 23.4723
5.060000	 23.9753
5.077999	 24.4634
5.096000	 24.8967
5.114000	 25.2126
5.132000	 25.5019
5.150000	 25.852
5.168000	 26.2437
5.186000	 26.6185
5.204000	 26.8586
5.222000	 27.0766
5.240000	 27.4062
5.258000	 27.6586
5.276000	 27.91
5.294000	 28.0433
5.312000	 28.2757
5.330000	 28.517
5.348000	 28.7228
5.366000	 28.886
5.384000	 29.081
5.402000	 29.2669
5.420000	 29.325
5.438000	 29.4775
5.456000	 29.6838
5.474000	 29.7337
5.492000	 29.8326
5.510000	 30.078
5.528000	 30.2444
5.546000	 30.2868
5.564000	 30.3228
5.582000	 30.3888
5.600000	 30.4721
5.618000	 30.5812
5.636000	 30.7319
5.654000	 30.7318
5.672000	 30.8161
5.690000	 30.9091
5.708000	 30.944
5.726000	 30.9701
5.744000	 31.0241
5.762000	 31.0624
5.780000	 31.1882
5.798000	 31.3325
5.816000	 31.3876
5.834000	 31.4347
5.852000	 31.4402
5.870000	 31.45
5.888000	 31.5176
5.906000	 31.6173
5.923999	 31.6641
5.942000	 31.6355
5.960000	 31.5351
5.978000	 31.5621
5.996000	 31.6325
6.014000	 31.6561
6.032000	 31.6914
6.050000	 31.7424
6.068000	 31.7956
6.086000	 31.8585
6.104000	 31.9142
6.122000	 32.0098
6.140000	 32.0609
6.158000	 32.0048
6.176000	 31.9226
6.194000	 31.9213
6.212000	 31.9701
6.230000	 32.0374
6.248000	 32.0838
6.266000	 32.1732
6.284000	 32.2365
6.302000	 32.222
6.320000	 32.2184
6.338000	 32.257
6.356000	 32.3139
6.374000	 32.3431
6.392000	 32.3477
6.410000	 32.3081
6.428000	 32.2915
6.446000	 32.3337
6.464000	 32.3707
6.482000	 32.4146
6.500000	 32.4796
6.518000	 32.503
6.536000	 32.501
6.554000	 32.5174
6.572000	 32.5486
6.590000	 32.5845
6.608000	 32.5884
6.626000	 32.5179
6.644000	 32.4494
6.662000	 32.4215
6.680000	 32.3683
6.698000	 32.3628
6.716000	 32.4819
6.734000	 32.5849
6.752000	 32.5968
6.770000	 32.6051
6.788000	 32.6795
6.806000	 32.7197
6.824000	 32.6326
6.842000	 32.5592
6.860000	 32.5759
6.878000	 32.5996
6.896000	 32.6069
6.914000	 32.5759
6.932000	 32.5512
6.950000	 32.5783
6.968000	 32.5792
6.986000	 32.5633
7.004000	 32.6132
7.022000	 32.683
7.040000	 32.6796
7.058000	 32.657
7.076000	 32.7133
7.094000	 32.787
7.112000	 32.7871
7.130000	 32.7263
7.148000	 32.6437
7.166000	 32.5738
7.184000	 32.5309
7.202000	 32.5015
7.220000	 32.4898
7.238000	 32.5072
7.256000	 32.5418
7.274000	 32.5679
7.292000	 32.5749
7.310000	 32.5831
7.328000	 32.6264
7.346000	 32.7045
7.364000	 32.7816
7.382000	 32.8355
7.400000	 32.8477
7.418000	 32.8008
7.436000	 32.7448
7.454000	 32.7457
7.472000	 32.7804
7.490000	 32.7876
7.508000	 32.7592
7.526000	 32.7267
7.544000	 32.7157
7.562000	 32.7158
7.580000	 32.7087
7.598000	 32.7134
7.616000	 32.7431
7.634000	 32.7565
7.652000	 32.7106
7.670000	 32.6278
7.688000	 32.575
7.706000	 32.5908
7.724000	 32.6412
7.742000	 32.6771
7.760000	 32.7071
7.778000	 32.7505
7.796000	 32.7703
7.814000	 32.7334
7.832000	 32.6825
7.850000	 32.6672
7.868000	 32.6647
7.886000	 32.6338
7.904000	 32.589
7.922000	 32.5614
7.940000	 32.5401
7.958000	 32.5055
7.976000	 32.4759
7.994000	 32.4835
8.012000	 32.5227
8.030000	 32.5535
8.048000	 32.5568
8.065999	 32.5599
8.084000	 32.5964
8.102000	 32.6615
8.120000	 32.7168
8.138000	 32.7298
8.155999	 32.7024
8.173999	 32.6677
8.192000	 32.6506
8.210000	 32.6334
8.228000	 32.5789
8.246000	 32.4915
8.263999	 32.4193
8.282000	 32.3849
8.300000	 32.3524
8.318000	 32.2871
8.336000	 32.2119
8.353999	 32.1786
8.372000	 32.2016
8.390000	 32.2453
8.408000	 32.2798
8.426000	 32.3112
8.443999	 32.3451
8.462000	 32.3638
8.480000	 32.3559
8.498000	 32.3372
8.516000	 32.3326
8.533999	 32.3498
8.552000	 32.3742
8.570000	 32.3854
8.588000	 32.3756
8.606000	 32.3486
8.624000	 32.3114
8.641999	 32.2677
8.660000	 32.2158
8.678000	 32.1572
8.696000	 32.1104
8.714000	 32.1011
8.731999	 32.1286
8.750000	 32.1533
8.768000	 32.1321
8.786000	 32.0612
8.804000	 31.979
8.821999	 31.9254
8.840000	 31.9108
8.858000	 31.9196
8.876000	 31.9327
8.894000	 31.9384
8.911999	 31.9321
8.930000	 31.9182
8.948000	 31.9122
8.966000	 31.9313
8.984000	 31.9766
9.001999	 32.0261
9.020000	 32.0502
9.038000	 32.0312
9.056000	 31.9701
9.074000	 31.8798
9.092000	 31.7757
9.109999	 31.6761
9.128000	 31.602
9.146000	 31.5707
9.164000	 31.5817
9.182000	 31.6122
9.199999	 31.6295
9.218000	 31.6137
9.236000	 31.5687
9.254000	 31.5134
9.272000	 31.4611
9.289999	 31.4115
9.308000	 31.3626
9.326000	 31.3232
9.344000	 31.3081
9.362000	 31.3228
9.379999	 31.3542
9.398000	 31.3801
9.416000	 31.386
9.434000	 31.3772
9.452000	 31.3754
9.469999	 31.403
9.488000	 31.4657
9.506000	 31.5439
9.524000	 31.603
9.542000	 31.6178
9.560000	 31.5893
9.577999	 31.5384
9.596000	 31.4836
9.614000	 31.4298
9.632000	 31.3738
9.650000	 31.3132
9.667999	 31.2497
9.686000	 31.1863
9.704000	 31.1252
9.722000	 31.0694
9.740000	 31.023
9.757999	 30.9882
9.776000	 30.9612
9.794000	 30.9308
9.812000	 30.8845
9.830000	 30.8174
9.847999	 30.7372
9.866000	 30.6608
9.884000	 30.6067
9.902000	 30.586
9.920000	 30.5969
9.937999	 30.6271
9.956000	 30.6616
9.974000	 30.6917
9.992000	 30.72
10.01	30.7569
10.028	30.8108
10.046	30.879
10.064	30.9459
10.082	30.9918
10.1	31.004
10.118	30.9845
10.136	30.9451
10.154	30.8977
10.172	30.8472
10.19	30.7918
10.208	30.7304
10.226	30.6669
10.244	30.6098
10.262	30.5682
10.28	30.5442
10.298	30.5333
10.316	30.526
10.334	30.5117
10.352	30.4835
10.37	30.4397
10.388	30.3874
10.406	30.3399
10.424	30.3128
10.442	30.3154
10.46	30.3445
10.478	30.3842
10.496	30.4112
10.514	30.4062
10.532	30.3623
10.55	30.2898
10.568	30.2095
10.586	30.1434
10.604	30.1026
10.622	30.0855
10.64	30.0811
10.658	30.0788
10.676	30.0761
10.694	30.0793
10.712	30.0957
10.73	30.1251
10.748	30.1568
10.766	30.1736
10.784	30.163
10.802	30.1236
10.82	30.0651
10.838	30.0032
10.856	29.9497
10.874	29.9087
10.892	29.8761
10.91	29.8446
10.928	29.8083
10.946	29.7646
10.964	29.7136
10.982	29.6567
11	29.5955
11.018	29.5327
11.036	29.4717
11.054	29.4159
11.072	29.3677
11.09	29.3274
11.108	29.2938
11.126	29.2646
11.144	29.239
11.162	29.2169
11.18	29.1998
11.198	29.189
11.216	29.1849
11.234	29.186
11.252	29.19
11.27	29.1949
11.288	29.1997
11.306	29.2046
11.324	29.2108
11.342	29.2186
11.36	29.2271
11.378	29.2335
11.396	29.2346
11.414	29.2287
11.432	29.216
11.45	29.1997
11.468	29.1838
11.486	29.171
11.504	29.1618
11.522	29.1536
11.54	29.1431
11.558	29.1271
11.576	29.1049
11.594	29.0778
11.612	29.0478
11.63	29.0164
11.648	28.9838
11.666	28.9484
11.684	28.9097
11.702	28.8685
11.72	28.8278
11.738	28.791
11.756	28.7609
11.774	28.7377
11.792	28.7191
11.81	28.7013
11.828	28.6817
11.846	28.6597
11.864	28.6377
11.882	28.6191
11.9	28.6063
11.918	28.5982
11.936	28.5895
11.954	28.5731
11.972	28.5414
11.99	28.4899
12.008	28.4189
12.026	28.3332
12.044	28.2416
12.062	28.1551
12.08	28.0845
12.098	28.0372
12.116	28.0175
12.134	28.0248
12.152	28.0541
12.17	28.0986
12.188	28.1512
12.206	28.2058
12.224	28.2584
12.242	28.3072
12.26	28.3513
12.278	28.3895
12.296	28.4197
12.314	28.4387
12.332	28.4428
12.35	28.4292
12.368	28.3966
12.386	28.3467
12.404	28.2834
12.422	28.212
12.44	28.1384
12.458	28.0668
12.476	27.9996
12.494	27.9373
12.512	27.8792
12.53	27.8248
12.548	27.7744
12.566	27.7297
12.584	27.6931
12.602	27.6663
12.62	27.6498
12.638	27.6427
12.656	27.6422
12.674	27.6454
12.692	27.6491
12.71	27.6512
12.728	27.65
12.746	27.6447
12.764	27.6347
12.782	27.6197
12.8	27.5993
12.818	27.5736
12.836	27.5432
12.854	27.5098
12.872	27.4759
12.89	27.4443
12.908	27.4175
12.926	27.3968
12.944	27.382
12.962	27.3712
12.98	27.3618
12.998	27.3511
13.016	27.3375
13.034	27.3214
13.052	27.3049
13.07	27.2918
13.088	27.2864
13.106	27.2926
13.124	27.3123
13.142	27.345
13.16	27.3873
13.178	27.4337
13.196	27.4772
13.214	27.5112
13.232	27.5308
13.25	27.5334
13.268	27.5195
13.286	27.4913
13.304	27.4527
13.322	27.4079
13.34	27.3606
13.358	27.3136
13.376	27.2688
13.394	27.2273
13.412	27.19
13.43	27.1577
13.448	27.1313
13.466	27.1113
13.484	27.0978
13.502	27.0902
13.52	27.0868
13.538	27.085
13.556	27.0816
13.574	27.0734
13.592	27.058
13.61	27.0339
13.628	27.0007
13.646	26.9592
13.664	26.9111
13.682	26.8588
13.7	26.8048
13.718	26.7514
13.736	26.7007
13.754	26.6545
13.772	26.614
13.79	26.5797
13.808	26.5514
13.826	26.5285
13.844	26.5098
13.862	26.4934
13.88	26.4775
13.898	26.4602
13.916	26.4399
13.934	26.4159
13.952	26.3876
13.97	26.3553
13.988	26.3199
14.006	26.2823
14.024	26.2437
14.042	26.2051
14.06	26.1674
14.078	26.131
14.096	26.0964
14.114	26.0641
14.132	26.0347
14.15	26.0091
14.168	25.9886
14.186	25.9747
14.204	25.9689
14.222	25.9725
14.24	25.9864
14.258	26.0111
14.276	26.0461
14.294	26.0902
14.312	26.1417
14.33	26.1982
14.348	26.2571
14.366	26.3156
14.384	26.3707
14.402	26.4196
14.42	26.4595
14.438	26.4884
14.456	26.5045
14.474	26.5069
14.492	26.4953
14.51	26.4706
14.528	26.4347
14.546	26.3903
14.564	26.3405
14.582	26.2889
14.6	26.2387
14.618	26.1932
14.636	26.1546
14.654	26.1242
14.672	26.1019
14.69	26.0871
14.708	26.0781
14.726	26.0723
14.744	26.0666
14.762	26.0582
14.78	26.0443
14.798	26.023
14.816	25.9928
14.834	25.9534
14.852	25.9051
14.87	25.8495
14.888	25.7889
14.906	25.7259
14.924	25.6635
14.942	25.605
14.96	25.5528
14.978	25.5085
14.996	25.473
15.014	25.4463
15.032	25.4272
15.05	25.4137
15.068	25.4034
15.086	25.3938
15.104	25.3828
15.122	25.3681
15.14	25.3492
15.158	25.3263
15.176	25.3002
15.194	25.2727
15.212	25.2466
15.23	25.2242
15.248	25.2076
15.266	25.1986
15.284	25.1984
15.302	25.2071
15.32	25.2238
15.338	25.247
15.356	25.2743
15.374	25.3029
15.392	25.3301
15.41	25.3536
15.428	25.3709
15.446	25.3804
15.464	25.381
15.482	25.3724
15.5	25.3549
15.518	25.33
15.536	25.2998
15.554	25.2663
15.572	25.2322
15.59	25.2006
15.608	25.1744
15.626	25.1555
15.644	25.1464
15.662	25.1483
15.68	25.1612
15.698	25.1847
15.716	25.2173
15.734	25.2563
15.752	25.2991
15.77	25.3429
15.788	25.3839
15.806	25.4198
15.824	25.4488
15.842	25.4694
15.86	25.4813
15.878	25.4853
15.896	25.4821
15.914	25.4738
15.932	25.4623
15.95	25.4491
15.968	25.4358
15.986	25.4234
16.004	25.4122
16.022	25.4017
16.04	25.3914
16.058	25.3796
16.076	25.365
16.094	25.3459
16.112	25.3206
16.13	25.2879
16.148	25.2468
16.166	25.1968
16.184	25.1378
16.202	25.0699
16.22	24.994
16.238	24.9113
16.256	24.8227
16.274	24.7307
16.292	24.6367
16.31	24.5426
16.328	24.451
16.346	24.3642
16.364	24.2839
16.382	24.2126
16.4	24.1519
16.418	24.1028
16.436	24.0661
16.454	24.0417
16.472	24.0292
16.49	24.0271
16.508	24.0336
16.526	24.0473
16.544	24.0648
16.562	24.0838
16.58	24.1024
16.598	24.1175
16.616	24.1279
16.634	24.1324
16.652	24.1297
16.67	24.1199
16.688	24.1032
16.706	24.0802
16.724	24.0518
16.742	24.0191
16.76	23.9836
16.778	23.9462
16.796	23.9084
16.814	23.8715
16.832	23.836
16.85	23.8034
16.868	23.7745
16.886	23.75
16.904	23.7313
16.922	23.7191
16.94	23.7143
16.958	23.718
16.976	23.7305
16.994	23.7529
17.012	23.785
17.03	23.827
17.048	23.8777
17.066	23.9361
17.084	24.0008
17.102	24.0689
17.12	24.1392
17.138	24.2076
17.156	24.272
17.174	24.33
17.192	24.3781
17.21	24.4155
17.228	24.4399
17.246	24.4513
17.264	24.4492
17.282	24.4349
17.3	24.4093
17.318	24.3746
17.336	24.3334
17.354	24.2873
17.372	24.2404
17.39	24.194
17.408	24.151
17.426	24.1131
17.444	24.0815
17.462	24.0571
17.48	24.0401
17.498	24.0305
17.516	24.0273
17.534	24.0301
17.552	24.037
17.57	24.0473
17.588	24.059
17.606	24.0715
17.624	24.0831
17.642	24.0933
17.66	24.1017
17.678	24.1076
17.696	24.1112
17.714	24.1128
17.732	24.113
17.75	24.1121
17.768	24.1116
17.786	24.1118
17.804	24.114
17.822	24.1187
17.84	24.1267
17.858	24.1382
17.876	24.1536
17.894	24.1724
17.912	24.1947
17.93	24.2192
17.948	24.2456
17.966	24.2721
17.984	24.2981
18.002	24.3218
18.02	24.3421
18.038	24.3578
18.056	24.3676
18.074	24.371
18.092	24.3668
18.11	24.3548
18.128	24.3348
18.146	24.3069
18.164	24.2714
18.182	24.2289
18.2	24.18
18.218	24.126
18.236	24.0675
18.254	24.0062
18.272	23.9425
18.29	23.8786
18.308	23.8146
18.326	23.7524
18.344	23.6922
18.362	23.6353
18.38	23.5819
18.398	23.5326
18.416	23.4876
18.434	23.447
18.452	23.4108
18.47	23.3789
18.488	23.3508
18.506	23.3263
18.524	23.3048
18.542	23.2861
18.56	23.2692
18.578	23.254
18.596	23.2399
18.614	23.2267
18.632	23.2139
18.65	23.2015
18.668	23.1892
18.686	23.1772
18.704	23.1654
18.722	23.1537
18.74	23.1424
18.758	23.1317
18.776	23.1217
18.794	23.1124
18.812	23.1043
18.83	23.0972
18.848	23.0913
18.866	23.0867
18.884	23.0835
18.902	23.0819
18.92	23.0821
18.938	23.0843
18.956	23.0885
18.974	23.0951
18.992	23.1042
19.01	23.1158
19.028	23.1301
19.046	23.147
19.064	23.1663
19.082	23.1879
19.1	23.2114
19.118	23.2364
19.136	23.2622
19.154	23.2884
19.172	23.3139
19.19	23.3386
19.208	23.3612
19.226	23.3816
19.244	23.3988
19.262	23.4129
19.28	23.4231
19.298	23.4297
19.316	23.4327
19.334	23.4321
19.352	23.4286
19.37	23.4222
19.388	23.4141
19.406	23.4042
19.424	23.3939
19.442	23.3831
19.46	23.3731
19.478	23.3641
19.496	23.3566
19.514	23.3508
19.532	23.347
19.55	23.3453
19.568	23.3453
19.586	23.3468
19.604	23.3496
19.622	23.353
19.64	23.3568
19.658	23.3599
19.676	23.3623
19.694	23.363
19.712	23.362
19.73	23.3584
19.748	23.3522
19.766	23.343
19.784	23.3307
19.802	23.3153
19.82	23.2967
19.838	23.2751
19.856	23.2506
19.874	23.2235
19.892	23.1945
19.91	23.1635
19.928	23.1317
19.946	23.0991
19.964	23.0669
19.982	23.0353
20	23.005
20.018	22.9766
20.036	22.9504
20.054	22.9274
20.072	22.9074
20.09	22.8914
20.108	22.8792
20.126	22.8713
20.144	22.8678
20.162	22.8684
20.18	22.8732
20.198	22.8819
20.216	22.8942
20.234	22.9099
20.252	22.9279
20.27	22.9483
20.288	22.9696
20.306	22.992
20.324	23.014
20.342	23.0347
20.36	23.0537
20.378	23.069
20.396	23.081
20.414	23.0874
20.432	23.0884
20.45	23.0826
20.468	23.0694
20.486	23.0486
20.504	23.0194
20.522	22.9821
20.54	22.9367
20.558	22.8829
20.576	22.8222
20.594	22.7546
20.612	22.6814
20.63	22.6047
20.648	22.524
20.666	22.4434
20.684	22.3621
20.702	22.2832
20.72	22.2087
20.738	22.1387
20.756	22.0765
20.774	22.0215
20.792	21.9758
20.81	21.9403
20.828	21.9143
20.846	21.8985
20.864	21.8925
20.882	21.8942
20.9	21.9046
20.918	21.9204
20.936	21.94
20.954	21.9631
20.972	21.9847
20.99	22.0059
21.008	22.0225
21.026	22.0329
21.044	22.0366
21.062	22.03
21.08	22.014
21.098	21.987
21.116	21.9483
21.134	21.8989
21.152	21.8393
21.17	21.7692
21.188	21.6922
21.206	21.6078
21.224	21.5184
21.242	21.4281
21.26	21.3354
21.278	21.2459
21.296	21.16
21.314	21.0792
21.332	21.0076
21.35	20.9439
21.368	20.891
21.386	20.8499
21.404	20.82
21.422	20.8022
21.44	20.7966
21.458	20.8019
21.476	20.8179
21.494	20.8441
21.512	20.8778
21.53	20.9197
21.548	20.9673
21.566	21.0187
21.584	21.0744
21.602	21.1312
21.62	21.1891
21.638	21.2473
21.656	21.3037
21.674	21.3589
21.692	21.412
21.71	21.4625
21.728	21.5107
21.746	21.5564
21.764	21.5995
21.782	21.6405
21.8	21.6796
21.818	21.7168
21.836	21.7525
21.854	21.7868
21.872	21.8196
21.89	21.851
21.908	21.8813
21.926	21.9097
21.944	21.9363
21.962	21.9609
21.98	21.9827
21.998	22.0018
22.016	22.0178
22.034	22.0296
22.052	22.0375
22.07	22.0413
22.088	22.0404
22.106	22.035
22.124	22.0258
22.142	22.0125
22.16	21.9957
22.178	21.977
22.196	21.9556
22.214	21.9331
22.232	21.9117
22.25	21.8902
22.268	21.871
22.286	21.8553
22.304	21.8425
22.322	21.8344
22.34	21.8315
22.358	21.8334
22.376	21.841
22.394	21.8544
22.412	21.873
22.43	21.8964
22.448	21.9251
22.466	21.9575
22.484	21.9924
22.502	22.0307
22.52	22.0698
22.538	22.1088
22.556	22.1481
22.574	22.1853
22.592	22.2201
22.61	22.2526
22.628	22.281
22.646	22.3054
22.664	22.3259
22.682	22.342
22.7	22.3536
22.718	22.3614
22.736	22.366
22.754	22.3669
22.772	22.3654
22.79	22.3623
22.808	22.3571
22.826	22.3513
22.844	22.3457
22.862	22.3398
22.88	22.3351
22.898	22.3324
22.916	22.3313
22.934	22.3325
22.952	22.3366
22.97	22.3431
22.988	22.352
23.006	22.3636
23.024	22.3776
23.042	22.3925
23.06	22.4085
23.078	22.4254
23.096	22.4418
23.114	22.4581
23.132	22.4738
23.15	22.487
23.168	22.4978
23.186	22.5061
23.204	22.5099
23.222	22.5099
23.24	22.5055
23.258	22.495
23.276	22.4786
23.294	22.4561
23.312	22.4264
23.33	22.3896
23.348	22.3455
23.366	22.2936
23.384	22.2339
23.402	22.1664
23.42	22.0908
23.438	22.0066
23.456	21.9144
23.474	21.8152
23.492	21.7086
23.51	21.5951
23.528	21.477
23.546	21.3542
23.564	21.2266
23.582	21.0981
23.6	20.9696
23.618	20.8401
23.636	20.7141
23.654	20.5938
23.672	20.4769
23.69	20.3684
23.708	20.2714
23.726	20.1833
23.744	20.1079
23.762	20.0485
23.78	20.0031
23.798	19.9735
23.816	19.9624
23.834	19.969
23.852	19.9932
23.87	20.0356
23.888	20.097
23.906	20.1758
23.924	20.2699
23.942	20.3805
23.96	20.5067
23.978	20.6433
23.996	20.7897
24.014	20.9473
24.032	21.1098
24.05	21.2737
24.068	21.4428
24.086	21.6105
24.104	21.7709
24.122	21.9285
24.14	22.0785
24.158	22.2135
24.176	22.3364
24.194	22.4456
24.212	22.5345
24.23	22.6022
24.248	22.6507
24.266	22.6756
24.284	22.6744
24.302	22.6491
24.32	22.5987
24.338	22.5217
24.356	22.4182
24.374	22.2895
24.392	22.1366
24.41	21.9582
24.428	21.7556
24.446	21.5328
24.464	21.2904
24.482	21.0265
24.5	20.7475
24.518	20.4587
24.536	20.1551
24.554	19.8422
24.572	19.5279
24.59	19.2095
24.608	18.888
24.626	18.5709
24.644	18.2613
24.662	17.9552
24.68	17.6582
24.698	17.3756
24.716	17.1039
24.734	16.8453
24.752	16.6046
24.77	16.3824
24.788	16.177
24.806	15.9902
24.824	15.8233
24.842	15.6759
24.86	15.547
24.878	15.4355
24.896	15.3431
24.914	15.2682
24.932	15.2077
24.95	15.1603
24.968	15.1286
24.986	15.1075
25.004	15.0916
25.022	15.0838
25.04	15.0827
25.058	15.0831
25.076	15.0829
25.094	15.0846
25.112	15.0857
25.13	15.0833
25.148	15.0783
25.166	15.0709
25.184	15.0597
25.202	15.0443
25.22	15.0254
25.238	15.0024
25.256	14.9748
25.274	14.9413
25.292	14.9035
25.31	14.8641
25.328	14.824
25.346	14.7805
25.364	14.7383
25.382	14.7026
25.4	14.6718
25.418	14.6456
25.436	14.6284
25.454	14.6238
25.472	14.6291
25.49	14.6452
25.508	14.6743
25.526	14.7165
25.544	14.7708
25.562	14.8387
25.58	14.9217
25.598	15.0192
25.616	15.1311
25.634	15.2579
25.652	15.4005
25.67	15.5596
25.688	15.7324
25.706	15.9159
25.724	16.1112
25.742	16.3189
25.76	16.5341
25.778	16.7521
25.796	16.9763
25.814	17.2051
25.832	17.4337
25.85	17.6589
25.868	17.8842
25.886	18.1072
25.904	18.3249
25.922	18.5361
25.94	18.7427
25.958	18.9436
25.976	19.1377
25.994	19.324
26.012	19.5036
26.03	19.6786
26.048	19.8507
26.066	20.0176
26.084	20.181
26.102	20.3439
26.12	20.5076
26.138	20.669
26.156	20.8317
26.174	21.0003
26.192	21.1753
26.21	21.3533
26.228	21.5399
26.246	21.7406
26.264	21.955
26.282	22.1807
26.3	22.4223
26.318	22.6839
26.336	22.9641
26.354	23.2621
26.372	23.5806
26.39	23.9223
26.408	24.288
26.426	24.6752
26.444	25.0815
26.462	25.5052
26.48	25.949
26.498	26.4106
26.516	26.8862
26.534	27.374
26.552	27.8813
26.57	28.3995
26.588	28.9175
26.606	29.4295
26.624	29.9482
26.642	30.4612
26.66	30.953
26.678	31.4172
26.696	31.8699
26.714	32.2947
26.732	32.6717
26.75	32.9926
26.768	33.2745
26.786	33.5033
26.804	33.662
26.822	33.7443
26.84	33.765
26.858	33.7115
26.876	33.5692
26.894	33.3309
26.912	33.0083
26.93	32.5956
26.948	32.086
26.966	31.4217
26.984	30.5294
27.002	29.6086
27.02	28.8755
27.028	28.6866