File: Bakgrunnsmateriale/MATLAB/FTIR/ftir_data/LPE453/Mapping_121/LPE453_t75_cm-1.asc
PE IR       SPECTRUM    SPECTRUM    ASCII       PEDS        1.60
  -1
LPEADA~1.ASC
17/05/16
20:31:57.00
17/05/16
20:31:57.00
tln
$LPE453_t0075$<tbV0>[-7.8,2.6,8.0,0.0,27,1,0]
370
64

2002,4.07
MIRTGS : RIGHTBACK : INTERNAL 2
MIR : ON : INTERNAL 2
OPTKBR

0.200000
8
8.000000
FILLER
RATIO
SPECTRUM
UNLOCKED 256

DOUBLE
64
COMBINED
1
0
0

1.000000
RATIO

1
0
TRUE
51149
0
LEFT NOT FITTED RIGHT NOT FITTED 0
NONE
NONE
15600
12
4.427000
51148
TRUE
1 0 8 72 0 0 0 0

15798

#HDR
-1
-1
#GR
CM-1
%T
2.38419e-05
0.0
5000
-1.000000
4631
8
45.2929
-13.88
#DATA
5000	0.034594
4996	0.010180
4992	0.235533
4988	0.531387
4984	0.712227
4980	0.596785
4976	0.354886
4972	0.166678
4968	0.165271
4964	0.165987
4960	-0.237178
4956	-0.498199
4952	-0.261521
4948	0.019335
4944	0.022149
4940	-0.038456
4936	0.261092
4932	0.463533
4928	0.250387
4924	0.073027
4920	0.059723
4916	0.038480
4912	-0.111985
4908	-0.119590
4904	0.129413
4900	0.263237
4896	0.308394
4892	0.346493
4888	0.220298
4884	0.111150
4880	0.126385
4876	0.048661
4872	-0.041770
4868	-0.020694
4864	-0.090694
4860	-0.186634
4856	0.012111
4852	0.233340
4848	0.198030
4844	0.231003
4840	0.404381
4836	0.460100
4832	0.295066
4828	0.045633
4824	0.119447
4820	0.332832
4816	0.297069
4812	0.310325
4808	0.347208
4804	0.180482
4800	-0.145292
4796	-0.469803
4792	-0.476598
4788	-0.232100
4784	-0.030970
4780	0.066542
4776	0.060081
4772	0.091505
4768	0.294589
4764	0.257205
4760	-0.074028
4756	-0.174975
4752	-0.016069
4748	0.369977
4744	0.490450
4740	0.218844
4736	0.682497
4732	1.591038
4728	1.820731
4724	1.614546
4720	1.394629
4716	1.212573
4712	1.228666
4708	1.254224
4704	0.726222
4700	0.175738
4696	0.406765
4692	0.665879
4688	0.599861
4684	0.595569
4680	0.647854
4676	1.006245
4672	1.355934
4668	1.317381
4664	1.383423
4660	1.319766
4656	0.902175
4652	0.543022
4648	0.367760
4644	0.652360
4640	0.878453
4636	0.283837
4632	-0.346016
4628	-0.158023
4624	0.287151
4620	0.534510
4616	0.538492
4612	0.333881
4608	0.202465
4604	0.255966
4600	0.279450
4596	0.029087
4592	-0.023031
4588	0.166034
4584	0.186324
4580	0.122165
4576	0.096273
4572	0.058174
4568	-0.022435
4564	-0.020790
4560	0.010943
4556	0.195240
4552	0.509262
4548	0.309371
4544	-0.234746
4540	-0.474786
4536	-0.473713
4532	-0.316333
4528	-0.241470
4524	-0.519466
4520	-0.796675
4516	-0.579214
4512	-0.300884
4508	-0.755238
4504	-5.003166
4500	-12.3345
4496	-12.1272
4492	1.538324
4488	15.2301
4484	16.1944
4480	11.0306
4476	4.900646
4472	0.844860
4468	0.337243
4464	0.379085
4460	0.350713
4456	0.470757
4452	0.568795
4448	0.398278
4444	0.072360
4440	-0.165557
4436	-0.264263
4432	-0.255990
4428	-0.124812
4424	0.217914
4420	0.320434
4416	0.125408
4412	-0.073957
4408	-0.229358
4404	-0.393033
4400	-0.378155
4396	-0.163817
4392	-0.163936
4388	-0.336194
4384	-0.276851
4380	-0.072479
4376	-0.040245
4372	-0.064516
4368	-0.016832
4364	0.042295
4360	0.135183
4356	0.075745
4352	-0.055503
4348	0.025177
4344	0.095605
4340	0.006842
4336	-0.013852
4332	0.114059
4328	0.109934
4324	-0.139045
4320	-0.179791
4316	0.101280
4312	0.171232
4308	0.053548
4304	0.002264
4300	0.005054
4296	0.018215
4292	0.017142
4288	0.115203
4284	0.240945
4280	0.176548
4276	-0.011038
4272	-0.011801
4268	0.241637
4264	0.385165
4260	0.325393
4256	0.140166
4252	-0.036621
4248	0.097131
4244	0.312185
4240	0.237631
4236	-0.020909
4232	-0.157999
4228	-0.082278
4224	-0.048899
4220	-0.112509
4216	-0.075650
4212	0.028395
4208	0.075268
4204	0.021457
4200	-0.081872
4196	-0.085210
4192	0.094938
4188	0.159335
4184	-0.106811
4180	-0.268340
4176	-0.047969
4172	0.315499
4168	0.412702
4164	0.240206
4160	0.060367
4156	-0.018548
4152	0.057911
4148	0.152659
4144	0.121593
4140	-0.034093
4136	-0.085473
4132	0.048494
4128	0.173521
4124	0.206065
4120	0.157642
4116	0.124025
4112	0.118255
4108	0.139355
4104	0.168299
4100	0.096583
4096	0.056934
4092	0.117468
4088	0.149774
4084	0.105619
4080	0.002479
4076	-0.055932
4072	-0.047469
4068	0.005006
4064	0.057768
4060	0.075078
4056	0.088286
4052	0.109004
4048	0.152373
4044	0.132012
4040	0.063776
4036	0.111222
4032	0.215053
4028	0.229501
4024	0.140810
4020	-0.068831
4016	-0.266933
4012	-0.260496
4008	-0.179839
4004	-0.135040
4000	-0.085473
3996	0.022077
3992	0.137305
3988	0.117230
3984	0.013065
3980	0.003576
3976	0.078678
3972	0.100922
3968	0.069355
3964	0.059294
3960	0.126600
3956	0.195002
3952	0.157904
3948	0.024509
3944	-0.071549
3940	-0.058245
3936	-0.034165
3932	0.035667
3928	0.097560
3924	0.050163
3920	0.048232
3916	0.109863
3912	0.111985
3908	0.145053
3904	0.175929
3900	0.130414
3896	0.033307
3892	-0.064373
3888	-0.075173
3884	-0.017905
3880	0.055146
3876	0.050091
3872	-0.068950
3868	-0.178313
3864	-0.169491
3860	-0.079298
3856	0.036168
3852	0.157427
3848	0.163483
3844	0.100207
3840	0.132179
3836	0.182318
3832	0.116729
3828	-0.030875
3824	-0.164985
3820	-0.218534
3816	-0.190424
3812	-0.148892
3808	-0.051021
3804	0.115537
3800	0.239777
3796	0.240707
3792	0.117945
3788	0.019145
3784	0.066542
3780	0.107502
3776	0.003457
3772	-0.131583
3768	-0.149822
3764	-0.089287
3760	-0.012111
3756	0.077581
3752	0.088000
3748	0.031232
3744	0.027465
3740	0.113296
3736	0.196361
3732	0.177812
3728	0.101375
3724	0.073218
3720	0.104761
3716	0.126028
3712	0.147366
3708	0.145530
3704	0.094699
3700	0.061297
3696	0.053048
3692	0.030422
3688	0.008964
3684	0.087547
3680	0.263404
3676	0.353765
3672	0.243282
3668	0.057959
3664	-0.027537
3660	-0.027203
3656	0.011897
3652	0.029063
3648	-0.003385
3644	0.055623
3640	0.119781
3636	0.041723
3632	-0.044012
3628	-0.087785
3624	-0.102782
3620	0.002002
3616	0.190448
3612	0.207853
3608	0.023627
3604	-0.038480
3600	0.043773
3596	0.055718
3592	0.042772
3588	0.073599
3584	0.085186
3580	0.034832
3576	-0.031113
3572	0.004076
3568	0.089335
3564	0.090217
3560	0.017404
3556	0.026941
3552	0.157356
3548	0.195455
3544	0.088167
3540	-0.032496
3536	-0.074028
3532	-0.003695
3528	0.111627
3524	0.119090
3520	0.086426
3516	0.179100
3512	0.211334
3508	0.049352
3504	-0.107431
3500	-0.087738
3496	0.038075
3492	0.101327
3488	0.090527
3484	0.094199
3480	0.067949
3476	-0.002622
3472	0.012803
3468	0.070095
3464	0.092148
3460	0.112581
3456	0.130152
3452	0.162506
3448	0.118732
3444	-0.009703
3440	-0.037622
3436	-0.019216
3432	-0.014233
3428	0.042629
3424	0.077009
3420	0.097036
3416	0.149083
3412	0.185322
3408	0.200390
3404	0.157284
3400	0.045657
3396	-0.023102
3392	0.009083
3388	0.089383
3384	0.147724
3380	0.174999
3376	0.143456
3372	0.093245
3368	0.093412
3364	0.064015
3360	0.053668
3356	0.112104
3352	0.164246
3348	0.216555
3344	0.210881
3340	0.125932
3336	0.043630
3332	-0.006699
3328	-0.051546
3324	-0.106644
3320	-0.046539
3316	0.092220
3312	0.130939
3308	0.074648
3304	-0.002741
3300	-0.033378
3296	-0.038123
3292	-0.048732
3288	-0.059151
3284	-0.068068
3280	-0.058388
3276	-0.047731
3272	-0.045013
3268	-0.037384
3264	-0.006937
3260	0.095725
3256	0.173234
3252	0.116491
3248	0.113797
3244	0.205183
3240	0.166797
3236	0.031447
3232	-0.008273
3228	0.036168
3224	0.034451
3220	-0.005507
3216	0.033330
3212	0.131797
3208	0.086808
3204	-0.139689
3200	-0.220799
3196	-0.078201
3192	-0.011134
3188	-0.061559
3184	-0.065374
3180	-0.006055
3176	0.029945
3172	0.042843
3168	0.047922
3164	0.057864
3160	0.128078
3156	0.155019
3152	0.078749
3148	0.045132
3144	0.049781
3140	0.033926
3136	0.096702
3132	0.125503
3128	0.014019
3124	-0.071167
3120	-0.040888
3116	-0.023293
3112	-0.074768
3108	-0.075125
3104	0.003981
3100	0.098037
3096	0.111627
3092	0.041818
3088	0.020718
3084	0.049805
3080	0.069046
3076	0.079393
3072	0.089430
3068	0.112581
3064	0.115013
3060	0.066256
3056	0.015234
3052	-0.002050
3048	-0.008535
3044	-0.009608
3040	0.019192
3036	0.058722
3032	0.073647
3028	0.087189
3024	0.138998
3020	0.134658
3016	0.042557
3012	0.032830
3008	0.082111
3004	0.074863
3000	0.035023
2996	0.025272
2992	0.068712
2988	0.086593
2984	0.075483
2980	0.041818
2976	-0.024986
2972	-0.037074
2968	0.012183
2964	0.093722
2960	0.132346
2956	0.085473
2952	0.083875
2948	0.127148
2944	0.096011
2940	0.031828
2936	0.049328
2932	0.073552
2928	0.031566
2924	0.009369
2920	-0.025868
2916	-0.068736
2912	-0.010037
2908	0.116300
2904	0.173091
2900	0.110554
2896	0.027871
2892	0.018048
2888	0.039768
2884	0.010037
2880	-0.003314
2876	0.066852
2872	0.111126
2868	0.084590
2864	0.052762
2860	0.036382
2856	0.036954
2852	0.053429
2848	0.048685
2844	0.028610
2840	0.031971
2836	-0.018358
2832	-0.105094
2828	-0.071835
2824	0.024080
2820	0.029659
2816	-0.001096
2812	0.020003
2808	0.059914
2804	0.082230
2800	0.076985
2796	0.071334
2792	0.087451
2788	0.052762
2784	-0.047898
2780	-0.102448
2776	-0.056314
2772	0.007867
2768	0.045418
2764	0.077152
2760	0.049877
2756	0.012540
2752	0.053048
2748	0.066852
2744	0.023484
2740	0.001287
2736	0.010061
2732	0.047492
2728	0.090360
2724	0.146698
2720	0.141787
2716	0.000262
2712	-0.076103
2708	-0.066542
2704	-0.062179
2700	-0.044417
2696	-0.044822
2692	-0.045561
2688	-0.018644
2684	0.017094
2680	0.060510
2676	0.070405
2672	0.017261
2668	-0.027322
2664	-0.025582
2660	0.002455
2656	0.046420
2652	0.071954
2648	0.039911
2644	0.007081
2640	0.040817
2636	0.051879
2632	0.013399
2628	-0.007438
2624	0.009012
2620	0.039219
2616	0.052285
2612	0.051546
2608	0.030279
2604	-0.001072
2600	0.015497
2596	0.032401
2592	-0.001072
2588	-0.025749
2584	-0.022053
2580	-0.006246
2576	0.046992
2572	0.095391
2568	0.074458
2564	0.022888
2560	-0.005412
2556	0.013947
2552	0.007891
2548	-0.052762
2544	-0.065279
2540	-0.037765
2536	-0.033831
2532	-0.022792
2528	0.007343
2524	-0.028705
2520	-0.104665
2516	-0.074911
2512	0.035309
2508	0.113081
2504	0.128197
2500	0.089550
2496	0.056624
2492	0.052022
2488	-0.004887
2484	-0.081968
2480	-0.040555
2476	0.045633
2472	0.048589
2468	0.017523
2464	0.004720
2460	0.038671
2456	0.074100
2452	0.062489
2448	0.058960
2444	0.046563
2440	0.024223
2436	0.051522
2432	0.120902
2428	0.137615
2424	0.058341
2420	-0.011396
2416	-0.012183
2412	0.007128
2408	-0.002121
2404	-0.007009
2400	0.036478
2396	0.104141
2392	0.132369
2388	0.090312
2384	0.048518
2380	0.050640
2376	0.101447
2372	0.138449
2368	0.127005
2364	0.124645
2360	0.098991
2356	0.076580
2352	0.091958
2348	0.103473
2344	0.142502
2340	0.167036
2336	0.124573
2332	0.118446
2328	0.161862
2324	0.184321
2320	0.261926
2316	0.409102
2312	0.448179
2308	0.348496
2304	0.296378
2300	0.352931
2296	0.447034
2292	0.530195
2288	0.598502
2284	0.669908
2280	0.766539
2276	0.897336
2272	0.984835
2268	1.005601
2264	1.077461
2260	1.208114
2256	1.299071
2252	1.383113
2248	1.489639
2244	1.618146
2240	1.828145
2236	2.052259
2232	2.210259
2228	2.393603
2224	2.660632
2220	2.928590
2216	3.144454
2212	3.357362
2208	3.602004
2204	3.854966
2200	4.116725
2196	4.395580
2192	4.704928
2188	5.063199
2184	5.413556
2180	5.760669
2176	6.157612
2172	6.595373
2168	7.044672
2164	7.430887
2160	7.751750
2156	8.101654
2152	8.556985
2148	9.111213
2144	9.641194
2140	10.0641
2136	10.4809
2132	10.9824
2128	11.5148
2124	12.0257
2120	12.5332
2116	13.0378
2112	13.5378
2108	14.0749
2104	14.6236
2100	15.1656
2096	15.7189
2092	16.2169
2088	16.6929
2084	17.2428
2080	17.8618
2076	18.4379
2072	18.8148
2068	19.0694
2064	19.4831
2060	20.1359
2056	20.7582
2052	21.1796
2048	21.5393
2044	21.9123
2040	22.3053
2036	22.7586
2032	23.2208
2028	23.6342
2024	24.0288
2020	24.4416
2016	24.8397
2012	25.1994
2008	25.5459
2004	25.8639
2000	26.1609
1996	26.476
1992	26.7755
1988	27.0612
1984	27.3937
1980	27.7462
1976	28.0595
1972	28.371
1968	28.6989
1964	28.9342
1960	29.0628
1956	29.2237
1952	29.4423
1948	29.6585
1944	29.8787
1940	30.1224
1936	30.3597
1932	30.58
1928	30.8267
1924	31.0791
1920	31.2815
1916	31.431
1912	31.5457
1908	31.5971
1904	31.6294
1900	31.7653
1896	31.9671
1892	32.164
1888	32.3507
1884	32.4764
1880	32.5771
1876	32.7204
1872	32.8297
1868	32.9116
1864	33.0315
1860	33.1182
1856	33.1566
1852	33.2025
1848	33.2472
1844	33.2866
1840	33.3636
1836	33.4925
1832	33.6501
1828	33.8272
1824	33.9968
1820	34.0898
1816	34.1063
1812	34.1081
1808	34.1079
1804	34.0927
1800	34.0555
1796	34.0494
1792	34.1157
1788	34.1964
1784	34.2472
1780	34.2746
1776	34.3337
1772	34.4442
1768	34.5983
1764	34.7736
1760	34.8137
1756	34.679
1752	34.5426
1748	34.4841
1744	34.4334
1740	34.3814
1736	34.3989
1732	34.4578
1728	34.5557
1724	34.7253
1720	34.8718
1716	34.9184
1712	34.8992
1708	34.8881
1704	34.8461
1700	34.7201
1696	34.6416
1692	34.6612
1688	34.6791
1684	34.7035
1680	34.7828
1676	34.8874
1672	34.9513
1668	34.9588
1664	34.9824
1660	35.0273
1656	35.0345
1652	35.032
1648	34.9939
1644	34.8566
1640	34.6938
1636	34.6467
1632	34.7156
1628	34.7568
1624	34.7618
1620	34.8128
1616	34.9616
1612	35.1347
1608	35.1528
1604	35.0711
1600	34.9919
1596	34.8494
1592	34.7018
1588	34.6272
1584	34.5516
1580	34.4783
1576	34.5314
1572	34.72
1568	34.9029
1564	34.9939
1560	34.998
1556	34.9544
1552	34.9105
1548	34.8678
1544	34.8325
1540	34.7569
1536	34.6036
1532	34.4739
1528	34.4156
1524	34.4569
1520	34.5832
1516	34.669
1512	34.7515
1508	34.9072
1504	34.9868
1500	34.9112
1496	34.8093
1492	34.726
1488	34.654
1484	34.5804
1480	34.4547
1476	34.3317
1472	34.2759
1468	34.2947
1464	34.409
1460	34.6294
1456	34.8082
1452	34.821
1448	34.8408
1444	34.8778
1440	34.7665
1436	34.5844
1432	34.4474
1428	34.3556
1424	34.2781
1420	34.2396
1416	34.2976
1412	34.4066
1408	34.5056
1404	34.6194
1400	34.7246
1396	34.7515
1392	34.7502
1388	34.6737
1384	34.4277
1380	34.1967
1376	34.0735
1372	33.9522
1368	33.8714
1364	33.9024
1360	33.9944
1356	34.099
1352	34.2187
1348	34.3418
1344	34.4625
1340	34.5349
1336	34.523
1332	34.4316
1328	34.2207
1324	33.9823
1320	33.8517
1316	33.7974
1312	33.7738
1308	33.7922
1304	33.8915
1300	34.0161
1296	34.1183
1292	34.259
1288	34.3641
1284	34.3596
1280	34.2498
1276	34.056
1272	33.904
1268	33.796
1264	33.674
1260	33.6235
1256	33.6665
1252	33.749
1248	33.8436
1244	33.9296
1240	34.0525
1236	34.2182
1232	34.3183
1228	34.2936
1224	34.1249
1220	33.8904
1216	33.7137
1212	33.5739
1208	33.4165
1204	33.3382
1200	33.4028
1196	33.5351
1192	33.6755
1188	33.8346
1184	34.0136
1180	34.1128
1176	34.0689
1172	33.9566
1168	33.8077
1164	33.6263
1160	33.3942
1156	33.1417
1152	33.0002
1148	32.951
1144	33.0207
1140	33.2392
1136	33.4305
1132	33.5346
1128	33.6223
1124	33.6773
1120	33.6578
1116	33.5979
1112	33.4933
1108	33.2793
1104	33.0097
1100	32.8206
1096	32.7865
1092	32.8728
1088	32.958
1084	33.0733
1080	33.2825
1076	33.4606
1072	33.4862
1068	33.3748
1064	33.2802
1060	33.238
1056	33.068
1052	32.7172
1048	32.4238
1044	32.3422
1040	32.3305
1036	32.3528
1032	32.4887
1028	32.6462
1024	32.7564
1020	32.9122
1016	33.0371
1012	33.0048
1008	32.8914
1004	32.7732
1000	32.5998
996	 32.3385
992	 32.083
988	 31.9461
984	 31.9288
980	 31.9731
976	 32.1271
972	 32.36
968	 32.4776
964	 32.4913
960	 32.4957
956	 32.4444
952	 32.2816
948	 32.0622
944	 31.8947
940	 31.7341
936	 31.5386
932	 31.3458
928	 31.2047
924	 31.2324
920	 31.4292
916	 31.6719
912	 31.8712
908	 31.9451
904	 31.901
900	 31.8253
896	 31.6791
892	 31.4235
888	 31.1694
884	 31.0008
880	 30.9166
876	 30.8664
872	 30.8012
868	 30.8208
864	 30.9711
860	 31.1109
856	 31.2151
852	 31.3065
848	 31.3023
844	 31.2324
840	 31.0718
836	 30.7514
832	 30.4211
828	 30.277
824	 30.2693
820	 30.195
816	 30.0914
812	 30.1449
808	 30.374
804	 30.53
800	 30.5345
796	 30.4779
792	 30.3431
788	 30.2349
784	 30.0937
780	 29.7779
776	 29.4979
772	 29.3782
768	 29.2445
764	 29.1016
760	 29.2033
756	 29.5129
752	 29.6889
748	 29.6811
744	 29.6622
740	 29.6405
736	 29.5029
732	 29.3249
728	 29.0903
724	 28.6672
720	 28.2897
716	 28.155
712	 28.1293
708	 28.0802
704	 28.0939
700	 28.2221
696	 28.3037
692	 28.2702
688	 28.2693
684	 28.3317
680	 28.2882
676	 28.0823
672	 27.7719
668	 27.3742
664	 27.0899
660	 27.1594
656	 27.334
652	 27.303
648	 27.2257
644	 27.3015
640	 27.533
636	 27.7947
632	 27.7549
628	 27.3508
624	 26.9323
620	 26.6829
616	 26.4415
612	 26.2117
608	 26.1763
604	 26.1915
600	 26.113
596	 26.0392
592	 25.9937
588	 25.9955
584	 26.0357
580	 26.0867
576	 26.0821
572	 25.8352
568	 25.3539
564	 24.8907
560	 24.6034
556	 24.5417
552	 24.6708
548	 24.7225
544	 24.5304
540	 24.5804
536	 24.91
532	 24.8646
528	 24.7488
524	 24.6875
520	 24.2006
516	 23.7535
512	 23.7821
508	 23.9472
504	 23.8321
500	 23.3886
496	 23.1057
492	 23.3404
488	 23.7362
484	 23.7278
480	 23.4483
476	 23.3686
472	 23.3766
468	 23.2136
464	 22.891
460	 22.4315
456	 22.2931
452	 22.6256
448	 22.2431
444	 20.8563
440	 19.7454
436	 19.2556
432	 18.7183
428	 18.3461
424	 18.5881
420	 19.3056
416	 20.2494
412	 20.1072
408	 18.7234
404	 17.8254
400	 21.2311
396	 28.6611
392	 33.8524
388	 38.8551
384	 45.2929
380	 37.0055
376	 15.9059
372	 11.1958
370	 14.4263