File: Bakgrunnsmateriale/MATLAB/FTIR/ftir_data/LPE453/Mapping_121/LPE453_t94_cm-1.asc
PE IR       SPECTRUM    SPECTRUM    ASCII       PEDS        1.60
  -1
LPEB5B~1.ASC
17/05/16
22:06:40.00
17/05/16
22:06:40.00
tln
$LPE453_t0094$<tbV0>[0.0,7.8,8.0,0.0,27,1,0]
370
64

2002,4.07
MIRTGS : RIGHTBACK : INTERNAL 2
MIR : ON : INTERNAL 2
OPTKBR

0.200000
8
8.000000
FILLER
RATIO
SPECTRUM
UNLOCKED 256

DOUBLE
64
COMBINED
1
0
0

1.000000
RATIO

1
0
TRUE
51149
0
LEFT NOT FITTED RIGHT NOT FITTED 0
NONE
NONE
15600
12
4.427000
51148
TRUE
1 0 8 72 0 0 0 0

15798

#HDR
-1
-1
#GR
CM-1
%T
2.38419e-05
0.0
5000
-1.000000
4631
8
35.4467
-18.2271
#DATA
5000	0.232148
4996	0.414347
4992	0.504326
4988	0.385832
4984	0.084042
4980	-0.105285
4976	-0.356793
4972	-0.433158
4968	0.065398
4964	0.286984
4960	0.087451
4956	0.046253
4952	0.150084
4948	0.290966
4944	0.223922
4940	-0.074100
4936	-0.121808
4932	0.133657
4928	0.272250
4924	0.231909
4920	0.170111
4916	0.025629
4912	-0.148749
4908	-0.221204
4904	-0.157141
4900	0.084972
4896	0.180840
4892	0.016689
4888	-0.042271
4884	0.053858
4880	0.107550
4876	0.211715
4872	0.343775
4868	0.262212
4864	0.187444
4860	0.273680
4856	0.344014
4852	0.273513
4848	0.150394
4844	0.168466
4840	0.126242
4836	-0.101685
4832	-0.261259
4828	-0.273060
4824	-0.269508
4820	-0.221920
4816	-0.025343
4812	0.254106
4808	0.488948
4804	0.453352
4800	0.314927
4796	0.329351
4792	0.138688
4788	-0.177073
4784	-0.165438
4780	0.067448
4776	0.130009
4772	0.006055
4768	0.069475
4764	0.293684
4760	0.361442
4756	0.296545
4752	0.131964
4748	-0.158452
4744	-0.267982
4740	-0.159096
4736	-0.046110
4732	0.098633
4728	0.110197
4724	0.021886
4720	0.123620
4716	0.101089
4712	-0.181198
4708	-0.352907
4704	-0.314736
4700	-0.047636
4696	0.339603
4692	0.398564
4688	0.314998
4684	0.126075
4680	-0.296902
4676	-0.357675
4672	-0.384259
4668	-0.868058
4664	-0.791454
4660	0.206565
4656	0.544047
4652	0.207090
4648	0.586104
4644	0.795173
4640	0.714182
4636	1.002526
4632	0.461673
4628	-0.749349
4624	-0.615119
4620	0.464510
4616	0.971651
4612	1.355290
4608	1.450109
4604	0.242257
4600	-1.008367
4596	-1.109743
4592	-0.570559
4588	-0.020051
4584	0.525474
4580	0.920534
4576	0.710034
4572	0.394201
4568	0.472450
4564	0.450325
4560	-0.047707
4556	-0.696063
4552	-1.434111
4548	-1.937460
4544	-1.755905
4540	-1.273679
4536	-1.271772
4532	-1.617360
4528	-1.094412
4524	-0.030088
4520	0.601649
4516	0.145864
4512	-1.412057
4508	-1.405262
4504	3.744244
4500	8.129143
4496	8.911323
4492	13.9067
4488	13.7834
4484	3.802490
4480	-1.005744
4476	-0.641727
4472	-1.045560
4468	-0.888013
4464	-0.640630
4460	-0.809407
4456	-0.780749
4452	-0.282669
4448	-0.148582
4444	-0.263237
4440	-0.395178
4436	-0.437092
4432	-0.073885
4428	0.030422
4424	-0.359177
4420	-0.477981
4416	-0.274872
4412	0.041103
4408	0.428223
4404	0.411057
4400	0.237584
4396	0.378584
4392	0.456047
4388	0.492548
4384	0.662612
4380	0.534963
4376	0.134325
4372	-0.039815
4368	0.178933
4364	0.456595
4360	0.506353
4356	0.332450
4352	-0.032877
4348	-0.208687
4344	0.048923
4340	0.224566
4336	0.228929
4332	0.379705
4328	0.373578
4324	0.093984
4320	0.005507
4316	0.072002
4312	0.009870
4308	-0.036096
4304	-0.019860
4300	-0.030159
4296	-0.021362
4292	-0.054001
4288	-0.100684
4284	-0.052976
4280	0.025725
4276	0.038552
4272	-0.002813
4268	-0.059413
4264	-0.108718
4260	-0.103354
4256	-0.082087
4252	0.024342
4248	0.132918
4244	0.010371
4240	-0.039792
4236	0.191140
4232	0.368237
4228	0.317406
4224	0.186467
4220	0.165343
4216	0.180673
4212	0.141215
4208	0.160932
4204	0.295615
4200	0.430488
4196	0.381922
4192	0.250887
4188	0.194740
4184	0.238990
4180	0.363206
4176	0.279641
4172	-0.006818
4168	-0.132989
4164	0.021171
4160	0.208783
4156	0.148987
4152	0.028038
4148	0.064396
4144	0.176215
4140	0.321245
4136	0.427341
4132	0.397014
4128	0.295686
4124	0.145554
4120	-0.015139
4116	-0.062537
4112	-0.012707
4108	-0.004434
4104	-0.082254
4100	-0.091242
4096	0.023198
4092	0.154376
4088	0.155568
4084	0.017929
4080	-0.044202
4076	-0.030398
4072	0.010108
4068	0.096702
4064	0.121283
4060	0.108408
4056	0.161075
4052	0.203466
4048	0.248479
4044	0.372862
4040	0.397467
4036	0.270843
4032	0.174188
4028	0.108695
4024	0.082850
4020	0.179791
4016	0.210928
4012	0.129604
4008	0.166249
4004	0.247955
4000	0.214958
3996	0.078368
3992	0.019240
3988	0.128507
3984	0.213742
3980	0.209140
3976	0.104069
3972	-0.025010
3968	0.004482
3964	0.071406
3960	0.095582
3956	0.150823
3952	0.155186
3948	0.139117
3944	0.171136
3940	0.160121
3936	0.091242
3932	0.001096
3928	-0.074148
3924	-0.112581
3920	-0.049281
3916	0.106954
3912	0.106835
3908	0.017166
3904	0.084924
3900	0.178718
3896	0.242853
3892	0.314736
3888	0.222682
3884	0.063467
3880	0.004124
3876	-0.023555
3872	0.000834
3868	0.082969
3864	0.218200
3860	0.305819
3856	0.238442
3852	0.224494
3848	0.290346
3844	0.129866
3840	-0.107455
3836	-0.095486
3832	-0.001430
3828	-0.005578
3824	-0.043320
3820	0.037646
3816	0.177669
3812	0.149869
3808	0.093007
3804	0.141167
3800	0.146102
3796	0.106787
3792	0.069808
3788	0.047564
3784	0.088977
3780	0.146365
3776	0.134277
3772	0.076818
3768	0.086522
3764	0.131487
3760	0.082802
3756	-0.009584
3752	-0.022029
3748	0.049257
3744	0.096607
3740	0.077819
3736	0.014185
3732	-0.064706
3728	-0.032901
3724	0.060987
3720	0.125956
3716	0.199842
3712	0.215291
3708	0.135040
3704	0.088667
3700	0.078463
3696	0.011801
3692	-0.014853
3688	0.024127
3684	0.029683
3680	0.076985
3676	0.191378
3672	0.161218
3668	0.025892
3664	0.021266
3660	0.072073
3656	0.036978
3652	0.008654
3648	0.036525
3644	0.013089
3640	-0.068974
3636	-0.143980
3632	-0.145912
3628	-0.094795
3624	-0.070548
3620	-0.083971
3616	-0.117206
3612	-0.107550
3608	0.015878
3604	0.188946
3600	0.264525
3596	0.215744
3592	0.134253
3588	0.100183
3584	0.109195
3580	0.065612
3576	-0.014972
3572	-0.061535
3568	-0.116419
3564	-0.159525
3560	-0.170373
3556	-0.145840
3552	-0.005125
3548	0.119209
3544	0.100350
3540	0.127100
3536	0.167250
3532	0.035381
3528	-0.076174
3524	-0.044465
3520	-0.017023
3516	-0.003719
3512	0.027370
3508	0.076031
3504	0.178337
3500	0.252246
3496	0.236201
3492	0.205636
3488	0.152683
3484	0.077199
3480	-0.008368
3476	-0.096035
3472	-0.106596
3468	-0.072240
3464	-0.016069
3460	0.071811
3456	0.104999
3452	0.066685
3448	0.011825
3444	-0.026750
3440	-0.025296
3436	-0.042462
3432	-0.096964
3428	-0.085616
3424	-0.021243
3420	0.005006
3416	-0.011467
3412	-0.000214
3408	0.036382
3404	0.029110
3400	0.049376
3396	0.063800
3392	0.025701
3388	0.077462
3384	0.130319
3380	0.093722
3376	0.040626
3372	0.002813
3368	-0.007033
3364	0.008916
3360	0.041365
3356	0.072360
3352	0.120162
3348	0.158047
3344	0.105786
3340	-0.002527
3336	-0.049853
3332	0.022840
3328	0.090265
3324	0.043725
3320	0.016975
3316	0.091099
3312	0.215888
3308	0.311732
3304	0.284171
3300	0.175714
3296	0.125002
3292	0.153708
3288	0.201535
3284	0.188636
3280	0.127172
3276	0.119447
3272	0.146007
3268	0.174713
3264	0.158190
3260	0.053453
3256	-0.019240
3252	0.040411
3248	0.128793
3244	0.090551
3240	0.029850
3236	0.036287
3232	0.066304
3228	0.087451
3224	0.072932
3220	0.062298
3216	0.022673
3212	-0.060939
3208	-0.092554
3204	-0.010132
3200	0.045561
3196	-0.015497
3192	-0.033116
3188	0.008010
3184	0.026011
3180	0.044488
3176	0.072336
3172	0.064969
3168	0.015568
3164	-0.026106
3160	0.028085
3156	0.148868
3152	0.142240
3148	0.043916
3144	0.002002
3140	-0.033068
3136	-0.013852
3132	0.077247
3128	0.119972
3124	0.133681
3120	0.105214
3116	0.044274
3112	0.031757
3108	0.037002
3104	0.012254
3100	-0.013160
3096	0.004148
3092	0.062561
3088	0.121951
3084	0.096678
3080	-0.018191
3076	-0.053620
3072	0.029802
3068	0.052690
3064	0.041437
3060	0.072836
3056	0.031471
3052	-0.019788
3048	0.004935
3044	0.027084
3040	0.054240
3036	0.095844
3032	0.053691
3028	-0.044465
3024	-0.070214
3020	-0.061178
3016	-0.067996
3012	-0.045228
3008	0.003981
3004	0.046324
3000	0.049471
2996	0.029110
2992	0.005626
2988	-0.028562
2984	-0.088191
2980	-0.094938
2976	0.006794
2972	0.118684
2968	0.127148
2964	0.054693
2960	0.030708
2956	0.059103
2952	0.047850
2948	-0.008869
2944	-0.001144
2940	0.018882
2936	-0.043869
2932	-0.075984
2928	-0.044250
2924	0.041961
2920	0.108885
2916	0.073719
2912	0.017666
2908	-0.014042
2904	-0.009083
2900	0.032234
2896	0.046610
2892	-0.007748
2888	-0.071883
2884	-0.068712
2880	-0.014352
2876	0.065279
2872	0.121378
2868	0.100159
2864	0.042390
2860	0.011968
2856	-0.016880
2852	-0.056433
2848	-0.034761
2844	0.012183
2840	0.025153
2836	0.033974
2832	0.057768
2828	0.061893
2824	0.059771
2820	0.062513
2816	0.005793
2812	-0.056481
2808	-0.041031
2804	0.024652
2800	0.061774
2796	0.022768
2792	-0.040125
2788	-0.049448
2784	0.017595
2780	0.097870
2776	0.113797
2772	0.077867
2768	0.043916
2764	0.001430
2760	-0.033164
2756	-0.053453
2752	-0.095009
2748	-0.078821
2744	-0.016927
2740	0.036144
2736	0.119066
2732	0.170469
2728	0.129532
2724	0.027632
2720	-0.042247
2716	-0.037288
2712	-0.021433
2708	0.002288
2704	0.061154
2700	0.101256
2696	0.086498
2692	0.063776
2688	0.064039
2684	0.069022
2680	0.055336
2676	0.029563
2672	0.007486
2668	0.001573
2664	0.019526
2660	0.051355
2656	0.068521
2652	0.038409
2648	0.014710
2644	0.017642
2640	-0.028443
2636	-0.062823
2632	-0.014281
2628	0.046634
2624	0.086069
2620	0.103330
2616	0.085306
2612	0.079298
2608	0.105381
2604	0.119209
2600	0.131773
2596	0.136041
2592	0.094556
2588	0.049209
2584	0.072836
2580	0.129652
2576	0.123476
2572	0.057029
2568	-0.000762
2564	0.020909
2560	0.101208
2556	0.150632
2552	0.120806
2548	0.034308
2544	-0.001668
2540	0.010490
2536	0.004291
2532	-0.019168
2528	-0.042295
2524	-0.027632
2520	-0.003457
2516	0.024986
2512	0.054144
2508	0.033807
2504	0.045037
2500	0.123214
2496	0.191926
2492	0.205969
2488	0.100994
2484	-0.047063
2480	-0.076889
2476	-0.005555
2472	0.065898
2468	0.096750
2464	0.082278
2460	0.029587
2456	-0.006175
2452	0.010299
2448	0.051355
2444	0.045108
2440	0.008463
2436	0.032711
2432	0.071191
2428	0.071263
2424	0.117135
2420	0.138926
2416	0.025820
2412	-0.028252
2408	0.032567
2404	0.052928
2400	0.081419
2396	0.145053
2392	0.157594
2388	0.147962
2384	0.152945
2380	0.148558
2376	0.125217
2372	0.084114
2368	0.066375
2364	0.088095
2360	0.072336
2356	0.056695
2352	0.090861
2348	0.094318
2344	0.102114
2340	0.190067
2336	0.301432
2332	0.365138
2328	0.390315
2324	0.425505
2320	0.486946
2316	0.538730
2312	0.559186
2308	0.565361
2304	0.595426
2300	0.652503
2296	0.705170
2292	0.761342
2288	0.812244
2284	0.869941
2280	0.980949
2276	1.114940
2272	1.219367
2268	1.304316
2264	1.393842
2260	1.491951
2256	1.633000
2252	1.840662
2248	2.069497
2244	2.277398
2240	2.417564
2236	2.511596
2232	2.709150
2228	2.993726
2224	3.234171
2220	3.452777
2216	3.713726
2212	3.999710
2208	4.255986
2204	4.498481
2200	4.766845
2196	5.069231
2192	5.422496
2188	5.826592
2184	6.231331
2180	6.613063
2176	7.025313
2172	7.457208
2168	7.868695
2164	8.312916
2160	8.810424
2156	9.304165
2152	9.754872
2148	10.1776
2144	10.6209
2140	11.0744
2136	11.543
2132	12.0551
2128	12.5681
2124	13.0757
2120	13.5767
2116	14.0527
2112	14.5665
2108	15.1524
2104	15.7257
2100	16.2476
2096	16.7383
2092	17.2111
2088	17.714
2084	18.2607
2080	18.7579
2076	19.1574
2072	19.5777
2068	20.0628
2064	20.5584
2060	21.0422
2056	21.4578
2052	21.8305
2048	22.271
2044	22.7811
2040	23.2705
2036	23.7212
2032	24.1495
2028	24.5186
2024	24.8098
2020	25.0911
2016	25.4516
2012	25.8151
2008	26.0788
2004	26.3558
2000	26.7304
1996	27.1181
1992	27.4733
1988	27.8033
1984	28.1128
1980	28.4147
1976	28.671
1972	28.8722
1968	29.0841
1964	29.2765
1960	29.4291
1956	29.602
1952	29.8047
1948	30.0456
1944	30.2989
1940	30.5474
1936	30.8037
1932	31.0391
1928	31.2459
1924	31.4505
1920	31.6201
1916	31.7217
1912	31.795
1908	31.8551
1904	31.9191
1900	32.0299
1896	32.1687
1892	32.3136
1888	32.4763
1884	32.671
1880	32.894
1876	33.0842
1872	33.2267
1868	33.3647
1864	33.4332
1860	33.3737
1856	33.2925
1852	33.2828
1848	33.3001
1844	33.3423
1840	33.4653
1836	33.6199
1832	33.7429
1828	33.8567
1824	33.9991
1820	34.1251
1816	34.1563
1812	34.1416
1808	34.1723
1804	34.2049
1800	34.1654
1796	34.0909
1792	34.0577
1788	34.1098
1784	34.2279
1780	34.3321
1776	34.3966
1772	34.4905
1768	34.6407
1764	34.7688
1760	34.77
1756	34.6774
1752	34.6012
1748	34.5647
1744	34.5675
1740	34.542
1736	34.458
1732	34.4305
1728	34.5549
1724	34.7479
1720	34.8857
1716	34.9759
1712	35.0494
1708	35.1247
1704	35.1226
1700	35.018
1696	34.93
1692	34.8584
1688	34.759
1684	34.6743
1680	34.6369
1676	34.6303
1672	34.6457
1668	34.7331
1664	34.9364
1660	35.1244
1656	35.181
1652	35.2099
1648	35.2525
1644	35.2445
1640	35.1597
1636	35.0045
1632	34.8608
1628	34.7983
1624	34.7826
1620	34.7903
1616	34.8152
1612	34.8646
1608	35.0161
1604	35.1998
1600	35.2581
1596	35.254
1592	35.2943
1588	35.3071
1584	35.2047
1580	35.0475
1576	34.8738
1572	34.6815
1568	34.5814
1564	34.604
1560	34.687
1556	34.82
1552	34.948
1548	35.0757
1544	35.2609
1540	35.4154
1536	35.4425
1532	35.3845
1528	35.2779
1524	35.1239
1520	34.9568
1516	34.8355
1512	34.7522
1508	34.6694
1504	34.6798
1500	34.8152
1496	34.9845
1492	35.1715
1488	35.3554
1484	35.4403
1480	35.3967
1476	35.2947
1472	35.2579
1468	35.2489
1464	35.1127
1460	34.8657
1456	34.6417
1452	34.543
1448	34.5706
1444	34.7158
1440	34.9087
1436	35.01
1432	35.0782
1428	35.179
1424	35.2519
1420	35.2425
1416	35.1231
1412	34.9197
1408	34.6987
1404	34.5577
1400	34.535
1396	34.5425
1392	34.5418
1388	34.5646
1384	34.6321
1380	34.7837
1376	34.9872
1372	35.151
1368	35.2046
1364	35.1614
1360	35.0919
1356	34.9767
1352	34.781
1348	34.559
1344	34.3635
1340	34.2305
1336	34.2365
1332	34.3161
1328	34.3735
1324	34.4748
1320	34.6308
1316	34.79
1312	34.913
1308	34.9559
1304	34.9188
1300	34.8228
1296	34.672
1292	34.4703
1288	34.2882
1284	34.1604
1280	34.0795
1276	34.0883
1272	34.1548
1268	34.2675
1264	34.4446
1260	34.6219
1256	34.7596
1252	34.8575
1248	34.859
1244	34.6922
1240	34.4779
1236	34.3407
1232	34.2022
1228	34.0881
1224	34.0423
1220	33.9876
1216	33.9583
1212	34.0233
1208	34.1716
1204	34.3488
1200	34.5057
1196	34.6233
1192	34.6864
1188	34.6614
1184	34.5448
1180	34.3697
1176	34.1329
1172	33.8922
1168	33.7161
1164	33.6182
1160	33.6462
1156	33.765
1152	33.9112
1148	34.0735
1144	34.2108
1140	34.3621
1136	34.5144
1132	34.5268
1128	34.383
1124	34.1642
1120	33.9181
1116	33.701
1112	33.5452
1108	33.4102
1104	33.3227
1100	33.3541
1096	33.5119
1092	33.7085
1088	33.8733
1084	34.0314
1080	34.13
1076	34.1464
1072	34.1242
1068	34.0281
1064	33.8025
1060	33.4937
1056	33.2888
1052	33.234
1048	33.2118
1044	33.2304
1040	33.3428
1036	33.4871
1032	33.5535
1028	33.608
1024	33.7128
1020	33.71
1016	33.715
1012	33.8023
1008	33.6824
1004	33.3775
1000	33.0351
996	 32.7241
992	 32.5572
988	 32.5314
984	 32.6144
980	 32.767
976	 32.9132
972	 33.0493
968	 33.2273
964	 33.4125
960	 33.5069
956	 33.4399
952	 33.1941
948	 32.8582
944	 32.5783
940	 32.373
936	 32.16
932	 32.0397
928	 32.1329
924	 32.248
920	 32.2843
916	 32.3898
912	 32.589
908	 32.7549
904	 32.8181
900	 32.7205
896	 32.444
892	 32.156
888	 31.9228
884	 31.7067
880	 31.5181
876	 31.3412
872	 31.2051
868	 31.1661
864	 31.3024
860	 31.5846
856	 31.8837
852	 32.0736
848	 32.1566
844	 32.1784
840	 32.0252
836	 31.7851
832	 31.5747
828	 31.2958
824	 30.9934
820	 30.7724
816	 30.6136
812	 30.5467
808	 30.5837
804	 30.7069
800	 30.8833
796	 31.0147
792	 31.1256
788	 31.2447
784	 31.2656
780	 31.1855
776	 30.9773
772	 30.6375
768	 30.3938
764	 30.2059
760	 29.9699
756	 29.8651
752	 29.9387
748	 30.1114
744	 30.2446
740	 30.3087
736	 30.36
732	 30.3686
728	 30.3531
724	 30.2391
720	 30.0319
716	 29.8388
712	 29.5712
708	 29.2044
704	 28.9007
700	 28.7541
696	 28.673
692	 28.6878
688	 28.8169
684	 28.9415
680	 29.1335
676	 29.42
672	 29.5286
668	 29.347
664	 29.2589
660	 29.2168
656	 28.8384
652	 28.3473
648	 28.045
644	 27.8891
640	 27.7461
636	 27.7133
632	 27.8399
628	 27.8138
624	 27.7527
620	 27.9763
616	 28.0536
612	 27.7261
608	 27.4135
604	 27.4016
600	 27.4816
596	 27.2727
592	 26.8431
588	 26.4282
584	 26.1435
580	 26.1445
576	 26.1718
572	 25.9046
568	 25.8018
564	 26.1061
560	 26.2861
556	 26.3609
552	 26.5207
548	 26.4853
544	 26.3096
540	 26.0026
536	 25.439
532	 24.959
528	 24.8778
524	 25.1026
520	 25.1873
516	 24.9763
512	 24.9569
508	 25.079
504	 25.0301
500	 25.0479
496	 24.7451
492	 23.7509
488	 23.1409
484	 23.7258
480	 24.6978
476	 24.8566
472	 24.0502
468	 22.8823
464	 22.1076
460	 22.311
456	 22.8518
452	 22.7664
448	 22.1066
444	 21.9103
440	 22.9168
436	 23.9547
432	 23.6198
428	 22.093
424	 20.8993
420	 20.5046
416	 20.0583
412	 21.2077
408	 22.8241
404	 21.2405
400	 21.2281
396	 23.1692
392	 19.6478
388	 11.0731
384	 1.219773
380	 -1.978492
376	 -2.913618
372	 -12.2464
370	 -18.2271