File: Bakgrunnsmateriale/MATLAB/FTIR/ftir_data/LPE453/Mapping_121/LPE453_t20_cm-1.asc
PE IR       SPECTRUM    SPECTRUM    ASCII       PEDS        1.60
  -1
LP5855~1.ASC
17/05/16
15:56:17.00
17/05/16
15:56:17.00
tln
$LPE453_t0020$<tbV0>[-7.8,-10.4,8.0,0.0,27,1,0]
370
64

2002,4.07
MIRTGS : RIGHTBACK : INTERNAL 2
MIR : ON : INTERNAL 2
OPTKBR

0.200000
8
8.000000
FILLER
RATIO
SPECTRUM
UNLOCKED 256

DOUBLE
64
COMBINED
1
0
0

1.000000
RATIO

1
0
TRUE
51149
0
LEFT NOT FITTED RIGHT NOT FITTED 0
NONE
NONE
15600
12
4.427000
51148
TRUE
1 0 8 72 0 0 0 0

15798

#HDR
-1
-1
#GR
CM-1
%T
2.38419e-05
0.0
5000
-1.000000
4631
8
34.5035
-15.9177
#DATA
5000	-0.224494
4996	-0.259351
4992	-0.172591
4988	-0.126028
4984	-0.083589
4980	0.027132
4976	0.296616
4972	0.600981
4968	0.552654
4964	0.363731
4960	0.390529
4956	0.499963
4952	0.518345
4948	0.313949
4944	-0.020766
4940	-0.083708
4936	0.095319
4932	0.261092
4928	0.353932
4924	0.368261
4920	0.350880
4916	0.272440
4912	0.218176
4908	0.309729
4904	0.464725
4900	0.466680
4896	0.371050
4892	0.391578
4888	0.472688
4884	0.630283
4880	0.585079
4876	0.130772
4872	-0.167179
4868	-0.168132
4864	-0.245046
4860	-0.214815
4856	0.087118
4852	0.236344
4848	0.158095
4844	0.271129
4840	0.452899
4836	0.338006
4832	0.127720
4828	0.020647
4824	-0.148296
4820	-0.338506
4816	-0.240015
4812	0.078058
4808	0.212097
4804	0.183153
4800	0.219368
4796	0.218963
4792	0.163340
4788	0.150561
4784	0.194001
4780	0.275254
4776	0.273799
4772	0.110864
4768	-0.052332
4764	-0.070524
4760	-0.048708
4756	-0.076556
4752	0.007486
4748	0.275516
4744	0.444340
4740	0.430822
4736	0.368380
4732	0.347542
4728	0.331521
4724	0.169062
4720	-0.039148
4716	-0.119853
4712	-0.152993
4708	-0.074338
4704	0.121450
4700	0.089669
4696	-0.036740
4692	-0.072503
4688	-0.075936
4684	0.086927
4680	0.268507
4676	0.337028
4672	0.337958
4668	0.230121
4664	0.152921
4660	0.205683
4656	0.254726
4652	0.226426
4648	0.081396
4644	-0.168347
4640	-0.169086
4636	0.133228
4632	0.300574
4628	0.225400
4624	0.225877
4620	0.336647
4616	0.200915
4612	-0.088858
4608	-0.091099
4604	0.021338
4600	0.020980
4596	-0.083422
4592	-0.103569
4588	-0.104594
4584	-0.231838
4580	-0.072717
4576	-0.019168
4572	-0.527715
4568	-0.951719
4564	-0.891637
4560	-0.660538
4556	-0.560808
4552	-0.401163
4548	-0.337576
4544	-0.346469
4540	-0.348329
4536	-0.203204
4532	0.668573
4528	2.680325
4524	7.920455
4520	15.701
4516	24.1496
4512	24.5005
4508	11.6259
4504	1.875495
4500	1.288318
4496	1.081943
4492	-0.313520
4488	-1.105618
4484	-0.765943
4480	-0.529122
4476	-0.931906
4472	-0.969314
4468	-0.625443
4464	-0.606465
4460	-0.674438
4456	-0.567197
4452	-0.316143
4448	-0.136423
4444	-0.140810
4440	0.076866
4436	0.300931
4432	0.174975
4428	0.034689
4424	0.226354
4420	0.337338
4416	0.134205
4412	-0.045275
4408	0.003886
4404	0.091147
4400	0.181555
4396	0.225853
4392	0.085401
4388	0.080513
4384	0.260305
4380	0.353050
4376	0.435233
4372	0.442790
4368	0.214982
4364	0.049471
4360	0.057744
4356	0.009155
4352	0.090169
4348	0.324869
4344	0.295448
4340	-0.018453
4336	-0.335001
4332	-0.398278
4328	-0.204801
4324	-0.022268
4320	0.158882
4316	0.241041
4312	0.138854
4308	0.103473
4304	0.095725
4300	0.002145
4296	-0.052690
4292	0.014281
4288	0.095081
4284	0.046253
4280	-0.110650
4276	-0.227451
4272	-0.184941
4268	-0.116991
4264	0.002503
4260	0.341725
4256	0.594902
4252	0.644946
4248	0.656533
4244	0.591588
4240	0.415205
4236	0.296187
4232	0.265526
4228	0.270700
4224	0.235676
4220	0.024175
4216	-0.141882
4212	-0.045728
4208	0.100660
4204	0.092864
4200	0.092697
4196	0.332021
4192	0.496721
4188	0.219082
4184	0.043511
4180	0.204968
4176	0.225758
4172	0.256228
4168	0.243163
4164	0.092315
4160	0.167942
4156	0.175380
4152	0.043153
4148	0.044274
4144	0.046181
4140	0.092434
4136	0.150227
4132	-0.038886
4128	-0.184702
4124	0.012230
4120	0.182437
4116	0.135684
4112	0.113344
4108	0.146770
4104	0.142335
4100	0.146675
4096	0.163841
4092	0.218844
4088	0.225591
4084	0.132489
4080	0.133085
4076	0.201368
4072	0.168037
4068	-0.036430
4064	-0.251579
4060	-0.175595
4056	0.044059
4052	0.086760
4048	0.028824
4044	-0.028324
4040	-0.062751
4036	-0.053048
4032	-0.022697
4028	-0.001335
4024	-0.033378
4020	0.009489
4016	0.106692
4012	0.063991
4008	-0.038647
4004	0.023412
4000	0.144529
3996	0.125002
3992	0.136065
3988	0.209045
3984	0.196051
3980	0.170826
3976	0.153398
3972	0.093460
3968	0.098967
3964	0.153541
3960	0.140380
3956	0.162005
3952	0.240468
3948	0.246739
3944	0.136232
3940	-0.058269
3936	-0.145268
3932	-0.041079
3928	0.025963
3924	-0.029301
3920	-0.058841
3916	-0.014162
3912	0.047969
3908	0.070810
3904	0.080704
3900	0.017642
3896	-0.072884
3892	-0.009894
3888	0.052428
3884	0.017857
3880	-0.007963
3876	0.003409
3872	-0.046110
3868	-0.088596
3864	-0.017380
3860	0.084519
3856	0.105166
3852	0.031208
3848	-0.008773
3844	0.085043
3840	0.229120
3836	0.217199
3832	0.140690
3828	0.118851
3824	0.047779
3820	0.101876
3816	0.185632
3812	0.075292
3808	-0.002551
3804	0.032043
3800	0.010728
3796	-0.037693
3792	-0.011706
3788	0.040006
3784	0.068140
3780	0.073266
3776	0.119924
3772	0.251960
3768	0.303435
3764	0.227236
3760	0.147223
3756	0.088858
3752	0.021982
3748	-0.010752
3744	0.039601
3740	0.079417
3736	0.069665
3732	0.072431
3728	0.101566
3724	0.116181
3720	0.139832
3716	0.115442
3712	-0.010800
3708	-0.061964
3704	-0.022697
3700	0.024533
3696	0.127649
3692	0.171875
3688	0.058889
3684	0.010943
3680	0.122761
3676	0.190782
3672	0.179862
3668	0.234317
3664	0.240278
3660	0.124692
3656	0.071763
3652	0.021052
3648	-0.055456
3644	0.042343
3640	0.139355
3636	0.024151
3632	-0.013089
3628	0.141191
3624	0.228095
3620	0.180387
3616	0.142288
3612	0.090789
3608	-0.035214
3604	-0.072717
3600	-0.013756
3596	0.009489
3592	0.014185
3588	0.059509
3584	0.160288
3580	0.197577
3576	0.098204
3572	0.042676
3568	0.076031
3564	0.053954
3560	0.068259
3556	0.087785
3552	0.024032
3548	0.029850
3544	0.102877
3540	0.100421
3536	0.078892
3532	0.084519
3528	0.036501
3524	-0.028896
3520	-0.011944
3516	0.002670
3512	-0.008654
3508	0.071358
3504	0.212740
3500	0.249457
3496	0.175595
3492	0.263690
3488	0.438308
3484	0.357294
3480	0.119805
3476	-0.037193
3472	0.007629
3468	0.173330
3464	0.225043
3460	0.148677
3456	0.078916
3452	0.027585
3448	-0.066876
3444	-0.117897
3440	-0.113034
3436	-0.052785
3432	0.026655
3428	0.010085
3424	0.024318
3420	0.090622
3416	0.074434
3412	0.075316
3408	0.088977
3404	0.003170
3400	-0.015258
3396	0.103735
3392	0.200176
3388	0.167846
3384	0.061917
3380	0.030231
3376	0.033617
3372	0.035238
3368	0.028204
3364	0.002050
3360	0.072646
3356	0.190901
3352	0.133109
3348	0.016379
3344	-0.029587
3340	-0.065660
3336	0.014305
3332	0.094771
3328	0.050020
3324	-0.003647
3320	-0.030517
3316	0.015211
3312	0.140213
3308	0.173521
3304	0.088119
3300	0.057363
3296	0.112462
3292	0.149655
3288	0.055241
3284	-0.099778
3280	-0.080895
3276	0.045752
3272	0.057244
3268	0.033950
3264	0.077795
3260	0.102901
3256	0.015735
3252	-0.095701
3248	-0.077176
3244	-0.007557
3240	0.033617
3236	0.046992
3232	0.047874
3228	0.089335
3224	0.111031
3220	0.068283
3216	0.012803
3212	-0.017142
3208	0.001430
3204	0.019145
3200	0.014638
3196	0.012183
3192	-0.013637
3188	-0.034976
3184	0.026607
3180	0.085616
3176	0.066590
3172	0.100111
3168	0.163674
3164	0.141453
3160	0.053381
3156	-0.030517
3152	-0.073695
3148	-0.062847
3144	0.017070
3140	0.147843
3136	0.284337
3132	0.250315
3128	0.094532
3124	0.076842
3120	0.071334
3116	-0.037121
3112	-0.072813
3108	-0.016379
3104	0.018572
3100	0.017023
3096	0.019741
3092	0.032639
3088	0.015091
3084	-0.009155
3080	0.019073
3076	0.092267
3072	0.147032
3068	0.132679
3064	0.133705
3060	0.181674
3056	0.122475
3052	0.001072
3048	0.001215
3044	0.016546
3040	-0.006890
3036	0.064635
3032	0.093317
3028	0.032854
3024	0.066256
3020	0.052356
3016	-0.016427
3012	-0.016307
3008	-0.032210
3004	-0.036978
3000	0.012350
2996	-0.000572
2992	0.000214
2988	0.095343
2984	0.065875
2980	-0.043416
2976	-0.058722
2972	-0.033259
2968	0.007796
2964	0.020408
2960	-0.004982
2956	-0.024127
2952	-0.029563
2948	0.009298
2944	0.043272
2940	0.025701
2936	0.047183
2932	0.102210
2928	0.093555
2924	0.065755
2920	0.057268
2916	0.033879
2912	0.041890
2908	0.102376
2904	0.205612
2900	0.265693
2896	0.198173
2892	0.092101
2888	0.045061
2884	0.046348
2880	0.084042
2876	0.206494
2872	0.276255
2868	0.145268
2864	0.023746
2860	0.033688
2856	0.016880
2852	0.019812
2848	0.121927
2844	0.173020
2840	0.153136
2836	0.118112
2832	0.039196
2828	-0.030136
2824	-0.021553
2820	0.009441
2816	-0.014877
2812	-0.043821
2808	-0.021028
2804	0.013661
2800	0.011682
2796	-0.003170
2792	0.022912
2788	0.073504
2784	0.095105
2780	0.077223
2776	0.077795
2772	0.078201
2768	0.043869
2764	0.000762
2760	-0.042009
2756	-0.036478
2752	-0.025057
2748	-0.050592
2744	-0.011181
2740	0.069332
2736	0.087761
2732	0.050210
2728	-0.025391
2724	-0.076627
2720	-0.041460
2716	0.013923
2712	0.037169
2708	0.027394
2704	0.056362
2700	0.117683
2696	0.064492
2692	-0.027394
2688	0.019407
2684	0.061798
2680	0.030159
2676	0.041627
2672	0.055027
2668	0.081777
2664	0.128579
2660	0.108051
2656	0.049972
2652	0.003767
2648	0.009727
2644	0.037527
2640	0.030779
2636	0.044655
2632	0.051498
2628	-0.004911
2624	-0.025939
2620	0.053977
2616	0.121021
2612	0.074481
2608	-0.014281
2604	-0.015139
2600	0.058579
2596	0.112581
2592	0.165724
2588	0.189352
2584	0.119638
2580	0.047492
2576	0.073599
2572	0.101876
2568	0.062823
2564	0.025177
2560	-0.010418
2556	-0.058269
2552	-0.032663
2548	0.024437
2544	-0.029730
2540	-0.103378
2536	-0.083875
2532	-0.008749
2528	0.086474
2524	0.125837
2520	0.063729
2516	0.043678
2512	0.148773
2508	0.223302
2504	0.195312
2500	0.101327
2496	0.025153
2492	0.051856
2488	0.085973
2484	0.079083
2480	0.087571
2476	0.101327
2472	0.112938
2468	0.129437
2464	0.150752
2460	0.170707
2456	0.154733
2452	0.120043
2448	0.069475
2444	-0.046062
2440	-0.092744
2436	0.116610
2432	0.346469
2428	0.254034
2424	0.039529
2420	0.011086
2416	0.046372
2412	0.021815
2408	0.060510
2404	0.178480
2400	0.284600
2396	0.285649
2392	0.208950
2388	0.190234
2384	0.203919
2380	0.175857
2376	0.137877
2372	0.137495
2368	0.141310
2364	0.135278
2360	0.154399
2356	0.191283
2352	0.196075
2348	0.226497
2344	0.378823
2340	0.495386
2336	0.471425
2332	0.482583
2328	0.544476
2324	0.540351
2320	0.515508
2316	0.557827
2312	0.637602
2308	0.691366
2304	0.764822
2300	0.870442
2296	0.967574
2292	1.032900
2288	1.084733
2284	1.163339
2280	1.272559
2276	1.405215
2272	1.500916
2268	1.515221
2264	1.524829
2260	1.642084
2256	1.825547
2252	1.993155
2248	2.178955
2244	2.386212
2240	2.569079
2236	2.748060
2232	2.970767
2228	3.201627
2224	3.410124
2220	3.607416
2216	3.771066
2212	3.958654
2208	4.268598
2204	4.664278
2200	4.983162
2196	5.191850
2192	5.435633
2188	5.729722
2184	6.034874
2180	6.374406
2176	6.716084
2172	7.015037
2168	7.357859
2164	7.791543
2160	8.147978
2156	8.439612
2152	8.786320
2148	9.118580
2144	9.474229
2140	9.892416
2136	10.2824
2132	10.7206
2128	11.1966
2124	11.6051
2120	12.0529
2116	12.4773
2112	12.8089
2108	13.1786
2104	13.5652
2100	13.9331
2096	14.3111
2092	14.7424
2088	15.1641
2084	15.5673
2080	16.0845
2076	16.6065
2072	17.0773
2068	17.5065
2064	17.7756
2060	18.0409
2056	18.4139
2052	18.6892
2048	18.8592
2044	19.0585
2040	19.2755
2036	19.4837
2032	19.7255
2028	20.0275
2024	20.3541
2020	20.684
2016	21.0225
2012	21.3675
2008	21.6911
2004	21.9617
2000	22.2221
1996	22.5011
1992	22.6886
1988	22.7805
1984	22.9183
1980	23.0657
1976	23.1609
1972	23.3047
1968	23.5435
1964	23.8004
1960	24.0369
1956	24.3022
1952	24.5933
1948	24.8342
1944	25.0022
1940	25.1532
1936	25.3013
1932	25.3605
1928	25.3533
1924	25.3975
1920	25.5146
1916	25.625
1912	25.6599
1908	25.728
1904	25.9062
1900	26.068
1896	26.1934
1892	26.3876
1888	26.6161
1884	26.8072
1880	26.9273
1876	26.9709
1872	26.9953
1868	26.9896
1864	26.9519
1860	26.9442
1856	26.953
1852	26.9842
1848	27.0744
1844	27.1753
1840	27.246
1836	27.3296
1832	27.4701
1828	27.6437
1824	27.792
1820	27.9075
1816	27.9924
1812	28.0187
1808	28.0343
1804	28.0432
1800	27.9859
1796	27.9072
1792	27.8393
1788	27.7792
1784	27.747
1780	27.7787
1776	27.9621
1772	28.2299
1768	28.3992
1764	28.4895
1760	28.5719
1756	28.6946
1752	28.8575
1748	28.9076
1744	28.8093
1740	28.6754
1736	28.5775
1732	28.5102
1728	28.4069
1724	28.333
1720	28.3722
1716	28.3967
1712	28.4
1708	28.5688
1704	28.8881
1700	29.1549
1696	29.2696
1692	29.3089
1688	29.413
1684	29.4741
1680	29.281
1676	29.0236
1672	28.9104
1668	28.8741
1664	28.7992
1660	28.7259
1656	28.8264
1652	28.9899
1648	29.0664
1644	29.1703
1640	29.3543
1636	29.5045
1632	29.5668
1628	29.648
1624	29.7572
1620	29.815
1616	29.7568
1612	29.5554
1608	29.3625
1604	29.2514
1600	29.0966
1596	28.9438
1592	28.9463
1588	29.0914
1584	29.3108
1580	29.5372
1576	29.68
1572	29.7573
1568	29.8607
1564	30.0586
1560	30.2666
1556	30.231
1552	30.0315
1548	29.9309
1544	29.9799
1540	29.9586
1536	29.6903
1532	29.4108
1528	29.3586
1524	29.4429
1520	29.4961
1516	29.57
1512	29.7953
1508	30.0816
1504	30.2246
1500	30.2994
1496	30.4276
1492	30.5101
1488	30.4699
1484	30.3307
1480	30.1621
1476	30.0263
1472	29.9119
1468	29.7852
1464	29.6773
1460	29.6922
1456	29.7985
1452	29.8565
1448	29.9031
1444	30.049
1440	30.3411
1436	30.6285
1432	30.7486
1428	30.8198
1424	30.9161
1420	30.9233
1416	30.7561
1412	30.5146
1408	30.3197
1404	30.1813
1400	30.1378
1396	30.1994
1392	30.2623
1388	30.3119
1384	30.4144
1380	30.5743
1376	30.7956
1372	31.0328
1368	31.2037
1364	31.2685
1360	31.2233
1356	31.1396
1352	31.0573
1348	30.9113
1344	30.748
1340	30.7085
1336	30.6776
1332	30.551
1328	30.4483
1324	30.4375
1320	30.5856
1316	30.8582
1312	31.0969
1308	31.2581
1304	31.4276
1300	31.5996
1296	31.6635
1292	31.6392
1288	31.6252
1284	31.6031
1280	31.4191
1276	31.0947
1272	30.8283
1268	30.7077
1264	30.7496
1260	30.8562
1256	30.9479
1252	31.1162
1248	31.401
1244	31.6668
1240	31.8408
1236	31.9954
1232	32.1193
1228	32.2211
1224	32.2165
1220	32.0198
1216	31.7989
1212	31.6332
1208	31.4961
1204	31.3846
1200	31.2873
1196	31.2125
1192	31.241
1188	31.4417
1184	31.7174
1180	31.9395
1176	32.0565
1172	32.1955
1168	32.4466
1164	32.6602
1160	32.7045
1156	32.6108
1152	32.5024
1148	32.3798
1144	32.1944
1140	32.0356
1136	31.9222
1132	31.7569
1128	31.6821
1124	31.8026
1120	32.0149
1116	32.3322
1112	32.6735
1108	32.9648
1104	33.2279
1100	33.4061
1096	33.4286
1092	33.2851
1088	33.0279
1084	32.7344
1080	32.4821
1076	32.2644
1072	32.0914
1068	31.9818
1064	31.9357
1060	31.9274
1056	32.0459
1052	32.3642
1048	32.6061
1044	32.7527
1040	33.0803
1036	33.4129
1032	33.4929
1028	33.4533
1024	33.3355
1020	33.0615
1016	32.8739
1012	32.8067
1008	32.6617
1004	32.46
1000	32.3302
996	 32.3525
992	 32.4737
988	 32.7274
984	 33.0911
980	 33.3691
976	 33.5663
972	 33.7902
968	 33.9474
964	 33.9536
960	 33.8771
956	 33.7986
952	 33.744
948	 33.5942
944	 33.2837
940	 33.0398
936	 32.9846
932	 32.9139
928	 32.8339
924	 32.9288
920	 33.0506
916	 33.1415
912	 33.4167
908	 33.809
904	 34.1216
900	 34.3371
896	 34.4117
892	 34.3104
888	 34.151
884	 33.9757
880	 33.7064
876	 33.483
872	 33.3115
868	 32.9743
864	 32.6612
860	 32.6289
856	 32.8672
852	 33.1784
848	 33.4536
844	 33.7987
840	 34.1604
836	 34.4161
832	 34.5035
828	 34.4182
824	 34.3015
820	 34.0878
816	 33.7679
812	 33.5508
808	 33.3406
804	 33.0947
800	 33.0147
796	 33.0655
792	 33.1192
788	 33.216
784	 33.338
780	 33.5054
776	 33.7186
772	 33.9137
768	 34.0802
764	 34.2603
760	 34.4087
756	 34.2212
752	 33.7891
748	 33.451
744	 33.113
740	 32.68
736	 32.34
732	 32.2802
728	 32.4178
724	 32.5765
720	 32.8183
716	 33.1443
712	 33.4018
708	 33.6736
704	 34.0311
700	 34.2192
696	 33.9199
692	 33.4643
688	 33.4179
684	 33.484
680	 33.2557
676	 32.9681
672	 32.6376
668	 32.1512
664	 32.0057
660	 32.1495
656	 32.1104
652	 32.1416
648	 32.4417
644	 32.7432
640	 32.7879
636	 32.7931
632	 32.985
628	 33.2053
624	 33.255
620	 32.989
616	 32.5592
612	 32.1987
608	 31.8743
604	 31.6375
600	 31.5243
596	 31.3694
592	 31.0794
588	 30.8761
584	 31.0151
580	 31.367
576	 31.8285
572	 32.3592
568	 32.6767
564	 32.6032
560	 32.3331
556	 31.9884
552	 31.782
548	 31.8132
544	 31.7255
540	 31.6379
536	 31.3537
532	 30.5604
528	 29.8846
524	 29.7071
520	 29.7196
516	 29.655
512	 29.8054
508	 29.9178
504	 29.8334
500	 29.9758
496	 30.0819
492	 29.9478
488	 29.9572
484	 30.2686
480	 30.5133
476	 30.4814
472	 30.2154
468	 30.6504
464	 31.3381
460	 30.5193
456	 29.069
452	 28.6101
448	 29.3875
444	 29.8346
440	 28.8205
436	 27.6542
432	 27.2525
428	 27.6407
424	 27.3833
420	 27.266
416	 30.2963
412	 32.4622
408	 26.4431
404	 19.9732
400	 23.4512
396	 29.9691
392	 32.6324
388	 27.1895
384	 10.1304
380	 8.034634
376	 12.9823
372	 -7.741618
370	 -15.9177