File: Bakgrunnsmateriale/MATLAB/FTIR/ftir_data/LPE453/Mapping_121/LPE453_t65_cm-1.asc
PE IR       SPECTRUM    SPECTRUM    ASCII       PEDS        1.60
  -1
LP6ADB~1.ASC
17/05/16
19:39:07.00
17/05/16
19:39:07.00
tln
$LPE453_t0065$<tbV0>[-10.4,0.0,8.0,0.0,27,1,0]
370
64

2002,4.07
MIRTGS : RIGHTBACK : INTERNAL 2
MIR : ON : INTERNAL 2
OPTKBR

0.200000
8
8.000000
FILLER
RATIO
SPECTRUM
UNLOCKED 256

DOUBLE
64
COMBINED
1
0
0

1.000000
RATIO

1
0
TRUE
51149
0
LEFT NOT FITTED RIGHT NOT FITTED 0
NONE
NONE
15600
12
4.427000
51148
TRUE
1 0 8 72 0 0 0 0

15798

#HDR
-1
-1
#GR
CM-1
%T
2.38419e-05
0.0
5000
-1.000000
4631
8
31.8995
-12.9589
#DATA
5000	0.094962
4996	-0.091338
4992	-0.561690
4988	-0.509858
4984	0.307559
4980	1.048231
4976	0.842380
4972	0.194764
4968	-0.054097
4964	-0.130057
4960	-0.173759
4956	-0.035119
4952	-0.017619
4948	-0.130462
4944	-0.060439
4940	0.114798
4936	0.098299
4932	0.019121
4928	0.098156
4924	0.160527
4920	0.215935
4916	0.217390
4912	-0.010514
4908	-0.176882
4904	-0.070357
4900	0.072479
4896	0.145769
4892	0.231218
4888	0.157642
4884	0.035953
4880	0.119161
4876	0.210499
4872	0.282835
4868	0.310492
4864	0.195717
4860	0.221776
4856	0.255537
4852	0.129985
4848	0.188207
4844	0.197958
4840	-0.036716
4836	-0.052165
4832	0.242304
4828	0.461506
4824	0.336956
4820	-0.008678
4816	-0.093436
4812	0.056576
4808	0.088715
4804	0.044274
4800	0.156688
4796	0.532460
4792	0.732684
4788	0.552010
4784	0.229024
4780	-0.123429
4776	-0.139045
4772	0.038838
4768	-0.200700
4764	-0.447392
4760	-0.269126
4756	0.037741
4752	0.179648
4748	-0.012111
4744	-0.125432
4740	0.227355
4736	0.452327
4732	0.427365
4728	0.710463
4724	0.655436
4720	-0.077962
4716	-0.373268
4712	0.509476
4708	1.429820
4704	1.128864
4700	0.573086
4696	0.805282
4692	0.907921
4688	-0.277447
4684	-1.827669
4680	-2.231693
4676	-1.712012
4672	-0.697350
4668	0.222587
4664	0.141882
4660	-0.535416
4656	-0.748324
4652	-0.660181
4648	-0.134301
4644	0.582098
4640	0.565147
4636	0.324654
4632	0.099158
4628	-0.189828
4624	-0.281167
4620	-0.314879
4616	-0.100922
4612	0.222754
4608	0.359225
4604	0.499629
4600	0.673007
4596	0.843167
4592	0.750231
4588	0.299763
4584	-0.135564
4580	-0.204110
4576	0.229787
4572	0.694036
4568	0.920915
4564	1.037192
4560	0.899577
4556	0.679993
4552	0.665521
4548	0.588679
4544	0.314307
4540	0.060439
4536	-0.094580
4532	0.178527
4528	0.494360
4524	0.101423
4520	-0.737357
4516	-1.074767
4512	-0.689840
4508	-0.298523
4504	0.817584
4500	4.250884
4496	8.269143
4492	5.079936
4488	-2.348661
4484	-4.680204
4480	-3.447747
4476	0.927281
4472	3.664970
4468	1.655197
4464	0.611305
4460	0.613355
4456	0.624227
4452	0.289916
4448	-0.466728
4444	-0.634884
4440	-0.325369
4436	-0.290775
4432	-0.298571
4428	-0.339603
4424	-0.585865
4420	-0.520038
4416	-0.351548
4412	-0.155520
4408	0.266289
4404	0.456380
4400	0.272154
4396	0.166893
4392	0.176000
4388	0.173616
4384	0.175428
4380	0.075149
4376	0.096797
4372	0.372028
4368	0.595879
4364	0.468039
4360	0.314569
4356	0.562095
4352	0.662994
4348	0.364708
4344	0.196146
4340	0.101089
4336	-0.060939
4332	-0.066852
4328	0.050330
4324	0.134348
4320	0.164341
4316	0.300860
4312	0.566220
4308	0.692725
4304	0.607466
4300	0.430393
4296	0.225353
4292	0.116634
4288	0.205230
4284	0.324416
4280	0.179195
4276	-0.155067
4272	-0.274777
4268	-0.199270
4264	-0.219440
4260	-0.276184
4256	-0.119900
4252	0.152516
4248	0.280070
4244	0.126314
4240	-0.194454
4236	-0.250148
4232	0.068497
4228	0.337052
4224	0.271821
4220	0.127410
4216	0.078892
4212	0.011301
4208	0.038981
4204	0.207233
4200	0.328326
4196	0.423479
4192	0.408840
4188	0.207901
4184	-0.039219
4180	-0.115895
4176	0.064706
4172	0.328540
4168	0.449705
4164	0.383806
4160	0.175762
4156	-0.067973
4152	-0.072169
4148	0.127243
4144	0.216221
4140	0.231981
4136	0.212168
4132	0.070595
4128	-0.101757
4124	-0.248217
4120	-0.281238
4116	-0.104546
4112	0.020790
4108	-0.034785
4104	-0.007772
4100	0.103354
4096	0.122189
4092	0.039339
4088	-0.021839
4084	0.046777
4080	0.147223
4076	0.142741
4072	0.043249
4068	-0.006675
4064	0.017428
4060	0.007224
4056	-0.021505
4052	-0.041317
4048	-0.012540
4044	0.077033
4040	0.123167
4036	0.043153
4032	-0.117993
4028	-0.107002
4024	0.101780
4020	0.177764
4016	0.101566
4012	0.060749
4008	-0.016570
4004	-0.078034
4000	-0.115799
3996	-0.096297
3992	0.042819
3988	0.164818
3984	0.234270
3980	0.274586
3976	0.205326
3972	0.025701
3968	-0.117158
3964	-0.102210
3960	-0.015974
3956	-0.032925
3952	-0.102782
3948	-0.032830
3944	0.050806
3940	-0.024366
3936	-0.058126
3932	0.066876
3928	0.227665
3924	0.319576
3920	0.258946
3916	0.099968
3912	0.000691
3908	0.014567
3904	0.025558
3900	-0.034785
3896	-0.029611
3892	0.093889
3888	0.201869
3884	0.211596
3880	0.218200
3876	0.273656
3872	0.276446
3868	0.229692
3864	0.169277
3860	0.046873
3856	-0.081014
3852	-0.061988
3848	0.023436
3844	0.020313
3840	0.032782
3836	0.051474
3832	0.006580
3828	0.018453
3824	0.178623
3820	0.294518
3816	0.123476
3812	-0.120854
3808	-0.105094
3804	0.044727
3800	0.065565
3796	0.028753
3792	0.068235
3788	0.139999
3784	0.144672
3780	0.016069
3776	-0.107288
3772	-0.040006
3768	0.109219
3764	0.141406
3760	0.049948
3756	0.004124
3752	0.060558
3748	0.106906
3744	0.072932
3740	-0.000262
3736	0.018048
3732	0.113058
3728	0.203967
3724	0.211715
3720	0.105237
3716	0.010848
3712	0.012731
3708	0.085949
3704	0.108337
3700	0.011539
3696	-0.085496
3692	-0.080657
3688	-0.034451
3684	-0.022816
3680	-0.039672
3676	-0.001287
3672	0.071430
3668	0.094962
3664	0.067114
3660	0.000333
3656	-0.045824
3652	-0.078916
3648	-0.088381
3644	0.008916
3640	0.133514
3636	0.193381
3632	0.129532
3628	0.010180
3624	0.072908
3620	0.216484
3616	0.231099
3612	0.167155
3608	0.071215
3604	-0.028657
3600	-0.056147
3596	0.002717
3592	0.091624
3588	0.167131
3584	0.179886
3580	0.135779
3576	0.070428
3572	-0.046968
3568	-0.136590
3564	-0.068211
3560	0.116086
3556	0.220727
3552	0.170922
3548	0.087761
3544	0.021624
3540	-0.006222
3536	0.082468
3532	0.205588
3528	0.188422
3524	0.121665
3520	0.080800
3516	-0.008630
3512	-0.055980
3508	-0.062060
3504	-0.073385
3500	0.020217
3496	0.051856
3492	-0.014925
3488	-0.033164
3484	-0.090265
3480	-0.135755
3476	-0.134515
3472	-0.057125
3468	0.075650
3464	0.093340
3460	0.054025
3456	0.090336
3452	0.148057
3448	0.152230
3444	0.075054
3440	0.038480
3436	0.099253
3432	0.169348
3428	0.213360
3424	0.227475
3420	0.187325
3416	0.108075
3412	0.102591
3408	0.149273
3404	0.096535
3400	-0.011086
3396	-0.013518
3392	0.045514
3388	0.014209
3384	-0.069069
3380	-0.116467
3376	-0.071930
3372	0.067973
3368	0.144004
3364	0.055170
3360	-0.058269
3356	-0.035929
3352	0.027012
3348	0.044822
3344	0.095009
3340	0.127124
3336	0.046539
3332	-0.081562
3328	-0.060462
3324	0.094842
3320	0.167322
3316	0.141906
3312	0.052857
3308	-0.050044
3304	-0.070381
3300	-0.044727
3296	-0.074100
3292	-0.127315
3288	-0.112557
3284	-0.025033
3280	0.093436
3276	0.101089
3272	0.003862
3268	0.012731
3264	0.122046
3260	0.115346
3256	0.013303
3252	-0.025153
3248	0.016403
3244	0.053620
3240	0.062799
3236	0.036549
3232	-0.056695
3228	-0.100088
3224	-0.052022
3220	0.011754
3216	0.055217
3212	0.008916
3208	-0.093007
3204	-0.004100
3200	0.247573
3196	0.298118
3192	0.186777
3188	0.116395
3184	0.005054
3180	-0.114083
3176	-0.131440
3172	-0.093674
3168	-0.035071
3164	0.017857
3160	0.081706
3156	0.162458
3152	0.148797
3148	0.072407
3144	0.107955
3140	0.257730
3136	0.354504
3132	0.338125
3128	0.224900
3124	0.074362
3120	0.039553
3116	0.122117
3112	0.100803
3108	-0.068855
3104	-0.135016
3100	-0.055217
3096	0.008296
3092	0.038552
3088	0.032925
3084	0.016164
3080	0.063991
3076	0.093340
3072	0.027394
3068	-0.009465
3064	0.040411
3060	0.051045
3056	0.020098
3052	0.037622
3048	0.044417
3044	0.022602
3040	0.038743
3036	0.048685
3032	0.012755
3028	-0.013232
3024	-0.013661
3020	-0.015759
3016	0.007152
3012	0.025272
3008	0.005412
3004	0.023269
3000	0.078773
2996	0.062108
2992	-0.021743
2988	-0.080251
2984	-0.075674
2980	-0.038671
2976	-0.013160
2972	0.005197
2968	0.019645
2964	0.036454
2960	0.055861
2956	0.025510
2952	0.008893
2948	0.051999
2944	0.011801
2940	-0.075984
2936	-0.025463
2932	0.071239
2928	0.036382
2924	-0.048398
2920	-0.060224
2916	-0.032305
2912	-0.027108
2908	-0.020551
2904	0.027608
2900	0.072884
2896	0.101137
2892	0.128078
2888	0.122046
2884	0.093865
2880	0.043821
2876	0.008797
2872	0.069189
2868	0.127506
2864	0.096440
2860	0.024938
2856	-0.021219
2852	0.021123
2848	0.108385
2844	0.152468
2840	0.125741
2836	0.101852
2832	0.093555
2828	0.045394
2824	0.023746
2820	0.063467
2816	0.090575
2812	0.070142
2808	0.038599
2804	0.036144
2800	0.070858
2796	0.086402
2792	0.088834
2788	0.085353
2784	0.072360
2780	0.090432
2776	0.094103
2772	0.087547
2768	0.104761
2764	0.103664
2760	0.055646
2756	-0.004386
2752	-0.000524
2748	0.046110
2744	0.040054
2740	0.000262
2736	-0.004243
2732	0.027537
2728	0.067830
2724	0.094175
2720	0.099349
2716	0.051021
2712	-0.050616
2708	-0.102496
2704	-0.077819
2700	-0.056314
2696	-0.030350
2692	0.023055
2688	0.057363
2684	0.054955
2680	-0.002813
2676	-0.068402
2672	-0.025463
2668	0.074267
2664	0.069761
2660	0.006055
2656	0.029063
2652	0.111222
2648	0.148653
2644	0.120902
2640	0.098419
2636	0.108695
2632	0.077295
2628	0.006985
2624	-0.002598
2620	0.009059
2616	-0.028324
2612	-0.039005
2608	0.010657
2604	0.063347
2600	0.055384
2596	-0.001025
2592	-0.025892
2588	-0.036287
2584	-0.074601
2580	-0.073575
2576	-0.026178
2572	0.006866
2568	0.039863
2564	0.064826
2560	0.100469
2556	0.162577
2552	0.161743
2548	0.096535
2544	0.028324
2540	0.000071
2536	0.017809
2532	0.016403
2528	0.029444
2524	0.071620
2520	0.077247
2516	0.059366
2512	-0.008034
2508	-0.057840
2504	0.034141
2500	0.159788
2496	0.211954
2492	0.164914
2488	0.021648
2484	-0.074028
2480	-0.054264
2476	0.016474
2472	0.059485
2468	0.055146
2464	0.033068
2460	0.013637
2456	0.027704
2452	0.069856
2448	0.070524
2444	0.020146
2440	0.065827
2436	0.244832
2432	0.323605
2428	0.232148
2424	0.126934
2420	0.040745
2416	-0.017261
2412	0.077581
2408	0.182032
2404	0.037622
2400	-0.109815
2396	-0.045275
2392	0.030636
2388	0.009346
2384	-0.037169
2380	-0.044250
2376	0.002431
2372	0.033402
2368	0.001192
2364	-0.026917
2360	-0.043344
2356	-0.061011
2352	-0.043392
2348	-0.007057
2344	0.053572
2340	0.101327
2336	0.098514
2332	0.098252
2328	0.083732
2324	0.021767
2320	-0.012469
2316	0.022888
2312	0.077033
2308	0.135731
2304	0.219488
2300	0.282549
2296	0.272011
2292	0.264406
2288	0.288772
2284	0.284171
2280	0.268793
2276	0.306367
2272	0.432372
2268	0.546193
2264	0.589847
2260	0.624084
2256	0.654745
2252	0.739884
2248	0.898027
2244	1.013350
2240	1.079154
2236	1.206898
2232	1.365900
2228	1.449370
2224	1.494336
2220	1.602292
2216	1.798224
2212	2.051258
2208	2.303218
2204	2.531599
2200	2.765512
2196	2.986741
2192	3.182744
2188	3.392982
2184	3.634977
2180	3.886747
2176	4.157733
2172	4.444098
2168	4.763436
2164	5.166506
2160	5.542755
2156	5.797982
2152	6.029343
2148	6.405067
2144	6.967711
2140	7.498764
2136	7.927131
2132	8.389115
2128	8.848381
2124	9.257435
2120	9.648895
2116	10.0576
2112	10.5262
2108	11.0383
2104	11.5522
2100	12.013
2096	12.3919
2092	12.8065
2088	13.3491
2084	13.9129
2080	14.3551
2076	14.7106
2072	15.1402
2068	15.6947
2064	16.2903
2060	16.8238
2056	17.2533
2052	17.6301
2048	18.0096
2044	18.3915
2040	18.7735
2036	19.2156
2032	19.7358
2028	20.202
2024	20.5621
2020	20.9049
2016	21.2789
2012	21.6686
2008	22.0301
2004	22.3654
2000	22.7197
1996	23.0731
1992	23.3918
1988	23.7161
1984	24.0284
1980	24.2779
1976	24.5456
1972	24.9099
1968	25.2425
1964	25.4405
1960	25.6422
1956	25.9089
1952	26.1668
1948	26.4259
1944	26.674
1940	26.8829
1936	27.1044
1932	27.3299
1928	27.5373
1924	27.7106
1920	27.833
1916	27.9818
1912	28.1794
1908	28.3498
1904	28.4616
1900	28.5758
1896	28.7362
1892	28.9059
1888	29.0649
1884	29.2127
1880	29.3519
1876	29.4788
1872	29.5996
1868	29.7145
1864	29.8358
1860	29.9596
1856	30.0338
1852	30.0641
1848	30.107
1844	30.2158
1840	30.3566
1836	30.4511
1832	30.5215
1828	30.6006
1824	30.6494
1820	30.6738
1816	30.7124
1812	30.7452
1808	30.8029
1804	30.9229
1800	31.0361
1796	31.0626
1792	31.0297
1788	31.0738
1784	31.1826
1780	31.2478
1776	31.3142
1772	31.3644
1768	31.3609
1764	31.3689
1760	31.3728
1756	31.3486
1752	31.3604
1748	31.4454
1744	31.5189
1740	31.5287
1736	31.5218
1732	31.5224
1728	31.5595
1724	31.6151
1720	31.6277
1716	31.581
1712	31.5714
1708	31.6604
1704	31.7065
1700	31.728
1696	31.8022
1692	31.8209
1688	31.7906
1684	31.8038
1680	31.8322
1676	31.7791
1672	31.6885
1668	31.6577
1664	31.6767
1660	31.6971
1656	31.6977
1652	31.7167
1648	31.7944
1644	31.8802
1640	31.8974
1636	31.8829
1632	31.8929
1628	31.8692
1624	31.7697
1620	31.6699
1616	31.6229
1612	31.6653
1608	31.7682
1604	31.8002
1600	31.7885
1596	31.8052
1592	31.8252
1588	31.8046
1584	31.7081
1580	31.6524
1576	31.7144
1572	31.7491
1568	31.6958
1564	31.6658
1560	31.7278
1556	31.7708
1552	31.7312
1548	31.7042
1544	31.73
1540	31.7653
1536	31.7404
1532	31.6975
1528	31.6987
1524	31.6676
1520	31.6013
1516	31.5784
1512	31.6064
1508	31.6542
1504	31.6714
1500	31.6264
1496	31.5817
1492	31.62
1488	31.6094
1484	31.4503
1480	31.3316
1476	31.376
1472	31.492
1468	31.5225
1464	31.4743
1460	31.5084
1456	31.5108
1452	31.3488
1448	31.217
1444	31.2034
1440	31.1875
1436	31.1705
1432	31.223
1428	31.2519
1424	31.2376
1420	31.3006
1416	31.3654
1412	31.3236
1408	31.3192
1404	31.3792
1400	31.3596
1396	31.255
1392	31.1362
1388	31.1225
1384	31.1483
1380	31.0837
1376	31.06
1372	31.1127
1368	31.1589
1364	31.2098
1360	31.1814
1356	31.0606
1352	30.9898
1348	30.9541
1344	30.9095
1340	30.8783
1336	30.8666
1332	30.8656
1328	30.871
1324	30.898
1320	30.9505
1316	31.0478
1312	31.1201
1308	31.0705
1304	30.9346
1300	30.8241
1296	30.8004
1292	30.7799
1288	30.6961
1284	30.6442
1280	30.7034
1276	30.7903
1272	30.8383
1268	30.8825
1264	30.903
1260	30.9145
1256	30.8981
1252	30.7619
1248	30.6354
1244	30.5933
1240	30.5447
1236	30.5144
1232	30.5018
1228	30.4847
1224	30.5556
1220	30.6902
1216	30.7232
1212	30.6285
1208	30.5
1204	30.3839
1200	30.2899
1196	30.2103
1192	30.1382
1188	30.1335
1184	30.2173
1180	30.3363
1176	30.4011
1172	30.4546
1168	30.512
1164	30.4873
1160	30.3996
1156	30.3153
1152	30.2689
1148	30.2389
1144	30.1325
1140	29.9757
1136	29.9306
1132	29.9841
1128	29.9906
1124	29.9668
1120	29.985
1116	30.0281
1112	30.0319
1108	29.9627
1104	29.9234
1100	29.9292
1096	29.8833
1092	29.7744
1088	29.6872
1084	29.6877
1080	29.7294
1076	29.7928
1072	29.8019
1068	29.762
1064	29.8064
1060	29.7933
1056	29.598
1052	29.4545
1048	29.4564
1044	29.4657
1040	29.4309
1036	29.3412
1032	29.3071
1028	29.3121
1024	29.2991
1020	29.4162
1016	29.5915
1012	29.5855
1008	29.3896
1004	29.2363
1000	29.1891
996	 29.1235
992	 29.0774
988	 29.075
984	 29.1202
980	 29.1909
976	 29.1517
972	 29.0537
968	 28.9987
964	 28.8876
960	 28.8002
956	 28.8532
952	 28.8297
948	 28.7053
944	 28.6881
940	 28.736
936	 28.7286
932	 28.6489
928	 28.5117
924	 28.4653
920	 28.5419
916	 28.5583
912	 28.4178
908	 28.2162
904	 28.0905
900	 28.0724
896	 28.0853
892	 28.0101
888	 27.932
884	 27.9273
880	 27.899
876	 27.9178
872	 28.0616
868	 28.1378
864	 28.0116
860	 27.8306
856	 27.6978
852	 27.5806
848	 27.5078
844	 27.4757
840	 27.4414
836	 27.3406
832	 27.2217
828	 27.232
824	 27.2338
820	 27.1309
816	 27.1178
812	 27.1326
808	 27.0069
804	 26.8663
800	 26.8005
796	 26.7405
792	 26.7015
788	 26.6116
784	 26.4828
780	 26.5073
776	 26.5691
772	 26.5182
768	 26.4288
764	 26.3106
760	 26.2142
756	 26.2701
752	 26.3766
748	 26.2131
744	 25.9304
740	 25.733
736	 25.5205
732	 25.4969
728	 25.6441
724	 25.7457
720	 25.8234
716	 25.7546
712	 25.5462
708	 25.3985
704	 25.1586
700	 24.8367
696	 24.72
692	 24.6815
688	 24.6075
684	 24.6419
680	 24.7092
676	 24.7634
672	 24.8773
668	 24.9752
664	 24.9315
660	 24.6899
656	 24.2949
652	 23.9916
648	 23.929
644	 23.8739
640	 23.7613
636	 23.737
632	 23.7662
628	 23.8821
624	 23.9577
620	 23.7538
616	 23.5215
612	 23.5114
608	 23.402
604	 23.0994
600	 22.8262
596	 22.5458
592	 22.4289
588	 22.5989
584	 22.7253
580	 22.6629
576	 22.5689
572	 22.4201
568	 22.217
564	 22.0315
560	 21.9438
556	 21.9832
552	 21.9489
548	 21.7528
544	 21.5212
540	 21.4969
536	 21.5767
532	 21.4384
528	 21.1285
524	 20.6426
520	 20.0422
516	 19.7963
512	 20.1316
508	 20.6114
504	 20.5807
500	 20.1115
496	 19.9521
492	 19.9758
488	 19.3078
484	 18.4977
480	 18.7342
476	 19.5703
472	 19.6813
468	 18.7755
464	 18.0214
460	 18.2091
456	 18.6837
452	 18.5946
448	 18.47
444	 18.8257
440	 19.2876
436	 19.6429
432	 18.5205
428	 16.7622
424	 16.5533
420	 16.312
416	 16.9649
412	 20.1001
408	 21.3514
404	 22.1144
400	 24.8128
396	 17.2524
392	 0.061917
388	 -3.299236
384	 10.4721
380	 17.921
376	 7.102203
372	 -10.4717
370	 -12.9589