File: Bakgrunnsmateriale/MATLAB/FTIR/ftir_data/LPE453/Mapping_121/LPE453_t45.asc
PE IR       SPECTRUM    SPECTRUM    ASCII       PEDS        1.60
  -1
LPD3AD~1.ASC
17/05/16
18:06:16.00
17/05/16
18:06:42.00
tln
$LPE453_t0045$<tbV0>[13.0,-2.6,8.0,0.0,27,1,0]
27.028
64

2002,4.07
MIRTGS : RIGHTBACK : INTERNAL 2
MIR : ON : INTERNAL 2
OPTKBR

0.200000
8
8.000000
FILLER
RATIO
SPECTRUM
UNLOCKED 256

DOUBLE
64
COMBINED
1
0
0

0.002000
RATIO

1
0
TRUE
51149
0
LEFT NOT FITTED RIGHT NOT FITTED 0
NONE
NONE
15600
12
4.427000
51148
TRUE
1 0 8 72 0 0 0 0

15798

#HDR
-1
-1
#GR
µM
%T
2.38419e-05
0.0
2.000000
0.002000
12515
8
61.9483
-4.511648
#DATA
2.000000	 -0.150012
2.018000	 -0.139655
2.036000	 0.050108
2.054000	 0.219081
2.072000	 0.250729
2.090000	 0.060808
2.108000	 -0.053230
2.126000	 0.107684
2.144000	 0.532145
2.162000	 0.487190
2.180000	 -0.435422
2.198000	 -0.831534
2.216000	 7.160578
2.234000	 -1.189733
2.252000	 0.322798
2.270000	 0.187727
2.288000	 -0.010069
2.306000	 0.087869
2.324000	 0.140124
2.342000	 0.323464
2.360000	 -0.160891
2.378000	 0.437914
2.396000	 0.482548
2.414000	 -0.173393
2.432000	 0.440660
2.450000	 0.034357
2.468000	 0.361537
2.486000	 -0.060655
2.504000	 0.152307
2.522000	 0.037460
2.540000	 -0.143287
2.558000	 0.073959
2.576000	 -0.068985
2.594000	 0.221879
2.612000	 0.375860
2.630000	 -0.055638
2.648000	 0.032725
2.666000	 0.173621
2.684000	 -0.046397
2.702000	 0.134955
2.720000	 -0.024841
2.738000	 -0.020540
2.756000	 0.099304
2.774000	 0.093709
2.792000	 -0.067962
2.810000	 0.162566
2.828000	 0.040118
2.846000	 -0.017028
2.864000	 0.028232
2.882000	 0.112168
2.900000	 0.057800
2.918000	 0.056263
2.936000	 -0.010719
2.954000	 -0.150189
2.972000	 0.210122
2.990000	 0.085651
3.008000	 0.006759
3.026000	 -0.011241
3.044000	 0.210039
3.062000	 0.105923
3.080000	 -0.005180
3.098000	 0.107331
3.116000	 0.055051
3.134000	 0.083145
3.152000	 0.205898
3.170000	 0.108166
3.188000	 0.100748
3.206000	 0.156650
3.224000	 0.061084
3.242000	 0.027832
3.260000	 0.139424
3.278000	 0.069309
3.296000	 0.118835
3.314000	 0.071460
3.332000	 0.095933
3.350000	 0.068053
3.368000	 0.078224
3.386000	 0.069469
3.404000	 0.195589
3.422000	 -0.054231
3.440000	 -0.167963
3.458000	 0.052367
3.476000	 -0.050962
3.494000	 0.044652
3.512000	 -0.053013
3.530000	 -0.037538
3.548000	 0.116501
3.566000	 0.054493
3.584000	 0.013039
3.602000	 0.121479
3.620000	 -0.003444
3.638000	 0.094010
3.656000	 0.142490
3.674000	 0.101975
3.692000	 -0.010471
3.710000	 0.082999
3.728000	 0.082401
3.746000	 -0.006240
3.764000	 0.005133
3.782000	 0.030138
3.800000	 -0.006908
3.818000	 -0.070488
3.836000	 0.038936
3.854000	 0.064663
3.872000	 -0.028004
3.890000	 0.011628
3.908000	 0.012398
3.926000	 -0.062988
3.944000	 0.018016
3.962000	 0.023624
3.980000	 -0.007466
3.998000	 -0.119519
4.016000	 0.062992
4.034000	 0.102725
4.052000	 0.016504
4.070000	 0.028934
4.088000	 0.039344
4.106000	 0.177099
4.124000	 0.074635
4.141999	 -0.105832
4.160000	 -0.095269
4.178000	 -0.002140
4.196000	 -0.008589
4.214000	 -0.045913
4.232000	 -0.001251
4.250000	 -0.029075
4.268000	 -0.036410
4.286000	 -0.109263
4.304000	 0.080600
4.322000	 -0.010272
4.340000	 0.111896
4.358000	 0.044003
4.375999	 0.090268
4.394000	 0.166087
4.412000	 0.186255
4.430000	 0.238509
4.448000	 0.306548
4.466000	 0.474790
4.484000	 0.542665
4.502000	 0.827617
4.520000	 0.903129
4.538000	 1.234916
4.556000	 1.421046
4.574000	 1.651221
4.592000	 2.030855
4.609999	 2.422802
4.628000	 2.780166
4.646000	 3.187594
4.664000	 3.646674
4.682000	 4.278870
4.700000	 4.874083
4.718000	 5.562502
4.736000	 6.179563
4.754000	 6.848248
4.772000	 7.553319
4.790000	 8.171936
4.808000	 8.750913
4.826000	 9.564985
4.843999	 10.0991
4.862000	 10.9341
4.880000	 11.4419
4.898000	 12.0997
4.916000	 12.7253
4.934000	 13.3996
4.952000	 13.9576
4.970000	 14.5851
4.988000	 15.0992
5.006000	 15.5354
5.024000	 16.0374
5.042000	 16.5641
5.060000	 17.0071
5.077999	 17.5147
5.096000	 17.8984
5.114000	 18.263
5.132000	 18.6199
5.150000	 18.9098
5.168000	 19.2236
5.186000	 19.5948
5.204000	 19.9292
5.222000	 20.2167
5.240000	 20.4554
5.258000	 20.6612
5.276000	 20.8859
5.294000	 21.1674
5.312000	 21.4689
5.330000	 21.6792
5.348000	 21.809
5.366000	 22.0167
5.384000	 22.1699
5.402000	 22.3569
5.420000	 22.4743
5.438000	 22.6568
5.456000	 22.8531
5.474000	 22.9512
5.492000	 23.0708
5.510000	 23.2288
5.528000	 23.3022
5.546000	 23.3881
5.564000	 23.5469
5.582000	 23.6259
5.600000	 23.7273
5.618000	 23.7608
5.636000	 23.8616
5.654000	 23.9496
5.672000	 24.0207
5.690000	 24.0664
5.708000	 24.1116
5.726000	 24.1686
5.744000	 24.2178
5.762000	 24.2123
5.780000	 24.3778
5.798000	 24.4823
5.816000	 24.5655
5.834000	 24.5941
5.852000	 24.5498
5.870000	 24.541
5.888000	 24.5667
5.906000	 24.7036
5.923999	 24.7794
5.942000	 24.8269
5.960000	 24.7736
5.978000	 24.8029
5.996000	 24.8761
6.014000	 24.9375
6.032000	 24.9903
6.050000	 25.0148
6.068000	 25.0287
6.086000	 24.9298
6.104000	 24.9225
6.122000	 25.0321
6.140000	 25.1039
6.158000	 25.1763
6.176000	 25.211
6.194000	 25.229
6.212000	 25.1886
6.230000	 25.0772
6.248000	 24.9895
6.266000	 24.9742
6.284000	 25.0053
6.302000	 25.054
6.320000	 25.0566
6.338000	 25.0632
6.356000	 25.1364
6.374000	 25.1378
6.392000	 25.1196
6.410000	 25.1542
6.428000	 25.1641
6.446000	 25.128
6.464000	 25.1033
6.482000	 25.1389
6.500000	 25.2013
6.518000	 25.2724
6.536000	 25.2812
6.554000	 25.233
6.572000	 25.2156
6.590000	 25.2025
6.608000	 25.1983
6.626000	 25.2612
6.644000	 25.3641
6.662000	 25.3815
6.680000	 25.3209
6.698000	 25.3916
6.716000	 25.4646
6.734000	 25.3658
6.752000	 25.2984
6.770000	 25.3224
6.788000	 25.2704
6.806000	 25.1714
6.824000	 25.1661
6.842000	 25.2146
6.860000	 25.2363
6.878000	 25.2508
6.896000	 25.2609
6.914000	 25.2608
6.932000	 25.2746
6.950000	 25.2756
6.968000	 25.2374
6.986000	 25.1589
7.004000	 25.0804
7.022000	 25.0706
7.040000	 25.1222
7.058000	 25.1879
7.076000	 25.2479
7.094000	 25.2865
7.112000	 25.3097
7.130000	 25.3425
7.148000	 25.3507
7.166000	 25.2715
7.184000	 25.1399
7.202000	 25.0649
7.220000	 25.0703
7.238000	 25.0675
7.256000	 25.0111
7.274000	 24.9682
7.292000	 25.0055
7.310000	 25.1032
7.328000	 25.213
7.346000	 25.3091
7.364000	 25.3542
7.382000	 25.3065
7.400000	 25.1828
7.418000	 25.0613
7.436000	 25.0121
7.454000	 25.0213
7.472000	 25.0235
7.490000	 25.0095
7.508000	 25.0092
7.526000	 25.018
7.544000	 25.0372
7.562000	 25.089
7.580000	 25.1473
7.598000	 25.1687
7.616000	 25.1718
7.634000	 25.1821
7.652000	 25.1608
7.670000	 25.0713
7.688000	 24.9468
7.706000	 24.8453
7.724000	 24.7919
7.742000	 24.7813
7.760000	 24.8128
7.778000	 24.8873
7.796000	 24.9659
7.814000	 24.9958
7.832000	 24.9895
7.850000	 25.0077
7.868000	 25.0554
7.886000	 25.0746
7.904000	 25.0353
7.922000	 24.9757
7.940000	 24.9339
7.958000	 24.8895
7.976000	 24.8196
7.994000	 24.7526
8.012000	 24.7267
8.030000	 24.7424
8.048000	 24.7817
8.065999	 24.8308
8.084000	 24.8759
8.102000	 24.9092
8.120000	 24.9265
8.138000	 24.9207
8.155999	 24.8972
8.173999	 24.8808
8.192000	 24.8761
8.210000	 24.8512
8.228000	 24.7838
8.246000	 24.696
8.263999	 24.6241
8.282000	 24.587
8.300000	 24.5872
8.318000	 24.6115
8.336000	 24.6296
8.353999	 24.6263
8.372000	 24.6279
8.390000	 24.6701
8.408000	 24.7476
8.426000	 24.8197
8.443999	 24.8551
8.462000	 24.848
8.480000	 24.8077
8.498000	 24.7495
8.516000	 24.6888
8.533999	 24.6291
8.552000	 24.5616
8.570000	 24.4861
8.588000	 24.4212
8.606000	 24.3863
8.624000	 24.3795
8.641999	 24.3809
8.660000	 24.3785
8.678000	 24.3794
8.696000	 24.3991
8.714000	 24.44
8.731999	 24.4827
8.750000	 24.5001
8.768000	 24.4817
8.786000	 24.4435
8.804000	 24.4171
8.821999	 24.4205
8.840000	 24.4373
8.858000	 24.4293
8.876000	 24.3736
8.894000	 24.2856
8.911999	 24.2048
8.930000	 24.1595
8.948000	 24.1538
8.966000	 24.1802
8.984000	 24.2296
9.001999	 24.2849
9.020000	 24.324
9.038000	 24.3367
9.056000	 24.3333
9.074000	 24.3274
9.092000	 24.3149
9.109999	 24.2851
9.128000	 24.2455
9.146000	 24.2203
9.164000	 24.2202
9.182000	 24.2237
9.199999	 24.1968
9.218000	 24.1274
9.236000	 24.0355
9.254000	 23.953
9.272000	 23.8972
9.289999	 23.864
9.308000	 23.8403
9.326000	 23.8189
9.344000	 23.8063
9.362000	 23.8134
9.379999	 23.8438
9.398000	 23.8889
9.416000	 23.9406
9.434000	 24.0011
9.452000	 24.0783
9.469999	 24.1647
9.488000	 24.2279
9.506000	 24.2316
9.524000	 24.1694
9.542000	 24.0713
9.560000	 23.9774
9.577999	 23.9062
9.596000	 23.8495
9.614000	 23.7909
9.632000	 23.7261
9.650000	 23.6657
9.667999	 23.6227
9.686000	 23.602
9.704000	 23.5979
9.722000	 23.598
9.740000	 23.5893
9.757999	 23.5652
9.776000	 23.5309
9.794000	 23.503
9.812000	 23.4992
9.830000	 23.5265
9.847999	 23.5768
9.866000	 23.6335
9.884000	 23.6837
9.902000	 23.7231
9.920000	 23.7527
9.937999	 23.7712
9.956000	 23.7726
9.974000	 23.7512
9.992000	 23.7062
10.01	23.6435
10.028	23.5726
10.046	23.5017
10.064	23.4342
10.082	23.3681
10.1	23.2981
10.118	23.2178
10.136	23.1265
10.154	23.0323
10.172	22.9523
10.19	22.9077
10.208	22.9111
10.226	22.9591
10.244	23.0314
10.262	23.1012
10.28	23.1499
10.298	23.1745
10.316	23.1854
10.334	23.1942
10.352	23.2032
10.37	23.205
10.388	23.1899
10.406	23.1571
10.424	23.1181
10.442	23.0913
10.46	23.0892
10.478	23.1115
10.496	23.1428
10.514	23.1607
10.532	23.1461
10.55	23.0928
10.568	23.0076
10.586	22.9077
10.604	22.8107
10.622	22.7291
10.64	22.6679
10.658	22.6259
10.676	22.5993
10.694	22.5847
10.712	22.5789
10.73	22.5794
10.748	22.5831
10.766	22.5887
10.784	22.5979
10.802	22.6143
10.82	22.6409
10.838	22.6771
10.856	22.7167
10.874	22.7499
10.892	22.7671
10.91	22.7625
10.928	22.737
10.946	22.695
10.964	22.6428
10.982	22.5865
11	22.5295
11.018	22.4743
11.036	22.422
11.054	22.3719
11.072	22.3223
11.09	22.2714
11.108	22.219
11.126	22.1686
11.144	22.1269
11.162	22.1016
11.18	22.0959
11.198	22.1057
11.216	22.1202
11.234	22.1271
11.252	22.1179
11.27	22.0927
11.288	22.0599
11.306	22.0313
11.324	22.0177
11.342	22.0248
11.36	22.0509
11.378	22.0896
11.396	22.1324
11.414	22.1714
11.432	22.2001
11.45	22.2149
11.468	22.2142
11.486	22.1984
11.504	22.1703
11.522	22.1334
11.54	22.0908
11.558	22.0449
11.576	21.9978
11.594	21.9518
11.612	21.9096
11.63	21.8736
11.648	21.8446
11.666	21.8205
11.684	21.7963
11.702	21.766
11.72	21.7249
11.738	21.673
11.756	21.6152
11.774	21.5604
11.792	21.5182
11.81	21.4943
11.828	21.4889
11.846	21.4977
11.864	21.5134
11.882	21.5286
11.9	21.5377
11.918	21.537
11.936	21.5251
11.954	21.5024
11.972	21.4704
11.99	21.4319
12.008	21.3905
12.026	21.3502
12.044	21.3154
12.062	21.289
12.08	21.2721
12.098	21.2646
12.116	21.2647
12.134	21.271
12.152	21.2823
12.17	21.2978
12.188	21.3161
12.206	21.3347
12.224	21.3497
12.242	21.3561
12.26	21.3491
12.278	21.3248
12.296	21.2811
12.314	21.2184
12.332	21.1401
12.35	21.0522
12.368	20.9627
12.386	20.8804
12.404	20.8138
12.422	20.7693
12.44	20.7495
12.458	20.7532
12.476	20.7753
12.494	20.8076
12.512	20.8411
12.53	20.8681
12.548	20.8844
12.566	20.889
12.584	20.8846
12.602	20.876
12.62	20.8678
12.638	20.8633
12.656	20.8638
12.674	20.8686
12.692	20.8756
12.71	20.882
12.728	20.8853
12.746	20.8839
12.764	20.877
12.782	20.8647
12.8	20.8471
12.818	20.8247
12.836	20.7972
12.854	20.7643
12.872	20.7262
12.89	20.684
12.908	20.6394
12.926	20.5949
12.944	20.553
12.962	20.5149
12.98	20.4798
12.998	20.4449
13.016	20.4062
13.034	20.3595
13.052	20.3018
13.07	20.2327
13.088	20.155
13.106	20.0749
13.124	19.9999
13.142	19.9371
13.16	19.8917
13.178	19.8655
13.196	19.8562
13.214	19.8595
13.232	19.8696
13.25	19.882
13.268	19.8934
13.286	19.9028
13.304	19.9112
13.322	19.9205
13.34	19.9323
13.358	19.9479
13.376	19.968
13.394	19.9924
13.412	20.0203
13.43	20.0506
13.448	20.0817
13.466	20.1116
13.484	20.1375
13.502	20.156
13.52	20.1634
13.538	20.1566
13.556	20.1342
13.574	20.0966
13.592	20.0467
13.61	19.9898
13.628	19.9317
13.646	19.8777
13.664	19.8308
13.682	19.792
13.7	19.7596
13.718	19.7303
13.736	19.7001
13.754	19.6662
13.772	19.6271
13.79	19.5835
13.808	19.5371
13.826	19.4904
13.844	19.4456
13.862	19.4044
13.88	19.3675
13.898	19.3345
13.916	19.3044
13.934	19.2767
13.952	19.2515
13.97	19.2294
13.988	19.212
14.006	19.201
14.024	19.198
14.042	19.2036
14.06	19.2168
14.078	19.2358
14.096	19.2582
14.114	19.2812
14.132	19.3024
14.15	19.3199
14.168	19.3328
14.186	19.3405
14.204	19.3435
14.222	19.3424
14.24	19.338
14.258	19.3306
14.276	19.321
14.294	19.3091
14.312	19.2947
14.33	19.2773
14.348	19.2563
14.366	19.2311
14.384	19.2015
14.402	19.167
14.42	19.1279
14.438	19.085
14.456	19.0394
14.474	18.9923
14.492	18.9448
14.51	18.8982
14.528	18.8533
14.546	18.8107
14.564	18.7703
14.582	18.7317
14.6	18.6941
14.618	18.657
14.636	18.6196
14.654	18.5822
14.672	18.5452
14.69	18.5097
14.708	18.477
14.726	18.4487
14.744	18.4262
14.762	18.4101
14.78	18.4001
14.798	18.3955
14.816	18.3946
14.834	18.3955
14.852	18.3955
14.87	18.3926
14.888	18.3857
14.906	18.3743
14.924	18.3591
14.942	18.3419
14.96	18.3255
14.978	18.3132
14.996	18.3082
15.014	18.3134
15.032	18.3309
15.05	18.3609
15.068	18.4022
15.086	18.4526
15.104	18.5084
15.122	18.5648
15.14	18.6168
15.158	18.6602
15.176	18.6918
15.194	18.709
15.212	18.7114
15.23	18.7002
15.248	18.6776
15.266	18.6466
15.284	18.6115
15.302	18.576
15.32	18.543
15.338	18.5145
15.356	18.4916
15.374	18.4742
15.392	18.4609
15.41	18.4499
15.428	18.4392
15.446	18.4256
15.464	18.4072
15.482	18.3826
15.5	18.3503
15.518	18.3096
15.536	18.2605
15.554	18.203
15.572	18.1374
15.59	18.0643
15.608	17.9845
15.626	17.8987
15.644	17.8081
15.662	17.7144
15.68	17.6193
15.698	17.5246
15.716	17.4332
15.734	17.348
15.752	17.2711
15.77	17.2048
15.788	17.1511
15.806	17.1104
15.824	17.0827
15.842	17.067
15.86	17.0606
15.878	17.0611
15.896	17.0661
15.914	17.0724
15.932	17.0777
15.95	17.0808
15.968	17.0805
15.986	17.0773
16.004	17.0725
16.022	17.0676
16.04	17.0651
16.058	17.0668
16.076	17.0743
16.094	17.0891
16.112	17.1108
16.13	17.1388
16.148	17.1718
16.166	17.2067
16.184	17.2409
16.202	17.2716
16.22	17.295
16.238	17.3092
16.256	17.3126
16.274	17.3041
16.292	17.2846
16.31	17.2546
16.328	17.2169
16.346	17.1745
16.364	17.1298
16.382	17.0872
16.4	17.0495
16.418	17.0189
16.436	16.9981
16.454	16.9875
16.472	16.9876
16.49	16.9973
16.508	17.0144
16.526	17.0371
16.544	17.0616
16.562	17.0851
16.58	17.1052
16.598	17.1186
16.616	17.1238
16.634	17.1197
16.652	17.106
16.67	17.0835
16.688	17.053
16.706	17.017
16.724	16.9769
16.742	16.9348
16.76	16.8928
16.778	16.8517
16.796	16.8128
16.814	16.7763
16.832	16.7425
16.85	16.711
16.868	16.6814
16.886	16.6532
16.904	16.6258
16.922	16.5992
16.94	16.5733
16.958	16.5487
16.976	16.5257
16.994	16.5053
17.012	16.488
17.03	16.4744
17.048	16.465
17.066	16.4594
17.084	16.4575
17.102	16.4578
17.12	16.4594
17.138	16.46
17.156	16.4581
17.174	16.4521
17.192	16.44
17.21	16.4213
17.228	16.3951
17.246	16.3621
17.264	16.3227
17.282	16.279
17.3	16.2324
17.318	16.1857
17.336	16.1418
17.354	16.1022
17.372	16.0706
17.39	16.0475
17.408	16.0349
17.426	16.0327
17.444	16.041
17.462	16.0581
17.48	16.0828
17.498	16.1121
17.516	16.1436
17.534	16.175
17.552	16.2024
17.57	16.2246
17.588	16.2385
17.606	16.2439
17.624	16.2392
17.642	16.2255
17.66	16.2027
17.678	16.1732
17.696	16.1378
17.714	16.0994
17.732	16.0596
17.75	16.0204
17.768	15.9839
17.786	15.9509
17.804	15.9228
17.822	15.8994
17.84	15.881
17.858	15.8671
17.876	15.8573
17.894	15.8506
17.912	15.8467
17.93	15.8445
17.948	15.844
17.966	15.8446
17.984	15.8465
18.002	15.85
18.02	15.8556
18.038	15.8635
18.056	15.8743
18.074	15.8882
18.092	15.9054
18.11	15.9259
18.128	15.9491
18.146	15.9745
18.164	16.0011
18.182	16.0279
18.2	16.0535
18.218	16.0766
18.236	16.0963
18.254	16.1112
18.272	16.1209
18.29	16.1249
18.308	16.123
18.326	16.1156
18.344	16.1029
18.362	16.086
18.38	16.0653
18.398	16.042
18.416	16.0167
18.434	15.9905
18.452	15.9637
18.47	15.9369
18.488	15.91
18.506	15.8833
18.524	15.8557
18.542	15.8274
18.56	15.7971
18.578	15.7647
18.596	15.7291
18.614	15.6899
18.632	15.6465
18.65	15.5989
18.668	15.5468
18.686	15.4903
18.704	15.4302
18.722	15.3667
18.74	15.301
18.758	15.2335
18.776	15.1658
18.794	15.0982
18.812	15.0324
18.83	14.9686
18.848	14.9081
18.866	14.851
18.884	14.7981
18.902	14.7492
18.92	14.7047
18.938	14.6642
18.956	14.6276
18.974	14.5944
18.992	14.5642
19.01	14.5365
19.028	14.5108
19.046	14.4869
19.064	14.4643
19.082	14.443
19.1	14.4226
19.118	14.4031
19.136	14.3846
19.154	14.3669
19.172	14.3502
19.19	14.3345
19.208	14.3202
19.226	14.3072
19.244	14.2957
19.262	14.2857
19.28	14.2773
19.298	14.2705
19.316	14.2655
19.334	14.2623
19.352	14.2609
19.37	14.2613
19.388	14.2636
19.406	14.2678
19.424	14.2737
19.442	14.2814
19.46	14.2906
19.478	14.3014
19.496	14.3134
19.514	14.3265
19.532	14.3403
19.55	14.3546
19.568	14.369
19.586	14.3829
19.604	14.3961
19.622	14.4076
19.64	14.4176
19.658	14.4248
19.676	14.4296
19.694	14.4311
19.712	14.4295
19.73	14.4245
19.748	14.416
19.766	14.4043
19.784	14.3892
19.802	14.3713
19.82	14.3507
19.838	14.3276
19.856	14.3028
19.874	14.2763
19.892	14.2486
19.91	14.2197
19.928	14.1899
19.946	14.1591
19.964	14.1272
19.982	14.0944
20	14.0604
20.018	14.0252
20.036	13.9887
20.054	13.9509
20.072	13.912
20.09	13.8721
20.108	13.8312
20.126	13.7905
20.144	13.7496
20.162	13.71
20.18	13.6718
20.198	13.636
20.216	13.6039
20.234	13.5752
20.252	13.5516
20.27	13.5328
20.288	13.5194
20.306	13.5118
20.324	13.5094
20.342	13.5123
20.36	13.5199
20.378	13.5308
20.396	13.5451
20.414	13.5602
20.432	13.5766
20.45	13.592
20.468	13.6056
20.486	13.6169
20.504	13.6243
20.522	13.6281
20.54	13.6273
20.558	13.6216
20.576	13.6116
20.594	13.5971
20.612	13.5789
20.63	13.5584
20.648	13.5352
20.666	13.5121
20.684	13.4888
20.702	13.4671
20.72	13.4484
20.738	13.4326
20.756	13.4217
20.774	13.4154
20.792	13.4142
20.81	13.4184
20.828	13.4275
20.846	13.4412
20.864	13.4594
20.882	13.4802
20.9	13.5043
20.918	13.5297
20.936	13.5553
20.954	13.5813
20.972	13.6052
20.99	13.6276
21.008	13.6472
21.026	13.6632
21.044	13.6759
21.062	13.6847
21.08	13.6896
21.098	13.691
21.116	13.6887
21.134	13.6831
21.152	13.6749
21.17	13.6638
21.188	13.6505
21.206	13.6351
21.224	13.6176
21.242	13.5982
21.26	13.5771
21.278	13.5537
21.296	13.5282
21.314	13.5003
21.332	13.4696
21.35	13.4363
21.368	13.4003
21.386	13.3611
21.404	13.3193
21.422	13.2756
21.44	13.2296
21.458	13.1832
21.476	13.1367
21.494	13.0908
21.512	13.0489
21.53	13.0097
21.548	12.9767
21.566	12.9522
21.584	12.9352
21.602	12.9304
21.62	12.9373
21.638	12.9572
21.656	12.9927
21.674	13.043
21.692	13.1085
21.71	13.1902
21.728	13.2869
21.746	13.3966
21.764	13.5206
21.782	13.655
21.8	13.7972
21.818	13.9482
21.836	14.1006
21.854	14.2551
21.872	14.4088
21.89	14.5545
21.908	14.6949
21.926	14.8246
21.944	14.94
21.962	15.0427
21.98	15.1277
21.998	15.1946
22.016	15.2436
22.034	15.2725
22.052	15.2816
22.07	15.272
22.088	15.2438
22.106	15.1968
22.124	15.1351
22.142	15.0585
22.16	14.968
22.178	14.869
22.196	14.7599
22.214	14.6438
22.232	14.5251
22.25	14.4018
22.268	14.2784
22.286	14.1572
22.304	14.037
22.322	13.922
22.34	13.8127
22.358	13.709
22.376	13.6135
22.394	13.5258
22.412	13.4463
22.43	13.3761
22.448	13.3148
22.466	13.2623
22.484	13.2185
22.502	13.1834
22.52	13.1561
22.538	13.1363
22.556	13.1241
22.574	13.1174
22.592	13.1165
22.61	13.1208
22.628	13.1284
22.646	13.1398
22.664	13.1541
22.682	13.1695
22.7	13.1864
22.718	13.2042
22.736	13.2217
22.754	13.2394
22.772	13.2565
22.79	13.2722
22.808	13.2869
22.826	13.3004
22.844	13.3124
22.862	13.3229
22.88	13.3326
22.898	13.3417
22.916	13.35
22.934	13.3584
22.952	13.3672
22.97	13.3761
22.988	13.3865
23.006	13.3985
23.024	13.4119
23.042	13.4269
23.06	13.4438
23.078	13.4622
23.096	13.4812
23.114	13.5015
23.132	13.5222
23.15	13.5408
23.168	13.5579
23.186	13.5728
23.204	13.5827
23.222	13.5885
23.24	13.5891
23.258	13.5809
23.276	13.5647
23.294	13.5397
23.312	13.5022
23.33	13.4526
23.348	13.3906
23.366	13.3138
23.384	13.2217
23.402	13.1152
23.42	12.9941
23.438	12.8577
23.456	12.7071
23.474	12.5443
23.492	12.3687
23.51	12.1809
23.528	11.985
23.546	11.781
23.564	11.5685
23.582	11.3532
23.6	11.1363
23.618	10.9161
23.636	10.6988
23.654	10.4869
23.672	10.2779
23.69	10.0767
23.708	9.886764
23.726	9.705410
23.744	9.535637
23.762	9.380256
23.78	9.237711
23.798	9.108971
23.816	8.995532
23.834	8.897198
23.852	8.813339
23.87	8.743555
23.888	8.688434
23.906	8.647083
23.924	8.617859
23.942	8.601212
23.96	8.596793
23.978	8.602170
23.996	8.616918
24.014	8.641765
24.032	8.673686
24.05	8.710988
24.068	8.755399
24.086	8.804049
24.104	8.854311
24.122	8.908247
24.14	8.963502
24.158	9.016654
24.176	9.069102
24.194	9.119913
24.212	9.165736
24.23	9.206200
24.248	9.242169
24.266	9.271101
24.284	9.291445
24.302	9.304466
24.32	9.309315
24.338	9.305220
24.356	9.293351
24.374	9.272201
24.392	9.239583
24.41	9.195217
24.428	9.139912
24.446	9.073790
24.464	8.996013
24.482	8.906472
24.5	8.808660
24.518	8.704965
24.536	8.591736
24.554	8.474307
24.572	8.359715
24.59	8.245137
24.608	8.131799
24.626	8.027713
24.644	7.935515
24.662	7.850679
24.68	7.781701
24.698	7.736293
24.716	7.708886
24.734	7.703565
24.752	7.728143
24.77	7.782893
24.788	7.865592
24.806	7.981361
24.824	8.133973
24.842	8.320752
24.86	8.542340
24.878	8.800070
24.896	9.095508
24.914	9.426403
24.932	9.789089
24.95	10.1832
24.968	10.6121
24.986	11.0665
25.004	11.5373
25.022	12.0306
25.04	12.5424
25.058	13.0611
25.076	13.5822
25.094	14.1125
25.112	14.6427
25.13	15.1634
25.148	15.6801
25.166	16.1903
25.184	16.6854
25.202	17.1616
25.22	17.6242
25.238	18.0676
25.256	18.486
25.274	18.8814
25.292	19.254
25.31	19.6008
25.328	19.9196
25.346	20.2121
25.364	20.4784
25.382	20.7186
25.4	20.933
25.418	21.1216
25.436	21.2836
25.454	21.4186
25.472	21.5278
25.49	21.61
25.508	21.6635
25.526	21.6888
25.544	21.6868
25.562	21.6545
25.58	21.5887
25.598	21.4915
25.616	21.3624
25.634	21.1992
25.652	21.0004
25.67	20.7673
25.688	20.5001
25.706	20.1991
25.724	19.8616
25.742	19.4886
25.76	19.0873
25.778	18.6638
25.796	18.21
25.814	17.7323
25.832	17.2439
25.85	16.7516
25.868	16.2408
25.886	15.7294
25.904	15.2394
25.922	14.7699
25.94	14.3084
25.958	13.8843
25.976	13.5271
25.994	13.2206
26.012	12.9657
26.03	12.7942
26.048	12.7334
26.066	12.7597
26.084	12.8832
26.102	13.1288
26.12	13.513
26.138	14.0184
26.156	14.652
26.174	15.424
26.192	16.3417
26.21	17.3992
26.228	18.5901
26.246	19.9083
26.264	21.3634
26.282	22.9544
26.3	24.6542
26.318	26.4369
26.336	28.3245
26.354	30.3107
26.372	32.3546
26.39	34.4199
26.408	36.5455
26.426	38.7115
26.444	40.8652
26.462	42.9639
26.48	45.0548
26.498	47.1122
26.516	49.0864
26.534	50.9428
26.552	52.7281
26.57	54.4121
26.588	55.9487
26.606	57.3098
26.624	58.5347
26.642	59.5997
26.66	60.4716
26.678	61.1314
26.696	61.6052
26.714	61.8811
26.732	61.9426
26.75	61.779
26.768	61.4002
26.786	60.8103
26.804	60.0125
26.822	59.0032
26.84	57.7748
26.858	56.3489
26.876	54.7485
26.894	52.9779
26.912	51.0114
26.93	48.886
26.948	46.6428
26.966	44.1732
26.984	41.2528
27.002	38.3889
27.02	36.1351
27.028	35.5398