File: Bakgrunnsmateriale/MATLAB/FTIR/ftir_data/LPE453/Mapping_121/LPE453_t119.asc
PE IR       SPECTRUM    SPECTRUM    ASCII       PEDS        1.60
  -1
LP9798~1.ASC
17/05/17
00:23:13.00
17/05/17
00:23:39.00
tln
$LPE453_t0119$<tbV0>[-7.8,13.0,8.0,0.0,27,1,0]
27.028
64

2002,4.07
MIRTGS : RIGHTBACK : INTERNAL 2
MIR : ON : INTERNAL 2
OPTKBR

0.200000
8
8.000000
FILLER
RATIO
SPECTRUM
UNLOCKED 256

DOUBLE
64
COMBINED
1
0
0

0.002000
RATIO

1
0
TRUE
51149
0
LEFT NOT FITTED RIGHT NOT FITTED 0
NONE
NONE
15600
12
4.427000
51148
TRUE
1 0 8 72 0 0 0 0

15798

#HDR
-1
-1
#GR
µM
%T
2.38419e-05
0.0
2.000000
0.002000
12515
8
34.7157
-2.406913
#DATA
2.000000	 0.275731
2.018000	 0.195479
2.036000	 -0.221758
2.054000	 0.334066
2.072000	 0.391838
2.090000	 -0.088833
2.108000	 -0.246188
2.126000	 0.958449
2.144000	 1.494265
2.162000	 0.891888
2.180000	 -0.241007
2.198000	 -0.740188
2.216000	 -1.198644
2.234000	 -2.383180
2.252000	 -0.322779
2.270000	 0.778262
2.288000	 0.921629
2.306000	 0.281550
2.324000	 0.415690
2.342000	 0.202820
2.360000	 -0.085512
2.378000	 0.177022
2.396000	 0.311413
2.414000	 0.309223
2.432000	 0.326637
2.450000	 -0.063513
2.468000	 0.089399
2.486000	 0.049364
2.504000	 -0.016624
2.522000	 0.088379
2.540000	 0.158460
2.558000	 0.120250
2.576000	 0.075684
2.594000	 0.115148
2.612000	 -0.079145
2.630000	 0.090422
2.648000	 0.056115
2.666000	 0.219356
2.684000	 0.005481
2.702000	 -0.138396
2.720000	 0.045234
2.738000	 0.200465
2.756000	 0.104264
2.774000	 -0.036055
2.792000	 0.122605
2.810000	 0.113345
2.828000	 0.171069
2.846000	 0.053602
2.864000	 -0.040476
2.882000	 -0.026715
2.900000	 -0.050470
2.918000	 0.139060
2.936000	 0.079693
2.954000	 0.088415
2.972000	 0.044277
2.990000	 -0.064656
3.008000	 0.032199
3.026000	 0.053724
3.044000	 0.145579
3.062000	 0.076172
3.080000	 0.082190
3.098000	 -0.160030
3.116000	 0.052835
3.134000	 0.136932
3.152000	 0.040301
3.170000	 0.021082
3.188000	 0.125028
3.206000	 0.115918
3.224000	 0.037982
3.242000	 0.040844
3.260000	 0.047530
3.278000	 0.068300
3.296000	 0.101161
3.314000	 0.055256
3.332000	 -0.115214
3.350000	 0.109124
3.368000	 0.091977
3.386000	 -0.085668
3.404000	 -0.123671
3.422000	 0.101369
3.440000	 0.059833
3.458000	 0.080917
3.476000	 0.000366
3.494000	 0.118554
3.512000	 0.039141
3.530000	 0.059638
3.548000	 0.041708
3.566000	 -0.083462
3.584000	 0.092293
3.602000	 0.048480
3.620000	 -0.002542
3.638000	 -0.044212
3.656000	 0.150591
3.674000	 0.063417
3.692000	 0.047219
3.710000	 -0.056213
3.728000	 0.027589
3.746000	 0.041484
3.764000	 0.012745
3.782000	 -0.001071
3.800000	 0.102996
3.818000	 -0.020959
3.836000	 0.049152
3.854000	 0.008873
3.872000	 0.209186
3.890000	 0.027114
3.908000	 0.107735
3.926000	 0.072104
3.944000	 -0.003896
3.962000	 -0.009820
3.980000	 0.021887
3.998000	 0.008127
4.016000	 -0.019975
4.034000	 -0.002009
4.052000	 0.052243
4.070000	 -0.006827
4.088000	 0.111230
4.106000	 0.026667
4.124000	 0.198243
4.141999	 0.123307
4.160000	 0.033160
4.178000	 0.078778
4.196000	 0.056851
4.214000	 0.078328
4.232000	 0.072781
4.250000	 0.084195
4.268000	 0.334191
4.286000	 0.340951
4.304000	 0.386919
4.322000	 0.480051
4.340000	 0.492920
4.358000	 0.570937
4.375999	 0.732380
4.394000	 0.908104
4.412000	 1.128910
4.430000	 1.404462
4.448000	 1.725253
4.466000	 2.029168
4.484000	 2.521920
4.502000	 2.973935
4.520000	 3.342552
4.538000	 3.989446
4.556000	 4.567702
4.574000	 5.183317
4.592000	 6.040634
4.609999	 6.764420
4.628000	 7.580073
4.646000	 8.348414
4.664000	 9.315762
4.682000	 10.1796
4.700000	 11.0159
4.718000	 11.937
4.736000	 12.9178
4.754000	 13.9846
4.772000	 14.7858
4.790000	 15.673
4.808000	 16.6136
4.826000	 17.2092
4.843999	 18.2007
4.862000	 19.1831
4.880000	 19.869
4.898000	 20.6127
4.916000	 21.2742
4.934000	 21.9662
4.952000	 22.6853
4.970000	 23.2431
4.988000	 23.9741
5.006000	 24.6065
5.024000	 24.9194
5.042000	 25.3846
5.060000	 25.8422
5.077999	 26.3931
5.096000	 26.9117
5.114000	 27.4636
5.132000	 27.86
5.150000	 28.181
5.168000	 28.5005
5.186000	 28.753
5.204000	 28.9897
5.222000	 29.2683
5.240000	 29.5918
5.258000	 29.9073
5.276000	 30.1525
5.294000	 30.4357
5.312000	 30.5968
5.330000	 30.7458
5.348000	 30.8329
5.366000	 30.9717
5.384000	 31.1877
5.402000	 31.3867
5.420000	 31.6278
5.438000	 31.8483
5.456000	 32.0052
5.474000	 32.1164
5.492000	 32.2301
5.510000	 32.3512
5.528000	 32.3853
5.546000	 32.3755
5.564000	 32.5233
5.582000	 32.6981
5.600000	 32.9378
5.618000	 33.0485
5.636000	 33.1323
5.654000	 33.1561
5.672000	 33.1293
5.690000	 33.1494
5.708000	 33.0949
5.726000	 33.1156
5.744000	 33.2537
5.762000	 33.3773
5.780000	 33.5929
5.798000	 33.7824
5.816000	 33.807
5.834000	 33.7875
5.852000	 33.785
5.870000	 33.8017
5.888000	 33.7807
5.906000	 33.7521
5.923999	 33.8249
5.942000	 33.9055
5.960000	 33.9364
5.978000	 34.0111
5.996000	 34.0745
6.014000	 34.1421
6.032000	 34.2864
6.050000	 34.3012
6.068000	 34.232
6.086000	 34.1543
6.104000	 34.0954
6.122000	 34.1031
6.140000	 34.0959
6.158000	 34.1126
6.176000	 34.1692
6.194000	 34.2876
6.212000	 34.3859
6.230000	 34.5152
6.248000	 34.6812
6.266000	 34.6407
6.284000	 34.4492
6.302000	 34.3347
6.320000	 34.2676
6.338000	 34.2154
6.356000	 34.238
6.374000	 34.2858
6.392000	 34.345
6.410000	 34.4214
6.428000	 34.4954
6.446000	 34.5579
6.464000	 34.6547
6.482000	 34.7137
6.500000	 34.6956
6.518000	 34.6314
6.536000	 34.5858
6.554000	 34.5371
6.572000	 34.4495
6.590000	 34.3872
6.608000	 34.3363
6.626000	 34.3257
6.644000	 34.3824
6.662000	 34.4256
6.680000	 34.4135
6.698000	 34.4717
6.716000	 34.6251
6.734000	 34.6424
6.752000	 34.5437
6.770000	 34.5347
6.788000	 34.5887
6.806000	 34.539
6.824000	 34.4152
6.842000	 34.2896
6.860000	 34.1862
6.878000	 34.2015
6.896000	 34.3103
6.914000	 34.3988
6.932000	 34.4517
6.950000	 34.4713
6.968000	 34.4609
6.986000	 34.4322
7.004000	 34.387
7.022000	 34.3446
7.040000	 34.3435
7.058000	 34.3802
7.076000	 34.4099
7.094000	 34.3869
7.112000	 34.2945
7.130000	 34.1852
7.148000	 34.109
7.166000	 34.0501
7.184000	 34.0038
7.202000	 33.991
7.220000	 34.0263
7.238000	 34.1162
7.256000	 34.2204
7.274000	 34.2913
7.292000	 34.3327
7.310000	 34.3388
7.328000	 34.2987
7.346000	 34.2586
7.364000	 34.2528
7.382000	 34.2422
7.400000	 34.1774
7.418000	 34.0563
7.436000	 33.919
7.454000	 33.8097
7.472000	 33.7432
7.490000	 33.7208
7.508000	 33.7462
7.526000	 33.802
7.544000	 33.8594
7.562000	 33.9143
7.580000	 33.9642
7.598000	 33.9968
7.616000	 34.0279
7.634000	 34.0811
7.652000	 34.135
7.670000	 34.1514
7.688000	 34.122
7.706000	 34.0578
7.724000	 33.9748
7.742000	 33.8924
7.760000	 33.8154
7.778000	 33.731
7.796000	 33.6334
7.814000	 33.5443
7.832000	 33.5019
7.850000	 33.5205
7.868000	 33.5625
7.886000	 33.5711
7.904000	 33.5332
7.922000	 33.4925
7.940000	 33.4967
7.958000	 33.5536
7.976000	 33.6349
7.994000	 33.6992
8.012000	 33.7235
8.030000	 33.7326
8.048000	 33.7668
8.065999	 33.8119
8.084000	 33.8062
8.102000	 33.7226
8.120000	 33.6006
8.138000	 33.4917
8.155999	 33.4148
8.173999	 33.3619
8.192000	 33.3149
8.210000	 33.2599
8.228000	 33.2085
8.246000	 33.1892
8.263999	 33.2073
8.282000	 33.2292
8.300000	 33.227
8.318000	 33.2173
8.336000	 33.2387
8.353999	 33.308
8.372000	 33.4039
8.390000	 33.4778
8.408000	 33.4992
8.426000	 33.4859
8.443999	 33.4736
8.462000	 33.4708
8.480000	 33.4594
8.498000	 33.4249
8.516000	 33.3743
8.533999	 33.3197
8.552000	 33.2535
8.570000	 33.1606
8.588000	 33.0504
8.606000	 32.9591
8.624000	 32.9115
8.641999	 32.8965
8.660000	 32.8842
8.678000	 32.8624
8.696000	 32.8441
8.714000	 32.8457
8.731999	 32.8685
8.750000	 32.9088
8.768000	 32.9632
8.786000	 33.0182
8.804000	 33.0513
8.821999	 33.052
8.840000	 33.0342
8.858000	 33.0256
8.876000	 33.045
8.894000	 33.0886
8.911999	 33.1285
8.930000	 33.1305
8.948000	 33.0785
8.966000	 32.9871
8.984000	 32.886
9.001999	 32.7917
9.020000	 32.7038
9.038000	 32.6224
9.056000	 32.5573
9.074000	 32.5129
9.092000	 32.474
9.109999	 32.4203
9.128000	 32.3524
9.146000	 32.2947
9.164000	 32.2741
9.182000	 32.3032
9.199999	 32.3757
9.218000	 32.4691
9.236000	 32.5501
9.254000	 32.5905
9.272000	 32.5845
9.289999	 32.5526
9.308000	 32.5242
9.326000	 32.5156
9.344000	 32.526
9.362000	 32.5492
9.379999	 32.5811
9.398000	 32.6162
9.416000	 32.6441
9.434000	 32.6508
9.452000	 32.6251
9.469999	 32.5672
9.488000	 32.4872
9.506000	 32.3974
9.524000	 32.3029
9.542000	 32.202
9.560000	 32.0963
9.577999	 31.9993
9.596000	 31.9331
9.614000	 31.9117
9.632000	 31.9289
9.650000	 31.9624
9.667999	 31.9904
9.686000	 32.0031
9.704000	 32.0015
9.722000	 31.9876
9.740000	 31.9625
9.757999	 31.9322
9.776000	 31.9131
9.794000	 31.9225
9.812000	 31.964
9.830000	 32.0224
9.847999	 32.075
9.866000	 32.1068
9.884000	 32.1176
9.902000	 32.1154
9.920000	 32.1078
9.937999	 32.0985
9.956000	 32.091
9.974000	 32.0898
9.992000	 32.0974
10.01	32.1093
10.028	32.1159
10.046	32.1069
10.064	32.077
10.082	32.0269
10.1	31.9622
10.118	31.8924
10.136	31.8291
10.154	31.7828
10.172	31.7578
10.19	31.7488
10.208	31.7411
10.226	31.7197
10.244	31.6764
10.262	31.6149
10.28	31.5473
10.298	31.4864
10.316	31.4402
10.334	31.4082
10.352	31.3845
10.37	31.3639
10.388	31.3457
10.406	31.3336
10.424	31.3325
10.442	31.3422
10.46	31.3566
10.478	31.3662
10.496	31.3646
10.514	31.3532
10.532	31.3415
10.55	31.3413
10.568	31.3607
10.586	31.4017
10.604	31.461
10.622	31.5321
10.64	31.6068
10.658	31.6751
10.676	31.7231
10.694	31.7371
10.712	31.7067
10.73	31.6317
10.748	31.5227
10.766	31.3987
10.784	31.2797
10.802	31.1821
10.82	31.1133
10.838	31.0727
10.856	31.0521
10.874	31.0376
10.892	31.0153
10.91	30.9745
10.928	30.9123
10.946	30.8341
10.964	30.7504
10.982	30.673
11	30.609
11.018	30.5607
11.036	30.5268
11.054	30.5065
11.072	30.5004
11.09	30.5096
11.108	30.5327
11.126	30.5644
11.144	30.5973
11.162	30.6242
11.18	30.6401
11.198	30.6431
11.216	30.6352
11.234	30.6203
11.252	30.6049
11.27	30.5957
11.288	30.5994
11.306	30.6197
11.324	30.6564
11.342	30.7046
11.36	30.7557
11.378	30.7992
11.396	30.8272
11.414	30.8348
11.432	30.8215
11.45	30.7896
11.468	30.7439
11.486	30.6897
11.504	30.6329
11.522	30.5789
11.54	30.5309
11.558	30.4907
11.576	30.4573
11.594	30.4286
11.612	30.4014
11.63	30.3723
11.648	30.3387
11.666	30.299
11.684	30.2523
11.702	30.199
11.72	30.1408
11.738	30.0802
11.756	30.0205
11.774	29.9655
11.792	29.9186
11.81	29.8817
11.828	29.8555
11.846	29.8398
11.864	29.8335
11.882	29.835
11.9	29.8423
11.918	29.8528
11.936	29.8641
11.954	29.8736
11.972	29.8791
11.99	29.8801
12.008	29.8768
12.026	29.8714
12.044	29.8668
12.062	29.8667
12.08	29.8748
12.098	29.8938
12.116	29.9253
12.134	29.9687
12.152	30.0208
12.17	30.076
12.188	30.1265
12.206	30.1636
12.224	30.1797
12.242	30.1704
12.26	30.1362
12.278	30.0826
12.296	30.0198
12.314	29.96
12.332	29.9133
12.35	29.8858
12.368	29.8774
12.386	29.8822
12.404	29.8902
12.422	29.8911
12.44	29.8769
12.458	29.844
12.476	29.7935
12.494	29.73
12.512	29.66
12.53	29.5892
12.548	29.5216
12.566	29.4598
12.584	29.4047
12.602	29.3569
12.62	29.3169
12.638	29.2849
12.656	29.2602
12.674	29.2402
12.692	29.2214
12.71	29.1994
12.728	29.1707
12.746	29.1339
12.764	29.0906
12.782	29.0455
12.8	29.0046
12.818	28.9744
12.836	28.9593
12.854	28.961
12.872	28.9776
12.89	29.0052
12.908	29.0387
12.926	29.0734
12.944	29.1057
12.962	29.1341
12.98	29.1585
12.998	29.1795
13.016	29.1984
13.034	29.2159
13.052	29.2329
13.07	29.2502
13.088	29.2687
13.106	29.2892
13.124	29.3126
13.142	29.3387
13.16	29.3665
13.178	29.3933
13.196	29.4156
13.214	29.4293
13.232	29.431
13.25	29.4184
13.268	29.3916
13.286	29.3519
13.304	29.3023
13.322	29.2461
13.34	29.1866
13.358	29.1262
13.376	29.0663
13.394	29.0072
13.412	28.9492
13.43	28.8923
13.448	28.837
13.466	28.7842
13.484	28.7344
13.502	28.6884
13.52	28.6465
13.538	28.6084
13.556	28.5731
13.574	28.5398
13.592	28.5079
13.61	28.4773
13.628	28.4486
13.646	28.4228
13.664	28.4009
13.682	28.3835
13.7	28.3708
13.718	28.3617
13.736	28.3554
13.754	28.3502
13.772	28.3454
13.79	28.3407
13.808	28.337
13.826	28.3357
13.844	28.3384
13.862	28.3462
13.88	28.3593
13.898	28.3762
13.916	28.3945
13.934	28.4103
13.952	28.4198
13.97	28.4199
13.988	28.4089
14.006	28.3868
14.024	28.356
14.042	28.3206
14.06	28.2854
14.078	28.2555
14.096	28.2347
14.114	28.2254
14.132	28.228
14.15	28.2414
14.168	28.2631
14.186	28.2901
14.204	28.3191
14.222	28.3475
14.24	28.3738
14.258	28.3973
14.276	28.4179
14.294	28.4359
14.312	28.4513
14.33	28.4639
14.348	28.4729
14.366	28.4769
14.384	28.4742
14.402	28.4631
14.42	28.4427
14.438	28.4124
14.456	28.373
14.474	28.326
14.492	28.2741
14.51	28.2209
14.528	28.1697
14.546	28.1237
14.564	28.0848
14.582	28.0542
14.6	28.0315
14.618	28.0151
14.636	28.0026
14.654	27.9908
14.672	27.9766
14.69	27.9574
14.708	27.931
14.726	27.8955
14.744	27.8504
14.762	27.7958
14.78	27.7331
14.798	27.6645
14.816	27.5925
14.834	27.5207
14.852	27.453
14.87	27.3925
14.888	27.3417
14.906	27.3022
14.924	27.2743
14.942	27.2568
14.96	27.2475
14.978	27.2437
14.996	27.2426
15.014	27.2418
15.032	27.239
15.05	27.2336
15.068	27.2256
15.086	27.2161
15.104	27.2064
15.122	27.1985
15.14	27.1937
15.158	27.1927
15.176	27.1956
15.194	27.202
15.212	27.2107
15.23	27.2204
15.248	27.2302
15.266	27.2393
15.284	27.2477
15.302	27.2562
15.32	27.2657
15.338	27.2774
15.356	27.2927
15.374	27.3122
15.392	27.3358
15.41	27.363
15.428	27.3928
15.446	27.4231
15.464	27.4523
15.482	27.4788
15.5	27.5007
15.518	27.517
15.536	27.527
15.554	27.5303
15.572	27.5271
15.59	27.5177
15.608	27.5028
15.626	27.4829
15.644	27.4588
15.662	27.431
15.68	27.4005
15.698	27.368
15.716	27.3347
15.734	27.3023
15.752	27.2723
15.77	27.2462
15.788	27.2262
15.806	27.2139
15.824	27.2103
15.842	27.2162
15.86	27.2311
15.878	27.2537
15.896	27.2824
15.914	27.3138
15.932	27.3442
15.95	27.3707
15.968	27.3893
15.986	27.3963
16.004	27.3902
16.022	27.3693
16.04	27.3335
16.058	27.2841
16.076	27.2226
16.094	27.1525
16.112	27.0772
16.13	27
16.148	26.9245
16.166	26.8541
16.184	26.7901
16.202	26.7343
16.22	26.6866
16.238	26.6459
16.256	26.6112
16.274	26.5798
16.292	26.5497
16.31	26.519
16.328	26.4854
16.346	26.448
16.364	26.4061
16.382	26.3598
16.4	26.31
16.418	26.2576
16.436	26.2045
16.454	26.1524
16.472	26.1026
16.49	26.0572
16.508	26.0171
16.526	25.983
16.544	25.9554
16.562	25.9341
16.58	25.9187
16.598	25.9082
16.616	25.9015
16.634	25.8976
16.652	25.8947
16.67	25.8921
16.688	25.8887
16.706	25.8839
16.724	25.8775
16.742	25.8694
16.76	25.8602
16.778	25.8502
16.796	25.8401
16.814	25.8311
16.832	25.8235
16.85	25.8186
16.868	25.8164
16.886	25.8173
16.904	25.8213
16.922	25.828
16.94	25.8369
16.958	25.8469
16.976	25.8577
16.994	25.8683
17.012	25.8786
17.03	25.8883
17.048	25.8974
17.066	25.9065
17.084	25.9162
17.102	25.9276
17.12	25.9412
17.138	25.9583
17.156	25.9788
17.174	26.0033
17.192	26.0311
17.21	26.0617
17.228	26.0938
17.246	26.1258
17.264	26.1569
17.282	26.1847
17.3	26.2085
17.318	26.2271
17.336	26.24
17.354	26.2469
17.372	26.2482
17.39	26.2442
17.408	26.2357
17.426	26.2234
17.444	26.2081
17.462	26.1906
17.48	26.1711
17.498	26.1499
17.516	26.1266
17.534	26.1013
17.552	26.0733
17.57	26.0423
17.588	26.0077
17.606	25.9697
17.624	25.9283
17.642	25.8844
17.66	25.8381
17.678	25.7915
17.696	25.7451
17.714	25.7011
17.732	25.6605
17.75	25.6248
17.768	25.595
17.786	25.5716
17.804	25.5544
17.822	25.5432
17.84	25.5367
17.858	25.5337
17.876	25.5327
17.894	25.5317
17.912	25.5295
17.93	25.5239
17.948	25.5143
17.966	25.4992
17.984	25.4789
18.002	25.4531
18.02	25.4227
18.038	25.3882
18.056	25.3515
18.074	25.3131
18.092	25.2753
18.11	25.2385
18.128	25.2046
18.146	25.1738
18.164	25.147
18.182	25.1241
18.2	25.1051
18.218	25.0893
18.236	25.0765
18.254	25.0652
18.272	25.0552
18.29	25.0453
18.308	25.0351
18.326	25.0239
18.344	25.0117
18.362	24.9984
18.38	24.9844
18.398	24.9701
18.416	24.9559
18.434	24.9425
18.452	24.9303
18.47	24.9196
18.488	24.9104
18.506	24.903
18.524	24.8966
18.542	24.891
18.56	24.885
18.578	24.8781
18.596	24.8688
18.614	24.8569
18.632	24.8409
18.65	24.8209
18.668	24.796
18.686	24.7667
18.704	24.7332
18.722	24.696
18.74	24.6565
18.758	24.6151
18.776	24.5737
18.794	24.5327
18.812	24.4941
18.83	24.4582
18.848	24.4264
18.866	24.3989
18.884	24.3765
18.902	24.3591
18.92	24.3469
18.938	24.3393
18.956	24.3363
18.974	24.3374
18.992	24.3419
19.01	24.3497
19.028	24.3601
19.046	24.3731
19.064	24.3884
19.082	24.406
19.1	24.4258
19.118	24.4477
19.136	24.4718
19.154	24.498
19.172	24.5263
19.19	24.5566
19.208	24.5886
19.226	24.6219
19.244	24.6557
19.262	24.6896
19.28	24.7218
19.298	24.7524
19.316	24.7792
19.334	24.8023
19.352	24.8196
19.37	24.831
19.388	24.8351
19.406	24.8317
19.424	24.8202
19.442	24.8002
19.46	24.7724
19.478	24.7366
19.496	24.6943
19.514	24.6455
19.532	24.5922
19.55	24.5349
19.568	24.4755
19.586	24.4154
19.604	24.3556
19.622	24.2984
19.64	24.2439
19.658	24.1947
19.676	24.1504
19.694	24.1132
19.712	24.0829
19.73	24.0603
19.748	24.0457
19.766	24.0387
19.784	24.0396
19.802	24.0475
19.82	24.062
19.838	24.0825
19.856	24.1078
19.874	24.1376
19.892	24.1699
19.91	24.2049
19.928	24.2399
19.946	24.2753
19.964	24.3086
19.982	24.3399
20	24.3673
20.018	24.3902
20.036	24.4079
20.054	24.4191
20.072	24.4239
20.09	24.4207
20.108	24.41
20.126	24.3908
20.144	24.3633
20.162	24.3273
20.18	24.2825
20.198	24.2295
20.216	24.1684
20.234	24.0994
20.252	24.0235
20.27	23.9406
20.288	23.8521
20.306	23.7581
20.324	23.6598
20.342	23.5579
20.36	23.453
20.378	23.3468
20.396	23.2389
20.414	23.1317
20.432	23.0248
20.45	22.9198
20.468	22.8174
20.486	22.718
20.504	22.6232
20.522	22.5328
20.54	22.4484
20.558	22.3696
20.576	22.2979
20.594	22.2336
20.612	22.1769
20.63	22.1287
20.648	22.0885
20.666	22.0574
20.684	22.0353
20.702	22.0221
20.72	22.0178
20.738	22.0223
20.756	22.0354
20.774	22.0572
20.792	22.0865
20.81	22.1234
20.828	22.1671
20.846	22.2168
20.864	22.2726
20.882	22.3325
20.9	22.3968
20.918	22.4642
20.936	22.5336
20.954	22.6051
20.972	22.6766
20.99	22.7484
21.008	22.819
21.026	22.8876
21.044	22.9541
21.062	23.0164
21.08	23.0753
21.098	23.129
21.116	23.1772
21.134	23.2197
21.152	23.2551
21.17	23.2841
21.188	23.3054
21.206	23.319
21.224	23.3248
21.242	23.3224
21.26	23.3118
21.278	23.2933
21.296	23.2667
21.314	23.2326
21.332	23.1915
21.35	23.1432
21.368	23.0893
21.386	23.0298
21.404	22.9654
21.422	22.8979
21.44	22.8267
21.458	22.754
21.476	22.6806
21.494	22.6066
21.512	22.5347
21.53	22.4642
21.548	22.3968
21.566	22.3337
21.584	22.2744
21.602	22.2208
21.62	22.1728
21.638	22.1307
21.656	22.0953
21.674	22.0663
21.692	22.0439
21.71	22.0283
21.728	22.0192
21.746	22.0164
21.764	22.0201
21.782	22.0295
21.8	22.0444
21.818	22.0648
21.836	22.0897
21.854	22.1191
21.872	22.1527
21.89	22.1892
21.908	22.2292
21.926	22.2714
21.944	22.3151
21.962	22.3606
21.98	22.4062
21.998	22.4521
22.016	22.4977
22.034	22.5411
22.052	22.583
22.07	22.6221
22.088	22.6574
22.106	22.6894
22.124	22.717
22.142	22.74
22.16	22.7585
22.178	22.7718
22.196	22.7801
22.214	22.7833
22.232	22.7812
22.25	22.7737
22.268	22.7615
22.286	22.7448
22.304	22.7235
22.322	22.6993
22.34	22.6722
22.358	22.6425
22.376	22.6119
22.394	22.5802
22.412	22.5479
22.43	22.5167
22.448	22.4858
22.466	22.4565
22.484	22.4298
22.502	22.4051
22.52	22.3838
22.538	22.3662
22.556	22.3522
22.574	22.3424
22.592	22.3371
22.61	22.336
22.628	22.3392
22.646	22.3468
22.664	22.3587
22.682	22.3745
22.7	22.3945
22.718	22.4182
22.736	22.4448
22.754	22.4748
22.772	22.5074
22.79	22.5417
22.808	22.5783
22.826	22.6159
22.844	22.6537
22.862	22.6922
22.88	22.7296
22.898	22.7651
22.916	22.7994
22.934	22.8304
22.952	22.8574
22.97	22.881
22.988	22.8992
23.006	22.9117
23.024	22.9188
23.042	22.9193
23.06	22.9127
23.078	22.8996
23.096	22.8795
23.114	22.8523
23.132	22.8184
23.15	22.7781
23.168	22.731
23.186	22.6778
23.204	22.6203
23.222	22.5583
23.24	22.492
23.258	22.4231
23.276	22.3513
23.294	22.277
23.312	22.2013
23.33	22.1247
23.348	22.0467
23.366	21.9673
23.384	21.8866
23.402	21.8045
23.42	21.7205
23.438	21.6352
23.456	21.5481
23.474	21.4568
23.492	21.3618
23.51	21.2629
23.528	21.1569
23.546	21.0434
23.564	20.923
23.582	20.7929
23.6	20.6519
23.618	20.501
23.636	20.3389
23.654	20.1644
23.672	19.9783
23.69	19.7811
23.708	19.5728
23.726	19.3528
23.744	19.1238
23.762	18.8879
23.78	18.6429
23.798	18.3926
23.816	18.1411
23.834	17.8856
23.852	17.6294
23.87	17.3781
23.888	17.1292
23.906	16.8848
23.924	16.6504
23.942	16.4257
23.96	16.2104
23.978	16.0091
23.996	15.8237
24.014	15.6522
24.032	15.4966
24.05	15.3586
24.068	15.2373
24.086	15.1322
24.104	15.0432
24.122	14.9708
24.14	14.9138
24.158	14.8703
24.176	14.8415
24.194	14.8262
24.212	14.8219
24.23	14.8286
24.248	14.8466
24.266	14.8733
24.284	14.9071
24.302	14.9495
24.32	14.9984
24.338	15.0519
24.356	15.1113
24.374	15.1753
24.392	15.2419
24.41	15.3113
24.428	15.3837
24.446	15.4573
24.464	15.5319
24.482	15.6083
24.5	15.6842
24.518	15.7576
24.536	15.8298
24.554	15.9
24.572	15.9664
24.59	16.03
24.608	16.0902
24.626	16.1451
24.644	16.1934
24.662	16.2361
24.68	16.2734
24.698	16.305
24.716	16.3303
24.734	16.3507
24.752	16.3677
24.77	16.3803
24.788	16.3888
24.806	16.3973
24.824	16.4083
24.842	16.4184
24.86	16.4321
24.878	16.4548
24.896	16.4839
24.914	16.5204
24.932	16.5704
24.95	16.6368
24.968	16.7161
24.986	16.8119
25.004	16.9279
25.022	17.0626
25.04	17.2163
25.058	17.3911
25.076	17.588
25.094	17.8059
25.112	18.0453
25.13	18.3074
25.148	18.5936
25.166	18.9015
25.184	19.227
25.202	19.5698
25.22	19.9328
25.238	20.3083
25.256	20.6889
25.274	21.081
25.292	21.4804
25.31	21.8749
25.328	22.2585
25.346	22.6407
25.364	23.0098
25.382	23.3522
25.4	23.6733
25.418	23.9731
25.436	24.2377
25.454	24.4567
25.472	24.6405
25.49	24.7819
25.508	24.8695
25.526	24.9004
25.544	24.8801
25.562	24.8051
25.58	24.6716
25.598	24.4783
25.616	24.229
25.634	23.9281
25.652	23.5764
25.67	23.1677
25.688	22.7141
25.706	22.2293
25.724	21.7097
25.742	21.1516
25.76	20.5741
25.778	19.9946
25.796	19.4009
25.814	18.7981
25.832	18.2025
25.85	17.6249
25.868	17.053
25.886	16.4954
25.904	15.9636
25.922	15.4609
25.94	14.981
25.958	14.5287
25.976	14.1091
25.994	13.722
26.012	13.3656
26.03	13.0395
26.048	12.7441
26.066	12.4811
26.084	12.2478
26.102	12.0405
26.12	11.8571
26.138	11.7006
26.156	11.568
26.174	11.4556
26.192	11.3613
26.21	11.2872
26.228	11.233
26.246	11.1982
26.264	11.1815
26.282	11.1836
26.3	11.2061
26.318	11.2512
26.336	11.3162
26.354	11.402
26.372	11.5129
26.39	11.6529
26.408	11.8198
26.426	12.0133
26.444	12.2353
26.462	12.4875
26.48	12.7697
26.498	13.0805
26.516	13.4182
26.534	13.783
26.552	14.1803
26.57	14.602
26.588	15.0381
26.606	15.484
26.624	15.9522
26.642	16.429
26.66	16.8973
26.678	17.3505
26.696	17.8068
26.714	18.2465
26.732	18.6459
26.75	18.9962
26.768	19.3197
26.786	19.5944
26.804	19.7951
26.822	19.9113
26.84	19.9646
26.858	19.938
26.876	19.8116
26.894	19.5748
26.912	19.2427
26.93	18.8096
26.948	18.268
26.966	17.5551
26.984	16.5903
27.002	15.5921
27.02	14.7968
27.028	14.5922