File: Bakgrunnsmateriale/MATLAB/FTIR/ftir_data/LPE453/Mapping_121/LPE453_t93.asc
PE IR       SPECTRUM    SPECTRUM    ASCII       PEDS        1.60
  -1
LPC7B5~1.ASC
17/05/16
22:02:03.00
17/05/16
22:02:29.00
tln
$LPE453_t0093$<tbV0>[2.6,7.8,8.0,0.0,27,1,0]
27.028
64

2002,4.07
MIRTGS : RIGHTBACK : INTERNAL 2
MIR : ON : INTERNAL 2
OPTKBR

0.200000
8
8.000000
FILLER
RATIO
SPECTRUM
UNLOCKED 256

DOUBLE
64
COMBINED
1
0
0

0.002000
RATIO

1
0
TRUE
51149
0
LEFT NOT FITTED RIGHT NOT FITTED 0
NONE
NONE
15600
12
4.427000
51148
TRUE
1 0 8 72 0 0 0 0

15798

#HDR
-1
-1
#GR
µM
%T
2.38419e-05
0.0
2.000000
0.002000
12515
8
35.269
-36.1995
#DATA
2.000000	 0.520515
2.018000	 0.269382
2.036000	 -0.205198
2.054000	 0.373493
2.072000	 0.600643
2.090000	 0.569675
2.108000	 -0.161810
2.126000	 0.535043
2.144000	 -0.384744
2.162000	 1.695293
2.180000	 0.235606
2.198000	 -1.516674
2.216000	 1.402932
2.234000	 -2.084268
2.252000	 -1.650929
2.270000	 0.472768
2.288000	 0.557200
2.306000	 0.313646
2.324000	 0.338762
2.342000	 0.039352
2.360000	 0.471199
2.378000	 0.053756
2.396000	 0.192492
2.414000	 0.146777
2.432000	 0.268476
2.450000	 0.123152
2.468000	 0.030392
2.486000	 0.043708
2.504000	 0.021712
2.522000	 0.060876
2.540000	 0.153560
2.558000	 -0.027568
2.576000	 -0.012436
2.594000	 0.056217
2.612000	 0.189441
2.630000	 -0.048931
2.648000	 0.065179
2.666000	 0.117222
2.684000	 0.120381
2.702000	 0.108653
2.720000	 0.208603
2.738000	 -0.033096
2.756000	 0.017868
2.774000	 -0.028260
2.792000	 -0.004843
2.810000	 0.154659
2.828000	 0.107175
2.846000	 -0.020572
2.864000	 0.064767
2.882000	 0.046607
2.900000	 0.246043
2.918000	 0.100108
2.936000	 0.091915
2.954000	 -0.024464
2.972000	 -0.021655
2.990000	 -0.176940
3.008000	 0.012798
3.026000	 0.075659
3.044000	 0.008762
3.062000	 0.053074
3.080000	 0.067121
3.098000	 -0.026317
3.116000	 -0.012658
3.134000	 -0.024026
3.152000	 0.068774
3.170000	 0.122493
3.188000	 0.077214
3.206000	 0.140852
3.224000	 0.180540
3.242000	 0.053012
3.260000	 -0.032062
3.278000	 0.031052
3.296000	 -0.013423
3.314000	 -0.006784
3.332000	 0.096959
3.350000	 0.120507
3.368000	 0.041019
3.386000	 -0.079834
3.404000	 -0.010520
3.422000	 0.034179
3.440000	 0.081364
3.458000	 -0.003575
3.476000	 0.013689
3.494000	 0.026911
3.512000	 0.118258
3.530000	 0.004709
3.548000	 0.025809
3.566000	 0.063358
3.584000	 -0.024341
3.602000	 0.125305
3.620000	 0.037386
3.638000	 -0.000992
3.656000	 0.069344
3.674000	 0.010003
3.692000	 -0.032599
3.710000	 -0.139339
3.728000	 0.118568
3.746000	 0.003331
3.764000	 0.020830
3.782000	 0.038244
3.800000	 0.013571
3.818000	 0.024708
3.836000	 -0.024523
3.854000	 0.033541
3.872000	 0.008071
3.890000	 0.058329
3.908000	 0.105316
3.926000	 0.011814
3.944000	 0.058642
3.962000	 -0.098676
3.980000	 -0.057139
3.998000	 0.050287
4.016000	 -0.056284
4.034000	 -0.022351
4.052000	 0.099327
4.070000	 0.217022
4.088000	 0.012261
4.106000	 -0.018096
4.124000	 -0.022408
4.141999	 0.165392
4.160000	 0.009301
4.178000	 -0.031265
4.196000	 0.040064
4.214000	 0.002743
4.232000	 0.106757
4.250000	 0.113155
4.268000	 0.079765
4.286000	 0.215849
4.304000	 0.241248
4.322000	 0.348929
4.340000	 0.435429
4.358000	 0.584258
4.375999	 0.789440
4.394000	 0.864475
4.412000	 1.144443
4.430000	 1.529745
4.448000	 1.797291
4.466000	 2.106216
4.484000	 2.593414
4.502000	 3.095632
4.520000	 3.535872
4.538000	 4.086478
4.556000	 4.799285
4.574000	 5.540916
4.592000	 6.441391
4.609999	 7.278342
4.628000	 8.145877
4.646000	 9.041305
4.664000	 10.0222
4.682000	 11.0198
4.700000	 11.9816
4.718000	 12.9
4.736000	 14.0043
4.754000	 15.1213
4.772000	 16.199
4.790000	 17.1605
4.808000	 17.9523
4.826000	 18.8592
4.843999	 19.8323
4.862000	 20.8277
4.880000	 21.7606
4.898000	 22.4587
4.916000	 23.1931
4.934000	 23.897
4.952000	 24.5736
4.970000	 25.2926
4.988000	 26.023
5.006000	 26.6486
5.024000	 27.1943
5.042000	 27.493
5.060000	 27.9422
5.077999	 28.3231
5.096000	 28.7318
5.114000	 29.2973
5.132000	 29.8375
5.150000	 30.1386
5.168000	 30.3736
5.186000	 30.5531
5.204000	 30.7931
5.222000	 31.0927
5.240000	 31.422
5.258000	 31.7618
5.276000	 32.1558
5.294000	 32.3437
5.312000	 32.3844
5.330000	 32.4044
5.348000	 32.5488
5.366000	 32.7094
5.384000	 32.9024
5.402000	 33.1999
5.420000	 33.4173
5.438000	 33.5971
5.456000	 33.6873
5.474000	 33.6101
5.492000	 33.531
5.510000	 33.5153
5.528000	 33.6308
5.546000	 33.7876
5.564000	 33.9856
5.582000	 34.1664
5.600000	 34.3158
5.618000	 34.4156
5.636000	 34.4129
5.654000	 34.2879
5.672000	 34.1199
5.690000	 34.105
5.708000	 34.2251
5.726000	 34.3245
5.744000	 34.5078
5.762000	 34.7139
5.780000	 34.7624
5.798000	 34.7665
5.816000	 34.7199
5.834000	 34.626
5.852000	 34.4405
5.870000	 34.3007
5.888000	 34.2844
5.906000	 34.4497
5.923999	 34.7238
5.942000	 34.9661
5.960000	 35.0563
5.978000	 34.9859
5.996000	 34.8933
6.014000	 34.7672
6.032000	 34.6298
6.050000	 34.5368
6.068000	 34.4087
6.086000	 34.3941
6.104000	 34.5502
6.122000	 34.7614
6.140000	 34.9349
6.158000	 35.1047
6.176000	 35.1316
6.194000	 35.0614
6.212000	 34.994
6.230000	 34.8646
6.248000	 34.6578
6.266000	 34.4802
6.284000	 34.4623
6.302000	 34.5315
6.320000	 34.6176
6.338000	 34.7725
6.356000	 35.0263
6.374000	 35.2298
6.392000	 35.2527
6.410000	 35.0919
6.428000	 34.9266
6.446000	 34.8585
6.464000	 34.8026
6.482000	 34.6784
6.500000	 34.5324
6.518000	 34.4667
6.536000	 34.4938
6.554000	 34.5944
6.572000	 34.7581
6.590000	 35.0107
6.608000	 35.2185
6.626000	 35.2244
6.644000	 35.1092
6.662000	 35.0059
6.680000	 34.872
6.698000	 34.6519
6.716000	 34.5251
6.734000	 34.5046
6.752000	 34.4479
6.770000	 34.3956
6.788000	 34.4293
6.806000	 34.4899
6.824000	 34.5434
6.842000	 34.6772
6.860000	 34.8917
6.878000	 35.0625
6.896000	 35.0925
6.914000	 34.9752
6.932000	 34.7825
6.950000	 34.5718
6.968000	 34.3678
6.986000	 34.225
7.004000	 34.1646
7.022000	 34.1477
7.040000	 34.1769
7.058000	 34.2832
7.076000	 34.4309
7.094000	 34.5576
7.112000	 34.6656
7.130000	 34.7723
7.148000	 34.8306
7.166000	 34.8226
7.184000	 34.7935
7.202000	 34.7267
7.220000	 34.6067
7.238000	 34.4954
7.256000	 34.4061
7.274000	 34.3105
7.292000	 34.2309
7.310000	 34.1738
7.328000	 34.1322
7.346000	 34.1488
7.364000	 34.2464
7.382000	 34.3943
7.400000	 34.5563
7.418000	 34.6967
7.436000	 34.7851
7.454000	 34.802
7.472000	 34.7309
7.490000	 34.606
7.508000	 34.5093
7.526000	 34.4554
7.544000	 34.3722
7.562000	 34.2326
7.580000	 34.1032
7.598000	 34.0387
7.616000	 34.0219
7.634000	 34.0191
7.652000	 34.0249
7.670000	 34.0491
7.688000	 34.113
7.706000	 34.2367
7.724000	 34.3959
7.742000	 34.5299
7.760000	 34.6075
7.778000	 34.6394
7.796000	 34.6296
7.814000	 34.579
7.832000	 34.5092
7.850000	 34.4335
7.868000	 34.3274
7.886000	 34.1606
7.904000	 33.9566
7.922000	 33.7879
7.940000	 33.7012
7.958000	 33.6736
7.976000	 33.6683
7.994000	 33.6845
8.012000	 33.7349
8.030000	 33.8224
8.048000	 33.9466
8.065999	 34.0979
8.084000	 34.2496
8.102000	 34.3766
8.120000	 34.4666
8.138000	 34.5164
8.155999	 34.5314
8.173999	 34.514
8.192000	 34.4439
8.210000	 34.3027
8.228000	 34.1198
8.246000	 33.9477
8.263999	 33.7971
8.282000	 33.6476
8.300000	 33.5127
8.318000	 33.4315
8.336000	 33.4044
8.353999	 33.393
8.372000	 33.3865
8.390000	 33.42
8.408000	 33.5223
8.426000	 33.6769
8.443999	 33.8389
8.462000	 33.9722
8.480000	 34.0708
8.498000	 34.1534
8.516000	 34.241
8.533999	 34.3265
8.552000	 34.3677
8.570000	 34.3182
8.588000	 34.1741
8.606000	 33.9841
8.624000	 33.8113
8.641999	 33.6886
8.660000	 33.6062
8.678000	 33.5317
8.696000	 33.4411
8.714000	 33.3377
8.731999	 33.2489
8.750000	 33.2026
8.768000	 33.2037
8.786000	 33.2337
8.804000	 33.2743
8.821999	 33.3235
8.840000	 33.3873
8.858000	 33.4635
8.876000	 33.5447
8.894000	 33.6302
8.911999	 33.7242
8.930000	 33.8198
8.948000	 33.8945
8.966000	 33.928
8.984000	 33.9247
9.001999	 33.9092
9.020000	 33.8934
9.038000	 33.8534
9.056000	 33.7475
9.074000	 33.5622
9.092000	 33.3374
9.109999	 33.1396
9.128000	 33.0119
9.146000	 32.9496
9.164000	 32.9227
9.182000	 32.9131
9.199999	 32.9222
9.218000	 32.9523
9.236000	 32.9924
9.254000	 33.0295
9.272000	 33.0611
9.289999	 33.0962
9.308000	 33.1423
9.326000	 33.1997
9.344000	 33.2641
9.362000	 33.3319
9.379999	 33.401
9.398000	 33.4706
9.416000	 33.5394
9.434000	 33.6039
9.452000	 33.6521
9.469999	 33.6651
9.488000	 33.6309
9.506000	 33.5614
9.524000	 33.4909
9.542000	 33.4476
9.560000	 33.4243
9.577999	 33.3814
9.596000	 33.2846
9.614000	 33.1359
9.632000	 32.9723
9.650000	 32.8345
9.667999	 32.7391
9.686000	 32.6732
9.704000	 32.6124
9.722000	 32.5425
9.740000	 32.4683
9.757999	 32.4076
9.776000	 32.3797
9.794000	 32.3971
9.812000	 32.463
9.830000	 32.5702
9.847999	 32.7031
9.866000	 32.8422
9.884000	 32.9697
9.902000	 33.0732
9.920000	 33.1461
9.937999	 33.1876
9.956000	 33.2041
9.974000	 33.2052
9.992000	 33.1994
10.01	33.1889
10.028	33.171
10.046	33.1425
10.064	33.1031
10.082	33.0566
10.1	33.0078
10.118	32.9591
10.136	32.9085
10.154	32.8499
10.172	32.7747
10.19	32.6734
10.208	32.5415
10.226	32.3841
10.244	32.2168
10.262	32.063
10.28	31.9432
10.298	31.8698
10.316	31.8439
10.334	31.8585
10.352	31.9044
10.37	31.9724
10.388	32.0555
10.406	32.1475
10.424	32.2424
10.442	32.3352
10.46	32.4221
10.478	32.4996
10.496	32.5642
10.514	32.6124
10.532	32.6419
10.55	32.6532
10.568	32.6502
10.586	32.6388
10.604	32.6238
10.622	32.6082
10.64	32.5915
10.658	32.5712
10.676	32.5441
10.694	32.5082
10.712	32.4619
10.73	32.4054
10.748	32.3391
10.766	32.2645
10.784	32.183
10.802	32.0961
10.82	32.0051
10.838	31.9121
10.856	31.8202
10.874	31.7348
10.892	31.6612
10.91	31.6028
10.928	31.5592
10.946	31.5258
10.964	31.4964
10.982	31.4663
11	31.4349
11.018	31.4064
11.036	31.388
11.054	31.3873
11.072	31.4081
11.09	31.4504
11.108	31.5097
11.126	31.5785
11.144	31.6506
11.162	31.7216
11.18	31.7915
11.198	31.8635
11.216	31.9409
11.234	32.0237
11.252	32.1063
11.27	32.1782
11.288	32.2262
11.306	32.2422
11.324	32.2261
11.342	32.1869
11.36	32.138
11.378	32.0889
11.396	32.0387
11.414	31.9765
11.432	31.8871
11.45	31.7616
11.468	31.6033
11.486	31.4279
11.504	31.258
11.522	31.1138
11.54	31.0041
11.558	30.9248
11.576	30.8629
11.594	30.8049
11.612	30.7427
11.63	30.6778
11.648	30.6193
11.666	30.5774
11.684	30.5592
11.702	30.5646
11.72	30.5873
11.738	30.618
11.756	30.6498
11.774	30.6793
11.792	30.7083
11.81	30.7409
11.828	30.7813
11.846	30.832
11.864	30.8932
11.882	30.9626
11.9	31.0372
11.918	31.1132
11.936	31.1867
11.954	31.2535
11.972	31.3088
11.99	31.3481
12.008	31.3685
12.026	31.3694
12.044	31.3533
12.062	31.325
12.08	31.2899
12.098	31.2527
12.116	31.2152
12.134	31.1762
12.152	31.1321
12.17	31.0786
12.188	31.0124
12.206	30.9328
12.224	30.8412
12.242	30.741
12.26	30.6362
12.278	30.5303
12.296	30.4261
12.314	30.3255
12.332	30.2303
12.35	30.1422
12.368	30.0627
12.386	29.9936
12.404	29.9371
12.422	29.8944
12.44	29.8656
12.458	29.8486
12.476	29.8391
12.494	29.8314
12.512	29.8199
12.53	29.8016
12.548	29.7774
12.566	29.752
12.584	29.7329
12.602	29.7283
12.62	29.7447
12.638	29.7842
12.656	29.8453
12.674	29.9225
12.692	30.0091
12.71	30.0988
12.728	30.1871
12.746	30.2721
12.764	30.3536
12.782	30.4314
12.8	30.5047
12.818	30.5711
12.836	30.6272
12.854	30.6689
12.872	30.6938
12.89	30.7006
12.908	30.6904
12.926	30.6655
12.944	30.6292
12.962	30.5844
12.98	30.5333
12.998	30.4773
13.016	30.417
13.034	30.3533
13.052	30.2875
13.07	30.2215
13.088	30.1568
13.106	30.0947
13.124	30.0352
13.142	29.9774
13.16	29.9195
13.178	29.8595
13.196	29.7961
13.214	29.7286
13.232	29.6575
13.25	29.5841
13.268	29.5098
13.286	29.4361
13.304	29.3643
13.322	29.2954
13.34	29.2302
13.358	29.1689
13.376	29.1121
13.394	29.0601
13.412	29.0136
13.43	28.9735
13.448	28.9409
13.466	28.9171
13.484	28.9031
13.502	28.9006
13.52	28.9106
13.538	28.9336
13.556	28.9692
13.574	29.0155
13.592	29.0694
13.61	29.1265
13.628	29.1823
13.646	29.2324
13.664	29.2739
13.682	29.3056
13.7	29.3279
13.718	29.3431
13.736	29.354
13.754	29.3638
13.772	29.3752
13.79	29.39
13.808	29.4088
13.826	29.4314
13.844	29.4572
13.862	29.4852
13.88	29.5142
13.898	29.543
13.916	29.5702
13.934	29.5939
13.952	29.6121
13.97	29.6222
13.988	29.6214
14.006	29.6077
14.024	29.5802
14.042	29.5391
14.06	29.4863
14.078	29.4249
14.096	29.3586
14.114	29.2911
14.132	29.2254
14.15	29.1634
14.168	29.1056
14.186	29.0516
14.204	28.9997
14.222	28.9485
14.24	28.897
14.258	28.8451
14.276	28.7938
14.294	28.7444
14.312	28.6986
14.33	28.6574
14.348	28.6215
14.366	28.5899
14.384	28.5605
14.402	28.53
14.42	28.4947
14.438	28.4514
14.456	28.3978
14.474	28.3329
14.492	28.2571
14.51	28.1725
14.528	28.0824
14.546	27.9907
14.564	27.901
14.582	27.8167
14.6	27.7404
14.618	27.6741
14.636	27.619
14.654	27.5754
14.672	27.5434
14.69	27.5227
14.708	27.5125
14.726	27.5115
14.744	27.5178
14.762	27.5285
14.78	27.5411
14.798	27.5528
14.816	27.5611
14.834	27.5647
14.852	27.5628
14.87	27.5569
14.888	27.5496
14.906	27.5441
14.924	27.5448
14.942	27.5556
14.96	27.5799
14.978	27.6191
14.996	27.6735
15.014	27.7419
15.032	27.8205
15.05	27.9045
15.068	27.9886
15.086	28.0678
15.104	28.1373
15.122	28.1931
15.14	28.2334
15.158	28.258
15.176	28.2676
15.194	28.2644
15.212	28.2518
15.23	28.2331
15.248	28.2112
15.266	28.1886
15.284	28.168
15.302	28.1501
15.32	28.1352
15.338	28.1227
15.356	28.1109
15.374	28.0983
15.392	28.0829
15.41	28.0631
15.428	28.0374
15.446	28.0043
15.464	27.9633
15.482	27.9142
15.5	27.8566
15.518	27.7912
15.536	27.7183
15.554	27.6387
15.572	27.5532
15.59	27.4632
15.608	27.3702
15.626	27.2761
15.644	27.1831
15.662	27.0939
15.68	27.0108
15.698	26.9356
15.716	26.8705
15.734	26.8162
15.752	26.7727
15.77	26.7395
15.788	26.7147
15.806	26.6959
15.824	26.6811
15.842	26.6675
15.86	26.6524
15.878	26.6349
15.896	26.6141
15.914	26.5908
15.932	26.5666
15.95	26.5434
15.968	26.5239
15.986	26.5112
16.004	26.5067
16.022	26.5122
16.04	26.5279
16.058	26.5523
16.076	26.584
16.094	26.6199
16.112	26.656
16.13	26.6895
16.148	26.7167
16.166	26.7345
16.184	26.7416
16.202	26.7367
16.22	26.7207
16.238	26.695
16.256	26.6611
16.274	26.6227
16.292	26.5827
16.31	26.5437
16.328	26.5097
16.346	26.4823
16.364	26.4634
16.382	26.4542
16.4	26.4545
16.418	26.4641
16.436	26.4819
16.454	26.5064
16.472	26.5365
16.49	26.5703
16.508	26.6064
16.526	26.6439
16.544	26.6814
16.562	26.7183
16.58	26.754
16.598	26.7878
16.616	26.8192
16.634	26.8476
16.652	26.8722
16.67	26.8921
16.688	26.9063
16.706	26.9136
16.724	26.9133
16.742	26.9042
16.76	26.886
16.778	26.8583
16.796	26.8211
16.814	26.7753
16.832	26.7215
16.85	26.6612
16.868	26.5959
16.886	26.5271
16.904	26.457
16.922	26.3866
16.94	26.3175
16.958	26.2509
16.976	26.187
16.994	26.1266
17.012	26.0695
17.03	26.0157
17.048	25.9651
17.066	25.9176
17.084	25.873
17.102	25.8315
17.12	25.7931
17.138	25.7584
17.156	25.7278
17.174	25.702
17.192	25.6817
17.21	25.667
17.228	25.6583
17.246	25.6551
17.264	25.6572
17.282	25.6629
17.3	25.6716
17.318	25.681
17.336	25.6892
17.354	25.695
17.372	25.6955
17.39	25.6902
17.408	25.6773
17.426	25.6566
17.444	25.6276
17.462	25.5913
17.48	25.5481
17.498	25.4995
17.516	25.4472
17.534	25.3923
17.552	25.3376
17.57	25.2837
17.588	25.2332
17.606	25.1868
17.624	25.1458
17.642	25.111
17.66	25.0829
17.678	25.0619
17.696	25.0478
17.714	25.0405
17.732	25.0392
17.75	25.0437
17.768	25.0527
17.786	25.0657
17.804	25.081
17.822	25.0982
17.84	25.1155
17.858	25.132
17.876	25.1465
17.894	25.1576
17.912	25.1649
17.93	25.1669
17.948	25.1635
17.966	25.1539
17.984	25.1383
18.002	25.1164
18.02	25.089
18.038	25.0562
18.056	25.0195
18.074	24.979
18.092	24.9369
18.11	24.8935
18.128	24.8509
18.146	24.8097
18.164	24.7717
18.182	24.7376
18.2	24.7087
18.218	24.6858
18.236	24.6697
18.254	24.6611
18.272	24.6604
18.29	24.668
18.308	24.6837
18.326	24.7075
18.344	24.7388
18.362	24.7768
18.38	24.8207
18.398	24.869
18.416	24.9202
18.434	24.9727
18.452	25.0243
18.47	25.0737
18.488	25.1183
18.506	25.1572
18.524	25.1882
18.542	25.2106
18.56	25.2231
18.578	25.2256
18.596	25.218
18.614	25.2001
18.632	25.1735
18.65	25.1384
18.668	25.097
18.686	25.0496
18.704	24.9992
18.722	24.9461
18.74	24.8929
18.758	24.84
18.776	24.7893
18.794	24.7409
18.812	24.6958
18.83	24.6538
18.848	24.6154
18.866	24.5801
18.884	24.5473
18.902	24.5165
18.92	24.4869
18.938	24.4579
18.956	24.4288
18.974	24.3992
18.992	24.3685
19.01	24.3367
19.028	24.3037
19.046	24.2696
19.064	24.2347
19.082	24.1993
19.1	24.1641
19.118	24.1294
19.136	24.0961
19.154	24.0645
19.172	24.0354
19.19	24.009
19.208	23.986
19.226	23.9662
19.244	23.9503
19.262	23.9381
19.28	23.9296
19.298	23.9246
19.316	23.9228
19.334	23.924
19.352	23.9271
19.37	23.9321
19.388	23.9378
19.406	23.9442
19.424	23.9497
19.442	23.9542
19.46	23.9564
19.478	23.9562
19.496	23.9523
19.514	23.9446
19.532	23.9324
19.55	23.9151
19.568	23.8927
19.586	23.865
19.604	23.8321
19.622	23.7942
19.64	23.7516
19.658	23.7056
19.676	23.6561
19.694	23.605
19.712	23.5523
19.73	23.5006
19.748	23.4498
19.766	23.4025
19.784	23.359
19.802	23.3212
19.82	23.2902
19.838	23.2665
19.856	23.2518
19.874	23.2456
19.892	23.2489
19.91	23.2615
19.928	23.2829
19.946	23.3132
19.964	23.3506
19.982	23.3953
20	23.445
20.018	23.4988
20.036	23.5555
20.054	23.6127
20.072	23.6706
20.09	23.7263
20.108	23.7801
20.126	23.8299
20.144	23.8756
20.162	23.9167
20.18	23.9525
20.198	23.9835
20.216	24.0098
20.234	24.0315
20.252	24.05
20.27	24.065
20.288	24.0783
20.306	24.09
20.324	24.1009
20.342	24.112
20.36	24.1232
20.378	24.1356
20.396	24.1491
20.414	24.1636
20.432	24.1794
20.45	24.1957
20.468	24.2125
20.486	24.2291
20.504	24.2445
20.522	24.2588
20.54	24.2704
20.558	24.2796
20.576	24.2856
20.594	24.2876
20.612	24.2859
20.63	24.2802
20.648	24.2705
20.666	24.2575
20.684	24.2407
20.702	24.2217
20.72	24.2009
20.738	24.1787
20.756	24.1569
20.774	24.135
20.792	24.1148
20.81	24.0966
20.828	24.0806
20.846	24.0677
20.864	24.0577
20.882	24.0504
20.9	24.0461
20.918	24.0438
20.936	24.0428
20.954	24.043
20.972	24.0423
20.99	24.0412
21.008	24.0376
21.026	24.0306
21.044	24.02
21.062	24.0038
21.08	23.9825
21.098	23.955
21.116	23.9208
21.134	23.8804
21.152	23.8337
21.17	23.7807
21.188	23.7228
21.206	23.6598
21.224	23.5927
21.242	23.5233
21.26	23.4509
21.278	23.3779
21.296	23.3047
21.314	23.2317
21.332	23.1607
21.35	23.0914
21.368	23.0246
21.386	22.9609
21.404	22.9
21.422	22.842
21.44	22.7872
21.458	22.7347
21.476	22.6846
21.494	22.6366
21.512	22.5897
21.53	22.5441
21.548	22.499
21.566	22.4539
21.584	22.4089
21.602	22.3633
21.62	22.3172
21.638	22.2705
21.656	22.223
21.674	22.1746
21.692	22.1258
21.71	22.0765
21.728	22.027
21.746	21.9781
21.764	21.9295
21.782	21.8819
21.8	21.8361
21.818	21.7917
21.836	21.7494
21.854	21.7091
21.872	21.6709
21.89	21.635
21.908	21.6015
21.926	21.5696
21.944	21.5393
21.962	21.5105
21.98	21.4823
21.998	21.4548
22.016	21.4278
22.034	21.4002
22.052	21.3723
22.07	21.3438
22.088	21.3144
22.106	21.2843
22.124	21.2536
22.142	21.2221
22.16	21.1903
22.178	21.1591
22.196	21.1279
22.214	21.0978
22.232	21.07
22.25	21.0439
22.268	21.0206
22.286	21.0009
22.304	20.9843
22.322	20.9716
22.34	20.9632
22.358	20.9586
22.376	20.9577
22.394	20.961
22.412	20.9675
22.43	20.9765
22.448	20.9885
22.466	21.0024
22.484	21.0177
22.502	21.0346
22.52	21.0526
22.538	21.071
22.556	21.0903
22.574	21.1105
22.592	21.1314
22.61	21.1535
22.628	21.1774
22.646	21.2029
22.664	21.2305
22.682	21.2617
22.7	21.2959
22.718	21.3337
22.736	21.3759
22.754	21.4224
22.772	21.4728
22.79	21.5273
22.808	21.5862
22.826	21.6476
22.844	21.7109
22.862	21.7767
22.88	21.8418
22.898	21.9051
22.916	21.9675
22.934	22.0247
22.952	22.0757
22.97	22.1213
22.988	22.1569
23.006	22.1819
23.024	22.197
23.042	22.199
23.06	22.1875
23.078	22.1631
23.096	22.1249
23.114	22.072
23.132	22.0057
23.15	21.928
23.168	21.8376
23.186	21.7364
23.204	21.6296
23.222	21.5154
23.24	21.396
23.258	21.2782
23.276	21.1608
23.294	21.045
23.312	20.9379
23.33	20.8384
23.348	20.7474
23.366	20.6703
23.384	20.607
23.402	20.5574
23.42	20.5247
23.438	20.5097
23.456	20.5111
23.474	20.5291
23.492	20.5645
23.51	20.6163
23.528	20.6816
23.546	20.7608
23.564	20.8537
23.582	20.9548
23.6	21.0629
23.618	21.1795
23.636	21.2978
23.654	21.4146
23.672	21.5331
23.69	21.647
23.708	21.7523
23.726	21.852
23.744	21.9426
23.762	22.0207
23.78	22.0886
23.798	22.1441
23.816	22.1849
23.834	22.2119
23.852	22.2247
23.87	22.2218
23.888	22.2025
23.906	22.1684
23.924	22.1219
23.942	22.0617
23.96	21.9888
23.978	21.9083
23.996	21.8215
24.014	21.7266
24.032	21.6281
24.05	21.5289
24.068	21.4267
24.086	21.3239
24.104	21.2229
24.122	21.1222
24.14	21.0231
24.158	20.9274
24.176	20.8352
24.194	20.746
24.212	20.6599
24.23	20.5782
24.248	20.5002
24.266	20.4226
24.284	20.3441
24.302	20.2666
24.32	20.1865
24.338	20.1005
24.356	20.0104
24.374	19.9149
24.392	19.8117
24.41	19.7
24.428	19.5812
24.446	19.4556
24.464	19.3231
24.482	19.1832
24.5	19.0387
24.518	18.8914
24.536	18.7381
24.554	18.5837
24.572	18.4345
24.59	18.2875
24.608	18.1443
24.626	18.0131
24.644	17.897
24.662	17.7912
24.68	17.7039
24.698	17.6429
24.716	17.6029
24.734	17.5874
24.752	17.6035
24.77	17.6522
24.788	17.7309
24.806	17.8427
24.824	17.9904
24.842	18.173
24.86	18.3884
24.878	18.6347
24.896	18.9152
24.914	19.2268
24.932	19.5615
24.95	19.9164
24.968	20.2972
24.986	20.6934
25.004	21.0941
25.022	21.5076
25.04	21.9281
25.058	22.3407
25.076	22.7398
25.094	23.1346
25.112	23.5116
25.13	23.8574
25.148	24.1805
25.166	24.4766
25.184	24.7315
25.202	24.9391
25.22	25.1079
25.238	25.2293
25.256	25.2943
25.274	25.308
25.292	25.2688
25.31	25.1685
25.328	25.0025
25.346	24.7765
25.364	24.4861
25.382	24.1257
25.4	23.6966
25.418	23.2
25.436	22.6329
25.454	21.9927
25.472	21.2811
25.49	20.4988
25.508	19.6466
25.526	18.7231
25.544	17.7286
25.562	16.6685
25.58	15.5475
25.598	14.3601
25.616	13.1109
25.634	11.8103
25.652	10.4629
25.67	9.059614
25.688	7.612861
25.706	6.137381
25.724	4.630808
25.742	3.088635
25.76	1.527929
25.778	-0.035804
25.796	-1.614465
25.814	-3.202372
25.832	-4.782863
25.85	-6.345668
25.868	-7.904077
25.886	-9.447105
25.904	-10.9603
25.922	-12.4401
25.94	-13.8947
25.958	-15.316
25.976	-16.6959
25.994	-18.0371
26.012	-19.3408
26.03	-20.6021
26.048	-21.8166
26.066	-22.9868
26.084	-24.113
26.102	-25.1938
26.12	-26.2287
26.138	-27.2193
26.156	-28.1642
26.174	-29.0613
26.192	-29.9107
26.21	-30.7145
26.228	-31.4692
26.246	-32.1714
26.264	-32.8229
26.282	-33.425
26.3	-33.9721
26.318	-34.4586
26.336	-34.8865
26.354	-35.2571
26.372	-35.5675
26.39	-35.8152
26.408	-36.0019
26.426	-36.1278
26.444	-36.1915
26.462	-36.1913
26.48	-36.1251
26.498	-35.9974
26.516	-35.8139
26.534	-35.578
26.552	-35.2834
26.57	-34.9364
26.588	-34.5455
26.606	-34.1149
26.624	-33.6343
26.642	-33.115
26.66	-32.5713
26.678	-32.0097
26.696	-31.4176
26.714	-30.8063
26.732	-30.1895
26.75	-29.5731
26.768	-28.9454
26.786	-28.3164
26.804	-27.6978
26.822	-27.0948
26.84	-26.498
26.858	-25.9141
26.876	-25.3511
26.894	-24.8126
26.912	-24.2921
26.93	-23.7939
26.948	-23.3231
26.966	-22.8704
26.984	-22.414
27.002	-22.0008
27.02	-21.682
27.028	-21.5941