File: Bakgrunnsmateriale/MATLAB/FTIR/ftir_data/LPE453/Mapping_121/LPE453_t46_cm-1.asc
PE IR       SPECTRUM    SPECTRUM    ASCII       PEDS        1.60
  -1
LP695A~1.ASC
17/05/16
18:10:53.00
17/05/16
18:10:53.00
tln
$LPE453_t0046$<tbV0>[10.4,-2.6,8.0,0.0,27,1,0]
370
64

2002,4.07
MIRTGS : RIGHTBACK : INTERNAL 2
MIR : ON : INTERNAL 2
OPTKBR

0.200000
8
8.000000
FILLER
RATIO
SPECTRUM
UNLOCKED 256

DOUBLE
64
COMBINED
1
0
0

1.000000
RATIO

1
0
TRUE
51149
0
LEFT NOT FITTED RIGHT NOT FITTED 0
NONE
NONE
15600
12
4.427000
51148
TRUE
1 0 8 72 0 0 0 0

15798

#HDR
-1
-1
#GR
CM-1
%T
2.38419e-05
0.0
5000
-1.000000
4631
8
23.1143
-7.714176
#DATA
5000	-0.082921
4996	-0.233745
4992	-0.239181
4988	-0.073671
4984	0.124597
4980	0.331139
4976	0.229763
4972	0.000834
4968	0.072622
4964	0.286889
4960	0.383114
4956	0.236034
4952	-0.090861
4948	-0.307154
4944	-0.264716
4940	-0.068211
4936	0.172114
4932	0.295281
4928	0.141501
4924	-0.011062
4920	-0.030183
4916	0.019741
4912	0.210356
4908	0.251913
4904	0.074100
4900	-0.105118
4896	-0.131559
4892	-0.019884
4888	-0.067210
4884	-0.270533
4880	-0.319147
4876	-0.106668
4872	0.003433
4868	-0.064778
4864	0.069642
4860	0.344824
4856	0.411820
4852	0.433778
4848	0.416135
4844	0.271749
4840	0.122261
4836	-0.014209
4832	-0.110435
4828	0.043702
4824	0.449872
4820	0.537800
4816	0.164818
4812	-0.076484
4808	-0.029754
4804	0.090503
4800	0.235009
4796	0.377655
4792	0.453591
4788	0.429940
4784	0.368809
4780	0.406193
4776	0.458979
4772	0.295257
4768	0.091528
4764	0.004911
4760	-0.041294
4756	-0.054121
4752	0.003075
4748	0.003194
4744	-0.092792
4740	-0.042295
4736	0.167322
4732	0.177645
4728	-0.042891
4724	-0.208544
4720	-0.169301
4716	0.064063
4712	0.209808
4708	0.231742
4704	0.515675
4700	0.759720
4696	0.504899
4692	0.215172
4688	0.244069
4684	0.193023
4680	-0.126433
4676	-0.354790
4672	-0.246620
4668	-0.006461
4664	0.095748
4660	0.094175
4656	0.089716
4652	0.058746
4648	0.095272
4644	0.138020
4640	-0.075602
4636	-0.424098
4632	-0.547623
4628	-0.530457
4624	-0.389122
4620	-0.174760
4616	-0.235819
4612	-0.422406
4608	-0.336503
4604	-0.138235
4600	-0.147223
4596	-0.118732
4592	0.022697
4588	0.213170
4584	0.436115
4580	0.522255
4576	0.325250
4572	-0.204634
4568	-0.528001
4564	-0.474023
4560	-0.521636
4556	-0.649881
4552	-0.662755
4548	-0.444269
4544	-0.080347
4540	0.196576
4536	0.682377
4532	1.369976
4528	2.259945
4524	5.655694
4520	14.4115
4516	20.7148
4512	15.4858
4508	5.228638
4504	-1.155328
4500	-1.410436
4496	-0.716781
4492	-0.702881
4488	-0.348210
4484	0.117778
4480	-0.430512
4476	-0.919795
4472	-0.882387
4468	-0.937104
4464	-1.000499
4460	-0.664019
4456	-0.230813
4452	-0.145339
4448	-0.245022
4444	-0.289726
4440	-0.365877
4436	-0.454974
4432	-0.499725
4428	-0.449824
4424	-0.297331
4420	-0.161552
4416	-0.089740
4412	-0.063347
4408	0.113177
4404	0.311493
4400	0.273132
4396	0.102639
4392	0.106000
4388	0.388860
4384	0.471258
4380	0.266981
4376	0.120925
4372	-0.030994
4368	0.082731
4364	0.406980
4360	0.463581
4356	0.432300
4352	0.369906
4348	0.160026
4344	0.015401
4340	-0.061726
4336	-0.069761
4332	0.006103
4328	-0.013661
4324	-0.015306
4320	0.060677
4316	0.142240
4312	0.186204
4308	0.019383
4304	-0.113153
4300	0.009155
4296	0.178980
4292	0.284123
4288	0.149607
4284	-0.044560
4280	0.043678
4276	0.143718
4272	0.088262
4268	0.106191
4264	0.204992
4260	0.197219
4256	0.154447
4252	0.201797
4248	0.193476
4244	0.160336
4240	0.232553
4236	0.250339
4232	0.102663
4228	0.011730
4224	0.074505
4220	0.134539
4216	0.200700
4212	0.223898
4208	0.106978
4204	-0.041389
4200	-0.037169
4196	0.206375
4192	0.430178
4188	0.546240
4184	0.459432
4180	0.152993
4176	0.008058
4172	-0.019717
4168	-0.048851
4164	-0.046348
4160	0.005650
4156	0.095653
4152	0.182533
4148	0.231695
4144	0.169157
4140	0.063443
4136	-0.057411
4132	-0.155711
4128	-0.133228
4124	-0.037884
4120	0.067734
4116	0.161027
4112	0.169801
4108	0.165820
4104	0.258517
4100	0.265121
4096	0.080657
4092	-0.094223
4088	-0.082802
4084	0.009846
4080	-0.004053
4076	-0.002694
4072	0.105452
4068	0.117468
4064	0.012612
4060	-0.010538
4056	0.046825
4052	0.050973
4048	-0.072216
4044	-0.107192
4040	0.072193
4036	0.185251
4032	0.153160
4028	0.046038
4024	0.043511
4020	0.236988
4016	0.367951
4012	0.323820
4008	0.244927
4004	0.191736
4000	0.152111
3996	0.080466
3992	0.079798
3988	0.202322
3984	0.180578
3980	0.102972
3976	0.116324
3972	0.101780
3968	0.019860
3964	-0.077676
3960	-0.030350
3956	0.056314
3952	0.018095
3948	-0.009465
3944	0.000905
3940	0.041651
3936	0.145840
3932	0.182700
3928	0.097727
3924	0.045013
3920	0.082826
3916	0.066375
3912	-0.015950
3908	-0.018382
3904	0.052857
3900	0.056457
3896	0.046205
3892	0.111532
3888	0.148868
3884	0.173902
3880	0.215411
3876	0.149297
3872	0.037360
3868	0.006985
3864	0.001382
3860	-0.018382
3856	-0.004816
3852	-0.007629
3848	-0.065875
3844	-0.061655
3840	0.004863
3836	0.064754
3832	0.143218
3828	0.176906
3824	0.140619
3820	0.133109
3816	0.185656
3812	0.218915
3808	0.164556
3804	0.086212
3800	0.077152
3796	0.109720
3792	0.094032
3788	0.026464
3784	0.010156
3780	0.014328
3776	-0.031256
3772	-0.048446
3768	-0.061106
3764	-0.046372
3760	0.082373
3756	0.217103
3752	0.260186
3748	0.195670
3744	0.082039
3740	0.029802
3736	0.030064
3732	0.085401
3728	0.190639
3724	0.238132
3720	0.182461
3716	0.100636
3712	0.075387
3708	0.088357
3704	0.082182
3700	0.077199
3696	0.153565
3692	0.250172
3688	0.191259
3684	0.049710
3680	0.047898
3676	0.087404
3672	0.022840
3668	0.008487
3664	0.124597
3660	0.173425
3656	0.072169
3652	-0.048851
3648	-0.079989
3644	0.042796
3640	0.196981
3636	0.210762
3632	0.156903
3628	0.130105
3624	0.114703
3620	0.101280
3616	0.090956
3612	0.081038
3608	0.068926
3604	0.059294
3600	0.014042
3596	0.001788
3592	0.093102
3588	0.154590
3584	0.119495
3580	0.080871
3576	0.062942
3572	0.016450
3568	0.023889
3564	0.114345
3560	0.115704
3556	0.007295
3552	-0.015997
3548	0.062489
3544	0.099372
3540	0.123262
3536	0.129318
3532	0.049710
3528	-0.016570
3524	0.042486
3520	0.167870
3516	0.192594
3512	0.118422
3508	0.034427
3504	-0.003719
3500	0.037598
3496	0.057363
3492	0.005674
3488	-0.044417
3484	-0.045657
3480	0.083851
3476	0.276374
3472	0.253510
3468	0.087618
3464	0.032067
3460	0.042343
3456	0.045514
3452	0.073814
3448	0.113606
3444	0.107002
3440	0.090360
3436	0.132822
3432	0.136184
3428	0.062990
3424	0.043964
3420	0.081276
3416	0.076913
3412	0.019621
3408	-0.043463
3404	-0.066518
3400	-0.033664
3396	0.000858
3392	0.045967
3388	0.115752
3384	0.108957
3380	0.034546
3376	-0.040721
3372	-0.068044
3368	-0.007510
3364	0.021553
3360	-0.066471
3356	-0.126433
3352	-0.025582
3348	0.154066
3344	0.253772
3340	0.223898
3336	0.141096
3332	0.098276
3328	0.120472
3324	0.169610
3320	0.195121
3316	0.173830
3312	0.103068
3308	0.035524
3304	0.001859
3300	0.038504
3296	0.125622
3292	0.123906
3288	0.081491
3284	0.075244
3280	0.030851
3276	-0.033783
3272	-0.073027
3268	-0.065612
3264	0.012278
3260	0.093269
3256	0.084066
3252	0.056362
3248	0.094342
3244	0.114464
3240	0.051736
3236	-0.016784
3232	-0.040102
3228	-0.030684
3224	-0.019097
3220	-0.058269
3216	-0.043964
3212	0.075936
3208	0.109839
3204	0.080919
3200	0.123858
3196	0.128579
3192	0.071430
3188	0.054025
3184	0.117063
3180	0.167417
3176	0.109028
3172	0.064587
3168	0.055861
3164	-0.024175
3160	-0.071382
3156	-0.002789
3152	0.063276
3148	0.108909
3144	0.111675
3140	-0.003385
3136	-0.118446
3132	-0.068664
3128	0.025629
3124	0.017452
3120	0.026941
3116	0.085473
3112	0.090575
3108	0.067520
3104	0.086855
3100	0.105261
3096	0.124979
3092	0.180172
3088	0.109481
3084	-0.039339
3080	-0.024151
3076	0.010466
3072	-0.051116
3068	-0.029993
3064	0.011253
3060	-0.019741
3056	0.000476
3052	0.044393
3048	0.023555
3044	-0.022149
3040	-0.057220
3036	-0.090527
3032	-0.083184
3028	-0.007915
3024	0.075197
3020	0.063872
3016	0.027990
3012	0.058650
3008	0.101470
3004	0.126671
3000	0.095796
2996	0.049901
2992	0.105047
2988	0.162005
2984	0.084972
2980	0.018644
2976	0.032711
2972	0.006222
2968	-0.017833
2964	-0.040340
2960	-0.083827
2956	-0.046730
2952	0.026559
2948	0.071263
2944	0.099253
2940	0.091004
2936	0.033640
2932	-0.019502
2928	0.011277
2924	0.082397
2920	0.111007
2916	0.133371
2912	0.172400
2908	0.178265
2904	0.129961
2900	0.070166
2896	0.077962
2892	0.107383
2888	0.061297
2884	0.022912
2880	0.061416
2876	0.072765
2872	0.029826
2868	0.021147
2864	0.046253
2860	0.057053
2856	0.039267
2852	-0.011229
2848	-0.105285
2844	-0.134444
2840	-0.021052
2836	0.063729
2832	0.040268
2828	0.013041
2824	0.039124
2820	0.078916
2816	0.081515
2812	0.091719
2808	0.105953
2804	0.080633
2800	0.058174
2796	0.033617
2792	0.015354
2788	0.011992
2784	-0.040125
2780	-0.102472
2776	-0.087237
2772	-0.017738
2768	0.033402
2764	0.054478
2760	0.040483
2756	0.052261
2752	0.130701
2748	0.131535
2744	0.058746
2740	0.033998
2736	0.020956
2732	0.011825
2728	0.022673
2724	0.020670
2720	0.027537
2716	0.071048
2712	0.137495
2708	0.171065
2704	0.139498
2700	0.072431
2696	0.039482
2692	0.055336
2688	0.036907
2684	0.001525
2680	0.010275
2676	-0.029945
2672	-0.127124
2668	-0.127935
2664	-0.020766
2660	0.048232
2656	0.022077
2652	-0.034165
2648	-0.068902
2644	-0.064539
2640	-0.072455
2636	-0.085973
2632	-0.004744
2628	0.093150
2624	0.084590
2620	0.049114
2616	0.086760
2612	0.119709
2608	0.059533
2604	-0.007748
2600	0.010752
2596	0.055551
2592	0.050568
2588	-0.002956
2584	-0.035500
2580	-0.029158
2576	-0.010490
2572	0.006031
2568	0.010180
2564	0.006628
2560	0.023722
2556	0.064325
2552	0.094962
2548	0.102090
2544	0.100564
2540	0.072073
2536	0.021767
2532	0.021266
2528	0.062298
2524	0.082874
2520	0.071477
2516	0.067687
2512	0.059771
2508	-0.028324
2504	-0.059199
2500	0.028705
2496	0.007820
2492	-0.078272
2488	-0.053334
2484	0.019025
2480	0.061607
2476	0.062823
2472	0.016546
2468	-0.031709
2464	-0.017213
2460	-0.032305
2456	-0.079655
2452	-0.073552
2448	-0.043654
2444	0.036120
2440	0.117802
2436	0.088620
2432	0.014233
2428	-0.032258
2424	-0.028085
2420	0.008559
2416	0.044584
2412	0.067973
2408	0.049781
2404	0.010943
2400	0.010395
2396	0.005316
2392	-0.060343
2388	-0.063228
2384	0.049114
2380	0.103902
2376	0.041794
2372	-0.031495
2368	-0.045895
2364	-0.036787
2360	-0.039696
2356	-0.035095
2352	-0.017070
2348	0.040698
2344	0.125122
2340	0.145411
2336	0.055909
2332	-0.040245
2328	-0.032567
2324	0.013923
2320	0.006318
2316	-0.007438
2312	0.011372
2308	0.029087
2304	0.041556
2300	0.030350
2296	-0.024557
2292	-0.054693
2288	-0.003480
2284	0.060868
2280	0.058269
2276	0.013613
2272	-0.034165
2268	-0.034165
2264	0.003123
2260	-0.047516
2256	-0.105905
2252	0.000524
2248	0.153708
2244	0.232672
2240	0.286412
2236	0.319027
2232	0.293183
2228	0.297498
2224	0.356721
2220	0.387620
2216	0.454425
2212	0.571370
2208	0.654053
2204	0.679421
2200	0.671577
2196	0.699329
2192	0.791645
2188	0.933742
2184	1.092362
2180	1.238679
2176	1.387619
2172	1.516675
2168	1.616716
2164	1.750349
2160	1.897358
2156	2.048802
2152	2.255058
2148	2.503418
2144	2.695059
2140	2.789735
2136	2.993297
2132	3.324317
2128	3.591918
2124	3.825497
2120	4.077577
2116	4.373764
2112	4.714560
2108	4.989886
2104	5.197620
2100	5.437850
2096	5.745911
2092	6.102991
2088	6.447052
2084	6.769347
2080	7.088851
2076	7.405972
2072	7.746529
2068	8.036684
2064	8.326673
2060	8.716797
2056	9.078407
2052	9.385037
2048	9.740281
2044	10.1031
2040	10.4445
2036	10.8006
2032	11.0737
2028	11.3239
2024	11.691
2020	12.0642
2016	12.3739
2012	12.6586
2008	12.9383
2004	13.2292
2000	13.5319
1996	13.8611
1992	14.2133
1988	14.5121
1984	14.7187
1980	14.9321
1976	15.2161
1972	15.5143
1968	15.7996
1964	16.0721
1960	16.3062
1956	16.5314
1952	16.8003
1948	17.0388
1944	17.1967
1940	17.3743
1936	17.6122
1932	17.876
1928	18.0919
1924	18.2121
1920	18.3395
1916	18.5022
1912	18.6783
1908	18.8698
1904	19.025
1900	19.2084
1896	19.444
1892	19.6299
1888	19.7477
1884	19.8504
1880	19.9667
1876	20.0556
1872	20.1318
1868	20.2659
1864	20.4468
1860	20.6105
1856	20.7455
1852	20.8846
1848	20.974
1844	21.0097
1840	21.0925
1836	21.2061
1832	21.2842
1828	21.3599
1824	21.4758
1820	21.5468
1816	21.5429
1812	21.5858
1808	21.682
1804	21.7661
1800	21.8819
1796	22.0072
1792	22.0466
1788	22.0586
1784	22.1374
1780	22.2112
1776	22.2347
1772	22.2769
1768	22.3177
1764	22.3226
1760	22.3109
1756	22.3186
1752	22.3877
1748	22.4653
1744	22.512
1740	22.5077
1736	22.4771
1732	22.5534
1728	22.6804
1724	22.6911
1720	22.6215
1716	22.6225
1712	22.7154
1708	22.7763
1704	22.7589
1700	22.7637
1696	22.8392
1692	22.8763
1688	22.8235
1684	22.7736
1680	22.7891
1676	22.8671
1672	22.9518
1668	22.9457
1664	22.8899
1660	22.8935
1656	22.9149
1652	22.9289
1648	22.967
1644	23.0112
1640	23.0466
1636	23.0823
1632	23.1143
1628	23.0816
1624	23.0075
1620	22.9653
1616	22.9415
1612	22.9197
1608	22.9305
1604	22.9843
1600	23.0048
1596	22.9899
1592	22.9955
1588	23.041
1584	23.0772
1580	23.0146
1576	22.9544
1572	23.0222
1568	23.0784
1564	23.0283
1560	23.0008
1556	23.0011
1552	22.9758
1548	22.9865
1544	22.9936
1540	22.9266
1536	22.8628
1532	22.8565
1528	22.8784
1524	22.9153
1520	22.9306
1516	22.9409
1512	22.999
1508	23.0403
1504	23.0105
1500	22.957
1496	22.8992
1492	22.8542
1488	22.8638
1484	22.8735
1480	22.8557
1476	22.8542
1472	22.8269
1468	22.7276
1464	22.6693
1460	22.7128
1456	22.705
1452	22.5844
1448	22.5235
1444	22.6135
1440	22.7333
1436	22.7694
1432	22.7272
1428	22.6895
1424	22.7075
1420	22.7122
1416	22.6959
1412	22.7273
1408	22.7954
1404	22.8153
1400	22.7432
1396	22.6555
1392	22.5687
1388	22.4694
1384	22.399
1380	22.4028
1376	22.4915
1372	22.5647
1368	22.5909
1364	22.6026
1360	22.5766
1356	22.5414
1352	22.4988
1348	22.3978
1344	22.3118
1340	22.3292
1336	22.3645
1332	22.3912
1328	22.4215
1324	22.4036
1320	22.386
1316	22.3737
1312	22.3158
1308	22.2495
1304	22.212
1300	22.1978
1296	22.2297
1292	22.2791
1288	22.279
1284	22.2942
1280	22.32
1276	22.2651
1272	22.1975
1268	22.216
1264	22.2472
1260	22.1776
1256	22.1056
1252	22.1593
1248	22.2458
1244	22.2254
1240	22.127
1236	22.0799
1232	22.0811
1228	22.0556
1224	21.9931
1220	21.9116
1216	21.8964
1212	21.9642
1208	22.0209
1204	22.0067
1200	21.9571
1196	21.9246
1192	21.9005
1188	21.8878
1184	21.8818
1180	21.8714
1176	21.8411
1172	21.8418
1168	21.8891
1164	21.8661
1160	21.7845
1156	21.7116
1152	21.689
1148	21.7271
1144	21.7144
1140	21.6089
1136	21.5864
1132	21.6505
1128	21.5946
1124	21.5194
1120	21.4942
1116	21.4016
1112	21.2658
1108	21.1903
1104	21.2497
1100	21.3
1096	21.2248
1092	21.1303
1088	21.0991
1084	21.0927
1080	21.0942
1076	21.1404
1072	21.177
1068	21.1685
1064	21.1195
1060	21.0436
1056	20.9836
1052	20.9161
1048	20.8373
1044	20.7935
1040	20.8138
1036	20.8713
1032	20.8105
1028	20.7163
1024	20.7692
1020	20.7618
1016	20.5787
1012	20.382
1008	20.3494
1004	20.4569
1000	20.466
996	 20.3416
992	 20.2814
988	 20.3217
984	 20.2444
980	 20.0634
976	 20.0408
972	 20.159
968	 20.1555
964	 20.0218
960	 19.9718
956	 19.9774
952	 19.9167
948	 19.8843
944	 19.9422
940	 19.9327
936	 19.8305
932	 19.7714
928	 19.7158
924	 19.5853
920	 19.4585
916	 19.4429
912	 19.4498
908	 19.3225
904	 19.1679
900	 19.1712
896	 19.2466
892	 19.2244
888	 19.1963
884	 19.1875
880	 19.0729
876	 18.9374
872	 18.8592
868	 18.7857
864	 18.6939
860	 18.6067
856	 18.5412
852	 18.4936
848	 18.4042
844	 18.2928
840	 18.2408
836	 18.1929
832	 18.147
828	 18.1165
824	 18.0861
820	 18.0213
816	 17.8622
812	 17.7647
808	 17.7321
804	 17.6327
800	 17.6246
796	 17.7309
792	 17.7721
788	 17.6617
784	 17.4393
780	 17.2863
776	 17.2658
772	 17.2734
768	 17.203
764	 17.0366
760	 16.8618
756	 16.7985
752	 16.7886
748	 16.6884
744	 16.6662
740	 16.7818
736	 16.8887
732	 16.9098
728	 16.7734
724	 16.5001
720	 16.2338
716	 16.0879
712	 15.9716
708	 15.8764
704	 15.8874
700	 15.9266
696	 15.8784
692	 15.6954
688	 15.5079
684	 15.4335
680	 15.318
676	 15.137
672	 15.0812
668	 15.0706
664	 14.8818
660	 14.6706
656	 14.6015
652	 14.6042
648	 14.6351
644	 14.5461
640	 14.3137
636	 14.1094
632	 14.0818
628	 14.1924
624	 14.1523
620	 13.9491
616	 13.772
612	 13.5132
608	 13.2158
604	 13.1024
600	 13.0955
596	 13.0927
592	 13.0903
588	 13.0977
584	 13.1937
580	 13.1951
576	 12.8381
572	 12.4601
568	 12.4756
564	 12.6034
560	 12.4775
556	 12.264
552	 12.289
548	 12.5382
544	 12.5976
540	 12.4987
536	 12.5529
532	 12.4174
528	 11.9291
524	 11.4821
520	 11.4823
516	 11.872
512	 12.0371
508	 11.7371
504	 11.2467
500	 10.7252
496	 10.41
492	 10.2983
488	 10.4127
484	 10.9952
480	 11.6552
476	 11.8774
472	 11.6343
468	 10.9656
464	 9.678149
460	 8.749628
456	 9.268498
452	 9.873080
448	 9.700608
444	 8.969664
440	 8.414745
436	 9.110426
432	 9.065294
428	 7.148790
424	 5.712461
420	 5.658316
416	 6.238508
412	 8.507156
408	 11.4377
404	 9.382224
400	 4.392051
396	 0.470662
392	 -5.945634
388	 -6.360697
384	 1.702117
380	 4.621052
376	 5.524659
372	 9.293055
370	 11.6733