File: Bakgrunnsmateriale/MATLAB/FTIR/ftir_data/LPE453/Mapping_121/LPE453_t49.asc
PE IR       SPECTRUM    SPECTRUM    ASCII       PEDS        1.60
  -1
LPE3AD~1.ASC
17/05/16
18:24:43.00
17/05/16
18:25:09.00
tln
$LPE453_t0049$<tbV0>[2.6,-2.6,8.0,0.0,27,1,0]
27.028
64

2002,4.07
MIRTGS : RIGHTBACK : INTERNAL 2
MIR : ON : INTERNAL 2
OPTKBR

0.200000
8
8.000000
FILLER
RATIO
SPECTRUM
UNLOCKED 256

DOUBLE
64
COMBINED
1
0
0

0.002000
RATIO

1
0
TRUE
51149
0
LEFT NOT FITTED RIGHT NOT FITTED 0
NONE
NONE
15600
12
4.427000
51148
TRUE
1 0 8 72 0 0 0 0

15798

#HDR
-1
-1
#GR
µM
%T
2.38419e-05
0.0
2.000000
0.002000
12515
8
24.6228
-5.902590
#DATA
2.000000	 0.247406
2.018000	 0.650472
2.036000	 -0.077396
2.054000	 0.049295
2.072000	 -0.205926
2.090000	 0.023948
2.108000	 -0.210262
2.126000	 0.113550
2.144000	 0.051699
2.162000	 0.050049
2.180000	 0.130181
2.198000	 -0.213965
2.216000	 9.571352
2.234000	 0.562247
2.252000	 -0.126891
2.270000	 0.143604
2.288000	 0.036857
2.306000	 0.012431
2.324000	 0.141764
2.342000	 0.023844
2.360000	 0.086047
2.378000	 0.196250
2.396000	 0.043878
2.414000	 0.157590
2.432000	 0.234501
2.450000	 -0.007962
2.468000	 -0.024113
2.486000	 -0.019552
2.504000	 0.084647
2.522000	 0.036626
2.540000	 0.189413
2.558000	 0.059798
2.576000	 -0.168427
2.594000	 -0.040357
2.612000	 -0.012173
2.630000	 0.055003
2.648000	 0.074348
2.666000	 0.222959
2.684000	 -0.099205
2.702000	 0.072386
2.720000	 0.106439
2.738000	 -0.119888
2.756000	 0.060080
2.774000	 0.108235
2.792000	 0.088369
2.810000	 0.119045
2.828000	 0.080793
2.846000	 0.112316
2.864000	 0.001422
2.882000	 -0.022727
2.900000	 0.023267
2.918000	 0.013884
2.936000	 -0.043912
2.954000	 -0.039406
2.972000	 0.035820
2.990000	 -0.092730
3.008000	 0.030694
3.026000	 0.135143
3.044000	 0.078798
3.062000	 0.161299
3.080000	 -0.007419
3.098000	 0.051394
3.116000	 -0.005842
3.134000	 0.045298
3.152000	 0.030181
3.170000	 0.030866
3.188000	 0.090268
3.206000	 0.193887
3.224000	 -0.010344
3.242000	 0.140202
3.260000	 0.103360
3.278000	 0.115702
3.296000	 -0.061209
3.314000	 0.015793
3.332000	 0.145542
3.350000	 0.012766
3.368000	 -0.115224
3.386000	 0.103935
3.404000	 0.156261
3.422000	 -0.045751
3.440000	 0.008247
3.458000	 0.026945
3.476000	 0.000242
3.494000	 0.141446
3.512000	 -0.040645
3.530000	 0.077314
3.548000	 -0.015414
3.566000	 -0.016564
3.584000	 0.065166
3.602000	 -0.014566
3.620000	 0.096471
3.638000	 0.027254
3.656000	 -0.003245
3.674000	 -0.021792
3.692000	 0.131428
3.710000	 -0.053068
3.728000	 0.099507
3.746000	 0.030683
3.764000	 -0.020802
3.782000	 0.089377
3.800000	 -0.024322
3.818000	 0.049156
3.836000	 -0.040097
3.854000	 0.015828
3.872000	 0.061543
3.890000	 -0.086793
3.908000	 -0.086095
3.926000	 -0.059918
3.944000	 0.070799
3.962000	 0.122849
3.980000	 -0.038748
3.998000	 -0.016324
4.016000	 0.018461
4.034000	 -0.036565
4.052000	 -0.063873
4.070000	 0.023196
4.088000	 0.087234
4.106000	 -0.016633
4.124000	 0.105049
4.141999	 -0.001768
4.160000	 0.037611
4.178000	 -0.095061
4.196000	 0.002794
4.214000	 0.027065
4.232000	 -0.084785
4.250000	 0.072717
4.268000	 -0.072068
4.286000	 -0.110161
4.304000	 -0.048060
4.322000	 -0.024915
4.340000	 0.028136
4.358000	 -0.013686
4.375999	 -0.029052
4.394000	 0.031688
4.412000	 0.051905
4.430000	 0.039301
4.448000	 0.114129
4.466000	 0.320164
4.484000	 0.396159
4.502000	 0.567991
4.520000	 0.732933
4.538000	 0.862898
4.556000	 1.105534
4.574000	 1.426395
4.592000	 1.711184
4.609999	 2.017469
4.628000	 2.444616
4.646000	 2.796619
4.664000	 3.549047
4.682000	 4.005811
4.700000	 4.454463
4.718000	 5.112634
4.736000	 5.755192
4.754000	 6.416972
4.772000	 7.036516
4.790000	 7.664428
4.808000	 8.261254
4.826000	 9.024450
4.843999	 9.921009
4.862000	 10.6023
4.880000	 11.2525
4.898000	 11.9309
4.916000	 12.6126
4.934000	 13.2443
4.952000	 13.9099
4.970000	 14.4204
4.988000	 14.999
5.006000	 15.6015
5.024000	 16.1748
5.042000	 16.6868
5.060000	 17.1356
5.077999	 17.7078
5.096000	 18.0933
5.114000	 18.44
5.132000	 18.7884
5.150000	 19.1305
5.168000	 19.6384
5.186000	 19.9669
5.204000	 20.1464
5.222000	 20.5746
5.240000	 20.8647
5.258000	 21.0132
5.276000	 21.262
5.294000	 21.4804
5.312000	 21.7293
5.330000	 21.8912
5.348000	 22.1091
5.366000	 22.3185
5.384000	 22.5356
5.402000	 22.6732
5.420000	 22.7551
5.438000	 22.8349
5.456000	 23.0194
5.474000	 23.2168
5.492000	 23.2937
5.510000	 23.3383
5.528000	 23.4773
5.546000	 23.5491
5.564000	 23.7134
5.582000	 23.7622
5.600000	 23.8355
5.618000	 23.9339
5.636000	 23.9812
5.654000	 24.0384
5.672000	 24.1294
5.690000	 24.2142
5.708000	 24.2158
5.726000	 24.2077
5.744000	 24.3002
5.762000	 24.2528
5.780000	 24.1429
5.798000	 24.2398
5.816000	 24.381
5.834000	 24.3528
5.852000	 24.4267
5.870000	 24.4672
5.888000	 24.4991
5.906000	 24.5287
5.923999	 24.4862
5.942000	 24.4672
5.960000	 24.4746
5.978000	 24.492
5.996000	 24.4892
6.014000	 24.4694
6.032000	 24.4849
6.050000	 24.5701
6.068000	 24.6228
6.086000	 24.5395
6.104000	 24.4269
6.122000	 24.4454
6.140000	 24.5171
6.158000	 24.5538
6.176000	 24.5653
6.194000	 24.5924
6.212000	 24.6001
6.230000	 24.5678
6.248000	 24.5548
6.266000	 24.5701
6.284000	 24.5897
6.302000	 24.5454
6.320000	 24.4933
6.338000	 24.5196
6.356000	 24.5776
6.374000	 24.6049
6.392000	 24.5645
6.410000	 24.5385
6.428000	 24.5152
6.446000	 24.4721
6.464000	 24.456
6.482000	 24.4741
6.500000	 24.4398
6.518000	 24.4034
6.536000	 24.4355
6.554000	 24.4288
6.572000	 24.4093
6.590000	 24.44
6.608000	 24.455
6.626000	 24.4045
6.644000	 24.3686
6.662000	 24.4001
6.680000	 24.4281
6.698000	 24.3703
6.716000	 24.2667
6.734000	 24.2144
6.752000	 24.2321
6.770000	 24.2859
6.788000	 24.3493
6.806000	 24.3688
6.824000	 24.29
6.842000	 24.2093
6.860000	 24.2286
6.878000	 24.2709
6.896000	 24.2505
6.914000	 24.193
6.932000	 24.1426
6.950000	 24.1111
6.968000	 24.0854
6.986000	 24.0708
7.004000	 24.0842
7.022000	 24.1114
7.040000	 24.1521
7.058000	 24.1842
7.076000	 24.1363
7.094000	 24.0261
7.112000	 23.9511
7.130000	 23.9523
7.148000	 23.9968
7.166000	 24.0166
7.184000	 23.9828
7.202000	 23.9563
7.220000	 23.9835
7.238000	 24.0223
7.256000	 24.0377
7.274000	 24.028
7.292000	 23.966
7.310000	 23.8412
7.328000	 23.7282
7.346000	 23.7112
7.364000	 23.7611
7.382000	 23.8012
7.400000	 23.8413
7.418000	 23.9062
7.436000	 23.956
7.454000	 23.9659
7.472000	 23.9402
7.490000	 23.8837
7.508000	 23.8357
7.526000	 23.8146
7.544000	 23.7796
7.562000	 23.7333
7.580000	 23.7275
7.598000	 23.7509
7.616000	 23.7461
7.634000	 23.6997
7.652000	 23.6471
7.670000	 23.6297
7.688000	 23.6574
7.706000	 23.6891
7.724000	 23.6775
7.742000	 23.63
7.760000	 23.5809
7.778000	 23.5335
7.796000	 23.4804
7.814000	 23.4475
7.832000	 23.4597
7.850000	 23.4924
7.868000	 23.5023
7.886000	 23.4858
7.904000	 23.4787
7.922000	 23.503
7.940000	 23.5338
7.958000	 23.5245
7.976000	 23.4656
7.994000	 23.4005
8.012000	 23.37
8.030000	 23.3608
8.048000	 23.3355
8.065999	 23.2987
8.084000	 23.2934
8.102000	 23.3346
8.120000	 23.3793
8.138000	 23.3799
8.155999	 23.3354
8.173999	 23.2794
8.192000	 23.2366
8.210000	 23.2116
8.228000	 23.2002
8.246000	 23.19
8.263999	 23.163
8.282000	 23.1189
8.300000	 23.0782
8.318000	 23.0533
8.336000	 23.0406
8.353999	 23.0366
8.372000	 23.0432
8.390000	 23.0572
8.408000	 23.0658
8.426000	 23.0613
8.443999	 23.0506
8.462000	 23.0424
8.480000	 23.0332
8.498000	 23.0167
8.516000	 22.9921
8.533999	 22.9601
8.552000	 22.9251
8.570000	 22.9015
8.588000	 22.9055
8.606000	 22.9369
8.624000	 22.9713
8.641999	 22.979
8.660000	 22.9555
8.678000	 22.9249
8.696000	 22.9082
8.714000	 22.8928
8.731999	 22.8428
8.750000	 22.7389
8.768000	 22.6034
8.786000	 22.4879
8.804000	 22.4362
8.821999	 22.4585
8.840000	 22.5309
8.858000	 22.6141
8.876000	 22.6753
8.894000	 22.7
8.911999	 22.6885
8.930000	 22.6475
8.948000	 22.5889
8.966000	 22.5318
8.984000	 22.4956
9.001999	 22.4856
9.020000	 22.4881
9.038000	 22.4863
9.056000	 22.4764
9.074000	 22.4639
9.092000	 22.4434
9.109999	 22.3984
9.128000	 22.3245
9.146000	 22.2477
9.164000	 22.2067
9.182000	 22.2191
9.199999	 22.269
9.218000	 22.3271
9.236000	 22.3745
9.254000	 22.4047
9.272000	 22.4115
9.289999	 22.3892
9.308000	 22.3437
9.326000	 22.2943
9.344000	 22.2549
9.362000	 22.2192
9.379999	 22.169
9.398000	 22.0985
9.416000	 22.0244
9.434000	 21.9712
9.452000	 21.9514
9.469999	 21.9636
9.488000	 22.0038
9.506000	 22.0685
9.524000	 22.1459
9.542000	 22.2121
9.560000	 22.2445
9.577999	 22.2357
9.596000	 22.1951
9.614000	 22.1366
9.632000	 22.069
9.650000	 21.9967
9.667999	 21.9285
9.686000	 21.8768
9.704000	 21.8473
9.722000	 21.8275
9.740000	 21.7904
9.757999	 21.7148
9.776000	 21.6048
9.794000	 21.4918
9.812000	 21.4153
9.830000	 21.395
9.847999	 21.4201
9.866000	 21.4626
9.884000	 21.5009
9.902000	 21.533
9.920000	 21.5719
9.937999	 21.6266
9.956000	 21.6898
9.974000	 21.7414
9.992000	 21.7615
10.01	21.7429
10.028	21.6945
10.046	21.6343
10.064	21.5788
10.082	21.5391
10.1	21.519
10.118	21.516
10.136	21.5205
10.154	21.5156
10.172	21.4819
10.19	21.4069
10.208	21.2941
10.226	21.1626
10.244	21.0393
10.262	20.9468
10.28	20.8927
10.298	20.8739
10.316	20.8813
10.334	20.9085
10.352	20.9536
10.37	21.0146
10.388	21.0845
10.406	21.1505
10.424	21.1967
10.442	21.2131
10.46	21.2021
10.478	21.1784
10.496	21.1614
10.514	21.1624
10.532	21.1784
10.55	21.1924
10.568	21.1846
10.586	21.1419
10.604	21.0645
10.622	20.9647
10.64	20.8596
10.658	20.7626
10.676	20.6817
10.694	20.6189
10.712	20.5727
10.73	20.5423
10.748	20.5261
10.766	20.5233
10.784	20.5315
10.802	20.5456
10.82	20.5592
10.838	20.5657
10.856	20.5621
10.874	20.5505
10.892	20.5363
10.91	20.5247
10.928	20.5165
10.946	20.5069
10.964	20.4884
10.982	20.4546
11	20.4037
11.018	20.3402
11.036	20.2717
11.054	20.2063
11.072	20.1494
11.09	20.1035
11.108	20.0696
11.126	20.0483
11.144	20.04
11.162	20.0431
11.18	20.0541
11.198	20.0669
11.216	20.0741
11.234	20.0695
11.252	20.0493
11.27	20.0138
11.288	19.9671
11.306	19.915
11.324	19.864
11.342	19.8199
11.36	19.7871
11.378	19.7683
11.396	19.7644
11.414	19.7733
11.432	19.789
11.45	19.8037
11.468	19.8082
11.486	19.7963
11.504	19.7667
11.522	19.7242
11.54	19.6768
11.558	19.6326
11.576	19.5963
11.594	19.5667
11.612	19.5377
11.63	19.503
11.648	19.4593
11.666	19.4088
11.684	19.3583
11.702	19.3163
11.72	19.2897
11.738	19.2807
11.756	19.2863
11.774	19.3001
11.792	19.3138
11.81	19.3209
11.828	19.3179
11.846	19.3047
11.864	19.2845
11.882	19.2613
11.9	19.2395
11.918	19.2215
11.936	19.2074
11.954	19.1946
11.972	19.1788
11.99	19.1561
12.008	19.1247
12.026	19.0861
12.044	19.0454
12.062	19.0101
12.08	18.9868
12.098	18.9789
12.116	18.9852
12.134	18.9996
12.152	19.0127
12.17	19.0158
12.188	19.0028
12.206	18.9724
12.224	18.9283
12.242	18.877
12.26	18.8253
12.278	18.7789
12.296	18.7408
12.314	18.7114
12.332	18.6891
12.35	18.6714
12.368	18.6553
12.386	18.6387
12.404	18.6208
12.422	18.6019
12.44	18.583
12.458	18.5642
12.476	18.5441
12.494	18.5194
12.512	18.4854
12.53	18.438
12.548	18.3755
12.566	18.2999
12.584	18.2169
12.602	18.1354
12.62	18.0649
12.638	18.0136
12.656	17.986
12.674	17.9816
12.692	17.9953
12.71	18.0188
12.728	18.0426
12.746	18.0588
12.764	18.0621
12.782	18.0516
12.8	18.0296
12.818	18.0011
12.836	17.9716
12.854	17.9453
12.872	17.9245
12.89	17.9087
12.908	17.8958
12.926	17.8826
12.944	17.8664
12.962	17.8465
12.98	17.8243
12.998	17.803
13.016	17.7862
13.034	17.7771
13.052	17.7766
13.07	17.7838
13.088	17.7951
13.106	17.8063
13.124	17.8133
13.142	17.8139
13.16	17.8082
13.178	17.7987
13.196	17.7897
13.214	17.7857
13.232	17.7896
13.25	17.802
13.268	17.8209
13.286	17.8415
13.304	17.8582
13.322	17.8649
13.34	17.8574
13.358	17.833
13.376	17.7918
13.394	17.7356
13.412	17.6682
13.43	17.5941
13.448	17.5181
13.466	17.4448
13.484	17.378
13.502	17.3207
13.52	17.2749
13.538	17.2411
13.556	17.2185
13.574	17.2053
13.592	17.1984
13.61	17.1945
13.628	17.1905
13.646	17.1841
13.664	17.175
13.682	17.1636
13.7	17.1519
13.718	17.1424
13.736	17.137
13.754	17.1366
13.772	17.1405
13.79	17.1467
13.808	17.1516
13.826	17.1517
13.844	17.1437
13.862	17.1259
13.88	17.0981
13.898	17.0618
13.916	17.0197
13.934	16.9752
13.952	16.9313
13.97	16.8903
13.988	16.8532
14.006	16.8193
14.024	16.7871
14.042	16.7545
14.06	16.7199
14.078	16.6821
14.096	16.6413
14.114	16.5987
14.132	16.5564
14.15	16.5172
14.168	16.4842
14.186	16.46
14.204	16.4467
14.222	16.4448
14.24	16.4539
14.258	16.4724
14.276	16.4978
14.294	16.5267
14.312	16.5553
14.33	16.5799
14.348	16.597
14.366	16.6037
14.384	16.598
14.402	16.5791
14.42	16.5477
14.438	16.5054
14.456	16.4549
14.474	16.4001
14.492	16.3453
14.51	16.2953
14.528	16.2542
14.546	16.2249
14.564	16.209
14.582	16.2063
14.6	16.2153
14.618	16.2327
14.636	16.2537
14.654	16.2732
14.672	16.2864
14.69	16.2889
14.708	16.2779
14.726	16.2514
14.744	16.2096
14.762	16.1543
14.78	16.0888
14.798	16.0168
14.816	15.9428
14.834	15.8711
14.852	15.8061
14.87	15.7505
14.888	15.7062
14.906	15.6737
14.924	15.6527
14.942	15.6412
14.96	15.6364
14.978	15.6354
14.996	15.6351
15.014	15.6326
15.032	15.6249
15.05	15.6102
15.068	15.5876
15.086	15.5569
15.104	15.5185
15.122	15.4737
15.14	15.4244
15.158	15.3725
15.176	15.3197
15.194	15.2684
15.212	15.2206
15.23	15.1776
15.248	15.1408
15.266	15.1107
15.284	15.0881
15.302	15.073
15.32	15.0655
15.338	15.0655
15.356	15.0727
15.374	15.0865
15.392	15.1059
15.41	15.1298
15.428	15.1566
15.446	15.1843
15.464	15.2107
15.482	15.234
15.5	15.2522
15.518	15.2632
15.536	15.266
15.554	15.2601
15.572	15.2456
15.59	15.2233
15.608	15.1944
15.626	15.1601
15.644	15.1219
15.662	15.0813
15.68	15.0392
15.698	14.9965
15.716	14.9538
15.734	14.9115
15.752	14.8696
15.77	14.8286
15.788	14.789
15.806	14.752
15.824	14.7184
15.842	14.6895
15.86	14.6669
15.878	14.6512
15.896	14.6433
15.914	14.6432
15.932	14.6499
15.95	14.6623
15.968	14.6786
15.986	14.6959
16.004	14.7121
16.022	14.7253
16.04	14.7331
16.058	14.735
16.076	14.7308
16.094	14.7209
16.112	14.7069
16.13	14.6903
16.148	14.6732
16.166	14.6575
16.184	14.6444
16.202	14.635
16.22	14.6291
16.238	14.626
16.256	14.6248
16.274	14.6229
16.292	14.6187
16.31	14.6106
16.328	14.5965
16.346	14.5759
16.364	14.5482
16.382	14.5139
16.4	14.4738
16.418	14.4289
16.436	14.381
16.454	14.3314
16.472	14.2812
16.49	14.232
16.508	14.184
16.526	14.1376
16.544	14.0926
16.562	14.0489
16.58	14.0061
16.598	13.964
16.616	13.9226
16.634	13.8821
16.652	13.8431
16.67	13.8066
16.688	13.7734
16.706	13.745
16.724	13.7223
16.742	13.7065
16.76	13.698
16.778	13.6968
16.796	13.703
16.814	13.7155
16.832	13.7337
16.85	13.7558
16.868	13.7802
16.886	13.8057
16.904	13.8301
16.922	13.8525
16.94	13.8715
16.958	13.8868
16.976	13.8981
16.994	13.9052
17.012	13.9091
17.03	13.9102
17.048	13.91
17.066	13.9094
17.084	13.9096
17.102	13.9118
17.12	13.9167
17.138	13.925
17.156	13.9365
17.174	13.9511
17.192	13.9676
17.21	13.9854
17.228	14.0027
17.246	14.018
17.264	14.0302
17.282	14.037
17.3	14.038
17.318	14.0318
17.336	14.0182
17.354	13.9972
17.372	13.9694
17.39	13.9353
17.408	13.8959
17.426	13.8528
17.444	13.8069
17.462	13.7603
17.48	13.7136
17.498	13.6684
17.516	13.625
17.534	13.5841
17.552	13.5456
17.57	13.5096
17.588	13.4756
17.606	13.4432
17.624	13.4118
17.642	13.3809
17.66	13.3503
17.678	13.3194
17.696	13.2885
17.714	13.2577
17.732	13.2274
17.75	13.1981
17.768	13.1708
17.786	13.146
17.804	13.1246
17.822	13.1067
17.84	13.0932
17.858	13.0839
17.876	13.0791
17.894	13.0781
17.912	13.081
17.93	13.0864
17.948	13.0938
17.966	13.1017
17.984	13.1096
18.002	13.116
18.02	13.1202
18.038	13.1214
18.056	13.1192
18.074	13.1132
18.092	13.1037
18.11	13.0908
18.128	13.0755
18.146	13.0584
18.164	13.0408
18.182	13.0234
18.2	13.0076
18.218	12.9942
18.236	12.984
18.254	12.9775
18.272	12.9749
18.29	12.9763
18.308	12.9814
18.326	12.9893
18.344	12.9997
18.362	13.011
18.38	13.0227
18.398	13.0331
18.416	13.0417
18.434	13.0473
18.452	13.0493
18.47	13.047
18.488	13.0403
18.506	13.0288
18.524	13.0127
18.542	12.992
18.56	12.9674
18.578	12.9388
18.596	12.9073
18.614	12.8729
18.632	12.8365
18.65	12.7982
18.668	12.759
18.686	12.7188
18.704	12.6786
18.722	12.6383
18.74	12.5989
18.758	12.5605
18.776	12.5239
18.794	12.4893
18.812	12.4576
18.83	12.429
18.848	12.4043
18.866	12.3837
18.884	12.3678
18.902	12.3566
18.92	12.3505
18.938	12.3493
18.956	12.3527
18.974	12.3602
18.992	12.3708
19.01	12.384
19.028	12.3986
19.046	12.4138
19.064	12.4284
19.082	12.4419
19.1	12.4528
19.118	12.4609
19.136	12.4654
19.154	12.4662
19.172	12.4629
19.19	12.4561
19.208	12.4461
19.226	12.4332
19.244	12.4189
19.262	12.4033
19.28	12.388
19.298	12.3732
19.316	12.3603
19.334	12.3491
19.352	12.3405
19.37	12.3344
19.388	12.3308
19.406	12.3296
19.424	12.33
19.442	12.3319
19.46	12.3337
19.478	12.3354
19.496	12.3354
19.514	12.3332
19.532	12.328
19.55	12.3191
19.568	12.3066
19.586	12.2897
19.604	12.269
19.622	12.2447
19.64	12.217
19.658	12.1872
19.676	12.1551
19.694	12.1229
19.712	12.0902
19.73	12.0589
19.748	12.029
19.766	12.0013
19.784	11.9762
19.802	11.9535
19.82	11.9334
19.838	11.915
19.856	11.898
19.874	11.8818
19.892	11.8642
19.91	11.8456
19.928	11.8231
19.946	11.7971
19.964	11.7652
19.982	11.727
20	11.6818
20.018	11.6286
20.036	11.5679
20.054	11.4993
20.072	11.4233
20.09	11.3417
20.108	11.254
20.126	11.1637
20.144	11.0703
20.162	10.9775
20.18	10.8864
20.198	10.7988
20.216	10.7182
20.234	10.6445
20.252	10.5821
20.27	10.5304
20.288	10.4922
20.306	10.4679
20.324	10.4581
20.342	10.4637
20.36	10.4839
20.378	10.5187
20.396	10.5678
20.414	10.6289
20.432	10.7027
20.45	10.7857
20.468	10.8771
20.486	10.9754
20.504	11.0768
20.522	11.182
20.54	11.2863
20.558	11.3904
20.576	11.4912
20.594	11.5873
20.612	11.6784
20.63	11.7618
20.648	11.8381
20.666	11.9058
20.684	11.9648
20.702	12.0151
20.72	12.0562
20.738	12.0887
20.756	12.113
20.774	12.129
20.792	12.1382
20.81	12.1405
20.828	12.1368
20.846	12.1282
20.864	12.1146
20.882	12.0975
20.9	12.0768
20.918	12.0533
20.936	12.0276
20.954	11.9998
20.972	11.9712
20.99	11.9415
21.008	11.9114
21.026	11.8812
21.044	11.8507
21.062	11.8207
21.08	11.7909
21.098	11.7616
21.116	11.7328
21.134	11.7047
21.152	11.6773
21.17	11.6507
21.188	11.6248
21.206	11.5996
21.224	11.575
21.242	11.5507
21.26	11.5269
21.278	11.5028
21.296	11.4785
21.314	11.4536
21.332	11.427
21.35	11.3992
21.368	11.3691
21.386	11.3364
21.404	11.301
21.422	11.2618
21.44	11.2191
21.458	11.1722
21.476	11.1209
21.494	11.0652
21.512	11.0049
21.53	10.9399
21.548	10.8707
21.566	10.7973
21.584	10.7199
21.602	10.6395
21.62	10.5559
21.638	10.4701
21.656	10.3832
21.674	10.2948
21.692	10.2066
21.71	10.1191
21.728	10.0325
21.746	9.948507
21.764	9.866671
21.782	9.788188
21.8	9.714149
21.818	9.644074
21.836	9.578905
21.854	9.518627
21.872	9.463418
21.89	9.413978
21.908	9.370112
21.926	9.331964
21.944	9.299626
21.962	9.273022
21.98	9.252508
21.998	9.238141
22.016	9.229813
22.034	9.227501
22.052	9.231088
22.07	9.240837
22.088	9.256905
22.106	9.279167
22.124	9.307931
22.142	9.343286
22.16	9.385116
22.178	9.433466
22.196	9.488528
22.214	9.549740
22.232	9.616658
22.25	9.689695
22.268	9.767233
22.286	9.848724
22.304	9.934429
22.322	10.0214
22.34	10.1098
22.358	10.1989
22.376	10.285
22.394	10.3691
22.412	10.4492
22.43	10.5218
22.448	10.5886
22.466	10.6466
22.484	10.6931
22.502	10.7296
22.52	10.7534
22.538	10.763
22.556	10.7593
22.574	10.7413
22.592	10.7084
22.61	10.6613
22.628	10.6013
22.646	10.5274
22.664	10.4412
22.682	10.3453
22.7	10.2383
22.718	10.1228
22.736	10.002
22.754	9.873713
22.772	9.742063
22.79	9.610353
22.808	9.476481
22.826	9.344574
22.844	9.217315
22.862	9.093002
22.88	8.974644
22.898	8.863761
22.916	8.759305
22.934	8.662848
22.952	8.575058
22.97	8.495383
22.988	8.424155
23.006	8.361697
23.024	8.307631
23.042	8.261215
23.06	8.222705
23.078	8.191715
23.096	8.166745
23.114	8.147955
23.132	8.135084
23.15	8.126633
23.168	8.122646
23.186	8.123061
23.204	8.126925
23.222	8.134275
23.24	8.145072
23.258	8.158745
23.276	8.175435
23.294	8.194957
23.312	8.216665
23.33	8.240708
23.348	8.266908
23.366	8.294542
23.384	8.323974
23.402	8.354787
23.42	8.385598
23.438	8.416606
23.456	8.447648
23.474	8.477193
23.492	8.505305
23.51	8.532001
23.528	8.555600
23.546	8.575767
23.564	8.592896
23.582	8.605767
23.6	8.613905
23.618	8.617763
23.636	8.616730
23.654	8.610276
23.672	8.598651
23.69	8.582490
23.708	8.561954
23.726	8.536519
23.744	8.507945
23.762	8.477596
23.78	8.444225
23.798	8.409763
23.816	8.376361
23.834	8.342658
23.852	8.310129
23.87	8.281191
23.888	8.254524
23.906	8.231372
23.924	8.214954
23.942	8.204751
23.96	8.200834
23.978	8.206627
23.996	8.223201
24.014	8.249249
24.032	8.287073
24.05	8.338169
24.068	8.401327
24.086	8.477516
24.104	8.567792
24.122	8.671741
24.14	8.789221
24.158	8.920319
24.176	9.065362
24.194	9.223753
24.212	9.394540
24.23	9.578047
24.248	9.774163
24.266	9.980734
24.284	10.1968
24.302	10.4236
24.32	10.6586
24.338	10.8996
24.356	11.1482
24.374	11.4026
24.392	11.6597
24.41	11.9204
24.428	12.1844
24.446	12.4486
24.464	12.7119
24.482	12.9759
24.5	13.2376
24.518	13.4948
24.536	13.7494
24.554	13.9996
24.572	14.2425
24.59	14.4787
24.608	14.7084
24.626	14.9295
24.644	15.1414
24.662	15.3452
24.68	15.5391
24.698	15.7217
24.716	15.894
24.734	16.0553
24.752	16.2041
24.77	16.3404
24.788	16.4646
24.806	16.5754
24.824	16.672
24.842	16.7549
24.86	16.824
24.878	16.879
24.896	16.9197
24.914	16.9465
24.932	16.9596
24.95	16.9586
24.968	16.9433
24.986	16.9156
25.004	16.878
25.022	16.8291
25.04	16.7698
25.058	16.702
25.076	16.6268
25.094	16.5427
25.112	16.4519
25.13	16.3564
25.148	16.2555
25.166	16.1494
25.184	16.039
25.202	15.9248
25.22	15.8063
25.238	15.6841
25.256	15.5587
25.274	15.4311
25.292	15.3001
25.31	15.164
25.328	15.0222
25.346	14.8763
25.364	14.7238
25.382	14.5619
25.4	14.3928
25.418	14.2157
25.436	14.0257
25.454	13.8193
25.472	13.6007
25.49	13.3662
25.508	13.1103
25.526	12.8317
25.544	12.533
25.562	12.2119
25.58	11.8659
25.598	11.4944
25.616	11.0995
25.634	10.6834
25.652	10.2464
25.67	9.786031
25.688	9.307175
25.706	8.815487
25.724	8.309038
25.742	7.786444
25.76	7.256765
25.778	6.728101
25.796	6.192448
25.814	5.654724
25.832	5.126913
25.85	4.616165
25.868	4.112377
25.886	3.624626
25.904	3.164659
25.922	2.734187
25.94	2.326533
25.958	1.951348
25.976	1.618404
25.994	1.325483
26.012	1.070381
26.03	0.857373
26.048	0.690561
26.066	0.570207
26.084	0.492824
26.102	0.454862
26.12	0.455510
26.138	0.500408
26.156	0.580357
26.174	0.684536
26.192	0.811850
26.21	0.970484
26.228	1.145687
26.246	1.321999
26.264	1.502591
26.282	1.693031
26.3	1.876965
26.318	2.038451
26.336	2.186262
26.354	2.320518
26.372	2.425837
26.39	2.488028
26.408	2.515055
26.426	2.506881
26.444	2.456012
26.462	2.355829
26.48	2.209342
26.498	2.018288
26.516	1.782848
26.534	1.501629
26.552	1.169222
26.57	0.795097
26.588	0.390851
26.606	-0.037964
26.624	-0.504673
26.642	-0.995243
26.66	-1.492195
26.678	-1.988598
26.696	-2.502861
26.714	-3.015165
26.732	-3.502128
26.75	-3.954909
26.768	-4.395609
26.786	-4.802291
26.804	-5.149645
26.822	-5.426487
26.84	-5.653621
26.858	-5.816247
26.876	-5.896910
26.894	-5.886289
26.912	-5.797177
26.93	-5.625338
26.948	-5.365044
26.966	-4.973551
26.984	-4.397032
27.002	-3.782824
27.02	-3.290396
27.028	-3.165459