File: Bakgrunnsmateriale/MATLAB/FTIR/ftir_data/LPE453/Mapping_121/LPE453_t38.asc
PE IR       SPECTRUM    SPECTRUM    ASCII       PEDS        1.60
  -1
LPEF99~1.ASC
17/05/16
17:27:03.00
17/05/16
17:27:29.00
tln
$LPE453_t0038$<tbV0>[2.6,-5.2,8.0,0.0,27,1,0]
27.028
64

2002,4.07
MIRTGS : RIGHTBACK : INTERNAL 2
MIR : ON : INTERNAL 2
OPTKBR

0.200000
8
8.000000
FILLER
RATIO
SPECTRUM
UNLOCKED 256

DOUBLE
64
COMBINED
1
0
0

0.002000
RATIO

1
0
TRUE
51149
0
LEFT NOT FITTED RIGHT NOT FITTED 0
NONE
NONE
15600
12
4.427000
51148
TRUE
1 0 8 72 0 0 0 0

15798

#HDR
-1
-1
#GR
µM
%T
2.38419e-05
0.0
2.000000
0.002000
12515
8
24.7067
-32.1822
#DATA
2.000000	 0.246620
2.018000	 0.192270
2.036000	 -0.051947
2.054000	 0.189284
2.072000	 0.223405
2.090000	 0.103707
2.108000	 -0.158698
2.126000	 0.005540
2.144000	 0.602866
2.162000	 0.310305
2.180000	 -0.100309
2.198000	 -0.812768
2.216000	 18.2149
2.234000	 -0.156803
2.252000	 -0.109067
2.270000	 0.353878
2.288000	 0.403889
2.306000	 0.270106
2.324000	 -0.061752
2.342000	 0.227103
2.360000	 0.197942
2.378000	 0.055729
2.396000	 0.434113
2.414000	 0.041844
2.432000	 0.118173
2.450000	 0.109011
2.468000	 0.149664
2.486000	 0.062250
2.504000	 0.111880
2.522000	 0.009535
2.540000	 0.100349
2.558000	 0.102090
2.576000	 -0.132693
2.594000	 0.037022
2.612000	 0.202828
2.630000	 0.183082
2.648000	 0.111436
2.666000	 0.226335
2.684000	 0.014211
2.702000	 0.050088
2.720000	 -0.018355
2.738000	 0.116163
2.756000	 -0.086419
2.774000	 0.032552
2.792000	 0.093459
2.810000	 -0.021284
2.828000	 -0.009144
2.846000	 0.020834
2.864000	 0.140035
2.882000	 -0.017236
2.900000	 0.109682
2.918000	 0.087013
2.936000	 0.064936
2.954000	 0.179038
2.972000	 0.073143
2.990000	 0.010031
3.008000	 0.168138
3.026000	 -0.049257
3.044000	 -0.010925
3.062000	 0.029395
3.080000	 0.203740
3.098000	 -0.113025
3.116000	 0.008018
3.134000	 0.056103
3.152000	 0.078881
3.170000	 -0.016550
3.188000	 0.218775
3.206000	 0.162198
3.224000	 -0.052356
3.242000	 0.124937
3.260000	 0.017606
3.278000	 0.028414
3.296000	 0.106427
3.314000	 0.097247
3.332000	 -0.144350
3.350000	 -0.090951
3.368000	 0.223849
3.386000	 0.063222
3.404000	 0.087946
3.422000	 0.080152
3.440000	 0.060394
3.458000	 0.049713
3.476000	 0.028066
3.494000	 -0.128756
3.512000	 0.100160
3.530000	 0.073731
3.548000	 0.031950
3.566000	 0.004511
3.584000	 -0.007432
3.602000	 -0.012162
3.620000	 0.077665
3.638000	 0.010812
3.656000	 0.100857
3.674000	 0.117711
3.692000	 0.023913
3.710000	 0.046293
3.728000	 0.033730
3.746000	 0.023855
3.764000	 0.139774
3.782000	 0.002584
3.800000	 0.075691
3.818000	 0.089365
3.836000	 0.039261
3.854000	 -0.011735
3.872000	 0.042361
3.890000	 0.004883
3.908000	 -0.054446
3.926000	 0.101063
3.944000	 0.025595
3.962000	 0.088505
3.980000	 0.041621
3.998000	 0.091623
4.016000	 0.057603
4.034000	 -0.085051
4.052000	 -0.013889
4.070000	 0.078098
4.088000	 0.016862
4.106000	 0.047860
4.124000	 0.201774
4.141999	 0.042868
4.160000	 0.047331
4.178000	 -0.146603
4.196000	 0.059298
4.214000	 -0.003492
4.232000	 0.094294
4.250000	 0.052151
4.268000	 0.015232
4.286000	 -0.031052
4.304000	 0.039507
4.322000	 0.013173
4.340000	 0.009875
4.358000	 0.060023
4.375999	 -0.070697
4.394000	 -0.003739
4.412000	 0.132197
4.430000	 0.170392
4.448000	 0.018765
4.466000	 0.220897
4.484000	 0.274496
4.502000	 0.386197
4.520000	 0.495831
4.538000	 0.741369
4.556000	 0.985556
4.574000	 1.282558
4.592000	 1.469145
4.609999	 1.812147
4.628000	 2.183377
4.646000	 2.711433
4.664000	 3.027171
4.682000	 3.559480
4.700000	 4.048292
4.718000	 4.672625
4.736000	 5.388859
4.754000	 6.003311
4.772000	 6.666195
4.790000	 7.312171
4.808000	 8.029107
4.826000	 8.700174
4.843999	 9.293464
4.862000	 10.1452
4.880000	 10.748
4.898000	 11.5194
4.916000	 12.1765
4.934000	 12.802
4.952000	 13.4781
4.970000	 14.1437
4.988000	 14.7013
5.006000	 15.2463
5.024000	 15.7862
5.042000	 16.2785
5.060000	 16.7553
5.077999	 17.2526
5.096000	 17.6787
5.114000	 18.0967
5.132000	 18.4835
5.150000	 18.8989
5.168000	 19.2772
5.186000	 19.6662
5.204000	 19.8773
5.222000	 20.2068
5.240000	 20.5789
5.258000	 20.8167
5.276000	 21.096
5.294000	 21.3704
5.312000	 21.4682
5.330000	 21.694
5.348000	 21.9487
5.366000	 22.131
5.384000	 22.2777
5.402000	 22.4839
5.420000	 22.6296
5.438000	 22.8258
5.456000	 22.9133
5.474000	 23.0906
5.492000	 23.2151
5.510000	 23.2047
5.528000	 23.3446
5.546000	 23.4864
5.564000	 23.5864
5.582000	 23.6006
5.600000	 23.757
5.618000	 23.8036
5.636000	 23.7868
5.654000	 23.8261
5.672000	 23.99
5.690000	 24.0933
5.708000	 24.0147
5.726000	 24.0314
5.744000	 24.1432
5.762000	 24.103
5.780000	 24.161
5.798000	 24.3562
5.816000	 24.4346
5.834000	 24.385
5.852000	 24.2465
5.870000	 24.1902
5.888000	 24.2948
5.906000	 24.392
5.923999	 24.4051
5.942000	 24.392
5.960000	 24.3853
5.978000	 24.4645
5.996000	 24.5173
6.014000	 24.4721
6.032000	 24.5259
6.050000	 24.5898
6.068000	 24.6528
6.086000	 24.7058
6.104000	 24.6617
6.122000	 24.5309
6.140000	 24.4817
6.158000	 24.4993
6.176000	 24.5063
6.194000	 24.5443
6.212000	 24.615
6.230000	 24.6209
6.248000	 24.5151
6.266000	 24.4135
6.284000	 24.3811
6.302000	 24.3652
6.320000	 24.3572
6.338000	 24.4394
6.356000	 24.5446
6.374000	 24.5303
6.392000	 24.4632
6.410000	 24.423
6.428000	 24.3932
6.446000	 24.3899
6.464000	 24.433
6.482000	 24.5185
6.500000	 24.5775
6.518000	 24.5518
6.536000	 24.5094
6.554000	 24.5042
6.572000	 24.5592
6.590000	 24.5806
6.608000	 24.5098
6.626000	 24.4193
6.644000	 24.3746
6.662000	 24.4099
6.680000	 24.4762
6.698000	 24.4812
6.716000	 24.4258
6.734000	 24.371
6.752000	 24.3186
6.770000	 24.291
6.788000	 24.2885
6.806000	 24.3179
6.824000	 24.4179
6.842000	 24.4795
6.860000	 24.4341
6.878000	 24.3638
6.896000	 24.2613
6.914000	 24.0845
6.932000	 23.949
6.950000	 24.0004
6.968000	 24.1828
6.986000	 24.3043
7.004000	 24.3001
7.022000	 24.2494
7.040000	 24.2052
7.058000	 24.1577
7.076000	 24.122
7.094000	 24.11
7.112000	 24.0787
7.130000	 24.0131
7.148000	 23.9756
7.166000	 24.0054
7.184000	 24.0744
7.202000	 24.1445
7.220000	 24.178
7.238000	 24.1555
7.256000	 24.0981
7.274000	 24.0247
7.292000	 23.9595
7.310000	 23.9409
7.328000	 23.978
7.346000	 24.026
7.364000	 24.0163
7.382000	 23.9495
7.400000	 23.9115
7.418000	 23.9459
7.436000	 23.9968
7.454000	 23.9913
7.472000	 23.9246
7.490000	 23.858
7.508000	 23.8338
7.526000	 23.828
7.544000	 23.803
7.562000	 23.7614
7.580000	 23.7378
7.598000	 23.7642
7.616000	 23.8338
7.634000	 23.8962
7.652000	 23.8983
7.670000	 23.8397
7.688000	 23.7718
7.706000	 23.7249
7.724000	 23.6731
7.742000	 23.6139
7.760000	 23.5977
7.778000	 23.6386
7.796000	 23.6837
7.814000	 23.6978
7.832000	 23.6979
7.850000	 23.7014
7.868000	 23.7011
7.886000	 23.6772
7.904000	 23.6167
7.922000	 23.5403
7.940000	 23.4908
7.958000	 23.4776
7.976000	 23.4748
7.994000	 23.4695
8.012000	 23.4661
8.030000	 23.4599
8.048000	 23.4424
8.065999	 23.4184
8.084000	 23.4007
8.102000	 23.4005
8.120000	 23.4153
8.138000	 23.4224
8.155999	 23.4021
8.173999	 23.3655
8.192000	 23.3358
8.210000	 23.3135
8.228000	 23.284
8.246000	 23.2463
8.263999	 23.2092
8.282000	 23.1824
8.300000	 23.17
8.318000	 23.1727
8.336000	 23.1934
8.353999	 23.2359
8.372000	 23.2893
8.390000	 23.3236
8.408000	 23.3154
8.426000	 23.2677
8.443999	 23.1943
8.462000	 23.1104
8.480000	 23.038
8.498000	 22.9951
8.516000	 22.9817
8.533999	 22.9881
8.552000	 23.0083
8.570000	 23.0377
8.588000	 23.0639
8.606000	 23.0721
8.624000	 23.0572
8.641999	 23.0284
8.660000	 23.0028
8.678000	 22.9928
8.696000	 22.9955
8.714000	 22.9985
8.731999	 22.9968
8.750000	 22.9964
8.768000	 22.9973
8.786000	 22.9848
8.804000	 22.9447
8.821999	 22.8811
8.840000	 22.8141
8.858000	 22.7598
8.876000	 22.7236
8.894000	 22.7101
8.911999	 22.7242
8.930000	 22.7556
8.948000	 22.7781
8.966000	 22.7729
8.984000	 22.7484
9.001999	 22.7245
9.020000	 22.703
9.038000	 22.6693
9.056000	 22.6184
9.074000	 22.5663
9.092000	 22.5288
9.109999	 22.507
9.128000	 22.4974
9.146000	 22.5031
9.164000	 22.5263
9.182000	 22.5556
9.199999	 22.5751
9.218000	 22.5857
9.236000	 22.6013
9.254000	 22.6234
9.272000	 22.6303
9.289999	 22.5992
9.308000	 22.5313
9.326000	 22.451
9.344000	 22.3822
9.362000	 22.3318
9.379999	 22.2944
9.398000	 22.2628
9.416000	 22.2334
9.434000	 22.2067
9.452000	 22.1903
9.469999	 22.1942
9.488000	 22.2177
9.506000	 22.2453
9.524000	 22.2567
9.542000	 22.2442
9.560000	 22.2177
9.577999	 22.1909
9.596000	 22.1664
9.614000	 22.1368
9.632000	 22.0968
9.650000	 22.0485
9.667999	 21.9981
9.686000	 21.9546
9.704000	 21.9289
9.722000	 21.9284
9.740000	 21.9464
9.757999	 21.9616
9.776000	 21.9511
9.794000	 21.9099
9.812000	 21.8562
9.830000	 21.8135
9.847999	 21.789
9.866000	 21.7719
9.884000	 21.7522
9.902000	 21.735
9.920000	 21.7358
9.937999	 21.7608
9.956000	 21.7947
9.974000	 21.8097
9.992000	 21.7845
10.01	21.7187
10.028	21.6312
10.046	21.5464
10.064	21.4807
10.082	21.4381
10.1	21.4129
10.118	21.3947
10.136	21.3748
10.154	21.3507
10.172	21.3279
10.19	21.3162
10.208	21.3226
10.226	21.3446
10.244	21.3703
10.262	21.3853
10.28	21.3826
10.298	21.3673
10.316	21.3525
10.334	21.3493
10.352	21.3602
10.37	21.3783
10.388	21.3932
10.406	21.3979
10.424	21.3908
10.442	21.3729
10.46	21.344
10.478	21.3025
10.496	21.2476
10.514	21.1825
10.532	21.1148
10.55	21.0534
10.568	21.0047
10.586	20.9718
10.604	20.9549
10.622	20.9522
10.64	20.9595
10.658	20.9696
10.676	20.9737
10.694	20.9651
10.712	20.9415
10.73	20.9072
10.748	20.8694
10.766	20.8349
10.784	20.8072
10.802	20.7866
10.82	20.7727
10.838	20.7658
10.856	20.7656
10.874	20.7697
10.892	20.7722
10.91	20.7641
10.928	20.7391
10.946	20.6954
10.964	20.6371
10.982	20.5731
11	20.5121
11.018	20.4596
11.036	20.4169
11.054	20.3814
11.072	20.3497
11.09	20.3185
11.108	20.2859
11.126	20.2517
11.144	20.2174
11.162	20.186
11.18	20.1621
11.198	20.1502
11.216	20.153
11.234	20.1697
11.252	20.1945
11.27	20.2176
11.288	20.2274
11.306	20.2153
11.324	20.178
11.342	20.1199
11.36	20.0513
11.378	19.9863
11.396	19.9365
11.414	19.908
11.432	19.8988
11.45	19.9002
11.468	19.8995
11.486	19.886
11.504	19.8542
11.522	19.8056
11.54	19.747
11.558	19.6875
11.576	19.6344
11.594	19.5912
11.612	19.5578
11.63	19.5317
11.648	19.5105
11.666	19.4934
11.684	19.4808
11.702	19.4737
11.72	19.4707
11.738	19.4688
11.756	19.464
11.774	19.4534
11.792	19.4381
11.81	19.4239
11.828	19.4194
11.846	19.4318
11.864	19.4632
11.882	19.5089
11.9	19.5579
11.918	19.597
11.936	19.6163
11.954	19.6122
11.972	19.5885
11.99	19.5542
12.008	19.5195
12.026	19.4907
12.044	19.4691
12.062	19.4488
12.08	19.4208
12.098	19.3769
12.116	19.3133
12.134	19.233
12.152	19.145
12.17	19.0599
12.188	18.9871
12.206	18.9312
12.224	18.8923
12.242	18.8673
12.26	18.8521
12.278	18.8427
12.296	18.8361
12.314	18.8292
12.332	18.8186
12.35	18.801
12.368	18.7735
12.386	18.7352
12.404	18.6875
12.422	18.6349
12.44	18.5837
12.458	18.5405
12.476	18.5104
12.494	18.4958
12.512	18.4959
12.53	18.5063
12.548	18.5207
12.566	18.5326
12.584	18.5365
12.602	18.5287
12.62	18.5085
12.638	18.4775
12.656	18.4394
12.674	18.3984
12.692	18.3588
12.71	18.3237
12.728	18.2947
12.746	18.2723
12.764	18.2554
12.782	18.2427
12.8	18.2332
12.818	18.2268
12.836	18.2248
12.854	18.2291
12.872	18.2411
12.89	18.2611
12.908	18.287
12.926	18.3146
12.944	18.3383
12.962	18.3524
12.98	18.3533
12.998	18.3398
13.016	18.3134
13.034	18.2777
13.052	18.2368
13.07	18.194
13.088	18.1512
13.106	18.1092
13.124	18.068
13.142	18.0279
13.16	17.9905
13.178	17.9589
13.196	17.9373
13.214	17.9289
13.232	17.9348
13.25	17.9525
13.268	17.9761
13.286	17.9971
13.304	18.0061
13.322	17.9952
13.34	17.96
13.358	17.9005
13.376	17.8213
13.394	17.7302
13.412	17.6366
13.43	17.5497
13.448	17.4767
13.466	17.4213
13.484	17.3838
13.502	17.3612
13.52	17.3488
13.538	17.3409
13.556	17.3327
13.574	17.3214
13.592	17.3071
13.61	17.2916
13.628	17.2792
13.646	17.2744
13.664	17.2817
13.682	17.3038
13.7	17.3412
13.718	17.3919
13.736	17.451
13.754	17.5123
13.772	17.5685
13.79	17.6123
13.808	17.6379
13.826	17.6413
13.844	17.6211
13.862	17.5784
13.88	17.5167
13.898	17.4409
13.916	17.3569
13.934	17.2706
13.952	17.1876
13.97	17.1121
13.988	17.047
14.006	16.9938
14.024	16.9517
14.042	16.9192
14.06	16.894
14.078	16.8731
14.096	16.854
14.114	16.8346
14.132	16.8132
14.15	16.7896
14.168	16.7639
14.186	16.7375
14.204	16.7118
14.222	16.6887
14.24	16.6705
14.258	16.659
14.276	16.6552
14.294	16.6592
14.312	16.6701
14.33	16.6861
14.348	16.7042
14.366	16.7203
14.384	16.7304
14.402	16.731
14.42	16.72
14.438	16.6964
14.456	16.6607
14.474	16.615
14.492	16.5625
14.51	16.5077
14.528	16.4552
14.546	16.4085
14.564	16.3704
14.582	16.342
14.6	16.3235
14.618	16.3138
14.636	16.3107
14.654	16.3114
14.672	16.3132
14.69	16.3139
14.708	16.3118
14.726	16.3053
14.744	16.2933
14.762	16.2752
14.78	16.2506
14.798	16.2193
14.816	16.1813
14.834	16.1367
14.852	16.0861
14.87	16.03
14.888	15.9692
14.906	15.9049
14.924	15.8383
14.942	15.7709
14.96	15.7046
14.978	15.6411
14.996	15.5822
15.014	15.53
15.032	15.4863
15.05	15.4526
15.068	15.4302
15.086	15.4197
15.104	15.4212
15.122	15.4339
15.14	15.4562
15.158	15.4862
15.176	15.5218
15.194	15.5606
15.212	15.6
15.23	15.6383
15.248	15.6741
15.266	15.7066
15.284	15.7355
15.302	15.7612
15.32	15.7837
15.338	15.8033
15.356	15.8199
15.374	15.8328
15.392	15.841
15.41	15.8433
15.428	15.8382
15.446	15.8244
15.464	15.8015
15.482	15.7695
15.5	15.7289
15.518	15.6821
15.536	15.6313
15.554	15.579
15.572	15.5285
15.59	15.4825
15.608	15.4424
15.626	15.409
15.644	15.3822
15.662	15.3605
15.68	15.3424
15.698	15.3258
15.716	15.3084
15.734	15.2885
15.752	15.2654
15.77	15.2389
15.788	15.21
15.806	15.1802
15.824	15.1514
15.842	15.1253
15.86	15.104
15.878	15.0882
15.896	15.0788
15.914	15.0757
15.932	15.0778
15.95	15.0838
15.968	15.0918
15.986	15.0997
16.004	15.106
16.022	15.1094
16.04	15.1087
16.058	15.1035
16.076	15.0938
16.094	15.0799
16.112	15.0626
16.13	15.0428
16.148	15.0212
16.166	14.9993
16.184	14.9779
16.202	14.958
16.22	14.941
16.238	14.928
16.256	14.9196
16.274	14.917
16.292	14.9205
16.31	14.9303
16.328	14.946
16.346	14.9667
16.364	14.9915
16.382	15.0184
16.4	15.0451
16.418	15.0699
16.436	15.0896
16.454	15.1021
16.472	15.1058
16.49	15.0982
16.508	15.0786
16.526	15.0463
16.544	15.0013
16.562	14.9445
16.58	14.8767
16.598	14.8001
16.616	14.7166
16.634	14.6282
16.652	14.5382
16.67	14.4487
16.688	14.362
16.706	14.2815
16.724	14.2084
16.742	14.1449
16.76	14.0927
16.778	14.0523
16.796	14.0243
16.814	14.0079
16.832	14.0026
16.85	14.0064
16.868	14.0171
16.886	14.0328
16.904	14.05
16.922	14.067
16.94	14.0812
16.958	14.091
16.976	14.0958
16.994	14.0944
17.012	14.0878
17.03	14.0761
17.048	14.061
17.066	14.0434
17.084	14.0248
17.102	14.0063
17.12	13.9885
17.138	13.9721
17.156	13.9567
17.174	13.9423
17.192	13.9279
17.21	13.9129
17.228	13.8959
17.246	13.8764
17.264	13.8537
17.282	13.8277
17.3	13.7986
17.318	13.7671
17.336	13.7343
17.354	13.7011
17.372	13.6696
17.39	13.6406
17.408	13.6159
17.426	13.5963
17.444	13.5824
17.462	13.5745
17.48	13.5723
17.498	13.5748
17.516	13.5809
17.534	13.5895
17.552	13.5984
17.57	13.6072
17.588	13.6137
17.606	13.6177
17.624	13.6181
17.642	13.615
17.66	13.6082
17.678	13.5989
17.696	13.5872
17.714	13.5747
17.732	13.5619
17.75	13.5499
17.768	13.5391
17.786	13.5298
17.804	13.522
17.822	13.5153
17.84	13.5086
17.858	13.501
17.876	13.4916
17.894	13.4784
17.912	13.4609
17.93	13.4372
17.948	13.4071
17.966	13.3696
17.984	13.3251
18.002	13.2735
18.02	13.2162
18.038	13.1536
18.056	13.0879
18.074	13.0198
18.092	12.9523
18.11	12.8858
18.128	12.8234
18.146	12.7654
18.164	12.714
18.182	12.6694
18.2	12.6328
18.218	12.6043
18.236	12.5841
18.254	12.5719
18.272	12.5675
18.29	12.5699
18.308	12.5787
18.326	12.5924
18.344	12.6107
18.362	12.6317
18.38	12.655
18.398	12.6792
18.416	12.7036
18.434	12.7271
18.452	12.7491
18.47	12.769
18.488	12.7864
18.506	12.801
18.524	12.8128
18.542	12.8218
18.56	12.8285
18.578	12.8328
18.596	12.8356
18.614	12.8367
18.632	12.837
18.65	12.8363
18.668	12.835
18.686	12.8329
18.704	12.83
18.722	12.826
18.74	12.8204
18.758	12.813
18.776	12.8028
18.794	12.7897
18.812	12.7728
18.83	12.752
18.848	12.7268
18.866	12.6975
18.884	12.6639
18.902	12.6266
18.92	12.586
18.938	12.5427
18.956	12.4977
18.974	12.4516
18.992	12.4056
19.01	12.36
19.028	12.316
19.046	12.2733
19.064	12.2328
19.082	12.1941
19.1	12.1571
19.118	12.1216
19.136	12.0871
19.154	12.0532
19.172	12.0191
19.19	11.9847
19.208	11.9493
19.226	11.913
19.244	11.8757
19.262	11.8376
19.28	11.7994
19.298	11.7614
19.316	11.7252
19.334	11.6907
19.352	11.6601
19.37	11.6334
19.388	11.6122
19.406	11.5964
19.424	11.587
19.442	11.5842
19.46	11.588
19.478	11.5984
19.496	11.6147
19.514	11.6368
19.532	11.6634
19.55	11.694
19.568	11.7272
19.586	11.762
19.604	11.7977
19.622	11.8326
19.64	11.8667
19.658	11.8983
19.676	11.9277
19.694	11.9537
19.712	11.9766
19.73	11.9959
19.748	12.0117
19.766	12.0239
19.784	12.0326
19.802	12.0381
19.82	12.0404
19.838	12.0397
19.856	12.0363
19.874	12.0301
19.892	12.0216
19.91	12.0107
19.928	11.9978
19.946	11.9827
19.964	11.9662
19.982	11.9481
20	11.9291
20.018	11.9093
20.036	11.8893
20.054	11.8699
20.072	11.8512
20.09	11.8343
20.108	11.8192
20.126	11.8071
20.144	11.798
20.162	11.7925
20.18	11.7909
20.198	11.7931
20.216	11.7993
20.234	11.809
20.252	11.8213
20.27	11.8362
20.288	11.8517
20.306	11.8681
20.324	11.8831
20.342	11.8956
20.36	11.9051
20.378	11.9086
20.396	11.9067
20.414	11.8967
20.432	11.8786
20.45	11.8515
20.468	11.8145
20.486	11.7682
20.504	11.7127
20.522	11.648
20.54	11.5763
20.558	11.4967
20.576	11.4127
20.594	11.3251
20.612	11.2354
20.63	11.1474
20.648	11.0602
20.666	10.9792
20.684	10.9037
20.702	10.8368
20.72	10.7808
20.738	10.7353
20.756	10.7032
20.774	10.684
20.792	10.678
20.81	10.686
20.828	10.7066
20.846	10.7388
20.864	10.7827
20.882	10.8349
20.9	10.8961
20.918	10.9628
20.936	11.0329
20.954	11.1063
20.972	11.1779
20.99	11.2488
21.008	11.3151
21.026	11.3755
21.044	11.4298
21.062	11.4747
21.08	11.5111
21.098	11.5378
21.116	11.554
21.134	11.5605
21.152	11.5574
21.17	11.5445
21.188	11.5239
21.206	11.4954
21.224	11.4604
21.242	11.4213
21.26	11.3772
21.278	11.3315
21.296	11.2843
21.314	11.2365
21.332	11.1905
21.35	11.1456
21.368	11.1037
21.386	11.0652
21.404	11.0302
21.422	10.9997
21.44	10.9735
21.458	10.9516
21.476	10.9342
21.494	10.9211
21.512	10.9118
21.53	10.9065
21.548	10.9049
21.566	10.9065
21.584	10.9116
21.602	10.9197
21.62	10.9307
21.638	10.9448
21.656	10.9619
21.674	10.9819
21.692	11.0049
21.71	11.0308
21.728	11.0596
21.746	11.0911
21.764	11.1257
21.782	11.1623
21.8	11.2007
21.818	11.2409
21.836	11.2811
21.854	11.322
21.872	11.3621
21.89	11.399
21.908	11.434
21.926	11.464
21.944	11.487
21.962	11.504
21.98	11.5113
21.998	11.5088
22.016	11.4961
22.034	11.4706
22.052	11.433
22.07	11.3831
22.088	11.3203
22.106	11.2449
22.124	11.159
22.142	11.0621
22.16	10.9556
22.178	10.8438
22.196	10.725
22.214	10.603
22.232	10.4827
22.25	10.3615
22.268	10.2453
22.286	10.137
22.304	10.035
22.322	9.944789
22.34	9.867320
22.358	9.802067
22.376	9.751629
22.394	9.716323
22.412	9.694962
22.43	9.687035
22.448	9.693507
22.466	9.711059
22.484	9.737684
22.502	9.774803
22.52	9.816929
22.538	9.862417
22.556	9.912099
22.574	9.959403
22.592	10.0041
22.61	10.0458
22.628	10.0789
22.646	10.1042
22.664	10.1209
22.682	10.1255
22.7	10.1188
22.718	10.1008
22.736	10.0708
22.754	10.0286
22.772	9.975926
22.79	9.913730
22.808	9.841010
22.826	9.761321
22.844	9.676569
22.862	9.585375
22.88	9.491886
22.898	9.397692
22.916	9.301642
22.934	9.207927
22.952	9.117800
22.97	9.030340
22.988	8.948466
23.006	8.872739
23.024	8.802684
23.042	8.740052
23.06	8.685116
23.078	8.637545
23.096	8.597966
23.114	8.566540
23.132	8.542984
23.15	8.527147
23.168	8.519051
23.186	8.518587
23.204	8.525505
23.222	8.539932
23.24	8.561627
23.258	8.590037
23.276	8.625362
23.294	8.667294
23.312	8.714980
23.33	8.768735
23.348	8.828140
23.366	8.891892
23.384	8.960414
23.402	9.033215
23.42	9.108392
23.438	9.186359
23.456	9.266715
23.474	9.346938
23.492	9.427149
23.51	9.507339
23.528	9.584669
23.546	9.658914
23.564	9.730492
23.582	9.796197
23.6	9.855106
23.618	9.908264
23.636	9.952793
23.654	9.987414
23.672	10.0134
23.69	10.0283
23.708	10.0303
23.726	10.0208
23.744	9.998259
23.762	9.961027
23.78	9.909999
23.798	9.844797
23.816	9.764715
23.834	9.669605
23.852	9.560344
23.87	9.437829
23.888	9.300994
23.906	9.151277
23.924	8.991480
23.942	8.820618
23.96	8.639390
23.978	8.452377
23.996	8.260497
24.014	8.062265
24.032	7.862789
24.05	7.664982
24.068	7.465924
24.086	7.270076
24.104	7.081489
24.122	6.896661
24.14	6.719718
24.158	6.556581
24.176	6.405026
24.194	6.266298
24.212	6.145590
24.23	6.044346
24.248	5.960639
24.266	5.895769
24.284	5.851009
24.302	5.826010
24.32	5.818770
24.338	5.827755
24.356	5.854990
24.374	5.897504
24.392	5.951083
24.41	6.017466
24.428	6.095617
24.446	6.180043
24.464	6.269249
24.482	6.365854
24.5	6.463737
24.518	6.557824
24.536	6.651735
24.554	6.742580
24.572	6.825783
24.59	6.902026
24.608	6.971711
24.626	7.032308
24.644	7.082108
24.662	7.122241
24.68	7.153527
24.698	7.176375
24.716	7.188906
24.734	7.194043
24.752	7.195907
24.77	7.193810
24.788	7.187211
24.806	7.181201
24.824	7.179098
24.842	7.177517
24.86	7.179895
24.878	7.190606
24.896	7.209097
24.914	7.234662
24.932	7.268904
24.95	7.313485
24.968	7.368130
24.986	7.430141
25.004	7.496975
25.022	7.571296
25.04	7.650875
25.058	7.730572
25.076	7.808761
25.094	7.888664
25.112	7.964767
25.13	8.031530
25.148	8.091753
25.166	8.144459
25.184	8.185392
25.202	8.212258
25.22	8.227396
25.238	8.229759
25.256	8.218034
25.274	8.190679
25.292	8.149926
25.31	8.099181
25.328	8.039335
25.346	7.966863
25.364	7.888542
25.382	7.811909
25.4	7.734661
25.418	7.656328
25.436	7.583665
25.454	7.521973
25.472	7.467498
25.49	7.421514
25.508	7.386690
25.526	7.364985
25.544	7.354929
25.562	7.354039
25.58	7.360299
25.598	7.378998
25.616	7.405067
25.634	7.428939
25.652	7.446496
25.67	7.467120
25.688	7.478026
25.706	7.464208
25.724	7.428752
25.742	7.376433
25.76	7.288806
25.778	7.149323
25.796	6.973604
25.814	6.752964
25.832	6.464955
25.85	6.095445
25.868	5.661934
25.886	5.151690
25.904	4.547529
25.922	3.844880
25.94	3.053640
25.958	2.166128
25.976	1.174357
25.994	0.073561
26.012	-1.128978
26.03	-2.423339
26.048	-3.802518
26.066	-5.284194
26.084	-6.850111
26.102	-8.471223
26.12	-10.1334
26.138	-11.8677
26.156	-13.638
26.174	-15.4003
26.192	-17.1483
26.21	-18.9151
26.228	-20.6472
26.246	-22.2885
26.264	-23.8463
26.282	-25.3426
26.3	-26.7286
26.318	-27.9566
26.336	-29.0422
26.354	-29.9942
26.372	-30.7868
26.39	-31.3955
26.408	-31.8263
26.426	-32.088
26.444	-32.182
26.462	-32.1068
26.48	-31.8442
26.498	-31.4193
26.516	-30.8668
26.534	-30.2083
26.552	-29.4041
26.57	-28.4901
26.588	-27.5163
26.606	-26.5109
26.624	-25.4266
26.642	-24.3023
26.66	-23.1888
26.678	-22.1123
26.696	-21.0297
26.714	-19.973
26.732	-18.9816
26.75	-18.0785
26.768	-17.2367
26.786	-16.4638
26.804	-15.7706
26.822	-15.1639
26.84	-14.6369
26.858	-14.1884
26.876	-13.8183
26.894	-13.5272
26.912	-13.3163
26.93	-13.1812
26.948	-13.1176
26.966	-13.1411
26.984	-13.2821
27.002	-13.4696
27.02	-13.6263
27.028	-13.6626