File: Bakgrunnsmateriale/MATLAB/FTIR/ftir_data/LPE453/Mapping_121/LPE453_t30.asc
PE IR       SPECTRUM    SPECTRUM    ASCII       PEDS        1.60
  -1
LPCF99~1.ASC
17/05/16
16:49:33.00
17/05/16
16:49:59.00
tln
$LPE453_t0030$<tbV0>[-5.2,-7.8,8.0,0.0,27,1,0]
27.028
64

2002,4.07
MIRTGS : RIGHTBACK : INTERNAL 2
MIR : ON : INTERNAL 2
OPTKBR

0.200000
8
8.000000
FILLER
RATIO
SPECTRUM
UNLOCKED 256

DOUBLE
64
COMBINED
1
0
0

0.002000
RATIO

1
0
TRUE
51149
0
LEFT NOT FITTED RIGHT NOT FITTED 0
NONE
NONE
15600
12
4.427000
51148
TRUE
1 0 8 72 0 0 0 0

15798

#HDR
-1
-1
#GR
µM
%T
2.38419e-05
0.0
2.000000
0.002000
12515
8
38.1804
-4.964221
#DATA
2.000000	 -0.191950
2.018000	 0.174847
2.036000	 0.139105
2.054000	 0.087472
2.072000	 0.313186
2.090000	 0.241258
2.108000	 -0.102276
2.126000	 0.191998
2.144000	 0.643627
2.162000	 0.319692
2.180000	 -0.126954
2.198000	 -0.221693
2.216000	 11.3678
2.234000	 -0.486620
2.252000	 -0.937245
2.270000	 0.878132
2.288000	 0.214241
2.306000	 0.004437
2.324000	 -0.029337
2.342000	 0.160752
2.360000	 0.245316
2.378000	 0.180259
2.396000	 0.485762
2.414000	 0.140145
2.432000	 -0.275572
2.450000	 -0.059816
2.468000	 0.128947
2.486000	 0.276917
2.504000	 0.062217
2.522000	 0.262479
2.540000	 0.170090
2.558000	 -0.014912
2.576000	 0.051660
2.594000	 -0.072214
2.612000	 0.204970
2.630000	 -0.120909
2.648000	 0.015878
2.666000	 -0.050633
2.684000	 0.120781
2.702000	 -0.035920
2.720000	 0.053174
2.738000	 -0.055923
2.756000	 -0.098025
2.774000	 0.067108
2.792000	 0.248361
2.810000	 -0.138894
2.828000	 0.100059
2.846000	 -0.019515
2.864000	 -0.034489
2.882000	 0.203671
2.900000	 -0.035155
2.918000	 0.033123
2.936000	 0.160138
2.954000	 0.180885
2.972000	 0.070545
2.990000	 -0.065733
3.008000	 -0.022261
3.026000	 0.005650
3.044000	 -0.014150
3.062000	 0.077822
3.080000	 -0.008058
3.098000	 0.047380
3.116000	 0.028102
3.134000	 0.096780
3.152000	 0.066291
3.170000	 -0.024561
3.188000	 0.165626
3.206000	 0.176918
3.224000	 0.013900
3.242000	 0.044400
3.260000	 0.033861
3.278000	 0.163416
3.296000	 -0.020596
3.314000	 0.103257
3.332000	 0.023834
3.350000	 0.083375
3.368000	 0.005648
3.386000	 0.031220
3.404000	 0.023491
3.422000	 -0.043105
3.440000	 -0.042028
3.458000	 0.113324
3.476000	 0.011157
3.494000	 0.031233
3.512000	 0.078703
3.530000	 -0.008624
3.548000	 0.063964
3.566000	 0.046588
3.584000	 0.086744
3.602000	 -0.009907
3.620000	 -0.019434
3.638000	 -0.013486
3.656000	 0.037906
3.674000	 0.041066
3.692000	 -0.022087
3.710000	 0.000524
3.728000	 0.006088
3.746000	 0.058097
3.764000	 0.070393
3.782000	 0.015274
3.800000	 -0.073733
3.818000	 0.009565
3.836000	 0.057946
3.854000	 0.053050
3.872000	 0.117122
3.890000	 0.030407
3.908000	 0.096024
3.926000	 -0.004597
3.944000	 0.017697
3.962000	 -0.097992
3.980000	 -0.007686
3.998000	 -0.067257
4.016000	 0.088010
4.034000	 -0.057239
4.052000	 -0.038731
4.070000	 -0.084804
4.088000	 0.059127
4.106000	 -0.165117
4.124000	 0.097636
4.141999	 -0.092315
4.160000	 -0.053254
4.178000	 0.173255
4.196000	 0.191373
4.214000	 0.070127
4.232000	 0.167074
4.250000	 0.144081
4.268000	 0.358914
4.286000	 0.374466
4.304000	 0.517621
4.322000	 0.647300
4.340000	 0.832507
4.358000	 0.992884
4.375999	 1.166179
4.394000	 1.454483
4.412000	 1.654678
4.430000	 2.012443
4.448000	 2.447439
4.466000	 2.912605
4.484000	 3.430407
4.502000	 4.111794
4.520000	 4.768987
4.538000	 5.511020
4.556000	 6.271096
4.574000	 7.038545
4.592000	 7.907528
4.609999	 8.920625
4.628000	 10.1356
4.646000	 11.0908
4.664000	 12.1725
4.682000	 13.3088
4.700000	 14.3916
4.718000	 15.4686
4.736000	 16.5676
4.754000	 17.6868
4.772000	 18.8043
4.790000	 19.8176
4.808000	 20.8079
4.826000	 21.8129
4.843999	 22.6883
4.862000	 23.8373
4.880000	 24.5528
4.898000	 25.4251
4.916000	 26.2217
4.934000	 26.9969
4.952000	 27.8387
4.970000	 28.4724
4.988000	 29.1042
5.006000	 29.5972
5.024000	 30.1284
5.042000	 30.6634
5.060000	 31.1435
5.077999	 31.6925
5.096000	 32.018
5.114000	 32.4467
5.132000	 32.847
5.150000	 33.2616
5.168000	 33.5814
5.186000	 33.7991
5.204000	 34.0922
5.222000	 34.458
5.240000	 34.7451
5.258000	 34.9364
5.276000	 35.1074
5.294000	 35.3387
5.312000	 35.4971
5.330000	 35.7202
5.348000	 35.8865
5.366000	 36.0081
5.384000	 36.1576
5.402000	 36.2918
5.420000	 36.3391
5.438000	 36.5255
5.456000	 36.7274
5.474000	 36.8316
5.492000	 36.8614
5.510000	 36.9219
5.528000	 37.0651
5.546000	 37.0413
5.564000	 37.0501
5.582000	 37.1729
5.600000	 37.3523
5.618000	 37.4364
5.636000	 37.4263
5.654000	 37.4244
5.672000	 37.4435
5.690000	 37.4753
5.708000	 37.5812
5.726000	 37.5824
5.744000	 37.5838
5.762000	 37.607
5.780000	 37.6277
5.798000	 37.7531
5.816000	 37.8083
5.834000	 37.8904
5.852000	 37.9114
5.870000	 37.856
5.888000	 37.8537
5.906000	 37.8435
5.923999	 37.8051
5.942000	 37.8469
5.960000	 37.928
5.978000	 37.8943
5.996000	 37.8625
6.014000	 37.8837
6.032000	 37.8987
6.050000	 37.9696
6.068000	 38.0135
6.086000	 38.0182
6.104000	 38.0627
6.122000	 38.0732
6.140000	 38.0202
6.158000	 37.9795
6.176000	 37.9325
6.194000	 37.9826
6.212000	 37.9559
6.230000	 37.9098
6.248000	 37.9815
6.266000	 38.0166
6.284000	 38.0673
6.302000	 38.0754
6.320000	 38.0282
6.338000	 38.0363
6.356000	 38.0328
6.374000	 38.0567
6.392000	 38.0156
6.410000	 37.8528
6.428000	 37.7144
6.446000	 37.6722
6.464000	 37.7737
6.482000	 37.9752
6.500000	 38.1046
6.518000	 38.0757
6.536000	 38.0194
6.554000	 38.0113
6.572000	 38.0257
6.590000	 38.057
6.608000	 38.0827
6.626000	 38.07
6.644000	 38.0307
6.662000	 37.9811
6.680000	 37.9012
6.698000	 37.8422
6.716000	 37.8492
6.734000	 37.8627
6.752000	 37.8356
6.770000	 37.8283
6.788000	 37.907
6.806000	 38.0494
6.824000	 38.1627
6.842000	 38.1733
6.860000	 38.1266
6.878000	 38.0849
6.896000	 38.0536
6.914000	 37.9727
6.932000	 37.8329
6.950000	 37.7491
6.968000	 37.7886
6.986000	 37.8811
7.004000	 37.9126
7.022000	 37.849
7.040000	 37.7956
7.058000	 37.8656
7.076000	 37.9979
7.094000	 38.0914
7.112000	 38.1205
7.130000	 38.0361
7.148000	 37.8817
7.166000	 37.8083
7.184000	 37.8363
7.202000	 37.8744
7.220000	 37.8724
7.238000	 37.8272
7.256000	 37.7659
7.274000	 37.7477
7.292000	 37.7597
7.310000	 37.6929
7.328000	 37.5595
7.346000	 37.5248
7.364000	 37.6171
7.382000	 37.6963
7.400000	 37.725
7.418000	 37.7862
7.436000	 37.885
7.454000	 37.9434
7.472000	 37.9243
7.490000	 37.8632
7.508000	 37.8092
7.526000	 37.7762
7.544000	 37.7565
7.562000	 37.7454
7.580000	 37.7336
7.598000	 37.7185
7.616000	 37.7045
7.634000	 37.6711
7.652000	 37.6109
7.670000	 37.5731
7.688000	 37.5964
7.706000	 37.6432
7.724000	 37.6564
7.742000	 37.6312
7.760000	 37.6063
7.778000	 37.6106
7.796000	 37.6388
7.814000	 37.674
7.832000	 37.7102
7.850000	 37.7451
7.868000	 37.7696
7.886000	 37.7735
7.904000	 37.7509
7.922000	 37.6957
7.940000	 37.6069
7.958000	 37.5074
7.976000	 37.434
7.994000	 37.3965
8.012000	 37.3683
8.030000	 37.3348
8.048000	 37.3185
8.065999	 37.3344
8.084000	 37.3598
8.102000	 37.3736
8.120000	 37.3979
8.138000	 37.4671
8.155999	 37.5767
8.173999	 37.6868
8.192000	 37.7626
8.210000	 37.7926
8.228000	 37.7869
8.246000	 37.7669
8.263999	 37.7484
8.282000	 37.7278
8.300000	 37.6954
8.318000	 37.652
8.336000	 37.6017
8.353999	 37.5498
8.372000	 37.5064
8.390000	 37.465
8.408000	 37.3988
8.426000	 37.295
8.443999	 37.1818
8.462000	 37.1052
8.480000	 37.0867
8.498000	 37.1175
8.516000	 37.1783
8.533999	 37.2509
8.552000	 37.3207
8.570000	 37.3758
8.588000	 37.4087
8.606000	 37.4209
8.624000	 37.4211
8.641999	 37.4178
8.660000	 37.4174
8.678000	 37.4263
8.696000	 37.452
8.714000	 37.4977
8.731999	 37.5561
8.750000	 37.6061
8.768000	 37.6185
8.786000	 37.573
8.804000	 37.4755
8.821999	 37.3547
8.840000	 37.2348
8.858000	 37.1213
8.876000	 37.0172
8.894000	 36.9399
8.911999	 36.9097
8.930000	 36.9244
8.948000	 36.9537
8.966000	 36.9594
8.984000	 36.9279
9.001999	 36.8827
9.020000	 36.8678
9.038000	 36.9133
9.056000	 37.0155
9.074000	 37.1395
9.092000	 37.2466
9.109999	 37.3199
9.128000	 37.3696
9.146000	 37.4146
9.164000	 37.4595
9.182000	 37.4889
9.199999	 37.4854
9.218000	 37.4469
9.236000	 37.3796
9.254000	 37.2839
9.272000	 37.159
9.289999	 37.0202
9.308000	 36.8974
9.326000	 36.8091
9.344000	 36.7468
9.362000	 36.6904
9.379999	 36.6356
9.398000	 36.595
9.416000	 36.5732
9.434000	 36.5553
9.452000	 36.5257
9.469999	 36.4898
9.488000	 36.4687
9.506000	 36.4747
9.524000	 36.4996
9.542000	 36.5285
9.560000	 36.5594
9.577999	 36.6043
9.596000	 36.6708
9.614000	 36.7527
9.632000	 36.8354
9.650000	 36.9055
9.667999	 36.9555
9.686000	 36.9847
9.704000	 36.9994
9.722000	 37.0095
9.740000	 37.0203
9.757999	 37.0281
9.776000	 37.0223
9.794000	 36.994
9.812000	 36.9435
9.830000	 36.8754
9.847999	 36.7908
9.866000	 36.687
9.884000	 36.5653
9.902000	 36.4383
9.920000	 36.3278
9.937999	 36.2517
9.956000	 36.2131
9.974000	 36.2006
9.992000	 36.1964
10.01	36.1856
10.028	36.1604
10.046	36.1226
10.064	36.0856
10.082	36.0711
10.1	36.0976
10.118	36.1653
10.136	36.2507
10.154	36.3202
10.172	36.3523
10.19	36.3544
10.208	36.3572
10.226	36.3893
10.244	36.4575
10.262	36.5418
10.28	36.6128
10.298	36.6505
10.316	36.6521
10.334	36.6292
10.352	36.5959
10.37	36.5604
10.388	36.524
10.406	36.4862
10.424	36.4491
10.442	36.4172
10.46	36.3946
10.478	36.381
10.496	36.37
10.514	36.3532
10.532	36.324
10.55	36.2821
10.568	36.2325
10.586	36.1813
10.604	36.1295
10.622	36.0733
10.64	36.0072
10.658	35.93
10.676	35.8469
10.694	35.767
10.712	35.6997
10.73	35.6492
10.748	35.6151
10.766	35.5954
10.784	35.5888
10.802	35.5955
10.82	35.6154
10.838	35.6453
10.856	35.681
10.874	35.7192
10.892	35.7594
10.91	35.8047
10.928	35.8586
10.946	35.9236
10.964	35.9992
10.982	36.0806
11	36.16
11.018	36.2272
11.036	36.273
11.054	36.2908
11.072	36.2795
11.09	36.2442
11.108	36.194
11.126	36.139
11.144	36.0843
11.162	36.0298
11.18	35.9713
11.198	35.9052
11.216	35.8318
11.234	35.7562
11.252	35.6866
11.27	35.6305
11.288	35.5918
11.306	35.569
11.324	35.5547
11.342	35.5384
11.36	35.5099
11.378	35.4617
11.396	35.3919
11.414	35.3056
11.432	35.2142
11.45	35.1315
11.468	35.0706
11.486	35.0376
11.504	35.0312
11.522	35.0436
11.54	35.0658
11.558	35.0903
11.576	35.1129
11.594	35.1327
11.612	35.1501
11.63	35.1668
11.648	35.1846
11.666	35.2061
11.684	35.235
11.702	35.2741
11.72	35.3237
11.738	35.3805
11.756	35.4382
11.774	35.4883
11.792	35.5242
11.81	35.5439
11.828	35.5497
11.846	35.547
11.864	35.5413
11.882	35.5358
11.9	35.5312
11.918	35.5261
11.936	35.5186
11.954	35.5087
11.972	35.4969
11.99	35.4833
12.008	35.4661
12.026	35.4408
12.044	35.4008
12.062	35.3401
12.08	35.2563
12.098	35.1526
12.116	35.0375
12.134	34.9224
12.152	34.8189
12.17	34.7349
12.188	34.6733
12.206	34.6315
12.224	34.6026
12.242	34.5775
12.26	34.5473
12.278	34.505
12.296	34.4464
12.314	34.3714
12.332	34.2841
12.35	34.1912
12.368	34.1022
12.386	34.0272
12.404	33.9742
12.422	33.9477
12.44	33.9473
12.458	33.9695
12.476	34.0075
12.494	34.0548
12.512	34.1057
12.53	34.1572
12.548	34.2081
12.566	34.2586
12.584	34.3094
12.602	34.3608
12.62	34.4122
12.638	34.4626
12.656	34.5101
12.674	34.5527
12.692	34.5883
12.71	34.6158
12.728	34.635
12.746	34.646
12.764	34.6499
12.782	34.6485
12.8	34.6446
12.818	34.6418
12.836	34.6442
12.854	34.6555
12.872	34.6783
12.89	34.7126
12.908	34.7551
12.926	34.7996
12.944	34.8379
12.962	34.8621
12.98	34.8663
12.998	34.8479
13.016	34.8079
13.034	34.7492
13.052	34.6761
13.07	34.5914
13.088	34.4961
13.106	34.389
13.124	34.2679
13.142	34.1315
13.16	33.9814
13.178	33.8229
13.196	33.6654
13.214	33.5208
13.232	33.4007
13.25	33.3142
13.268	33.2649
13.286	33.2507
13.304	33.2638
13.322	33.2925
13.34	33.3239
13.358	33.3462
13.376	33.3512
13.394	33.3354
13.412	33.3007
13.43	33.2538
13.448	33.2042
13.466	33.162
13.484	33.136
13.502	33.1312
13.52	33.1486
13.538	33.1851
13.556	33.2351
13.574	33.2921
13.592	33.3503
13.61	33.4058
13.628	33.4571
13.646	33.504
13.664	33.5473
13.682	33.5871
13.7	33.6227
13.718	33.6519
13.736	33.672
13.754	33.6805
13.772	33.6768
13.79	33.6628
13.808	33.6432
13.826	33.6251
13.844	33.6158
13.862	33.6218
13.88	33.6465
13.898	33.6898
13.916	33.7479
13.934	33.8148
13.952	33.8835
13.97	33.9471
13.988	34.0004
14.006	34.0405
14.024	34.0668
14.042	34.08
14.06	34.0816
14.078	34.0723
14.096	34.052
14.114	34.0194
14.132	33.9725
14.15	33.9097
14.168	33.8301
14.186	33.7341
14.204	33.624
14.222	33.5033
14.24	33.377
14.258	33.2506
14.276	33.1288
14.294	33.0154
14.312	32.9134
14.33	32.8247
14.348	32.7505
14.366	32.6909
14.384	32.6456
14.402	32.6132
14.42	32.5916
14.438	32.5781
14.456	32.5694
14.474	32.5616
14.492	32.5509
14.51	32.5342
14.528	32.5094
14.546	32.4761
14.564	32.4355
14.582	32.3899
14.6	32.343
14.618	32.2986
14.636	32.2602
14.654	32.2297
14.672	32.2072
14.69	32.1911
14.708	32.1786
14.726	32.1655
14.744	32.1474
14.762	32.1212
14.78	32.0854
14.798	32.0402
14.816	31.9875
14.834	31.9313
14.852	31.8771
14.87	31.8307
14.888	31.797
14.906	31.7799
14.924	31.7824
14.942	31.805
14.96	31.8461
14.978	31.9024
14.996	31.9695
15.014	32.0429
15.032	32.117
15.05	32.1881
15.068	32.2537
15.086	32.3126
15.104	32.3652
15.122	32.4132
15.14	32.4593
15.158	32.5062
15.176	32.556
15.194	32.6106
15.212	32.6696
15.23	32.7316
15.248	32.7936
15.266	32.8521
15.284	32.9024
15.302	32.9399
15.32	32.9617
15.338	32.9659
15.356	32.9517
15.374	32.9212
15.392	32.8777
15.41	32.825
15.428	32.7681
15.446	32.7124
15.464	32.6614
15.482	32.6177
15.5	32.5827
15.518	32.556
15.536	32.5357
15.554	32.5196
15.572	32.5047
15.59	32.4875
15.608	32.4665
15.626	32.4403
15.644	32.4086
15.662	32.3728
15.68	32.3346
15.698	32.2958
15.716	32.2587
15.734	32.2249
15.752	32.1947
15.77	32.1682
15.788	32.1438
15.806	32.1197
15.824	32.0939
15.842	32.0638
15.86	32.027
15.878	31.9823
15.896	31.929
15.914	31.8675
15.932	31.7993
15.95	31.7262
15.968	31.6507
15.986	31.5762
16.004	31.5048
16.022	31.439
16.04	31.3809
16.058	31.3311
16.076	31.2898
16.094	31.2567
16.112	31.2305
16.13	31.2098
16.148	31.1929
16.166	31.1776
16.184	31.1626
16.202	31.146
16.22	31.1269
16.238	31.105
16.256	31.0801
16.274	31.0534
16.292	31.0263
16.31	30.9999
16.328	30.9771
16.346	30.9597
16.364	30.9493
16.382	30.9478
16.4	30.9556
16.418	30.9726
16.436	30.9976
16.454	31.0285
16.472	31.0632
16.49	31.0979
16.508	31.1298
16.526	31.1565
16.544	31.1749
16.562	31.1842
16.58	31.1838
16.598	31.1744
16.616	31.1581
16.634	31.1364
16.652	31.1135
16.67	31.0919
16.688	31.0743
16.706	31.0641
16.724	31.062
16.742	31.0693
16.76	31.0853
16.778	31.1091
16.796	31.1386
16.814	31.1708
16.832	31.2038
16.85	31.234
16.868	31.2597
16.886	31.2793
16.904	31.2916
16.922	31.2971
16.94	31.2959
16.958	31.2901
16.976	31.2808
16.994	31.2705
17.012	31.2608
17.03	31.253
17.048	31.2484
17.066	31.2468
17.084	31.2483
17.102	31.2512
17.12	31.2547
17.138	31.2562
17.156	31.2542
17.174	31.2472
17.192	31.233
17.21	31.2113
17.228	31.1812
17.246	31.1436
17.264	31.0984
17.282	31.0478
17.3	30.9925
17.318	30.9349
17.336	30.8766
17.354	30.8189
17.372	30.7638
17.39	30.7116
17.408	30.6631
17.426	30.6184
17.444	30.5775
17.462	30.5396
17.48	30.5043
17.498	30.4704
17.516	30.4372
17.534	30.4038
17.552	30.3693
17.57	30.3334
17.588	30.2956
17.606	30.2557
17.624	30.2135
17.642	30.1692
17.66	30.123
17.678	30.0752
17.696	30.0262
17.714	29.9766
17.732	29.9273
17.75	29.8787
17.768	29.832
17.786	29.7876
17.804	29.7468
17.822	29.7096
17.84	29.677
17.858	29.6489
17.876	29.6257
17.894	29.6068
17.912	29.5923
17.93	29.5807
17.948	29.5717
17.966	29.5634
17.984	29.5555
18.002	29.5461
18.02	29.5347
18.038	29.5205
18.056	29.5033
18.074	29.4829
18.092	29.4602
18.11	29.4355
18.128	29.4109
18.146	29.3872
18.164	29.3668
18.182	29.3511
18.2	29.3421
18.218	29.3413
18.236	29.3498
18.254	29.3684
18.272	29.3974
18.29	29.4363
18.308	29.4848
18.326	29.5409
18.344	29.604
18.362	29.6713
18.38	29.7418
18.398	29.8128
18.416	29.8829
18.434	29.9503
18.452	30.0136
18.47	30.0715
18.488	30.1228
18.506	30.167
18.524	30.2032
18.542	30.2312
18.56	30.2506
18.578	30.2614
18.596	30.2637
18.614	30.2574
18.632	30.243
18.65	30.2204
18.668	30.1901
18.686	30.1524
18.704	30.1084
18.722	30.0584
18.74	30.0036
18.758	29.9446
18.776	29.8829
18.794	29.8192
18.812	29.7551
18.83	29.6913
18.848	29.6295
18.866	29.5704
18.884	29.5157
18.902	29.4657
18.92	29.422
18.938	29.3847
18.956	29.355
18.974	29.3327
18.992	29.3183
19.01	29.3116
19.028	29.3127
19.046	29.3211
19.064	29.3366
19.082	29.3584
19.1	29.3857
19.118	29.4176
19.136	29.4526
19.154	29.4897
19.172	29.5267
19.19	29.5627
19.208	29.595
19.226	29.6231
19.244	29.6435
19.262	29.6563
19.28	29.6585
19.298	29.6504
19.316	29.6305
19.334	29.5989
19.352	29.5565
19.37	29.5031
19.388	29.4417
19.406	29.372
19.424	29.2987
19.442	29.2215
19.46	29.1457
19.478	29.0715
19.496	29.0033
19.514	28.942
19.532	28.8901
19.55	28.8492
19.568	28.8196
19.586	28.8026
19.604	28.7973
19.622	28.8034
19.64	28.8202
19.658	28.8448
19.676	28.8772
19.694	28.9131
19.712	28.9529
19.73	28.9916
19.748	29.0293
19.766	29.0624
19.784	29.0901
19.802	29.1105
19.82	29.1221
19.838	29.1247
19.856	29.117
19.874	29.0995
19.892	29.0718
19.91	29.0342
19.928	28.9877
19.946	28.932
19.964	28.8691
19.982	28.7989
20	28.7233
20.018	28.643
20.036	28.5589
20.054	28.4732
20.072	28.3858
20.09	28.299
20.108	28.2126
20.126	28.1291
20.144	28.0485
20.162	27.9722
20.18	27.9012
20.198	27.8355
20.216	27.7761
20.234	27.7228
20.252	27.6757
20.27	27.635
20.288	27.5992
20.306	27.5687
20.324	27.5421
20.342	27.5188
20.36	27.4983
20.378	27.4786
20.396	27.4601
20.414	27.4415
20.432	27.4226
20.45	27.4032
20.468	27.3829
20.486	27.3623
20.504	27.3419
20.522	27.3219
20.54	27.3042
20.558	27.2885
20.576	27.2769
20.594	27.2703
20.612	27.2689
20.63	27.2748
20.648	27.2874
20.666	27.3074
20.684	27.3352
20.702	27.3695
20.72	27.4102
20.738	27.4565
20.756	27.5055
20.774	27.558
20.792	27.6094
20.81	27.6595
20.828	27.7061
20.846	27.7456
20.864	27.7788
20.882	27.8022
20.9	27.8156
20.918	27.8185
20.936	27.8097
20.954	27.7901
20.972	27.7608
20.99	27.7211
21.008	27.6745
21.026	27.6216
21.044	27.5637
21.062	27.5054
21.08	27.4453
21.098	27.3886
21.116	27.336
21.134	27.2885
21.152	27.2498
21.17	27.2189
21.188	27.1977
21.206	27.1869
21.224	27.1857
21.242	27.194
21.26	27.212
21.278	27.2373
21.296	27.27
21.314	27.3089
21.332	27.351
21.35	27.3974
21.368	27.4446
21.386	27.492
21.404	27.5392
21.422	27.5834
21.44	27.6254
21.458	27.664
21.476	27.6983
21.494	27.7289
21.512	27.7558
21.53	27.7785
21.548	27.7982
21.566	27.8154
21.584	27.8298
21.602	27.8431
21.62	27.855
21.638	27.8662
21.656	27.8778
21.674	27.8895
21.692	27.9013
21.71	27.9137
21.728	27.9261
21.746	27.9378
21.764	27.9493
21.782	27.9587
21.8	27.9648
21.818	27.968
21.836	27.9657
21.854	27.958
21.872	27.9442
21.89	27.9214
21.908	27.8907
21.926	27.8506
21.944	27.7999
21.962	27.7392
21.98	27.6681
21.998	27.5861
22.016	27.494
22.034	27.3927
22.052	27.2814
22.07	27.1628
22.088	27.0383
22.106	26.9071
22.124	26.7737
22.142	26.6382
22.16	26.5015
22.178	26.3689
22.196	26.2388
22.214	26.1142
22.232	25.9991
22.25	25.8914
22.268	25.795
22.286	25.7122
22.304	25.6416
22.322	25.5862
22.34	25.5465
22.358	25.5221
22.376	25.5142
22.394	25.5231
22.412	25.5478
22.43	25.5879
22.448	25.6441
22.466	25.714
22.484	25.7961
22.502	25.8914
22.52	25.9958
22.538	26.1079
22.556	26.2283
22.574	26.3517
22.592	26.478
22.61	26.6066
22.628	26.7321
22.646	26.8557
22.664	26.9755
22.682	27.0868
22.7	27.1911
22.718	27.2864
22.736	27.3694
22.754	27.4418
22.772	27.5016
22.79	27.5467
22.808	27.5781
22.826	27.5954
22.844	27.5979
22.862	27.5858
22.88	27.5612
22.898	27.5244
22.916	27.4751
22.934	27.4173
22.952	27.3519
22.97	27.2783
22.988	27.2016
23.006	27.1219
23.024	27.0393
23.042	26.9587
23.06	26.8799
23.078	26.8032
23.096	26.7337
23.114	26.6713
23.132	26.6159
23.15	26.5706
23.168	26.5354
23.186	26.51
23.204	26.4953
23.222	26.4922
23.24	26.4994
23.258	26.5152
23.276	26.5408
23.294	26.5747
23.312	26.613
23.33	26.6571
23.348	26.7055
23.366	26.7534
23.384	26.8013
23.402	26.8487
23.42	26.891
23.438	26.9283
23.456	26.9608
23.474	26.985
23.492	27.0005
23.51	27.008
23.528	27.0055
23.546	26.9921
23.564	26.9686
23.582	26.9362
23.6	26.8944
23.618	26.8433
23.636	26.7859
23.654	26.7232
23.672	26.6536
23.69	26.5824
23.708	26.5128
23.726	26.4416
23.744	26.3747
23.762	26.3171
23.78	26.2651
23.798	26.2231
23.816	26.1963
23.834	26.1824
23.852	26.1829
23.87	26.201
23.888	26.2357
23.906	26.2873
23.924	26.3577
23.942	26.4476
23.96	26.5561
23.978	26.6823
23.996	26.8273
24.014	26.9907
24.032	27.1686
24.05	27.3593
24.068	27.5658
24.086	27.781
24.104	27.999
24.122	28.2251
24.14	28.4527
24.158	28.6728
24.176	28.89
24.194	29.1006
24.212	29.2937
24.23	29.4686
24.248	29.6279
24.266	29.7615
24.284	29.8643
24.302	29.9417
24.32	29.9867
24.338	29.9925
24.356	29.9633
24.374	29.8964
24.392	29.7862
24.41	29.6327
24.428	29.4373
24.446	29.1991
24.464	28.9162
24.482	28.5892
24.5	28.2228
24.518	27.8196
24.536	27.3751
24.554	26.8967
24.572	26.3942
24.59	25.8631
24.608	25.306
24.626	24.7354
24.644	24.1553
24.662	23.5586
24.68	22.96
24.698	22.3726
24.716	21.7864
24.734	21.2097
24.752	20.6578
24.77	20.1296
24.788	19.6219
24.806	19.1494
24.824	18.7215
24.842	18.3284
24.86	17.9795
24.878	17.6869
24.896	17.4477
24.914	17.2609
24.932	17.1337
24.95	17.0706
24.968	17.068
24.986	17.1255
25.004	17.2431
25.022	17.4239
25.04	17.6636
25.058	17.9551
25.076	18.2967
25.094	18.6932
25.112	19.1335
25.13	19.6073
25.148	20.1248
25.166	20.6777
25.184	21.247
25.202	21.8267
25.22	22.4294
25.238	23.0337
25.256	23.6178
25.274	24.1959
25.292	24.7611
25.31	25.2873
25.328	25.7612
25.346	26.2017
25.364	26.588
25.382	26.8956
25.4	27.1307
25.418	27.2964
25.436	27.3742
25.454	27.3499
25.472	27.2344
25.49	27.0239
25.508	26.7106
25.526	26.2909
25.544	25.7692
25.562	25.1479
25.58	24.4286
25.598	23.6045
25.616	22.6835
25.634	21.6795
25.652	20.5983
25.67	19.4265
25.688	18.1841
25.706	16.8945
25.724	15.5522
25.742	14.1506
25.76	12.7213
25.778	11.2929
25.796	9.840108
25.814	8.377011
25.832	6.940448
25.85	5.552302
25.868	4.181350
25.886	2.855974
25.904	1.612809
25.922	0.456851
25.94	-0.632742
25.958	-1.624832
25.976	-2.487957
25.994	-3.232802
26.012	-3.863782
26.03	-4.360293
26.048	-4.704033
26.066	-4.904579
26.084	-4.963665
26.102	-4.876953
26.12	-4.639263
26.138	-4.249178
26.156	-3.717889
26.174	-3.057471
26.192	-2.265476
26.21	-1.331489
26.228	-0.284585
26.246	0.845065
26.264	2.066470
26.282	3.389121
26.3	4.773861
26.318	6.182485
26.336	7.633887
26.354	9.129209
26.372	10.6346
26.39	12.1193
26.408	13.6093
26.426	15.0952
26.444	16.5448
26.462	17.9316
26.48	19.2791
26.498	20.5788
26.516	21.8099
26.534	22.958
26.552	24.0433
26.57	25.0527
26.588	25.9662
26.606	26.7729
26.624	27.493
26.642	28.1104
26.66	28.6042
26.678	28.9645
26.696	29.2108
26.714	29.3279
26.732	29.2968
26.75	29.1106
26.768	28.7879
26.786	28.3115
26.804	27.6616
26.822	26.8261
26.84	25.8184
26.858	24.639
26.876	23.287
26.894	21.7568
26.912	20.0437
26.93	18.1669
26.948	16.1469
26.966	13.863
26.984	11.1057
27.002	8.377664
27.02	6.226427
27.028	5.660724