File: Bakgrunnsmateriale/MATLAB/FTIR/ftir_data/LPE453/Mapping_121/LPE453_t22_cm-1.asc
PE IR       SPECTRUM    SPECTRUM    ASCII       PEDS        1.60
  -1
LP5850~1.ASC
17/05/16
16:05:31.00
17/05/16
16:05:31.00
tln
$LPE453_t0022$<tbV0>[-13.0,-10.4,8.0,0.0,27,1,0]
370
64

2002,4.07
MIRTGS : RIGHTBACK : INTERNAL 2
MIR : ON : INTERNAL 2
OPTKBR

0.200000
8
8.000000
FILLER
RATIO
SPECTRUM
UNLOCKED 256

DOUBLE
64
COMBINED
1
0
0

1.000000
RATIO

1
0
TRUE
51149
0
LEFT NOT FITTED RIGHT NOT FITTED 0
NONE
NONE
15600
12
4.427000
51148
TRUE
1 0 8 72 0 0 0 0

15798

#HDR
-1
-1
#GR
CM-1
%T
2.38419e-05
0.0
5000
-1.000000
4631
8
35.6955
-3.275203
#DATA
5000	0.190281
4996	-0.007581
4992	-0.135850
4988	0.059199
4984	0.209140
4980	0.392103
4976	0.598716
4972	0.436210
4968	0.224232
4964	0.246715
4960	0.346112
4956	0.411701
4952	0.503349
4948	0.650835
4944	0.397586
4940	-0.025844
4936	0.095343
4932	0.408625
4928	0.562644
4924	0.784754
4920	0.850987
4916	0.371646
4912	-0.176477
4908	-0.233983
4904	-0.077247
4900	0.005984
4896	0.205469
4892	0.323581
4888	0.195312
4884	0.233817
4880	0.285959
4876	-0.114750
4872	-0.495100
4868	-0.346970
4864	-0.043106
4860	0.237703
4856	0.473690
4852	0.537681
4848	0.521397
4844	0.376987
4840	0.189352
4836	0.222682
4832	0.194048
4828	-0.077509
4824	-0.234079
4820	-0.025010
4816	0.296473
4812	0.342464
4808	0.122404
4804	-0.133943
4800	-0.205874
4796	-0.065422
4792	0.235891
4788	0.511050
4784	0.483131
4780	0.283336
4776	0.296497
4772	0.339984
4768	0.198626
4764	0.237369
4760	0.417995
4756	0.453162
4752	0.407242
4748	0.428128
4744	0.311422
4740	-0.009751
4736	-0.180768
4732	-0.179934
4728	-0.139379
4724	-0.008440
4720	-0.031590
4716	-0.090646
4712	0.122404
4708	0.365853
4704	0.405001
4700	0.292992
4696	0.154304
4692	0.164556
4688	0.294542
4684	0.405240
4680	0.458550
4676	0.464296
4672	0.544142
4668	0.829958
4664	1.003289
4660	0.737524
4656	0.370764
4652	0.189971
4648	0.263762
4644	0.582122
4640	0.733876
4636	0.582265
4632	0.502705
4628	0.575518
4624	0.686764
4620	1.072359
4616	1.726651
4612	1.848316
4608	1.209592
4604	0.728273
4600	0.891971
4596	1.112079
4592	1.047658
4588	0.646972
4584	-0.051808
4580	0.172448
4576	1.209306
4572	0.996923
4568	-0.341057
4564	-1.310825
4560	-1.437449
4556	-0.973796
4552	-0.694775
4548	-0.983095
4544	-1.814723
4540	-2.980184
4536	-3.215265
4532	-2.541470
4528	-2.170848
4524	-2.995729
4520	-0.441551
4516	8.320116
4512	14.0502
4508	12.3688
4504	7.456851
4500	3.191447
4496	0.968241
4492	-0.275874
4488	-0.662755
4484	0.173354
4480	0.121355
4476	-0.478243
4472	-0.362324
4468	0.073480
4464	0.499796
4460	0.894999
4456	0.838565
4452	0.576138
4448	0.467538
4444	0.645828
4440	0.793671
4436	0.634503
4432	0.534391
4428	0.791740
4424	1.013207
4420	1.060557
4416	0.971555
4412	0.859451
4408	0.859427
4404	0.834465
4400	0.832796
4396	0.864577
4392	0.704860
4388	0.558519
4384	0.591015
4380	0.615501
4376	0.644230
4372	0.586295
4368	0.479221
4364	0.483298
4360	0.417971
4356	0.253701
4352	0.155115
4348	0.242447
4344	0.426054
4340	0.369429
4336	0.146985
4332	0.141286
4328	0.233197
4324	0.316286
4320	0.384664
4316	0.258374
4312	0.194454
4308	0.216817
4304	0.325489
4300	0.496673
4296	0.419878
4292	0.222563
4288	0.068378
4284	0.092434
4280	0.243592
4276	0.266122
4272	0.192785
4268	0.155138
4264	-0.016379
4260	-0.260472
4256	-0.107860
4252	0.143694
4248	0.071740
4244	0.028204
4240	0.157070
4236	0.225329
4232	0.093317
4228	-0.041747
4224	0.060844
4220	0.202822
4216	0.237774
4212	0.215530
4208	0.245118
4204	0.376343
4200	0.522947
4196	0.786161
4192	0.986218
4188	0.794219
4184	0.586009
4180	0.634336
4176	0.612545
4172	0.439548
4168	0.287151
4164	0.196480
4160	0.153088
4156	0.237917
4152	0.346422
4148	0.309801
4144	0.319862
4140	0.350618
4136	0.315761
4132	0.324416
4128	0.299596
4124	0.254082
4120	0.227165
4116	0.134706
4112	-0.005507
4108	-0.079107
4104	-0.041460
4100	0.023937
4096	-0.020146
4092	-0.191473
4088	-0.249075
4084	-0.111603
4080	-0.033974
4076	-0.023579
4072	0.037741
4068	0.025701
4064	-0.042915
4060	-0.080633
4056	-0.138640
4052	-0.104331
4048	0.061798
4044	0.226187
4040	0.209355
4036	0.073671
4032	0.030851
4028	0.128221
4024	0.245118
4020	0.161051
4016	0.029301
4012	0.126791
4008	0.295805
4004	0.272130
4000	0.130414
3996	0.057387
3992	0.059461
3988	0.057554
3984	0.072669
3980	0.201582
3976	0.274515
3972	0.213360
3968	0.160264
3964	0.188159
3960	0.211501
3956	0.166749
3952	0.192046
3948	0.220108
3944	0.152730
3940	0.153303
3936	0.142788
3932	0.037193
3928	0.037741
3924	0.058388
3920	0.078630
3916	0.163173
3912	0.180625
3908	0.163459
3904	0.106501
3900	-0.003933
3896	-0.007057
3892	0.110960
3888	0.152492
3884	0.120925
3880	0.163435
3876	0.194334
3872	0.190925
3868	0.189590
3864	0.163960
3860	0.156974
3856	0.153827
3852	0.108575
3848	0.022530
3844	-0.021123
3840	0.045418
3836	0.134110
3832	0.105309
3828	0.050997
3824	0.026392
3820	-0.026535
3816	-0.047230
3812	0.008773
3808	0.053906
3804	0.023055
3800	-0.010395
3796	-0.056028
3792	-0.127887
3788	-0.149226
3784	-0.095248
3780	-0.036549
3776	0.007605
3772	0.081825
3768	0.153875
3764	0.147390
3760	0.103521
3756	0.065183
3752	0.063395
3748	0.123810
3744	0.226807
3740	0.168991
3736	-0.033259
3732	-0.084686
3728	0.058221
3724	0.197386
3720	0.236344
3716	0.229167
3712	0.208187
3708	0.175762
3704	0.174927
3700	0.186109
3696	0.191450
3692	0.161862
3688	0.081229
3684	0.038194
3680	-0.045204
3676	-0.131845
3672	-0.058078
3668	0.079822
3664	0.116872
3660	0.043749
3656	-0.003719
3652	-0.002264
3648	0.034737
3644	0.104546
3640	0.106501
3636	0.047540
3632	0.023150
3628	0.027561
3624	0.045585
3620	0.120019
3616	0.240421
3612	0.276184
3608	0.183129
3604	0.014448
3600	-0.127983
3596	-0.098156
3592	0.008893
3588	0.042819
3584	0.030326
3580	0.043940
3576	0.014686
3572	-0.080299
3568	-0.093030
3564	-0.030136
3560	0.048160
3556	0.101041
3552	0.087833
3548	0.069689
3544	0.063753
3540	0.067353
3536	0.057077
3532	0.000047
3528	-0.047898
3524	0.017380
3520	0.074076
3516	0.014877
3512	-0.010204
3508	0.055980
3504	0.132155
3500	0.171494
3496	0.176715
3492	0.130367
3488	0.088429
3484	0.075387
3480	0.065612
3476	0.138449
3472	0.147891
3468	-0.073146
3464	-0.195527
3460	-0.017929
3456	0.168633
3452	0.208139
3448	0.157999
3444	0.071835
3440	0.022625
3436	-0.003910
3432	0.047898
3428	0.162315
3424	0.141859
3420	0.089073
3416	0.140023
3412	0.140571
3408	0.075960
3404	0.035953
3400	0.033736
3396	0.039315
3392	0.004291
3388	-0.072550
3384	-0.105762
3380	-0.007653
3376	0.099301
3372	0.084495
3368	-0.055193
3364	-0.139141
3360	-0.045394
3356	0.049281
3352	0.096106
3348	0.115871
3344	0.120401
3340	0.100231
3336	0.015091
3332	0.034642
3328	0.122499
3324	0.098967
3320	0.056290
3316	0.065279
3312	0.095534
3308	0.053095
3304	-0.039052
3300	-0.024986
3296	0.081634
3292	0.164127
3288	0.149130
3284	0.047945
3280	0.040626
3276	0.118255
3272	0.147175
3268	0.206470
3264	0.210881
3260	0.079250
3256	0.022697
3252	0.106000
3248	0.193762
3244	0.183343
3240	0.083160
3236	0.014615
3232	0.046348
3228	0.094866
3224	0.051498
3220	-0.023078
3216	0.028514
3212	0.166463
3208	0.205349
3204	0.174617
3200	0.181627
3196	0.129628
3192	0.028061
3188	0.051689
3184	0.132489
3180	0.123167
3176	0.140929
3172	0.157809
3168	0.113868
3164	0.100374
3160	0.081920
3156	0.037240
3152	0.016617
3148	0.044178
3144	0.091075
3140	-0.003552
3136	-0.282573
3132	-0.288367
3128	0.027108
3124	0.120973
3120	0.043630
3116	0.069332
3112	0.115871
3108	0.092339
3104	0.028181
3100	0.033640
3096	0.072860
3092	0.042486
3088	0.021433
3084	0.066304
3080	0.087833
3076	0.026702
3072	0.008058
3068	0.097894
3064	0.157904
3060	0.121951
3056	0.082397
3052	0.098943
3048	0.116539
3044	0.091457
3040	0.071716
3036	0.073361
3032	0.010323
3028	-0.070548
3024	-0.039148
3020	0.016808
3016	0.023841
3012	0.067090
3008	0.173044
3004	0.249910
3000	0.187754
2996	0.072312
2992	0.058436
2988	0.112771
2984	0.102257
2980	0.060629
2976	0.107622
2972	0.164270
2968	0.147938
2964	0.133895
2960	0.118756
2956	0.054931
2952	0.068068
2948	0.191426
2944	0.192832
2940	0.068378
2936	0.065016
2932	0.065517
2928	-0.062417
2924	-0.114321
2920	-0.069522
2916	-0.047421
2912	-0.033092
2908	-0.022411
2904	-0.055694
2900	-0.097680
2896	-0.059866
2892	0.070452
2888	0.189518
2884	0.185751
2880	0.064945
2876	-0.016903
2872	0.043439
2868	0.180244
2864	0.302171
2860	0.276875
2856	0.102758
2852	0.011873
2848	0.057983
2844	0.096940
2840	0.103926
2836	0.082564
2832	0.051140
2828	0.052475
2824	0.069212
2820	0.053620
2816	0.009560
2812	0.026273
2808	0.090837
2804	0.125336
2800	0.133395
2796	0.123643
2792	0.097870
2788	0.060844
2784	0.012731
2780	-0.013518
2776	-0.011849
2772	0.016570
2768	0.069069
2764	0.105166
2760	0.088763
2756	0.061416
2752	0.027728
2748	-0.051665
2744	-0.095915
2740	-0.087261
2736	-0.061821
2732	-0.027203
2728	-0.018763
2724	-0.009870
2720	0.016450
2716	0.027203
2712	0.036692
2708	0.062870
2704	0.086069
2700	0.112509
2696	0.112366
2692	0.048303
2688	-0.000834
2684	-0.007343
2680	-0.001549
2676	-0.037217
2672	-0.083160
2668	-0.053477
2664	0.005078
2660	0.053334
2656	0.089740
2652	0.102090
2648	0.074005
2644	0.024747
2640	-0.002908
2636	-0.006461
2632	0.034213
2628	0.093030
2624	0.088596
2620	0.054597
2616	0.005888
2612	-0.006985
2608	0.041627
2604	0.032711
2600	-0.027394
2596	-0.050687
2592	-0.040721
2588	-0.044918
2584	-0.053882
2580	-0.045704
2576	0.008320
2572	0.045990
2568	-0.003862
2564	-0.018143
2560	0.058770
2556	0.099587
2552	0.093531
2548	0.062203
2544	-0.001525
2540	-0.013875
2536	0.004625
2532	-0.003027
2528	0.032210
2524	0.093960
2520	0.058102
2516	-0.042963
2512	0.040245
2508	0.249958
2504	0.263905
2500	0.222349
2496	0.330615
2492	0.339770
2488	0.182294
2484	0.104331
2480	0.114512
2476	0.139117
2472	0.164628
2468	0.133562
2464	0.048565
2460	-0.044965
2456	-0.046515
2452	0.047183
2448	0.102663
2444	0.105571
2440	0.053691
2436	-0.083637
2432	-0.203847
2428	-0.193428
2424	-0.102543
2420	-0.113153
2416	-0.129365
2412	0.081324
2408	0.302839
2404	0.263071
2400	0.067472
2396	-0.021004
2392	0.038266
2388	0.099277
2384	0.134348
2380	0.144386
2376	0.075888
2372	-0.037574
2368	-0.006103
2364	0.134301
2360	0.173783
2356	0.138354
2352	0.134062
2348	0.138092
2344	0.118327
2340	0.138783
2336	0.212240
2332	0.245356
2328	0.195741
2324	0.204133
2320	0.277018
2316	0.286817
2312	0.301146
2308	0.367474
2304	0.421810
2300	0.477552
2296	0.561499
2292	0.634098
2288	0.724053
2284	0.836777
2280	0.905942
2276	0.933313
2272	0.953316
2268	1.009392
2264	1.096367
2260	1.185345
2256	1.314902
2252	1.491641
2248	1.680922
2244	1.865577
2240	2.005910
2236	2.140688
2232	2.300095
2228	2.462339
2224	2.667379
2220	2.867817
2216	3.039598
2212	3.245496
2208	3.491115
2204	3.769373
2200	4.078555
2196	4.372954
2192	4.615211
2188	4.840111
2184	5.146098
2180	5.528283
2176	5.924034
2172	6.311774
2168	6.637430
2164	6.973218
2160	7.330155
2156	7.705998
2152	8.179211
2148	8.593916
2144	8.911776
2140	9.282684
2136	9.744572
2132	10.2364
2128	10.6969
2124	11.1745
2120	11.6121
2116	11.951
2112	12.3285
2108	12.7995
2104	13.2971
2100	13.7207
2096	14.0664
2092	14.5074
2088	14.9735
2084	15.3419
2080	15.8435
2076	16.482
2072	16.922
2068	17.1872
2064	17.5791
2060	18.0908
2056	18.538
2052	18.8847
2048	19.2174
2044	19.6285
2040	20.0819
2036	20.5083
2032	20.9026
2028	21.2897
2024	21.7106
2020	22.1165
2016	22.4572
2012	22.7711
2008	23.0659
2004	23.3357
2000	23.5763
1996	23.7643
1992	23.9911
1988	24.3629
1984	24.7627
1980	25.0496
1976	25.2848
1972	25.5601
1968	25.8597
1964	26.1369
1960	26.3424
1956	26.548
1952	26.7823
1948	26.9251
1944	27.0753
1940	27.2861
1936	27.4965
1932	27.7356
1928	27.9482
1924	28.1145
1920	28.322
1916	28.553
1912	28.7648
1908	28.9581
1904	29.1509
1900	29.3353
1896	29.4412
1892	29.4928
1888	29.5333
1884	29.5768
1880	29.6508
1876	29.7957
1872	30.0348
1868	30.269
1864	30.441
1860	30.5855
1856	30.6951
1852	30.8179
1848	31.0219
1844	31.1797
1840	31.1894
1836	31.1415
1832	31.1691
1828	31.2662
1824	31.2994
1820	31.3171
1816	31.4675
1812	31.6984
1808	31.8735
1804	32.0082
1800	32.1892
1796	32.4199
1792	32.5492
1788	32.5298
1784	32.4716
1780	32.4078
1776	32.4248
1772	32.4967
1768	32.5177
1764	32.5697
1760	32.6639
1756	32.783
1752	32.9568
1748	33.0939
1744	33.1794
1740	33.2889
1736	33.3869
1732	33.3493
1728	33.2291
1724	33.2579
1720	33.3626
1716	33.2963
1712	33.195
1708	33.2926
1704	33.5665
1700	33.8773
1696	34.0065
1692	33.9849
1688	34.078
1684	34.1731
1680	34.1055
1676	34.078
1672	34.0771
1668	33.9694
1664	33.8482
1660	33.8315
1656	34.0074
1652	34.1704
1648	34.1367
1644	34.1121
1640	34.1894
1636	34.2477
1632	34.2874
1628	34.3789
1624	34.4848
1620	34.5528
1616	34.496
1612	34.34
1608	34.2519
1604	34.2262
1600	34.2235
1596	34.2633
1592	34.3428
1588	34.4492
1584	34.5975
1580	34.7934
1576	34.9067
1572	34.9076
1568	34.9445
1564	35.0994
1560	35.2094
1556	35.0102
1552	34.7522
1548	34.722
1544	34.8109
1540	34.8596
1536	34.7929
1532	34.721
1528	34.822
1524	35.0596
1520	35.2141
1516	35.2675
1512	35.3727
1508	35.5204
1504	35.4921
1500	35.3105
1496	35.2006
1492	35.1169
1488	35.0356
1484	34.9641
1480	34.882
1476	34.9375
1472	35.0831
1468	35.2095
1464	35.4047
1460	35.6249
1456	35.6897
1452	35.5396
1448	35.3702
1444	35.3244
1440	35.2673
1436	35.1009
1432	34.9093
1428	34.8479
1424	34.9159
1420	34.9753
1416	34.9979
1412	35.0768
1408	35.2213
1404	35.3745
1400	35.5395
1396	35.6174
1392	35.5841
1388	35.5525
1384	35.4687
1380	35.2774
1376	35.0937
1372	35.0382
1368	35.0461
1364	34.9808
1360	34.8853
1356	34.8757
1352	34.9725
1348	35.096
1344	35.2022
1340	35.3452
1336	35.4891
1332	35.5468
1328	35.5052
1324	35.3393
1320	35.0894
1316	34.8926
1312	34.8028
1308	34.7371
1304	34.6613
1300	34.6748
1296	34.8246
1292	35.0446
1288	35.1964
1284	35.2785
1280	35.353
1276	35.3496
1272	35.2786
1268	35.1704
1264	35.0111
1260	34.8484
1256	34.7505
1252	34.6275
1248	34.4745
1244	34.4531
1240	34.4883
1236	34.5122
1232	34.6534
1228	34.9087
1224	35.0826
1220	35.0736
1216	35.0045
1212	34.9433
1208	34.8347
1204	34.6753
1200	34.4766
1196	34.2816
1192	34.1271
1188	34.0177
1184	34.0073
1180	34.0802
1176	34.1997
1172	34.3922
1168	34.6108
1164	34.7672
1160	34.8301
1156	34.7811
1152	34.6218
1148	34.3824
1144	34.168
1140	34.004
1136	33.7871
1132	33.6178
1128	33.5878
1124	33.5856
1120	33.5986
1116	33.6542
1112	33.7794
1108	33.9897
1104	34.1873
1100	34.1873
1096	33.9794
1092	33.8861
1088	33.8412
1084	33.5599
1080	33.3074
1076	33.2163
1072	33.1064
1068	33.0007
1064	32.9852
1060	33.0355
1056	33.1138
1052	33.2521
1048	33.4649
1044	33.6278
1040	33.6726
1036	33.6205
1032	33.3966
1028	32.9895
1024	32.6281
1020	32.5611
1016	32.6324
1012	32.4685
1008	32.2423
1004	32.3144
1000	32.5121
996	 32.5968
992	 32.654
988	 32.7443
984	 32.7391
980	 32.6304
976	 32.5534
972	 32.4727
968	 32.2986
964	 32.144
960	 32.0106
956	 31.8502
952	 31.6778
948	 31.5086
944	 31.4874
940	 31.6246
936	 31.865
932	 32.1193
928	 32.2498
924	 32.2872
920	 32.2521
916	 32.1214
912	 31.9425
908	 31.7246
904	 31.5013
900	 31.3208
896	 31.0839
892	 30.8158
888	 30.7147
884	 30.7111
880	 30.6758
876	 30.6727
872	 30.7376
868	 30.8757
864	 31.0554
860	 31.1938
856	 31.1771
852	 31.0215
848	 30.8003
844	 30.5733
840	 30.3486
836	 30.0776
832	 29.9105
828	 29.9303
824	 29.9991
820	 30.0403
816	 30.1333
812	 30.3373
808	 30.4812
804	 30.3809
800	 30.2314
796	 30.1923
792	 30.0977
788	 29.8476
784	 29.5058
780	 29.1808
776	 28.8484
772	 28.6605
768	 28.7121
764	 28.7303
760	 28.9406
756	 29.3132
752	 29.3166
748	 29.2271
744	 29.3646
740	 29.422
736	 29.3255
732	 29.1443
728	 28.7808
724	 28.3432
720	 28.1134
716	 28.1009
712	 28.0681
708	 27.9278
704	 27.8286
700	 27.9706
696	 28.1167
692	 28.1674
688	 28.4971
684	 28.7899
680	 28.6965
676	 28.5345
672	 28.3842
668	 28.1775
664	 27.9821
660	 27.6777
656	 27.2981
652	 27.0638
648	 26.9613
644	 26.9075
640	 26.9247
636	 27.061
632	 27.323
628	 27.6666
624	 27.6887
620	 27.33
616	 26.9665
612	 26.5987
608	 26.468
604	 26.5552
600	 26.3226
596	 26.0366
592	 25.9403
588	 25.907
584	 26.073
580	 26.2882
576	 26.3323
572	 26.207
568	 25.998
564	 25.9997
560	 26.2919
556	 26.5162
552	 26.3525
548	 25.7825
544	 25.079
540	 24.6086
536	 24.3794
532	 24.2059
528	 24.2759
524	 24.3569
520	 23.9645
516	 23.6929
512	 24.2643
508	 25.0037
504	 25.138
500	 25.0818
496	 24.9811
492	 24.646
488	 24.6427
484	 24.6944
480	 24.2153
476	 23.8974
472	 23.6018
468	 23.3335
464	 23.4235
460	 23.4663
456	 23.96
452	 24.4641
448	 24.4723
444	 24.3734
440	 22.9218
436	 20.3516
432	 18.8586
428	 18.8353
424	 17.7019
420	 15.8472
416	 17.0137
412	 19.4061
408	 20.1296
404	 20.0953
400	 17.1309
396	 10.0199
392	 2.115607
388	 -2.094793
384	 2.343487
380	 12.3543
376	 23.7811
372	 23.6098
370	 16.2555