File: Bakgrunnsmateriale/MATLAB/FTIR/ftir_data/LPE453/Mapping_121/LPE453_t121.asc
PE IR       SPECTRUM    SPECTRUM    ASCII       PEDS        1.60
  -1
LP9772~1.ASC
17/05/17
00:32:26.00
17/05/17
00:32:53.00
tln
$LPE453_t0121$<tbV0>[-13.0,13.0,8.0,0.0,27,1,0]
27.028
64

2002,4.07
MIRTGS : RIGHTBACK : INTERNAL 2
MIR : ON : INTERNAL 2
OPTKBR

0.200000
8
8.000000
FILLER
RATIO
SPECTRUM
UNLOCKED 256

DOUBLE
64
COMBINED
1
0
0

0.002000
RATIO

1
0
TRUE
51149
0
LEFT NOT FITTED RIGHT NOT FITTED 0
NONE
NONE
15600
12
4.427000
51148
TRUE
1 0 8 72 0 0 0 0

15798

#HDR
-1
-1
#GR
µM
%T
2.38419e-05
0.0
2.000000
0.002000
12515
8
34.0253
-4.918360
#DATA
2.000000	 0.035285
2.018000	 0.124636
2.036000	 -0.507322
2.054000	 -0.254361
2.072000	 0.196493
2.090000	 0.132219
2.108000	 0.615039
2.126000	 0.362788
2.144000	 0.820856
2.162000	 0.639001
2.180000	 -0.456971
2.198000	 -0.328896
2.216000	 -1.232695
2.234000	 -1.870952
2.252000	 -1.079771
2.270000	 0.095116
2.288000	 0.925312
2.306000	 0.412097
2.324000	 0.209330
2.342000	 0.061661
2.360000	 -0.050921
2.378000	 0.154905
2.396000	 0.364334
2.414000	 0.159659
2.432000	 0.062747
2.450000	 -0.046741
2.468000	 0.077891
2.486000	 0.123132
2.504000	 0.244527
2.522000	 0.129147
2.540000	 -0.086811
2.558000	 0.223724
2.576000	 -0.041478
2.594000	 -0.006076
2.612000	 0.240202
2.630000	 0.050872
2.648000	 0.194430
2.666000	 0.020482
2.684000	 0.105550
2.702000	 0.105666
2.720000	 0.020181
2.738000	 0.134059
2.756000	 0.086961
2.774000	 -0.181601
2.792000	 0.192621
2.810000	 -0.051059
2.828000	 0.136037
2.846000	 0.237160
2.864000	 0.087572
2.882000	 0.153120
2.900000	 0.122492
2.918000	 0.125549
2.936000	 0.199812
2.954000	 0.191825
2.972000	 -0.029868
2.990000	 0.038250
3.008000	 0.041258
3.026000	 0.026532
3.044000	 0.054310
3.062000	 -0.021934
3.080000	 -0.076272
3.098000	 0.083500
3.116000	 -0.017497
3.134000	 0.030963
3.152000	 0.012707
3.170000	 0.028276
3.188000	 0.187404
3.206000	 0.110541
3.224000	 0.111916
3.242000	 0.019549
3.260000	 -0.096488
3.278000	 0.065394
3.296000	 0.016595
3.314000	 0.065981
3.332000	 -0.093270
3.350000	 0.005640
3.368000	 0.092151
3.386000	 0.043733
3.404000	 -0.078364
3.422000	 0.011153
3.440000	 0.120135
3.458000	 0.066663
3.476000	 0.027556
3.494000	 0.044398
3.512000	 -0.048830
3.530000	 0.040425
3.548000	 0.052238
3.566000	 0.013549
3.584000	 0.078321
3.602000	 0.065987
3.620000	 0.147314
3.638000	 0.079730
3.656000	 -0.002531
3.674000	 0.069266
3.692000	 0.008262
3.710000	 -0.001344
3.728000	 0.122635
3.746000	 0.070829
3.764000	 0.069541
3.782000	 0.016416
3.800000	 0.021971
3.818000	 0.097182
3.836000	 -0.001766
3.854000	 -0.000461
3.872000	 -0.017105
3.890000	 -0.037679
3.908000	 0.074414
3.926000	 0.041289
3.944000	 0.033355
3.962000	 -0.023022
3.980000	 0.005242
3.998000	 0.089658
4.016000	 0.024499
4.034000	 0.070897
4.052000	 0.103274
4.070000	 0.013784
4.088000	 -0.021162
4.106000	 -0.026713
4.124000	 0.005065
4.141999	 -0.152091
4.160000	 -0.059314
4.178000	 -0.037452
4.196000	 0.012522
4.214000	 0.041603
4.232000	 0.016055
4.250000	 0.149038
4.268000	 0.183050
4.286000	 0.233515
4.304000	 0.137800
4.322000	 0.360312
4.340000	 0.376742
4.358000	 0.605371
4.375999	 0.597249
4.394000	 0.773954
4.412000	 1.003005
4.430000	 1.229709
4.448000	 1.382188
4.466000	 1.750943
4.484000	 2.093926
4.502000	 2.504416
4.520000	 3.022471
4.538000	 3.380053
4.556000	 4.098618
4.574000	 4.712831
4.592000	 5.326418
4.609999	 6.015315
4.628000	 6.716418
4.646000	 7.629282
4.664000	 8.507025
4.682000	 9.252259
4.700000	 10.1354
4.718000	 11.0165
4.736000	 12.0252
4.754000	 12.9271
4.772000	 13.7808
4.790000	 14.6498
4.808000	 15.5474
4.826000	 16.4183
4.843999	 17.3669
4.862000	 18.1387
4.880000	 18.9421
4.898000	 19.6826
4.916000	 20.4561
4.934000	 21.131
4.952000	 21.8574
4.970000	 22.4634
4.988000	 23.0798
5.006000	 23.7154
5.024000	 24.2943
5.042000	 24.6872
5.060000	 25.1497
5.077999	 25.6272
5.096000	 26.065
5.114000	 26.4297
5.132000	 26.8745
5.150000	 27.3171
5.168000	 27.6261
5.186000	 27.9777
5.204000	 28.3216
5.222000	 28.5647
5.240000	 28.7305
5.258000	 28.9654
5.276000	 29.2511
5.294000	 29.5076
5.312000	 29.7063
5.330000	 29.8586
5.348000	 30.1215
5.366000	 30.328
5.384000	 30.4663
5.402000	 30.6877
5.420000	 30.782
5.438000	 30.8902
5.456000	 30.9826
5.474000	 31.1018
5.492000	 31.2496
5.510000	 31.3608
5.528000	 31.4837
5.546000	 31.6265
5.564000	 31.7051
5.582000	 31.7826
5.600000	 31.823
5.618000	 31.8774
5.636000	 31.9217
5.654000	 32.0501
5.672000	 32.1343
5.690000	 32.165
5.708000	 32.2493
5.726000	 32.3102
5.744000	 32.3083
5.762000	 32.3463
5.780000	 32.3409
5.798000	 32.3656
5.816000	 32.3792
5.834000	 32.4383
5.852000	 32.5213
5.870000	 32.5861
5.888000	 32.6911
5.906000	 32.7757
5.923999	 32.8271
5.942000	 32.7912
5.960000	 32.762
5.978000	 32.7498
5.996000	 32.7289
6.014000	 32.8349
6.032000	 32.9561
6.050000	 32.9899
6.068000	 32.9694
6.086000	 33.0139
6.104000	 33.044
6.122000	 33.0714
6.140000	 33.1214
6.158000	 33.1319
6.176000	 33.0707
6.194000	 33.0141
6.212000	 33.0679
6.230000	 33.195
6.248000	 33.2094
6.266000	 33.2106
6.284000	 33.2748
6.302000	 33.262
6.320000	 33.1679
6.338000	 33.1197
6.356000	 33.1353
6.374000	 33.2604
6.392000	 33.3409
6.410000	 33.3092
6.428000	 33.2698
6.446000	 33.262
6.464000	 33.3108
6.482000	 33.3711
6.500000	 33.4193
6.518000	 33.5056
6.536000	 33.5506
6.554000	 33.4832
6.572000	 33.4569
6.590000	 33.477
6.608000	 33.4301
6.626000	 33.4026
6.644000	 33.4397
6.662000	 33.4573
6.680000	 33.4193
6.698000	 33.3808
6.716000	 33.3699
6.734000	 33.3945
6.752000	 33.4825
6.770000	 33.5597
6.788000	 33.5712
6.806000	 33.5523
6.824000	 33.5398
6.842000	 33.5055
6.860000	 33.4431
6.878000	 33.4568
6.896000	 33.5221
6.914000	 33.514
6.932000	 33.4552
6.950000	 33.4496
6.968000	 33.562
6.986000	 33.6847
7.004000	 33.697
7.022000	 33.6743
7.040000	 33.6828
7.058000	 33.6755
7.076000	 33.6396
7.094000	 33.6108
7.112000	 33.6087
7.130000	 33.6012
7.148000	 33.5537
7.166000	 33.5149
7.184000	 33.5457
7.202000	 33.6064
7.220000	 33.6231
7.238000	 33.6103
7.256000	 33.6388
7.274000	 33.7219
7.292000	 33.8027
7.310000	 33.8255
7.328000	 33.7966
7.346000	 33.7618
7.364000	 33.74
7.382000	 33.7127
7.400000	 33.6629
7.418000	 33.6119
7.436000	 33.5913
7.454000	 33.5998
7.472000	 33.6225
7.490000	 33.6506
7.508000	 33.6754
7.526000	 33.7043
7.544000	 33.7451
7.562000	 33.7795
7.580000	 33.8004
7.598000	 33.8234
7.616000	 33.8436
7.634000	 33.845
7.652000	 33.8363
7.670000	 33.8265
7.688000	 33.8092
7.706000	 33.7834
7.724000	 33.755
7.742000	 33.7342
7.760000	 33.7276
7.778000	 33.7154
7.796000	 33.676
7.814000	 33.6402
7.832000	 33.6567
7.850000	 33.7141
7.868000	 33.7585
7.886000	 33.7659
7.904000	 33.7722
7.922000	 33.8275
7.940000	 33.9271
7.958000	 34.0077
7.976000	 34.0231
7.994000	 33.9899
8.012000	 33.9506
8.030000	 33.9262
8.048000	 33.9136
8.065999	 33.9055
8.084000	 33.8981
8.102000	 33.8811
8.120000	 33.8376
8.138000	 33.7745
8.155999	 33.7375
8.173999	 33.7631
8.192000	 33.8276
8.210000	 33.8778
8.228000	 33.8943
8.246000	 33.897
8.263999	 33.9026
8.282000	 33.9102
8.300000	 33.9175
8.318000	 33.929
8.336000	 33.9485
8.353999	 33.9721
8.372000	 33.9862
8.390000	 33.9747
8.408000	 33.9455
8.426000	 33.9269
8.443999	 33.924
8.462000	 33.913
8.480000	 33.8828
8.498000	 33.8411
8.516000	 33.7951
8.533999	 33.7535
8.552000	 33.7306
8.570000	 33.7335
8.588000	 33.7493
8.606000	 33.7602
8.624000	 33.7634
8.641999	 33.7662
8.660000	 33.7701
8.678000	 33.7746
8.696000	 33.7873
8.714000	 33.813
8.731999	 33.8376
8.750000	 33.8441
8.768000	 33.8328
8.786000	 33.8164
8.804000	 33.8024
8.821999	 33.7936
8.840000	 33.7914
8.858000	 33.7943
8.876000	 33.7938
8.894000	 33.7782
8.911999	 33.7372
8.930000	 33.6604
8.948000	 33.541
8.966000	 33.3903
8.984000	 33.2437
9.001999	 33.1439
9.020000	 33.1144
9.038000	 33.1489
9.056000	 33.2188
9.074000	 33.2895
9.092000	 33.3344
9.109999	 33.3453
9.128000	 33.3362
9.146000	 33.3311
9.164000	 33.3455
9.182000	 33.3776
9.199999	 33.415
9.218000	 33.4457
9.236000	 33.4643
9.254000	 33.4721
9.272000	 33.4731
9.289999	 33.4715
9.308000	 33.4682
9.326000	 33.4587
9.344000	 33.4382
9.362000	 33.4056
9.379999	 33.3673
9.398000	 33.332
9.416000	 33.3046
9.434000	 33.2826
9.452000	 33.2568
9.469999	 33.2162
9.488000	 33.1544
9.506000	 33.0773
9.524000	 33.0049
9.542000	 32.9596
9.560000	 32.95
9.577999	 32.9674
9.596000	 32.996
9.614000	 33.0275
9.632000	 33.0638
9.650000	 33.1079
9.667999	 33.1562
9.686000	 33.1986
9.704000	 33.2264
9.722000	 33.2375
9.740000	 33.2364
9.757999	 33.2303
9.776000	 33.226
9.794000	 33.2253
9.812000	 33.2224
9.830000	 33.204
9.847999	 33.1559
9.866000	 33.074
9.884000	 32.9696
9.902000	 32.865
9.920000	 32.7794
9.937999	 32.7198
9.956000	 32.6818
9.974000	 32.6573
9.992000	 32.6412
10.01	32.6314
10.028	32.6262
10.046	32.6212
10.064	32.6104
10.082	32.5897
10.1	32.5609
10.118	32.5325
10.136	32.5168
10.154	32.524
10.172	32.5543
10.19	32.594
10.208	32.6213
10.226	32.6168
10.244	32.576
10.262	32.5126
10.28	32.4492
10.298	32.405
10.316	32.3865
10.334	32.3867
10.352	32.3939
10.37	32.3995
10.388	32.401
10.406	32.3984
10.424	32.392
10.442	32.3807
10.46	32.3648
10.478	32.3477
10.496	32.333
10.514	32.3202
10.532	32.3026
10.55	32.2715
10.568	32.2216
10.586	32.1548
10.604	32.0782
10.622	32.0008
10.64	31.9296
10.658	31.8682
10.676	31.8181
10.694	31.7792
10.712	31.7507
10.73	31.7314
10.748	31.7207
10.766	31.7191
10.784	31.7276
10.802	31.7452
10.82	31.7665
10.838	31.7812
10.856	31.78
10.874	31.7586
10.892	31.7205
10.91	31.6754
10.928	31.6333
10.946	31.6007
10.964	31.5791
10.982	31.5665
11	31.5609
11.018	31.562
11.036	31.5703
11.054	31.5851
11.072	31.6024
11.09	31.6166
11.108	31.6221
11.126	31.6157
11.144	31.5962
11.162	31.5641
11.18	31.5201
11.198	31.4641
11.216	31.3963
11.234	31.317
11.252	31.2278
11.27	31.132
11.288	31.0344
11.306	30.941
11.324	30.8598
11.342	30.7988
11.36	30.7634
11.378	30.7542
11.396	30.765
11.414	30.7835
11.432	30.796
11.45	30.7923
11.468	30.7686
11.486	30.7286
11.504	30.6807
11.522	30.6357
11.54	30.6017
11.558	30.5834
11.576	30.5814
11.594	30.5928
11.612	30.6134
11.63	30.6371
11.648	30.6587
11.666	30.6736
11.684	30.6796
11.702	30.6781
11.72	30.6728
11.738	30.6684
11.756	30.6682
11.774	30.6726
11.792	30.679
11.81	30.6826
11.828	30.6786
11.846	30.6642
11.864	30.6396
11.882	30.6069
11.9	30.5692
11.918	30.5298
11.936	30.4911
11.954	30.4541
11.972	30.4194
11.99	30.3868
12.008	30.3548
12.026	30.3203
12.044	30.2791
12.062	30.2278
12.08	30.1651
12.098	30.0929
12.116	30.0161
12.134	29.9408
12.152	29.8715
12.17	29.8103
12.188	29.756
12.206	29.7047
12.224	29.6531
12.242	29.6007
12.26	29.5501
12.278	29.5081
12.296	29.4827
12.314	29.4804
12.332	29.5033
12.35	29.5486
12.368	29.609
12.386	29.6747
12.404	29.7353
12.422	29.7826
12.44	29.8124
12.458	29.8241
12.476	29.8199
12.494	29.804
12.512	29.7802
12.53	29.7508
12.548	29.7161
12.566	29.6756
12.584	29.6282
12.602	29.5736
12.62	29.5137
12.638	29.452
12.656	29.3936
12.674	29.3433
12.692	29.3052
12.71	29.2812
12.728	29.2707
12.746	29.2711
12.764	29.2782
12.782	29.2881
12.8	29.297
12.818	29.3024
12.836	29.3029
12.854	29.2975
12.872	29.2856
12.89	29.267
12.908	29.2411
12.926	29.208
12.944	29.1674
12.962	29.1195
12.98	29.0646
12.998	29.0032
13.016	28.9361
13.034	28.8641
13.052	28.789
13.07	28.7136
13.088	28.6413
13.106	28.5762
13.124	28.5218
13.142	28.4809
13.16	28.4536
13.178	28.4384
13.196	28.4311
13.214	28.4268
13.232	28.4208
13.25	28.41
13.268	28.3933
13.286	28.373
13.304	28.3531
13.322	28.3381
13.34	28.3319
13.358	28.3362
13.376	28.3505
13.394	28.3716
13.412	28.3947
13.43	28.415
13.448	28.4286
13.466	28.4336
13.484	28.4304
13.502	28.4211
13.52	28.4091
13.538	28.3976
13.556	28.3891
13.574	28.3847
13.592	28.3842
13.61	28.3865
13.628	28.39
13.646	28.3932
13.664	28.3947
13.682	28.3934
13.7	28.3884
13.718	28.3786
13.736	28.3626
13.754	28.3388
13.772	28.3056
13.79	28.2622
13.808	28.209
13.826	28.1477
13.844	28.0818
13.862	28.0154
13.88	27.953
13.898	27.8986
13.916	27.8545
13.934	27.8212
13.952	27.7967
13.97	27.7777
13.988	27.7598
14.006	27.7389
14.024	27.7119
14.042	27.6774
14.06	27.6363
14.078	27.5904
14.096	27.543
14.114	27.4969
14.132	27.4543
14.15	27.4158
14.168	27.381
14.186	27.3479
14.204	27.3144
14.222	27.2783
14.24	27.2385
14.258	27.1954
14.276	27.1506
14.294	27.1069
14.312	27.0675
14.33	27.0351
14.348	27.0123
14.366	26.9999
14.384	26.9978
14.402	27.0041
14.42	27.0166
14.438	27.0328
14.456	27.0507
14.474	27.0683
14.492	27.0845
14.51	27.0987
14.528	27.1108
14.546	27.1206
14.564	27.1279
14.582	27.132
14.6	27.1324
14.618	27.1282
14.636	27.1187
14.654	27.1042
14.672	27.0851
14.69	27.0626
14.708	27.0382
14.726	27.0136
14.744	26.9908
14.762	26.9711
14.78	26.9555
14.798	26.9443
14.816	26.9375
14.834	26.9349
14.852	26.9358
14.87	26.9398
14.888	26.9462
14.906	26.9547
14.924	26.9647
14.942	26.9754
14.96	26.9862
14.978	26.9963
14.996	27.0046
15.014	27.0101
15.032	27.0117
15.05	27.0087
15.068	27.0006
15.086	26.9875
15.104	26.9694
15.122	26.9467
15.14	26.9196
15.158	26.8884
15.176	26.8528
15.194	26.8127
15.212	26.7672
15.23	26.7155
15.248	26.657
15.266	26.5913
15.284	26.5185
15.302	26.4399
15.32	26.3572
15.338	26.2724
15.356	26.1887
15.374	26.1094
15.392	26.0373
15.41	25.9748
15.428	25.9236
15.446	25.8848
15.464	25.8578
15.482	25.8416
15.5	25.8344
15.518	25.8336
15.536	25.8364
15.554	25.8405
15.572	25.8434
15.59	25.8426
15.608	25.8367
15.626	25.8245
15.644	25.8051
15.662	25.7782
15.68	25.7438
15.698	25.7026
15.716	25.6559
15.734	25.6055
15.752	25.5534
15.77	25.5017
15.788	25.4534
15.806	25.411
15.824	25.3764
15.842	25.3518
15.86	25.3384
15.878	25.3366
15.896	25.3463
15.914	25.3669
15.932	25.3966
15.95	25.4341
15.968	25.4773
15.986	25.5237
16.004	25.5717
16.022	25.6196
16.04	25.6655
16.058	25.7084
16.076	25.7474
16.094	25.7817
16.112	25.8106
16.13	25.8337
16.148	25.8508
16.166	25.8616
16.184	25.866
16.202	25.864
16.22	25.8559
16.238	25.8422
16.256	25.8238
16.274	25.8016
16.292	25.7768
16.31	25.75
16.328	25.7225
16.346	25.6951
16.364	25.6684
16.382	25.6429
16.4	25.6183
16.418	25.5945
16.436	25.5709
16.454	25.5468
16.472	25.5218
16.49	25.495
16.508	25.466
16.526	25.4342
16.544	25.3995
16.562	25.362
16.58	25.3218
16.598	25.2791
16.616	25.2344
16.634	25.1879
16.652	25.14
16.67	25.0909
16.688	25.0409
16.706	24.9903
16.724	24.9392
16.742	24.8881
16.76	24.8371
16.778	24.7865
16.796	24.7369
16.814	24.6884
16.832	24.6416
16.85	24.5971
16.868	24.5552
16.886	24.5159
16.904	24.4803
16.922	24.4485
16.94	24.4209
16.958	24.3985
16.976	24.3819
16.994	24.3718
17.012	24.3691
17.03	24.3744
17.048	24.3886
17.066	24.4119
17.084	24.4447
17.102	24.4865
17.12	24.5369
17.138	24.5944
17.156	24.6573
17.174	24.7242
17.192	24.7918
17.21	24.8585
17.228	24.921
17.246	24.9771
17.264	25.025
17.282	25.0621
17.3	25.0881
17.318	25.1019
17.336	25.1043
17.354	25.0953
17.372	25.077
17.39	25.0505
17.408	25.0179
17.426	24.9813
17.444	24.9422
17.462	24.9031
17.48	24.8646
17.498	24.8283
17.516	24.7945
17.534	24.7636
17.552	24.7354
17.57	24.7099
17.588	24.6865
17.606	24.6651
17.624	24.6453
17.642	24.6273
17.66	24.6111
17.678	24.5972
17.696	24.586
17.714	24.5784
17.732	24.5748
17.75	24.576
17.768	24.5821
17.786	24.5933
17.804	24.6089
17.822	24.6285
17.84	24.6504
17.858	24.6734
17.876	24.6961
17.894	24.7159
17.912	24.7319
17.93	24.7412
17.948	24.7434
17.966	24.7365
17.984	24.7207
18.002	24.6957
18.02	24.6624
18.038	24.6214
18.056	24.575
18.074	24.5239
18.092	24.4718
18.11	24.4194
18.128	24.3705
18.146	24.3256
18.164	24.2877
18.182	24.2571
18.2	24.2351
18.218	24.2215
18.236	24.2166
18.254	24.2187
18.272	24.2278
18.29	24.241
18.308	24.2579
18.326	24.2751
18.344	24.2923
18.362	24.3065
18.38	24.3174
18.398	24.3232
18.416	24.3238
18.434	24.3183
18.452	24.3074
18.47	24.291
18.488	24.2704
18.506	24.246
18.524	24.2194
18.542	24.1912
18.56	24.1631
18.578	24.1354
18.596	24.1093
18.614	24.0849
18.632	24.0626
18.65	24.0423
18.668	24.023
18.686	24.0046
18.704	23.9857
18.722	23.9659
18.74	23.9434
18.758	23.9177
18.776	23.8872
18.794	23.8519
18.812	23.8105
18.83	23.7632
18.848	23.7096
18.866	23.6504
18.884	23.5862
18.902	23.5178
18.92	23.4465
18.938	23.3736
18.956	23.3009
18.974	23.2295
18.992	23.1615
19.01	23.0978
19.028	23.0404
19.046	22.9897
19.064	22.947
19.082	22.9124
19.1	22.8866
19.118	22.8691
19.136	22.8598
19.154	22.8578
19.172	22.8619
19.19	22.8714
19.208	22.884
19.226	22.8994
19.244	22.9146
19.262	22.9298
19.28	22.9422
19.298	22.9518
19.316	22.9566
19.334	22.9566
19.352	22.9507
19.37	22.9391
19.388	22.9218
19.406	22.8986
19.424	22.8708
19.442	22.8383
19.46	22.803
19.478	22.765
19.496	22.7263
19.514	22.6873
19.532	22.6494
19.55	22.6135
19.568	22.5801
19.586	22.5502
19.604	22.5237
19.622	22.5014
19.64	22.483
19.658	22.4684
19.676	22.4575
19.694	22.4495
19.712	22.4443
19.73	22.4406
19.748	22.4387
19.766	22.4373
19.784	22.4364
19.802	22.4357
19.82	22.4346
19.838	22.4335
19.856	22.4321
19.874	22.4305
19.892	22.4294
19.91	22.4288
19.928	22.4296
19.946	22.4317
19.964	22.4364
19.982	22.4437
20	22.4542
20.018	22.4683
20.036	22.486
20.054	22.5079
20.072	22.5338
20.09	22.5636
20.108	22.5974
20.126	22.6345
20.144	22.6751
20.162	22.7184
20.18	22.7641
20.198	22.8118
20.216	22.8609
20.234	22.9112
20.252	22.9617
20.27	23.0126
20.288	23.063
20.306	23.113
20.324	23.1616
20.342	23.2086
20.36	23.2535
20.378	23.2956
20.396	23.3349
20.414	23.3699
20.432	23.4006
20.45	23.4259
20.468	23.4453
20.486	23.4582
20.504	23.463
20.522	23.4602
20.54	23.4482
20.558	23.4274
20.576	23.397
20.594	23.3564
20.612	23.3062
20.63	23.2465
20.648	23.1775
20.666	23.1003
20.684	23.0147
20.702	22.9222
20.72	22.8238
20.738	22.7198
20.756	22.6128
20.774	22.5021
20.792	22.3907
20.81	22.2788
20.828	22.1678
20.846	22.0596
20.864	21.9538
20.882	21.8528
20.9	21.7563
20.918	21.6654
20.936	21.581
20.954	21.5028
20.972	21.4317
20.99	21.3675
21.008	21.3103
21.026	21.2601
21.044	21.2168
21.062	21.18
21.08	21.1497
21.098	21.1248
21.116	21.1054
21.134	21.0909
21.152	21.0799
21.17	21.0729
21.188	21.0681
21.206	21.0653
21.224	21.0639
21.242	21.0624
21.26	21.0612
21.278	21.0585
21.296	21.0541
21.314	21.0475
21.332	21.0374
21.35	21.0242
21.368	21.0069
21.386	20.9853
21.404	20.9595
21.422	20.9292
21.44	20.8945
21.458	20.8559
21.476	20.8132
21.494	20.7669
21.512	20.7182
21.53	20.6666
21.548	20.6134
21.566	20.5594
21.584	20.5044
21.602	20.4505
21.62	20.3973
21.638	20.3457
21.656	20.2971
21.674	20.2507
21.692	20.2084
21.71	20.1703
21.728	20.1365
21.746	20.108
21.764	20.0846
21.782	20.0668
21.8	20.0553
21.818	20.0496
21.836	20.0502
21.854	20.0572
21.872	20.0705
21.89	20.0901
21.908	20.1161
21.926	20.148
21.944	20.1859
21.962	20.2297
21.98	20.2783
21.998	20.332
22.016	20.3901
22.034	20.4512
22.052	20.5159
22.07	20.5825
22.088	20.6497
22.106	20.7182
22.124	20.7853
22.142	20.8509
22.16	20.9146
22.178	20.9738
22.196	21.0291
22.214	21.0794
22.232	21.1229
22.25	21.1604
22.268	21.1905
22.286	21.2125
22.304	21.2269
22.322	21.2331
22.34	21.2307
22.358	21.2203
22.376	21.2026
22.394	21.1769
22.412	21.1445
22.43	21.107
22.448	21.0634
22.466	21.0158
22.484	20.9656
22.502	20.9121
22.52	20.8576
22.538	20.8032
22.556	20.7483
22.574	20.6952
22.592	20.6443
22.61	20.5954
22.628	20.5503
22.646	20.5089
22.664	20.4712
22.682	20.438
22.7	20.4092
22.718	20.3849
22.736	20.3651
22.754	20.35
22.772	20.3391
22.79	20.332
22.808	20.329
22.826	20.3293
22.844	20.3325
22.862	20.3389
22.88	20.3483
22.898	20.3603
22.916	20.3753
22.934	20.3931
22.952	20.414
22.97	20.4377
22.988	20.4644
23.006	20.4942
23.024	20.527
23.042	20.5627
23.06	20.6013
23.078	20.6427
23.096	20.6865
23.114	20.7331
23.132	20.7821
23.15	20.8321
23.168	20.8837
23.186	20.9363
23.204	20.9877
23.222	21.0388
23.24	21.0887
23.258	21.1345
23.276	21.1769
23.294	21.2153
23.312	21.2464
23.33	21.2709
23.348	21.2884
23.366	21.2961
23.384	21.2941
23.402	21.2827
23.42	21.2602
23.438	21.2263
23.456	21.1817
23.474	21.1265
23.492	21.0601
23.51	20.9833
23.528	20.8981
23.546	20.8044
23.564	20.7022
23.582	20.5953
23.6	20.4843
23.618	20.3683
23.636	20.2517
23.654	20.1361
23.672	20.0199
23.69	19.9071
23.708	19.8005
23.726	19.6978
23.744	19.6023
23.762	19.5167
23.78	19.4395
23.798	19.372
23.816	19.3162
23.834	19.2716
23.852	19.238
23.87	19.2156
23.888	19.2052
23.906	19.2056
23.924	19.2151
23.942	19.2347
23.96	19.2637
23.978	19.2987
23.996	19.3393
24.014	19.3863
24.032	19.4361
24.05	19.4864
24.068	19.5396
24.086	19.5919
24.104	19.6399
24.122	19.686
24.14	19.7279
24.158	19.7618
24.176	19.789
24.194	19.8088
24.212	19.8178
24.23	19.8157
24.248	19.8033
24.266	19.7783
24.284	19.7391
24.302	19.6871
24.32	19.6211
24.338	19.5398
24.356	19.4439
24.374	19.3332
24.392	19.2075
24.41	19.0662
24.428	18.9101
24.446	18.7403
24.464	18.557
24.482	18.3597
24.5	18.1505
24.518	17.931
24.536	17.6992
24.554	17.4581
24.572	17.2114
24.59	16.9571
24.608	16.6965
24.626	16.4352
24.644	16.1753
24.662	15.9134
24.68	15.6556
24.698	15.4073
24.716	15.1646
24.734	14.9305
24.752	14.7109
24.77	14.5059
24.788	14.314
24.806	14.1396
24.824	13.9857
24.842	13.8496
24.86	13.7334
24.878	13.6402
24.896	13.5701
24.914	13.522
24.932	13.4953
24.95	13.4907
24.968	13.5089
24.986	13.546
25.004	13.5978
25.022	13.6681
25.04	13.7538
25.058	13.848
25.076	13.9485
25.094	14.0596
25.112	14.1738
25.13	14.2834
25.148	14.3931
25.166	14.5005
25.184	14.5981
25.202	14.6827
25.22	14.7589
25.238	14.8214
25.256	14.8646
25.274	14.8897
25.292	14.8977
25.31	14.887
25.328	14.8562
25.346	14.8051
25.364	14.7369
25.382	14.6546
25.4	14.5557
25.418	14.4414
25.436	14.3178
25.454	14.1891
25.472	14.0501
25.49	13.9058
25.508	13.7634
25.526	13.6231
25.544	13.4816
25.562	13.3467
25.58	13.2258
25.598	13.1142
25.616	13.0137
25.634	12.9304
25.652	12.8685
25.67	12.8238
25.688	12.7985
25.706	12.7955
25.724	12.8161
25.742	12.8587
25.76	12.9219
25.778	13.0048
25.796	13.1108
25.814	13.2365
25.832	13.3754
25.85	13.5243
25.868	13.6896
25.886	13.8637
25.904	14.0371
25.922	14.2084
25.94	14.3829
25.958	14.5526
25.976	14.7096
25.994	14.857
26.012	14.9954
26.03	15.1188
26.048	15.2217
26.066	15.3076
26.084	15.376
26.102	15.424
26.12	15.4495
26.138	15.4543
26.156	15.4383
26.174	15.4011
26.192	15.3415
26.21	15.2593
26.228	15.1578
26.246	15.0402
26.264	14.9061
26.282	14.7543
26.3	14.588
26.318	14.4102
26.336	14.2209
26.354	14.019
26.372	13.8046
26.39	13.578
26.408	13.3407
26.426	13.0911
26.444	12.827
26.462	12.5463
26.48	12.2502
26.498	11.9389
26.516	11.6124
26.534	11.2706
26.552	10.9147
26.57	10.5432
26.588	10.1547
26.606	9.748725
26.624	9.328420
26.642	8.889710
26.66	8.427708
26.678	7.939439
26.696	7.428422
26.714	6.893590
26.732	6.333315
26.75	5.745402
26.768	5.129377
26.786	4.489837
26.804	3.831602
26.822	3.155313
26.84	2.455349
26.858	1.740122
26.876	1.018914
26.894	0.294022
26.912	-0.444459
26.93	-1.184306
26.948	-1.911826
26.966	-2.646580
26.984	-3.438878
27.002	-4.182711
27.02	-4.761893
27.028	-4.918360