File: Bakgrunnsmateriale/MATLAB/FTIR/ftir_data/LPE453/Mapping_121/LPE453_t120.asc
PE IR       SPECTRUM    SPECTRUM    ASCII       PEDS        1.60
  -1
LP9372~1.ASC
17/05/17
00:27:50.00
17/05/17
00:28:16.00
tln
$LPE453_t0120$<tbV0>[-10.4,13.0,8.0,0.0,27,1,0]
27.028
64

2002,4.07
MIRTGS : RIGHTBACK : INTERNAL 2
MIR : ON : INTERNAL 2
OPTKBR

0.200000
8
8.000000
FILLER
RATIO
SPECTRUM
UNLOCKED 256

DOUBLE
64
COMBINED
1
0
0

0.002000
RATIO

1
0
TRUE
51149
0
LEFT NOT FITTED RIGHT NOT FITTED 0
NONE
NONE
15600
12
4.427000
51148
TRUE
1 0 8 72 0 0 0 0

15798

#HDR
-1
-1
#GR
µM
%T
2.38419e-05
0.0
2.000000
0.002000
12515
8
35.4148
-27.5637
#DATA
2.000000	 0.173974
2.018000	 0.055323
2.036000	 -0.080031
2.054000	 -0.314490
2.072000	 0.307464
2.090000	 0.278236
2.108000	 -0.302799
2.126000	 -0.200294
2.144000	 -0.374097
2.162000	 0.071093
2.180000	 0.030019
2.198000	 -0.345132
2.216000	 -1.271900
2.234000	 -0.593176
2.252000	 -0.537748
2.270000	 0.052197
2.288000	 0.239421
2.306000	 0.160809
2.324000	 0.202841
2.342000	 0.069013
2.360000	 0.381937
2.378000	 0.169248
2.396000	 -0.348328
2.414000	 0.091340
2.432000	 0.211067
2.450000	 -0.040086
2.468000	 0.248115
2.486000	 0.103352
2.504000	 0.075787
2.522000	 0.043791
2.540000	 0.214884
2.558000	 0.027501
2.576000	 0.142432
2.594000	 0.218678
2.612000	 0.307246
2.630000	 0.041367
2.648000	 0.159660
2.666000	 0.058291
2.684000	 0.094273
2.702000	 0.173544
2.720000	 0.025725
2.738000	 0.046532
2.756000	 0.037483
2.774000	 -0.097873
2.792000	 -0.028154
2.810000	 0.273327
2.828000	 0.014115
2.846000	 0.229842
2.864000	 0.058687
2.882000	 -0.047087
2.900000	 0.078583
2.918000	 0.018435
2.936000	 -0.010511
2.954000	 -0.043147
2.972000	 0.048468
2.990000	 0.059176
3.008000	 -0.085435
3.026000	 -0.021693
3.044000	 0.155454
3.062000	 -0.013170
3.080000	 0.140447
3.098000	 -0.033878
3.116000	 0.071884
3.134000	 0.034339
3.152000	 0.018051
3.170000	 0.120101
3.188000	 -0.165354
3.206000	 0.052717
3.224000	 0.030401
3.242000	 0.086252
3.260000	 0.113200
3.278000	 -0.005727
3.296000	 -0.038661
3.314000	 0.057285
3.332000	 -0.164125
3.350000	 -0.003080
3.368000	 0.039394
3.386000	 -0.022704
3.404000	 -0.018103
3.422000	 0.025535
3.440000	 -0.033083
3.458000	 0.013043
3.476000	 -0.007475
3.494000	 0.173190
3.512000	 0.145426
3.530000	 -0.000361
3.548000	 -0.031236
3.566000	 -0.039857
3.584000	 0.115524
3.602000	 0.003536
3.620000	 0.042530
3.638000	 -0.086136
3.656000	 0.035130
3.674000	 0.006600
3.692000	 -0.006297
3.710000	 0.033350
3.728000	 0.111097
3.746000	 -0.015016
3.764000	 0.027775
3.782000	 -0.026271
3.800000	 0.054657
3.818000	 0.162799
3.836000	 -0.023358
3.854000	 -0.037291
3.872000	 0.016579
3.890000	 0.035716
3.908000	 0.048164
3.926000	 0.013097
3.944000	 0.004633
3.962000	 0.121677
3.980000	 -0.017986
3.998000	 0.058904
4.016000	 -0.011716
4.034000	 -0.053510
4.052000	 0.022830
4.070000	 0.013449
4.088000	 0.009983
4.106000	 0.103594
4.124000	 0.138825
4.141999	 0.166948
4.160000	 -0.069829
4.178000	 0.099154
4.196000	 0.059195
4.214000	 0.141552
4.232000	 0.043694
4.250000	 0.142274
4.268000	 0.230518
4.286000	 0.146791
4.304000	 0.272526
4.322000	 0.426619
4.340000	 0.559813
4.358000	 0.614712
4.375999	 0.809312
4.394000	 1.048486
4.412000	 1.168983
4.430000	 1.331724
4.448000	 1.754023
4.466000	 2.106737
4.484000	 2.526058
4.502000	 2.992469
4.520000	 3.483676
4.538000	 3.970378
4.556000	 4.484754
4.574000	 5.215426
4.592000	 5.949199
4.609999	 6.644019
4.628000	 7.555589
4.646000	 8.548953
4.664000	 9.270925
4.682000	 10.2323
4.700000	 11.1804
4.718000	 12.0133
4.736000	 12.8824
4.754000	 13.8541
4.772000	 14.7653
4.790000	 15.6153
4.808000	 16.5503
4.826000	 17.5198
4.843999	 18.349
4.862000	 19.0875
4.880000	 20.0074
4.898000	 20.7937
4.916000	 21.5455
4.934000	 22.2021
4.952000	 22.8173
4.970000	 23.4654
4.988000	 24.0542
5.006000	 24.6813
5.024000	 25.1904
5.042000	 25.7523
5.060000	 26.2226
5.077999	 26.6246
5.096000	 27.0711
5.114000	 27.5712
5.132000	 27.929
5.150000	 28.3744
5.168000	 28.5818
5.186000	 28.8659
5.204000	 29.183
5.222000	 29.5063
5.240000	 29.8406
5.258000	 30.1759
5.276000	 30.4283
5.294000	 30.6238
5.312000	 30.8207
5.330000	 31.0499
5.348000	 31.1918
5.366000	 31.3696
5.384000	 31.5384
5.402000	 31.7792
5.420000	 31.8952
5.438000	 32.0281
5.456000	 32.1626
5.474000	 32.3678
5.492000	 32.4738
5.510000	 32.6253
5.528000	 32.7263
5.546000	 32.6902
5.564000	 32.7938
5.582000	 32.9451
5.600000	 33.1455
5.618000	 33.2782
5.636000	 33.3683
5.654000	 33.4471
5.672000	 33.4651
5.690000	 33.4961
5.708000	 33.5273
5.726000	 33.5508
5.744000	 33.5979
5.762000	 33.6782
5.780000	 33.7391
5.798000	 33.9266
5.816000	 34.1274
5.834000	 34.1337
5.852000	 34.1243
5.870000	 34.1845
5.888000	 34.2082
5.906000	 34.1857
5.923999	 34.2061
5.942000	 34.2458
5.960000	 34.2572
5.978000	 34.3594
5.996000	 34.4947
6.014000	 34.602
6.032000	 34.6733
6.050000	 34.6188
6.068000	 34.6132
6.086000	 34.6428
6.104000	 34.6546
6.122000	 34.6928
6.140000	 34.6769
6.158000	 34.6461
6.176000	 34.6367
6.194000	 34.7228
6.212000	 34.8082
6.230000	 34.8446
6.248000	 34.898
6.266000	 34.9403
6.284000	 34.979
6.302000	 35.0112
6.320000	 35.0165
6.338000	 34.9863
6.356000	 34.9232
6.374000	 34.9289
6.392000	 34.9742
6.410000	 34.9728
6.428000	 34.9527
6.446000	 34.9843
6.464000	 35.0673
6.482000	 35.1389
6.500000	 35.1963
6.518000	 35.2618
6.536000	 35.2673
6.554000	 35.209
6.572000	 35.1777
6.590000	 35.1917
6.608000	 35.2159
6.626000	 35.2132
6.644000	 35.2057
6.662000	 35.2092
6.680000	 35.1483
6.698000	 35.103
6.716000	 35.1474
6.734000	 35.193
6.752000	 35.2384
6.770000	 35.292
6.788000	 35.3456
6.806000	 35.3569
6.824000	 35.2833
6.842000	 35.1512
6.860000	 35.0284
6.878000	 34.9907
6.896000	 35.0349
6.914000	 35.0735
6.932000	 35.0755
6.950000	 35.1078
6.968000	 35.1935
6.986000	 35.2663
7.004000	 35.2903
7.022000	 35.2887
7.040000	 35.2752
7.058000	 35.2326
7.076000	 35.1878
7.094000	 35.1854
7.112000	 35.1916
7.130000	 35.1718
7.148000	 35.1586
7.166000	 35.1353
7.184000	 35.0498
7.202000	 34.9657
7.220000	 34.9751
7.238000	 35.0624
7.256000	 35.1847
7.274000	 35.284
7.292000	 35.2828
7.310000	 35.2111
7.328000	 35.1941
7.346000	 35.2806
7.364000	 35.3868
7.382000	 35.4113
7.400000	 35.3485
7.418000	 35.2393
7.436000	 35.112
7.454000	 35.0223
7.472000	 35.0003
7.490000	 34.9772
7.508000	 34.8989
7.526000	 34.8087
7.544000	 34.7661
7.562000	 34.7896
7.580000	 34.8566
7.598000	 34.9145
7.616000	 34.9417
7.634000	 34.9673
7.652000	 34.9987
7.670000	 35.0113
7.688000	 35.007
7.706000	 35.0013
7.724000	 34.9842
7.742000	 34.9404
7.760000	 34.8759
7.778000	 34.808
7.796000	 34.75
7.814000	 34.7016
7.832000	 34.6603
7.850000	 34.6441
7.868000	 34.6676
7.886000	 34.6923
7.904000	 34.663
7.922000	 34.5975
7.940000	 34.5706
7.958000	 34.6087
7.976000	 34.6759
7.994000	 34.742
8.012000	 34.8033
8.030000	 34.8561
8.048000	 34.8804
8.065999	 34.8577
8.084000	 34.7991
8.102000	 34.7438
8.120000	 34.713
8.138000	 34.6846
8.155999	 34.6271
8.173999	 34.5405
8.192000	 34.4502
8.210000	 34.3798
8.228000	 34.3356
8.246000	 34.3073
8.263999	 34.2837
8.282000	 34.2694
8.300000	 34.2817
8.318000	 34.3287
8.336000	 34.3978
8.353999	 34.4636
8.372000	 34.501
8.390000	 34.4996
8.408000	 34.4711
8.426000	 34.4399
8.443999	 34.4177
8.462000	 34.4007
8.480000	 34.3855
8.498000	 34.3763
8.516000	 34.3704
8.533999	 34.3551
8.552000	 34.3209
8.570000	 34.2688
8.588000	 34.2046
8.606000	 34.1362
8.624000	 34.0693
8.641999	 34.0028
8.660000	 33.9313
8.678000	 33.8642
8.696000	 33.828
8.714000	 33.8414
8.731999	 33.8888
8.750000	 33.9325
8.768000	 33.9491
8.786000	 33.9447
8.804000	 33.9349
8.821999	 33.9241
8.840000	 33.9127
8.858000	 33.9143
8.876000	 33.9488
8.894000	 34.0172
8.911999	 34.0892
8.930000	 34.1255
8.948000	 34.107
8.966000	 34.0452
8.984000	 33.9747
9.001999	 33.9327
9.020000	 33.9322
9.038000	 33.946
9.056000	 33.9241
9.074000	 33.8365
9.092000	 33.7002
9.109999	 33.5592
9.128000	 33.4404
9.146000	 33.3403
9.164000	 33.2491
9.182000	 33.1734
9.199999	 33.1314
9.218000	 33.1312
9.236000	 33.1616
9.254000	 33.2032
9.272000	 33.245
9.289999	 33.2866
9.308000	 33.3287
9.326000	 33.3645
9.344000	 33.3835
9.362000	 33.3837
9.379999	 33.3791
9.398000	 33.3925
9.416000	 33.4357
9.434000	 33.4971
9.452000	 33.5479
9.469999	 33.5601
9.488000	 33.5219
9.506000	 33.4394
9.524000	 33.3289
9.542000	 33.2089
9.560000	 33.097
9.577999	 33.011
9.596000	 32.963
9.614000	 32.9504
9.632000	 32.9533
9.650000	 32.9457
9.667999	 32.9142
9.686000	 32.8633
9.704000	 32.8068
9.722000	 32.7515
9.740000	 32.6937
9.757999	 32.6313
9.776000	 32.573
9.794000	 32.5321
9.812000	 32.5117
9.830000	 32.4992
9.847999	 32.4801
9.866000	 32.4533
9.884000	 32.4332
9.902000	 32.4387
9.920000	 32.4779
9.937999	 32.5451
9.956000	 32.6285
9.974000	 32.7163
9.992000	 32.7963
10.01	32.8534
10.028	32.8727
10.046	32.8483
10.064	32.7889
10.082	32.7152
10.1	32.651
10.118	32.6137
10.136	32.6079
10.154	32.626
10.172	32.6521
10.19	32.6659
10.208	32.6497
10.226	32.5945
10.244	32.5043
10.262	32.3962
10.28	32.2912
10.298	32.2061
10.316	32.147
10.334	32.1088
10.352	32.0818
10.37	32.0576
10.388	32.033
10.406	32.0091
10.424	31.9873
10.442	31.9681
10.46	31.9529
10.478	31.9456
10.496	31.9523
10.514	31.9779
10.532	32.0204
10.55	32.0699
10.568	32.1125
10.586	32.1355
10.604	32.1346
10.622	32.114
10.64	32.0837
10.658	32.0539
10.676	32.0315
10.694	32.0186
10.712	32.0141
10.73	32.0152
10.748	32.0175
10.766	32.0158
10.784	32.0045
10.802	31.9783
10.82	31.9348
10.838	31.8746
10.856	31.8015
10.874	31.7209
10.892	31.638
10.91	31.5573
10.928	31.4821
10.946	31.4155
10.964	31.359
10.982	31.313
11	31.2762
11.018	31.2465
11.036	31.2222
11.054	31.2035
11.072	31.1928
11.09	31.1946
11.108	31.2115
11.126	31.2421
11.144	31.2803
11.162	31.3155
11.18	31.338
11.198	31.3423
11.216	31.3293
11.234	31.3049
11.252	31.2771
11.27	31.2507
11.288	31.2266
11.306	31.2028
11.324	31.1774
11.342	31.1517
11.36	31.13
11.378	31.1167
11.396	31.1128
11.414	31.1141
11.432	31.1135
11.45	31.105
11.468	31.0862
11.486	31.0605
11.504	31.0345
11.522	31.0147
11.54	31.0038
11.558	30.9988
11.576	30.9916
11.594	30.9729
11.612	30.9346
11.63	30.874
11.648	30.7951
11.666	30.7076
11.684	30.6243
11.702	30.5567
11.72	30.5126
11.738	30.4928
11.756	30.4915
11.774	30.4982
11.792	30.5012
11.81	30.4915
11.828	30.466
11.846	30.4264
11.864	30.3793
11.882	30.3322
11.9	30.2915
11.918	30.2608
11.936	30.2398
11.954	30.226
11.972	30.2155
11.99	30.2051
12.008	30.1923
12.026	30.1762
12.044	30.1564
12.062	30.1341
12.08	30.1115
12.098	30.0918
12.116	30.0791
12.134	30.0774
12.152	30.0894
12.17	30.1156
12.188	30.1531
12.206	30.1958
12.224	30.2354
12.242	30.2634
12.26	30.2731
12.278	30.2615
12.296	30.2302
12.314	30.1859
12.332	30.1371
12.35	30.0925
12.368	30.0582
12.386	30.0366
12.404	30.0248
12.422	30.0163
12.44	30.0036
12.458	29.9806
12.476	29.9446
12.494	29.8972
12.512	29.8429
12.53	29.7876
12.548	29.7361
12.566	29.691
12.584	29.652
12.602	29.6168
12.62	29.5827
12.638	29.5475
12.656	29.5107
12.674	29.4732
12.692	29.4367
12.71	29.4031
12.728	29.3738
12.746	29.3495
12.764	29.3303
12.782	29.3162
12.8	29.3072
12.818	29.3034
12.836	29.3041
12.854	29.3081
12.872	29.3132
12.89	29.3171
12.908	29.3171
12.926	29.3123
12.944	29.3028
12.962	29.291
12.98	29.2804
12.998	29.275
13.016	29.2781
13.034	29.2914
13.052	29.3145
13.07	29.3454
13.088	29.3812
13.106	29.4188
13.124	29.4556
13.142	29.4892
13.16	29.5183
13.178	29.5413
13.196	29.5569
13.214	29.5636
13.232	29.5605
13.25	29.5472
13.268	29.5248
13.286	29.4952
13.304	29.4615
13.322	29.4266
13.34	29.3932
13.358	29.3629
13.376	29.336
13.394	29.3115
13.412	29.2879
13.43	29.2636
13.448	29.2374
13.466	29.2088
13.484	29.1779
13.502	29.1448
13.52	29.1097
13.538	29.0722
13.556	29.0316
13.574	28.9872
13.592	28.9387
13.61	28.887
13.628	28.8343
13.646	28.7837
13.664	28.7387
13.682	28.7024
13.7	28.6765
13.718	28.6606
13.736	28.6523
13.754	28.6475
13.772	28.641
13.79	28.628
13.808	28.6049
13.826	28.5704
13.844	28.5256
13.862	28.4733
13.88	28.4177
13.898	28.363
13.916	28.3127
13.934	28.2685
13.952	28.2305
13.97	28.1972
13.988	28.1667
14.006	28.1369
14.024	28.1069
14.042	28.0771
14.06	28.0497
14.078	28.028
14.096	28.0158
14.114	28.016
14.132	28.0303
14.15	28.0584
14.168	28.0978
14.186	28.1446
14.204	28.1936
14.222	28.2396
14.24	28.2781
14.258	28.3066
14.276	28.3243
14.294	28.3324
14.312	28.3331
14.33	28.3296
14.348	28.325
14.366	28.3216
14.384	28.3206
14.402	28.3219
14.42	28.3244
14.438	28.3267
14.456	28.3271
14.474	28.3246
14.492	28.3189
14.51	28.3105
14.528	28.301
14.546	28.2917
14.564	28.2834
14.582	28.2763
14.6	28.2696
14.618	28.2612
14.636	28.2487
14.654	28.2291
14.672	28.2004
14.69	28.1612
14.708	28.1115
14.726	28.0526
14.744	27.9872
14.762	27.9191
14.78	27.8518
14.798	27.7887
14.816	27.7326
14.834	27.6851
14.852	27.6465
14.87	27.615
14.888	27.5884
14.906	27.5636
14.924	27.5376
14.942	27.5069
14.96	27.4699
14.978	27.4264
14.996	27.377
15.014	27.3243
15.032	27.2717
15.05	27.2235
15.068	27.1829
15.086	27.1528
15.104	27.1347
15.122	27.1287
15.14	27.1326
15.158	27.1434
15.176	27.1572
15.194	27.1694
15.212	27.1754
15.23	27.1719
15.248	27.1572
15.266	27.1304
15.284	27.0926
15.302	27.0467
15.32	26.9961
15.338	26.9442
15.356	26.8954
15.374	26.8531
15.392	26.8196
15.41	26.7961
15.428	26.7831
15.446	26.7793
15.464	26.7831
15.482	26.7925
15.5	26.8056
15.518	26.8198
15.536	26.8341
15.554	26.8476
15.572	26.8599
15.59	26.8715
15.608	26.8832
15.626	26.8957
15.644	26.9102
15.662	26.9269
15.68	26.9457
15.698	26.9663
15.716	26.9875
15.734	27.0074
15.752	27.0246
15.77	27.0374
15.788	27.0437
15.806	27.0423
15.824	27.0326
15.842	27.0142
15.86	26.9881
15.878	26.9555
15.896	26.9179
15.914	26.878
15.932	26.838
15.95	26.7997
15.968	26.7652
15.986	26.7359
16.004	26.7123
16.022	26.6947
16.04	26.6824
16.058	26.6741
16.076	26.6687
16.094	26.6643
16.112	26.6594
16.13	26.6527
16.148	26.6431
16.166	26.6298
16.184	26.6124
16.202	26.5907
16.22	26.5648
16.238	26.535
16.256	26.5016
16.274	26.4651
16.292	26.4261
16.31	26.3849
16.328	26.3424
16.346	26.2993
16.364	26.2564
16.382	26.215
16.4	26.1765
16.418	26.1417
16.436	26.1126
16.454	26.0901
16.472	26.0752
16.49	26.0688
16.508	26.0706
16.526	26.0804
16.544	26.0969
16.562	26.1185
16.58	26.1436
16.598	26.169
16.616	26.1927
16.634	26.2125
16.652	26.2255
16.67	26.2305
16.688	26.2262
16.706	26.2116
16.724	26.1868
16.742	26.1519
16.76	26.1084
16.778	26.0571
16.796	26.0001
16.814	25.9395
16.832	25.8768
16.85	25.8149
16.868	25.7558
16.886	25.7009
16.904	25.6528
16.922	25.6125
16.94	25.5812
16.958	25.5599
16.976	25.5487
16.994	25.5478
17.012	25.5566
17.03	25.5746
17.048	25.6002
17.066	25.6323
17.084	25.6694
17.102	25.7091
17.12	25.7505
17.138	25.7913
17.156	25.8304
17.174	25.8666
17.192	25.899
17.21	25.9273
17.228	25.951
17.246	25.9706
17.264	25.986
17.282	25.9983
17.3	26.0078
17.318	26.0155
17.336	26.0221
17.354	26.028
17.372	26.0341
17.39	26.0408
17.408	26.0483
17.426	26.0568
17.444	26.0662
17.462	26.0761
17.48	26.086
17.498	26.0952
17.516	26.1029
17.534	26.1084
17.552	26.1104
17.57	26.1083
17.588	26.101
17.606	26.0881
17.624	26.0692
17.642	26.0446
17.66	26.0143
17.678	25.9797
17.696	25.9413
17.714	25.901
17.732	25.8602
17.75	25.8204
17.768	25.7837
17.786	25.7508
17.804	25.7237
17.822	25.7026
17.84	25.6883
17.858	25.6802
17.876	25.678
17.894	25.6798
17.912	25.6853
17.93	25.6913
17.948	25.6973
17.966	25.7002
17.984	25.6996
18.002	25.6933
18.02	25.6812
18.038	25.6622
18.056	25.637
18.074	25.6054
18.092	25.569
18.11	25.5282
18.128	25.4852
18.146	25.4406
18.164	25.3963
18.182	25.3527
18.2	25.311
18.218	25.2714
18.236	25.2342
18.254	25.1988
18.272	25.1653
18.29	25.1323
18.308	25.0997
18.326	25.066
18.344	25.0312
18.362	24.994
18.38	24.9545
18.398	24.9123
18.416	24.8679
18.434	24.8214
18.452	24.7738
18.47	24.7257
18.488	24.6787
18.506	24.6331
18.524	24.5909
18.542	24.5525
18.56	24.5191
18.578	24.4909
18.596	24.4686
18.614	24.4523
18.632	24.4416
18.65	24.4365
18.668	24.4359
18.686	24.4397
18.704	24.4463
18.722	24.4555
18.74	24.4657
18.758	24.4767
18.776	24.4871
18.794	24.4966
18.812	24.5042
18.83	24.5099
18.848	24.5132
18.866	24.514
18.884	24.5122
18.902	24.508
18.92	24.5013
18.938	24.4923
18.956	24.4813
18.974	24.4684
18.992	24.4538
19.01	24.4378
19.028	24.4204
19.046	24.4018
19.064	24.3823
19.082	24.362
19.1	24.3411
19.118	24.3199
19.136	24.2986
19.154	24.2776
19.172	24.2575
19.19	24.2386
19.208	24.2218
19.226	24.2071
19.244	24.1958
19.262	24.1877
19.28	24.1837
19.298	24.1837
19.316	24.1881
19.334	24.1966
19.352	24.2087
19.37	24.2244
19.388	24.2422
19.406	24.262
19.424	24.2818
19.442	24.3017
19.46	24.3195
19.478	24.3351
19.496	24.347
19.514	24.355
19.532	24.3584
19.55	24.3566
19.568	24.3502
19.586	24.3388
19.604	24.3234
19.622	24.3046
19.64	24.283
19.658	24.2605
19.676	24.2371
19.694	24.2152
19.712	24.1945
19.73	24.1773
19.748	24.1634
19.766	24.1539
19.784	24.1494
19.802	24.1496
19.82	24.1548
19.838	24.1645
19.856	24.1783
19.874	24.1957
19.892	24.2152
19.91	24.2368
19.928	24.2583
19.946	24.2799
19.964	24.2997
19.982	24.3175
20	24.3321
20.018	24.343
20.036	24.3499
20.054	24.3521
20.072	24.3498
20.09	24.3429
20.108	24.3313
20.126	24.3157
20.144	24.2959
20.162	24.2729
20.18	24.2468
20.198	24.2181
20.216	24.1879
20.234	24.1559
20.252	24.1232
20.27	24.0897
20.288	24.0561
20.306	24.0227
20.324	23.9894
20.342	23.9564
20.36	23.9236
20.378	23.8908
20.396	23.8581
20.414	23.8244
20.432	23.7899
20.45	23.7538
20.468	23.7159
20.486	23.6757
20.504	23.6324
20.522	23.5862
20.54	23.5363
20.558	23.4828
20.576	23.4256
20.594	23.3646
20.612	23.3001
20.63	23.2323
20.648	23.1614
20.666	23.0886
20.684	23.0136
20.702	22.9377
20.72	22.8615
20.738	22.7853
20.756	22.7111
20.774	22.6383
20.792	22.5687
20.81	22.5024
20.828	22.4401
20.846	22.3831
20.864	22.3311
20.882	22.2851
20.9	22.245
20.918	22.2112
20.936	22.1842
20.954	22.1638
20.972	22.1501
20.99	22.1431
21.008	22.1425
21.026	22.1485
21.044	22.1606
21.062	22.1783
21.08	22.2019
21.098	22.2301
21.116	22.263
21.134	22.3
21.152	22.3398
21.17	22.3828
21.188	22.4271
21.206	22.4727
21.224	22.5188
21.242	22.5637
21.26	22.608
21.278	22.6496
21.296	22.6884
21.314	22.7239
21.332	22.7545
21.35	22.7808
21.368	22.8018
21.386	22.8172
21.404	22.8272
21.422	22.8316
21.44	22.8303
21.458	22.8243
21.476	22.8137
21.494	22.7988
21.512	22.7811
21.53	22.7602
21.548	22.7376
21.566	22.7145
21.584	22.6905
21.602	22.6677
21.62	22.6459
21.638	22.6255
21.656	22.6077
21.674	22.5921
21.692	22.5789
21.71	22.5683
21.728	22.5601
21.746	22.5539
21.764	22.5499
21.782	22.5475
21.8	22.5462
21.818	22.5462
21.836	22.5462
21.854	22.5461
21.872	22.5458
21.89	22.5447
21.908	22.5428
21.926	22.5404
21.944	22.5376
21.962	22.5343
21.98	22.5317
21.998	22.5297
22.016	22.5288
22.034	22.5307
22.052	22.5347
22.07	22.542
22.088	22.5539
22.106	22.5696
22.124	22.5904
22.142	22.6165
22.16	22.6476
22.178	22.6835
22.196	22.7247
22.214	22.7699
22.232	22.8182
22.25	22.8703
22.268	22.9236
22.286	22.9768
22.304	23.0306
22.322	23.081
22.34	23.1279
22.358	23.171
22.376	23.2066
22.394	23.2355
22.412	23.2568
22.43	23.2683
22.448	23.2708
22.466	23.264
22.484	23.2475
22.502	23.2214
22.52	23.1872
22.538	23.145
22.556	23.095
22.574	23.0405
22.592	22.9812
22.61	22.9179
22.628	22.8546
22.646	22.79
22.664	22.726
22.682	22.6663
22.7	22.6096
22.718	22.5574
22.736	22.5118
22.754	22.4722
22.772	22.4387
22.79	22.4121
22.808	22.3925
22.826	22.3779
22.844	22.3676
22.862	22.3624
22.88	22.3586
22.898	22.3551
22.916	22.353
22.934	22.347
22.952	22.3362
22.97	22.3213
22.988	22.2978
23.006	22.2653
23.024	22.2241
23.042	22.1711
23.06	22.1056
23.078	22.0283
23.096	21.9378
23.114	21.8334
23.132	21.7161
23.15	21.5867
23.168	21.4444
23.186	21.2904
23.204	21.1281
23.222	20.9562
23.24	20.7763
23.258	20.5932
23.276	20.4057
23.294	20.2151
23.312	20.0262
23.33	19.838
23.348	19.6514
23.366	19.4713
23.384	19.2971
23.402	19.1291
23.42	18.9708
23.438	18.8221
23.456	18.6828
23.474	18.5555
23.492	18.4406
23.51	18.3376
23.528	18.2472
23.546	18.1699
23.564	18.1053
23.582	18.0537
23.6	18.0154
23.618	17.9902
23.636	17.9779
23.654	17.9788
23.672	17.9926
23.69	18.019
23.708	18.0578
23.726	18.1094
23.744	18.1725
23.762	18.2465
23.78	18.3322
23.798	18.428
23.816	18.5323
23.834	18.6465
23.852	18.7686
23.87	18.8958
23.888	19.0298
23.906	19.1688
23.924	19.3082
23.942	19.449
23.96	19.5909
23.978	19.7281
23.996	19.8597
24.014	19.9874
24.032	20.1054
24.05	20.21
24.068	20.3047
24.086	20.3849
24.104	20.446
24.122	20.4909
24.14	20.5174
24.158	20.5221
24.176	20.5052
24.194	20.4675
24.212	20.4088
24.23	20.3281
24.248	20.2262
24.266	20.1056
24.284	19.9668
24.302	19.8079
24.32	19.6346
24.338	19.4515
24.356	19.2535
24.374	19.0471
24.392	18.8422
24.41	18.635
24.428	18.4274
24.446	18.2307
24.464	18.0491
24.482	17.8771
24.5	17.7234
24.518	17.5956
24.536	17.4883
24.554	17.4054
24.572	17.3529
24.59	17.3299
24.608	17.3356
24.626	17.3735
24.644	17.4459
24.662	17.5511
24.68	17.6876
24.698	17.8545
24.716	18.0553
24.734	18.2844
24.752	18.5341
24.77	18.8057
24.788	19.1002
24.806	19.4074
24.824	19.7208
24.842	20.0473
24.86	20.3791
24.878	20.7064
24.896	21.0321
24.914	21.3561
24.932	21.6704
24.95	21.9708
24.968	22.2617
24.986	22.5397
25.004	22.8007
25.022	23.0453
25.04	23.2746
25.058	23.4882
25.076	23.6857
25.094	23.8668
25.112	24.0339
25.13	24.1893
25.148	24.3307
25.166	24.4601
25.184	24.5818
25.202	24.6974
25.22	24.8043
25.238	24.9062
25.256	25.0068
25.274	25.1043
25.292	25.1992
25.31	25.295
25.328	25.3938
25.346	25.4934
25.364	25.5953
25.382	25.7011
25.4	25.8108
25.418	25.9239
25.436	26.0412
25.454	26.1634
25.472	26.2901
25.49	26.4212
25.508	26.5564
25.526	26.6966
25.544	26.8418
25.562	26.9894
25.58	27.137
25.598	27.2875
25.616	27.4389
25.634	27.5863
25.652	27.7274
25.67	27.8662
25.688	27.9982
25.706	28.118
25.724	28.2266
25.742	28.3257
25.76	28.4094
25.778	28.4721
25.796	28.517
25.814	28.5434
25.832	28.5479
25.85	28.5282
25.868	28.4878
25.886	28.4236
25.904	28.3315
25.922	28.21
25.94	28.0611
25.958	27.8852
25.976	27.6823
25.994	27.4539
26.012	27.199
26.03	26.9156
26.048	26.602
26.066	26.2625
26.084	25.8933
26.102	25.488
26.12	25.0437
26.138	24.5679
26.156	24.0521
26.174	23.4861
26.192	22.8683
26.21	22.2067
26.228	21.4894
26.246	20.7042
26.264	19.8516
26.282	18.9373
26.3	17.9528
26.318	16.8898
26.336	15.749
26.354	14.5338
26.372	13.2443
26.39	11.8802
26.408	10.4349
26.426	8.915791
26.444	7.335441
26.462	5.702525
26.48	3.998182
26.498	2.239589
26.516	0.453811
26.534	-1.341712
26.552	-3.176272
26.57	-5.025726
26.588	-6.855567
26.606	-8.646014
26.624	-10.4295
26.642	-12.1809
26.66	-13.8668
26.678	-15.4704
26.696	-17.0207
26.714	-18.4962
26.732	-19.8698
26.75	-21.1273
26.768	-22.2891
26.786	-23.3457
26.804	-24.2851
26.822	-25.1
26.84	-25.7982
26.858	-26.3807
26.876	-26.8478
26.894	-27.1965
26.912	-27.4234
26.93	-27.5405
26.948	-27.5603
26.966	-27.4627
26.984	-27.1988
27.002	-26.875
27.02	-26.6082
27.028	-26.5445