File: Bakgrunnsmateriale/MATLAB/FTIR/ftir_data/LPE453/Mapping_121/LPE453_t78.asc
PE IR       SPECTRUM    SPECTRUM    ASCII       PEDS        1.60
  -1
LPEFA9~1.ASC
17/05/16
20:46:24.00
17/05/16
20:46:50.00
tln
$LPE453_t0078$<tbV0>[13.0,5.2,8.0,0.0,27,1,0]
27.028
64

2002,4.07
MIRTGS : RIGHTBACK : INTERNAL 2
MIR : ON : INTERNAL 2
OPTKBR

0.200000
8
8.000000
FILLER
RATIO
SPECTRUM
UNLOCKED 256

DOUBLE
64
COMBINED
1
0
0

0.002000
RATIO

1
0
TRUE
51149
0
LEFT NOT FITTED RIGHT NOT FITTED 0
NONE
NONE
15600
12
4.427000
51148
TRUE
1 0 8 72 0 0 0 0

15798

#HDR
-1
-1
#GR
µM
%T
2.38419e-05
0.0
2.000000
0.002000
12515
8
39.8222
-11.9202
#DATA
2.000000	 0.310158
2.018000	 0.030638
2.036000	 0.059275
2.054000	 0.074185
2.072000	 0.317746
2.090000	 0.439738
2.108000	 -0.310596
2.126000	 -1.092269
2.144000	 1.641020
2.162000	 0.175003
2.180000	 0.260495
2.198000	 0.044504
2.216000	 -0.955556
2.234000	 0.027770
2.252000	 -0.068844
2.270000	 0.359657
2.288000	 0.315713
2.306000	 0.328939
2.324000	 0.437606
2.342000	 -0.122052
2.360000	 0.186660
2.378000	 0.055495
2.396000	 0.154659
2.414000	 0.450967
2.432000	 0.111286
2.450000	 -0.094527
2.468000	 0.011666
2.486000	 -0.008829
2.504000	 0.227513
2.522000	 -0.056719
2.540000	 -0.063702
2.558000	 0.099347
2.576000	 0.153813
2.594000	 0.091239
2.612000	 -0.153649
2.630000	 0.049516
2.648000	 0.171945
2.666000	 -0.012018
2.684000	 0.217182
2.702000	 0.128251
2.720000	 0.060833
2.738000	 0.090019
2.756000	 0.098077
2.774000	 0.032448
2.792000	 -0.141629
2.810000	 -0.116069
2.828000	 -0.120212
2.846000	 0.004832
2.864000	 0.103142
2.882000	 -0.146137
2.900000	 0.160456
2.918000	 0.142214
2.936000	 0.117301
2.954000	 0.054716
2.972000	 -0.123916
2.990000	 0.130329
3.008000	 0.033748
3.026000	 -0.012515
3.044000	 0.068944
3.062000	 -0.019631
3.080000	 0.007145
3.098000	 0.085446
3.116000	 -0.141521
3.134000	 0.108406
3.152000	 -0.085184
3.170000	 0.186612
3.188000	 0.159593
3.206000	 0.114180
3.224000	 -0.107882
3.242000	 0.080569
3.260000	 0.122458
3.278000	 0.047590
3.296000	 -0.065902
3.314000	 -0.011468
3.332000	 -0.003397
3.350000	 0.066536
3.368000	 0.004721
3.386000	 0.061340
3.404000	 0.106161
3.422000	 -0.052686
3.440000	 0.122637
3.458000	 0.107009
3.476000	 0.103503
3.494000	 0.048529
3.512000	 0.108213
3.530000	 -0.083473
3.548000	 -0.023882
3.566000	 0.113337
3.584000	 0.075791
3.602000	 -0.000015
3.620000	 0.033348
3.638000	 -0.085940
3.656000	 0.063151
3.674000	 0.026804
3.692000	 0.060692
3.710000	 0.018282
3.728000	 0.007127
3.746000	 -0.012078
3.764000	 0.004486
3.782000	 0.038463
3.800000	 -0.010454
3.818000	 0.014161
3.836000	 -0.004490
3.854000	 -0.032229
3.872000	 0.043350
3.890000	 0.004935
3.908000	 0.019199
3.926000	 0.014780
3.944000	 0.020348
3.962000	 -0.029521
3.980000	 0.033767
3.998000	 0.040980
4.016000	 0.131342
4.034000	 -0.007047
4.052000	 0.032741
4.070000	 0.021736
4.088000	 0.051337
4.106000	 0.051072
4.124000	 0.062399
4.141999	 -0.013463
4.160000	 -0.025056
4.178000	 -0.069468
4.196000	 0.024450
4.214000	 0.033774
4.232000	 -0.002149
4.250000	 0.048225
4.268000	 0.097647
4.286000	 0.084461
4.304000	 -0.032093
4.322000	 -0.004361
4.340000	 -0.036425
4.358000	 0.077077
4.375999	 0.205648
4.394000	 0.156413
4.412000	 0.147998
4.430000	 0.122452
4.448000	 0.147054
4.466000	 0.202045
4.484000	 0.337905
4.502000	 0.497561
4.520000	 0.504516
4.538000	 0.610901
4.556000	 0.841303
4.574000	 0.919999
4.592000	 1.262648
4.609999	 1.599799
4.628000	 1.979678
4.646000	 2.145139
4.664000	 2.515748
4.682000	 2.794608
4.700000	 3.339945
4.718000	 3.643768
4.736000	 4.023134
4.754000	 4.489696
4.772000	 4.989554
4.790000	 5.356322
4.808000	 5.837759
4.826000	 6.427833
4.843999	 6.682389
4.862000	 7.365111
4.880000	 7.763166
4.898000	 8.145092
4.916000	 8.614819
4.934000	 9.118382
4.952000	 9.514112
4.970000	 9.852131
4.988000	 10.1927
5.006000	 10.6714
5.024000	 11.0752
5.042000	 11.3919
5.060000	 11.6881
5.077999	 12.0442
5.096000	 12.2895
5.114000	 12.6206
5.132000	 12.8933
5.150000	 13.1807
5.168000	 13.3844
5.186000	 13.5308
5.204000	 13.7863
5.222000	 13.9851
5.240000	 14.1744
5.258000	 14.3512
5.276000	 14.5711
5.294000	 14.7728
5.312000	 14.9865
5.330000	 15.103
5.348000	 15.2596
5.366000	 15.3342
5.384000	 15.4429
5.402000	 15.5744
5.420000	 15.7044
5.438000	 15.8088
5.456000	 15.962
5.474000	 16.0932
5.492000	 16.1926
5.510000	 16.2864
5.528000	 16.3331
5.546000	 16.3385
5.564000	 16.4383
5.582000	 16.5604
5.600000	 16.6926
5.618000	 16.7844
5.636000	 16.8891
5.654000	 16.9842
5.672000	 17.0242
5.690000	 17.0324
5.708000	 17.1305
5.726000	 17.2443
5.744000	 17.2527
5.762000	 17.2028
5.780000	 17.2737
5.798000	 17.4068
5.816000	 17.5448
5.834000	 17.6237
5.852000	 17.6573
5.870000	 17.7008
5.888000	 17.6606
5.906000	 17.6519
5.923999	 17.6623
5.942000	 17.6994
5.960000	 17.7545
5.978000	 17.809
5.996000	 17.8942
6.014000	 17.8781
6.032000	 17.8797
6.050000	 17.9658
6.068000	 18.0178
6.086000	 18.0373
6.104000	 18.0533
6.122000	 18.0988
6.140000	 18.1436
6.158000	 18.1807
6.176000	 18.1524
6.194000	 18.1039
6.212000	 18.1301
6.230000	 18.2144
6.248000	 18.3066
6.266000	 18.3111
6.284000	 18.2577
6.302000	 18.2772
6.320000	 18.2906
6.338000	 18.2712
6.356000	 18.3071
6.374000	 18.3679
6.392000	 18.4116
6.410000	 18.4103
6.428000	 18.4228
6.446000	 18.5007
6.464000	 18.5296
6.482000	 18.4876
6.500000	 18.5209
6.518000	 18.5468
6.536000	 18.5303
6.554000	 18.581
6.572000	 18.6559
6.590000	 18.6805
6.608000	 18.6588
6.626000	 18.6375
6.644000	 18.6193
6.662000	 18.6192
6.680000	 18.662
6.698000	 18.7039
6.716000	 18.6939
6.734000	 18.6553
6.752000	 18.6269
6.770000	 18.6176
6.788000	 18.6787
6.806000	 18.7568
6.824000	 18.7743
6.842000	 18.7866
6.860000	 18.7962
6.878000	 18.8142
6.896000	 18.8565
6.914000	 18.8651
6.932000	 18.8576
6.950000	 18.8563
6.968000	 18.8497
6.986000	 18.8806
7.004000	 18.9596
7.022000	 19.0233
7.040000	 19.0021
7.058000	 18.9298
7.076000	 18.9304
7.094000	 18.9852
7.112000	 18.9865
7.130000	 18.9769
7.148000	 19.0145
7.166000	 19.0496
7.184000	 19.0559
7.202000	 19.0493
7.220000	 19.0296
7.238000	 19.0082
7.256000	 19.0181
7.274000	 19.0631
7.292000	 19.1301
7.310000	 19.2001
7.328000	 19.2351
7.346000	 19.2206
7.364000	 19.1792
7.382000	 19.1293
7.400000	 19.0924
7.418000	 19.0924
7.436000	 19.1192
7.454000	 19.1317
7.472000	 19.1217
7.490000	 19.1244
7.508000	 19.1513
7.526000	 19.1821
7.544000	 19.218
7.562000	 19.2665
7.580000	 19.3017
7.598000	 19.2844
7.616000	 19.2158
7.634000	 19.1686
7.652000	 19.2031
7.670000	 19.2716
7.688000	 19.2896
7.706000	 19.2611
7.724000	 19.2473
7.742000	 19.2679
7.760000	 19.2948
7.778000	 19.3112
7.796000	 19.3397
7.814000	 19.3929
7.832000	 19.439
7.850000	 19.4489
7.868000	 19.4456
7.886000	 19.4582
7.904000	 19.4637
7.922000	 19.4368
7.940000	 19.4127
7.958000	 19.431
7.976000	 19.4626
7.994000	 19.4584
8.012000	 19.4297
8.030000	 19.4183
8.048000	 19.4248
8.065999	 19.4219
8.084000	 19.4087
8.102000	 19.4095
8.120000	 19.4303
8.138000	 19.4522
8.155999	 19.4629
8.173999	 19.4695
8.192000	 19.4732
8.210000	 19.4558
8.228000	 19.4122
8.246000	 19.3691
8.263999	 19.3589
8.282000	 19.3956
8.300000	 19.4657
8.318000	 19.5326
8.336000	 19.5665
8.353999	 19.5739
8.372000	 19.5832
8.390000	 19.5994
8.408000	 19.6022
8.426000	 19.5879
8.443999	 19.5851
8.462000	 19.6132
8.480000	 19.6469
8.498000	 19.6431
8.516000	 19.6006
8.533999	 19.5686
8.552000	 19.5909
8.570000	 19.6513
8.588000	 19.6888
8.606000	 19.6624
8.624000	 19.5897
8.641999	 19.5198
8.660000	 19.4899
8.678000	 19.5046
8.696000	 19.5399
8.714000	 19.5626
8.731999	 19.5533
8.750000	 19.5211
8.768000	 19.4906
8.786000	 19.4796
8.804000	 19.4913
8.821999	 19.5199
8.840000	 19.5496
8.858000	 19.558
8.876000	 19.5357
8.894000	 19.503
8.911999	 19.4977
8.930000	 19.5385
8.948000	 19.6025
8.966000	 19.6421
8.984000	 19.6245
9.001999	 19.56
9.020000	 19.496
9.038000	 19.482
9.056000	 19.5303
9.074000	 19.6115
9.092000	 19.6837
9.109999	 19.7214
9.128000	 19.7195
9.146000	 19.6811
9.164000	 19.614
9.182000	 19.5346
9.199999	 19.4677
9.218000	 19.4322
9.236000	 19.43
9.254000	 19.449
9.272000	 19.4732
9.289999	 19.4904
9.308000	 19.4955
9.326000	 19.4901
9.344000	 19.4809
9.362000	 19.4738
9.379999	 19.4721
9.398000	 19.4755
9.416000	 19.4836
9.434000	 19.4956
9.452000	 19.5072
9.469999	 19.5091
9.488000	 19.4916
9.506000	 19.4536
9.524000	 19.405
9.542000	 19.3606
9.560000	 19.3293
9.577999	 19.31
9.596000	 19.2959
9.614000	 19.2831
9.632000	 19.275
9.650000	 19.279
9.667999	 19.3004
9.686000	 19.3337
9.704000	 19.3639
9.722000	 19.3748
9.740000	 19.3598
9.757999	 19.3258
9.776000	 19.2873
9.794000	 19.2577
9.812000	 19.243
9.830000	 19.241
9.847999	 19.2458
9.866000	 19.2517
9.884000	 19.2561
9.902000	 19.2602
9.920000	 19.2657
9.937999	 19.2726
9.956000	 19.2765
9.974000	 19.2722
9.992000	 19.2587
10.01	19.2406
10.028	19.2265
10.046	19.2222
10.064	19.2288
10.082	19.2448
10.1	19.27
10.118	19.307
10.136	19.3561
10.154	19.41
10.172	19.4522
10.19	19.4624
10.208	19.4293
10.226	19.3573
10.244	19.2665
10.262	19.1835
10.28	19.1271
10.298	19.103
10.316	19.1037
10.334	19.1184
10.352	19.1408
10.37	19.1695
10.388	19.2042
10.406	19.241
10.424	19.2725
10.442	19.2929
10.46	19.3025
10.478	19.307
10.496	19.3121
10.514	19.3179
10.532	19.3172
10.55	19.3004
10.568	19.2611
10.586	19.1992
10.604	19.1204
10.622	19.0346
10.64	18.9536
10.658	18.8898
10.676	18.8529
10.694	18.8451
10.712	18.8585
10.73	18.8793
10.748	18.8926
10.766	18.8923
10.784	18.8823
10.802	18.8738
10.82	18.8761
10.838	18.8909
10.856	18.9115
10.874	18.9284
10.892	18.9367
10.91	18.9385
10.928	18.941
10.946	18.9511
10.964	18.9701
10.982	18.9928
11	19.0088
11.018	19.0084
11.036	18.9861
11.054	18.942
11.072	18.8815
11.09	18.8122
11.108	18.742
11.126	18.6778
11.144	18.6252
11.162	18.5875
11.18	18.5662
11.198	18.5594
11.216	18.5629
11.234	18.5717
11.252	18.5812
11.27	18.5897
11.288	18.5994
11.306	18.6136
11.324	18.6358
11.342	18.6665
11.36	18.7031
11.378	18.7407
11.396	18.7752
11.414	18.8038
11.432	18.8268
11.45	18.8458
11.468	18.8619
11.486	18.8738
11.504	18.8782
11.522	18.8699
11.54	18.8438
11.558	18.7976
11.576	18.7331
11.594	18.656
11.612	18.5756
11.63	18.503
11.648	18.4469
11.666	18.4126
11.684	18.3994
11.702	18.4011
11.72	18.4074
11.738	18.4076
11.756	18.3951
11.774	18.3689
11.792	18.3348
11.81	18.3029
11.828	18.2837
11.846	18.2848
11.864	18.3078
11.882	18.347
11.9	18.3915
11.918	18.4284
11.936	18.4473
11.954	18.4434
11.972	18.4178
11.99	18.3768
12.008	18.3274
12.026	18.2755
12.044	18.2245
12.062	18.1748
12.08	18.1267
12.098	18.0821
12.116	18.0457
12.134	18.0236
12.152	18.0205
12.17	18.0373
12.188	18.0694
12.206	18.1075
12.224	18.1402
12.242	18.159
12.26	18.1602
12.278	18.1454
12.296	18.1203
12.314	18.0913
12.332	18.063
12.35	18.0373
12.368	18.0144
12.386	17.9939
12.404	17.9768
12.422	17.9658
12.44	17.9646
12.458	17.9756
12.476	17.9979
12.494	18.0265
12.512	18.0531
12.53	18.0682
12.548	18.0645
12.566	18.0389
12.584	17.9941
12.602	17.9369
12.62	17.8766
12.638	17.8219
12.656	17.7788
12.674	17.7494
12.692	17.7328
12.71	17.7256
12.728	17.7244
12.746	17.7264
12.764	17.7301
12.782	17.7349
12.8	17.7403
12.818	17.7453
12.836	17.7476
12.854	17.745
12.872	17.7351
12.89	17.7167
12.908	17.6902
12.926	17.6573
12.944	17.6212
12.962	17.585
12.98	17.5512
12.998	17.521
13.016	17.4939
13.034	17.4682
13.052	17.4419
13.07	17.4137
13.088	17.3832
13.106	17.3525
13.124	17.3244
13.142	17.303
13.16	17.2919
13.178	17.2933
13.196	17.3073
13.214	17.3312
13.232	17.3601
13.25	17.3876
13.268	17.407
13.286	17.4136
13.304	17.4055
13.322	17.3839
13.34	17.3527
13.358	17.3176
13.376	17.2842
13.394	17.2573
13.412	17.2396
13.43	17.2314
13.448	17.2317
13.466	17.2382
13.484	17.2483
13.502	17.2594
13.52	17.2697
13.538	17.2773
13.556	17.2812
13.574	17.2801
13.592	17.2727
13.61	17.2583
13.628	17.2365
13.646	17.2079
13.664	17.1737
13.682	17.1363
13.7	17.0979
13.718	17.0597
13.736	17.0224
13.754	16.9851
13.772	16.9467
13.79	16.9059
13.808	16.8622
13.826	16.8165
13.844	16.7708
13.862	16.7282
13.88	16.6924
13.898	16.6662
13.916	16.6515
13.934	16.6488
13.952	16.6571
13.97	16.674
13.988	16.6963
14.006	16.7208
14.024	16.7442
14.042	16.7638
14.06	16.7778
14.078	16.7844
14.096	16.7831
14.114	16.7734
14.132	16.7556
14.15	16.7312
14.168	16.7027
14.186	16.6741
14.204	16.6498
14.222	16.6348
14.24	16.6328
14.258	16.646
14.276	16.6744
14.294	16.7154
14.312	16.7647
14.33	16.8165
14.348	16.8645
14.366	16.9031
14.384	16.9278
14.402	16.9361
14.42	16.9277
14.438	16.9037
14.456	16.8664
14.474	16.819
14.492	16.7645
14.51	16.706
14.528	16.6459
14.546	16.5862
14.564	16.5283
14.582	16.4735
14.6	16.4229
14.618	16.3775
14.636	16.338
14.654	16.3048
14.672	16.2775
14.69	16.2551
14.708	16.2364
14.726	16.2198
14.744	16.2039
14.762	16.1876
14.78	16.1704
14.798	16.1524
14.816	16.1345
14.834	16.1182
14.852	16.1049
14.87	16.0962
14.888	16.0932
14.906	16.0965
14.924	16.1062
14.942	16.1214
14.96	16.1406
14.978	16.1625
14.996	16.1858
15.014	16.2091
15.032	16.2314
15.05	16.252
15.068	16.2707
15.086	16.2874
15.104	16.302
15.122	16.3143
15.14	16.3242
15.158	16.331
15.176	16.3341
15.194	16.3327
15.212	16.3263
15.23	16.314
15.248	16.2956
15.266	16.2705
15.284	16.2391
15.302	16.2019
15.32	16.16
15.338	16.1146
15.356	16.0672
15.374	16.0201
15.392	15.9748
15.41	15.9326
15.428	15.8948
15.446	15.8615
15.464	15.8324
15.482	15.8066
15.5	15.7828
15.518	15.7588
15.536	15.7327
15.554	15.7028
15.572	15.6678
15.59	15.6269
15.608	15.5809
15.626	15.5307
15.644	15.4783
15.662	15.4269
15.68	15.379
15.698	15.337
15.716	15.3038
15.734	15.2807
15.752	15.268
15.77	15.2658
15.788	15.2725
15.806	15.2862
15.824	15.3046
15.842	15.3253
15.86	15.3453
15.878	15.3627
15.896	15.376
15.914	15.3838
15.932	15.3859
15.95	15.3822
15.968	15.3733
15.986	15.3605
16.004	15.3448
16.022	15.3277
16.04	15.3109
16.058	15.2956
16.076	15.2827
16.094	15.2731
16.112	15.267
16.13	15.2642
16.148	15.2646
16.166	15.2669
16.184	15.2701
16.202	15.273
16.22	15.2738
16.238	15.2715
16.256	15.2649
16.274	15.2533
16.292	15.2369
16.31	15.2158
16.328	15.1915
16.346	15.1655
16.364	15.1392
16.382	15.1154
16.4	15.0956
16.418	15.0812
16.436	15.0738
16.454	15.0735
16.472	15.0803
16.49	15.0932
16.508	15.1105
16.526	15.1306
16.544	15.1509
16.562	15.1693
16.58	15.184
16.598	15.1928
16.616	15.195
16.634	15.19
16.652	15.1777
16.67	15.159
16.688	15.1346
16.706	15.1068
16.724	15.0768
16.742	15.0466
16.76	15.0183
16.778	14.9929
16.796	14.972
16.814	14.9562
16.832	14.9459
16.85	14.9413
16.868	14.9417
16.886	14.9469
16.904	14.9552
16.922	14.9658
16.94	14.9774
16.958	14.9882
16.976	14.9976
16.994	15.0038
17.012	15.0061
17.03	15.004
17.048	14.997
17.066	14.9856
17.084	14.9699
17.102	14.9509
17.12	14.9292
17.138	14.9063
17.156	14.8831
17.174	14.8607
17.192	14.8402
17.21	14.8219
17.228	14.8064
17.246	14.7934
17.264	14.7829
17.282	14.7738
17.3	14.7657
17.318	14.7574
17.336	14.7479
17.354	14.7368
17.372	14.7231
17.39	14.7069
17.408	14.6882
17.426	14.6677
17.444	14.6457
17.462	14.6238
17.48	14.6025
17.498	14.5832
17.516	14.5665
17.534	14.5531
17.552	14.5435
17.57	14.5375
17.588	14.5348
17.606	14.5346
17.624	14.536
17.642	14.5376
17.66	14.5386
17.678	14.5371
17.696	14.5329
17.714	14.5244
17.732	14.5116
17.75	14.4939
17.768	14.4717
17.786	14.4449
17.804	14.4146
17.822	14.3809
17.84	14.3451
17.858	14.3078
17.876	14.2697
17.894	14.2315
17.912	14.1938
17.93	14.1569
17.948	14.121
17.966	14.0863
17.984	14.0526
18.002	14.0202
18.02	13.9888
18.038	13.9585
18.056	13.9292
18.074	13.9009
18.092	13.8733
18.11	13.8464
18.128	13.8201
18.146	13.7943
18.164	13.7685
18.182	13.7428
18.2	13.717
18.218	13.6912
18.236	13.6653
18.254	13.6399
18.272	13.6152
18.29	13.5925
18.308	13.5719
18.326	13.5551
18.344	13.5423
18.362	13.5355
18.38	13.5347
18.398	13.5412
18.416	13.5549
18.434	13.5765
18.452	13.605
18.47	13.6403
18.488	13.6802
18.506	13.7245
18.524	13.7697
18.542	13.8154
18.56	13.8575
18.578	13.8957
18.596	13.9263
18.614	13.9492
18.632	13.9618
18.65	13.9641
18.668	13.9555
18.686	13.9363
18.704	13.9076
18.722	13.8699
18.74	13.8257
18.758	13.7756
18.776	13.7226
18.794	13.6676
18.812	13.6134
18.83	13.5605
18.848	13.5112
18.866	13.4657
18.884	13.4254
18.902	13.3902
18.92	13.3605
18.938	13.3361
18.956	13.3167
18.974	13.3018
18.992	13.2911
19.01	13.2839
19.028	13.2793
19.046	13.2769
19.064	13.2759
19.082	13.2759
19.1	13.276
19.118	13.2761
19.136	13.2753
19.154	13.2736
19.172	13.2705
19.19	13.266
19.208	13.2599
19.226	13.2523
19.244	13.2432
19.262	13.2329
19.28	13.2219
19.298	13.2102
19.316	13.1988
19.334	13.1874
19.352	13.1771
19.37	13.1677
19.388	13.1601
19.406	13.1542
19.424	13.1504
19.442	13.1486
19.46	13.1485
19.478	13.1502
19.496	13.1529
19.514	13.1563
19.532	13.1595
19.55	13.162
19.568	13.1631
19.586	13.1618
19.604	13.158
19.622	13.1506
19.64	13.1397
19.658	13.125
19.676	13.1064
19.694	13.0843
19.712	13.0586
19.73	13.0304
19.748	12.9995
19.766	12.9675
19.784	12.9346
19.802	12.9018
19.82	12.8699
19.838	12.8391
19.856	12.8105
19.874	12.7838
19.892	12.7598
19.91	12.7383
19.928	12.7193
19.946	12.7029
19.964	12.6885
19.982	12.6761
20	12.6652
20.018	12.6554
20.036	12.6466
20.054	12.6381
20.072	12.6301
20.09	12.6222
20.108	12.6144
20.126	12.6067
20.144	12.5989
20.162	12.5916
20.18	12.5845
20.198	12.5782
20.216	12.573
20.234	12.5691
20.252	12.5672
20.27	12.5674
20.288	12.5701
20.306	12.5756
20.324	12.5837
20.342	12.5947
20.36	12.6084
20.378	12.6248
20.396	12.6437
20.414	12.6644
20.432	12.6871
20.45	12.711
20.468	12.7358
20.486	12.7612
20.504	12.786
20.522	12.8106
20.54	12.8338
20.558	12.8557
20.576	12.8755
20.594	12.8929
20.612	12.9078
20.63	12.9197
20.648	12.9288
20.666	12.9346
20.684	12.9373
20.702	12.9367
20.72	12.9326
20.738	12.9252
20.756	12.9142
20.774	12.8998
20.792	12.882
20.81	12.8608
20.828	12.8364
20.846	12.8089
20.864	12.7783
20.882	12.7452
20.9	12.7095
20.918	12.6718
20.936	12.6324
20.954	12.5914
20.972	12.5499
20.99	12.5077
21.008	12.4657
21.026	12.4241
21.044	12.3831
21.062	12.3436
21.08	12.3054
21.098	12.2687
21.116	12.2338
21.134	12.2003
21.152	12.1683
21.17	12.1378
21.188	12.1076
21.206	12.0777
21.224	12.0475
21.242	12.0155
21.26	11.9822
21.278	11.9454
21.296	11.905
21.314	11.8605
21.332	11.8103
21.35	11.7548
21.368	11.693
21.386	11.6245
21.404	11.5497
21.422	11.4688
21.44	11.3815
21.458	11.2893
21.476	11.1923
21.494	11.0912
21.512	10.9888
21.53	10.8841
21.548	10.78
21.566	10.6784
21.584	10.5787
21.602	10.4854
21.62	10.3978
21.638	10.3177
21.656	10.2477
21.674	10.1868
21.692	10.1373
21.71	10.1
21.728	10.0745
21.746	10.0619
21.764	10.0622
21.782	10.0747
21.8	10.0994
21.818	10.1363
21.836	10.183
21.854	10.2401
21.872	10.3062
21.89	10.3784
21.908	10.458
21.926	10.5418
21.944	10.6277
21.962	10.7167
21.98	10.8045
21.998	10.8915
22.016	10.9764
22.034	11.0557
22.052	11.1306
22.07	11.1992
22.088	11.2597
22.106	11.3131
22.124	11.358
22.142	11.3939
22.16	11.4213
22.178	11.4405
22.196	11.4509
22.214	11.4536
22.232	11.4494
22.25	11.4377
22.268	11.4204
22.286	11.3985
22.304	11.3714
22.322	11.3419
22.34	11.3099
22.358	11.2759
22.376	11.2422
22.394	11.2082
22.412	11.1748
22.43	11.1435
22.448	11.1137
22.466	11.0862
22.484	11.0617
22.502	11.04
22.52	11.0212
22.538	11.0057
22.556	10.9931
22.574	10.9835
22.592	10.9769
22.61	10.9732
22.628	10.9716
22.646	10.9726
22.664	10.9757
22.682	10.9797
22.7	10.9853
22.718	10.9916
22.736	10.9975
22.754	11.0038
22.772	11.0094
22.79	11.0135
22.808	11.0166
22.826	11.0181
22.844	11.0174
22.862	11.015
22.88	11.0102
22.898	11.0028
22.916	10.9929
22.934	10.9806
22.952	10.9657
22.97	10.9484
22.988	10.9294
23.006	10.9087
23.024	10.8864
23.042	10.8637
23.06	10.8403
23.078	10.8164
23.096	10.7935
23.114	10.7715
23.132	10.7504
23.15	10.7311
23.168	10.7137
23.186	10.6981
23.204	10.6845
23.222	10.6731
23.24	10.6636
23.258	10.6552
23.276	10.6482
23.294	10.6423
23.312	10.6366
23.33	10.6317
23.348	10.627
23.366	10.6207
23.384	10.6131
23.402	10.6039
23.42	10.5907
23.438	10.5739
23.456	10.5532
23.474	10.5261
23.492	10.4924
23.51	10.4525
23.528	10.4046
23.546	10.3482
23.564	10.2837
23.582	10.2103
23.6	10.1273
23.618	10.0352
23.636	9.934263
23.654	9.824418
23.672	9.705545
23.69	9.579002
23.708	9.445459
23.726	9.304058
23.744	9.156950
23.762	9.005846
23.78	8.849225
23.798	8.689436
23.816	8.529098
23.834	8.366502
23.852	8.203573
23.87	8.043430
23.888	7.884613
23.906	7.728410
23.924	7.578426
23.942	7.434203
23.96	7.295720
23.978	7.166504
23.996	7.047635
24.014	6.937780
24.032	6.839404
24.05	6.754067
24.068	6.680434
24.086	6.619791
24.104	6.573537
24.122	6.541296
24.14	6.522601
24.158	6.517203
24.176	6.525646
24.194	6.547143
24.212	6.580234
24.23	6.624691
24.248	6.680822
24.266	6.747541
24.284	6.824306
24.302	6.911679
24.32	7.008585
24.338	7.114122
24.356	7.229446
24.374	7.352886
24.392	7.482063
24.41	7.618126
24.428	7.760328
24.446	7.905185
24.464	8.051281
24.482	8.200218
24.5	8.349884
24.518	8.498710
24.536	8.648738
24.554	8.797244
24.572	8.940563
24.59	9.080653
24.608	9.216427
24.626	9.342667
24.644	9.457849
24.662	9.565010
24.68	9.657913
24.698	9.730982
24.716	9.788745
24.734	9.827472
24.752	9.840437
24.77	9.827733
24.788	9.791086
24.806	9.725227
24.824	9.626510
24.842	9.498133
24.86	9.338048
24.878	9.143348
24.896	8.912927
24.914	8.648989
24.932	8.354001
24.95	8.027967
24.968	7.668499
24.986	7.282895
25.004	6.878396
25.022	6.448074
25.04	5.997564
25.058	5.540225
25.076	5.079780
25.094	4.607651
25.112	4.140099
25.13	3.693297
25.148	3.257432
25.166	2.837381
25.184	2.448973
25.202	2.099348
25.22	1.779001
25.238	1.497323
25.256	1.264453
25.274	1.078180
25.292	0.936712
25.31	0.842763
25.328	0.799222
25.346	0.805868
25.364	0.857597
25.382	0.949172
25.4	1.086501
25.418	1.266342
25.436	1.474412
25.454	1.701093
25.472	1.959541
25.49	2.236048
25.508	2.511656
25.526	2.785704
25.544	3.066850
25.562	3.334751
25.58	3.570282
25.598	3.784594
25.616	3.974254
25.634	4.124191
25.652	4.224469
25.67	4.284246
25.688	4.300079
25.706	4.266758
25.724	4.179276
25.742	4.041569
25.76	3.862488
25.778	3.649444
25.796	3.388424
25.814	3.091710
25.832	2.783148
25.85	2.475296
25.868	2.144491
25.886	1.817700
25.904	1.528404
25.922	1.279540
25.94	1.052128
25.958	0.879632
25.976	0.795753
25.994	0.787419
26.012	0.851529
26.03	1.013844
26.048	1.297025
26.066	1.687600
26.084	2.186207
26.102	2.802096
26.12	3.543885
26.138	4.410120
26.156	5.390669
26.174	6.475196
26.192	7.666892
26.21	8.975257
26.228	10.372
26.246	11.8278
26.264	13.3527
26.282	14.9556
26.3	16.5961
26.318	18.2345
26.336	19.8935
26.354	21.5723
26.372	23.2306
26.39	24.8315
26.408	26.4031
26.426	27.9375
26.444	29.4018
26.462	30.7686
26.48	32.0602
26.498	33.2707
26.516	34.3825
26.534	35.3816
26.552	36.2783
26.57	37.0732
26.588	37.7639
26.606	38.3459
26.624	38.8154
26.642	39.1852
26.66	39.4698
26.678	39.6753
26.696	39.7876
26.714	39.8222
26.732	39.7971
26.75	39.7196
26.768	39.5732
26.786	39.3746
26.804	39.1433
26.822	38.8897
26.84	38.601
26.858	38.2817
26.876	37.9379
26.894	37.5755
26.912	37.1938
26.93	36.785
26.948	36.3409
26.966	35.8252
26.984	35.1969
27.002	34.5733
27.02	34.0812
27.028	33.952