File: Bakgrunnsmateriale/MATLAB/FTIR/ftir_data/LPE453/Mapping_121/LPE453_t92_cm-1.asc
PE IR       SPECTRUM    SPECTRUM    ASCII       PEDS        1.60
  -1
LPDB50~1.ASC
17/05/16
21:57:26.00
17/05/16
21:57:26.00
tln
$LPE453_t0092$<tbV0>[5.2,7.8,8.0,0.0,27,1,0]
370
64

2002,4.07
MIRTGS : RIGHTBACK : INTERNAL 2
MIR : ON : INTERNAL 2
OPTKBR

0.200000
8
8.000000
FILLER
RATIO
SPECTRUM
UNLOCKED 256

DOUBLE
64
COMBINED
1
0
0

1.000000
RATIO

1
0
TRUE
51149
0
LEFT NOT FITTED RIGHT NOT FITTED 0
NONE
NONE
15600
12
4.427000
51148
TRUE
1 0 8 72 0 0 0 0

15798

#HDR
-1
-1
#GR
CM-1
%T
2.38419e-05
0.0
5000
-1.000000
4631
8
36.239
-6.209516
#DATA
5000	-0.077843
4996	-0.089621
4992	0.129389
4988	0.623321
4984	0.765895
4980	0.444316
4976	0.142288
4972	0.080585
4968	0.111556
4964	0.206518
4960	0.332951
4956	0.497317
4952	0.546789
4948	0.202870
4944	-0.155925
4940	-0.159335
4936	-0.140547
4932	-0.204467
4928	-0.134611
4924	-0.137281
4920	-0.298571
4916	-0.249695
4912	0.031805
4908	0.150394
4904	0.014233
4900	0.019073
4896	0.151109
4892	-0.024700
4888	-0.154566
4884	0.058627
4880	0.089716
4876	-0.250434
4872	-0.262379
4868	0.261187
4864	0.576186
4860	0.603866
4856	0.488734
4852	0.350189
4848	0.277400
4844	0.086951
4840	-0.111103
4836	-0.087332
4832	-0.014638
4828	-0.102066
4824	0.010251
4820	0.215649
4816	0.079202
4812	-0.064539
4808	-0.038886
4804	0.029706
4800	0.110650
4796	-0.023341
4792	-0.221681
4788	-0.148463
4784	0.145912
4780	0.445413
4776	0.479125
4772	0.335526
4768	0.340557
4764	0.545954
4760	0.645303
4756	0.472402
4752	0.425791
4748	0.637769
4744	0.650906
4740	0.336909
4736	0.035858
4732	-0.116825
4728	-0.222992
4724	-0.294280
4720	-0.331377
4716	-0.404834
4712	-0.519657
4708	-0.436568
4704	-0.056362
4700	0.066995
4696	-0.018954
4692	0.198125
4688	0.481057
4684	0.595641
4680	0.408744
4676	-0.064277
4672	-0.405097
4668	-0.606775
4664	-0.547194
4660	0.399661
4656	1.540732
4652	1.884412
4648	1.055169
4644	-0.318121
4640	-0.392293
4636	0.471830
4632	0.503087
4628	0.182533
4624	0.256228
4620	0.463724
4616	0.789022
4612	0.993537
4608	1.152682
4604	1.698589
4600	1.600670
4596	0.725555
4592	0.276637
4588	0.166344
4584	0.303840
4580	0.802803
4576	1.122903
4572	1.148486
4568	1.072406
4564	0.918650
4560	0.544667
4556	0.041270
4552	0.061607
4548	0.646495
4544	0.505948
4540	-0.169992
4536	-0.166392
4532	0.038838
4528	-0.452399
4524	-1.044750
4520	-1.046562
4516	1.312088
4512	6.514835
4508	7.902503
4504	5.414009
4500	5.115246
4496	1.799488
4492	-3.890538
4488	-6.122112
4484	-5.354452
4480	-1.832413
4476	0.346446
4472	0.134396
4468	0.222682
4464	0.235605
4460	-0.080561
4456	-0.388431
4452	-0.512623
4448	-0.392508
4444	-0.156879
4440	0.261163
4436	0.638008
4432	0.640344
4428	0.513291
4424	0.491738
4420	0.465393
4416	0.236034
4412	-0.043559
4408	-0.144267
4404	-0.106239
4400	0.241613
4396	0.738620
4392	0.823211
4388	0.638151
4384	0.413966
4380	0.212073
4376	0.297284
4372	0.504231
4368	0.452232
4364	0.211095
4360	0.044584
4356	0.065779
4352	0.193738
4348	0.272703
4344	0.227665
4340	0.107312
4336	0.008153
4332	0.004982
4328	0.267648
4324	0.665140
4320	0.683116
4316	0.377964
4312	0.262117
4308	0.223350
4304	-0.064778
4300	-0.292253
4296	-0.215673
4292	-0.006008
4288	0.089573
4284	0.133705
4280	0.245165
4276	0.308704
4272	0.229310
4268	0.156044
4264	0.192928
4260	0.309014
4256	0.352311
4252	0.237679
4248	0.071573
4244	-0.051736
4240	-0.082635
4236	-0.036311
4232	0.072240
4228	0.182533
4224	0.236654
4220	0.196909
4216	0.122857
4212	0.154972
4208	0.235915
4204	0.263237
4200	0.257730
4196	0.205135
4192	0.151944
4188	0.116395
4184	0.001335
4180	-0.065588
4176	-0.058674
4172	-0.064826
4168	0.017762
4164	0.112128
4160	0.115919
4156	0.086688
4152	0.138735
4148	0.257849
4144	0.176930
4140	0.000834
4136	0.039911
4132	0.072550
4128	-0.091361
4124	-0.266122
4120	-0.290131
4116	-0.229358
4112	-0.241446
4108	-0.202655
4104	-0.017237
4100	0.113677
4096	0.122308
4092	0.061058
4088	-0.020384
4084	-0.060582
4080	-0.118041
4076	-0.075817
4072	0.093221
4068	0.149822
4064	0.052022
4060	-0.044989
4056	-0.017952
4052	-0.001239
4048	-0.035381
4044	-0.015974
4040	-0.061202
4036	-0.031399
4032	0.152993
4028	0.212526
4024	0.190901
4020	0.166320
4016	0.081968
4012	0.115609
4008	0.205612
4004	0.193715
4000	0.134253
3996	0.066471
3992	-0.024771
3988	-0.065517
3984	-0.045466
3980	-0.014019
3976	0.062251
3972	0.110673
3968	0.059247
3964	0.065755
3960	0.203204
3956	0.224304
3952	0.063347
3948	-0.007200
3944	0.050711
3940	0.005674
3936	-0.092411
3932	-0.052762
3928	0.022602
3924	0.049686
3920	0.072145
3916	0.064086
3912	0.034141
3908	0.002646
3904	-0.025820
3900	-0.074863
3896	-0.143265
3892	-0.113534
3888	-0.050163
3884	-0.046157
3880	0.034904
3876	0.175595
3872	0.186443
3868	0.084805
3864	0.037145
3860	0.093555
3856	0.115489
3852	0.071692
3848	0.086212
3844	0.108051
3840	0.114607
3836	0.094485
3832	0.042629
3828	0.029349
3824	0.007271
3820	-0.006031
3816	0.073027
3812	0.190734
3808	0.203132
3804	0.104832
3800	0.014376
3796	-0.018763
3792	-0.030183
3788	-0.048637
3784	-0.045585
3780	-0.034999
3776	-0.014805
3772	-0.003719
3768	-0.074529
3764	-0.097155
3760	-0.047278
3756	-0.047183
3752	-0.056362
3748	-0.052738
3744	-0.033688
3740	-0.042176
3736	-0.058436
3732	-0.070786
3728	-0.068211
3724	-0.010848
3720	-0.015616
3716	-0.061774
3712	-0.009989
3708	0.018858
3704	-0.059127
3700	-0.065207
3696	0.036001
3692	0.086045
3688	0.034642
3684	-0.015473
3680	0.016236
3676	0.093817
3672	0.137352
3668	0.073909
3664	-0.008821
3660	0.027275
3656	0.118923
3652	0.172710
3648	0.194001
3644	0.134921
3640	0.036382
3636	0.046873
3632	0.045466
3628	-0.039768
3624	-0.043034
3620	-0.027251
3616	-0.028443
3612	0.072646
3608	0.097346
3604	-0.048136
3600	-0.077772
3596	0.096440
3592	0.201725
3588	0.116300
3584	0.048446
3580	0.059676
3576	-0.017356
3572	-0.097632
3568	-0.096702
3564	-0.061058
3560	0.022363
3556	0.062179
3552	0.026392
3548	0.006079
3544	0.060582
3540	0.077009
3536	0.008749
3532	0.060153
3528	0.194382
3524	0.232529
3520	0.181102
3516	0.078225
3512	0.003790
3508	-0.004267
3504	0.006151
3500	0.050139
3496	0.092887
3492	0.092720
3488	0.005221
3484	-0.104689
3480	-0.073623
3476	-0.004529
3472	-0.071239
3468	-0.090551
3464	0.063943
3460	0.191521
3456	0.135946
3452	0.014519
3448	-0.010180
3444	0.004148
3440	-0.022482
3436	-0.015735
3432	0.014209
3428	0.003790
3424	0.057244
3420	0.213527
3416	0.260949
3412	0.190091
3408	0.198507
3404	0.184655
3400	0.085330
3396	0.082540
3392	0.092935
3388	-0.004839
3384	-0.077366
3380	-0.040555
3376	0.051069
3372	0.095462
3368	0.062370
3364	-0.010800
3360	-0.094366
3356	-0.135397
3352	-0.088024
3348	0.031352
3344	0.158619
3340	0.184178
3336	0.122332
3332	0.065946
3328	-0.004410
3324	-0.041913
3320	0.007104
3316	-0.007557
3312	-0.102925
3308	-0.060296
3304	0.039100
3300	-0.009131
3296	-0.058031
3292	0.001454
3288	0.068545
3284	0.101637
3280	0.103092
3276	0.091457
3272	0.099730
3268	0.082945
3264	0.040054
3260	0.086784
3256	0.171160
3252	0.177192
3248	0.157046
3244	0.135421
3240	0.044560
3236	-0.053358
3232	-0.015139
3228	0.067067
3224	0.036811
3220	-0.019907
3216	0.015640
3212	0.090432
3208	0.113582
3204	0.057363
3200	-0.040197
3196	-0.089359
3192	-0.042200
3188	0.026035
3184	0.014710
3180	-0.024127
3176	-0.017356
3172	-0.000333
3168	0.045442
3164	0.147199
3160	0.198960
3156	0.173521
3152	0.146079
3148	0.125789
3144	0.098371
3140	0.034880
3136	0.066161
3132	0.208210
3128	0.257062
3124	0.263738
3120	0.240826
3116	0.098013
3112	0.012660
3108	0.035715
3104	0.055694
3100	0.095391
3096	0.123333
3092	0.117349
3088	0.130677
3084	0.118589
3080	0.053811
3076	0.056362
3072	0.074839
3068	0.010108
3064	0.003218
3060	0.019240
3056	-0.040388
3052	-0.058293
3048	-0.019264
3044	0.016260
3040	0.046229
3036	0.018024
3032	-0.044083
3028	-0.033497
3024	-0.025868
3020	-0.045919
3016	0.001645
3012	0.034236
3008	0.036740
3004	0.036144
3000	-0.045371
2996	-0.136733
2992	-0.102853
2988	-0.038504
2984	-0.046062
2980	-0.009751
2976	0.072669
2972	0.119757
2968	0.103998
2964	0.017452
2960	-0.047016
2956	-0.045371
2952	-0.023031
2948	0.000929
2944	0.031661
2940	0.064086
2936	0.097084
2932	0.107812
2928	0.092530
2924	0.060987
2920	0.017213
2916	0.059604
2912	0.154590
2908	0.145840
2904	0.072026
2900	0.030612
2896	0.041532
2892	0.069880
2888	0.068807
2884	0.110125
2880	0.177717
2876	0.147795
2872	0.081253
2868	0.083017
2864	0.135898
2860	0.155663
2856	0.084733
2852	0.013995
2848	0.032639
2844	0.077319
2840	0.050020
2836	-0.018072
2832	-0.025105
2828	0.039958
2824	0.086021
2820	0.081968
2816	0.070953
2812	0.056409
2808	0.044298
2804	0.016999
2800	-0.030422
2796	-0.048518
2792	-0.035166
2788	-0.011062
2784	-0.009608
2780	-0.027585
2776	-0.052595
2772	-0.099754
2768	-0.133395
2764	-0.067019
2760	0.058937
2756	0.113272
2752	0.158071
2748	0.199985
2744	0.159621
2740	0.079679
2736	0.032329
2732	0.072336
2728	0.105738
2724	0.065684
2720	0.029373
2716	-0.016355
2712	-0.055932
2708	-0.033736
2704	0.011920
2700	0.063014
2696	0.138068
2692	0.178146
2688	0.134801
2684	0.090122
2680	0.094819
2676	0.104880
2672	0.120878
2668	0.130772
2664	0.085520
2660	0.023651
2656	-0.016498
2652	-0.050950
2648	-0.049448
2644	-0.001144
2640	0.027394
2636	-0.003957
2632	-0.008368
2628	0.012660
2624	-0.032997
2620	-0.046968
2616	0.001645
2612	0.049376
2608	0.084948
2604	0.050354
2600	0.017094
2596	0.069761
2592	0.103187
2588	0.112175
2584	0.140357
2580	0.120854
2576	0.080466
2572	0.074815
2568	0.091934
2564	0.098490
2560	0.070714
2556	0.027704
2552	0.003075
2548	0.014567
2544	0.043416
2540	0.056815
2536	0.049591
2532	0.001668
2528	-0.062465
2524	-0.061655
2520	-0.010538
2516	0.012469
2512	-0.008749
2508	-0.015497
2504	-0.023341
2500	-0.060820
2496	-0.053429
2492	0.001978
2488	0.025296
2484	0.009775
2480	0.003004
2476	0.027894
2472	0.085783
2468	0.122261
2464	0.120329
2460	0.121998
2456	0.121760
2452	0.083255
2448	0.002002
2444	-0.057983
2440	-0.004553
2436	0.097131
2432	0.109934
2428	0.045895
2424	0.010132
2420	0.052094
2416	0.094199
2412	0.033998
2408	-0.031685
2404	0.052928
2400	0.176811
2396	0.183963
2392	0.140643
2388	0.118398
2384	0.122499
2380	0.148057
2376	0.142502
2372	0.128793
2368	0.149512
2364	0.147199
2360	0.132226
2356	0.140690
2352	0.138211
2348	0.133180
2344	0.138139
2340	0.139403
2336	0.161600
2332	0.221157
2328	0.268983
2324	0.297141
2320	0.347781
2316	0.366973
2312	0.349879
2308	0.388407
2304	0.456309
2300	0.495147
2296	0.556159
2292	0.643324
2288	0.714969
2284	0.784373
2280	0.854921
2276	0.959205
2272	1.090264
2268	1.227092
2264	1.349210
2260	1.377058
2256	1.402139
2252	1.553773
2248	1.765942
2244	1.971840
2240	2.157187
2236	2.310371
2232	2.487325
2228	2.704930
2224	2.905893
2220	3.141617
2216	3.428792
2212	3.681683
2208	3.935527
2204	4.192662
2200	4.440331
2196	4.770112
2192	5.154681
2188	5.505657
2184	5.836105
2180	6.216096
2176	6.608438
2172	6.916570
2168	7.296442
2164	7.869672
2160	8.395028
2156	8.718562
2152	9.031772
2148	9.513330
2144	10.0762
2140	10.5875
2136	11.0637
2132	11.6004
2128	12.1741
2124	12.6728
2120	13.1066
2116	13.5886
2112	14.1882
2108	14.8051
2104	15.3355
2100	15.8239
2096	16.3416
2092	16.8791
2088	17.3473
2084	17.8486
2080	18.5033
2076	19.1025
2072	19.493
2068	19.8269
2064	20.3256
2060	20.9839
2056	21.5392
2052	21.9194
2048	22.3011
2044	22.7134
2040	23.1329
2036	23.5792
2032	24.0288
2028	24.439
2024	24.8126
2020	25.235
2016	25.6963
2012	26.1252
2008	26.4917
2004	26.7668
2000	27.0034
1996	27.283
1992	27.6087
1988	27.9133
1984	28.2109
1980	28.5732
1976	28.9498
1972	29.3025
1968	29.6203
1964	29.8632
1960	30.0856
1956	30.3361
1952	30.5529
1948	30.7086
1944	30.8535
1940	31.0421
1936	31.2567
1932	31.4269
1928	31.5753
1924	31.777
1920	31.991
1916	32.2022
1912	32.4285
1908	32.6098
1904	32.722
1900	32.8256
1896	32.9839
1892	33.1305
1888	33.2031
1884	33.2633
1880	33.3594
1876	33.4395
1872	33.5171
1868	33.7183
1864	33.9718
1860	34.1743
1856	34.3327
1852	34.3997
1848	34.4269
1844	34.474
1840	34.4831
1836	34.4596
1832	34.4674
1828	34.5216
1824	34.6019
1820	34.7216
1816	34.8864
1812	35.0008
1808	35.0905
1804	35.2461
1800	35.3438
1796	35.3111
1792	35.2428
1788	35.2303
1784	35.2557
1780	35.2567
1776	35.2425
1772	35.2497
1768	35.2965
1764	35.3579
1760	35.4215
1756	35.5302
1752	35.6877
1748	35.8118
1744	35.8342
1740	35.8024
1736	35.7512
1732	35.6604
1728	35.6127
1724	35.64
1720	35.6451
1716	35.5975
1712	35.6172
1708	35.7623
1704	35.9093
1700	35.9831
1696	36.0177
1692	36.0479
1688	36.0729
1684	36.0772
1680	36.0368
1676	35.9467
1672	35.8674
1668	35.8127
1664	35.7497
1660	35.6992
1656	35.7152
1652	35.7922
1648	35.8745
1644	35.9725
1640	36.0882
1636	36.164
1632	36.17
1628	36.129
1624	36.0603
1620	35.9605
1616	35.8481
1612	35.7723
1608	35.7234
1604	35.6901
1600	35.7442
1596	35.8602
1592	35.9833
1588	36.1211
1584	36.2266
1580	36.2205
1576	36.1433
1572	36.097
1568	36.0706
1564	36.0136
1560	35.9451
1556	35.9122
1552	35.8531
1548	35.74
1544	35.6895
1540	35.7702
1536	35.924
1532	36.0653
1528	36.1533
1524	36.1795
1520	36.182
1516	36.1708
1512	36.0581
1508	35.8849
1504	35.7809
1500	35.6525
1496	35.5125
1492	35.56
1488	35.6887
1484	35.7587
1480	35.8203
1476	35.9037
1472	35.9517
1468	35.9282
1464	35.8766
1460	35.8215
1456	35.787
1452	35.8234
1448	35.8177
1444	35.6695
1440	35.5007
1436	35.4204
1432	35.4655
1428	35.6049
1424	35.7196
1420	35.7405
1416	35.7037
1412	35.6957
1408	35.7578
1404	35.8134
1400	35.748
1396	35.5996
1392	35.4743
1388	35.3868
1384	35.3388
1380	35.3003
1376	35.2856
1372	35.3612
1368	35.4659
1364	35.5401
1360	35.6435
1356	35.7386
1352	35.7433
1348	35.7003
1344	35.6506
1340	35.6055
1336	35.5237
1332	35.3562
1328	35.1742
1324	35.0711
1320	35.0765
1316	35.1795
1312	35.3157
1308	35.405
1304	35.4344
1300	35.4682
1296	35.5169
1292	35.5124
1288	35.4572
1284	35.3605
1280	35.2221
1276	35.1073
1272	35.0158
1268	34.9308
1264	34.9079
1260	34.9553
1256	35.0399
1252	35.1606
1248	35.2953
1244	35.3456
1240	35.3477
1236	35.4343
1232	35.4976
1228	35.4228
1224	35.2654
1220	35.0602
1216	34.8775
1212	34.7868
1208	34.767
1204	34.8054
1200	34.8703
1196	34.9319
1192	35.0115
1188	35.1029
1184	35.1664
1180	35.1736
1176	35.1181
1172	35.0307
1168	34.9296
1164	34.7762
1160	34.6549
1156	34.6038
1152	34.5072
1148	34.4423
1144	34.4947
1140	34.66
1136	34.8959
1132	34.9991
1128	34.9404
1124	34.8856
1120	34.8329
1116	34.7478
1112	34.6602
1108	34.4496
1104	34.0958
1100	33.8963
1096	33.9972
1092	34.1338
1088	34.1716
1084	34.2679
1080	34.387
1076	34.4568
1072	34.5662
1068	34.6518
1064	34.62
1060	34.5592
1056	34.4889
1052	34.3785
1048	34.2204
1044	34.0232
1040	33.8607
1036	33.7627
1032	33.6831
1028	33.634
1024	33.7351
1020	33.8731
1016	33.9666
1012	34.1161
1008	34.1576
1004	34.0542
1000	34.036
996	 34.0412
992	 33.8463
988	 33.5769
984	 33.5387
980	 33.6034
976	 33.4919
972	 33.357
968	 33.3661
964	 33.5137
960	 33.6614
956	 33.7038
952	 33.7678
948	 33.8041
944	 33.703
940	 33.5248
936	 33.2715
932	 32.9429
928	 32.7054
924	 32.656
920	 32.6139
916	 32.5584
912	 32.6679
908	 32.813
904	 32.8277
900	 32.837
896	 32.9009
892	 32.8937
888	 32.7641
884	 32.6752
880	 32.6712
876	 32.5384
872	 32.3234
868	 32.2195
864	 32.1469
860	 32.057
856	 32.0215
852	 32.094
848	 32.2693
844	 32.3977
840	 32.3404
836	 32.1921
832	 32.1539
828	 32.1875
824	 32.0542
820	 31.7326
816	 31.5213
812	 31.4804
808	 31.3565
804	 31.2065
800	 31.1783
796	 31.1982
792	 31.2907
788	 31.3595
784	 31.3073
780	 31.3286
776	 31.4254
772	 31.3621
768	 31.2057
764	 31.0891
760	 30.8546
756	 30.5488
752	 30.4423
748	 30.5778
744	 30.6818
740	 30.6058
736	 30.5348
732	 30.5929
728	 30.6979
724	 30.6421
720	 30.4654
716	 30.2747
712	 29.9271
708	 29.6203
704	 29.6248
700	 29.627
696	 29.413
692	 29.1925
688	 29.1305
684	 29.1679
680	 29.125
676	 29.1098
672	 29.2333
668	 29.3293
664	 29.348
660	 29.2217
656	 28.998
652	 28.8571
648	 28.7077
644	 28.5661
640	 28.3992
636	 28.0043
632	 27.7695
628	 27.8945
624	 27.9489
620	 27.9181
616	 27.8785
612	 27.6834
608	 27.3442
604	 27.3355
600	 27.6844
596	 27.6842
592	 27.4092
588	 27.3131
584	 27.3034
580	 27.1505
576	 26.8291
572	 26.4969
568	 26.5131
564	 26.823
560	 26.9565
556	 26.9497
552	 26.9315
548	 26.7411
544	 26.4429
540	 26.0997
536	 25.7303
532	 25.5452
528	 25.5244
524	 25.3737
520	 25.026
516	 24.9566
512	 25.2239
508	 25.2081
504	 24.8131
500	 24.5544
496	 24.5006
492	 24.3707
488	 24.5
484	 24.7841
480	 24.6855
476	 24.1027
472	 23.2556
468	 22.7694
464	 22.4947
460	 22.2796
456	 22.4178
452	 22.8542
448	 23.5605
444	 24.0615
440	 24.189
436	 24.1119
432	 22.9654
428	 21.0659
424	 20.7079
420	 21.4311
416	 20.9693
412	 20.4626
408	 21.9614
404	 21.8428
400	 14.9488
396	 8.517742
392	 12.9227
388	 21.4807
384	 20.1739
380	 15.6042
376	 17.6781
372	 18.031
370	 16.0095