File: Bakgrunnsmateriale/MATLAB/FTIR/ftir_data/LPE453/Mapping_121/LPE453_t104_cm-1.asc
PE IR       SPECTRUM    SPECTRUM    ASCII       PEDS        1.60
  -1
LP0778~1.ASC
17/05/16
22:53:23.00
17/05/16
22:53:23.00
tln
$LPE453_t0104$<tbV0>[2.6,10.4,8.0,0.0,27,1,0]
370
64

2002,4.07
MIRTGS : RIGHTBACK : INTERNAL 2
MIR : ON : INTERNAL 2
OPTKBR

0.200000
8
8.000000
FILLER
RATIO
SPECTRUM
UNLOCKED 256

DOUBLE
64
COMBINED
1
0
0

1.000000
RATIO

1
0
TRUE
51149
0
LEFT NOT FITTED RIGHT NOT FITTED 0
NONE
NONE
15600
12
4.427000
51148
TRUE
1 0 8 72 0 0 0 0

15798

#HDR
-1
-1
#GR
CM-1
%T
2.38419e-05
0.0
5000
-1.000000
4631
8
36.6546
-11.6789
#DATA
5000	-0.154924
4996	-0.124073
4992	-0.136280
4988	-0.070118
4984	0.029277
4980	-0.122022
4976	-0.227761
4972	-0.255227
4968	-0.232577
4964	-0.151109
4960	-0.232911
4956	-0.231456
4952	0.068831
4948	0.262808
4944	0.263714
4940	0.116443
4936	-0.051331
4932	-0.053286
4928	-0.113010
4924	-0.097751
4920	0.146389
4916	0.257110
4912	0.075745
4908	-0.074720
4904	-0.039792
4900	0.073838
4896	0.210309
4892	0.130224
4888	0.121974
4884	0.323247
4880	0.450539
4876	0.668168
4872	0.765728
4868	0.548124
4864	0.342226
4860	0.224757
4856	0.134515
4852	0.095939
4848	0.100851
4844	0.293564
4840	0.431036
4836	0.248312
4832	0.083661
4828	0.177764
4824	0.338983
4820	0.276374
4816	0.172972
4812	0.324797
4808	0.455904
4804	0.319314
4800	0.162291
4796	0.129747
4792	0.209999
4788	0.270509
4784	0.246286
4780	0.258636
4776	0.308442
4772	0.249862
4768	0.024390
4764	-0.211548
4760	-0.296711
4756	-0.149559
4752	0.117564
4748	0.310850
4744	0.335216
4740	0.286865
4736	0.204658
4732	0.044560
4728	-0.045943
4724	0.151157
4720	0.441551
4716	0.460267
4712	0.401163
4708	0.622868
4704	0.590205
4700	0.381565
4696	0.592255
4692	0.459742
4688	0.096487
4684	0.152826
4680	0.610756
4676	1.071405
4672	1.237416
4668	1.681804
4664	2.020120
4660	1.630496
4656	0.814509
4652	0.181412
4648	0.766706
4644	1.464533
4640	0.605773
4636	-0.243759
4632	0.102949
4628	0.563406
4624	0.561070
4620	0.543737
4616	1.002454
4612	1.482272
4608	1.297163
4604	0.886344
4600	0.470328
4596	0.216507
4592	0.318932
4588	0.350570
4584	0.091123
4580	-0.386953
4576	-0.699234
4572	-0.675511
4568	-0.585484
4564	-0.522112
4560	-0.499701
4556	-0.739431
4552	-1.057839
4548	-1.101565
4544	-0.811147
4540	-0.699424
4536	-0.989174
4532	-1.095199
4528	-0.913119
4524	-0.680303
4520	-0.620770
4516	-0.796270
4512	-0.592589
4508	0.287771
4504	1.351714
4500	6.925845
4496	14.7957
4492	22.3117
4488	29.3538
4484	18.5333
4480	0.111055
4476	-3.659439
4472	-1.312470
4468	-0.753569
4464	-1.211690
4460	-1.826596
4456	-2.140498
4452	-1.853609
4448	-1.518607
4444	-1.529192
4440	-1.510071
4436	-1.297283
4432	-1.169323
4428	-1.282000
4424	-1.262879
4420	-0.704979
4416	-0.278615
4412	-0.275516
4408	-0.017213
4404	0.400090
4400	0.597953
4396	0.857806
4392	1.092576
4388	1.016759
4384	0.969457
4380	1.008772
4376	0.788426
4372	0.442051
4368	0.333547
4364	0.456833
4360	0.575947
4356	0.625944
4352	0.580883
4348	0.352191
4344	0.113463
4340	0.182414
4336	0.339937
4332	0.418758
4328	0.411343
4324	0.035643
4320	-0.298023
4316	-0.127291
4312	0.133705
4308	0.270271
4304	0.370740
4300	0.414657
4296	0.442576
4292	0.373435
4288	0.075292
4284	-0.259184
4280	-0.393748
4276	-0.347089
4272	-0.204968
4268	-0.084996
4264	-0.213575
4260	-0.326299
4256	-0.023722
4252	0.379395
4248	0.593376
4244	0.658226
4240	0.558972
4236	0.349879
4232	0.084757
4228	-0.102424
4224	-0.084161
4220	-0.049591
4216	-0.041723
4212	0.088953
4208	0.235462
4204	0.263476
4200	0.267338
4196	0.242114
4192	0.158834
4188	0.242567
4184	0.488138
4180	0.700402
4176	0.813317
4172	0.805187
4168	0.731229
4164	0.481557
4160	0.189542
4156	0.124621
4152	0.133609
4148	0.120234
4144	0.065541
4140	0.016999
4136	0.148367
4132	0.254201
4128	0.151038
4124	0.066232
4120	0.101304
4116	0.145578
4112	0.091099
4108	-0.066232
4104	-0.174140
4100	-0.119924
4096	0.025773
4092	0.130176
4088	0.182533
4084	0.237107
4080	0.187492
4076	0.002169
4072	-0.093173
4068	0.004816
4064	0.052571
4060	-0.039982
4056	-0.064539
4052	-0.093936
4048	-0.140452
4044	-0.149345
4040	-0.140118
4036	-0.022339
4032	0.025486
4028	-0.100207
4024	-0.097465
4020	0.008273
4016	0.029277
4012	0.035953
4008	0.014495
4004	-0.001573
4000	0.104832
3996	0.157213
3992	0.086450
3988	0.069856
3984	0.139617
3980	0.201916
3976	0.117301
3972	-0.038766
3968	-0.026226
3964	0.024485
3960	-0.073194
3956	-0.092482
3952	0.098443
3948	0.269174
3944	0.243973
3940	0.154209
3936	0.134396
3932	0.097036
3928	0.033092
3924	0.029015
3920	0.047254
3916	0.045514
3912	0.074052
3908	0.110912
3904	0.039529
3900	-0.048279
3896	0.035238
3892	0.179457
3888	0.179195
3884	0.087785
3880	0.071215
3876	0.084114
3872	0.054311
3868	-0.007987
3864	-0.027608
3860	0.061893
3856	0.167751
3852	0.130224
3848	-0.005030
3844	-0.046253
3840	0.049328
3836	0.119423
3832	0.035047
3828	-0.044703
3824	-0.006031
3820	0.107359
3816	0.269842
3812	0.285720
3808	0.129246
3804	0.093436
3800	0.173640
3796	0.142765
3792	0.090312
3788	0.157356
3784	0.227785
3780	0.242400
3776	0.230550
3772	0.120949
3768	-0.010943
3764	-0.020813
3760	0.035214
3756	0.089955
3752	0.169444
3748	0.216317
3744	0.103712
3740	-0.065040
3736	-0.109457
3732	-0.090932
3728	-0.103664
3724	-0.083947
3720	-0.020337
3716	0.044584
3712	0.118231
3708	0.206708
3704	0.265645
3700	0.202107
3696	0.064611
3692	0.022149
3688	0.074934
3684	0.117945
3680	0.114274
3676	0.054526
3672	-0.026679
3668	-0.044965
3664	-0.036048
3660	-0.120782
3656	-0.189638
3652	-0.104951
3648	-0.008416
3644	0.056242
3640	0.112032
3636	0.092053
3632	0.053310
3628	0.039792
3624	0.060343
3620	0.122117
3616	0.170230
3612	0.102758
3608	-0.023078
3604	-0.043773
3600	0.006794
3596	0.062370
3592	0.122594
3588	0.140857
3584	0.098419
3580	0.070285
3576	0.122427
3572	0.149059
3568	0.070285
3564	-0.018072
3560	-0.062060
3556	-0.065326
3552	0.021314
3548	0.103688
3544	0.037550
3540	-0.044441
3536	-0.046563
3532	-0.022649
3528	0.047707
3524	0.099968
3520	0.092458
3516	0.070667
3512	0.083017
3508	0.176334
3504	0.257825
3500	0.220775
3496	0.072526
3492	-0.003981
3488	0.169491
3484	0.353407
3480	0.294709
3476	0.131368
3472	0.065112
3468	0.103068
3464	0.140142
3460	0.130820
3456	0.126051
3452	0.149416
3448	0.082635
3444	-0.016832
3440	0.027179
3436	0.121665
3432	0.205397
3428	0.234103
3424	0.152778
3420	0.034141
3416	-0.054049
3412	-0.047039
3408	0.030016
3404	0.103092
3400	0.116539
3396	0.082993
3392	0.084352
3388	0.095319
3384	0.057172
3380	0.007867
3376	-0.029897
3372	-0.087165
3368	-0.120615
3364	-0.105571
3360	-0.080823
3356	-0.044202
3352	0.008559
3348	0.083875
3344	0.178170
3340	0.220131
3336	0.178360
3332	0.118684
3328	0.073456
3324	0.027441
3320	0.045037
3316	0.137495
3312	0.173759
3308	0.127482
3304	0.054407
3300	0.003743
3296	0.065922
3292	0.134825
3288	0.064110
3284	0.008392
3280	0.081276
3276	0.126528
3272	0.074553
3268	0.046825
3264	0.058388
3260	0.070071
3256	0.120735
3252	0.137257
3248	0.045347
3244	-0.043535
3240	-0.062751
3236	-0.061893
3232	-0.022006
3228	0.039577
3224	0.065732
3220	0.079250
3216	0.078392
3212	0.035881
3208	-0.012660
3204	0.031733
3200	0.141048
3196	0.180912
3192	0.196838
3188	0.191688
3184	0.121450
3180	0.064921
3176	0.051403
3172	0.089383
3168	0.081157
3164	0.009894
3160	0.016903
3156	0.038743
3152	0.022864
3148	0.061154
3144	0.120782
3140	0.097513
3136	0.032591
3132	0.039315
3128	0.066804
3124	0.046086
3120	0.042700
3116	0.077295
3112	0.096130
3108	0.091576
3104	0.091886
3100	0.104928
3096	0.122761
3092	0.126552
3088	0.075054
3084	0.008583
3080	0.024628
3076	0.045967
3072	0.030207
3068	0.056362
3064	0.062489
3060	0.006580
3056	-0.032567
3052	-0.012445
3048	0.058889
3044	0.136423
3040	0.094771
3036	-0.033712
3032	-0.082683
3028	-0.081419
3024	-0.046563
3020	0.025820
3016	0.035071
3012	-0.001788
3008	-0.004935
3004	0.009202
3000	0.008630
2996	-0.010704
2992	-0.052380
2988	-0.058507
2984	0.035262
2980	0.105285
2976	0.052094
2972	-0.002288
2968	0.031518
2964	0.101351
2960	0.125360
2956	0.067687
2952	0.016951
2948	0.064849
2944	0.116801
2940	0.133419
2936	0.125527
2932	0.064110
2928	0.067329
2924	0.130200
2920	0.120306
2916	0.085878
2912	0.122356
2908	0.186204
2904	0.165414
2900	0.059270
2896	-0.003600
2892	-0.005722
2888	-0.026988
2884	-0.013399
2880	0.034737
2876	0.053739
2872	0.085949
2868	0.112247
2864	0.138664
2860	0.171208
2856	0.101494
2852	-0.007462
2848	-0.027704
2844	-0.016450
2840	-0.015568
2836	0.005865
2832	0.033950
2828	0.048494
2824	0.040197
2820	-0.021290
2816	-0.053977
2812	-0.000095
2808	0.013899
2804	-0.019121
2800	0.016307
2796	0.074696
2792	0.062870
2788	0.054454
2784	0.100564
2780	0.136971
2776	0.140452
2772	0.109314
2768	0.089788
2764	0.117945
2760	0.122499
2756	0.081253
2752	0.053477
2748	0.051641
2744	0.033903
2740	0.033402
2736	0.074672
2732	0.057148
2728	-0.016546
2724	-0.044560
2720	-0.007057
2716	0.046396
2712	0.068569
2708	0.080251
2704	0.075697
2700	0.038552
2696	0.007605
2692	-0.016856
2688	-0.026726
2684	0.000882
2680	0.057411
2676	0.109529
2672	0.104451
2668	0.075984
2664	0.058507
2660	0.029993
2656	0.026106
2652	0.051307
2648	0.074362
2644	0.068736
2640	0.023198
2636	-0.002694
2632	0.004887
2628	0.009751
2624	0.036215
2620	0.054025
2616	0.007772
2612	-0.010323
2608	0.040483
2604	0.055432
2600	0.045275
2596	0.046253
2592	0.057244
2588	0.081443
2584	0.028777
2580	-0.040197
2576	-0.039267
2572	-0.019907
2568	-0.024223
2564	-0.028610
2560	0.010585
2556	0.026559
2552	0.053238
2548	0.089621
2544	0.069713
2540	0.001716
2536	-0.061869
2532	-0.044989
2528	-0.003671
2524	-0.007820
2520	-0.036907
2516	-0.060534
2512	-0.031137
2508	0.056385
2504	0.085926
2500	0.035881
2496	0.036716
2492	0.100350
2488	0.138401
2484	0.108671
2480	0.017547
2476	-0.064015
2472	-0.086998
2468	-0.098156
2464	-0.085949
2460	-0.033473
2456	-0.023770
2452	-0.015974
2448	0.065255
2444	0.108814
2440	0.026416
2436	-0.043010
2432	0.000286
2428	0.044488
2424	0.052618
2420	0.073719
2416	0.079941
2412	0.066184
2408	0.025987
2404	-0.013589
2400	0.010657
2396	0.053596
2392	0.081396
2388	0.102758
2384	0.145483
2380	0.180149
2376	0.164985
2372	0.172758
2368	0.221943
2364	0.277781
2360	0.335168
2356	0.342893
2352	0.289559
2348	0.268530
2344	0.291037
2340	0.329995
2336	0.385689
2332	0.413489
2328	0.441098
2324	0.506639
2320	0.585460
2316	0.662136
2312	0.706028
2308	0.731992
2304	0.799489
2300	0.918316
2296	1.039171
2292	1.122236
2288	1.180553
2284	1.243185
2280	1.347684
2276	1.478743
2272	1.602220
2268	1.722335
2264	1.814055
2260	1.921105
2256	2.100324
2252	2.290487
2248	2.467966
2244	2.663230
2240	2.870798
2236	3.099775
2232	3.387713
2228	3.689765
2224	3.939628
2220	4.167747
2216	4.404258
2212	4.679536
2208	5.013012
2204	5.344033
2200	5.655384
2196	6.013154
2192	6.379914
2188	6.685662
2184	7.033753
2180	7.475996
2176	7.920026
2172	8.331012
2168	8.724832
2164	9.174227
2160	9.731221
2156	10.2661
2152	10.702
2148	11.1601
2144	11.6846
2140	12.1842
2136	12.6397
2132	13.1221
2128	13.6501
2124	14.1705
2120	14.6555
2116	15.1478
2112	15.668
2108	16.204
2104	16.7675
2100	17.3285
2096	17.8319
2092	18.3304
2088	18.8722
2084	19.3622
2080	19.782
2076	20.2333
2072	20.7268
2068	21.2161
2064	21.702
2060	22.2116
2056	22.7201
2052	23.1276
2048	23.4777
2044	23.9005
2040	24.3697
2036	24.8269
2032	25.2562
2028	25.6389
2024	25.9893
2020	26.3696
2016	26.7707
2012	27.1445
2008	27.5177
2004	27.8904
2000	28.2138
1996	28.4667
1992	28.7261
1988	29.0807
1984	29.4318
1980	29.6943
1976	29.9399
1972	30.1977
1968	30.4327
1964	30.6248
1960	30.8345
1956	31.0928
1952	31.3335
1948	31.5047
1944	31.6369
1940	31.8214
1936	32.0469
1932	32.2551
1928	32.4618
1924	32.7097
1920	32.9431
1916	33.0655
1912	33.1427
1908	33.2713
1904	33.4191
1900	33.5518
1896	33.6941
1892	33.8221
1888	33.9158
1884	34.0304
1880	34.1626
1876	34.3021
1872	34.4641
1868	34.5947
1864	34.674
1860	34.7329
1856	34.7608
1852	34.7994
1848	34.9055
1844	35.0005
1840	35.0471
1836	35.1101
1832	35.2094
1828	35.3228
1824	35.4165
1820	35.5022
1816	35.6084
1812	35.6763
1808	35.6838
1804	35.7026
1800	35.7469
1796	35.7732
1792	35.7538
1788	35.7161
1784	35.6961
1780	35.7454
1776	35.8706
1772	35.9697
1768	36.0366
1764	36.0875
1760	36.0872
1756	36.0956
1752	36.1547
1748	36.227
1744	36.2597
1740	36.2545
1736	36.2404
1732	36.2323
1728	36.2562
1724	36.275
1720	36.2703
1716	36.2786
1712	36.2911
1708	36.2874
1704	36.3363
1700	36.4467
1696	36.5009
1692	36.501
1688	36.4956
1684	36.474
1680	36.4137
1676	36.3495
1672	36.3569
1668	36.4082
1664	36.4441
1660	36.4465
1656	36.4241
1652	36.41
1648	36.4002
1644	36.3693
1640	36.3619
1636	36.4303
1632	36.4926
1628	36.4988
1624	36.5361
1620	36.5535
1616	36.4762
1612	36.4147
1608	36.4413
1604	36.5026
1600	36.5406
1596	36.5161
1592	36.4884
1588	36.5549
1584	36.5667
1580	36.4333
1576	36.3695
1572	36.4076
1568	36.4325
1564	36.4481
1560	36.4568
1556	36.4455
1552	36.4144
1548	36.4292
1544	36.5079
1540	36.5517
1536	36.5238
1532	36.4695
1528	36.4301
1524	36.4533
1520	36.5672
1516	36.6546
1512	36.5976
1508	36.4638
1504	36.3689
1500	36.3425
1496	36.3828
1492	36.4421
1488	36.4471
1484	36.452
1480	36.4783
1476	36.4796
1472	36.449
1468	36.4204
1464	36.4257
1460	36.4007
1456	36.3577
1452	36.3446
1448	36.3311
1444	36.3258
1440	36.3099
1436	36.3222
1432	36.3707
1428	36.4004
1424	36.4073
1420	36.3348
1416	36.2456
1412	36.2869
1408	36.3918
1404	36.4507
1400	36.4856
1396	36.478
1392	36.3837
1388	36.2751
1384	36.2151
1380	36.1608
1376	36.166
1372	36.2674
1368	36.2978
1364	36.2403
1360	36.2299
1356	36.2684
1352	36.3211
1348	36.3766
1344	36.3998
1340	36.3814
1336	36.3254
1332	36.2744
1328	36.2864
1324	36.3236
1320	36.3301
1316	36.3131
1312	36.284
1308	36.2687
1304	36.2882
1300	36.2946
1296	36.2859
1292	36.2753
1288	36.2528
1284	36.2439
1280	36.2263
1276	36.1846
1272	36.1487
1268	36.1178
1264	36.0882
1260	36.0582
1256	35.9988
1252	35.9275
1248	35.901
1244	35.9091
1240	35.9451
1236	36.0165
1232	36.0925
1228	36.1332
1224	36.1188
1220	36.095
1216	36.1117
1212	36.132
1208	36.0902
1204	36.0248
1200	35.9805
1196	35.962
1192	35.9853
1188	35.985
1184	35.9299
1180	35.9403
1176	35.9902
1172	35.9026
1168	35.7978
1164	35.88
1160	36.0333
1156	36.0808
1152	36.0272
1148	35.932
1144	35.8237
1140	35.7285
1136	35.6857
1132	35.6983
1128	35.7211
1124	35.7264
1120	35.6651
1116	35.5755
1112	35.5678
1108	35.6435
1104	35.7419
1100	35.7718
1096	35.7263
1092	35.7032
1088	35.7599
1084	35.8624
1080	35.9027
1076	35.8495
1072	35.7159
1068	35.545
1064	35.415
1060	35.3376
1056	35.3177
1052	35.3478
1048	35.3715
1044	35.3707
1040	35.3746
1036	35.3943
1032	35.4604
1028	35.5633
1024	35.5739
1020	35.4642
1016	35.3718
1012	35.2864
1008	35.143
1004	35.0092
1000	34.904
996	 34.8319
992	 34.8379
988	 34.9058
984	 35.0142
980	 35.124
976	 35.1569
972	 35.1292
968	 35.0967
964	 35.0949
960	 35.1111
956	 35.114
952	 35.073
948	 34.9053
944	 34.7332
940	 34.6635
936	 34.5994
932	 34.5566
928	 34.5639
924	 34.554
920	 34.4485
916	 34.3465
912	 34.4085
908	 34.5254
904	 34.6192
900	 34.6637
896	 34.5781
892	 34.4746
888	 34.3989
884	 34.268
880	 34.1229
876	 34.021
872	 33.9837
868	 33.974
864	 33.9687
860	 33.9969
856	 33.9731
852	 33.9137
848	 33.8969
844	 33.9078
840	 33.9585
836	 33.946
832	 33.805
828	 33.6039
824	 33.393
820	 33.2909
816	 33.2958
812	 33.323
808	 33.3723
804	 33.3842
800	 33.3975
796	 33.4552
792	 33.4048
788	 33.2913
784	 33.2641
780	 33.2778
776	 33.255
772	 33.074
768	 32.7829
764	 32.5426
760	 32.3588
756	 32.3982
752	 32.7302
748	 32.9789
744	 32.929
740	 32.8041
736	 32.742
732	 32.663
728	 32.5374
724	 32.3835
720	 32.2086
716	 32.1787
712	 32.2699
708	 32.1963
704	 31.968
700	 31.7757
696	 31.7228
692	 31.6105
688	 31.3327
684	 31.1657
680	 31.1863
676	 31.2772
672	 31.3798
668	 31.4686
664	 31.4196
660	 31.2137
656	 31.0708
652	 31.148
648	 31.2021
644	 30.8852
640	 30.4887
636	 30.4029
632	 30.4624
628	 30.382
624	 30.1378
620	 29.9367
616	 29.8959
612	 30.0023
608	 30.1287
604	 30.1088
600	 30.0658
596	 30.0419
592	 29.9803
588	 30.0271
584	 29.9765
580	 29.5832
576	 29.1764
572	 28.9862
568	 28.8516
564	 28.7137
560	 28.5709
556	 28.4929
552	 28.6102
548	 28.7942
544	 28.9777
540	 29.2108
536	 29.1948
532	 28.7676
528	 28.2904
524	 28.0371
520	 27.9155
516	 27.8166
512	 27.6698
508	 27.4365
504	 27.2573
500	 27.0606
496	 26.7602
492	 26.6442
488	 26.9725
484	 27.5019
480	 28.018
476	 28.3655
472	 27.8472
468	 26.5994
464	 25.905
460	 25.9523
456	 25.8095
452	 25.3121
448	 24.4075
444	 23.5357
440	 24.0696
436	 25.5827
432	 25.743
428	 24.5188
424	 24.3704
420	 25.6789
416	 25.7794
412	 24.1006
408	 26.1464
404	 31.2141
400	 27.2634
396	 15.0573
392	 7.084274
388	 5.582451
384	 3.501033
380	 -0.635838
376	 -4.194211
372	 -8.813786
370	 -11.6789