File: Bakgrunnsmateriale/MATLAB/FTIR/ftir_data/LPE453/Mapping_121/LPE453_t42.asc
PE IR       SPECTRUM    SPECTRUM    ASCII       PEDS        1.60
  -1
LPC3A1~1.ASC
17/05/16
17:45:30.00
17/05/16
17:45:56.00
tln
$LPE453_t0042$<tbV0>[-7.8,-5.2,8.0,0.0,27,1,0]
27.028
64

2002,4.07
MIRTGS : RIGHTBACK : INTERNAL 2
MIR : ON : INTERNAL 2
OPTKBR

0.200000
8
8.000000
FILLER
RATIO
SPECTRUM
UNLOCKED 256

DOUBLE
64
COMBINED
1
0
0

0.002000
RATIO

1
0
TRUE
51149
0
LEFT NOT FITTED RIGHT NOT FITTED 0
NONE
NONE
15600
12
4.427000
51148
TRUE
1 0 8 72 0 0 0 0

15798

#HDR
-1
-1
#GR
µM
%T
2.38419e-05
0.0
2.000000
0.002000
12515
8
46.9136
-1.724343
#DATA
2.000000	 0.288605
2.018000	 0.033289
2.036000	 0.431392
2.054000	 0.557156
2.072000	 0.235639
2.090000	 -0.500046
2.108000	 0.003797
2.126000	 0.462843
2.144000	 0.850079
2.162000	 0.646195
2.180000	 -0.432524
2.198000	 -0.425119
2.216000	 37.5235
2.234000	 -1.442291
2.252000	 -0.780344
2.270000	 0.379832
2.288000	 0.244696
2.306000	 0.153445
2.324000	 0.218847
2.342000	 0.101745
2.360000	 0.471687
2.378000	 0.148608
2.396000	 0.396888
2.414000	 0.053148
2.432000	 -0.036994
2.450000	 0.254027
2.468000	 0.059848
2.486000	 0.243527
2.504000	 0.059827
2.522000	 0.213308
2.540000	 0.160297
2.558000	 0.007979
2.576000	 -0.044846
2.594000	 0.104028
2.612000	 0.105985
2.630000	 0.056263
2.648000	 0.204068
2.666000	 0.080412
2.684000	 0.065823
2.702000	 0.017732
2.720000	 0.096951
2.738000	 -0.121140
2.756000	 0.069287
2.774000	 -0.024774
2.792000	 -0.021989
2.810000	 0.074321
2.828000	 -0.029035
2.846000	 0.083912
2.864000	 0.128123
2.882000	 0.198259
2.900000	 0.161239
2.918000	 0.007188
2.936000	 -0.002908
2.954000	 -0.055008
2.972000	 0.063022
2.990000	 0.304137
3.008000	 0.111718
3.026000	 -0.045485
3.044000	 0.043296
3.062000	 0.124778
3.080000	 -0.088917
3.098000	 -0.131945
3.116000	 -0.101838
3.134000	 0.100158
3.152000	 -0.081171
3.170000	 0.158862
3.188000	 -0.016422
3.206000	 -0.156231
3.224000	 0.085880
3.242000	 0.019055
3.260000	 0.024300
3.278000	 -0.041684
3.296000	 -0.015750
3.314000	 -0.036227
3.332000	 -0.049094
3.350000	 0.164395
3.368000	 0.029761
3.386000	 0.168169
3.404000	 0.081960
3.422000	 0.090854
3.440000	 0.031399
3.458000	 -0.069525
3.476000	 0.049120
3.494000	 0.062555
3.512000	 -0.022695
3.530000	 0.132284
3.548000	 0.134372
3.566000	 0.060514
3.584000	 0.106840
3.602000	 0.020257
3.620000	 0.044091
3.638000	 -0.037120
3.656000	 0.125826
3.674000	 -0.058186
3.692000	 0.011924
3.710000	 -0.137329
3.728000	 0.033399
3.746000	 0.033742
3.764000	 -0.044818
3.782000	 0.082397
3.800000	 0.093526
3.818000	 -0.033976
3.836000	 0.015677
3.854000	 0.027927
3.872000	 -0.046135
3.890000	 0.064862
3.908000	 -0.044549
3.926000	 0.048367
3.944000	 0.123965
3.962000	 -0.047884
3.980000	 0.094191
3.998000	 0.158569
4.016000	 -0.014987
4.034000	 0.029667
4.052000	 -0.028771
4.070000	 0.075581
4.088000	 0.011333
4.106000	 0.064609
4.124000	 0.114983
4.141999	 -0.043282
4.160000	 0.224162
4.178000	 -0.069659
4.196000	 0.011866
4.214000	 0.154842
4.232000	 0.094665
4.250000	 0.120028
4.268000	 0.084296
4.286000	 0.284756
4.304000	 0.381950
4.322000	 0.440199
4.340000	 0.610565
4.358000	 0.680903
4.375999	 0.798598
4.394000	 1.054906
4.412000	 1.312457
4.430000	 1.598031
4.448000	 2.066561
4.466000	 2.520670
4.484000	 2.970188
4.502000	 3.464233
4.520000	 4.092167
4.538000	 4.676137
4.556000	 5.491129
4.574000	 6.306722
4.592000	 7.255866
4.609999	 8.129089
4.628000	 9.164304
4.646000	 9.959583
4.664000	 11.0254
4.682000	 12.2198
4.700000	 13.2207
4.718000	 14.3242
4.736000	 15.4819
4.754000	 16.5031
4.772000	 17.546
4.790000	 18.5703
4.808000	 19.6761
4.826000	 20.5761
4.843999	 21.5428
4.862000	 22.6381
4.880000	 23.4611
4.898000	 24.2028
4.916000	 25.0881
4.934000	 25.7743
4.952000	 26.6278
4.970000	 27.3797
4.988000	 27.9532
5.006000	 28.5024
5.024000	 28.9895
5.042000	 29.5541
5.060000	 30.1192
5.077999	 30.6006
5.096000	 31.0346
5.114000	 31.4007
5.132000	 31.8595
5.150000	 32.2603
5.168000	 32.5586
5.186000	 32.7852
5.204000	 33.0791
5.222000	 33.3245
5.240000	 33.7305
5.258000	 33.9925
5.276000	 34.1778
5.294000	 34.3231
5.312000	 34.4549
5.330000	 34.6286
5.348000	 34.8357
5.366000	 34.9663
5.384000	 35.2033
5.402000	 35.464
5.420000	 35.5907
5.438000	 35.5537
5.456000	 35.6354
5.474000	 35.806
5.492000	 35.8462
5.510000	 35.8823
5.528000	 35.922
5.546000	 36.1341
5.564000	 36.2129
5.582000	 36.2532
5.600000	 36.3106
5.618000	 36.2852
5.636000	 36.2987
5.654000	 36.3578
5.672000	 36.408
5.690000	 36.5381
5.708000	 36.5087
5.726000	 36.4988
5.744000	 36.6184
5.762000	 36.6853
5.780000	 36.7287
5.798000	 36.7915
5.816000	 36.7135
5.834000	 36.7048
5.852000	 36.6957
5.870000	 36.7138
5.888000	 36.77
5.906000	 36.7844
5.923999	 36.7663
5.942000	 36.7997
5.960000	 36.818
5.978000	 36.8588
5.996000	 36.8494
6.014000	 36.8505
6.032000	 36.8724
6.050000	 36.8477
6.068000	 36.8374
6.086000	 36.8805
6.104000	 36.9254
6.122000	 36.9477
6.140000	 36.8902
6.158000	 36.8579
6.176000	 36.898
6.194000	 36.9133
6.212000	 36.8654
6.230000	 36.8159
6.248000	 36.8163
6.266000	 36.8003
6.284000	 36.744
6.302000	 36.7225
6.320000	 36.8415
6.338000	 36.9022
6.356000	 36.8612
6.374000	 36.8036
6.392000	 36.7758
6.410000	 36.8044
6.428000	 36.8432
6.446000	 36.8714
6.464000	 36.9221
6.482000	 36.9245
6.500000	 36.8706
6.518000	 36.8491
6.536000	 36.8397
6.554000	 36.8181
6.572000	 36.8434
6.590000	 36.8823
6.608000	 36.8279
6.626000	 36.7592
6.644000	 36.7919
6.662000	 36.9204
6.680000	 36.9688
6.698000	 36.8415
6.716000	 36.7803
6.734000	 36.8041
6.752000	 36.7293
6.770000	 36.5787
6.788000	 36.5343
6.806000	 36.6072
6.824000	 36.6404
6.842000	 36.6141
6.860000	 36.6248
6.878000	 36.6833
6.896000	 36.708
6.914000	 36.6825
6.932000	 36.6735
6.950000	 36.6683
6.968000	 36.6173
6.986000	 36.5599
7.004000	 36.5402
7.022000	 36.5334
7.040000	 36.5168
7.058000	 36.5264
7.076000	 36.5663
7.094000	 36.5304
7.112000	 36.3776
7.130000	 36.2692
7.148000	 36.3277
7.166000	 36.4529
7.184000	 36.5111
7.202000	 36.5066
7.220000	 36.5009
7.238000	 36.501
7.256000	 36.4934
7.274000	 36.491
7.292000	 36.4893
7.310000	 36.4658
7.328000	 36.422
7.346000	 36.3732
7.364000	 36.3277
7.382000	 36.2863
7.400000	 36.2399
7.418000	 36.1857
7.436000	 36.1678
7.454000	 36.2227
7.472000	 36.2823
7.490000	 36.2732
7.508000	 36.2556
7.526000	 36.309
7.544000	 36.4085
7.562000	 36.4895
7.580000	 36.5179
7.598000	 36.4915
7.616000	 36.4319
7.634000	 36.3548
7.652000	 36.2647
7.670000	 36.1798
7.688000	 36.1269
7.706000	 36.1181
7.724000	 36.1431
7.742000	 36.171
7.760000	 36.1766
7.778000	 36.168
7.796000	 36.1652
7.814000	 36.1735
7.832000	 36.1904
7.850000	 36.2072
7.868000	 36.2086
7.886000	 36.1939
7.904000	 36.1732
7.922000	 36.1448
7.940000	 36.1062
7.958000	 36.0637
7.976000	 36.0163
7.994000	 35.9625
8.012000	 35.9171
8.030000	 35.8883
8.048000	 35.8607
8.065999	 35.8256
8.084000	 35.7971
8.102000	 35.7842
8.120000	 35.7792
8.138000	 35.7785
8.155999	 35.7867
8.173999	 35.8001
8.192000	 35.8154
8.210000	 35.843
8.228000	 35.889
8.246000	 35.9339
8.263999	 35.9517
8.282000	 35.937
8.300000	 35.9081
8.318000	 35.8878
8.336000	 35.8842
8.353999	 35.8856
8.372000	 35.8759
8.390000	 35.8511
8.408000	 35.8197
8.426000	 35.7863
8.443999	 35.7469
8.462000	 35.7062
8.480000	 35.6772
8.498000	 35.6559
8.516000	 35.6253
8.533999	 35.594
8.552000	 35.5958
8.570000	 35.6388
8.588000	 35.6859
8.606000	 35.7038
8.624000	 35.7028
8.641999	 35.7089
8.660000	 35.7252
8.678000	 35.7429
8.696000	 35.7707
8.714000	 35.8224
8.731999	 35.885
8.750000	 35.9222
8.768000	 35.9071
8.786000	 35.8366
8.804000	 35.7274
8.821999	 35.6045
8.840000	 35.4924
8.858000	 35.4082
8.876000	 35.3594
8.894000	 35.342
8.911999	 35.341
8.930000	 35.3408
8.948000	 35.3394
8.966000	 35.3449
8.984000	 35.3516
9.001999	 35.3296
9.020000	 35.2589
9.038000	 35.1699
9.056000	 35.1312
9.074000	 35.1832
9.092000	 35.2949
9.109999	 35.4007
9.128000	 35.4679
9.146000	 35.5126
9.164000	 35.5525
9.182000	 35.5709
9.199999	 35.5391
9.218000	 35.4602
9.236000	 35.3765
9.254000	 35.3294
9.272000	 35.3223
9.289999	 35.3262
9.308000	 35.3113
9.326000	 35.2706
9.344000	 35.217
9.362000	 35.1664
9.379999	 35.1265
9.398000	 35.0952
9.416000	 35.0658
9.434000	 35.0275
9.452000	 34.9699
9.469999	 34.8923
9.488000	 34.8135
9.506000	 34.7682
9.524000	 34.785
9.542000	 34.8627
9.560000	 34.9654
9.577999	 35.0471
9.596000	 35.0842
9.614000	 35.0877
9.632000	 35.0864
9.650000	 35.0994
9.667999	 35.1234
9.686000	 35.1427
9.704000	 35.1496
9.722000	 35.157
9.740000	 35.1879
9.757999	 35.2474
9.776000	 35.3065
9.794000	 35.314
9.812000	 35.2331
9.830000	 35.0713
9.847999	 34.8772
9.866000	 34.7098
9.884000	 34.6034
9.902000	 34.554
9.920000	 34.5315
9.937999	 34.505
9.956000	 34.4618
9.974000	 34.4099
9.992000	 34.3688
10.01	34.3545
10.028	34.3705
10.046	34.405
10.064	34.44
10.082	34.4628
10.1	34.4733
10.118	34.4843
10.136	34.5122
10.154	34.5668
10.172	34.6452
10.19	34.7327
10.208	34.8125
10.226	34.8728
10.244	34.9097
10.262	34.9258
10.28	34.9239
10.298	34.9023
10.316	34.8569
10.334	34.7884
10.352	34.7079
10.37	34.6346
10.388	34.586
10.406	34.5662
10.424	34.5643
10.442	34.5608
10.46	34.5409
10.478	34.5008
10.496	34.4479
10.514	34.3924
10.532	34.3395
10.55	34.2888
10.568	34.2372
10.586	34.1824
10.604	34.1248
10.622	34.0664
10.64	34.0112
10.658	33.9655
10.676	33.9381
10.694	33.9372
10.712	33.9676
10.73	34.0253
10.748	34.0979
10.766	34.1667
10.784	34.2142
10.802	34.2288
10.82	34.209
10.838	34.1623
10.856	34.1023
10.874	34.0448
10.892	34.0012
10.91	33.9769
10.928	33.9698
10.946	33.9736
10.964	33.9828
10.982	33.9949
11	34.0112
11.018	34.0333
11.036	34.0603
11.054	34.0872
11.072	34.1072
11.09	34.1141
11.108	34.1059
11.126	34.0844
11.144	34.0525
11.162	34.0109
11.18	33.9554
11.198	33.879
11.216	33.7767
11.234	33.6495
11.252	33.5091
11.27	33.3746
11.288	33.2685
11.306	33.2069
11.324	33.1935
11.342	33.2182
11.36	33.2615
11.378	33.3023
11.396	33.3282
11.414	33.3362
11.432	33.332
11.45	33.3227
11.468	33.3134
11.486	33.3046
11.504	33.2949
11.522	33.2849
11.54	33.2803
11.558	33.2906
11.576	33.3258
11.594	33.3908
11.612	33.4818
11.63	33.5864
11.648	33.6881
11.666	33.7707
11.684	33.824
11.702	33.8463
11.72	33.8432
11.738	33.8239
11.756	33.797
11.774	33.768
11.792	33.7382
11.81	33.7058
11.828	33.6672
11.846	33.6195
11.864	33.5603
11.882	33.4887
11.9	33.4044
11.918	33.3077
11.936	33.2007
11.954	33.0871
11.972	32.9727
11.99	32.8646
12.008	32.7693
12.026	32.6905
12.044	32.6282
12.062	32.5781
12.08	32.5337
12.098	32.4885
12.116	32.4398
12.134	32.3903
12.152	32.3469
12.17	32.3182
12.188	32.3112
12.206	32.3281
12.224	32.3655
12.242	32.4162
12.26	32.4713
12.278	32.5231
12.296	32.5666
12.314	32.6002
12.332	32.6253
12.35	32.6444
12.368	32.6601
12.386	32.6753
12.404	32.6917
12.422	32.7105
12.44	32.7329
12.458	32.7591
12.476	32.7888
12.494	32.8203
12.512	32.851
12.53	32.8773
12.548	32.8951
12.566	32.9015
12.584	32.8952
12.602	32.8768
12.62	32.8488
12.638	32.8144
12.656	32.7767
12.674	32.7379
12.692	32.6989
12.71	32.6601
12.728	32.6216
12.746	32.5835
12.764	32.5455
12.782	32.507
12.8	32.4667
12.818	32.4235
12.836	32.3769
12.854	32.3281
12.872	32.2795
12.89	32.2347
12.908	32.1967
12.926	32.1675
12.944	32.1466
12.962	32.1312
12.98	32.1165
12.998	32.0975
13.016	32.0695
13.034	32.0295
13.052	31.9771
13.07	31.914
13.088	31.8432
13.106	31.7685
13.124	31.6939
13.142	31.6236
13.16	31.5616
13.178	31.5123
13.196	31.4796
13.214	31.4664
13.232	31.4734
13.25	31.4987
13.268	31.5372
13.286	31.5827
13.304	31.6286
13.322	31.6695
13.34	31.7024
13.358	31.7274
13.376	31.7464
13.394	31.7629
13.412	31.7801
13.43	31.8
13.448	31.8232
13.466	31.8482
13.484	31.873
13.502	31.8954
13.52	31.9144
13.538	31.9304
13.556	31.9453
13.574	31.9612
13.592	31.9803
13.61	32.0038
13.628	32.0308
13.646	32.0592
13.664	32.0849
13.682	32.1041
13.7	32.1122
13.718	32.1061
13.736	32.0833
13.754	32.0436
13.772	31.9881
13.79	31.9195
13.808	31.8416
13.826	31.7591
13.844	31.6766
13.862	31.5985
13.88	31.5279
13.898	31.4669
13.916	31.4154
13.934	31.3722
13.952	31.3345
13.97	31.2991
13.988	31.2625
14.006	31.2226
14.024	31.1788
14.042	31.1326
14.06	31.0873
14.078	31.0472
14.096	31.0167
14.114	30.999
14.132	30.9957
14.15	31.0058
14.168	31.0262
14.186	31.0518
14.204	31.0765
14.222	31.0939
14.24	31.0991
14.258	31.0896
14.276	31.0648
14.294	31.0267
14.312	30.9792
14.33	30.9273
14.348	30.8762
14.366	30.8305
14.384	30.7935
14.402	30.7659
14.42	30.7472
14.438	30.7353
14.456	30.728
14.474	30.723
14.492	30.7187
14.51	30.7151
14.528	30.7135
14.546	30.7157
14.564	30.7241
14.582	30.7406
14.6	30.7661
14.618	30.8003
14.636	30.8414
14.654	30.8859
14.672	30.9302
14.69	30.97
14.708	31.0015
14.726	31.0212
14.744	31.0264
14.762	31.0164
14.78	30.991
14.798	30.9516
14.816	30.8999
14.834	30.8385
14.852	30.771
14.87	30.7006
14.888	30.6307
14.906	30.5644
14.924	30.5044
14.942	30.4534
14.96	30.4124
14.978	30.3815
14.996	30.3599
15.014	30.3458
15.032	30.3364
15.05	30.3284
15.068	30.3186
15.086	30.3047
15.104	30.2844
15.122	30.257
15.14	30.2228
15.158	30.183
15.176	30.1391
15.194	30.0932
15.212	30.0478
15.23	30.0043
15.248	29.9638
15.266	29.9266
15.284	29.8926
15.302	29.8605
15.32	29.8294
15.338	29.7979
15.356	29.7649
15.374	29.7296
15.392	29.6923
15.41	29.6535
15.428	29.614
15.446	29.5759
15.464	29.5405
15.482	29.5094
15.5	29.4841
15.518	29.4653
15.536	29.4532
15.554	29.4472
15.572	29.4462
15.59	29.4481
15.608	29.4507
15.626	29.4521
15.644	29.4499
15.662	29.4424
15.68	29.4292
15.698	29.4103
15.716	29.3867
15.734	29.3611
15.752	29.3357
15.77	29.3134
15.788	29.2976
15.806	29.2904
15.824	29.2928
15.842	29.3054
15.86	29.3268
15.878	29.3549
15.896	29.3876
15.914	29.4211
15.932	29.4526
15.95	29.4799
15.968	29.5011
15.986	29.5158
16.004	29.5248
16.022	29.5293
16.04	29.5323
16.058	29.536
16.076	29.5425
16.094	29.5541
16.112	29.571
16.13	29.5929
16.148	29.6187
16.166	29.6444
16.184	29.667
16.202	29.6829
16.22	29.6868
16.238	29.6764
16.256	29.6492
16.274	29.6038
16.292	29.5413
16.31	29.463
16.328	29.373
16.346	29.2757
16.364	29.1749
16.382	29.0772
16.4	28.9865
16.418	28.9062
16.436	28.84
16.454	28.7886
16.472	28.7523
16.49	28.7298
16.508	28.7181
16.526	28.7149
16.544	28.7155
16.562	28.7164
16.58	28.7149
16.598	28.7067
16.616	28.6903
16.634	28.6643
16.652	28.6279
16.67	28.5818
16.688	28.5266
16.706	28.4646
16.724	28.3971
16.742	28.3262
16.76	28.2543
16.778	28.1825
16.796	28.1129
16.814	28.0465
16.832	27.9843
16.85	27.9269
16.868	27.8747
16.886	27.8279
16.904	27.7864
16.922	27.7503
16.94	27.7195
16.958	27.694
16.976	27.6737
16.994	27.6581
17.012	27.6473
17.03	27.641
17.048	27.6388
17.066	27.6406
17.084	27.646
17.102	27.6545
17.12	27.6657
17.138	27.6791
17.156	27.6947
17.174	27.712
17.192	27.7311
17.21	27.752
17.228	27.7747
17.246	27.7993
17.264	27.8259
17.282	27.8543
17.3	27.8844
17.318	27.9161
17.336	27.9492
17.354	27.9837
17.372	28.0189
17.39	28.0546
17.408	28.0903
17.426	28.1254
17.444	28.1599
17.462	28.1934
17.48	28.2256
17.498	28.2563
17.516	28.2853
17.534	28.3123
17.552	28.3373
17.57	28.3601
17.588	28.3803
17.606	28.3976
17.624	28.4118
17.642	28.4223
17.66	28.4287
17.678	28.4308
17.696	28.4283
17.714	28.4206
17.732	28.4078
17.75	28.3896
17.768	28.3658
17.786	28.3364
17.804	28.3017
17.822	28.2618
17.84	28.2171
17.858	28.1679
17.876	28.1146
17.894	28.0577
17.912	27.9976
17.93	27.9353
17.948	27.871
17.966	27.806
17.984	27.7409
18.002	27.6772
18.02	27.6161
18.038	27.5584
18.056	27.506
18.074	27.4594
18.092	27.4206
18.11	27.3898
18.128	27.3687
18.146	27.3571
18.164	27.3556
18.182	27.3638
18.2	27.3814
18.218	27.4072
18.236	27.4407
18.254	27.48
18.272	27.5246
18.29	27.5717
18.308	27.621
18.326	27.6696
18.344	27.7171
18.362	27.7612
18.38	27.8014
18.398	27.8363
18.416	27.8654
18.434	27.8879
18.452	27.9037
18.47	27.9122
18.488	27.9139
18.506	27.9085
18.524	27.8967
18.542	27.8783
18.56	27.8546
18.578	27.8256
18.596	27.7925
18.614	27.7553
18.632	27.7153
18.65	27.6725
18.668	27.6281
18.686	27.5822
18.704	27.5359
18.722	27.4892
18.74	27.443
18.758	27.3973
18.776	27.3527
18.794	27.3091
18.812	27.2669
18.83	27.2261
18.848	27.1867
18.866	27.1487
18.884	27.1122
18.902	27.077
18.92	27.0433
18.938	27.0109
18.956	26.98
18.974	26.9505
18.992	26.9225
19.01	26.896
19.028	26.871
19.046	26.8472
19.064	26.8246
19.082	26.8027
19.1	26.7813
19.118	26.7599
19.136	26.738
19.154	26.7153
19.172	26.691
19.19	26.6651
19.208	26.6369
19.226	26.6065
19.244	26.5733
19.262	26.5376
19.28	26.4997
19.298	26.4597
19.316	26.4187
19.334	26.3767
19.352	26.336
19.37	26.2964
19.388	26.2603
19.406	26.2274
19.424	26.2003
19.442	26.1791
19.46	26.1657
19.478	26.1604
19.496	26.1643
19.514	26.1778
19.532	26.2008
19.55	26.2337
19.568	26.2754
19.586	26.3255
19.604	26.3828
19.622	26.4457
19.64	26.5135
19.658	26.5827
19.676	26.6537
19.694	26.7221
19.712	26.7883
19.73	26.8484
19.748	26.9024
19.766	26.9475
19.784	26.983
19.802	27.008
19.82	27.0215
19.838	27.0239
19.856	27.0149
19.874	26.9951
19.892	26.9661
19.91	26.9278
19.928	26.8835
19.946	26.8327
19.964	26.7792
19.982	26.7233
20	26.6678
20.018	26.6142
20.036	26.5633
20.054	26.5175
20.072	26.4763
20.09	26.4412
20.108	26.412
20.126	26.3881
20.144	26.3699
20.162	26.3554
20.18	26.3444
20.198	26.3354
20.216	26.3264
20.234	26.3174
20.252	26.3054
20.27	26.2909
20.288	26.2715
20.306	26.247
20.324	26.2169
20.342	26.1805
20.36	26.1381
20.378	26.0899
20.396	26.0358
20.414	25.9776
20.432	25.915
20.45	25.8499
20.468	25.7828
20.486	25.7147
20.504	25.6479
20.522	25.582
20.54	25.519
20.558	25.4588
20.576	25.4026
20.594	25.351
20.612	25.304
20.63	25.2624
20.648	25.2259
20.666	25.1948
20.684	25.1691
20.702	25.1485
20.72	25.1329
20.738	25.1223
20.756	25.1159
20.774	25.114
20.792	25.1156
20.81	25.1208
20.828	25.1292
20.846	25.14
20.864	25.1534
20.882	25.1686
20.9	25.1856
20.918	25.2038
20.936	25.2226
20.954	25.2421
20.972	25.2608
20.99	25.279
21.008	25.2958
21.026	25.3108
21.044	25.3239
21.062	25.3344
21.08	25.3425
21.098	25.3477
21.116	25.3499
21.134	25.3491
21.152	25.3452
21.17	25.3381
21.188	25.3282
21.206	25.3152
21.224	25.2994
21.242	25.281
21.26	25.26
21.278	25.2365
21.296	25.2104
21.314	25.1819
21.332	25.1508
21.35	25.1172
21.368	25.0809
21.386	25.0418
21.404	25
21.422	24.9557
21.44	24.9088
21.458	24.8599
21.476	24.809
21.494	24.7565
21.512	24.704
21.53	24.6509
21.548	24.5993
21.566	24.5502
21.584	24.5035
21.602	24.4624
21.62	24.4264
21.638	24.3973
21.656	24.378
21.674	24.3674
21.692	24.3682
21.71	24.3811
21.728	24.4058
21.746	24.4437
21.764	24.495
21.782	24.5585
21.8	24.6338
21.818	24.7211
21.836	24.8168
21.854	24.9221
21.872	25.0344
21.89	25.1488
21.908	25.2676
21.926	25.385
21.944	25.4979
21.962	25.6076
21.98	25.7068
21.998	25.7956
22.016	25.8726
22.034	25.9326
22.052	25.9771
22.07	26.004
22.088	26.0109
22.106	25.9989
22.124	25.9681
22.142	25.9177
22.16	25.8491
22.178	25.7649
22.196	25.6637
22.214	25.5489
22.232	25.4241
22.25	25.2874
22.268	25.1442
22.286	24.9971
22.304	24.8447
22.322	24.6934
22.34	24.5437
22.358	24.3958
22.376	24.2541
22.394	24.1181
22.412	23.9882
22.43	23.8664
22.448	23.7521
22.466	23.6454
22.484	23.5464
22.502	23.4551
22.52	23.3705
22.538	23.2925
22.556	23.221
22.574	23.1539
22.592	23.0912
22.61	23.0328
22.628	22.9768
22.646	22.9233
22.664	22.8724
22.682	22.8232
22.7	22.7756
22.718	22.7304
22.736	22.6883
22.754	22.6489
22.772	22.6133
22.79	22.5824
22.808	22.5553
22.826	22.5343
22.844	22.5204
22.862	22.5128
22.88	22.5135
22.898	22.5234
22.916	22.5418
22.934	22.5704
22.952	22.6099
22.97	22.6598
22.988	22.7199
23.006	22.7906
23.024	22.8715
23.042	22.9611
23.06	23.0596
23.078	23.1667
23.096	23.2798
23.114	23.3996
23.132	23.5253
23.15	23.6535
23.168	23.7851
23.186	23.9189
23.204	24.0511
23.222	24.1824
23.24	24.3118
23.258	24.4356
23.276	24.554
23.294	24.6667
23.312	24.7714
23.33	24.8682
23.348	24.957
23.366	25.0357
23.384	25.1042
23.402	25.1627
23.42	25.2103
23.438	25.2473
23.456	25.2734
23.474	25.2877
23.492	25.2903
23.51	25.2813
23.528	25.2596
23.546	25.2255
23.564	25.1789
23.582	25.1189
23.6	25.0452
23.618	24.958
23.636	24.8575
23.654	24.7438
23.672	24.6171
23.69	24.4768
23.708	24.3228
23.726	24.1555
23.744	23.9743
23.762	23.7789
23.78	23.5693
23.798	23.3462
23.816	23.1103
23.834	22.8606
23.852	22.5988
23.87	22.3278
23.888	22.0462
23.906	21.7553
23.924	21.4583
23.942	21.1548
23.96	20.8448
23.978	20.532
23.996	20.217
24.014	19.8986
24.032	19.5813
24.05	19.2677
24.068	18.955
24.086	18.6477
24.104	18.3495
24.122	18.0582
24.14	17.7757
24.158	17.5051
24.176	17.2458
24.194	16.9977
24.212	16.7626
24.23	16.5408
24.248	16.3316
24.266	16.1357
24.284	15.9536
24.302	15.7851
24.32	15.6292
24.338	15.4852
24.356	15.3541
24.374	15.2344
24.392	15.1243
24.41	15.0248
24.428	14.9352
24.446	14.8521
24.464	14.7744
24.482	14.7037
24.5	14.6366
24.518	14.5707
24.536	14.5086
24.554	14.4471
24.572	14.3819
24.59	14.3151
24.608	14.2456
24.626	14.1675
24.644	14.0785
24.662	13.9819
24.68	13.8729
24.698	13.747
24.716	13.6078
24.734	13.4524
24.752	13.276
24.77	13.0773
24.788	12.8583
24.806	12.6184
24.824	12.3564
24.842	12.0722
24.86	11.7679
24.878	11.4459
24.896	11.1022
24.914	10.7402
24.932	10.3689
24.95	9.991584
24.968	9.601552
24.986	9.210905
25.004	8.832015
25.022	8.455697
25.04	8.087999
25.058	7.745683
25.076	7.434820
25.094	7.145173
25.112	6.891473
25.13	6.688599
25.148	6.528411
25.166	6.413985
25.184	6.357649
25.202	6.365881
25.22	6.431677
25.238	6.558451
25.256	6.750216
25.274	7.007003
25.292	7.326680
25.31	7.707906
25.328	8.150975
25.346	8.657850
25.364	9.222330
25.382	9.837691
25.4	10.508
25.418	11.2318
25.436	11.998
25.454	12.799
25.472	13.6444
25.49	14.5245
25.508	15.4258
25.526	16.3477
25.544	17.2961
25.562	18.2571
25.58	19.2177
25.598	20.1867
25.616	21.1602
25.634	22.1253
25.652	23.0749
25.67	24.0186
25.688	24.9476
25.706	25.8505
25.724	26.7275
25.742	27.5828
25.76	28.4083
25.778	29.1964
25.796	29.9499
25.814	30.6697
25.832	31.3537
25.85	32
25.868	32.609
25.886	33.1829
25.904	33.7234
25.922	34.2299
25.94	34.7015
25.958	35.1429
25.976	35.5586
25.994	35.9467
26.012	36.3072
26.03	36.6445
26.048	36.9621
26.066	37.2568
26.084	37.5305
26.102	37.7874
26.12	38.0305
26.138	38.2569
26.156	38.4681
26.174	38.6659
26.192	38.8529
26.21	39.029
26.228	39.1893
26.246	39.3291
26.264	39.4491
26.282	39.5512
26.3	39.6313
26.318	39.6851
26.336	39.711
26.354	39.7119
26.372	39.6916
26.39	39.6532
26.408	39.5912
26.426	39.5095
26.444	39.4167
26.462	39.319
26.48	39.2046
26.498	39.0833
26.516	38.9709
26.534	38.8783
26.552	38.791
26.57	38.7184
26.588	38.6751
26.606	38.6703
26.624	38.6926
26.642	38.7478
26.66	38.8441
26.678	38.9877
26.696	39.1739
26.714	39.4009
26.732	39.6676
26.75	39.9747
26.768	40.3245
26.786	40.7114
26.804	41.1295
26.822	41.5799
26.84	42.0719
26.858	42.588
26.876	43.1091
26.894	43.631
26.912	44.175
26.93	44.7137
26.948	45.2169
26.966	45.6754
26.984	46.1231
27.002	46.522
27.02	46.8284
27.028	46.9136