File: Bakgrunnsmateriale/MATLAB/FTIR/ftir_data/LPE453/Mapping_121/LPE453_t47_cm-1.asc
PE IR       SPECTRUM    SPECTRUM    ASCII       PEDS        1.60
  -1
LP69DA~1.ASC
17/05/16
18:15:30.00
17/05/16
18:15:30.00
tln
$LPE453_t0047$<tbV0>[7.8,-2.6,8.0,0.0,27,1,0]
370
64

2002,4.07
MIRTGS : RIGHTBACK : INTERNAL 2
MIR : ON : INTERNAL 2
OPTKBR

0.200000
8
8.000000
FILLER
RATIO
SPECTRUM
UNLOCKED 256

DOUBLE
64
COMBINED
1
0
0

1.000000
RATIO

1
0
TRUE
51149
0
LEFT NOT FITTED RIGHT NOT FITTED 0
NONE
NONE
15600
12
4.427000
51148
TRUE
1 0 8 72 0 0 0 0

15798

#HDR
-1
-1
#GR
CM-1
%T
2.38419e-05
0.0
5000
-1.000000
4631
8
22.2545
-15.2378
#DATA
5000	0.009989
4996	-0.010013
4992	-0.111556
4988	0.014328
4984	0.128650
4980	0.234961
4976	0.426530
4972	0.405740
4968	0.109052
4964	-0.055265
4960	-0.077486
4956	-0.122332
4952	-0.165176
4948	-0.186634
4944	-0.008559
4940	0.321006
4936	0.471305
4932	0.340723
4928	0.111889
4924	0.000095
4920	0.142073
4916	0.378417
4912	0.410056
4908	0.266337
4904	0.128316
4900	0.003242
4896	-0.140380
4892	-0.232625
4888	-0.147414
4884	0.044155
4880	0.105595
4876	-0.098395
4872	-0.226116
4868	0.006628
4864	0.206375
4860	0.070762
4856	-0.185108
4852	-0.098323
4848	0.346231
4844	0.539517
4840	0.466990
4836	0.455760
4832	0.347709
4828	0.095295
4824	-0.066065
4820	0.021910
4816	0.210809
4812	0.240397
4808	0.222587
4804	0.178718
4800	-0.040507
4796	-0.104999
4792	0.124812
4788	0.374150
4784	0.459074
4780	0.233125
4776	-0.136017
4772	-0.236940
4768	-0.051879
4764	0.113606
4760	0.152516
4756	0.125145
4752	0.114536
4748	0.076413
4744	0.028514
4740	-0.039196
4736	-0.083184
4732	-0.052833
4728	-0.028562
4724	-0.130939
4720	-0.310373
4716	-0.415062
4712	-0.282382
4708	-0.076007
4704	0.040864
4700	0.190067
4696	0.262045
4692	0.133442
4688	0.030255
4684	0.164175
4680	0.559782
4676	0.944662
4672	0.837492
4668	0.483107
4664	0.321006
4660	0.226640
4656	0.119352
4652	0.067925
4648	-0.016474
4644	-0.331759
4640	-0.435280
4636	0.035381
4632	0.553607
4628	0.787854
4624	0.749397
4620	0.348520
4616	-0.072979
4612	-0.149440
4608	0.029611
4604	0.111317
4600	0.171208
4596	0.239801
4592	0.137114
4588	-0.184464
4584	-0.436305
4580	-0.225853
4576	-0.237107
4572	-0.479316
4568	-0.188422
4564	-0.124359
4560	-0.686216
4556	-1.053380
4552	-0.910687
4548	-0.472664
4544	-0.044417
4540	-0.096416
4536	-0.181531
4532	-0.022387
4528	0.699496
4524	3.622841
4520	6.417632
4516	5.166459
4512	2.636837
4508	-0.014925
4504	-2.125096
4500	-1.730990
4496	-0.664567
4492	0.463247
4488	1.172542
4484	0.855851
4480	0.256967
4476	0.095748
4472	0.057935
4468	-0.140929
4464	-0.194907
4460	0.132799
4456	0.703692
4452	0.802540
4448	0.527167
4444	0.613474
4440	0.667977
4436	0.450897
4432	0.427985
4428	0.478839
4424	0.647377
4420	0.825166
4416	0.591921
4412	0.384974
4408	0.412631
4404	0.503134
4400	0.543427
4396	0.380945
4392	0.257945
4388	0.371909
4384	0.387358
4380	0.229978
4376	0.238943
4372	0.387215
4368	0.413322
4364	0.243210
4360	0.189852
4356	0.336503
4352	0.296473
4348	0.069785
4344	-0.017857
4340	-0.038290
4336	-0.102305
4332	-0.024318
4328	0.033068
4324	-0.016498
4320	0.173568
4316	0.355434
4312	0.188016
4308	-0.053071
4304	-0.137114
4300	-0.015401
4296	0.138115
4292	0.122642
4288	0.036692
4284	0.036072
4280	0.129771
4276	0.228238
4272	0.290751
4268	0.316119
4264	0.204038
4260	0.105261
4256	0.204038
4252	0.243997
4248	0.055932
4244	-0.022459
4240	0.073337
4236	-0.073981
4232	-0.304770
4228	-0.246238
4224	-0.128197
4220	-0.026273
4216	0.096058
4212	0.043320
4208	-0.044941
4204	-0.034737
4200	-0.063943
4196	-0.011587
4192	0.010108
4188	-0.090909
4184	0.090932
4180	0.311994
4176	0.142621
4172	0.132369
4168	0.384998
4164	0.313925
4160	0.134205
4156	0.102281
4152	0.092768
4148	0.126099
4144	0.137639
4140	-0.025010
4136	-0.248765
4132	-0.247263
4128	-0.146770
4124	-0.106239
4120	-0.057458
4116	0.000691
4112	0.016808
4108	0.004291
4104	-0.083494
4100	-0.086402
4096	0.061345
4092	0.096154
4088	0.073027
4084	0.060248
4080	0.067162
4076	0.092315
4072	0.047492
4068	-0.004792
4064	-0.088787
4060	-0.117278
4056	-0.051236
4052	-0.016546
4048	-0.036430
4044	-0.087094
4040	-0.033235
4036	0.167584
4032	0.251531
4028	0.159621
4024	0.159883
4020	0.255370
4016	0.282883
4012	0.286507
4008	0.259566
4004	0.199675
4000	0.147652
3996	0.116491
3992	0.209546
3988	0.328087
3984	0.261712
3980	0.114226
3976	0.041222
3972	0.045180
3968	0.080871
3964	0.106358
3960	0.102686
3956	0.066328
3952	0.090360
3948	0.118184
3944	0.051569
3940	-0.020027
3936	-0.060343
3932	-0.022029
3928	-0.009655
3924	-0.050258
3920	-0.033783
3916	-0.035881
3912	-0.022339
3908	-0.036764
3904	-0.127816
3900	-0.082159
3896	0.114488
3892	0.194072
3888	0.074696
3884	-0.021266
3880	-0.056004
3876	-0.154590
3872	-0.124192
3868	0.150728
3864	0.356912
3860	0.351142
3856	0.252223
3852	0.134158
3848	0.111675
3844	0.193166
3840	0.175666
3836	0.027966
3832	-0.009036
3828	0.080013
3824	0.103974
3820	0.146055
3816	0.293970
3812	0.317215
3808	0.080800
3804	-0.136494
3800	-0.102281
3796	-0.018048
3792	-0.043892
3788	-0.004148
3784	0.086927
3780	0.084710
3776	0.055861
3772	0.049543
3768	0.016951
3764	-0.026655
3760	-0.039124
3756	-0.062894
3752	-0.051951
3748	-0.031566
3744	-0.038027
3740	0.050806
3736	0.124573
3732	0.069427
3728	-0.030946
3724	-0.061106
3720	-0.012063
3716	0.010633
3712	0.025391
3708	0.048494
3704	0.075984
3700	0.077342
3696	-0.018358
3692	-0.071406
3688	0.018620
3684	0.093340
3680	0.040555
3676	-0.018262
3672	0.087451
3668	0.234985
3664	0.191831
3660	0.038504
3656	-0.026988
3652	0.013089
3648	0.064015
3644	0.036358
3640	0.008893
3636	0.063300
3632	0.103878
3628	0.085806
3624	0.004625
3620	-0.066423
3616	-0.060844
3612	-0.084114
3608	-0.122165
3604	-0.100517
3600	-0.051665
3596	-0.059652
3592	-0.111913
3588	-0.061106
3584	0.019097
3580	0.032091
3576	0.065159
3572	0.165390
3568	0.231528
3564	0.138163
3560	0.054335
3556	0.122666
3552	0.147461
3548	0.054478
3544	-0.100874
3540	-0.234079
3536	-0.177526
3532	0.009322
3528	0.130534
3524	0.122809
3520	0.098872
3516	0.093388
3512	0.011658
3508	-0.049352
3504	0.009536
3500	0.135970
3496	0.183033
3492	0.039768
3488	-0.165390
3484	-0.207734
3480	-0.096988
3476	0.001478
3472	0.068521
3468	0.100803
3464	0.086879
3460	0.107741
3456	0.067520
3452	-0.076675
3448	-0.109720
3444	0.025057
3440	0.145339
3436	0.075268
3432	-0.049042
3428	-0.050806
3424	-0.031709
3420	-0.019383
3416	0.056242
3412	0.114893
3408	0.087404
3404	0.040388
3400	0.046253
3396	0.073051
3392	0.074481
3388	0.061202
3384	0.050044
3380	0.014710
3376	-0.062084
3372	-0.035858
3368	0.094652
3364	0.122213
3360	0.079226
3356	0.105166
3352	0.184822
3348	0.217103
3344	0.154399
3340	0.047659
3336	0.017285
3332	0.076150
3328	0.124955
3324	0.138378
3320	0.096058
3316	0.033235
3312	0.065493
3308	0.157427
3304	0.150537
3300	0.055909
3296	-0.021815
3292	-0.011515
3288	0.114059
3284	0.226497
3280	0.204491
3276	0.083398
3272	0.002431
3268	0.073504
3264	0.170779
3260	0.134921
3256	0.011897
3252	-0.081992
3248	-0.073766
3244	-0.017166
3240	0.023508
3236	0.055980
3232	0.036787
3228	-0.023388
3224	-0.024294
3220	0.066542
3216	0.148034
3212	0.111484
3208	0.048255
3204	0.046944
3200	0.035619
3196	0.006580
3192	-0.000905
3188	-0.024199
3184	-0.049400
3180	-0.026273
3176	0.059914
3172	0.193119
3168	0.241827
3164	0.167036
3160	0.089597
3156	0.021171
3152	-0.034642
3148	-0.018811
3144	-0.012183
3140	-0.028634
3136	0.007772
3132	0.005149
3128	-0.054311
3124	0.025963
3120	0.144815
3116	0.083184
3112	0.063872
3108	0.119876
3104	0.058102
3100	-0.001573
3096	-0.009155
3092	-0.027704
3088	-0.062966
3084	-0.046277
3080	0.073862
3076	0.139808
3072	0.091123
3068	0.027585
3064	-0.031661
3060	-0.060892
3056	-0.032854
3052	0.019454
3048	0.079989
3044	0.117349
3040	0.100421
3036	0.034785
3032	0.002670
3028	0.071263
3024	0.105762
3020	0.028014
3016	-0.030207
3012	0.024819
3008	0.124335
3004	0.131487
3000	0.032258
2996	-0.062203
2992	-0.094175
2988	-0.054097
2984	0.035548
2980	0.063300
2976	0.025916
2972	0.050926
2968	0.111055
2964	0.100636
2960	0.039792
2956	-0.003457
2952	-0.044155
2948	-0.084543
2944	-0.037240
2940	0.103187
2936	0.218176
2932	0.207853
2928	0.164818
2924	0.238275
2920	0.261783
2916	0.113272
2912	0.009846
2908	0.025200
2904	0.015020
2900	-0.026583
2896	-0.043940
2892	-0.048828
2888	-0.000381
2884	0.099849
2880	0.139355
2876	0.106763
2872	0.106859
2868	0.094604
2864	-0.024509
2860	-0.130295
2856	-0.047802
2852	0.058126
2848	0.033259
2844	0.039339
2840	0.041246
2836	0.019431
2832	0.092434
2828	0.128197
2824	0.096440
2820	0.092411
2816	0.096058
2812	0.101304
2808	0.095796
2804	0.070166
2800	0.043106
2796	0.053429
2792	0.078940
2788	0.087571
2784	0.089168
2780	0.084519
2776	0.085163
2772	0.058126
2768	-0.013542
2764	-0.092840
2760	-0.084280
2756	-0.024700
2752	-0.011491
2748	-0.000429
2744	0.022482
2740	0.010538
2736	-0.025653
2732	-0.067186
2728	-0.037908
2724	0.054073
2720	0.108766
2716	0.100302
2712	0.035691
2708	0.022125
2704	0.059843
2700	0.080323
2696	0.071430
2692	0.070214
2688	0.104975
2684	0.142145
2680	0.110149
2676	0.033092
2672	0.019431
2668	0.049924
2664	0.053000
2660	0.041151
2656	0.037837
2652	0.030016
2648	-0.006175
2644	-0.034093
2640	0.001883
2636	0.074124
2632	0.128793
2628	0.114870
2624	0.034093
2620	-0.001454
2616	0.021624
2612	0.034689
2608	0.065493
2604	0.083208
2600	0.026679
2596	0.012969
2592	0.061011
2588	0.051164
2584	0.033950
2580	0.088644
2576	0.125622
2572	0.053477
2568	0.001788
2564	0.040411
2560	0.066900
2556	0.065970
2552	0.027680
2548	-0.022101
2544	-0.032043
2540	-0.052332
2536	-0.056910
2532	-0.027823
2528	0.000834
2524	0.047254
2520	0.029325
2516	-0.069332
2512	-0.101900
2508	-0.041365
2504	0.024771
2500	0.029945
2496	0.007796
2492	0.010776
2488	0.021743
2484	0.031280
2480	0.029468
2476	0.015163
2472	0.003457
2468	0.017833
2464	0.097584
2460	0.216960
2456	0.253415
2452	0.173711
2448	0.089597
2444	0.082731
2440	0.100803
2436	0.091528
2432	0.129294
2428	0.146460
2424	0.090408
2420	0.101208
2416	0.010013
2412	-0.193238
2408	-0.174355
2404	0.021409
2400	0.042700
2396	0.022578
2392	0.063562
2388	0.083184
2384	0.105571
2380	0.093984
2376	0.015282
2372	-0.090551
2368	-0.148129
2364	-0.162625
2360	-0.163817
2356	-0.066447
2352	0.082588
2348	0.094914
2344	0.025987
2340	0.019693
2336	0.054574
2332	0.091981
2328	0.114727
2324	0.139307
2320	0.143146
2316	0.057744
2312	-0.048613
2308	-0.061607
2304	0.003790
2300	0.036430
2296	0.004482
2292	-0.027394
2288	-0.023818
2284	-0.033640
2280	-0.059914
2276	-0.027275
2272	0.051808
2268	0.098419
2264	0.060582
2260	-0.040245
2256	-0.062465
2252	0.053524
2248	0.130128
2244	0.105357
2240	0.104498
2236	0.145268
2232	0.188994
2228	0.204610
2224	0.200223
2220	0.229072
2216	0.289463
2212	0.381398
2208	0.448656
2204	0.417947
2200	0.444102
2196	0.613784
2192	0.724244
2188	0.762629
2184	0.870847
2180	0.992536
2176	1.100659
2172	1.199507
2168	1.277947
2164	1.411581
2160	1.566958
2156	1.688957
2152	1.820182
2148	2.001476
2144	2.244257
2140	2.509593
2136	2.785181
2132	3.064537
2128	3.284716
2124	3.471040
2120	3.692436
2116	3.922772
2112	4.160332
2108	4.453325
2104	4.793810
2100	5.124068
2096	5.389285
2092	5.635404
2088	5.927348
2084	6.248998
2080	6.567335
2076	6.773066
2072	6.951141
2068	7.374262
2064	7.935881
2060	8.371734
2056	8.676338
2052	8.895277
2048	9.136724
2044	9.504437
2040	9.872746
2036	10.1544
2032	10.4186
2028	10.7344
2024	11.1172
2020	11.5181
2016	11.8724
2012	12.186
2008	12.4861
2004	12.762
2000	13.0416
1996	13.336
1992	13.6205
1988	13.8734
1984	14.0939
1980	14.3429
1976	14.6265
1972	14.9345
1968	15.2624
1964	15.5368
1960	15.7455
1956	15.9326
1952	16.1275
1948	16.3273
1944	16.5279
1940	16.7528
1936	17.0087
1932	17.2556
1928	17.4575
1924	17.6077
1920	17.7298
1916	17.8895
1912	18.0988
1908	18.3395
1904	18.5447
1900	18.6711
1896	18.7535
1892	18.8444
1888	19.0091
1884	19.1913
1880	19.327
1876	19.4406
1872	19.5526
1868	19.6704
1864	19.8045
1860	19.9337
1856	20.0153
1852	20.1123
1848	20.2495
1844	20.3676
1840	20.4782
1836	20.59
1832	20.6894
1828	20.7706
1824	20.826
1820	20.8749
1816	20.9601
1812	21.0739
1808	21.173
1804	21.2587
1800	21.3207
1796	21.3257
1792	21.3002
1788	21.318
1784	21.4189
1780	21.5238
1776	21.5337
1772	21.5313
1768	21.6019
1764	21.6563
1760	21.6416
1756	21.6491
1752	21.7408
1748	21.8384
1744	21.8755
1740	21.8621
1736	21.8384
1732	21.8191
1728	21.7848
1724	21.8641
1720	22.0476
1716	22.0914
1712	22.0369
1708	22.0441
1704	22.0647
1700	22.0505
1696	22.0451
1692	22.0371
1688	21.9939
1684	22.0257
1680	22.1349
1676	22.1862
1672	22.1788
1668	22.1334
1664	22.0688
1660	22.0357
1656	22.0399
1652	22.0543
1648	22.0548
1644	22.0574
1640	22.1351
1636	22.2439
1632	22.2315
1628	22.174
1624	22.1579
1620	22.0963
1616	22.0152
1612	22.035
1608	22.1332
1604	22.1733
1600	22.1646
1596	22.1675
1592	22.1647
1588	22.1299
1584	22.0478
1580	21.9866
1576	22.02
1572	22.0989
1568	22.1312
1564	22.1127
1560	22.086
1556	22.0299
1552	21.9366
1548	21.9525
1544	22.1402
1540	22.2448
1536	22.1749
1532	22.1301
1528	22.13
1524	22.0824
1520	22.0205
1516	21.996
1512	21.9971
1508	21.9907
1504	21.9835
1500	21.9919
1496	21.9423
1492	21.86
1488	21.859
1484	21.8887
1480	21.8961
1476	21.9034
1472	21.9234
1468	21.8955
1464	21.8265
1460	21.8188
1456	21.8601
1452	21.8592
1448	21.841
1444	21.8549
1440	21.8699
1436	21.8545
1432	21.7915
1428	21.7169
1424	21.7172
1420	21.7699
1416	21.7439
1412	21.6314
1408	21.5569
1404	21.5488
1400	21.5648
1396	21.5993
1392	21.6311
1388	21.6298
1384	21.592
1380	21.5614
1376	21.5559
1372	21.5643
1368	21.5765
1364	21.5225
1360	21.4302
1356	21.4215
1352	21.471
1348	21.4548
1344	21.3841
1340	21.3678
1336	21.3722
1332	21.345
1328	21.3198
1324	21.273
1320	21.1956
1316	21.1789
1312	21.2649
1308	21.3205
1304	21.2426
1300	21.1466
1296	21.1554
1292	21.2163
1288	21.2389
1284	21.2234
1280	21.1828
1276	21.0986
1272	21.0048
1268	20.9991
1264	21.0869
1260	21.1574
1256	21.14
1252	21.0828
1248	21.0624
1244	21.0422
1240	20.952
1236	20.863
1232	20.8855
1228	20.9327
1224	20.9314
1220	20.9165
1216	20.8638
1212	20.8336
1208	20.8364
1204	20.8135
1200	20.7966
1196	20.7521
1192	20.6513
1188	20.56
1184	20.527
1180	20.5666
1176	20.6604
1172	20.7402
1168	20.6931
1164	20.5626
1160	20.4902
1156	20.486
1152	20.518
1148	20.487
1144	20.399
1140	20.3773
1136	20.379
1132	20.3745
1128	20.3629
1124	20.3391
1120	20.341
1116	20.3109
1112	20.2171
1108	20.0982
1104	19.9969
1100	19.9677
1096	19.9859
1092	19.9668
1088	19.9255
1084	19.9062
1080	19.921
1076	19.9963
1072	19.9975
1068	19.8194
1064	19.6538
1060	19.6634
1056	19.6917
1052	19.6214
1048	19.506
1044	19.349
1040	19.3001
1036	19.415
1032	19.5357
1028	19.5704
1024	19.4498
1020	19.2995
1016	19.2516
1012	19.2354
1008	19.199
1004	19.1089
1000	19.0163
996	 19.0219
992	 19.0906
988	 19.13
984	 19.1129
980	 19.0176
976	 18.884
972	 18.7888
968	 18.7472
964	 18.6884
960	 18.5831
956	 18.5755
952	 18.5827
948	 18.4579
944	 18.3997
940	 18.4387
936	 18.3955
932	 18.2946
928	 18.2771
924	 18.3411
920	 18.2869
916	 18.1042
912	 17.9586
908	 17.8575
904	 17.8233
900	 17.8345
896	 17.771
892	 17.7528
888	 17.779
884	 17.6414
880	 17.4771
876	 17.4173
872	 17.3749
868	 17.3913
864	 17.3974
860	 17.2882
856	 17.1798
852	 17.1549
848	 17.2294
844	 17.2517
840	 17.0514
836	 16.9127
832	 16.9771
828	 16.9322
824	 16.7331
820	 16.5856
816	 16.4691
812	 16.3363
808	 16.2147
804	 16.1712
800	 16.1676
796	 16.0962
792	 16.0826
788	 16.1377
784	 16.0458
780	 15.8942
776	 15.8338
772	 15.7492
768	 15.6796
764	 15.6358
760	 15.5274
756	 15.5108
752	 15.5268
748	 15.4183
744	 15.3077
740	 15.1944
736	 14.9607
732	 14.7725
728	 14.7601
724	 14.7539
720	 14.7568
716	 14.7774
712	 14.7326
708	 14.5999
704	 14.2922
700	 14.0434
696	 13.9534
692	 13.8092
688	 13.8551
684	 14.0466
680	 13.9705
676	 13.7606
672	 13.6378
668	 13.5777
664	 13.5472
660	 13.4911
656	 13.3839
652	 13.3283
648	 13.2379
644	 13.053
640	 13.0649
636	 13.2141
632	 13.1629
628	 12.9512
624	 12.8269
620	 12.7723
616	 12.5162
612	 12.2375
608	 12.1438
604	 12.0423
600	 12.0044
596	 11.9577
592	 11.7648
588	 11.6134
584	 11.4131
580	 11.2199
576	 11.2449
572	 11.3455
568	 11.4867
564	 11.545
560	 11.2275
556	 10.6979
552	 10.4938
548	 10.6463
544	 10.6227
540	 10.3797
536	 10.3267
532	 10.3933
528	 10.2125
524	 9.967207
520	 9.895682
516	 9.861278
512	 9.766864
508	 9.445238
504	 9.259772
500	 9.529376
496	 9.800624
492	 9.935545
488	 9.673976
484	 9.064173
480	 8.800530
476	 8.914256
472	 8.899092
468	 8.734488
464	 8.678817
460	 8.157587
456	 7.428574
452	 7.448697
448	 7.676577
444	 7.844114
440	 8.553194
436	 9.683418
432	 8.631873
428	 5.331134
424	 4.770374
420	 7.431793
416	 8.406591
412	 5.493378
408	 1.999115
404	 0.133657
400	 -4.132628
396	 -7.267785
392	 -5.035209
388	 -1.092791
384	 3.282332
380	 1.511383
376	 -6.982135
372	 -14.676
370	 -14.6789