File: Bakgrunnsmateriale/MATLAB/FTIR/ftir_data/LPE453/Mapping_121/LPE453_t31_cm-1.asc
PE IR       SPECTRUM    SPECTRUM    ASCII       PEDS        1.60
  -1
LPD8D5~1.ASC
17/05/16
16:54:09.00
17/05/16
16:54:09.00
tln
$LPE453_t0031$<tbV0>[-7.8,-7.8,8.0,0.0,27,1,0]
370
64

2002,4.07
MIRTGS : RIGHTBACK : INTERNAL 2
MIR : ON : INTERNAL 2
OPTKBR

0.200000
8
8.000000
FILLER
RATIO
SPECTRUM
UNLOCKED 256

DOUBLE
64
COMBINED
1
0
0

1.000000
RATIO

1
0
TRUE
51149
0
LEFT NOT FITTED RIGHT NOT FITTED 0
NONE
NONE
15600
12
4.427000
51148
TRUE
1 0 8 72 0 0 0 0

15798

#HDR
-1
-1
#GR
CM-1
%T
2.38419e-05
0.0
5000
-1.000000
4631
8
37.3159
-0.907278
#DATA
5000	0.082755
4996	-0.016760
4992	0.064516
4988	0.219082
4984	0.406885
4980	0.448417
4976	0.201416
4972	0.044035
4968	-0.052595
4964	-0.165653
4960	-0.088930
4956	-0.006508
4952	0.044679
4948	0.182819
4944	0.296425
4940	0.290036
4936	0.077223
4932	-0.059795
4928	0.190234
4924	0.397348
4920	0.320005
4916	0.252103
4912	0.262236
4908	0.117278
4904	-0.107836
4900	-0.070738
4896	0.208353
4892	0.428676
4888	0.409650
4884	0.359654
4880	0.348925
4876	0.094985
4872	-0.166559
4868	-0.017881
4864	0.304460
4860	0.429606
4856	0.360536
4852	0.293278
4848	0.233435
4844	0.032711
4840	-0.143146
4836	-0.019741
4832	0.290870
4828	0.377273
4824	0.162863
4820	-0.016546
4816	-0.072050
4812	-0.001001
4808	0.117826
4804	0.108838
4800	0.220632
4796	0.599050
4792	0.791406
4788	0.549364
4784	0.331473
4780	0.339198
4776	0.233840
4772	0.109410
4768	0.136470
4764	0.155568
4760	0.156998
4756	0.148439
4752	0.104999
4748	0.082254
4744	0.281429
4740	0.432300
4736	0.363636
4732	0.324010
4728	0.332188
4724	0.150418
4720	-0.229239
4716	-0.405550
4712	-0.241994
4708	0.031495
4704	0.216817
4700	0.254535
4696	0.270938
4692	0.296998
4688	0.349760
4684	0.334119
4680	0.283408
4676	0.513267
4672	0.743508
4668	0.644803
4664	0.433993
4660	0.220847
4656	0.213098
4652	0.273752
4648	0.159001
4644	0.125002
4640	0.110387
4636	0.272846
4632	0.626873
4628	0.858759
4624	0.893902
4620	0.749635
4616	0.645232
4612	0.698280
4608	0.930476
4604	0.727558
4600	0.155115
4596	0.223708
4592	0.339508
4588	0.189495
4584	0.764942
4580	1.360154
4576	1.033353
4572	0.899147
4568	1.238417
4564	0.834655
4560	0.020003
4556	-0.414061
4552	-0.737476
4548	-0.402569
4544	0.879955
4540	1.949572
4536	2.474641
4532	2.379798
4528	1.709413
4524	0.319838
4520	-0.454545
4516	-0.094866
4512	4.320430
4508	8.591938
4504	5.209493
4500	2.546072
4496	1.944613
4492	0.663590
4488	-0.315022
4484	-0.181317
4480	0.145316
4476	-0.583243
4472	-0.869464
4468	-0.399446
4464	-0.346803
4460	-0.302410
4456	0.332546
4452	0.755357
4448	0.600767
4444	0.344967
4440	0.445675
4436	0.497364
4432	0.282001
4428	0.295734
4424	0.447392
4420	0.428962
4416	0.383257
4412	0.516819
4408	0.698328
4404	0.536513
4400	0.189208
4396	0.087666
4392	0.139665
4388	0.179171
4384	0.398588
4380	0.606894
4376	0.416755
4372	0.191307
4368	0.235176
4364	0.361800
4360	0.473165
4356	0.398874
4352	0.155806
4348	-0.115370
4344	-0.227999
4340	0.049066
4336	0.336456
4332	0.272035
4328	0.099921
4324	-0.000333
4320	0.028157
4316	0.182271
4312	0.192117
4308	0.074052
4304	-0.000643
4300	-0.048041
4296	-0.069665
4292	-0.009179
4288	0.008296
4284	-0.040578
4280	-0.057768
4276	-0.007605
4272	0.056934
4268	0.024533
4264	0.023627
4260	0.064039
4256	0.063443
4252	0.116181
4248	0.151515
4244	0.141382
4240	0.227332
4236	0.272655
4232	0.128698
4228	0.036621
4224	0.111579
4220	0.221753
4216	0.275540
4212	0.155496
4208	-0.008034
4204	0.148463
4200	0.426197
4196	0.258517
4192	-0.121879
4188	-0.093626
4184	0.256276
4180	0.503134
4176	0.527882
4172	0.475573
4168	0.331640
4164	0.140786
4160	-0.011992
4156	-0.136280
4152	-0.021624
4148	0.215721
4144	0.282335
4140	0.234580
4136	0.138378
4132	-0.059223
4128	-0.185227
4124	-0.088357
4120	0.077295
4116	0.175094
4112	0.097179
4108	-0.100922
4104	-0.152492
4100	-0.078082
4096	-0.059890
4092	-0.073719
4088	-0.092244
4084	-0.086951
4080	0.003504
4076	0.123190
4072	0.218152
4068	0.265955
4064	0.205636
4060	0.040268
4056	-0.100231
4052	-0.103688
4048	-0.068688
4044	-0.021123
4040	0.104427
4036	0.240278
4032	0.291824
4028	0.212049
4024	0.083136
4020	0.022268
4016	0.020289
4012	0.055074
4008	0.250864
4004	0.410509
4000	0.272226
3996	0.051665
3992	-0.052881
3988	-0.071334
3984	0.004291
3980	0.057196
3976	0.086379
3972	0.210952
3968	0.294756
3964	0.263524
3960	0.236821
3956	0.149965
3952	-0.005459
3948	-0.062489
3944	0.025367
3940	0.098586
3936	0.030922
3932	0.004243
3928	0.071454
3924	0.126814
3920	0.183749
3916	0.159907
3912	0.109577
3908	0.153088
3904	0.156688
3900	0.141668
3896	0.234818
3892	0.278496
3888	0.193071
3884	0.073146
3880	-0.053215
3876	-0.062203
3872	0.060081
3868	0.096416
3864	0.056481
3860	0.050973
3856	0.030660
3852	0.004053
3848	0.024032
3844	0.051212
3840	0.039100
3836	0.060629
3832	0.141382
3828	0.113511
3824	0.009799
3820	0.086665
3816	0.263547
3812	0.228881
3808	0.095868
3804	0.068855
3800	0.043678
3796	0.028133
3792	0.072145
3788	0.059366
3784	0.002646
3780	-0.001430
3776	-0.000572
3772	0.028729
3768	0.047731
3764	-0.037622
3760	-0.110220
3756	-0.087547
3752	0.014543
3748	0.046777
3744	-0.022721
3740	-0.055861
3736	-0.069499
3732	-0.049209
3728	0.046825
3724	0.080990
3720	0.050687
3716	0.076341
3712	0.063920
3708	0.020551
3704	0.090217
3700	0.170159
3696	0.185847
3692	0.142741
3688	0.091695
3684	0.108957
3680	0.079035
3676	0.039696
3672	0.090527
3668	0.119018
3664	0.126409
3660	0.124597
3656	0.065588
3652	0.063705
3648	0.097084
3644	0.011920
3640	-0.072669
3636	-0.057482
3632	-0.032114
3628	-0.036644
3624	-0.035786
3620	0.000524
3616	-0.005292
3612	-0.039696
3608	-0.036883
3604	-0.013351
3600	0.038099
3596	0.028419
3592	-0.047278
3588	-0.018835
3584	0.094866
3580	0.107312
3576	0.039339
3572	-0.063204
3568	-0.142765
3564	-0.029778
3560	0.133943
3556	0.169754
3552	0.107264
3548	-0.000786
3544	-0.068616
3540	-0.033473
3536	0.029945
3532	0.073552
3528	0.096869
3524	0.077629
3520	0.068306
3516	0.032043
3512	-0.025343
3508	-0.031709
3504	-0.084662
3500	-0.117087
3496	0.073266
3492	0.209474
3488	0.130438
3484	0.145530
3480	0.213837
3476	0.150012
3472	-0.004768
3468	-0.182819
3464	-0.210976
3460	-0.105261
3456	-0.051379
3452	0.000643
3448	0.052785
3444	0.031208
3440	0.090718
3436	0.207090
3432	0.198769
3428	0.166654
3424	0.164484
3420	0.131392
3416	0.084757
3412	0.096082
3408	0.148820
3404	0.096130
3400	-0.029349
3396	-0.023269
3392	0.077605
3388	0.145101
3384	0.156378
3380	0.078868
3376	0.023865
3372	0.034618
3368	-0.023198
3364	-0.054240
3360	0.037717
3356	0.090146
3352	0.076389
3348	0.079178
3344	0.071024
3340	0.027346
3336	-0.015115
3332	-0.027132
3328	-0.018453
3324	0.046420
3320	0.138187
3316	0.112414
3312	0.025200
3308	0.023961
3304	-0.055718
3300	-0.240445
3296	-0.279116
3292	-0.144553
3288	0.025296
3284	0.098562
3280	0.076842
3276	0.031661
3272	-0.010633
3268	0.052762
3264	0.139665
3260	0.106668
3256	0.089573
3252	0.149393
3248	0.126147
3244	-0.005412
3240	-0.053262
3236	0.029826
3232	0.082182
3228	0.066637
3224	0.049734
3220	0.034070
3216	0.037407
3212	0.036334
3208	-0.037646
3204	-0.131130
3200	-0.090861
3196	0.078868
3192	0.173735
3188	0.148963
3184	0.120353
3180	0.073122
3176	0.029349
3172	0.080966
3168	0.111174
3164	0.062727
3160	0.032353
3156	0.002932
3152	-0.061941
3148	-0.089955
3144	-0.026345
3140	0.029110
3136	0.031352
3132	0.007629
3128	-0.036716
3124	0.033903
3120	0.179862
3116	0.179386
3112	0.088024
3108	0.040698
3104	0.044035
3100	0.060725
3096	0.060033
3092	0.066804
3088	0.090050
3084	0.080966
3080	0.054836
3076	0.083947
3072	0.114560
3068	0.060820
3064	-0.003004
3060	0.014257
3056	0.026559
3052	-0.052618
3048	-0.136017
3044	-0.130772
3040	-0.081467
3036	-0.035905
3032	0.016522
3028	0.029683
3024	0.019669
3020	0.059247
3016	0.096940
3012	0.079774
3008	0.038313
3004	0.057530
3000	0.089335
2996	0.040769
2992	0.083231
2988	0.196361
2984	0.183033
2980	0.069165
2976	-0.063848
2972	-0.121760
2968	-0.059080
2964	0.050783
2960	0.118899
2956	0.068712
2952	-0.044107
2948	-0.046062
2944	0.033068
2940	0.068235
2936	0.080609
2932	0.092577
2928	0.048923
2924	-0.034117
2920	-0.058984
2916	-0.054860
2912	-0.037479
2908	0.050234
2904	0.143194
2900	0.151991
2896	0.124335
2892	0.103354
2888	0.073003
2884	0.086045
2880	0.128388
2876	0.119662
2872	0.070929
2868	0.056099
2864	0.037431
2860	-0.060820
2856	-0.058722
2852	0.122618
2848	0.246429
2844	0.161576
2840	0.022006
2836	-0.005269
2832	-0.005102
2828	-0.014925
2824	-0.018286
2820	-0.034332
2816	-0.025033
2812	-0.007510
2808	-0.000214
2804	0.030946
2800	0.055551
2796	0.015497
2792	-0.006580
2788	0.061297
2784	0.133895
2780	0.170135
2776	0.143003
2772	0.062203
2768	0.032758
2764	0.054883
2760	0.062966
2756	0.046420
2752	0.006508
2748	-0.032734
2744	-0.017690
2740	0.014758
2736	0.017404
2732	0.020098
2728	-0.005650
2724	-0.057005
2720	-0.081992
2716	-0.067520
2712	-0.010061
2708	0.058555
2704	0.094199
2700	0.067520
2696	0.067615
2692	0.162458
2688	0.174713
2684	0.066995
2680	0.037980
2676	0.079965
2672	0.050997
2668	-0.028514
2664	-0.041508
2660	0.042867
2656	0.136780
2652	0.125956
2648	0.064516
2644	0.045967
2640	0.025057
2636	0.007104
2632	0.029873
2628	0.033688
2624	-0.034046
2620	-0.074005
2616	-0.024652
2612	0.025749
2608	0.037574
2604	0.010538
2600	-0.048327
2596	-0.087547
2592	-0.046610
2588	0.033497
2584	0.034427
2580	0.003004
2576	0.011682
2572	0.047159
2568	0.071215
2564	0.020027
2560	-0.033497
2556	0.010561
2552	0.065445
2548	0.062751
2544	0.074219
2540	0.098323
2536	0.067877
2532	0.012707
2528	-0.032234
2524	-0.086474
2520	-0.102305
2516	-0.010371
2512	0.096821
2508	0.163626
2504	0.207495
2500	0.051546
2496	-0.175952
2492	-0.126767
2488	0.023722
2484	0.021409
2480	-0.004100
2476	0.037884
2472	0.062012
2468	0.021409
2464	-0.054478
2460	-0.077366
2456	0.009179
2452	0.115561
2448	0.137710
2444	0.094151
2440	0.039887
2436	0.019574
2432	0.019621
2428	0.076460
2424	0.296401
2420	0.443768
2416	0.190377
2412	-0.230145
2408	-0.330471
2404	-0.115299
2400	0.078988
2396	0.168251
2392	0.187516
2388	0.160717
2384	0.141930
2380	0.137901
2376	0.155258
2372	0.200605
2368	0.199699
2364	0.150942
2360	0.229120
2356	0.391674
2352	0.454378
2348	0.447058
2344	0.434637
2340	0.431704
2336	0.451683
2332	0.515198
2328	0.607609
2324	0.662159
2320	0.657677
2316	0.683283
2312	0.768613
2308	0.823330
2304	0.880479
2300	0.968861
2296	1.040410
2292	1.119232
2288	1.208472
2284	1.313352
2280	1.433706
2276	1.513242
2272	1.607203
2268	1.801180
2264	1.960277
2260	2.018404
2256	2.230095
2252	2.594399
2248	2.852368
2244	3.014469
2240	3.215074
2236	3.487372
2232	3.758430
2228	4.016232
2224	4.308152
2220	4.588174
2216	4.836487
2212	5.139946
2208	5.522942
2204	5.909013
2200	6.284737
2196	6.658005
2192	7.011175
2188	7.385444
2184	7.814478
2180	8.274126
2176	8.725118
2172	9.181427
2168	9.630775
2164	10.0779
2160	10.6005
2156	11.0886
2152	11.4553
2148	11.9002
2144	12.4958
2140	13.1134
2136	13.7271
2132	14.2865
2128	14.7677
2124	15.2815
2120	15.8149
2116	16.3368
2112	16.894
2108	17.4614
2104	17.9851
2100	18.4967
2096	19.0559
2092	19.5598
2088	19.9018
2084	20.2678
2080	20.8913
2076	21.6277
2072	22.1449
2068	22.5026
2064	22.9724
2060	23.4703
2056	23.883
2052	24.3566
2048	24.8348
2044	25.1852
2040	25.5134
2036	25.9159
2032	26.3456
2028	26.7165
2024	27.0721
2020	27.4537
2016	27.813
2012	28.1713
2008	28.536
2004	28.8561
2000	29.1131
1996	29.3496
1992	29.6226
1988	29.9361
1984	30.233
1980	30.4804
1976	30.7146
1972	30.9693
1968	31.2161
1964	31.4382
1960	31.6602
1956	31.8905
1952	32.1439
1948	32.3877
1944	32.5661
1940	32.7337
1936	32.9043
1932	33.0582
1928	33.1796
1924	33.2692
1920	33.3756
1916	33.5226
1912	33.7127
1908	33.9097
1904	34.0873
1900	34.2398
1896	34.3807
1892	34.5107
1888	34.6138
1884	34.6705
1880	34.7107
1876	34.8056
1872	34.9452
1868	35.0506
1864	35.1166
1860	35.1888
1856	35.2542
1852	35.3045
1848	35.3286
1844	35.3838
1840	35.5552
1836	35.745
1832	35.8565
1828	35.919
1824	35.9635
1820	36.0245
1816	36.0864
1812	36.1068
1808	36.073
1804	36.0116
1800	36.0222
1796	36.055
1792	36.0326
1788	36.053
1784	36.144
1780	36.2372
1776	36.3151
1772	36.3847
1768	36.4005
1764	36.3903
1760	36.4532
1756	36.569
1752	36.6315
1748	36.5873
1744	36.5124
1740	36.5094
1736	36.5376
1732	36.4866
1728	36.4681
1724	36.6141
1720	36.7592
1716	36.7792
1712	36.7673
1708	36.7945
1704	36.8046
1700	36.7631
1696	36.7509
1692	36.7959
1688	36.8188
1684	36.7592
1680	36.6416
1676	36.5888
1672	36.6112
1668	36.6238
1664	36.6533
1660	36.7567
1656	36.8879
1652	36.9623
1648	37.0065
1644	37.0739
1640	37.0939
1636	37.0465
1632	37.0404
1628	37.0568
1624	37.012
1620	36.9452
1616	36.8617
1612	36.7458
1608	36.6991
1604	36.7435
1600	36.8281
1596	36.9443
1592	36.9939
1588	36.9798
1584	37.0238
1580	37.0802
1576	37.0582
1572	37.0121
1568	37.0078
1564	36.9874
1560	36.8918
1556	36.8037
1552	36.7333
1548	36.7064
1544	36.7875
1540	36.858
1536	36.8567
1532	36.8742
1528	36.9135
1524	36.9818
1520	37.1133
1516	37.2059
1512	37.228
1508	37.2085
1504	37.1289
1500	37.038
1496	36.9368
1492	36.8266
1488	36.7778
1484	36.7735
1480	36.7933
1476	36.8097
1472	36.8344
1468	36.9455
1464	37.0958
1460	37.1207
1456	37.0422
1452	37.1142
1448	37.2981
1444	37.2384
1440	36.9484
1436	36.7891
1432	36.8213
1428	36.8128
1424	36.7274
1420	36.6834
1416	36.6852
1412	36.7018
1408	36.7439
1404	36.8163
1400	36.9048
1396	36.964
1392	37.0205
1388	37.105
1384	37.1826
1380	37.2173
1376	37.1353
1372	36.9254
1368	36.7456
1364	36.6719
1360	36.579
1356	36.4712
1352	36.4656
1348	36.5315
1344	36.6229
1340	36.7632
1336	36.8713
1332	36.9439
1328	37.0962
1324	37.1584
1320	37.0214
1316	36.9108
1312	36.8708
1308	36.7993
1304	36.7007
1300	36.5771
1296	36.4418
1292	36.363
1288	36.3904
1284	36.474
1280	36.57
1276	36.7059
1272	36.8624
1268	36.9954
1264	37.0774
1260	37.1308
1256	37.1099
1252	37.0034
1248	36.9108
1244	36.7593
1240	36.5184
1236	36.356
1232	36.336
1228	36.3049
1224	36.2604
1220	36.3599
1216	36.5415
1212	36.6209
1208	36.6087
1204	36.7303
1200	36.9573
1196	37.032
1192	36.9888
1188	36.9534
1184	36.9116
1180	36.807
1176	36.6491
1172	36.4658
1168	36.2646
1164	36.0944
1160	36.0266
1156	36.0952
1152	36.1896
1148	36.3129
1144	36.4903
1140	36.626
1136	36.7818
1132	36.9015
1128	36.8491
1124	36.7803
1120	36.7298
1116	36.5091
1112	36.2125
1108	36.0241
1104	35.8697
1100	35.7672
1096	35.9105
1092	36.1604
1088	36.1988
1084	36.1266
1080	36.2504
1076	36.5408
1072	36.7667
1068	36.8408
1064	36.8277
1060	36.7329
1056	36.4901
1052	36.2422
1048	36.1631
1044	36.1254
1040	35.9578
1036	35.7299
1032	35.6296
1028	35.6815
1024	35.8318
1020	36.0537
1016	36.2363
1012	36.3101
1008	36.3861
1004	36.5327
1000	36.5953
996	 36.5457
992	 36.4377
988	 36.2289
984	 35.914
980	 35.62
976	 35.5226
972	 35.4757
968	 35.3387
964	 35.3361
960	 35.5784
956	 35.8346
952	 35.9605
948	 36.0367
944	 36.1268
940	 36.2397
936	 36.2487
932	 36.1296
928	 36.0197
924	 35.9805
920	 35.9552
916	 35.7243
912	 35.3796
908	 35.1763
904	 35.0121
900	 34.8312
896	 34.8286
892	 35.0374
888	 35.2528
884	 35.3635
880	 35.5049
876	 35.8093
872	 36.0388
868	 35.9949
864	 35.8106
860	 35.5559
856	 35.2438
852	 34.9139
848	 34.5973
844	 34.3819
840	 34.3946
836	 34.5441
832	 34.566
828	 34.5349
824	 34.5623
820	 34.646
816	 34.9141
812	 35.0897
808	 34.9552
804	 34.916
800	 35.0455
796	 34.9398
792	 34.6107
788	 34.3663
784	 34.2021
780	 34.0109
776	 33.8792
772	 33.7898
768	 33.7155
764	 33.7613
760	 33.9982
756	 34.3183
752	 34.361
748	 34.2619
744	 34.4368
740	 34.6747
736	 34.6545
732	 34.3722
728	 33.9489
724	 33.549
720	 33.3416
716	 33.2043
712	 32.9312
708	 32.6179
704	 32.4238
700	 32.4308
696	 32.7805
692	 33.3903
688	 33.7427
684	 33.6563
680	 33.5482
676	 33.5755
672	 33.5481
668	 33.4404
664	 33.2908
660	 33.0052
656	 32.6261
652	 32.3577
648	 32.1703
644	 31.8464
640	 31.6225
636	 31.7432
632	 31.9801
628	 32.2838
624	 32.5568
620	 32.6619
616	 32.5921
612	 32.322
608	 32.1693
604	 32.0515
600	 31.6826
596	 31.357
592	 31.1564
588	 31.0639
584	 31.0466
580	 30.8666
576	 30.6362
572	 30.6784
568	 31.0237
564	 31.2666
560	 31.024
556	 30.6293
552	 30.6545
548	 31.1269
544	 31.4414
540	 31.1979
536	 30.7961
532	 30.5648
528	 30.1644
524	 29.5175
520	 29.2318
516	 29.1792
512	 28.8243
508	 28.4154
504	 28.5316
500	 29.0961
496	 29.3389
492	 29.0381
488	 28.9131
484	 29.48
480	 29.9287
476	 29.4511
472	 28.906
468	 28.9328
464	 28.5394
460	 27.2566
456	 26.5449
452	 27.6706
448	 28.7588
444	 28.0103
440	 28.1048
436	 30.1645
432	 31.1756
428	 29.7435
424	 27.2248
420	 25.7339
416	 27.3974
412	 31.0082
408	 27.0922
404	 14.4792
400	 9.679532
396	 12.7963
392	 12.9011
388	 17.7725
384	 26.902
380	 19.7081
376	 10.4683
372	 11.9866
370	 8.088564