File: Bakgrunnsmateriale/MATLAB/FTIR/ftir_data/LPE453/Mapping_121/LPE453_t59.asc
PE IR       SPECTRUM    SPECTRUM    ASCII       PEDS        1.60
  -1
LPE7AD~1.ASC
17/05/16
19:11:27.00
17/05/16
19:11:53.00
tln
$LPE453_t0059$<tbV0>[5.2,0.0,8.0,0.0,27,1,0]
27.028
64

2002,4.07
MIRTGS : RIGHTBACK : INTERNAL 2
MIR : ON : INTERNAL 2
OPTKBR

0.200000
8
8.000000
FILLER
RATIO
SPECTRUM
UNLOCKED 256

DOUBLE
64
COMBINED
1
0
0

0.002000
RATIO

1
0
TRUE
51149
0
LEFT NOT FITTED RIGHT NOT FITTED 0
NONE
NONE
15600
12
4.427000
51148
TRUE
1 0 8 72 0 0 0 0

15798

#HDR
-1
-1
#GR
µM
%T
2.38419e-05
0.0
2.000000
0.002000
12515
8
25.8045
-2.443956
#DATA
2.000000	 0.574278
2.018000	 0.172099
2.036000	 0.328103
2.054000	 0.400215
2.072000	 -0.071080
2.090000	 0.549792
2.108000	 0.906930
2.126000	 -0.358085
2.144000	 0.233921
2.162000	 1.011057
2.180000	 -0.515799
2.198000	 -1.162256
2.216000	 -1.187017
2.234000	 13.3916
2.252000	 -1.077713
2.270000	 0.487656
2.288000	 0.713959
2.306000	 0.716884
2.324000	 0.287395
2.342000	 0.344846
2.360000	 -0.432304
2.378000	 0.118159
2.396000	 0.109294
2.414000	 0.203936
2.432000	 0.255426
2.450000	 0.112892
2.468000	 0.195466
2.486000	 0.039299
2.504000	 0.100537
2.522000	 0.074403
2.540000	 0.025596
2.558000	 0.020997
2.576000	 0.001666
2.594000	 0.091327
2.612000	 0.060964
2.630000	 0.216198
2.648000	 0.109027
2.666000	 0.015634
2.684000	 0.174611
2.702000	 -0.002220
2.720000	 0.035414
2.738000	 0.122546
2.756000	 0.124257
2.774000	 -0.027555
2.792000	 0.121574
2.810000	 0.037658
2.828000	 -0.047585
2.846000	 -0.007109
2.864000	 0.136030
2.882000	 0.150359
2.900000	 0.066308
2.918000	 -0.098233
2.936000	 0.034184
2.954000	 -0.034026
2.972000	 0.111423
2.990000	 -0.031716
3.008000	 -0.021409
3.026000	 -0.012841
3.044000	 -0.018696
3.062000	 0.200172
3.080000	 -0.009603
3.098000	 0.049486
3.116000	 0.188003
3.134000	 0.004081
3.152000	 0.044201
3.170000	 0.069985
3.188000	 -0.021316
3.206000	 0.036251
3.224000	 0.190504
3.242000	 0.036087
3.260000	 -0.047604
3.278000	 0.098797
3.296000	 0.165806
3.314000	 0.043858
3.332000	 -0.016385
3.350000	 0.142041
3.368000	 -0.113462
3.386000	 0.022986
3.404000	 -0.008993
3.422000	 0.091195
3.440000	 0.055956
3.458000	 0.091824
3.476000	 0.015835
3.494000	 -0.009845
3.512000	 0.151610
3.530000	 0.002361
3.548000	 0.051281
3.566000	 0.071439
3.584000	 -0.028869
3.602000	 -0.047080
3.620000	 0.012984
3.638000	 0.108573
3.656000	 -0.006728
3.674000	 0.060833
3.692000	 0.076290
3.710000	 0.114260
3.728000	 -0.001494
3.746000	 -0.008484
3.764000	 0.106464
3.782000	 0.104283
3.800000	 0.037533
3.818000	 0.051167
3.836000	 -0.013881
3.854000	 -0.012526
3.872000	 0.001011
3.890000	 0.140708
3.908000	 -0.091752
3.926000	 0.067537
3.944000	 -0.027908
3.962000	 0.135613
3.980000	 0.112159
3.998000	 0.025776
4.016000	 0.023185
4.034000	 -0.000909
4.052000	 -0.162111
4.070000	 -0.007363
4.088000	 0.006573
4.106000	 0.026305
4.124000	 0.070964
4.141999	 0.032923
4.160000	 0.120727
4.178000	 -0.091744
4.196000	 -0.124207
4.214000	 0.057682
4.232000	 0.007329
4.250000	 -0.010641
4.268000	 0.006912
4.286000	 -0.043633
4.304000	 -0.048374
4.322000	 -0.070987
4.340000	 -0.018790
4.358000	 0.042139
4.375999	 0.141651
4.394000	 0.081864
4.412000	 0.087601
4.430000	 0.273890
4.448000	 0.324724
4.466000	 0.409551
4.484000	 0.571859
4.502000	 0.598861
4.520000	 0.807304
4.538000	 1.084961
4.556000	 1.375541
4.574000	 1.678296
4.592000	 2.005481
4.609999	 2.373713
4.628000	 2.774486
4.646000	 3.383294
4.664000	 3.823374
4.682000	 4.450152
4.700000	 5.075804
4.718000	 5.734100
4.736000	 6.421746
4.754000	 7.142341
4.772000	 7.844000
4.790000	 8.461484
4.808000	 9.374803
4.826000	 10.2255
4.843999	 10.8073
4.862000	 11.415
4.880000	 12.2011
4.898000	 12.9094
4.916000	 13.5851
4.934000	 14.1604
4.952000	 14.9186
4.970000	 15.6818
4.988000	 16.2485
5.006000	 16.6873
5.024000	 17.3408
5.042000	 17.8009
5.060000	 18.2746
5.077999	 18.8217
5.096000	 19.2839
5.114000	 19.6422
5.132000	 20.0842
5.150000	 20.4273
5.168000	 20.7301
5.186000	 21.0659
5.204000	 21.4694
5.222000	 21.7805
5.240000	 22.0163
5.258000	 22.267
5.276000	 22.5124
5.294000	 22.8132
5.312000	 22.9921
5.330000	 23.1654
5.348000	 23.3295
5.366000	 23.5945
5.384000	 23.7208
5.402000	 23.8281
5.420000	 23.9184
5.438000	 24.0636
5.456000	 24.2702
5.474000	 24.4489
5.492000	 24.5454
5.510000	 24.6686
5.528000	 24.8077
5.546000	 24.7921
5.564000	 24.826
5.582000	 24.9133
5.600000	 25.0167
5.618000	 25.0806
5.636000	 25.0977
5.654000	 25.2087
5.672000	 25.3428
5.690000	 25.3978
5.708000	 25.337
5.726000	 25.3832
5.744000	 25.3951
5.762000	 25.4478
5.780000	 25.5003
5.798000	 25.5282
5.816000	 25.5807
5.834000	 25.5965
5.852000	 25.7469
5.870000	 25.7462
5.888000	 25.6542
5.906000	 25.6705
5.923999	 25.7418
5.942000	 25.766
5.960000	 25.7012
5.978000	 25.6537
5.996000	 25.6322
6.014000	 25.6781
6.032000	 25.7223
6.050000	 25.6575
6.068000	 25.6372
6.086000	 25.6891
6.104000	 25.7667
6.122000	 25.7329
6.140000	 25.7442
6.158000	 25.8028
6.176000	 25.7909
6.194000	 25.7643
6.212000	 25.6877
6.230000	 25.6472
6.248000	 25.6958
6.266000	 25.7416
6.284000	 25.7322
6.302000	 25.6361
6.320000	 25.5933
6.338000	 25.582
6.356000	 25.5696
6.374000	 25.6212
6.392000	 25.6794
6.410000	 25.7029
6.428000	 25.72
6.446000	 25.711
6.464000	 25.643
6.482000	 25.6134
6.500000	 25.6085
6.518000	 25.6072
6.536000	 25.6387
6.554000	 25.6392
6.572000	 25.5942
6.590000	 25.5731
6.608000	 25.6086
6.626000	 25.6146
6.644000	 25.5899
6.662000	 25.608
6.680000	 25.6378
6.698000	 25.6209
6.716000	 25.574
6.734000	 25.5466
6.752000	 25.5527
6.770000	 25.5568
6.788000	 25.5647
6.806000	 25.5578
6.824000	 25.4765
6.842000	 25.363
6.860000	 25.2547
6.878000	 25.1563
6.896000	 25.1392
6.914000	 25.1905
6.932000	 25.2203
6.950000	 25.2823
6.968000	 25.4047
6.986000	 25.4702
7.004000	 25.4534
7.022000	 25.3991
7.040000	 25.3196
7.058000	 25.2483
7.076000	 25.1996
7.094000	 25.172
7.112000	 25.1662
7.130000	 25.1381
7.148000	 25.1107
7.166000	 25.1554
7.184000	 25.2238
7.202000	 25.2447
7.220000	 25.219
7.238000	 25.152
7.256000	 25.0718
7.274000	 25.0232
7.292000	 25.0135
7.310000	 25.0211
7.328000	 25.0146
7.346000	 25.0018
7.364000	 25.0362
7.382000	 25.1084
7.400000	 25.1483
7.418000	 25.1299
7.436000	 25.0784
7.454000	 25.0284
7.472000	 24.9971
7.490000	 24.9613
7.508000	 24.9127
7.526000	 24.9014
7.544000	 24.948
7.562000	 24.9911
7.580000	 24.9791
7.598000	 24.931
7.616000	 24.8914
7.634000	 24.879
7.652000	 24.8722
7.670000	 24.8424
7.688000	 24.7974
7.706000	 24.7654
7.724000	 24.7572
7.742000	 24.7637
7.760000	 24.7612
7.778000	 24.7238
7.796000	 24.661
7.814000	 24.6142
7.832000	 24.6061
7.850000	 24.6131
7.868000	 24.6083
7.886000	 24.6035
7.904000	 24.6078
7.922000	 24.5952
7.940000	 24.5578
7.958000	 24.5355
7.976000	 24.5458
7.994000	 24.5544
8.012000	 24.5443
8.030000	 24.5383
8.048000	 24.551
8.065999	 24.565
8.084000	 24.556
8.102000	 24.5177
8.120000	 24.4604
8.138000	 24.4009
8.155999	 24.363
8.173999	 24.3675
8.192000	 24.4061
8.210000	 24.4407
8.228000	 24.4403
8.246000	 24.4185
8.263999	 24.4129
8.282000	 24.4264
8.300000	 24.4143
8.318000	 24.345
8.336000	 24.2534
8.353999	 24.2114
8.372000	 24.2506
8.390000	 24.3239
8.408000	 24.3565
8.426000	 24.3236
8.443999	 24.2698
8.462000	 24.2466
8.480000	 24.2503
8.498000	 24.2383
8.516000	 24.1931
8.533999	 24.1415
8.552000	 24.1163
8.570000	 24.116
8.588000	 24.1149
8.606000	 24.1017
8.624000	 24.0882
8.641999	 24.0826
8.660000	 24.0777
8.678000	 24.068
8.696000	 24.0614
8.714000	 24.067
8.731999	 24.0744
8.750000	 24.0564
8.768000	 23.9941
8.786000	 23.8982
8.804000	 23.8024
8.821999	 23.7361
8.840000	 23.7095
8.858000	 23.7177
8.876000	 23.7523
8.894000	 23.801
8.911999	 23.8418
8.930000	 23.8489
8.948000	 23.8102
8.966000	 23.7371
8.984000	 23.6564
9.001999	 23.5919
9.020000	 23.5556
9.038000	 23.5508
9.056000	 23.5763
9.074000	 23.6229
9.092000	 23.6699
9.109999	 23.6898
9.128000	 23.6625
9.146000	 23.5906
9.164000	 23.501
9.182000	 23.4293
9.199999	 23.3955
9.218000	 23.3896
9.236000	 23.3793
9.254000	 23.3352
9.272000	 23.2559
9.289999	 23.1707
9.308000	 23.1176
9.326000	 23.1149
9.344000	 23.1499
9.362000	 23.1928
9.379999	 23.2217
9.398000	 23.2341
9.416000	 23.2398
9.434000	 23.2444
9.452000	 23.2421
9.469999	 23.2226
9.488000	 23.1811
9.506000	 23.1234
9.524000	 23.0622
9.542000	 23.0121
9.560000	 22.9864
9.577999	 22.992
9.596000	 23.0222
9.614000	 23.0581
9.632000	 23.0764
9.650000	 23.0651
9.667999	 23.0306
9.686000	 22.9917
9.704000	 22.9635
9.722000	 22.9451
9.740000	 22.9247
9.757999	 22.8953
9.776000	 22.8657
9.794000	 22.856
9.812000	 22.8787
9.830000	 22.9229
9.847999	 22.9618
9.866000	 22.9744
9.884000	 22.9627
9.902000	 22.9455
9.920000	 22.9368
9.937999	 22.9308
9.956000	 22.911
9.974000	 22.8703
9.992000	 22.8201
10.01	22.7794
10.028	22.755
10.046	22.7335
10.064	22.6961
10.082	22.6384
10.1	22.5779
10.118	22.5407
10.136	22.5383
10.154	22.5584
10.172	22.5752
10.19	22.5686
10.208	22.5379
10.226	22.4957
10.244	22.4551
10.262	22.4183
10.28	22.3787
10.298	22.3304
10.316	22.2754
10.334	22.2231
10.352	22.1825
10.37	22.1569
10.388	22.1425
10.406	22.1332
10.424	22.1234
10.442	22.1088
10.46	22.0862
10.478	22.0527
10.496	22.0088
10.514	21.9594
10.532	21.9135
10.55	21.8807
10.568	21.8667
10.586	21.8711
10.604	21.8881
10.622	21.9096
10.64	21.9272
10.658	21.9341
10.676	21.925
10.694	21.8971
10.712	21.8519
10.73	21.7961
10.748	21.7405
10.766	21.6958
10.784	21.6679
10.802	21.6547
10.82	21.6484
10.838	21.6397
10.856	21.6237
10.874	21.6022
10.892	21.5809
10.91	21.566
10.928	21.558
10.946	21.5524
10.964	21.5412
10.982	21.516
11	21.4724
11.018	21.4108
11.036	21.338
11.054	21.2664
11.072	21.2099
11.09	21.1809
11.108	21.1846
11.126	21.2172
11.144	21.2665
11.162	21.3152
11.18	21.3481
11.198	21.3559
11.216	21.3372
11.234	21.2977
11.252	21.2468
11.27	21.1935
11.288	21.1454
11.306	21.1071
11.324	21.0804
11.342	21.0641
11.36	21.0551
11.378	21.0489
11.396	21.0423
11.414	21.0329
11.432	21.0197
11.45	21.0032
11.468	20.9844
11.486	20.9637
11.504	20.9411
11.522	20.9163
11.54	20.8903
11.558	20.8642
11.576	20.8407
11.594	20.8222
11.612	20.8099
11.63	20.8035
11.648	20.8012
11.666	20.7993
11.684	20.7935
11.702	20.7804
11.72	20.7587
11.738	20.731
11.756	20.7028
11.774	20.6809
11.792	20.6696
11.81	20.6682
11.828	20.6705
11.846	20.6659
11.864	20.6443
11.882	20.6
11.9	20.5333
11.918	20.4517
11.936	20.3665
11.954	20.2893
11.972	20.2289
11.99	20.1887
12.008	20.1678
12.026	20.1609
12.044	20.1618
12.062	20.1629
12.08	20.1576
12.098	20.1409
12.116	20.1108
12.134	20.0689
12.152	20.0202
12.17	19.9712
12.188	19.928
12.206	19.8941
12.224	19.8696
12.242	19.8518
12.26	19.837
12.278	19.8212
12.296	19.8021
12.314	19.7793
12.332	19.7539
12.35	19.7281
12.368	19.7044
12.386	19.6846
12.404	19.6697
12.422	19.6599
12.44	19.6552
12.458	19.6551
12.476	19.6585
12.494	19.6638
12.512	19.6687
12.53	19.6702
12.548	19.665
12.566	19.6496
12.584	19.6211
12.602	19.5775
12.62	19.5183
12.638	19.4459
12.656	19.365
12.674	19.2824
12.692	19.2054
12.71	19.1401
12.728	19.0901
12.746	19.0557
12.764	19.0342
12.782	19.0208
12.8	19.0106
12.818	18.9998
12.836	18.9881
12.854	18.9777
12.872	18.9725
12.89	18.9766
12.908	18.9927
12.926	19.021
12.944	19.0584
12.962	19.0998
12.98	19.1386
12.998	19.1691
13.016	19.1866
13.034	19.188
13.052	19.1723
13.07	19.1401
13.088	19.094
13.106	19.0377
13.124	18.9772
13.142	18.9185
13.16	18.8683
13.178	18.8315
13.196	18.8108
13.214	18.805
13.232	18.8088
13.25	18.8138
13.268	18.8099
13.286	18.7879
13.304	18.7414
13.322	18.6695
13.34	18.577
13.358	18.474
13.376	18.3734
13.394	18.2885
13.412	18.23
13.43	18.2034
13.448	18.2079
13.466	18.2369
13.484	18.2802
13.502	18.3259
13.52	18.3638
13.538	18.3866
13.556	18.3911
13.574	18.3783
13.592	18.352
13.61	18.317
13.628	18.2777
13.646	18.237
13.664	18.1959
13.682	18.1542
13.7	18.1108
13.718	18.0656
13.736	18.0195
13.754	17.9751
13.772	17.9362
13.79	17.9071
13.808	17.8918
13.826	17.8923
13.844	17.9093
13.862	17.9415
13.88	17.9856
13.898	18.0376
13.916	18.0923
13.934	18.1444
13.952	18.189
13.97	18.2219
13.988	18.2399
14.006	18.2414
14.024	18.2264
14.042	18.1968
14.06	18.1561
14.078	18.109
14.096	18.0602
14.114	18.0143
14.132	17.9745
14.15	17.9422
14.168	17.9172
14.186	17.8973
14.204	17.8792
14.222	17.8591
14.24	17.8336
14.258	17.8011
14.276	17.7612
14.294	17.7158
14.312	17.6677
14.33	17.6204
14.348	17.5776
14.366	17.5416
14.384	17.5137
14.402	17.4935
14.42	17.4796
14.438	17.4698
14.456	17.4617
14.474	17.4531
14.492	17.4426
14.51	17.4297
14.528	17.4145
14.546	17.3983
14.564	17.3823
14.582	17.3678
14.6	17.3558
14.618	17.3464
14.636	17.3386
14.654	17.331
14.672	17.3217
14.69	17.3093
14.708	17.2924
14.726	17.2708
14.744	17.2451
14.762	17.2172
14.78	17.1895
14.798	17.1641
14.816	17.1433
14.834	17.1281
14.852	17.1185
14.87	17.1127
14.888	17.1079
14.906	17.1006
14.924	17.0872
14.942	17.0638
14.96	17.0285
14.978	16.9809
14.996	16.9223
15.014	16.855
15.032	16.7838
15.05	16.7133
15.068	16.6476
15.086	16.5898
15.104	16.5422
15.122	16.5057
15.14	16.4793
15.158	16.4618
15.176	16.4516
15.194	16.447
15.212	16.4466
15.23	16.4499
15.248	16.4568
15.266	16.4675
15.284	16.482
15.302	16.4998
15.32	16.52
15.338	16.5409
15.356	16.5604
15.374	16.5751
15.392	16.5825
15.41	16.5802
15.428	16.5665
15.446	16.5404
15.464	16.5029
15.482	16.4553
15.5	16.4001
15.518	16.3406
15.536	16.28
15.554	16.2208
15.572	16.1656
15.59	16.1165
15.608	16.0742
15.626	16.0389
15.644	16.0106
15.662	15.9887
15.68	15.9723
15.698	15.9609
15.716	15.9537
15.734	15.95
15.752	15.9495
15.77	15.9516
15.788	15.9557
15.806	15.9611
15.824	15.9671
15.842	15.9727
15.86	15.9772
15.878	15.9797
15.896	15.9793
15.914	15.9752
15.932	15.9671
15.95	15.9547
15.968	15.9382
15.986	15.9181
16.004	15.8948
16.022	15.869
16.04	15.8416
16.058	15.8132
16.076	15.7846
16.094	15.7563
16.112	15.7291
16.13	15.7032
16.148	15.6791
16.166	15.6573
16.184	15.6381
16.202	15.6221
16.22	15.6096
16.238	15.6008
16.256	15.5958
16.274	15.5945
16.292	15.5963
16.31	15.6008
16.328	15.6067
16.346	15.6126
16.364	15.6175
16.382	15.6194
16.4	15.6172
16.418	15.61
16.436	15.5968
16.454	15.5778
16.472	15.5532
16.49	15.5244
16.508	15.4932
16.526	15.4612
16.544	15.4313
16.562	15.4057
16.58	15.3861
16.598	15.3748
16.616	15.3725
16.634	15.3798
16.652	15.3963
16.67	15.4209
16.688	15.4526
16.706	15.4887
16.724	15.5277
16.742	15.5674
16.76	15.6055
16.778	15.641
16.796	15.6721
16.814	15.6983
16.832	15.7191
16.85	15.7342
16.868	15.7438
16.886	15.748
16.904	15.7467
16.922	15.7397
16.94	15.7271
16.958	15.708
16.976	15.6823
16.994	15.649
17.012	15.608
17.03	15.5589
17.048	15.5019
17.066	15.4376
17.084	15.3668
17.102	15.2916
17.12	15.2129
17.138	15.1338
17.156	15.056
17.174	14.9813
17.192	14.9126
17.21	14.8507
17.228	14.7975
17.246	14.7535
17.264	14.7192
17.282	14.6944
17.3	14.6786
17.318	14.6709
17.336	14.6703
17.354	14.676
17.372	14.6864
17.39	14.701
17.408	14.7186
17.426	14.7386
17.444	14.7604
17.462	14.783
17.48	14.8061
17.498	14.8289
17.516	14.8505
17.534	14.8706
17.552	14.8879
17.57	14.902
17.588	14.9114
17.606	14.9157
17.624	14.9142
17.642	14.9063
17.66	14.8914
17.678	14.8697
17.696	14.8414
17.714	14.8068
17.732	14.7663
17.75	14.7206
17.768	14.6707
17.786	14.6169
17.804	14.5604
17.822	14.5015
17.84	14.4416
17.858	14.3812
17.876	14.321
17.894	14.2623
17.912	14.2056
17.93	14.1526
17.948	14.1038
17.966	14.0612
17.984	14.0254
18.002	13.9981
18.02	13.9799
18.038	13.9718
18.056	13.9738
18.074	13.9863
18.092	14.0082
18.11	14.0391
18.128	14.0765
18.146	14.1192
18.164	14.1638
18.182	14.2082
18.2	14.2494
18.218	14.2843
18.236	14.3111
18.254	14.3269
18.272	14.3309
18.29	14.3218
18.308	14.2995
18.326	14.2652
18.344	14.2195
18.362	14.1655
18.38	14.1048
18.398	14.0414
18.416	13.9776
18.434	13.9169
18.452	13.862
18.47	13.8152
18.488	13.7788
18.506	13.7541
18.524	13.7415
18.542	13.7415
18.56	13.7525
18.578	13.7746
18.596	13.8045
18.614	13.8418
18.632	13.8825
18.65	13.9263
18.668	13.9692
18.686	14.011
18.704	14.0486
18.722	14.082
18.74	14.1095
18.758	14.1312
18.776	14.1467
18.794	14.1564
18.812	14.1607
18.83	14.16
18.848	14.1552
18.866	14.1466
18.884	14.1351
18.902	14.1208
18.92	14.1041
18.938	14.0848
18.956	14.063
18.974	14.0385
18.992	14.011
19.01	13.9802
19.028	13.9457
19.046	13.9076
19.064	13.8654
19.082	13.8197
19.1	13.7704
19.118	13.7181
19.136	13.6636
19.154	13.6075
19.172	13.5512
19.19	13.4951
19.208	13.441
19.226	13.3891
19.244	13.3412
19.262	13.2972
19.28	13.2583
19.298	13.2244
19.316	13.1958
19.334	13.1725
19.352	13.1539
19.37	13.1398
19.388	13.1287
19.406	13.1208
19.424	13.1139
19.442	13.1081
19.46	13.1017
19.478	13.0944
19.496	13.0852
19.514	13.0738
19.532	13.0599
19.55	13.043
19.568	13.0235
19.586	13.0014
19.604	12.9771
19.622	12.9511
19.64	12.9237
19.658	12.896
19.676	12.868
19.694	12.8408
19.712	12.8144
19.73	12.7897
19.748	12.7666
19.766	12.7456
19.784	12.7267
19.802	12.7098
19.82	12.6948
19.838	12.6816
19.856	12.6696
19.874	12.6589
19.892	12.6485
19.91	12.6385
19.928	12.628
19.946	12.617
19.964	12.6048
19.982	12.5912
20	12.5759
20.018	12.5587
20.036	12.5398
20.054	12.519
20.072	12.4964
20.09	12.4726
20.108	12.4475
20.126	12.4221
20.144	12.3963
20.162	12.3711
20.18	12.3467
20.198	12.3237
20.216	12.3028
20.234	12.284
20.252	12.2681
20.27	12.255
20.288	12.2448
20.306	12.2377
20.324	12.2332
20.342	12.2311
20.36	12.2312
20.378	12.2327
20.396	12.2357
20.414	12.2387
20.432	12.2421
20.45	12.2445
20.468	12.2456
20.486	12.2449
20.504	12.2412
20.522	12.2349
20.54	12.2246
20.558	12.2104
20.576	12.1919
20.594	12.1688
20.612	12.1414
20.63	12.1096
20.648	12.0736
20.666	12.0342
20.684	11.9914
20.702	11.9463
20.72	11.8994
20.738	11.8509
20.756	11.8031
20.774	11.7552
20.792	11.7098
20.81	11.667
20.828	11.6279
20.846	11.5943
20.864	11.5657
20.882	11.5438
20.9	11.5285
20.918	11.5203
20.936	11.5196
20.954	11.5261
20.972	11.5396
20.99	11.5603
21.008	11.5867
21.026	11.6186
21.044	11.6553
21.062	11.6945
21.08	11.7369
21.098	11.7797
21.116	11.8225
21.134	11.8645
21.152	11.9033
21.17	11.9394
21.188	11.971
21.206	11.9977
21.224	12.0192
21.242	12.0346
21.26	12.0441
21.278	12.0475
21.296	12.0448
21.314	12.0362
21.332	12.0219
21.35	12.0019
21.368	11.9768
21.386	11.9469
21.404	11.912
21.422	11.8727
21.44	11.8289
21.458	11.7805
21.476	11.7275
21.494	11.6699
21.512	11.6072
21.53	11.5397
21.548	11.467
21.566	11.3887
21.584	11.305
21.602	11.2164
21.62	11.1226
21.638	11.0244
21.656	10.9227
21.674	10.8169
21.692	10.7102
21.71	10.6028
21.728	10.4956
21.746	10.3929
21.764	10.2932
21.782	10.2005
21.8	10.1181
21.818	10.0447
21.836	9.985576
21.854	9.940859
21.872	9.911494
21.89	9.901326
21.908	9.909397
21.926	9.936378
21.944	9.983424
21.962	10.0498
21.98	10.1339
21.998	10.2368
22.016	10.3561
22.034	10.488
22.052	10.6345
22.07	10.7904
22.088	10.9523
22.106	11.1219
22.124	11.2919
22.142	11.4616
22.16	11.6303
22.178	11.7914
22.196	11.9464
22.214	12.0927
22.232	12.2263
22.25	12.3488
22.268	12.458
22.286	12.5522
22.304	12.6324
22.322	12.6981
22.34	12.7488
22.358	12.7851
22.376	12.8083
22.394	12.8177
22.412	12.8145
22.43	12.8005
22.448	12.7748
22.466	12.7393
22.484	12.6954
22.502	12.6423
22.52	12.5821
22.538	12.5153
22.556	12.4417
22.574	12.3633
22.592	12.2803
22.61	12.1927
22.628	12.1025
22.646	12.009
22.664	11.9132
22.682	11.8165
22.7	11.7184
22.718	11.6199
22.736	11.522
22.754	11.4242
22.772	11.3277
22.79	11.2339
22.808	11.1418
22.826	11.053
22.844	10.9683
22.862	10.8872
22.88	10.8104
22.898	10.7382
22.916	10.6705
22.934	10.6075
22.952	10.5495
22.97	10.4964
22.988	10.4476
23.006	10.4031
23.024	10.3629
23.042	10.3267
23.06	10.2946
23.078	10.2665
23.096	10.242
23.114	10.2206
23.132	10.2028
23.15	10.1891
23.168	10.1793
23.186	10.1736
23.204	10.1728
23.222	10.1765
23.24	10.1852
23.258	10.2005
23.276	10.2217
23.294	10.2497
23.312	10.2867
23.33	10.3325
23.348	10.3872
23.366	10.4519
23.384	10.5271
23.402	10.6121
23.42	10.706
23.438	10.8099
23.456	10.9226
23.474	11.0409
23.492	11.1655
23.51	11.2958
23.528	11.4266
23.546	11.5577
23.564	11.6895
23.582	11.8156
23.6	11.934
23.618	12.0469
23.636	12.1478
23.654	12.2335
23.672	12.3069
23.69	12.3634
23.708	12.3996
23.726	12.4179
23.744	12.4166
23.762	12.3938
23.78	12.3498
23.798	12.2865
23.816	12.2052
23.834	12.1037
23.852	11.986
23.87	11.8573
23.888	11.7143
23.906	11.5606
23.924	11.4046
23.942	11.2448
23.96	11.0817
23.978	10.9245
23.996	10.7756
24.014	10.6319
24.032	10.5011
24.05	10.3882
24.068	10.289
24.086	10.2079
24.104	10.1494
24.122	10.1119
24.14	10.0951
24.158	10.0997
24.176	10.127
24.194	10.1749
24.212	10.2404
24.23	10.3237
24.248	10.4252
24.266	10.5397
24.284	10.665
24.302	10.8037
24.32	10.9509
24.338	11.1019
24.356	11.2598
24.374	11.4219
24.392	11.5836
24.41	11.7456
24.428	11.9082
24.446	12.0677
24.464	12.2223
24.482	12.3735
24.5	12.5212
24.518	12.665
24.536	12.8053
24.554	12.9418
24.572	13.0738
24.59	13.2019
24.608	13.3258
24.626	13.4442
24.644	13.5576
24.662	13.6668
24.68	13.7681
24.698	13.8583
24.716	13.9415
24.734	14.0131
24.752	14.066
24.77	14.1011
24.788	14.1197
24.806	14.1135
24.824	14.0771
24.842	14.0158
24.86	13.9248
24.878	13.7974
24.896	13.6346
24.914	13.4376
24.932	13.204
24.95	12.9316
24.968	12.6212
24.986	12.2757
25.004	11.898
25.022	11.483
25.04	11.0358
25.058	10.5669
25.076	10.0782
25.094	9.563027
25.112	9.036632
25.13	8.514121
25.148	7.984531
25.166	7.454738
25.184	6.943387
25.202	6.457773
25.22	5.986100
25.238	5.543925
25.256	5.147595
25.274	4.790505
25.292	4.473294
25.31	4.206841
25.328	3.998337
25.346	3.841804
25.364	3.738249
25.382	3.689613
25.4	3.698747
25.418	3.762490
25.436	3.874656
25.454	4.031493
25.472	4.239973
25.49	4.491040
25.508	4.772757
25.526	5.085990
25.544	5.435863
25.562	5.805630
25.58	6.179725
25.598	6.569373
25.616	6.969046
25.634	7.361969
25.652	7.737896
25.67	8.108231
25.688	8.464896
25.706	8.797430
25.724	9.103249
25.742	9.387276
25.76	9.648262
25.778	9.884735
25.796	10.0934
25.814	10.2789
25.832	10.4482
25.85	10.6042
25.868	10.739
25.886	10.8634
25.904	10.9904
25.922	11.1204
25.94	11.2461
25.958	11.3827
25.976	11.5458
25.994	11.7294
26.012	11.9322
26.03	12.1663
26.048	12.442
26.066	12.7522
26.084	13.0986
26.102	13.4873
26.12	13.9239
26.138	14.4069
26.156	14.9312
26.174	15.492
26.192	16.0917
26.21	16.7355
26.228	17.4068
26.246	18.0884
26.264	18.7871
26.282	19.5081
26.3	20.226
26.318	20.9162
26.336	21.592
26.354	22.2537
26.372	22.8779
26.39	23.4433
26.408	23.967
26.426	24.4437
26.444	24.8535
26.462	25.1793
26.48	25.4332
26.498	25.6139
26.516	25.7138
26.534	25.7267
26.552	25.6567
26.57	25.5052
26.588	25.2726
26.606	24.9576
26.624	24.5573
26.642	24.0788
26.66	23.53
26.678	22.9139
26.696	22.2218
26.714	21.4647
26.732	20.6547
26.75	19.798
26.768	18.8847
26.786	17.9225
26.804	16.9204
26.822	15.8803
26.84	14.7926
26.858	13.6706
26.876	12.529
26.894	11.3723
26.912	10.1856
26.93	8.985798
26.948	7.792051
26.966	6.565543
26.984	5.219194
27.002	3.944030
27.02	2.948956
27.028	2.681374