File: Bakgrunnsmateriale/MATLAB/FTIR/ftir_data/LPE453/Mapping_121/LPE453_t97.asc
PE IR       SPECTRUM    SPECTRUM    ASCII       PEDS        1.60
  -1
LPD7B5~1.ASC
17/05/16
22:20:30.00
17/05/16
22:20:56.00
tln
$LPE453_t0097$<tbV0>[-7.8,7.8,8.0,0.0,27,1,0]
27.028
64

2002,4.07
MIRTGS : RIGHTBACK : INTERNAL 2
MIR : ON : INTERNAL 2
OPTKBR

0.200000
8
8.000000
FILLER
RATIO
SPECTRUM
UNLOCKED 256

DOUBLE
64
COMBINED
1
0
0

0.002000
RATIO

1
0
TRUE
51149
0
LEFT NOT FITTED RIGHT NOT FITTED 0
NONE
NONE
15600
12
4.427000
51148
TRUE
1 0 8 72 0 0 0 0

15798

#HDR
-1
-1
#GR
µM
%T
2.38419e-05
0.0
2.000000
0.002000
12515
8
36.8799
-11.6681
#DATA
2.000000	 -0.334215
2.018000	 0.220385
2.036000	 0.025825
2.054000	 0.177456
2.072000	 0.064865
2.090000	 0.230122
2.108000	 0.499240
2.126000	 0.458119
2.144000	 1.171679
2.162000	 -1.929693
2.180000	 0.674249
2.198000	 0.675848
2.216000	 -4.000513
2.234000	 0.704454
2.252000	 0.523644
2.270000	 0.301555
2.288000	 0.499244
2.306000	 0.301333
2.324000	 0.011075
2.342000	 0.142328
2.360000	 -0.033635
2.378000	 -0.051498
2.396000	 0.150956
2.414000	 0.360183
2.432000	 0.074101
2.450000	 -0.083232
2.468000	 0.075781
2.486000	 0.034691
2.504000	 -0.080366
2.522000	 0.170486
2.540000	 0.081438
2.558000	 -0.045857
2.576000	 0.023954
2.594000	 0.132795
2.612000	 0.152410
2.630000	 -0.076877
2.648000	 0.106619
2.666000	 0.221019
2.684000	 0.080383
2.702000	 -0.003148
2.720000	 0.046932
2.738000	 0.128676
2.756000	 0.018974
2.774000	 -0.086370
2.792000	 0.175819
2.810000	 -0.060351
2.828000	 0.038555
2.846000	 0.156911
2.864000	 0.032629
2.882000	 0.120099
2.900000	 0.012889
2.918000	 0.264002
2.936000	 -0.057112
2.954000	 0.063584
2.972000	 -0.037842
2.990000	 0.002686
3.008000	 0.147942
3.026000	 -0.036724
3.044000	 0.127113
3.062000	 0.095850
3.080000	 -0.209639
3.098000	 -0.025441
3.116000	 0.044244
3.134000	 0.121326
3.152000	 0.113641
3.170000	 -0.042498
3.188000	 0.001858
3.206000	 -0.068164
3.224000	 0.032149
3.242000	 0.095587
3.260000	 0.249453
3.278000	 -0.056588
3.296000	 0.068218
3.314000	 0.067164
3.332000	 0.069000
3.350000	 0.066888
3.368000	 0.079072
3.386000	 0.046574
3.404000	 0.163564
3.422000	 0.012437
3.440000	 -0.050767
3.458000	 0.059175
3.476000	 -0.017761
3.494000	 0.066148
3.512000	 0.107291
3.530000	 0.127411
3.548000	 0.133604
3.566000	 -0.060654
3.584000	 -0.003585
3.602000	 0.007537
3.620000	 0.007048
3.638000	 -0.067954
3.656000	 -0.035473
3.674000	 0.025635
3.692000	 0.069922
3.710000	 -0.018083
3.728000	 0.027134
3.746000	 0.023758
3.764000	 -0.033669
3.782000	 0.014228
3.800000	 -0.022859
3.818000	 0.095568
3.836000	 0.117011
3.854000	 0.053004
3.872000	 0.115667
3.890000	 0.098321
3.908000	 0.077069
3.926000	 0.058422
3.944000	 0.018683
3.962000	 0.044726
3.980000	 -0.065615
3.998000	 0.008435
4.016000	 -0.050925
4.034000	 -0.024722
4.052000	 -0.006644
4.070000	 -0.041261
4.088000	 0.000046
4.106000	 -0.088432
4.124000	 0.027914
4.141999	 0.040991
4.160000	 -0.006970
4.178000	 0.025042
4.196000	 0.145054
4.214000	 0.152228
4.232000	 0.207156
4.250000	 0.173954
4.268000	 0.318119
4.286000	 0.420972
4.304000	 0.449729
4.322000	 0.617501
4.340000	 0.745073
4.358000	 1.107324
4.375999	 1.303814
4.394000	 1.443106
4.412000	 1.689589
4.430000	 2.105841
4.448000	 2.410621
4.466000	 2.857009
4.484000	 3.405174
4.502000	 3.911321
4.520000	 4.614771
4.538000	 5.343207
4.556000	 6.155178
4.574000	 6.854447
4.592000	 7.668507
4.609999	 8.626157
4.628000	 9.484421
4.646000	 10.571
4.664000	 11.5156
4.682000	 12.7494
4.700000	 13.8483
4.718000	 14.8297
4.736000	 15.8915
4.754000	 16.8607
4.772000	 17.8897
4.790000	 18.9376
4.808000	 20.1902
4.826000	 21.0719
4.843999	 21.9446
4.862000	 22.6514
4.880000	 23.4378
4.898000	 24.248
4.916000	 25.2143
4.934000	 26.0872
4.952000	 26.797
4.970000	 27.3888
4.988000	 27.8298
5.006000	 28.266
5.024000	 28.671
5.042000	 29.3366
5.060000	 30.1609
5.077999	 30.6604
5.096000	 31.1603
5.114000	 31.4222
5.132000	 31.5237
5.150000	 31.6824
5.168000	 31.9599
5.186000	 32.3155
5.204000	 32.7597
5.222000	 33.3065
5.240000	 33.6445
5.258000	 33.7954
5.276000	 33.7584
5.294000	 33.7709
5.312000	 33.7011
5.330000	 33.8022
5.348000	 34.115
5.366000	 34.5193
5.384000	 34.8761
5.402000	 35.1763
5.420000	 35.435
5.438000	 35.4065
5.456000	 35.1608
5.474000	 34.9426
5.492000	 34.8776
5.510000	 34.9505
5.528000	 35.2108
5.546000	 35.49
5.564000	 35.754
5.582000	 36.0406
5.600000	 36.147
5.618000	 36.1176
5.636000	 35.9695
5.654000	 35.7215
5.672000	 35.5527
5.690000	 35.512
5.708000	 35.5973
5.726000	 35.7787
5.744000	 35.9593
5.762000	 36.2806
5.780000	 36.5259
5.798000	 36.5569
5.816000	 36.4117
5.834000	 36.2795
5.852000	 35.9819
5.870000	 35.7897
5.888000	 35.7524
5.906000	 35.7999
5.923999	 35.9768
5.942000	 36.2524
5.960000	 36.4372
5.978000	 36.6542
5.996000	 36.7962
6.014000	 36.7862
6.032000	 36.6282
6.050000	 36.3541
6.068000	 36.0894
6.086000	 35.9646
6.104000	 35.8672
6.122000	 35.784
6.140000	 35.8971
6.158000	 36.1999
6.176000	 36.4927
6.194000	 36.6862
6.212000	 36.7734
6.230000	 36.8178
6.248000	 36.8095
6.266000	 36.7028
6.284000	 36.5088
6.302000	 36.3019
6.320000	 36.0426
6.338000	 35.8106
6.356000	 35.7205
6.374000	 35.8095
6.392000	 36.0812
6.410000	 36.3499
6.428000	 36.5488
6.446000	 36.7214
6.464000	 36.8109
6.482000	 36.8079
6.500000	 36.7682
6.518000	 36.6044
6.536000	 36.3728
6.554000	 36.1936
6.572000	 36.0554
6.590000	 35.9404
6.608000	 35.8446
6.626000	 35.7721
6.644000	 35.8318
6.662000	 36.01
6.680000	 36.2069
6.698000	 36.4536
6.716000	 36.6977
6.734000	 36.8401
6.752000	 36.8787
6.770000	 36.7902
6.788000	 36.6149
6.806000	 36.4602
6.824000	 36.2544
6.842000	 35.9969
6.860000	 35.8181
6.878000	 35.7194
6.896000	 35.6936
6.914000	 35.7247
6.932000	 35.7868
6.950000	 35.9201
6.968000	 36.1433
6.986000	 36.4175
7.004000	 36.637
7.022000	 36.7234
7.040000	 36.686
7.058000	 36.5825
7.076000	 36.4891
7.094000	 36.3815
7.112000	 36.1834
7.130000	 35.9706
7.148000	 35.8275
7.166000	 35.7028
7.184000	 35.5903
7.202000	 35.5612
7.220000	 35.6396
7.238000	 35.7916
7.256000	 35.947
7.274000	 36.0566
7.292000	 36.137
7.310000	 36.228
7.328000	 36.363
7.346000	 36.5292
7.364000	 36.6478
7.382000	 36.6739
7.400000	 36.6179
7.418000	 36.4657
7.436000	 36.2398
7.454000	 36.0343
7.472000	 35.8704
7.490000	 35.6925
7.508000	 35.5196
7.526000	 35.4229
7.544000	 35.4135
7.562000	 35.4561
7.580000	 35.5354
7.598000	 35.6633
7.616000	 35.8435
7.634000	 36.0436
7.652000	 36.2205
7.670000	 36.3666
7.688000	 36.4969
7.706000	 36.5974
7.724000	 36.6235
7.742000	 36.5637
7.760000	 36.4636
7.778000	 36.3621
7.796000	 36.2354
7.814000	 36.0467
7.832000	 35.8189
7.850000	 35.6141
7.868000	 35.463
7.886000	 35.3518
7.904000	 35.2714
7.922000	 35.2491
7.940000	 35.3028
7.958000	 35.3979
7.976000	 35.4986
7.994000	 35.624
8.012000	 35.8007
8.030000	 36.0025
8.048000	 36.1875
8.065999	 36.343
8.084000	 36.4637
8.102000	 36.5371
8.120000	 36.5632
8.138000	 36.5476
8.155999	 36.4771
8.173999	 36.3414
8.192000	 36.1618
8.210000	 35.973
8.228000	 35.7896
8.246000	 35.6079
8.263999	 35.4336
8.282000	 35.2949
8.300000	 35.215
8.318000	 35.182
8.336000	 35.1644
8.353999	 35.1533
8.372000	 35.1686
8.390000	 35.2298
8.408000	 35.3442
8.426000	 35.511
8.443999	 35.7066
8.462000	 35.8861
8.480000	 36.0226
8.498000	 36.1279
8.516000	 36.2193
8.533999	 36.2846
8.552000	 36.3026
8.570000	 36.2767
8.588000	 36.2264
8.606000	 36.1599
8.624000	 36.071
8.641999	 35.9553
8.660000	 35.8195
8.678000	 35.675
8.696000	 35.5319
8.714000	 35.3985
8.731999	 35.2804
8.750000	 35.1803
8.768000	 35.101
8.786000	 35.052
8.804000	 35.0492
8.821999	 35.1041
8.840000	 35.205
8.858000	 35.32
8.876000	 35.4194
8.894000	 35.4947
8.911999	 35.5594
8.930000	 35.6351
8.948000	 35.7353
8.966000	 35.8549
8.984000	 35.9746
9.001999	 36.0759
9.020000	 36.1556
9.038000	 36.2193
9.056000	 36.2648
9.074000	 36.2775
9.092000	 36.2455
9.109999	 36.1702
9.128000	 36.0591
9.146000	 35.915
9.164000	 35.7359
9.182000	 35.526
9.199999	 35.3041
9.218000	 35.0994
9.236000	 34.9398
9.254000	 34.8404
9.272000	 34.7977
9.289999	 34.7924
9.308000	 34.8026
9.326000	 34.8169
9.344000	 34.8369
9.362000	 34.8713
9.379999	 34.9264
9.398000	 35.003
9.416000	 35.0969
9.434000	 35.2005
9.452000	 35.3053
9.469999	 35.4052
9.488000	 35.4983
9.506000	 35.5873
9.524000	 35.6744
9.542000	 35.7594
9.560000	 35.8404
9.577999	 35.9164
9.596000	 35.9859
9.614000	 36.0413
9.632000	 36.0674
9.650000	 36.0469
9.667999	 35.9729
9.686000	 35.8546
9.704000	 35.7109
9.722000	 35.5571
9.740000	 35.3991
9.757999	 35.2357
9.776000	 35.068
9.794000	 34.9031
9.812000	 34.7521
9.830000	 34.624
9.847999	 34.5238
9.866000	 34.4551
9.884000	 34.4203
9.902000	 34.4181
9.920000	 34.441
9.937999	 34.4777
9.956000	 34.5208
9.974000	 34.5727
9.992000	 34.6418
10.01	34.7357
10.028	34.8521
10.046	34.9782
10.064	35.0984
10.082	35.2033
10.1	35.2931
10.118	35.376
10.136	35.4596
10.154	35.5439
10.172	35.6192
10.19	35.6688
10.208	35.6804
10.226	35.6559
10.244	35.61
10.262	35.5619
10.28	35.5202
10.298	35.4796
10.316	35.4261
10.334	35.3487
10.352	35.2465
10.37	35.128
10.388	35.0027
10.406	34.8747
10.424	34.7438
10.442	34.6101
10.46	34.4781
10.478	34.3558
10.496	34.2515
10.514	34.1705
10.532	34.1149
10.55	34.0836
10.568	34.0751
10.586	34.0884
10.604	34.1242
10.622	34.1837
10.64	34.2651
10.658	34.3626
10.676	34.4669
10.694	34.568
10.712	34.6577
10.73	34.7335
10.748	34.7978
10.766	34.8556
10.784	34.9114
10.802	34.9674
10.82	35.023
10.838	35.0758
10.856	35.1233
10.874	35.162
10.892	35.1889
10.91	35.2022
10.928	35.2004
10.946	35.1828
10.964	35.1474
10.982	35.0921
11	35.0149
11.018	34.9156
11.036	34.799
11.054	34.6754
11.072	34.5575
11.09	34.458
11.108	34.3833
11.126	34.3304
11.144	34.2871
11.162	34.2353
11.18	34.1586
11.198	34.0487
11.216	33.9095
11.234	33.7567
11.252	33.6138
11.27	33.5035
11.288	33.442
11.306	33.4335
11.324	33.4698
11.342	33.5337
11.36	33.6057
11.378	33.6685
11.396	33.7136
11.414	33.7409
11.432	33.7583
11.45	33.777
11.468	33.8084
11.486	33.8596
11.504	33.9319
11.522	34.022
11.54	34.1231
11.558	34.2271
11.576	34.3267
11.594	34.4179
11.612	34.4984
11.63	34.5688
11.648	34.6307
11.666	34.6864
11.684	34.7365
11.702	34.7794
11.72	34.8121
11.738	34.8308
11.756	34.8325
11.774	34.8151
11.792	34.779
11.81	34.7259
11.828	34.6581
11.846	34.578
11.864	34.4877
11.882	34.3889
11.9	34.2831
11.918	34.1725
11.936	34.059
11.954	33.9446
11.972	33.8315
11.99	33.7218
12.008	33.6181
12.026	33.5237
12.044	33.4414
12.062	33.3718
12.08	33.313
12.098	33.261
12.116	33.2109
12.134	33.1596
12.152	33.1081
12.17	33.061
12.188	33.0258
12.206	33.0101
12.224	33.0185
12.242	33.0506
12.26	33.1011
12.278	33.1611
12.296	33.2197
12.314	33.2687
12.332	33.3042
12.35	33.3267
12.368	33.3415
12.386	33.3559
12.404	33.3775
12.422	33.4118
12.44	33.4611
12.458	33.5245
12.476	33.5986
12.494	33.6786
12.512	33.7597
12.53	33.8381
12.548	33.9114
12.566	33.9781
12.584	34.0377
12.602	34.0898
12.62	34.1337
12.638	34.1691
12.656	34.1956
12.674	34.2136
12.692	34.2231
12.71	34.2247
12.728	34.2175
12.746	34.2004
12.764	34.171
12.782	34.1267
12.8	34.0652
12.818	33.9849
12.836	33.8867
12.854	33.7725
12.872	33.6469
12.89	33.5145
12.908	33.3805
12.926	33.2492
12.944	33.124
12.962	33.0068
12.98	32.8984
12.998	32.7989
13.016	32.7074
13.034	32.6226
13.052	32.543
13.07	32.4675
13.088	32.3955
13.106	32.3275
13.124	32.2651
13.142	32.211
13.16	32.1676
13.178	32.1373
13.196	32.1208
13.214	32.1177
13.232	32.1257
13.25	32.1418
13.268	32.1627
13.286	32.1854
13.304	32.2084
13.322	32.2314
13.34	32.2554
13.358	32.282
13.376	32.3127
13.394	32.3486
13.412	32.3901
13.43	32.4369
13.448	32.4883
13.466	32.544
13.484	32.6039
13.502	32.6679
13.52	32.7363
13.538	32.8088
13.556	32.8845
13.574	32.9619
13.592	33.0386
13.61	33.1117
13.628	33.1783
13.646	33.2358
13.664	33.282
13.682	33.3162
13.7	33.338
13.718	33.3484
13.736	33.3487
13.754	33.3405
13.772	33.3251
13.79	33.3041
13.808	33.2785
13.826	33.2488
13.844	33.2154
13.862	33.1786
13.88	33.1384
13.898	33.0947
13.916	33.0476
13.934	32.9967
13.952	32.9421
13.97	32.8837
13.988	32.8213
14.006	32.7549
14.024	32.6845
14.042	32.6101
14.06	32.5324
14.078	32.4521
14.096	32.3707
14.114	32.2899
14.132	32.2111
14.15	32.1361
14.168	32.0659
14.186	32.0011
14.204	31.9415
14.222	31.8859
14.24	31.833
14.258	31.7812
14.276	31.729
14.294	31.6753
14.312	31.6195
14.33	31.5614
14.348	31.5018
14.366	31.4415
14.384	31.3826
14.402	31.3267
14.42	31.2755
14.438	31.2312
14.456	31.1952
14.474	31.1692
14.492	31.1541
14.51	31.1507
14.528	31.159
14.546	31.1784
14.564	31.2078
14.582	31.2457
14.6	31.29
14.618	31.3386
14.636	31.3889
14.654	31.439
14.672	31.4872
14.69	31.5325
14.708	31.574
14.726	31.6115
14.744	31.6446
14.762	31.6736
14.78	31.6986
14.798	31.7199
14.816	31.7379
14.834	31.7528
14.852	31.7654
14.87	31.7762
14.888	31.7862
14.906	31.7965
14.924	31.808
14.942	31.8219
14.96	31.8387
14.978	31.8584
14.996	31.8808
15.014	31.9049
15.032	31.9293
15.05	31.9517
15.068	31.9702
15.086	31.9829
15.104	31.9877
15.122	31.9831
15.14	31.9682
15.158	31.9431
15.176	31.9082
15.194	31.8648
15.212	31.8148
15.23	31.7606
15.248	31.7044
15.266	31.6488
15.284	31.5964
15.302	31.5488
15.32	31.5074
15.338	31.4729
15.356	31.4452
15.374	31.4232
15.392	31.4051
15.41	31.3886
15.428	31.3709
15.446	31.3484
15.464	31.3185
15.482	31.2791
15.5	31.2285
15.518	31.1664
15.536	31.094
15.554	31.0132
15.572	30.927
15.59	30.8395
15.608	30.7538
15.626	30.6725
15.644	30.5981
15.662	30.5315
15.68	30.4722
15.698	30.4191
15.716	30.3699
15.734	30.3217
15.752	30.2726
15.77	30.2206
15.788	30.1645
15.806	30.1048
15.824	30.0425
15.842	29.9797
15.86	29.9198
15.878	29.8656
15.896	29.8196
15.914	29.7847
15.932	29.762
15.95	29.7518
15.968	29.754
15.986	29.7665
16.004	29.7877
16.022	29.8157
16.04	29.8473
16.058	29.8813
16.076	29.9163
16.094	29.9511
16.112	29.986
16.13	30.0211
16.148	30.0567
16.166	30.0937
16.184	30.1326
16.202	30.1736
16.22	30.2171
16.238	30.2626
16.256	30.3096
16.274	30.357
16.292	30.404
16.31	30.4496
16.328	30.493
16.346	30.5336
16.364	30.5712
16.382	30.606
16.4	30.6389
16.418	30.6702
16.436	30.7014
16.454	30.7336
16.472	30.7674
16.49	30.8043
16.508	30.8444
16.526	30.8882
16.544	30.9354
16.562	30.9853
16.58	31.0371
16.598	31.0891
16.616	31.1398
16.634	31.1877
16.652	31.2303
16.67	31.2663
16.688	31.2938
16.706	31.311
16.724	31.3171
16.742	31.3105
16.76	31.2912
16.778	31.2592
16.796	31.2143
16.814	31.1582
16.832	31.0914
16.85	31.0159
16.868	30.9335
16.886	30.8458
16.904	30.7556
16.922	30.6643
16.94	30.5743
16.958	30.4875
16.976	30.4048
16.994	30.328
17.012	30.2572
17.03	30.1929
17.048	30.135
17.066	30.083
17.084	30.0364
17.102	29.9935
17.12	29.9539
17.138	29.9158
17.156	29.8781
17.174	29.8401
17.192	29.8003
17.21	29.7582
17.228	29.713
17.246	29.6642
17.264	29.6117
17.282	29.5553
17.3	29.4952
17.318	29.4315
17.336	29.3652
17.354	29.2965
17.372	29.227
17.39	29.1573
17.408	29.0891
17.426	29.0237
17.444	28.9623
17.462	28.9071
17.48	28.8586
17.498	28.8185
17.516	28.7872
17.534	28.7652
17.552	28.7524
17.57	28.7484
17.588	28.752
17.606	28.762
17.624	28.7767
17.642	28.7935
17.66	28.8115
17.678	28.8274
17.696	28.8405
17.714	28.8486
17.732	28.8512
17.75	28.847
17.768	28.8363
17.786	28.8189
17.804	28.7961
17.822	28.7684
17.84	28.7378
17.858	28.7054
17.876	28.6725
17.894	28.6411
17.912	28.6119
17.93	28.5868
17.948	28.566
17.966	28.5508
17.984	28.5413
18.002	28.5381
18.02	28.5413
18.038	28.5511
18.056	28.5674
18.074	28.5904
18.092	28.6199
18.11	28.656
18.128	28.6985
18.146	28.7471
18.164	28.8016
18.182	28.8613
18.2	28.9258
18.218	28.9936
18.236	29.0642
18.254	29.1356
18.272	29.2074
18.29	29.277
18.308	29.344
18.326	29.4063
18.344	29.4635
18.362	29.5142
18.38	29.5585
18.398	29.5959
18.416	29.6271
18.434	29.6526
18.452	29.6736
18.47	29.6909
18.488	29.7064
18.506	29.7209
18.524	29.7361
18.542	29.7523
18.56	29.7708
18.578	29.7918
18.596	29.8147
18.614	29.8395
18.632	29.8645
18.65	29.8895
18.668	29.9115
18.686	29.9301
18.704	29.9423
18.722	29.9478
18.74	29.9436
18.758	29.9299
18.776	29.905
18.794	29.8694
18.812	29.8225
18.83	29.7655
18.848	29.6992
18.866	29.6249
18.884	29.5445
18.902	29.4596
18.92	29.3727
18.938	29.2851
18.956	29.1994
18.974	29.1163
18.992	29.0381
19.01	28.9649
19.028	28.8982
19.046	28.8377
19.064	28.784
19.082	28.7363
19.1	28.6943
19.118	28.6574
19.136	28.6245
19.154	28.595
19.172	28.5675
19.19	28.5419
19.208	28.5167
19.226	28.4918
19.244	28.4663
19.262	28.4401
19.28	28.4128
19.298	28.3846
19.316	28.3551
19.334	28.3245
19.352	28.2929
19.37	28.2605
19.388	28.2274
19.406	28.1936
19.424	28.1594
19.442	28.1249
19.46	28.0903
19.478	28.0556
19.496	28.0213
19.514	27.9873
19.532	27.9539
19.55	27.9213
19.568	27.8896
19.586	27.8591
19.604	27.8298
19.622	27.8021
19.64	27.7759
19.658	27.7514
19.676	27.7285
19.694	27.707
19.712	27.6871
19.73	27.6682
19.748	27.6503
19.766	27.6327
19.784	27.6154
19.802	27.5978
19.82	27.5796
19.838	27.5604
19.856	27.5399
19.874	27.5179
19.892	27.494
19.91	27.4683
19.928	27.4407
19.946	27.4113
19.964	27.3804
19.982	27.3481
20	27.315
20.018	27.2815
20.036	27.248
20.054	27.2155
20.072	27.1839
20.09	27.1549
20.108	27.1282
20.126	27.1053
20.144	27.0861
20.162	27.0718
20.18	27.0628
20.198	27.0593
20.216	27.0624
20.234	27.0719
20.252	27.0885
20.27	27.1122
20.288	27.1432
20.306	27.1817
20.324	27.2271
20.342	27.2796
20.36	27.3387
20.378	27.4036
20.396	27.4743
20.414	27.5488
20.432	27.6276
20.45	27.7085
20.468	27.7908
20.486	27.8737
20.504	27.9548
20.522	28.0345
20.54	28.1097
20.558	28.1808
20.576	28.2457
20.594	28.3034
20.612	28.3537
20.63	28.3949
20.648	28.4275
20.666	28.4506
20.684	28.4639
20.702	28.468
20.72	28.4627
20.738	28.4485
20.756	28.4266
20.774	28.3965
20.792	28.3607
20.81	28.3189
20.828	28.2727
20.846	28.2239
20.864	28.1722
20.882	28.1206
20.9	28.0688
20.918	28.0185
20.936	27.9711
20.954	27.9263
20.972	27.8861
20.99	27.8503
21.008	27.8194
21.026	27.7939
21.044	27.7735
21.062	27.758
21.08	27.7476
21.098	27.7409
21.116	27.7379
21.134	27.7378
21.152	27.7386
21.17	27.741
21.188	27.7424
21.206	27.7426
21.224	27.7408
21.242	27.7351
21.26	27.726
21.278	27.7118
21.296	27.6921
21.314	27.667
21.332	27.6356
21.35	27.5981
21.368	27.555
21.386	27.506
21.404	27.4518
21.422	27.394
21.44	27.3319
21.458	27.2678
21.476	27.2024
21.494	27.136
21.512	27.0716
21.53	27.0083
21.548	26.9483
21.566	26.8931
21.584	26.8421
21.602	26.7974
21.62	26.759
21.638	26.7272
21.656	26.7028
21.674	26.6856
21.692	26.6752
21.71	26.6719
21.728	26.675
21.746	26.6834
21.764	26.6977
21.782	26.7161
21.8	26.7374
21.818	26.7621
21.836	26.7876
21.854	26.8139
21.872	26.8403
21.89	26.8644
21.908	26.8871
21.926	26.9068
21.944	26.9223
21.962	26.9342
21.98	26.9411
21.998	26.9429
22.016	26.9397
22.034	26.9312
22.052	26.9172
22.07	26.8983
22.088	26.8746
22.106	26.8461
22.124	26.8139
22.142	26.7779
22.16	26.7384
22.178	26.6968
22.196	26.6526
22.214	26.6067
22.232	26.5601
22.25	26.5123
22.268	26.4642
22.286	26.416
22.304	26.3677
22.322	26.3193
22.34	26.2712
22.358	26.2231
22.376	26.1746
22.394	26.1258
22.412	26.0764
22.43	26.0257
22.448	25.9741
22.466	25.9209
22.484	25.8654
22.502	25.8079
22.52	25.7481
22.538	25.6856
22.556	25.6207
22.574	25.5536
22.592	25.4841
22.61	25.4127
22.628	25.3409
22.646	25.2679
22.664	25.1951
22.682	25.1246
22.7	25.0553
22.718	24.9893
22.736	24.929
22.754	24.8731
22.772	24.8239
22.79	24.7833
22.808	24.7501
22.826	24.7261
22.844	24.7126
22.862	24.7089
22.88	24.7153
22.898	24.7324
22.916	24.76
22.934	24.7968
22.952	24.8432
22.97	24.8989
22.988	24.961
23.006	25.0294
23.024	25.104
23.042	25.1809
23.06	25.2605
23.078	25.3422
23.096	25.4221
23.114	25.5003
23.132	25.5766
23.15	25.648
23.168	25.7147
23.186	25.7766
23.204	25.8321
23.222	25.8808
23.24	25.9233
23.258	25.9599
23.276	25.9899
23.294	26.0143
23.312	26.0354
23.33	26.0525
23.348	26.0664
23.366	26.08
23.384	26.0931
23.402	26.1059
23.42	26.1211
23.438	26.1387
23.456	26.1584
23.474	26.1817
23.492	26.2088
23.51	26.2394
23.528	26.2731
23.546	26.3103
23.564	26.3507
23.582	26.3922
23.6	26.4345
23.618	26.4782
23.636	26.5198
23.654	26.558
23.672	26.5941
23.69	26.6253
23.708	26.6494
23.726	26.668
23.744	26.6795
23.762	26.6822
23.78	26.6766
23.798	26.6633
23.816	26.6424
23.834	26.613
23.852	26.5769
23.87	26.5367
23.888	26.491
23.906	26.4412
23.924	26.3915
23.942	26.3413
23.96	26.2908
23.978	26.2438
23.996	26.2018
24.014	26.1632
24.032	26.1309
24.05	26.1068
24.068	26.0897
24.086	26.0801
24.104	26.0786
24.122	26.0859
24.14	26.1002
24.158	26.1196
24.176	26.1457
24.194	26.1768
24.212	26.2088
24.23	26.2417
24.248	26.2764
24.266	26.3073
24.284	26.3317
24.302	26.3526
24.32	26.3658
24.338	26.3673
24.356	26.3589
24.374	26.3399
24.392	26.3082
24.41	26.2634
24.428	26.2064
24.446	26.138
24.464	26.0575
24.482	25.9645
24.5	25.863
24.518	25.7562
24.536	25.6411
24.554	25.521
24.572	25.4012
24.59	25.28
24.608	25.1578
24.626	25.0393
24.644	24.9265
24.662	24.8174
24.68	24.7136
24.698	24.617
24.716	24.5276
24.734	24.4442
24.752	24.3657
24.77	24.2932
24.788	24.2263
24.806	24.161
24.824	24.0949
24.842	24.0312
24.86	23.9656
24.878	23.8927
24.896	23.8148
24.914	23.731
24.932	23.6364
24.95	23.5279
24.968	23.4084
24.986	23.2762
25.004	23.1289
25.022	22.9667
25.04	22.7905
25.058	22.6005
25.076	22.3965
25.094	22.178
25.112	21.9473
25.13	21.7064
25.148	21.4525
25.166	21.1882
25.184	20.919
25.202	20.6463
25.22	20.3666
25.238	20.0864
25.256	19.8123
25.274	19.5399
25.292	19.2714
25.31	19.0149
25.328	18.7744
25.346	18.5443
25.364	18.3306
25.382	18.1402
25.4	17.9711
25.418	17.8227
25.436	17.7003
25.454	17.608
25.472	17.5427
25.49	17.5055
25.508	17.4985
25.526	17.523
25.544	17.5775
25.562	17.6611
25.58	17.7729
25.598	17.9151
25.616	18.0853
25.634	18.279
25.652	18.4948
25.67	18.7375
25.688	18.999
25.706	19.2695
25.724	19.5512
25.742	19.8469
25.76	20.1442
25.778	20.4317
25.796	20.7179
25.814	20.9991
25.832	21.2636
25.85	21.5039
25.868	21.7287
25.886	21.9319
25.904	22.1052
25.922	22.2462
25.94	22.3596
25.958	22.4419
25.976	22.4894
25.994	22.5012
26.012	22.4797
26.03	22.4268
26.048	22.3441
26.066	22.2279
26.084	22.0822
26.102	21.9131
26.12	21.7238
26.138	21.5076
26.156	21.2723
26.174	21.0272
26.192	20.7741
26.21	20.506
26.228	20.2336
26.246	19.9681
26.264	19.7079
26.282	19.4488
26.3	19.2007
26.318	18.9734
26.336	18.7635
26.354	18.5694
26.372	18.3967
26.39	18.2505
26.408	18.1284
26.426	18.0297
26.444	17.9565
26.462	17.9104
26.48	17.8922
26.498	17.8995
26.516	17.9291
26.534	17.9791
26.552	18.0524
26.57	18.1466
26.588	18.2583
26.606	18.3854
26.624	18.5314
26.642	18.6932
26.66	18.8669
26.678	19.0497
26.696	19.2437
26.714	19.4493
26.732	19.667
26.75	19.8958
26.768	20.1338
26.786	20.3854
26.804	20.6553
26.822	20.9445
26.84	21.2475
26.858	21.5713
26.876	21.9235
26.894	22.3068
26.912	22.7143
26.93	23.1521
26.948	23.6277
26.966	24.1788
26.984	24.8502
27.002	25.5166
27.02	26.0424
27.028	26.1805