File: Bakgrunnsmateriale/MATLAB/FTIR/ftir_data/LPE453/Mapping_121/LPE453_t17.asc
PE IR       SPECTRUM    SPECTRUM    ASCII       PEDS        1.60
  -1
LPD795~1.ASC
17/05/16
15:42:27.00
17/05/16
15:42:53.00
tln
$LPE453_t0017$<tbV0>[0.0,-10.4,8.0,0.0,27,1,0]
27.028
64

2002,4.07
MIRTGS : RIGHTBACK : INTERNAL 2
MIR : ON : INTERNAL 2
OPTKBR

0.200000
8
8.000000
FILLER
RATIO
SPECTRUM
UNLOCKED 256

DOUBLE
64
COMBINED
1
0
0

0.002000
RATIO

1
0
TRUE
51149
0
LEFT NOT FITTED RIGHT NOT FITTED 0
NONE
NONE
15600
12
4.427000
51148
TRUE
1 0 8 72 0 0 0 0

15798

#HDR
-1
-1
#GR
µM
%T
2.38419e-05
0.0
2.000000
0.002000
12515
8
36.4413
-6.108853
#DATA
2.000000	 -0.100755
2.018000	 0.522331
2.036000	 0.163753
2.054000	 0.027532
2.072000	 0.177893
2.090000	 -0.037568
2.108000	 0.253771
2.126000	 0.117024
2.144000	 0.223382
2.162000	 0.449400
2.180000	 0.168346
2.198000	 0.333318
2.216000	 12.0463
2.234000	 -0.528427
2.252000	 0.464891
2.270000	 0.480174
2.288000	 0.344351
2.306000	 0.140631
2.324000	 -0.014526
2.342000	 -0.050057
2.360000	 0.089512
2.378000	 0.237569
2.396000	 0.066143
2.414000	 -0.058957
2.432000	 -0.064943
2.450000	 0.117431
2.468000	 -0.050898
2.486000	 0.068487
2.504000	 0.052350
2.522000	 0.102545
2.540000	 0.005727
2.558000	 0.181763
2.576000	 0.052780
2.594000	 0.118559
2.612000	 0.098777
2.630000	 0.201011
2.648000	 0.135252
2.666000	 -0.162580
2.684000	 0.172166
2.702000	 0.000552
2.720000	 0.092145
2.738000	 -0.035828
2.756000	 0.189308
2.774000	 -0.007197
2.792000	 -0.052280
2.810000	 0.207553
2.828000	 -0.055959
2.846000	 0.110475
2.864000	 -0.107248
2.882000	 0.095522
2.900000	 0.054842
2.918000	 -0.092935
2.936000	 -0.008052
2.954000	 -0.059272
2.972000	 0.103340
2.990000	 0.194318
3.008000	 -0.006516
3.026000	 0.071366
3.044000	 0.040928
3.062000	 0.032482
3.080000	 0.037902
3.098000	 0.141594
3.116000	 0.113052
3.134000	 -0.130193
3.152000	 0.242282
3.170000	 0.026957
3.188000	 0.345825
3.206000	 -0.145689
3.224000	 0.032067
3.242000	 -0.096531
3.260000	 -0.058240
3.278000	 0.059380
3.296000	 0.136455
3.314000	 -0.034826
3.332000	 0.009297
3.350000	 0.019593
3.368000	 0.084267
3.386000	 0.061784
3.404000	 0.075450
3.422000	 0.019808
3.440000	 0.084213
3.458000	 -0.027352
3.476000	 0.028460
3.494000	 -0.003665
3.512000	 0.128894
3.530000	 0.124958
3.548000	 0.011333
3.566000	 0.099317
3.584000	 0.172954
3.602000	 0.024481
3.620000	 0.001770
3.638000	 -0.006433
3.656000	 -0.002868
3.674000	 0.042222
3.692000	 0.031790
3.710000	 0.027667
3.728000	 -0.006305
3.746000	 0.033389
3.764000	 -0.001447
3.782000	 -0.062234
3.800000	 -0.151494
3.818000	 0.076765
3.836000	 -0.000333
3.854000	 0.043297
3.872000	 0.095423
3.890000	 0.115821
3.908000	 0.157392
3.926000	 0.071949
3.944000	 0.065689
3.962000	 0.148304
3.980000	 0.057781
3.998000	 -0.208054
4.016000	 -0.029583
4.034000	 -0.082181
4.052000	 -0.085256
4.070000	 0.071083
4.088000	 0.001738
4.106000	 -0.037970
4.124000	 -0.038472
4.141999	 -0.036539
4.160000	 0.099107
4.178000	 0.053760
4.196000	 0.079403
4.214000	 0.065512
4.232000	 0.089181
4.250000	 -0.020099
4.268000	 0.094233
4.286000	 0.077769
4.304000	 0.168489
4.322000	 0.160151
4.340000	 0.306838
4.358000	 0.261689
4.375999	 0.364067
4.394000	 0.454629
4.412000	 0.574123
4.430000	 0.788038
4.448000	 1.024590
4.466000	 1.439032
4.484000	 1.663703
4.502000	 1.974710
4.520000	 2.395356
4.538000	 2.789948
4.556000	 3.365796
4.574000	 3.814316
4.592000	 4.521165
4.609999	 5.146037
4.628000	 5.874371
4.646000	 6.576153
4.664000	 7.406713
4.682000	 8.499243
4.700000	 9.362325
4.718000	 10.2894
4.736000	 11.2006
4.754000	 12.1934
4.772000	 13.1226
4.790000	 14.1133
4.808000	 15.1023
4.826000	 15.6721
4.843999	 16.641
4.862000	 17.5399
4.880000	 18.5632
4.898000	 19.2114
4.916000	 19.9624
4.934000	 20.8408
4.952000	 21.5152
4.970000	 22.1501
4.988000	 22.7132
5.006000	 23.3694
5.024000	 23.9252
5.042000	 24.444
5.060000	 24.9939
5.077999	 25.5432
5.096000	 26.0084
5.114000	 26.3689
5.132000	 26.7839
5.150000	 27.1371
5.168000	 27.4479
5.186000	 27.7694
5.204000	 28.1319
5.222000	 28.4042
5.240000	 28.7604
5.258000	 29.0205
5.276000	 29.2007
5.294000	 29.3988
5.312000	 29.5522
5.330000	 29.779
5.348000	 30.0896
5.366000	 30.2276
5.384000	 30.2872
5.402000	 30.418
5.420000	 30.6416
5.438000	 30.7955
5.456000	 30.9351
5.474000	 31.0102
5.492000	 30.9909
5.510000	 31.1221
5.528000	 31.3529
5.546000	 31.5024
5.564000	 31.5374
5.582000	 31.56
5.600000	 31.6336
5.618000	 31.7867
5.636000	 31.9115
5.654000	 31.9163
5.672000	 31.791
5.690000	 31.8144
5.708000	 31.9762
5.726000	 32.098
5.744000	 32.1155
5.762000	 32.2483
5.780000	 32.2259
5.798000	 32.1448
5.816000	 32.2558
5.834000	 32.2124
5.852000	 32.2042
5.870000	 32.365
5.888000	 32.5082
5.906000	 32.3628
5.923999	 32.4054
5.942000	 32.5286
5.960000	 32.4821
5.978000	 32.4405
5.996000	 32.333
6.014000	 32.3281
6.032000	 32.5555
6.050000	 32.7819
6.068000	 32.6612
6.086000	 32.5401
6.104000	 32.574
6.122000	 32.553
6.140000	 32.4995
6.158000	 32.4996
6.176000	 32.5455
6.194000	 32.5539
6.212000	 32.4738
6.230000	 32.4619
6.248000	 32.4952
6.266000	 32.522
6.284000	 32.5131
6.302000	 32.4602
6.320000	 32.475
6.338000	 32.5691
6.356000	 32.6409
6.374000	 32.614
6.392000	 32.6301
6.410000	 32.7627
6.428000	 32.7297
6.446000	 32.5458
6.464000	 32.5433
6.482000	 32.7366
6.500000	 32.7403
6.518000	 32.591
6.536000	 32.5456
6.554000	 32.6215
6.572000	 32.7127
6.590000	 32.6657
6.608000	 32.6061
6.626000	 32.6693
6.644000	 32.6489
6.662000	 32.5087
6.680000	 32.4595
6.698000	 32.4886
6.716000	 32.4713
6.734000	 32.4224
6.752000	 32.4083
6.770000	 32.455
6.788000	 32.5347
6.806000	 32.5686
6.824000	 32.5952
6.842000	 32.712
6.860000	 32.7371
6.878000	 32.5295
6.896000	 32.291
6.914000	 32.1596
6.932000	 32.2219
6.950000	 32.4393
6.968000	 32.4766
6.986000	 32.3229
7.004000	 32.2832
7.022000	 32.3502
7.040000	 32.3486
7.058000	 32.2924
7.076000	 32.2481
7.094000	 32.1902
7.112000	 32.1067
7.130000	 32.0565
7.148000	 32.0904
7.166000	 32.1851
7.184000	 32.2563
7.202000	 32.2517
7.220000	 32.2253
7.238000	 32.2434
7.256000	 32.2547
7.274000	 32.21
7.292000	 32.1927
7.310000	 32.2554
7.328000	 32.3104
7.346000	 32.288
7.364000	 32.2211
7.382000	 32.1545
7.400000	 32.0964
7.418000	 32.049
7.436000	 32.0264
7.454000	 32.0243
7.472000	 32.022
7.490000	 32.0335
7.508000	 32.0914
7.526000	 32.1713
7.544000	 32.1962
7.562000	 32.1324
7.580000	 32.0436
7.598000	 32.0192
7.616000	 32.0691
7.634000	 32.1374
7.652000	 32.1853
7.670000	 32.201
7.688000	 32.1684
7.706000	 32.096
7.724000	 32.0365
7.742000	 32.024
7.760000	 32.0347
7.778000	 32.0452
7.796000	 32.0655
7.814000	 32.0855
7.832000	 32.0706
7.850000	 32.0151
7.868000	 31.954
7.886000	 31.9326
7.904000	 31.9619
7.922000	 31.9936
7.940000	 31.9753
7.958000	 31.9275
7.976000	 31.9099
7.994000	 31.9302
8.012000	 31.9513
8.030000	 31.956
8.048000	 31.9581
8.065999	 31.9615
8.084000	 31.9566
8.102000	 31.9511
8.120000	 31.9606
8.138000	 31.9791
8.155999	 31.9951
8.173999	 32.0193
8.192000	 32.0568
8.210000	 32.0733
8.228000	 32.0334
8.246000	 31.9527
8.263999	 31.8757
8.282000	 31.8308
8.300000	 31.8317
8.318000	 31.8897
8.336000	 31.9867
8.353999	 32.0693
8.372000	 32.0962
8.390000	 32.0721
8.408000	 32.0258
8.426000	 31.977
8.443999	 31.9316
8.462000	 31.8876
8.480000	 31.8383
8.498000	 31.7801
8.516000	 31.7207
8.533999	 31.6753
8.552000	 31.6607
8.570000	 31.6858
8.588000	 31.7375
8.606000	 31.7783
8.624000	 31.7772
8.641999	 31.7462
8.660000	 31.7285
8.678000	 31.7471
8.696000	 31.7796
8.714000	 31.7921
8.731999	 31.78
8.750000	 31.7642
8.768000	 31.7573
8.786000	 31.7515
8.804000	 31.7348
8.821999	 31.7085
8.840000	 31.6869
8.858000	 31.6817
8.876000	 31.6933
8.894000	 31.7074
8.911999	 31.7047
8.930000	 31.6755
8.948000	 31.6272
8.966000	 31.5826
8.984000	 31.5714
9.001999	 31.6084
9.020000	 31.6656
9.038000	 31.6811
9.056000	 31.6155
9.074000	 31.4974
9.092000	 31.3958
9.109999	 31.3498
9.128000	 31.3436
9.146000	 31.3568
9.164000	 31.4063
9.182000	 31.5128
9.199999	 31.6468
9.218000	 31.7414
9.236000	 31.7553
9.254000	 31.7074
9.272000	 31.6438
9.289999	 31.5857
9.308000	 31.5209
9.326000	 31.4374
9.344000	 31.3451
9.362000	 31.2635
9.379999	 31.1996
9.398000	 31.1476
9.416000	 31.1041
9.434000	 31.0742
9.452000	 31.0609
9.469999	 31.0575
9.488000	 31.0531
9.506000	 31.0439
9.524000	 31.0348
9.542000	 31.028
9.560000	 31.0179
9.577999	 31.0007
9.596000	 30.9831
9.614000	 30.9803
9.632000	 31.0044
9.650000	 31.0557
9.667999	 31.1251
9.686000	 31.1937
9.704000	 31.2335
9.722000	 31.2161
9.740000	 31.1333
9.757999	 31.0164
9.776000	 30.9244
9.794000	 30.9032
9.812000	 30.9437
9.830000	 30.9844
9.847999	 30.9608
9.866000	 30.8592
9.884000	 30.7294
9.902000	 30.6467
9.920000	 30.6595
9.937999	 30.7588
9.956000	 30.892
9.974000	 31.0011
9.992000	 31.0495
10.01	31.0311
10.028	30.9632
10.046	30.8749
10.064	30.7943
10.082	30.7394
10.1	30.7127
10.118	30.7027
10.136	30.6958
10.154	30.6882
10.172	30.6879
10.19	30.707
10.208	30.7482
10.226	30.8012
10.244	30.8497
10.262	30.8829
10.28	30.9013
10.298	30.9139
10.316	30.9275
10.334	30.9378
10.352	30.931
10.37	30.8945
10.388	30.8283
10.406	30.7482
10.424	30.6792
10.442	30.6413
10.46	30.6395
10.478	30.6623
10.496	30.6878
10.514	30.6943
10.532	30.6684
10.55	30.6111
10.568	30.535
10.586	30.4614
10.604	30.4097
10.622	30.3914
10.64	30.4041
10.658	30.4342
10.676	30.462
10.694	30.473
10.712	30.4615
10.73	30.4341
10.748	30.4044
10.766	30.3872
10.784	30.3933
10.802	30.4251
10.82	30.4763
10.838	30.5325
10.856	30.577
10.874	30.5945
10.892	30.578
10.91	30.5298
10.928	30.462
10.946	30.3903
10.964	30.3264
10.982	30.2748
11	30.2301
11.018	30.1824
11.036	30.1253
11.054	30.0596
11.072	29.9937
11.09	29.9397
11.108	29.9058
11.126	29.8922
11.144	29.8924
11.162	29.8967
11.18	29.8988
11.198	29.8984
11.216	29.9004
11.234	29.9115
11.252	29.9352
11.27	29.9705
11.288	30.0121
11.306	30.0541
11.324	30.0904
11.342	30.1166
11.36	30.1292
11.378	30.1237
11.396	30.0963
11.414	30.0457
11.432	29.9756
11.45	29.8949
11.468	29.8169
11.486	29.7543
11.504	29.715
11.522	29.7005
11.54	29.7061
11.558	29.7234
11.576	29.743
11.594	29.7578
11.612	29.7631
11.63	29.7568
11.648	29.7392
11.666	29.7119
11.684	29.6775
11.702	29.639
11.72	29.5994
11.738	29.5602
11.756	29.5215
11.774	29.4821
11.792	29.4405
11.81	29.3963
11.828	29.3503
11.846	29.3037
11.864	29.258
11.882	29.2145
11.9	29.1741
11.918	29.1381
11.936	29.1086
11.954	29.088
11.972	29.0786
11.99	29.0809
12.008	29.0933
12.026	29.1124
12.044	29.1337
12.062	29.1547
12.08	29.1759
12.098	29.1996
12.116	29.2279
12.134	29.2598
12.152	29.2902
12.17	29.3127
12.188	29.3211
12.206	29.3128
12.224	29.2899
12.242	29.257
12.26	29.2196
12.278	29.182
12.296	29.1465
12.314	29.1134
12.332	29.0823
12.35	29.0531
12.368	29.0268
12.386	29.0052
12.404	28.9899
12.422	28.981
12.44	28.9772
12.458	28.9759
12.476	28.9742
12.494	28.9697
12.512	28.9609
12.53	28.9475
12.548	28.9292
12.566	28.9056
12.584	28.8758
12.602	28.8392
12.62	28.7954
12.638	28.7452
12.656	28.6898
12.674	28.6314
12.692	28.572
12.71	28.5139
12.728	28.4597
12.746	28.4115
12.764	28.3722
12.782	28.3451
12.8	28.3331
12.818	28.3379
12.836	28.3601
12.854	28.3975
12.872	28.4453
12.89	28.4969
12.908	28.5452
12.926	28.5844
12.944	28.6106
12.962	28.6226
12.98	28.6221
12.998	28.6128
13.016	28.5991
13.034	28.5851
13.052	28.5736
13.07	28.5657
13.088	28.5609
13.106	28.5571
13.124	28.5522
13.142	28.5433
13.16	28.5283
13.178	28.505
13.196	28.4725
13.214	28.4298
13.232	28.3763
13.25	28.3113
13.268	28.2352
13.286	28.1482
13.304	28.0512
13.322	27.9461
13.34	27.8364
13.358	27.7268
13.376	27.6235
13.394	27.533
13.412	27.4617
13.43	27.4146
13.448	27.3944
13.466	27.4003
13.484	27.428
13.502	27.4703
13.52	27.5185
13.538	27.5632
13.556	27.5963
13.574	27.6129
13.592	27.6116
13.61	27.5946
13.628	27.5673
13.646	27.5368
13.664	27.5105
13.682	27.4948
13.7	27.4938
13.718	27.5095
13.736	27.5418
13.754	27.5888
13.772	27.6476
13.79	27.7149
13.808	27.7871
13.826	27.8606
13.844	27.9318
13.862	27.9965
13.88	28.0501
13.898	28.0884
13.916	28.1075
13.934	28.1043
13.952	28.0773
13.97	28.0275
13.988	27.9584
14.006	27.8757
14.024	27.7864
14.042	27.6983
14.06	27.6183
14.078	27.5516
14.096	27.5006
14.114	27.465
14.132	27.4418
14.15	27.4264
14.168	27.4135
14.186	27.3984
14.204	27.377
14.222	27.3475
14.24	27.3102
14.258	27.2672
14.276	27.2213
14.294	27.1756
14.312	27.1328
14.33	27.0947
14.348	27.062
14.366	27.0343
14.384	27.0104
14.402	26.9889
14.42	26.9688
14.438	26.9497
14.456	26.9316
14.474	26.9153
14.492	26.902
14.51	26.8929
14.528	26.8889
14.546	26.8898
14.564	26.895
14.582	26.9029
14.6	26.9117
14.618	26.9192
14.636	26.9235
14.654	26.9227
14.672	26.9162
14.69	26.9036
14.708	26.8854
14.726	26.8619
14.744	26.834
14.762	26.8024
14.78	26.7681
14.798	26.7318
14.816	26.6944
14.834	26.6572
14.852	26.6216
14.87	26.5894
14.888	26.5621
14.906	26.5411
14.924	26.5275
14.942	26.5216
14.96	26.5232
14.978	26.5309
14.996	26.543
15.014	26.5575
15.032	26.5717
15.05	26.5837
15.068	26.5923
15.086	26.5973
15.104	26.5988
15.122	26.5981
15.14	26.5969
15.158	26.5968
15.176	26.5993
15.194	26.6054
15.212	26.6152
15.23	26.6276
15.248	26.641
15.266	26.6531
15.284	26.6613
15.302	26.663
15.32	26.6565
15.338	26.6405
15.356	26.6147
15.374	26.5801
15.392	26.5386
15.41	26.4925
15.428	26.4447
15.446	26.3986
15.464	26.3569
15.482	26.3217
15.5	26.2945
15.518	26.276
15.536	26.2651
15.554	26.2602
15.572	26.2593
15.59	26.2587
15.608	26.2552
15.626	26.2457
15.644	26.2268
15.662	26.196
15.68	26.1524
15.698	26.0955
15.716	26.026
15.734	25.9465
15.752	25.8597
15.77	25.7688
15.788	25.6789
15.806	25.5938
15.824	25.5168
15.842	25.4511
15.86	25.3991
15.878	25.3613
15.896	25.338
15.914	25.3284
15.932	25.3305
15.95	25.3427
15.968	25.3625
15.986	25.3875
16.004	25.4162
16.022	25.4473
16.04	25.4795
16.058	25.5125
16.076	25.546
16.094	25.5798
16.112	25.6139
16.13	25.6482
16.148	25.682
16.166	25.7142
16.184	25.744
16.202	25.7702
16.22	25.7914
16.238	25.8069
16.256	25.8159
16.274	25.8183
16.292	25.8151
16.31	25.8069
16.328	25.7958
16.346	25.7841
16.364	25.7732
16.382	25.7659
16.4	25.7633
16.418	25.7665
16.436	25.776
16.454	25.7908
16.472	25.8101
16.49	25.8316
16.508	25.8524
16.526	25.8706
16.544	25.8827
16.562	25.8868
16.58	25.8814
16.598	25.865
16.616	25.8376
16.634	25.7993
16.652	25.7517
16.67	25.6967
16.688	25.6359
16.706	25.5725
16.724	25.508
16.742	25.4444
16.76	25.3837
16.778	25.3263
16.796	25.2731
16.814	25.2238
16.832	25.1782
16.85	25.1352
16.868	25.094
16.886	25.0538
16.904	25.0131
16.922	24.9714
16.94	24.9279
16.958	24.8822
16.976	24.8345
16.994	24.7846
17.012	24.7332
17.03	24.6807
17.048	24.6283
17.066	24.5766
17.084	24.5268
17.102	24.4799
17.12	24.4365
17.138	24.398
17.156	24.3648
17.174	24.3378
17.192	24.3177
17.21	24.3046
17.228	24.299
17.246	24.3005
17.264	24.3092
17.282	24.3244
17.3	24.3458
17.318	24.3723
17.336	24.4031
17.354	24.4373
17.372	24.4734
17.39	24.5105
17.408	24.5474
17.426	24.5826
17.444	24.6155
17.462	24.6444
17.48	24.669
17.498	24.688
17.516	24.7012
17.534	24.7081
17.552	24.7087
17.57	24.703
17.588	24.6913
17.606	24.6742
17.624	24.6523
17.642	24.6268
17.66	24.5982
17.678	24.5686
17.696	24.5386
17.714	24.5102
17.732	24.4842
17.75	24.462
17.768	24.4446
17.786	24.4324
17.804	24.4263
17.822	24.426
17.84	24.431
17.858	24.4404
17.876	24.4531
17.894	24.4667
17.912	24.4806
17.93	24.4915
17.948	24.499
17.966	24.5003
17.984	24.4951
18.002	24.482
18.02	24.4615
18.038	24.4333
18.056	24.3992
18.074	24.3596
18.092	24.3176
18.11	24.2736
18.128	24.231
18.146	24.1903
18.164	24.154
18.182	24.1223
18.2	24.0963
18.218	24.0755
18.236	24.06
18.254	24.048
18.272	24.0393
18.29	24.0309
18.308	24.0224
18.326	24.0106
18.344	23.9953
18.362	23.9745
18.38	23.9481
18.398	23.9155
18.416	23.8771
18.434	23.833
18.452	23.7847
18.47	23.7329
18.488	23.6793
18.506	23.6248
18.524	23.5715
18.542	23.5198
18.56	23.4712
18.578	23.4257
18.596	23.3841
18.614	23.3464
18.632	23.3125
18.65	23.2823
18.668	23.2551
18.686	23.231
18.704	23.2094
18.722	23.1901
18.74	23.1731
18.758	23.1583
18.776	23.1456
18.794	23.1355
18.812	23.1281
18.83	23.1238
18.848	23.1228
18.866	23.1254
18.884	23.1319
18.902	23.1421
18.92	23.1563
18.938	23.1739
18.956	23.1949
18.974	23.2187
18.992	23.2447
19.01	23.2721
19.028	23.3002
19.046	23.3281
19.064	23.3547
19.082	23.3793
19.1	23.4008
19.118	23.4187
19.136	23.4317
19.154	23.4395
19.172	23.441
19.19	23.4361
19.208	23.424
19.226	23.4049
19.244	23.3782
19.262	23.3444
19.28	23.3036
19.298	23.2561
19.316	23.203
19.334	23.1445
19.352	23.0823
19.37	23.0163
19.388	22.9493
19.406	22.881
19.424	22.814
19.442	22.7483
19.46	22.686
19.478	22.6275
19.496	22.574
19.514	22.5259
19.532	22.4835
19.55	22.4472
19.568	22.4168
19.586	22.3922
19.604	22.3729
19.622	22.3583
19.64	22.348
19.658	22.3408
19.676	22.3369
19.694	22.3347
19.712	22.3344
19.73	22.335
19.748	22.3365
19.766	22.3384
19.784	22.3406
19.802	22.3431
19.82	22.346
19.838	22.3494
19.856	22.3535
19.874	22.3583
19.892	22.3642
19.91	22.3713
19.928	22.3796
19.946	22.3891
19.964	22.3997
19.982	22.4115
20	22.4238
20.018	22.4365
20.036	22.4492
20.054	22.461
20.072	22.4719
20.09	22.4806
20.108	22.4873
20.126	22.4909
20.144	22.4913
20.162	22.488
20.18	22.4808
20.198	22.4695
20.216	22.454
20.234	22.4344
20.252	22.4109
20.27	22.3833
20.288	22.3525
20.306	22.3182
20.324	22.2813
20.342	22.2421
20.36	22.2008
20.378	22.1587
20.396	22.1154
20.414	22.0721
20.432	22.0288
20.45	21.9863
20.468	21.945
20.486	21.905
20.504	21.867
20.522	21.8309
20.54	21.7969
20.558	21.765
20.576	21.7352
20.594	21.7075
20.612	21.6819
20.63	21.6578
20.648	21.6354
20.666	21.6144
20.684	21.5947
20.702	21.5763
20.72	21.559
20.738	21.543
20.756	21.5284
20.774	21.515
20.792	21.5032
20.81	21.493
20.828	21.4844
20.846	21.4778
20.864	21.473
20.882	21.4702
20.9	21.4694
20.918	21.4704
20.936	21.4731
20.954	21.4775
20.972	21.4829
20.99	21.4895
21.008	21.4968
21.026	21.5045
21.044	21.5126
21.062	21.5207
21.08	21.5289
21.098	21.5372
21.116	21.5456
21.134	21.5543
21.152	21.5637
21.17	21.5738
21.188	21.5854
21.206	21.5987
21.224	21.6138
21.242	21.6318
21.26	21.6522
21.278	21.6757
21.296	21.7026
21.314	21.7325
21.332	21.7655
21.35	21.8018
21.368	21.8399
21.386	21.8801
21.404	21.9216
21.422	21.9625
21.44	22.0035
21.458	22.0423
21.476	22.0781
21.494	22.111
21.512	22.1386
21.53	22.1611
21.548	22.1782
21.566	22.1888
21.584	22.1935
21.602	22.1923
21.62	22.1848
21.638	22.1719
21.656	22.1547
21.674	22.1328
21.692	22.1079
21.71	22.0802
21.728	22.0502
21.746	22.02
21.764	21.9891
21.782	21.9583
21.8	21.9286
21.818	21.8996
21.836	21.871
21.854	21.8434
21.872	21.816
21.89	21.7875
21.908	21.7587
21.926	21.728
21.944	21.6944
21.962	21.6584
21.98	21.6183
21.998	21.5738
22.016	21.525
22.034	21.4715
22.052	21.4131
22.07	21.3505
22.088	21.2841
22.106	21.2136
22.124	21.1411
22.142	21.0666
22.16	20.9908
22.178	20.9165
22.196	20.8428
22.214	20.7715
22.232	20.7051
22.25	20.6424
22.268	20.5857
22.286	20.5362
22.304	20.4933
22.322	20.4584
22.34	20.4319
22.358	20.4133
22.376	20.4031
22.394	20.4014
22.412	20.4076
22.43	20.421
22.448	20.4421
22.466	20.4695
22.484	20.5026
22.502	20.5416
22.52	20.5852
22.538	20.6326
22.556	20.6842
22.574	20.7385
22.592	20.7956
22.61	20.8552
22.628	20.9162
22.646	20.9785
22.664	21.0421
22.682	21.1067
22.7	21.1726
22.718	21.2392
22.736	21.3062
22.754	21.3739
22.772	21.4411
22.79	21.5066
22.808	21.5715
22.826	21.6326
22.844	21.6883
22.862	21.7398
22.88	21.7833
22.898	21.8178
22.916	21.8441
22.934	21.8577
22.952	21.8578
22.97	21.8451
22.988	21.8151
23.006	21.767
23.024	21.7016
23.042	21.6161
23.06	21.5097
23.078	21.3833
23.096	21.2372
23.114	21.0701
23.132	20.8837
23.15	20.6815
23.168	20.4621
23.186	20.2276
23.204	19.9842
23.222	19.7298
23.24	19.4672
23.258	19.2053
23.276	18.9415
23.294	18.6787
23.312	18.4271
23.33	18.1851
23.348	17.9542
23.366	17.7436
23.384	17.553
23.402	17.3821
23.42	17.237
23.438	17.1182
23.456	17.0246
23.474	16.958
23.492	16.9197
23.51	16.9083
23.528	16.9213
23.546	16.9593
23.564	17.0219
23.582	17.1032
23.6	17.2022
23.618	17.3203
23.636	17.4493
23.654	17.5855
23.672	17.7324
23.69	17.8828
23.708	18.0317
23.726	18.183
23.744	18.3315
23.762	18.4725
23.78	18.6084
23.798	18.7377
23.816	18.8586
23.834	18.9708
23.852	19.0757
23.87	19.1744
23.888	19.2663
23.906	19.3519
23.924	19.4325
23.942	19.5086
23.96	19.5796
23.978	19.6449
23.996	19.7048
24.014	19.7593
24.032	19.8066
24.05	19.8458
24.068	19.8787
24.086	19.9012
24.104	19.91
24.122	19.909
24.14	19.8928
24.158	19.8543
24.176	19.7972
24.194	19.7187
24.212	19.6106
24.23	19.4716
24.248	19.3041
24.266	19.1029
24.284	18.8644
24.302	18.5912
24.32	18.2828
24.338	17.9379
24.356	17.5548
24.374	17.138
24.392	16.693
24.41	16.216
24.428	15.71
24.446	15.1856
24.464	14.6454
24.482	14.0842
24.5	13.5153
24.518	12.949
24.536	12.3763
24.554	11.8064
24.572	11.2525
24.59	10.7107
24.608	10.1819
24.626	9.678052
24.644	9.204892
24.662	8.756283
24.68	8.337772
24.698	7.954961
24.716	7.606259
24.734	7.290394
24.752	7.007241
24.77	6.759342
24.788	6.544991
24.806	6.357128
24.824	6.191904
24.842	6.055432
24.86	5.938281
24.878	5.829286
24.896	5.733954
24.914	5.649772
24.932	5.563483
24.95	5.469083
24.968	5.375133
24.986	5.269938
25.004	5.140998
25.022	4.992752
25.04	4.824875
25.058	4.630560
25.076	4.405671
25.094	4.153609
25.112	3.874882
25.13	3.569445
25.148	3.232777
25.166	2.870567
25.184	2.492334
25.202	2.100194
25.22	1.687254
25.238	1.267917
25.256	0.856802
25.274	0.443365
25.292	0.033380
25.31	-0.353715
25.328	-0.707898
25.346	-1.043211
25.364	-1.344315
25.382	-1.593253
25.4	-1.795129
25.418	-1.951766
25.436	-2.048455
25.454	-2.073926
25.472	-2.037426
25.49	-1.934832
25.508	-1.758611
25.526	-1.507701
25.544	-1.186096
25.562	-0.788774
25.58	-0.310886
25.598	0.246017
25.616	0.880594
25.634	1.593252
25.652	2.384896
25.67	3.256009
25.688	4.202907
25.706	5.221625
25.724	6.315316
25.742	7.483914
25.76	8.715964
25.778	10.0014
25.796	11.353
25.814	12.761
25.832	14.2045
25.85	15.6728
25.868	17.1862
25.886	18.7211
25.904	20.2482
25.922	21.7672
25.94	23.2947
25.958	24.7949
25.976	26.2315
25.994	27.6231
26.012	28.9694
26.03	30.2339
26.048	31.3853
26.066	32.4498
26.084	33.4166
26.102	34.2587
26.12	34.9584
26.138	35.5351
26.156	35.98
26.174	36.2797
26.192	36.4248
26.21	36.4222
26.228	36.2813
26.246	36.0116
26.264	35.606
26.282	35.0635
26.3	34.4069
26.318	33.6585
26.336	32.8014
26.354	31.8398
26.372	30.8049
26.39	29.725
26.408	28.5761
26.426	27.3676
26.444	26.1301
26.462	24.8885
26.48	23.6189
26.498	22.3323
26.516	21.0518
26.534	19.7945
26.552	18.5426
26.57	17.3042
26.588	16.0935
26.606	14.9199
26.624	13.7729
26.642	12.6567
26.66	11.5778
26.678	10.5403
26.696	9.539915
26.714	8.577083
26.732	7.652763
26.75	6.767003
26.768	5.918259
26.786	5.108338
26.804	4.339279
26.822	3.611886
26.84	2.924197
26.858	2.277422
26.876	1.673004
26.894	1.110993
26.912	0.589270
26.93	0.110426
26.948	-0.322648
26.966	-0.713473
26.984	-1.071960
27.002	-1.378408
27.02	-1.611171
27.028	-1.677393