File: Bakgrunnsmateriale/MATLAB/FTIR/ftir_data/LPE453/Mapping_121/LPE453_t38_cm-1.asc
PE IR       SPECTRUM    SPECTRUM    ASCII       PEDS        1.60
  -1
LPE859~1.ASC
17/05/16
17:27:03.00
17/05/16
17:27:03.00
tln
$LPE453_t0038$<tbV0>[2.6,-5.2,8.0,0.0,27,1,0]
370
64

2002,4.07
MIRTGS : RIGHTBACK : INTERNAL 2
MIR : ON : INTERNAL 2
OPTKBR

0.200000
8
8.000000
FILLER
RATIO
SPECTRUM
UNLOCKED 256

DOUBLE
64
COMBINED
1
0
0

1.000000
RATIO

1
0
TRUE
51149
0
LEFT NOT FITTED RIGHT NOT FITTED 0
NONE
NONE
15600
12
4.427000
51148
TRUE
1 0 8 72 0 0 0 0

15798

#HDR
-1
-1
#GR
CM-1
%T
2.38419e-05
0.0
5000
-1.000000
4631
8
24.7062
-32.1574
#DATA
5000	0.246620
4996	0.129413
4992	0.063371
4988	0.007772
4984	-0.152301
4980	-0.329589
4976	-0.337338
4972	0.060486
4968	0.543904
4964	0.712728
4960	0.521707
4956	0.221014
4952	0.099778
4948	0.035643
4944	0.133752
4940	0.207066
4936	0.043010
4932	-0.027012
4928	-0.045037
4924	-0.083947
4920	0.055670
4916	0.157070
4912	-0.025820
4908	-0.213694
4904	-0.177049
4900	-0.102376
4896	-0.026273
4892	0.095248
4888	0.056791
4884	0.085759
4880	0.365352
4876	0.507950
4872	0.376415
4868	0.158262
4864	-0.012016
4860	0.087618
4856	0.339651
4852	0.403213
4848	0.299382
4844	0.187325
4840	0.170278
4836	0.136017
4832	0.013637
4828	0.108027
4824	0.347089
4820	0.317907
4816	0.092196
4812	-0.083184
4808	-0.060391
4804	0.203776
4800	0.380611
4796	0.220227
4792	0.077033
4788	0.154423
4784	0.066089
4780	-0.206565
4776	-0.291824
4772	-0.123715
4768	0.197577
4764	0.429129
4760	0.297474
4756	0.033926
4752	-0.035023
4748	-0.076460
4744	-0.158667
4740	-0.030732
4736	0.277161
4732	0.579714
4728	0.631737
4724	0.352978
4720	0.171232
4716	0.219964
4712	0.184249
4708	0.046753
4704	0.002694
4700	0.102853
4696	0.284695
4692	0.358605
4688	0.320625
4684	0.347566
4680	0.475716
4676	0.533986
4672	0.524139
4668	0.558376
4664	0.604605
4660	0.596141
4656	0.439524
4652	0.409197
4648	0.617098
4644	0.667333
4640	0.606751
4636	0.461316
4632	0.193953
4628	0.158643
4624	0.407648
4620	0.583767
4616	0.567746
4612	0.618386
4608	0.610160
4604	0.530266
4600	0.434851
4596	0.309109
4592	0.271511
4588	-0.003886
4584	-0.412869
4580	-0.454711
4576	-0.329947
4572	-0.311255
4568	-0.376677
4564	-0.553321
4560	-0.690937
4556	-0.686836
4552	-0.733661
4548	-0.845360
4544	-0.863289
4540	-0.898933
4536	-1.126337
4532	-0.963687
4528	0.940251
4524	3.399515
4520	8.268857
4516	16.4567
4512	17.6278
4508	10.0393
4504	3.229093
4500	0.057554
4496	-0.902748
4492	-0.284504
4488	0.549888
4484	0.530052
4480	-0.044751
4476	-0.145816
4472	0.164604
4468	0.448393
4464	0.378632
4460	0.195574
4456	0.197339
4452	0.084424
4448	-0.060772
4444	-0.123524
4440	-0.095081
4436	0.110268
4432	0.251579
4428	0.220370
4424	0.227665
4420	0.260257
4416	0.216817
4412	0.179076
4408	0.269460
4404	0.384449
4400	0.402212
4396	0.244426
4392	0.024819
4388	0.064015
4384	0.339245
4380	0.543665
4376	0.501108
4372	0.401711
4368	0.421214
4364	0.307488
4360	0.143575
4356	0.125050
4352	0.091242
4348	0.083136
4344	0.192189
4340	0.265049
4336	0.271558
4332	0.306725
4328	0.310778
4324	0.179529
4320	-0.020599
4316	-0.067496
4312	0.001835
4308	-0.006794
4304	-0.067043
4300	0.036525
4296	0.236582
4292	0.275230
4288	0.254821
4284	0.232863
4280	0.173139
4276	0.190782
4272	0.234103
4268	0.214338
4264	0.234532
4260	0.292873
4256	0.226187
4252	0.134992
4248	0.261783
4244	0.398778
4240	0.290322
4236	0.177383
4232	0.198316
4228	0.307416
4224	0.416851
4220	0.391840
4216	0.257277
4212	0.105047
4208	0.044226
4204	0.058913
4200	0.029969
4196	0.045943
4192	0.124573
4188	0.131750
4184	0.109744
4180	0.015997
4176	0.143170
4172	0.631284
4168	0.682878
4164	0.291919
4160	0.093173
4156	0.043559
4152	0.081849
4148	0.138950
4144	0.076007
4140	0.011181
4136	0.069379
4132	0.216269
4128	0.337004
4124	0.324559
4120	0.165414
4116	0.036883
4112	0.112628
4108	0.220561
4104	0.207829
4100	0.203752
4096	0.223541
4092	0.115799
4088	-0.054526
4084	-0.011706
4080	0.196552
4076	0.309181
4072	0.165200
4068	-0.083494
4064	-0.074982
4060	0.061130
4056	0.095367
4052	0.147628
4048	0.158476
4044	0.072479
4040	0.002956
4036	-0.014758
4032	0.021123
4028	0.072312
4024	0.078964
4020	0.038075
4016	0.118756
4012	0.239205
4008	0.199937
4004	0.108695
4000	0.043630
3996	0.067210
3992	0.135254
3988	0.148415
3984	0.149035
3980	0.195479
3976	0.259113
3972	0.186443
3968	0.034022
3964	0.021862
3960	0.086951
3956	0.139164
3952	0.178790
3948	0.101304
3944	0.024914
3940	0.067377
3936	0.104856
3932	0.092363
3928	0.049591
3924	0.072097
3920	0.110578
3916	0.076055
3912	0.072765
3908	0.120162
3904	0.159120
3900	0.097870
3896	0.016331
3892	0.090956
3888	0.191545
3884	0.034046
3880	-0.272893
3876	-0.260233
3872	-0.028920
3868	-0.004744
3864	-0.051665
3860	-0.024986
3856	0.018334
3852	0.125312
3848	0.212001
3844	0.183248
3840	0.145435
3836	0.131130
3832	0.178050
3828	0.197744
3824	0.093698
3820	-0.033903
3816	-0.081992
3812	-0.003862
3808	0.098514
3804	0.164508
3800	0.188589
3796	0.140333
3792	0.085687
3788	0.049352
3784	0.045204
3780	0.088787
3776	0.111889
3772	0.106000
3768	0.109791
3764	0.134205
3760	0.138640
3756	0.151515
3752	0.215482
3748	0.211501
3744	0.138497
3740	0.109529
3736	0.041723
3732	-0.070357
3728	-0.053262
3724	0.069403
3720	0.130701
3716	0.157690
3712	0.206732
3708	0.188183
3704	0.100970
3700	0.042605
3696	0.043606
3692	0.020837
3688	-0.027728
3684	-0.034666
3680	-0.031995
3676	-0.015187
3672	0.009083
3668	0.028395
3664	0.106310
3660	0.210738
3656	0.191044
3652	0.113129
3648	0.112318
3644	0.059533
3640	-0.018358
3636	-0.030040
3632	-0.050997
3628	-0.090742
3624	-0.094056
3620	0.020170
3616	0.091171
3612	0.025439
3608	0.012469
3604	0.034832
3600	0.033593
3596	0.031208
3592	-0.031399
3588	-0.109553
3584	-0.010681
3580	0.152611
3576	0.211811
3572	0.219798
3568	0.220441
3564	0.130772
3560	0.006747
3556	-0.061821
3552	-0.100636
3548	-0.096273
3544	-0.033092
3540	-0.005078
3536	-0.008773
3532	0.039029
3528	0.043129
3524	-0.022101
3520	-0.063133
3516	-0.032901
3512	0.063204
3508	0.091361
3504	0.027608
3500	-0.000333
3496	0.040411
3492	0.131654
3488	0.180792
3484	0.121521
3480	-0.025558
3476	-0.145006
3472	-0.088310
3468	0.027871
3464	0.038623
3460	-0.024461
3456	-0.029444
3452	0.070476
3448	0.107049
3444	0.006008
3440	-0.081777
3436	-0.044584
3432	0.041723
3428	0.083804
3424	0.077867
3420	0.003075
3416	-0.070285
3412	-0.025558
3408	0.050806
3404	0.063014
3400	0.034046
3396	0.031375
3392	0.090336
3388	0.153112
3384	0.181078
3380	0.125336
3376	0.038743
3372	0.030899
3368	0.072884
3364	0.065636
3360	0.026869
3356	0.096726
3352	0.176358
3348	0.127625
3344	-0.008130
3340	-0.133681
3336	-0.140762
3332	-0.024223
3328	0.127315
3324	0.164413
3320	0.094556
3316	0.041198
3312	0.007820
3308	-0.014352
3304	-0.058722
3300	-0.076317
3296	0.004863
3292	0.032687
3288	-0.027370
3284	0.018119
3280	0.134658
3276	0.134062
3272	0.085377
3268	0.060725
3264	-0.005006
3260	-0.027394
3256	0.079059
3252	0.210809
3248	0.226807
3244	0.133872
3240	0.084948
3236	0.112867
3232	0.057458
3228	-0.108218
3224	-0.226068
3220	-0.144314
3216	0.004410
3212	0.008583
3208	0.027585
3204	0.123143
3200	0.142335
3196	0.109863
3192	0.069236
3188	0.026655
3184	-0.024890
3180	-0.061774
3176	-0.000143
3172	0.088453
3168	0.119614
3164	0.129890
3160	0.099539
3156	0.013494
3152	-0.055503
3148	-0.066423
3144	-0.010013
3140	0.090360
3136	0.258803
3132	0.458192
3128	0.447916
3124	0.304365
3120	0.191593
3116	0.024914
3112	-0.127172
3108	-0.142216
3104	-0.067830
3100	-0.058865
3096	-0.050449
3092	0.019192
3088	0.065898
3084	0.133490
3080	0.129270
3076	0.007104
3072	-0.062155
3068	0.001859
3064	0.122046
3060	0.142073
3056	0.085139
3052	0.040912
3048	0.014901
3044	0.043725
3040	0.088644
3036	0.108194
3032	0.092339
3028	0.038290
3024	0.024056
3020	0.077724
3016	0.087380
3012	-0.006985
3008	-0.088047
3004	-0.122594
3000	-0.146031
2996	-0.092411
2992	-0.047183
2988	-0.096511
2984	-0.066399
2980	0.086236
2976	0.209641
2972	0.248670
2968	0.203394
2964	0.114727
2960	0.064396
2956	0.060534
2952	0.061750
2948	0.043535
2944	0.038647
2940	0.071430
2936	0.092673
2932	0.087928
2928	0.093555
2924	0.095057
2920	0.043582
2916	-0.034880
2912	-0.050425
2908	0.033450
2904	0.109362
2900	0.067615
2896	0.008368
2892	0.046944
2888	0.109362
2884	0.109839
2880	0.055813
2876	0.028419
2872	0.040411
2868	-0.043606
2864	-0.140857
2860	-0.073027
2856	0.086736
2852	0.186514
2848	0.120496
2844	0.007748
2840	-0.005841
2836	0.033330
2832	0.083708
2828	0.098228
2824	0.061583
2820	0.032329
2816	0.040483
2812	0.047969
2808	0.030469
2804	0.002503
2800	-0.015830
2796	0.013256
2792	0.015449
2788	-0.032067
2784	-0.017929
2780	0.010728
2776	-0.013899
2772	-0.012350
2768	0.050067
2764	0.083708
2760	0.057482
2756	0.022697
2752	0.002527
2748	0.015139
2744	0.041055
2740	0.086784
2736	0.108146
2732	0.047540
2728	0.038862
2724	0.101804
2720	0.113987
2716	0.075006
2712	0.030994
2708	0.027060
2704	0.071859
2700	0.098180
2696	0.056862
2692	-0.013637
2688	-0.019931
2684	0.027656
2680	0.016927
2676	-0.023961
2672	0.001144
2668	0.027680
2664	0.024509
2660	0.077152
2656	0.148868
2652	0.132060
2648	0.044131
2644	0.002336
2640	-0.000405
2636	0.008964
2632	0.069427
2628	0.095343
2624	0.075149
2620	0.085687
2616	0.088524
2612	0.058007
2608	0.039720
2604	0.043082
2600	0.044488
2596	0.008010
2592	-0.044345
2588	-0.025558
2584	0.032210
2580	0.040745
2576	0.021815
2572	0.013709
2568	-0.026655
2564	-0.067472
2560	-0.063610
2556	-0.016713
2552	0.048828
2548	0.093483
2544	0.119948
2540	0.094175
2536	0.029468
2532	0.055432
2528	0.132727
2524	0.089049
2520	-0.002861
2516	-0.012826
2512	0.053095
2508	0.116229
2504	0.108408
2500	0.095653
2496	0.153517
2492	0.126957
2488	-0.020003
2484	-0.098514
2480	-0.093150
2476	-0.056743
2472	-0.023937
2468	-0.013899
2464	-0.008296
2460	0.043010
2456	0.077557
2452	0.029683
2448	0.009799
2444	0.025129
2440	0.029802
2436	0.044417
2432	0.077652
2428	0.135660
2424	0.218439
2420	0.240015
2416	0.113940
2412	-0.020098
2408	0.002336
2404	0.047707
2400	-0.015091
2396	-0.116777
2392	-0.143647
2388	-0.072550
2384	0.039100
2380	0.106310
2376	0.053787
2372	-0.013542
2368	0.010871
2364	0.080394
2360	0.107550
2356	0.075984
2352	0.048208
2348	0.040340
2344	0.021743
2340	-0.002217
2336	-0.018501
2332	-0.035190
2328	-0.027966
2324	0.028204
2320	0.096845
2316	0.072717
2312	-0.033378
2308	-0.063228
2304	0.013089
2300	0.070691
2296	0.068163
2292	0.032854
2288	-0.036406
2284	-0.074195
2280	-0.047636
2276	-0.005578
2272	0.047326
2268	0.113677
2264	0.152873
2260	0.171422
2256	0.157737
2252	0.070381
2248	0.019431
2244	0.101327
2240	0.207853
2236	0.240993
2232	0.255942
2228	0.304794
2224	0.362205
2220	0.394034
2216	0.432109
2212	0.504302
2208	0.609874
2204	0.730514
2200	0.835895
2196	0.950074
2192	1.087141
2188	1.230716
2184	1.332950
2180	1.403522
2176	1.536989
2172	1.716208
2168	1.847171
2164	1.997947
2160	2.231574
2156	2.492976
2152	2.730512
2148	2.863812
2144	3.032374
2140	3.330135
2136	3.552412
2132	3.751277
2128	4.024457
2124	4.304146
2120	4.630899
2116	5.003762
2112	5.348086
2108	5.655932
2104	5.963373
2100	6.286430
2096	6.628441
2092	6.958603
2088	7.285022
2084	7.640743
2080	8.016204
2076	8.403086
2072	8.706808
2068	8.945870
2064	9.342789
2060	9.833645
2056	10.2069
2052	10.5117
2048	10.8568
2044	11.2666
2040	11.6887
2036	12.0393
2032	12.3407
2028	12.6852
2024	13.0593
2020	13.4214
2016	13.7998
2012	14.1494
2008	14.4433
2004	14.7709
2000	15.0868
1996	15.3535
1992	15.6598
1988	15.9727
1984	16.2367
1980	16.4969
1976	16.7756
1972	17.0633
1968	17.3364
1964	17.5791
1960	17.8207
1956	18.0636
1952	18.2822
1948	18.5189
1944	18.7725
1940	18.9899
1936	19.2133
1932	19.4691
1928	19.6772
1924	19.8038
1920	19.9395
1916	20.1469
1912	20.3814
1908	20.5984
1904	20.7533
1900	20.88
1896	21.0639
1892	21.2595
1888	21.3938
1884	21.45
1880	21.5271
1876	21.7026
1872	21.8804
1868	22.0009
1864	22.1191
1860	22.2184
1856	22.3161
1852	22.4567
1848	22.5629
1844	22.6587
1840	22.7942
1836	22.8787
1832	22.9275
1828	23.0467
1824	23.1781
1820	23.2143
1816	23.1988
1812	23.2576
1808	23.3712
1804	23.4653
1800	23.5558
1796	23.5873
1792	23.5934
1788	23.6907
1784	23.7899
1780	23.8037
1776	23.7888
1772	23.7916
1768	23.8387
1764	23.9569
1760	24.074
1756	24.0823
1752	24.0158
1748	24.0037
1744	24.0921
1740	24.1454
1736	24.1076
1732	24.1144
1728	24.2366
1724	24.3769
1720	24.4331
1716	24.4162
1712	24.3345
1708	24.2272
1704	24.1879
1700	24.2525
1696	24.351
1692	24.4005
1688	24.405
1684	24.3955
1680	24.3827
1676	24.4024
1672	24.4815
1668	24.5183
1664	24.4784
1660	24.4905
1656	24.555
1652	24.5987
1648	24.6526
1644	24.7016
1640	24.6915
1636	24.6024
1632	24.5011
1628	24.4838
1624	24.4991
1620	24.5038
1616	24.5268
1612	24.5812
1608	24.632
1604	24.6024
1600	24.5012
1596	24.4147
1592	24.3829
1588	24.371
1584	24.3537
1580	24.3859
1576	24.4895
1572	24.5536
1568	24.5169
1564	24.4577
1560	24.4226
1556	24.3949
1552	24.3875
1548	24.4192
1544	24.4911
1540	24.5662
1536	24.5698
1532	24.5272
1528	24.4997
1524	24.5225
1520	24.579
1516	24.5635
1512	24.4794
1508	24.3988
1504	24.3765
1500	24.4281
1496	24.4856
1492	24.4704
1488	24.4114
1484	24.3576
1480	24.3076
1476	24.2892
1472	24.2911
1468	24.3453
1464	24.4532
1460	24.4702
1456	24.4019
1452	24.3214
1448	24.1679
1444	23.9833
1440	23.963
1436	24.1389
1432	24.2947
1428	24.3028
1424	24.2481
1420	24.1996
1416	24.1472
1412	24.1166
1408	24.1009
1404	24.0414
1400	23.9795
1396	23.9974
1392	24.074
1388	24.1526
1384	24.1766
1380	24.1316
1376	24.0524
1372	23.9692
1368	23.9408
1364	23.9884
1360	24.0315
1356	23.979
1352	23.913
1348	23.9471
1344	24.0024
1340	23.9637
1336	23.8728
1332	23.8341
1328	23.8246
1324	23.7828
1320	23.7396
1316	23.7666
1312	23.8583
1308	23.9063
1304	23.8449
1300	23.7591
1296	23.6983
1292	23.6195
1288	23.6031
1284	23.6672
1280	23.6975
1276	23.6984
1272	23.7027
1268	23.6762
1264	23.5847
1260	23.4971
1256	23.4771
1252	23.4715
1248	23.4659
1244	23.453
1240	23.4203
1236	23.3983
1232	23.4125
1228	23.4195
1224	23.3738
1220	23.3298
1216	23.2921
1212	23.2358
1208	23.187
1204	23.1692
1200	23.189
1196	23.2574
1192	23.323
1188	23.2942
1184	23.1854
1180	23.0572
1176	22.9884
1172	22.9869
1168	23.0235
1164	23.0669
1160	23.0614
1156	23.0148
1152	22.9927
1148	22.9983
1144	22.9961
1140	22.9964
1136	22.9482
1132	22.8359
1128	22.7429
1124	22.7104
1120	22.7531
1116	22.7774
1112	22.7359
1108	22.6951
1104	22.6125
1100	22.5306
1096	22.4984
1092	22.5163
1088	22.5673
1084	22.5905
1080	22.6284
1076	22.5878
1072	22.441
1068	22.3288
1064	22.262
1060	22.2067
1056	22.194
1052	22.2449
1048	22.2442
1044	22.1901
1040	22.1341
1036	22.0415
1032	21.9471
1028	21.9328
1024	21.9612
1020	21.8802
1016	21.795
1012	21.7552
1008	21.7363
1004	21.8009
1000	21.7594
996	 21.5724
992	 21.4406
988	 21.3912
984	 21.3391
980	 21.3196
976	 21.3726
972	 21.3766
968	 21.3487
964	 21.3817
960	 21.3951
956	 21.3435
952	 21.2188
948	 21.058
944	 20.9631
940	 20.9586
936	 20.9719
932	 20.908
928	 20.8188
924	 20.7713
920	 20.7685
916	 20.7566
912	 20.634
908	 20.4726
904	 20.3672
900	 20.2801
896	 20.1881
892	 20.1506
888	 20.2073
884	 20.2053
880	 20.0375
876	 19.9065
872	 19.8996
868	 19.8094
864	 19.6396
860	 19.5344
856	 19.4818
852	 19.469
848	 19.4377
844	 19.4348
840	 19.5696
836	 19.604
832	 19.5005
828	 19.4259
824	 19.2239
820	 18.9628
816	 18.8557
812	 18.8286
808	 18.7573
804	 18.5896
800	 18.4943
796	 18.531
792	 18.4988
788	 18.3622
784	 18.2631
780	 18.2262
776	 18.2568
772	 18.3472
768	 18.3046
764	 18.1489
760	 17.9946
756	 17.9321
752	 18.0051
748	 17.854
744	 17.5036
740	 17.3526
736	 17.3113
732	 17.2796
728	 17.4519
724	 17.6407
720	 17.4807
716	 17.126
712	 16.9146
708	 16.8227
704	 16.711
700	 16.6564
696	 16.7216
692	 16.672
688	 16.4365
684	 16.3132
680	 16.3123
676	 16.2288
672	 15.9935
668	 15.6686
664	 15.4384
660	 15.4747
656	 15.6662
652	 15.8028
648	 15.8359
644	 15.6543
640	 15.4106
636	 15.3007
632	 15.1532
628	 15.0762
624	 15.1096
620	 15.0439
616	 14.9306
612	 14.9591
608	 15.0986
604	 14.9637
600	 14.465
596	 14.0513
592	 14.0383
588	 14.0902
584	 13.9854
580	 13.8817
576	 13.6884
572	 13.5723
568	 13.6177
564	 13.5629
560	 13.5015
556	 13.3208
552	 12.8648
548	 12.575
544	 12.658
540	 12.8095
536	 12.8359
532	 12.7872
528	 12.5393
524	 12.1899
520	 11.9033
516	 11.6211
512	 11.6622
508	 11.9412
504	 12.0393
500	 11.9291
496	 11.7926
492	 11.884
488	 11.7514
484	 11.0002
480	 10.7148
476	 11.3165
472	 11.5259
468	 11.1047
464	 10.9049
460	 11.0787
456	 11.4693
452	 11.1595
448	 9.947419
444	 9.822893
440	 10.0869
436	 9.198951
432	 8.528423
428	 8.886384
424	 9.806036
420	 9.795284
416	 7.791876
412	 5.878973
408	 6.515312
404	 7.195949
400	 7.481694
396	 8.221483
392	 7.383322
388	 7.191514
384	 -3.306674
380	 -27.8153
376	 -27.0912
372	 -13.717
370	 -13.6626