File: Bakgrunnsmateriale/MATLAB/FTIR/ftir_data/LPE453/Mapping_121/LPE453_t86_cm-1.asc
PE IR       SPECTRUM    SPECTRUM    ASCII       PEDS        1.60
  -1
LP6B5A~1.ASC
17/05/16
21:23:18.00
17/05/16
21:23:18.00
tln
$LPE453_t0086$<tbV0>[-7.8,5.2,8.0,0.0,27,1,0]
370
64

2002,4.07
MIRTGS : RIGHTBACK : INTERNAL 2
MIR : ON : INTERNAL 2
OPTKBR

0.200000
8
8.000000
FILLER
RATIO
SPECTRUM
UNLOCKED 256

DOUBLE
64
COMBINED
1
0
0

1.000000
RATIO

1
0
TRUE
51149
0
LEFT NOT FITTED RIGHT NOT FITTED 0
NONE
NONE
15600
12
4.427000
51148
TRUE
1 0 8 72 0 0 0 0

15798

#HDR
-1
-1
#GR
CM-1
%T
2.38419e-05
0.0
5000
-1.000000
4631
8
37.0356
-1.789474
#DATA
5000	0.585174
4996	0.682425
4992	0.423884
4988	0.105500
4984	0.074505
4980	0.180363
4976	0.215721
4972	0.251650
4968	0.198292
4964	-0.081110
4960	-0.126647
4956	0.088763
4952	-0.034189
4948	-0.258874
4944	-0.285434
4940	-0.369429
4936	-0.353693
4932	-0.137186
4928	0.053453
4924	0.276756
4920	0.419616
4916	0.270342
4912	0.139832
4908	0.292181
4904	0.442814
4900	0.199151
4896	-0.136399
4892	-0.050425
4888	0.094079
4884	-0.086951
4880	-0.251984
4876	-0.076913
4872	0.265955
4868	0.318479
4864	0.043201
4860	-0.071430
4856	0.043702
4852	0.047039
4848	-0.007438
4844	0.024485
4840	0.067162
4836	0.008058
4832	-0.131344
4828	0.019025
4824	0.330829
4820	0.264120
4816	-0.067019
4812	-0.252437
4808	-0.249290
4804	-0.169348
4800	0.086212
4796	0.400304
4792	0.497674
4788	0.353574
4784	0.065279
4780	-0.053524
4776	0.042271
4772	0.140666
4768	0.212430
4764	0.102663
4760	-0.010442
4756	0.183463
4752	0.368905
4748	0.218677
4744	-0.049400
4740	-0.101852
4736	-0.045299
4732	0.149011
4728	0.575804
4724	0.720810
4720	0.485253
4716	0.270366
4712	0.040054
4708	-0.191760
4704	-0.225377
4700	0.067806
4696	0.686931
4692	0.958538
4688	0.489830
4684	-0.112199
4680	-0.756573
4676	-1.179409
4672	-0.773477
4668	-0.590085
4664	-0.899410
4660	-0.824332
4656	-0.518751
4652	-0.212597
4648	0.174927
4644	0.504374
4640	0.421500
4636	0.003170
4632	-0.338149
4628	0.362563
4624	1.473355
4620	1.098036
4616	-0.060558
4612	-0.256800
4608	0.495958
4604	1.111602
4600	1.071357
4596	0.562596
4592	0.221514
4588	0.627040
4584	0.831627
4580	-0.129842
4576	-1.240229
4572	-1.276898
4568	-0.493860
4564	-0.091409
4560	-0.326919
4556	-0.172758
4552	0.056433
4548	0.179934
4544	0.766015
4540	1.120805
4536	0.540256
4532	-0.072073
4528	-0.226068
4524	-0.100660
4520	-0.347137
4516	-1.278114
4512	-1.734375
4508	-0.573515
4504	-0.183725
4500	-0.545310
4496	7.845163
4492	17.8516
4488	13.4031
4484	4.535627
4480	0.776290
4476	-1.124334
4472	-1.751828
4468	-1.587200
4464	-0.915598
4460	-0.616526
4456	-0.276494
4452	0.084352
4448	0.129342
4444	0.214695
4440	0.059938
4436	-0.128698
4432	-0.060892
4428	0.098896
4424	0.247764
4420	0.336766
4416	0.246262
4412	-0.300145
4408	-0.744152
4404	-0.568962
4400	-0.387215
4396	-0.295543
4392	-0.140428
4388	-0.302910
4384	-0.500512
4380	-0.312972
4376	-0.077271
4372	-0.091433
4368	-0.040888
4364	0.360178
4360	0.569987
4356	0.337576
4352	0.145196
4348	0.226902
4344	0.484228
4340	0.627994
4336	0.452256
4332	0.255846
4328	0.267338
4324	0.213384
4320	-0.008416
4316	0.001287
4312	0.259900
4308	0.396919
4304	0.220870
4300	-0.069189
4296	-0.187611
4292	-0.200462
4288	-0.172686
4284	-0.139713
4280	-0.049352
4276	0.209784
4272	0.367164
4268	0.153040
4264	-0.093960
4260	-0.010895
4256	0.158047
4252	0.093889
4248	-0.072789
4244	-0.048398
4240	0.105977
4236	0.098299
4232	-0.005364
4228	-0.012826
4224	-0.047159
4220	-0.173449
4216	-0.188350
4212	-0.121569
4208	-0.081706
4204	0.031161
4200	0.109958
4196	-0.020551
4192	-0.217103
4188	-0.080609
4184	0.352120
4180	0.615882
4176	0.630855
4172	0.481510
4168	0.250720
4164	0.120711
4160	0.089526
4156	0.096297
4152	0.084805
4148	0.011754
4144	0.059032
4140	0.138282
4136	0.039243
4132	-0.072765
4128	-0.056934
4124	0.080084
4120	0.233983
4116	0.250291
4112	0.191354
4108	0.181770
4104	0.174140
4100	0.098705
4096	0.043702
4092	0.128793
4088	0.172615
4084	0.045323
4080	-0.083041
4076	-0.090479
4072	-0.011658
4068	0.080180
4064	0.181674
4060	0.209450
4056	0.155258
4052	0.131440
4048	0.174117
4044	0.161767
4040	0.061130
4036	-0.000309
4032	-0.005030
4028	-0.023984
4024	-0.000524
4020	0.091099
4016	0.153303
4012	0.170159
4008	0.218772
4004	0.201010
4000	0.051999
3996	-0.092101
3992	-0.152850
3988	-0.009465
3984	0.180387
3980	0.180792
3976	0.131297
3972	0.133490
3968	0.165677
3964	0.144958
3960	0.051069
3956	-0.062751
3952	-0.116014
3948	-0.041031
3944	0.088834
3940	0.200581
3936	0.277566
3932	0.226044
3928	0.073194
3924	0.033688
3920	0.038576
3916	-0.014424
3912	-0.071930
3908	-0.135636
3904	-0.089597
3900	0.001931
3896	0.028252
3892	0.050306
3888	0.041246
3884	0.066423
3880	0.151991
3876	0.118279
3872	-0.054740
3868	-0.158190
3864	-0.114035
3860	-0.049757
3856	0.001168
3852	0.138401
3848	0.263023
3844	0.241923
3840	0.142335
3836	0.060343
3832	0.083136
3828	0.116729
3824	0.092792
3820	0.089669
3816	0.051307
3812	0.002694
3808	0.039029
3804	0.105524
3800	0.112724
3796	0.072145
3792	0.015521
3788	0.014877
3784	0.133657
3780	0.249552
3776	0.282859
3772	0.225901
3768	0.128412
3764	0.118875
3760	0.126528
3756	0.059318
3752	-0.040578
3748	-0.059461
3744	0.024843
3740	0.097203
3736	0.119423
3732	0.110483
3728	0.073289
3724	0.087046
3720	0.095510
3716	-0.075936
3712	-0.235581
3708	-0.122880
3704	0.063490
3700	0.087070
3696	0.002598
3692	-0.055575
3688	-0.003862
3684	0.101900
3680	0.134229
3676	0.120043
3672	0.134682
3668	0.110006
3664	0.033545
3660	-0.044870
3656	-0.119304
3652	-0.113248
3648	-0.006747
3644	0.064158
3640	0.010061
3636	-0.047039
3632	0.011324
3628	0.030231
3624	-0.047254
3620	-0.078606
3616	-0.095486
3612	-0.096321
3608	0.003695
3604	0.081634
3600	0.084447
3596	0.075340
3592	0.024151
3588	0.033760
3584	0.131607
3580	0.146079
3576	0.082445
3572	0.080180
3568	0.050401
3564	-0.081562
3560	-0.107026
3556	0.021767
3552	0.098562
3548	0.033974
3544	-0.054097
3540	-0.071120
3536	-0.033402
3532	0.018882
3528	-0.000095
3524	-0.087308
3520	-0.102829
3516	-0.046801
3512	-0.014972
3508	-0.000405
3504	-0.017261
3500	-0.025224
3496	0.052976
3492	0.133872
3488	0.109505
3484	0.050210
3480	0.101947
3476	0.161719
3472	0.115728
3468	0.031185
3464	-0.037264
3460	-0.030088
3456	0.045990
3452	0.074100
3448	0.059437
3444	0.075674
3440	0.101470
3436	0.098896
3432	0.108957
3428	0.167846
3424	0.144338
3420	0.044536
3416	0.020003
3412	0.030732
3408	-0.030970
3404	-0.092458
3400	-0.015497
3396	0.065898
3392	0.018239
3388	-0.044274
3384	-0.057721
3380	-0.085306
3376	-0.124359
3372	-0.101423
3368	-0.006985
3364	0.064849
3360	0.060486
3356	0.046205
3352	0.049781
3348	0.127100
3344	0.238227
3340	0.222706
3336	0.112271
3332	0.034761
3328	0.044608
3324	0.042319
3320	0.035262
3316	0.155353
3312	0.236463
3308	0.140476
3304	0.029134
3300	0.026798
3296	0.043606
3292	-0.022268
3288	-0.076842
3284	-0.046372
3280	-0.012183
3276	-0.000524
3272	0.043964
3268	0.103998
3264	0.105810
3260	0.049686
3256	-0.021004
3252	-0.064110
3248	-0.014758
3244	0.082850
3240	0.112414
3236	0.038504
3232	-0.051426
3228	-0.059604
3224	-0.053000
3220	-0.090742
3216	-0.102519
3212	-0.037145
3208	0.032329
3204	0.047278
3200	0.080585
3196	0.156354
3192	0.243139
3188	0.259518
3184	0.174117
3180	0.087618
3176	0.084352
3172	0.110006
3168	0.060033
3164	0.021958
3160	0.043559
3156	0.045871
3152	0.025129
3148	-0.006890
3144	-0.049829
3140	-0.067639
3136	-0.014424
3132	0.068879
3128	0.116467
3124	0.128984
3120	0.167417
3116	0.259923
3112	0.268650
3108	0.113391
3104	-0.042033
3100	-0.097012
3096	-0.073266
3092	0.014996
3088	0.063657
3084	0.013279
3080	-0.010228
3076	0.050282
3072	0.056862
3068	-0.016522
3064	-0.107049
3060	-0.163531
3056	-0.129532
3052	-0.079727
3048	-0.082373
3044	-0.047731
3040	-0.019836
3036	-0.063490
3032	-0.079607
3028	-0.011873
3024	0.074100
3020	0.094795
3016	0.082349
3012	0.012421
3008	-0.073647
3004	-0.057959
3000	0.007224
2996	0.044727
2992	0.074481
2988	0.034713
2984	-0.013256
2980	0.045466
2976	0.109052
2972	0.117778
2968	0.092554
2964	0.044178
2960	0.037503
2956	0.084924
2952	0.097894
2948	0.058794
2944	0.040578
2940	0.038671
2936	0.015830
2932	0.002098
2928	0.017237
2924	0.013709
2920	-0.001144
2916	0.009536
2912	0.036668
2908	0.068378
2904	0.056123
2900	0.039434
2896	0.094938
2892	0.143814
2888	0.143742
2884	0.114250
2880	0.071072
2876	0.067448
2872	0.039649
2868	-0.036525
2864	-0.026869
2860	0.077843
2856	0.105977
2852	0.041627
2848	0.027990
2844	0.085783
2840	0.173830
2836	0.180792
2832	0.055456
2828	-0.043535
2824	-0.003814
2820	0.109601
2816	0.157189
2812	0.089192
2808	0.028419
2804	0.059461
2800	0.078010
2796	0.041937
2792	0.033497
2788	0.044941
2784	0.020241
2780	-0.013732
2776	-0.043153
2772	-0.084638
2768	-0.062823
2764	0.016069
2760	0.024104
2756	-0.011658
2752	0.018930
2748	0.054335
2744	0.041913
2740	0.008511
2736	-0.044536
2732	-0.035834
2728	0.028800
2724	0.001049
2720	-0.126338
2716	-0.214791
2712	-0.137972
2708	0.022983
2704	0.110435
2700	0.118494
2696	0.084805
2692	0.042986
2688	0.029468
2684	0.028872
2680	0.030922
2676	0.073099
2672	0.111985
2668	0.095653
2664	0.045800
2660	0.010371
2656	0.031542
2652	0.038790
2648	0.013470
2644	-0.000095
2640	-0.017261
2636	-0.026535
2632	0.018191
2628	0.162672
2624	0.282716
2620	0.231719
2616	0.145244
2612	0.144028
2608	0.147747
2604	0.112843
2600	0.075840
2596	0.031423
2592	0.002646
2588	0.036835
2584	0.106883
2580	0.130558
2576	0.068545
2572	0.003790
2568	-0.017595
2564	-0.024938
2560	-0.008177
2556	0.035142
2552	0.051188
2548	0.052618
2544	0.065016
2540	0.043606
2536	0.012636
2532	0.052618
2528	0.115895
2524	0.082826
2520	-0.013566
2516	-0.046515
2512	0.009059
2508	0.065994
2504	0.087118
2500	0.089240
2496	0.083613
2492	0.108504
2488	0.128555
2484	0.084924
2480	0.023245
2476	-0.032782
2472	-0.095987
2468	-0.101733
2464	-0.052714
2460	-0.013399
2456	0.019907
2452	0.061893
2448	0.085115
2444	0.054645
2440	0.015878
2436	0.024795
2432	0.042581
2428	0.013399
2424	0.021171
2420	0.132441
2416	0.134229
2412	-0.005650
2408	-0.081753
2404	-0.107812
2400	-0.066280
2396	0.051283
2392	0.123620
2388	0.142049
2384	0.132060
2380	0.092959
2376	0.074076
2372	0.126338
2368	0.214314
2364	0.273132
2360	0.262188
2356	0.246477
2352	0.273585
2348	0.232386
2344	0.197291
2340	0.279331
2336	0.351476
2332	0.325083
2328	0.319290
2324	0.439071
2320	0.559115
2316	0.603413
2312	0.622391
2308	0.642418
2304	0.698518
2300	0.774431
2296	0.839471
2292	0.899481
2288	0.955104
2284	1.021337
2280	1.106071
2276	1.214957
2272	1.318240
2268	1.430010
2264	1.602578
2260	1.769495
2256	1.921558
2252	2.097845
2248	2.243518
2244	2.354454
2240	2.530884
2236	2.777194
2232	3.001546
2228	3.221440
2224	3.475117
2220	3.708577
2216	3.907608
2212	4.173254
2208	4.533982
2204	4.916715
2200	5.274415
2196	5.586481
2192	5.879759
2188	6.176733
2184	6.523799
2180	7.014918
2176	7.567238
2172	8.014273
2168	8.436012
2164	8.926153
2160	9.427189
2156	9.896945
2152	10.347
2148	10.8236
2144	11.3579
2140	11.9172
2136	12.4031
2132	12.8209
2128	13.3004
2124	13.8399
2120	14.3419
2116	14.8717
2112	15.5046
2108	16.1354
2104	16.6776
2100	17.1453
2096	17.6274
2092	18.209
2088	18.8241
2084	19.3779
2080	19.9306
2076	20.5041
2072	20.9909
2068	21.4132
2064	21.8311
2060	22.2554
2056	22.7178
2052	23.2038
2048	23.6866
2044	24.1608
2040	24.6183
2036	25.0247
2032	25.3869
2028	25.7565
2024	26.1615
2020	26.5793
2016	26.961
2012	27.3018
2008	27.6334
2004	28.0183
2000	28.3925
1996	28.6991
1992	29.0318
1988	29.3771
1984	29.6619
1980	29.883
1976	30.1493
1972	30.4999
1968	30.777
1964	30.9349
1960	31.0948
1956	31.3176
1952	31.5571
1948	31.7958
1944	32.0339
1940	32.2731
1936	32.5191
1932	32.7129
1928	32.864
1924	33.0451
1920	33.2677
1916	33.4781
1912	33.5968
1908	33.6825
1904	33.8388
1900	33.978
1896	34.0418
1892	34.1614
1888	34.3315
1884	34.4381
1880	34.5598
1876	34.7482
1872	34.8816
1868	34.9482
1864	35.0303
1860	35.0993
1856	35.1664
1852	35.2388
1848	35.263
1844	35.2828
1840	35.3603
1836	35.4838
1832	35.5823
1828	35.6819
1824	35.8196
1820	35.8919
1816	35.89
1812	35.8907
1808	35.9409
1804	36.0339
1800	36.1073
1796	36.1283
1792	36.1078
1788	36.1388
1784	36.2204
1780	36.2263
1776	36.1988
1772	36.2453
1768	36.3583
1764	36.4841
1760	36.5618
1756	36.5867
1752	36.6022
1748	36.5882
1744	36.5278
1740	36.5013
1736	36.5256
1732	36.5123
1728	36.4336
1724	36.3935
1720	36.5038
1716	36.6863
1712	36.7641
1708	36.7651
1704	36.7835
1700	36.7857
1696	36.7678
1692	36.7651
1688	36.778
1684	36.7674
1680	36.7097
1676	36.6166
1672	36.5391
1668	36.5419
1664	36.6255
1660	36.7292
1656	36.7931
1652	36.8298
1648	36.8679
1644	36.9128
1640	36.9539
1636	36.9556
1632	36.9044
1628	36.847
1624	36.819
1620	36.7669
1616	36.6735
1612	36.6526
1608	36.7052
1604	36.7378
1600	36.7409
1596	36.7435
1592	36.8396
1588	36.9911
1584	37.0299
1580	36.9357
1576	36.8289
1572	36.7631
1568	36.7187
1564	36.7284
1560	36.7105
1556	36.5901
1552	36.5259
1548	36.5356
1544	36.5445
1540	36.6251
1536	36.7103
1532	36.7315
1528	36.7748
1524	36.8526
1520	36.9043
1516	36.9111
1512	36.8784
1508	36.7865
1504	36.6377
1500	36.5061
1496	36.4565
1492	36.4952
1488	36.5315
1484	36.5145
1480	36.5318
1476	36.6063
1472	36.681
1468	36.723
1464	36.7224
1460	36.7123
1456	36.6908
1452	36.6368
1448	36.5645
1444	36.4981
1440	36.4788
1436	36.4105
1432	36.2623
1428	36.1713
1424	36.2209
1420	36.3869
1416	36.5332
1412	36.5881
1408	36.6043
1404	36.6553
1400	36.702
1396	36.6218
1392	36.4869
1388	36.3942
1384	36.308
1380	36.1937
1376	36.06
1372	36.0145
1368	36.1169
1364	36.2336
1360	36.2847
1356	36.3215
1352	36.3954
1348	36.4541
1344	36.391
1340	36.2939
1336	36.2605
1332	36.2344
1328	36.1671
1324	36.0909
1320	36.0585
1316	36.0476
1312	36.0574
1308	36.0925
1304	36.1367
1300	36.2094
1296	36.2966
1292	36.3652
1288	36.3753
1284	36.3392
1280	36.343
1276	36.3255
1272	36.198
1268	36.026
1264	35.8772
1260	35.788
1256	35.759
1252	35.7656
1248	35.7956
1244	35.8752
1240	35.9698
1236	36.0166
1232	36.0642
1228	36.127
1224	36.1604
1220	36.1588
1216	36.1512
1212	36.093
1208	35.9172
1204	35.7398
1200	35.6298
1196	35.5584
1192	35.4923
1188	35.4301
1184	35.5054
1180	35.7061
1176	35.908
1172	36.0315
1168	36.0481
1164	36.0103
1160	35.9513
1156	35.815
1152	35.6503
1148	35.5303
1144	35.3847
1140	35.2258
1136	35.1603
1132	35.2038
1128	35.3137
1124	35.4544
1120	35.59
1116	35.6597
1112	35.6566
1108	35.6638
1104	35.6784
1100	35.6225
1096	35.5329
1092	35.4303
1088	35.3062
1084	35.2153
1080	35.1395
1076	35.0753
1072	35.0048
1068	34.936
1064	34.9872
1060	35.1604
1056	35.3495
1052	35.4892
1048	35.6026
1044	35.6359
1040	35.4926
1036	35.2706
1032	35.0514
1028	34.8565
1024	34.7713
1020	34.7786
1016	34.763
1012	34.6726
1008	34.5581
1004	34.5336
1000	34.6267
996	 34.7494
992	 34.905
988	 35.0878
984	 35.252
980	 35.2847
976	 35.0479
972	 34.7606
968	 34.5951
964	 34.4451
960	 34.2844
956	 34.1324
952	 34.0655
948	 34.1357
944	 34.2236
940	 34.2837
936	 34.3796
932	 34.477
928	 34.4967
924	 34.4846
920	 34.5255
916	 34.5714
912	 34.4418
908	 34.1281
904	 33.859
900	 33.6733
896	 33.5364
892	 33.4338
888	 33.3789
884	 33.4727
880	 33.6025
876	 33.6649
872	 33.8208
868	 34.1134
864	 34.3126
860	 34.2287
856	 33.9747
852	 33.688
848	 33.3706
844	 33.1641
840	 33.0981
836	 32.987
832	 32.8213
828	 32.7804
824	 32.9772
820	 33.2532
816	 33.3614
812	 33.297
808	 33.2573
804	 33.2589
800	 33.1584
796	 32.9783
792	 32.7691
788	 32.5211
784	 32.2581
780	 32.1188
776	 32.0911
772	 32.0267
768	 31.9925
764	 32.0579
760	 32.1461
756	 32.2565
752	 32.3571
748	 32.3717
744	 32.3241
740	 32.1769
736	 32.0004
732	 31.8987
728	 31.7262
724	 31.4284
720	 31.202
716	 31.0583
712	 30.9203
708	 30.9305
704	 31.1076
700	 31.2949
696	 31.4821
692	 31.5962
688	 31.5375
684	 31.398
680	 31.292
676	 31.1786
672	 30.8636
668	 30.5234
664	 30.356
660	 30.0911
656	 29.7892
652	 29.7209
648	 29.7466
644	 29.7758
640	 29.9709
636	 30.1989
632	 30.2114
628	 30.1235
624	 30.0544
620	 29.9026
616	 29.6
612	 29.2603
608	 29.0119
604	 29.0082
600	 28.9444
596	 28.5177
592	 28.1912
588	 28.2667
584	 28.7173
580	 29.0114
576	 28.8065
572	 28.5071
568	 28.2485
564	 28.0566
560	 28.0286
556	 28.043
552	 27.9786
548	 27.7075
544	 27.0855
540	 26.5848
536	 26.5705
532	 26.6556
528	 26.7522
524	 26.7654
520	 26.6172
516	 26.7834
512	 27.0168
508	 27.0177
504	 27.2663
500	 27.525
496	 27.1237
492	 26.3597
488	 25.9143
484	 25.9758
480	 26.0564
476	 25.3658
472	 24.763
468	 25.1087
464	 25.4675
460	 25.3469
456	 24.7948
452	 24.5055
448	 24.2924
444	 23.4058
440	 23.2271
436	 24.0613
432	 24.1221
428	 22.9029
424	 22.0015
420	 21.4634
416	 20.1389
412	 18.5929
408	 16.7506
404	 16.6449
400	 20.6402
396	 25.8395
392	 24.5555
388	 14.8318
384	 4.270553
380	 -1.490950
376	 12.105
372	 24.7653
370	 23.175