File: Bakgrunnsmateriale/MATLAB/FTIR/ftir_data/LPE453/Mapping_121/LPE453_t57_cm-1.asc
PE IR       SPECTRUM    SPECTRUM    ASCII       PEDS        1.60
  -1
LPE9DA~1.ASC
17/05/16
19:02:14.00
17/05/16
19:02:14.00
tln
$LPE453_t0057$<tbV0>[10.4,0.0,8.0,0.0,27,1,0]
370
64

2002,4.07
MIRTGS : RIGHTBACK : INTERNAL 2
MIR : ON : INTERNAL 2
OPTKBR

0.200000
8
8.000000
FILLER
RATIO
SPECTRUM
UNLOCKED 256

DOUBLE
64
COMBINED
1
0
0

1.000000
RATIO

1
0
TRUE
51149
0
LEFT NOT FITTED RIGHT NOT FITTED 0
NONE
NONE
15600
12
4.427000
51148
TRUE
1 0 8 72 0 0 0 0

15798

#HDR
-1
-1
#GR
CM-1
%T
2.38419e-05
0.0
5000
-1.000000
4631
8
23.3198
-19.2744
#DATA
5000	0.297307
4996	0.287866
4992	0.240468
4988	0.108814
4984	-0.026798
4980	0.016999
4976	0.158333
4972	0.229930
4968	0.162601
4964	-0.030493
4960	-0.196623
4956	-0.142812
4952	0.024032
4948	0.170278
4944	0.287914
4940	0.302004
4936	0.252056
4932	0.062966
4928	-0.192070
4924	-0.240468
4920	-0.151944
4916	-0.052285
4912	0.003671
4908	0.113940
4904	0.205874
4900	0.078630
4896	-0.024485
4892	0.054526
4888	0.219345
4884	0.350809
4880	0.270390
4876	0.022220
4872	-0.034999
4868	0.014185
4864	-0.043463
4860	-0.037646
4856	-0.020146
4852	-0.080728
4848	-0.127887
4844	-0.028920
4840	0.221586
4836	0.401830
4832	0.340223
4828	0.120544
4824	-0.075888
4820	-0.193333
4816	-0.256562
4812	-0.083565
4808	0.306224
4804	0.475096
4800	0.313234
4796	0.006222
4792	-0.066232
4788	0.200581
4784	0.217175
4780	-0.111913
4776	-0.268507
4772	0.033760
4768	0.440740
4764	0.489950
4760	0.298285
4756	0.291824
4752	0.393390
4748	0.404667
4744	0.742411
4740	1.018500
4736	0.731873
4732	0.592923
4728	0.563549
4724	0.280356
4720	0.095677
4716	-0.185680
4712	-0.064802
4708	1.031374
4704	1.607680
4700	0.891184
4696	-0.162076
4692	-0.801253
4688	-0.907707
4684	-1.080918
4680	-1.430153
4676	-1.097035
4672	0.075292
4668	1.409840
4664	2.181601
4660	1.582479
4656	-0.060844
4652	-0.731992
4648	-0.136590
4644	0.167226
4640	0.043916
4636	0.340056
4632	1.010322
4628	1.526260
4624	1.434063
4620	0.879168
4616	0.357198
4612	-0.033879
4608	-0.198149
4604	-0.162315
4600	-0.122880
4596	0.166130
4592	0.744199
4588	1.042079
4584	1.013851
4580	0.673151
4576	0.134539
4572	-0.045990
4568	-0.142908
4564	-0.106120
4560	0.123643
4556	0.411748
4552	0.544476
4548	0.176978
4544	-0.374388
4540	-0.700354
4536	-0.678825
4532	-0.128078
4528	0.319004
4524	-0.058174
4520	-0.192379
4516	0.250720
4512	0.415682
4508	-0.035381
4504	0.048375
4500	1.713299
4496	3.741407
4492	1.346778
4488	1.319265
4484	5.874943
4480	2.215790
4476	-2.785134
4472	-1.958179
4468	-0.396132
4464	0.557756
4460	0.749659
4456	0.245118
4452	-0.143313
4448	0.202488
4444	0.712656
4440	0.888705
4436	0.618481
4432	0.228929
4428	0.209474
4424	0.175261
4420	-0.143885
4416	-0.148510
4412	0.070309
4408	-0.035142
4404	-0.106739
4400	0.022268
4396	-0.117063
4392	-0.245571
4388	0.063061
4384	0.447106
4380	0.469589
4376	0.182151
4372	0.031208
4368	-0.008320
4364	-0.030922
4360	0.267577
4356	0.592637
4352	0.383400
4348	-0.031995
4344	-0.148606
4340	-0.056266
4336	-0.031614
4332	-0.193142
4328	-0.239658
4324	-0.026965
4320	0.271034
4316	0.369381
4312	0.167894
4308	0.149178
4304	0.348806
4300	0.272560
4296	-0.082373
4292	-0.247335
4288	-0.161004
4284	-0.043511
4280	-0.052785
4276	-0.096487
4272	-0.002741
4268	0.174760
4264	0.199246
4260	0.148391
4256	0.159502
4252	0.019550
4248	-0.159716
4244	-0.123882
4240	0.037765
4236	0.113463
4232	0.067973
4228	0.050997
4224	0.210380
4220	0.437092
4216	0.525999
4212	0.535726
4208	0.453448
4204	0.295305
4200	0.288176
4196	0.386691
4192	0.414514
4188	0.218033
4184	-0.084114
4180	-0.192904
4176	-0.164151
4172	-0.063562
4168	0.031685
4164	-0.032305
4160	-0.148391
4156	-0.201416
4152	-0.261282
4148	-0.260949
4144	-0.131535
4140	0.011086
4136	0.139689
4132	0.150394
4128	0.104022
4124	0.101542
4120	0.096440
4116	0.042510
4112	-0.056648
4108	0.006985
4104	0.118160
4100	0.060892
4096	-0.012063
4092	0.032162
4088	0.077867
4084	0.038766
4080	0.027704
4076	0.039505
4072	-0.025320
4068	-0.000143
4064	0.137162
4060	0.119948
4056	0.060987
4052	0.121784
4048	0.178647
4044	0.167369
4040	0.157403
4036	0.187015
4032	0.164651
4028	0.139164
4024	0.194144
4020	0.146698
4016	-0.004172
4012	0.003099
4008	0.104212
4004	0.107574
4000	0.035357
3996	-0.060343
3992	-0.133132
3988	-0.076770
3984	0.016283
3980	-0.065970
3976	-0.191688
3972	-0.188207
3968	-0.109958
3964	-0.027346
3960	-0.037264
3956	0.001358
3952	0.186371
3948	0.264191
3944	0.200867
3940	0.160861
3936	0.156021
3932	0.097250
3928	-0.048732
3924	-0.134325
3920	-0.072908
3916	0.000858
3912	0.030326
3908	0.058150
3904	0.033664
3900	-0.052666
3896	-0.063109
3892	0.031232
3888	0.052118
3884	0.020575
3880	0.028538
3876	-0.030136
3872	-0.102424
3868	-0.085210
3864	-0.016975
3860	0.036334
3856	0.044608
3852	0.094008
3848	0.147461
3844	0.079798
3840	-0.003910
3836	0.002598
3832	0.087714
3828	0.140619
3824	0.090980
3820	0.094389
3816	0.141811
3812	0.092220
3808	-0.002264
3804	-0.065660
3800	-0.019264
3796	0.102019
3792	0.069046
3788	-0.022554
3784	0.059938
3780	0.193119
3776	0.196576
3772	0.107097
3768	0.026226
3764	0.006079
3760	0.056791
3756	0.058102
3752	0.012731
3748	0.039529
3744	0.101613
3740	0.146675
3736	0.197076
3732	0.200343
3728	0.062251
3724	-0.092053
3720	-0.121188
3716	-0.086998
3712	-0.045490
3708	0.004363
3704	0.034618
3700	0.028777
3696	0.040340
3692	0.102949
3688	0.144767
3684	0.126624
3680	0.069308
3676	-0.006651
3672	-0.037574
3668	0.006556
3664	0.081682
3660	0.119757
3656	0.165820
3652	0.213599
3648	0.129699
3644	0.009512
3640	0.011610
3636	0.117015
3632	0.232863
3628	0.179505
3624	0.004768
3620	0.012350
3616	0.136089
3612	0.153994
3608	0.141906
3604	0.180435
3600	0.181579
3596	0.083613
3592	-0.001907
3588	0.005269
3584	0.023889
3580	0.001406
3576	0.008964
3572	0.088429
3568	0.130367
3564	0.135302
3560	0.183510
3556	0.162291
3552	0.039529
3548	-0.019741
3544	0.006866
3540	-0.022125
3536	-0.089693
3532	-0.047540
3528	0.070786
3524	0.141286
3520	0.141620
3516	0.091648
3512	0.025773
3508	0.040364
3504	0.111865
3500	0.093007
3496	0.057625
3492	0.078225
3488	0.070166
3484	0.073242
3480	0.065422
3476	0.004363
3472	-0.050878
3468	-0.093698
3464	-0.045442
3460	0.030970
3456	0.015401
3452	0.001549
3448	0.067877
3444	0.116801
3440	0.085616
3436	0.074672
3432	0.116610
3428	0.094747
3424	0.004696
3420	-0.051856
3416	-0.030589
3412	0.066518
3408	0.131726
3404	0.150156
3400	0.144243
3396	0.105929
3392	0.070071
3388	-0.021028
3384	-0.136017
3380	-0.102901
3376	0.003504
3372	0.024366
3368	0.037074
3364	0.083374
3360	0.095891
3356	0.046157
3352	-0.024175
3348	-0.049257
3344	-0.030875
3340	0.010681
3336	0.044989
3332	0.039696
3328	0.085568
3324	0.185370
3320	0.133681
3316	-0.033235
3312	-0.078248
3308	-0.011062
3304	0.096464
3300	0.152683
3296	0.081133
3292	-0.008440
3288	0.004076
3284	0.084447
3280	0.094676
3276	0.031113
3272	0.005793
3268	0.032663
3264	0.053334
3260	0.053095
3256	0.055646
3252	0.063371
3248	0.059866
3244	0.065040
3240	0.071525
3236	0.036549
3232	-0.015377
3228	0.009059
3224	0.086641
3220	0.030899
3216	-0.109839
3212	-0.131273
3208	-0.057721
3204	0.004506
3200	0.079607
3196	0.177359
3192	0.185918
3188	0.117540
3184	0.078129
3180	0.065588
3176	0.044131
3172	0.025391
3168	0.037026
3164	0.034403
3160	0.003576
3156	0.019860
3152	0.061511
3148	0.103688
3144	0.099897
3140	0.026440
3136	-0.001382
3132	0.076794
3128	0.262355
3124	0.325202
3120	0.174260
3116	0.082373
3112	0.117826
3108	0.150942
3104	0.122261
3100	0.105071
3096	0.078439
3092	-0.026869
3088	-0.066304
3084	-0.000309
3080	0.059461
3076	0.128412
3072	0.207757
3068	0.228142
3064	0.174379
3060	0.108098
3056	0.041770
3052	-0.036549
3048	-0.047183
3044	0.037789
3040	0.127172
3036	0.160503
3032	0.195002
3028	0.237226
3024	0.180292
3020	0.071191
3016	0.033116
3012	0.021409
3008	0.004243
3004	0.003814
3000	0.053858
2996	0.147986
2992	0.169467
2988	0.114822
2984	0.073814
2980	0.045537
2976	0.035977
2972	0.048279
2968	0.034785
2964	-0.011897
2960	-0.031590
2956	-0.013756
2952	0.001621
2948	-0.017237
2944	-0.068521
2940	-0.070476
2936	-0.031113
2932	-0.006079
2928	0.039196
2924	0.061845
2920	0.018024
2916	0.024318
2912	0.079369
2908	0.064396
2904	0.050997
2900	0.120210
2896	0.155448
2892	0.134396
2888	0.125074
2884	0.092029
2880	0.048613
2876	0.025701
2872	0.050640
2868	0.162601
2864	0.272488
2860	0.229430
2856	0.048589
2852	-0.058674
2848	-0.054144
2844	-0.024127
2840	0.073051
2836	0.143694
2832	0.122928
2828	0.110721
2824	0.102376
2820	0.097942
2816	0.139737
2812	0.150132
2808	0.106167
2804	0.079178
2800	0.046753
2796	0.040292
2792	0.068855
2788	0.074219
2784	0.104188
2780	0.118708
2776	0.061583
2772	0.022864
2768	0.027537
2764	-0.005626
2760	-0.066566
2756	-0.055456
2752	-0.011658
2748	-0.035595
2744	-0.074148
2740	-0.052189
2736	0.009036
2732	0.028586
2728	0.015616
2724	0.028133
2720	0.056314
2716	0.082588
2712	0.068306
2708	0.034046
2704	0.026297
2700	0.014543
2696	-0.021791
2692	-0.045704
2688	-0.020337
2684	0.024318
2680	0.040841
2676	0.036311
2672	0.039052
2668	0.071144
2664	0.094676
2660	0.060844
2656	0.028610
2652	0.025629
2648	0.006413
2644	-0.012040
2640	0.016546
2636	0.077033
2632	0.144529
2628	0.190663
2624	0.146412
2620	0.082349
2616	0.096750
2612	0.115108
2608	0.097632
2604	0.093197
2600	0.116252
2596	0.093555
2592	0.016379
2588	-0.023698
2584	-0.011944
2580	0.031638
2576	0.070524
2572	0.034308
2568	-0.022721
2564	0.025844
2560	0.145101
2556	0.210881
2552	0.195026
2548	0.102424
2544	-0.036692
2540	-0.112652
2536	-0.104475
2532	-0.122761
2528	-0.168085
2524	-0.137996
2520	-0.036931
2516	0.047016
2512	0.067448
2508	0.015711
2504	-0.070643
2500	-0.036072
2496	0.141453
2492	0.202989
2488	0.060987
2484	-0.064682
2480	-0.110077
2476	-0.116252
2472	-0.070834
2468	-0.040864
2464	-0.047183
2460	-0.026035
2456	0.026679
2452	0.035953
2448	0.029969
2444	0.095677
2440	0.217533
2436	0.263309
2432	0.160670
2428	0.062251
2424	0.071907
2420	0.113677
2416	0.159049
2412	0.165057
2408	0.082135
2404	-0.037288
2400	-0.057411
2396	-0.023055
2392	-0.011563
2388	0.028300
2384	0.082135
2380	0.059986
2376	-0.016999
2372	-0.056838
2368	-0.062012
2364	-0.024962
2360	0.024032
2356	0.018596
2352	0.020146
2348	0.000762
2344	-0.072050
2340	-0.090479
2336	-0.050806
2332	-0.020337
2328	-0.048518
2324	-0.092029
2320	-0.062608
2316	0.025105
2312	0.073599
2308	0.037574
2304	-0.005197
2300	-0.005817
2296	-0.001573
2292	-0.007414
2288	0.023531
2284	0.087189
2280	0.101256
2276	0.065207
2272	0.056362
2268	0.097465
2264	0.161290
2260	0.208830
2256	0.224065
2252	0.214076
2248	0.184512
2244	0.178384
2240	0.171470
2236	0.180459
2232	0.301146
2228	0.409436
2224	0.415492
2220	0.408482
2216	0.407361
2212	0.470542
2208	0.636172
2204	0.780630
2200	0.837182
2196	0.850582
2192	0.902223
2188	1.020598
2184	1.153254
2180	1.326704
2176	1.498436
2172	1.592803
2168	1.682114
2164	1.809549
2160	1.997876
2156	2.228665
2152	2.390384
2148	2.513313
2144	2.747440
2140	3.057408
2136	3.314900
2132	3.534507
2128	3.770065
2124	4.002976
2120	4.225707
2116	4.495978
2112	4.831957
2108	5.156660
2104	5.427002
2100	5.715227
2096	6.038188
2092	6.312990
2088	6.600093
2084	7.001018
2080	7.397794
2076	7.634305
2072	7.779288
2068	8.026671
2064	8.431816
2060	8.894014
2056	9.288811
2052	9.620523
2048	9.986066
2044	10.332
2040	10.601
2036	10.9183
2032	11.3102
2028	11.6458
2024	11.9506
2020	12.3056
2016	12.6414
2012	12.9574
2008	13.2787
2004	13.5834
2000	13.8838
1996	14.1676
1992	14.4459
1988	14.7383
1984	15.0024
1980	15.218
1976	15.47
1972	15.7907
1968	16.0734
1964	16.2948
1960	16.5414
1956	16.813
1952	17.0661
1948	17.2996
1944	17.5278
1940	17.7949
1936	18.0504
1932	18.1804
1928	18.2944
1924	18.4986
1920	18.7135
1916	18.9149
1912	19.1062
1908	19.2898
1904	19.4378
1900	19.5279
1896	19.6579
1892	19.8585
1888	20.0497
1884	20.2026
1880	20.3335
1876	20.454
1872	20.5511
1868	20.6364
1864	20.7751
1860	20.9552
1856	21.0852
1852	21.1633
1848	21.2402
1844	21.3198
1840	21.4253
1836	21.5476
1832	21.6302
1828	21.6773
1824	21.7122
1820	21.747
1816	21.8301
1812	21.9702
1808	22.0825
1804	22.1295
1800	22.1699
1796	22.2295
1792	22.3078
1788	22.3987
1784	22.4427
1780	22.4433
1776	22.4861
1772	22.5961
1768	22.6728
1764	22.6687
1760	22.6821
1756	22.7366
1752	22.7726
1748	22.8006
1744	22.8569
1740	22.8893
1736	22.8834
1732	22.9028
1728	22.9586
1724	23.027
1720	23.0501
1716	23.0125
1712	22.9908
1708	22.9891
1704	22.9381
1700	22.8986
1696	22.9664
1692	23.0559
1688	23.0774
1684	23.0783
1680	23.0909
1676	23.1348
1672	23.2103
1668	23.2316
1664	23.1889
1660	23.1593
1656	23.161
1652	23.1644
1648	23.1715
1644	23.1794
1640	23.1903
1636	23.2537
1632	23.2967
1628	23.2444
1624	23.1955
1620	23.19
1616	23.2111
1612	23.2667
1608	23.3082
1604	23.3198
1600	23.2944
1596	23.2309
1592	23.1843
1588	23.1692
1584	23.1605
1580	23.1672
1576	23.1977
1572	23.211
1568	23.1812
1564	23.1404
1560	23.1478
1556	23.1676
1552	23.176
1548	23.2222
1544	23.2492
1540	23.2408
1536	23.26
1532	23.2919
1528	23.2738
1524	23.1925
1520	23.1198
1516	23.0948
1512	23.1122
1508	23.158
1504	23.1801
1500	23.1617
1496	23.1531
1492	23.1824
1488	23.2124
1484	23.2059
1480	23.1652
1476	23.0959
1472	23.0441
1468	23.0525
1464	23.0606
1460	23.0558
1456	23.052
1452	23.016
1448	23.0286
1444	23.11
1440	23.1239
1436	23.0339
1432	22.911
1428	22.8571
1424	22.9324
1420	23.0137
1416	23.0248
1412	23.0062
1408	22.9279
1404	22.8629
1400	22.8791
1396	22.8358
1392	22.7416
1388	22.7545
1384	22.7989
1380	22.79
1376	22.8343
1372	22.8782
1368	22.7998
1364	22.6805
1360	22.6052
1356	22.5782
1352	22.6175
1348	22.6895
1344	22.7381
1340	22.7517
1336	22.7257
1332	22.6988
1328	22.6775
1324	22.6379
1320	22.6175
1316	22.6184
1312	22.634
1308	22.6145
1304	22.5408
1300	22.5508
1296	22.6129
1292	22.5761
1288	22.5041
1284	22.4461
1280	22.3701
1276	22.3324
1272	22.3363
1268	22.3695
1264	22.4295
1260	22.4505
1256	22.4411
1252	22.4342
1248	22.4
1244	22.3335
1240	22.2638
1236	22.2112
1232	22.2126
1228	22.2258
1224	22.1891
1220	22.1592
1216	22.1239
1212	22.0792
1208	22.1023
1204	22.1275
1200	22.0851
1196	22.0532
1192	22.0673
1188	22.0925
1184	22.0885
1180	22.0418
1176	21.9779
1172	21.9499
1168	21.9358
1164	21.929
1160	21.9249
1156	21.9188
1152	21.9359
1148	21.9118
1144	21.8193
1140	21.7317
1136	21.7188
1132	21.7086
1128	21.6181
1124	21.5337
1120	21.5322
1116	21.5734
1112	21.5361
1108	21.4234
1104	21.3772
1100	21.3503
1096	21.251
1092	21.2193
1088	21.2707
1084	21.2758
1080	21.3242
1076	21.4204
1072	21.358
1068	21.2131
1064	21.1757
1060	21.1891
1056	21.1161
1052	20.977
1048	20.9213
1044	20.9389
1040	20.9378
1036	20.9326
1032	20.9284
1028	20.8632
1024	20.7976
1020	20.8228
1016	20.8134
1012	20.7148
1008	20.6848
1004	20.7296
1000	20.7315
996	 20.7336
992	 20.7605
988	 20.724
984	 20.6599
980	 20.5762
976	 20.4314
972	 20.3279
968	 20.2613
964	 20.1955
960	 20.1511
956	 20.1285
952	 20.1457
948	 20.1705
944	 20.0877
940	 19.8633
936	 19.7026
932	 19.7098
928	 19.7602
924	 19.7546
920	 19.714
916	 19.6501
912	 19.5232
908	 19.3673
904	 19.2379
900	 19.1722
896	 19.1516
892	 19.1093
888	 19.0823
884	 19.115
880	 19.1109
876	 19.0332
872	 18.9188
868	 18.8533
864	 18.9021
860	 18.9023
856	 18.7675
852	 18.6213
848	 18.5292
844	 18.5163
840	 18.5601
836	 18.5719
832	 18.4874
828	 18.2138
824	 17.8706
820	 17.7907
816	 17.8795
812	 17.908
808	 17.9176
804	 17.8607
800	 17.6864
796	 17.5673
792	 17.5979
788	 17.5827
784	 17.4403
780	 17.3692
776	 17.4021
772	 17.3233
768	 17.1104
764	 16.9762
760	 16.9465
756	 16.9544
752	 17.0546
748	 17.0419
744	 16.754
740	 16.4945
736	 16.3917
732	 16.3792
728	 16.4557
724	 16.5319
720	 16.5796
716	 16.5622
712	 16.3937
708	 16.1451
704	 16.063
700	 16.1078
696	 15.9863
692	 15.7858
688	 15.5706
684	 15.3964
680	 15.4791
676	 15.5034
672	 15.2344
668	 15.0586
664	 15.101
660	 15.0751
656	 14.9487
652	 14.8662
648	 14.8019
644	 14.8178
640	 14.8978
636	 14.7331
632	 14.286
628	 13.8092
624	 13.5687
620	 13.6577
616	 13.8207
612	 13.7962
608	 13.6304
604	 13.5702
600	 13.7166
596	 13.7449
592	 13.5251
588	 13.2985
584	 13.0563
580	 12.861
576	 12.8294
572	 12.9387
568	 13.043
564	 12.9224
560	 12.6967
556	 12.483
552	 12.2658
548	 11.9944
544	 11.7314
540	 11.6504
536	 11.7467
532	 11.8277
528	 11.7319
524	 11.708
520	 11.704
516	 11.5746
512	 11.6364
508	 11.6556
504	 11.2143
500	 10.6367
496	 10.5458
492	 11.0472
488	 11.3238
484	 10.9881
480	 10.2862
476	 9.423017
472	 9.149360
468	 9.639525
464	 10.0336
460	 9.954786
456	 9.836649
452	 9.284591
448	 7.995009
444	 7.184028
440	 7.431864
436	 7.620716
432	 6.418371
428	 5.500268
424	 7.048177
420	 8.983516
416	 8.013820
412	 5.443835
408	 4.403781
404	 5.257177
400	 6.606841
396	 7.654809
392	 7.863616
388	 2.261209
384	 -7.113051
380	 -2.932071
376	 0.131392
372	 -16.5646
370	 -19.2744