File: Bakgrunnsmateriale/MATLAB/FTIR/ftir_data/LPE453/Mapping_121/LPE453_t17_cm-1.asc
PE IR       SPECTRUM    SPECTRUM    ASCII       PEDS        1.60
  -1
LPE7DA~1.ASC
17/05/16
15:42:27.00
17/05/16
15:42:27.00
tln
$LPE453_t0017$<tbV0>[0.0,-10.4,8.0,0.0,27,1,0]
370
64

2002,4.07
MIRTGS : RIGHTBACK : INTERNAL 2
MIR : ON : INTERNAL 2
OPTKBR

0.200000
8
8.000000
FILLER
RATIO
SPECTRUM
UNLOCKED 256

DOUBLE
64
COMBINED
1
0
0

1.000000
RATIO

1
0
TRUE
51149
0
LEFT NOT FITTED RIGHT NOT FITTED 0
NONE
NONE
15600
12
4.427000
51148
TRUE
1 0 8 72 0 0 0 0

15798

#HDR
-1
-1
#GR
CM-1
%T
2.38419e-05
0.0
5000
-1.000000
4631
8
36.3254
-7.518148
#DATA
5000	-0.100755
4996	-0.071024
4992	-0.147485
4988	-0.116801
4984	-0.073289
4980	-0.164890
4976	-0.329661
4972	-0.419020
4968	-0.271677
4964	-0.045633
4960	0.190854
4956	0.492238
4952	0.560975
4948	0.510454
4944	0.429868
4940	0.230789
4936	0.147438
4932	0.085139
4928	0.047779
4924	0.080823
4920	0.115132
4916	0.187516
4912	0.169539
4908	0.197529
4904	0.503730
4900	0.684356
4896	0.486421
4892	0.490832
4888	0.781011
4884	0.741267
4880	0.414252
4876	0.177168
4872	0.022792
4868	0.040268
4864	0.093793
4860	0.006556
4856	0.074672
4852	0.181078
4848	-0.023746
4844	-0.225353
4840	-0.108075
4836	0.102877
4832	0.207304
4828	0.229215
4824	0.047183
4820	-0.131154
4816	0.079417
4812	0.332093
4808	0.242447
4804	0.096130
4800	0.075793
4796	0.015878
4792	-0.102996
4788	-0.107717
4784	-0.027537
4780	-0.033783
4776	-0.112748
4772	-0.236058
4768	-0.217461
4764	-0.075387
4760	-0.058031
4756	-0.115346
4752	-0.104761
4748	0.050878
4744	0.247120
4740	0.332164
4736	0.197219
4732	-0.050687
4728	-0.163245
4724	-0.103831
4720	0.125598
4716	0.350069
4712	0.391244
4708	0.374722
4704	0.149464
4700	-0.215911
4696	-0.117826
4692	0.291442
4688	0.430655
4684	0.252270
4680	0.137209
4676	0.340676
4672	0.536465
4668	0.435137
4664	0.214290
4660	0.060749
4656	0.007915
4652	0.048232
4648	0.224280
4644	0.612115
4640	0.980091
4636	0.956726
4632	0.682568
4628	0.534486
4624	0.368881
4620	-0.032377
4616	-0.397348
4612	-0.385499
4608	0.018739
4604	0.493264
4600	0.580382
4596	0.367927
4592	0.216555
4588	0.174641
4584	0.114870
4580	0.181603
4576	0.660896
4572	0.713586
4568	-0.315022
4564	-0.902152
4560	-0.496268
4556	-0.063228
4552	0.277256
4548	0.336909
4544	0.286889
4540	-0.091004
4536	-0.946378
4532	-1.231765
4528	-0.135493
4524	1.321649
4520	11.5168
4516	22.4117
4512	8.573865
4508	-7.032942
4504	-3.941655
4500	-0.672698
4496	-0.337147
4492	0.460386
4488	0.355529
4484	-0.102400
4480	-0.364494
4476	-0.554895
4472	-0.867676
4468	-0.625824
4464	-0.362443
4460	-0.043582
4456	0.362420
4452	0.203466
4448	0.039935
4444	0.316643
4440	0.465059
4436	0.400424
4432	0.409317
4428	0.418710
4424	0.356626
4420	0.401878
4416	0.562906
4412	0.572824
4408	0.515365
4404	0.450420
4400	0.346326
4396	0.339794
4392	0.350880
4388	0.280880
4384	0.168943
4380	0.181841
4376	0.284457
4372	0.343227
4368	0.308322
4364	0.183320
4360	0.074172
4356	0.093746
4352	0.279378
4348	0.450778
4344	0.423383
4340	0.235009
4336	0.142264
4332	0.243473
4328	0.267124
4324	0.174593
4320	0.092124
4316	-0.030088
4312	-0.003671
4308	0.112628
4304	0.023221
4300	-0.099515
4296	-0.163292
4292	-0.150060
4288	-0.107312
4284	-0.005245
4280	0.109601
4276	0.029349
4272	-0.085330
4268	0.030374
4264	0.202155
4260	0.203657
4256	0.182938
4252	0.178003
4248	0.132083
4244	0.162315
4240	0.146269
4236	0.074505
4232	0.100016
4228	0.085878
4224	0.073504
4220	0.214242
4216	0.264692
4212	0.146865
4208	0.136470
4204	0.298094
4200	0.523042
4196	0.729441
4192	0.947666
4188	1.041555
4184	0.612115
4180	0.079941
4176	0.002717
4172	0.114369
4168	0.220966
4164	0.174736
4160	-0.094771
4156	-0.328850
4152	-0.316882
4148	-0.192785
4144	-0.105309
4140	0.050210
4136	0.175142
4132	0.066661
4128	0.005078
4124	0.073266
4120	0.040650
4116	-0.038099
4112	-0.066614
4108	0.037193
4104	0.086617
4100	0.010752
4096	0.041055
4092	0.114202
4088	0.086498
4084	0.070714
4080	0.157761
4076	0.229883
4072	0.240564
4068	0.181937
4064	0.130677
4060	0.106954
4056	0.032544
4052	-0.049924
4048	-0.007677
4044	0.107860
4040	0.162100
4036	0.157070
4032	0.097656
4028	0.014567
4024	0.039529
4020	0.103235
4016	0.096035
4012	0.099062
4008	0.152015
4004	0.197935
4000	0.185036
3996	0.102639
3992	0.035309
3988	0.054287
3984	0.077939
3980	0.116848
3976	0.193214
3972	0.161385
3968	0.085306
3964	0.119471
3960	0.142216
3956	0.066685
3952	-0.019574
3948	-0.052022
3944	-0.057697
3940	-0.050354
3936	0.034594
3932	0.135850
3928	0.138878
3924	0.100851
3920	0.037837
3916	-0.036597
3912	0.070714
3908	0.198030
3904	0.056457
3900	-0.097274
3896	-0.070357
3892	-0.010156
3888	0.018739
3884	0.061869
3880	-0.001263
3876	-0.138688
3872	-0.070548
3868	0.075745
3864	0.143074
3860	0.177407
3856	0.133609
3852	0.087833
3848	0.052833
3844	-0.033044
3840	-0.069737
3836	-0.007104
3832	0.059366
3828	0.106048
3824	0.197219
3820	0.313854
3816	0.407052
3812	0.340843
3808	0.162982
3804	0.157976
3800	0.238275
3796	0.187706
3792	0.128102
3788	0.161933
3784	0.184226
3780	0.171661
3776	0.125861
3772	-0.016570
3768	-0.121116
3764	-0.069642
3760	-0.039172
3756	-0.120472
3752	-0.167417
3748	-0.131726
3744	-0.109124
3740	-0.075221
3736	0.040006
3732	0.133395
3728	0.159597
3724	0.181388
3720	0.172996
3716	0.130343
3712	0.092482
3708	0.069570
3704	0.038886
3700	-0.004386
3696	0.070047
3692	0.167346
3688	0.057959
3684	-0.046062
3680	0.032567
3676	0.091552
3672	0.036144
3668	0.025224
3664	0.086712
3660	0.129032
3656	0.076150
3652	-0.042223
3648	-0.041460
3644	0.047755
3640	0.136637
3636	0.192856
3632	0.192165
3628	0.190019
3624	0.211691
3620	0.243210
3616	0.237536
3612	0.201582
3608	0.099086
3604	-0.030899
3600	-0.072908
3596	-0.069475
3592	-0.074458
3588	-0.097894
3584	-0.101304
3580	0.002813
3576	0.105381
3572	0.056242
3568	-0.040483
3564	-0.015544
3560	0.144886
3556	0.319933
3552	0.326848
3548	0.123596
3544	-0.073933
3540	-0.125861
3536	-0.054121
3532	0.050663
3528	0.094938
3524	0.134062
3520	0.191259
3516	0.162076
3512	0.073266
3508	0.017857
3504	0.001358
3500	0.010299
3496	-0.027561
3492	-0.103139
3488	-0.089955
3484	0.025248
3480	0.124454
3476	0.121259
3472	0.095582
3468	0.097775
3464	0.112390
3460	0.142908
3456	0.118684
3452	0.072574
3448	0.054121
3444	0.049042
3440	0.055313
3436	0.018835
3432	-0.093579
3428	-0.114941
3424	-0.014853
3420	-0.022983
3416	-0.076580
3412	-0.038743
3408	-0.006556
3404	-0.019550
3400	-0.064849
3396	-0.081133
3392	-0.036382
3388	-0.018501
3384	-0.085592
3380	-0.140190
3376	-0.116443
3372	-0.049471
3368	0.046133
3364	0.111293
3360	0.151729
3356	0.209283
3352	0.246548
3348	0.255298
3344	0.182032
3340	0.109910
3336	0.118064
3332	0.089764
3328	0.031447
3324	-0.011515
3320	-0.041794
3316	0.020813
3312	0.120759
3308	0.107264
3304	0.068688
3300	0.071001
3296	0.075602
3292	0.108671
3288	0.096392
3284	0.021028
3280	0.014090
3276	0.067591
3272	0.103569
3268	0.078177
3264	-0.010585
3260	-0.041985
3256	0.038051
3252	0.099968
3248	0.060939
3244	-0.007104
3240	-0.045609
3236	-0.065279
3232	-0.001668
3228	0.138258
3224	0.200057
3220	0.179672
3216	0.166845
3212	0.139975
3208	0.105595
3204	0.090146
3200	0.016880
3196	-0.095629
3192	-0.140881
3188	-0.066685
3184	0.033807
3180	0.099229
3176	0.197720
3172	0.241160
3168	0.185966
3164	0.081443
3160	-0.024104
3156	-0.003194
3152	0.067377
3148	0.076961
3144	0.136947
3140	0.271058
3136	0.348305
3132	0.243496
3128	0.060629
3124	-0.084090
3120	-0.160336
3116	0.022435
3112	0.250530
3108	0.234961
3104	0.120162
3100	-0.045633
3096	-0.161266
3092	-0.114822
3088	-0.072407
3084	-0.100302
3080	-0.099921
3076	-0.067234
3072	-0.058507
3068	-0.059866
3064	-0.036263
3060	-0.004386
3056	0.022792
3052	0.046586
3048	0.094199
3044	0.135588
3040	0.141358
3036	0.149559
3032	0.103306
3028	0.021100
3024	-0.021338
3020	-0.041961
3016	-0.022816
3012	-0.004076
3008	-0.029921
3004	-0.021791
3000	0.018787
2996	0.018787
2992	0.020575
2988	0.035786
2984	0.007438
2980	-0.034666
2976	-0.019264
2972	0.042510
2968	0.098490
2964	0.137972
2960	0.133228
2956	0.082778
2952	0.062656
2948	0.103187
2944	0.145125
2940	0.124096
2936	0.027680
2932	-0.054979
2928	-0.024962
2924	0.021624
2920	0.011754
2916	0.026869
2912	0.045633
2908	0.070071
2904	0.122332
2900	0.086116
2896	-0.004768
2892	-0.027751
2888	-0.002026
2884	0.039482
2880	0.051093
2876	0.020909
2872	-0.009846
2868	-0.047731
2864	-0.050830
2860	0.086903
2856	0.282454
2852	0.284123
2848	0.145173
2844	0.085759
2840	0.064706
2836	0.078392
2832	0.132679
2828	0.100922
2824	0.032472
2820	0.011825
2816	0.006961
2812	-0.013041
2808	0.017452
2804	0.103926
2800	0.124287
2796	0.113201
2792	0.152373
2788	0.181031
2784	0.137543
2780	0.073122
2776	0.021076
2772	-0.045800
2768	-0.076150
2764	-0.023841
2760	0.022792
2756	0.005531
2752	-0.011897
2748	-0.003480
2744	0.022220
2740	0.039076
2736	0.006747
2732	-0.032782
2728	-0.017905
2724	0.028276
2720	0.045132
2716	0.041532
2712	0.034904
2708	0.033521
2704	0.069403
2700	0.086379
2696	0.035071
2692	0.021624
2688	0.060868
2684	0.026011
2680	-0.046157
2676	-0.039386
2672	0.020670
2668	0.026345
2664	-0.010848
2660	-0.017571
2656	0.002431
2652	0.009202
2648	-0.012588
2644	-0.064039
2640	-0.146293
2636	-0.199723
2632	-0.160360
2628	-0.065636
2624	0.013351
2620	0.070238
2616	0.063753
2612	-0.018835
2608	-0.024008
2604	0.071239
2600	0.085401
2596	0.042629
2592	0.066232
2588	0.086975
2584	0.087881
2580	0.119233
2576	0.141191
2572	0.125622
2568	0.097727
2564	0.108957
2560	0.153470
2556	0.136733
2552	0.087261
2548	0.073933
2544	0.057506
2540	0.045561
2536	0.063228
2532	0.074505
2528	0.090026
2524	0.147914
2520	0.196552
2516	0.144720
2512	0.045323
2508	-0.029039
2504	-0.130724
2500	-0.232815
2496	-0.227570
2492	-0.102138
2488	0.026011
2484	0.025415
2480	-0.064373
2476	-0.098919
2472	-0.090503
2468	-0.085663
2464	-0.038599
2460	0.037240
2456	0.074362
2452	0.057220
2448	0.020384
2444	-0.023794
2440	-0.068402
2436	-0.046753
2432	-0.000762
2428	-0.050401
2424	-0.018739
2420	0.047993
2416	-0.028276
2412	0.012207
2408	0.113797
2404	0.099992
2400	0.096201
2396	0.072288
2392	0.057053
2388	0.099921
2384	0.089311
2380	0.048065
2376	0.059294
2372	0.064468
2368	0.071978
2364	0.091314
2360	0.062251
2356	0.003552
2352	-0.017809
2348	0.037384
2344	0.089597
2340	0.095772
2336	0.083589
2332	0.082492
2328	0.135159
2324	0.170230
2320	0.136995
2316	0.129652
2312	0.194787
2308	0.274562
2304	0.306677
2300	0.271940
2296	0.251936
2292	0.294113
2288	0.338721
2284	0.375294
2280	0.412559
2276	0.452685
2272	0.500464
2268	0.549769
2264	0.630474
2260	0.732517
2256	0.811696
2252	0.890874
2248	1.033687
2244	1.233410
2240	1.408433
2236	1.533770
2232	1.625728
2228	1.714015
2224	1.850700
2220	2.032518
2216	2.218627
2212	2.414679
2208	2.597999
2204	2.770376
2200	3.014850
2196	3.298616
2192	3.511095
2188	3.700566
2184	3.998517
2180	4.345059
2176	4.643297
2172	4.934144
2168	5.239510
2164	5.578589
2160	5.942201
2156	6.275510
2152	6.610584
2148	6.988525
2144	7.416343
2140	7.933521
2136	8.478832
2132	8.933997
2128	9.327602
2124	9.768795
2120	10.2381
2116	10.6756
2112	11.1381
2108	11.632
2104	12.1305
2100	12.611
2096	13.0704
2092	13.5582
2088	14.0711
2084	14.6204
2080	15.0907
2076	15.3443
2072	15.6853
2068	16.24
2064	16.6788
2060	17.0881
2056	17.6548
2052	18.2214
2048	18.6889
2044	19.0345
2040	19.3483
2036	19.7541
2032	20.2179
2028	20.697
2024	21.1261
2020	21.4654
2016	21.8056
2012	22.156
2008	22.4621
2004	22.7833
2000	23.1526
1996	23.5054
1992	23.8143
1988	24.0958
1984	24.3916
1980	24.7148
1976	25.0142
1972	25.31
1968	25.6548
1964	25.9334
1960	26.1015
1956	26.3284
1952	26.5979
1948	26.812
1944	27.0203
1940	27.2213
1936	27.4017
1932	27.5856
1928	27.7837
1924	28.0082
1920	28.2017
1916	28.3589
1912	28.558
1908	28.7812
1904	28.9543
1900	29.0704
1896	29.1813
1892	29.31
1888	29.4222
1884	29.5157
1880	29.6249
1876	29.7874
1872	29.9974
1868	30.1459
1864	30.2212
1860	30.2697
1856	30.2993
1852	30.3891
1848	30.5383
1844	30.6721
1840	30.7719
1836	30.8599
1832	30.9541
1828	31.0088
1824	30.9958
1820	30.9977
1816	31.0853
1812	31.2304
1808	31.3898
1804	31.4922
1800	31.5201
1796	31.5464
1792	31.5593
1788	31.5857
1784	31.6801
1780	31.7865
1776	31.8785
1772	31.9382
1768	31.9036
1764	31.8082
1760	31.7773
1756	31.8508
1752	31.9739
1748	32.0776
1744	32.106
1740	32.1285
1736	32.2355
1732	32.2697
1728	32.1662
1724	32.1565
1720	32.2484
1716	32.2408
1712	32.1924
1708	32.2165
1704	32.3458
1700	32.4987
1696	32.4547
1692	32.3428
1688	32.407
1684	32.5195
1680	32.5085
1676	32.4674
1672	32.428
1668	32.3375
1664	32.3086
1660	32.4296
1656	32.6682
1652	32.7837
1648	32.6616
1644	32.5463
1640	32.5577
1636	32.5784
1632	32.532
1628	32.4969
1624	32.4992
1620	32.535
1616	32.5657
1612	32.5116
1608	32.4579
1604	32.4695
1600	32.4986
1596	32.5217
1592	32.5186
1588	32.4727
1584	32.4562
1580	32.5183
1576	32.6069
1572	32.6424
1568	32.6058
1564	32.6416
1560	32.764
1556	32.7402
1552	32.5695
1548	32.5172
1544	32.6831
1540	32.7726
1536	32.6506
1532	32.5495
1528	32.5696
1524	32.6702
1520	32.712
1516	32.6324
1512	32.6181
1508	32.6823
1504	32.6135
1500	32.482
1496	32.4656
1492	32.4906
1488	32.4593
1484	32.4139
1480	32.4147
1476	32.4773
1472	32.5521
1468	32.5708
1464	32.6302
1460	32.75
1456	32.6641
1452	32.4
1448	32.2006
1444	32.1696
1440	32.3753
1436	32.4949
1432	32.3451
1428	32.2804
1424	32.3515
1420	32.3426
1416	32.2808
1412	32.2322
1408	32.1523
1404	32.0689
1400	32.0719
1396	32.1703
1392	32.2561
1388	32.2469
1384	32.226
1380	32.2554
1376	32.2296
1372	32.1892
1368	32.2552
1364	32.3122
1360	32.2642
1356	32.1805
1352	32.1073
1348	32.0482
1344	32.0249
1340	32.0235
1336	32.0266
1332	32.0892
1328	32.1846
1324	32.1739
1320	32.0613
1316	32.0201
1312	32.0925
1308	32.1706
1304	32.2013
1300	32.1531
1296	32.0576
1292	32.0235
1288	32.0369
1284	32.0551
1280	32.0848
1276	32.0584
1272	31.9732
1268	31.9328
1264	31.9785
1260	31.983
1256	31.9199
1252	31.9204
1248	31.9518
1244	31.9565
1240	31.9614
1236	31.9537
1232	31.9578
1228	31.9841
1224	32.0123
1220	32.0651
1216	32.0482
1212	31.93
1208	31.8371
1204	31.8437
1200	31.9718
1196	32.0875
1192	32.0737
1188	31.9998
1184	31.9269
1180	31.8542
1176	31.7618
1172	31.6782
1168	31.6694
1164	31.7464
1160	31.7807
1156	31.7337
1152	31.7517
1148	31.7921
1144	31.771
1140	31.7564
1136	31.7363
1132	31.6928
1128	31.6849
1124	31.7085
1120	31.6787
1116	31.5939
1112	31.584
1108	31.6773
1104	31.6041
1100	31.4004
1096	31.3432
1092	31.3822
1088	31.5816
1084	31.7568
1080	31.6887
1076	31.5736
1072	31.4255
1068	31.2583
1064	31.1463
1060	31.0742
1056	31.0576
1052	31.0441
1048	31.028
1044	31.0002
1040	30.9811
1036	31.0646
1032	31.2058
1028	31.1966
1024	30.9708
1020	30.9209
1016	30.9771
1012	30.7466
1008	30.6617
1004	30.9212
1000	31.049
996	 30.9039
992	 30.7425
988	 30.7014
984	 30.6863
980	 30.7377
976	 30.854
972	 30.907
968	 30.9367
964	 30.8839
960	 30.7045
956	 30.6396
952	 30.6942
948	 30.6167
944	 30.437
940	 30.402
936	 30.4695
932	 30.4348
928	 30.3873
924	 30.4842
920	 30.5933
916	 30.5048
912	 30.3235
908	 30.1959
904	 30.0298
900	 29.902
896	 29.8965
892	 29.8992
888	 29.9521
884	 30.0675
880	 30.1296
876	 30.0405
872	 29.8174
868	 29.7008
864	 29.741
860	 29.7582
856	 29.6811
852	 29.5622
848	 29.4394
844	 29.2977
840	 29.1641
836	 29.0825
832	 29.1048
828	 29.1726
824	 29.2632
820	 29.3199
816	 29.2303
812	 29.1111
808	 29.0162
804	 28.9775
800	 28.9673
796	 28.9102
792	 28.7786
788	 28.5774
784	 28.3904
780	 28.34
776	 28.4873
772	 28.6186
768	 28.5953
764	 28.5606
760	 28.5305
756	 28.3907
752	 28.0853
748	 27.6625
744	 27.3991
740	 27.5012
736	 27.6137
732	 27.514
728	 27.5424
724	 27.804
720	 28.0712
716	 28.0389
712	 27.6846
708	 27.4505
704	 27.3762
700	 27.1964
696	 27.0317
692	 26.9367
688	 26.8887
684	 26.9198
680	 26.8878
676	 26.7422
672	 26.5721
668	 26.5268
664	 26.5891
660	 26.5966
656	 26.638
652	 26.6412
648	 26.434
644	 26.2691
640	 26.2465
636	 25.9951
632	 25.5216
628	 25.3282
624	 25.4538
620	 25.6464
616	 25.8038
612	 25.788
608	 25.7847
604	 25.8866
600	 25.7073
596	 25.3247
592	 25.0406
588	 24.7481
584	 24.4292
580	 24.2994
576	 24.4514
572	 24.6719
568	 24.6746
564	 24.4862
560	 24.4399
556	 24.4943
552	 24.2594
548	 24.0516
544	 23.9442
540	 23.5875
536	 23.2718
532	 23.1341
528	 23.1754
524	 23.3818
520	 23.3985
516	 22.9798
512	 22.4851
508	 22.3356
504	 22.3501
500	 22.4238
496	 22.4882
492	 22.2788
488	 21.8926
484	 21.6199
480	 21.4822
476	 21.4969
472	 21.5843
468	 21.8389
464	 22.1809
460	 22.0315
456	 21.721
452	 21.1415
448	 20.4594
444	 20.5915
440	 21.2736
436	 21.8582
432	 20.703
428	 17.7604
424	 17.1177
420	 18.8162
416	 19.8214
412	 19.0294
408	 13.207
404	 7.000207
400	 5.171966
396	 0.935363
392	 -1.731610
388	 9.652900
384	 30.9926
380	 33.755
376	 15.5846
372	 1.490020
370	 -1.677393