File: Bakgrunnsmateriale/MATLAB/FTIR/ftir_data/LPE453/Mapping_121/LPE453_t49_cm-1.asc
PE IR       SPECTRUM    SPECTRUM    ASCII       PEDS        1.60
  -1
LP69D9~1.ASC
17/05/16
18:24:43.00
17/05/16
18:24:43.00
tln
$LPE453_t0049$<tbV0>[2.6,-2.6,8.0,0.0,27,1,0]
370
64

2002,4.07
MIRTGS : RIGHTBACK : INTERNAL 2
MIR : ON : INTERNAL 2
OPTKBR

0.200000
8
8.000000
FILLER
RATIO
SPECTRUM
UNLOCKED 256

DOUBLE
64
COMBINED
1
0
0

1.000000
RATIO

1
0
TRUE
51149
0
LEFT NOT FITTED RIGHT NOT FITTED 0
NONE
NONE
15600
12
4.427000
51148
TRUE
1 0 8 72 0 0 0 0

15798

#HDR
-1
-1
#GR
CM-1
%T
2.38419e-05
0.0
5000
-1.000000
4631
8
24.6228
-5.902576
#DATA
5000	0.247406
4996	0.005292
4992	-0.081753
4988	-0.100994
4984	0.090241
4980	0.233125
4976	0.046896
4972	-0.169944
4968	-0.069808
4964	0.354599
4960	0.762915
4956	0.702667
4952	0.288057
4948	0.037646
4944	-0.003886
4940	-0.040340
4936	0.129842
4932	0.484204
4928	0.561141
4924	0.301933
4920	0.023269
4916	-0.088477
4912	-0.081706
4908	-0.004100
4904	0.101661
4900	0.055575
4896	-0.053143
4892	-0.006890
4888	0.195431
4884	0.430750
4880	0.614929
4876	0.730872
4872	0.510287
4868	-0.015115
4864	-0.167536
4860	-0.005054
4856	0.037360
4852	0.250697
4848	0.507950
4844	0.523900
4840	0.475287
4836	0.345087
4832	0.075793
4828	-0.163102
4824	-0.210928
4820	-0.161075
4816	-0.034976
4812	0.154089
4808	0.248718
4804	0.177788
4800	-0.082159
4796	-0.340390
4792	-0.322151
4788	-0.085067
4784	0.022649
4780	-0.078463
4776	-0.068998
4772	0.142407
4768	0.248217
4764	0.154495
4760	-0.002121
4756	-0.129175
4752	-0.099301
4748	-0.054144
4744	-0.202465
4740	-0.313162
4736	-0.202059
4732	-0.065851
4728	-0.099802
4724	-0.196480
4720	-0.202798
4716	-0.119662
4712	-0.000953
4708	0.060772
4704	0.105810
4700	0.230312
4696	0.266289
4692	0.113081
4688	-0.023722
4684	0.071239
4680	0.366878
4676	0.506567
4672	0.367236
4668	0.196599
4664	0.044345
4660	-0.087714
4656	0.007319
4652	0.287342
4648	0.468063
4644	0.565791
4640	0.528264
4636	0.283908
4632	0.142669
4628	0.097537
4624	0.049376
4620	0.161790
4616	0.326275
4612	0.537204
4608	0.514912
4604	0.286698
4600	0.374102
4596	0.323987
4592	-0.068259
4588	0.041818
4584	0.400280
4580	0.181055
4576	-0.649285
4572	-0.970149
4568	-0.339055
4564	0.115704
4560	0.450825
4556	0.864005
4552	0.444602
4548	-0.604653
4544	-0.875520
4540	-0.410676
4536	-0.039458
4532	-0.569224
4528	-1.975226
4524	-1.414275
4520	4.250955
4516	10.5122
4512	8.860182
4508	4.014730
4504	1.018071
4500	-0.717234
4496	-0.743603
4492	0.156092
4488	0.192737
4484	0.110840
4480	0.443601
4476	0.546932
4472	0.135469
4468	-0.105476
4464	-0.216364
4460	-0.510835
4456	-0.708913
4452	-0.435900
4448	0.059771
4444	0.162363
4440	-0.173163
4436	-0.355148
4432	-0.182676
4428	-0.019383
4424	0.023865
4420	-0.043892
4416	-0.124835
4412	-0.016045
4408	0.101232
4404	0.167965
4400	0.229096
4396	0.208044
4392	0.196599
4388	0.178360
4384	0.200128
4380	0.235080
4376	0.147986
4372	0.051379
4368	0.036001
4364	0.095629
4360	0.223159
4356	0.323224
4352	0.381875
4348	0.358510
4344	0.133895
4340	-0.043463
4336	0.031399
4332	0.177359
4328	0.219202
4324	0.126647
4320	0.032472
4316	0.068736
4312	0.173163
4308	0.244998
4304	0.183510
4300	0.013613
4296	-0.069475
4292	-0.041937
4288	-0.086379
4284	-0.083398
4280	0.094914
4276	0.129771
4272	0.028157
4268	0.042295
4264	0.025677
4260	-0.047397
4256	-0.072407
4252	-0.124740
4248	-0.171637
4244	-0.084233
4240	0.037693
4236	0.104331
4232	0.140571
4228	0.128793
4224	0.137233
4220	0.183773
4216	0.316905
4212	0.432538
4208	0.300836
4204	0.198197
4200	0.398921
4196	0.491905
4192	0.213909
4188	-0.138068
4184	-0.224733
4180	-0.081133
4176	-0.013399
4172	0.134229
4168	0.406146
4164	0.376081
4160	0.234317
4156	0.276303
4152	0.274562
4148	0.196528
4144	0.160002
4140	0.163435
4136	0.195622
4132	0.230264
4128	0.164127
4124	-0.000166
4120	0.006651
4116	0.198864
4112	0.238204
4108	0.099992
4104	0.047731
4100	0.049853
4096	-0.023746
4092	-0.070095
4088	-0.015544
4084	0.028157
4080	-0.056076
4076	-0.157237
4072	-0.130105
4068	-0.017309
4064	0.072264
4060	0.030899
4056	-0.043511
4052	-0.025534
4048	0.024676
4044	0.140428
4040	0.275373
4036	0.277876
4032	0.194191
4028	0.137138
4024	0.026226
4020	-0.052142
4016	0.001144
4012	-0.010013
4008	-0.017452
4004	0.017380
4000	-0.008988
3996	0.027203
3992	0.106024
3988	0.059461
3984	0.019693
3980	0.108861
3976	0.220751
3972	0.167369
3968	0.050377
3964	0.035977
3960	-0.014400
3956	-0.089693
3952	-0.095820
3948	-0.064492
3944	-0.043129
3940	0.061821
3936	0.219345
3932	0.205612
3928	0.091505
3924	0.005435
3920	-0.015759
3916	0.058531
3912	0.093483
3908	0.037837
3904	0.001049
3900	0.035214
3896	0.083827
3892	0.082778
3888	-0.008583
3884	-0.142908
3880	-0.145721
3876	-0.004220
3872	0.135874
3868	0.186419
3864	0.078248
3860	-0.083827
3856	-0.067520
3852	0.029301
3848	0.004363
3844	-0.015544
3840	0.031232
3836	0.056314
3832	0.056290
3828	-0.025272
3824	-0.067806
3820	0.075769
3816	0.201082
3812	0.129461
3808	0.022840
3804	0.031352
3800	0.079464
3796	0.079369
3792	0.065445
3788	0.079298
3784	0.142335
3780	0.168561
3776	0.059390
3772	-0.018143
3768	0.066781
3764	0.166606
3760	0.151824
3756	0.135111
3752	0.206136
3748	0.224328
3744	0.144028
3740	0.110316
3736	0.155544
3732	0.135350
3728	-0.014185
3724	-0.138235
3720	-0.101852
3716	0.018239
3712	0.084042
3708	0.094127
3704	0.100040
3700	0.052618
3696	-0.062108
3692	-0.129842
3688	-0.102519
3684	-0.023388
3680	0.067710
3676	0.108098
3672	0.111317
3668	0.076031
3664	-0.063610
3660	-0.172495
3656	-0.148582
3652	-0.119805
3648	-0.130319
3644	-0.099468
3640	-0.016188
3636	0.065970
3632	0.096654
3628	0.052285
3624	-0.012612
3620	-0.008535
3616	0.031661
3612	0.010514
3608	0.013566
3604	0.141906
3600	0.220727
3596	0.204992
3592	0.280594
3588	0.313711
3584	0.175070
3580	0.047016
3576	0.017666
3572	0.058650
3568	0.096487
3564	0.079655
3560	0.093722
3556	0.187611
3552	0.220632
3548	0.128769
3544	0.037002
3540	0.023794
3536	0.081968
3532	0.117135
3528	0.044345
3524	-0.041413
3520	-0.038886
3516	0.042104
3512	0.169944
3508	0.283050
3504	0.301814
3500	0.260210
3496	0.191664
3492	0.020432
3488	-0.112867
3484	-0.005221
3480	0.137305
3476	0.057935
3472	-0.050115
3468	0.032472
3464	0.120711
3460	0.098133
3456	0.021553
3452	-0.024151
3448	0.027871
3444	0.063800
3440	0.038981
3436	-0.014734
3432	-0.040221
3428	0.000166
3424	0.044393
3420	0.042581
3416	0.011873
3412	-0.014495
3408	-0.039577
3404	-0.036263
3400	-0.000834
3396	0.008153
3392	-0.026011
3388	-0.051999
3384	-0.030779
3380	-0.027132
3376	-0.033140
3372	-0.003409
3368	0.017786
3364	0.038456
3360	0.003695
3356	-0.080251
3352	-0.092983
3348	-0.080060
3344	-0.094914
3340	-0.096249
3336	-0.080442
3332	-0.103592
3328	-0.095081
3324	0.053882
3320	0.214052
3316	0.180125
3312	0.074028
3308	0.078105
3304	0.144624
3300	0.142741
3296	0.100564
3292	0.137209
3288	0.154376
3284	0.035333
3280	-0.069761
3276	-0.007963
3272	0.104212
3268	0.141239
3264	0.192713
3260	0.252509
3256	0.198245
3252	0.091886
3248	0.014781
3244	-0.055336
3240	-0.083923
3236	-0.046420
3232	0.005602
3228	0.050640
3224	0.048089
3220	0.029039
3216	0.055623
3212	0.049710
3208	-0.040626
3204	-0.133681
3200	-0.104880
3196	0.009894
3192	0.058507
3188	-0.025105
3184	-0.113153
3180	-0.084114
3176	-0.010323
3172	0.032782
3168	-0.009226
3164	-0.110387
3160	-0.089192
3156	0.015783
3152	0.015306
3148	-0.019431
3144	0.050663
3140	0.119829
3136	0.071454
3132	-0.027227
3128	0.029969
3124	0.170731
3120	0.200963
3116	0.156497
3112	0.101017
3108	0.030612
3104	-0.008416
3100	-0.009512
3096	0.004720
3092	0.061726
3088	0.109672
3084	0.146603
3080	0.197148
3076	0.170540
3072	0.098824
3068	0.100040
3064	0.109338
3060	0.096750
3056	0.125122
3052	0.129508
3048	0.083637
3044	0.058960
3040	0.022745
3036	-0.041317
3032	-0.067949
3028	-0.048780
3024	0.003314
3020	0.025820
3016	0.010228
3012	0.022530
3008	0.079274
3004	0.143313
3000	0.134611
2996	0.088500
2992	0.078821
2988	0.066471
2984	-0.013732
2980	-0.083899
2976	-0.084304
2972	-0.099062
2968	-0.115919
2964	-0.086545
2960	-0.014281
2956	0.074553
2952	0.102043
2948	0.052738
2944	0.045776
2940	0.117802
2936	0.170660
2932	0.135159
2928	0.025916
2924	-0.042390
2920	-0.041079
2916	-0.042009
2912	-0.031733
2908	0.003314
2904	0.000786
2900	-0.027394
2896	-0.009918
2892	0.026321
2888	0.012230
2884	-0.023627
2880	-0.011348
2876	-0.000691
2872	0.002264
2868	0.064826
2864	0.131225
2860	0.127553
2856	0.018644
2852	-0.094223
2848	-0.056719
2844	0.041317
2840	0.083708
2836	0.095415
2832	0.066828
2828	0.005006
2824	-0.030994
2820	-0.019598
2816	-0.021910
2812	-0.043487
2808	-0.028538
2804	-0.017023
2800	-0.033187
2796	-0.014686
2792	0.046777
2788	0.065875
2784	0.026512
2780	-0.006651
2776	-0.014448
2772	-0.004935
2768	0.024247
2764	0.079369
2760	0.103497
2756	0.069904
2752	0.028657
2748	0.033092
2744	0.073266
2740	0.049757
2736	-0.000333
2732	0.006985
2728	0.017142
2724	-0.013136
2720	-0.009632
2716	0.065183
2712	0.120115
2708	0.130605
2704	0.091433
2700	0.010728
2696	-0.047922
2692	-0.061941
2688	-0.004339
2684	0.083208
2680	0.096273
2676	0.057315
2672	0.031948
2668	0.033926
2664	0.032186
2660	-0.005316
2656	-0.018000
2652	0.030088
2648	0.081586
2644	0.088930
2640	0.051712
2636	0.001072
2632	-0.024056
2628	-0.008249
2624	0.031614
2620	0.049614
2616	0.044417
2612	0.034546
2608	-0.019574
2604	-0.074219
2600	-0.040197
2596	0.011467
2592	0.015473
2588	0.042724
2584	0.071239
2580	0.010895
2576	-0.085711
2572	-0.105309
2568	-0.027346
2564	0.008201
2560	-0.066018
2556	-0.104069
2552	-0.085878
2548	-0.066089
2544	-0.030541
2540	0.016522
2536	0.064134
2532	0.128269
2528	0.178956
2524	0.123429
2520	0.014638
2516	-0.036525
2512	-0.039124
2508	-0.057983
2504	-0.058150
2500	0.008916
2496	0.070214
2492	0.054407
2488	-0.023508
2484	-0.060629
2480	-0.040316
2476	-0.036191
2472	-0.040793
2468	-0.063323
2464	-0.061154
2460	0.002813
2456	0.022411
2452	0.034427
2448	0.079631
2444	0.083398
2440	0.055146
2436	-0.009226
2432	-0.004959
2428	0.105190
2424	0.083041
2420	-0.054144
2416	-0.050306
2412	0.063443
2408	0.089621
2404	0.039577
2400	-0.005841
2396	-0.058794
2392	-0.108671
2388	-0.088548
2384	-0.012278
2380	0.050735
2376	0.060677
2372	0.008368
2368	-0.071477
2364	-0.095438
2360	-0.027322
2356	0.054764
2352	0.067281
2348	0.001740
2344	-0.063753
2340	-0.083994
2336	-0.098013
2332	-0.112581
2328	-0.098276
2324	-0.055170
2320	-0.012826
2316	-0.009465
2312	-0.034403
2308	-0.012922
2304	0.028753
2300	0.009989
2296	-0.016283
2292	-0.001192
2288	-0.007414
2284	-0.035786
2280	-0.028061
2276	0.028657
2272	0.085544
2268	0.067520
2264	0.040984
2260	0.055503
2256	0.023412
2252	0.017809
2248	0.120449
2244	0.230121
2240	0.305676
2236	0.364446
2232	0.388765
2228	0.416159
2224	0.500559
2220	0.592613
2216	0.658297
2212	0.741600
2208	0.812864
2204	0.857305
2200	0.942873
2196	1.070356
2192	1.198697
2188	1.350688
2184	1.523065
2180	1.654481
2176	1.754856
2172	1.891374
2168	2.076601
2164	2.285480
2160	2.477598
2156	2.631068
2152	2.819252
2148	3.131723
2144	3.557682
2140	3.882074
2136	4.002261
2132	4.142546
2128	4.426193
2124	4.762053
2120	5.077028
2116	5.395317
2112	5.714845
2108	6.036639
2104	6.375360
2100	6.686758
2096	6.999588
2092	7.337617
2088	7.642245
2084	7.922530
2080	8.249449
2076	8.618998
2072	9.036970
2068	9.520721
2064	9.961843
2060	10.3267
2056	10.6665
2052	11.0029
2048	11.3598
2044	11.7217
2040	12.0785
2036	12.4456
2032	12.8031
2028	13.1366
2024	13.4965
2020	13.8597
2016	14.1561
2012	14.4255
2008	14.736
2004	15.0648
2000	15.3921
1996	15.7428
1992	16.0633
1988	16.3491
1984	16.6403
1980	16.9051
1976	17.1547
1972	17.4695
1968	17.8079
1964	18.027
1960	18.1939
1956	18.4077
1952	18.6198
1948	18.8148
1944	19.0044
1940	19.2489
1936	19.5623
1932	19.8236
1928	19.9742
1924	20.0666
1920	20.2265
1916	20.5022
1912	20.7466
1908	20.8734
1904	20.9535
1900	21.0813
1896	21.2399
1892	21.3711
1888	21.518
1884	21.6799
1880	21.7974
1876	21.8961
1872	22.0311
1868	22.1726
1864	22.3042
1860	22.4474
1856	22.5738
1852	22.6591
1848	22.72
1844	22.7657
1840	22.815
1836	22.9094
1832	23.051
1828	23.186
1824	23.2688
1820	23.2961
1816	23.32
1812	23.4087
1808	23.491
1804	23.5329
1800	23.6356
1796	23.7364
1792	23.7602
1788	23.7954
1784	23.8685
1780	23.9338
1776	23.9704
1772	23.9992
1768	24.0479
1764	24.1128
1760	24.1812
1756	24.2251
1752	24.2163
1748	24.1958
1744	24.25
1740	24.3055
1736	24.2632
1732	24.1724
1728	24.146
1724	24.2691
1720	24.3779
1716	24.3594
1712	24.3704
1708	24.4399
1704	24.4669
1700	24.481
1696	24.5254
1692	24.52
1688	24.4859
1684	24.4703
1680	24.4659
1676	24.4844
1672	24.492
1668	24.4895
1664	24.4754
1660	24.4672
1656	24.5121
1652	24.586
1648	24.6228
1644	24.5636
1640	24.4558
1636	24.4196
1632	24.468
1628	24.5248
1624	24.5534
1620	24.563
1616	24.5818
1612	24.6035
1608	24.589
1604	24.5616
1600	24.5552
1596	24.5697
1592	24.5896
1588	24.5637
1584	24.5051
1580	24.4985
1576	24.542
1572	24.5925
1568	24.6008
1564	24.5598
1560	24.5383
1556	24.5179
1552	24.478
1548	24.4551
1544	24.4701
1540	24.4604
1536	24.4089
1532	24.418
1528	24.4403
1524	24.4156
1520	24.4165
1516	24.4521
1512	24.4443
1508	24.3875
1504	24.3718
1500	24.4122
1496	24.4227
1492	24.3449
1488	24.2466
1484	24.2134
1480	24.2442
1476	24.3039
1472	24.3639
1468	24.3523
1464	24.252
1460	24.2059
1456	24.2527
1452	24.2687
1448	24.2194
1444	24.1593
1440	24.1195
1436	24.0913
1432	24.0712
1428	24.0827
1424	24.1122
1420	24.1579
1416	24.182
1412	24.1008
1408	23.9826
1404	23.9434
1400	23.9834
1396	24.0174
1392	23.983
1388	23.9572
1384	23.9967
1380	24.0324
1376	24.0356
1372	23.9831
1368	23.8417
1364	23.7167
1360	23.7276
1356	23.7874
1352	23.8311
1348	23.9077
1344	23.9619
1340	23.9581
1336	23.9007
1332	23.8366
1328	23.8093
1324	23.7547
1320	23.7242
1316	23.7516
1312	23.7342
1308	23.6646
1304	23.6293
1300	23.667
1296	23.6889
1292	23.636
1288	23.5709
1284	23.5033
1280	23.4486
1276	23.4689
1272	23.5028
1268	23.4854
1264	23.4852
1260	23.5297
1256	23.5154
1252	23.4222
1248	23.3694
1244	23.3519
1240	23.3011
1236	23.3045
1232	23.3739
1228	23.3702
1224	23.2913
1220	23.2284
1216	23.2022
1212	23.185
1208	23.1288
1204	23.0686
1200	23.0419
1196	23.0379
1192	23.0567
1188	23.0649
1184	23.0496
1180	23.0366
1176	23.0101
1172	22.9631
1168	22.9098
1164	22.9093
1160	22.9663
1156	22.9707
1152	22.9215
1148	22.897
1144	22.7957
1140	22.5746
1136	22.4372
1132	22.5032
1128	22.6426
1124	22.7005
1120	22.6515
1116	22.5475
1112	22.488
1108	22.4885
1104	22.4751
1100	22.4452
1096	22.3422
1092	22.2154
1088	22.2418
1084	22.3476
1080	22.4095
1076	22.3813
1072	22.2884
1068	22.2162
1064	22.0964
1060	21.9713
1056	21.9631
1052	22.0673
1048	22.212
1044	22.2349
1040	22.1316
1036	21.9867
1032	21.8685
1028	21.8191
1024	21.671
1020	21.4432
1016	21.4092
1012	21.496
1008	21.5736
1004	21.7036
1000	21.7577
996	 21.654
992	 21.5415
988	 21.5167
984	 21.5042
980	 21.3211
976	 21.0279
972	 20.8803
968	 20.9019
964	 21.0275
960	 21.1811
956	 21.2018
952	 21.1594
948	 21.1919
944	 21.1145
940	 20.8693
936	 20.6525
932	 20.5428
928	 20.5267
924	 20.5606
920	 20.5538
916	 20.5212
912	 20.4871
908	 20.3578
904	 20.1799
900	 20.065
896	 20.0425
892	 20.073
888	 20.0328
884	 19.8969
880	 19.7821
876	 19.7744
872	 19.8082
868	 19.7274
864	 19.5998
860	 19.5075
856	 19.3629
852	 19.2807
848	 19.3141
844	 19.3024
840	 19.2343
836	 19.1884
832	 19.1012
828	 18.9893
824	 19.0011
820	 18.9928
816	 18.8396
812	 18.7096
808	 18.6478
804	 18.5853
800	 18.5093
796	 18.314
792	 18.0446
788	 17.9936
784	 18.0623
780	 17.997
776	 17.9114
772	 17.8565
768	 17.7829
764	 17.7958
760	 17.8091
756	 17.7878
752	 17.8534
748	 17.8098
744	 17.5481
740	 17.29
736	 17.2
732	 17.1766
728	 17.137
724	 17.1521
720	 17.0811
716	 16.898
712	 16.749
708	 16.5743
704	 16.4465
700	 16.5132
696	 16.6037
692	 16.4699
688	 16.2415
684	 16.2347
680	 16.28
676	 16.0375
672	 15.7221
668	 15.6356
664	 15.5984
660	 15.3913
656	 15.1485
652	 15.0654
648	 15.1628
644	 15.2659
640	 15.1621
636	 14.9367
632	 14.7205
628	 14.6459
624	 14.7273
620	 14.6912
616	 14.6266
612	 14.5837
608	 14.3497
604	 14.0627
600	 13.8131
596	 13.6969
592	 13.8138
588	 13.9082
584	 13.918
580	 14.0144
576	 13.9871
572	 13.7072
568	 13.4438
564	 13.2299
560	 13.0842
556	 13.1102
552	 13.086
548	 12.9791
544	 13.0241
540	 13.0181
536	 12.7837
532	 12.4838
528	 12.3494
524	 12.4431
520	 12.4296
516	 12.3321
512	 12.3283
508	 12.1389
504	 11.9118
500	 11.6818
496	 10.9811
492	 10.458
488	 11.0075
484	 11.8885
480	 12.1348
476	 11.9107
472	 11.627
468	 11.3699
464	 10.8559
460	 9.980225
456	 9.324622
452	 9.307742
448	 10.0186
444	 10.7556
440	 10.0614
436	 8.653807
432	 8.127331
428	 8.292174
424	 8.607363
420	 8.388280
416	 8.303976
412	 10.0497
408	 13.3782
404	 16.2078
400	 16.8872
396	 15.5831
392	 13.0773
388	 6.869173
384	 0.743794
380	 2.020120
376	 0.210523
372	 -5.902576
370	 -3.165459