File: Bakgrunnsmateriale/MATLAB/FTIR/ftir_data/LPE453/Mapping_121/LPE453_t37.asc
PE IR       SPECTRUM    SPECTRUM    ASCII       PEDS        1.60
  -1
LPDF95~1.ASC
17/05/16
17:22:26.00
17/05/16
17:22:52.00
tln
$LPE453_t0037$<tbV0>[5.2,-5.2,8.0,0.0,27,1,0]
27.028
64

2002,4.07
MIRTGS : RIGHTBACK : INTERNAL 2
MIR : ON : INTERNAL 2
OPTKBR

0.200000
8
8.000000
FILLER
RATIO
SPECTRUM
UNLOCKED 256

DOUBLE
64
COMBINED
1
0
0

0.002000
RATIO

1
0
TRUE
51149
0
LEFT NOT FITTED RIGHT NOT FITTED 0
NONE
NONE
15600
12
4.427000
51148
TRUE
1 0 8 72 0 0 0 0

15798

#HDR
-1
-1
#GR
µM
%T
2.38419e-05
0.0
2.000000
0.002000
12515
8
24.9512
-45.4029
#DATA
2.000000	 -0.066399
2.018000	 0.613222
2.036000	 0.027708
2.054000	 0.422437
2.072000	 0.412300
2.090000	 0.374942
2.108000	 0.056203
2.126000	 0.228775
2.144000	 0.537945
2.162000	 0.918999
2.180000	 -0.059848
2.198000	 -0.794621
2.216000	 24.9512
2.234000	 0.020437
2.252000	 -0.495412
2.270000	 0.386870
2.288000	 0.149819
2.306000	 0.349925
2.324000	 0.005935
2.342000	 0.259738
2.360000	 0.184573
2.378000	 0.010797
2.396000	 0.716935
2.414000	 -0.073771
2.432000	 0.179350
2.450000	 0.184636
2.468000	 0.171080
2.486000	 0.138927
2.504000	 0.181255
2.522000	 0.088227
2.540000	 0.171478
2.558000	 -0.001189
2.576000	 0.181204
2.594000	 0.168391
2.612000	 0.234955
2.630000	 0.104938
2.648000	 0.156919
2.666000	 -0.100276
2.684000	 0.172289
2.702000	 0.039617
2.720000	 0.324002
2.738000	 0.111456
2.756000	 0.195432
2.774000	 -0.004065
2.792000	 -0.013386
2.810000	 -0.119710
2.828000	 0.152073
2.846000	 0.037156
2.864000	 0.037064
2.882000	 0.234178
2.900000	 -0.084072
2.918000	 0.105039
2.936000	 0.087446
2.954000	 0.008080
2.972000	 0.102239
2.990000	 -0.027205
3.008000	 0.129383
3.026000	 0.043162
3.044000	 -0.060204
3.062000	 0.132391
3.080000	 -0.048633
3.098000	 -0.038081
3.116000	 0.110939
3.134000	 0.081214
3.152000	 -0.120492
3.170000	 0.041558
3.188000	 0.109215
3.206000	 0.128756
3.224000	 -0.084571
3.242000	 0.132539
3.260000	 0.078214
3.278000	 -0.005132
3.296000	 -0.024547
3.314000	 0.007753
3.332000	 0.028703
3.350000	 0.069330
3.368000	 -0.069295
3.386000	 0.016165
3.404000	 0.072990
3.422000	 0.090693
3.440000	 -0.055456
3.458000	 -0.016935
3.476000	 0.093975
3.494000	 0.110238
3.512000	 -0.042147
3.530000	 0.057260
3.548000	 0.054782
3.566000	 -0.044170
3.584000	 0.167083
3.602000	 -0.024503
3.620000	 0.046869
3.638000	 -0.002788
3.656000	 0.065663
3.674000	 -0.005696
3.692000	 -0.031856
3.710000	 -0.061637
3.728000	 -0.030899
3.746000	 0.049956
3.764000	 0.018605
3.782000	 0.039617
3.800000	 -0.025441
3.818000	 0.141397
3.836000	 0.147478
3.854000	 0.086338
3.872000	 -0.061748
3.890000	 0.077813
3.908000	 -0.087414
3.926000	 0.047331
3.944000	 0.062397
3.962000	 0.021697
3.980000	 -0.078142
3.998000	 0.041043
4.016000	 0.070714
4.034000	 -0.081209
4.052000	 0.160930
4.070000	 0.221407
4.088000	 0.093975
4.106000	 0.190066
4.124000	 0.089473
4.141999	 -0.033273
4.160000	 -0.062687
4.178000	 -0.066402
4.196000	 0.012427
4.214000	 -0.087668
4.232000	 0.010595
4.250000	 -0.000346
4.268000	 -0.068217
4.286000	 -0.001282
4.304000	 -0.004990
4.322000	 0.015403
4.340000	 -0.008448
4.358000	 -0.109208
4.375999	 -0.077208
4.394000	 0.018930
4.412000	 -0.097003
4.430000	 0.056104
4.448000	 0.132830
4.466000	 0.240156
4.484000	 0.239871
4.502000	 0.357961
4.520000	 0.455692
4.538000	 0.721281
4.556000	 0.869467
4.574000	 1.080367
4.592000	 1.260531
4.609999	 1.676494
4.628000	 2.042371
4.646000	 2.537787
4.664000	 2.978592
4.682000	 3.563663
4.700000	 3.988552
4.718000	 4.537801
4.736000	 5.099968
4.754000	 5.719558
4.772000	 6.271330
4.790000	 6.918068
4.808000	 7.595870
4.826000	 8.424705
4.843999	 9.096271
4.862000	 9.623290
4.880000	 10.4348
4.898000	 11.1243
4.916000	 11.8111
4.934000	 12.466
4.952000	 13.1418
4.970000	 13.7581
4.988000	 14.2441
5.006000	 14.6993
5.024000	 15.325
5.042000	 15.7603
5.060000	 16.2923
5.077999	 16.7684
5.096000	 17.2864
5.114000	 17.6367
5.132000	 18.0309
5.150000	 18.4002
5.168000	 18.7117
5.186000	 19.0388
5.204000	 19.4379
5.222000	 19.7263
5.240000	 20.0309
5.258000	 20.3018
5.276000	 20.5372
5.294000	 20.8027
5.312000	 21.0513
5.330000	 21.2696
5.348000	 21.3812
5.366000	 21.5516
5.384000	 21.7257
5.402000	 21.9287
5.420000	 22.0241
5.438000	 22.1476
5.456000	 22.2804
5.474000	 22.4437
5.492000	 22.679
5.510000	 22.8272
5.528000	 22.8951
5.546000	 22.8799
5.564000	 22.949
5.582000	 23.0643
5.600000	 23.1605
5.618000	 23.2607
5.636000	 23.3365
5.654000	 23.2903
5.672000	 23.1872
5.690000	 23.2567
5.708000	 23.334
5.726000	 23.4613
5.744000	 23.6415
5.762000	 23.6869
5.780000	 23.5764
5.798000	 23.514
5.816000	 23.578
5.834000	 23.6794
5.852000	 23.7642
5.870000	 23.8403
5.888000	 23.8888
5.906000	 23.85
5.923999	 23.7885
5.942000	 23.8109
5.960000	 23.8534
5.978000	 23.8573
5.996000	 23.9085
6.014000	 23.9603
6.032000	 23.8741
6.050000	 23.849
6.068000	 23.9085
6.086000	 23.9351
6.104000	 23.9901
6.122000	 24.0885
6.140000	 24.0762
6.158000	 23.9903
6.176000	 23.942
6.194000	 23.9241
6.212000	 23.8962
6.230000	 23.8449
6.248000	 23.8101
6.266000	 23.89
6.284000	 23.9806
6.302000	 23.9506
6.320000	 23.8396
6.338000	 23.7503
6.356000	 23.7168
6.374000	 23.6852
6.392000	 23.8017
6.410000	 23.9912
6.428000	 24.0326
6.446000	 23.955
6.464000	 23.8705
6.482000	 23.8419
6.500000	 23.8189
6.518000	 23.8154
6.536000	 23.843
6.554000	 23.8566
6.572000	 23.941
6.590000	 24.0423
6.608000	 24.0407
6.626000	 23.9685
6.644000	 23.8324
6.662000	 23.6898
6.680000	 23.5937
6.698000	 23.5996
6.716000	 23.7354
6.734000	 23.8296
6.752000	 23.7869
6.770000	 23.6668
6.788000	 23.5709
6.806000	 23.5292
6.824000	 23.5026
6.842000	 23.5086
6.860000	 23.5359
6.878000	 23.5006
6.896000	 23.4376
6.914000	 23.3927
6.932000	 23.3138
6.950000	 23.2196
6.968000	 23.1667
6.986000	 23.1873
7.004000	 23.276
7.022000	 23.3537
7.040000	 23.3735
7.058000	 23.3741
7.076000	 23.3834
7.094000	 23.4065
7.112000	 23.44
7.130000	 23.4398
7.148000	 23.3724
7.166000	 23.2745
7.184000	 23.1945
7.202000	 23.1411
7.220000	 23.1232
7.238000	 23.1495
7.256000	 23.1961
7.274000	 23.2567
7.292000	 23.3265
7.310000	 23.3525
7.328000	 23.3034
7.346000	 23.2102
7.364000	 23.1101
7.382000	 23.0346
7.400000	 23.0086
7.418000	 23.0104
7.436000	 23.008
7.454000	 23.0259
7.472000	 23.0975
7.490000	 23.185
7.508000	 23.2202
7.526000	 23.1955
7.544000	 23.1521
7.562000	 23.1023
7.580000	 23.0346
7.598000	 22.9691
7.616000	 22.9362
7.634000	 22.9378
7.652000	 22.9678
7.670000	 23.0149
7.688000	 23.0461
7.706000	 23.0399
7.724000	 23.0039
7.742000	 22.959
7.760000	 22.9295
7.778000	 22.9274
7.796000	 22.9312
7.814000	 22.9053
7.832000	 22.8395
7.850000	 22.7609
7.868000	 22.7104
7.886000	 22.7004
7.904000	 22.7067
7.922000	 22.7106
7.940000	 22.7238
7.958000	 22.7547
7.976000	 22.7821
7.994000	 22.7815
8.012000	 22.7522
8.030000	 22.7066
8.048000	 22.6509
8.065999	 22.5932
8.084000	 22.545
8.102000	 22.5053
8.120000	 22.4663
8.138000	 22.4389
8.155999	 22.4436
8.173999	 22.4771
8.192000	 22.5116
8.210000	 22.5244
8.228000	 22.5116
8.246000	 22.4797
8.263999	 22.4372
8.282000	 22.3887
8.300000	 22.3315
8.318000	 22.2681
8.336000	 22.225
8.353999	 22.2341
8.372000	 22.2891
8.390000	 22.3433
8.408000	 22.3655
8.426000	 22.3734
8.443999	 22.3956
8.462000	 22.4286
8.480000	 22.4452
8.498000	 22.4268
8.516000	 22.3822
8.533999	 22.335
8.552000	 22.2945
8.570000	 22.2446
8.588000	 22.1665
8.606000	 22.0659
8.624000	 21.9719
8.641999	 21.9133
8.660000	 21.9044
8.678000	 21.9458
8.696000	 22.0238
8.714000	 22.1043
8.731999	 22.1476
8.750000	 22.1386
8.768000	 22.0999
8.786000	 22.0667
8.804000	 22.0498
8.821999	 22.0309
8.840000	 21.9857
8.858000	 21.9106
8.876000	 21.8258
8.894000	 21.7588
8.911999	 21.7261
8.930000	 21.7274
8.948000	 21.7486
8.966000	 21.7689
8.984000	 21.7756
9.001999	 21.7721
9.020000	 21.7675
9.038000	 21.7626
9.056000	 21.7443
9.074000	 21.7039
9.092000	 21.6529
9.109999	 21.6166
9.128000	 21.6131
9.146000	 21.6386
9.164000	 21.6733
9.182000	 21.6923
9.199999	 21.6799
9.218000	 21.6407
9.236000	 21.5968
9.254000	 21.5708
9.272000	 21.565
9.289999	 21.5605
9.308000	 21.5408
9.326000	 21.5125
9.344000	 21.5016
9.362000	 21.527
9.379999	 21.5824
9.398000	 21.6398
9.416000	 21.6699
9.434000	 21.6602
9.452000	 21.6194
9.469999	 21.5681
9.488000	 21.525
9.506000	 21.4942
9.524000	 21.4624
9.542000	 21.4086
9.560000	 21.32
9.577999	 21.2045
9.596000	 21.0877
9.614000	 20.9994
9.632000	 20.9572
9.650000	 20.9573
9.667999	 20.9793
9.686000	 21.0031
9.704000	 21.0219
9.722000	 21.0431
9.740000	 21.075
9.757999	 21.1104
9.776000	 21.1246
9.794000	 21.0888
9.812000	 20.9916
9.830000	 20.8518
9.847999	 20.7105
9.866000	 20.6072
9.884000	 20.5583
9.902000	 20.5534
9.920000	 20.5671
9.937999	 20.5768
9.956000	 20.5724
9.974000	 20.5563
9.992000	 20.5396
10.01	20.5342
10.028	20.5482
10.046	20.5806
10.064	20.6217
10.082	20.6586
10.1	20.6835
10.118	20.6978
10.136	20.7072
10.154	20.7129
10.172	20.7079
10.19	20.6797
10.208	20.6198
10.226	20.528
10.244	20.4136
10.262	20.2934
10.28	20.1854
10.298	20.1042
10.316	20.0576
10.334	20.0435
10.352	20.0521
10.37	20.0699
10.388	20.0868
10.406	20.099
10.424	20.1083
10.442	20.1183
10.46	20.1298
10.478	20.1396
10.496	20.1421
10.514	20.1312
10.532	20.1032
10.55	20.0581
10.568	20.0006
10.586	19.9395
10.604	19.8844
10.622	19.844
10.64	19.8194
10.658	19.804
10.676	19.7848
10.694	19.7497
10.712	19.6937
10.73	19.6245
10.748	19.5582
10.766	19.5135
10.784	19.5005
10.802	19.5165
10.82	19.5481
10.838	19.5784
10.856	19.5974
10.874	19.6059
10.892	19.6131
10.91	19.6295
10.928	19.6585
10.946	19.6938
10.964	19.7227
10.982	19.7337
11	19.7219
11.018	19.6913
11.036	19.6497
11.054	19.6041
11.072	19.5563
11.09	19.5042
11.108	19.4454
11.126	19.3814
11.144	19.319
11.162	19.2667
11.18	19.2301
11.198	19.2082
11.216	19.1936
11.234	19.1778
11.252	19.1555
11.27	19.128
11.288	19.1032
11.306	19.0902
11.324	19.0963
11.342	19.1236
11.36	19.1682
11.378	19.2222
11.396	19.2762
11.414	19.3206
11.432	19.3466
11.45	19.3483
11.468	19.3225
11.486	19.2707
11.504	19.1999
11.522	19.121
11.54	19.0445
11.558	18.9796
11.576	18.9296
11.594	18.8925
11.612	18.8627
11.63	18.8334
11.648	18.7993
11.666	18.7582
11.684	18.7109
11.702	18.6602
11.72	18.6092
11.738	18.5605
11.756	18.5156
11.774	18.4754
11.792	18.4405
11.81	18.4116
11.828	18.3893
11.846	18.3736
11.864	18.364
11.882	18.3592
11.9	18.3571
11.918	18.3564
11.936	18.3562
11.954	18.3564
11.972	18.3575
11.99	18.3606
12.008	18.3658
12.026	18.372
12.044	18.3771
12.062	18.3772
12.08	18.3682
12.098	18.3465
12.116	18.3109
12.134	18.2633
12.152	18.2088
12.17	18.1533
12.188	18.1024
12.206	18.0594
12.224	18.0241
12.242	17.994
12.26	17.9652
12.278	17.9346
12.296	17.9015
12.314	17.8677
12.332	17.8375
12.35	17.8161
12.368	17.8083
12.386	17.8166
12.404	17.8402
12.422	17.8749
12.44	17.9143
12.458	17.9508
12.476	17.9771
12.494	17.988
12.512	17.9809
12.53	17.9558
12.548	17.9148
12.566	17.8619
12.584	17.8015
12.602	17.7376
12.62	17.6744
12.638	17.6151
12.656	17.5617
12.674	17.5153
12.692	17.4768
12.71	17.4459
12.728	17.4222
12.746	17.4052
12.764	17.3938
12.782	17.3867
12.8	17.3825
12.818	17.3794
12.836	17.3764
12.854	17.3722
12.872	17.3664
12.89	17.3585
12.908	17.3481
12.926	17.3346
12.944	17.3175
12.962	17.2975
12.98	17.2759
12.998	17.255
13.016	17.2381
13.034	17.2287
13.052	17.2299
13.07	17.2433
13.088	17.2687
13.106	17.3035
13.124	17.344
13.142	17.3851
13.16	17.4214
13.178	17.4485
13.196	17.4633
13.214	17.4644
13.232	17.4516
13.25	17.4263
13.268	17.3904
13.286	17.347
13.304	17.2993
13.322	17.2506
13.34	17.2038
13.358	17.1612
13.376	17.1238
13.394	17.0912
13.412	17.0616
13.43	17.0326
13.448	17.0012
13.466	16.9646
13.484	16.921
13.502	16.8694
13.52	16.8103
13.538	16.7451
13.556	16.6765
13.574	16.6079
13.592	16.5431
13.61	16.4857
13.628	16.4389
13.646	16.4048
13.664	16.3845
13.682	16.3774
13.7	16.3815
13.718	16.3934
13.736	16.4087
13.754	16.4229
13.772	16.432
13.79	16.4324
13.808	16.4226
13.826	16.4026
13.844	16.3735
13.862	16.3373
13.88	16.2962
13.898	16.2524
13.916	16.2081
13.934	16.1649
13.952	16.1244
13.97	16.0881
13.988	16.0573
14.006	16.033
14.024	16.0157
14.042	16.0049
14.06	15.9996
14.078	15.9973
14.096	15.9953
14.114	15.9907
14.132	15.9809
14.15	15.9641
14.168	15.9398
14.186	15.909
14.204	15.8739
14.222	15.8385
14.24	15.807
14.258	15.7839
14.276	15.7726
14.294	15.7757
14.312	15.7944
14.33	15.8283
14.348	15.8757
14.366	15.9333
14.384	15.9966
14.402	16.0605
14.42	16.1201
14.438	16.1705
14.456	16.2076
14.474	16.2285
14.492	16.2315
14.51	16.2166
14.528	16.1854
14.546	16.141
14.564	16.0868
14.582	16.0271
14.6	15.9662
14.618	15.9081
14.636	15.8567
14.654	15.8142
14.672	15.782
14.69	15.7607
14.708	15.7494
14.726	15.7463
14.744	15.7485
14.762	15.7524
14.78	15.7547
14.798	15.7523
14.816	15.7428
14.834	15.7246
14.852	15.6974
14.87	15.662
14.888	15.62
14.906	15.5734
14.924	15.5245
14.942	15.4757
14.96	15.4288
14.978	15.3851
14.996	15.3454
15.014	15.3098
15.032	15.278
15.05	15.2491
15.068	15.2223
15.086	15.1969
15.104	15.1718
15.122	15.146
15.14	15.1188
15.158	15.0902
15.176	15.0601
15.194	15.0288
15.212	14.9971
15.23	14.966
15.248	14.9366
15.266	14.9102
15.284	14.8884
15.302	14.8722
15.32	14.8619
15.338	14.8576
15.356	14.8587
15.374	14.8637
15.392	14.8709
15.41	14.8784
15.428	14.8845
15.446	14.8875
15.464	14.8868
15.482	14.8821
15.5	14.8738
15.518	14.8633
15.536	14.8518
15.554	14.8405
15.572	14.8308
15.59	14.8234
15.608	14.8182
15.626	14.815
15.644	14.8126
15.662	14.8093
15.68	14.8036
15.698	14.7941
15.716	14.7793
15.734	14.7586
15.752	14.7322
15.77	14.7005
15.788	14.6647
15.806	14.6261
15.824	14.5861
15.842	14.5462
15.86	14.5076
15.878	14.471
15.896	14.4367
15.914	14.4046
15.932	14.3742
15.95	14.3448
15.968	14.3158
15.986	14.2862
16.004	14.2557
16.022	14.2241
16.04	14.1912
16.058	14.1576
16.076	14.1239
16.094	14.0912
16.112	14.0605
16.13	14.0327
16.148	14.0089
16.166	13.9896
16.184	13.9751
16.202	13.9655
16.22	13.9597
16.238	13.9566
16.256	13.9551
16.274	13.9525
16.292	13.947
16.31	13.9368
16.328	13.9195
16.346	13.8939
16.364	13.8592
16.382	13.8154
16.4	13.7639
16.418	13.7061
16.436	13.6455
16.454	13.5857
16.472	13.5294
16.49	13.4812
16.508	13.4437
16.526	13.4189
16.544	13.4086
16.562	13.4121
16.58	13.429
16.598	13.4566
16.616	13.4921
16.634	13.5329
16.652	13.5741
16.67	13.6133
16.688	13.6477
16.706	13.6742
16.724	13.6922
16.742	13.7004
16.76	13.6994
16.778	13.6895
16.796	13.6723
16.814	13.6497
16.832	13.623
16.85	13.5947
16.868	13.5662
16.886	13.5386
16.904	13.5132
16.922	13.4902
16.94	13.4701
16.958	13.4522
16.976	13.4363
16.994	13.4215
17.012	13.4066
17.03	13.3909
17.048	13.3729
17.066	13.3522
17.084	13.3279
17.102	13.2996
17.12	13.2673
17.138	13.2313
17.156	13.1926
17.174	13.1516
17.192	13.1107
17.21	13.0705
17.228	13.0335
17.246	13.001
17.264	12.9742
17.282	12.9545
17.3	12.9423
17.318	12.9379
17.336	12.9406
17.354	12.9502
17.372	12.9644
17.39	12.9823
17.408	13.0013
17.426	13.0197
17.444	13.0359
17.462	13.0475
17.48	13.0539
17.498	13.0533
17.516	13.0456
17.534	13.0301
17.552	13.0074
17.57	12.9775
17.588	12.9414
17.606	12.8998
17.624	12.8538
17.642	12.8046
17.66	12.7528
17.678	12.6996
17.696	12.6454
17.714	12.591
17.732	12.5366
17.75	12.4829
17.768	12.4301
17.786	12.3785
17.804	12.3286
17.822	12.2807
17.84	12.2355
17.858	12.1934
17.876	12.1551
17.894	12.1213
17.912	12.0924
17.93	12.0693
17.948	12.052
17.966	12.041
17.984	12.0361
18.002	12.0372
18.02	12.0437
18.038	12.0553
18.056	12.0706
18.074	12.0895
18.092	12.1101
18.11	12.1322
18.128	12.1541
18.146	12.1757
18.164	12.1956
18.182	12.2139
18.2	12.2299
18.218	12.2438
18.236	12.2556
18.254	12.2657
18.272	12.2741
18.29	12.2818
18.308	12.2886
18.326	12.295
18.344	12.3012
18.362	12.3073
18.38	12.313
18.398	12.3179
18.416	12.3217
18.434	12.3238
18.452	12.3234
18.47	12.3197
18.488	12.3122
18.506	12.3005
18.524	12.2841
18.542	12.2627
18.56	12.2366
18.578	12.2058
18.596	12.1712
18.614	12.1327
18.632	12.0918
18.65	12.0485
18.668	12.0046
18.686	11.9603
18.704	11.9173
18.722	11.8757
18.74	11.8371
18.758	11.8017
18.776	11.7706
18.794	11.744
18.812	11.7228
18.83	11.707
18.848	11.6972
18.866	11.6934
18.884	11.6958
18.902	11.7044
18.92	11.7192
18.938	11.7398
18.956	11.7659
18.974	11.7968
18.992	11.8318
19.01	11.8699
19.028	11.9098
19.046	11.9506
19.064	11.9905
19.082	12.0284
19.1	12.0625
19.118	12.0918
19.136	12.1141
19.154	12.1292
19.172	12.1353
19.19	12.1324
19.208	12.1194
19.226	12.0967
19.244	12.0644
19.262	12.023
19.28	11.9737
19.298	11.9168
19.316	11.8546
19.334	11.787
19.352	11.7169
19.37	11.6441
19.388	11.5715
19.406	11.4989
19.424	11.4285
19.442	11.3604
19.46	11.296
19.478	11.2355
19.496	11.1795
19.514	11.1283
19.532	11.0821
19.55	11.0413
19.568	11.0057
19.586	10.9755
19.604	10.9506
19.622	10.9309
19.64	10.9163
19.658	10.9065
19.676	10.9015
19.694	10.9006
19.712	10.9039
19.73	10.9102
19.748	10.9197
19.766	10.9305
19.784	10.9426
19.802	10.9543
19.82	10.9647
19.838	10.9728
19.856	10.9768
19.874	10.9763
19.892	10.9692
19.91	10.9557
19.928	10.9339
19.946	10.904
19.964	10.8654
19.982	10.8179
20	10.7622
20.018	10.6984
20.036	10.6275
20.054	10.551
20.072	10.4691
20.09	10.3849
20.108	10.298
20.126	10.2122
20.144	10.1271
20.162	10.0458
20.18	9.969316
20.198	9.898698
20.216	9.836218
20.234	9.781522
20.252	9.736689
20.27	9.701413
20.288	9.676325
20.306	9.661662
20.324	9.656886
20.342	9.662037
20.36	9.676527
20.378	9.699173
20.396	9.730125
20.414	9.767385
20.432	9.811340
20.45	9.859748
20.468	9.911808
20.486	9.966898
20.504	10.0231
20.522	10.0807
20.54	10.1379
20.558	10.1946
20.576	10.2502
20.594	10.3042
20.612	10.3565
20.63	10.4063
20.648	10.4539
20.666	10.499
20.684	10.5416
20.702	10.5817
20.72	10.6194
20.738	10.6547
20.756	10.6877
20.774	10.7183
20.792	10.7467
20.81	10.7729
20.828	10.7967
20.846	10.818
20.864	10.8368
20.882	10.8524
20.9	10.8651
20.918	10.8743
20.936	10.8795
20.954	10.8809
20.972	10.8778
20.99	10.8703
21.008	10.8582
21.026	10.8414
21.044	10.8201
21.062	10.7944
21.08	10.7643
21.098	10.7309
21.116	10.6941
21.134	10.6546
21.152	10.6139
21.17	10.5714
21.188	10.5296
21.206	10.4886
21.224	10.4493
21.242	10.4138
21.26	10.3816
21.278	10.3548
21.296	10.334
21.314	10.3193
21.332	10.3122
21.35	10.3123
21.368	10.32
21.386	10.336
21.404	10.3593
21.422	10.3891
21.44	10.426
21.458	10.4675
21.476	10.5136
21.494	10.5633
21.512	10.6129
21.53	10.6637
21.548	10.7119
21.566	10.7552
21.584	10.7943
21.602	10.8237
21.62	10.844
21.638	10.8534
21.656	10.8483
21.674	10.83
21.692	10.7962
21.71	10.746
21.728	10.6798
21.746	10.5969
21.764	10.497
21.782	10.382
21.8	10.2526
21.818	10.1088
21.836	9.955095
21.854	9.790699
21.872	9.618278
21.89	9.443575
21.908	9.264101
21.926	9.085900
21.944	8.912625
21.962	8.742704
21.98	8.583337
21.998	8.434458
22.016	8.297344
22.034	8.177080
22.052	8.072272
22.07	7.984577
22.088	7.916046
22.106	7.865714
22.124	7.833101
22.142	7.818996
22.16	7.822072
22.178	7.839162
22.196	7.871833
22.214	7.916608
22.232	7.969387
22.25	8.032336
22.268	8.100122
22.286	8.169910
22.304	8.243148
22.322	8.314177
22.34	8.382446
22.358	8.447773
22.376	8.505987
22.394	8.557743
22.412	8.602229
22.43	8.637352
22.448	8.663656
22.466	8.681163
22.484	8.689455
22.502	8.688610
22.52	8.679955
22.538	8.663811
22.556	8.640080
22.574	8.610630
22.592	8.575445
22.61	8.534815
22.628	8.490631
22.646	8.442506
22.664	8.391074
22.682	8.337856
22.7	8.282255
22.718	8.225181
22.736	8.167828
22.754	8.109521
22.772	8.051446
22.79	7.994574
22.808	7.938203
22.826	7.883935
22.844	7.832612
22.862	7.783558
22.88	7.738838
22.898	7.699164
22.916	7.663959
22.934	7.635557
22.952	7.614444
22.97	7.600220
22.988	7.595191
23.006	7.599740
23.024	7.613505
23.042	7.637974
23.06	7.673520
23.078	7.719658
23.096	7.776447
23.114	7.844410
23.132	7.922785
23.15	8.010021
23.168	8.107159
23.186	8.212778
23.204	8.323163
23.222	8.439367
23.24	8.560107
23.258	8.680900
23.276	8.802628
23.294	8.924383
23.312	9.041956
23.33	9.155890
23.348	9.265776
23.366	9.368330
23.384	9.463627
23.402	9.551811
23.42	9.630987
23.438	9.700769
23.456	9.761732
23.474	9.813721
23.492	9.856179
23.51	9.889698
23.528	9.915875
23.546	9.934776
23.564	9.946277
23.582	9.952491
23.6	9.953993
23.618	9.950170
23.636	9.943150
23.654	9.934178
23.672	9.922393
23.69	9.908467
23.708	9.893124
23.726	9.876250
23.744	9.856992
23.762	9.834838
23.78	9.810634
23.798	9.782746
23.816	9.749446
23.834	9.711928
23.852	9.668885
23.87	9.618197
23.888	9.560943
23.906	9.496198
23.924	9.421396
23.942	9.336554
23.96	9.242026
23.978	9.136190
23.996	9.018103
24.014	8.888541
24.032	8.748024
24.05	8.596382
24.068	8.432939
24.086	8.260591
24.104	8.081685
24.122	7.893573
24.14	7.700085
24.158	7.506365
24.176	7.309506
24.194	7.111980
24.212	6.920730
24.23	6.736066
24.248	6.556492
24.266	6.388669
24.284	6.236197
24.302	6.095445
24.32	5.970857
24.338	5.866748
24.356	5.780447
24.374	5.713764
24.392	5.670154
24.41	5.650044
24.428	5.652123
24.446	5.676172
24.464	5.723043
24.482	5.792830
24.5	5.881651
24.518	5.986846
24.536	6.112397
24.554	6.252366
24.572	6.398942
24.59	6.555318
24.608	6.719978
24.626	6.883774
24.644	7.043633
24.662	7.204645
24.68	7.357239
24.698	7.492824
24.716	7.618283
24.734	7.727829
24.752	7.811086
24.77	7.867874
24.788	7.900935
24.806	7.902810
24.824	7.867922
24.842	7.799910
24.86	7.698189
24.878	7.561252
24.896	7.387825
24.914	7.179908
24.932	6.940505
24.95	6.670588
24.968	6.368052
24.986	6.037545
25.004	5.683734
25.022	5.301934
25.04	4.896155
25.058	4.475615
25.076	4.042897
25.094	3.592145
25.112	3.134635
25.13	2.681529
25.148	2.225341
25.166	1.770395
25.184	1.329203
25.202	0.906995
25.22	0.496063
25.238	0.105531
25.256	-0.255000
25.274	-0.590732
25.292	-0.899933
25.31	-1.173611
25.328	-1.406787
25.346	-1.605627
25.364	-1.764845
25.382	-1.878059
25.4	-1.946744
25.418	-1.972037
25.436	-1.949765
25.454	-1.876615
25.472	-1.754928
25.49	-1.584597
25.508	-1.364727
25.526	-1.093839
25.544	-0.772804
25.562	-0.405269
25.58	0.005583
25.598	0.464631
25.616	0.967399
25.634	1.504966
25.652	2.073318
25.67	2.680759
25.688	3.315810
25.706	3.964996
25.724	4.631081
25.742	5.318090
25.76	6.009074
25.778	6.688773
25.796	7.370851
25.814	8.047716
25.832	8.699546
25.85	9.314507
25.868	9.909339
25.886	10.4691
25.904	10.9746
25.922	11.4211
25.94	11.8196
25.958	12.1592
25.976	12.4289
25.994	12.631
26.012	12.7682
26.03	12.8363
26.048	12.8313
26.066	12.7542
26.084	12.6071
26.102	12.3913
26.12	12.1066
26.138	11.751
26.156	11.3292
26.174	10.8468
26.192	10.3032
26.21	9.693793
26.228	9.030443
26.246	8.325489
26.264	7.577168
26.282	6.781110
26.3	5.949076
26.318	5.092522
26.336	4.204363
26.354	3.285426
26.372	2.348666
26.39	1.406093
26.408	0.451928
26.426	-0.514311
26.444	-1.487386
26.462	-2.463081
26.48	-3.445940
26.498	-4.433474
26.516	-5.420799
26.534	-6.403106
26.552	-7.379802
26.57	-8.356369
26.588	-9.338669
26.606	-10.328
26.624	-11.3138
26.642	-12.3105
26.66	-13.335
26.678	-14.3951
26.696	-15.4744
26.714	-16.5878
26.732	-17.7533
26.75	-18.9797
26.768	-20.2524
26.786	-21.5808
26.804	-22.9761
26.822	-24.4456
26.84	-25.9827
26.858	-27.5853
26.876	-29.2521
26.894	-30.9858
26.912	-32.7916
26.93	-34.6558
26.948	-36.5635
26.966	-38.6036
26.984	-40.9307
27.002	-43.1751
27.02	-44.9343
27.028	-45.4029