File: Bakgrunnsmateriale/MATLAB/FTIR/ftir_data/LPE453/Mapping_121/LPE453_t30_cm-1.asc
PE IR       SPECTRUM    SPECTRUM    ASCII       PEDS        1.60
  -1
LPD855~1.ASC
17/05/16
16:49:33.00
17/05/16
16:49:33.00
tln
$LPE453_t0030$<tbV0>[-5.2,-7.8,8.0,0.0,27,1,0]
370
64

2002,4.07
MIRTGS : RIGHTBACK : INTERNAL 2
MIR : ON : INTERNAL 2
OPTKBR

0.200000
8
8.000000
FILLER
RATIO
SPECTRUM
UNLOCKED 256

DOUBLE
64
COMBINED
1
0
0

1.000000
RATIO

1
0
TRUE
51149
0
LEFT NOT FITTED RIGHT NOT FITTED 0
NONE
NONE
15600
12
4.427000
51148
TRUE
1 0 8 72 0 0 0 0

15798

#HDR
-1
-1
#GR
CM-1
%T
2.38419e-05
0.0
5000
-1.000000
4631
8
38.1804
-4.794764
#DATA
5000	-0.191950
4996	-0.478410
4992	-0.535416
4988	-0.303411
4984	-0.011873
4980	0.225520
4976	0.233602
4972	-0.000309
4968	-0.079226
4964	-0.008654
4960	-0.001358
4956	0.135087
4952	0.411224
4948	0.511407
4944	0.426197
4940	0.366663
4936	0.406885
4932	0.482535
4928	0.574040
4924	0.587153
4920	0.383877
4916	0.220680
4912	0.153517
4908	-0.061297
4904	-0.168514
4900	0.051474
4896	0.343251
4892	0.478076
4888	0.312232
4884	0.050902
4880	0.135588
4876	0.413775
4872	0.316143
4868	0.069212
4864	0.105166
4860	0.139665
4856	0.194740
4852	0.405907
4848	0.385379
4844	0.201797
4840	0.257110
4836	0.377035
4832	0.375986
4828	0.356101
4824	0.218915
4820	0.108504
4816	0.146937
4812	0.109982
4808	0.152802
4804	0.341677
4800	0.348806
4796	0.251388
4792	0.319099
4788	0.332427
4784	0.230574
4780	0.333023
4776	0.590372
4772	0.596189
4768	0.276446
4764	0.030517
4760	0.033998
4756	0.249314
4752	0.442719
4748	0.258946
4744	-0.090980
4740	-0.242090
4736	-0.220227
4732	-0.142979
4728	-0.078511
4724	-0.101542
4720	-0.204586
4716	-0.250506
4712	-0.138878
4708	0.078868
4704	0.189399
4700	0.209903
4696	0.220012
4692	0.165319
4688	0.247049
4684	0.409626
4680	0.383138
4676	0.357651
4672	0.468564
4668	0.515985
4664	0.650835
4660	0.645351
4656	0.292277
4652	0.091433
4648	0.066399
4644	0.136280
4640	0.368738
4636	0.595641
4632	0.592875
4628	0.341534
4624	0.392818
4620	0.800585
4616	0.961017
4612	0.665712
4608	0.662326
4604	0.740408
4600	0.247120
4596	-0.021028
4592	0.045514
4588	-0.095963
4584	-0.171709
4580	-0.210499
4576	-0.044775
4572	0.369620
4568	0.266432
4564	-0.264716
4560	-0.785231
4556	-0.979351
4552	-0.580430
4548	-0.017571
4544	0.155329
4540	-0.250840
4536	-1.017594
4532	-2.026653
4528	-2.351832
4524	-2.468776
4520	-3.245258
4516	2.969670
4512	12.5913
4508	17.1037
4504	18.8641
4500	14.6731
4496	7.122087
4492	1.415085
4488	-2.458691
4484	-2.187490
4480	-0.598716
4476	-0.508642
4472	-0.784635
4468	-0.719714
4464	-0.572109
4460	-0.441050
4456	-0.275611
4452	-0.366449
4448	-0.729608
4444	-0.979495
4440	-0.921654
4436	-0.799155
4432	-0.643253
4428	-0.522065
4424	-0.455212
4420	-0.242400
4416	0.053668
4412	0.209498
4408	0.518178
4404	1.005053
4400	0.886487
4396	0.333189
4392	0.062751
4388	0.073671
4384	0.164246
4380	0.149273
4376	0.164866
4372	0.210738
4368	0.229787
4364	0.255799
4360	0.190639
4356	0.192141
4352	0.293278
4348	0.321078
4344	0.222539
4340	0.068497
4336	-0.001573
4332	-0.092005
4328	-0.197315
4324	-0.109219
4320	0.084352
4316	0.165677
4312	0.103187
4308	0.027990
4304	-0.016140
4300	-0.050330
4296	0.057101
4292	0.210452
4288	0.114274
4284	0.030660
4280	0.273203
4276	0.426483
4272	0.227689
4268	0.204896
4264	0.449466
4260	0.413227
4256	0.288534
4252	0.271391
4248	0.152921
4244	0.067877
4240	0.144648
4236	0.296282
4232	0.424695
4228	0.320768
4224	-0.063800
4220	-0.245141
4216	-0.109601
4212	-0.022792
4208	0.061726
4204	0.227332
4200	0.227713
4196	0.130438
4192	0.309443
4188	0.287842
4184	0.037240
4180	0.210642
4176	0.437140
4172	0.510072
4168	0.526928
4164	0.472784
4160	0.465607
4156	0.350356
4152	0.210285
4148	0.259137
4144	0.222349
4140	-0.024557
4136	-0.118517
4132	0.054788
4128	0.152683
4124	0.069713
4120	0.004005
4116	-0.092720
4112	-0.270342
4108	-0.271844
4104	-0.088596
4100	-0.071573
4096	-0.165820
4092	-0.181579
4088	-0.184535
4084	-0.132489
4080	-0.005626
4076	0.108027
4072	0.219607
4068	0.315403
4064	0.232934
4060	0.037932
4056	0.041675
4052	0.128102
4048	0.103020
4044	0.089430
4040	0.122952
4036	0.151920
4032	0.181579
4028	0.252962
4024	0.292801
4020	0.220608
4016	0.144314
4012	0.137448
4008	0.108838
4004	0.069975
4000	0.078201
3996	0.068330
3992	0.063395
3988	0.063681
3984	0.072216
3980	0.105738
3976	0.132107
3972	0.209498
3968	0.259327
3964	0.266218
3960	0.269818
3956	0.187158
3952	0.070881
3948	0.031733
3944	0.107693
3940	0.180959
3936	0.154995
3932	0.065970
3928	-0.014758
3924	-0.049901
3920	-0.159120
3916	-0.259637
3912	-0.141525
3908	0.030088
3904	0.069499
3900	0.029325
3896	0.026249
3892	0.010704
3888	-0.066709
3884	-0.031423
3880	0.142049
3876	0.235033
3872	0.209116
3868	0.146913
3864	0.042724
3860	-0.046205
3856	-0.075364
3852	-0.025033
3848	0.104641
3844	0.211620
3840	0.263905
3836	0.291466
3832	0.246620
3828	0.204277
3824	0.207090
3820	0.101876
3816	-0.060558
3812	-0.109505
3808	-0.082254
3804	-0.091600
3800	-0.168037
3796	-0.186491
3792	-0.108098
3788	-0.018262
3784	0.050282
3780	0.031828
3776	0.020098
3772	0.104761
3768	0.163650
3764	0.174522
3760	0.117135
3756	-0.013375
3752	-0.058245
3748	-0.017333
3744	0.029397
3740	0.054979
3736	-0.031447
3732	-0.104188
3728	0.019359
3724	0.176811
3720	0.166845
3716	0.070428
3712	0.061392
3708	0.087261
3704	0.033020
3700	-0.054287
3696	-0.069212
3692	0.029897
3688	0.092625
3684	0.034523
3680	0.022935
3676	0.055074
3672	0.056791
3668	0.091648
3664	0.101590
3660	0.000524
3656	-0.072193
3652	-0.054073
3648	-0.048303
3644	-0.038099
3640	-0.004410
3636	-0.018548
3632	-0.071597
3628	-0.098633
3624	-0.056838
3620	0.095748
3616	0.225734
3612	0.218772
3608	0.154924
3604	0.036239
3600	-0.062227
3596	-0.028467
3592	0.071358
3588	0.172543
3584	0.242447
3580	0.236940
3576	0.181579
3572	0.121665
3568	0.077486
3564	-0.001740
3560	-0.124287
3556	-0.095987
3552	0.038504
3548	0.035738
3544	-0.022792
3540	0.034308
3536	0.100493
3532	0.109195
3528	0.165939
3524	0.168442
3520	0.039815
3516	-0.037598
3512	0.008797
3508	0.024509
3504	-0.042390
3500	-0.054407
3496	-0.038623
3492	-0.036692
3488	0.011396
3484	0.050377
3480	0.006270
3476	0.008964
3472	0.158977
3468	0.176048
3464	0.008964
3460	-0.023746
3456	0.030636
3452	0.014495
3448	-0.037908
3444	-0.041198
3440	0.021195
3436	0.098443
3432	0.116777
3428	0.051593
3424	0.012087
3420	0.088429
3416	0.150990
3412	0.092768
3408	0.094532
3404	0.236010
3400	0.283765
3396	0.198698
3392	0.153946
3388	0.173091
3384	0.179100
3380	0.154924
3376	0.111031
3372	0.098371
3368	0.109052
3364	0.059819
3360	0.047874
3356	0.060105
3352	0.001454
3348	-0.033330
3344	-0.073146
3340	-0.126218
3336	-0.089073
3332	-0.020956
3328	-0.015425
3324	-0.021719
3320	0.001597
3316	0.045275
3312	0.037074
3308	-0.011897
3304	0.014877
3300	0.040435
3296	-0.000953
3292	-0.037717
3288	-0.049114
3284	0.013327
3280	0.114488
3276	0.110530
3272	0.043988
3268	0.052547
3264	0.080895
3260	-0.026082
3256	-0.140166
3252	-0.073480
3248	-0.004863
3244	-0.027585
3240	-0.019860
3236	-0.010514
3232	-0.008702
3228	0.045394
3224	0.103282
3220	0.097441
3216	0.065064
3212	0.048899
3208	0.014448
3204	-0.018906
3200	0.015640
3196	0.090336
3192	0.106024
3188	0.067734
3184	0.019669
3180	-0.041913
3176	-0.018739
3172	0.077033
3168	0.072216
3164	0.032448
3160	0.052332
3156	0.006890
3152	-0.063633
3148	-0.029730
3144	0.077533
3140	0.147557
3136	0.169467
3132	0.147724
3128	-0.021362
3124	-0.075078
3120	0.134015
3116	0.244522
3112	0.173354
3108	0.103759
3104	0.059032
3100	-0.024628
3096	-0.051188
3092	0.008225
3088	0.036644
3084	0.046443
3080	0.067758
3076	0.077414
3072	0.055718
3068	0.034165
3064	0.045680
3060	0.075793
3056	0.121426
3052	0.161480
3048	0.143814
3044	0.066399
3040	-0.035166
3036	-0.060033
3032	0.031590
3028	0.084233
3024	0.068569
3020	0.083351
3016	0.112938
3012	0.125002
3008	0.098633
3004	0.041723
3000	0.024676
2996	0.044417
2992	0.076985
2988	0.099301
2984	0.073599
2980	0.042295
2976	0.008034
2972	-0.010919
2968	0.011062
2964	-0.008368
2960	-0.024867
2956	0.014662
2952	0.031185
2948	0.009512
2944	-0.009965
2940	0.009965
2936	0.023841
2932	-0.008344
2928	-0.053453
2924	-0.061798
2920	-0.015592
2916	-0.034809
2912	-0.101828
2908	-0.068116
2904	0.040864
2900	0.111484
2896	0.124764
2892	0.113749
2888	0.104355
2884	0.077247
2880	0.033259
2876	0.007057
2872	-0.012540
2868	-0.036144
2864	-0.019001
2860	0.110554
2856	0.225448
2852	0.163936
2848	0.080943
2844	0.105357
2840	0.120496
2836	0.045537
2832	-0.012969
2828	0.023269
2824	0.070905
2820	0.070405
2816	0.053906
2812	0.036549
2808	0.018095
2804	0.051093
2800	0.132751
2796	0.152516
2792	0.106000
2788	0.069355
2784	0.045418
2780	0.024628
2776	-0.011992
2772	-0.021767
2768	-0.008988
2764	-0.021481
2760	-0.001835
2756	0.025415
2752	0.011658
2748	-0.018787
2744	-0.028824
2740	-0.007581
2736	0.029969
2732	0.064682
2728	0.066757
2724	0.050830
2720	0.028634
2716	-0.011849
2712	-0.030636
2708	-0.021028
2704	-0.032401
2700	-0.044608
2696	-0.005269
2692	-0.001811
2688	-0.056314
2684	-0.028944
2680	0.052881
2676	0.070595
2672	0.057291
2668	0.060677
2664	0.064587
2660	0.065803
2656	0.070881
2652	0.054383
2648	0.015902
2644	0.015687
2640	0.015783
2636	-0.031471
2632	-0.070691
2628	-0.091481
2624	-0.059413
2620	0.002932
2616	0.017523
2612	0.044393
2608	0.063681
2604	0.034451
2600	0.026941
2596	0.044941
2592	0.071644
2588	0.099658
2584	0.119018
2580	0.099968
2576	0.063371
2572	0.035095
2568	0.035214
2564	0.073838
2560	0.098943
2556	0.066208
2552	0.001597
2548	-0.011897
2544	0.035095
2540	0.063538
2536	0.025725
2532	-0.032591
2528	-0.059366
2524	-0.097775
2520	-0.099325
2516	-0.024986
2512	-0.012826
2508	-0.079536
2504	-0.106692
2500	-0.039458
2496	0.038576
2492	0.079441
2488	0.077795
2484	-0.000691
2480	-0.054311
2476	-0.062847
2472	-0.073742
2468	-0.039672
2464	-0.017905
2460	-0.059723
2456	-0.082182
2452	-0.010633
2448	0.061845
2444	0.026154
2440	-0.074315
2436	-0.160598
2432	-0.120830
2428	0.036716
2424	0.092792
2420	-0.016570
2416	-0.100350
2412	-0.058603
2408	-0.034976
2404	-0.053691
2400	0.008320
2396	0.123882
2392	0.187587
2388	0.191259
2384	0.191926
2380	0.170946
2376	0.106644
2372	0.066733
2368	0.104975
2364	0.162744
2360	0.148200
2356	0.111389
2352	0.167441
2348	0.292134
2344	0.358033
2340	0.341844
2336	0.336217
2332	0.398683
2328	0.478911
2324	0.514745
2320	0.542902
2316	0.604963
2312	0.679326
2308	0.751924
2304	0.835752
2300	0.917029
2296	0.975012
2292	1.030206
2288	1.098132
2284	1.204347
2280	1.355671
2276	1.452469
2272	1.491498
2268	1.598858
2264	1.750540
2260	1.892328
2256	2.082490
2252	2.288627
2248	2.455711
2244	2.642965
2240	2.865505
2236	3.077602
2232	3.303480
2228	3.595685
2224	3.910779
2220	4.199433
2216	4.492163
2212	4.799365
2208	5.124020
2204	5.476093
2200	5.836081
2196	6.179213
2192	6.520462
2188	6.880617
2184	7.248330
2180	7.650494
2176	8.104085
2172	8.569836
2168	9.085845
2164	9.684896
2160	10.2297
2156	10.6784
2152	11.1381
2148	11.6534
2144	12.1833
2140	12.712
2136	13.2853
2132	13.8497
2128	14.35
2124	14.856
2120	15.4051
2116	15.9532
2112	16.4969
2108	17.0529
2104	17.6147
2100	18.1874
2096	18.7454
2092	19.2612
2088	19.7761
2084	20.293
2080	20.7911
2076	21.3177
2072	21.8256
2068	22.2572
2064	22.7461
2060	23.3784
2056	23.9245
2052	24.2913
2048	24.6752
2044	25.1367
2040	25.6214
2036	26.044
2032	26.4389
2028	26.8609
2024	27.3101
2020	27.7734
2016	28.1521
2012	28.4785
2008	28.8316
2004	29.1678
2000	29.444
1996	29.705
1992	30.0049
1988	30.3216
1984	30.6176
1980	30.8854
1976	31.165
1972	31.4893
1968	31.7701
1964	31.9473
1960	32.1409
1956	32.4079
1952	32.6517
1948	32.8805
1944	33.1294
1940	33.3541
1936	33.5392
1932	33.6902
1928	33.8072
1924	33.9641
1920	34.1824
1916	34.4034
1912	34.6043
1908	34.7584
1904	34.8786
1900	34.9845
1896	35.0893
1892	35.2217
1888	35.3708
1884	35.4683
1880	35.5658
1876	35.7273
1872	35.8506
1868	35.9141
1864	35.9975
1860	36.0994
1856	36.1865
1852	36.2757
1848	36.3261
1844	36.3516
1840	36.4778
1836	36.6418
1832	36.7451
1828	36.8155
1824	36.8558
1820	36.8619
1816	36.8972
1812	37.0032
1808	37.0718
1804	37.0491
1800	37.0317
1796	37.0671
1792	37.1572
1788	37.2851
1784	37.3915
1780	37.4363
1776	37.4325
1772	37.4204
1768	37.4268
1764	37.4416
1760	37.4509
1756	37.5009
1752	37.5802
1748	37.5938
1744	37.5706
1740	37.5918
1736	37.608
1732	37.6059
1728	37.6741
1724	37.7661
1720	37.8035
1716	37.8551
1712	37.9172
1708	37.9026
1704	37.8587
1700	37.8505
1696	37.8555
1692	37.8337
1688	37.805
1684	37.8298
1680	37.9007
1676	37.931
1672	37.8825
1668	37.8616
1664	37.882
1660	37.8851
1656	37.9217
1652	37.9817
1648	38.0134
1644	38.0164
1640	38.0418
1636	38.0813
1632	38.0572
1628	38.0149
1624	37.9807
1620	37.9348
1616	37.9615
1612	37.9885
1608	37.9229
1604	37.9223
1600	37.9883
1596	38.0161
1592	38.0587
1588	38.0842
1584	38.0414
1580	38.0288
1576	38.0367
1572	38.0358
1568	38.0599
1564	38.0023
1560	37.8504
1556	37.7215
1552	37.6703
1548	37.738
1544	37.9144
1540	38.0771
1536	38.1015
1532	38.0405
1528	38.0112
1524	38.0153
1520	38.0363
1516	38.0686
1512	38.0835
1508	38.0595
1504	38.0191
1500	37.963
1496	37.8811
1492	37.8386
1488	37.8554
1484	37.859
1480	37.8279
1476	37.8412
1472	37.9468
1468	38.096
1464	38.1782
1460	38.1567
1456	38.1052
1452	38.0706
1448	38.0183
1444	37.8866
1440	37.7619
1436	37.7703
1432	37.8685
1428	37.9139
1424	37.8468
1420	37.797
1416	37.8957
1412	38.0361
1408	38.1152
1404	38.0867
1400	37.9234
1396	37.8111
1392	37.8361
1388	37.877
1384	37.8629
1380	37.7971
1376	37.7471
1372	37.7602
1368	37.6933
1364	37.541
1360	37.552
1356	37.6725
1352	37.7193
1348	37.7882
1344	37.9062
1340	37.9429
1336	37.8809
1332	37.8104
1328	37.7707
1324	37.7504
1320	37.7369
1316	37.7179
1312	37.697
1308	37.6344
1304	37.5738
1300	37.6081
1296	37.6565
1292	37.6348
1288	37.6044
1284	37.6249
1280	37.671
1276	37.7202
1272	37.7629
1268	37.7733
1264	37.7325
1260	37.6261
1256	37.4888
1252	37.4077
1248	37.3668
1244	37.3231
1240	37.3323
1236	37.366
1232	37.3911
1228	37.4967
1224	37.6641
1220	37.7748
1216	37.7905
1212	37.7615
1208	37.733
1204	37.6827
1200	37.6095
1196	37.5311
1192	37.4671
1188	37.3477
1184	37.1711
1180	37.0862
1176	37.1335
1172	37.2445
1168	37.3527
1164	37.412
1160	37.4215
1156	37.4169
1152	37.4288
1148	37.4883
1144	37.5847
1140	37.6139
1136	37.4829
1132	37.2745
1128	37.0775
1124	36.9318
1120	36.9222
1116	36.9618
1112	36.9049
1108	36.8742
1104	37.0288
1100	37.241
1096	37.3597
1092	37.444
1088	37.4918
1084	37.4236
1080	37.2502
1076	36.9929
1072	36.7998
1068	36.6863
1064	36.5942
1060	36.5554
1056	36.4904
1052	36.4744
1048	36.5284
1044	36.606
1040	36.7592
1036	36.9138
1032	36.9888
1028	37.0128
1024	37.028
1020	36.9687
1016	36.8184
1012	36.5834
1008	36.3245
1004	36.2085
1000	36.1931
996	 36.1357
992	 36.0709
988	 36.1813
984	 36.3406
980	 36.3548
976	 36.4661
972	 36.6345
968	 36.6347
964	 36.5535
960	 36.4639
956	 36.3944
952	 36.3636
948	 36.2859
944	 36.1607
940	 36.014
936	 35.8114
932	 35.6501
928	 35.5901
924	 35.619
920	 35.7096
916	 35.8245
912	 36.0032
908	 36.2111
904	 36.2892
900	 36.1847
896	 36.0337
892	 35.8537
888	 35.6556
884	 35.5635
880	 35.5019
876	 35.2979
872	 35.0709
868	 35.0424
864	 35.1106
860	 35.1649
856	 35.2318
852	 35.3776
848	 35.5249
844	 35.5463
840	 35.53
836	 35.5038
832	 35.4517
828	 35.2703
824	 34.9107
820	 34.6546
816	 34.5569
812	 34.3657
808	 34.0656
804	 33.9461
800	 34.0715
796	 34.2497
792	 34.4299
788	 34.5853
784	 34.6488
780	 34.6417
776	 34.7054
772	 34.8528
768	 34.7938
764	 34.4905
760	 33.9994
756	 33.4276
752	 33.257
748	 33.3518
744	 33.2234
740	 33.1398
736	 33.3342
732	 33.5408
728	 33.6722
724	 33.6388
720	 33.6656
716	 33.9355
712	 34.0811
708	 33.9945
704	 33.6205
700	 33.0662
696	 32.6857
692	 32.5717
688	 32.4977
684	 32.2943
680	 32.1801
676	 32.0539
672	 31.8083
668	 31.8759
664	 32.2263
660	 32.489
656	 32.7798
652	 32.9661
648	 32.7553
644	 32.5441
640	 32.4419
636	 32.2445
632	 32.0958
628	 31.832
624	 31.4266
620	 31.2109
616	 31.1105
612	 30.9648
608	 31.0166
604	 31.1823
600	 31.0955
596	 31.1099
592	 31.2842
588	 31.2634
584	 31.2551
580	 31.1539
576	 30.7968
572	 30.4995
568	 30.2566
564	 29.9313
560	 29.6501
556	 29.5547
552	 29.4275
548	 29.3612
544	 29.751
540	 30.1931
536	 30.21
532	 29.8086
528	 29.3822
524	 29.3611
520	 29.6291
516	 29.4705
512	 28.892
508	 28.8948
504	 29.124
500	 28.7233
496	 27.9751
492	 27.5404
488	 27.3558
484	 27.3013
480	 27.7184
476	 27.6734
472	 27.1991
468	 27.4434
464	 27.802
460	 27.9334
456	 27.8406
452	 26.7745
448	 25.5877
444	 26.0108
440	 27.3306
436	 27.4113
432	 26.5747
428	 26.7494
424	 26.9301
420	 26.2042
416	 27.2352
412	 29.7978
408	 28.0081
404	 20.6437
400	 17.2116
396	 23.5069
392	 26.6648
388	 11.6742
384	 -4.600644
380	 6.008934
376	 26.3248
372	 22.821
370	 5.660724