File: Bakgrunnsmateriale/MATLAB/FTIR/ftir_data/LPE453/Mapping_121/LPE453_t84.asc
PE IR       SPECTRUM    SPECTRUM    ASCII       PEDS        1.60
  -1
LPD3B9~1.ASC
17/05/16
21:14:04.00
17/05/16
21:14:31.00
tln
$LPE453_t0084$<tbV0>[-2.6,5.2,8.0,0.0,27,1,0]
27.028
64

2002,4.07
MIRTGS : RIGHTBACK : INTERNAL 2
MIR : ON : INTERNAL 2
OPTKBR

0.200000
8
8.000000
FILLER
RATIO
SPECTRUM
UNLOCKED 256

DOUBLE
64
COMBINED
1
0
0

0.002000
RATIO

1
0
TRUE
51149
0
LEFT NOT FITTED RIGHT NOT FITTED 0
NONE
NONE
15600
12
4.427000
51148
TRUE
1 0 8 72 0 0 0 0

15798

#HDR
-1
-1
#GR
µM
%T
2.38419e-05
0.0
2.000000
0.002000
12515
8
35.8134
-4.246407
#DATA
2.000000	 -0.178670
2.018000	 0.123441
2.036000	 0.123255
2.054000	 0.411399
2.072000	 -0.083747
2.090000	 0.552378
2.108000	 -0.124887
2.126000	 0.121877
2.144000	 0.837460
2.162000	 0.996580
2.180000	 0.334176
2.198000	 -0.448258
2.216000	 -4.246407
2.234000	 0.159196
2.252000	 -0.997672
2.270000	 0.215128
2.288000	 0.536420
2.306000	 0.784003
2.324000	 0.438206
2.342000	 0.142148
2.360000	 0.001346
2.378000	 -0.044383
2.396000	 0.308491
2.414000	 0.197685
2.432000	 -0.061868
2.450000	 0.000731
2.468000	 0.056019
2.486000	 0.201380
2.504000	 0.230153
2.522000	 0.220255
2.540000	 0.014037
2.558000	 0.222721
2.576000	 0.131558
2.594000	 0.142186
2.612000	 0.216775
2.630000	 0.010431
2.648000	 0.091322
2.666000	 0.006588
2.684000	 0.066256
2.702000	 0.017639
2.720000	 0.155646
2.738000	 -0.045955
2.756000	 -0.022775
2.774000	 -0.076609
2.792000	 -0.119148
2.810000	 0.106873
2.828000	 0.068233
2.846000	 0.078360
2.864000	 0.131238
2.882000	 0.124078
2.900000	 0.095721
2.918000	 0.068755
2.936000	 0.051279
2.954000	 0.066712
2.972000	 0.132345
2.990000	 0.031112
3.008000	 -0.064857
3.026000	 0.221976
3.044000	 0.109644
3.062000	 0.080193
3.080000	 0.162207
3.098000	 0.100211
3.116000	 -0.063124
3.134000	 0.100082
3.152000	 0.025958
3.170000	 0.018204
3.188000	 0.148104
3.206000	 0.040801
3.224000	 0.034906
3.242000	 0.067711
3.260000	 0.063253
3.278000	 -0.041937
3.296000	 -0.054596
3.314000	 -0.010644
3.332000	 0.061993
3.350000	 -0.037131
3.368000	 0.058652
3.386000	 0.022437
3.404000	 -0.016305
3.422000	 0.171363
3.440000	 0.169911
3.458000	 0.021454
3.476000	 -0.060454
3.494000	 -0.064577
3.512000	 0.145612
3.530000	 -0.057859
3.548000	 0.135807
3.566000	 0.071744
3.584000	 0.001072
3.602000	 0.023419
3.620000	 -0.021140
3.638000	 0.167836
3.656000	 -0.114438
3.674000	 0.060465
3.692000	 0.069204
3.710000	 0.146935
3.728000	 0.061441
3.746000	 0.017142
3.764000	 -0.009486
3.782000	 0.109151
3.800000	 0.070047
3.818000	 -0.076387
3.836000	 0.053518
3.854000	 -0.039818
3.872000	 0.024721
3.890000	 0.080145
3.908000	 0.041019
3.926000	 0.108698
3.944000	 0.017081
3.962000	 0.047894
3.980000	 0.012480
3.998000	 -0.027592
4.016000	 0.133999
4.034000	 -0.014084
4.052000	 -0.087843
4.070000	 0.051749
4.088000	 0.010135
4.106000	 0.031037
4.124000	 -0.077949
4.141999	 0.128436
4.160000	 -0.003316
4.178000	 -0.054606
4.196000	 -0.012547
4.214000	 0.144453
4.232000	 0.213414
4.250000	 0.218738
4.268000	 0.228552
4.286000	 0.172038
4.304000	 0.422470
4.322000	 0.482192
4.340000	 0.606752
4.358000	 0.827566
4.375999	 0.892650
4.394000	 1.060506
4.412000	 1.259344
4.430000	 1.651336
4.448000	 1.973426
4.466000	 2.233646
4.484000	 2.816949
4.502000	 3.379896
4.520000	 4.040466
4.538000	 4.541921
4.556000	 5.341539
4.574000	 6.072364
4.592000	 6.988024
4.609999	 7.919705
4.628000	 8.822403
4.646000	 9.770715
4.664000	 10.7875
4.682000	 11.7232
4.700000	 12.8004
4.718000	 13.9765
4.736000	 15.0104
4.754000	 15.9804
4.772000	 16.898
4.790000	 17.9815
4.808000	 18.9885
4.826000	 20.1466
4.843999	 20.9342
4.862000	 21.8361
4.880000	 22.7491
4.898000	 23.5651
4.916000	 24.2314
4.934000	 24.9615
4.952000	 25.6942
4.970000	 26.3387
4.988000	 27.0058
5.006000	 27.6152
5.024000	 28.1276
5.042000	 28.6372
5.060000	 29.0886
5.077999	 29.5964
5.096000	 30.1418
5.114000	 30.5065
5.132000	 30.8473
5.150000	 31.0252
5.168000	 31.2805
5.186000	 31.7414
5.204000	 32.1029
5.222000	 32.3427
5.240000	 32.5774
5.258000	 32.8161
5.276000	 33
5.294000	 33.1384
5.312000	 33.3287
5.330000	 33.4761
5.348000	 33.6591
5.366000	 33.9158
5.384000	 34.0794
5.402000	 34.2057
5.420000	 34.2219
5.438000	 34.2837
5.456000	 34.3831
5.474000	 34.4755
5.492000	 34.6312
5.510000	 34.7369
5.528000	 34.8161
5.546000	 34.9775
5.564000	 35.0606
5.582000	 34.9958
5.600000	 34.953
5.618000	 34.9996
5.636000	 35.0834
5.654000	 35.2094
5.672000	 35.3349
5.690000	 35.429
5.708000	 35.4353
5.726000	 35.3731
5.744000	 35.3794
5.762000	 35.4496
5.780000	 35.3851
5.798000	 35.2263
5.816000	 35.2218
5.834000	 35.4521
5.852000	 35.6211
5.870000	 35.6296
5.888000	 35.6857
5.906000	 35.6921
5.923999	 35.6092
5.942000	 35.5871
5.960000	 35.4985
5.978000	 35.402
5.996000	 35.406
6.014000	 35.5184
6.032000	 35.6219
6.050000	 35.719
6.068000	 35.7844
6.086000	 35.7883
6.104000	 35.7007
6.122000	 35.5812
6.140000	 35.5171
6.158000	 35.4689
6.176000	 35.4261
6.194000	 35.4489
6.212000	 35.4401
6.230000	 35.5104
6.248000	 35.6231
6.266000	 35.6737
6.284000	 35.7623
6.302000	 35.8123
6.320000	 35.721
6.338000	 35.5616
6.356000	 35.4539
6.374000	 35.4013
6.392000	 35.3979
6.410000	 35.4023
6.428000	 35.3966
6.446000	 35.4318
6.464000	 35.4837
6.482000	 35.5605
6.500000	 35.6148
6.518000	 35.6143
6.536000	 35.6287
6.554000	 35.6074
6.572000	 35.5163
6.590000	 35.4108
6.608000	 35.3452
6.626000	 35.3497
6.644000	 35.3929
6.662000	 35.3694
6.680000	 35.2658
6.698000	 35.2926
6.716000	 35.4502
6.734000	 35.5118
6.752000	 35.5208
6.770000	 35.5463
6.788000	 35.5479
6.806000	 35.4761
6.824000	 35.3128
6.842000	 35.1583
6.860000	 35.0678
6.878000	 35.0082
6.896000	 35.0155
6.914000	 35.0996
6.932000	 35.2112
6.950000	 35.3243
6.968000	 35.4021
6.986000	 35.4393
7.004000	 35.4571
7.022000	 35.4379
7.040000	 35.3867
7.058000	 35.3341
7.076000	 35.2495
7.094000	 35.1328
7.112000	 35.0673
7.130000	 35.0516
7.148000	 35.0277
7.166000	 35.0263
7.184000	 35.0634
7.202000	 35.0781
7.220000	 35.0632
7.238000	 35.0737
7.256000	 35.1054
7.274000	 35.1096
7.292000	 35.1062
7.310000	 35.1176
7.328000	 35.0808
7.346000	 34.99
7.364000	 34.9363
7.382000	 34.9181
7.400000	 34.8585
7.418000	 34.7743
7.436000	 34.733
7.454000	 34.741
7.472000	 34.7629
7.490000	 34.7728
7.508000	 34.7837
7.526000	 34.8342
7.544000	 34.9233
7.562000	 35.0005
7.580000	 35.0302
7.598000	 35.0267
7.616000	 35.0221
7.634000	 35.0099
7.652000	 34.953
7.670000	 34.849
7.688000	 34.7314
7.706000	 34.6226
7.724000	 34.5437
7.742000	 34.5161
7.760000	 34.5335
7.778000	 34.5817
7.796000	 34.6589
7.814000	 34.7351
7.832000	 34.7629
7.850000	 34.7523
7.868000	 34.7628
7.886000	 34.8082
7.904000	 34.829
7.922000	 34.7869
7.940000	 34.7298
7.958000	 34.72
7.976000	 34.7443
7.994000	 34.7409
8.012000	 34.6787
8.030000	 34.5754
8.048000	 34.462
8.065999	 34.3581
8.084000	 34.2719
8.102000	 34.2116
8.120000	 34.1891
8.138000	 34.2006
8.155999	 34.2206
8.173999	 34.2423
8.192000	 34.2948
8.210000	 34.389
8.228000	 34.483
8.246000	 34.5246
8.263999	 34.5088
8.282000	 34.4822
8.300000	 34.4821
8.318000	 34.4957
8.336000	 34.4914
8.353999	 34.4674
8.372000	 34.4464
8.390000	 34.4378
8.408000	 34.4255
8.426000	 34.3893
8.443999	 34.3251
8.462000	 34.2488
8.480000	 34.1836
8.498000	 34.1447
8.516000	 34.1278
8.533999	 34.1181
8.552000	 34.1144
8.570000	 34.1284
8.588000	 34.1636
8.606000	 34.2061
8.624000	 34.2378
8.641999	 34.2465
8.660000	 34.2249
8.678000	 34.1723
8.696000	 34.1017
8.714000	 34.0336
8.731999	 33.9811
8.750000	 33.9465
8.768000	 33.9289
8.786000	 33.9249
8.804000	 33.9243
8.821999	 33.9182
8.840000	 33.9087
8.858000	 33.9
8.876000	 33.881
8.894000	 33.8347
8.911999	 33.7715
8.930000	 33.7333
8.948000	 33.753
8.966000	 33.8184
8.984000	 33.889
9.001999	 33.9404
9.020000	 33.976
9.038000	 33.9953
9.056000	 33.9762
9.074000	 33.9019
9.092000	 33.799
9.109999	 33.7304
9.128000	 33.7423
9.146000	 33.8201
9.164000	 33.9012
9.182000	 33.9282
9.199999	 33.8842
9.218000	 33.7854
9.236000	 33.659
9.254000	 33.5345
9.272000	 33.4399
9.289999	 33.3928
9.308000	 33.3863
9.326000	 33.3928
9.344000	 33.3879
9.362000	 33.368
9.379999	 33.3441
9.398000	 33.3264
9.416000	 33.3181
9.434000	 33.3197
9.452000	 33.3307
9.469999	 33.3461
9.488000	 33.3582
9.506000	 33.3621
9.524000	 33.3622
9.542000	 33.3683
9.560000	 33.3855
9.577999	 33.4087
9.596000	 33.4256
9.614000	 33.4227
9.632000	 33.3907
9.650000	 33.3314
9.667999	 33.2602
9.686000	 33.1991
9.704000	 33.1649
9.722000	 33.1619
9.740000	 33.1829
9.757999	 33.2141
9.776000	 33.2391
9.794000	 33.2415
9.812000	 33.2095
9.830000	 33.1422
9.847999	 33.0527
9.866000	 32.9605
9.884000	 32.8808
9.902000	 32.8205
9.920000	 32.7816
9.937999	 32.7697
9.956000	 32.794
9.974000	 32.8593
9.992000	 32.9588
10.01	33.0725
10.028	33.1753
10.046	33.2471
10.064	33.2794
10.082	33.2752
10.1	33.247
10.118	33.2127
10.136	33.189
10.154	33.184
10.172	33.1936
10.19	33.2036
10.208	33.1985
10.226	33.171
10.244	33.1245
10.262	33.0668
10.28	33.0037
10.298	32.9354
10.316	32.8601
10.334	32.7795
10.352	32.7003
10.37	32.6309
10.388	32.5764
10.406	32.5355
10.424	32.5016
10.442	32.4668
10.46	32.425
10.478	32.3737
10.496	32.3156
10.514	32.2598
10.532	32.2206
10.55	32.2124
10.568	32.2433
10.586	32.3092
10.604	32.3942
10.622	32.4762
10.64	32.5382
10.658	32.5752
10.676	32.5942
10.694	32.6062
10.712	32.6175
10.73	32.6233
10.748	32.6107
10.766	32.5679
10.784	32.4941
10.802	32.4051
10.82	32.3267
10.838	32.2847
10.856	32.2892
10.874	32.3296
10.892	32.3794
10.91	32.4089
10.928	32.4008
10.946	32.3565
10.964	32.2928
10.982	32.2306
11	32.1817
11.018	32.1446
11.036	32.1089
11.054	32.0645
11.072	32.0098
11.09	31.9529
11.108	31.9047
11.126	31.8736
11.144	31.8608
11.162	31.8608
11.18	31.8661
11.198	31.8705
11.216	31.8721
11.234	31.8718
11.252	31.871
11.27	31.8708
11.288	31.8722
11.306	31.8759
11.324	31.8847
11.342	31.9016
11.36	31.9277
11.378	31.9598
11.396	31.9898
11.414	32.0061
11.432	31.9973
11.45	31.9569
11.468	31.8859
11.486	31.7929
11.504	31.6918
11.522	31.5978
11.54	31.5216
11.558	31.4683
11.576	31.4367
11.594	31.4206
11.612	31.4114
11.63	31.4007
11.648	31.3821
11.666	31.3512
11.684	31.3065
11.702	31.2487
11.72	31.1814
11.738	31.1104
11.756	31.0431
11.774	30.9868
11.792	30.947
11.81	30.9255
11.828	30.9208
11.846	30.9289
11.864	30.9455
11.882	30.9674
11.9	30.9931
11.918	31.0225
11.936	31.0554
11.954	31.0901
11.972	31.123
11.99	31.1497
12.008	31.1664
12.026	31.171
12.044	31.1645
12.062	31.1502
12.08	31.1328
12.098	31.1167
12.116	31.1056
12.134	31.1018
12.152	31.1062
12.17	31.1181
12.188	31.1357
12.206	31.1555
12.224	31.1731
12.242	31.1833
12.26	31.1813
12.278	31.1628
12.296	31.1263
12.314	31.0725
12.332	31.0044
12.35	30.9271
12.368	30.8456
12.386	30.7648
12.404	30.6886
12.422	30.6192
12.44	30.5575
12.458	30.5028
12.476	30.4536
12.494	30.4083
12.512	30.3657
12.53	30.3261
12.548	30.2913
12.566	30.264
12.584	30.2463
12.602	30.2385
12.62	30.2382
12.638	30.2401
12.656	30.2381
12.674	30.2259
12.692	30.2001
12.71	30.1604
12.728	30.1105
12.746	30.0566
12.764	30.0059
12.782	29.9643
12.8	29.9354
12.818	29.9195
12.836	29.9144
12.854	29.9171
12.872	29.9243
12.89	29.9342
12.908	29.946
12.926	29.9601
12.944	29.9768
12.962	29.9964
12.98	30.0183
12.998	30.041
13.016	30.0627
13.034	30.081
13.052	30.0942
13.07	30.1011
13.088	30.101
13.106	30.0938
13.124	30.0798
13.142	30.0591
13.16	30.0318
13.178	29.9976
13.196	29.9567
13.214	29.9098
13.232	29.8584
13.25	29.8045
13.268	29.7511
13.286	29.7006
13.304	29.6546
13.322	29.6137
13.34	29.5771
13.358	29.5431
13.376	29.5093
13.394	29.4739
13.412	29.4358
13.43	29.3951
13.448	29.3535
13.466	29.313
13.484	29.2757
13.502	29.2431
13.52	29.2156
13.538	29.1923
13.556	29.1717
13.574	29.1526
13.592	29.1341
13.61	29.1165
13.628	29.1011
13.646	29.0894
13.664	29.0831
13.682	29.0827
13.7	29.0879
13.718	29.0968
13.736	29.107
13.754	29.1155
13.772	29.1199
13.79	29.1188
13.808	29.1119
13.826	29.1001
13.844	29.0852
13.862	29.0695
13.88	29.0549
13.898	29.043
13.916	29.0342
13.934	29.0283
13.952	29.0245
13.97	29.0217
13.988	29.0186
14.006	29.0147
14.024	29.0094
14.042	29.0029
14.06	28.9954
14.078	28.9877
14.096	28.98
14.114	28.9728
14.132	28.966
14.15	28.9595
14.168	28.9525
14.186	28.944
14.204	28.9329
14.222	28.9186
14.24	28.9007
14.258	28.8793
14.276	28.8549
14.294	28.8282
14.312	28.7997
14.33	28.7699
14.348	28.7386
14.366	28.7054
14.384	28.6694
14.402	28.6297
14.42	28.5857
14.438	28.5375
14.456	28.4857
14.474	28.4319
14.492	28.3781
14.51	28.3268
14.528	28.2803
14.546	28.24
14.564	28.2063
14.582	28.1787
14.6	28.1558
14.618	28.1357
14.636	28.1165
14.654	28.0969
14.672	28.0769
14.69	28.057
14.708	28.0388
14.726	28.0242
14.744	28.0154
14.762	28.0131
14.78	28.0177
14.798	28.0281
14.816	28.0423
14.834	28.0577
14.852	28.0713
14.87	28.0808
14.888	28.0847
14.906	28.0825
14.924	28.0744
14.942	28.0622
14.96	28.0479
14.978	28.0333
14.996	28.0201
15.014	28.0093
15.032	28.0008
15.05	27.9939
15.068	27.9877
15.086	27.9813
15.104	27.9736
15.122	27.9643
15.14	27.9539
15.158	27.9435
15.176	27.9345
15.194	27.9285
15.212	27.9269
15.23	27.9304
15.248	27.9388
15.266	27.9515
15.284	27.9666
15.302	27.9818
15.32	27.9951
15.338	28.0044
15.356	28.0082
15.374	28.0062
15.392	27.9989
15.41	27.9877
15.428	27.9745
15.446	27.9621
15.464	27.9527
15.482	27.9479
15.5	27.949
15.518	27.9559
15.536	27.9671
15.554	27.9803
15.572	27.9926
15.59	27.9994
15.608	27.9968
15.626	27.9817
15.644	27.9504
15.662	27.9009
15.68	27.8327
15.698	27.7461
15.716	27.6429
15.734	27.5268
15.752	27.4013
15.77	27.2705
15.788	27.14
15.806	27.0138
15.824	26.8952
15.842	26.7875
15.86	26.693
15.878	26.6123
15.896	26.5458
15.914	26.4932
15.932	26.453
15.95	26.4243
15.968	26.4058
15.986	26.3957
16.004	26.3931
16.022	26.3972
16.04	26.4068
16.058	26.4214
16.076	26.4407
16.094	26.4635
16.112	26.489
16.13	26.5162
16.148	26.5437
16.166	26.5695
16.184	26.592
16.202	26.6095
16.22	26.6194
16.238	26.6208
16.256	26.6125
16.274	26.5939
16.292	26.5655
16.31	26.5279
16.328	26.4829
16.346	26.4328
16.364	26.3794
16.382	26.3262
16.4	26.2754
16.418	26.2289
16.436	26.189
16.454	26.1563
16.472	26.1312
16.49	26.1136
16.508	26.1024
16.526	26.0969
16.544	26.0951
16.562	26.0958
16.58	26.098
16.598	26.1003
16.616	26.1029
16.634	26.1056
16.652	26.1093
16.67	26.1149
16.688	26.1235
16.706	26.1368
16.724	26.1554
16.742	26.1806
16.76	26.2126
16.778	26.2513
16.796	26.2962
16.814	26.3461
16.832	26.4
16.85	26.4556
16.868	26.5113
16.886	26.5658
16.904	26.6164
16.922	26.6623
16.94	26.7021
16.958	26.7345
16.976	26.7591
16.994	26.7753
17.012	26.783
17.03	26.7822
17.048	26.7732
17.066	26.7564
17.084	26.7319
17.102	26.7005
17.12	26.6623
17.138	26.6179
17.156	26.5673
17.174	26.5109
17.192	26.4487
17.21	26.3809
17.228	26.3079
17.246	26.2297
17.264	26.1465
17.282	26.0587
17.3	25.9667
17.318	25.8712
17.336	25.7734
17.354	25.6739
17.372	25.5747
17.39	25.4768
17.408	25.3823
17.426	25.2929
17.444	25.2097
17.462	25.1353
17.48	25.0701
17.498	25.0158
17.516	24.9726
17.534	24.9411
17.552	24.9205
17.57	24.9106
17.588	24.9098
17.606	24.9171
17.624	24.9307
17.642	24.9485
17.66	24.9698
17.678	24.9916
17.696	25.0134
17.714	25.0331
17.732	25.0503
17.75	25.0638
17.768	25.0736
17.786	25.0793
17.804	25.0809
17.822	25.0785
17.84	25.0724
17.858	25.063
17.876	25.0507
17.894	25.0361
17.912	25.0196
17.93	25.0017
17.948	24.9827
17.966	24.9635
17.984	24.9442
18.002	24.9258
18.02	24.9088
18.038	24.8937
18.056	24.8813
18.074	24.8719
18.092	24.8661
18.11	24.864
18.128	24.8658
18.146	24.8713
18.164	24.8803
18.182	24.8922
18.2	24.9066
18.218	24.9227
18.236	24.94
18.254	24.9577
18.272	24.9754
18.29	24.9926
18.308	25.0093
18.326	25.0253
18.344	25.0409
18.362	25.0564
18.38	25.0722
18.398	25.0889
18.416	25.1068
18.434	25.1265
18.452	25.1481
18.47	25.172
18.488	25.1977
18.506	25.2252
18.524	25.2533
18.542	25.2817
18.56	25.309
18.578	25.335
18.596	25.3576
18.614	25.3769
18.632	25.3911
18.65	25.4002
18.668	25.4031
18.686	25.4001
18.704	25.391
18.722	25.3761
18.74	25.3559
18.758	25.3309
18.776	25.3022
18.794	25.2701
18.812	25.2359
18.83	25.1996
18.848	25.1625
18.866	25.1245
18.884	25.0861
18.902	25.0473
18.92	25.008
18.938	24.9681
18.956	24.9273
18.974	24.8853
18.992	24.8419
19.01	24.7969
19.028	24.7501
19.046	24.7013
19.064	24.6506
19.082	24.598
19.1	24.5437
19.118	24.488
19.136	24.4313
19.154	24.3738
19.172	24.3159
19.19	24.2576
19.208	24.1997
19.226	24.142
19.244	24.0847
19.262	24.0277
19.28	23.9715
19.298	23.916
19.316	23.8614
19.334	23.8079
19.352	23.7564
19.37	23.7069
19.388	23.6605
19.406	23.6171
19.424	23.5784
19.442	23.5443
19.46	23.5166
19.478	23.4953
19.496	23.4817
19.514	23.4763
19.532	23.4792
19.55	23.4908
19.568	23.5106
19.586	23.5385
19.604	23.5736
19.622	23.6148
19.64	23.6614
19.658	23.711
19.676	23.7637
19.694	23.8157
19.712	23.8674
19.73	23.9156
19.748	23.9602
19.766	23.999
19.784	24.0314
19.802	24.057
19.82	24.075
19.838	24.0858
19.856	24.0896
19.874	24.0867
19.892	24.0786
19.91	24.0653
19.928	24.0491
19.946	24.0298
19.964	24.0101
19.982	23.9899
20	23.9712
20.018	23.9549
20.036	23.9414
20.054	23.9322
20.072	23.9268
20.09	23.9258
20.108	23.9293
20.126	23.9366
20.144	23.948
20.162	23.9623
20.18	23.9794
20.198	23.9982
20.216	24.0176
20.234	24.0374
20.252	24.0553
20.27	24.0719
20.288	24.0848
20.306	24.094
20.324	24.0984
20.342	24.097
20.36	24.0899
20.378	24.0761
20.396	24.0557
20.414	24.0287
20.432	23.9948
20.45	23.955
20.468	23.9093
20.486	23.8583
20.504	23.8032
20.522	23.7439
20.54	23.6826
20.558	23.6188
20.576	23.5543
20.594	23.4897
20.612	23.4255
20.63	23.3632
20.648	23.3026
20.666	23.2448
20.684	23.1899
20.702	23.1382
20.72	23.0901
20.738	23.0454
20.756	23.0044
20.774	22.967
20.792	22.9327
20.81	22.9015
20.828	22.8733
20.846	22.8478
20.864	22.825
20.882	22.8051
20.9	22.7879
20.918	22.7739
20.936	22.7633
20.954	22.7563
20.972	22.7536
20.99	22.7549
21.008	22.7613
21.026	22.7731
21.044	22.7904
21.062	22.8142
21.08	22.8445
21.098	22.8812
21.116	22.925
21.134	22.9751
21.152	23.0309
21.17	23.0929
21.188	23.1587
21.206	23.2287
21.224	23.3014
21.242	23.3741
21.26	23.4479
21.278	23.5187
21.296	23.5865
21.314	23.6499
21.332	23.7053
21.35	23.7539
21.368	23.7927
21.386	23.8207
21.404	23.838
21.422	23.8425
21.44	23.8346
21.458	23.8143
21.476	23.781
21.494	23.7356
21.512	23.6794
21.53	23.6117
21.548	23.5352
21.566	23.4514
21.584	23.36
21.602	23.2654
21.62	23.1669
21.638	23.0669
21.656	22.9689
21.674	22.8715
21.692	22.7784
21.71	22.6904
21.728	22.6075
21.746	22.5324
21.764	22.4648
21.782	22.4049
21.8	22.3535
21.818	22.3102
21.836	22.2743
21.854	22.2464
21.872	22.2253
21.89	22.2092
21.908	22.1989
21.926	22.192
21.944	22.1869
21.962	22.1843
21.98	22.1808
21.998	22.1764
22.016	22.1704
22.034	22.1603
22.052	22.1468
22.07	22.1288
22.088	22.1051
22.106	22.0763
22.124	22.0418
22.142	22.0012
22.16	21.9549
22.178	21.9036
22.196	21.847
22.214	21.7859
22.232	21.7215
22.25	21.6531
22.268	21.5826
22.286	21.511
22.304	21.4379
22.322	21.3655
22.34	21.294
22.358	21.2238
22.376	21.1568
22.394	21.0927
22.412	21.0321
22.43	20.9763
22.448	20.9249
22.466	20.8785
22.484	20.8379
22.502	20.8027
22.52	20.7732
22.538	20.7498
22.556	20.7323
22.574	20.72
22.592	20.7134
22.61	20.7119
22.628	20.7142
22.646	20.7207
22.664	20.7308
22.682	20.7431
22.7	20.7582
22.718	20.7753
22.736	20.793
22.754	20.8123
22.772	20.8313
22.79	20.8484
22.808	20.8646
22.826	20.8779
22.844	20.8868
22.862	20.8924
22.88	20.8929
22.898	20.8876
22.916	20.877
22.934	20.8606
22.952	20.8381
22.97	20.8096
22.988	20.7755
23.006	20.7352
23.024	20.6893
23.042	20.6392
23.06	20.5847
23.078	20.5262
23.096	20.4659
23.114	20.4032
23.132	20.3389
23.15	20.276
23.168	20.2137
23.186	20.1529
23.204	20.0975
23.222	20.047
23.24	20.0019
23.258	19.9654
23.276	19.9375
23.294	19.9178
23.312	19.908
23.33	19.9082
23.348	19.9178
23.366	19.9365
23.384	19.9649
23.402	20.002
23.42	20.0462
23.438	20.0982
23.456	20.1571
23.474	20.2196
23.492	20.2858
23.51	20.3557
23.528	20.4249
23.546	20.4928
23.564	20.5603
23.582	20.623
23.6	20.6798
23.618	20.7319
23.636	20.7761
23.654	20.8108
23.672	20.8372
23.69	20.8541
23.708	20.8603
23.726	20.8563
23.744	20.8426
23.762	20.8195
23.78	20.7865
23.798	20.7449
23.816	20.6962
23.834	20.6394
23.852	20.5758
23.87	20.5074
23.888	20.4335
23.906	20.3547
23.924	20.2725
23.942	20.1874
23.96	20.0988
23.978	20.0069
23.996	19.9121
24.014	19.8143
24.032	19.7122
24.05	19.6054
24.068	19.4949
24.086	19.3781
24.104	19.2526
24.122	19.1212
24.14	18.9802
24.158	18.8248
24.176	18.657
24.194	18.4756
24.212	18.2753
24.23	18.0557
24.248	17.818
24.266	17.5587
24.284	17.2751
24.302	16.9688
24.32	16.6406
24.338	16.2907
24.356	15.9171
24.374	15.5236
24.392	15.1154
24.41	14.6884
24.428	14.2458
24.446	13.7988
24.464	13.3502
24.482	12.8946
24.5	12.4452
24.518	12.0122
24.536	11.5857
24.554	11.1767
24.572	10.801
24.59	10.4534
24.608	10.1353
24.626	9.861395
24.644	9.638059
24.662	9.457255
24.68	9.328938
24.698	9.262763
24.716	9.254783
24.734	9.304745
24.752	9.415114
24.77	9.588174
24.788	9.821544
24.806	10.1105
24.824	10.4531
24.842	10.8541
24.86	11.304
24.878	11.7921
24.896	12.3249
24.914	12.8985
24.932	13.4969
24.95	14.113
24.968	14.757
24.986	15.4143
25.004	16.0698
25.022	16.7331
25.04	17.3985
25.058	18.0489
25.076	18.678
25.094	19.2963
25.112	19.8883
25.13	20.4379
25.148	20.9536
25.166	21.4323
25.184	21.8612
25.202	22.2339
25.22	22.5582
25.238	22.8281
25.256	23.0369
25.274	23.1859
25.292	23.2768
25.31	23.3086
25.328	23.28
25.346	23.1904
25.364	23.0444
25.382	22.8469
25.4	22.5936
25.418	22.2868
25.436	21.937
25.454	21.5512
25.472	21.1199
25.49	20.6533
25.508	20.1657
25.526	19.6569
25.544	19.1203
25.562	18.5742
25.58	18.0351
25.598	17.4903
25.616	16.9463
25.634	16.4228
25.652	15.9311
25.67	15.4571
25.688	15.0124
25.706	14.6115
25.724	14.2555
25.742	13.9382
25.76	13.6678
25.778	13.4522
25.796	13.287
25.814	13.1725
25.832	13.1133
25.85	13.113
25.868	13.17
25.886	13.2817
25.904	13.4458
25.922	13.6627
25.94	13.9333
25.958	14.2534
25.976	14.6186
25.994	15.0349
26.012	15.4989
26.03	15.9989
26.048	16.5256
26.066	17.0921
26.084	17.6879
26.102	18.2942
26.12	18.9014
26.138	19.528
26.156	20.1544
26.174	20.7562
26.192	21.3308
26.21	21.8967
26.228	22.4225
26.246	22.8753
26.264	23.2585
26.282	23.5857
26.3	23.8297
26.318	23.9645
26.336	23.9982
26.354	23.9361
26.372	23.765
26.39	23.4724
26.408	23.0582
26.426	22.5302
26.444	21.8951
26.462	21.1559
26.48	20.2955
26.498	19.3337
26.516	18.2993
26.534	17.2105
26.552	16.0333
26.57	14.7983
26.588	13.548
26.606	12.3071
26.624	11.0365
26.642	9.766009
26.66	8.535079
26.678	7.362406
26.696	6.211528
26.714	5.113822
26.732	4.107389
26.75	3.211893
26.768	2.398162
26.786	1.681832
26.804	1.082514
26.822	0.607730
26.84	0.239644
26.858	-0.006854
26.876	-0.114550
26.894	-0.077381
26.912	0.087852
26.93	0.395963
26.948	0.864020
26.966	1.573824
26.984	2.618910
27.002	3.732009
27.02	4.624359
27.028	4.850792