File: Bakgrunnsmateriale/MATLAB/FTIR/ftir_data/LPE453/Mapping_121/LPE453_t15.asc
PE IR       SPECTRUM    SPECTRUM    ASCII       PEDS        1.60
  -1
LPD79D~1.ASC
17/05/16
15:33:14.00
17/05/16
15:33:40.00
tln
$LPE453_t0015$<tbV0>[5.2,-10.4,8.0,0.0,27,1,0]
27.028
64

2002,4.07
MIRTGS : RIGHTBACK : INTERNAL 2
MIR : ON : INTERNAL 2
OPTKBR

0.200000
8
8.000000
FILLER
RATIO
SPECTRUM
UNLOCKED 256

DOUBLE
64
COMBINED
1
0
0

0.002000
RATIO

1
0
TRUE
51149
0
LEFT NOT FITTED RIGHT NOT FITTED 0
NONE
NONE
15600
12
4.427000
51148
TRUE
1 0 8 72 0 0 0 0

15798

#HDR
-1
-1
#GR
µM
%T
2.38419e-05
0.0
2.000000
0.002000
12515
8
36.6227
-16.8645
#DATA
2.000000	 -0.042343
2.018000	 0.248231
2.036000	 -0.160214
2.054000	 0.542787
2.072000	 0.557321
2.090000	 0.119537
2.108000	 -0.281545
2.126000	 0.040145
2.144000	 0.712093
2.162000	 0.952652
2.180000	 -0.697478
2.198000	 -1.783918
2.216000	 36.6227
2.234000	 -1.436625
2.252000	 -1.628188
2.270000	 0.319049
2.288000	 0.551386
2.306000	 0.572620
2.324000	 0.178416
2.342000	 0.094363
2.360000	 0.475853
2.378000	 0.457061
2.396000	 0.424970
2.414000	 -0.145130
2.432000	 0.288240
2.450000	 -0.129467
2.468000	 0.180083
2.486000	 0.122028
2.504000	 0.145577
2.522000	 0.175384
2.540000	 0.010144
2.558000	 0.251127
2.576000	 -0.051054
2.594000	 -0.081321
2.612000	 0.158860
2.630000	 0.021082
2.648000	 0.082688
2.666000	 0.267189
2.684000	 0.096783
2.702000	 0.178878
2.720000	 0.143980
2.738000	 0.123717
2.756000	 0.062224
2.774000	 0.178068
2.792000	 0.096007
2.810000	 0.175805
2.828000	 0.053683
2.846000	 0.247340
2.864000	 0.287132
2.882000	 0.111074
2.900000	 0.063519
2.918000	 0.034258
2.936000	 0.157940
2.954000	 -0.138500
2.972000	 0.229751
2.990000	 0.251540
3.008000	 -0.014743
3.026000	 0.045100
3.044000	 0.007629
3.062000	 0.082954
3.080000	 -0.021142
3.098000	 0.098186
3.116000	 0.132019
3.134000	 -0.011146
3.152000	 -0.108355
3.170000	 0.033560
3.188000	 0.258459
3.206000	 -0.171477
3.224000	 0.133931
3.242000	 -0.060532
3.260000	 0.085662
3.278000	 0.042880
3.296000	 0.053988
3.314000	 0.075544
3.332000	 0.118117
3.350000	 -0.054559
3.368000	 0.095536
3.386000	 0.049489
3.404000	 0.201622
3.422000	 0.156136
3.440000	 0.054045
3.458000	 0.076094
3.476000	 -0.003368
3.494000	 0.169421
3.512000	 -0.139960
3.530000	 0.081112
3.548000	 0.029707
3.566000	 0.040227
3.584000	 0.005130
3.602000	 0.041801
3.620000	 0.084981
3.638000	 0.073541
3.656000	 0.011957
3.674000	 0.073637
3.692000	 0.122721
3.710000	 0.013925
3.728000	 0.051890
3.746000	 0.097747
3.764000	 0.108705
3.782000	 0.120737
3.800000	 -0.025275
3.818000	 0.090030
3.836000	 0.054242
3.854000	 -0.002861
3.872000	 0.116294
3.890000	 -0.019833
3.908000	 0.009658
3.926000	 -0.020033
3.944000	 0.091770
3.962000	 0.000498
3.980000	 0.036726
3.998000	 0.000665
4.016000	 0.084396
4.034000	 -0.058464
4.052000	 0.149787
4.070000	 0.006811
4.088000	 0.026676
4.106000	 0.130668
4.124000	 0.012381
4.141999	 0.260708
4.160000	 -0.115521
4.178000	 0.163607
4.196000	 0.046017
4.214000	 0.054887
4.232000	 -0.030711
4.250000	 0.034332
4.268000	 0.029308
4.286000	 0.065088
4.304000	 0.034000
4.322000	 0.008123
4.340000	 0.026867
4.358000	 0.149760
4.375999	 0.125922
4.394000	 0.091820
4.412000	 0.289506
4.430000	 0.254336
4.448000	 0.516371
4.466000	 0.660332
4.484000	 0.892096
4.502000	 0.948158
4.520000	 1.309750
4.538000	 1.622122
4.556000	 2.053652
4.574000	 2.495108
4.592000	 2.902331
4.609999	 3.383069
4.628000	 4.085912
4.646000	 4.716266
4.664000	 5.191386
4.682000	 5.846422
4.700000	 6.787935
4.718000	 7.596100
4.736000	 8.467789
4.754000	 9.279255
4.772000	 10.0735
4.790000	 10.9365
4.808000	 11.7629
4.826000	 12.653
4.843999	 13.2834
4.862000	 14.2729
4.880000	 14.9809
4.898000	 15.8847
4.916000	 16.6049
4.934000	 17.2412
4.952000	 18.0327
4.970000	 18.6737
4.988000	 19.3338
5.006000	 19.9688
5.024000	 20.4403
5.042000	 21.069
5.060000	 21.5933
5.077999	 21.957
5.096000	 22.4902
5.114000	 22.998
5.132000	 23.4409
5.150000	 23.8928
5.168000	 24.113
5.186000	 24.3513
5.204000	 24.8027
5.222000	 25.1597
5.240000	 25.3762
5.258000	 25.5489
5.276000	 25.731
5.294000	 25.9824
5.312000	 26.2185
5.330000	 26.4961
5.348000	 26.7146
5.366000	 26.9084
5.384000	 26.9647
5.402000	 27.027
5.420000	 27.2663
5.438000	 27.4107
5.456000	 27.5005
5.474000	 27.6445
5.492000	 27.7846
5.510000	 27.8889
5.528000	 27.899
5.546000	 28.0173
5.564000	 28.2139
5.582000	 28.255
5.600000	 28.2584
5.618000	 28.3837
5.636000	 28.552
5.654000	 28.5954
5.672000	 28.603
5.690000	 28.6144
5.708000	 28.6252
5.726000	 28.6182
5.744000	 28.6631
5.762000	 28.7439
5.780000	 28.7313
5.798000	 28.6205
5.816000	 28.806
5.834000	 28.9494
5.852000	 28.9726
5.870000	 29.0621
5.888000	 29.066
5.906000	 28.9805
5.923999	 29.0519
5.942000	 29.1171
5.960000	 29.0131
5.978000	 28.9855
5.996000	 28.9703
6.014000	 28.9198
6.032000	 28.9955
6.050000	 29.1582
6.068000	 29.1009
6.086000	 29.0503
6.104000	 29.0806
6.122000	 29.0932
6.140000	 29.0215
6.158000	 28.978
6.176000	 29.0238
6.194000	 29.0356
6.212000	 28.9329
6.230000	 28.8767
6.248000	 28.8894
6.266000	 28.8521
6.284000	 28.8614
6.302000	 28.9681
6.320000	 29.009
6.338000	 28.9992
6.356000	 29.0181
6.374000	 28.9906
6.392000	 29.0104
6.410000	 29.1723
6.428000	 29.2076
6.446000	 29.0661
6.464000	 28.9845
6.482000	 29.0281
6.500000	 29.1107
6.518000	 29.0448
6.536000	 28.9313
6.554000	 28.9555
6.572000	 28.9839
6.590000	 28.839
6.608000	 28.7499
6.626000	 28.8786
6.644000	 28.9713
6.662000	 28.9428
6.680000	 28.8988
6.698000	 28.8312
6.716000	 28.765
6.734000	 28.7538
6.752000	 28.7582
6.770000	 28.7764
6.788000	 28.7938
6.806000	 28.7133
6.824000	 28.5843
6.842000	 28.5471
6.860000	 28.6456
6.878000	 28.7559
6.896000	 28.7162
6.914000	 28.6023
6.932000	 28.5487
6.950000	 28.5379
6.968000	 28.5446
6.986000	 28.5754
7.004000	 28.5488
7.022000	 28.4513
7.040000	 28.4143
7.058000	 28.4505
7.076000	 28.4588
7.094000	 28.4212
7.112000	 28.3621
7.130000	 28.3159
7.148000	 28.3452
7.166000	 28.4438
7.184000	 28.52
7.202000	 28.5249
7.220000	 28.4975
7.238000	 28.4775
7.256000	 28.4623
7.274000	 28.4399
7.292000	 28.3913
7.310000	 28.3238
7.328000	 28.2689
7.346000	 28.2225
7.364000	 28.1761
7.382000	 28.1428
7.400000	 28.1165
7.418000	 28.106
7.436000	 28.1418
7.454000	 28.2026
7.472000	 28.2298
7.490000	 28.215
7.508000	 28.1951
7.526000	 28.1716
7.544000	 28.0978
7.562000	 27.9681
7.580000	 27.855
7.598000	 27.8226
7.616000	 27.8617
7.634000	 27.9248
7.652000	 27.9718
7.670000	 27.9886
7.688000	 27.9785
7.706000	 27.9373
7.724000	 27.871
7.742000	 27.8349
7.760000	 27.8809
7.778000	 27.9762
7.796000	 28.0348
7.814000	 28.0042
7.832000	 27.9109
7.850000	 27.8264
7.868000	 27.7911
7.886000	 27.7798
7.904000	 27.747
7.922000	 27.6953
7.940000	 27.6781
7.958000	 27.7314
7.976000	 27.8203
7.994000	 27.8704
8.012000	 27.8461
8.030000	 27.7793
8.048000	 27.7215
8.065999	 27.6899
8.084000	 27.6657
8.102000	 27.6276
8.120000	 27.5808
8.138000	 27.5479
8.155999	 27.5399
8.173999	 27.5567
8.192000	 27.5985
8.210000	 27.6531
8.228000	 27.6843
8.246000	 27.6721
8.263999	 27.6467
8.282000	 27.6493
8.300000	 27.6752
8.318000	 27.6871
8.336000	 27.6606
8.353999	 27.6016
8.372000	 27.535
8.390000	 27.4987
8.408000	 27.5194
8.426000	 27.5812
8.443999	 27.6394
8.462000	 27.6674
8.480000	 27.6776
8.498000	 27.6909
8.516000	 27.7015
8.533999	 27.6828
8.552000	 27.6217
8.570000	 27.5407
8.588000	 27.4848
8.606000	 27.4767
8.624000	 27.4972
8.641999	 27.5123
8.660000	 27.5047
8.678000	 27.4779
8.696000	 27.4461
8.714000	 27.4188
8.731999	 27.3967
8.750000	 27.3836
8.768000	 27.3893
8.786000	 27.4132
8.804000	 27.4301
8.821999	 27.4102
8.840000	 27.3539
8.858000	 27.2977
8.876000	 27.2759
8.894000	 27.2862
8.911999	 27.2973
8.930000	 27.2861
8.948000	 27.2501
8.966000	 27.1888
8.984000	 27.0961
9.001999	 26.9801
9.020000	 26.8767
9.038000	 26.8334
9.056000	 26.8754
9.074000	 26.9864
9.092000	 27.1182
9.109999	 27.2178
9.128000	 27.2507
9.146000	 27.2074
9.164000	 27.0995
9.182000	 26.9547
9.199999	 26.8133
9.218000	 26.7195
9.236000	 26.7014
9.254000	 26.7513
9.272000	 26.83
9.289999	 26.8946
9.308000	 26.9261
9.326000	 26.9342
9.344000	 26.9387
9.362000	 26.9461
9.379999	 26.9445
9.398000	 26.9193
9.416000	 26.873
9.434000	 26.825
9.452000	 26.7951
9.469999	 26.7851
9.488000	 26.7805
9.506000	 26.7688
9.524000	 26.7516
9.542000	 26.7369
9.560000	 26.7219
9.577999	 26.6924
9.596000	 26.6404
9.614000	 26.5761
9.632000	 26.5185
9.650000	 26.476
9.667999	 26.4398
9.686000	 26.4008
9.704000	 26.3672
9.722000	 26.3608
9.740000	 26.3949
9.757999	 26.4579
9.776000	 26.5218
9.794000	 26.5649
9.812000	 26.5858
9.830000	 26.5915
9.847999	 26.5777
9.866000	 26.5276
9.884000	 26.4309
9.902000	 26.3021
9.920000	 26.1769
9.937999	 26.0889
9.956000	 26.0466
9.974000	 26.034
9.992000	 26.0283
10.01	26.0175
10.028	26.0024
10.046	25.9867
10.064	25.9661
10.082	25.9299
10.1	25.8718
10.118	25.7993
10.136	25.7339
10.154	25.6992
10.172	25.7068
10.19	25.749
10.208	25.8027
10.226	25.8441
10.244	25.8621
10.262	25.8653
10.28	25.8732
10.298	25.9012
10.316	25.9469
10.334	25.9897
10.352	26.0062
10.37	25.9845
10.388	25.9337
10.406	25.874
10.424	25.8228
10.442	25.7818
10.46	25.741
10.478	25.6887
10.496	25.6256
10.514	25.5633
10.532	25.5171
10.55	25.4934
10.568	25.4865
10.586	25.482
10.604	25.4686
10.622	25.4438
10.64	25.4149
10.658	25.3917
10.676	25.3802
10.694	25.3782
10.712	25.3777
10.73	25.3709
10.748	25.3533
10.766	25.3255
10.784	25.2907
10.802	25.254
10.82	25.2205
10.838	25.196
10.856	25.185
10.874	25.19
10.892	25.2082
10.91	25.2311
10.928	25.2465
10.946	25.242
10.964	25.2109
10.982	25.1536
11	25.0778
11.018	24.9961
11.036	24.9196
11.054	24.8559
11.072	24.8074
11.09	24.772
11.108	24.7456
11.126	24.7254
11.144	24.7124
11.162	24.7093
11.18	24.7187
11.198	24.7396
11.216	24.7662
11.234	24.7894
11.252	24.8003
11.27	24.7946
11.288	24.7747
11.306	24.7485
11.324	24.7279
11.342	24.7239
11.36	24.7427
11.378	24.7848
11.396	24.8443
11.414	24.9099
11.432	24.966
11.45	24.9978
11.468	24.9936
11.486	24.95
11.504	24.8732
11.522	24.7772
11.54	24.6775
11.558	24.5879
11.576	24.5152
11.594	24.4591
11.612	24.4143
11.63	24.3749
11.648	24.3376
11.666	24.3018
11.684	24.2699
11.702	24.2436
11.72	24.2227
11.738	24.2045
11.756	24.1858
11.774	24.164
11.792	24.1386
11.81	24.1109
11.828	24.0836
11.846	24.0606
11.864	24.0452
11.882	24.0397
11.9	24.0452
11.918	24.0612
11.936	24.0859
11.954	24.1158
11.972	24.1463
11.99	24.1722
12.008	24.1883
12.026	24.1906
12.044	24.1774
12.062	24.149
12.08	24.1077
12.098	24.0575
12.116	24.0028
12.134	23.9476
12.152	23.8949
12.17	23.846
12.188	23.8009
12.206	23.7589
12.224	23.7192
12.242	23.6818
12.26	23.6473
12.278	23.6163
12.296	23.5884
12.314	23.5622
12.332	23.5357
12.35	23.5074
12.368	23.4777
12.386	23.4492
12.404	23.4274
12.422	23.4185
12.44	23.427
12.458	23.4535
12.476	23.4944
12.494	23.5416
12.512	23.5846
12.53	23.6142
12.548	23.625
12.566	23.6165
12.584	23.5923
12.602	23.5584
12.62	23.5208
12.638	23.4843
12.656	23.4516
12.674	23.4242
12.692	23.403
12.71	23.3897
12.728	23.3866
12.746	23.3956
12.764	23.4171
12.782	23.4491
12.8	23.4863
12.818	23.5211
12.836	23.5448
12.854	23.55
12.872	23.5318
12.89	23.4896
12.908	23.4263
12.926	23.3482
12.944	23.2631
12.962	23.179
12.98	23.103
12.998	23.04
13.016	22.993
13.034	22.9619
13.052	22.9449
13.07	22.9378
13.088	22.9345
13.106	22.928
13.124	22.9117
13.142	22.8809
13.16	22.8332
13.178	22.7703
13.196	22.6978
13.214	22.6244
13.232	22.5594
13.25	22.5108
13.268	22.4828
13.286	22.4756
13.304	22.4846
13.322	22.5019
13.34	22.5182
13.358	22.5257
13.376	22.5203
13.394	22.5021
13.412	22.4751
13.43	22.4467
13.448	22.4251
13.466	22.4168
13.484	22.4255
13.502	22.4509
13.52	22.4899
13.538	22.5372
13.556	22.5877
13.574	22.6378
13.592	22.6864
13.61	22.7351
13.628	22.7868
13.646	22.8444
13.664	22.909
13.682	22.9791
13.7	23.0493
13.718	23.1117
13.736	23.1567
13.754	23.1759
13.772	23.163
13.79	23.116
13.808	23.0369
13.826	22.9325
13.844	22.8125
13.862	22.6872
13.88	22.5665
13.898	22.4578
13.916	22.3656
13.934	22.2914
13.952	22.2338
13.97	22.1895
13.988	22.1542
14.006	22.1239
14.024	22.0953
14.042	22.066
14.06	22.0348
14.078	22.0013
14.096	21.9658
14.114	21.9287
14.132	21.8901
14.15	21.8509
14.168	21.8119
14.186	21.7747
14.204	21.7405
14.222	21.7113
14.24	21.6889
14.258	21.6756
14.276	21.6728
14.294	21.6815
14.312	21.7022
14.33	21.7344
14.348	21.777
14.366	21.828
14.384	21.8842
14.402	21.9416
14.42	21.9959
14.438	22.0425
14.456	22.0772
14.474	22.0967
14.492	22.0986
14.51	22.0827
14.528	22.0507
14.546	22.0059
14.564	21.9525
14.582	21.8949
14.6	21.8376
14.618	21.7848
14.636	21.739
14.654	21.7008
14.672	21.6696
14.69	21.6438
14.708	21.6209
14.726	21.5982
14.744	21.5728
14.762	21.5429
14.78	21.5079
14.798	21.468
14.816	21.4239
14.834	21.3774
14.852	21.3304
14.87	21.2848
14.888	21.2421
14.906	21.2036
14.924	21.1696
14.942	21.1401
14.96	21.1139
14.978	21.0895
14.996	21.0652
15.014	21.0389
15.032	21.0084
15.05	20.972
15.068	20.9291
15.086	20.8798
15.104	20.8251
15.122	20.7672
15.14	20.7091
15.158	20.6542
15.176	20.6056
15.194	20.5669
15.212	20.5411
15.23	20.5297
15.248	20.5335
15.266	20.5528
15.284	20.5861
15.302	20.6312
15.32	20.6855
15.338	20.7462
15.356	20.8098
15.374	20.8731
15.392	20.9331
15.41	20.9875
15.428	21.0339
15.446	21.0703
15.464	21.0955
15.482	21.1083
15.5	21.1079
15.518	21.0941
15.536	21.0669
15.554	21.0269
15.572	20.9752
15.59	20.9134
15.608	20.8436
15.626	20.768
15.644	20.6892
15.662	20.6112
15.68	20.537
15.698	20.4697
15.716	20.413
15.734	20.3698
15.752	20.3419
15.77	20.3306
15.788	20.3357
15.806	20.3553
15.824	20.387
15.842	20.4271
15.86	20.4697
15.878	20.5104
15.896	20.5448
15.914	20.5675
15.932	20.5759
15.95	20.5685
15.968	20.5447
15.986	20.5062
16.004	20.4551
16.022	20.3941
16.04	20.3278
16.058	20.2594
16.076	20.1913
16.094	20.1268
16.112	20.0668
16.13	20.0116
16.148	19.961
16.166	19.9135
16.184	19.8678
16.202	19.8227
16.22	19.7768
16.238	19.7297
16.256	19.6812
16.274	19.6324
16.292	19.5848
16.31	19.5397
16.328	19.4997
16.346	19.4663
16.364	19.4404
16.382	19.4234
16.4	19.4149
16.418	19.4145
16.436	19.4206
16.454	19.4313
16.472	19.445
16.49	19.4586
16.508	19.4703
16.526	19.4788
16.544	19.4824
16.562	19.4811
16.58	19.475
16.598	19.4651
16.616	19.453
16.634	19.4398
16.652	19.428
16.67	19.4187
16.688	19.4132
16.706	19.4126
16.724	19.4168
16.742	19.4257
16.76	19.438
16.778	19.4528
16.796	19.4683
16.814	19.483
16.832	19.4959
16.85	19.5055
16.868	19.5118
16.886	19.5145
16.904	19.5142
16.922	19.5115
16.94	19.507
16.958	19.5018
16.976	19.496
16.994	19.4906
17.012	19.485
17.03	19.4789
17.048	19.4709
17.066	19.4597
17.084	19.4435
17.102	19.4202
17.12	19.3888
17.138	19.3474
17.156	19.296
17.174	19.2342
17.192	19.1637
17.21	19.0855
17.228	19.0025
17.246	18.9178
17.264	18.8336
17.282	18.7546
17.3	18.6823
17.318	18.6204
17.336	18.5703
17.354	18.5333
17.372	18.5096
17.39	18.4985
17.408	18.4989
17.426	18.5079
17.444	18.5243
17.462	18.5437
17.48	18.5649
17.498	18.5837
17.516	18.599
17.534	18.6088
17.552	18.6118
17.57	18.6076
17.588	18.5967
17.606	18.58
17.624	18.5585
17.642	18.5349
17.66	18.5104
17.678	18.4883
17.696	18.4694
17.714	18.4565
17.732	18.4502
17.75	18.4519
17.768	18.4611
17.786	18.4778
17.804	18.5003
17.822	18.528
17.84	18.5576
17.858	18.5873
17.876	18.6147
17.894	18.6366
17.912	18.6517
17.93	18.6571
17.948	18.6522
17.966	18.6358
17.984	18.6085
18.002	18.5706
18.02	18.5243
18.038	18.471
18.056	18.4148
18.074	18.3569
18.092	18.303
18.11	18.254
18.128	18.2153
18.146	18.1876
18.164	18.1745
18.182	18.176
18.2	18.1936
18.218	18.2259
18.236	18.2727
18.254	18.3302
18.272	18.3976
18.29	18.469
18.308	18.5436
18.326	18.6148
18.344	18.6817
18.362	18.7384
18.38	18.7844
18.398	18.8158
18.416	18.8327
18.434	18.8335
18.452	18.8195
18.47	18.7909
18.488	18.7506
18.506	18.6994
18.524	18.6418
18.542	18.5785
18.56	18.5146
18.578	18.4506
18.596	18.3907
18.614	18.3353
18.632	18.2875
18.65	18.2472
18.668	18.2153
18.686	18.1918
18.704	18.176
18.722	18.1675
18.74	18.1643
18.758	18.1657
18.776	18.1695
18.794	18.175
18.812	18.1796
18.83	18.183
18.848	18.183
18.866	18.1796
18.884	18.1716
18.902	18.1591
18.92	18.1417
18.938	18.1199
18.956	18.094
18.974	18.0646
18.992	18.0322
19.01	17.9975
19.028	17.9614
19.046	17.9243
19.064	17.8872
19.082	17.8502
19.1	17.8142
19.118	17.7791
19.136	17.7455
19.154	17.7132
19.172	17.6826
19.19	17.6535
19.208	17.6262
19.226	17.6006
19.244	17.5769
19.262	17.5553
19.28	17.536
19.298	17.5191
19.316	17.5052
19.334	17.4944
19.352	17.4869
19.37	17.4829
19.388	17.4825
19.406	17.4857
19.424	17.4921
19.442	17.5015
19.46	17.5129
19.478	17.5264
19.496	17.54
19.514	17.5537
19.532	17.5656
19.55	17.5747
19.568	17.5799
19.586	17.5797
19.604	17.5738
19.622	17.5608
19.64	17.5409
19.658	17.5133
19.676	17.4784
19.694	17.437
19.712	17.3889
19.73	17.3362
19.748	17.2787
19.766	17.219
19.784	17.1572
19.802	17.0953
19.82	17.0344
19.838	16.9754
19.856	16.9198
19.874	16.8677
19.892	16.8203
19.91	16.7773
19.928	16.739
19.946	16.7053
19.964	16.6754
19.982	16.6494
20	16.6262
20.018	16.6053
20.036	16.5862
20.054	16.5677
20.072	16.5498
20.09	16.5315
20.108	16.5129
20.126	16.4935
20.144	16.4733
20.162	16.4526
20.18	16.4315
20.198	16.4106
20.216	16.3905
20.234	16.3714
20.252	16.3548
20.27	16.3404
20.288	16.3296
20.306	16.3225
20.324	16.3195
20.342	16.3213
20.36	16.3276
20.378	16.3386
20.396	16.3543
20.414	16.3736
20.432	16.3969
20.45	16.4227
20.468	16.4505
20.486	16.4795
20.504	16.5077
20.522	16.5355
20.54	16.5603
20.558	16.5826
20.576	16.6005
20.594	16.6133
20.612	16.6208
20.63	16.6217
20.648	16.6162
20.666	16.6038
20.684	16.5843
20.702	16.5583
20.72	16.5258
20.738	16.4871
20.756	16.4438
20.774	16.3953
20.792	16.3439
20.81	16.2895
20.828	16.2335
20.846	16.1777
20.864	16.1218
20.882	16.0684
20.9	16.0173
20.918	15.9699
20.936	15.9275
20.954	15.8898
20.972	15.8587
20.99	15.8337
21.008	15.8155
21.026	15.8045
21.044	15.8006
21.062	15.8038
21.08	15.8141
21.098	15.8309
21.116	15.8542
21.134	15.8835
21.152	15.9176
21.17	15.957
21.188	15.9996
21.206	16.0456
21.224	16.094
21.242	16.1429
21.26	16.1929
21.278	16.2418
21.296	16.2894
21.314	16.3351
21.332	16.377
21.35	16.4158
21.368	16.4498
21.386	16.4788
21.404	16.5027
21.422	16.5203
21.44	16.5319
21.458	16.5374
21.476	16.5364
21.494	16.5292
21.512	16.5158
21.53	16.4962
21.548	16.4706
21.566	16.4393
21.584	16.4022
21.602	16.3598
21.62	16.312
21.638	16.2593
21.656	16.2019
21.674	16.1397
21.692	16.0734
21.71	16.003
21.728	15.9289
21.746	15.8523
21.764	15.7727
21.782	15.6913
21.8	15.6092
21.818	15.526
21.836	15.4439
21.854	15.3628
21.872	15.2836
21.89	15.2083
21.908	15.1362
21.926	15.0691
21.944	15.0081
21.962	14.9528
21.98	14.9047
21.998	14.8641
22.016	14.8308
22.034	14.8055
22.052	14.7883
22.07	14.7783
22.088	14.7756
22.106	14.7802
22.124	14.7899
22.142	14.8047
22.16	14.8242
22.178	14.8455
22.196	14.8695
22.214	14.8944
22.232	14.9178
22.25	14.9409
22.268	14.9615
22.286	14.9784
22.304	14.9921
22.322	15.0012
22.34	15.0052
22.358	15.0046
22.376	14.9991
22.394	14.9884
22.412	14.9734
22.43	14.9549
22.448	14.9323
22.466	14.9072
22.484	14.8808
22.502	14.8524
22.52	14.824
22.538	14.7965
22.556	14.7695
22.574	14.745
22.592	14.7234
22.61	14.7046
22.628	14.69
22.646	14.6796
22.664	14.6734
22.682	14.6722
22.7	14.6758
22.718	14.684
22.736	14.6964
22.754	14.7132
22.772	14.7338
22.79	14.7577
22.808	14.7853
22.826	14.8152
22.844	14.8466
22.862	14.88
22.88	14.9135
22.898	14.9464
22.916	14.9791
22.934	15.0093
22.952	15.0364
22.97	15.0609
22.988	15.0801
23.006	15.0935
23.024	15.1016
23.042	15.1022
23.06	15.0952
23.078	15.0809
23.096	15.0583
23.114	15.0269
23.132	14.9873
23.15	14.9405
23.168	14.8859
23.186	14.8241
23.204	14.757
23.222	14.6835
23.24	14.605
23.258	14.525
23.276	14.442
23.294	14.3579
23.312	14.2778
23.33	14.2008
23.348	14.1279
23.366	14.0643
23.384	14.0099
23.402	13.9647
23.42	13.9318
23.438	13.9115
23.456	13.9032
23.474	13.9089
23.492	13.9288
23.51	13.9624
23.528	14.0101
23.546	14.073
23.564	14.1501
23.582	14.2391
23.6	14.3401
23.618	14.4535
23.636	14.5744
23.654	14.7012
23.672	14.8359
23.69	14.9727
23.708	15.108
23.726	15.2452
23.744	15.3788
23.762	15.5038
23.78	15.6232
23.798	15.7343
23.816	15.8332
23.834	15.921
23.852	15.9977
23.87	16.0623
23.888	16.1145
23.906	16.1551
23.924	16.1853
23.942	16.2041
23.96	16.2123
23.978	16.2127
23.996	16.2051
24.014	16.1889
24.032	16.1691
24.05	16.1486
24.068	16.1243
24.086	16.1013
24.104	16.0844
24.122	16.0704
24.14	16.0623
24.158	16.0654
24.176	16.0782
24.194	16.1011
24.212	16.1369
24.23	16.1872
24.248	16.2505
24.266	16.3254
24.284	16.412
24.302	16.5114
24.32	16.6192
24.338	16.7315
24.356	16.8509
24.374	16.975
24.392	17.0993
24.41	17.2257
24.428	17.3531
24.446	17.4765
24.464	17.5936
24.482	17.707
24.5	17.8133
24.518	17.9096
24.536	17.9988
24.554	18.0777
24.572	18.1422
24.59	18.1931
24.608	18.2307
24.626	18.2519
24.644	18.2562
24.662	18.2455
24.68	18.2152
24.698	18.1615
24.716	18.0871
24.734	17.9902
24.752	17.8671
24.77	17.7191
24.788	17.5466
24.806	17.3436
24.824	17.1063
24.842	16.8389
24.86	16.5374
24.878	16.197
24.896	15.8199
24.914	15.4057
24.932	14.949
24.95	14.447
24.968	13.9032
24.986	13.3148
25.004	12.6787
25.022	11.9948
25.04	11.2649
25.058	10.4904
25.076	9.670714
25.094	8.804754
25.112	7.898278
25.13	6.956593
25.148	5.971634
25.166	4.951231
25.184	3.910966
25.202	2.855032
25.22	1.772572
25.238	0.684289
25.256	-0.388798
25.274	-1.463653
25.292	-2.530112
25.31	-3.556671
25.328	-4.528112
25.346	-5.468548
25.364	-6.348459
25.382	-7.133734
25.4	-7.836407
25.418	-8.458156
25.436	-8.966061
25.454	-9.335539
25.472	-9.589388
25.49	-9.713878
25.508	-9.686724
25.526	-9.501669
25.544	-9.170394
25.562	-8.686022
25.58	-8.041290
25.598	-7.230958
25.616	-6.265911
25.634	-5.160471
25.652	-3.918499
25.67	-2.522707
25.688	-1.004586
25.706	0.599862
25.724	2.301721
25.742	4.110190
25.76	5.970440
25.778	7.833330
25.796	9.745535
25.814	11.6792
25.832	13.5651
25.85	15.3617
25.868	17.1275
25.886	18.8099
25.904	20.3412
25.922	21.7106
25.94	22.9566
25.958	24.0258
25.976	24.8643
25.994	25.4853
26.012	25.9002
26.03	26.0837
26.048	26.0121
26.066	25.6885
26.084	25.1272
26.102	24.34
26.12	23.328
26.138	22.0688
26.156	20.6026
26.174	18.9762
26.192	17.192
26.21	15.2136
26.228	13.1128
26.246	10.9645
26.264	8.752503
26.282	6.450487
26.3	4.139596
26.318	1.899053
26.336	-0.310715
26.354	-2.492832
26.372	-4.577686
26.39	-6.501359
26.408	-8.303615
26.426	-9.980078
26.444	-11.4899
26.462	-12.7971
26.48	-13.9192
26.498	-14.8635
26.516	-15.6279
26.534	-16.2073
26.552	-16.5901
26.57	-16.7998
26.588	-16.8645
26.606	-16.7977
26.624	-16.5675
26.642	-16.2082
26.66	-15.763
26.678	-15.2513
26.696	-14.6328
26.714	-13.946
26.732	-13.2369
26.75	-12.5273
26.768	-11.7794
26.786	-11.0217
26.804	-10.2883
26.822	-9.596121
26.84	-8.919516
26.858	-8.272559
26.876	-7.672448
26.894	-7.130002
26.912	-6.634820
26.93	-6.185559
26.948	-5.781939
26.966	-5.419541
26.984	-5.092067
27.002	-4.815004
27.02	-4.605172
27.028	-4.545116