File: Bakgrunnsmateriale/MATLAB/FTIR/ftir_data/LPE453/Mapping_121/LPE453_t33.asc
PE IR       SPECTRUM    SPECTRUM    ASCII       PEDS        1.60
  -1
LPCF95~1.ASC
17/05/16
17:03:23.00
17/05/16
17:03:49.00
tln
$LPE453_t0033$<tbV0>[-13.0,-7.8,8.0,0.0,27,1,0]
27.028
64

2002,4.07
MIRTGS : RIGHTBACK : INTERNAL 2
MIR : ON : INTERNAL 2
OPTKBR

0.200000
8
8.000000
FILLER
RATIO
SPECTRUM
UNLOCKED 256

DOUBLE
64
COMBINED
1
0
0

0.002000
RATIO

1
0
TRUE
51149
0
LEFT NOT FITTED RIGHT NOT FITTED 0
NONE
NONE
15600
12
4.427000
51148
TRUE
1 0 8 72 0 0 0 0

15798

#HDR
-1
-1
#GR
µM
%T
2.38419e-05
0.0
2.000000
0.002000
12515
8
44.3849
-74.1541
#DATA
2.000000	 -0.035691
2.018000	 0.669245
2.036000	 -0.258323
2.054000	 -0.105360
2.072000	 -0.102892
2.090000	 0.258627
2.108000	 -0.080308
2.126000	 0.067926
2.144000	 0.218765
2.162000	 0.107437
2.180000	 0.690639
2.198000	 1.398668
2.216000	 3.405893
2.234000	 -0.345965
2.252000	 0.300932
2.270000	 0.604472
2.288000	 0.320232
2.306000	 0.233878
2.324000	 0.142626
2.342000	 -0.030565
2.360000	 -0.016278
2.378000	 -0.032775
2.396000	 -0.178572
2.414000	 -0.191627
2.432000	 -0.078394
2.450000	 0.128023
2.468000	 0.142219
2.486000	 0.056896
2.504000	 -0.114553
2.522000	 -0.049171
2.540000	 0.092977
2.558000	 0.219077
2.576000	 0.110513
2.594000	 0.093668
2.612000	 -0.079965
2.630000	 -0.022027
2.648000	 0.183279
2.666000	 -0.005496
2.684000	 0.147738
2.702000	 0.052637
2.720000	 0.108151
2.738000	 0.037924
2.756000	 0.070291
2.774000	 0.017143
2.792000	 0.242415
2.810000	 0.062413
2.828000	 -0.078786
2.846000	 -0.012470
2.864000	 -0.010264
2.882000	 0.084849
2.900000	 0.017247
2.918000	 0.167020
2.936000	 0.038594
2.954000	 0.187201
2.972000	 0.133725
2.990000	 0.168005
3.008000	 0.081542
3.026000	 0.156640
3.044000	 0.136236
3.062000	 0.000917
3.080000	 0.121937
3.098000	 -0.052950
3.116000	 -0.139008
3.134000	 0.103250
3.152000	 0.125717
3.170000	 0.008754
3.188000	 0.293062
3.206000	 0.292034
3.224000	 -0.188152
3.242000	 -0.080621
3.260000	 0.066758
3.278000	 0.062707
3.296000	 -0.006480
3.314000	 0.112218
3.332000	 0.073552
3.350000	 0.209524
3.368000	 0.153276
3.386000	 0.070295
3.404000	 -0.016053
3.422000	 0.097861
3.440000	 -0.004947
3.458000	 -0.000985
3.476000	 0.051265
3.494000	 0.019133
3.512000	 0.074083
3.530000	 0.091208
3.548000	 -0.013930
3.566000	 0.122439
3.584000	 0.072519
3.602000	 0.046629
3.620000	 0.023186
3.638000	 0.131987
3.656000	 0.067956
3.674000	 -0.041174
3.692000	 -0.068405
3.710000	 -0.036303
3.728000	 0.019025
3.746000	 0.023096
3.764000	 0.042794
3.782000	 0.034579
3.800000	 0.118733
3.818000	 0.140238
3.836000	 0.106658
3.854000	 0.044683
3.872000	 0.015605
3.890000	 0.108078
3.908000	 -0.066338
3.926000	 0.029501
3.944000	 -0.024071
3.962000	 0.066578
3.980000	 0.018972
3.998000	 0.149523
4.016000	 0.052811
4.034000	 0.072003
4.052000	 -0.010042
4.070000	 0.021398
4.088000	 0.064017
4.106000	 0.235801
4.124000	 -0.212424
4.141999	 0.292608
4.160000	 0.165910
4.178000	 -0.039719
4.196000	 0.031490
4.214000	 -0.003667
4.232000	 0.095203
4.250000	 -0.068500
4.268000	 -0.051274
4.286000	 0.138915
4.304000	 0.074454
4.322000	 0.132183
4.340000	 0.171892
4.358000	 0.224723
4.375999	 0.315802
4.394000	 0.327086
4.412000	 0.446672
4.430000	 0.622488
4.448000	 0.796086
4.466000	 0.949523
4.484000	 1.297324
4.502000	 1.533022
4.520000	 1.651953
4.538000	 2.118144
4.556000	 2.598196
4.574000	 2.975266
4.592000	 3.513491
4.609999	 3.943564
4.628000	 4.677935
4.646000	 5.501692
4.664000	 5.777724
4.682000	 6.713955
4.700000	 7.531101
4.718000	 8.275520
4.736000	 9.081168
4.754000	 9.886420
4.772000	 10.6493
4.790000	 11.4587
4.808000	 12.4703
4.826000	 13.2948
4.843999	 14.2528
4.862000	 14.7957
4.880000	 15.6221
4.898000	 16.3854
4.916000	 17.0884
4.934000	 17.7244
4.952000	 18.4786
4.970000	 19.1075
4.988000	 19.7267
5.006000	 20.1692
5.024000	 20.6734
5.042000	 21.2963
5.060000	 21.9358
5.077999	 22.5149
5.096000	 22.9186
5.114000	 23.3013
5.132000	 23.6973
5.150000	 24.1705
5.168000	 24.3409
5.186000	 24.7812
5.204000	 25.1516
5.222000	 25.4593
5.240000	 25.8007
5.258000	 26.0669
5.276000	 26.3456
5.294000	 26.5886
5.312000	 26.7771
5.330000	 26.9764
5.348000	 27.2268
5.366000	 27.432
5.384000	 27.6859
5.402000	 27.8896
5.420000	 28.1043
5.438000	 28.2894
5.456000	 28.3889
5.474000	 28.5576
5.492000	 28.6331
5.510000	 28.826
5.528000	 29.0068
5.546000	 29.1846
5.564000	 29.3169
5.582000	 29.4482
5.600000	 29.445
5.618000	 29.4159
5.636000	 29.5627
5.654000	 29.7622
5.672000	 29.8591
5.690000	 29.932
5.708000	 30.012
5.726000	 30.0911
5.744000	 30.2645
5.762000	 30.2975
5.780000	 30.3254
5.798000	 30.3592
5.816000	 30.3237
5.834000	 30.4077
5.852000	 30.4787
5.870000	 30.5434
5.888000	 30.63
5.906000	 30.6551
5.923999	 30.7188
5.942000	 30.7876
5.960000	 30.7334
5.978000	 30.716
5.996000	 30.7905
6.014000	 30.8491
6.032000	 30.915
6.050000	 31.0526
6.068000	 31.1349
6.086000	 31.0556
6.104000	 31.0098
6.122000	 31.0701
6.140000	 31.087
6.158000	 31.0775
6.176000	 31.1253
6.194000	 31.1701
6.212000	 31.161
6.230000	 31.1783
6.248000	 31.2455
6.266000	 31.3157
6.284000	 31.3691
6.302000	 31.3629
6.320000	 31.3345
6.338000	 31.3454
6.356000	 31.327
6.374000	 31.3802
6.392000	 31.434
6.410000	 31.4255
6.428000	 31.4869
6.446000	 31.5691
6.464000	 31.6072
6.482000	 31.6149
6.500000	 31.6071
6.518000	 31.575
6.536000	 31.4938
6.554000	 31.4253
6.572000	 31.4993
6.590000	 31.6314
6.608000	 31.6825
6.626000	 31.6559
6.644000	 31.6097
6.662000	 31.6443
6.680000	 31.7129
6.698000	 31.7087
6.716000	 31.6767
6.734000	 31.6137
6.752000	 31.5396
6.770000	 31.5238
6.788000	 31.5305
6.806000	 31.544
6.824000	 31.5894
6.842000	 31.5832
6.860000	 31.5162
6.878000	 31.5357
6.896000	 31.6291
6.914000	 31.6257
6.932000	 31.5554
6.950000	 31.5607
6.968000	 31.6145
6.986000	 31.6058
7.004000	 31.5555
7.022000	 31.5053
7.040000	 31.4512
7.058000	 31.4473
7.076000	 31.4935
7.094000	 31.5227
7.112000	 31.5424
7.130000	 31.5605
7.148000	 31.5606
7.166000	 31.553
7.184000	 31.5205
7.202000	 31.466
7.220000	 31.4402
7.238000	 31.4167
7.256000	 31.3426
7.274000	 31.2838
7.292000	 31.2948
7.310000	 31.307
7.328000	 31.2801
7.346000	 31.2716
7.364000	 31.3012
7.382000	 31.3028
7.400000	 31.2516
7.418000	 31.222
7.436000	 31.2722
7.454000	 31.3685
7.472000	 31.4165
7.490000	 31.3437
7.508000	 31.1909
7.526000	 31.0692
7.544000	 31.0214
7.562000	 31.0213
7.580000	 31.0639
7.598000	 31.1459
7.616000	 31.2096
7.634000	 31.1981
7.652000	 31.1473
7.670000	 31.1261
7.688000	 31.1298
7.706000	 31.1242
7.724000	 31.1202
7.742000	 31.1322
7.760000	 31.1507
7.778000	 31.1658
7.796000	 31.1509
7.814000	 31.0808
7.832000	 30.9925
7.850000	 30.9536
7.868000	 30.9707
7.886000	 30.9946
7.904000	 30.9917
7.922000	 30.9732
7.940000	 30.9694
7.958000	 30.9839
7.976000	 30.9901
7.994000	 30.9761
8.012000	 30.9645
8.030000	 30.9726
8.048000	 30.9792
8.065999	 30.9558
8.084000	 30.9061
8.102000	 30.8492
8.120000	 30.7877
8.138000	 30.7253
8.155999	 30.69
8.173999	 30.6994
8.192000	 30.7188
8.210000	 30.6948
8.228000	 30.6178
8.246000	 30.5384
8.263999	 30.5186
8.282000	 30.5667
8.300000	 30.627
8.318000	 30.6435
8.336000	 30.6179
8.353999	 30.5896
8.372000	 30.5728
8.390000	 30.5449
8.408000	 30.4974
8.426000	 30.4587
8.443999	 30.4512
8.462000	 30.4567
8.480000	 30.4453
8.498000	 30.418
8.516000	 30.4002
8.533999	 30.4029
8.552000	 30.4084
8.570000	 30.3938
8.588000	 30.3594
8.606000	 30.3245
8.624000	 30.3001
8.641999	 30.2729
8.660000	 30.2299
8.678000	 30.1825
8.696000	 30.1517
8.714000	 30.1356
8.731999	 30.1092
8.750000	 30.0568
8.768000	 29.9908
8.786000	 29.9373
8.804000	 29.9151
8.821999	 29.9245
8.840000	 29.9434
8.858000	 29.9427
8.876000	 29.9199
8.894000	 29.9087
8.911999	 29.9431
8.930000	 30.011
8.948000	 30.0605
8.966000	 30.0515
8.984000	 29.9952
9.001999	 29.9317
9.020000	 29.8808
9.038000	 29.8262
9.056000	 29.7411
9.074000	 29.6303
9.092000	 29.5368
9.109999	 29.5127
9.128000	 29.5789
9.146000	 29.7033
9.164000	 29.8152
9.182000	 29.8499
9.199999	 29.7922
9.218000	 29.6876
9.236000	 29.6074
9.254000	 29.5979
9.272000	 29.6487
9.289999	 29.7053
9.308000	 29.7105
9.326000	 29.6411
9.344000	 29.5198
9.362000	 29.3978
9.379999	 29.3242
9.398000	 29.317
9.416000	 29.3548
9.434000	 29.3943
9.452000	 29.4035
9.469999	 29.379
9.488000	 29.3392
9.506000	 29.3002
9.524000	 29.2632
9.542000	 29.2219
9.560000	 29.1769
9.577999	 29.1377
9.596000	 29.1126
9.614000	 29.1001
9.632000	 29.0937
9.650000	 29.0862
9.667999	 29.0732
9.686000	 29.049
9.704000	 29.0049
9.722000	 28.9356
9.740000	 28.8445
9.757999	 28.7455
9.776000	 28.6571
9.794000	 28.5944
9.812000	 28.5661
9.830000	 28.5755
9.847999	 28.6217
9.866000	 28.6988
9.884000	 28.7936
9.902000	 28.888
9.920000	 28.9634
9.937999	 29.0049
9.956000	 29.0031
9.974000	 28.9553
9.992000	 28.8685
10.01	28.7632
10.028	28.6708
10.046	28.6206
10.064	28.6212
10.082	28.6553
10.1	28.6909
10.118	28.7011
10.136	28.679
10.154	28.6346
10.172	28.5829
10.19	28.5338
10.208	28.4898
10.226	28.4516
10.244	28.4209
10.262	28.3996
10.28	28.3874
10.298	28.3845
10.316	28.3938
10.334	28.4175
10.352	28.4507
10.37	28.4794
10.388	28.4873
10.406	28.4676
10.424	28.4284
10.442	28.3883
10.46	28.3608
10.478	28.3453
10.496	28.3273
10.514	28.2915
10.532	28.2338
10.55	28.1625
10.568	28.0893
10.586	28.0222
10.604	27.9628
10.622	27.9089
10.64	27.8594
10.658	27.8157
10.676	27.7818
10.694	27.7612
10.712	27.7553
10.73	27.7629
10.748	27.7804
10.766	27.8027
10.784	27.8243
10.802	27.8398
10.82	27.8465
10.838	27.844
10.856	27.8332
10.874	27.8149
10.892	27.789
10.91	27.7564
10.928	27.7204
10.946	27.6868
10.964	27.6617
10.982	27.6482
11	27.6432
11.018	27.6382
11.036	27.6228
11.054	27.589
11.072	27.536
11.09	27.4696
11.108	27.3988
11.126	27.3336
11.144	27.2798
11.162	27.2392
11.18	27.209
11.198	27.1838
11.216	27.1578
11.234	27.1264
11.252	27.0874
11.27	27.0423
11.288	26.9965
11.306	26.9578
11.324	26.9356
11.342	26.9378
11.36	26.9677
11.378	27.0238
11.396	27.0988
11.414	27.1797
11.432	27.2509
11.45	27.2981
11.468	27.3111
11.486	27.2884
11.504	27.2379
11.522	27.1745
11.54	27.1144
11.558	27.0712
11.576	27.0503
11.594	27.0487
11.612	27.0567
11.63	27.0627
11.648	27.058
11.666	27.039
11.684	27.0075
11.702	26.9681
11.72	26.9258
11.738	26.8829
11.756	26.8385
11.774	26.7895
11.792	26.7326
11.81	26.6662
11.828	26.5912
11.846	26.511
11.864	26.4306
11.882	26.3556
11.9	26.2912
11.918	26.2422
11.936	26.2121
11.954	26.2032
11.972	26.2151
11.99	26.245
12.008	26.2863
12.026	26.3299
12.044	26.3653
12.062	26.3833
12.08	26.3781
12.098	26.3488
12.116	26.2985
12.134	26.234
12.152	26.1641
12.17	26.0975
12.188	26.0428
12.206	26.0068
12.224	25.9943
12.242	26.0068
12.26	26.0422
12.278	26.0943
12.296	26.1528
12.314	26.2054
12.332	26.2408
12.35	26.2513
12.368	26.2348
12.386	26.1957
12.404	26.1434
12.422	26.0892
12.44	26.0434
12.458	26.0132
12.476	26.0018
12.494	26.008
12.512	26.0275
12.53	26.054
12.548	26.0806
12.566	26.1007
12.584	26.1095
12.602	26.1044
12.62	26.0851
12.638	26.0531
12.656	26.0108
12.674	25.9612
12.692	25.9082
12.71	25.8552
12.728	25.8062
12.746	25.7651
12.764	25.7356
12.782	25.7206
12.8	25.7213
12.818	25.7372
12.836	25.7659
12.854	25.8033
12.872	25.8438
12.89	25.8815
12.908	25.911
12.926	25.9275
12.944	25.9277
12.962	25.9098
12.98	25.8739
12.998	25.8218
13.016	25.7577
13.034	25.688
13.052	25.6214
13.07	25.5671
13.088	25.5339
13.106	25.5284
13.124	25.5531
13.142	25.6059
13.16	25.6801
13.178	25.7655
13.196	25.8503
13.214	25.9235
13.232	25.9771
13.25	26.0073
13.268	26.0141
13.286	26.0006
13.304	25.9718
13.322	25.932
13.34	25.8845
13.358	25.8301
13.376	25.7681
13.394	25.697
13.412	25.6159
13.43	25.5255
13.448	25.4283
13.466	25.3288
13.484	25.2325
13.502	25.145
13.52	25.0704
13.538	25.0111
13.556	24.9674
13.574	24.9373
13.592	24.9177
13.61	24.905
13.628	24.8949
13.646	24.8836
13.664	24.8675
13.682	24.8436
13.7	24.8096
13.718	24.7646
13.736	24.7096
13.754	24.6467
13.772	24.5804
13.79	24.5161
13.808	24.4605
13.826	24.4195
13.844	24.3982
13.862	24.3998
13.88	24.4252
13.898	24.4723
13.916	24.5366
13.934	24.6115
13.952	24.6894
13.97	24.7626
13.988	24.8244
14.006	24.8697
14.024	24.8957
14.042	24.9023
14.06	24.8914
14.078	24.8665
14.096	24.8312
14.114	24.7892
14.132	24.7436
14.15	24.6967
14.168	24.6496
14.186	24.6025
14.204	24.5557
14.222	24.5094
14.24	24.4645
14.258	24.4222
14.276	24.3848
14.294	24.3542
14.312	24.3322
14.33	24.3197
14.348	24.3163
14.366	24.3203
14.384	24.328
14.402	24.3349
14.42	24.3361
14.438	24.327
14.456	24.3041
14.474	24.2657
14.492	24.2121
14.51	24.1458
14.528	24.0713
14.546	23.9941
14.564	23.9198
14.582	23.8535
14.6	23.7992
14.618	23.7592
14.636	23.7337
14.654	23.721
14.672	23.718
14.69	23.721
14.708	23.7261
14.726	23.7296
14.744	23.7288
14.762	23.7224
14.78	23.7102
14.798	23.6931
14.816	23.6724
14.834	23.6505
14.852	23.6297
14.87	23.6119
14.888	23.5982
14.906	23.5892
14.924	23.5846
14.942	23.5836
14.96	23.5845
14.978	23.5853
14.996	23.584
15.014	23.5788
15.032	23.5678
15.05	23.5503
15.068	23.5267
15.086	23.4981
15.104	23.4662
15.122	23.434
15.14	23.4051
15.158	23.3826
15.176	23.3694
15.194	23.3683
15.212	23.3804
15.23	23.4052
15.248	23.4406
15.266	23.4839
15.284	23.53
15.302	23.5736
15.32	23.6101
15.338	23.635
15.356	23.6447
15.374	23.6374
15.392	23.614
15.41	23.5763
15.428	23.5276
15.446	23.4737
15.464	23.4199
15.482	23.371
15.5	23.3317
15.518	23.3063
15.536	23.2957
15.554	23.2999
15.572	23.318
15.59	23.3455
15.608	23.378
15.626	23.4109
15.644	23.4385
15.662	23.4553
15.68	23.4583
15.698	23.4451
15.716	23.4144
15.734	23.3677
15.752	23.3073
15.77	23.2359
15.788	23.1585
15.806	23.0795
15.824	23.0024
15.842	22.9311
15.86	22.8684
15.878	22.8155
15.896	22.7731
15.914	22.7408
15.932	22.7173
15.95	22.7016
15.968	22.6921
15.986	22.6872
16.004	22.686
16.022	22.6877
16.04	22.6916
16.058	22.6973
16.076	22.7046
16.094	22.7131
16.112	22.7223
16.13	22.7315
16.148	22.7395
16.166	22.745
16.184	22.7467
16.202	22.7435
16.22	22.7342
16.238	22.7188
16.256	22.6971
16.274	22.6702
16.292	22.6393
16.31	22.6056
16.328	22.5716
16.346	22.5386
16.364	22.508
16.382	22.4812
16.4	22.4581
16.418	22.4388
16.436	22.4221
16.454	22.4068
16.472	22.3918
16.49	22.3753
16.508	22.3567
16.526	22.3356
16.544	22.3123
16.562	22.2881
16.58	22.2642
16.598	22.2433
16.616	22.2277
16.634	22.2191
16.652	22.2202
16.67	22.2313
16.688	22.2534
16.706	22.2854
16.724	22.3259
16.742	22.3728
16.76	22.4224
16.778	22.4727
16.796	22.5197
16.814	22.5611
16.832	22.5952
16.85	22.6202
16.868	22.6364
16.886	22.6435
16.904	22.6434
16.922	22.6373
16.94	22.6272
16.958	22.6155
16.976	22.6032
16.994	22.5924
17.012	22.5833
17.03	22.5762
17.048	22.5708
17.066	22.5663
17.084	22.5617
17.102	22.5557
17.12	22.5476
17.138	22.5362
17.156	22.5213
17.174	22.5025
17.192	22.4803
17.21	22.455
17.228	22.4278
17.246	22.3995
17.264	22.3706
17.282	22.3419
17.3	22.3136
17.318	22.2859
17.336	22.2583
17.354	22.2306
17.372	22.2019
17.39	22.172
17.408	22.1402
17.426	22.1065
17.444	22.0708
17.462	22.0338
17.48	21.9959
17.498	21.9584
17.516	21.9222
17.534	21.8884
17.552	21.8581
17.57	21.8319
17.588	21.8105
17.606	21.7937
17.624	21.7816
17.642	21.773
17.66	21.7676
17.678	21.7632
17.696	21.7593
17.714	21.7538
17.732	21.7459
17.75	21.7345
17.768	21.719
17.786	21.6993
17.804	21.6754
17.822	21.6477
17.84	21.6174
17.858	21.5857
17.876	21.554
17.894	21.5245
17.912	21.498
17.93	21.4767
17.948	21.461
17.966	21.4523
17.984	21.4508
18.002	21.4569
18.02	21.4702
18.038	21.4904
18.056	21.5159
18.074	21.5462
18.092	21.5788
18.11	21.6133
18.128	21.647
18.146	21.6793
18.164	21.708
18.182	21.7325
18.2	21.7515
18.218	21.7647
18.236	21.7715
18.254	21.7722
18.272	21.7666
18.29	21.7559
18.308	21.7403
18.326	21.7216
18.344	21.7001
18.362	21.6776
18.38	21.6546
18.398	21.6323
18.416	21.6112
18.434	21.5925
18.452	21.5762
18.47	21.5628
18.488	21.5522
18.506	21.5445
18.524	21.5389
18.542	21.5351
18.56	21.5324
18.578	21.5305
18.596	21.5281
18.614	21.5249
18.632	21.5196
18.65	21.5122
18.668	21.5011
18.686	21.4861
18.704	21.4661
18.722	21.4412
18.74	21.41
18.758	21.3724
18.776	21.3277
18.794	21.2758
18.812	21.2159
18.83	21.1483
18.848	21.0728
18.866	20.9898
18.884	20.8998
18.902	20.8036
18.92	20.7021
18.938	20.5967
18.956	20.489
18.974	20.3806
18.992	20.2738
19.01	20.17
19.028	20.072
19.046	19.9808
19.064	19.8993
19.082	19.828
19.1	19.769
19.118	19.7224
19.136	19.6895
19.154	19.6697
19.172	19.6632
19.19	19.6694
19.208	19.6873
19.226	19.7161
19.244	19.7536
19.262	19.7993
19.28	19.8501
19.298	19.9058
19.316	19.9631
19.334	20.0221
19.352	20.08
19.37	20.1368
19.388	20.1902
19.406	20.2401
19.424	20.2851
19.442	20.3252
19.46	20.3596
19.478	20.388
19.496	20.4106
19.514	20.4271
19.532	20.4378
19.55	20.4427
19.568	20.4423
19.586	20.4368
19.604	20.4267
19.622	20.4127
19.64	20.3948
19.658	20.3742
19.676	20.3509
19.694	20.3265
19.712	20.301
19.73	20.276
19.748	20.2513
19.766	20.2286
19.784	20.208
19.802	20.1903
19.82	20.1762
19.838	20.1657
19.856	20.1596
19.874	20.1578
19.892	20.1603
19.91	20.167
19.928	20.1774
19.946	20.1914
19.964	20.2079
19.982	20.2268
20	20.247
20.018	20.268
20.036	20.289
20.054	20.3087
20.072	20.3269
20.09	20.3418
20.108	20.3536
20.126	20.3608
20.144	20.3634
20.162	20.3608
20.18	20.3526
20.198	20.3389
20.216	20.3191
20.234	20.2935
20.252	20.2619
20.27	20.2245
20.288	20.1818
20.306	20.1337
20.324	20.081
20.342	20.024
20.36	19.9632
20.378	19.8995
20.396	19.8329
20.414	19.765
20.432	19.6954
20.45	19.6256
20.468	19.5559
20.486	19.487
20.504	19.4201
20.522	19.3549
20.54	19.2933
20.558	19.2348
20.576	19.1808
20.594	19.1318
20.612	19.0879
20.63	19.05
20.648	19.0178
20.666	18.9922
20.684	18.9731
20.702	18.9605
20.72	18.9546
20.738	18.9552
20.756	18.962
20.774	18.975
20.792	18.9931
20.81	19.0162
20.828	19.0435
20.846	19.0738
20.864	19.1072
20.882	19.1414
20.9	19.1767
20.918	19.2116
20.936	19.245
20.954	19.2769
20.972	19.3054
20.99	19.3307
21.008	19.3522
21.026	19.3693
21.044	19.3824
21.062	19.3914
21.08	19.3962
21.098	19.3984
21.116	19.3977
21.134	19.3952
21.152	19.393
21.17	19.3903
21.188	19.39
21.206	19.3923
21.224	19.3978
21.242	19.4087
21.26	19.4243
21.278	19.4458
21.296	19.4739
21.314	19.5079
21.332	19.548
21.35	19.5944
21.368	19.645
21.386	19.6999
21.404	19.7579
21.422	19.8158
21.44	19.8749
21.458	19.9317
21.476	19.9848
21.494	20.0344
21.512	20.0768
21.53	20.1128
21.548	20.1409
21.566	20.1594
21.584	20.169
21.602	20.1692
21.62	20.1594
21.638	20.1407
21.656	20.1141
21.674	20.0791
21.692	20.0385
21.71	19.9925
21.728	19.942
21.746	19.8906
21.764	19.8372
21.782	19.7844
21.8	19.7343
21.818	19.6861
21.836	19.6421
21.854	19.6027
21.872	19.5678
21.89	19.5384
21.908	19.5142
21.926	19.4952
21.944	19.4813
21.962	19.4725
21.98	19.4673
21.998	19.4662
22.016	19.4683
22.034	19.4716
22.052	19.477
22.07	19.4831
22.088	19.4887
22.106	19.4944
22.124	19.4993
22.142	19.5031
22.16	19.506
22.178	19.5081
22.196	19.5092
22.214	19.51
22.232	19.511
22.25	19.5119
22.268	19.5139
22.286	19.5176
22.304	19.5227
22.322	19.5306
22.34	19.5412
22.358	19.5547
22.376	19.5717
22.394	19.5923
22.412	19.6164
22.43	19.644
22.448	19.675
22.466	19.7093
22.484	19.747
22.502	19.788
22.52	19.8323
22.538	19.8797
22.556	19.9304
22.574	19.9844
22.592	20.0416
22.61	20.102
22.628	20.1659
22.646	20.2331
22.664	20.3039
22.682	20.3788
22.7	20.4577
22.718	20.5408
22.736	20.6286
22.754	20.7209
22.772	20.8176
22.79	20.9188
22.808	21.0247
22.826	21.134
22.844	21.2462
22.862	21.3616
22.88	21.4787
22.898	21.5972
22.916	21.7174
22.934	21.8358
22.952	21.952
22.97	22.0662
22.988	22.1751
23.006	22.2788
23.024	22.3769
23.042	22.4646
23.06	22.5422
23.078	22.6092
23.096	22.6605
23.114	22.6967
23.132	22.7172
23.15	22.7168
23.168	22.6958
23.186	22.6541
23.204	22.5885
23.222	22.4989
23.24	22.3857
23.258	22.2479
23.276	22.0849
23.294	21.8979
23.312	21.6885
23.33	21.4552
23.348	21.2001
23.366	20.9287
23.384	20.6388
23.402	20.3328
23.42	20.0194
23.438	19.6969
23.456	19.3669
23.474	19.0401
23.492	18.7163
23.51	18.3954
23.528	18.0889
23.546	17.7988
23.564	17.5226
23.582	17.2699
23.6	17.0443
23.618	16.8422
23.636	16.6693
23.654	16.5289
23.672	16.4185
23.69	16.3388
23.708	16.291
23.726	16.2753
23.744	16.2879
23.762	16.3266
23.78	16.3947
23.798	16.4853
23.816	16.5913
23.834	16.7181
23.852	16.8589
23.87	17.0032
23.888	17.1555
23.906	17.3118
23.924	17.4605
23.942	17.6025
23.96	17.7382
23.978	17.8577
23.996	17.9574
24.014	18.0411
24.032	18.1034
24.05	18.1401
24.068	18.1538
24.086	18.144
24.104	18.1099
24.122	18.0514
24.14	17.9697
24.158	17.8662
24.176	17.7395
24.194	17.5913
24.212	17.426
24.23	17.2429
24.248	17.0418
24.266	16.8289
24.284	16.6072
24.302	16.3729
24.32	16.1328
24.338	15.8932
24.356	15.6495
24.374	15.4059
24.392	15.1695
24.41	14.9382
24.428	14.7126
24.446	14.4996
24.464	14.3022
24.482	14.1172
24.5	13.9478
24.518	13.7968
24.536	13.6619
24.554	13.5449
24.572	13.4486
24.59	13.3705
24.608	13.3122
24.626	13.2798
24.644	13.2759
24.662	13.297
24.68	13.3473
24.698	13.431
24.716	13.5472
24.734	13.6943
24.752	13.8715
24.77	14.0803
24.788	14.3196
24.806	14.5849
24.824	14.8732
24.842	15.1881
24.86	15.5246
24.878	15.8768
24.896	16.2491
24.914	16.6385
24.932	17.0344
24.95	17.4325
24.968	17.8405
24.986	18.2455
25.004	18.6346
25.022	19.016
25.04	19.3849
25.058	19.7264
25.076	20.0346
25.094	20.3187
25.112	20.5666
25.13	20.766
25.148	20.9229
25.166	21.0357
25.184	21.0959
25.202	21.0987
25.22	21.0488
25.238	20.9451
25.256	20.786
25.274	20.5695
25.292	20.2988
25.31	19.9789
25.328	19.6114
25.346	19.1913
25.364	18.7283
25.382	18.233
25.4	17.6989
25.418	17.128
25.436	16.5373
25.454	15.9383
25.472	15.316
25.49	14.6852
25.508	14.0667
25.526	13.4611
25.544	12.8587
25.562	12.2825
25.58	11.7536
25.598	11.2565
25.616	10.7984
25.634	10.4018
25.652	10.079
25.67	9.812656
25.688	9.618821
25.706	9.517584
25.724	9.509362
25.742	9.585872
25.76	9.760024
25.778	10.0437
25.796	10.43
25.814	10.9197
25.832	11.5199
25.85	12.2373
25.868	13.0703
25.886	14.0117
25.904	15.0546
25.922	16.2013
25.94	17.4557
25.958	18.8003
25.976	20.2179
25.994	21.7274
26.012	23.3202
26.03	24.9584
26.048	26.6112
26.066	28.3162
26.084	30.0466
26.102	31.7523
26.12	33.4067
26.138	35.0592
26.156	36.6593
26.174	38.1435
26.192	39.4993
26.21	40.7727
26.228	41.8997
26.246	42.8127
26.264	43.5205
26.282	44.0506
26.3	44.3447
26.318	44.346
26.336	44.0731
26.354	43.5373
26.372	42.7096
26.39	41.5624
26.408	40.1022
26.426	38.3402
26.444	36.2805
26.462	33.9233
26.48	31.2485
26.498	28.2839
26.516	25.0681
26.534	21.6238
26.552	17.901
26.57	13.9506
26.588	9.841792
26.606	5.610996
26.624	1.186252
26.642	-3.364438
26.66	-7.954775
26.678	-12.5452
26.696	-17.2176
26.714	-21.8958
26.732	-26.4886
26.75	-30.9564
26.768	-35.3788
26.786	-39.6885
26.804	-43.8062
26.822	-47.6981
26.84	-51.4306
26.858	-54.9535
26.876	-58.2082
26.894	-61.1654
26.912	-63.8711
26.93	-66.3029
26.948	-68.4329
26.966	-70.2458
26.984	-71.7632
27.002	-72.9795
27.02	-73.8861
27.028	-74.1541