File: Bakgrunnsmateriale/MATLAB/FTIR/ftir_data/LPE453/Mapping_121/LPE453_t46.asc
PE IR       SPECTRUM    SPECTRUM    ASCII       PEDS        1.60
  -1
LPD3A1~1.ASC
17/05/16
18:10:53.00
17/05/16
18:11:19.00
tln
$LPE453_t0046$<tbV0>[10.4,-2.6,8.0,0.0,27,1,0]
27.028
64

2002,4.07
MIRTGS : RIGHTBACK : INTERNAL 2
MIR : ON : INTERNAL 2
OPTKBR

0.200000
8
8.000000
FILLER
RATIO
SPECTRUM
UNLOCKED 256

DOUBLE
64
COMBINED
1
0
0

0.002000
RATIO

1
0
TRUE
51149
0
LEFT NOT FITTED RIGHT NOT FITTED 0
NONE
NONE
15600
12
4.427000
51148
TRUE
1 0 8 72 0 0 0 0

15798

#HDR
-1
-1
#GR
µM
%T
2.38419e-05
0.0
2.000000
0.002000
12515
8
23.1146
-7.726876
#DATA
2.000000	 -0.082921
2.018000	 0.192676
2.036000	 0.227401
2.054000	 -0.059428
2.072000	 0.215720
2.090000	 0.375581
2.108000	 -0.095396
2.126000	 0.547794
2.144000	 0.094519
2.162000	 -0.458267
2.180000	 0.263594
2.198000	 -0.567839
2.216000	 16.9173
2.234000	 -0.908732
2.252000	 -0.353352
2.270000	 0.267117
2.288000	 -0.039845
2.306000	 -0.076423
2.324000	 -0.099077
2.342000	 0.078711
2.360000	 0.264710
2.378000	 -0.002506
2.396000	 -0.008218
2.414000	 0.129798
2.432000	 0.168687
2.450000	 0.013432
2.468000	 0.048693
2.486000	 0.101423
2.504000	 0.058221
2.522000	 -0.059544
2.540000	 0.119209
2.558000	 -0.031311
2.576000	 0.200610
2.594000	 0.000190
2.612000	 0.177811
2.630000	 0.072429
2.648000	 -0.026360
2.666000	 0.253541
2.684000	 0.230319
2.702000	 0.073399
2.720000	 0.088251
2.738000	 -0.041736
2.756000	 0.132090
2.774000	 0.063349
2.792000	 0.092059
2.810000	 0.084871
2.828000	 0.129954
2.846000	 0.155059
2.864000	 -0.000160
2.882000	 0.159208
2.900000	 0.111887
2.918000	 0.049332
2.936000	 -0.062712
2.954000	 0.122140
2.972000	 0.025757
2.990000	 0.249064
3.008000	 0.164395
3.026000	 0.004408
3.044000	 0.077599
3.062000	 -0.030805
3.080000	 0.108499
3.098000	 -0.030097
3.116000	 0.114893
3.134000	 0.058654
3.152000	 0.066063
3.170000	 0.025780
3.188000	 -0.107051
3.206000	 0.038943
3.224000	 0.100952
3.242000	 -0.027058
3.260000	 -0.021138
3.278000	 0.044683
3.296000	 -0.094978
3.314000	 0.034590
3.332000	 0.112113
3.350000	 0.114225
3.368000	 -0.014975
3.386000	 0.004775
3.404000	 0.062882
3.422000	 0.100199
3.440000	 0.170685
3.458000	 0.107095
3.476000	 0.077242
3.494000	 0.054982
3.512000	 -0.118606
3.530000	 0.049638
3.548000	 0.083573
3.566000	 0.082670
3.584000	 0.015994
3.602000	 -0.090430
3.620000	 0.052638
3.638000	 0.141507
3.656000	 0.017408
3.674000	 0.020664
3.692000	 0.170249
3.710000	 0.040242
3.728000	 0.002267
3.746000	 -0.145134
3.764000	 0.031543
3.782000	 -0.064793
3.800000	 0.007986
3.818000	 0.050786
3.836000	 0.035008
3.854000	 0.061266
3.872000	 -0.036389
3.890000	 0.009172
3.908000	 0.034106
3.926000	 0.102373
3.944000	 0.017848
3.962000	 0.082883
3.980000	 0.065274
3.998000	 0.002488
4.016000	 -0.080150
4.034000	 0.066033
4.052000	 -0.031989
4.070000	 -0.071668
4.088000	 -0.015662
4.106000	 0.078579
4.124000	 -0.033315
4.141999	 0.058019
4.160000	 0.010029
4.178000	 -0.033477
4.196000	 0.069735
4.214000	 -0.017244
4.232000	 -0.036935
4.250000	 -0.023728
4.268000	 0.139855
4.286000	 -0.020595
4.304000	 0.016487
4.322000	 0.001341
4.340000	 0.041267
4.358000	 -0.042660
4.375999	 0.047008
4.394000	 0.011438
4.412000	 -0.018507
4.430000	 -0.101023
4.448000	 0.147682
4.466000	 0.297374
4.484000	 0.284577
4.502000	 0.379580
4.520000	 0.560493
4.538000	 0.679232
4.556000	 0.718541
4.574000	 1.003115
4.592000	 1.323771
4.609999	 1.585524
4.628000	 1.870405
4.646000	 2.232339
4.664000	 2.692420
4.682000	 3.005459
4.700000	 3.611637
4.718000	 4.108236
4.736000	 4.755603
4.754000	 5.224719
4.772000	 5.783889
4.790000	 6.472906
4.808000	 7.099263
4.826000	 7.737514
4.843999	 8.292095
4.862000	 9.016458
4.880000	 9.629996
4.898000	 10.3016
4.916000	 10.9395
4.934000	 11.427
4.952000	 12.115
4.970000	 12.6535
4.988000	 13.1692
5.006000	 13.7247
5.024000	 14.3408
5.042000	 14.7499
5.060000	 15.1946
5.077999	 15.7091
5.096000	 16.1755
5.114000	 16.568
5.132000	 17.0112
5.150000	 17.2885
5.168000	 17.6784
5.186000	 18.0809
5.204000	 18.282
5.222000	 18.5449
5.240000	 18.852
5.258000	 19.113
5.276000	 19.4783
5.294000	 19.7239
5.312000	 19.8928
5.330000	 20.0525
5.348000	 20.1947
5.366000	 20.4655
5.384000	 20.7
5.402000	 20.9101
5.420000	 20.9994
5.438000	 21.1242
5.456000	 21.2706
5.474000	 21.3915
5.492000	 21.5406
5.510000	 21.5459
5.528000	 21.659
5.546000	 21.7874
5.564000	 21.9738
5.582000	 22.0467
5.600000	 22.097
5.618000	 22.2113
5.636000	 22.2485
5.654000	 22.3136
5.672000	 22.3207
5.690000	 22.3094
5.708000	 22.3893
5.726000	 22.4875
5.744000	 22.5148
5.762000	 22.4789
5.780000	 22.6199
5.798000	 22.6993
5.816000	 22.6142
5.834000	 22.6619
5.852000	 22.7715
5.870000	 22.7561
5.888000	 22.79
5.906000	 22.876
5.923999	 22.8243
5.942000	 22.7708
5.960000	 22.8248
5.978000	 22.9398
5.996000	 22.9427
6.014000	 22.8838
6.032000	 22.9077
6.050000	 22.9241
6.068000	 22.9671
6.086000	 23.0198
6.104000	 23.0608
6.122000	 23.1067
6.140000	 23.0924
6.158000	 23.006
6.176000	 22.96
6.194000	 22.9323
6.212000	 22.9186
6.230000	 22.9688
6.248000	 23.0054
6.266000	 22.9896
6.284000	 23.0002
6.302000	 23.0581
6.320000	 23.0621
6.338000	 22.9678
6.356000	 22.9902
6.374000	 23.0767
6.392000	 23.0355
6.410000	 23.0008
6.428000	 22.9997
6.446000	 22.974
6.464000	 22.9932
6.482000	 22.9792
6.500000	 22.8958
6.518000	 22.8544
6.536000	 22.865
6.554000	 22.8988
6.572000	 22.9287
6.590000	 22.9326
6.608000	 22.9764
6.626000	 23.0354
6.644000	 23.0238
6.662000	 22.971
6.680000	 22.9146
6.698000	 22.8605
6.716000	 22.8581
6.734000	 22.8747
6.752000	 22.8601
6.770000	 22.8533
6.788000	 22.8432
6.806000	 22.7631
6.824000	 22.6762
6.842000	 22.6909
6.860000	 22.7252
6.878000	 22.6481
6.896000	 22.5366
6.914000	 22.5466
6.932000	 22.6607
6.950000	 22.7541
6.968000	 22.7649
6.986000	 22.7193
7.004000	 22.6893
7.022000	 22.7069
7.040000	 22.714
7.058000	 22.6971
7.076000	 22.7113
7.094000	 22.7674
7.112000	 22.8169
7.130000	 22.7967
7.148000	 22.7196
7.166000	 22.645
7.184000	 22.5683
7.202000	 22.4813
7.220000	 22.4122
7.238000	 22.3892
7.256000	 22.4374
7.274000	 22.5207
7.292000	 22.5706
7.310000	 22.5909
7.328000	 22.6029
7.346000	 22.5885
7.364000	 22.5571
7.382000	 22.5309
7.400000	 22.4866
7.418000	 22.3999
7.436000	 22.321
7.454000	 22.3131
7.472000	 22.3474
7.490000	 22.3692
7.508000	 22.3921
7.526000	 22.4189
7.544000	 22.4152
7.562000	 22.3929
7.580000	 22.3855
7.598000	 22.3748
7.616000	 22.3342
7.634000	 22.2786
7.652000	 22.2359
7.670000	 22.2106
7.688000	 22.1979
7.706000	 22.2094
7.724000	 22.2491
7.742000	 22.281
7.760000	 22.2807
7.778000	 22.2814
7.796000	 22.307
7.814000	 22.3192
7.832000	 22.2819
7.850000	 22.2219
7.868000	 22.1936
7.886000	 22.2151
7.904000	 22.2463
7.922000	 22.2297
7.940000	 22.1632
7.958000	 22.1092
7.976000	 22.1215
7.994000	 22.1864
8.012000	 22.2443
8.030000	 22.2465
8.048000	 22.1914
8.065999	 22.122
8.084000	 22.0839
8.102000	 22.0801
8.120000	 22.0801
8.138000	 22.0638
8.155999	 22.0304
8.173999	 21.9805
8.192000	 21.924
8.210000	 21.8907
8.228000	 21.9035
8.246000	 21.95
8.263999	 21.9988
8.282000	 22.0234
8.300000	 22.0149
8.318000	 21.9842
8.336000	 21.953
8.353999	 21.9315
8.372000	 21.9147
8.390000	 21.8999
8.408000	 21.8906
8.426000	 21.8859
8.443999	 21.8822
8.462000	 21.8778
8.480000	 21.8671
8.498000	 21.8473
8.516000	 21.8324
8.533999	 21.844
8.552000	 21.876
8.570000	 21.8928
8.588000	 21.8728
8.606000	 21.8266
8.624000	 21.7753
8.641999	 21.7294
8.660000	 21.6965
8.678000	 21.6879
8.696000	 21.7059
8.714000	 21.7305
8.731999	 21.7308
8.750000	 21.6889
8.768000	 21.6222
8.786000	 21.578
8.804000	 21.5886
8.821999	 21.6321
8.840000	 21.6513
8.858000	 21.6178
8.876000	 21.5603
8.894000	 21.5225
8.911999	 21.5095
8.930000	 21.4919
8.948000	 21.4477
8.966000	 21.3792
8.984000	 21.3018
9.001999	 21.2329
9.020000	 21.1933
9.038000	 21.2001
9.056000	 21.2441
9.074000	 21.2889
9.092000	 21.2993
9.109999	 21.2677
9.128000	 21.2119
9.146000	 21.1569
9.164000	 21.1193
9.182000	 21.1023
9.199999	 21.0976
9.218000	 21.0946
9.236000	 21.0899
9.254000	 21.0913
9.272000	 21.107
9.289999	 21.1345
9.308000	 21.161
9.326000	 21.1761
9.344000	 21.1781
9.362000	 21.1695
9.379999	 21.1506
9.398000	 21.1205
9.416000	 21.0822
9.434000	 21.0436
9.452000	 21.011
9.469999	 20.9832
9.488000	 20.9528
9.506000	 20.9155
9.524000	 20.8744
9.542000	 20.8373
9.560000	 20.8094
9.577999	 20.7937
9.596000	 20.7934
9.614000	 20.8117
9.632000	 20.8436
9.650000	 20.8696
9.667999	 20.8655
9.686000	 20.8233
9.704000	 20.7632
9.722000	 20.7212
9.740000	 20.7207
9.757999	 20.7532
9.776000	 20.7852
9.794000	 20.7831
9.812000	 20.7345
9.830000	 20.6492
9.847999	 20.5469
9.866000	 20.4484
9.884000	 20.3734
9.902000	 20.338
9.920000	 20.3484
9.937999	 20.393
9.956000	 20.4464
9.974000	 20.4808
9.992000	 20.479
10.01	20.4411
10.028	20.382
10.046	20.3244
10.064	20.2879
10.082	20.2819
10.1	20.2998
10.118	20.3198
10.136	20.3168
10.154	20.2764
10.172	20.203
10.19	20.1187
10.208	20.0515
10.226	20.0224
10.244	20.0371
10.262	20.0837
10.28	20.1386
10.298	20.1766
10.316	20.18
10.334	20.1468
10.352	20.0901
10.37	20.0315
10.388	19.9898
10.406	19.9724
10.424	19.9739
10.442	19.9799
10.46	19.9775
10.478	19.9601
10.496	19.9311
10.514	19.9011
10.532	19.8834
10.55	19.8852
10.568	19.9052
10.586	19.9325
10.604	19.9523
10.622	19.9524
10.64	19.9298
10.658	19.8907
10.676	19.8475
10.694	19.8113
10.712	19.7869
10.73	19.7711
10.748	19.7561
10.766	19.7335
10.784	19.6981
10.802	19.65
10.82	19.5935
10.838	19.5361
10.856	19.4862
10.874	19.4517
10.892	19.4366
10.91	19.4389
10.928	19.4502
10.946	19.4581
10.964	19.4508
10.982	19.421
11	19.3696
11.018	19.3046
11.036	19.2384
11.054	19.1849
11.072	19.1536
11.09	19.1487
11.108	19.1665
11.126	19.197
11.144	19.2279
11.162	19.2474
11.18	19.2498
11.198	19.2376
11.216	19.2189
11.234	19.2031
11.252	19.1964
11.27	19.1976
11.288	19.1996
11.306	19.1931
11.324	19.1713
11.342	19.1332
11.36	19.0836
11.378	19.0305
11.396	18.9814
11.414	18.9404
11.432	18.908
11.45	18.882
11.468	18.8591
11.486	18.8362
11.504	18.8114
11.522	18.7837
11.54	18.7536
11.558	18.7222
11.576	18.6905
11.594	18.6598
11.612	18.6307
11.63	18.6037
11.648	18.5791
11.666	18.5577
11.684	18.5396
11.702	18.5241
11.72	18.5095
11.738	18.4927
11.756	18.4706
11.774	18.4412
11.792	18.4052
11.81	18.3659
11.828	18.3281
11.846	18.2964
11.864	18.2727
11.882	18.2563
11.9	18.2439
11.918	18.2318
11.936	18.2174
11.954	18.2005
11.972	18.1829
11.99	18.1668
12.008	18.1536
12.026	18.1433
12.044	18.1344
12.062	18.1251
12.08	18.115
12.098	18.1049
12.116	18.0957
12.134	18.0871
12.152	18.0767
12.17	18.0605
12.188	18.0347
12.206	17.9973
12.224	17.9501
12.242	17.8983
12.26	17.8489
12.278	17.8084
12.296	17.7808
12.314	17.7654
12.332	17.7579
12.35	17.7516
12.368	17.7401
12.386	17.7198
12.404	17.691
12.422	17.6587
12.44	17.6297
12.458	17.6108
12.476	17.6066
12.494	17.6179
12.512	17.6418
12.53	17.6731
12.548	17.706
12.566	17.7357
12.584	17.7584
12.602	17.7718
12.62	17.7741
12.638	17.7643
12.656	17.7413
12.674	17.7051
12.692	17.6568
12.71	17.5988
12.728	17.5351
12.746	17.4706
12.764	17.4103
12.782	17.3586
12.8	17.318
12.818	17.2894
12.836	17.2721
12.854	17.2643
12.872	17.2633
12.89	17.2666
12.908	17.2713
12.926	17.2749
12.944	17.2752
12.962	17.2702
12.98	17.2584
12.998	17.239
13.016	17.2116
13.034	17.1768
13.052	17.1354
13.07	17.0889
13.088	17.0394
13.106	16.9891
13.124	16.9403
13.142	16.8957
13.16	16.8579
13.178	16.8289
13.196	16.8098
13.214	16.8004
13.232	16.7985
13.25	16.8002
13.268	16.8008
13.286	16.796
13.304	16.7832
13.322	16.762
13.34	16.7346
13.358	16.7052
13.376	16.679
13.394	16.6607
13.412	16.6532
13.43	16.6578
13.448	16.6738
13.466	16.6985
13.484	16.7287
13.502	16.761
13.52	16.7932
13.538	16.8233
13.556	16.8506
13.574	16.8742
13.592	16.8936
13.61	16.9081
13.628	16.9162
13.646	16.9166
13.664	16.9078
13.682	16.8893
13.7	16.8606
13.718	16.8221
13.736	16.7742
13.754	16.7181
13.772	16.6551
13.79	16.5872
13.808	16.5165
13.826	16.4458
13.844	16.3776
13.862	16.3146
13.88	16.2586
13.898	16.2106
13.916	16.1704
13.934	16.137
13.952	16.1086
13.97	16.083
13.988	16.0579
14.006	16.032
14.024	16.0046
14.042	15.9762
14.06	15.948
14.078	15.9218
14.096	15.8996
14.114	15.883
14.132	15.8728
14.15	15.8689
14.168	15.8708
14.186	15.8774
14.204	15.887
14.222	15.898
14.24	15.9089
14.258	15.9181
14.276	15.9246
14.294	15.9272
14.312	15.9251
14.33	15.9171
14.348	15.9026
14.366	15.881
14.384	15.8522
14.402	15.8165
14.42	15.775
14.438	15.7294
14.456	15.6819
14.474	15.6348
14.492	15.5906
14.51	15.5514
14.528	15.5187
14.546	15.4928
14.564	15.4732
14.582	15.4585
14.6	15.4465
14.618	15.4348
14.636	15.4208
14.654	15.4024
14.672	15.3784
14.69	15.3487
14.708	15.3137
14.726	15.2749
14.744	15.2346
14.762	15.1954
14.78	15.1595
14.798	15.1291
14.816	15.1057
14.834	15.0901
14.852	15.082
14.87	15.0802
14.888	15.0825
14.906	15.0865
14.924	15.0893
14.942	15.0876
14.96	15.079
14.978	15.0618
14.996	15.0354
15.014	15.0002
15.032	14.9576
15.05	14.9101
15.068	14.8603
15.086	14.811
15.104	14.7647
15.122	14.7237
15.14	14.6891
15.158	14.6613
15.176	14.64
15.194	14.6244
15.212	14.6133
15.23	14.6056
15.248	14.6005
15.266	14.5975
15.284	14.5963
15.302	14.5971
15.32	14.5997
15.338	14.6044
15.356	14.6109
15.374	14.6184
15.392	14.6259
15.41	14.6319
15.428	14.6351
15.446	14.6335
15.464	14.6261
15.482	14.6123
15.5	14.5914
15.518	14.5639
15.536	14.5304
15.554	14.4917
15.572	14.449
15.59	14.4038
15.608	14.3575
15.626	14.3112
15.644	14.2663
15.662	14.2238
15.68	14.1846
15.698	14.1495
15.716	14.1197
15.734	14.096
15.752	14.0789
15.77	14.0691
15.788	14.0667
15.806	14.0714
15.824	14.0828
15.842	14.0997
15.86	14.1202
15.878	14.1426
15.896	14.1647
15.914	14.184
15.932	14.1983
15.95	14.2062
15.968	14.2063
15.986	14.1981
16.004	14.1818
16.022	14.1579
16.04	14.1281
16.058	14.094
16.076	14.057
16.094	14.0195
16.112	13.9827
16.13	13.9473
16.148	13.9143
16.166	13.8834
16.184	13.8541
16.202	13.8255
16.22	13.7959
16.238	13.7643
16.256	13.7297
16.274	13.6908
16.292	13.6476
16.31	13.6
16.328	13.5485
16.346	13.4946
16.364	13.4392
16.382	13.3847
16.4	13.3324
16.418	13.2837
16.436	13.2403
16.454	13.2028
16.472	13.1716
16.49	13.147
16.508	13.1283
16.526	13.1151
16.544	13.1063
16.562	13.101
16.58	13.0982
16.598	13.0967
16.616	13.0962
16.634	13.096
16.652	13.0958
16.67	13.0954
16.688	13.0949
16.706	13.0942
16.724	13.0935
16.742	13.0931
16.76	13.0928
16.778	13.0927
16.796	13.0928
16.814	13.0929
16.832	13.0928
16.85	13.0925
16.868	13.0918
16.886	13.0907
16.904	13.0894
16.922	13.0882
16.94	13.0874
16.958	13.0877
16.976	13.0894
16.994	13.0934
17.012	13.0999
17.03	13.1094
17.048	13.1218
17.066	13.1368
17.084	13.154
17.102	13.1721
17.12	13.1905
17.138	13.2072
17.156	13.2207
17.174	13.2297
17.192	13.2317
17.21	13.2263
17.228	13.2119
17.246	13.1881
17.264	13.1544
17.282	13.1113
17.3	13.0594
17.318	12.9999
17.336	12.935
17.354	12.8657
17.372	12.7956
17.39	12.7258
17.408	12.6595
17.426	12.5987
17.444	12.5447
17.462	12.4998
17.48	12.4643
17.498	12.4393
17.516	12.4245
17.534	12.4199
17.552	12.4238
17.57	12.4359
17.588	12.4538
17.606	12.4761
17.624	12.5008
17.642	12.5257
17.66	12.5499
17.678	12.5705
17.696	12.5873
17.714	12.5984
17.732	12.6036
17.75	12.6022
17.768	12.5944
17.786	12.5804
17.804	12.5608
17.822	12.5361
17.84	12.5075
17.858	12.476
17.876	12.4425
17.894	12.4086
17.912	12.3749
17.93	12.3431
17.948	12.3134
17.966	12.2875
17.984	12.2657
18.002	12.2492
18.02	12.2385
18.038	12.234
18.056	12.236
18.074	12.2447
18.092	12.2597
18.11	12.2809
18.128	12.3074
18.146	12.3385
18.164	12.3729
18.182	12.4094
18.2	12.4467
18.218	12.4829
18.236	12.5172
18.254	12.5474
18.272	12.5731
18.29	12.5928
18.308	12.6063
18.326	12.6133
18.344	12.614
18.362	12.6091
18.38	12.5991
18.398	12.5855
18.416	12.5693
18.434	12.5523
18.452	12.5359
18.47	12.5212
18.488	12.5096
18.506	12.5018
18.524	12.4981
18.542	12.4987
18.56	12.503
18.578	12.5109
18.596	12.5204
18.614	12.5315
18.632	12.5416
18.65	12.5506
18.668	12.5557
18.686	12.5569
18.704	12.552
18.722	12.5411
18.74	12.5228
18.758	12.4974
18.776	12.4645
18.794	12.4246
18.812	12.3782
18.83	12.3257
18.848	12.2681
18.866	12.206
18.884	12.1407
18.902	12.0728
18.92	12.0038
18.938	11.9344
18.956	11.8659
18.974	11.799
18.992	11.7349
19.01	11.6744
19.028	11.6185
19.046	11.5678
19.064	11.5235
19.082	11.4858
19.1	11.4557
19.118	11.4333
19.136	11.4193
19.154	11.4136
19.172	11.4165
19.19	11.4277
19.208	11.447
19.226	11.4741
19.244	11.5079
19.262	11.548
19.28	11.5927
19.298	11.6417
19.316	11.6925
19.334	11.7449
19.352	11.7961
19.37	11.8462
19.388	11.8923
19.406	11.9346
19.424	11.9708
19.442	12.0009
19.46	12.0236
19.478	12.0387
19.496	12.046
19.514	12.045
19.532	12.0366
19.55	12.0208
19.568	11.9984
19.586	11.9701
19.604	11.9363
19.622	11.8983
19.64	11.856
19.658	11.8107
19.676	11.7622
19.694	11.7118
19.712	11.6594
19.73	11.6056
19.748	11.5503
19.766	11.4939
19.784	11.4364
19.802	11.3779
19.82	11.3182
19.838	11.2578
19.856	11.1967
19.874	11.135
19.892	11.0734
19.91	11.0119
19.928	10.9513
19.946	10.8916
19.964	10.8339
19.982	10.7781
20	10.7252
20.018	10.6754
20.036	10.6289
20.054	10.5863
20.072	10.5474
20.09	10.5126
20.108	10.4818
20.126	10.4543
20.144	10.4304
20.162	10.4092
20.18	10.3904
20.198	10.3738
20.216	10.3587
20.234	10.3453
20.252	10.3331
20.27	10.3224
20.288	10.3131
20.306	10.3049
20.324	10.2987
20.342	10.2945
20.36	10.2928
20.378	10.2945
20.396	10.2993
20.414	10.3091
20.432	10.3236
20.45	10.3436
20.468	10.3694
20.486	10.4011
20.504	10.4393
20.522	10.4838
20.54	10.5342
20.558	10.5906
20.576	10.6521
20.594	10.7185
20.612	10.7891
20.63	10.8624
20.648	10.9388
20.666	11.016
20.684	11.0941
20.702	11.1719
20.72	11.2481
20.738	11.3227
20.756	11.394
20.774	11.4622
20.792	11.5261
20.81	11.5855
20.828	11.6401
20.846	11.6892
20.864	11.7331
20.882	11.7711
20.9	11.8034
20.918	11.8299
20.936	11.8505
20.954	11.8654
20.972	11.8748
20.99	11.8787
21.008	11.8775
21.026	11.8713
21.044	11.8603
21.062	11.8451
21.08	11.8255
21.098	11.802
21.116	11.7748
21.134	11.7438
21.152	11.7095
21.17	11.6719
21.188	11.6306
21.206	11.5859
21.224	11.5374
21.242	11.4843
21.26	11.4271
21.278	11.3646
21.296	11.2967
21.314	11.2231
21.332	11.1429
21.35	11.0564
21.368	10.963
21.386	10.8623
21.404	10.7546
21.422	10.6402
21.44	10.5187
21.458	10.392
21.476	10.2599
21.494	10.1234
21.512	9.985589
21.53	9.845336
21.548	9.706283
21.566	9.570710
21.584	9.437951
21.602	9.313569
21.62	9.196879
21.638	9.090029
21.656	8.996627
21.674	8.915273
21.692	8.848845
21.71	8.798383
21.728	8.763268
21.746	8.744420
21.764	8.742088
21.782	8.754766
21.8	8.782086
21.818	8.824084
21.836	8.876313
21.854	8.939344
21.872	9.011096
21.89	9.086770
21.908	9.168240
21.926	9.251221
21.944	9.332918
21.962	9.414539
21.98	9.491648
21.998	9.564079
22.016	9.631371
22.034	9.690901
22.052	9.743275
22.07	9.788004
22.088	9.824279
22.106	9.852466
22.124	9.873181
22.142	9.886313
22.16	9.892217
22.178	9.892071
22.196	9.885612
22.214	9.873405
22.232	9.856306
22.25	9.834025
22.268	9.807001
22.286	9.775610
22.304	9.739694
22.322	9.699255
22.34	9.654328
22.358	9.604916
22.376	9.550970
22.394	9.492349
22.412	9.429428
22.43	9.362532
22.448	9.291231
22.466	9.216868
22.484	9.140199
22.502	9.060617
22.52	8.980724
22.538	8.901025
22.556	8.821304
22.574	8.745758
22.592	8.674208
22.61	8.607313
22.628	8.549516
22.646	8.500056
22.664	8.459927
22.682	8.432147
22.7	8.416093
22.718	8.411937
22.736	8.420618
22.754	8.442207
22.772	8.475305
22.79	8.519317
22.808	8.575155
22.826	8.638995
22.844	8.709072
22.862	8.786876
22.88	8.866623
22.898	8.946361
22.916	9.027586
22.934	9.103478
22.952	9.172420
22.97	9.235611
22.988	9.286820
23.006	9.325064
23.024	9.351154
23.042	9.360700
23.06	9.352933
23.078	9.328761
23.096	9.286845
23.114	9.226380
23.132	9.148551
23.15	9.054962
23.168	8.944604
23.186	8.818927
23.204	8.681675
23.222	8.531506
23.24	8.370166
23.258	8.203010
23.276	8.028661
23.294	7.848700
23.312	7.669083
23.33	7.488809
23.348	7.308815
23.366	7.134442
23.384	6.965388
23.402	6.801703
23.42	6.647036
23.438	6.501553
23.456	6.364855
23.474	6.238956
23.492	6.124146
23.51	6.019985
23.528	5.927456
23.546	5.847193
23.564	5.778595
23.582	5.720827
23.6	5.674046
23.618	5.638307
23.636	5.611249
23.654	5.591845
23.672	5.581077
23.69	5.576626
23.708	5.576937
23.726	5.583169
23.744	5.593741
23.762	5.607164
23.78	5.624203
23.798	5.644283
23.816	5.666551
23.834	5.691051
23.852	5.718102
23.87	5.747890
23.888	5.779707
23.906	5.814464
23.924	5.853829
23.942	5.897233
23.96	5.944979
23.978	5.999605
23.996	6.061404
24.014	6.129537
24.032	6.207468
24.05	6.297238
24.068	6.396890
24.086	6.508948
24.104	6.635917
24.122	6.776503
24.14	6.931310
24.158	7.101673
24.176	7.288349
24.194	7.489861
24.212	7.704292
24.23	7.932506
24.248	8.174250
24.266	8.424736
24.284	8.682242
24.302	8.949962
24.32	9.220439
24.338	9.487083
24.356	9.755840
24.374	10.0201
24.392	10.2697
24.41	10.5079
24.428	10.7335
24.446	10.9357
24.464	11.1106
24.482	11.2633
24.5	11.3862
24.518	11.4727
24.536	11.5269
24.554	11.5467
24.572	11.5277
24.59	11.4692
24.608	11.3733
24.626	11.2411
24.644	11.0721
24.662	10.8654
24.68	10.6265
24.698	10.36
24.716	10.06
24.734	9.733533
24.752	9.391373
24.77	9.032623
24.788	8.655400
24.806	8.270653
24.824	7.885487
24.842	7.492583
24.86	7.099641
24.878	6.716400
24.896	6.341109
24.914	5.972797
24.932	5.616274
24.95	5.274626
24.968	4.945468
24.986	4.629036
25.004	4.325973
25.022	4.038765
25.04	3.764127
25.058	3.496664
25.076	3.235397
25.094	2.984037
25.112	2.733976
25.13	2.476731
25.148	2.217734
25.166	1.954051
25.184	1.676756
25.202	1.381765
25.22	1.074381
25.238	0.749490
25.256	0.401493
25.274	0.030055
25.292	-0.362235
25.31	-0.773813
25.328	-1.205393
25.346	-1.659995
25.364	-2.129221
25.382	-2.603949
25.4	-3.090387
25.418	-3.586485
25.436	-4.076753
25.454	-4.550452
25.472	-5.020941
25.49	-5.475752
25.508	-5.897180
25.526	-6.283503
25.544	-6.643122
25.562	-6.960497
25.58	-7.220925
25.598	-7.432125
25.616	-7.592757
25.634	-7.693289
25.652	-7.726876
25.67	-7.698517
25.688	-7.609044
25.706	-7.458463
25.724	-7.243155
25.742	-6.964740
25.76	-6.632710
25.778	-6.255388
25.796	-5.822549
25.814	-5.341961
25.832	-4.830272
25.85	-4.296987
25.868	-3.727299
25.886	-3.136462
25.904	-2.543754
25.922	-1.951372
25.94	-1.348583
25.958	-0.753473
25.976	-0.184278
25.994	0.365332
26.012	0.897391
26.03	1.399113
26.048	1.859162
26.066	2.283499
26.084	2.672533
26.102	3.022773
26.12	3.330786
26.138	3.596707
26.156	3.825192
26.174	4.021096
26.192	4.184336
26.21	4.311071
26.228	4.409946
26.246	4.489970
26.264	4.548579
26.282	4.582860
26.3	4.604157
26.318	4.623555
26.336	4.636438
26.354	4.641810
26.372	4.647860
26.39	4.662093
26.408	4.679626
26.426	4.701295
26.444	4.732401
26.462	4.777370
26.48	4.832532
26.498	4.898961
26.516	4.979655
26.534	5.077082
26.552	5.189832
26.57	5.317274
26.588	5.459194
26.606	5.615793
26.624	5.787966
26.642	5.973891
26.66	6.171470
26.678	6.379883
26.696	6.601317
26.714	6.833235
26.732	7.072666
26.75	7.318137
26.768	7.571946
26.786	7.832494
26.804	8.097854
26.822	8.367234
26.84	8.642244
26.858	8.921458
26.876	9.203234
26.894	9.486351
26.912	9.771538
26.93	10.0595
26.948	10.351
26.966	10.6605
26.984	11.0088
27.002	11.3424
27.02	11.6035
27.028	11.6733