File: Bakgrunnsmateriale/MATLAB/FTIR/ftir_data/LPE453/Mapping_121/LPE453_e126_cm-1.asc
PE IR       SPECTRUM    SPECTRUM    ASCII       PEDS        1.60
  -1
LP09BB~1.ASC
17/05/16
21:38:07.00
17/05/16
21:38:07.00
tln
$LPE453_e0126$<ebV0>[-23.3,12.1,10.0,0.0,27,1,0]
370
64

2002,4.07
MIRTGS : RIGHTBACK : INTERNAL 2
MIR : ON : INTERNAL 2
OPTKBR

0.200000
8
8.000000
FILLER
SINGLE
SPECTRUM
UNLOCKED 256

DOUBLE

COMBINED
1
0
0

1.000000
BACKG

1
0
TRUE
51149
0
LEFT NOT FITTED RIGHT NOT FITTED 0
NONE
NONE
15600
12
4.427000
51148
TRUE
1 0 8 72 0 0 0 0

15798

#HDR
-1
-1
#GR
CM-1
EGY
2.38419e-05
0.0
5000
-1.000000
4631
8
2.420759
0.009417
#DATA
5000	0.769877
4996	0.772142
4992	0.773620
4988	0.776505
4984	0.778770
4980	0.778460
4976	0.778055
4972	0.778794
4968	0.780558
4964	0.782299
4960	0.782942
4956	0.784325
4952	0.786066
4948	0.787377
4944	0.790309
4940	0.793647
4936	0.795435
4932	0.797772
4928	0.800418
4924	0.800681
4920	0.800395
4916	0.802040
4912	0.804376
4908	0.806617
4904	0.808262
4900	0.807857
4896	0.807094
4892	0.808620
4888	0.812005
4884	0.814270
4880	0.815653
4876	0.818848
4872	0.823450
4868	0.826382
4864	0.827097
4860	0.827717
4856	0.828552
4852	0.829029
4848	0.829887
4844	0.831913
4840	0.835680
4836	0.839424
4832	0.840425
4828	0.841808
4824	0.845766
4820	0.848650
4816	0.851464
4812	0.855541
4808	0.857877
4804	0.858974
4800	0.860500
4796	0.862956
4792	0.867319
4788	0.872063
4784	0.875806
4780	0.877618
4776	0.878524
4772	0.880932
4768	0.882983
4764	0.884795
4760	0.887060
4756	0.886821
4752	0.885295
4748	0.885725
4744	0.888919
4740	0.892591
4736	0.894308
4732	0.894689
4728	0.895380
4724	0.896787
4720	0.898313
4716	0.899815
4712	0.901675
4708	0.903224
4704	0.904059
4700	0.905036
4696	0.906205
4692	0.906944
4688	0.907230
4684	0.908493
4680	0.910544
4676	0.909042
4672	0.908088
4668	0.914835
4664	0.920605
4660	0.915789
4656	0.907993
4652	0.904726
4648	0.906538
4644	0.910615
4640	0.911474
4636	0.912475
4632	0.909876
4628	0.908231
4624	0.918698
4620	0.924563
4616	0.921702
4612	0.918173
4608	0.913572
4604	0.915575
4600	0.928187
4596	0.943350
4592	0.949597
4588	0.946450
4584	0.939559
4580	0.936722
4576	0.942254
4572	0.948143
4568	0.950837
4564	0.950860
4560	0.951266
4556	0.957369
4552	0.967025
4548	0.975441
4544	0.977420
4540	0.978946
4536	0.983548
4532	0.987148
4528	0.989151
4524	0.998449
4520	1.013040
4516	1.013684
4512	0.981497
4508	0.910735
4504	0.863313
4500	0.904822
4496	1.003313
4492	1.029634
4488	0.957107
4484	0.938415
4480	0.985002
4476	1.001310
4472	0.999712
4468	1.000237
4464	1.003527
4460	1.011300
4456	1.014518
4452	1.011753
4448	1.009559
4444	1.012825
4440	1.015114
4436	1.012849
4432	1.012754
4428	1.016187
4424	1.017642
4420	1.015377
4416	1.013851
4412	1.014590
4408	1.016783
4404	1.020693
4400	1.023888
4396	1.025128
4392	1.026606
4388	1.029586
4384	1.032519
4380	1.033425
4376	1.033067
4372	1.034593
4368	1.038026
4364	1.041769
4360	1.045250
4356	1.048612
4352	1.051926
4348	1.054358
4344	1.057815
4340	1.062750
4336	1.067447
4332	1.071310
4328	1.075959
4324	1.082015
4320	1.086759
4316	1.090049
4312	1.093912
4308	1.099848
4304	1.105499
4300	1.108837
4296	1.111745
4292	1.116085
4288	1.122093
4284	1.127338
4280	1.130843
4276	1.135039
4272	1.139926
4268	1.143670
4264	1.147484
4260	1.152539
4256	1.157402
4252	1.160335
4248	1.161813
4244	1.164913
4240	1.168560
4236	1.169967
4232	1.170706
4228	1.172757
4224	1.175594
4220	1.178288
4216	1.180243
4212	1.181578
4208	1.183199
4204	1.185679
4200	1.188516
4196	1.190924
4192	1.192736
4188	1.195216
4184	1.198410
4180	1.199674
4176	1.199388
4172	1.200532
4168	1.203751
4164	1.208138
4160	1.211380
4156	1.212573
4152	1.213479
4148	1.214265
4144	1.216363
4140	1.220321
4136	1.224637
4132	1.227903
4128	1.229763
4124	1.232528
4120	1.236653
4116	1.241254
4112	1.246643
4108	1.252079
4104	1.255416
4100	1.256847
4096	1.259088
4092	1.264524
4088	1.272463
4084	1.278257
4080	1.282429
4076	1.288580
4072	1.294875
4068	1.301145
4064	1.307201
4060	1.311731
4056	1.316380
4052	1.321840
4048	1.328349
4044	1.334452
4040	1.339125
4036	1.343154
4032	1.346397
4028	1.350235
4024	1.355695
4020	1.361083
4016	1.364707
4012	1.367330
4008	1.370263
4004	1.373863
4000	1.378917
3996	1.384377
3992	1.388692
3988	1.392650
3984	1.395368
3980	1.396059
3976	1.397275
3972	1.400780
3968	1.403427
3964	1.402759
3960	1.402521
3956	1.404714
3952	1.407432
3948	1.410126
3944	1.412630
3940	1.413869
3936	1.414799
3932	1.417160
3928	1.418685
3924	1.418113
3920	1.417994
3916	1.419901
3912	1.422643
3908	1.422834
3904	1.421809
3900	1.424264
3896	1.427602
3892	1.427888
3888	1.427173
3884	1.427960
3880	1.431393
3876	1.434731
3872	1.435065
3868	1.436018
3864	1.440715
3860	1.442980
3856	1.438021
3852	1.440286
3848	1.453542
3844	1.459741
3840	1.458311
3836	1.463174
3832	1.474189
3828	1.481056
3824	1.480698
3820	1.479125
3816	1.483702
3812	1.491808
3808	1.496434
3804	1.498746
3800	1.504397
3796	1.513648
3792	1.521921
3788	1.526927
3784	1.529097
3780	1.530528
3776	1.533460
3772	1.536631
3768	1.539158
3764	1.541972
3760	1.544499
3756	1.542043
3752	1.534700
3748	1.530981
3744	1.535606
3740	1.543569
3736	1.548504
3732	1.553058
3728	1.557755
3724	1.560139
3720	1.562094
3716	1.561164
3712	1.558709
3708	1.560878
3704	1.565051
3700	1.567077
3696	1.565551
3692	1.560401
3688	1.558756
3684	1.562404
3680	1.561236
3676	1.555871
3672	1.555562
3668	1.561331
3664	1.566958
3660	1.566433
3656	1.561379
3652	1.557421
3648	1.559257
3644	1.565575
3640	1.569151
3636	1.567769
3632	1.563930
3628	1.564168
3624	1.568722
3620	1.570820
3616	1.571011
3612	1.571607
3608	1.574182
3604	1.578092
3600	1.581096
3596	1.583552
3592	1.584100
3588	1.584911
3584	1.588964
3580	1.593375
3576	1.595449
3572	1.594662
3568	1.593923
3564	1.596713
3560	1.601028
3556	1.603436
3552	1.604557
3548	1.606154
3544	1.608157
3540	1.608729
3536	1.607990
3532	1.608943
3528	1.611042
3524	1.612472
3520	1.613712
3516	1.614022
3512	1.613497
3508	1.613450
3504	1.612114
3500	1.608729
3496	1.606202
3492	1.605200
3488	1.604318
3484	1.602888
3480	1.600623
3476	1.598644
3472	1.597332
3468	1.596117
3464	1.594471
3460	1.592636
3456	1.589107
3452	1.583862
3448	1.579999
3444	1.578211
3440	1.576471
3436	1.574659
3432	1.573467
3428	1.572442
3424	1.572895
3420	1.575064
3416	1.576781
3412	1.577806
3408	1.579332
3404	1.581144
3400	1.583003
3396	1.584696
3392	1.586437
3388	1.589584
3384	1.592826
3380	1.595520
3376	1.599001
3372	1.603603
3368	1.608633
3364	1.613783
3360	1.619172
3356	1.624369
3352	1.630210
3348	1.636338
3344	1.641774
3340	1.647329
3336	1.652956
3332	1.658868
3328	1.664638
3324	1.668834
3320	1.673316
3316	1.679873
3312	1.686644
3308	1.691675
3304	1.695299
3300	1.700878
3296	1.708841
3292	1.715493
3288	1.720929
3284	1.725673
3280	1.728749
3276	1.731896
3272	1.736378
3268	1.740503
3264	1.743483
3260	1.746702
3256	1.750063
3252	1.753497
3248	1.757097
3244	1.759338
3240	1.760673
3236	1.762747
3232	1.765394
3228	1.767468
3224	1.769185
3220	1.770782
3216	1.771640
3212	1.771879
3208	1.771950
3204	1.772761
3200	1.774477
3196	1.775527
3192	1.775574
3188	1.775503
3184	1.775765
3180	1.776742
3176	1.777672
3172	1.778507
3168	1.780843
3164	1.783394
3160	1.784753
3156	1.787137
3152	1.791334
3148	1.795482
3144	1.798462
3140	1.800894
3136	1.803708
3132	1.807928
3128	1.812577
3124	1.816725
3120	1.820635
3116	1.825833
3112	1.833248
3108	1.840806
3104	1.847481
3100	1.854419
3096	1.862788
3092	1.872372
3088	1.880860
3084	1.887822
3080	1.894021
3076	1.898002
3072	1.902675
3068	1.910114
3064	1.916313
3060	1.921653
3056	1.927971
3052	1.934099
3048	1.940393
3044	1.946401
3040	1.952028
3036	1.956605
3032	1.957535
3028	1.953315
3024	1.945090
3020	1.938104
3016	1.942348
3012	1.960682
3008	1.981616
3004	1.995229
3000	2.003097
2996	2.008461
2992	2.010774
2988	2.009606
2984	2.006697
2980	2.000188
2976	1.987195
2972	1.966714
2968	1.941323
2964	1.919960
2960	1.908564
2956	1.904654
2952	1.902174
2948	1.892471
2944	1.868891
2940	1.833891
2936	1.798462
2932	1.770305
2928	1.752138
2924	1.755118
2920	1.787519
2916	1.835536
2912	1.877808
2908	1.906847
2904	1.927518
2900	1.943707
2896	1.956653
2892	1.968145
2888	1.977562
2884	1.983213
2880	1.984906
2876	1.981043
2872	1.965522
2868	1.933693
2864	1.898431
2860	1.886439
2856	1.906871
2852	1.944422
2848	1.983785
2844	2.019214
2840	2.047324
2836	2.067351
2832	2.082276
2828	2.094388
2824	2.105355
2820	2.116346
2816	2.125668
2812	2.133464
2808	2.140927
2804	2.148056
2800	2.155017
2796	2.161073
2792	2.167582
2788	2.176356
2784	2.185630
2780	2.193760
2776	2.201223
2772	2.207851
2768	2.212095
2764	2.215433
2760	2.220129
2756	2.224493
2752	2.226519
2748	2.227902
2744	2.230119
2740	2.231788
2736	2.232885
2732	2.234482
2728	2.235913
2724	2.236342
2720	2.234888
2716	2.232360
2712	2.230310
2708	2.228546
2704	2.227759
2700	2.227067
2696	2.224397
2692	2.221035
2688	2.218794
2684	2.216982
2680	2.215242
2676	2.213454
2672	2.210760
2668	2.207732
2664	2.204942
2660	2.203226
2656	2.202701
2652	2.201962
2648	2.200698
2644	2.199077
2640	2.197337
2636	2.196860
2632	2.197504
2628	2.197265
2624	2.196645
2620	2.197051
2616	2.197575
2612	2.198839
2608	2.200627
2604	2.202105
2600	2.203440
2596	2.204322
2592	2.205729
2588	2.209401
2584	2.215266
2580	2.221798
2576	2.228689
2572	2.235150
2568	2.239918
2564	2.244877
2560	2.250814
2556	2.255415
2552	2.259564
2548	2.264165
2544	2.268314
2540	2.272558
2536	2.277922
2532	2.282714
2528	2.285099
2524	2.287197
2520	2.289843
2516	2.292060
2512	2.294683
2508	2.296137
2504	2.296733
2500	2.297735
2496	2.298808
2492	2.300286
2488	2.300095
2484	2.298164
2480	2.296543
2476	2.295255
2472	2.293944
2468	2.292275
2464	2.289772
2460	2.286124
2456	2.281379
2452	2.277064
2448	2.273297
2444	2.268528
2440	2.263569
2436	2.259373
2432	2.255296
2428	2.251601
2424	2.248287
2420	2.243804
2416	2.238988
2412	2.237033
2408	2.235865
2404	2.232122
2400	2.228450
2396	2.226829
2392	2.226567
2388	2.225661
2384	2.223920
2380	2.221417
2376	2.216815
2372	2.211952
2368	2.209043
2364	2.208447
2360	2.211618
2356	2.219104
2352	2.228522
2348	2.235031
2344	2.237057
2340	2.238869
2336	2.243542
2332	2.250289
2328	2.257847
2324	2.266383
2320	2.275323
2316	2.283120
2312	2.290916
2308	2.297639
2304	2.301526
2300	2.305674
2296	2.311921
2292	2.318763
2288	2.324843
2284	2.329826
2280	2.333116
2276	2.336287
2272	2.341175
2268	2.344894
2264	2.345728
2260	2.346134
2256	2.347493
2252	2.348685
2248	2.349090
2244	2.349424
2240	2.349662
2236	2.349948
2232	2.349615
2228	2.347540
2224	2.344727
2220	2.341461
2216	2.338314
2212	2.336621
2208	2.334904
2204	2.331519
2200	2.327871
2196	2.324628
2192	2.321434
2188	2.318572
2184	2.316570
2180	2.314972
2176	2.312493
2172	2.309560
2168	2.306485
2164	2.303218
2160	2.301740
2156	2.301907
2152	2.302598
2148	2.303886
2144	2.304291
2140	2.303743
2136	2.303862
2132	2.303314
2128	2.302145
2124	2.302885
2120	2.305293
2116	2.305889
2112	2.305150
2108	2.305603
2104	2.306437
2100	2.306556
2096	2.306365
2092	2.305984
2088	2.306294
2084	2.308607
2080	2.311968
2076	2.315998
2072	2.322411
2068	2.331209
2064	2.340078
2060	2.348065
2056	2.355599
2052	2.363157
2048	2.370834
2044	2.378749
2040	2.386379
2036	2.392745
2032	2.398133
2028	2.403712
2024	2.408194
2020	2.409505
2016	2.409958
2012	2.412772
2008	2.416944
2004	2.419590
2000	2.420115
1996	2.420520
1992	2.420687
1988	2.419543
1984	2.416920
1980	2.413249
1976	2.409934
1972	2.406883
1968	2.403163
1964	2.399659
1960	2.396559
1956	2.392768
1952	2.388668
1948	2.384996
1944	2.382373
1940	2.380752
1936	2.378129
1932	2.374005
1928	2.369999
1924	2.365159
1920	2.359414
1916	2.355074
1912	2.350926
1908	2.345585
1904	2.341270
1900	2.337980
1896	2.334475
1892	2.332925
1888	2.334570
1884	2.337503
1880	2.339911
1876	2.341222
1872	2.340435
1868	2.339363
1864	2.342486
1860	2.347874
1856	2.351164
1852	2.353310
1848	2.353906
1844	2.354717
1840	2.359604
1836	2.364182
1832	2.365612
1828	2.368760
1824	2.375364
1820	2.381587
1816	2.384829
1812	2.387261
1808	2.390217
1804	2.391791
1800	2.391695
1796	2.389907
1792	2.388334
1788	2.390098
1784	2.391600
1780	2.389025
1776	2.381014
1772	2.373600
1768	2.374100
1764	2.375531
1760	2.372002
1756	2.362728
1752	2.348899
1748	2.336955
1744	2.325797
1740	2.309298
1736	2.292227
1732	2.287340
1728	2.290844
1724	2.285695
1720	2.269911
1716	2.260684
1712	2.262926
1708	2.258872
1704	2.241539
1700	2.222919
1696	2.218937
1692	2.223396
1688	2.215051
1684	2.204275
1680	2.204918
1676	2.202224
1672	2.193474
1668	2.186203
1664	2.179884
1660	2.168297
1656	2.145314
1652	2.127838
1648	2.127051
1644	2.128601
1640	2.120971
1636	2.108097
1632	2.100229
1628	2.090191
1624	2.069902
1620	2.041220
1616	2.004981
1612	1.966476
1608	1.941037
1604	1.942086
1600	1.960015
1596	1.976299
1592	1.982927
1588	1.979923
1584	1.972293
1580	1.961731
1576	1.952767
1572	1.949405
1568	1.942586
1564	1.920843
1560	1.896190
1556	1.897239
1552	1.916646
1548	1.924705
1544	1.923799
1540	1.945590
1536	1.998281
1532	2.048206
1528	2.072381
1524	2.076792
1520	2.073311
1516	2.066683
1512	2.054715
1508	2.029871
1504	1.963710
1500	1.822090
1496	1.675224
1492	1.658010
1488	1.762032
1484	1.871275
1480	1.927351
1476	1.941823
1472	1.940488
1468	1.931238
1464	1.905608
1460	1.850891
1456	1.776885
1452	1.733446
1448	1.755499
1444	1.804733
1440	1.830101
1436	1.836872
1432	1.841139
1428	1.841092
1424	1.835441
1420	1.826691
1416	1.815772
1412	1.789212
1408	1.740598
1404	1.701712
1400	1.704311
1396	1.735782
1392	1.760959
1388	1.762199
1384	1.758027
1380	1.767134
1376	1.778554
1372	1.784324
1368	1.787877
1364	1.789402
1360	1.789355
1356	1.788210
1352	1.786708
1348	1.785826
1344	1.785659
1340	1.788520
1336	1.797366
1332	1.808166
1328	1.814913
1324	1.818490
1320	1.821565
1316	1.823544
1312	1.823329
1308	1.822900
1304	1.823997
1300	1.825141
1296	1.825714
1292	1.826214
1288	1.825571
1284	1.823425
1280	1.818251
1276	1.804924
1272	1.777553
1268	1.734900
1264	1.696515
1260	1.694369
1256	1.730513
1252	1.771807
1248	1.795315
1244	1.804852
1240	1.807451
1236	1.806044
1232	1.802110
1228	1.795816
1224	1.787090
1220	1.773428
1216	1.754307
1212	1.735591
1208	1.723599
1204	1.719689
1200	1.720714
1196	1.721215
1192	1.716613
1188	1.707887
1184	1.697778
1180	1.687669
1176	1.676321
1172	1.662015
1168	1.645135
1164	1.626467
1160	1.607704
1156	1.594662
1152	1.588177
1148	1.583123
1144	1.576232
1140	1.566600
1136	1.553249
1132	1.536512
1128	1.518058
1124	1.498937
1120	1.478838
1116	1.457810
1112	1.437020
1108	1.420116
1104	1.410675
1100	1.406860
1096	1.404356
1092	1.403236
1088	1.404881
1084	1.406025
1080	1.404762
1076	1.405715
1072	1.410984
1068	1.415872
1064	1.415443
1060	1.399230
1056	1.349782
1052	1.291990
1048	1.287508
1044	1.329374
1040	1.359033
1036	1.362991
1032	1.357436
1028	1.350092
1024	1.343059
1020	1.340436
1016	1.345610
1012	1.355838
1008	1.366519
1004	1.374673
1000	1.379013
996	 1.379203
992	 1.375031
988	 1.368594
984	 1.360559
980	 1.351833
976	 1.344418
972	 1.335811
968	 1.324009
964	 1.309823
960	 1.294326
956	 1.279759
952	 1.267743
948	 1.258182
944	 1.249194
940	 1.240682
936	 1.233410
932	 1.225376
928	 1.216530
924	 1.207804
920	 1.198577
916	 1.186227
912	 1.170229
908	 1.155948
904	 1.146197
900	 1.139235
896	 1.133036
892	 1.123476
888	 1.103997
884	 1.071906
880	 1.036357
876	 1.016569
872	 1.024222
868	 1.048254
864	 1.068139
860	 1.076698
856	 1.077413
852	 1.073837
848	 1.068401
844	 1.060748
840	 1.045799
836	 1.012682
832	 0.949883
828	 0.873303
824	 0.835371
820	 0.860381
816	 0.905728
812	 0.930023
808	 0.934219
804	 0.931835
800	 0.931119
796	 0.936341
792	 0.946164
788	 0.956296
784	 0.963282
780	 0.965213
776	 0.963783
772	 0.961279
768	 0.957870
764	 0.954461
760	 0.951337
756	 0.946903
752	 0.940966
748	 0.935029
744	 0.929450
740	 0.922060
736	 0.912404
732	 0.901150
728	 0.888872
724	 0.877523
720	 0.867223
716	 0.855898
712	 0.843930
708	 0.832056
704	 0.818228
700	 0.801229
696	 0.778341
692	 0.748157
688	 0.724458
684	 0.720071
680	 0.723600
676	 0.721573
672	 0.714707
668	 0.705885
664	 0.696015
660	 0.687122
656	 0.678586
652	 0.667810
648	 0.656461
644	 0.645637
640	 0.634193
636	 0.622916
632	 0.612378
628	 0.602722
624	 0.593733
620	 0.583553
616	 0.569677
612	 0.550746
608	 0.530576
604	 0.518155
600	 0.514793
596	 0.513052
592	 0.509595
588	 0.504970
584	 0.499367
580	 0.494503
576	 0.491809
572	 0.489282
568	 0.484204
564	 0.477409
560	 0.471210
556	 0.465321
552	 0.459098
548	 0.451874
544	 0.443887
540	 0.437283
536	 0.431418
532	 0.423908
528	 0.414490
524	 0.403952
520	 0.394010
516	 0.385212
512	 0.376510
508	 0.366234
504	 0.354862
500	 0.343084
496	 0.329542
492	 0.315022
488	 0.300717
484	 0.286579
480	 0.272607
476	 0.259089
472	 0.247192
468	 0.236725
464	 0.225639
460	 0.211668
456	 0.194907
452	 0.178956
448	 0.167202
444	 0.158023
440	 0.148320
436	 0.137209
432	 0.125098
428	 0.112342
424	 0.099205
420	 0.086879
416	 0.076055
412	 0.065588
408	 0.054717
404	 0.045585
400	 0.040555
396	 0.036549
392	 0.029468
388	 0.022196
384	 0.017309
380	 0.013923
376	 0.011682
372	 0.010061
370	 0.009417