File: Bakgrunnsmateriale/MATLAB/FTIR/ftir_data/LPE453/Mapping_121/LPE453_t121_cm-1.asc
PE IR       SPECTRUM    SPECTRUM    ASCII       PEDS        1.60
  -1
LP0477~1.ASC
17/05/17
00:32:26.00
17/05/17
00:32:26.00
tln
$LPE453_t0121$<tbV0>[-13.0,13.0,8.0,0.0,27,1,0]
370
64

2002,4.07
MIRTGS : RIGHTBACK : INTERNAL 2
MIR : ON : INTERNAL 2
OPTKBR

0.200000
8
8.000000
FILLER
RATIO
SPECTRUM
UNLOCKED 256

DOUBLE
64
COMBINED
1
0
0

1.000000
RATIO

1
0
TRUE
51149
0
LEFT NOT FITTED RIGHT NOT FITTED 0
NONE
NONE
15600
12
4.427000
51148
TRUE
1 0 8 72 0 0 0 0

15798

#HDR
-1
-1
#GR
CM-1
%T
2.38419e-05
0.0
5000
-1.000000
4631
8
34.0246
-4.918360
#DATA
5000	0.035285
4996	0.061702
4992	0.081014
4988	-0.051403
4984	-0.044226
4980	0.053620
4976	-0.059914
4972	-0.099682
4968	0.010704
4964	0.053787
4960	0.113987
4956	0.135493
4952	0.018477
4948	-0.012016
4944	0.120353
4940	0.138735
4936	0.041770
4932	0.001597
4928	0.098586
4924	0.216698
4920	0.022482
4916	-0.359487
4912	-0.510835
4908	-0.364542
4904	-0.111389
4900	0.023746
4896	-0.035500
4892	-0.017213
4888	0.081968
4884	-0.043249
4880	-0.188016
4876	-0.190687
4872	-0.234365
4868	-0.237727
4864	0.066447
4860	0.331759
4856	0.346517
4852	0.313234
4848	0.294613
4844	0.326704
4840	0.269198
4836	0.127482
4832	0.119924
4828	0.181746
4824	0.201964
4820	0.186276
4816	0.087261
4812	-0.011301
4808	0.172185
4804	0.426125
4800	0.489258
4796	0.489592
4792	0.367116
4788	0.188088
4784	0.128078
4780	0.115299
4776	0.231194
4772	0.448298
4768	0.334858
4764	0.095033
4760	0.097417
4756	-0.064182
4752	-0.053715
4748	0.482392
4744	0.624155
4740	0.309491
4736	0.232505
4732	0.403261
4728	0.474858
4724	0.345730
4720	0.343322
4716	0.424265
4712	0.324869
4708	0.237894
4704	0.343608
4700	0.638818
4696	0.638532
4692	-0.059580
4688	-0.613665
4684	-0.717210
4680	-0.740933
4676	-0.228643
4672	0.354242
4668	0.595974
4664	0.823736
4660	0.588202
4656	0.360655
4652	0.558662
4648	0.998902
4644	1.527333
4640	1.445579
4636	1.123881
4632	0.945115
4628	0.759792
4624	0.503921
4620	-0.136423
4616	-0.106430
4612	0.607705
4608	0.605821
4604	0.224232
4600	0.258874
4596	0.250172
4592	0.071430
4588	-0.338482
4584	-0.846529
4580	-0.909161
4576	-0.661945
4572	-0.814867
4568	-1.332068
4564	-1.392459
4560	-0.750207
4556	-0.223469
4552	-0.250649
4548	-0.341010
4544	-0.293469
4540	-0.381183
4536	-0.578618
4532	-0.832843
4528	-0.942158
4524	-0.721263
4520	-0.871372
4516	-1.295304
4512	-1.147079
4508	-0.965094
4504	-1.135563
4500	2.945256
4496	15.6233
4492	26.188
4488	21.776
4484	9.613561
4480	0.167751
4476	-1.845335
4472	-1.221442
4468	-0.829434
4464	-0.658965
4460	-0.945019
4456	-0.690841
4452	-0.689911
4448	-1.095128
4444	-1.204895
4440	-1.063752
4436	-0.939750
4432	-0.625371
4428	-0.352311
4424	-0.222945
4420	-0.069093
4416	-0.001597
4412	-0.051069
4408	0.058031
4404	0.063657
4400	-0.023221
4396	0.178837
4392	0.259280
4388	0.189638
4384	0.214910
4380	0.411319
4376	0.719213
4372	0.885438
4368	0.989937
4364	0.877404
4360	0.491023
4356	0.335431
4352	0.355625
4348	0.305008
4344	0.343847
4340	0.428366
4336	0.400757
4332	0.245666
4328	0.059843
4324	-0.025725
4320	0.010490
4316	0.227451
4312	0.383710
4308	0.215864
4304	0.161385
4300	0.350117
4296	0.256538
4292	0.082111
4288	0.187540
4284	0.259327
4280	0.257992
4276	0.318264
4272	0.211715
4268	-0.066614
4264	-0.144100
4260	0.046205
4256	0.166010
4252	0.040364
4248	-0.117278
4244	-0.070571
4240	-0.010681
4236	-0.078010
4232	-0.146627
4228	-0.182342
4224	-0.098752
4220	0.020503
4216	0.074601
4212	0.104856
4208	0.114989
4204	0.180220
4200	0.244903
4196	0.307250
4192	0.417113
4188	0.346660
4184	0.032329
4180	-0.083351
4176	0.194501
4172	0.421261
4168	0.405716
4164	0.386786
4160	0.343012
4156	0.271606
4152	0.339961
4148	0.378537
4144	0.223851
4140	0.091195
4136	0.044727
4132	0.006079
4128	0.022506
4124	0.039792
4120	0.029850
4116	0.059676
4112	0.063872
4108	0.020170
4104	-0.025629
4100	-0.060844
4096	-0.079178
4092	-0.083041
4088	-0.086426
4084	-0.072836
4080	-0.012302
4076	0.148320
4072	0.260734
4068	0.142788
4064	-0.036215
4060	-0.073695
4056	0.015687
4052	0.076651
4048	0.112891
4044	0.123858
4040	0.098824
4036	0.135254
4032	0.204992
4028	0.212597
4024	0.147795
4020	0.095605
4016	0.067710
4012	0.011610
4008	-0.024557
4004	0.031518
4000	0.117278
3996	0.189161
3992	0.284147
3988	0.324177
3984	0.241327
3980	0.200629
3976	0.266313
3972	0.254559
3968	0.166296
3964	0.124883
3960	0.127363
3956	0.061368
3952	-0.061392
3948	-0.090527
3944	-0.094985
3940	-0.116419
3936	-0.074815
3932	-0.084710
3928	-0.087952
3924	0.062417
3920	0.174999
3916	0.181841
3912	0.215435
3908	0.207662
3904	0.092530
3900	0.019168
3896	0.061535
3892	0.095653
3888	0.073003
3884	0.016283
3880	-0.105810
3876	-0.146913
3872	-0.029110
3868	0.105476
3864	0.141716
3860	0.049662
3856	-0.009846
3852	0.028920
3848	0.088858
3844	0.135231
3840	0.059533
3836	-0.013136
3832	0.098085
3828	0.252819
3824	0.250887
3820	0.194096
3816	0.252175
3812	0.241661
3808	0.127220
3804	0.072741
3800	0.000834
3796	-0.085735
3792	-0.070452
3788	-0.039744
3784	-0.006031
3780	0.118660
3776	0.197625
3772	0.209069
3768	0.229835
3764	0.196671
3760	0.137233
3756	0.088834
3752	0.033164
3748	0.002813
3744	0.027799
3740	0.081539
3736	0.091171
3732	0.036001
3728	0.050950
3724	0.147414
3720	0.167798
3716	0.097560
3712	-0.043106
3708	-0.118374
3704	0.001716
3700	0.124120
3696	0.138711
3692	0.119543
3688	0.098371
3684	0.071597
3680	0.027346
3676	0.024652
3672	0.105071
3668	0.185680
3664	0.192475
3660	0.167012
3656	0.170850
3652	0.128293
3648	0.064182
3644	0.108122
3640	0.183129
3636	0.163578
3632	0.091314
3628	0.090622
3624	0.105190
3620	0.023245
3616	-0.116276
3612	-0.213074
3608	-0.199365
3604	-0.182533
3600	-0.175833
3596	-0.086379
3592	0.037837
3588	0.127696
3584	0.170278
3580	0.204634
3576	0.184512
3572	0.165128
3568	0.212717
3564	0.131440
3560	-0.030636
3556	-0.034022
3552	-0.003123
3548	-0.046300
3544	-0.013184
3540	0.070762
3536	0.137233
3532	0.201225
3528	0.192880
3524	0.151753
3520	0.164604
3516	0.216460
3512	0.236010
3508	0.193047
3504	0.178790
3500	0.150728
3496	0.082421
3492	0.084519
3488	0.118994
3484	0.176382
3480	0.214958
3476	0.172734
3472	0.154185
3468	0.145220
3464	0.110197
3460	0.069618
3456	0.062465
3452	0.109958
3448	0.120925
3444	0.069308
3440	0.020074
3436	0.081157
3432	0.171613
3428	0.141286
3424	0.097417
3420	0.083851
3416	0.058937
3412	0.117969
3408	0.198078
3404	0.179171
3400	0.104331
3396	0.019097
3392	0.049138
3388	0.177955
3384	0.164055
3380	0.005459
3376	-0.080704
3372	-0.081300
3368	-0.061678
3364	-0.027561
3360	-0.095844
3356	-0.188112
3352	-0.113487
3348	0.003743
3344	0.039243
3340	0.040721
3336	0.073194
3332	0.130510
3328	0.112390
3324	0.031495
3320	-0.038266
3316	-0.069093
3312	-0.025844
3308	0.031280
3304	0.023818
3300	0.057029
3296	0.143933
3292	0.155258
3288	0.103807
3284	0.031828
3280	-0.034475
3276	-0.024294
3272	0.021576
3268	-0.004792
3264	-0.016808
3260	0.034713
3256	0.059223
3252	0.043439
3248	-0.041103
3244	-0.131845
3240	-0.105023
3236	-0.005292
3232	0.072407
3228	0.084328
3224	0.019145
3220	-0.069308
3216	-0.086474
3212	-0.034141
3208	-0.025129
3204	-0.097298
3200	-0.136995
3196	-0.088047
3192	0.002717
3188	0.075078
3184	0.026226
3180	-0.079679
3176	-0.068378
3172	0.024771
3168	0.050401
3164	0.026845
3160	0.041007
3156	0.043392
3152	-0.012469
3148	-0.057554
3144	-0.022220
3140	0.084257
3136	0.210809
3132	0.291514
3128	0.230836
3124	0.110960
3120	0.106072
3116	0.075578
3112	-0.056433
3108	-0.064516
3104	0.054693
3100	0.133776
3096	0.091075
3092	-0.024652
3088	-0.048351
3084	0.030946
3080	0.100517
3076	0.122570
3072	0.048065
3068	-0.083065
3064	-0.147914
3060	-0.143980
3056	-0.068354
3052	0.043225
3048	0.075793
3044	0.061964
3040	0.061821
3036	0.040721
3032	-0.004315
3028	0.019574
3024	0.106668
3020	0.100851
3016	0.053858
3012	0.043821
3008	-0.020933
3004	-0.094008
3000	-0.079536
2996	-0.009846
2992	0.028300
2988	0.015854
2984	0.006031
2980	0.038456
2976	0.096654
2972	0.102615
2968	0.095725
2964	0.134110
2960	0.119757
2956	0.054383
2952	0.054383
2948	0.102734
2944	0.054907
2940	-0.054287
2936	-0.078225
2932	-0.078105
2928	-0.066614
2924	-0.005245
2920	0.016093
2916	0.042247
2912	0.120520
2908	0.134062
2904	0.067687
2900	0.042819
2896	0.066590
2892	0.067305
2888	0.046825
2884	0.031542
2880	0.027608
2876	0.024080
2872	-0.019264
2868	-0.032877
2864	0.026535
2860	0.038695
2856	-0.013327
2852	-0.049161
2848	-0.051689
2844	-0.020289
2840	0.007557
2836	0.011754
2832	0.053691
2828	0.106596
2824	0.088000
2820	0.049638
2816	0.081086
2812	0.135350
2808	0.102591
2804	0.008058
2800	-0.024890
2796	0.035881
2792	0.085139
2788	0.055909
2784	0.036430
2780	0.057220
2776	0.066113
2772	0.074958
2768	0.120878
2764	0.160312
2760	0.094366
2756	0.020289
2752	0.049543
2748	0.081968
2744	0.079107
2740	0.068998
2736	0.013184
2732	-0.055813
2728	-0.036001
2724	0.042557
2720	0.077342
2716	0.072383
2712	0.052356
2708	-0.000333
2704	-0.043630
2700	-0.032329
2696	-0.004982
2692	0.025796
2688	0.077772
2684	0.119543
2680	0.109362
2676	0.059652
2672	0.041317
2668	0.101637
2664	0.178384
2660	0.154995
2656	0.050020
2652	-0.014686
2648	-0.019550
2644	0.017738
2640	0.057673
2636	0.043702
2632	0.022149
2628	0.034642
2624	0.067424
2620	0.097727
2616	0.059628
2612	-0.012445
2608	-0.010967
2604	0.011539
2600	-0.005531
2596	-0.008559
2592	0.018763
2588	0.011515
2584	-0.017046
2580	-0.003337
2576	0.004196
2572	-0.026750
2568	-0.051784
2564	-0.030422
2560	0.050711
2556	0.107192
2552	0.083208
2548	0.044894
2544	0.044178
2540	0.054669
2536	0.036215
2532	0.023674
2528	0.007247
2524	-0.022983
2520	0.005173
2516	0.036191
2512	-0.001883
2508	-0.018525
2504	0.045514
2500	0.096130
2496	0.060534
2492	0.026130
2488	0.025916
2484	0.040555
2480	0.069046
2476	0.063943
2472	0.080657
2468	0.103592
2464	0.056862
2460	0.019717
2456	0.011849
2452	-0.005221
2448	-0.019502
2444	-0.024461
2440	-0.041723
2436	-0.032234
2432	0.017070
2428	0.038027
2424	-0.011086
2420	-0.108957
2416	-0.161695
2412	-0.116348
2408	-0.057363
2404	-0.058746
2400	-0.060296
2396	-0.043439
2392	-0.031375
2388	0.000190
2384	0.012898
2380	0.021243
2376	0.050449
2372	0.030493
2368	-0.012707
2364	0.000548
2360	0.075435
2356	0.139880
2352	0.148224
2348	0.151562
2344	0.173425
2340	0.227069
2336	0.270795
2332	0.200772
2328	0.092005
2324	0.120902
2320	0.252866
2316	0.337648
2312	0.372791
2308	0.379109
2304	0.377917
2300	0.469040
2296	0.588726
2292	0.600194
2288	0.579595
2284	0.611829
2280	0.680518
2276	0.770044
2272	0.860381
2268	0.960922
2264	1.077079
2260	1.175832
2256	1.253366
2252	1.307415
2248	1.388382
2244	1.550436
2240	1.717376
2236	1.878714
2232	2.034401
2228	2.164149
2224	2.341628
2220	2.583789
2216	2.842640
2212	3.037118
2208	3.163981
2204	3.354430
2200	3.671145
2196	4.015278
2192	4.300951
2188	4.583811
2184	4.877543
2180	5.153703
2176	5.467438
2172	5.809092
2168	6.094837
2164	6.388592
2160	6.802773
2156	7.254481
2152	7.669186
2148	8.090138
2144	8.515524
2140	8.900928
2136	9.238505
2132	9.623837
2128	10.095
2124	10.543
2120	10.965
2116	11.4472
2112	11.9612
2108	12.4358
2104	12.8723
2100	13.3045
2096	13.7335
2092	14.1652
2088	14.613
2084	15.0862
2080	15.5335
2076	15.9475
2072	16.4327
2068	16.956
2064	17.4095
2060	17.8056
2056	18.2216
2052	18.6557
2048	19.0567
2044	19.4443
2040	19.855
2036	20.2743
2032	20.6595
2028	21.0158
2024	21.4009
2020	21.7999
2016	22.1485
2012	22.4694
2008	22.806
2004	23.1495
2000	23.4983
1996	23.8608
1992	24.1894
1988	24.4359
1984	24.6495
1980	24.8957
1976	25.1693
1972	25.4433
1968	25.7123
1964	25.9658
1960	26.1952
1956	26.4003
1952	26.6235
1948	26.9178
1944	27.1964
1940	27.3989
1936	27.5789
1932	27.7739
1928	27.9926
1924	28.2061
1920	28.3913
1916	28.5348
1912	28.6412
1908	28.7412
1904	28.8735
1900	29.0524
1896	29.2265
1892	29.3827
1888	29.544
1884	29.6712
1880	29.7614
1876	29.864
1872	30.0205
1868	30.2037
1864	30.3206
1860	30.3899
1856	30.5175
1852	30.6651
1848	30.7444
1844	30.7971
1840	30.8701
1836	30.9367
1832	30.9963
1828	31.0753
1824	31.1691
1820	31.2696
1816	31.3448
1812	31.4086
1808	31.5113
1804	31.6104
1800	31.6694
1796	31.7235
1792	31.7773
1788	31.8072
1784	31.8387
1780	31.8773
1776	31.9036
1772	31.9645
1768	32.0661
1764	32.1281
1760	32.1472
1756	32.1819
1752	32.248
1748	32.3031
1744	32.3081
1740	32.3129
1736	32.3438
1732	32.3459
1728	32.3442
1724	32.3699
1720	32.378
1716	32.4066
1712	32.4761
1708	32.5303
1704	32.5793
1700	32.6568
1696	32.7345
1692	32.7914
1688	32.8272
1684	32.8043
1680	32.7646
1676	32.7639
1672	32.7425
1668	32.7273
1664	32.8014
1660	32.9093
1656	32.9822
1652	32.9851
1648	32.9694
1644	33.0042
1640	33.0372
1636	33.0536
1632	33.0854
1628	33.1274
1624	33.1326
1620	33.0835
1616	33.0266
1612	33.0226
1608	33.1211
1604	33.2103
1600	33.2065
1596	33.2098
1592	33.2665
1588	33.2786
1584	33.2028
1580	33.1365
1576	33.1148
1572	33.1631
1568	33.2867
1564	33.341
1560	33.3086
1556	33.2719
1552	33.2596
1548	33.2961
1544	33.3559
1540	33.3996
1536	33.4653
1532	33.5444
1528	33.526
1524	33.4588
1520	33.4683
1516	33.4675
1512	33.413
1508	33.4097
1504	33.45
1500	33.4516
1496	33.4072
1492	33.3762
1488	33.3708
1484	33.4118
1480	33.5082
1476	33.5691
1472	33.5663
1468	33.5472
1464	33.5328
1460	33.4785
1456	33.4356
1452	33.4929
1448	33.5289
1444	33.4772
1440	33.4393
1436	33.5279
1432	33.6723
1428	33.6987
1424	33.6741
1420	33.6838
1416	33.6686
1412	33.6272
1408	33.6072
1404	33.6086
1400	33.5701
1396	33.5169
1392	33.5454
1388	33.6124
1384	33.619
1380	33.6154
1376	33.6881
1372	33.7909
1368	33.8255
1364	33.7893
1360	33.7523
1356	33.7262
1352	33.674
1348	33.6111
1344	33.5914
1340	33.6096
1336	33.643
1332	33.6747
1328	33.7129
1324	33.7642
1320	33.7958
1316	33.8245
1312	33.8462
1308	33.8398
1304	33.8274
1300	33.8036
1296	33.7673
1292	33.7358
1288	33.7266
1284	33.6959
1280	33.6416
1276	33.6706
1272	33.7472
1268	33.7658
1264	33.7875
1260	33.9069
1256	34.0167
1252	34.0052
1248	33.9491
1244	33.9193
1240	33.9061
1236	33.8939
1232	33.8473
1228	33.7583
1224	33.7521
1220	33.8439
1216	33.8927
1212	33.898
1208	33.9086
1204	33.9204
1200	33.9452
1196	33.98
1192	33.9757
1188	33.933
1184	33.9236
1180	33.8936
1176	33.8274
1172	33.7566
1168	33.7293
1164	33.7518
1160	33.7631
1156	33.7681
1152	33.7756
1148	33.8079
1144	33.8437
1140	33.8293
1136	33.8032
1132	33.7914
1128	33.7952
1124	33.7737
1120	33.668
1116	33.4373
1112	33.1869
1108	33.1189
1104	33.227
1100	33.3327
1096	33.3386
1092	33.3378
1088	33.3969
1084	33.4545
1080	33.4728
1076	33.471
1072	33.4568
1068	33.403
1064	33.3311
1060	33.2826
1056	33.2171
1052	33.0786
1048	32.9596
1044	32.9682
1040	33.0301
1036	33.1146
1032	33.2061
1028	33.2381
1024	33.228
1020	33.2247
1016	33.1743
1012	32.9851
1008	32.7769
1004	32.6752
1000	32.6361
996	 32.6232
992	 32.5916
988	 32.5281
984	 32.5361
980	 32.6176
976	 32.5701
972	 32.4262
968	 32.3858
964	 32.4002
960	 32.3951
956	 32.3646
952	 32.3272
948	 32.2747
944	 32.1247
940	 31.9359
936	 31.8
932	 31.7318
928	 31.7225
924	 31.7691
920	 31.7657
916	 31.6581
912	 31.5783
908	 31.561
904	 31.5927
900	 31.6219
896	 31.5668
892	 31.4172
888	 31.1791
884	 30.9112
880	 30.7595
876	 30.7849
872	 30.7688
868	 30.6386
864	 30.5809
860	 30.6344
856	 30.6794
852	 30.6686
848	 30.6791
844	 30.6616
840	 30.5588
836	 30.4389
832	 30.3339
828	 30.1752
824	 29.933
820	 29.7355
816	 29.5638
812	 29.4811
808	 29.6391
804	 29.8098
800	 29.7968
796	 29.6833
792	 29.4923
788	 29.3081
784	 29.2741
780	 29.3028
776	 29.271
772	 29.1433
768	 28.9172
764	 28.6375
760	 28.4562
756	 28.4227
752	 28.3595
748	 28.3439
744	 28.4242
740	 28.4134
736	 28.384
732	 28.3946
728	 28.3623
724	 28.1955
720	 27.9249
716	 27.7813
712	 27.6712
708	 27.4719
704	 27.3133
700	 27.1267
696	 26.9993
692	 27.0456
688	 27.1148
684	 27.1274
680	 27.0411
676	 26.947
672	 26.9435
668	 26.992
664	 27.0047
660	 26.9001
656	 26.6709
652	 26.2751
648	 25.9137
644	 25.8349
640	 25.8254
636	 25.6359
632	 25.3784
628	 25.3816
624	 25.629
620	 25.8327
616	 25.8459
612	 25.7044
608	 25.5558
604	 25.3742
600	 25.1001
596	 24.7851
592	 24.5039
588	 24.3691
584	 24.5468
580	 24.9635
576	 25.0892
572	 24.8594
568	 24.6655
564	 24.5749
560	 24.6724
556	 24.7189
552	 24.4029
548	 24.2173
544	 24.3184
540	 24.2277
536	 24.0349
532	 23.8454
528	 23.368
524	 22.9092
520	 22.9033
516	 22.9304
512	 22.651
508	 22.4531
504	 22.4333
500	 22.4542
496	 22.7167
492	 23.1648
488	 23.4606
484	 23.1219
480	 22.1355
476	 21.3091
472	 21.0685
468	 21.0075
464	 20.6024
460	 20.1183
456	 20.1555
452	 20.7849
448	 21.233
444	 20.8501
440	 20.3741
436	 20.3951
432	 20.827
428	 21.2958
424	 20.5778
420	 19.3349
416	 19.4539
412	 19.767
408	 18.0324
404	 14.7053
400	 13.585
396	 14.8579
392	 13.7465
388	 12.9806
384	 15.1878
380	 14.4326
376	 9.981846
372	 0.789952
370	 -4.918360