File: Bakgrunnsmateriale/MATLAB/FTIR/ftir_data/LPE453/Mapping_121/LPE453_t41_cm-1.asc
PE IR       SPECTRUM    SPECTRUM    ASCII       PEDS        1.60
  -1
LP59D5~1.ASC
17/05/16
17:40:53.00
17/05/16
17:40:53.00
tln
$LPE453_t0041$<tbV0>[-5.2,-5.2,8.0,0.0,27,1,0]
370
64

2002,4.07
MIRTGS : RIGHTBACK : INTERNAL 2
MIR : ON : INTERNAL 2
OPTKBR

0.200000
8
8.000000
FILLER
RATIO
SPECTRUM
UNLOCKED 256

DOUBLE
64
COMBINED
1
0
0

1.000000
RATIO

1
0
TRUE
51149
0
LEFT NOT FITTED RIGHT NOT FITTED 0
NONE
NONE
15600
12
4.427000
51148
TRUE
1 0 8 72 0 0 0 0

15798

#HDR
-1
-1
#GR
CM-1
%T
2.38419e-05
0.0
5000
-1.000000
4631
8
35.904
-37.5846
#DATA
5000	0.154805
4996	0.012731
4992	-0.145578
4988	-0.217342
4984	-0.085330
4980	0.082349
4976	0.184941
4972	0.429940
4968	0.734615
4964	0.689291
4960	0.191307
4956	-0.202512
4952	-0.122189
4948	0.031733
4944	-0.060510
4940	-0.228762
4936	-0.342082
4932	-0.470137
4928	-0.452709
4924	-0.147175
4920	0.139260
4916	0.214838
4912	0.249457
4908	0.283503
4904	0.248599
4900	0.138854
4896	-0.022649
4892	-0.113344
4888	0.017905
4884	0.450134
4880	0.839400
4876	0.843620
4872	0.810647
4868	0.818276
4864	0.551724
4860	0.197052
4856	-0.043988
4852	-0.252532
4848	-0.329732
4844	-0.136756
4840	0.069355
4836	0.125908
4832	0.116991
4828	0.032448
4824	0.082826
4820	0.251579
4816	0.266861
4812	0.076746
4808	-0.080680
4804	-0.038719
4800	0.007367
4796	0.078892
4792	0.204086
4788	0.177216
4784	0.011062
4780	-0.074052
4776	-0.035047
4772	0.130057
4768	0.255393
4764	0.139522
4760	0.066041
4756	0.156903
4752	0.248885
4748	0.282263
4744	0.326418
4740	0.372862
4736	0.223064
4732	0.056934
4728	-0.005602
4724	-0.047850
4720	0.097012
4716	0.225162
4712	0.171256
4708	0.114250
4704	0.130152
4700	0.237607
4696	0.240826
4692	0.161838
4688	0.260162
4684	0.428080
4680	0.401473
4676	0.229406
4672	0.266122
4668	0.417017
4664	0.309586
4660	-0.008511
4656	-0.233173
4652	-0.105357
4648	0.274229
4644	0.458669
4640	0.295114
4636	0.200366
4632	0.357031
4628	0.514054
4624	0.515770
4620	0.368332
4616	0.180482
4612	0.063443
4608	-0.154519
4604	-0.374078
4600	-0.332880
4596	-0.238347
4592	-0.124740
4588	0.207734
4584	0.515961
4580	0.444388
4576	0.033998
4572	-0.222063
4568	-0.023794
4564	0.067329
4560	-0.261449
4556	-0.725793
4552	-1.213884
4548	-1.676487
4544	-2.167010
4540	-2.577161
4536	-1.921749
4532	-0.555205
4528	1.043057
4524	2.492880
4520	5.980396
4516	12.4991
4512	11.2943
4508	3.127002
4504	0.009417
4500	0.329709
4496	0.518941
4492	-0.169062
4488	-1.313066
4484	-1.221823
4480	-0.618791
4476	-0.332880
4472	-0.418996
4468	-0.566744
4464	-0.659298
4460	-0.630497
4456	-0.559592
4452	-0.389599
4448	-0.159192
4444	-0.099730
4440	-0.073027
4436	-0.009369
4432	-0.156879
4428	-0.355362
4424	-0.254487
4420	-0.027394
4416	0.041341
4412	0.173568
4408	0.365447
4404	0.328302
4400	0.249195
4396	0.371336
4392	0.428748
4388	0.378227
4384	0.411319
4380	0.410604
4376	0.394058
4372	0.379753
4368	0.261259
4364	0.078749
4360	-0.024628
4356	-0.032138
4352	-0.133132
4348	-0.291275
4344	-0.279784
4340	-0.174164
4336	-0.042486
4332	0.176501
4328	0.264167
4324	0.199103
4320	0.032424
4316	-0.236558
4312	-0.323271
4308	-0.195169
4304	-0.222992
4300	-0.226831
4296	-0.025057
4292	0.095224
4288	0.128269
4284	0.105452
4280	0.031375
4276	0.017929
4272	0.055456
4268	0.029492
4264	-0.088024
4260	-0.124979
4256	-0.089359
4252	-0.139474
4248	-0.230121
4244	-0.224208
4240	-0.166034
4236	-0.102853
4232	0.049972
4228	0.057649
4224	-0.120711
4220	-0.148558
4216	-0.096058
4212	-0.166153
4208	-0.234293
4204	-0.080990
4200	0.167989
4196	0.247788
4192	0.310158
4188	0.519895
4184	0.665879
4180	0.533032
4176	0.361990
4172	0.286149
4168	0.064945
4164	-0.058007
4160	0.032186
4156	0.098991
4152	0.119256
4148	0.129961
4144	0.216555
4140	0.254797
4136	0.100159
4132	-0.117611
4128	-0.131082
4124	-0.061011
4120	-0.124597
4116	-0.196218
4112	-0.135397
4108	-0.016665
4104	-0.053811
4100	-0.141787
4096	-0.035929
4092	0.083899
4088	0.131201
4084	0.073337
4080	-0.123643
4076	-0.124812
4072	0.013422
4068	0.055885
4064	0.119066
4060	0.209951
4056	0.196266
4052	0.086522
4048	0.020003
4044	0.001525
4040	-0.006175
4036	0.019645
4032	0.058388
4028	0.079250
4024	0.097203
4020	0.127339
4016	0.150227
4012	0.195288
4008	0.190210
4004	0.088739
4000	0.022768
3996	0.015687
3992	0.022745
3988	0.068616
3984	0.103855
3980	0.072097
3976	0.036573
3972	0.011420
3968	-0.001025
3964	0.027489
3960	0.115513
3956	0.158023
3952	0.026178
3948	-0.083851
3944	-0.104260
3940	-0.094652
3936	0.005865
3932	0.101041
3928	0.069236
3924	-0.038170
3920	-0.101923
3916	-0.098013
3912	-0.007247
3908	0.098514
3904	0.101542
3900	0.032448
3896	-0.017952
3892	-0.021147
3888	-0.050210
3884	-0.122380
3880	-0.152277
3876	-0.154137
3872	-0.156164
3868	-0.105500
3864	0.009226
3860	0.042629
3856	0.054836
3852	0.186347
3848	0.291490
3844	0.281882
3840	0.233078
3836	0.171089
3832	0.159287
3828	0.179934
3824	0.124168
3820	0.023126
3816	0.007987
3812	0.036382
3808	-0.006294
3804	-0.022339
3800	0.043010
3796	0.020170
3792	-0.078868
3788	-0.083351
3784	-0.027132
3780	0.067210
3776	0.199842
3772	0.267052
3768	0.203537
3764	0.075101
3760	-0.009179
3756	-0.019693
3752	0.073409
3748	0.139570
3744	0.011491
3740	-0.158429
3736	-0.185227
3732	-0.094604
3728	0.021243
3724	0.103569
3720	0.132179
3716	0.126767
3712	0.080394
3708	0.013446
3704	-0.034356
3700	-0.041389
3696	0.052618
3692	0.189447
3688	0.199961
3684	0.130438
3680	0.128412
3676	0.128555
3672	0.080275
3668	0.018143
3664	0.019907
3660	0.184488
3656	0.333571
3652	0.332593
3648	0.256729
3644	0.127720
3640	0.056838
3636	0.098180
3632	0.106787
3628	0.066757
3624	0.044584
3620	0.009298
3616	0.042748
3612	0.202655
3608	0.290083
3604	0.250101
3600	0.233125
3596	0.174546
3592	0.051188
3588	0.025320
3584	0.102615
3580	0.167679
3576	0.196743
3572	0.229120
3568	0.265693
3564	0.254726
3560	0.216412
3556	0.274920
3552	0.314998
3548	0.181221
3544	0.064373
3540	0.119185
3536	0.187659
3532	0.150227
3528	0.117778
3524	0.134873
3520	0.131821
3516	0.116825
3512	0.130295
3508	0.103306
3504	0.041484
3500	0.040912
3496	0.043964
3492	0.019979
3488	0.037765
3484	0.071454
3480	0.075912
3476	0.085544
3472	0.139117
3468	0.204324
3464	0.227046
3460	0.262069
3456	0.293946
3452	0.213050
3448	0.071930
3444	-0.008463
3440	-0.003194
3436	0.008964
3432	0.004863
3428	0.011205
3424	0.004005
3420	-0.004482
3416	0.011849
3412	0.050568
3408	0.086998
3404	0.103759
3400	0.125360
3396	0.127434
3392	0.068497
3388	0.033140
3384	0.086379
3380	0.099658
3376	0.080633
3372	0.131678
3368	0.116491
3364	-0.016188
3360	-0.079321
3356	-0.032997
3352	-0.010418
3348	0.016188
3344	0.065922
3340	0.070118
3336	0.108313
3332	0.161004
3328	0.117564
3324	-0.017166
3320	-0.141406
3316	-0.073337
3312	0.109314
3308	0.159883
3304	0.108361
3300	0.080156
3296	0.066161
3292	0.044035
3288	0.056743
3284	0.133872
3280	0.190567
3276	0.153732
3272	0.063014
3268	0.020694
3264	0.063037
3260	0.102925
3256	0.139284
3252	0.181126
3248	0.193929
3244	0.209522
3240	0.210428
3236	0.131893
3232	-0.005698
3228	-0.102257
3224	-0.077819
3220	0.015187
3216	0.037622
3212	-0.003457
3208	-0.019860
3204	0.029492
3200	0.117754
3196	0.185918
3192	0.208210
3188	0.134539
3184	0.001120
3180	-0.055551
3176	0.010228
3172	0.081205
3168	0.062060
3164	0.015282
3160	-0.016999
3156	-0.032663
3152	-0.007271
3148	0.034689
3144	0.090169
3140	0.180554
3136	0.268387
3132	0.236296
3128	0.125646
3124	0.154232
3120	0.243806
3116	0.300288
3112	0.291872
3108	0.143170
3104	0.053429
3100	0.066614
3096	0.043416
3092	-0.018358
3088	-0.072884
3084	-0.105190
3080	-0.133299
3076	-0.143885
3072	-0.145220
3068	-0.130486
3064	-0.027465
3060	0.120306
3056	0.179743
3052	0.136303
3048	0.038146
3044	-0.030684
3040	-0.015282
3036	0.021433
3032	0.033211
3028	0.039577
3024	0.048494
3020	0.050234
3016	0.023698
3012	-0.012326
3008	-0.026893
3004	-0.063323
3000	-0.082635
2996	-0.046658
2992	0.015521
2988	0.042295
2984	0.019145
2980	0.016021
2976	0.019192
2972	0.043988
2968	0.085854
2964	0.067257
2960	0.013732
2956	-0.026035
2952	-0.011539
2948	0.067877
2944	0.088548
2940	0.019621
2936	-0.016617
2932	-0.026416
2928	-0.050520
2924	-0.028300
2920	-0.002479
2916	-0.015258
2912	0.013113
2908	0.075578
2904	0.103831
2900	0.094723
2896	0.096988
2892	0.112462
2888	0.110435
2884	0.077080
2880	0.006246
2876	-0.039386
2872	0.024914
2868	0.141119
2864	0.186657
2860	0.187754
2856	0.212240
2852	0.223827
2848	0.194954
2844	0.160694
2840	0.118994
2836	0.088095
2832	0.100612
2828	0.086927
2824	0.021052
2820	-0.002479
2816	0.046658
2812	0.092244
2808	0.089764
2804	0.095319
2800	0.110244
2796	0.081610
2792	0.034666
2788	0.003623
2784	-0.008130
2780	-0.004267
2776	0.041604
2772	0.042915
2768	-0.029587
2764	-0.058460
2760	-0.096702
2756	-0.137662
2752	-0.122022
2748	-0.102329
2744	-0.075268
2740	-0.042653
2736	-0.052928
2732	-0.077843
2728	-0.052642
2724	0.005030
2720	0.053310
2716	0.085735
2712	0.066876
2708	0.019526
2704	0.009965
2700	0.038790
2696	0.047588
2692	0.015139
2688	-0.011610
2684	-0.013327
2680	0.038146
2676	0.089502
2672	0.062394
2668	0.034642
2664	0.044059
2660	0.044178
2656	0.026059
2652	0.020146
2648	0.044107
2644	0.070071
2640	0.051569
2636	0.006341
2632	-0.018930
2628	0.010967
2624	0.079131
2620	0.081562
2616	0.030112
2612	0.023412
2608	0.098156
2604	0.156831
2600	0.102210
2596	0.038290
2592	0.034308
2588	0.039768
2584	0.011634
2580	-0.049638
2576	-0.093579
2572	-0.091385
2568	-0.039815
2564	0.030517
2560	0.056099
2556	0.067472
2552	0.062966
2548	-0.002765
2544	-0.002598
2540	0.052881
2536	0.041365
2532	0.034642
2528	0.061511
2524	0.061988
2520	0.053668
2516	0.070595
2512	0.094699
2508	0.094461
2504	0.112724
2500	0.165867
2496	0.194144
2492	0.214982
2488	0.247645
2484	0.263476
2480	0.217247
2476	0.090861
2472	0.006413
2468	0.023913
2464	0.045585
2460	0.055646
2456	0.072193
2452	0.047969
2448	-0.003671
2444	-0.031709
2440	-0.039219
2436	-0.018382
2432	-0.006079
2428	-0.057268
2424	-0.198650
2420	-0.318145
2416	-0.200152
2412	0.017905
2408	0.135445
2404	0.223374
2400	0.232768
2396	0.091886
2392	0.004458
2388	0.062298
2384	0.090479
2380	0.078868
2376	0.088930
2372	0.101923
2368	0.114130
2364	0.102114
2360	0.074648
2356	0.064015
2352	0.083303
2348	0.088691
2344	0.062417
2340	0.084567
2336	0.166749
2332	0.241756
2328	0.267744
2324	0.273919
2320	0.291132
2316	0.318312
2312	0.351953
2308	0.401329
2304	0.454092
2300	0.457215
2296	0.450396
2292	0.489187
2288	0.560808
2284	0.618076
2280	0.654244
2276	0.720453
2272	0.825667
2268	0.978589
2264	1.145100
2260	1.242470
2256	1.331567
2252	1.491689
2248	1.631784
2244	1.713848
2240	1.810264
2236	1.924967
2232	2.066564
2228	2.280640
2224	2.520132
2220	2.763652
2216	3.056788
2212	3.323268
2208	3.532934
2204	3.797841
2200	4.127383
2196	4.462385
2192	4.805564
2188	5.130934
2184	5.425262
2180	5.758929
2176	6.159234
2172	6.641411
2168	7.160043
2164	7.647824
2160	8.089828
2156	8.488655
2152	8.928704
2148	9.355449
2144	9.742331
2140	10.2406
2136	10.7888
2132	11.246
2128	11.7189
2124	12.2984
2120	12.8613
2116	13.2996
2112	13.6954
2108	14.1959
2104	14.8001
2100	15.4203
2096	16.0172
2092	16.5735
2088	17.0761
2084	17.5936
2080	18.1571
2076	18.724
2072	19.2472
2068	19.7367
2064	20.2103
2060	20.6388
2056	21.0173
2052	21.3776
2048	21.8402
2044	22.358
2040	22.8105
2036	23.2792
2032	23.7642
2028	24.2079
2024	24.6582
2020	25.0873
2016	25.4243
2012	25.7193
2008	26.0397
2004	26.4095
2000	26.7704
1996	27.0393
1992	27.2763
1988	27.599
1984	27.977
1980	28.3448
1976	28.7182
1972	29.0308
1968	29.2707
1964	29.5042
1960	29.6899
1956	29.8607
1952	30.1126
1948	30.3969
1944	30.6072
1940	30.8025
1936	31.0513
1932	31.2775
1928	31.4546
1924	31.6441
1920	31.8794
1916	32.0913
1912	32.2413
1908	32.3901
1904	32.5455
1900	32.6391
1896	32.7122
1892	32.8672
1888	33.041
1884	33.1897
1880	33.3518
1876	33.516
1872	33.6894
1868	33.7968
1864	33.848
1860	33.9422
1856	34.0291
1852	34.1073
1848	34.1923
1844	34.2283
1840	34.2664
1836	34.3626
1832	34.4284
1828	34.4584
1824	34.5686
1820	34.7177
1816	34.8209
1812	34.902
1808	34.9558
1804	34.954
1800	34.9185
1796	34.899
1792	34.9526
1788	35.0432
1784	35.0918
1780	35.1227
1776	35.1739
1772	35.2454
1768	35.314
1764	35.3344
1760	35.3129
1756	35.3051
1752	35.3253
1748	35.369
1744	35.4222
1740	35.455
1736	35.4582
1732	35.4406
1728	35.4305
1724	35.4335
1720	35.4711
1716	35.5219
1712	35.5353
1708	35.5599
1704	35.6098
1700	35.6644
1696	35.6845
1692	35.6414
1688	35.6168
1684	35.6469
1680	35.6801
1676	35.6951
1672	35.7019
1668	35.7368
1664	35.7977
1660	35.8275
1656	35.8126
1652	35.7844
1648	35.7962
1644	35.8393
1640	35.8319
1636	35.7814
1632	35.7209
1628	35.6675
1624	35.7262
1620	35.8371
1616	35.8319
1612	35.7329
1608	35.6724
1604	35.7002
1600	35.7662
1596	35.8186
1592	35.8361
1588	35.8385
1584	35.8639
1580	35.8844
1576	35.8058
1572	35.6858
1568	35.6384
1564	35.5999
1560	35.5572
1556	35.6085
1552	35.6797
1548	35.7332
1544	35.8457
1540	35.904
1536	35.8427
1532	35.8021
1528	35.7996
1524	35.7113
1520	35.603
1516	35.5809
1512	35.6099
1508	35.639
1504	35.6171
1500	35.5938
1496	35.6251
1492	35.635
1488	35.6219
1484	35.6338
1480	35.6568
1476	35.634
1472	35.5206
1468	35.387
1464	35.3086
1460	35.2915
1456	35.3406
1452	35.4166
1448	35.4455
1444	35.414
1440	35.3723
1436	35.4002
1432	35.5294
1428	35.6151
1424	35.5813
1420	35.5429
1416	35.5104
1412	35.4508
1408	35.3605
1404	35.2349
1400	35.1452
1396	35.1452
1392	35.2405
1388	35.3418
1384	35.364
1380	35.3975
1376	35.4666
1372	35.4718
1368	35.3972
1364	35.3096
1360	35.2387
1356	35.184
1352	35.1684
1348	35.1513
1344	35.1119
1340	35.1049
1336	35.1086
1332	35.1048
1328	35.1833
1324	35.3432
1320	35.4307
1316	35.3884
1312	35.3024
1308	35.2153
1304	35.1004
1300	35.0104
1296	35.0157
1292	34.996
1288	34.9267
1284	34.9307
1280	34.933
1276	34.9113
1272	34.9565
1268	35.0335
1264	35.0667
1260	35.0438
1256	34.9725
1252	34.9
1248	34.8515
1244	34.7841
1240	34.7539
1236	34.7929
1232	34.8186
1228	34.8268
1224	34.8727
1220	34.8835
1216	34.8445
1212	34.8696
1208	34.9472
1204	35.0095
1200	34.995
1196	34.8963
1192	34.8161
1188	34.7477
1184	34.6296
1180	34.5255
1176	34.4745
1172	34.4208
1168	34.4114
1164	34.4413
1160	34.4434
1156	34.4946
1152	34.5665
1148	34.6194
1144	34.6577
1140	34.5727
1136	34.4771
1132	34.4815
1128	34.4554
1124	34.3487
1120	34.2551
1116	34.2114
1112	34.1867
1108	34.198
1104	34.1895
1100	34.1295
1096	34.1413
1092	34.2143
1088	34.215
1084	34.1472
1080	34.0192
1076	33.8674
1072	33.824
1068	33.8376
1064	33.7952
1060	33.7603
1056	33.7379
1052	33.6912
1048	33.7059
1044	33.7691
1040	33.8813
1036	33.9966
1032	33.9859
1028	33.9014
1024	33.8463
1020	33.82
1016	33.7253
1012	33.5644
1008	33.3616
1004	33.1848
1000	33.2376
996	 33.3789
992	 33.3755
988	 33.437
984	 33.6489
980	 33.8274
976	 33.8143
972	 33.6159
968	 33.4042
964	 33.2255
960	 33.0164
956	 32.7906
952	 32.593
948	 32.4668
944	 32.5163
940	 32.6732
936	 32.8394
932	 33.0474
928	 33.2057
924	 33.202
920	 33.1405
916	 33.0408
912	 32.7704
908	 32.498
904	 32.3545
900	 32.1867
896	 32.0123
892	 31.9906
888	 32.1079
884	 32.2139
880	 32.2489
876	 32.3237
872	 32.459
868	 32.5078
864	 32.4514
860	 32.2773
856	 31.9925
852	 31.7426
848	 31.5596
844	 31.3961
840	 31.2933
836	 31.3076
832	 31.4154
828	 31.6006
824	 31.7903
820	 31.7961
816	 31.6499
812	 31.5327
808	 31.4921
804	 31.4673
800	 31.3474
796	 31.1716
792	 31.0433
788	 30.8092
784	 30.4796
780	 30.3565
776	 30.4332
772	 30.5295
768	 30.545
764	 30.5073
760	 30.626
756	 30.7963
752	 30.887
748	 31.0207
744	 31.0168
740	 30.7859
736	 30.4716
732	 30.119
728	 29.8697
724	 29.6753
720	 29.4626
716	 29.3807
712	 29.5483
708	 29.7692
704	 29.759
700	 29.7584
696	 29.9487
692	 30.0411
688	 29.7499
684	 29.2183
680	 28.8414
676	 28.5878
672	 28.3585
668	 28.3109
664	 28.3672
660	 28.2988
656	 28.2476
652	 28.3834
648	 28.5523
644	 28.6526
640	 28.6481
636	 28.4621
632	 28.1421
628	 27.8034
624	 27.451
620	 27.2604
616	 27.2439
612	 27.0651
608	 26.7756
604	 26.562
600	 26.5146
596	 26.8098
592	 27.2083
588	 27.3473
584	 27.2195
580	 27.1384
576	 27.2439
572	 27.0229
568	 26.4798
564	 26.1534
560	 25.9925
556	 25.724
552	 25.4994
548	 25.6336
544	 25.8217
540	 25.8697
536	 25.9774
532	 25.7915
528	 25.2841
524	 24.853
520	 24.4254
516	 24.0783
512	 24.1739
508	 24.3521
504	 24.3559
500	 24.4904
496	 24.4074
492	 24.0271
488	 23.9107
484	 23.9063
480	 23.6604
476	 23.3918
472	 23.6667
468	 24.5449
464	 25.2187
460	 24.9915
456	 23.9544
452	 23.1327
448	 22.9953
444	 22.7061
440	 22.1128
436	 21.8449
432	 22.0654
428	 22.1219
424	 21.9189
420	 21.7004
416	 20.7513
412	 19.9336
408	 20.8866
404	 21.3407
400	 22.7934
396	 28.1503
392	 29.7765
388	 26.2552
384	 18.3858
380	 -1.668477
376	 -29.617
372	 -35.8181
370	 -27.3467