File: Bakgrunnsmateriale/MATLAB/FTIR/ftir_data/LPE453/Mapping_121/LPE453_t105.asc
PE IR       SPECTRUM    SPECTRUM    ASCII       PEDS        1.60
  -1
LP9786~1.ASC
17/05/16
22:57:59.00
17/05/16
22:58:25.00
tln
$LPE453_t0105$<tbV0>[0.0,10.4,8.0,0.0,27,1,0]
27.028
64

2002,4.07
MIRTGS : RIGHTBACK : INTERNAL 2
MIR : ON : INTERNAL 2
OPTKBR

0.200000
8
8.000000
FILLER
RATIO
SPECTRUM
UNLOCKED 256

DOUBLE
64
COMBINED
1
0
0

0.002000
RATIO

1
0
TRUE
51149
0
LEFT NOT FITTED RIGHT NOT FITTED 0
NONE
NONE
15600
12
4.427000
51148
TRUE
1 0 8 72 0 0 0 0

15798

#HDR
-1
-1
#GR
µM
%T
2.38419e-05
0.0
2.000000
0.002000
12515
8
36.5715
-8.855609
#DATA
2.000000	 0.472474
2.018000	 0.198462
2.036000	 0.057571
2.054000	 -0.004553
2.072000	 -0.221749
2.090000	 0.085604
2.108000	 -0.101537
2.126000	 -0.208815
2.144000	 0.469276
2.162000	 0.211600
2.180000	 -0.071669
2.198000	 -0.329399
2.216000	 0.146354
2.234000	 -1.739147
2.252000	 -0.269015
2.270000	 -0.045431
2.288000	 0.413441
2.306000	 -0.022399
2.324000	 0.073478
2.342000	 0.030636
2.360000	 0.160454
2.378000	 0.092570
2.396000	 0.085273
2.414000	 0.183059
2.432000	 0.130420
2.450000	 0.219015
2.468000	 0.168497
2.486000	 0.073106
2.504000	 0.305348
2.522000	 0.106227
2.540000	 -0.137648
2.558000	 -0.038065
2.576000	 -0.001155
2.594000	 -0.010782
2.612000	 -0.037828
2.630000	 -0.173069
2.648000	 0.155506
2.666000	 -0.089206
2.684000	 -0.069333
2.702000	 0.188922
2.720000	 0.037440
2.738000	 0.127032
2.756000	 0.131576
2.774000	 -0.099911
2.792000	 0.043718
2.810000	 0.059367
2.828000	 0.192381
2.846000	 -0.006511
2.864000	 0.016663
2.882000	 0.042600
2.900000	 0.097591
2.918000	 -0.047905
2.936000	 0.167595
2.954000	 -0.000021
2.972000	 0.116900
2.990000	 0.182153
3.008000	 0.150643
3.026000	 0.060233
3.044000	 0.075880
3.062000	 -0.038324
3.080000	 -0.011937
3.098000	 0.081625
3.116000	 0.069987
3.134000	 0.050722
3.152000	 0.115189
3.170000	 -0.052515
3.188000	 0.002405
3.206000	 0.071411
3.224000	 0.018801
3.242000	 -0.004000
3.260000	 0.067812
3.278000	 -0.039614
3.296000	 0.020737
3.314000	 0.046386
3.332000	 0.076647
3.350000	 -0.033213
3.368000	 -0.044970
3.386000	 -0.028174
3.404000	 0.066932
3.422000	 -0.028373
3.440000	 0.074611
3.458000	 -0.061513
3.476000	 0.140242
3.494000	 0.043960
3.512000	 0.035218
3.530000	 0.107754
3.548000	 -0.038280
3.566000	 0.020351
3.584000	 0.046422
3.602000	 0.024473
3.620000	 0.051718
3.638000	 0.009380
3.656000	 0.078564
3.674000	 0.069612
3.692000	 0.042334
3.710000	 -0.029753
3.728000	 0.094010
3.746000	 0.053133
3.764000	 -0.000467
3.782000	 -0.012259
3.800000	 0.029614
3.818000	 0.028190
3.836000	 0.061448
3.854000	 0.050541
3.872000	 0.086607
3.890000	 -0.044912
3.908000	 0.004166
3.926000	 0.047334
3.944000	 0.084063
3.962000	 0.055497
3.980000	 0.085466
3.998000	 -0.021258
4.016000	 -0.020342
4.034000	 0.024923
4.052000	 0.066593
4.070000	 0.029028
4.088000	 0.010499
4.106000	 0.087962
4.124000	 0.065765
4.141999	 -0.077179
4.160000	 0.057184
4.178000	 0.029648
4.196000	 0.146637
4.214000	 0.125416
4.232000	 0.086030
4.250000	 0.176727
4.268000	 0.238104
4.286000	 0.311293
4.304000	 0.427700
4.322000	 0.606937
4.340000	 0.628754
4.358000	 0.842598
4.375999	 0.955570
4.394000	 1.205010
4.412000	 1.537085
4.430000	 1.793562
4.448000	 2.285452
4.466000	 2.643926
4.484000	 3.039399
4.502000	 3.563797
4.520000	 4.323467
4.538000	 4.965824
4.556000	 5.589488
4.574000	 6.419480
4.592000	 7.263489
4.609999	 8.090242
4.628000	 9.075769
4.646000	 10.1056
4.664000	 11.1357
4.682000	 12.1358
4.700000	 13.1888
4.718000	 14.1896
4.736000	 15.2731
4.754000	 16.2268
4.772000	 17.3271
4.790000	 18.3886
4.808000	 19.3906
4.826000	 20.3669
4.843999	 21.1493
4.862000	 22.1224
4.880000	 22.9442
4.898000	 23.7806
4.916000	 24.6101
4.934000	 25.4151
4.952000	 26.1158
4.970000	 26.8262
4.988000	 27.38
5.006000	 27.9313
5.024000	 28.4552
5.042000	 29.0886
5.060000	 29.6704
5.077999	 30.1085
5.096000	 30.5504
5.114000	 30.9304
5.132000	 31.2123
5.150000	 31.4294
5.168000	 31.8604
5.186000	 32.2788
5.204000	 32.6205
5.222000	 32.8878
5.240000	 33.1923
5.258000	 33.4202
5.276000	 33.5308
5.294000	 33.6292
5.312000	 33.8152
5.330000	 33.9954
5.348000	 34.2505
5.366000	 34.4837
5.384000	 34.6742
5.402000	 34.8158
5.420000	 34.8437
5.438000	 34.8533
5.456000	 34.8865
5.474000	 35.0116
5.492000	 35.1279
5.510000	 35.2595
5.528000	 35.4783
5.546000	 35.6542
5.564000	 35.7021
5.582000	 35.7291
5.600000	 35.7486
5.618000	 35.6934
5.636000	 35.6731
5.654000	 35.6023
5.672000	 35.6316
5.690000	 35.7702
5.708000	 35.9074
5.726000	 36.0222
5.744000	 36.0837
5.762000	 36.1377
5.780000	 36.0445
5.798000	 36.0485
5.816000	 36.0723
5.834000	 35.9855
5.852000	 35.8615
5.870000	 35.9154
5.888000	 36.0772
5.906000	 36.2062
5.923999	 36.2862
5.942000	 36.3595
5.960000	 36.3322
5.978000	 36.2511
5.996000	 36.2596
6.014000	 36.2441
6.032000	 36.1698
6.050000	 36.1013
6.068000	 36.1276
6.086000	 36.1934
6.104000	 36.26
6.122000	 36.3694
6.140000	 36.4884
6.158000	 36.5696
6.176000	 36.5178
6.194000	 36.4025
6.212000	 36.3454
6.230000	 36.2664
6.248000	 36.1735
6.266000	 36.1157
6.284000	 36.074
6.302000	 36.0847
6.320000	 36.1258
6.338000	 36.1959
6.356000	 36.2876
6.374000	 36.4133
6.392000	 36.4861
6.410000	 36.4982
6.428000	 36.5027
6.446000	 36.4545
6.464000	 36.3361
6.482000	 36.1813
6.500000	 36.007
6.518000	 35.9321
6.536000	 35.9708
6.554000	 36.0089
6.572000	 36.0885
6.590000	 36.2275
6.608000	 36.3412
6.626000	 36.3586
6.644000	 36.3147
6.662000	 36.2807
6.680000	 36.239
6.698000	 36.1897
6.716000	 36.1848
6.734000	 36.1648
6.752000	 36.0949
6.770000	 36.0148
6.788000	 35.9028
6.806000	 35.8
6.824000	 35.7856
6.842000	 35.8059
6.860000	 35.8561
6.878000	 35.9875
6.896000	 36.1461
6.914000	 36.2287
6.932000	 36.2132
6.950000	 36.1634
6.968000	 36.1343
6.986000	 36.1368
7.004000	 36.1183
7.022000	 36.0164
7.040000	 35.8695
7.058000	 35.746
7.076000	 35.6648
7.094000	 35.6065
7.112000	 35.5677
7.130000	 35.5995
7.148000	 35.6957
7.166000	 35.7811
7.184000	 35.8621
7.202000	 35.9901
7.220000	 36.1194
7.238000	 36.164
7.256000	 36.147
7.274000	 36.1348
7.292000	 36.0969
7.310000	 35.9968
7.328000	 35.884
7.346000	 35.8068
7.364000	 35.7497
7.382000	 35.6753
7.400000	 35.588
7.418000	 35.5286
7.436000	 35.5158
7.454000	 35.5507
7.472000	 35.6341
7.490000	 35.7253
7.508000	 35.7802
7.526000	 35.8265
7.544000	 35.8967
7.562000	 35.9485
7.580000	 35.9387
7.598000	 35.8904
7.616000	 35.8489
7.634000	 35.831
7.652000	 35.8046
7.670000	 35.7178
7.688000	 35.5838
7.706000	 35.4747
7.724000	 35.4136
7.742000	 35.3644
7.760000	 35.3124
7.778000	 35.2766
7.796000	 35.2746
7.814000	 35.3146
7.832000	 35.394
7.850000	 35.4915
7.868000	 35.5784
7.886000	 35.6411
7.904000	 35.6836
7.922000	 35.7136
7.940000	 35.7348
7.958000	 35.7514
7.976000	 35.7624
7.994000	 35.751
8.012000	 35.7006
8.030000	 35.6277
8.048000	 35.565
8.065999	 35.508
8.084000	 35.4207
8.102000	 35.3005
8.120000	 35.1869
8.138000	 35.1056
8.155999	 35.0559
8.173999	 35.044
8.192000	 35.0808
8.210000	 35.1499
8.228000	 35.2137
8.246000	 35.2515
8.263999	 35.272
8.282000	 35.3013
8.300000	 35.3618
8.318000	 35.4521
8.336000	 35.5435
8.353999	 35.6055
8.372000	 35.6344
8.390000	 35.645
8.408000	 35.6369
8.426000	 35.589
8.443999	 35.489
8.462000	 35.3618
8.480000	 35.254
8.498000	 35.1916
8.516000	 35.1556
8.533999	 35.1042
8.552000	 35.0186
8.570000	 34.9231
8.588000	 34.8615
8.606000	 34.861
8.624000	 34.9109
8.641999	 34.9753
8.660000	 35.0256
8.678000	 35.0614
8.696000	 35.1
8.714000	 35.1527
8.731999	 35.2162
8.750000	 35.2801
8.768000	 35.3319
8.786000	 35.3582
8.804000	 35.3553
8.821999	 35.3389
8.840000	 35.3308
8.858000	 35.3345
8.876000	 35.3311
8.894000	 35.2986
8.911999	 35.2292
8.930000	 35.1275
8.948000	 35.0001
8.966000	 34.8564
8.984000	 34.7142
9.001999	 34.5958
9.020000	 34.5157
9.038000	 34.4749
9.056000	 34.4678
9.074000	 34.4869
9.092000	 34.522
9.109999	 34.5594
9.128000	 34.5906
9.146000	 34.6221
9.164000	 34.6729
9.182000	 34.7578
9.199999	 34.8712
9.218000	 34.9863
9.236000	 35.071
9.254000	 35.106
9.272000	 35.098
9.289999	 35.0741
9.308000	 35.0635
9.326000	 35.0746
9.344000	 35.091
9.362000	 35.0862
9.379999	 35.0475
9.398000	 34.9842
9.416000	 34.9153
9.434000	 34.8499
9.452000	 34.7818
9.469999	 34.7005
9.488000	 34.6047
9.506000	 34.5035
9.524000	 34.4079
9.542000	 34.322
9.560000	 34.2451
9.577999	 34.1808
9.596000	 34.1399
9.614000	 34.1334
9.632000	 34.1603
9.650000	 34.2023
9.667999	 34.2335
9.686000	 34.2376
9.704000	 34.2187
9.722000	 34.2001
9.740000	 34.21
9.757999	 34.2674
9.776000	 34.3734
9.794000	 34.5106
9.812000	 34.6491
9.830000	 34.758
9.847999	 34.8168
9.866000	 34.8228
9.884000	 34.791
9.902000	 34.7442
9.920000	 34.6995
9.937999	 34.6615
9.956000	 34.6239
9.974000	 34.576
9.992000	 34.5108
10.01	34.4271
10.028	34.3329
10.046	34.2415
10.064	34.1669
10.082	34.1178
10.1	34.0937
10.118	34.0864
10.136	34.0857
10.154	34.0842
10.172	34.0771
10.19	34.0595
10.208	34.0262
10.226	33.9742
10.244	33.9065
10.262	33.8315
10.28	33.7602
10.298	33.7036
10.316	33.6722
10.334	33.6752
10.352	33.7194
10.37	33.8054
10.388	33.9235
10.406	34.0553
10.424	34.1782
10.442	34.2722
10.46	34.3254
10.478	34.334
10.496	34.304
10.514	34.2492
10.532	34.1896
10.55	34.1436
10.568	34.121
10.586	34.1184
10.604	34.1229
10.622	34.1182
10.64	34.094
10.658	34.0485
10.676	33.9855
10.694	33.9079
10.712	33.8163
10.73	33.7105
10.748	33.5941
10.766	33.4763
10.784	33.3687
10.802	33.2816
10.82	33.2195
10.838	33.181
10.856	33.1611
10.874	33.1532
10.892	33.1509
10.91	33.1477
10.928	33.1387
10.946	33.1241
10.964	33.1104
10.982	33.1095
11	33.1319
11.018	33.181
11.036	33.2507
11.054	33.328
11.072	33.4009
11.09	33.4634
11.108	33.5182
11.126	33.5723
11.144	33.6297
11.162	33.6876
11.18	33.7366
11.198	33.765
11.216	33.7658
11.234	33.7402
11.252	33.6968
11.27	33.6464
11.288	33.5989
11.306	33.5575
11.324	33.518
11.342	33.4713
11.36	33.4085
11.378	33.3246
11.396	33.2222
11.414	33.1113
11.432	33.0059
11.45	32.9188
11.468	32.8582
11.486	32.8252
11.504	32.8142
11.522	32.8149
11.54	32.817
11.558	32.8118
11.576	32.7934
11.594	32.7599
11.612	32.7117
11.63	32.6517
11.648	32.5843
11.666	32.5157
11.684	32.4522
11.702	32.3991
11.72	32.3602
11.738	32.3375
11.756	32.3317
11.774	32.3424
11.792	32.3685
11.81	32.4087
11.828	32.4607
11.846	32.5212
11.864	32.5854
11.882	32.6487
11.9	32.7068
11.918	32.7575
11.936	32.8009
11.954	32.839
11.972	32.8746
11.99	32.909
12.008	32.942
12.026	32.9707
12.044	32.9905
12.062	32.9967
12.08	32.9864
12.098	32.96
12.116	32.9212
12.134	32.8769
12.152	32.8349
12.17	32.8014
12.188	32.7792
12.206	32.7664
12.224	32.7568
12.242	32.7407
12.26	32.7086
12.278	32.653
12.296	32.5711
12.314	32.4656
12.332	32.3437
12.35	32.2154
12.368	32.0906
12.386	31.9776
12.404	31.8801
12.422	31.7979
12.44	31.7281
12.458	31.667
12.476	31.612
12.494	31.563
12.512	31.5217
12.53	31.4903
12.548	31.4707
12.566	31.4628
12.584	31.4654
12.602	31.4765
12.62	31.4942
12.638	31.5175
12.656	31.5454
12.674	31.5773
12.692	31.6118
12.71	31.6465
12.728	31.6788
12.746	31.7066
12.764	31.7294
12.782	31.7488
12.8	31.7686
12.818	31.7936
12.836	31.828
12.854	31.8737
12.872	31.9295
12.89	31.9915
12.908	32.0533
12.926	32.1083
12.944	32.1515
12.962	32.1796
12.98	32.1923
12.998	32.191
13.016	32.1787
13.034	32.1581
13.052	32.1315
13.07	32.1003
13.088	32.0657
13.106	32.0286
13.124	31.9906
13.142	31.9535
13.16	31.9202
13.178	31.8929
13.196	31.8732
13.214	31.8605
13.232	31.8532
13.25	31.8471
13.268	31.8373
13.286	31.8183
13.304	31.7853
13.322	31.7352
13.34	31.6667
13.358	31.5812
13.376	31.4821
13.394	31.3746
13.412	31.2648
13.43	31.1588
13.448	31.062
13.466	30.9786
13.484	30.9108
13.502	30.8587
13.52	30.8207
13.538	30.7937
13.556	30.7736
13.574	30.7566
13.592	30.7393
13.61	30.7196
13.628	30.697
13.646	30.6723
13.664	30.6475
13.682	30.6252
13.7	30.6081
13.718	30.5977
13.736	30.5951
13.754	30.5996
13.772	30.6101
13.79	30.6249
13.808	30.642
13.826	30.6599
13.844	30.678
13.862	30.6961
13.88	30.7148
13.898	30.7349
13.916	30.7569
13.934	30.7813
13.952	30.8079
13.97	30.8364
13.988	30.866
14.006	30.8959
14.024	30.9255
14.042	30.9546
14.06	30.9832
14.078	31.0115
14.096	31.0398
14.114	31.0681
14.132	31.0956
14.15	31.1214
14.168	31.1442
14.186	31.1627
14.204	31.1755
14.222	31.1813
14.24	31.1798
14.258	31.171
14.276	31.1559
14.294	31.1353
14.312	31.1101
14.33	31.0811
14.348	31.0483
14.366	31.0119
14.384	30.9711
14.402	30.9248
14.42	30.8719
14.438	30.8118
14.456	30.7442
14.474	30.6699
14.492	30.5901
14.51	30.507
14.528	30.4233
14.546	30.3417
14.564	30.2643
14.582	30.1926
14.6	30.1274
14.618	30.0687
14.636	30.0149
14.654	29.9639
14.672	29.9133
14.69	29.8607
14.708	29.8039
14.726	29.7411
14.744	29.6719
14.762	29.5966
14.78	29.5172
14.798	29.4361
14.816	29.3569
14.834	29.2841
14.852	29.2219
14.87	29.1746
14.888	29.1453
14.906	29.1359
14.924	29.1477
14.942	29.1796
14.96	29.2289
14.978	29.2918
14.996	29.3638
15.014	29.4399
15.032	29.5143
15.05	29.5829
15.068	29.6424
15.086	29.6912
15.104	29.7285
15.122	29.7557
15.14	29.7753
15.158	29.7904
15.176	29.8039
15.194	29.8192
15.212	29.8388
15.23	29.8638
15.248	29.8944
15.266	29.9301
15.284	29.969
15.302	30.0087
15.32	30.0471
15.338	30.0819
15.356	30.1113
15.374	30.1343
15.392	30.1507
15.41	30.1607
15.428	30.1654
15.446	30.1658
15.464	30.1632
15.482	30.1585
15.5	30.1524
15.518	30.1451
15.536	30.1364
15.554	30.1257
15.572	30.1125
15.59	30.0961
15.608	30.076
15.626	30.0521
15.644	30.0243
15.662	29.9934
15.68	29.9596
15.698	29.9234
15.716	29.8856
15.734	29.846
15.752	29.8044
15.77	29.7603
15.788	29.7124
15.806	29.6595
15.824	29.6007
15.842	29.5346
15.86	29.4605
15.878	29.3786
15.896	29.289
15.914	29.1932
15.932	29.0935
15.95	28.9918
15.968	28.8914
15.986	28.7956
16.004	28.7066
16.022	28.6269
16.04	28.5587
16.058	28.5027
16.076	28.4594
16.094	28.4282
16.112	28.4075
16.13	28.3958
16.148	28.3904
16.166	28.3883
16.184	28.3873
16.202	28.3847
16.22	28.3781
16.238	28.3661
16.256	28.3475
16.274	28.322
16.292	28.2904
16.31	28.2534
16.328	28.2131
16.346	28.1716
16.364	28.1307
16.382	28.0933
16.4	28.0612
16.418	28.0357
16.436	28.0182
16.454	28.0088
16.472	28.0077
16.49	28.014
16.508	28.0268
16.526	28.0451
16.544	28.0674
16.562	28.0928
16.58	28.1208
16.598	28.1507
16.616	28.1827
16.634	28.2169
16.652	28.254
16.67	28.2947
16.688	28.3393
16.706	28.3883
16.724	28.4414
16.742	28.4981
16.76	28.557
16.778	28.6171
16.796	28.6764
16.814	28.7325
16.832	28.7841
16.85	28.8282
16.868	28.8638
16.886	28.8898
16.904	28.9052
16.922	28.9102
16.94	28.9049
16.958	28.8904
16.976	28.8672
16.994	28.8374
17.012	28.8022
17.03	28.7626
17.048	28.7208
17.066	28.6773
17.084	28.6333
17.102	28.5896
17.12	28.5463
17.138	28.504
17.156	28.4626
17.174	28.4223
17.192	28.3831
17.21	28.3451
17.228	28.3082
17.246	28.2726
17.264	28.2384
17.282	28.2059
17.3	28.1754
17.318	28.147
17.336	28.121
17.354	28.0973
17.372	28.0764
17.39	28.058
17.408	28.0425
17.426	28.0294
17.444	28.0188
17.462	28.01
17.48	28.0029
17.498	27.9969
17.516	27.9916
17.534	27.9866
17.552	27.9809
17.57	27.9744
17.588	27.9661
17.606	27.9559
17.624	27.9434
17.642	27.9283
17.66	27.9106
17.678	27.8904
17.696	27.8678
17.714	27.843
17.732	27.8163
17.75	27.7882
17.768	27.7589
17.786	27.7285
17.804	27.6974
17.822	27.6656
17.84	27.633
17.858	27.5993
17.876	27.5643
17.894	27.5276
17.912	27.4888
17.93	27.4476
17.948	27.4038
17.966	27.3572
17.984	27.3078
18.002	27.2557
18.02	27.2015
18.038	27.1453
18.056	27.0883
18.074	27.031
18.092	26.9746
18.11	26.9194
18.128	26.8669
18.146	26.8171
18.164	26.771
18.182	26.7286
18.2	26.6905
18.218	26.6564
18.236	26.6263
18.254	26.5996
18.272	26.5762
18.29	26.5552
18.308	26.5364
18.326	26.5191
18.344	26.5031
18.362	26.4876
18.38	26.4727
18.398	26.4577
18.416	26.4428
18.434	26.4277
18.452	26.4126
18.47	26.3974
18.488	26.3822
18.506	26.3671
18.524	26.3523
18.542	26.3379
18.56	26.3241
18.578	26.3109
18.596	26.2986
18.614	26.2874
18.632	26.2778
18.65	26.2698
18.668	26.2642
18.686	26.261
18.704	26.2611
18.722	26.2644
18.74	26.2715
18.758	26.2824
18.776	26.2972
18.794	26.3159
18.812	26.3382
18.83	26.3635
18.848	26.3914
18.866	26.4211
18.884	26.4517
18.902	26.4826
18.92	26.5126
18.938	26.5413
18.956	26.5676
18.974	26.5911
18.992	26.6111
19.01	26.6275
19.028	26.64
19.046	26.6487
19.064	26.6537
19.082	26.6555
19.1	26.6545
19.118	26.6511
19.136	26.6463
19.154	26.6404
19.172	26.6346
19.19	26.629
19.208	26.6249
19.226	26.6224
19.244	26.6225
19.262	26.6252
19.28	26.6311
19.298	26.6402
19.316	26.6527
19.334	26.6686
19.352	26.6872
19.37	26.7086
19.388	26.7318
19.406	26.7568
19.424	26.7819
19.442	26.8072
19.46	26.8308
19.478	26.8526
19.496	26.8709
19.514	26.8854
19.532	26.8949
19.55	26.8988
19.568	26.8969
19.586	26.8883
19.604	26.8735
19.622	26.8523
19.64	26.8252
19.658	26.7929
19.676	26.7557
19.694	26.7156
19.712	26.6726
19.73	26.6289
19.748	26.5845
19.766	26.5414
19.784	26.4998
19.802	26.4605
19.82	26.4243
19.838	26.3908
19.856	26.3605
19.874	26.3329
19.892	26.3071
19.91	26.2833
19.928	26.2597
19.946	26.2365
19.964	26.2116
19.982	26.185
20	26.1554
20.018	26.1219
20.036	26.0846
20.054	26.0426
20.072	25.9961
20.09	25.9457
20.108	25.8911
20.126	25.8339
20.144	25.7737
20.162	25.7123
20.18	25.6503
20.198	25.5884
20.216	25.5282
20.234	25.4696
20.252	25.4144
20.27	25.3623
20.288	25.3141
20.306	25.2699
20.324	25.2296
20.342	25.1933
20.36	25.1605
20.378	25.1305
20.396	25.1033
20.414	25.0775
20.432	25.0534
20.45	25.0298
20.468	25.0061
20.486	24.9825
20.504	24.9582
20.522	24.9335
20.54	24.9081
20.558	24.882
20.576	24.8561
20.594	24.8305
20.612	24.8056
20.63	24.7826
20.648	24.7611
20.666	24.743
20.684	24.7282
20.702	24.7177
20.72	24.7124
20.738	24.712
20.756	24.7178
20.774	24.7295
20.792	24.7473
20.81	24.7716
20.828	24.8016
20.846	24.8367
20.864	24.8771
20.882	24.9206
20.9	24.9679
20.918	25.0166
20.936	25.0653
20.954	25.1141
20.972	25.1594
20.99	25.2021
21.008	25.2393
21.026	25.27
21.044	25.2937
21.062	25.3078
21.08	25.3131
21.098	25.3079
21.116	25.2917
21.134	25.2648
21.152	25.2268
21.17	25.1778
21.188	25.1192
21.206	25.0507
21.224	24.9736
21.242	24.8904
21.26	24.8
21.278	24.7065
21.296	24.61
21.314	24.512
21.332	24.4163
21.35	24.3216
21.368	24.2322
21.386	24.1486
21.404	24.0717
21.422	24.0046
21.44	23.9464
21.458	23.8992
21.476	23.8639
21.494	23.8401
21.512	23.8286
21.53	23.8295
21.548	23.8419
21.566	23.8653
21.584	23.8998
21.602	23.9426
21.62	23.9946
21.638	24.0536
21.656	24.1169
21.674	24.1856
21.692	24.256
21.71	24.3277
21.728	24.4
21.746	24.4695
21.764	24.537
21.782	24.601
21.8	24.6597
21.818	24.7139
21.836	24.7623
21.854	24.8044
21.872	24.8406
21.89	24.8711
21.908	24.8954
21.926	24.9146
21.944	24.9289
21.962	24.9383
21.98	24.9445
21.998	24.9472
22.016	24.9471
22.034	24.9458
22.052	24.9429
22.07	24.9391
22.088	24.9355
22.106	24.9316
22.124	24.9281
22.142	24.9255
22.16	24.9235
22.178	24.9217
22.196	24.9206
22.214	24.9195
22.232	24.918
22.25	24.9164
22.268	24.9135
22.286	24.9087
22.304	24.9023
22.322	24.8931
22.34	24.8809
22.358	24.8656
22.376	24.8459
22.394	24.822
22.412	24.7935
22.43	24.7598
22.448	24.7208
22.466	24.6768
22.484	24.6275
22.502	24.5729
22.52	24.5139
22.538	24.4507
22.556	24.3832
22.574	24.3132
22.592	24.2404
22.61	24.1652
22.628	24.0899
22.646	24.0137
22.664	23.9378
22.682	23.8643
22.7	23.7924
22.718	23.7235
22.736	23.6594
22.754	23.5991
22.772	23.5442
22.79	23.4961
22.808	23.454
22.826	23.4188
22.844	23.3913
22.862	23.3712
22.88	23.358
22.898	23.3518
22.916	23.3526
22.934	23.3589
22.952	23.3706
22.97	23.3878
22.988	23.4079
23.006	23.4307
23.024	23.4564
23.042	23.4822
23.06	23.5083
23.078	23.5345
23.096	23.5589
23.114	23.5813
23.132	23.6019
23.15	23.6197
23.168	23.6346
23.186	23.6469
23.204	23.6566
23.222	23.6635
23.24	23.668
23.258	23.6711
23.276	23.6726
23.294	23.6729
23.312	23.6734
23.33	23.6739
23.348	23.6747
23.366	23.677
23.384	23.6808
23.402	23.686
23.42	23.6933
23.438	23.7029
23.456	23.7144
23.474	23.7274
23.492	23.7421
23.51	23.7583
23.528	23.7748
23.546	23.7918
23.564	23.8092
23.582	23.825
23.6	23.8384
23.618	23.8503
23.636	23.8579
23.654	23.8602
23.672	23.8582
23.69	23.8497
23.708	23.8328
23.726	23.8088
23.744	23.7766
23.762	23.7347
23.78	23.6842
23.798	23.6242
23.816	23.5538
23.834	23.4732
23.852	23.3825
23.87	23.2815
23.888	23.1696
23.906	23.0478
23.924	22.9171
23.942	22.7768
23.96	22.6275
23.978	22.4721
23.996	22.3111
24.014	22.1436
24.032	21.9731
24.05	21.8013
24.068	21.6262
24.086	21.4516
24.104	21.2807
24.122	21.1104
24.14	20.9446
24.158	20.7891
24.176	20.6412
24.194	20.5027
24.212	20.3795
24.23	20.2723
24.248	20.1794
24.266	20.1055
24.284	20.0534
24.302	20.0208
24.32	20.0092
24.338	20.0205
24.356	20.0547
24.374	20.1102
24.392	20.1853
24.41	20.2821
24.428	20.3986
24.446	20.5298
24.464	20.6749
24.482	20.8364
24.5	21.0063
24.518	21.1784
24.536	21.3583
24.554	21.54
24.572	21.7148
24.59	21.8853
24.608	22.0509
24.626	22.2038
24.644	22.3402
24.662	22.4643
24.68	22.572
24.698	22.6592
24.716	22.7272
24.734	22.7768
24.752	22.8077
24.77	22.8186
24.788	22.8106
24.806	22.7872
24.824	22.7503
24.842	22.6963
24.86	22.6313
24.878	22.5621
24.896	22.4861
24.914	22.4041
24.932	22.3226
24.95	22.2453
24.968	22.1682
24.986	22.0949
25.004	22.0291
25.022	21.9707
25.04	21.9183
25.058	21.872
25.076	21.8324
25.094	21.8
25.112	21.7715
25.13	21.7435
25.148	21.7197
25.166	21.697
25.184	21.6687
25.202	21.6322
25.22	21.5921
25.238	21.5418
25.256	21.475
25.274	21.3954
25.292	21.3015
25.31	21.1868
25.328	21.0476
25.346	20.8881
25.364	20.7051
25.382	20.4943
25.4	20.2555
25.418	19.9904
25.436	19.6987
25.454	19.3797
25.472	19.0322
25.49	18.6593
25.508	18.2652
25.526	17.8496
25.544	17.4109
25.562	16.9545
25.58	16.4854
25.598	15.9999
25.616	15.5
25.634	14.9912
25.652	14.4768
25.67	13.9528
25.688	13.4228
25.706	12.8913
25.724	12.3583
25.742	11.8223
25.76	11.2861
25.778	10.7526
25.796	10.2209
25.814	9.690540
25.832	9.162165
25.85	8.636134
25.868	8.111952
25.886	7.590021
25.904	7.070871
25.922	6.554658
25.94	6.041080
25.958	5.530340
25.976	5.022625
25.994	4.516263
26.012	4.012401
26.03	3.514215
26.048	3.024028
26.066	2.536708
26.084	2.056984
26.102	1.592656
26.12	1.147736
26.138	0.714252
26.156	0.300504
26.174	-0.083160
26.192	-0.434985
26.21	-0.762723
26.228	-1.055065
26.246	-1.300088
26.264	-1.497991
26.282	-1.654048
26.3	-1.761234
26.318	-1.812628
26.336	-1.808232
26.354	-1.751225
26.372	-1.642407
26.39	-1.482077
26.408	-1.264036
26.426	-0.994805
26.444	-0.685568
26.462	-0.344280
26.48	0.045118
26.498	0.468560
26.516	0.903572
26.534	1.335355
26.552	1.787129
26.57	2.240845
26.588	2.670282
26.606	3.060164
26.624	3.434621
26.642	3.775727
26.66	4.059676
26.678	4.273297
26.696	4.435665
26.714	4.535704
26.732	4.559045
26.75	4.496912
26.768	4.358676
26.786	4.143912
26.804	3.851092
26.822	3.476066
26.84	3.016219
26.858	2.483777
26.876	1.891656
26.894	1.242190
26.912	0.520749
26.93	-0.252096
26.948	-1.053508
26.966	-1.912569
26.984	-2.907749
27.002	-3.875053
27.02	-4.634654
27.028	-4.836201