File: Bakgrunnsmateriale/MATLAB/FTIR/ftir_data/LPE453/Mapping_121/LPE453_t13_cm-1.asc
PE IR       SPECTRUM    SPECTRUM    ASCII       PEDS        1.60
  -1
LPD7D0~1.ASC
17/05/16
15:24:00.00
17/05/16
15:24:00.00
tln
$LPE453_t0013$<tbV0>[10.4,-10.4,8.0,0.0,27,1,0]
370
64

2002,4.07
MIRTGS : RIGHTBACK : INTERNAL 2
MIR : ON : INTERNAL 2
OPTKBR

0.200000
8
8.000000
FILLER
RATIO
SPECTRUM
UNLOCKED 256

DOUBLE
64
COMBINED
1
0
0

1.000000
RATIO

1
0
TRUE
51149
0
LEFT NOT FITTED RIGHT NOT FITTED 0
NONE
NONE
15600
12
4.427000
51148
TRUE
1 0 8 72 0 0 0 0

15798

#HDR
-1
-1
#GR
CM-1
%T
2.38419e-05
0.0
5000
-1.000000
4631
8
41.0327
-19.7958
#DATA
5000	-0.148987
4996	-0.079035
4992	0.091719
4988	0.133180
4984	0.088548
4980	-0.052070
4976	-0.084710
4972	0.259494
4968	0.540304
4964	0.385308
4960	0.151872
4956	0.165271
4952	0.367069
4948	0.331258
4944	0.053524
4940	-0.080013
4936	-0.002431
4932	0.191450
4928	0.334262
4924	0.322866
4920	0.013661
4916	-0.411319
4912	-0.557971
4908	-0.464749
4904	-0.297403
4900	-0.030589
4896	0.142073
4892	0.159764
4888	0.079727
4884	-0.131082
4880	-0.143456
4876	0.133466
4872	0.256228
4868	0.060462
4864	-0.046420
4860	0.099968
4856	0.206112
4852	0.119686
4848	0.034546
4844	0.145459
4840	0.310707
4836	0.394082
4832	0.344324
4828	0.167798
4824	0.098943
4820	0.160217
4816	0.294446
4812	0.422883
4808	0.465750
4804	0.516796
4800	0.394582
4796	0.149583
4792	0.059199
4788	0.060105
4784	0.061535
4780	0.014376
4776	0.069355
4772	0.279593
4768	0.329184
4764	0.266504
4760	0.298881
4756	0.230240
4752	0.121068
4748	0.088906
4744	-0.043272
4740	-0.130701
4736	-0.026178
4732	0.216341
4728	0.381278
4724	0.248885
4720	0.007987
4716	-0.053429
4712	-0.034189
4708	0.094604
4704	0.298476
4700	0.365185
4696	0.267219
4692	0.157427
4688	0.226783
4684	0.416326
4680	0.577116
4676	0.507521
4672	0.359296
4668	0.381016
4664	0.341439
4660	0.260829
4656	0.411605
4652	0.518798
4648	0.437068
4644	0.419735
4640	0.476503
4636	0.469946
4632	0.421476
4628	0.612759
4624	0.887775
4620	1.010656
4616	0.982928
4612	0.795245
4608	0.528693
4604	0.270581
4600	0.201869
4596	0.131535
4592	-0.088024
4588	-0.229215
4584	-0.469684
4580	-0.714707
4576	-0.743293
4572	-0.754070
4568	-0.834035
4564	-0.874972
4560	-1.063919
4556	-1.380872
4552	-1.378154
4548	-1.381611
4544	-1.680207
4540	-1.359438
4536	-0.627684
4532	-0.395607
4528	0.925302
4524	3.220701
4520	12.119
4516	27.2648
4512	23.7354
4508	6.157970
4504	-0.735020
4500	-1.704287
4496	-1.783680
4492	-0.733137
4488	0.084781
4484	0.661659
4480	0.310564
4476	-0.371074
4472	-0.838398
4468	-1.068687
4464	-1.214933
4460	-1.078391
4456	-0.645542
4452	-0.474882
4448	-0.633955
4444	-0.575804
4440	-0.294518
4436	-0.280499
4432	-0.320363
4428	-0.206851
4424	-0.083208
4420	0.152277
4416	0.518393
4412	0.603675
4408	0.341343
4404	0.191688
4400	0.264096
4396	0.493526
4392	0.768756
4388	0.772714
4384	0.707387
4380	0.777053
4376	0.892090
4372	0.979042
4368	0.887966
4364	0.538754
4360	0.204205
4356	0.239109
4352	0.405907
4348	0.391316
4344	0.290799
4340	0.313806
4336	0.370788
4332	0.332784
4328	0.254034
4324	0.177311
4320	0.232720
4316	0.346064
4312	0.259518
4308	0.245690
4304	0.428748
4300	0.361037
4296	0.187277
4292	0.175881
4288	0.050878
4284	-0.095152
4280	-0.080585
4276	-0.022602
4272	-0.023579
4268	-0.138950
4264	-0.122499
4260	0.113630
4256	0.131773
4252	-0.092935
4248	-0.161838
4244	-0.107479
4240	-0.072693
4236	0.023078
4232	-0.018763
4228	-0.243592
4224	-0.306439
4220	-0.161504
4216	-0.013136
4212	0.056958
4208	0.203776
4204	0.405573
4200	0.360608
4196	0.154066
4192	0.221848
4188	0.566101
4184	0.632715
4180	0.460243
4176	0.443983
4172	0.396513
4168	0.246119
4164	0.084805
4160	-0.046515
4156	0.018906
4152	0.109457
4148	0.043416
4144	0.086045
4140	0.152111
4136	0.103187
4132	0.063824
4128	0.101089
4124	0.175285
4120	0.154304
4116	0.092601
4112	0.092792
4108	0.141596
4104	0.099849
4100	0.000238
4096	0.062751
4092	0.137853
4088	0.130295
4084	0.129222
4080	0.037479
4076	-0.027132
4072	0.025749
4068	0.101041
4064	0.146794
4060	0.116372
4056	0.057411
4052	0.027036
4048	0.090599
4044	0.137686
4040	0.118446
4036	0.095701
4032	0.030469
4028	0.000929
4024	0.081157
4020	0.282931
4016	0.380873
4012	0.255513
4008	0.105166
4004	0.019025
4000	0.033998
3996	0.099945
3992	0.078177
3988	0.045585
3984	0.087738
3980	0.122618
3976	0.198459
3972	0.336074
3968	0.317645
3964	0.148105
3960	0.065255
3956	0.117015
3952	0.192189
3948	0.229740
3944	0.225496
3940	0.162458
3936	0.086021
3932	0.001382
3928	-0.040006
3924	0.076603
3920	0.171327
3916	0.131916
3912	0.133204
3908	0.165343
3904	0.093150
3900	0.077652
3896	0.124907
3892	0.112986
3888	0.151824
3884	0.223016
3880	0.200033
3876	0.042271
3872	-0.111937
3868	-0.158023
3864	-0.162076
3860	-0.175213
3856	-0.189876
3852	-0.171828
3848	-0.109434
3844	0.032305
3840	0.174331
3836	0.253939
3832	0.283145
3828	0.206112
3824	0.119495
3820	0.099158
3816	0.110769
3812	0.094580
3808	0.036978
3804	0.006914
3800	0.009894
3796	0.025773
3792	0.012254
3788	-0.028967
3784	-0.020861
3780	0.100827
3776	0.197577
3772	0.192999
3768	0.207638
3764	0.220489
3760	0.197768
3756	0.196623
3752	0.179362
3748	0.145864
3744	0.172042
3740	0.197720
3736	0.200581
3732	0.230336
3728	0.238251
3724	0.187468
3720	0.126552
3716	0.124692
3712	0.170207
3708	0.171709
3704	0.108408
3700	0.012826
3696	-0.021433
3692	0.060009
3688	0.110006
3684	0.067448
3680	0.010108
3676	0.018477
3672	0.113201
3668	0.153446
3664	0.094556
3660	0.034976
3656	-0.019884
3652	-0.068831
3648	-0.059604
3644	-0.010848
3640	0.005340
3636	-0.058245
3632	-0.127530
3628	-0.096654
3624	-0.022244
3620	0.005006
3616	0.035381
3612	0.051212
3608	-0.016689
3604	-0.044703
3600	-0.024843
3596	-0.079870
3592	-0.103950
3588	-0.055384
3584	-0.009632
3580	0.040626
3576	0.080513
3572	0.105166
3568	0.080227
3564	0.076770
3560	0.143766
3556	0.181818
3552	0.113344
3548	0.060057
3544	0.125551
3540	0.217366
3536	0.227761
3532	0.139069
3528	0.029230
3524	-0.049543
3520	-0.079536
3516	-0.022625
3512	0.069355
3508	0.100684
3504	0.072360
3500	0.036978
3496	0.016951
3492	0.035738
3488	0.016784
3484	-0.029826
3480	-0.019454
3476	-0.052666
3472	-0.074100
3468	-0.042510
3464	-0.008320
3460	0.064945
3456	0.069546
3452	0.035762
3448	0.092554
3444	0.125956
3440	0.007152
3436	-0.124669
3432	-0.126075
3428	-0.033617
3424	0.065016
3420	0.092220
3416	0.067543
3412	0.050759
3408	0.051498
3404	0.018477
3400	-0.019192
3396	0.038504
3392	0.098562
3388	0.078582
3384	0.113821
3380	0.204157
3376	0.203180
3372	0.112605
3368	0.053048
3364	0.028538
3360	-0.076937
3356	-0.155162
3352	-0.130176
3348	-0.100684
3344	-0.050711
3340	0.007891
3336	0.038647
3332	0.039672
3328	0.033307
3324	0.021433
3320	-0.014281
3316	-0.011467
3312	0.067925
3308	0.151038
3304	0.184798
3300	0.184535
3296	0.146722
3292	0.075864
3288	0.022959
3284	0.030612
3280	0.048542
3276	0.036072
3272	0.037360
3268	0.071477
3264	0.109338
3260	0.114130
3256	0.092363
3252	0.059437
3248	0.040841
3244	0.049233
3240	0.069761
3236	0.133872
3232	0.232362
3228	0.270247
3224	0.144410
3220	-0.045609
3216	-0.067400
3212	0.009274
3208	0.026750
3204	0.022506
3200	0.075411
3196	0.137114
3192	0.060606
3188	0.010895
3184	0.103950
3180	0.094652
3176	-0.011730
3172	-0.011086
3168	0.019025
3164	0.012731
3160	0.063753
3156	0.124859
3152	0.115871
3148	0.064420
3144	0.036859
3140	0.095534
3136	0.133252
3132	0.096702
3128	0.130128
3124	0.196480
3120	0.128102
3116	0.016641
3112	0.082397
3108	0.163960
3104	0.125288
3100	0.058245
3096	-0.017666
3092	-0.022006
3088	0.085711
3084	0.149822
3080	0.076699
3076	-0.000452
3072	-0.013303
3068	0.004053
3064	0.071763
3060	0.133514
3056	0.098395
3052	0.059819
3048	0.093364
3044	0.097703
3040	0.051212
3036	0.002551
3032	-0.039196
3028	-0.029468
3024	0.033068
3020	0.044131
3016	-0.014376
3012	-0.043725
3008	-0.002670
3004	0.047039
3000	0.047802
2996	0.024485
2992	0.028681
2988	0.092673
2984	0.122332
2980	0.090026
2976	0.087833
2972	0.096869
2968	0.079417
2964	0.028991
2960	-0.005841
2956	0.007343
2952	0.007963
2948	0.016760
2944	0.073623
2940	0.173878
2936	0.190997
2932	0.064086
2928	0.036978
2924	0.140094
2920	0.140380
2916	0.045323
2912	-0.038528
2908	-0.097060
2904	-0.113439
2900	-0.102329
2896	-0.044608
2892	0.038027
2888	0.058245
2884	0.046110
2880	0.031971
2876	0.045037
2872	0.104975
2868	0.144577
2864	0.179457
2860	0.158834
2856	0.123596
2852	0.135231
2848	0.150966
2844	0.217461
2840	0.228357
2836	0.145816
2832	0.077772
2828	0.023484
2824	0.024485
2820	0.078177
2816	0.078916
2812	0.019955
2808	-0.006008
2804	0.056076
2800	0.150346
2796	0.161480
2792	0.104808
2788	0.100231
2784	0.118207
2780	0.074982
2776	-0.011754
2772	-0.095796
2768	-0.112533
2764	-0.063681
2760	-0.032830
2756	-0.038290
2752	-0.030517
2748	0.001072
2744	0.009202
2740	0.013518
2736	0.045847
2732	0.058317
2728	0.040221
2724	0.022244
2720	-0.008249
2716	-0.051712
2712	-0.081777
2708	-0.066280
2704	0.028729
2700	0.102639
2696	0.072431
2692	0.017237
2688	-0.000309
2684	0.036358
2680	0.070285
2676	0.063729
2672	0.081038
2668	0.135493
2664	0.173020
2660	0.150203
2656	0.118064
2652	0.122761
2648	0.116729
2644	0.114607
2640	0.117588
2636	0.068283
2632	0.034952
2628	0.063896
2624	0.094175
2620	0.092148
2616	0.071096
2612	0.038027
2608	0.031852
2604	0.056862
2600	0.053262
2596	0.048995
2592	0.056743
2588	0.048255
2584	0.026893
2580	0.016856
2576	-0.015830
2572	-0.063705
2568	-0.023770
2564	0.060558
2560	0.097346
2556	0.106143
2552	0.076341
2548	-0.016236
2544	-0.092220
2540	-0.066018
2536	0.018095
2532	0.084137
2528	0.076842
2524	-0.013089
2520	-0.007343
2516	0.108838
2512	0.122070
2508	0.056266
2504	0.064611
2500	0.153541
2496	0.200295
2492	0.184535
2488	0.166559
2484	0.111722
2480	0.049376
2476	0.021648
2472	-0.016331
2468	-0.057983
2464	-0.081443
2460	-0.071263
2456	-0.031089
2452	-0.047612
2448	-0.060296
2444	0.003027
2440	0.024628
2436	0.034976
2432	0.090336
2428	0.137782
2424	0.119686
2420	0.047826
2416	0.068092
2412	0.080680
2408	-0.076746
2404	-0.156521
2400	-0.054216
2396	-0.004029
2392	0.009322
2388	0.024819
2384	-0.055289
2380	-0.134444
2376	-0.125598
2372	-0.028634
2368	0.048351
2364	0.031423
2360	0.052523
2356	0.103735
2352	0.119709
2348	0.123429
2344	0.099205
2340	0.046610
2336	0.059461
2332	0.157237
2328	0.205039
2324	0.200390
2320	0.199151
2316	0.202226
2312	0.249958
2308	0.304603
2304	0.311732
2300	0.302386
2296	0.317287
2292	0.325679
2288	0.292325
2284	0.275254
2280	0.274038
2276	0.312709
2272	0.433492
2268	0.538897
2264	0.598073
2260	0.652432
2256	0.711727
2252	0.780320
2248	0.851488
2244	0.932288
2240	1.029610
2236	1.133108
2232	1.276111
2228	1.455760
2224	1.617956
2220	1.756644
2216	1.908802
2212	2.111697
2208	2.337360
2204	2.532649
2200	2.710843
2196	2.919888
2192	3.147029
2188	3.352046
2184	3.562951
2180	3.826808
2176	4.160332
2172	4.584002
2168	4.981899
2164	5.246901
2160	5.476021
2156	5.759382
2152	6.106305
2148	6.442165
2144	6.774044
2140	7.175207
2136	7.593798
2132	8.027815
2128	8.511567
2124	8.990478
2120	9.431886
2116	9.818506
2112	10.1708
2108	10.6182
2104	11.1384
2100	11.6178
2096	12.0866
2092	12.5286
2088	12.9503
2084	13.4416
2080	13.8878
2076	14.2182
2072	14.6164
2068	15.134
2064	15.606
2060	16.0086
2056	16.4958
2052	16.999
2048	17.4097
2044	17.8045
2040	18.1948
2036	18.5848
2032	19.0123
2028	19.4793
2024	19.933
2020	20.3038
2016	20.5961
2012	20.8709
2008	21.2093
2004	21.6254
2000	22.0309
1996	22.3827
1992	22.7251
1988	23.0713
1984	23.4051
1980	23.7029
1976	23.9267
1972	24.1466
1968	24.4278
1964	24.6854
1960	24.9333
1956	25.2293
1952	25.5204
1948	25.8101
1944	26.0851
1940	26.2906
1936	26.4802
1932	26.6877
1928	26.8892
1924	27.0822
1920	27.2262
1916	27.3385
1912	27.5298
1908	27.7987
1904	28.0085
1900	28.1474
1896	28.3314
1892	28.5504
1888	28.7162
1884	28.841
1880	28.9696
1876	29.0828
1872	29.1708
1868	29.2585
1864	29.3155
1860	29.3735
1856	29.5433
1852	29.7911
1848	30.0143
1844	30.1796
1840	30.2484
1836	30.2586
1832	30.3236
1828	30.4132
1824	30.4219
1820	30.4372
1816	30.5588
1812	30.6801
1808	30.7465
1804	30.8653
1800	31.0647
1796	31.2328
1792	31.3122
1788	31.3499
1784	31.3581
1780	31.33
1776	31.3429
1772	31.3928
1768	31.4087
1764	31.4345
1760	31.4836
1756	31.5278
1752	31.6207
1748	31.7477
1744	31.827
1740	31.8641
1736	31.8587
1732	31.7601
1728	31.6433
1724	31.6717
1720	31.7799
1716	31.7603
1712	31.7293
1708	31.9014
1704	32.2004
1700	32.4394
1696	32.4191
1692	32.2506
1688	32.2272
1684	32.2342
1680	32.1267
1676	32.0115
1672	31.9501
1668	31.9307
1664	31.9266
1660	32.033
1656	32.3112
1652	32.4958
1648	32.4531
1644	32.3806
1640	32.4231
1636	32.4584
1632	32.3577
1628	32.2524
1624	32.1618
1620	32.0931
1616	32.0813
1612	32.0347
1608	32.0115
1604	32.0385
1600	32.1397
1596	32.3289
1592	32.4291
1588	32.4065
1584	32.3466
1580	32.3091
1576	32.2358
1572	32.0688
1568	31.9653
1564	32.0828
1560	32.3408
1556	32.4749
1552	32.4845
1548	32.5368
1544	32.6631
1540	32.7533
1536	32.665
1532	32.4894
1528	32.3701
1524	32.2851
1520	32.1567
1516	32.0204
1512	32.0318
1508	32.1626
1504	32.1871
1500	32.1378
1496	32.1838
1492	32.3087
1488	32.3876
1484	32.3272
1480	32.1979
1476	32.0976
1472	31.9881
1468	31.8685
1464	31.8208
1460	31.8733
1456	31.9613
1452	32.0461
1448	32.1537
1444	32.1855
1440	32.1181
1436	32.1219
1432	32.1485
1428	32.0603
1424	31.9361
1420	31.8357
1416	31.7298
1412	31.6134
1408	31.5738
1404	31.6856
1400	31.8339
1396	31.9359
1392	32.0107
1388	32.04
1384	31.9669
1380	31.8101
1376	31.7041
1372	31.6664
1368	31.6018
1364	31.4789
1360	31.3836
1356	31.3932
1352	31.4639
1348	31.5553
1344	31.6814
1340	31.8354
1336	31.9612
1332	32.0034
1328	31.929
1324	31.7502
1320	31.5289
1316	31.3395
1312	31.2173
1308	31.1459
1304	31.2043
1300	31.3703
1296	31.5103
1292	31.6345
1288	31.7462
1284	31.7869
1280	31.6944
1276	31.5501
1272	31.4262
1268	31.2326
1264	31.0383
1260	30.9353
1256	30.9486
1252	31.0586
1248	31.1619
1244	31.2559
1240	31.362
1236	31.4664
1232	31.5386
1228	31.5484
1224	31.4608
1220	31.2767
1216	31.1025
1212	31.029
1208	30.9872
1204	30.8917
1200	30.8648
1196	30.9729
1192	31.1288
1188	31.2851
1184	31.3722
1180	31.3276
1176	31.2041
1172	31.0902
1168	31.0232
1164	30.9756
1160	30.8722
1156	30.7378
1152	30.6863
1148	30.7069
1144	30.7414
1140	30.8772
1136	31.0844
1132	31.1691
1128	31.1497
1124	31.1558
1120	31.09
1116	30.886
1112	30.6575
1108	30.4363
1104	30.2629
1100	30.2189
1096	30.2994
1092	30.4443
1088	30.6094
1084	30.7472
1080	30.8283
1076	30.8496
1072	30.8266
1068	30.702
1064	30.4601
1060	30.2732
1056	30.108
1052	29.9437
1048	29.9362
1044	30.033
1040	30.1385
1036	30.2826
1032	30.4262
1028	30.5058
1024	30.6001
1020	30.7268
1016	30.7223
1012	30.3993
1008	29.9747
1004	29.837
1000	29.79
996	 29.6373
992	 29.635
988	 29.7773
984	 29.8673
980	 29.989
976	 30.148
972	 30.2036
968	 30.1507
964	 30.039
960	 29.8656
956	 29.664
952	 29.5161
948	 29.3723
944	 29.1904
940	 29.1366
936	 29.2051
932	 29.329
928	 29.5474
924	 29.6755
920	 29.6077
916	 29.5139
912	 29.5206
908	 29.5063
904	 29.3032
900	 28.9664
896	 28.6979
892	 28.5506
888	 28.4334
884	 28.4004
880	 28.5613
876	 28.8866
872	 29.1262
868	 29.047
864	 28.8428
860	 28.7804
856	 28.7048
852	 28.4694
848	 28.1691
844	 27.9123
840	 27.7941
836	 27.7759
832	 27.7499
828	 27.7623
824	 27.9673
820	 28.1926
816	 28.2153
812	 28.2085
808	 28.1927
804	 27.9928
800	 27.7096
796	 27.5179
792	 27.3541
788	 27.1798
784	 27.1431
780	 27.2437
776	 27.3204
772	 27.3796
768	 27.4631
764	 27.5737
760	 27.5825
756	 27.3808
752	 27.1998
748	 27.0417
744	 26.7822
740	 26.5976
736	 26.51
732	 26.4925
728	 26.5339
724	 26.516
720	 26.5573
716	 26.7128
712	 26.7816
708	 26.7203
704	 26.5426
700	 26.2384
696	 25.8734
692	 25.5888
688	 25.4152
684	 25.2603
680	 25.1509
676	 25.1344
672	 25.2812
668	 25.5348
664	 25.6589
660	 25.6118
656	 25.5682
652	 25.5207
648	 25.3659
644	 25.1865
640	 24.8853
636	 24.4615
632	 24.18
628	 24.1195
624	 24.2611
620	 24.436
616	 24.4943
612	 24.5332
608	 24.5485
604	 24.4686
600	 24.2984
596	 24.004
592	 23.6083
588	 23.3612
584	 23.3514
580	 23.3386
576	 23.2698
572	 23.1694
568	 23.0638
564	 23.1242
560	 23.2399
556	 23.2949
552	 23.174
548	 22.8166
544	 22.4655
540	 22.071
536	 21.6396
532	 21.2655
528	 21.1361
524	 21.2983
520	 21.3359
516	 21.2091
512	 21.5133
508	 22.3488
504	 22.8706
500	 22.5125
496	 21.5554
492	 20.7599
488	 20.4104
484	 20.0217
480	 19.7897
476	 19.8929
472	 19.8575
468	 19.8294
464	 19.6142
460	 19.0949
456	 19.1022
452	 19.3683
448	 19.464
444	 19.6443
440	 19.3454
436	 17.8502
432	 15.3856
428	 14.2267
424	 14.4469
420	 14.1084
416	 15.9475
412	 21.5474
408	 23.8175
404	 19.4169
400	 20.1041
396	 30.5787
392	 38.5507
388	 41.0327
384	 36.1464
380	 20.9706
376	 -1.154422
372	 -18.2815
370	 -19.7958