File: Bakgrunnsmateriale/MATLAB/FTIR/ftir_data/LPE453/Mapping_121/LPE453_t73.asc
PE IR       SPECTRUM    SPECTRUM    ASCII       PEDS        1.60
  -1
LPCFA5~1.ASC
17/05/16
20:22:44.00
17/05/16
20:23:10.00
tln
$LPE453_t0073$<tbV0>[-2.6,2.6,8.0,0.0,27,1,0]
27.028
64

2002,4.07
MIRTGS : RIGHTBACK : INTERNAL 2
MIR : ON : INTERNAL 2
OPTKBR

0.200000
8
8.000000
FILLER
RATIO
SPECTRUM
UNLOCKED 256

DOUBLE
64
COMBINED
1
0
0

0.002000
RATIO

1
0
TRUE
51149
0
LEFT NOT FITTED RIGHT NOT FITTED 0
NONE
NONE
15600
12
4.427000
51148
TRUE
1 0 8 72 0 0 0 0

15798

#HDR
-1
-1
#GR
µM
%T
2.38419e-05
0.0
2.000000
0.002000
12515
8
33.4363
-2.010767
#DATA
2.000000	 0.027704
2.018000	 -0.290246
2.036000	 0.178971
2.054000	 0.042474
2.072000	 0.311111
2.090000	 -0.049804
2.108000	 1.134811
2.126000	 0.309490
2.144000	 -0.328141
2.162000	 0.529190
2.180000	 0.922178
2.198000	 -0.116201
2.216000	 0.093137
2.234000	 2.776915
2.252000	 -0.527224
2.270000	 0.537246
2.288000	 0.145667
2.306000	 0.359483
2.324000	 0.102690
2.342000	 0.290863
2.360000	 0.265378
2.378000	 0.062871
2.396000	 -0.027097
2.414000	 0.051764
2.432000	 -0.074380
2.450000	 0.110820
2.468000	 -0.154296
2.486000	 0.020671
2.504000	 0.056362
2.522000	 0.241760
2.540000	 -0.001133
2.558000	 -0.071905
2.576000	 -0.062593
2.594000	 0.027546
2.612000	 -0.034476
2.630000	 0.038480
2.648000	 0.045107
2.666000	 -0.097094
2.684000	 0.133390
2.702000	 -0.038940
2.720000	 0.024785
2.738000	 -0.040001
2.756000	 0.038570
2.774000	 -0.141599
2.792000	 0.102266
2.810000	 0.081261
2.828000	 0.062926
2.846000	 0.037370
2.864000	 0.349742
2.882000	 -0.089060
2.900000	 -0.145169
2.918000	 -0.003897
2.936000	 -0.005765
2.954000	 -0.082918
2.972000	 0.102575
2.990000	 0.008782
3.008000	 0.077784
3.026000	 0.117533
3.044000	 0.134071
3.062000	 -0.137292
3.080000	 0.081186
3.098000	 0.082769
3.116000	 -0.147475
3.134000	 0.205948
3.152000	 -0.072752
3.170000	 0.031428
3.188000	 0.193298
3.206000	 -0.005525
3.224000	 0.061386
3.242000	 -0.061907
3.260000	 0.037952
3.278000	 0.090341
3.296000	 0.069230
3.314000	 0.094898
3.332000	 -0.125749
3.350000	 -0.098139
3.368000	 0.110555
3.386000	 0.033684
3.404000	 0.092948
3.422000	 0.074010
3.440000	 0.111227
3.458000	 0.095621
3.476000	 0.198569
3.494000	 0.029673
3.512000	 0.053442
3.530000	 0.036688
3.548000	 0.074884
3.566000	 0.023536
3.584000	 0.065142
3.602000	 0.036028
3.620000	 -0.027492
3.638000	 0.007225
3.656000	 -0.042358
3.674000	 -0.006031
3.692000	 0.025589
3.710000	 0.031929
3.728000	 0.023755
3.746000	 0.049783
3.764000	 0.086349
3.782000	 0.066790
3.800000	 -0.009736
3.818000	 0.043293
3.836000	 0.035623
3.854000	 0.094430
3.872000	 0.046492
3.890000	 0.036656
3.908000	 0.004892
3.926000	 0.046493
3.944000	 -0.013525
3.962000	 -0.003172
3.980000	 -0.035841
3.998000	 0.167742
4.016000	 0.059639
4.034000	 0.051255
4.052000	 -0.013735
4.070000	 -0.033710
4.088000	 0.105493
4.106000	 -0.027531
4.124000	 0.098616
4.141999	 -0.015102
4.160000	 0.096019
4.178000	 -0.027416
4.196000	 -0.008292
4.214000	 0.056323
4.232000	 0.020959
4.250000	 -0.025094
4.268000	 0.144951
4.286000	 0.194278
4.304000	 0.266392
4.322000	 0.180181
4.340000	 0.263758
4.358000	 0.472374
4.375999	 0.597736
4.394000	 0.692751
4.412000	 0.869071
4.430000	 1.105321
4.448000	 1.326850
4.466000	 1.640056
4.484000	 2.186402
4.502000	 2.530723
4.520000	 3.042208
4.538000	 3.538560
4.556000	 4.179524
4.574000	 4.897561
4.592000	 5.475759
4.609999	 6.300638
4.628000	 7.162279
4.646000	 8.082224
4.664000	 9.008765
4.682000	 9.899702
4.700000	 10.8725
4.718000	 11.8746
4.736000	 12.8147
4.754000	 13.7949
4.772000	 14.7198
4.790000	 15.757
4.808000	 16.7963
4.826000	 17.6851
4.843999	 18.707
4.862000	 19.4013
4.880000	 20.2473
4.898000	 21.0055
4.916000	 21.7403
4.934000	 22.4663
4.952000	 23.1034
4.970000	 23.8189
4.988000	 24.4508
5.006000	 25.0475
5.024000	 25.661
5.042000	 26.1432
5.060000	 26.6176
5.077999	 27.0369
5.096000	 27.3925
5.114000	 27.7755
5.132000	 28.2473
5.150000	 28.605
5.168000	 29.0387
5.186000	 29.3437
5.204000	 29.6394
5.222000	 29.8113
5.240000	 30.0356
5.258000	 30.3027
5.276000	 30.593
5.294000	 30.7589
5.312000	 30.9727
5.330000	 31.122
5.348000	 31.2543
5.366000	 31.4096
5.384000	 31.5847
5.402000	 31.7623
5.420000	 31.8427
5.438000	 31.958
5.456000	 32.1825
5.474000	 32.2033
5.492000	 32.1596
5.510000	 32.1978
5.528000	 32.329
5.546000	 32.488
5.564000	 32.6161
5.582000	 32.7149
5.600000	 32.8005
5.618000	 32.8056
5.636000	 32.7482
5.654000	 32.7082
5.672000	 32.7417
5.690000	 32.8038
5.708000	 32.9493
5.726000	 33.0806
5.744000	 33.0879
5.762000	 33.1767
5.780000	 33.1658
5.798000	 33.0631
5.816000	 33.0995
5.834000	 33.1474
5.852000	 33.1273
5.870000	 33.1357
5.888000	 33.2162
5.906000	 33.2233
5.923999	 33.2472
5.942000	 33.2498
5.960000	 33.1726
5.978000	 33.15
5.996000	 33.1099
6.014000	 33.1431
6.032000	 33.1969
6.050000	 33.2444
6.068000	 33.3235
6.086000	 33.3736
6.104000	 33.3568
6.122000	 33.3037
6.140000	 33.2199
6.158000	 33.1328
6.176000	 33.1178
6.194000	 33.128
6.212000	 33.0726
6.230000	 33.1271
6.248000	 33.2643
6.266000	 33.3534
6.284000	 33.4342
6.302000	 33.3777
6.320000	 33.2615
6.338000	 33.1724
6.356000	 33.0445
6.374000	 32.9773
6.392000	 33.0153
6.410000	 33.0477
6.428000	 33.0974
6.446000	 33.1376
6.464000	 33.1472
6.482000	 33.1871
6.500000	 33.2338
6.518000	 33.2381
6.536000	 33.1801
6.554000	 33.1097
6.572000	 33.0108
6.590000	 32.8719
6.608000	 32.8182
6.626000	 32.8953
6.644000	 32.9983
6.662000	 33.0709
6.680000	 33.1565
6.698000	 33.1797
6.716000	 33.1102
6.734000	 33.0429
6.752000	 32.9985
6.770000	 32.9696
6.788000	 32.9248
6.806000	 32.846
6.824000	 32.7381
6.842000	 32.6416
6.860000	 32.6273
6.878000	 32.6891
6.896000	 32.7681
6.914000	 32.8261
6.932000	 32.8811
6.950000	 32.9545
6.968000	 33.0076
6.986000	 33.0277
7.004000	 33.0131
7.022000	 32.9447
7.040000	 32.8556
7.058000	 32.7662
7.076000	 32.6706
7.094000	 32.6095
7.112000	 32.5858
7.130000	 32.5824
7.148000	 32.6408
7.166000	 32.7379
7.184000	 32.7946
7.202000	 32.8164
7.220000	 32.8392
7.238000	 32.863
7.256000	 32.8569
7.274000	 32.7618
7.292000	 32.5812
7.310000	 32.4232
7.328000	 32.3601
7.346000	 32.3405
7.364000	 32.3095
7.382000	 32.3226
7.400000	 32.4421
7.418000	 32.5958
7.436000	 32.6784
7.454000	 32.7104
7.472000	 32.7606
7.490000	 32.8061
7.508000	 32.7822
7.526000	 32.6927
7.544000	 32.5884
7.562000	 32.4774
7.580000	 32.3449
7.598000	 32.2227
7.616000	 32.1441
7.634000	 32.0958
7.652000	 32.0799
7.670000	 32.1248
7.688000	 32.2108
7.706000	 32.2908
7.724000	 32.3598
7.742000	 32.4315
7.760000	 32.5047
7.778000	 32.576
7.796000	 32.6128
7.814000	 32.5572
7.832000	 32.4266
7.850000	 32.3203
7.868000	 32.2771
7.886000	 32.2443
7.904000	 32.1912
7.922000	 32.1346
7.940000	 32.0733
7.958000	 32.0034
7.976000	 31.9628
7.994000	 31.9869
8.012000	 32.0512
8.030000	 32.108
8.048000	 32.1515
8.065999	 32.2035
8.084000	 32.2593
8.102000	 32.2916
8.120000	 32.2988
8.138000	 32.2985
8.155999	 32.2742
8.173999	 32.1875
8.192000	 32.0485
8.210000	 31.9189
8.228000	 31.8428
8.246000	 31.8079
8.263999	 31.7787
8.282000	 31.7392
8.300000	 31.6975
8.318000	 31.6685
8.336000	 31.6676
8.353999	 31.6975
8.372000	 31.7478
8.390000	 31.821
8.408000	 31.9242
8.426000	 32.0407
8.443999	 32.139
8.462000	 32.2017
8.480000	 32.2267
8.498000	 32.2096
8.516000	 32.1469
8.533999	 32.0487
8.552000	 31.9273
8.570000	 31.7916
8.588000	 31.6588
8.606000	 31.5535
8.624000	 31.488
8.641999	 31.4529
8.660000	 31.4255
8.678000	 31.3845
8.696000	 31.3256
8.714000	 31.2744
8.731999	 31.2746
8.750000	 31.3477
8.768000	 31.4684
8.786000	 31.5884
8.804000	 31.671
8.821999	 31.7064
8.840000	 31.7077
8.858000	 31.7003
8.876000	 31.7055
8.894000	 31.7235
8.911999	 31.7333
8.930000	 31.7119
8.948000	 31.6512
8.966000	 31.5585
8.984000	 31.4546
9.001999	 31.3667
9.020000	 31.306
9.038000	 31.2514
9.056000	 31.17
9.074000	 31.0553
9.092000	 30.9405
9.109999	 30.8722
9.128000	 30.8731
9.146000	 30.9305
9.164000	 31.0155
9.182000	 31.1058
9.199999	 31.1867
9.218000	 31.2444
9.236000	 31.2654
9.254000	 31.2489
9.272000	 31.215
9.289999	 31.1951
9.308000	 31.2061
9.326000	 31.2374
9.344000	 31.2624
9.362000	 31.2615
9.379999	 31.2314
9.398000	 31.1809
9.416000	 31.1198
9.434000	 31.0534
9.452000	 30.9822
9.469999	 30.9051
9.488000	 30.8236
9.506000	 30.7451
9.524000	 30.682
9.542000	 30.6448
9.560000	 30.6352
9.577999	 30.6463
9.596000	 30.6686
9.614000	 30.696
9.632000	 30.7244
9.650000	 30.7506
9.667999	 30.772
9.686000	 30.7878
9.704000	 30.8014
9.722000	 30.8212
9.740000	 30.8566
9.757999	 30.9077
9.776000	 30.961
9.794000	 30.9937
9.812000	 30.9875
9.830000	 30.939
9.847999	 30.8583
9.866000	 30.7591
9.884000	 30.6502
9.902000	 30.5347
9.920000	 30.4149
9.937999	 30.2966
9.956000	 30.1871
9.974000	 30.094
9.992000	 30.0254
10.01	29.9888
10.028	29.9877
10.046	30.0151
10.064	30.0554
10.082	30.0907
10.1	30.1122
10.118	30.1251
10.136	30.1443
10.154	30.1833
10.172	30.2456
10.19	30.3233
10.208	30.4026
10.226	30.4704
10.244	30.5188
10.262	30.5467
10.28	30.5582
10.298	30.5581
10.316	30.5481
10.334	30.5233
10.352	30.4739
10.37	30.3914
10.388	30.2776
10.406	30.1462
10.424	30.0183
10.442	29.9118
10.46	29.8318
10.478	29.7695
10.496	29.71
10.514	29.6435
10.532	29.5716
10.55	29.5077
10.568	29.4682
10.586	29.4644
10.604	29.4954
10.622	29.5486
10.64	29.6047
10.658	29.6455
10.676	29.6607
10.694	29.6529
10.712	29.6353
10.73	29.6262
10.748	29.6415
10.766	29.6871
10.784	29.7572
10.802	29.836
10.82	29.9057
10.838	29.9519
10.856	29.9697
10.874	29.963
10.892	29.9415
10.91	29.9159
10.928	29.8934
10.946	29.8746
10.964	29.8528
10.982	29.8182
11	29.7619
11.018	29.6801
11.036	29.5775
11.054	29.4657
11.072	29.3575
11.09	29.2616
11.108	29.1787
11.126	29.1032
11.144	29.0285
11.162	28.9518
11.18	28.8776
11.198	28.8158
11.216	28.7759
11.234	28.763
11.252	28.7755
11.27	28.8065
11.288	28.8465
11.306	28.8877
11.324	28.924
11.342	28.9509
11.36	28.9654
11.378	28.9663
11.396	28.9559
11.414	28.9408
11.432	28.9306
11.45	28.9343
11.468	28.9574
11.486	28.9984
11.504	29.0496
11.522	29.0994
11.54	29.1374
11.558	29.1575
11.576	29.1588
11.594	29.1447
11.612	29.121
11.63	29.0923
11.648	29.0604
11.666	29.0251
11.684	28.9838
11.702	28.9332
11.72	28.8714
11.738	28.7982
11.756	28.7157
11.774	28.6274
11.792	28.5371
11.81	28.4479
11.828	28.3619
11.846	28.2806
11.864	28.2052
11.882	28.1379
11.9	28.0823
11.918	28.0419
11.936	28.019
11.954	28.014
11.972	28.0248
11.99	28.0467
12.008	28.0759
12.026	28.1099
12.044	28.1483
12.062	28.1919
12.08	28.2411
12.098	28.2942
12.116	28.3476
12.134	28.3962
12.152	28.4359
12.17	28.465
12.188	28.4853
12.206	28.5007
12.224	28.5154
12.242	28.5312
12.26	28.5467
12.278	28.5571
12.296	28.5559
12.314	28.5381
12.332	28.5018
12.35	28.4487
12.368	28.3833
12.386	28.3119
12.404	28.2407
12.422	28.1743
12.44	28.1153
12.458	28.0636
12.476	28.0174
12.494	27.9732
12.512	27.9272
12.53	27.8757
12.548	27.8161
12.566	27.7472
12.584	27.6698
12.602	27.5871
12.62	27.5035
12.638	27.4242
12.656	27.3543
12.674	27.2975
12.692	27.2556
12.71	27.2283
12.728	27.2137
12.746	27.2087
12.764	27.2099
12.782	27.2146
12.8	27.2206
12.818	27.2268
12.836	27.2337
12.854	27.2427
12.872	27.2554
12.89	27.2732
12.908	27.2964
12.926	27.3239
12.944	27.353
12.962	27.3799
12.98	27.4001
12.998	27.41
13.016	27.4075
13.034	27.3934
13.052	27.3708
13.07	27.3448
13.088	27.3217
13.106	27.3068
13.124	27.3039
13.142	27.3136
13.16	27.3338
13.178	27.3592
13.196	27.3834
13.214	27.3995
13.232	27.4016
13.25	27.3854
13.268	27.3496
13.286	27.2954
13.304	27.2259
13.322	27.146
13.34	27.0614
13.358	26.9777
13.376	26.8996
13.394	26.8308
13.412	26.7733
13.43	26.7276
13.448	26.6926
13.466	26.6659
13.484	26.6443
13.502	26.624
13.52	26.6014
13.538	26.5736
13.556	26.5384
13.574	26.4953
13.592	26.4454
13.61	26.3905
13.628	26.334
13.646	26.2791
13.664	26.2295
13.682	26.1882
13.7	26.158
13.718	26.1407
13.736	26.1381
13.754	26.1503
13.772	26.177
13.79	26.217
13.808	26.2679
13.826	26.326
13.844	26.3868
13.862	26.4456
13.88	26.4979
13.898	26.5403
13.916	26.5704
13.934	26.5875
13.952	26.5925
13.97	26.5876
13.988	26.5757
14.006	26.5598
14.024	26.5424
14.042	26.525
14.06	26.5081
14.078	26.4916
14.096	26.4749
14.114	26.4573
14.132	26.4386
14.15	26.4191
14.168	26.3995
14.186	26.3804
14.204	26.3628
14.222	26.3464
14.24	26.3305
14.258	26.3133
14.276	26.2926
14.294	26.2661
14.312	26.2313
14.33	26.1867
14.348	26.1315
14.366	26.0665
14.384	25.9934
14.402	25.9151
14.42	25.8346
14.438	25.7548
14.456	25.6782
14.474	25.6064
14.492	25.5403
14.51	25.4799
14.528	25.4244
14.546	25.373
14.564	25.3252
14.582	25.2807
14.6	25.2394
14.618	25.202
14.636	25.169
14.654	25.1409
14.672	25.1179
14.69	25.0993
14.708	25.0841
14.726	25.0707
14.744	25.0572
14.762	25.042
14.78	25.0242
14.798	25.0037
14.816	24.9813
14.834	24.9589
14.852	24.939
14.87	24.9244
14.888	24.9175
14.906	24.9202
14.924	24.9333
14.942	24.9562
14.96	24.9871
14.978	25.0234
14.996	25.0622
15.014	25.1004
15.032	25.1352
15.05	25.1648
15.068	25.1887
15.086	25.207
15.104	25.2206
15.122	25.231
15.14	25.2396
15.158	25.247
15.176	25.2536
15.194	25.2589
15.212	25.2619
15.23	25.2612
15.248	25.2555
15.266	25.2438
15.284	25.2257
15.302	25.202
15.32	25.1742
15.338	25.144
15.356	25.1134
15.374	25.085
15.392	25.0597
15.41	25.0382
15.428	25.0203
15.446	25.004
15.464	24.9871
15.482	24.9672
15.5	24.9415
15.518	24.9074
15.536	24.8636
15.554	24.8096
15.572	24.746
15.59	24.6746
15.608	24.5977
15.626	24.5175
15.644	24.437
15.662	24.3583
15.68	24.283
15.698	24.212
15.716	24.1457
15.734	24.0838
15.752	24.0256
15.77	23.9709
15.788	23.9191
15.806	23.8708
15.824	23.8265
15.842	23.7871
15.86	23.7545
15.878	23.7296
15.896	23.7138
15.914	23.7085
15.932	23.7133
15.95	23.7277
15.968	23.7508
15.986	23.7801
16.004	23.8136
16.022	23.8495
16.04	23.8846
16.058	23.9173
16.076	23.9466
16.094	23.9712
16.112	23.992
16.13	24.0093
16.148	24.0243
16.166	24.039
16.184	24.0547
16.202	24.0731
16.22	24.0956
16.238	24.1228
16.256	24.155
16.274	24.1915
16.292	24.2314
16.31	24.2737
16.328	24.3163
16.346	24.3574
16.364	24.3958
16.382	24.4294
16.4	24.4573
16.418	24.4787
16.436	24.493
16.454	24.5006
16.472	24.5015
16.49	24.4964
16.508	24.4855
16.526	24.4694
16.544	24.4484
16.562	24.4227
16.58	24.3924
16.598	24.3575
16.616	24.3179
16.634	24.2734
16.652	24.2241
16.67	24.1704
16.688	24.1123
16.706	24.0509
16.724	23.987
16.742	23.9212
16.76	23.8552
16.778	23.7896
16.796	23.7257
16.814	23.6641
16.832	23.6053
16.85	23.5494
16.868	23.4962
16.886	23.4452
16.904	23.3954
16.922	23.346
16.94	23.2962
16.958	23.2447
16.976	23.1912
16.994	23.135
17.012	23.0763
17.03	23.0152
17.048	22.9525
17.066	22.8891
17.084	22.8263
17.102	22.7657
17.12	22.7079
17.138	22.655
17.156	22.6076
17.174	22.5668
17.192	22.533
17.21	22.5062
17.228	22.4861
17.246	22.4718
17.264	22.4627
17.282	22.4571
17.3	22.4541
17.318	22.4521
17.336	22.4497
17.354	22.4461
17.372	22.4399
17.39	22.4307
17.408	22.4178
17.426	22.4014
17.444	22.3814
17.462	22.3586
17.48	22.3335
17.498	22.3069
17.516	22.2799
17.534	22.2531
17.552	22.2277
17.57	22.2043
17.588	22.1839
17.606	22.1669
17.624	22.1538
17.642	22.1449
17.66	22.1405
17.678	22.1405
17.696	22.145
17.714	22.1539
17.732	22.167
17.75	22.1839
17.768	22.2042
17.786	22.2275
17.804	22.2531
17.822	22.2807
17.84	22.3093
17.858	22.3381
17.876	22.3663
17.894	22.3924
17.912	22.4161
17.93	22.4356
17.948	22.4507
17.966	22.4598
17.984	22.4626
18.002	22.4582
18.02	22.4467
18.038	22.4278
18.056	22.4025
18.074	22.3709
18.092	22.3351
18.11	22.2956
18.128	22.2551
18.146	22.2146
18.164	22.1772
18.182	22.1439
18.2	22.1171
18.218	22.0981
18.236	22.0881
18.254	22.0877
18.272	22.0971
18.29	22.1154
18.308	22.1425
18.326	22.1754
18.344	22.2137
18.362	22.2538
18.38	22.2946
18.398	22.3324
18.416	22.3658
18.434	22.3921
18.452	22.4099
18.47	22.4175
18.488	22.4144
18.506	22.3998
18.524	22.3745
18.542	22.3384
18.56	22.2937
18.578	22.2405
18.596	22.1821
18.614	22.1187
18.632	22.0537
18.65	21.9875
18.668	21.9231
18.686	21.8607
18.704	21.8026
18.722	21.7488
18.74	21.7006
18.758	21.658
18.776	21.6214
18.794	21.5906
18.812	21.5654
18.83	21.5456
18.848	21.5307
18.866	21.5205
18.884	21.5145
18.902	21.5125
18.92	21.5142
18.938	21.5196
18.956	21.5285
18.974	21.5406
18.992	21.5559
19.01	21.5741
19.028	21.5951
19.046	21.6187
19.064	21.6444
19.082	21.6718
19.1	21.7003
19.118	21.7293
19.136	21.7577
19.154	21.7848
19.172	21.8094
19.19	21.8311
19.208	21.8482
19.226	21.8606
19.244	21.8668
19.262	21.8669
19.28	21.8597
19.298	21.8455
19.316	21.824
19.334	21.7954
19.352	21.7603
19.37	21.7187
19.388	21.6725
19.406	21.6214
19.424	21.5679
19.442	21.5119
19.46	21.4561
19.478	21.4007
19.496	21.348
19.514	21.2986
19.532	21.2538
19.55	21.2145
19.568	21.1812
19.586	21.1545
19.604	21.1342
19.622	21.1205
19.64	21.1129
19.658	21.1106
19.676	21.1134
19.694	21.1193
19.712	21.1283
19.73	21.1381
19.748	21.1487
19.766	21.1582
19.784	21.1663
19.802	21.1719
19.82	21.1745
19.838	21.174
19.856	21.1699
19.874	21.1626
19.892	21.1522
19.91	21.1388
19.928	21.1231
19.946	21.105
19.964	21.0854
19.982	21.0643
20	21.0422
20.018	21.0192
20.036	20.9954
20.054	20.9709
20.072	20.9454
20.09	20.9186
20.108	20.8904
20.126	20.8603
20.144	20.8281
20.162	20.7935
20.18	20.756
20.198	20.7159
20.216	20.673
20.234	20.6274
20.252	20.5798
20.27	20.53
20.288	20.4793
20.306	20.4276
20.324	20.3761
20.342	20.3256
20.36	20.2763
20.378	20.2299
20.396	20.1862
20.414	20.1464
20.432	20.1106
20.45	20.0788
20.468	20.0515
20.486	20.0281
20.504	20.0082
20.522	19.9916
20.54	19.977
20.558	19.9646
20.576	19.9528
20.594	19.9408
20.612	19.9283
20.63	19.9135
20.648	19.8968
20.666	19.8765
20.684	19.8527
20.702	19.8249
20.72	19.7922
20.738	19.7551
20.756	19.7136
20.774	19.6677
20.792	19.6183
20.81	19.5655
20.828	19.5102
20.846	19.454
20.864	19.3966
20.882	19.3405
20.9	19.2852
20.918	19.2325
20.936	19.1839
20.954	19.1391
20.972	19.1006
20.99	19.0678
21.008	19.0421
21.026	19.024
21.044	19.0132
21.062	19.0102
21.08	19.0149
21.098	19.0264
21.116	19.045
21.134	19.0698
21.152	19.0993
21.17	19.134
21.188	19.1714
21.206	19.2117
21.224	19.2537
21.242	19.2953
21.26	19.3373
21.278	19.3774
21.296	19.4153
21.314	19.4506
21.332	19.4816
21.35	19.5088
21.368	19.5312
21.386	19.5486
21.404	19.561
21.422	19.5679
21.44	19.5694
21.458	19.5655
21.476	19.5561
21.494	19.5414
21.512	19.5212
21.53	19.4958
21.548	19.4649
21.566	19.4285
21.584	19.3868
21.602	19.3395
21.62	19.2868
21.638	19.2287
21.656	19.1653
21.674	19.0965
21.692	19.0232
21.71	18.9455
21.728	18.8638
21.746	18.7797
21.764	18.6924
21.782	18.6041
21.8	18.5163
21.818	18.4285
21.836	18.3445
21.854	18.2638
21.872	18.1881
21.89	18.121
21.908	18.0611
21.926	18.0112
21.944	17.9731
21.962	17.9458
21.98	17.932
21.998	17.9319
22.016	17.9453
22.034	17.9725
22.052	18.0139
22.07	18.0683
22.088	18.1351
22.106	18.2148
22.124	18.3043
22.142	18.4038
22.16	18.5123
22.178	18.6261
22.196	18.7464
22.214	18.8706
22.232	18.9953
22.25	19.1223
22.268	19.2478
22.286	19.3698
22.304	19.4895
22.322	19.6032
22.34	19.7108
22.358	19.8121
22.376	19.9041
22.394	19.9876
22.412	20.0616
22.43	20.1244
22.448	20.1767
22.466	20.2175
22.484	20.2459
22.502	20.2626
22.52	20.2669
22.538	20.2587
22.556	20.2382
22.574	20.2058
22.592	20.1612
22.61	20.1049
22.628	20.0383
22.646	19.9607
22.664	19.8733
22.682	19.7783
22.7	19.6744
22.718	19.564
22.736	19.4495
22.754	19.3292
22.772	19.2068
22.79	19.0849
22.808	18.9617
22.826	18.8413
22.844	18.7261
22.862	18.6144
22.88	18.5101
22.898	18.4149
22.916	18.3275
22.934	18.251
22.952	18.1865
22.97	18.133
22.988	18.0916
23.006	18.063
23.024	18.0464
23.042	18.0415
23.06	18.0486
23.078	18.0671
23.096	18.0952
23.114	18.1335
23.132	18.1813
23.15	18.2358
23.168	18.298
23.186	18.3667
23.204	18.4388
23.222	18.5148
23.24	18.5941
23.258	18.6737
23.276	18.754
23.294	18.8346
23.312	18.9134
23.33	18.9905
23.348	19.0658
23.366	19.1378
23.384	19.2064
23.402	19.2717
23.42	19.3331
23.438	19.3905
23.456	19.4441
23.474	19.4928
23.492	19.537
23.51	19.5764
23.528	19.6101
23.546	19.6379
23.564	19.66
23.582	19.6749
23.6	19.6821
23.618	19.6821
23.636	19.6734
23.654	19.6554
23.672	19.6287
23.69	19.5918
23.708	19.5439
23.726	19.4856
23.744	19.4162
23.762	19.3351
23.78	19.2424
23.798	19.1386
23.816	19.0237
23.834	18.8971
23.852	18.7601
23.87	18.6146
23.888	18.459
23.906	18.2952
23.924	18.1265
23.942	17.9519
23.96	17.7721
23.978	17.5921
23.996	17.4128
24.014	17.2327
24.032	17.0571
24.05	16.8892
24.068	16.7258
24.086	16.5716
24.104	16.4308
24.122	16.3003
24.14	16.1834
24.158	16.0851
24.176	16.0039
24.194	15.9404
24.212	15.898
24.23	15.8776
24.248	15.8779
24.266	15.8999
24.284	15.9448
24.302	16.0124
24.32	16.1001
24.338	16.2059
24.356	16.3324
24.374	16.4758
24.392	16.6303
24.41	16.7989
24.428	16.9797
24.446	17.1637
24.464	17.3489
24.482	17.5394
24.5	17.7248
24.518	17.8963
24.536	18.0614
24.554	18.2129
24.572	18.3404
24.59	18.4465
24.608	18.5312
24.626	18.5861
24.644	18.6072
24.662	18.5985
24.68	18.5575
24.698	18.4811
24.716	18.3693
24.734	18.2244
24.752	18.0487
24.77	17.8399
24.788	17.599
24.806	17.3344
24.824	17.0509
24.842	16.7414
24.86	16.4162
24.878	16.0871
24.896	15.7483
24.914	15.4024
24.932	15.0637
24.95	14.7388
24.968	14.4188
24.986	14.115
25.004	13.8396
25.022	13.587
25.04	13.359
25.058	13.1646
25.076	13.0085
25.094	12.8855
25.112	12.7988
25.13	12.7519
25.148	12.7451
25.166	12.7762
25.184	12.843
25.202	12.9456
25.22	13.0858
25.238	13.2576
25.256	13.4551
25.274	13.6839
25.292	13.9399
25.31	14.2123
25.328	14.4962
25.346	14.8
25.364	15.1121
25.382	15.4196
25.4	15.7264
25.418	16.0332
25.436	16.3288
25.454	16.6047
25.472	16.8683
25.49	17.1152
25.508	17.3377
25.526	17.5342
25.544	17.7084
25.562	17.8567
25.58	17.9762
25.598	18.0672
25.616	18.1309
25.634	18.1677
25.652	18.1772
25.67	18.1588
25.688	18.1148
25.706	18.0477
25.724	17.9571
25.742	17.8424
25.76	17.7067
25.778	17.5529
25.796	17.3789
25.814	17.1857
25.832	16.9767
25.85	16.7539
25.868	16.5152
25.886	16.2621
25.904	15.9961
25.922	15.7179
25.94	15.4265
25.958	15.1229
25.976	14.8077
25.994	14.4812
26.012	14.143
26.03	13.7931
26.048	13.4313
26.066	13.0579
26.084	12.6728
26.102	12.276
26.12	11.8672
26.138	11.4458
26.156	11.0133
26.174	10.5711
26.192	10.119
26.21	9.655993
26.228	9.184665
26.246	8.707748
26.264	8.223438
26.282	7.731146
26.3	7.236632
26.318	6.745475
26.336	6.252488
26.354	5.759188
26.372	5.274872
26.39	4.807901
26.408	4.350601
26.426	3.906037
26.444	3.483849
26.462	3.091678
26.48	2.720330
26.498	2.375047
26.516	2.065844
26.534	1.800265
26.552	1.571221
26.57	1.380749
26.588	1.233217
26.606	1.133079
26.624	1.080602
26.642	1.069369
26.66	1.092599
26.678	1.147934
26.696	1.242932
26.714	1.368260
26.732	1.513065
26.75	1.674612
26.768	1.864858
26.786	2.068214
26.804	2.267129
26.822	2.452728
26.84	2.637916
26.858	2.816072
26.876	2.978998
26.894	3.120774
26.912	3.245364
26.93	3.356079
26.948	3.455914
26.966	3.548108
26.984	3.632824
27.002	3.705190
27.02	3.760145
27.028	3.775787