File: Bakgrunnsmateriale/MATLAB/FTIR/ftir_data/LPE453/Mapping_121/LPE453_t39.asc
PE IR       SPECTRUM    SPECTRUM    ASCII       PEDS        1.60
  -1
LPEF9D~1.ASC
17/05/16
17:31:40.00
17/05/16
17:32:06.00
tln
$LPE453_t0039$<tbV0>[0.0,-5.2,8.0,0.0,27,1,0]
27.028
64

2002,4.07
MIRTGS : RIGHTBACK : INTERNAL 2
MIR : ON : INTERNAL 2
OPTKBR

0.200000
8
8.000000
FILLER
RATIO
SPECTRUM
UNLOCKED 256

DOUBLE
64
COMBINED
1
0
0

0.002000
RATIO

1
0
TRUE
51149
0
LEFT NOT FITTED RIGHT NOT FITTED 0
NONE
NONE
15600
12
4.427000
51148
TRUE
1 0 8 72 0 0 0 0

15798

#HDR
-1
-1
#GR
µM
%T
2.38419e-05
0.0
2.000000
0.002000
12515
8
38.4702
-4.653425
#DATA
2.000000	 -0.064992
2.018000	 0.026425
2.036000	 -0.000845
2.054000	 0.059033
2.072000	 0.352949
2.090000	 -0.036462
2.108000	 0.149350
2.126000	 0.240411
2.144000	 0.558141
2.162000	 0.049442
2.180000	 -0.319819
2.198000	 0.841266
2.216000	 -4.263324
2.234000	 1.118933
2.252000	 0.589037
2.270000	 0.248522
2.288000	 0.344018
2.306000	 -0.060528
2.324000	 -0.184734
2.342000	 0.192151
2.360000	 0.115588
2.378000	 0.056419
2.396000	 0.152348
2.414000	 -0.075656
2.432000	 -0.056260
2.450000	 0.131128
2.468000	 0.039201
2.486000	 0.224500
2.504000	 0.134041
2.522000	 -0.012003
2.540000	 -0.028144
2.558000	 -0.043287
2.576000	 0.131165
2.594000	 -0.189991
2.612000	 0.272297
2.630000	 -0.053573
2.648000	 0.093390
2.666000	 0.030603
2.684000	 0.112321
2.702000	 0.020294
2.720000	 0.113201
2.738000	 0.052165
2.756000	 -0.039266
2.774000	 0.108340
2.792000	 0.001278
2.810000	 -0.038086
2.828000	 0.025231
2.846000	 0.093492
2.864000	 0.109277
2.882000	 0.080275
2.900000	 0.252968
2.918000	 0.013661
2.936000	 0.034095
2.954000	 0.079496
2.972000	 -0.032848
2.990000	 0.086991
3.008000	 -0.046038
3.026000	 0.047645
3.044000	 -0.008190
3.062000	 -0.166364
3.080000	 0.077466
3.098000	 0.020595
3.116000	 0.207953
3.134000	 0.052907
3.152000	 0.073849
3.170000	 0.132647
3.188000	 0.161344
3.206000	 0.107574
3.224000	 0.234197
3.242000	 0.042864
3.260000	 0.075116
3.278000	 0.125834
3.296000	 0.116768
3.314000	 -0.009971
3.332000	 0.046018
3.350000	 0.084392
3.368000	 0.049771
3.386000	 0.040786
3.404000	 0.125441
3.422000	 0.197065
3.440000	 -0.040160
3.458000	 0.021947
3.476000	 0.020601
3.494000	 0.011785
3.512000	 0.019271
3.530000	 0.030841
3.548000	 0.102790
3.566000	 0.029325
3.584000	 0.079947
3.602000	 -0.016586
3.620000	 -0.034576
3.638000	 0.061335
3.656000	 0.025126
3.674000	 0.009165
3.692000	 0.034078
3.710000	 0.000006
3.728000	 -0.020679
3.746000	 -0.118646
3.764000	 0.077627
3.782000	 -0.019082
3.800000	 -0.065496
3.818000	 0.049773
3.836000	 0.078276
3.854000	 0.057559
3.872000	 0.051775
3.890000	 0.081982
3.908000	 0.005995
3.926000	 0.109630
3.944000	 0.055797
3.962000	 -0.040010
3.980000	 -0.133881
3.998000	 -0.110713
4.016000	 -0.118976
4.034000	 0.065104
4.052000	 0.103021
4.070000	 0.138493
4.088000	 -0.032905
4.106000	 -0.051564
4.124000	 0.052014
4.141999	 -0.004696
4.160000	 -0.054758
4.178000	 0.029412
4.196000	 -0.002642
4.214000	 -0.016027
4.232000	 0.071295
4.250000	 -0.001758
4.268000	 -0.022425
4.286000	 0.028202
4.304000	 0.114141
4.322000	 0.054036
4.340000	 0.098013
4.358000	 0.311892
4.375999	 0.257768
4.394000	 0.322337
4.412000	 0.360881
4.430000	 0.446544
4.448000	 0.685729
4.466000	 0.730509
4.484000	 0.942251
4.502000	 1.234165
4.520000	 1.525364
4.538000	 1.850356
4.556000	 2.268647
4.574000	 2.657443
4.592000	 3.310289
4.609999	 3.889165
4.628000	 4.615095
4.646000	 5.247729
4.664000	 5.738774
4.682000	 6.425299
4.700000	 7.212893
4.718000	 8.260828
4.736000	 9.204135
4.754000	 10.0756
4.772000	 10.8377
4.790000	 11.5849
4.808000	 12.4857
4.826000	 13.4306
4.843999	 14.2384
4.862000	 15.2002
4.880000	 15.9063
4.898000	 16.7198
4.916000	 17.552
4.934000	 18.3841
4.952000	 19.0631
4.970000	 19.7107
4.988000	 20.2828
5.006000	 20.9618
5.024000	 21.5655
5.042000	 22.018
5.060000	 22.6151
5.077999	 23.133
5.096000	 23.5745
5.114000	 24.0527
5.132000	 24.4156
5.150000	 24.8786
5.168000	 25.231
5.186000	 25.4997
5.204000	 25.9447
5.222000	 26.3167
5.240000	 26.5549
5.258000	 26.7519
5.276000	 27.0675
5.294000	 27.3352
5.312000	 27.5266
5.330000	 27.7378
5.348000	 27.9364
5.366000	 27.9887
5.384000	 28.2956
5.402000	 28.5603
5.420000	 28.7179
5.438000	 28.7906
5.456000	 28.8966
5.474000	 29.0087
5.492000	 29.1229
5.510000	 29.2089
5.528000	 29.3314
5.546000	 29.4413
5.564000	 29.5399
5.582000	 29.6242
5.600000	 29.6068
5.618000	 29.5894
5.636000	 29.7049
5.654000	 29.7877
5.672000	 29.8782
5.690000	 29.9461
5.708000	 29.9812
5.726000	 30.0144
5.744000	 30.0877
5.762000	 30.1097
5.780000	 30.1241
5.798000	 30.2106
5.816000	 30.1526
5.834000	 30.2088
5.852000	 30.3201
5.870000	 30.3505
5.888000	 30.3033
5.906000	 30.2751
5.923999	 30.2942
5.942000	 30.2602
5.960000	 30.2467
5.978000	 30.284
5.996000	 30.3489
6.014000	 30.4197
6.032000	 30.449
6.050000	 30.3963
6.068000	 30.309
6.086000	 30.292
6.104000	 30.4265
6.122000	 30.5417
6.140000	 30.4735
6.158000	 30.3721
6.176000	 30.3966
6.194000	 30.4233
6.212000	 30.3681
6.230000	 30.3824
6.248000	 30.4443
6.266000	 30.4463
6.284000	 30.4539
6.302000	 30.4547
6.320000	 30.4248
6.338000	 30.4752
6.356000	 30.5002
6.374000	 30.4286
6.392000	 30.365
6.410000	 30.3426
6.428000	 30.3298
6.446000	 30.3137
6.464000	 30.2508
6.482000	 30.1832
6.500000	 30.2423
6.518000	 30.339
6.536000	 30.3235
6.554000	 30.263
6.572000	 30.2549
6.590000	 30.2806
6.608000	 30.2751
6.626000	 30.2968
6.644000	 30.3429
6.662000	 30.3095
6.680000	 30.1847
6.698000	 30.0489
6.716000	 30.0101
6.734000	 30.0603
6.752000	 30.1341
6.770000	 30.1943
6.788000	 30.2548
6.806000	 30.301
6.824000	 30.2255
6.842000	 30.0877
6.860000	 30.0379
6.878000	 30.019
6.896000	 29.9977
6.914000	 30.0228
6.932000	 30.0635
6.950000	 30.103
6.968000	 30.1251
6.986000	 30.1061
7.004000	 30.0713
7.022000	 30.0357
7.040000	 29.9846
7.058000	 29.9394
7.076000	 29.9211
7.094000	 29.9341
7.112000	 29.9753
7.130000	 29.9851
7.148000	 29.925
7.166000	 29.8608
7.184000	 29.8789
7.202000	 29.9727
7.220000	 30.0413
7.238000	 30.0314
7.256000	 29.983
7.274000	 29.9358
7.292000	 29.9025
7.310000	 29.8762
7.328000	 29.8353
7.346000	 29.7882
7.364000	 29.7665
7.382000	 29.7728
7.400000	 29.7872
7.418000	 29.8093
7.436000	 29.8438
7.454000	 29.8787
7.472000	 29.8959
7.490000	 29.881
7.508000	 29.8425
7.526000	 29.8018
7.544000	 29.7436
7.562000	 29.6508
7.580000	 29.575
7.598000	 29.5676
7.616000	 29.5906
7.634000	 29.5837
7.652000	 29.5497
7.670000	 29.5227
7.688000	 29.5284
7.706000	 29.5836
7.724000	 29.6774
7.742000	 29.768
7.760000	 29.8134
7.778000	 29.7994
7.796000	 29.7503
7.814000	 29.7043
7.832000	 29.6564
7.850000	 29.5732
7.868000	 29.4708
7.886000	 29.4019
7.904000	 29.3786
7.922000	 29.3744
7.940000	 29.3757
7.958000	 29.3854
7.976000	 29.4051
7.994000	 29.4229
8.012000	 29.412
8.030000	 29.3671
8.048000	 29.3279
8.065999	 29.3344
8.084000	 29.3736
8.102000	 29.3982
8.120000	 29.385
8.138000	 29.3471
8.155999	 29.3045
8.173999	 29.2574
8.192000	 29.2017
8.210000	 29.1565
8.228000	 29.1478
8.246000	 29.1724
8.263999	 29.2006
8.282000	 29.2062
8.300000	 29.1874
8.318000	 29.1655
8.336000	 29.1664
8.353999	 29.1912
8.372000	 29.2137
8.390000	 29.2132
8.408000	 29.1956
8.426000	 29.1736
8.443999	 29.1414
8.462000	 29.089
8.480000	 29.0319
8.498000	 29.0047
8.516000	 29.0209
8.533999	 29.0561
8.552000	 29.0737
8.570000	 29.0624
8.588000	 29.0372
8.606000	 29.0098
8.624000	 28.9738
8.641999	 28.9256
8.660000	 28.8787
8.678000	 28.8485
8.696000	 28.8369
8.714000	 28.8432
8.731999	 28.8743
8.750000	 28.923
8.768000	 28.9518
8.786000	 28.9218
8.804000	 28.8424
8.821999	 28.7643
8.840000	 28.7224
8.858000	 28.7041
8.876000	 28.6852
8.894000	 28.6674
8.911999	 28.6679
8.930000	 28.6913
8.948000	 28.7278
8.966000	 28.7707
8.984000	 28.8126
9.001999	 28.8288
9.020000	 28.7891
9.038000	 28.6965
9.056000	 28.6031
9.074000	 28.5732
9.092000	 28.6253
9.109999	 28.7122
9.128000	 28.7604
9.146000	 28.7287
9.164000	 28.6323
9.182000	 28.517
9.199999	 28.4214
9.218000	 28.3612
9.236000	 28.3405
9.254000	 28.3606
9.272000	 28.4084
9.289999	 28.4492
9.308000	 28.4472
9.326000	 28.3983
9.344000	 28.3355
9.362000	 28.3006
9.379999	 28.3132
9.398000	 28.3619
9.416000	 28.4187
9.434000	 28.4514
9.452000	 28.4337
9.469999	 28.3584
9.488000	 28.2502
9.506000	 28.1561
9.524000	 28.113
9.542000	 28.1203
9.560000	 28.1438
9.577999	 28.1472
9.596000	 28.1214
9.614000	 28.0804
9.632000	 28.0402
9.650000	 28.0022
9.667999	 27.9588
9.686000	 27.9077
9.704000	 27.8574
9.722000	 27.8227
9.740000	 27.811
9.757999	 27.8123
9.776000	 27.8028
9.794000	 27.7638
9.812000	 27.7013
9.830000	 27.649
9.847999	 27.6467
9.866000	 27.7113
9.884000	 27.8226
9.902000	 27.9343
9.920000	 28.0031
9.937999	 28.0113
9.956000	 27.9689
9.974000	 27.8991
9.992000	 27.8222
10.01	27.7506
10.028	27.6889
10.046	27.6387
10.064	27.5969
10.082	27.5553
10.1	27.5021
10.118	27.4275
10.136	27.3313
10.154	27.2242
10.172	27.1257
10.19	27.058
10.208	27.0368
10.226	27.0659
10.244	27.1333
10.262	27.2164
10.28	27.2902
10.298	27.3361
10.316	27.3488
10.334	27.3353
10.352	27.3084
10.37	27.2804
10.388	27.2565
10.406	27.2375
10.424	27.2256
10.442	27.2265
10.46	27.2456
10.478	27.2818
10.496	27.3217
10.514	27.3437
10.532	27.3278
10.55	27.2668
10.568	27.1693
10.586	27.0562
10.604	26.9487
10.622	26.8621
10.64	26.8037
10.658	26.7733
10.676	26.766
10.694	26.7734
10.712	26.7838
10.73	26.7888
10.748	26.785
10.766	26.7773
10.784	26.7748
10.802	26.7857
10.82	26.8113
10.838	26.8452
10.856	26.8784
10.874	26.9049
10.892	26.9242
10.91	26.9391
10.928	26.9508
10.946	26.9556
10.964	26.9449
10.982	26.9093
11	26.8425
11.018	26.7457
11.036	26.628
11.054	26.5055
11.072	26.3955
11.09	26.313
11.108	26.2646
11.126	26.2476
11.144	26.252
11.162	26.2634
11.18	26.271
11.198	26.2698
11.216	26.2605
11.234	26.2467
11.252	26.2294
11.27	26.2059
11.288	26.1718
11.306	26.1253
11.324	26.071
11.342	26.0209
11.36	25.9884
11.378	25.9835
11.396	26.0067
11.414	26.0485
11.432	26.0953
11.45	26.1358
11.468	26.1645
11.486	26.1826
11.504	26.1948
11.522	26.2047
11.54	26.2117
11.558	26.2121
11.576	26.201
11.594	26.1747
11.612	26.1334
11.63	26.0805
11.648	26.0203
11.666	25.9577
11.684	25.8958
11.702	25.8361
11.72	25.7787
11.738	25.7221
11.756	25.6637
11.774	25.6004
11.792	25.53
11.81	25.4526
11.828	25.3716
11.846	25.2952
11.864	25.2332
11.882	25.1945
11.9	25.1851
11.918	25.2054
11.936	25.2493
11.954	25.3072
11.972	25.3681
11.99	25.4228
12.008	25.466
12.026	25.4967
12.044	25.5168
12.062	25.5297
12.08	25.5381
12.098	25.544
12.116	25.5479
12.134	25.5488
12.152	25.5458
12.17	25.5377
12.188	25.523
12.206	25.5004
12.224	25.4687
12.242	25.4265
12.26	25.3733
12.278	25.31
12.296	25.2384
12.314	25.1614
12.332	25.0829
12.35	25.0064
12.368	24.9349
12.386	24.8708
12.404	24.8164
12.422	24.7744
12.44	24.7467
12.458	24.735
12.476	24.74
12.494	24.7602
12.512	24.791
12.53	24.8257
12.548	24.8563
12.566	24.8752
12.584	24.8767
12.602	24.8589
12.62	24.824
12.638	24.7779
12.656	24.7292
12.674	24.6866
12.692	24.6569
12.71	24.6437
12.728	24.646
12.746	24.6593
12.764	24.6757
12.782	24.6861
12.8	24.6824
12.818	24.6597
12.836	24.6171
12.854	24.558
12.872	24.4893
12.89	24.4197
12.908	24.3579
12.926	24.3104
12.944	24.2807
12.962	24.2688
12.98	24.2719
12.998	24.2851
13.016	24.3022
13.034	24.3176
13.052	24.3261
13.07	24.3243
13.088	24.3094
13.106	24.2811
13.124	24.2403
13.142	24.1901
13.16	24.1355
13.178	24.0824
13.196	24.0375
13.214	24.0053
13.232	23.9876
13.25	23.982
13.268	23.9827
13.286	23.9811
13.304	23.9683
13.322	23.9368
13.34	23.8827
13.358	23.8065
13.376	23.7126
13.394	23.6085
13.412	23.503
13.43	23.4045
13.448	23.3195
13.466	23.2521
13.484	23.204
13.502	23.1749
13.52	23.1634
13.538	23.1673
13.556	23.1848
13.574	23.2139
13.592	23.2529
13.61	23.2991
13.628	23.3495
13.646	23.4006
13.664	23.4483
13.682	23.489
13.7	23.5198
13.718	23.5391
13.736	23.5465
13.754	23.5432
13.772	23.5311
13.79	23.513
13.808	23.4911
13.826	23.468
13.844	23.4448
13.862	23.4223
13.88	23.4003
13.898	23.3787
13.916	23.3569
13.934	23.3343
13.952	23.3101
13.97	23.2839
13.988	23.2555
14.006	23.2251
14.024	23.1926
14.042	23.1587
14.06	23.1246
14.078	23.0919
14.096	23.0621
14.114	23.0372
14.132	23.0182
14.15	23.0057
14.168	22.9993
14.186	22.9975
14.204	22.9971
14.222	22.9942
14.24	22.9848
14.258	22.9656
14.276	22.9345
14.294	22.8908
14.312	22.8361
14.33	22.7739
14.348	22.7098
14.366	22.6498
14.384	22.601
14.402	22.5695
14.42	22.5597
14.438	22.5741
14.456	22.6124
14.474	22.672
14.492	22.7479
14.51	22.8329
14.528	22.9191
14.546	22.9994
14.564	23.0677
14.582	23.1198
14.6	23.1538
14.618	23.1693
14.636	23.1682
14.654	23.153
14.672	23.1265
14.69	23.0911
14.708	23.0485
14.726	22.9995
14.744	22.9437
14.762	22.8811
14.78	22.8113
14.798	22.7349
14.816	22.6529
14.834	22.5671
14.852	22.4808
14.87	22.3971
14.888	22.319
14.906	22.2486
14.924	22.1876
14.942	22.1362
14.96	22.093
14.978	22.0564
14.996	22.0239
15.014	21.9933
15.032	21.9627
15.05	21.9309
15.068	21.8978
15.086	21.8638
15.104	21.8298
15.122	21.7972
15.14	21.7673
15.158	21.741
15.176	21.7189
15.194	21.7009
15.212	21.6863
15.23	21.6744
15.248	21.6645
15.266	21.656
15.284	21.6484
15.302	21.6417
15.32	21.6365
15.338	21.6333
15.356	21.633
15.374	21.6365
15.392	21.6439
15.41	21.6551
15.428	21.6695
15.446	21.6854
15.464	21.7015
15.482	21.7159
15.5	21.7271
15.518	21.7337
15.536	21.7352
15.554	21.7317
15.572	21.7238
15.59	21.713
15.608	21.7008
15.626	21.6887
15.644	21.6782
15.662	21.6704
15.68	21.6657
15.698	21.6643
15.716	21.6657
15.734	21.669
15.752	21.6733
15.77	21.6776
15.788	21.6806
15.806	21.6818
15.824	21.6808
15.842	21.6772
15.86	21.6713
15.878	21.663
15.896	21.6524
15.914	21.6396
15.932	21.6245
15.95	21.6072
15.968	21.5875
15.986	21.5652
16.004	21.5402
16.022	21.5123
16.04	21.4818
16.058	21.4487
16.076	21.4135
16.094	21.3764
16.112	21.338
16.13	21.2985
16.148	21.2584
16.166	21.2182
16.184	21.1783
16.202	21.1391
16.22	21.1008
16.238	21.0637
16.256	21.0281
16.274	20.994
16.292	20.9615
16.31	20.9305
16.328	20.9003
16.346	20.8702
16.364	20.8394
16.382	20.8062
16.4	20.7695
16.418	20.7282
16.436	20.6807
16.454	20.6267
16.472	20.566
16.49	20.4993
16.508	20.4286
16.526	20.3555
16.544	20.2838
16.562	20.2167
16.58	20.1567
16.598	20.1083
16.616	20.0734
16.634	20.0539
16.652	20.0507
16.67	20.0629
16.688	20.0899
16.706	20.1284
16.724	20.1764
16.742	20.2312
16.76	20.2888
16.778	20.3477
16.796	20.4048
16.814	20.4587
16.832	20.5087
16.85	20.5538
16.868	20.5945
16.886	20.6307
16.904	20.6629
16.922	20.6912
16.94	20.7158
16.958	20.7363
16.976	20.7525
16.994	20.7635
17.012	20.7685
17.03	20.7669
17.048	20.7578
17.066	20.741
17.084	20.7161
17.102	20.6843
17.12	20.6462
17.138	20.6035
17.156	20.5578
17.174	20.5107
17.192	20.4648
17.21	20.4208
17.228	20.3811
17.246	20.3458
17.264	20.3157
17.282	20.29
17.3	20.268
17.318	20.2485
17.336	20.2294
17.354	20.2098
17.372	20.1868
17.39	20.1595
17.408	20.1261
17.426	20.0859
17.444	20.0383
17.462	19.9837
17.48	19.9226
17.498	19.8565
17.516	19.7872
17.534	19.7161
17.552	19.6463
17.57	19.5786
17.588	19.516
17.606	19.4594
17.624	19.4104
17.642	19.3696
17.66	19.3375
17.678	19.3137
17.696	19.2979
17.714	19.2888
17.732	19.2853
17.75	19.2865
17.768	19.2904
17.786	19.2964
17.804	19.3023
17.822	19.3078
17.84	19.3115
17.858	19.3132
17.876	19.3124
17.894	19.3091
17.912	19.3035
17.93	19.2959
17.948	19.2864
17.966	19.276
17.984	19.265
18.002	19.2541
18.02	19.244
18.038	19.2352
18.056	19.2284
18.074	19.224
18.092	19.2226
18.11	19.2242
18.128	19.2292
18.146	19.2375
18.164	19.2492
18.182	19.2637
18.2	19.2808
18.218	19.2993
18.236	19.3189
18.254	19.3375
18.272	19.3547
18.29	19.3679
18.308	19.3768
18.326	19.3789
18.344	19.374
18.362	19.3605
18.38	19.3385
18.398	19.3075
18.416	19.2683
18.434	19.2215
18.452	19.1691
18.47	19.1121
18.488	19.0535
18.506	18.9944
18.524	18.9382
18.542	18.8857
18.56	18.8402
18.578	18.8021
18.596	18.7734
18.614	18.754
18.632	18.7441
18.65	18.7433
18.668	18.7499
18.686	18.7633
18.704	18.7803
18.722	18.8004
18.74	18.8197
18.758	18.8379
18.776	18.8514
18.794	18.8601
18.812	18.8616
18.83	18.856
18.848	18.8424
18.866	18.8214
18.884	18.7937
18.902	18.7603
18.92	18.7228
18.938	18.6827
18.956	18.6422
18.974	18.6024
18.992	18.5658
19.01	18.533
19.028	18.5059
19.046	18.4844
19.064	18.4696
19.082	18.4609
19.1	18.4581
19.118	18.4603
19.136	18.4663
19.154	18.4752
19.172	18.4847
19.19	18.4944
19.208	18.5016
19.226	18.5062
19.244	18.5057
19.262	18.5004
19.28	18.4891
19.298	18.4722
19.316	18.4496
19.334	18.4216
19.352	18.3901
19.37	18.3549
19.388	18.3189
19.406	18.2821
19.424	18.2474
19.442	18.2151
19.46	18.1875
19.478	18.1648
19.496	18.1483
19.514	18.1385
19.532	18.1351
19.55	18.1386
19.568	18.1479
19.586	18.1624
19.604	18.1813
19.622	18.2026
19.64	18.2261
19.658	18.2489
19.676	18.2712
19.694	18.2899
19.712	18.3053
19.73	18.3151
19.748	18.3194
19.766	18.3175
19.784	18.3088
19.802	18.2941
19.82	18.2732
19.838	18.2468
19.856	18.2158
19.874	18.1805
19.892	18.1431
19.91	18.1034
19.928	18.0641
19.946	18.0248
19.964	17.9881
19.982	17.954
20	17.9237
20.018	17.8981
20.036	17.8773
20.054	17.862
20.072	17.852
20.09	17.8473
20.108	17.8479
20.126	17.8529
20.144	17.8623
20.162	17.875
20.18	17.8907
20.198	17.9085
20.216	17.9271
20.234	17.9466
20.252	17.9654
20.27	17.9838
20.288	18.0004
20.306	18.0151
20.324	18.0277
20.342	18.0377
20.36	18.0456
20.378	18.0517
20.396	18.056
20.414	18.0598
20.432	18.0628
20.45	18.0666
20.468	18.0719
20.486	18.0789
20.504	18.089
20.522	18.1017
20.54	18.118
20.558	18.1381
20.576	18.1611
20.594	18.187
20.612	18.215
20.63	18.2437
20.648	18.2735
20.666	18.3007
20.684	18.3258
20.702	18.3461
20.72	18.3599
20.738	18.3669
20.756	18.3632
20.774	18.3497
20.792	18.3241
20.81	18.2858
20.828	18.2348
20.846	18.1701
20.864	18.0921
20.882	18.0018
20.9	17.8987
20.918	17.7853
20.936	17.6625
20.954	17.5309
20.972	17.3949
20.99	17.2532
21.008	17.1107
21.026	16.9687
21.044	16.8283
21.062	16.6947
21.08	16.5663
21.098	16.4476
21.116	16.3397
21.134	16.2431
21.152	16.1607
21.17	16.0918
21.188	16.0376
21.206	15.9986
21.224	15.974
21.242	15.9634
21.26	15.9671
21.278	15.982
21.296	16.0084
21.314	16.0445
21.332	16.0866
21.35	16.1361
21.368	16.1878
21.386	16.2409
21.404	16.2944
21.422	16.3435
21.44	16.3898
21.458	16.4295
21.476	16.4608
21.494	16.4842
21.512	16.4971
21.53	16.4999
21.548	16.4926
21.566	16.4748
21.584	16.4469
21.602	16.4114
21.62	16.3673
21.638	16.317
21.656	16.2633
21.674	16.205
21.692	16.1465
21.71	16.0885
21.728	16.0316
21.746	15.98
21.764	15.9326
21.782	15.8914
21.8	15.8586
21.818	15.8331
21.836	15.8162
21.854	15.8083
21.872	15.8087
21.89	15.8171
21.908	15.8339
21.926	15.8574
21.944	15.8867
21.962	15.9222
21.98	15.9611
21.998	16.0035
22.016	16.0487
22.034	16.0946
22.052	16.1419
22.07	16.1893
22.088	16.2356
22.106	16.2813
22.124	16.3252
22.142	16.3671
22.16	16.4071
22.178	16.4446
22.196	16.4796
22.214	16.512
22.232	16.5417
22.25	16.5687
22.268	16.5929
22.286	16.614
22.304	16.6322
22.322	16.6467
22.34	16.6575
22.358	16.6644
22.376	16.667
22.394	16.6653
22.412	16.6592
22.43	16.6486
22.448	16.6336
22.466	16.6142
22.484	16.5903
22.502	16.5621
22.52	16.5297
22.538	16.4931
22.556	16.4525
22.574	16.4091
22.592	16.363
22.61	16.3143
22.628	16.265
22.646	16.2148
22.664	16.164
22.682	16.114
22.7	16.0646
22.718	16.0159
22.736	15.9684
22.754	15.9222
22.772	15.8768
22.79	15.8321
22.808	15.7885
22.826	15.7448
22.844	15.7006
22.862	15.6563
22.88	15.6103
22.898	15.5622
22.916	15.5122
22.934	15.4593
22.952	15.4029
22.97	15.3435
22.988	15.2804
23.006	15.2134
23.024	15.1428
23.042	15.0696
23.06	14.9934
23.078	14.9147
23.096	14.8356
23.114	14.7555
23.132	14.6752
23.15	14.5978
23.168	14.5229
23.186	14.4509
23.204	14.3849
23.222	14.3244
23.24	14.2697
23.258	14.2238
23.276	14.1862
23.294	14.1571
23.312	14.1384
23.33	14.1303
23.348	14.1323
23.366	14.1449
23.384	14.1689
23.402	14.2031
23.42	14.2457
23.438	14.2971
23.456	14.3569
23.474	14.4223
23.492	14.4934
23.51	14.5703
23.528	14.6498
23.546	14.7314
23.564	14.8158
23.582	14.9006
23.6	14.985
23.618	15.0698
23.636	15.1537
23.654	15.236
23.672	15.3171
23.69	15.3973
23.708	15.4764
23.726	15.5542
23.744	15.6317
23.762	15.709
23.78	15.7854
23.798	15.8629
23.816	15.9436
23.834	16.0258
23.852	16.1116
23.87	16.2043
23.888	16.3027
23.906	16.4076
23.924	16.5215
23.942	16.6446
23.96	16.7764
23.978	16.9174
23.996	17.068
24.014	17.228
24.032	17.3967
24.05	17.5742
24.068	17.761
24.086	17.955
24.104	18.1545
24.122	18.3617
24.14	18.5734
24.158	18.785
24.176	18.9991
24.194	19.2136
24.212	19.4228
24.23	19.6266
24.248	19.8261
24.266	20.0151
24.284	20.19
24.302	20.3544
24.32	20.5039
24.338	20.6339
24.356	20.7461
24.374	20.8406
24.392	20.9166
24.41	20.9733
24.428	21.0117
24.446	21.034
24.464	21.0401
24.482	21.029
24.5	21.0055
24.518	20.9733
24.536	20.9294
24.554	20.8769
24.572	20.8206
24.59	20.7588
24.608	20.6921
24.626	20.6254
24.644	20.5616
24.662	20.4984
24.68	20.4363
24.698	20.3765
24.716	20.3196
24.734	20.2638
24.752	20.2066
24.77	20.1499
24.788	20.0931
24.806	20.0298
24.824	19.9562
24.842	19.8778
24.86	19.7871
24.878	19.6753
24.896	19.5457
24.914	19.3976
24.932	19.2237
24.95	19.0197
24.968	18.7899
24.986	18.5316
25.004	18.2417
25.022	17.9187
25.04	17.5658
25.058	17.1873
25.076	16.7828
25.094	16.3492
25.112	15.8971
25.13	15.4365
25.148	14.958
25.166	14.4688
25.184	13.9863
25.202	13.5167
25.22	13.049
25.238	12.5992
25.256	12.1841
25.274	11.7924
25.292	11.4297
25.31	11.1159
25.328	10.8616
25.346	10.6522
25.364	10.503
25.382	10.4318
25.4	10.435
25.418	10.5094
25.436	10.6667
25.454	10.9161
25.472	11.2521
25.49	11.6741
25.508	12.1834
25.526	12.7837
25.544	13.4734
25.562	14.2433
25.58	15.0852
25.598	16.0103
25.616	17.0091
25.634	18.062
25.652	19.1598
25.67	20.3202
25.688	21.52
25.706	22.732
25.724	23.9606
25.742	25.2146
25.76	26.4621
25.778	27.6745
25.796	28.8725
25.814	30.0475
25.832	31.1712
25.85	32.2259
25.868	33.234
25.886	34.1782
25.904	35.0353
25.922	35.8002
25.94	36.4862
25.958	37.0793
25.976	37.5654
25.994	37.9479
26.012	38.2303
26.03	38.4062
26.048	38.4699
26.066	38.4246
26.084	38.2714
26.102	38.0097
26.12	37.6381
26.138	37.1548
26.156	36.5664
26.174	35.8804
26.192	35.0975
26.21	34.2125
26.228	33.2366
26.246	32.1813
26.264	31.041
26.282	29.8128
26.3	28.5178
26.318	27.1764
26.336	25.7716
26.354	24.308
26.372	22.8165
26.39	21.3246
26.408	19.8046
26.426	18.2695
26.444	16.7561
26.462	15.293
26.48	13.8446
26.498	12.4326
26.516	11.0977
26.534	9.868741
26.552	8.710310
26.57	7.642546
26.588	6.697616
26.606	5.895646
26.624	5.209900
26.642	4.654946
26.66	4.251576
26.678	4.014619
26.696	3.932563
26.714	4.000528
26.732	4.215114
26.75	4.579611
26.768	5.102694
26.786	5.762681
26.804	6.536060
26.822	7.420553
26.84	8.444533
26.858	9.563704
26.876	10.7293
26.894	11.9274
26.912	13.2075
26.93	14.5122
26.948	15.7767
26.966	17.0011
26.984	18.2866
27.002	19.4784
27.02	20.4035
27.028	20.6551