File: Bakgrunnsmateriale/MATLAB/FTIR/ftir_data/LPE453/Mapping_121/LPE453_t58.asc
PE IR       SPECTRUM    SPECTRUM    ASCII       PEDS        1.60
  -1
LPE7A9~1.ASC
17/05/16
19:06:51.00
17/05/16
19:07:17.00
tln
$LPE453_t0058$<tbV0>[7.8,0.0,8.0,0.0,27,1,0]
27.028
64

2002,4.07
MIRTGS : RIGHTBACK : INTERNAL 2
MIR : ON : INTERNAL 2
OPTKBR

0.200000
8
8.000000
FILLER
RATIO
SPECTRUM
UNLOCKED 256

DOUBLE
64
COMBINED
1
0
0

0.002000
RATIO

1
0
TRUE
51149
0
LEFT NOT FITTED RIGHT NOT FITTED 0
NONE
NONE
15600
12
4.427000
51148
TRUE
1 0 8 72 0 0 0 0

15798

#HDR
-1
-1
#GR
µM
%T
2.38419e-05
0.0
2.000000
0.002000
12515
8
24.3291
-13.6148
#DATA
2.000000	 -0.191450
2.018000	 -0.013649
2.036000	 -0.109541
2.054000	 0.120686
2.072000	 0.223846
2.090000	 0.330773
2.108000	 0.032343
2.126000	 0.858549
2.144000	 1.252845
2.162000	 0.805987
2.180000	 0.346291
2.198000	 0.205569
2.216000	 -0.002246
2.234000	 4.910894
2.252000	 -0.608253
2.270000	 0.179117
2.288000	 0.104786
2.306000	 0.155366
2.324000	 0.128069
2.342000	 0.019001
2.360000	 0.028999
2.378000	 0.149087
2.396000	 0.600345
2.414000	 0.455420
2.432000	 0.062560
2.450000	 0.239821
2.468000	 0.098761
2.486000	 0.124828
2.504000	 -0.111004
2.522000	 0.102996
2.540000	 0.124608
2.558000	 0.186556
2.576000	 -0.109251
2.594000	 -0.066557
2.612000	 -0.050833
2.630000	 0.100767
2.648000	 0.054709
2.666000	 0.040057
2.684000	 -0.085350
2.702000	 0.028600
2.720000	 0.147513
2.738000	 -0.001997
2.756000	 0.064964
2.774000	 -0.201712
2.792000	 -0.034363
2.810000	 0.006928
2.828000	 -0.121762
2.846000	 0.041420
2.864000	 -0.026298
2.882000	 0.036448
2.900000	 0.039258
2.918000	 0.193673
2.936000	 0.050538
2.954000	 0.162229
2.972000	 0.114670
2.990000	 -0.043670
3.008000	 -0.063930
3.026000	 0.063097
3.044000	 0.061660
3.062000	 -0.082952
3.080000	 0.025195
3.098000	 -0.021134
3.116000	 0.176153
3.134000	 -0.220556
3.152000	 -0.051493
3.170000	 0.058315
3.188000	 0.225565
3.206000	 -0.112978
3.224000	 -0.004286
3.242000	 0.078709
3.260000	 0.023464
3.278000	 -0.035671
3.296000	 0.014749
3.314000	 0.062904
3.332000	 -0.010077
3.350000	 0.173663
3.368000	 0.080708
3.386000	 0.037485
3.404000	 0.015191
3.422000	 -0.020662
3.440000	 0.033197
3.458000	 0.129882
3.476000	 0.100474
3.494000	 -0.025870
3.512000	 0.038057
3.530000	 0.052200
3.548000	 -0.133299
3.566000	 0.044246
3.584000	 -0.008383
3.602000	 0.009676
3.620000	 0.003556
3.638000	 0.104896
3.656000	 0.067270
3.674000	 -0.043029
3.692000	 -0.086551
3.710000	 -0.032982
3.728000	 0.005854
3.746000	 0.068439
3.764000	 0.028578
3.782000	 0.124584
3.800000	 0.069180
3.818000	 -0.008531
3.836000	 -0.135894
3.854000	 0.002983
3.872000	 -0.037155
3.890000	 0.137523
3.908000	 0.073522
3.926000	 0.007433
3.944000	 -0.034517
3.962000	 -0.045427
3.980000	 0.009147
3.998000	 0.136142
4.016000	 0.038828
4.034000	 -0.114893
4.052000	 0.038494
4.070000	 0.026644
4.088000	 0.093673
4.106000	 0.145196
4.124000	 0.008984
4.141999	 0.292152
4.160000	 0.169812
4.178000	 -0.111847
4.196000	 -0.046316
4.214000	 -0.038180
4.232000	 -0.030577
4.250000	 0.041522
4.268000	 0.124115
4.286000	 -0.017856
4.304000	 -0.066519
4.322000	 -0.064713
4.340000	 0.063944
4.358000	 0.047202
4.375999	 -0.016052
4.394000	 0.094231
4.412000	 0.113989
4.430000	 0.144058
4.448000	 0.159100
4.466000	 0.230648
4.484000	 0.357404
4.502000	 0.393312
4.520000	 0.610210
4.538000	 0.755652
4.556000	 0.866860
4.574000	 1.239022
4.592000	 1.573820
4.609999	 1.782921
4.628000	 2.245292
4.646000	 2.567311
4.664000	 3.075613
4.682000	 3.597970
4.700000	 4.214657
4.718000	 4.769426
4.736000	 5.330846
4.754000	 5.954826
4.772000	 6.596536
4.790000	 7.368510
4.808000	 8.139845
4.826000	 8.765092
4.843999	 9.330825
4.862000	 9.935794
4.880000	 10.7382
4.898000	 11.3504
4.916000	 11.9845
4.934000	 12.8042
4.952000	 13.2924
4.970000	 13.9164
4.988000	 14.535
5.006000	 15.022
5.024000	 15.5614
5.042000	 16.133
5.060000	 16.6001
5.077999	 17.1065
5.096000	 17.5741
5.114000	 18.0924
5.132000	 18.4096
5.150000	 18.8046
5.168000	 19.1866
5.186000	 19.485
5.204000	 19.7983
5.222000	 20.1342
5.240000	 20.4117
5.258000	 20.6536
5.276000	 20.8597
5.294000	 21.0993
5.312000	 21.3421
5.330000	 21.5515
5.348000	 21.768
5.366000	 22.0472
5.384000	 22.2372
5.402000	 22.3372
5.420000	 22.4705
5.438000	 22.5231
5.456000	 22.6657
5.474000	 22.8179
5.492000	 22.9067
5.510000	 22.9802
5.528000	 23.129
5.546000	 23.3166
5.564000	 23.3864
5.582000	 23.4627
5.600000	 23.577
5.618000	 23.6625
5.636000	 23.6081
5.654000	 23.6677
5.672000	 23.7989
5.690000	 23.7949
5.708000	 23.824
5.726000	 23.8663
5.744000	 23.9069
5.762000	 23.935
5.780000	 23.9666
5.798000	 24.0995
5.816000	 24.1555
5.834000	 24.039
5.852000	 23.9858
5.870000	 24.0761
5.888000	 24.174
5.906000	 24.2251
5.923999	 24.2118
5.942000	 24.2154
5.960000	 24.2227
5.978000	 24.2036
5.996000	 24.2298
6.014000	 24.2827
6.032000	 24.3012
6.050000	 24.293
6.068000	 24.2493
6.086000	 24.1356
6.104000	 24.159
6.122000	 24.2777
6.140000	 24.3287
6.158000	 24.272
6.176000	 24.2006
6.194000	 24.1598
6.212000	 24.1591
6.230000	 24.1618
6.248000	 24.1868
6.266000	 24.229
6.284000	 24.2444
6.302000	 24.2192
6.320000	 24.1709
6.338000	 24.1445
6.356000	 24.1769
6.374000	 24.2062
6.392000	 24.1793
6.410000	 24.1682
6.428000	 24.1984
6.446000	 24.1842
6.464000	 24.1331
6.482000	 24.1296
6.500000	 24.1628
6.518000	 24.1885
6.536000	 24.1664
6.554000	 24.1531
6.572000	 24.1983
6.590000	 24.2129
6.608000	 24.137
6.626000	 24.1346
6.644000	 24.226
6.662000	 24.2104
6.680000	 24.1584
6.698000	 24.116
6.716000	 24.0016
6.734000	 23.9293
6.752000	 23.9367
6.770000	 23.9291
6.788000	 23.9317
6.806000	 23.9985
6.824000	 24.0423
6.842000	 24.0271
6.860000	 23.9585
6.878000	 23.8495
6.896000	 23.8214
6.914000	 23.9058
6.932000	 23.9621
6.950000	 23.9195
6.968000	 23.8491
6.986000	 23.8324
7.004000	 23.8711
7.022000	 23.9085
7.040000	 23.9117
7.058000	 23.8797
7.076000	 23.8181
7.094000	 23.7538
7.112000	 23.6843
7.130000	 23.6067
7.148000	 23.5778
7.166000	 23.6235
7.184000	 23.6944
7.202000	 23.7354
7.220000	 23.7286
7.238000	 23.6875
7.256000	 23.6246
7.274000	 23.5534
7.292000	 23.505
7.310000	 23.4946
7.328000	 23.5137
7.346000	 23.5289
7.364000	 23.5031
7.382000	 23.4755
7.400000	 23.503
7.418000	 23.5474
7.436000	 23.5679
7.454000	 23.5685
7.472000	 23.5312
7.490000	 23.4565
7.508000	 23.3908
7.526000	 23.3625
7.544000	 23.371
7.562000	 23.4143
7.580000	 23.4797
7.598000	 23.5283
7.616000	 23.5231
7.634000	 23.481
7.652000	 23.442
7.670000	 23.4095
7.688000	 23.3654
7.706000	 23.3116
7.724000	 23.2703
7.742000	 23.2727
7.760000	 23.3237
7.778000	 23.3796
7.796000	 23.4
7.814000	 23.3853
7.832000	 23.3455
7.850000	 23.2857
7.868000	 23.2292
7.886000	 23.1969
7.904000	 23.1762
7.922000	 23.1501
7.940000	 23.1308
7.958000	 23.1324
7.976000	 23.1403
7.994000	 23.1338
8.012000	 23.1192
8.030000	 23.1153
8.048000	 23.1181
8.065999	 23.1108
8.084000	 23.096
8.102000	 23.0837
8.120000	 23.0618
8.138000	 23.017
8.155999	 22.9662
8.173999	 22.9366
8.192000	 22.9254
8.210000	 22.9105
8.228000	 22.8869
8.246000	 22.8744
8.263999	 22.8879
8.282000	 22.9123
8.300000	 22.9191
8.318000	 22.905
8.336000	 22.8988
8.353999	 22.9195
8.372000	 22.9499
8.390000	 22.9586
8.408000	 22.929
8.426000	 22.8625
8.443999	 22.7776
8.462000	 22.7021
8.480000	 22.6533
8.498000	 22.6308
8.516000	 22.6262
8.533999	 22.6403
8.552000	 22.6827
8.570000	 22.7389
8.588000	 22.7585
8.606000	 22.706
8.624000	 22.6118
8.641999	 22.5449
8.660000	 22.5371
8.678000	 22.5573
8.696000	 22.5563
8.714000	 22.5126
8.731999	 22.4323
8.750000	 22.336
8.768000	 22.2525
8.786000	 22.2062
8.804000	 22.1974
8.821999	 22.2011
8.840000	 22.1924
8.858000	 22.1691
8.876000	 22.1489
8.894000	 22.1465
8.911999	 22.1607
8.930000	 22.1794
8.948000	 22.1957
8.966000	 22.213
8.984000	 22.2367
9.001999	 22.2616
9.020000	 22.2694
9.038000	 22.2406
9.056000	 22.1699
9.074000	 22.0749
9.092000	 21.9919
9.109999	 21.9588
9.128000	 21.9956
9.146000	 22.0882
9.164000	 22.1944
9.182000	 22.2696
9.199999	 22.2912
9.218000	 22.2631
9.236000	 22.2023
9.254000	 22.1238
9.272000	 22.0357
9.289999	 21.9432
9.308000	 21.8545
9.326000	 21.7817
9.344000	 21.7383
9.362000	 21.7308
9.379999	 21.7511
9.398000	 21.7782
9.416000	 21.7908
9.434000	 21.7786
9.452000	 21.746
9.469999	 21.7047
9.488000	 21.6677
9.506000	 21.648
9.524000	 21.6567
9.542000	 21.6948
9.560000	 21.7463
9.577999	 21.7842
9.596000	 21.7883
9.614000	 21.756
9.632000	 21.6992
9.650000	 21.6358
9.667999	 21.5829
9.686000	 21.5553
9.704000	 21.5612
9.722000	 21.5937
9.740000	 21.6287
9.757999	 21.6376
9.776000	 21.609
9.794000	 21.562
9.812000	 21.5364
9.830000	 21.5618
9.847999	 21.6324
9.866000	 21.7068
9.884000	 21.7338
9.902000	 21.6859
9.920000	 21.5769
9.937999	 21.4523
9.956000	 21.3582
9.974000	 21.3145
9.992000	 21.3077
10.01	21.3056
10.028	21.2798
10.046	21.221
10.064	21.1397
10.082	21.0539
10.1	20.9799
10.118	20.9267
10.136	20.8965
10.154	20.8861
10.172	20.8886
10.19	20.895
10.208	20.8966
10.226	20.8896
10.244	20.8756
10.262	20.8585
10.28	20.8411
10.298	20.8219
10.316	20.7956
10.334	20.7573
10.352	20.7058
10.37	20.6448
10.388	20.5817
10.406	20.5244
10.424	20.4781
10.442	20.4445
10.46	20.4223
10.478	20.4083
10.496	20.4011
10.514	20.4011
10.532	20.4094
10.55	20.4226
10.568	20.4324
10.586	20.4266
10.604	20.3976
10.622	20.348
10.64	20.2923
10.658	20.2504
10.676	20.2373
10.694	20.2536
10.712	20.2846
10.73	20.3096
10.748	20.3122
10.766	20.2901
10.784	20.2535
10.802	20.2196
10.82	20.2009
10.838	20.2016
10.856	20.2162
10.874	20.2351
10.892	20.2493
10.91	20.2524
10.928	20.2407
10.946	20.2107
10.964	20.1596
10.982	20.0873
11	19.9988
11.018	19.9041
11.036	19.8141
11.054	19.7363
11.072	19.672
11.09	19.6179
11.108	19.5699
11.126	19.5281
11.144	19.4975
11.162	19.4854
11.18	19.4953
11.198	19.5245
11.216	19.5636
11.234	19.6013
11.252	19.6281
11.27	19.6406
11.288	19.6403
11.306	19.63
11.324	19.6119
11.342	19.5857
11.36	19.5506
11.378	19.5063
11.396	19.4548
11.414	19.4007
11.432	19.3492
11.45	19.3043
11.468	19.268
11.486	19.2402
11.504	19.22
11.522	19.2064
11.54	19.1992
11.558	19.1981
11.576	19.2016
11.594	19.2064
11.612	19.207
11.63	19.1975
11.648	19.1737
11.666	19.1351
11.684	19.0866
11.702	19.0373
11.72	18.9979
11.738	18.976
11.756	18.973
11.774	18.9833
11.792	18.9961
11.81	19
11.828	18.9876
11.846	18.9583
11.864	18.9187
11.882	18.8783
11.9	18.8463
11.918	18.8268
11.936	18.8172
11.954	18.8105
11.972	18.7979
11.99	18.773
12.008	18.7344
12.026	18.6851
12.044	18.6315
12.062	18.5805
12.08	18.5374
12.098	18.5041
12.116	18.4799
12.134	18.4623
12.152	18.4487
12.17	18.4366
12.188	18.4242
12.206	18.41
12.224	18.3921
12.242	18.3687
12.26	18.3384
12.278	18.3011
12.296	18.2593
12.314	18.2176
12.332	18.1819
12.35	18.1576
12.368	18.1475
12.386	18.1506
12.404	18.1616
12.422	18.172
12.44	18.1728
12.458	18.1574
12.476	18.1233
12.494	18.0733
12.512	18.0144
12.53	17.9559
12.548	17.9056
12.566	17.8685
12.584	17.8449
12.602	17.8313
12.62	17.822
12.638	17.811
12.656	17.794
12.674	17.7698
12.692	17.7399
12.71	17.7073
12.728	17.6755
12.746	17.647
12.764	17.623
12.782	17.6032
12.8	17.5863
12.818	17.5714
12.836	17.5578
12.854	17.5453
12.872	17.5338
12.89	17.5227
12.908	17.5105
12.926	17.4947
12.944	17.4723
12.962	17.4403
12.98	17.3972
12.998	17.3436
13.016	17.2829
13.034	17.2209
13.052	17.1649
13.07	17.1222
13.088	17.0984
13.106	17.0958
13.124	17.1127
13.142	17.1443
13.16	17.1832
13.178	17.2212
13.196	17.2508
13.214	17.267
13.232	17.2676
13.25	17.2536
13.268	17.2279
13.286	17.1951
13.304	17.16
13.322	17.1269
13.34	17.0986
13.358	17.0765
13.376	17.0609
13.394	17.0514
13.412	17.0468
13.43	17.0464
13.448	17.0492
13.466	17.0543
13.484	17.0611
13.502	17.0686
13.52	17.0755
13.538	17.0806
13.556	17.0821
13.574	17.0787
13.592	17.0691
13.61	17.053
13.628	17.0309
13.646	17.0038
13.664	16.9732
13.682	16.9409
13.7	16.908
13.718	16.8753
13.736	16.8421
13.754	16.8073
13.772	16.7687
13.79	16.725
13.808	16.6753
13.826	16.6198
13.844	16.5604
13.862	16.4996
13.88	16.4409
13.898	16.3876
13.916	16.3424
13.934	16.3068
13.952	16.2806
13.97	16.2624
13.988	16.2501
14.006	16.2414
14.024	16.2345
14.042	16.2287
14.06	16.2244
14.078	16.2228
14.096	16.2257
14.114	16.2349
14.132	16.251
14.15	16.2738
14.168	16.3015
14.186	16.3311
14.204	16.3588
14.222	16.3802
14.24	16.3916
14.258	16.3904
14.276	16.3753
14.294	16.3469
14.312	16.3072
14.33	16.2599
14.348	16.2094
14.366	16.1607
14.384	16.1187
14.402	16.0876
14.42	16.0703
14.438	16.068
14.456	16.0805
14.474	16.1051
14.492	16.1378
14.51	16.1729
14.528	16.2043
14.546	16.2266
14.564	16.2354
14.582	16.2281
14.6	16.2044
14.618	16.1658
14.636	16.1163
14.654	16.0606
14.672	16.0037
14.69	15.9502
14.708	15.9036
14.726	15.8665
14.744	15.8393
14.762	15.821
14.78	15.8094
14.798	15.8015
14.816	15.7944
14.834	15.7844
14.852	15.7683
14.87	15.7437
14.888	15.7089
14.906	15.6631
14.924	15.6061
14.942	15.5384
14.96	15.4617
14.978	15.3785
14.996	15.2921
15.014	15.2063
15.032	15.1255
15.05	15.0541
15.068	14.9961
15.086	14.9546
15.104	14.9321
15.122	14.9296
15.14	14.946
15.158	14.9792
15.176	15.0263
15.194	15.083
15.212	15.1445
15.23	15.2064
15.248	15.2652
15.266	15.3177
15.284	15.3617
15.302	15.3966
15.32	15.4221
15.338	15.4387
15.356	15.4467
15.374	15.4474
15.392	15.4413
15.41	15.4287
15.428	15.4099
15.446	15.384
15.464	15.351
15.482	15.3107
15.5	15.2623
15.518	15.206
15.536	15.1416
15.554	15.0692
15.572	14.9892
15.59	14.902
15.608	14.8083
15.626	14.7088
15.644	14.6048
15.662	14.4977
15.68	14.3896
15.698	14.2825
15.716	14.1796
15.734	14.0846
15.752	14.0005
15.77	13.9306
15.788	13.8787
15.806	13.8468
15.824	13.8361
15.842	13.8473
15.86	13.8789
15.878	13.9288
15.896	13.9944
15.914	14.0715
15.932	14.1558
15.95	14.2436
15.968	14.3309
15.986	14.4139
16.004	14.4907
16.022	14.5594
16.04	14.6186
16.058	14.668
16.076	14.7072
16.094	14.7363
16.112	14.7551
16.13	14.7636
16.148	14.7621
16.166	14.7503
16.184	14.7283
16.202	14.6964
16.22	14.6551
16.238	14.6056
16.256	14.5492
16.274	14.4883
16.292	14.425
16.31	14.361
16.328	14.2993
16.346	14.2416
16.364	14.1893
16.382	14.1439
16.4	14.1055
16.418	14.0741
16.436	14.0491
16.454	14.0292
16.472	14.0137
16.49	14.0008
16.508	13.9891
16.526	13.9777
16.544	13.965
16.562	13.9506
16.58	13.934
16.598	13.9147
16.616	13.893
16.634	13.869
16.652	13.8428
16.67	13.8148
16.688	13.7854
16.706	13.7553
16.724	13.7251
16.742	13.6957
16.76	13.6678
16.778	13.642
16.796	13.6191
16.814	13.6004
16.832	13.5863
16.85	13.5782
16.868	13.5763
16.886	13.5809
16.904	13.5919
16.922	13.6089
16.94	13.6314
16.958	13.658
16.976	13.6882
16.994	13.7198
17.012	13.7516
17.03	13.7825
17.048	13.8104
17.066	13.8347
17.084	13.8543
17.102	13.8688
17.12	13.8778
17.138	13.8814
17.156	13.8798
17.174	13.873
17.192	13.8616
17.21	13.8461
17.228	13.827
17.246	13.8049
17.264	13.78
17.282	13.7526
17.3	13.7229
17.318	13.6912
17.336	13.658
17.354	13.6232
17.372	13.5878
17.39	13.5517
17.408	13.5156
17.426	13.4798
17.444	13.4448
17.462	13.4108
17.48	13.3778
17.498	13.3457
17.516	13.3143
17.534	13.2831
17.552	13.2512
17.57	13.2183
17.588	13.183
17.606	13.1451
17.624	13.1036
17.642	13.0582
17.66	13.0088
17.678	12.9558
17.696	12.8994
17.714	12.8412
17.732	12.782
17.75	12.7229
17.768	12.6663
17.786	12.6129
17.804	12.565
17.822	12.5232
17.84	12.4896
17.858	12.4646
17.876	12.449
17.894	12.4433
17.912	12.4476
17.93	12.4614
17.948	12.4846
17.966	12.5161
17.984	12.5554
18.002	12.6013
18.02	12.6526
18.038	12.7084
18.056	12.7668
18.074	12.8273
18.092	12.8873
18.11	12.9466
18.128	13.0026
18.146	13.055
18.164	13.1016
18.182	13.1416
18.2	13.1736
18.218	13.1965
18.236	13.2096
18.254	13.212
18.272	13.2036
18.29	13.1846
18.308	13.155
18.326	13.1163
18.344	13.0689
18.362	13.015
18.38	12.9557
18.398	12.8936
18.416	12.8303
18.434	12.7685
18.452	12.7103
18.47	12.6574
18.488	12.6121
18.506	12.5756
18.524	12.5492
18.542	12.5335
18.56	12.5287
18.578	12.535
18.596	12.551
18.614	12.5766
18.632	12.6094
18.65	12.6491
18.668	12.6925
18.686	12.7393
18.704	12.7859
18.722	12.8322
18.74	12.8753
18.758	12.9149
18.776	12.949
18.794	12.9775
18.812	12.9995
18.83	13.0152
18.848	13.0244
18.866	13.0274
18.884	13.0246
18.902	13.0164
18.92	13.0033
18.938	12.9856
18.956	12.964
18.974	12.9386
18.992	12.9097
19.01	12.8776
19.028	12.8424
19.046	12.8045
19.064	12.7641
19.082	12.7214
19.1	12.6767
19.118	12.6305
19.136	12.5833
19.154	12.5356
19.172	12.4886
19.19	12.4427
19.208	12.3995
19.226	12.3593
19.244	12.3237
19.262	12.2928
19.28	12.2679
19.298	12.2491
19.316	12.2373
19.334	12.2323
19.352	12.2341
19.37	12.2428
19.388	12.2573
19.406	12.2775
19.424	12.3015
19.442	12.3294
19.46	12.3584
19.478	12.3884
19.496	12.4169
19.514	12.4433
19.532	12.4655
19.55	12.4826
19.568	12.4936
19.586	12.4972
19.604	12.4936
19.622	12.4816
19.64	12.4618
19.658	12.4345
19.676	12.3999
19.694	12.3595
19.712	12.3131
19.73	12.2636
19.748	12.2107
19.766	12.1576
19.784	12.1046
19.802	12.0539
19.82	12.007
19.838	11.9645
19.856	11.9287
19.874	11.8991
19.892	11.8774
19.91	11.8631
19.928	11.8565
19.946	11.8575
19.964	11.8647
19.982	11.8783
20	11.8962
20.018	11.9177
20.036	11.9415
20.054	11.9651
20.072	11.9887
20.09	12.0088
20.108	12.0262
20.126	12.0379
20.144	12.0439
20.162	12.0432
20.18	12.0349
20.198	12.0193
20.216	11.9956
20.234	11.9642
20.252	11.9259
20.27	11.8805
20.288	11.8299
20.306	11.7739
20.324	11.7145
20.342	11.6528
20.36	11.5894
20.378	11.5271
20.396	11.4653
20.414	11.4069
20.432	11.3517
20.45	11.3015
20.468	11.2574
20.486	11.2194
20.504	11.1887
20.522	11.1648
20.54	11.148
20.558	11.1386
20.576	11.1351
20.594	11.1374
20.612	11.1445
20.63	11.1543
20.648	11.1672
20.666	11.1796
20.684	11.1919
20.702	11.2016
20.72	11.2069
20.738	11.2079
20.756	11.2018
20.774	11.1891
20.792	11.1683
20.81	11.1386
20.828	11.1007
20.846	11.0543
20.864	10.9998
20.882	10.9391
20.9	10.8715
20.918	10.7999
20.936	10.7259
20.954	10.6496
20.972	10.5754
20.99	10.5022
21.008	10.4337
21.026	10.3711
21.044	10.3146
21.062	10.2671
21.08	10.228
21.098	10.1983
21.116	10.1786
21.134	10.1683
21.152	10.167
21.17	10.1749
21.188	10.1896
21.206	10.2113
21.224	10.2382
21.242	10.2677
21.26	10.3005
21.278	10.3333
21.296	10.3656
21.314	10.3969
21.332	10.425
21.35	10.4505
21.368	10.4725
21.386	10.4905
21.404	10.505
21.422	10.5164
21.44	10.5244
21.458	10.5307
21.476	10.5358
21.494	10.54
21.512	10.5456
21.53	10.552
21.548	10.5605
21.566	10.5723
21.584	10.587
21.602	10.6049
21.62	10.6264
21.638	10.6508
21.656	10.6775
21.674	10.7071
21.692	10.7369
21.71	10.7669
21.728	10.7963
21.746	10.8219
21.764	10.8449
21.782	10.8627
21.8	10.8731
21.818	10.8771
21.836	10.8723
21.854	10.8585
21.872	10.8358
21.89	10.8033
21.908	10.761
21.926	10.7099
21.944	10.6504
21.962	10.5825
21.98	10.5089
21.998	10.4292
22.016	10.3447
22.034	10.2587
22.052	10.1698
22.07	10.0809
22.088	9.994139
22.106	9.908550
22.124	9.827272
22.142	9.750875
22.16	9.679288
22.178	9.614748
22.196	9.557025
22.214	9.506260
22.232	9.463083
22.25	9.427241
22.268	9.398861
22.286	9.378059
22.304	9.364721
22.322	9.358859
22.34	9.360395
22.358	9.369359
22.376	9.385889
22.394	9.409808
22.412	9.441357
22.43	9.480869
22.448	9.528131
22.466	9.583414
22.484	9.646993
22.502	9.718700
22.52	9.798481
22.538	9.886421
22.556	9.982394
22.574	10.0859
22.592	10.197
22.61	10.3155
22.628	10.44
22.646	10.5714
22.664	10.7082
22.682	10.8478
22.7	10.9917
22.718	11.1375
22.736	11.2821
22.754	11.4273
22.772	11.5702
22.79	11.7084
22.808	11.8434
22.826	11.9726
22.844	12.094
22.862	12.209
22.88	12.3158
22.898	12.4137
22.916	12.5032
22.934	12.584
22.952	12.6555
22.97	12.7183
22.988	12.7731
23.006	12.8197
23.024	12.8585
23.042	12.8907
23.06	12.9159
23.078	12.9347
23.096	12.9491
23.114	12.9591
23.132	12.9647
23.15	12.9671
23.168	12.9664
23.186	12.9626
23.204	12.9563
23.222	12.948
23.24	12.9372
23.258	12.9232
23.276	12.9063
23.294	12.8862
23.312	12.8619
23.33	12.8338
23.348	12.8015
23.366	12.7631
23.384	12.7186
23.402	12.6682
23.42	12.6112
23.438	12.5478
23.456	12.4779
23.474	12.4006
23.492	12.3159
23.51	12.2238
23.528	12.1239
23.546	12.0159
23.564	11.9
23.582	11.7764
23.6	11.6447
23.618	11.505
23.636	11.3585
23.654	11.2054
23.672	11.0451
23.69	10.8798
23.708	10.7103
23.726	10.5356
23.744	10.3582
23.762	10.1803
23.78	9.999558
23.798	9.819728
23.816	9.644724
23.834	9.471598
23.852	9.303878
23.87	9.147068
23.888	8.998135
23.906	8.859916
23.924	8.739773
23.942	8.636580
23.96	8.550416
23.978	8.488903
23.996	8.454187
24.014	8.443400
24.032	8.462456
24.05	8.515294
24.068	8.598915
24.086	8.715275
24.104	8.866656
24.122	9.052505
24.14	9.271744
24.158	9.523666
24.176	9.810635
24.194	10.1294
24.212	10.4741
24.23	10.8462
24.248	11.2458
24.266	11.6611
24.284	12.087
24.302	12.5309
24.32	12.9781
24.338	13.4155
24.356	13.8534
24.374	14.2816
24.392	14.6837
24.41	15.064
24.428	15.4215
24.446	15.7416
24.464	16.0187
24.482	16.26
24.5	16.4552
24.518	16.5953
24.536	16.6853
24.554	16.7238
24.572	16.7071
24.59	16.6335
24.608	16.506
24.626	16.3285
24.644	16.1008
24.662	15.8201
24.68	15.4979
24.698	15.144
24.716	14.7487
24.734	14.3222
24.752	13.8815
24.77	13.4239
24.788	12.9471
24.806	12.4712
24.824	12.0089
24.842	11.546
24.86	11.0983
24.878	10.6849
24.896	10.2995
24.914	9.942812
24.932	9.630462
24.95	9.370893
24.968	9.155111
24.986	8.990138
25.004	8.883984
25.022	8.835329
25.04	8.842124
25.058	8.904997
25.076	9.025673
25.094	9.204232
25.112	9.434946
25.13	9.712518
25.148	10.0431
25.166	10.421
25.184	10.8344
25.202	11.2793
25.22	11.7638
25.238	12.2739
25.256	12.7955
25.274	13.3372
25.292	13.895
25.31	14.4525
25.328	15.0015
25.346	15.5535
25.364	16.0957
25.382	16.613
25.4	17.1091
25.418	17.5857
25.436	18.032
25.454	18.4395
25.472	18.8152
25.49	19.1557
25.508	19.4551
25.526	19.7123
25.544	19.9302
25.562	20.1058
25.58	20.236
25.598	20.3226
25.616	20.3655
25.634	20.3628
25.652	20.3132
25.67	20.2176
25.688	20.0769
25.706	19.8917
25.724	19.6618
25.742	19.3874
25.76	19.0698
25.778	18.7105
25.796	18.3089
25.814	17.8654
25.832	17.381
25.85	16.8561
25.868	16.2902
25.886	15.6843
25.904	15.0396
25.922	14.356
25.94	13.633
25.958	12.873
25.976	12.0785
25.994	11.2468
26.012	10.3793
26.03	9.481669
26.048	8.558438
26.066	7.602034
26.084	6.619201
26.102	5.621327
26.12	4.614260
26.138	3.586505
26.156	2.550559
26.174	1.521917
26.192	0.503237
26.21	-0.516872
26.228	-1.521167
26.246	-2.491481
26.264	-3.430471
26.282	-4.345229
26.3	-5.219325
26.318	-6.036708
26.336	-6.804641
26.354	-7.524662
26.372	-8.184536
26.39	-8.772867
26.408	-9.294521
26.426	-9.751360
26.444	-10.1405
26.462	-10.4587
26.48	-10.7043
26.498	-10.8826
26.516	-10.9997
26.534	-11.0587
26.552	-11.049
26.57	-10.9832
26.588	-10.8777
26.606	-10.7405
26.624	-10.5526
26.642	-10.3339
26.66	-10.1095
26.678	-9.890916
26.696	-9.654777
26.714	-9.422269
26.732	-9.218932
26.75	-9.055981
26.768	-8.911362
26.786	-8.803198
26.804	-8.752851
26.822	-8.771118
26.84	-8.842048
26.858	-8.973212
26.876	-9.174089
26.894	-9.450605
26.912	-9.796781
26.93	-10.2116
26.948	-10.6946
26.966	-11.2881
26.984	-12.0551
27.002	-12.8351
27.02	-13.4542
27.028	-13.6148