File: Bakgrunnsmateriale/MATLAB/FTIR/ftir_data/LPE453/Mapping_121/LPE453_t55_cm-1.asc
PE IR       SPECTRUM    SPECTRUM    ASCII       PEDS        1.60
  -1
LPE9DB~1.ASC
17/05/16
18:52:24.00
17/05/16
18:52:24.00
tln
$LPE453_t0055$<tbV0>[-13.0,-2.6,8.0,0.0,27,1,0]
370
64

2002,4.07
MIRTGS : RIGHTBACK : INTERNAL 2
MIR : ON : INTERNAL 2
OPTKBR

0.200000
8
8.000000
FILLER
RATIO
SPECTRUM
UNLOCKED 256

DOUBLE
64
COMBINED
1
0
0

1.000000
RATIO

1
0
TRUE
51149
0
LEFT NOT FITTED RIGHT NOT FITTED 0
NONE
NONE
15600
12
4.427000
51148
TRUE
1 0 8 72 0 0 0 0

15798

#HDR
-1
-1
#GR
CM-1
%T
2.38419e-05
0.0
5000
-1.000000
4631
8
30.6828
-2.322936
#DATA
5000	-0.160932
4996	0.031709
4992	0.312709
4988	0.490927
4984	0.289201
4980	-0.002193
4976	-0.178575
4972	-0.200724
4968	0.046706
4964	0.161004
4960	-0.065660
4956	-0.074481
4952	0.311064
4948	0.345826
4944	0.008893
4940	-0.159287
4936	-0.331425
4932	-0.413608
4928	-0.257992
4924	-0.093197
4920	0.123047
4916	0.334644
4912	0.350856
4908	0.302505
4904	0.340938
4900	0.259160
4896	0.129055
4892	0.113749
4888	0.145697
4884	0.158858
4880	0.027465
4876	-0.099110
4872	-0.111603
4868	-0.113248
4864	0.085449
4860	0.512170
4856	0.622820
4852	0.370049
4848	0.247955
4844	0.157761
4840	-0.063872
4836	-0.212526
4832	-0.218915
4828	-0.152373
4824	-0.015449
4820	0.136256
4816	0.129866
4812	-0.027346
4808	-0.187969
4804	-0.154137
4800	0.158095
4796	0.356364
4792	0.173258
4788	0.049495
4784	0.246644
4780	0.420141
4776	0.301456
4772	0.210523
4768	0.410747
4764	0.425386
4760	0.231432
4756	0.193071
4752	0.168657
4748	-0.045442
4744	-0.357079
4740	-0.361442
4736	-0.216126
4732	-0.107336
4728	0.230193
4724	0.442671
4720	0.469088
4716	0.640869
4712	0.721049
4708	0.440311
4704	-0.120878
4700	-0.678133
4696	-0.806212
4692	-0.131106
4688	0.959682
4684	1.125621
4680	0.054812
4676	-0.596952
4672	-0.256657
4668	0.205111
4664	0.362324
4660	0.267505
4656	0.047087
4652	-0.222039
4648	0.089406
4644	1.085925
4640	1.846075
4636	1.473093
4632	0.376486
4628	-0.167965
4624	0.029540
4620	0.336027
4616	0.437045
4612	0.483489
4608	0.531053
4604	0.725078
4600	0.853610
4596	0.478649
4592	-0.035881
4588	-0.227165
4584	-0.338149
4580	-0.518178
4576	-0.241088
4572	0.419020
4568	0.541234
4564	0.106120
4560	-0.268721
4556	-0.317215
4552	-0.184488
4548	-0.076198
4544	-0.063157
4540	-0.173854
4536	-0.385332
4532	-0.328397
4528	-0.010442
4524	0.029110
4520	0.201702
4516	0.355315
4512	-0.100040
4508	-0.154089
4504	0.274705
4500	-2.170538
4496	1.416969
4492	8.820247
4488	5.158591
4484	1.920604
4480	2.548217
4476	0.357747
4472	-0.376820
4468	0.039410
4464	-0.036549
4460	-0.649976
4456	-1.170992
4452	-0.751519
4448	-0.285816
4444	-0.421690
4440	-0.540065
4436	-0.323700
4432	-0.354123
4428	-0.306963
4424	0.142955
4420	0.256204
4416	0.144457
4412	0.034880
4408	-0.111532
4404	-0.124669
4400	-0.044775
4396	0.232815
4392	0.408935
4388	0.305891
4384	0.287652
4380	0.326848
4376	0.245738
4372	0.239992
4368	0.239443
4364	0.035357
4360	-0.141000
4356	-0.022506
4352	0.124955
4348	0.038743
4344	-0.081110
4340	-0.013375
4336	0.200152
4332	0.430011
4328	0.438475
4324	0.257658
4320	0.280094
4316	0.314211
4312	0.080728
4308	-0.234389
4304	-0.462651
4300	-0.458908
4296	-0.261855
4292	-0.018715
4288	0.144243
4284	0.133514
4280	0.168514
4276	0.317668
4272	0.364208
4268	0.235128
4264	-0.020790
4260	-0.118064
4256	0.031447
4252	0.149488
4248	0.216627
4244	0.310420
4240	0.292348
4236	0.108885
4232	0.030231
4228	0.061345
4224	-0.075912
4220	-0.138401
4216	-0.022983
4212	0.014758
4208	-0.066685
4204	-0.033950
4200	0.165486
4196	0.177383
4192	0.020456
4188	-0.064373
4184	-0.180149
4180	-0.191855
4176	0.188589
4172	0.537085
4168	0.345754
4164	-0.071096
4160	-0.120234
4156	0.128102
4152	0.221204
4148	0.090837
4144	-0.121641
4140	-0.307464
4136	-0.259041
4132	-0.009632
4128	0.152015
4124	0.149726
4120	0.174379
4116	0.259423
4112	0.283861
4108	0.258493
4104	0.216460
4100	0.138664
4096	0.002026
4092	-0.029516
4088	0.142312
4084	0.288319
4080	0.326371
4076	0.310611
4072	0.177741
4068	0.007104
4064	-0.021052
4060	0.003337
4056	-0.012445
4052	-0.028610
4048	-0.095438
4044	-0.155854
4040	-0.089740
4036	-0.046038
4032	-0.091624
4028	-0.049901
4024	0.038480
4020	0.050139
4016	-0.002670
4012	-0.027489
4008	0.026488
4004	0.127625
4000	0.187349
3996	0.199699
3992	0.168108
3988	0.116395
3984	0.119829
3980	0.142502
3976	0.129890
3972	0.053715
3968	0.005412
3964	0.061130
3960	0.076746
3956	0.016975
3952	-0.041818
3948	0.006437
3944	0.142121
3940	0.185203
3936	0.162386
3932	0.133562
3928	0.088357
3924	0.065159
3920	0.087046
3916	0.105786
3912	0.098729
3908	0.125455
3904	0.196814
3900	0.256633
3896	0.159001
3892	-0.042772
3888	-0.107765
3884	-0.085139
3880	-0.039577
3876	0.105857
3872	0.234508
3868	0.190734
3864	0.067377
3860	0.055861
3856	0.148940
3852	0.209355
3848	0.173950
3844	0.110387
3840	0.103068
3836	0.127935
3832	0.164508
3828	0.185441
3824	0.157189
3820	0.156044
3816	0.183606
3812	0.160741
3808	0.099349
3804	0.002551
3800	-0.078725
3796	-0.096297
3792	-0.086498
3788	-0.028944
3784	0.089812
3780	0.161671
3776	0.131750
3772	0.056934
3768	-0.021696
3764	-0.063633
3760	-0.000452
3756	0.130820
3752	0.170302
3748	0.142455
3744	0.140500
3740	0.098705
3736	0.044679
3732	0.018167
3728	0.011086
3724	0.060868
3720	0.093293
3716	0.080204
3712	0.082135
3708	0.107049
3704	0.112605
3700	0.055122
3696	-0.019693
3692	-0.070023
3688	-0.085997
3684	-0.066184
3680	-0.018477
3676	0.052928
3672	0.095105
3668	0.107240
3664	0.089144
3660	0.014925
3656	-0.014042
3652	0.025224
3648	0.039982
3644	-0.007462
3640	-0.057673
3636	-0.021719
3632	0.049448
3628	0.017213
3624	-0.058317
3620	-0.047111
3616	-0.030469
3612	-0.023388
3608	0.038099
3604	0.030970
3600	-0.054264
3596	-0.080609
3592	-0.098395
3588	-0.131154
3584	-0.017356
3580	0.117015
3576	0.117325
3572	0.073742
3568	0.026845
3564	0.032734
3560	0.112104
3556	0.112485
3552	0.015473
3548	-0.015091
3544	0.023937
3540	0.089836
3536	0.156068
3532	0.104284
3528	0.009822
3524	0.021195
3520	0.070333
3516	0.076556
3512	0.031757
3508	-0.022387
3504	-0.028896
3500	-0.009465
3496	0.048136
3492	0.111794
3488	0.125789
3484	0.164508
3480	0.188779
3476	0.110793
3472	0.058650
3468	0.069069
3464	0.008368
3460	-0.093364
3456	-0.084733
3452	0.074982
3448	0.183391
3444	0.107526
3440	0.025725
3436	0.001883
3432	-0.059437
3428	-0.113916
3424	-0.138139
3420	-0.138902
3416	-0.061368
3412	0.014472
3408	0.018143
3404	-0.010538
3400	-0.023937
3396	0.024628
3392	0.121760
3388	0.150799
3384	0.055766
3380	-0.041151
3376	-0.092577
3372	-0.060868
3368	0.038671
3364	0.049567
3360	-0.004839
3356	-0.028252
3352	0.011610
3348	0.046730
3344	-0.015592
3340	-0.002813
3336	0.119972
3332	0.141000
3328	0.068736
3324	-0.009965
3320	-0.058579
3316	-0.057411
3312	-0.016522
3308	0.007939
3304	-0.041842
3300	-0.082731
3296	-0.007033
3292	0.167298
3288	0.261712
3284	0.219869
3280	0.193595
3276	0.184345
3272	0.154542
3268	0.147914
3264	0.098538
3260	0.017833
3256	-0.032448
3252	0.012493
3248	0.141286
3244	0.170683
3240	0.100255
3236	0.036644
3232	0.016236
3228	0.043535
3224	0.038385
3220	0.044250
3216	0.097918
3212	0.100660
3208	0.088429
3204	0.128626
3200	0.146460
3196	0.070285
3192	-0.030612
3188	-0.025320
3184	0.074934
3180	0.126552
3176	0.110316
3172	0.086140
3168	0.039839
3164	-0.012731
3160	-0.037121
3156	-0.007510
3152	0.047564
3148	0.059366
3144	0.060606
3140	0.081562
3136	0.162363
3132	0.251054
3128	0.158596
3124	-0.005173
3120	0.041508
3116	0.167608
3112	0.146365
3108	0.085473
3104	0.049376
3100	-0.044608
3096	-0.144863
3092	-0.115895
3088	-0.001525
3084	0.039958
3080	0.027942
3076	0.079894
3072	0.104331
3068	0.021505
3064	-0.048351
3060	-0.083732
3056	-0.096678
3052	-0.034093
3048	0.080132
3044	0.157785
3040	0.151062
3036	0.100779
3032	0.041627
3028	0.003814
3024	0.002861
3020	-0.000309
3016	-0.014233
3012	-0.010490
3008	0.039839
3004	0.086617
3000	0.034546
2996	-0.047230
2992	-0.052952
2988	-0.016236
2984	0.027751
2980	0.035786
2976	0.011849
2972	0.019025
2968	0.005555
2964	-0.038433
2960	-0.025296
2956	-0.010728
2952	-0.065684
2948	-0.074148
2944	-0.002288
2940	0.025987
2936	0.015282
2932	0.030112
2928	0.035119
2924	0.069975
2920	0.176239
2916	0.199317
2912	0.078630
2908	-0.020217
2904	-0.028133
2900	-0.026130
2896	-0.033259
2892	-0.035405
2888	-0.062847
2884	-0.087642
2880	-0.051450
2876	0.011706
2872	0.003433
2868	0.019764
2864	0.079727
2860	0.057530
2856	-0.022816
2852	-0.028538
2848	0.088691
2844	0.167107
2840	0.131440
2836	0.072121
2832	0.008368
2828	-0.067162
2824	-0.106024
2820	-0.098061
2816	-0.046181
2812	0.057411
2808	0.130581
2804	0.129771
2800	0.076031
2796	0.005817
2792	-0.028324
2788	-0.030541
2784	-0.010037
2780	0.019288
2776	-0.004458
2772	-0.030231
2768	0.041031
2764	0.096464
2760	0.055980
2756	0.060653
2752	0.096535
2748	0.052213
2744	0.012373
2740	0.017929
2736	-0.002670
2732	-0.029492
2728	-0.035619
2724	-0.038695
2720	-0.004625
2716	0.062561
2712	0.056862
2708	-0.003170
2704	-0.023555
2700	-0.026845
2696	-0.021767
2692	-0.002837
2688	-0.000905
2684	0.000357
2680	0.055336
2676	0.121831
2672	0.101065
2668	0.038313
2664	0.015282
2660	0.038743
2656	0.052309
2652	0.021672
2648	0.013780
2644	0.037288
2640	0.048708
2636	0.023412
2632	-0.003719
2628	0.034427
2624	0.086975
2620	0.095462
2616	0.062036
2612	0.006937
2608	-0.019788
2604	-0.026965
2600	-0.051593
2596	-0.068759
2592	-0.066661
2588	-0.047254
2584	-0.020313
2580	-0.020313
2576	-0.012850
2572	0.063157
2568	0.133824
2564	0.144314
2560	0.157761
2556	0.155878
2552	0.115299
2548	0.092029
2544	0.121116
2540	0.148963
2536	0.103521
2532	0.037741
2528	0.029253
2524	0.048232
2520	0.081276
2516	0.125312
2512	0.089740
2508	-0.034976
2504	-0.142693
2500	-0.146293
2496	-0.080037
2492	-0.009059
2488	0.064039
2484	0.128531
2480	0.152254
2476	0.113534
2472	0.067067
2468	0.059223
2464	0.059294
2460	0.009632
2456	-0.061702
2452	-0.079989
2448	-0.048160
2444	0.002884
2440	0.059461
2436	0.106811
2432	0.081419
2428	0.022768
2424	0.041985
2420	0.094485
2416	0.086855
2412	0.011730
2408	-0.006532
2404	0.047993
2400	0.038003
2396	0.041055
2392	0.087499
2388	0.067591
2384	0.038313
2380	0.047278
2376	0.049734
2372	0.037431
2368	0.066995
2364	0.113320
2360	0.106406
2356	0.098466
2352	0.066089
2348	-0.037121
2344	-0.129556
2340	-0.125122
2336	-0.054478
2332	-0.015258
2328	0.000572
2324	0.059890
2320	0.154399
2316	0.182318
2312	0.131011
2308	0.118207
2304	0.157094
2300	0.179409
2296	0.184488
2292	0.208663
2288	0.294041
2284	0.367760
2280	0.357055
2276	0.361728
2272	0.397205
2268	0.403237
2264	0.393390
2260	0.422859
2256	0.495314
2252	0.552392
2248	0.598502
2244	0.694656
2240	0.867772
2236	1.039028
2232	1.139163
2228	1.182484
2224	1.213860
2220	1.338815
2216	1.551556
2212	1.684165
2208	1.765894
2204	1.921296
2200	2.101850
2196	2.250099
2192	2.394270
2188	2.568721
2184	2.804207
2180	3.106498
2176	3.410649
2172	3.662014
2168	3.901958
2164	4.180932
2160	4.438996
2156	4.670023
2152	4.990696
2148	5.381846
2144	5.708050
2140	6.044101
2136	6.435370
2132	6.763601
2128	7.100629
2124	7.517814
2120	7.897400
2116	8.243060
2112	8.626842
2108	9.007740
2104	9.419155
2100	9.865808
2096	10.2794
2092	10.6316
2088	10.9896
2084	11.4639
2080	11.9282
2076	12.3014
2072	12.672
2068	13.0254
2064	13.3796
2060	13.8391
2056	14.3768
2052	14.8053
2048	15.0939
2044	15.4181
2040	15.8183
2036	16.2078
2032	16.5731
2028	16.9643
2024	17.411
2020	17.846
2016	18.166
2012	18.4282
2008	18.7397
2004	19.0806
2000	19.4224
1996	19.6827
1992	19.9384
1988	20.3059
1984	20.6284
1980	20.8841
1976	21.1558
1972	21.4545
1968	21.7406
1964	21.9791
1960	22.2145
1956	22.4596
1952	22.6889
1948	22.8982
1944	23.1462
1940	23.3929
1936	23.5974
1932	23.8357
1928	24.0736
1924	24.2435
1920	24.3686
1916	24.5152
1912	24.723
1908	24.9275
1904	25.066
1900	25.2047
1896	25.4217
1892	25.6484
1888	25.8021
1884	25.9067
1880	25.9943
1876	26.1252
1872	26.3161
1868	26.466
1864	26.5662
1860	26.6872
1856	26.8647
1852	27.0338
1848	27.0897
1844	27.1316
1840	27.2483
1836	27.3567
1832	27.4526
1828	27.5559
1824	27.6438
1820	27.7408
1816	27.8797
1812	28.0041
1808	28.0521
1804	28.0885
1800	28.1764
1796	28.2998
1792	28.3968
1788	28.4138
1784	28.4195
1780	28.511
1776	28.6426
1772	28.7249
1768	28.7801
1764	28.8443
1760	28.8607
1756	28.8352
1752	28.8928
1748	29.019
1744	29.0975
1740	29.149
1736	29.2139
1732	29.2625
1728	29.2767
1724	29.2627
1720	29.1992
1716	29.1726
1712	29.3002
1708	29.4487
1704	29.4875
1700	29.5046
1696	29.5624
1692	29.6213
1688	29.6674
1684	29.6986
1680	29.7341
1676	29.8079
1672	29.8597
1668	29.8156
1664	29.7545
1660	29.7758
1656	29.8711
1652	29.9582
1648	29.9727
1644	29.9378
1640	29.928
1636	29.9461
1632	29.9543
1628	29.9996
1624	30.0629
1620	30.0879
1616	30.1134
1612	30.1612
1608	30.2077
1604	30.2172
1600	30.1934
1596	30.2072
1592	30.2675
1588	30.3241
1584	30.3185
1580	30.272
1576	30.3012
1572	30.3997
1568	30.444
1564	30.3756
1560	30.3059
1556	30.3463
1552	30.4089
1548	30.4389
1544	30.4811
1540	30.5217
1536	30.5531
1532	30.5568
1528	30.5287
1524	30.5113
1520	30.492
1516	30.4712
1512	30.4542
1508	30.458
1504	30.5011
1500	30.5332
1496	30.591
1492	30.6796
1488	30.6098
1484	30.409
1480	30.3155
1476	30.3873
1472	30.4914
1468	30.4808
1464	30.3792
1460	30.3588
1456	30.4452
1452	30.4466
1448	30.3357
1444	30.3645
1440	30.5263
1436	30.5488
1432	30.4445
1428	30.4432
1424	30.5068
1420	30.4937
1416	30.4519
1412	30.4425
1408	30.4539
1404	30.4801
1400	30.516
1396	30.4312
1392	30.2644
1388	30.2509
1384	30.3184
1380	30.2832
1376	30.2256
1372	30.2525
1368	30.3039
1364	30.3108
1360	30.2653
1356	30.208
1352	30.1996
1348	30.2344
1344	30.2753
1340	30.2828
1336	30.2589
1332	30.22
1328	30.1882
1324	30.1831
1320	30.1739
1316	30.1574
1312	30.1515
1308	30.1499
1304	30.155
1300	30.1731
1296	30.1765
1292	30.1357
1288	30.0757
1284	30.0613
1280	30.0772
1276	30.0732
1272	30.0609
1268	30.0421
1264	30.0191
1260	30.0088
1256	29.9975
1252	29.9867
1248	29.9438
1244	29.8539
1240	29.778
1236	29.7363
1232	29.7318
1228	29.7096
1224	29.6705
1220	29.6766
1216	29.7133
1212	29.7539
1208	29.7544
1204	29.7277
1200	29.7257
1196	29.7368
1192	29.6994
1188	29.6052
1184	29.4884
1180	29.4315
1176	29.4442
1172	29.4496
1168	29.4313
1164	29.419
1160	29.4117
1156	29.4071
1152	29.3679
1148	29.2613
1144	29.1631
1140	29.0963
1136	29.0654
1132	29.1179
1128	29.1492
1124	29.0816
1120	29.0052
1116	29.0142
1112	29.0044
1108	28.9189
1104	28.9109
1100	28.9187
1096	28.8343
1092	28.7647
1088	28.7309
1084	28.6548
1080	28.5738
1076	28.6084
1072	28.6414
1068	28.5405
1064	28.4817
1060	28.5371
1056	28.5573
1052	28.4332
1048	28.1923
1044	27.9823
1040	27.9469
1036	28.0107
1032	28.0289
1028	28.0591
1024	28.0604
1020	27.945
1016	27.8702
1012	27.8928
1008	27.8917
1004	27.8258
1000	27.7607
996	 27.699
992	 27.59
988	 27.4836
984	 27.4833
980	 27.548
976	 27.543
972	 27.4744
968	 27.3596
964	 27.2465
960	 27.1373
956	 27.0195
952	 26.9797
948	 26.974
944	 26.9464
940	 26.8759
936	 26.7841
932	 26.7405
928	 26.7587
924	 26.8173
920	 26.8042
916	 26.6586
912	 26.4657
908	 26.33
904	 26.2447
900	 26.1935
896	 26.2108
892	 26.2429
888	 26.2525
884	 26.1684
880	 25.9906
876	 25.9034
872	 25.8719
868	 25.7898
864	 25.7299
860	 25.7345
856	 25.6966
852	 25.5396
848	 25.375
844	 25.266
840	 25.2635
836	 25.3417
832	 25.3524
828	 25.2637
824	 25.1069
820	 25.0297
816	 25.0175
812	 24.9327
808	 24.8523
804	 24.8231
800	 24.7957
796	 24.6823
792	 24.4957
788	 24.3543
784	 24.3042
780	 24.342
776	 24.3502
772	 24.2253
768	 24.0863
764	 24.0366
760	 24.1009
756	 24.1602
752	 24.0404
748	 23.8843
744	 23.7094
740	 23.4653
736	 23.3816
732	 23.4978
728	 23.5564
724	 23.5051
720	 23.4734
716	 23.3707
712	 23.2528
708	 23.1346
704	 22.8945
700	 22.7315
696	 22.5407
692	 22.2986
688	 22.4552
684	 22.7427
680	 22.7608
676	 22.6371
672	 22.4984
668	 22.3985
664	 22.3409
660	 22.284
656	 22.1588
652	 22.0166
648	 21.9392
644	 21.8581
640	 21.7137
636	 21.5516
632	 21.2891
628	 21.0894
624	 21.2652
620	 21.5043
616	 21.4603
612	 21.4257
608	 21.3807
604	 20.9672
600	 20.6081
596	 20.7171
592	 21.0267
588	 21.1993
584	 21.0932
580	 20.8165
576	 20.4645
572	 20.0844
568	 19.9508
564	 19.9952
560	 19.871
556	 19.6976
552	 19.7499
548	 19.8825
544	 19.8105
540	 19.6888
536	 19.5702
532	 19.4187
528	 19.3214
524	 19.1708
520	 19.1195
516	 19.2723
512	 19.2466
508	 18.9912
504	 18.8554
500	 18.9061
496	 18.8225
492	 18.2429
488	 17.6588
484	 17.6905
480	 17.973
476	 18.1009
472	 18.0619
468	 17.5789
464	 16.9349
460	 17.0421
456	 17.1613
452	 16.8197
448	 16.9163
444	 17.0041
440	 17.0642
436	 17.6091
432	 17.3641
428	 16.3661
424	 15.9214
420	 14.3394
416	 13.4317
412	 15.0886
408	 13.6163
404	 13.5605
400	 20.9239
396	 23.5615
392	 19.3938
388	 20.6417
384	 24.2262
380	 23.2846
376	 19.2912
372	 10.1596
370	 5.262541