File: Bakgrunnsmateriale/MATLAB/FTIR/ftir_data/LPE453/Mapping_121/LPE453_t32.asc
PE IR       SPECTRUM    SPECTRUM    ASCII       PEDS        1.60
  -1
LPCF91~1.ASC
17/05/16
16:58:46.00
17/05/16
16:59:12.00
tln
$LPE453_t0032$<tbV0>[-10.4,-7.8,8.0,0.0,27,1,0]
27.028
64

2002,4.07
MIRTGS : RIGHTBACK : INTERNAL 2
MIR : ON : INTERNAL 2
OPTKBR

0.200000
8
8.000000
FILLER
RATIO
SPECTRUM
UNLOCKED 256

DOUBLE
64
COMBINED
1
0
0

0.002000
RATIO

1
0
TRUE
51149
0
LEFT NOT FITTED RIGHT NOT FITTED 0
NONE
NONE
15600
12
4.427000
51148
TRUE
1 0 8 72 0 0 0 0

15798

#HDR
-1
-1
#GR
µM
%T
2.38419e-05
0.0
2.000000
0.002000
12515
8
50.2147
-0.955621
#DATA
2.000000	 -0.107073
2.018000	 -0.147708
2.036000	 0.292540
2.054000	 0.168951
2.072000	 0.138189
2.090000	 0.197596
2.108000	 -0.340096
2.126000	 0.152463
2.144000	 0.493458
2.162000	 0.126887
2.180000	 0.575704
2.198000	 -0.218655
2.216000	 11.3779
2.234000	 -0.838424
2.252000	 0.087427
2.270000	 0.116491
2.288000	 0.541622
2.306000	 -0.269524
2.324000	 0.086148
2.342000	 0.242093
2.360000	 -0.281600
2.378000	 0.161258
2.396000	 -0.736816
2.414000	 0.043345
2.432000	 0.058429
2.450000	 -0.041701
2.468000	 -0.038287
2.486000	 0.166562
2.504000	 0.013340
2.522000	 -0.032784
2.540000	 0.044925
2.558000	 -0.243500
2.576000	 -0.178202
2.594000	 0.231120
2.612000	 0.285944
2.630000	 0.023363
2.648000	 0.085660
2.666000	 0.118464
2.684000	 0.087058
2.702000	 0.075249
2.720000	 -0.001268
2.738000	 0.204571
2.756000	 0.158638
2.774000	 -0.264570
2.792000	 -0.001644
2.810000	 0.015100
2.828000	 0.103282
2.846000	 0.169370
2.864000	 0.067933
2.882000	 -0.040909
2.900000	 0.060573
2.918000	 0.053592
2.936000	 0.106059
2.954000	 -0.021782
2.972000	 0.151079
2.990000	 0.077287
3.008000	 -0.043603
3.026000	 0.001354
3.044000	 0.021196
3.062000	 0.200215
3.080000	 -0.046858
3.098000	 -0.029619
3.116000	 0.122255
3.134000	 0.035778
3.152000	 0.068195
3.170000	 0.177228
3.188000	 -0.194935
3.206000	 0.385173
3.224000	 -0.042683
3.242000	 0.023594
3.260000	 -0.056485
3.278000	 0.012183
3.296000	 -0.005719
3.314000	 0.029520
3.332000	 -0.114284
3.350000	 0.039678
3.368000	 -0.042438
3.386000	 0.090427
3.404000	 0.131523
3.422000	 0.177918
3.440000	 0.107227
3.458000	 0.115167
3.476000	 -0.092893
3.494000	 0.029963
3.512000	 0.098412
3.530000	 0.050990
3.548000	 0.084024
3.566000	 -0.010537
3.584000	 0.059165
3.602000	 -0.038170
3.620000	 0.120591
3.638000	 0.040447
3.656000	 0.045982
3.674000	 0.135365
3.692000	 -0.044761
3.710000	 0.009857
3.728000	 0.054272
3.746000	 0.005397
3.764000	 0.008356
3.782000	 -0.012658
3.800000	 -0.037620
3.818000	 0.111390
3.836000	 0.078279
3.854000	 0.111243
3.872000	 -0.006628
3.890000	 0.108130
3.908000	 0.130504
3.926000	 -0.106177
3.944000	 0.129321
3.962000	 -0.038830
3.980000	 -0.112609
3.998000	 -0.337317
4.016000	 0.144807
4.034000	 -0.001901
4.052000	 -0.019065
4.070000	 0.155531
4.088000	 0.037670
4.106000	 0.018047
4.124000	 -0.015218
4.141999	 -0.014459
4.160000	 0.120059
4.178000	 0.018982
4.196000	 0.026277
4.214000	 0.183270
4.232000	 0.120510
4.250000	 0.152025
4.268000	 0.109054
4.286000	 0.259218
4.304000	 0.231591
4.322000	 0.350732
4.340000	 0.443223
4.358000	 0.478956
4.375999	 0.610498
4.394000	 0.749157
4.412000	 1.004872
4.430000	 1.369593
4.448000	 1.573646
4.466000	 1.785280
4.484000	 2.245593
4.502000	 2.708164
4.520000	 3.067900
4.538000	 3.580026
4.556000	 4.084366
4.574000	 4.851991
4.592000	 5.507380
4.609999	 6.182961
4.628000	 7.137555
4.646000	 7.984639
4.664000	 8.882698
4.682000	 9.718887
4.700000	 10.5469
4.718000	 11.3922
4.736000	 12.2145
4.754000	 13.3366
4.772000	 14.3202
4.790000	 15.1915
4.808000	 15.9152
4.826000	 17.02
4.843999	 17.8574
4.862000	 18.7761
4.880000	 19.4555
4.898000	 20.2459
4.916000	 21.0314
4.934000	 21.6294
4.952000	 22.3074
4.970000	 22.9275
4.988000	 23.5251
5.006000	 24.1381
5.024000	 24.6642
5.042000	 25.209
5.060000	 25.726
5.077999	 26.1585
5.096000	 26.454
5.114000	 26.8575
5.132000	 27.3019
5.150000	 27.604
5.168000	 27.9943
5.186000	 28.2474
5.204000	 28.4763
5.222000	 28.7684
5.240000	 29.1043
5.258000	 29.3068
5.276000	 29.5158
5.294000	 29.7416
5.312000	 29.9235
5.330000	 30.0082
5.348000	 30.2961
5.366000	 30.4368
5.384000	 30.5377
5.402000	 30.741
5.420000	 30.8899
5.438000	 30.973
5.456000	 31.0021
5.474000	 31.097
5.492000	 31.194
5.510000	 31.2741
5.528000	 31.3587
5.546000	 31.4585
5.564000	 31.5278
5.582000	 31.5578
5.600000	 31.5581
5.618000	 31.5767
5.636000	 31.6528
5.654000	 31.6871
5.672000	 31.7381
5.690000	 31.7448
5.708000	 31.833
5.726000	 31.8883
5.744000	 31.8915
5.762000	 31.7701
5.780000	 31.8211
5.798000	 32.0257
5.816000	 32.134
5.834000	 32.1482
5.852000	 32.0266
5.870000	 31.9971
5.888000	 32.07
5.906000	 32.1424
5.923999	 32.0977
5.942000	 32.0899
5.960000	 32.1145
5.978000	 32.1286
5.996000	 32.2022
6.014000	 32.3352
6.032000	 32.3261
6.050000	 32.2446
6.068000	 32.231
6.086000	 32.2401
6.104000	 32.2566
6.122000	 32.3052
6.140000	 32.3276
6.158000	 32.2772
6.176000	 32.2166
6.194000	 32.2089
6.212000	 32.2394
6.230000	 32.2299
6.248000	 32.2203
6.266000	 32.2401
6.284000	 32.2621
6.302000	 32.2446
6.320000	 32.2622
6.338000	 32.236
6.356000	 32.1738
6.374000	 32.1943
6.392000	 32.2531
6.410000	 32.2833
6.428000	 32.2777
6.446000	 32.2629
6.464000	 32.2742
6.482000	 32.3117
6.500000	 32.3847
6.518000	 32.4215
6.536000	 32.3669
6.554000	 32.2503
6.572000	 32.1663
6.590000	 32.2366
6.608000	 32.3061
6.626000	 32.2221
6.644000	 32.1499
6.662000	 32.2112
6.680000	 32.2429
6.698000	 32.1673
6.716000	 32.1323
6.734000	 32.1754
6.752000	 32.2174
6.770000	 32.209
6.788000	 32.1376
6.806000	 32.0548
6.824000	 32.0137
6.842000	 32.0286
6.860000	 32.085
6.878000	 32.1189
6.896000	 32.1554
6.914000	 32.1893
6.932000	 32.1768
6.950000	 32.1862
6.968000	 32.2519
6.986000	 32.3042
7.004000	 32.2644
7.022000	 32.1395
7.040000	 32.0139
7.058000	 32.0037
7.076000	 32.1155
7.094000	 32.1747
7.112000	 32.0945
7.130000	 32.0117
7.148000	 32.0178
7.166000	 32.0409
7.184000	 32.0388
7.202000	 32.0522
7.220000	 32.0881
7.238000	 32.1156
7.256000	 32.1261
7.274000	 32.1323
7.292000	 32.1398
7.310000	 32.155
7.328000	 32.1823
7.346000	 32.1858
7.364000	 32.1258
7.382000	 32.029
7.400000	 31.949
7.418000	 31.9098
7.436000	 31.9294
7.454000	 32.0121
7.472000	 32.0849
7.490000	 32.0643
7.508000	 31.9913
7.526000	 31.967
7.544000	 32.0099
7.562000	 32.0889
7.580000	 32.1858
7.598000	 32.2482
7.616000	 32.223
7.634000	 32.1494
7.652000	 32.0948
7.670000	 32.0594
7.688000	 32.0142
7.706000	 31.9565
7.724000	 31.9018
7.742000	 31.8735
7.760000	 31.8812
7.778000	 31.9052
7.796000	 31.9251
7.814000	 31.9326
7.832000	 31.9265
7.850000	 31.9175
7.868000	 31.9078
7.886000	 31.8789
7.904000	 31.8382
7.922000	 31.833
7.940000	 31.8846
7.958000	 31.9577
7.976000	 32.0081
7.994000	 32.0245
8.012000	 32.0197
8.030000	 31.9994
8.048000	 31.9551
8.065999	 31.8991
8.084000	 31.8764
8.102000	 31.8997
8.120000	 31.9176
8.138000	 31.8883
8.155999	 31.8322
8.173999	 31.7888
8.192000	 31.767
8.210000	 31.7698
8.228000	 31.8144
8.246000	 31.901
8.263999	 31.9916
8.282000	 32.0432
8.300000	 32.0538
8.318000	 32.0539
8.336000	 32.0558
8.353999	 32.0433
8.372000	 32.0107
8.390000	 31.9808
8.408000	 31.9696
8.426000	 31.9561
8.443999	 31.9112
8.462000	 31.8447
8.480000	 31.7927
8.498000	 31.7663
8.516000	 31.7433
8.533999	 31.7113
8.552000	 31.682
8.570000	 31.6594
8.588000	 31.6319
8.606000	 31.613
8.624000	 31.645
8.641999	 31.739
8.660000	 31.8446
8.678000	 31.9021
8.696000	 31.9031
8.714000	 31.8872
8.731999	 31.8913
8.750000	 31.9224
8.768000	 31.9646
8.786000	 31.9974
8.804000	 32.0063
8.821999	 31.9915
8.840000	 31.9657
8.858000	 31.9421
8.876000	 31.9197
8.894000	 31.8842
8.911999	 31.8218
8.930000	 31.7334
8.948000	 31.6312
8.966000	 31.5256
8.984000	 31.4208
9.001999	 31.3232
9.020000	 31.2518
9.038000	 31.2298
9.056000	 31.2666
9.074000	 31.3521
9.092000	 31.4685
9.109999	 31.5965
9.128000	 31.7133
9.146000	 31.7985
9.164000	 31.8449
9.182000	 31.8609
9.199999	 31.8591
9.218000	 31.8463
9.236000	 31.8253
9.254000	 31.803
9.272000	 31.7854
9.289999	 31.7713
9.308000	 31.7536
9.326000	 31.7286
9.344000	 31.695
9.362000	 31.6481
9.379999	 31.584
9.398000	 31.5104
9.416000	 31.4498
9.434000	 31.4204
9.452000	 31.417
9.469999	 31.4148
9.488000	 31.3959
9.506000	 31.3706
9.524000	 31.3674
9.542000	 31.4024
9.560000	 31.4606
9.577999	 31.5075
9.596000	 31.5194
9.614000	 31.4993
9.632000	 31.4686
9.650000	 31.451
9.667999	 31.4624
9.686000	 31.5137
9.704000	 31.6109
9.722000	 31.7488
9.740000	 31.9024
9.757999	 32.0273
9.776000	 32.078
9.794000	 32.0356
9.812000	 31.9219
9.830000	 31.7848
9.847999	 31.6661
9.866000	 31.5806
9.884000	 31.517
9.902000	 31.4543
9.920000	 31.378
9.937999	 31.2863
9.956000	 31.188
9.974000	 31.0977
9.992000	 31.03
10.01	30.9941
10.028	30.9892
10.046	31.0038
10.064	31.0252
10.082	31.0452
10.1	31.0626
10.118	31.0786
10.136	31.0935
10.154	31.1083
10.172	31.1282
10.19	31.1633
10.208	31.2218
10.226	31.3016
10.244	31.3882
10.262	31.4626
10.28	31.5134
10.298	31.5405
10.316	31.5519
10.334	31.5556
10.352	31.5537
10.37	31.5432
10.388	31.5192
10.406	31.4805
10.424	31.4306
10.442	31.3768
10.46	31.3247
10.478	31.2754
10.496	31.2244
10.514	31.1644
10.532	31.0899
10.55	31.0039
10.568	30.9178
10.586	30.8481
10.604	30.8064
10.622	30.7939
10.64	30.7994
10.658	30.8062
10.676	30.8004
10.694	30.7791
10.712	30.7519
10.73	30.7351
10.748	30.7441
10.766	30.7849
10.784	30.852
10.802	30.9298
10.82	31.0012
10.838	31.0528
10.856	31.0811
10.874	31.0921
10.892	31.0967
10.91	31.1061
10.928	31.1259
10.946	31.1556
10.964	31.1897
10.982	31.2211
11	31.2448
11.018	31.258
11.036	31.2608
11.054	31.2539
11.072	31.2371
11.09	31.2093
11.108	31.1698
11.126	31.1194
11.144	31.0604
11.162	30.9974
11.18	30.9345
11.198	30.8743
11.216	30.8165
11.234	30.7584
11.252	30.6966
11.27	30.6291
11.288	30.5569
11.306	30.4839
11.324	30.415
11.342	30.3547
11.36	30.3049
11.378	30.2653
11.396	30.2349
11.414	30.2129
11.432	30.1999
11.45	30.1971
11.468	30.2059
11.486	30.2274
11.504	30.2606
11.522	30.3038
11.54	30.3545
11.558	30.4102
11.576	30.467
11.594	30.5203
11.612	30.5653
11.63	30.5976
11.648	30.6155
11.666	30.6207
11.684	30.6182
11.702	30.6146
11.72	30.6176
11.738	30.6329
11.756	30.6632
11.774	30.7064
11.792	30.7561
11.81	30.8019
11.828	30.8323
11.846	30.8371
11.864	30.8117
11.882	30.7585
11.9	30.6872
11.918	30.6126
11.936	30.5483
11.954	30.5032
11.972	30.4784
11.99	30.4668
12.008	30.4567
12.026	30.4369
12.044	30.4003
12.062	30.347
12.08	30.2832
12.098	30.218
12.116	30.1593
12.134	30.1106
12.152	30.0707
12.17	30.0352
12.188	30
12.206	29.963
12.224	29.9245
12.242	29.8867
12.26	29.851
12.278	29.8184
12.296	29.7892
12.314	29.7645
12.332	29.7473
12.35	29.7411
12.368	29.7507
12.386	29.7795
12.404	29.828
12.422	29.8938
12.44	29.9713
12.458	30.0534
12.476	30.1328
12.494	30.2036
12.512	30.2623
12.53	30.3077
12.548	30.3404
12.566	30.3618
12.584	30.3733
12.602	30.3759
12.62	30.3707
12.638	30.3586
12.656	30.341
12.674	30.3194
12.692	30.2961
12.71	30.2738
12.728	30.2554
12.746	30.2427
12.764	30.2364
12.782	30.2352
12.8	30.2363
12.818	30.2356
12.836	30.2287
12.854	30.2119
12.872	30.1827
12.89	30.1409
12.908	30.0881
12.926	30.0274
12.944	29.9625
12.962	29.8975
12.98	29.836
12.998	29.7817
13.016	29.7374
13.034	29.705
13.052	29.6855
13.07	29.6786
13.088	29.681
13.106	29.687
13.124	29.6885
13.142	29.6768
13.16	29.6442
13.178	29.5862
13.196	29.5036
13.214	29.4032
13.232	29.2964
13.25	29.1972
13.268	29.1192
13.286	29.0715
13.304	29.0569
13.322	29.0704
13.34	29.1015
13.358	29.1364
13.376	29.1626
13.394	29.1721
13.412	29.1637
13.43	29.1441
13.448	29.1253
13.466	29.1217
13.484	29.1457
13.502	29.2046
13.52	29.2986
13.538	29.4201
13.556	29.5559
13.574	29.6904
13.592	29.8087
13.61	29.9002
13.628	29.9598
13.646	29.9885
13.664	29.992
13.682	29.9787
13.7	29.9574
13.718	29.9351
13.736	29.916
13.754	29.9023
13.772	29.8926
13.79	29.8849
13.808	29.8763
13.826	29.8653
13.844	29.851
13.862	29.8333
13.88	29.8122
13.898	29.7875
13.916	29.7584
13.934	29.7232
13.952	29.6793
13.97	29.6242
13.988	29.5563
14.006	29.4754
14.024	29.3835
14.042	29.2846
14.06	29.1842
14.078	29.0882
14.096	29.0018
14.114	28.9288
14.132	28.8709
14.15	28.828
14.168	28.7987
14.186	28.7805
14.204	28.7701
14.222	28.7647
14.24	28.7628
14.258	28.7638
14.276	28.7677
14.294	28.7749
14.312	28.7858
14.33	28.8001
14.348	28.8176
14.366	28.8369
14.384	28.8565
14.402	28.8749
14.42	28.8909
14.438	28.9036
14.456	28.913
14.474	28.9196
14.492	28.924
14.51	28.9277
14.528	28.9316
14.546	28.9367
14.564	28.944
14.582	28.9541
14.6	28.9676
14.618	28.9849
14.636	29.0058
14.654	29.0296
14.672	29.0548
14.69	29.0798
14.708	29.1022
14.726	29.1194
14.744	29.1284
14.762	29.1271
14.78	29.1143
14.798	29.0899
14.816	29.055
14.834	29.012
14.852	28.9647
14.87	28.9171
14.888	28.8733
14.906	28.837
14.924	28.8106
14.942	28.7956
14.96	28.7908
14.978	28.7939
14.996	28.8015
15.014	28.8094
15.032	28.8131
15.05	28.8088
15.068	28.7943
15.086	28.7686
15.104	28.7318
15.122	28.6863
15.14	28.6353
15.158	28.5826
15.176	28.5316
15.194	28.4858
15.212	28.4473
15.23	28.4167
15.248	28.3934
15.266	28.376
15.284	28.3616
15.302	28.3472
15.32	28.3303
15.338	28.3089
15.356	28.2816
15.374	28.2482
15.392	28.2095
15.41	28.1667
15.428	28.1215
15.446	28.0759
15.464	28.0312
15.482	27.9884
15.5	27.9485
15.518	27.9118
15.536	27.8786
15.554	27.8494
15.572	27.8246
15.59	27.8057
15.608	27.7944
15.626	27.7921
15.644	27.8009
15.662	27.8224
15.68	27.857
15.698	27.9047
15.716	27.9642
15.734	28.0321
15.752	28.1049
15.77	28.1784
15.788	28.2468
15.806	28.306
15.824	28.3525
15.842	28.3833
15.86	28.3973
15.878	28.3949
15.896	28.3772
15.914	28.3472
15.932	28.3086
15.95	28.2644
15.968	28.2187
15.986	28.1753
16.004	28.1363
16.022	28.1039
16.04	28.0798
16.058	28.0642
16.076	28.0573
16.094	28.0588
16.112	28.0677
16.13	28.0832
16.148	28.1041
16.166	28.1288
16.184	28.156
16.202	28.1843
16.22	28.2114
16.238	28.2357
16.256	28.2553
16.274	28.2675
16.292	28.2707
16.31	28.2634
16.328	28.2436
16.346	28.2109
16.364	28.1649
16.382	28.1057
16.4	28.0346
16.418	27.9526
16.436	27.8621
16.454	27.7657
16.472	27.6655
16.49	27.5653
16.508	27.468
16.526	27.3758
16.544	27.2923
16.562	27.2193
16.58	27.1582
16.598	27.1106
16.616	27.0762
16.634	27.0549
16.652	27.0451
16.67	27.0451
16.688	27.0529
16.706	27.0651
16.724	27.0797
16.742	27.0941
16.76	27.1054
16.778	27.1123
16.796	27.1131
16.814	27.1067
16.832	27.0927
16.85	27.0711
16.868	27.0424
16.886	27.0068
16.904	26.966
16.922	26.9207
16.94	26.8718
16.958	26.8211
16.976	26.7691
16.994	26.7173
17.012	26.6666
17.03	26.6177
17.048	26.5721
17.066	26.5303
17.084	26.4934
17.102	26.4622
17.12	26.4373
17.138	26.4194
17.156	26.4087
17.174	26.4057
17.192	26.4101
17.21	26.4219
17.228	26.4406
17.246	26.4653
17.264	26.4958
17.282	26.5308
17.3	26.5697
17.318	26.6116
17.336	26.6557
17.354	26.7016
17.372	26.7481
17.39	26.7952
17.408	26.8422
17.426	26.8885
17.444	26.9341
17.462	26.9782
17.48	27.0208
17.498	27.0613
17.516	27.0989
17.534	27.1332
17.552	27.1637
17.57	27.19
17.588	27.2114
17.606	27.2277
17.624	27.2387
17.642	27.244
17.66	27.2434
17.678	27.2371
17.696	27.2252
17.714	27.2078
17.732	27.1854
17.75	27.1586
17.768	27.128
17.786	27.0941
17.804	27.0579
17.822	27.0198
17.84	26.9808
17.858	26.9416
17.876	26.9028
17.894	26.8655
17.912	26.83
17.93	26.7973
17.948	26.7676
17.966	26.7417
17.984	26.7195
18.002	26.7014
18.02	26.687
18.038	26.6763
18.056	26.6683
18.074	26.6629
18.092	26.6584
18.11	26.6544
18.128	26.649
18.146	26.6418
18.164	26.6308
18.182	26.6156
18.2	26.5951
18.218	26.5691
18.236	26.5373
18.254	26.5009
18.272	26.4601
18.29	26.4172
18.308	26.3726
18.326	26.3294
18.344	26.2882
18.362	26.2524
18.38	26.2226
18.398	26.2011
18.416	26.1881
18.434	26.1849
18.452	26.1905
18.47	26.205
18.488	26.2259
18.506	26.2528
18.524	26.2817
18.542	26.3118
18.56	26.3385
18.578	26.3611
18.596	26.3753
18.614	26.3809
18.632	26.3746
18.65	26.3568
18.668	26.3264
18.686	26.284
18.704	26.231
18.722	26.1681
18.74	26.0986
18.758	26.0234
18.776	25.9462
18.794	25.8682
18.812	25.7932
18.83	25.7219
18.848	25.6576
18.866	25.6004
18.884	25.5524
18.902	25.5133
18.92	25.4835
18.938	25.4624
18.956	25.4493
18.974	25.4431
18.992	25.4424
19.01	25.4459
19.028	25.4515
19.046	25.458
19.064	25.4632
19.082	25.4662
19.1	25.4647
19.118	25.4584
19.136	25.4456
19.154	25.4266
19.172	25.4002
19.19	25.3671
19.208	25.3276
19.226	25.2822
19.244	25.2324
19.262	25.1787
19.28	25.1235
19.298	25.0672
19.316	25.0132
19.334	24.9612
19.352	24.915
19.37	24.8742
19.388	24.8416
19.406	24.8171
19.424	24.8021
19.442	24.7966
19.46	24.8005
19.478	24.8141
19.496	24.836
19.514	24.8664
19.532	24.903
19.55	24.9451
19.568	24.9913
19.586	25.04
19.604	25.0906
19.622	25.1408
19.64	25.191
19.658	25.2395
19.676	25.2865
19.694	25.3315
19.712	25.3744
19.73	25.4157
19.748	25.4554
19.766	25.4942
19.784	25.5323
19.802	25.5702
19.82	25.6083
19.838	25.6466
19.856	25.6856
19.874	25.7248
19.892	25.764
19.91	25.8032
19.928	25.8409
19.946	25.8774
19.964	25.9111
19.982	25.942
20	25.969
20.018	25.9915
20.036	26.0094
20.054	26.0218
20.072	26.029
20.09	26.0308
20.108	26.0272
20.126	26.019
20.144	26.0059
20.162	25.989
20.18	25.9684
20.198	25.9446
20.216	25.9187
20.234	25.8904
20.252	25.8607
20.27	25.8294
20.288	25.7967
20.306	25.7629
20.324	25.7273
20.342	25.6897
20.36	25.6499
20.378	25.6073
20.396	25.562
20.414	25.5129
20.432	25.4602
20.45	25.4036
20.468	25.3429
20.486	25.2783
20.504	25.2101
20.522	25.1383
20.54	25.064
20.558	24.9867
20.576	24.9081
20.594	24.8286
20.612	24.7489
20.63	24.6706
20.648	24.5935
20.666	24.5199
20.684	24.4497
20.702	24.3841
20.72	24.324
20.738	24.2694
20.756	24.2219
20.774	24.1811
20.792	24.1476
20.81	24.1217
20.828	24.1033
20.846	24.0925
20.864	24.0893
20.882	24.0933
20.9	24.1045
20.918	24.1222
20.936	24.146
20.954	24.1758
20.972	24.2099
20.99	24.249
21.008	24.291
21.026	24.3355
21.044	24.3818
21.062	24.4276
21.08	24.4736
21.098	24.5169
21.116	24.5572
21.134	24.5937
21.152	24.6237
21.17	24.648
21.188	24.6642
21.206	24.672
21.224	24.671
21.242	24.6594
21.26	24.6379
21.278	24.6058
21.296	24.5627
21.314	24.5093
21.332	24.4459
21.35	24.3721
21.368	24.2898
21.386	24.1987
21.404	24.0998
21.422	23.9953
21.44	23.8844
21.458	23.7697
21.476	23.652
21.494	23.5316
21.512	23.4119
21.53	23.2919
21.548	23.1742
21.566	23.0607
21.584	22.9507
21.602	22.848
21.62	22.752
21.638	22.6643
21.656	22.5872
21.674	22.5199
21.692	22.4645
21.71	22.4216
21.728	22.3912
21.746	22.3746
21.764	22.3716
21.782	22.382
21.8	22.4062
21.818	22.4439
21.836	22.4932
21.854	22.5546
21.872	22.6267
21.89	22.7069
21.908	22.7965
21.926	22.8917
21.944	22.9906
21.962	23.094
21.98	23.1972
21.998	23.3007
22.016	23.4028
22.034	23.4994
22.052	23.5918
22.07	23.6779
22.088	23.7557
22.106	23.8261
22.124	23.8883
22.142	23.9414
22.16	23.9864
22.178	24.0241
22.196	24.0538
22.214	24.0772
22.232	24.0961
22.25	24.1094
22.268	24.1201
22.286	24.1295
22.304	24.137
22.322	24.1457
22.34	24.1561
22.358	24.168
22.376	24.1836
22.394	24.2027
22.412	24.2251
22.43	24.2512
22.448	24.2811
22.466	24.3139
22.484	24.3493
22.502	24.3877
22.52	24.4272
22.538	24.4674
22.556	24.5086
22.574	24.5488
22.592	24.5881
22.61	24.6261
22.628	24.6614
22.646	24.6942
22.664	24.724
22.682	24.7496
22.7	24.7714
22.718	24.7888
22.736	24.8009
22.754	24.808
22.772	24.8101
22.79	24.8069
22.808	24.7986
22.826	24.7853
22.844	24.7672
22.862	24.7442
22.88	24.7165
22.898	24.6842
22.916	24.6473
22.934	24.6058
22.952	24.5597
22.97	24.5091
22.988	24.4548
23.006	24.3969
23.024	24.3354
23.042	24.2709
23.06	24.2033
23.078	24.1329
23.096	24.0606
23.114	23.9866
23.132	23.9109
23.15	23.8339
23.168	23.7556
23.186	23.6761
23.204	23.596
23.222	23.5154
23.24	23.4341
23.258	23.3517
23.276	23.2684
23.294	23.1841
23.312	23.0979
23.33	23.0103
23.348	22.9209
23.366	22.8283
23.384	22.7328
23.402	22.6343
23.42	22.5312
23.438	22.4237
23.456	22.3118
23.474	22.1945
23.492	22.0714
23.51	21.943
23.528	21.8093
23.546	21.6702
23.564	21.5258
23.582	21.3769
23.6	21.2237
23.618	21.0658
23.636	20.9051
23.654	20.7424
23.672	20.577
23.69	20.4102
23.708	20.2431
23.726	20.075
23.744	19.9066
23.762	19.7388
23.78	19.5712
23.798	19.4041
23.816	19.238
23.834	19.0725
23.852	18.9081
23.87	18.7452
23.888	18.5834
23.906	18.4232
23.924	18.2654
23.942	18.1093
23.96	17.9555
23.978	17.806
23.996	17.6605
24.014	17.5185
24.032	17.384
24.05	17.2587
24.068	17.1402
24.086	17.0333
24.104	16.9428
24.122	16.8647
24.14	16.8033
24.158	16.7648
24.176	16.7467
24.194	16.7504
24.212	16.7812
24.23	16.8402
24.248	16.9255
24.266	17.0402
24.284	17.1866
24.302	17.3634
24.32	17.5693
24.338	17.804
24.356	18.0699
24.374	18.3623
24.392	18.6748
24.41	19.011
24.428	19.3683
24.446	19.7357
24.464	20.1102
24.482	20.4971
24.5	20.8844
24.518	21.2627
24.536	21.6404
24.554	22.0089
24.572	22.3557
24.59	22.6847
24.608	22.9951
24.626	23.2759
24.644	23.5223
24.662	23.74
24.68	23.9228
24.698	24.0649
24.716	24.1684
24.734	24.2339
24.752	24.2603
24.77	24.2458
24.788	24.1921
24.806	24.1034
24.824	23.9813
24.842	23.8217
24.86	23.6326
24.878	23.4234
24.896	23.1897
24.914	22.9335
24.932	22.6658
24.95	22.3923
24.968	22.1066
24.986	21.8153
25.004	21.5254
25.022	21.2328
25.04	20.9398
25.058	20.6533
25.076	20.3756
25.094	20.1022
25.112	19.8407
25.13	19.5986
25.148	19.3726
25.166	19.1634
25.184	18.9761
25.202	18.8137
25.22	18.6734
25.238	18.5557
25.256	18.461
25.274	18.3888
25.292	18.3393
25.31	18.3137
25.328	18.3121
25.346	18.3334
25.364	18.3795
25.382	18.4524
25.4	18.5514
25.418	18.6762
25.436	18.8288
25.454	19.0106
25.472	19.2205
25.49	19.4587
25.508	19.7262
25.526	20.0241
25.544	20.3517
25.562	20.7067
25.58	21.0871
25.598	21.4961
25.616	21.9308
25.634	22.3854
25.652	22.8577
25.67	23.3538
25.688	23.8644
25.706	24.3785
25.724	24.898
25.742	25.4264
25.76	25.951
25.778	26.4604
25.796	26.9632
25.814	27.4556
25.832	27.9262
25.85	28.3672
25.868	28.7865
25.886	29.1798
25.904	29.5412
25.922	29.8671
25.94	30.1609
25.958	30.4251
25.976	30.6622
25.994	30.8669
26.012	31.0425
26.03	31.1996
26.048	31.3469
26.066	31.4735
26.084	31.5874
26.102	31.7033
26.12	31.8295
26.138	31.9527
26.156	32.0852
26.174	32.2428
26.192	32.4306
26.21	32.6378
26.228	32.8751
26.246	33.1537
26.264	33.4751
26.282	33.834
26.3	34.2332
26.318	34.6756
26.336	35.1583
26.354	35.6819
26.372	36.2513
26.39	36.8716
26.408	37.5482
26.426	38.2725
26.444	39.0327
26.462	39.8197
26.48	40.6476
26.498	41.5057
26.516	42.3757
26.534	43.2484
26.552	44.1513
26.57	45.0551
26.588	45.9203
26.606	46.7267
26.624	47.5165
26.642	48.2505
26.66	48.8786
26.678	49.3792
26.696	49.8023
26.714	50.0999
26.732	50.2147
26.75	50.1223
26.768	49.8738
26.786	49.4267
26.804	48.731
26.822	47.7635
26.84	46.5641
26.858	45.1097
26.876	43.3722
26.894	41.3339
26.912	39.0127
26.93	36.4129
26.948	33.5374
26.966	30.1741
26.984	26.0066
27.002	21.8389
27.02	18.5443
27.028	17.6825