File: Bakgrunnsmateriale/MATLAB/FTIR/ftir_data/LPE453/Mapping_121/LPE453_e123.asc
PE IR       SPECTRUM    SPECTRUM    ASCII       PEDS        1.60
  -1
LP8F73~1.ASC
17/05/16
16:11:26.00
17/05/16
16:11:52.00
tln
$LPE453_e0123$<ebV0>[-23.3,12.1,10.0,0.0,27,1,0]
27.028
64

2002,4.07
MIRTGS : RIGHTBACK : INTERNAL 2
MIR : ON : INTERNAL 2
OPTKBR

0.200000
8
8.000000
FILLER
SINGLE
SPECTRUM
UNLOCKED 256

DOUBLE

COMBINED
1
0
0

0.002000
BACKG

1
0
TRUE
51149
0
LEFT NOT FITTED RIGHT NOT FITTED 0
NONE
NONE
15600
12
4.427000
51148
TRUE
1 0 8 72 0 0 0 0

15798

#HDR
-1
-1
#GR
µM
EGY
2.38419e-05
0.0
2.000000
0.002000
12515
8
2.420977
0.006079
#DATA
2.000000	 0.765037
2.018000	 0.784173
2.036000	 0.803099
2.054000	 0.823258
2.072000	 0.846212
2.090000	 0.869949
2.108000	 0.887670
2.126000	 0.897555
2.144000	 0.905129
2.162000	 0.920440
2.180000	 0.933710
2.198000	 0.957967
2.216000	 0.997891
2.234000	 0.992007
2.252000	 1.006981
2.270000	 1.017064
2.288000	 1.036049
2.306000	 1.066834
2.324000	 1.101852
2.342000	 1.140984
2.360000	 1.167918
2.378000	 1.186075
2.396000	 1.201186
2.414000	 1.218266
2.432000	 1.245256
2.450000	 1.277704
2.468000	 1.318869
2.486000	 1.353762
2.504000	 1.384714
2.522000	 1.403802
2.540000	 1.414464
2.558000	 1.423329
2.576000	 1.430144
2.594000	 1.435063
2.612000	 1.476184
2.630000	 1.497426
2.648000	 1.530916
2.666000	 1.528015
2.684000	 1.556802
2.702000	 1.564928
2.720000	 1.552898
2.738000	 1.555719
2.756000	 1.561350
2.774000	 1.576369
2.792000	 1.587818
2.810000	 1.601478
2.828000	 1.607589
2.846000	 1.609639
2.864000	 1.604402
2.882000	 1.592040
2.900000	 1.582105
2.918000	 1.567553
2.936000	 1.579858
2.954000	 1.592459
2.972000	 1.610362
2.990000	 1.640809
3.008000	 1.666344
3.026000	 1.696092
3.044000	 1.717751
3.062000	 1.739318
3.080000	 1.757818
3.098000	 1.767854
3.116000	 1.768859
3.134000	 1.775296
3.152000	 1.777440
3.170000	 1.786801
3.188000	 1.803903
3.206000	 1.820475
3.224000	 1.850640
3.242000	 1.882372
3.260000	 1.906800
3.278000	 1.933766
3.296000	 1.954219
3.314000	 1.936049
3.332000	 1.998856
3.350000	 2.006484
3.368000	 1.941991
3.386000	 1.902608
3.404000	 1.811204
3.422000	 1.762217
3.440000	 1.913167
3.458000	 1.967980
3.476000	 1.981453
3.494000	 1.887404
3.512000	 1.989165
3.530000	 2.074298
3.548000	 2.117578
3.566000	 2.144100
3.584000	 2.171739
3.602000	 2.197836
3.620000	 2.214104
3.638000	 2.227683
3.656000	 2.232388
3.674000	 2.232347
3.692000	 2.225702
3.710000	 2.222940
3.728000	 2.219285
3.746000	 2.208732
3.764000	 2.202209
3.782000	 2.198983
3.800000	 2.194886
3.818000	 2.198432
3.836000	 2.200287
3.854000	 2.201390
3.872000	 2.217715
3.890000	 2.233792
3.908000	 2.248635
3.926000	 2.262049
3.944000	 2.278041
3.962000	 2.287474
3.980000	 2.295864
3.998000	 2.299366
4.016000	 2.301451
4.034000	 2.295005
4.052000	 2.291204
4.070000	 2.281740
4.088000	 2.272187
4.106000	 2.264474
4.124000	 2.250091
4.141999	 2.242771
4.160000	 2.232182
4.178000	 2.226773
4.196000	 2.224828
4.214000	 2.214452
4.232000	 2.207890
4.250000	 2.225241
4.268000	 2.238605
4.286000	 2.246356
4.304000	 2.265799
4.322000	 2.283931
4.340000	 2.302311
4.358000	 2.315674
4.375999	 2.324487
4.394000	 2.332610
4.412000	 2.344025
4.430000	 2.347600
4.448000	 2.349742
4.466000	 2.351087
4.484000	 2.349100
4.502000	 2.341914
4.520000	 2.336037
4.538000	 2.330553
4.556000	 2.325581
4.574000	 2.318558
4.592000	 2.312644
4.609999	 2.309410
4.628000	 2.306542
4.646000	 2.304639
4.664000	 2.303848
4.682000	 2.300509
4.700000	 2.300954
4.718000	 2.304713
4.736000	 2.306148
4.754000	 2.305924
4.772000	 2.302606
4.790000	 2.302994
4.808000	 2.308262
4.826000	 2.319139
4.843999	 2.336302
4.862000	 2.350679
4.880000	 2.368827
4.898000	 2.383519
4.916000	 2.394232
4.934000	 2.403156
4.952000	 2.407197
4.970000	 2.412790
4.988000	 2.417220
5.006000	 2.420737
5.024000	 2.420033
5.042000	 2.415493
5.060000	 2.408754
5.077999	 2.401500
5.096000	 2.396416
5.114000	 2.393237
5.132000	 2.387905
5.150000	 2.381334
5.168000	 2.377093
5.186000	 2.370995
5.204000	 2.361123
5.222000	 2.354768
5.240000	 2.346712
5.258000	 2.338197
5.276000	 2.334112
5.294000	 2.332451
5.312000	 2.337217
5.330000	 2.339287
5.348000	 2.336597
5.366000	 2.342368
5.384000	 2.348658
5.402000	 2.352270
5.420000	 2.352678
5.438000	 2.361191
5.456000	 2.365713
5.474000	 2.368444
5.492000	 2.376368
5.510000	 2.382429
5.528000	 2.387132
5.546000	 2.388838
5.564000	 2.388494
5.582000	 2.385972
5.600000	 2.387870
5.618000	 2.386705
5.636000	 2.376293
5.654000	 2.374505
5.672000	 2.375410
5.690000	 2.365315
5.708000	 2.348512
5.726000	 2.333667
5.744000	 2.310351
5.762000	 2.285950
5.780000	 2.286563
5.798000	 2.287480
5.816000	 2.268527
5.834000	 2.261903
5.852000	 2.259316
5.870000	 2.235995
5.888000	 2.216519
5.906000	 2.220360
5.923999	 2.213898
5.942000	 2.202225
5.960000	 2.202532
5.978000	 2.193726
5.996000	 2.186527
6.014000	 2.177699
6.032000	 2.155112
6.050000	 2.126871
6.068000	 2.123795
6.086000	 2.125439
6.104000	 2.113086
6.122000	 2.100427
6.140000	 2.091269
6.158000	 2.069197
6.176000	 2.033453
6.194000	 1.988034
6.212000	 1.948559
6.230000	 1.938971
6.248000	 1.956549
6.266000	 1.974473
6.284000	 1.982243
6.302000	 1.980115
6.320000	 1.968847
6.338000	 1.954253
6.356000	 1.948819
6.374000	 1.944904
6.392000	 1.924875
6.410000	 1.898254
6.428000	 1.900389
6.446000	 1.920063
6.464000	 1.922714
6.482000	 1.922826
6.500000	 1.958662
6.518000	 2.019761
6.536000	 2.062469
6.554000	 2.075735
6.572000	 2.073728
6.590000	 2.068062
6.608000	 2.057803
6.626000	 2.034934
6.644000	 1.983255
6.662000	 1.861508
6.680000	 1.701832
6.698000	 1.645811
6.716000	 1.730281
6.734000	 1.847516
6.752000	 1.918775
6.770000	 1.942240
6.788000	 1.944606
6.806000	 1.938975
6.824000	 1.918323
6.842000	 1.872939
6.860000	 1.804228
6.878000	 1.743638
6.896000	 1.734874
6.914000	 1.775786
6.932000	 1.817413
6.950000	 1.833312
6.968000	 1.837108
6.986000	 1.839423
7.004000	 1.839225
7.022000	 1.834964
7.040000	 1.827339
7.058000	 1.817427
7.076000	 1.797702
7.094000	 1.759694
7.112000	 1.717233
7.130000	 1.698382
7.148000	 1.712111
7.166000	 1.740807
7.184000	 1.760414
7.202000	 1.761320
7.220000	 1.756884
7.238000	 1.762945
7.256000	 1.775026
7.274000	 1.782536
7.292000	 1.785590
7.310000	 1.787021
7.328000	 1.787482
7.346000	 1.787965
7.364000	 1.788524
7.382000	 1.788366
7.400000	 1.787560
7.418000	 1.786405
7.436000	 1.784963
7.454000	 1.784609
7.472000	 1.788359
7.490000	 1.797099
7.508000	 1.807101
7.526000	 1.814153
7.544000	 1.817858
7.562000	 1.820153
7.580000	 1.821828
7.598000	 1.822377
7.616000	 1.822022
7.634000	 1.821755
7.652000	 1.822099
7.670000	 1.822887
7.688000	 1.823583
7.706000	 1.823858
7.724000	 1.823830
7.742000	 1.823837
7.760000	 1.823913
7.778000	 1.823674
7.796000	 1.822104
7.814000	 1.817781
7.832000	 1.808718
7.850000	 1.792557
7.868000	 1.767098
7.886000	 1.734216
7.904000	 1.703380
7.922000	 1.688315
7.940000	 1.696820
7.958000	 1.723551
7.976000	 1.754867
7.994000	 1.779759
8.012000	 1.795166
8.030000	 1.803377
8.048000	 1.807284
8.065999	 1.808514
8.084000	 1.807531
8.102000	 1.804613
8.120000	 1.800477
8.138000	 1.796033
8.155999	 1.790999
8.173999	 1.784399
8.192000	 1.775459
8.210000	 1.764063
8.228000	 1.751331
8.246000	 1.739452
8.263999	 1.730366
8.282000	 1.724798
8.300000	 1.722121
8.318000	 1.721134
8.336000	 1.720737
8.353999	 1.719826
8.372000	 1.717774
8.390000	 1.714530
8.408000	 1.710290
8.426000	 1.704899
8.443999	 1.698612
8.462000	 1.691998
8.480000	 1.685233
8.498000	 1.677956
8.516000	 1.669736
8.533999	 1.660351
8.552000	 1.649668
8.570000	 1.638001
8.588000	 1.626192
8.606000	 1.615346
8.624000	 1.606384
8.641999	 1.599871
8.660000	 1.595777
8.678000	 1.593010
8.696000	 1.590014
8.714000	 1.585455
8.731999	 1.579479
8.750000	 1.573002
8.768000	 1.566555
8.786000	 1.559828
8.804000	 1.552423
8.821999	 1.543979
8.840000	 1.534606
8.858000	 1.524352
8.876000	 1.513252
8.894000	 1.501462
8.911999	 1.489207
8.930000	 1.476940
8.948000	 1.464996
8.966000	 1.453616
8.984000	 1.442805
9.001999	 1.432762
9.020000	 1.423917
9.038000	 1.416832
9.056000	 1.411743
9.074000	 1.408308
9.092000	 1.405848
9.109999	 1.403987
9.128000	 1.402780
9.146000	 1.402493
9.164000	 1.403199
9.182000	 1.404783
9.199999	 1.406657
9.218000	 1.407971
9.236000	 1.408097
9.254000	 1.407247
9.272000	 1.406408
9.289999	 1.406805
9.308000	 1.408901
9.326000	 1.412199
9.344000	 1.415574
9.362000	 1.417932
9.379999	 1.418633
9.398000	 1.416967
9.416000	 1.411434
9.434000	 1.399411
9.452000	 1.378558
9.469999	 1.349345
9.488000	 1.317224
9.506000	 1.291408
9.524000	 1.280306
9.542000	 1.286589
9.560000	 1.305677
9.577999	 1.328828
9.596000	 1.348210
9.614000	 1.360164
9.632000	 1.365116
9.650000	 1.365327
9.667999	 1.362954
9.686000	 1.359213
9.704000	 1.354660
9.722000	 1.349621
9.740000	 1.344619
9.757999	 1.340278
9.776000	 1.337440
9.794000	 1.336617
9.812000	 1.337961
9.830000	 1.341243
9.847999	 1.345771
9.866000	 1.350974
9.884000	 1.356450
9.902000	 1.361756
9.920000	 1.366735
9.937999	 1.371144
9.956000	 1.374790
9.974000	 1.377551
9.992000	 1.379249
10.01	1.379942
10.028	1.379730
10.046	1.378805
10.064	1.377304
10.082	1.375259
10.1	1.372555
10.118	1.369226
10.136	1.365388
10.154	1.361421
10.172	1.357557
10.19	1.353992
10.208	1.350573
10.226	1.347144
10.244	1.343481
10.262	1.339592
10.28	1.335345
10.298	1.330854
10.316	1.326094
10.334	1.321019
10.352	1.315631
10.37	1.309938
10.388	1.304029
10.406	1.297988
10.424	1.291948
10.442	1.285994
10.46	1.280126
10.478	1.274361
10.496	1.268910
10.514	1.263831
10.532	1.259290
10.55	1.255324
10.568	1.251812
10.586	1.248587
10.604	1.245504
10.622	1.242454
10.64	1.239447
10.658	1.236514
10.676	1.233600
10.694	1.230609
10.712	1.227390
10.73	1.223915
10.748	1.220190
10.766	1.216507
10.784	1.212855
10.802	1.209350
10.82	1.205904
10.838	1.202373
10.856	1.198565
10.874	1.194347
10.892	1.189625
10.91	1.184419
10.928	1.178765
10.946	1.172909
10.964	1.167085
10.982	1.161545
11	1.156563
11.018	1.152305
11.036	1.148693
11.054	1.145672
11.072	1.143143
11.09	1.140937
11.108	1.138960
11.126	1.137093
11.144	1.135207
11.162	1.133111
11.18	1.130515
11.198	1.127051
11.216	1.122418
11.234	1.116426
11.252	1.108768
11.27	1.099509
11.288	1.088582
11.306	1.076342
11.324	1.063244
11.342	1.050062
11.36	1.037686
11.378	1.027118
11.396	1.019198
11.414	1.014559
11.432	1.013429
11.45	1.015634
11.468	1.020732
11.486	1.028013
11.504	1.036591
11.522	1.045563
11.54	1.054179
11.558	1.061720
11.576	1.067836
11.594	1.072321
11.612	1.075200
11.63	1.076776
11.648	1.077332
11.666	1.077155
11.684	1.076421
11.702	1.075375
11.72	1.074042
11.738	1.072414
11.756	1.070579
11.774	1.068641
11.792	1.066594
11.81	1.064425
11.828	1.062073
11.846	1.059418
11.864	1.056102
11.882	1.051875
11.9	1.046301
11.918	1.038953
11.936	1.029308
11.954	1.016976
11.972	1.001622
11.99	0.983096
12.008	0.961670
12.026	0.937951
12.044	0.913114
12.062	0.888784
12.08	0.866837
12.098	0.849138
12.116	0.837221
12.134	0.831957
12.152	0.833399
12.17	0.840730
12.188	0.852520
12.206	0.866882
12.224	0.881952
12.242	0.896160
12.26	0.908480
12.278	0.918348
12.296	0.925652
12.314	0.930673
12.332	0.933784
12.35	0.935452
12.368	0.935964
12.386	0.935731
12.404	0.935052
12.422	0.934049
12.44	0.933028
12.458	0.932150
12.476	0.931544
12.494	0.931388
12.512	0.931765
12.53	0.932677
12.548	0.934091
12.566	0.936000
12.584	0.938382
12.602	0.941140
12.62	0.944133
12.638	0.947310
12.656	0.950535
12.674	0.953723
12.692	0.956694
12.71	0.959283
12.728	0.961496
12.746	0.963173
12.764	0.964350
12.782	0.965026
12.8	0.965243
12.818	0.965070
12.836	0.964624
12.854	0.963952
12.872	0.963191
12.89	0.962303
12.908	0.961388
12.926	0.960425
12.944	0.959449
12.962	0.958474
12.98	0.957535
12.998	0.956604
13.016	0.955682
13.034	0.954769
13.052	0.953906
13.07	0.953005
13.088	0.952125
13.106	0.951249
13.124	0.950476
13.142	0.949733
13.16	0.949065
13.178	0.948403
13.196	0.947781
13.214	0.947070
13.232	0.946215
13.25	0.945111
13.268	0.943724
13.286	0.942112
13.304	0.940276
13.322	0.938278
13.34	0.936197
13.358	0.934166
13.376	0.932196
13.394	0.930321
13.412	0.928597
13.43	0.927014
13.448	0.925490
13.466	0.924020
13.484	0.922571
13.502	0.921039
13.52	0.919376
13.538	0.917575
13.556	0.915565
13.574	0.913353
13.592	0.910955
13.61	0.908400
13.628	0.905688
13.646	0.902906
13.664	0.900090
13.682	0.897241
13.7	0.894403
13.718	0.891595
13.736	0.888817
13.754	0.886023
13.772	0.883236
13.79	0.880474
13.808	0.877762
13.826	0.875084
13.844	0.872416
13.862	0.869753
13.88	0.867112
13.898	0.864489
13.916	0.861871
13.934	0.859253
13.952	0.856624
13.97	0.854001
13.988	0.851363
14.006	0.848711
14.024	0.846045
14.042	0.843388
14.06	0.840720
14.078	0.838024
14.096	0.835283
14.114	0.832475
14.132	0.829620
14.15	0.826690
14.168	0.823593
14.186	0.820395
14.204	0.817091
14.222	0.813662
14.24	0.810096
14.258	0.806360
14.276	0.802425
14.294	0.798249
14.312	0.793778
14.33	0.788952
14.348	0.783726
14.366	0.778033
14.384	0.771913
14.402	0.765425
14.42	0.758697
14.438	0.751873
14.456	0.745153
14.474	0.738800
14.492	0.733050
14.51	0.728098
14.528	0.724117
14.546	0.721145
14.564	0.719201
14.582	0.718228
14.6	0.718052
14.618	0.718460
14.636	0.719202
14.654	0.720092
14.672	0.720944
14.69	0.721615
14.708	0.722002
14.726	0.721994
14.744	0.721678
14.762	0.721028
14.78	0.720123
14.798	0.719028
14.816	0.717768
14.834	0.716404
14.852	0.714959
14.87	0.713473
14.888	0.711978
14.906	0.710487
14.924	0.708982
14.942	0.707450
14.96	0.705876
14.978	0.704267
14.996	0.702634
15.014	0.700974
15.032	0.699267
15.05	0.697548
15.068	0.695809
15.086	0.694049
15.104	0.692296
15.122	0.690583
15.14	0.688880
15.158	0.687174
15.176	0.685451
15.194	0.683688
15.212	0.681862
15.23	0.679937
15.248	0.677898
15.266	0.675750
15.284	0.673490
15.302	0.671144
15.32	0.668732
15.338	0.666277
15.356	0.663816
15.374	0.661368
15.392	0.658964
15.41	0.656629
15.428	0.654389
15.446	0.652193
15.464	0.650053
15.482	0.647967
15.5	0.645913
15.518	0.643849
15.536	0.641777
15.554	0.639694
15.572	0.637588
15.59	0.635443
15.608	0.633288
15.626	0.631141
15.644	0.628993
15.662	0.626904
15.68	0.624850
15.698	0.622814
15.716	0.620866
15.734	0.619002
15.752	0.617208
15.77	0.615465
15.788	0.613763
15.806	0.612104
15.824	0.610480
15.842	0.608855
15.86	0.607222
15.878	0.605581
15.896	0.603931
15.914	0.602259
15.932	0.600568
15.95	0.598855
15.968	0.597120
15.986	0.595393
16.004	0.593651
16.022	0.591857
16.04	0.590050
16.058	0.588211
16.076	0.586325
16.094	0.584345
16.112	0.582274
16.13	0.580122
16.148	0.577918
16.166	0.575594
16.184	0.573160
16.202	0.570651
16.22	0.568022
16.238	0.565280
16.256	0.562434
16.274	0.559480
16.292	0.556441
16.31	0.553336
16.328	0.550141
16.346	0.546899
16.364	0.543637
16.382	0.540375
16.4	0.537165
16.418	0.534047
16.436	0.531096
16.454	0.528356
16.472	0.525863
16.49	0.523676
16.508	0.521792
16.526	0.520214
16.544	0.518994
16.562	0.518088
16.58	0.517465
16.598	0.517111
16.616	0.516960
16.634	0.516953
16.652	0.517008
16.67	0.517099
16.688	0.517202
16.706	0.517240
16.724	0.517192
16.742	0.517034
16.76	0.516740
16.778	0.516309
16.796	0.515755
16.814	0.515073
16.832	0.514268
16.85	0.513382
16.868	0.512416
16.886	0.511370
16.904	0.510322
16.922	0.509266
16.94	0.508180
16.958	0.507137
16.976	0.506147
16.994	0.505179
17.012	0.504257
17.03	0.503394
17.048	0.502621
17.066	0.501922
17.084	0.501262
17.102	0.500659
17.12	0.500111
17.138	0.499563
17.156	0.499034
17.174	0.498548
17.192	0.498021
17.21	0.497445
17.228	0.496823
17.246	0.496170
17.264	0.495498
17.282	0.494783
17.3	0.494024
17.318	0.493209
17.336	0.492360
17.354	0.491488
17.372	0.490610
17.39	0.489727
17.408	0.488848
17.426	0.487971
17.444	0.487094
17.462	0.486226
17.48	0.485370
17.498	0.484547
17.516	0.483742
17.534	0.482946
17.552	0.482152
17.57	0.481359
17.588	0.480568
17.606	0.479777
17.624	0.478974
17.642	0.478177
17.66	0.477394
17.678	0.476603
17.696	0.475806
17.714	0.475005
17.732	0.474222
17.75	0.473492
17.768	0.472789
17.786	0.472109
17.804	0.471454
17.822	0.470823
17.84	0.470213
17.858	0.469634
17.876	0.469102
17.894	0.468592
17.912	0.468095
17.93	0.467616
17.948	0.467152
17.966	0.466683
17.984	0.466200
18.002	0.465686
18.02	0.465140
18.038	0.464560
18.056	0.463934
18.074	0.463258
18.092	0.462518
18.11	0.461713
18.128	0.460852
18.146	0.459937
18.164	0.458976
18.182	0.457967
18.2	0.456906
18.218	0.455811
18.236	0.454691
18.254	0.453557
18.272	0.452415
18.29	0.451252
18.308	0.450070
18.326	0.448889
18.344	0.447713
18.362	0.446566
18.38	0.445440
18.398	0.444330
18.416	0.443232
18.434	0.442140
18.452	0.441061
18.47	0.440002
18.488	0.438949
18.506	0.437894
18.524	0.436846
18.542	0.435810
18.56	0.434776
18.578	0.433746
18.596	0.432703
18.614	0.431647
18.632	0.430597
18.65	0.429550
18.668	0.428473
18.686	0.427372
18.704	0.426282
18.722	0.425192
18.74	0.424072
18.758	0.422930
18.776	0.421771
18.794	0.420598
18.812	0.419426
18.83	0.418248
18.848	0.417060
18.866	0.415859
18.884	0.414639
18.902	0.413407
18.92	0.412172
18.938	0.410937
18.956	0.409713
18.974	0.408500
18.992	0.407303
19.01	0.406119
19.028	0.404937
19.046	0.403769
19.064	0.402635
19.082	0.401522
19.1	0.400417
19.118	0.399330
19.136	0.398271
19.154	0.397237
19.172	0.396229
19.19	0.395244
19.208	0.394276
19.226	0.393327
19.244	0.392406
19.262	0.391509
19.28	0.390623
19.298	0.389749
19.316	0.388875
19.334	0.388002
19.352	0.387129
19.37	0.386258
19.388	0.385398
19.406	0.384551
19.424	0.383672
19.442	0.382756
19.46	0.381815
19.478	0.380849
19.496	0.379858
19.514	0.378848
19.532	0.377800
19.55	0.376700
19.568	0.375556
19.586	0.374373
19.604	0.373151
19.622	0.371897
19.64	0.370608
19.658	0.369286
19.676	0.367929
19.694	0.366538
19.712	0.365111
19.73	0.363667
19.748	0.362208
19.766	0.360728
19.784	0.359219
19.802	0.357697
19.82	0.356174
19.838	0.354641
19.856	0.353092
19.874	0.351532
19.892	0.349978
19.91	0.348428
19.928	0.346886
19.946	0.345353
19.964	0.343823
19.982	0.342293
20	0.340771
20.018	0.339266
20.036	0.337771
20.054	0.336282
20.072	0.334800
20.09	0.333332
20.108	0.331879
20.126	0.330427
20.144	0.328977
20.162	0.327530
20.18	0.326086
20.198	0.324643
20.216	0.323196
20.234	0.321747
20.252	0.320301
20.27	0.318860
20.288	0.317417
20.306	0.315974
20.324	0.314523
20.342	0.313056
20.36	0.311580
20.378	0.310112
20.396	0.308649
20.414	0.307175
20.432	0.305686
20.45	0.304189
20.468	0.302688
20.486	0.301180
20.504	0.299668
20.522	0.298150
20.54	0.296617
20.558	0.295068
20.576	0.293504
20.594	0.291919
20.612	0.290325
20.63	0.288753
20.648	0.287196
20.666	0.285631
20.684	0.284053
20.702	0.282479
20.72	0.280921
20.738	0.279375
20.756	0.277837
20.774	0.276305
20.792	0.274805
20.81	0.273352
20.828	0.271929
20.846	0.270524
20.864	0.269142
20.882	0.267786
20.9	0.266457
20.918	0.265156
20.936	0.263889
20.954	0.262652
20.972	0.261437
20.99	0.260246
21.008	0.259068
21.026	0.257898
21.044	0.256737
21.062	0.255576
21.08	0.254418
21.098	0.253258
21.116	0.252096
21.134	0.250931
21.152	0.249760
21.17	0.248584
21.188	0.247399
21.206	0.246204
21.224	0.244999
21.242	0.243779
21.26	0.242545
21.278	0.241301
21.296	0.240048
21.314	0.238787
21.332	0.237521
21.35	0.236249
21.368	0.234975
21.386	0.233700
21.404	0.232424
21.422	0.231146
21.44	0.229863
21.458	0.228586
21.476	0.227326
21.494	0.226074
21.512	0.224818
21.53	0.223558
21.548	0.222299
21.566	0.221043
21.584	0.219789
21.602	0.218537
21.62	0.217293
21.638	0.216045
21.656	0.214780
21.674	0.213501
21.692	0.212214
21.71	0.210920
21.728	0.209618
21.746	0.208303
21.764	0.206978
21.782	0.205639
21.8	0.204281
21.818	0.202908
21.836	0.201529
21.854	0.200151
21.872	0.198766
21.89	0.197373
21.908	0.195969
21.926	0.194562
21.944	0.193154
21.962	0.191744
21.98	0.190343
21.998	0.188952
22.016	0.187571
22.034	0.186203
22.052	0.184844
22.07	0.183502
22.088	0.182181
22.106	0.180879
22.124	0.179593
22.142	0.178316
22.16	0.177056
22.178	0.175825
22.196	0.174625
22.214	0.173451
22.232	0.172306
22.25	0.171188
22.268	0.170095
22.286	0.169025
22.304	0.167979
22.322	0.166956
22.34	0.165959
22.358	0.164985
22.376	0.164023
22.394	0.163074
22.412	0.162139
22.43	0.161213
22.448	0.160298
22.466	0.159392
22.484	0.158495
22.502	0.157609
22.52	0.156719
22.538	0.155815
22.556	0.154902
22.574	0.153985
22.592	0.153066
22.61	0.152142
22.628	0.151210
22.646	0.150274
22.664	0.149328
22.682	0.148363
22.7	0.147377
22.718	0.146380
22.736	0.145379
22.754	0.144374
22.772	0.143358
22.79	0.142321
22.808	0.141264
22.826	0.140201
22.844	0.139143
22.862	0.138086
22.88	0.137024
22.898	0.135951
22.916	0.134872
22.934	0.133788
22.952	0.132701
22.97	0.131609
22.988	0.130517
23.006	0.129425
23.024	0.128332
23.042	0.127235
23.06	0.126134
23.078	0.125029
23.096	0.123920
23.114	0.122806
23.132	0.121688
23.15	0.120572
23.168	0.119459
23.186	0.118348
23.204	0.117241
23.222	0.116140
23.24	0.115043
23.258	0.113950
23.276	0.112859
23.294	0.111773
23.312	0.110699
23.33	0.109642
23.348	0.108595
23.366	0.107559
23.384	0.106529
23.402	0.105510
23.42	0.104502
23.438	0.103505
23.456	0.102520
23.474	0.101551
23.492	0.100604
23.51	0.099674
23.528	0.098753
23.546	0.097837
23.564	0.096931
23.582	0.096035
23.6	0.095153
23.618	0.094283
23.636	0.093420
23.654	0.092561
23.672	0.091708
23.69	0.090862
23.708	0.090026
23.726	0.089199
23.744	0.088381
23.762	0.087571
23.78	0.086772
23.798	0.085979
23.816	0.085189
23.834	0.084404
23.852	0.083621
23.87	0.082832
23.888	0.082037
23.906	0.081238
23.924	0.080441
23.942	0.079650
23.96	0.078859
23.978	0.078064
23.996	0.077259
24.014	0.076446
24.032	0.075632
24.05	0.074819
24.068	0.074007
24.086	0.073191
24.104	0.072368
24.122	0.071539
24.14	0.070704
24.158	0.069863
24.176	0.069014
24.194	0.068160
24.212	0.067308
24.23	0.066458
24.248	0.065609
24.266	0.064764
24.284	0.063926
24.302	0.063090
24.32	0.062265
24.338	0.061458
24.356	0.060667
24.374	0.059890
24.392	0.059125
24.41	0.058366
24.428	0.057620
24.446	0.056895
24.464	0.056199
24.482	0.055527
24.5	0.054874
24.518	0.054239
24.536	0.053623
24.554	0.053024
24.572	0.052435
24.59	0.051854
24.608	0.051284
24.626	0.050729
24.644	0.050195
24.662	0.049681
24.68	0.049174
24.698	0.048662
24.716	0.048152
24.734	0.047641
24.752	0.047125
24.77	0.046600
24.788	0.046069
24.806	0.045534
24.824	0.044997
24.842	0.044456
24.86	0.043912
24.878	0.043367
24.896	0.042823
24.914	0.042278
24.932	0.041729
24.95	0.041175
24.968	0.040613
24.986	0.040054
25.004	0.039503
25.022	0.038960
25.04	0.038423
25.058	0.037898
25.076	0.037388
25.094	0.036889
25.112	0.036404
25.13	0.035937
25.148	0.035487
25.166	0.035054
25.184	0.034635
25.202	0.034228
25.22	0.033835
25.238	0.033457
25.256	0.033095
25.274	0.032754
25.292	0.032428
25.31	0.032109
25.328	0.031793
25.346	0.031486
25.364	0.031181
25.382	0.030877
25.4	0.030573
25.418	0.030270
25.436	0.029963
25.454	0.029649
25.472	0.029331
25.49	0.029008
25.508	0.028675
25.526	0.028333
25.544	0.027982
25.562	0.027622
25.58	0.027251
25.598	0.026869
25.616	0.026476
25.634	0.026074
25.652	0.025664
25.67	0.025243
25.688	0.024816
25.706	0.024388
25.724	0.023963
25.742	0.023537
25.76	0.023108
25.778	0.022676
25.796	0.022235
25.814	0.021792
25.832	0.021355
25.85	0.020934
25.868	0.020525
25.886	0.020124
25.904	0.019729
25.922	0.019337
25.94	0.018949
25.958	0.018569
25.976	0.018198
25.994	0.017838
26.012	0.017487
26.03	0.017144
26.048	0.016811
26.066	0.016489
26.084	0.016176
26.102	0.015866
26.12	0.015558
26.138	0.015253
26.156	0.014952
26.174	0.014656
26.192	0.014367
26.21	0.014084
26.228	0.013806
26.246	0.013529
26.264	0.013252
26.282	0.012977
26.3	0.012704
26.318	0.012436
26.336	0.012170
26.354	0.011908
26.372	0.011651
26.39	0.011402
26.408	0.011162
26.426	0.010928
26.444	0.010699
26.462	0.010475
26.48	0.010255
26.498	0.010040
26.516	0.009831
26.534	0.009629
26.552	0.009434
26.57	0.009246
26.588	0.009064
26.606	0.008888
26.624	0.008718
26.642	0.008555
26.66	0.008400
26.678	0.008253
26.696	0.008117
26.714	0.007988
26.732	0.007861
26.75	0.007736
26.768	0.007614
26.786	0.007495
26.804	0.007379
26.822	0.007266
26.84	0.007158
26.858	0.007053
26.876	0.006947
26.894	0.006840
26.912	0.006733
26.93	0.006626
26.948	0.006520
26.966	0.006413
26.984	0.006296
27.002	0.006187
27.02	0.006102
27.028	0.006079