File: Bakgrunnsmateriale/MATLAB/FTIR/ftir_data/LPE453/Mapping_121/LPE453_t112_cm-1.asc
PE IR       SPECTRUM    SPECTRUM    ASCII       PEDS        1.60
  -1
LP05FC~1.ASC
17/05/16
23:36:28.00
17/05/16
23:36:28.00
tln
$LPE453_t0112$<tbV0>[10.4,13.0,8.0,0.0,27,1,0]
370
64

2002,4.07
MIRTGS : RIGHTBACK : INTERNAL 2
MIR : ON : INTERNAL 2
OPTKBR

0.200000
8
8.000000
FILLER
RATIO
SPECTRUM
UNLOCKED 256

DOUBLE
64
COMBINED
1
0
0

1.000000
RATIO

1
0
TRUE
51149
0
LEFT NOT FITTED RIGHT NOT FITTED 0
NONE
NONE
15600
12
4.427000
51148
TRUE
1 0 8 72 0 0 0 0

15798

#HDR
-1
-1
#GR
CM-1
%T
2.38419e-05
0.0
5000
-1.000000
4631
8
29.7599
-2.421617
#DATA
5000	0.212597
4996	0.023460
4992	0.011682
4988	0.255894
4984	0.463843
4980	0.403308
4976	0.104856
4972	-0.211191
4968	-0.160312
4964	0.304079
4960	0.694465
4956	0.706410
4952	0.470256
4948	0.148606
4944	0.077557
4940	0.194406
4936	0.224900
4932	0.320768
4928	0.357675
4924	0.221395
4920	0.078511
4916	0.068926
4912	0.144386
4908	0.075697
4904	0.049614
4900	0.148940
4896	0.137376
4892	0.176739
4888	0.186562
4884	0.088238
4880	0.043106
4876	-0.088715
4872	-0.193738
4868	0.012421
4864	0.189924
4860	0.143480
4856	0.281214
4852	0.461220
4848	0.432395
4844	0.412416
4840	0.352549
4836	0.243759
4832	0.112056
4828	-0.044131
4824	0.039458
4820	0.261759
4816	0.299286
4812	0.321221
4808	0.297832
4804	0.078225
4800	0.059199
4796	0.305247
4792	0.417184
4788	0.364398
4784	0.276994
4780	0.277686
4776	0.347852
4772	0.359606
4768	0.362539
4764	0.458550
4760	0.672578
4756	0.750732
4752	0.640177
4748	0.430893
4744	0.242328
4740	0.366950
4736	0.270652
4732	-0.101304
4728	0.222420
4724	0.656294
4720	0.297999
4716	-0.140738
4712	-0.272417
4708	0.034284
4704	0.872325
4700	1.079916
4696	0.259041
4692	-0.091314
4688	0.129532
4684	-0.244665
4680	-0.741124
4676	-0.209808
4672	1.295614
4668	2.424573
4664	2.179598
4660	1.428365
4656	1.129007
4652	0.591969
4648	0.096392
4644	0.281190
4640	-0.168514
4636	-0.777626
4632	-0.332331
4628	0.486421
4624	0.874567
4620	0.777149
4616	0.431895
4612	0.330448
4608	0.768852
4604	1.189947
4600	0.860309
4596	0.694131
4592	0.928640
4588	0.977802
4584	0.823259
4580	0.359606
4576	-0.175929
4572	-0.613260
4568	-1.038479
4564	-1.122522
4560	-0.716614
4556	-0.392818
4552	-0.303816
4548	-0.314164
4544	-0.503611
4540	-0.570034
4536	-0.807356
4532	-1.431059
4528	-2.041006
4524	-2.393341
4520	-2.222776
4516	-1.392936
4512	-0.221824
4508	0.607848
4504	-0.018358
4500	-0.851488
4496	6.400132
4492	22.1203
4488	24.3237
4484	9.795498
4480	0.534701
4476	1.979804
4472	2.027320
4468	-0.159740
4464	-0.581765
4460	-1.250982
4456	-2.046513
4452	-1.919937
4448	-1.288390
4444	-0.904440
4440	-0.669932
4436	-0.500035
4432	-0.481104
4428	-0.383424
4424	-0.293588
4420	-0.356292
4416	-0.238895
4412	0.153708
4408	0.553822
4404	0.751781
4400	0.663423
4396	0.618195
4392	0.769352
4388	0.764703
4384	0.618004
4380	0.683522
4376	0.906109
4372	0.936436
4368	0.740861
4364	0.694417
4360	0.815367
4356	0.795674
4352	0.578951
4348	0.221395
4344	-0.017189
4340	0.116896
4336	0.413036
4332	0.558352
4328	0.456261
4324	0.253248
4320	0.298118
4316	0.503492
4312	0.281429
4308	-0.167632
4304	-0.165867
4300	0.124001
4296	0.336480
4292	0.343513
4288	0.138187
4284	-0.082969
4280	-0.140213
4276	-0.084519
4272	-0.083494
4268	-0.094723
4264	-0.012278
4260	0.009989
4256	-0.045418
4252	-0.034117
4248	-0.088763
4244	-0.114870
4240	-0.086283
4236	-0.128984
4232	-0.085425
4228	0.019240
4224	0.090503
4220	0.052738
4216	0.054192
4212	0.196409
4208	0.166773
4204	-0.029587
4200	-0.103306
4196	-0.058603
4192	0.018429
4188	0.151371
4184	0.179147
4180	0.241494
4176	0.261926
4172	0.139546
4168	0.188159
4164	0.302171
4160	0.250577
4156	0.189471
4152	0.186681
4148	0.177812
4144	0.206899
4140	0.299382
4136	0.327801
4132	0.278329
4128	0.248122
4124	0.187039
4120	0.104284
4116	0.005793
4112	-0.116443
4108	-0.056910
4104	0.185799
4100	0.345349
4096	0.289797
4092	0.092744
4088	-0.095272
4084	-0.098657
4080	0.112414
4076	0.218820
4072	0.113201
4068	-0.010657
4064	-0.105762
4060	-0.083732
4056	-0.036716
4052	-0.095582
4048	-0.047755
4044	0.140380
4040	0.251007
4036	0.199842
4032	0.077891
4028	-0.005888
4024	-0.024533
4020	0.012588
4016	0.066018
4012	0.119590
4008	0.153398
4004	0.107502
4000	0.055456
3996	0.085878
3992	0.092768
3988	0.027680
3984	-0.088477
3980	-0.148367
3976	-0.051164
3972	0.077056
3968	0.082898
3964	-0.015568
3960	-0.096559
3956	-0.132799
3952	-0.141906
3948	-0.075316
3944	0.073766
3940	0.102162
3936	-0.028562
3932	-0.084042
3928	-0.041604
3924	0.042510
3920	0.116658
3916	0.067472
3912	-0.059223
3908	-0.106763
3904	-0.056385
3900	0.015449
3896	0.030064
3892	0.057291
3888	0.094032
3884	0.060415
3880	0.095534
3876	0.125646
3872	0.147962
3868	0.216436
3864	0.196290
3860	0.150179
3856	0.083279
3852	0.014615
3848	0.110769
3844	0.212740
3840	0.114846
3836	0.010824
3832	0.052285
3828	0.087547
3824	0.110626
3820	0.133657
3816	-0.008416
3812	-0.172567
3808	-0.164198
3804	-0.054979
3800	0.124788
3796	0.213956
3792	0.096559
3788	-0.025749
3784	-0.057220
3780	-0.069618
3776	-0.076961
3772	-0.050735
3768	0.028991
3764	0.108766
3760	0.132513
3756	0.144839
3752	0.136852
3748	0.074768
3744	0.022792
3740	0.007534
3736	0.014066
3732	0.058007
3728	0.108385
3724	0.118494
3720	0.070691
3716	-0.006675
3712	-0.079965
3708	-0.095343
3704	0.041103
3700	0.208640
3696	0.217843
3692	0.099682
3688	0.032138
3684	0.072097
3680	0.088667
3676	0.077772
3672	0.089097
3668	0.066304
3664	0.041532
3660	0.103735
3656	0.136423
3652	0.055193
3648	0.023841
3644	0.046133
3640	0.013732
3636	0.013518
3632	0.085735
3628	0.125098
3624	0.127720
3620	0.130701
3616	0.122499
3612	0.117301
3608	0.119781
3604	0.082755
3600	0.054764
3596	0.109100
3592	0.128483
3588	0.026655
3584	-0.075268
3580	-0.063753
3576	-0.008940
3572	0.004482
3568	0.076222
3564	0.197315
3560	0.202775
3556	0.101757
3552	-0.001311
3548	-0.047206
3544	-0.042891
3540	-0.063776
3536	-0.076508
3532	-0.003838
3528	0.082087
3524	0.161361
3520	0.207901
3516	0.133228
3512	0.054407
3508	0.094676
3504	0.132775
3500	0.098538
3496	0.021743
3492	-0.068163
3488	-0.041222
3484	0.045967
3480	0.065398
3476	0.060486
3472	0.038576
3468	-0.012588
3464	-0.058746
3460	-0.107598
3456	-0.187516
3452	-0.168180
3448	-0.076770
3444	-0.097608
3440	-0.106263
3436	-0.028347
3432	0.025367
3428	0.071549
3424	0.097441
3420	0.040411
3416	-0.004959
3412	0.058913
3408	0.085353
3404	-0.003194
3400	-0.041699
3396	0.042653
3392	0.099563
3388	0.038957
3384	-0.019550
3380	-0.009870
3376	0.003933
3372	-0.012731
3368	-0.011372
3364	0.071549
3360	0.216889
3356	0.305271
3352	0.251865
3348	0.129652
3344	0.071024
3340	0.059604
3336	0.008678
3332	0.002360
3328	0.119280
3324	0.227522
3320	0.236725
3316	0.176429
3312	0.087332
3308	0.048184
3304	0.070786
3300	0.094103
3296	0.098752
3292	0.103592
3288	0.098347
3284	0.061869
3280	0.041508
3276	0.049877
3272	0.000596
3268	-0.080680
3264	-0.040912
3260	0.101947
3256	0.180816
3252	0.179767
3248	0.177574
3244	0.148630
3240	0.091695
3236	0.049638
3232	0.012826
3228	0.005769
3224	0.041484
3220	0.050926
3216	0.006437
3212	0.002121
3208	0.042486
3204	-0.010919
3200	-0.049805
3196	0.040102
3192	0.059103
3188	0.020551
3184	0.067305
3180	0.096249
3176	0.092864
3172	0.131869
3168	0.135278
3164	0.078296
3160	0.049996
3156	0.024986
3152	-0.007748
3148	-0.021052
3144	-0.023269
3140	-0.017261
3136	-0.041460
3132	-0.067806
3128	-0.074315
3124	-0.129342
3120	-0.200200
3116	-0.150847
3112	0.013637
3108	0.127601
3104	0.176858
3100	0.212550
3096	0.151872
3092	0.055956
3088	0.061798
3084	0.081276
3080	0.000190
3076	-0.111556
3072	-0.118494
3068	-0.011730
3064	0.101041
3060	0.117111
3056	0.021696
3052	-0.048947
3048	-0.012135
3044	0.039005
3040	0.037479
3036	0.014829
3032	0.007629
3028	0.019860
3024	0.057339
3020	0.063252
3016	0.005841
3012	-0.007796
3008	0.038313
3004	0.042033
3000	0.021076
2996	0.021767
2992	-0.003576
2988	-0.063276
2984	-0.114083
2980	-0.124883
2976	-0.104546
2972	-0.091600
2968	-0.097513
2964	-0.100111
2960	-0.054144
2956	-0.016856
2952	-0.002312
2948	0.051498
2944	0.079798
2940	0.025510
2936	-0.038576
2932	-0.041747
2928	0.022459
2924	0.106501
2920	0.141549
2916	0.136780
2912	0.044584
2908	-0.049304
2904	-0.000548
2900	0.058317
2896	0.042676
2892	0.022816
2888	0.055432
2884	0.093507
2880	0.082564
2876	0.056648
2872	0.090575
2868	0.164079
2864	0.126743
2860	0.021004
2856	-0.010585
2852	-0.028538
2848	-0.040793
2844	0.011920
2840	0.044775
2836	0.041484
2832	0.085067
2828	0.098633
2824	0.036907
2820	0.051140
2816	0.163507
2812	0.210976
2808	0.145292
2804	0.057721
2800	0.009584
2796	0.030994
2792	0.061178
2788	0.048255
2784	0.025606
2780	-0.001692
2776	-0.012421
2772	0.012516
2768	0.025653
2764	0.009560
2760	-0.000381
2756	0.000882
2752	0.046467
2748	0.102281
2744	0.081896
2740	0.020742
2736	-0.017309
2732	-0.011420
2728	-0.002002
2724	-0.020766
2720	-0.043344
2716	-0.071930
2712	-0.080633
2708	0.000095
2704	0.110793
2700	0.132870
2696	0.120639
2692	0.097274
2688	0.055074
2684	0.030207
2680	0.033283
2676	0.093626
2672	0.155067
2668	0.163412
2664	0.133943
2660	0.138974
2656	0.207471
2652	0.191473
2648	0.056481
2644	-0.018715
2640	0.014233
2636	0.055766
2632	0.056838
2628	-0.003695
2624	-0.076436
2620	-0.069093
2616	0.015211
2612	0.054216
2608	-0.001573
2604	-0.031805
2600	0.008034
2596	0.072622
2592	0.094723
2588	0.031065
2584	-0.011491
2580	0.048089
2576	0.114464
2572	0.093293
2568	0.047492
2564	0.056958
2560	0.077366
2556	0.067925
2552	0.074291
2548	0.110363
2544	0.102281
2540	0.039505
2536	-0.001978
2532	0.007009
2528	0.033187
2524	0.037360
2520	0.000619
2516	-0.038027
2512	-0.007557
2508	0.044441
2504	0.095224
2500	0.123882
2496	0.074362
2492	0.014495
2488	-0.045084
2484	-0.093483
2480	-0.076961
2476	-0.042200
2472	-0.023603
2468	0.009155
2464	0.054645
2460	0.065469
2456	0.041389
2452	0.018715
2448	0.011444
2444	0.005531
2440	0.006008
2436	-0.013065
2432	-0.073289
2428	-0.139260
2424	-0.139188
2420	-0.029969
2416	0.064659
2412	0.067377
2408	0.051069
2404	0.011563
2400	-0.043058
2396	-0.055646
2392	-0.033783
2388	-0.000810
2384	0.021290
2380	0.025248
2376	-0.007319
2372	-0.026178
2368	0.049304
2364	0.127124
2360	0.098705
2356	0.033235
2352	0.043845
2348	0.122857
2344	0.173854
2340	0.156259
2336	0.079941
2332	0.001430
2328	-0.000524
2324	0.069475
2320	0.147271
2316	0.190234
2312	0.208234
2308	0.206613
2304	0.194382
2300	0.200986
2296	0.259089
2292	0.338554
2288	0.374293
2284	0.394988
2280	0.430679
2276	0.473141
2272	0.497364
2268	0.510525
2264	0.559759
2260	0.623774
2256	0.702381
2252	0.804281
2248	0.907540
2244	1.007294
2240	1.094007
2236	1.187920
2232	1.302289
2228	1.448702
2224	1.627588
2220	1.776528
2216	1.906871
2212	2.061700
2208	2.223420
2204	2.402019
2200	2.598166
2196	2.796006
2192	3.006339
2188	3.234863
2184	3.479933
2180	3.736519
2176	3.989720
2172	4.265618
2168	4.580879
2164	4.887366
2160	5.161738
2156	5.453753
2152	5.763268
2148	6.046319
2144	6.369376
2140	6.766796
2136	7.160258
2132	7.513976
2128	7.879996
2124	8.290505
2120	8.705377
2116	9.071254
2112	9.397864
2108	9.764456
2104	10.1681
2100	10.5737
2096	10.9904
2092	11.3756
2088	11.7205
2084	12.0928
2080	12.4891
2076	12.8449
2072	13.1512
2068	13.5008
2064	13.9452
2060	14.368
2056	14.7309
2052	15.1148
2048	15.5055
2044	15.8515
2040	16.1903
2036	16.5632
2032	16.9474
2028	17.2879
2024	17.5595
2020	17.8432
2016	18.1502
2012	18.4443
2008	18.783
2004	19.1441
2000	19.4591
1996	19.7118
1992	19.9177
1988	20.1544
1984	20.4654
1980	20.7721
1976	21.0094
1972	21.2297
1968	21.4622
1964	21.6609
1960	21.849
1956	22.073
1952	22.3191
1948	22.5749
1944	22.839
1940	23.0835
1936	23.2734
1932	23.4502
1928	23.641
1924	23.7968
1920	23.9145
1916	24.0488
1912	24.2332
1908	24.4023
1904	24.5013
1900	24.6052
1896	24.7535
1892	24.9151
1888	25.0732
1884	25.2109
1880	25.3371
1876	25.4508
1872	25.5463
1868	25.667
1864	25.8173
1860	25.9584
1856	26.0865
1852	26.1807
1848	26.2358
1844	26.3187
1840	26.4222
1836	26.4991
1832	26.5871
1828	26.6955
1824	26.7602
1820	26.8137
1816	26.9139
1812	26.9906
1808	27.0273
1804	27.0875
1800	27.1697
1796	27.2392
1792	27.2871
1788	27.3571
1784	27.4336
1780	27.4535
1776	27.4652
1772	27.5078
1768	27.5585
1764	27.5744
1760	27.5709
1756	27.6012
1752	27.6631
1748	27.7575
1744	27.8436
1740	27.891
1736	27.9446
1732	28.0012
1728	28.0416
1724	28.0823
1720	28.1087
1716	28.1288
1712	28.1616
1708	28.219
1704	28.2954
1700	28.346
1696	28.3433
1692	28.3079
1688	28.3284
1684	28.413
1680	28.442
1676	28.4296
1672	28.4843
1668	28.5511
1664	28.5656
1660	28.5691
1656	28.577
1652	28.6323
1648	28.7501
1644	28.8227
1640	28.8281
1636	28.8296
1632	28.8357
1628	28.8506
1624	28.8503
1620	28.794
1616	28.7447
1612	28.8019
1608	28.9475
1604	29.0388
1600	29.0107
1596	29.0038
1592	29.0893
1588	29.1268
1584	29.0905
1580	29.0699
1576	29.0775
1572	29.0843
1568	29.1025
1564	29.0999
1560	29.0624
1556	29.0176
1552	28.9327
1548	28.8806
1544	28.9395
1540	29.009
1536	29.0382
1532	29.0791
1528	29.1082
1524	29.115
1520	29.1275
1516	29.1157
1512	29.0742
1508	29.0423
1504	29.0365
1500	29.0272
1496	29.0079
1492	29.0274
1488	29.0448
1484	29.0105
1480	29.0162
1476	29.1152
1472	29.1941
1468	29.1907
1464	29.1904
1460	29.1692
1456	29.0509
1452	28.9431
1448	28.9596
1444	29.015
1440	29.066
1436	29.1588
1432	29.1944
1428	29.1455
1424	29.1549
1420	29.2018
1416	29.1829
1412	29.1582
1408	29.1872
1404	29.193
1400	29.1185
1396	29.0462
1392	29.0371
1388	29.0474
1384	29.0784
1380	29.1738
1376	29.2666
1372	29.2685
1368	29.2085
1364	29.12
1360	29.068
1356	29.1083
1352	29.1467
1348	29.1194
1344	29.0326
1340	28.9201
1336	28.8462
1332	28.8059
1328	28.8392
1324	28.9681
1320	29.0328
1316	28.9808
1312	28.926
1308	28.9117
1304	28.8922
1300	28.8646
1296	28.854
1292	28.8114
1288	28.7719
1284	28.7964
1280	28.8009
1276	28.7766
1272	28.8005
1268	28.8244
1264	28.777
1260	28.7228
1256	28.7692
1252	28.8534
1248	28.8309
1244	28.7092
1240	28.5817
1236	28.5444
1232	28.5892
1228	28.5988
1224	28.5991
1220	28.6161
1216	28.6004
1212	28.6153
1208	28.6459
1204	28.5788
1200	28.4688
1196	28.4543
1192	28.4513
1188	28.3735
1184	28.4195
1180	28.5813
1176	28.6161
1172	28.5595
1168	28.5084
1164	28.4704
1160	28.4592
1156	28.4425
1152	28.4353
1148	28.4252
1144	28.3579
1140	28.2165
1136	28.0917
1132	28.1097
1128	28.2133
1124	28.2843
1120	28.2414
1116	28.1304
1112	28.1219
1108	28.1746
1104	28.1267
1100	28.0624
1096	28.1246
1092	28.1694
1088	28.0903
1084	28.0324
1080	27.9934
1076	27.9326
1072	27.8953
1068	27.8537
1064	27.8468
1060	27.8938
1056	27.9251
1052	27.9328
1048	27.9247
1044	27.8155
1040	27.675
1036	27.6388
1032	27.6315
1028	27.615
1024	27.5852
1020	27.5346
1016	27.5487
1012	27.5873
1008	27.5004
1004	27.3575
1000	27.351
996	 27.4533
992	 27.5097
988	 27.4968
984	 27.4716
980	 27.3916
976	 27.248
972	 27.1741
968	 27.1747
964	 27.1754
960	 27.2212
956	 27.2734
952	 27.2463
948	 27.1899
944	 27.0862
940	 26.9057
936	 26.8505
932	 26.9485
928	 26.9697
924	 26.9248
920	 26.9432
916	 26.9841
912	 26.9175
908	 26.7688
904	 26.6598
900	 26.6136
896	 26.6392
892	 26.6491
888	 26.5939
884	 26.5515
880	 26.4935
876	 26.3862
872	 26.2647
868	 26.2115
864	 26.2555
860	 26.2408
856	 26.0659
852	 25.9358
848	 25.9348
844	 25.8987
840	 25.8789
836	 25.9014
832	 25.8727
828	 25.8241
824	 25.7648
820	 25.6795
816	 25.5841
812	 25.4848
808	 25.4122
804	 25.4025
800	 25.4496
796	 25.4714
792	 25.4897
788	 25.5234
784	 25.4955
780	 25.4004
776	 25.2724
772	 25.1732
768	 25.0193
764	 24.7989
760	 24.6051
756	 24.4721
752	 24.5224
748	 24.6694
744	 24.6238
740	 24.4949
736	 24.5395
732	 24.585
728	 24.5779
724	 24.5664
720	 24.3924
716	 24.0988
712	 23.8948
708	 23.8716
704	 23.8667
700	 23.784
696	 23.7313
692	 23.6562
688	 23.6152
684	 23.6636
680	 23.5907
676	 23.5141
672	 23.5344
668	 23.4684
664	 23.3758
660	 23.2601
656	 23.1409
652	 23.0825
648	 22.9218
644	 22.7114
640	 22.5364
636	 22.4665
632	 22.6103
628	 22.6816
624	 22.532
620	 22.4335
616	 22.3743
612	 22.2479
608	 22.2306
604	 22.0444
600	 21.6624
596	 21.669
592	 21.8202
588	 21.7658
584	 21.7054
580	 21.6941
576	 21.6866
572	 21.6929
568	 21.6464
564	 21.5554
560	 21.44
556	 21.0951
552	 20.6215
548	 20.6076
544	 21.0574
540	 21.0271
536	 20.6143
532	 20.6128
528	 20.7387
524	 20.6626
520	 20.406
516	 20.2055
512	 20.3265
508	 20.5243
504	 20.5259
500	 20.3431
496	 19.9965
492	 19.6723
488	 19.5567
484	 19.3832
480	 19.0805
476	 19.0315
472	 19.2206
468	 19.2227
464	 18.7602
460	 17.996
456	 17.4439
452	 17.054
448	 16.9256
444	 17.3401
440	 18.1516
436	 18.4655
432	 17.4389
428	 16.1216
424	 15.3169
420	 15.3671
416	 15.7692
412	 15.0795
408	 12.2414
404	 9.073185
400	 7.959413
396	 5.209755
392	 2.439022
388	 7.182836
384	 19.5792
380	 27.6102
376	 29.471
372	 14.4341
370	 -0.635361