File: Bakgrunnsmateriale/MATLAB/FTIR/ftir_data/LPE453/Mapping_121/LPE453_t34.asc
PE IR       SPECTRUM    SPECTRUM    ASCII       PEDS        1.60
  -1
LPDF99~1.ASC
17/05/16
17:08:36.00
17/05/16
17:09:03.00
tln
$LPE453_t0034$<tbV0>[13.0,-5.2,8.0,0.0,27,1,0]
27.028
64

2002,4.07
MIRTGS : RIGHTBACK : INTERNAL 2
MIR : ON : INTERNAL 2
OPTKBR

0.200000
8
8.000000
FILLER
RATIO
SPECTRUM
UNLOCKED 256

DOUBLE
64
COMBINED
1
0
0

0.002000
RATIO

1
0
TRUE
51149
0
LEFT NOT FITTED RIGHT NOT FITTED 0
NONE
NONE
15600
12
4.427000
51148
TRUE
1 0 8 72 0 0 0 0

15798

#HDR
-1
-1
#GR
µM
%T
2.38419e-05
0.0
2.000000
0.002000
12515
8
36.4946
-18.1822
#DATA
2.000000	 -0.196623
2.018000	 -0.487452
2.036000	 0.230119
2.054000	 0.752306
2.072000	 0.426095
2.090000	 0.215762
2.108000	 -0.064238
2.126000	 0.103790
2.144000	 0.240802
2.162000	 1.124923
2.180000	 -0.468871
2.198000	 -1.994039
2.216000	 36.4946
2.234000	 -1.078500
2.252000	 -0.659469
2.270000	 1.048362
2.288000	 1.038184
2.306000	 0.174497
2.324000	 0.323742
2.342000	 0.106948
2.360000	 0.399909
2.378000	 0.319663
2.396000	 0.358101
2.414000	 0.193514
2.432000	 0.034275
2.450000	 0.096091
2.468000	 -0.023567
2.486000	 -0.061493
2.504000	 0.063663
2.522000	 0.114612
2.540000	 0.205637
2.558000	 0.207772
2.576000	 0.039430
2.594000	 -0.032741
2.612000	 -0.032741
2.630000	 0.091870
2.648000	 0.115403
2.666000	 0.130675
2.684000	 0.173415
2.702000	 0.057583
2.720000	 -0.202135
2.738000	 0.010837
2.756000	 0.099514
2.774000	 0.139291
2.792000	 0.105775
2.810000	 0.194850
2.828000	 0.109774
2.846000	 0.197528
2.864000	 0.187719
2.882000	 0.004862
2.900000	 0.116955
2.918000	 0.146496
2.936000	 0.006348
2.954000	 0.049138
2.972000	 0.000218
2.990000	 0.005230
3.008000	 0.114174
3.026000	 -0.093316
3.044000	 0.088417
3.062000	 0.140333
3.080000	 0.122057
3.098000	 0.037359
3.116000	 -0.057066
3.134000	 -0.032329
3.152000	 0.059774
3.170000	 -0.026162
3.188000	 0.041546
3.206000	 0.048530
3.224000	 -0.002521
3.242000	 0.013887
3.260000	 -0.058629
3.278000	 0.014455
3.296000	 0.115989
3.314000	 0.034654
3.332000	 0.162841
3.350000	 0.048137
3.368000	 -0.063705
3.386000	 0.007098
3.404000	 -0.000151
3.422000	 0.088962
3.440000	 -0.090781
3.458000	 0.129316
3.476000	 0.046938
3.494000	 -0.011638
3.512000	 0.230381
3.530000	 0.102710
3.548000	 0.050281
3.566000	 0.076167
3.584000	 0.018962
3.602000	 0.023897
3.620000	 -0.010044
3.638000	 0.041171
3.656000	 0.099977
3.674000	 0.041954
3.692000	 0.058308
3.710000	 0.109349
3.728000	 0.036598
3.746000	 0.000980
3.764000	 0.017482
3.782000	 -0.021687
3.800000	 -0.038564
3.818000	 0.133200
3.836000	 -0.025340
3.854000	 0.031456
3.872000	 0.004320
3.890000	 0.035693
3.908000	 0.126870
3.926000	 0.026641
3.944000	 0.050153
3.962000	 0.081929
3.980000	 0.164596
3.998000	 0.140255
4.016000	 0.110806
4.034000	 0.144153
4.052000	 0.034377
4.070000	 0.077657
4.088000	 0.021278
4.106000	 -0.014965
4.124000	 -0.013605
4.141999	 0.199756
4.160000	 0.041971
4.178000	 -0.023466
4.196000	 -0.065416
4.214000	 0.011889
4.232000	 -0.029409
4.250000	 -0.079746
4.268000	 -0.130268
4.286000	 -0.001345
4.304000	 -0.024313
4.322000	 -0.042611
4.340000	 0.047777
4.358000	 0.068572
4.375999	 0.043349
4.394000	 0.098125
4.412000	 0.150543
4.430000	 0.162054
4.448000	 0.317767
4.466000	 0.401960
4.484000	 0.601647
4.502000	 0.766777
4.520000	 0.966506
4.538000	 1.225838
4.556000	 1.490461
4.574000	 1.718390
4.592000	 2.200900
4.609999	 2.625716
4.628000	 2.935118
4.646000	 3.371379
4.664000	 3.837646
4.682000	 4.596750
4.700000	 5.309273
4.718000	 5.933655
4.736000	 6.625075
4.754000	 7.208940
4.772000	 7.805763
4.790000	 8.445496
4.808000	 9.189263
4.826000	 9.881337
4.843999	 10.5386
4.862000	 11.3509
4.880000	 11.9261
4.898000	 12.6552
4.916000	 13.2741
4.934000	 13.9017
4.952000	 14.5731
4.970000	 15.0275
4.988000	 15.606
5.006000	 16.213
5.024000	 16.693
5.042000	 17.1218
5.060000	 17.7688
5.077999	 18.1297
5.096000	 18.3929
5.114000	 18.8723
5.132000	 19.2551
5.150000	 19.5477
5.168000	 19.9391
5.186000	 20.3258
5.204000	 20.6006
5.222000	 20.9225
5.240000	 21.2055
5.258000	 21.5485
5.276000	 21.6809
5.294000	 21.7465
5.312000	 21.9818
5.330000	 22.3421
5.348000	 22.5612
5.366000	 22.7857
5.384000	 22.8824
5.402000	 23.0505
5.420000	 23.1563
5.438000	 23.3362
5.456000	 23.5544
5.474000	 23.6673
5.492000	 23.7528
5.510000	 23.976
5.528000	 24.0948
5.546000	 24.1004
5.564000	 24.2313
5.582000	 24.3144
5.600000	 24.4064
5.618000	 24.5205
5.636000	 24.5758
5.654000	 24.5924
5.672000	 24.6237
5.690000	 24.7244
5.708000	 24.8058
5.726000	 24.8978
5.744000	 24.9909
5.762000	 25.0314
5.780000	 25.0243
5.798000	 24.9607
5.816000	 24.9778
5.834000	 25.0834
5.852000	 25.1943
5.870000	 25.2721
5.888000	 25.4333
5.906000	 25.5304
5.923999	 25.5309
5.942000	 25.4487
5.960000	 25.3091
5.978000	 25.2642
5.996000	 25.3381
6.014000	 25.4341
6.032000	 25.5028
6.050000	 25.62
6.068000	 25.7033
6.086000	 25.6869
6.104000	 25.6597
6.122000	 25.5933
6.140000	 25.5813
6.158000	 25.6401
6.176000	 25.6719
6.194000	 25.6789
6.212000	 25.6941
6.230000	 25.7095
6.248000	 25.7257
6.266000	 25.7412
6.284000	 25.7517
6.302000	 25.7644
6.320000	 25.8088
6.338000	 25.8569
6.356000	 25.8247
6.374000	 25.8236
6.392000	 25.9456
6.410000	 26.0113
6.428000	 25.9649
6.446000	 25.8875
6.464000	 25.7924
6.482000	 25.7535
6.500000	 25.8372
6.518000	 25.898
6.536000	 25.8896
6.554000	 25.8808
6.572000	 25.8941
6.590000	 25.9245
6.608000	 25.9251
6.626000	 25.8772
6.644000	 25.7725
6.662000	 25.7277
6.680000	 25.8098
6.698000	 25.8311
6.716000	 25.7394
6.734000	 25.7216
6.752000	 25.81
6.770000	 25.8549
6.788000	 25.8147
6.806000	 25.8135
6.824000	 25.848
6.842000	 25.8244
6.860000	 25.7718
6.878000	 25.7319
6.896000	 25.723
6.914000	 25.7851
6.932000	 25.862
6.950000	 25.8811
6.968000	 25.8813
6.986000	 25.8913
7.004000	 25.87
7.022000	 25.8169
7.040000	 25.7579
7.058000	 25.7158
7.076000	 25.7405
7.094000	 25.8065
7.112000	 25.8284
7.130000	 25.8308
7.148000	 25.8578
7.166000	 25.8717
7.184000	 25.8639
7.202000	 25.874
7.220000	 25.9079
7.238000	 25.9049
7.256000	 25.8162
7.274000	 25.6891
7.292000	 25.5987
7.310000	 25.5676
7.328000	 25.5996
7.346000	 25.6801
7.364000	 25.7532
7.382000	 25.7908
7.400000	 25.8128
7.418000	 25.82
7.436000	 25.8074
7.454000	 25.7949
7.472000	 25.78
7.490000	 25.7409
7.508000	 25.6886
7.526000	 25.6493
7.544000	 25.6242
7.562000	 25.5983
7.580000	 25.5834
7.598000	 25.5997
7.616000	 25.6175
7.634000	 25.6022
7.652000	 25.5792
7.670000	 25.5824
7.688000	 25.6128
7.706000	 25.6658
7.724000	 25.7151
7.742000	 25.7252
7.760000	 25.6964
7.778000	 25.6373
7.796000	 25.5435
7.814000	 25.4483
7.832000	 25.4054
7.850000	 25.4183
7.868000	 25.4538
7.886000	 25.4776
7.904000	 25.4707
7.922000	 25.4558
7.940000	 25.475
7.958000	 25.5109
7.976000	 25.5098
7.994000	 25.4737
8.012000	 25.4496
8.030000	 25.448
8.048000	 25.4355
8.065999	 25.3981
8.084000	 25.3613
8.102000	 25.3457
8.120000	 25.3378
8.138000	 25.3191
8.155999	 25.2977
8.173999	 25.2904
8.192000	 25.2896
8.210000	 25.2766
8.228000	 25.2577
8.246000	 25.2608
8.263999	 25.296
8.282000	 25.3423
8.300000	 25.3734
8.318000	 25.3738
8.336000	 25.3301
8.353999	 25.2413
8.372000	 25.1429
8.390000	 25.088
8.408000	 25.0959
8.426000	 25.1288
8.443999	 25.1319
8.462000	 25.0909
8.480000	 25.0444
8.498000	 25.039
8.516000	 25.0829
8.533999	 25.1483
8.552000	 25.2063
8.570000	 25.2417
8.588000	 25.2458
8.606000	 25.2159
8.624000	 25.1658
8.641999	 25.1196
8.660000	 25.0901
8.678000	 25.069
8.696000	 25.0398
8.714000	 24.9968
8.731999	 24.9499
8.750000	 24.9126
8.768000	 24.886
8.786000	 24.856
8.804000	 24.8123
8.821999	 24.767
8.840000	 24.7476
8.858000	 24.7669
8.876000	 24.8098
8.894000	 24.8488
8.911999	 24.8665
8.930000	 24.8634
8.948000	 24.8498
8.966000	 24.8438
8.984000	 24.8676
9.001999	 24.9265
9.020000	 24.9827
9.038000	 24.9738
9.056000	 24.8733
9.074000	 24.7245
9.092000	 24.5978
9.109999	 24.5233
9.128000	 24.4761
9.146000	 24.4256
9.164000	 24.3793
9.182000	 24.3681
9.199999	 24.4043
9.218000	 24.4666
9.236000	 24.5211
9.254000	 24.5459
9.272000	 24.541
9.289999	 24.5213
9.308000	 24.5041
9.326000	 24.5002
9.344000	 24.5097
9.362000	 24.5273
9.379999	 24.5491
9.398000	 24.5763
9.416000	 24.6077
9.434000	 24.6326
9.452000	 24.6328
9.469999	 24.5954
9.488000	 24.5243
9.506000	 24.4415
9.524000	 24.3748
9.542000	 24.3408
9.560000	 24.3357
9.577999	 24.3435
9.596000	 24.3497
9.614000	 24.3491
9.632000	 24.3419
9.650000	 24.3263
9.667999	 24.2972
9.686000	 24.252
9.704000	 24.198
9.722000	 24.1538
9.740000	 24.1415
9.757999	 24.1711
9.776000	 24.2319
9.794000	 24.2961
9.812000	 24.3349
9.830000	 24.3321
9.847999	 24.289
9.866000	 24.2191
9.884000	 24.1386
9.902000	 24.0582
9.920000	 23.9797
9.937999	 23.9021
9.956000	 23.8294
9.974000	 23.773
9.992000	 23.7458
10.01	23.7515
10.028	23.7787
10.046	23.8057
10.064	23.8154
10.082	23.8041
10.1	23.7816
10.118	23.7614
10.136	23.752
10.154	23.7534
10.172	23.7595
10.19	23.7609
10.208	23.7495
10.226	23.7218
10.244	23.6798
10.262	23.6307
10.28	23.5823
10.298	23.5386
10.316	23.4978
10.334	23.4566
10.352	23.4141
10.37	23.3743
10.388	23.3435
10.406	23.3244
10.424	23.3143
10.442	23.3071
10.46	23.2983
10.478	23.2872
10.496	23.2765
10.514	23.268
10.532	23.2606
10.55	23.2525
10.568	23.2446
10.586	23.2433
10.604	23.256
10.622	23.2858
10.64	23.3248
10.658	23.3566
10.676	23.3632
10.694	23.3362
10.712	23.2813
10.73	23.2151
10.748	23.1562
10.766	23.1161
10.784	23.0955
10.802	23.0859
10.82	23.0767
10.838	23.0603
10.856	23.0361
10.874	23.0089
10.892	22.9833
10.91	22.9599
10.928	22.9342
10.946	22.8983
10.964	22.8469
10.982	22.7805
11	22.7078
11.018	22.6421
11.036	22.5959
11.054	22.576
11.072	22.5803
11.09	22.5995
11.108	22.6219
11.126	22.6365
11.144	22.6375
11.162	22.6251
11.18	22.6051
11.198	22.587
11.216	22.5799
11.234	22.5886
11.252	22.6111
11.27	22.6403
11.288	22.6655
11.306	22.6787
11.324	22.6756
11.342	22.6574
11.36	22.6292
11.378	22.5969
11.396	22.5654
11.414	22.5375
11.432	22.5136
11.45	22.4928
11.468	22.4732
11.486	22.4531
11.504	22.4305
11.522	22.4048
11.54	22.3777
11.558	22.3523
11.576	22.3323
11.594	22.32
11.612	22.3147
11.63	22.313
11.648	22.3111
11.666	22.3054
11.684	22.2948
11.702	22.281
11.72	22.2668
11.738	22.2555
11.756	22.2485
11.774	22.2443
11.792	22.2386
11.81	22.2258
11.828	22.2015
11.846	22.1642
11.864	22.1166
11.882	22.0647
11.9	22.0156
11.918	21.9757
11.936	21.9476
11.954	21.9299
11.972	21.9182
11.99	21.9073
12.008	21.8937
12.026	21.877
12.044	21.8591
12.062	21.842
12.08	21.8261
12.098	21.8089
12.116	21.7865
12.134	21.7543
12.152	21.7103
12.17	21.6554
12.188	21.5934
12.206	21.5295
12.224	21.4688
12.242	21.4156
12.26	21.3718
12.278	21.3384
12.296	21.3156
12.314	21.303
12.332	21.3002
12.35	21.306
12.368	21.3189
12.386	21.3361
12.404	21.355
12.422	21.3739
12.44	21.3921
12.458	21.4097
12.476	21.4272
12.494	21.4447
12.512	21.4606
12.53	21.4717
12.548	21.4741
12.566	21.4637
12.584	21.4378
12.602	21.3952
12.62	21.3381
12.638	21.2706
12.656	21.1982
12.674	21.1275
12.692	21.0642
12.71	21.0127
12.728	20.9746
12.746	20.9497
12.764	20.9347
12.782	20.9245
12.8	20.9125
12.818	20.8933
12.836	20.8634
12.854	20.8229
12.872	20.775
12.89	20.7258
12.908	20.6828
12.926	20.6525
12.944	20.6387
12.962	20.6421
12.98	20.6601
12.998	20.6877
13.016	20.7194
13.034	20.7515
13.052	20.7824
13.07	20.8128
13.088	20.8443
13.106	20.8787
13.124	20.9159
13.142	20.9542
13.16	20.9904
13.178	21.0208
13.196	21.0426
13.214	21.0543
13.232	21.0557
13.25	21.0484
13.268	21.0346
13.286	21.0172
13.304	20.9987
13.322	20.9811
13.34	20.9656
13.358	20.9516
13.376	20.9373
13.394	20.9199
13.412	20.8957
13.43	20.8611
13.448	20.8135
13.466	20.7519
13.484	20.678
13.502	20.5954
13.52	20.5098
13.538	20.4278
13.556	20.3557
13.574	20.2979
13.592	20.2562
13.61	20.2296
13.628	20.2144
13.646	20.2055
13.664	20.1976
13.682	20.1861
13.7	20.1683
13.718	20.1432
13.736	20.1122
13.754	20.0771
13.772	20.0405
13.79	20.0049
13.808	19.9721
13.826	19.9432
13.844	19.9184
13.862	19.8973
13.88	19.8793
13.898	19.8642
13.916	19.8518
13.934	19.8422
13.952	19.836
13.97	19.8337
13.988	19.8355
14.006	19.842
14.024	19.8529
14.042	19.8681
14.06	19.8869
14.078	19.9084
14.096	19.9312
14.114	19.954
14.132	19.9752
14.15	19.9926
14.168	20.0043
14.186	20.0077
14.204	20.0007
14.222	19.9813
14.24	19.9485
14.258	19.902
14.276	19.843
14.294	19.7735
14.312	19.6973
14.33	19.6187
14.348	19.5431
14.366	19.4759
14.384	19.422
14.402	19.3844
14.42	19.3642
14.438	19.3604
14.456	19.3703
14.474	19.3892
14.492	19.4111
14.51	19.4295
14.528	19.4388
14.546	19.4352
14.564	19.4167
14.582	19.3837
14.6	19.3385
14.618	19.2855
14.636	19.2306
14.654	19.1792
14.672	19.136
14.69	19.1043
14.708	19.085
14.726	19.0777
14.744	19.0791
14.762	19.0844
14.78	19.0886
14.798	19.0869
14.816	19.0758
14.834	19.0532
14.852	19.019
14.87	18.9759
14.888	18.9277
14.906	18.8794
14.924	18.8367
14.942	18.8054
14.96	18.7892
14.978	18.79
14.996	18.8077
15.014	18.8406
15.032	18.8848
15.05	18.9351
15.068	18.9865
15.086	19.0342
15.104	19.074
15.122	19.1031
15.14	19.1204
15.158	19.1262
15.176	19.1216
15.194	19.1086
15.212	19.0898
15.23	19.0674
15.248	19.043
15.266	19.0178
15.284	18.9925
15.302	18.9664
15.32	18.9383
15.338	18.9068
15.356	18.8695
15.374	18.8246
15.392	18.7709
15.41	18.7079
15.428	18.6358
15.446	18.5563
15.464	18.4722
15.482	18.3862
15.5	18.3023
15.518	18.2249
15.536	18.1574
15.554	18.1023
15.572	18.0617
15.59	18.0361
15.608	18.0244
15.626	18.025
15.644	18.0354
15.662	18.0516
15.68	18.0707
15.698	18.0898
15.716	18.1056
15.734	18.1164
15.752	18.1212
15.77	18.1192
15.788	18.1109
15.806	18.097
15.824	18.0787
15.842	18.0568
15.86	18.0326
15.878	18.0068
15.896	17.9802
15.914	17.9538
15.932	17.9286
15.95	17.9051
15.968	17.8841
15.986	17.8665
16.004	17.8527
16.022	17.843
16.04	17.8376
16.058	17.8358
16.076	17.8372
16.094	17.8404
16.112	17.8434
16.13	17.8449
16.148	17.8431
16.166	17.836
16.184	17.8227
16.202	17.8021
16.22	17.7741
16.238	17.7395
16.256	17.6992
16.274	17.6558
16.292	17.6115
16.31	17.5682
16.328	17.5293
16.346	17.4964
16.364	17.4709
16.382	17.4537
16.4	17.4442
16.418	17.4414
16.436	17.4427
16.454	17.4454
16.472	17.4471
16.49	17.4438
16.508	17.4333
16.526	17.4138
16.544	17.3838
16.562	17.3439
16.58	17.2944
16.598	17.2378
16.616	17.1765
16.634	17.1128
16.652	17.0509
16.67	16.9929
16.688	16.9416
16.706	16.8991
16.724	16.8661
16.742	16.8434
16.76	16.8301
16.778	16.8258
16.796	16.829
16.814	16.8378
16.832	16.8512
16.85	16.8673
16.868	16.885
16.886	16.9036
16.904	16.9223
16.922	16.9412
16.94	16.9602
16.958	16.9796
16.976	16.9997
16.994	17.0203
17.012	17.0412
17.03	17.062
17.048	17.0816
17.066	17.0992
17.084	17.1136
17.102	17.1232
17.12	17.1272
17.138	17.1244
17.156	17.1151
17.174	17.0991
17.192	17.0781
17.21	17.0528
17.228	17.0257
17.246	16.9994
17.264	16.9757
17.282	16.9584
17.3	16.9486
17.318	16.949
17.336	16.9602
17.354	16.983
17.372	17.0167
17.39	17.0604
17.408	17.1122
17.426	17.1693
17.444	17.23
17.462	17.2898
17.48	17.3475
17.498	17.3993
17.516	17.444
17.534	17.4797
17.552	17.5055
17.57	17.5212
17.588	17.5269
17.606	17.523
17.624	17.5103
17.642	17.4898
17.66	17.4619
17.678	17.4282
17.696	17.3891
17.714	17.3452
17.732	17.297
17.75	17.245
17.768	17.1892
17.786	17.1297
17.804	17.0671
17.822	17.0015
17.84	16.9331
17.858	16.8623
17.876	16.7896
17.894	16.7153
17.912	16.6397
17.93	16.5634
17.948	16.4864
17.966	16.4092
17.984	16.3319
18.002	16.2547
18.02	16.178
18.038	16.1018
18.056	16.0266
18.074	15.9525
18.092	15.8805
18.11	15.8108
18.128	15.7448
18.146	15.6828
18.164	15.6263
18.182	15.5756
18.2	15.532
18.218	15.4957
18.236	15.4668
18.254	15.4452
18.272	15.4307
18.29	15.4218
18.308	15.4182
18.326	15.4177
18.344	15.42
18.362	15.4226
18.38	15.4254
18.398	15.4268
18.416	15.4267
18.434	15.4244
18.452	15.4205
18.47	15.4149
18.488	15.4092
18.506	15.4037
18.524	15.4003
18.542	15.3994
18.56	15.4026
18.578	15.41
18.596	15.4223
18.614	15.4396
18.632	15.4617
18.65	15.4885
18.668	15.5186
18.686	15.5517
18.704	15.5858
18.722	15.6204
18.74	15.653
18.758	15.6832
18.776	15.7089
18.794	15.7298
18.812	15.7442
18.83	15.7521
18.848	15.7528
18.866	15.7467
18.884	15.7336
18.902	15.7143
18.92	15.6894
18.938	15.6597
18.956	15.6265
18.974	15.5908
18.992	15.5541
19.01	15.5172
19.028	15.4818
19.046	15.4484
19.064	15.4185
19.082	15.3924
19.1	15.3714
19.118	15.3556
19.136	15.3459
19.154	15.3422
19.172	15.3447
19.19	15.3533
19.208	15.3674
19.226	15.3869
19.244	15.4108
19.262	15.439
19.28	15.4699
19.298	15.5034
19.316	15.5375
19.334	15.5722
19.352	15.6048
19.37	15.6355
19.388	15.6618
19.406	15.6839
19.424	15.6993
19.442	15.708
19.46	15.7077
19.478	15.6985
19.496	15.6787
19.514	15.6477
19.532	15.6052
19.55	15.5504
19.568	15.4839
19.586	15.4055
19.604	15.316
19.622	15.2164
19.64	15.1075
19.658	14.9919
19.676	14.8696
19.694	14.745
19.712	14.6176
19.73	14.4923
19.748	14.3688
19.766	14.2514
19.784	14.1407
19.802	14.039
19.82	13.9481
19.838	13.8683
19.856	13.8012
19.874	13.7464
19.892	13.7044
19.91	13.675
19.928	13.6571
19.946	13.6509
19.964	13.6541
19.982	13.6667
20	13.6865
20.018	13.7124
20.036	13.7433
20.054	13.7771
20.072	13.8138
20.09	13.8511
20.108	13.8894
20.126	13.927
20.144	13.9638
20.162	13.9994
20.18	14.0334
20.198	14.066
20.216	14.097
20.234	14.1265
20.252	14.1549
20.27	14.1823
20.288	14.2092
20.306	14.2355
20.324	14.2618
20.342	14.2883
20.36	14.3153
20.378	14.3434
20.396	14.3724
20.414	14.4028
20.432	14.4347
20.45	14.4682
20.468	14.5038
20.486	14.5411
20.504	14.5801
20.522	14.6208
20.54	14.6629
20.558	14.7065
20.576	14.7506
20.594	14.795
20.612	14.8392
20.63	14.8821
20.648	14.9241
20.666	14.9629
20.684	14.999
20.702	15.031
20.72	15.0581
20.738	15.0801
20.756	15.0952
20.774	15.1039
20.792	15.1051
20.81	15.0989
20.828	15.085
20.846	15.0628
20.864	15.0327
20.882	14.9945
20.9	14.9482
20.918	14.8943
20.936	14.8329
20.954	14.7643
20.972	14.6899
20.99	14.6092
21.008	14.5239
21.026	14.4344
21.044	14.3411
21.062	14.2459
21.08	14.1483
21.098	14.0507
21.116	13.9534
21.134	13.8573
21.152	13.7649
21.17	13.6754
21.188	13.5915
21.206	13.5135
21.224	13.4421
21.242	13.3794
21.26	13.3246
21.278	13.2794
21.296	13.2441
21.314	13.2186
21.332	13.2034
21.35	13.1986
21.368	13.2031
21.386	13.2173
21.404	13.2401
21.422	13.2699
21.44	13.3073
21.458	13.3493
21.476	13.395
21.494	13.444
21.512	13.4925
21.53	13.5416
21.548	13.5885
21.566	13.631
21.584	13.6699
21.602	13.7023
21.62	13.7283
21.638	13.7475
21.656	13.7583
21.674	13.7613
21.692	13.7567
21.71	13.7442
21.728	13.7246
21.746	13.6993
21.764	13.6675
21.782	13.6317
21.8	13.5933
21.818	13.5517
21.836	13.5102
21.854	13.4688
21.872	13.4283
21.89	13.3915
21.908	13.3576
21.926	13.3283
21.944	13.3051
21.962	13.2873
21.98	13.2761
21.998	13.272
22.016	13.2744
22.034	13.2834
22.052	13.2993
22.07	13.3208
22.088	13.3475
22.106	13.3796
22.124	13.4151
22.142	13.4542
22.16	13.4962
22.178	13.539
22.196	13.5833
22.214	13.6278
22.232	13.6706
22.25	13.7126
22.268	13.7525
22.286	13.7896
22.304	13.8242
22.322	13.8558
22.34	13.8842
22.358	13.9096
22.376	13.9327
22.394	13.9529
22.412	13.9712
22.43	13.9884
22.448	14.0041
22.466	14.0193
22.484	14.035
22.502	14.0507
22.52	14.0674
22.538	14.0857
22.556	14.1052
22.574	14.1263
22.592	14.1495
22.61	14.1742
22.628	14.2001
22.646	14.2275
22.664	14.2559
22.682	14.285
22.7	14.3151
22.718	14.3457
22.736	14.3764
22.754	14.4077
22.772	14.4385
22.79	14.4681
22.808	14.4971
22.826	14.5245
22.844	14.5494
22.862	14.5724
22.88	14.5933
22.898	14.612
22.916	14.6286
22.934	14.6433
22.952	14.6562
22.97	14.6673
22.988	14.677
23.006	14.6855
23.024	14.6928
23.042	14.699
23.06	14.7043
23.078	14.7087
23.096	14.7122
23.114	14.7151
23.132	14.7171
23.15	14.7178
23.168	14.7172
23.186	14.7153
23.204	14.7114
23.222	14.7057
23.24	14.6979
23.258	14.6867
23.276	14.6724
23.294	14.6548
23.312	14.633
23.33	14.6073
23.348	14.5775
23.366	14.5424
23.384	14.5022
23.402	14.4569
23.42	14.4054
23.438	14.3479
23.456	14.2843
23.474	14.2142
23.492	14.1375
23.51	14.0543
23.528	13.9652
23.546	13.8699
23.564	13.7686
23.582	13.6625
23.6	13.5519
23.618	13.4366
23.636	13.3181
23.654	13.1967
23.672	13.0718
23.69	12.9465
23.708	12.8227
23.726	12.6984
23.744	12.5775
23.762	12.4635
23.78	12.3537
23.798	12.2515
23.816	12.1614
23.834	12.081
23.852	12.0123
23.87	11.9587
23.888	11.9201
23.906	11.8958
23.924	11.8859
23.942	11.8921
23.96	11.9128
23.978	11.9438
23.996	11.9851
24.014	12.0379
24.032	12.094
24.05	12.1493
24.068	12.2089
24.086	12.2629
24.104	12.3022
24.122	12.3344
24.14	12.3509
24.158	12.3392
24.176	12.304
24.194	12.2427
24.212	12.1446
24.23	12.0079
24.248	11.8359
24.266	11.6225
24.284	11.3633
24.302	11.0608
24.32	10.7167
24.338	10.3318
24.356	9.901997
24.374	9.434769
24.392	8.939756
24.41	8.411191
24.428	7.853249
24.446	7.282691
24.464	6.704096
24.482	6.109441
24.5	5.517248
24.518	4.942412
24.536	4.372269
24.554	3.819230
24.572	3.301585
24.59	2.814523
24.608	2.358459
24.626	1.948133
24.644	1.590841
24.662	1.279013
24.68	1.018421
24.698	0.815102
24.716	0.668194
24.734	0.574675
24.752	0.532196
24.77	0.544251
24.788	0.608958
24.806	0.714793
24.824	0.855306
24.842	1.040139
24.86	1.254900
24.878	1.482477
24.896	1.731195
24.914	1.997309
24.932	2.260730
24.95	2.511742
24.968	2.762780
24.986	2.998783
25.004	3.203596
25.022	3.384799
25.04	3.539825
25.058	3.656087
25.076	3.727906
25.094	3.762509
25.112	3.753286
25.13	3.693168
25.148	3.582741
25.166	3.424741
25.184	3.220309
25.202	2.968175
25.22	2.666793
25.238	2.324239
25.256	1.948474
25.274	1.532399
25.292	1.080971
25.31	0.607979
25.328	0.120072
25.346	-0.393139
25.364	-0.918281
25.382	-1.439960
25.4	-1.964017
25.418	-2.490562
25.436	-3.003399
25.454	-3.490715
25.472	-3.964526
25.49	-4.415792
25.508	-4.830846
25.526	-5.208142
25.544	-5.554254
25.562	-5.857906
25.58	-6.108424
25.598	-6.311473
25.616	-6.466139
25.634	-6.565551
25.652	-6.605164
25.67	-6.589290
25.688	-6.516791
25.706	-6.385740
25.724	-6.193760
25.742	-5.942766
25.76	-5.637763
25.778	-5.283008
25.796	-4.871560
25.814	-4.409576
25.832	-3.909107
25.85	-3.376257
25.868	-2.798673
25.886	-2.191528
25.904	-1.573472
25.922	-0.944812
25.94	-0.295040
25.958	0.353088
25.976	0.976764
25.994	1.587915
26.012	2.186048
26.03	2.747414
26.048	3.251925
26.066	3.717821
26.084	4.136199
26.102	4.486750
26.12	4.756489
26.138	4.960751
26.156	5.090729
26.174	5.134011
26.192	5.084149
26.21	4.948540
26.228	4.727834
26.246	4.422301
26.264	4.027351
26.282	3.544781
26.3	2.986022
26.318	2.362176
26.336	1.665172
26.354	0.897030
26.372	0.072987
26.39	-0.793516
26.408	-1.718434
26.426	-2.692531
26.444	-3.693197
26.462	-4.702341
26.48	-5.740221
26.498	-6.795300
26.516	-7.845359
26.534	-8.875807
26.552	-9.909801
26.57	-10.9294
26.588	-11.9085
26.606	-12.8325
26.624	-13.7265
26.642	-14.5705
26.66	-15.3384
26.678	-16.0175
26.696	-16.6321
26.714	-17.1623
26.732	-17.584
26.75	-17.8862
26.768	-18.0898
26.786	-18.1796
26.804	-18.1373
26.822	-17.9538
26.84	-17.6431
26.858	-17.1995
26.876	-16.6155
26.894	-15.8858
26.912	-15.0142
26.93	-14.0055
26.948	-12.8644
26.966	-11.5019
26.984	-9.780337
27.002	-8.044817
27.02	-6.670280
27.028	-6.312179