File: Bakgrunnsmateriale/MATLAB/FTIR/ftir_data/LPE453/Mapping_121/LPE453_t68.asc
PE IR       SPECTRUM    SPECTRUM    ASCII       PEDS        1.60
  -1
LPEBA9~1.ASC
17/05/16
19:59:41.00
17/05/16
20:00:07.00
tln
$LPE453_t0068$<tbV0>[10.4,2.6,8.0,0.0,27,1,0]
27.028
64

2002,4.07
MIRTGS : RIGHTBACK : INTERNAL 2
MIR : ON : INTERNAL 2
OPTKBR

0.200000
8
8.000000
FILLER
RATIO
SPECTRUM
UNLOCKED 256

DOUBLE
64
COMBINED
1
0
0

0.002000
RATIO

1
0
TRUE
51149
0
LEFT NOT FITTED RIGHT NOT FITTED 0
NONE
NONE
15600
12
4.427000
51148
TRUE
1 0 8 72 0 0 0 0

15798

#HDR
-1
-1
#GR
µM
%T
2.38419e-05
0.0
2.000000
0.002000
12515
8
24.9105
-12.8892
#DATA
2.000000	 0.128793
2.018000	 -0.334274
2.036000	 0.119224
2.054000	 0.240533
2.072000	 -0.001856
2.090000	 0.232811
2.108000	 0.616003
2.126000	 0.495165
2.144000	 1.021196
2.162000	 1.162060
2.180000	 0.147424
2.198000	 0.472419
2.216000	 -0.044045
2.234000	 -1.534136
2.252000	 -0.940782
2.270000	 -0.105825
2.288000	 0.200247
2.306000	 -0.054914
2.324000	 0.007076
2.342000	 0.289563
2.360000	 -0.171845
2.378000	 0.091630
2.396000	 0.055480
2.414000	 -0.016478
2.432000	 -0.101191
2.450000	 0.281379
2.468000	 -0.037180
2.486000	 0.049272
2.504000	 0.074964
2.522000	 0.040859
2.540000	 0.131567
2.558000	 -0.029145
2.576000	 -0.054599
2.594000	 -0.084241
2.612000	 0.056657
2.630000	 -0.042455
2.648000	 0.073453
2.666000	 0.113140
2.684000	 0.096299
2.702000	 0.149383
2.720000	 -0.005032
2.738000	 -0.123205
2.756000	 0.090629
2.774000	 0.056561
2.792000	 0.085664
2.810000	 0.083616
2.828000	 0.141107
2.846000	 0.122631
2.864000	 0.066399
2.882000	 -0.131669
2.900000	 0.074514
2.918000	 0.008226
2.936000	 0.005738
2.954000	 0.000687
2.972000	 0.003105
2.990000	 0.089629
3.008000	 -0.038015
3.026000	 -0.036793
3.044000	 0.013131
3.062000	 0.240011
3.080000	 -0.080521
3.098000	 0.080793
3.116000	 0.109179
3.134000	 0.038066
3.152000	 -0.032276
3.170000	 0.055578
3.188000	 0.050019
3.206000	 0.072584
3.224000	 0.017265
3.242000	 0.034891
3.260000	 0.025708
3.278000	 -0.002070
3.296000	 0.079176
3.314000	 0.033289
3.332000	 0.096467
3.350000	 0.062111
3.368000	 0.067473
3.386000	 0.054625
3.404000	 0.098337
3.422000	 -0.098198
3.440000	 0.066146
3.458000	 -0.044218
3.476000	 -0.027809
3.494000	 0.153783
3.512000	 0.073536
3.530000	 0.023150
3.548000	 0.003099
3.566000	 0.060244
3.584000	 0.100733
3.602000	 0.001251
3.620000	 0.027973
3.638000	 0.034638
3.656000	 -0.011831
3.674000	 0.096716
3.692000	 0.093362
3.710000	 0.011517
3.728000	 0.041937
3.746000	 0.101228
3.764000	 0.045720
3.782000	 0.096255
3.800000	 -0.019006
3.818000	 -0.014461
3.836000	 0.064005
3.854000	 0.061097
3.872000	 0.001743
3.890000	 0.083827
3.908000	 0.042675
3.926000	 -0.036045
3.944000	 -0.008670
3.962000	 -0.093058
3.980000	 -0.050987
3.998000	 0.060553
4.016000	 0.065022
4.034000	 -0.051391
4.052000	 0.069709
4.070000	 -0.002962
4.088000	 0.042848
4.106000	 0.155454
4.124000	 0.226864
4.141999	 0.120630
4.160000	 -0.005474
4.178000	 -0.032456
4.196000	 -0.031825
4.214000	 -0.065690
4.232000	 -0.079849
4.250000	 0.034885
4.268000	 0.054945
4.286000	 -0.094293
4.304000	 -0.033357
4.322000	 0.025771
4.340000	 0.058862
4.358000	 0.022748
4.375999	 0.054447
4.394000	 0.128096
4.412000	 0.177510
4.430000	 0.108475
4.448000	 0.241543
4.466000	 0.329751
4.484000	 0.393796
4.502000	 0.545707
4.520000	 0.683612
4.538000	 0.872205
4.556000	 1.071660
4.574000	 1.314456
4.592000	 1.633595
4.609999	 1.982086
4.628000	 2.301185
4.646000	 2.764248
4.664000	 3.226522
4.682000	 3.830809
4.700000	 4.436033
4.718000	 4.971172
4.736000	 5.457740
4.754000	 6.131767
4.772000	 6.792408
4.790000	 7.549395
4.808000	 8.145687
4.826000	 8.853291
4.843999	 9.691438
4.862000	 10.3016
4.880000	 10.9495
4.898000	 11.7435
4.916000	 12.3629
4.934000	 12.9442
4.952000	 13.6723
4.970000	 14.1911
4.988000	 14.6896
5.006000	 15.1209
5.024000	 15.6607
5.042000	 16.3448
5.060000	 16.9114
5.077999	 17.3489
5.096000	 17.7744
5.114000	 18.2879
5.132000	 18.7192
5.150000	 18.9884
5.168000	 19.3837
5.186000	 19.7639
5.204000	 20.1077
5.222000	 20.4122
5.240000	 20.6946
5.258000	 20.9968
5.276000	 21.2673
5.294000	 21.4572
5.312000	 21.7636
5.330000	 21.9045
5.348000	 22.0033
5.366000	 22.3145
5.384000	 22.5656
5.402000	 22.6933
5.420000	 22.8841
5.438000	 22.9492
5.456000	 23.1257
5.474000	 23.2365
5.492000	 23.3307
5.510000	 23.4526
5.528000	 23.538
5.546000	 23.6112
5.564000	 23.7573
5.582000	 23.8858
5.600000	 23.941
5.618000	 23.9589
5.636000	 23.9788
5.654000	 24.0545
5.672000	 24.1114
5.690000	 24.2057
5.708000	 24.2299
5.726000	 24.3
5.744000	 24.2754
5.762000	 24.2683
5.780000	 24.3627
5.798000	 24.3764
5.816000	 24.4221
5.834000	 24.6443
5.852000	 24.6433
5.870000	 24.5776
5.888000	 24.5443
5.906000	 24.5451
5.923999	 24.5997
5.942000	 24.6536
5.960000	 24.6627
5.978000	 24.75
5.996000	 24.8249
6.014000	 24.7997
6.032000	 24.7483
6.050000	 24.755
6.068000	 24.7722
6.086000	 24.7768
6.104000	 24.8649
6.122000	 24.8827
6.140000	 24.7948
6.158000	 24.7292
6.176000	 24.6702
6.194000	 24.6766
6.212000	 24.7451
6.230000	 24.7973
6.248000	 24.7669
6.266000	 24.799
6.284000	 24.8902
6.302000	 24.8954
6.320000	 24.7796
6.338000	 24.6926
6.356000	 24.7159
6.374000	 24.7641
6.392000	 24.8173
6.410000	 24.8809
6.428000	 24.8721
6.446000	 24.8261
6.464000	 24.785
6.482000	 24.7353
6.500000	 24.7023
6.518000	 24.6815
6.536000	 24.6842
6.554000	 24.7132
6.572000	 24.7403
6.590000	 24.7548
6.608000	 24.7537
6.626000	 24.7637
6.644000	 24.7654
6.662000	 24.7138
6.680000	 24.6724
6.698000	 24.6612
6.716000	 24.6201
6.734000	 24.5942
6.752000	 24.5982
6.770000	 24.6303
6.788000	 24.6855
6.806000	 24.7099
6.824000	 24.7023
6.842000	 24.6621
6.860000	 24.5822
6.878000	 24.5014
6.896000	 24.4594
6.914000	 24.4888
6.932000	 24.5485
6.950000	 24.5341
6.968000	 24.4544
6.986000	 24.4038
7.004000	 24.4202
7.022000	 24.4706
7.040000	 24.4738
7.058000	 24.4493
7.076000	 24.4634
7.094000	 24.4398
7.112000	 24.3532
7.130000	 24.3449
7.148000	 24.4233
7.166000	 24.4573
7.184000	 24.4378
7.202000	 24.4151
7.220000	 24.3991
7.238000	 24.4045
7.256000	 24.3957
7.274000	 24.3144
7.292000	 24.2193
7.310000	 24.2037
7.328000	 24.2385
7.346000	 24.248
7.364000	 24.2313
7.382000	 24.2171
7.400000	 24.1987
7.418000	 24.1801
7.436000	 24.1903
7.454000	 24.2118
7.472000	 24.1946
7.490000	 24.1397
7.508000	 24.0794
7.526000	 24.0289
7.544000	 24.0145
7.562000	 24.0505
7.580000	 24.0972
7.598000	 24.1159
7.616000	 24.1142
7.634000	 24.1166
7.652000	 24.1344
7.670000	 24.1506
7.688000	 24.1361
7.706000	 24.0987
7.724000	 24.0788
7.742000	 24.0894
7.760000	 24.0917
7.778000	 24.0496
7.796000	 23.9827
7.814000	 23.939
7.832000	 23.9356
7.850000	 23.9511
7.868000	 23.9627
7.886000	 23.9695
7.904000	 23.9911
7.922000	 24.0333
7.940000	 24.0607
7.958000	 24.0333
7.976000	 23.9565
7.994000	 23.8743
8.012000	 23.8307
8.030000	 23.8394
8.048000	 23.8654
8.065999	 23.8513
8.084000	 23.7865
8.102000	 23.7284
8.120000	 23.7268
8.138000	 23.7622
8.155999	 23.7868
8.173999	 23.7879
8.192000	 23.7804
8.210000	 23.7678
8.228000	 23.7457
8.246000	 23.7156
8.263999	 23.6793
8.282000	 23.6441
8.300000	 23.6265
8.318000	 23.6304
8.336000	 23.6371
8.353999	 23.632
8.372000	 23.6257
8.390000	 23.638
8.408000	 23.6693
8.426000	 23.702
8.443999	 23.7166
8.462000	 23.6988
8.480000	 23.6423
8.498000	 23.5593
8.516000	 23.4811
8.533999	 23.4409
8.552000	 23.4486
8.570000	 23.4801
8.588000	 23.4953
8.606000	 23.4752
8.624000	 23.4385
8.641999	 23.4171
8.660000	 23.4149
8.678000	 23.4067
8.696000	 23.3781
8.714000	 23.3499
8.731999	 23.3544
8.750000	 23.3951
8.768000	 23.4376
8.786000	 23.4411
8.804000	 23.3982
8.821999	 23.3417
8.840000	 23.3124
8.858000	 23.3186
8.876000	 23.3308
8.894000	 23.3141
8.911999	 23.2599
8.930000	 23.1795
8.948000	 23.0814
8.966000	 22.9688
8.984000	 22.8547
9.001999	 22.7667
9.020000	 22.7258
9.038000	 22.7234
9.056000	 22.7253
9.074000	 22.7052
9.092000	 22.6713
9.109999	 22.6569
9.128000	 22.6843
9.146000	 22.742
9.164000	 22.7985
9.182000	 22.8374
9.199999	 22.8684
9.218000	 22.9039
9.236000	 22.9405
9.254000	 22.9652
9.272000	 22.9748
9.289999	 22.9769
9.308000	 22.9755
9.326000	 22.9613
9.344000	 22.9226
9.362000	 22.862
9.379999	 22.7957
9.398000	 22.7405
9.416000	 22.7044
9.434000	 22.6884
9.452000	 22.6932
9.469999	 22.716
9.488000	 22.7425
9.506000	 22.7477
9.524000	 22.7095
9.542000	 22.6293
9.560000	 22.536
9.577999	 22.4673
9.596000	 22.4419
9.614000	 22.4483
9.632000	 22.4575
9.650000	 22.4473
9.667999	 22.4183
9.686000	 22.3911
9.704000	 22.3894
9.722000	 22.4209
9.740000	 22.4701
9.757999	 22.5075
9.776000	 22.5081
9.794000	 22.4664
9.812000	 22.3973
9.830000	 22.3234
9.847999	 22.26
9.866000	 22.2097
9.884000	 22.1678
9.902000	 22.1319
9.920000	 22.1043
9.937999	 22.0877
9.956000	 22.0776
9.974000	 22.0617
9.992000	 22.0274
10.01	21.9702
10.028	21.8982
10.046	21.8271
10.064	21.7718
10.082	21.7398
10.1	21.7316
10.118	21.7439
10.136	21.7736
10.154	21.8175
10.172	21.8707
10.19	21.925
10.208	21.9712
10.226	22.0025
10.244	22.0171
10.262	22.0182
10.28	22.0108
10.298	21.998
10.316	21.9794
10.334	21.951
10.352	21.9082
10.37	21.8492
10.388	21.7765
10.406	21.6975
10.424	21.6215
10.442	21.5566
10.46	21.5067
10.478	21.4708
10.496	21.4441
10.514	21.4223
10.532	21.4015
10.55	21.3812
10.568	21.362
10.586	21.3445
10.604	21.3295
10.622	21.317
10.64	21.3076
10.658	21.3021
10.676	21.3003
10.694	21.3006
10.712	21.3002
10.73	21.2963
10.748	21.2878
10.766	21.2739
10.784	21.2535
10.802	21.2241
10.82	21.1819
10.838	21.1253
10.856	21.0582
10.874	20.991
10.892	20.9363
10.91	20.9036
10.928	20.893
10.946	20.8946
10.964	20.8939
10.982	20.8788
11	20.8464
11.018	20.8033
11.036	20.7615
11.054	20.7323
11.072	20.7209
11.09	20.7256
11.108	20.7411
11.126	20.7605
11.144	20.7782
11.162	20.789
11.18	20.7888
11.198	20.7742
11.216	20.7453
11.234	20.7058
11.252	20.6642
11.27	20.6288
11.288	20.6055
11.306	20.5933
11.324	20.5845
11.342	20.5681
11.36	20.536
11.378	20.4875
11.396	20.4299
11.414	20.3759
11.432	20.3363
11.45	20.315
11.468	20.3084
11.486	20.3082
11.504	20.3065
11.522	20.2994
11.54	20.2889
11.558	20.2795
11.576	20.276
11.594	20.2799
11.612	20.289
11.63	20.2985
11.648	20.3039
11.666	20.3031
11.684	20.2967
11.702	20.2874
11.72	20.2778
11.738	20.2687
11.756	20.2579
11.774	20.2422
11.792	20.2186
11.81	20.1869
11.828	20.1498
11.846	20.1127
11.864	20.0816
11.882	20.0599
11.9	20.0467
11.918	20.0369
11.936	20.0227
11.954	19.9966
11.972	19.9541
11.99	19.8964
12.008	19.8305
12.026	19.7676
12.044	19.7193
12.062	19.6947
12.08	19.6968
12.098	19.7214
12.116	19.759
12.134	19.7971
12.152	19.8238
12.17	19.8315
12.188	19.8179
12.206	19.7859
12.224	19.7425
12.242	19.6966
12.26	19.6564
12.278	19.6283
12.296	19.616
12.314	19.6207
12.332	19.6402
12.35	19.6703
12.368	19.7044
12.386	19.7349
12.404	19.7545
12.422	19.7576
12.44	19.7413
12.458	19.7057
12.476	19.6534
12.494	19.5891
12.512	19.5181
12.53	19.4448
12.548	19.3725
12.566	19.3025
12.584	19.2346
12.602	19.1675
12.62	19.0995
12.638	19.0297
12.656	18.9592
12.674	18.8903
12.692	18.827
12.71	18.7734
12.728	18.7338
12.746	18.7103
12.764	18.7026
12.782	18.7082
12.8	18.7224
12.818	18.7392
12.836	18.7533
12.854	18.7606
12.872	18.7591
12.89	18.749
12.908	18.7325
12.926	18.7123
12.944	18.6918
12.962	18.6731
12.98	18.6574
12.998	18.6447
13.016	18.6337
13.034	18.6224
13.052	18.6084
13.07	18.5898
13.088	18.565
13.106	18.5332
13.124	18.4945
13.142	18.4499
13.16	18.4009
13.178	18.3493
13.196	18.2971
13.214	18.2456
13.232	18.1958
13.25	18.148
13.268	18.1023
13.286	18.0591
13.304	18.0192
13.322	17.984
13.34	17.9549
13.358	17.9338
13.376	17.9217
13.394	17.9185
13.412	17.9224
13.43	17.9305
13.448	17.9389
13.466	17.9439
13.484	17.9424
13.502	17.9334
13.52	17.9178
13.538	17.8982
13.556	17.8788
13.574	17.8633
13.592	17.8549
13.61	17.855
13.628	17.863
13.646	17.8769
13.664	17.8935
13.682	17.9096
13.7	17.9226
13.718	17.9309
13.736	17.9337
13.754	17.9317
13.772	17.9253
13.79	17.9146
13.808	17.899
13.826	17.8772
13.844	17.8477
13.862	17.8089
13.88	17.7604
13.898	17.7029
13.916	17.639
13.934	17.5723
13.952	17.5074
13.97	17.4488
13.988	17.4003
14.006	17.3646
14.024	17.3427
14.042	17.3335
14.06	17.3344
14.078	17.3417
14.096	17.3512
14.114	17.359
14.132	17.3616
14.15	17.3567
14.168	17.3436
14.186	17.3231
14.204	17.2971
14.222	17.2686
14.24	17.2413
14.258	17.2187
14.276	17.2036
14.294	17.1977
14.312	17.2018
14.33	17.2152
14.348	17.2363
14.366	17.2623
14.384	17.2898
14.402	17.3159
14.42	17.3386
14.438	17.3561
14.456	17.3679
14.474	17.3745
14.492	17.3766
14.51	17.3758
14.528	17.3732
14.546	17.3693
14.564	17.3639
14.582	17.3562
14.6	17.3451
14.618	17.3287
14.636	17.3057
14.654	17.2749
14.672	17.2367
14.69	17.192
14.708	17.1428
14.726	17.0918
14.744	17.0423
14.762	16.9972
14.78	16.9588
14.798	16.9283
14.816	16.9059
14.834	16.8908
14.852	16.8806
14.87	16.8725
14.888	16.8635
14.906	16.8506
14.924	16.8312
14.942	16.8038
14.96	16.768
14.978	16.7247
14.996	16.6752
15.014	16.6218
15.032	16.5669
15.05	16.5129
15.068	16.4616
15.086	16.4143
15.104	16.3716
15.122	16.3331
15.14	16.2979
15.158	16.2654
15.176	16.2349
15.194	16.2057
15.212	16.1777
15.23	16.1512
15.248	16.127
15.266	16.1061
15.284	16.0893
15.302	16.0775
15.32	16.0707
15.338	16.0689
15.356	16.0717
15.374	16.0779
15.392	16.0868
15.41	16.0972
15.428	16.1084
15.446	16.1199
15.464	16.1321
15.482	16.1453
15.5	16.1603
15.518	16.178
15.536	16.1986
15.554	16.2221
15.572	16.2483
15.59	16.2754
15.608	16.3012
15.626	16.3235
15.644	16.339
15.662	16.3445
15.68	16.3379
15.698	16.3172
15.716	16.2812
15.734	16.2304
15.752	16.1659
15.77	16.0897
15.788	16.0056
15.806	15.9169
15.824	15.8267
15.842	15.7388
15.86	15.6562
15.878	15.5807
15.896	15.5136
15.914	15.4556
15.932	15.4059
15.95	15.3638
15.968	15.3282
15.986	15.2973
16.004	15.2702
16.022	15.2463
16.04	15.2247
16.058	15.2058
16.076	15.19
16.094	15.178
16.112	15.1712
16.13	15.1703
16.148	15.176
16.166	15.189
16.184	15.209
16.202	15.2358
16.22	15.2683
16.238	15.305
16.256	15.3445
16.274	15.3847
16.292	15.4243
16.31	15.4623
16.328	15.4973
16.346	15.5289
16.364	15.5567
16.382	15.5806
16.4	15.6006
16.418	15.617
16.436	15.6298
16.454	15.6388
16.472	15.6436
16.49	15.6436
16.508	15.6381
16.526	15.6265
16.544	15.6081
16.562	15.5826
16.58	15.5498
16.598	15.5098
16.616	15.4631
16.634	15.4104
16.652	15.3534
16.67	15.2936
16.688	15.2323
16.706	15.1721
16.724	15.1142
16.742	15.0601
16.76	15.0117
16.778	14.9697
16.796	14.9352
16.814	14.9086
16.832	14.8899
16.85	14.8789
16.868	14.8749
16.886	14.8773
16.904	14.8842
16.922	14.8943
16.94	14.9062
16.958	14.9173
16.976	14.9262
16.994	14.9304
17.012	14.9281
17.03	14.9181
17.048	14.8986
17.066	14.8695
17.084	14.83
17.102	14.7808
17.12	14.7224
17.138	14.6563
17.156	14.5843
17.174	14.508
17.192	14.4305
17.21	14.3529
17.228	14.2781
17.246	14.2075
17.264	14.1425
17.282	14.0846
17.3	14.0341
17.318	13.9916
17.336	13.9568
17.354	13.9296
17.372	13.9094
17.39	13.8957
17.408	13.8878
17.426	13.885
17.444	13.8869
17.462	13.8928
17.48	13.9024
17.498	13.9148
17.516	13.9297
17.534	13.9468
17.552	13.9648
17.57	13.9833
17.588	14.0011
17.606	14.0175
17.624	14.0315
17.642	14.042
17.66	14.0488
17.678	14.0508
17.696	14.0481
17.714	14.0403
17.732	14.0278
17.75	14.0109
17.768	13.9906
17.786	13.9671
17.804	13.9419
17.822	13.9153
17.84	13.8886
17.858	13.8622
17.876	13.837
17.894	13.8132
17.912	13.7911
17.93	13.7707
17.948	13.7521
17.966	13.7349
17.984	13.7189
18.002	13.7037
18.02	13.6891
18.038	13.6749
18.056	13.6613
18.074	13.6482
18.092	13.6361
18.11	13.6252
18.128	13.6159
18.146	13.6084
18.164	13.6035
18.182	13.6012
18.2	13.6019
18.218	13.6052
18.236	13.6113
18.254	13.6188
18.272	13.6276
18.29	13.636
18.308	13.6437
18.326	13.6485
18.344	13.6501
18.362	13.6466
18.38	13.6379
18.398	13.6224
18.416	13.6004
18.434	13.5712
18.452	13.5353
18.47	13.4929
18.488	13.445
18.506	13.392
18.524	13.3358
18.542	13.2765
18.56	13.2162
18.578	13.1551
18.596	13.0951
18.614	13.0362
18.632	12.9801
18.65	12.9268
18.668	12.8773
18.686	12.8316
18.704	12.7904
18.722	12.7537
18.74	12.7219
18.758	12.6951
18.776	12.6734
18.794	12.6571
18.812	12.6464
18.83	12.6414
18.848	12.6424
18.866	12.6493
18.884	12.6625
18.902	12.6817
18.92	12.7069
18.938	12.7378
18.956	12.7742
18.974	12.8154
18.992	12.8608
19.01	12.9096
19.028	12.9608
19.046	13.0136
19.064	13.0668
19.082	13.1196
19.1	13.1707
19.118	13.2196
19.136	13.2649
19.154	13.3064
19.172	13.343
19.19	13.3745
19.208	13.4001
19.226	13.4198
19.244	13.4333
19.262	13.4408
19.28	13.4423
19.298	13.4379
19.316	13.4281
19.334	13.413
19.352	13.3934
19.37	13.369
19.388	13.3411
19.406	13.3095
19.424	13.2751
19.442	13.238
19.46	13.1991
19.478	13.1585
19.496	13.117
19.514	13.0749
19.532	13.0326
19.55	12.9908
19.568	12.9496
19.586	12.9098
19.604	12.8715
19.622	12.8357
19.64	12.8023
19.658	12.7721
19.676	12.7452
19.694	12.7223
19.712	12.7033
19.73	12.6885
19.748	12.678
19.766	12.6714
19.784	12.669
19.802	12.6699
19.82	12.674
19.838	12.6806
19.856	12.6888
19.874	12.6984
19.892	12.7077
19.91	12.7169
19.928	12.7242
19.946	12.7296
19.964	12.732
19.982	12.7312
20	12.7268
20.018	12.7183
20.036	12.7062
20.054	12.6905
20.072	12.6716
20.09	12.6507
20.108	12.6277
20.126	12.6047
20.144	12.5814
20.162	12.5598
20.18	12.5404
20.198	12.5239
20.216	12.5119
20.234	12.5043
20.252	12.5021
20.27	12.5053
20.288	12.5137
20.306	12.5278
20.324	12.5461
20.342	12.5684
20.36	12.5938
20.378	12.6204
20.396	12.6485
20.414	12.6749
20.432	12.6999
20.45	12.7211
20.468	12.7377
20.486	12.749
20.504	12.753
20.522	12.7502
20.54	12.7393
20.558	12.7203
20.576	12.6933
20.594	12.6581
20.612	12.6153
20.63	12.5659
20.648	12.5097
20.666	12.4489
20.684	12.3831
20.702	12.3142
20.72	12.2434
20.738	12.1708
20.756	12.0988
20.774	12.0269
20.792	11.957
20.81	11.8895
20.828	11.8247
20.846	11.7641
20.864	11.7071
20.882	11.6551
20.9	11.6077
20.918	11.5655
20.936	11.5288
20.954	11.4975
20.972	11.4718
20.99	11.4518
21.008	11.4372
21.026	11.4282
21.044	11.4245
21.062	11.4257
21.08	11.4321
21.098	11.4425
21.116	11.457
21.134	11.4749
21.152	11.4948
21.17	11.5174
21.188	11.5402
21.206	11.5632
21.224	11.5856
21.242	11.6053
21.26	11.623
21.278	11.6363
21.296	11.645
21.314	11.6487
21.332	11.6459
21.35	11.637
21.368	11.6215
21.386	11.5991
21.404	11.5704
21.422	11.5359
21.44	11.4953
21.458	11.4506
21.476	11.4024
21.494	11.3511
21.512	11.2998
21.53	11.2475
21.548	11.1969
21.566	11.1498
21.584	11.1056
21.602	11.0671
21.62	11.0343
21.638	11.0077
21.656	10.9887
21.674	10.9769
21.692	10.972
21.71	10.9745
21.728	10.9835
21.746	10.9976
21.764	11.0174
21.782	11.0407
21.8	11.0657
21.818	11.0931
21.836	11.1192
21.854	11.1442
21.872	11.167
21.89	11.1847
21.908	11.1982
21.926	11.2056
21.944	11.2055
21.962	11.1987
21.98	11.184
21.998	11.1612
22.016	11.1308
22.034	11.0934
22.052	11.0483
22.07	10.9973
22.088	10.9415
22.106	10.8802
22.124	10.8162
22.142	10.7497
22.16	10.681
22.178	10.6131
22.196	10.5452
22.214	10.4786
22.232	10.4155
22.25	10.3548
22.268	10.298
22.286	10.2461
22.304	10.1985
22.322	10.1561
22.34	10.1189
22.358	10.0868
22.376	10.0597
22.394	10.0377
22.412	10.0206
22.43	10.0077
22.448	9.999532
22.466	9.995275
22.484	9.994486
22.502	9.997424
22.52	10.0034
22.538	10.0121
22.556	10.0237
22.574	10.0378
22.592	10.0543
22.61	10.0733
22.628	10.0947
22.646	10.1186
22.664	10.145
22.682	10.1735
22.7	10.2044
22.718	10.2373
22.736	10.2718
22.754	10.3082
22.772	10.3461
22.79	10.3853
22.808	10.4259
22.826	10.4675
22.844	10.5097
22.862	10.5528
22.88	10.5952
22.898	10.6362
22.916	10.6764
22.934	10.7137
22.952	10.7477
22.97	10.7786
22.988	10.8052
23.006	10.827
23.024	10.8444
23.042	10.8569
23.06	10.8642
23.078	10.8666
23.096	10.8642
23.114	10.8566
23.132	10.8443
23.15	10.8286
23.168	10.8088
23.186	10.7857
23.204	10.7619
23.222	10.7366
23.24	10.7107
23.258	10.6868
23.276	10.6645
23.294	10.6442
23.312	10.6282
23.33	10.6163
23.348	10.6086
23.366	10.6063
23.384	10.6096
23.402	10.6182
23.42	10.6322
23.438	10.6521
23.456	10.6773
23.474	10.7065
23.492	10.7399
23.51	10.7775
23.528	10.8171
23.546	10.8587
23.564	10.9026
23.582	10.9459
23.6	10.988
23.618	11.0297
23.636	11.068
23.654	11.1014
23.672	11.131
23.69	11.1554
23.708	11.1731
23.726	11.1847
23.744	11.1906
23.762	11.1909
23.78	11.1851
23.798	11.1744
23.816	11.1596
23.834	11.1401
23.852	11.1169
23.87	11.092
23.888	11.0643
23.906	11.035
23.924	11.007
23.942	10.9796
23.96	10.9531
23.978	10.9312
23.996	10.915
24.014	10.9031
24.032	10.8984
24.05	10.9025
24.068	10.9138
24.086	10.9344
24.104	10.9662
24.122	11.0074
24.14	11.0603
24.158	11.1279
24.176	11.2087
24.194	11.3039
24.212	11.4169
24.23	11.5483
24.248	11.697
24.266	11.8654
24.284	12.055
24.302	12.2643
24.32	12.4942
24.338	12.7454
24.356	13.0179
24.374	13.3108
24.392	13.6231
24.41	13.956
24.428	14.3083
24.446	14.6766
24.464	15.0607
24.482	15.4622
24.5	15.8748
24.518	16.2938
24.536	16.7238
24.554	17.1594
24.572	17.5928
24.59	18.0266
24.608	18.46
24.626	18.8851
24.644	19.2988
24.662	19.7053
24.68	20.0985
24.698	20.4727
24.716	20.831
24.734	21.172
24.752	21.4919
24.77	21.7905
24.788	22.0688
24.806	22.3254
24.824	22.5588
24.842	22.7691
24.86	22.9583
24.878	23.1282
24.896	23.2782
24.914	23.4087
24.932	23.5213
24.95	23.6166
24.968	23.6933
24.986	23.7541
25.004	23.8014
25.022	23.8359
25.04	23.856
25.058	23.8606
25.076	23.8502
25.094	23.8259
25.112	23.7835
25.13	23.7185
25.148	23.635
25.166	23.5301
25.184	23.3973
25.202	23.2336
25.22	23.0432
25.238	22.8218
25.256	22.565
25.274	22.2751
25.292	21.9517
25.31	21.5913
25.328	21.1917
25.346	20.7548
25.364	20.2806
25.382	19.7688
25.4	19.2167
25.418	18.6267
25.436	18.0048
25.454	17.3545
25.472	16.6688
25.49	15.9568
25.508	15.2303
25.526	14.4899
25.544	13.7301
25.562	12.9636
25.58	12.2019
25.598	11.4376
25.616	10.6736
25.634	9.920718
25.652	9.185771
25.67	8.461693
25.688	7.752724
25.706	7.064541
25.724	6.398718
25.742	5.752475
25.76	5.125989
25.778	4.519623
25.796	3.935684
25.814	3.371227
25.832	2.821580
25.85	2.284273
25.868	1.763872
25.886	1.255030
25.904	0.751125
25.922	0.250889
25.94	-0.242064
25.958	-0.732533
25.976	-1.225388
25.994	-1.719993
26.012	-2.215060
26.03	-2.712039
26.048	-3.212463
26.066	-3.717499
26.084	-4.224690
26.102	-4.730961
26.12	-5.235219
26.138	-5.741634
26.156	-6.244499
26.174	-6.736969
26.192	-7.216693
26.21	-7.688148
26.228	-8.147511
26.246	-8.590649
26.264	-9.018368
26.282	-9.432280
26.3	-9.828287
26.318	-10.2024
26.336	-10.557
26.354	-10.8921
26.372	-11.2037
26.39	-11.4882
26.408	-11.7478
26.426	-11.9824
26.444	-12.1902
26.462	-12.3691
26.48	-12.5191
26.498	-12.6421
26.516	-12.7399
26.534	-12.8138
26.552	-12.8612
26.57	-12.8848
26.588	-12.8884
26.606	-12.873
26.624	-12.8331
26.642	-12.7761
26.66	-12.7109
26.678	-12.6429
26.696	-12.5654
26.714	-12.4817
26.732	-12.3959
26.75	-12.3095
26.768	-12.2182
26.786	-12.1269
26.804	-12.0409
26.822	-11.9664
26.84	-11.9033
26.858	-11.8419
26.876	-11.7723
26.894	-11.6945
26.912	-11.6221
26.93	-11.5337
26.948	-11.4059
26.966	-11.2048
26.984	-10.9168
27.002	-10.6136
27.02	-10.3711
27.028	-10.3092