File: Bakgrunnsmateriale/MATLAB/FTIR/ftir_data/LPE453/Mapping_121/LPE453_t16.asc
PE IR       SPECTRUM    SPECTRUM    ASCII       PEDS        1.60
  -1
LPD791~1.ASC
17/05/16
15:37:50.00
17/05/16
15:38:16.00
tln
$LPE453_t0016$<tbV0>[2.6,-10.4,8.0,0.0,27,1,0]
27.028
64

2002,4.07
MIRTGS : RIGHTBACK : INTERNAL 2
MIR : ON : INTERNAL 2
OPTKBR

0.200000
8
8.000000
FILLER
RATIO
SPECTRUM
UNLOCKED 256

DOUBLE
64
COMBINED
1
0
0

0.002000
RATIO

1
0
TRUE
51149
0
LEFT NOT FITTED RIGHT NOT FITTED 0
NONE
NONE
15600
12
4.427000
51148
TRUE
1 0 8 72 0 0 0 0

15798

#HDR
-1
-1
#GR
µM
%T
2.38419e-05
0.0
2.000000
0.002000
12515
8
30.744
-24.7175
#DATA
2.000000	 0.021910
2.018000	 -0.287303
2.036000	 0.588079
2.054000	 -0.281707
2.072000	 0.061024
2.090000	 0.177474
2.108000	 0.072573
2.126000	 0.085849
2.144000	 -0.078626
2.162000	 0.166554
2.180000	 0.421406
2.198000	 -1.350622
2.216000	 12.5184
2.234000	 0.536579
2.252000	 0.454348
2.270000	 0.783447
2.288000	 0.420809
2.306000	 0.260727
2.324000	 0.127051
2.342000	 -0.021100
2.360000	 0.171790
2.378000	 0.439531
2.396000	 -0.561986
2.414000	 0.046251
2.432000	 0.115883
2.450000	 0.019986
2.468000	 0.163973
2.486000	 -0.096664
2.504000	 0.182536
2.522000	 0.378999
2.540000	 0.203837
2.558000	 0.012341
2.576000	 0.096566
2.594000	 0.031904
2.612000	 0.042643
2.630000	 0.166020
2.648000	 0.193894
2.666000	 0.145861
2.684000	 0.228060
2.702000	 0.063432
2.720000	 0.027661
2.738000	 0.058277
2.756000	 0.193264
2.774000	 -0.167140
2.792000	 -0.045133
2.810000	 -0.051582
2.828000	 0.150636
2.846000	 0.120773
2.864000	 0.127338
2.882000	 0.051847
2.900000	 0.029959
2.918000	 0.053890
2.936000	 0.137090
2.954000	 0.053635
2.972000	 0.049960
2.990000	 0.196582
3.008000	 0.059960
3.026000	 0.076550
3.044000	 0.078320
3.062000	 0.002849
3.080000	 -0.079575
3.098000	 0.091047
3.116000	 -0.108841
3.134000	 -0.085126
3.152000	 0.144859
3.170000	 -0.068085
3.188000	 0.349916
3.206000	 0.113111
3.224000	 0.021289
3.242000	 0.023398
3.260000	 -0.060763
3.278000	 0.180358
3.296000	 0.011224
3.314000	 0.094406
3.332000	 0.089667
3.350000	 0.186599
3.368000	 0.023081
3.386000	 0.141543
3.404000	 0.009621
3.422000	 0.199262
3.440000	 0.133145
3.458000	 -0.017777
3.476000	 0.022253
3.494000	 0.225198
3.512000	 0.118344
3.530000	 0.035262
3.548000	 0.055295
3.566000	 0.020712
3.584000	 0.043087
3.602000	 0.037429
3.620000	 -0.018716
3.638000	 -0.071100
3.656000	 0.054810
3.674000	 -0.037916
3.692000	 -0.052286
3.710000	 0.060193
3.728000	 0.041054
3.746000	 0.035170
3.764000	 0.082666
3.782000	 -0.064546
3.800000	 -0.017631
3.818000	 -0.023972
3.836000	 0.034715
3.854000	 -0.005749
3.872000	 0.059913
3.890000	 0.059376
3.908000	 0.013992
3.926000	 0.077628
3.944000	 -0.028342
3.962000	 0.026656
3.980000	 -0.056920
3.998000	 0.070369
4.016000	 0.036035
4.034000	 0.024466
4.052000	 0.087916
4.070000	 -0.001895
4.088000	 -0.007414
4.106000	 0.069376
4.124000	 -0.162034
4.141999	 0.270005
4.160000	 -0.020161
4.178000	 0.025634
4.196000	 -0.032091
4.214000	 0.010640
4.232000	 0.095527
4.250000	 0.052230
4.268000	 0.032363
4.286000	 -0.088282
4.304000	 -0.015386
4.322000	 0.023963
4.340000	 0.041032
4.358000	 0.135213
4.375999	 0.151750
4.394000	 0.236353
4.412000	 0.362082
4.430000	 0.397680
4.448000	 0.526133
4.466000	 0.654768
4.484000	 0.883003
4.502000	 1.130030
4.520000	 1.416125
4.538000	 1.863993
4.556000	 2.114126
4.574000	 2.616940
4.592000	 3.190430
4.609999	 3.701168
4.628000	 4.330396
4.646000	 4.960366
4.664000	 5.633287
4.682000	 6.686561
4.700000	 7.378211
4.718000	 8.147585
4.736000	 8.887335
4.754000	 9.843673
4.772000	 10.6688
4.790000	 11.6095
4.808000	 12.3298
4.826000	 13.3042
4.843999	 14.1618
4.862000	 15.1959
4.880000	 15.9588
4.898000	 16.6146
4.916000	 17.4339
4.934000	 18.3036
4.952000	 18.9276
4.970000	 19.5086
4.988000	 20.2128
5.006000	 20.9002
5.024000	 21.5033
5.042000	 22.0243
5.060000	 22.5662
5.077999	 23.113
5.096000	 23.5503
5.114000	 24.0408
5.132000	 24.5512
5.150000	 24.9167
5.168000	 25.1923
5.186000	 25.5543
5.204000	 25.8852
5.222000	 26.288
5.240000	 26.5063
5.258000	 26.7694
5.276000	 27.0289
5.294000	 27.3411
5.312000	 27.5212
5.330000	 27.7006
5.348000	 27.9497
5.366000	 28.0849
5.384000	 28.2265
5.402000	 28.4557
5.420000	 28.6229
5.438000	 28.64
5.456000	 28.8248
5.474000	 28.9532
5.492000	 29.0277
5.510000	 29.1863
5.528000	 29.3862
5.546000	 29.5058
5.564000	 29.5843
5.582000	 29.5739
5.600000	 29.6301
5.618000	 29.776
5.636000	 29.8808
5.654000	 29.8822
5.672000	 29.8745
5.690000	 29.9649
5.708000	 30.101
5.726000	 30.0819
5.744000	 30.0454
5.762000	 30.1348
5.780000	 30.1337
5.798000	 30.1466
5.816000	 30.1895
5.834000	 30.1764
5.852000	 30.2198
5.870000	 30.4269
5.888000	 30.5089
5.906000	 30.4353
5.923999	 30.5068
5.942000	 30.5183
5.960000	 30.4297
5.978000	 30.415
5.996000	 30.4167
6.014000	 30.4486
6.032000	 30.6036
6.050000	 30.744
6.068000	 30.6347
6.086000	 30.5264
6.104000	 30.6567
6.122000	 30.7255
6.140000	 30.6077
6.158000	 30.4762
6.176000	 30.4104
6.194000	 30.3969
6.212000	 30.341
6.230000	 30.3433
6.248000	 30.3678
6.266000	 30.2712
6.284000	 30.1998
6.302000	 30.3065
6.320000	 30.4342
6.338000	 30.503
6.356000	 30.4804
6.374000	 30.4163
6.392000	 30.467
6.410000	 30.6284
6.428000	 30.5808
6.446000	 30.3869
6.464000	 30.4553
6.482000	 30.657
6.500000	 30.6003
6.518000	 30.4197
6.536000	 30.3851
6.554000	 30.4601
6.572000	 30.5327
6.590000	 30.4935
6.608000	 30.4488
6.626000	 30.5494
6.644000	 30.5468
6.662000	 30.4019
6.680000	 30.3439
6.698000	 30.2725
6.716000	 30.1906
6.734000	 30.1592
6.752000	 30.1245
6.770000	 30.175
6.788000	 30.2684
6.806000	 30.2845
6.824000	 30.3153
6.842000	 30.4157
6.860000	 30.4274
6.878000	 30.2086
6.896000	 29.938
6.914000	 29.8767
6.932000	 29.9675
6.950000	 30.0586
6.968000	 30.042
6.986000	 29.95
7.004000	 29.9699
7.022000	 30.0703
7.040000	 30.0624
7.058000	 29.9789
7.076000	 29.9116
7.094000	 29.869
7.112000	 29.9023
7.130000	 29.9829
7.148000	 30.0031
7.166000	 29.9733
7.184000	 29.9602
7.202000	 29.978
7.220000	 30.0033
7.238000	 30.0022
7.256000	 29.9605
7.274000	 29.8914
7.292000	 29.8623
7.310000	 29.9185
7.328000	 29.9677
7.346000	 29.9207
7.364000	 29.8412
7.382000	 29.8133
7.400000	 29.823
7.418000	 29.8169
7.436000	 29.7766
7.454000	 29.724
7.472000	 29.6978
7.490000	 29.7182
7.508000	 29.7617
7.526000	 29.7828
7.544000	 29.7618
7.562000	 29.7122
7.580000	 29.6555
7.598000	 29.6158
7.616000	 29.6156
7.634000	 29.6504
7.652000	 29.6762
7.670000	 29.6594
7.688000	 29.6217
7.706000	 29.5986
7.724000	 29.5825
7.742000	 29.5476
7.760000	 29.5043
7.778000	 29.4887
7.796000	 29.5081
7.814000	 29.5292
7.832000	 29.5258
7.850000	 29.4996
7.868000	 29.4617
7.886000	 29.4342
7.904000	 29.4399
7.922000	 29.4628
7.940000	 29.4564
7.958000	 29.4023
7.976000	 29.3309
7.994000	 29.2853
8.012000	 29.2841
8.030000	 29.3114
8.048000	 29.3398
8.065999	 29.3598
8.084000	 29.38
8.102000	 29.4005
8.120000	 29.4062
8.138000	 29.3882
8.155999	 29.3553
8.173999	 29.3162
8.192000	 29.2706
8.210000	 29.2253
8.228000	 29.1982
8.246000	 29.1964
8.263999	 29.205
8.282000	 29.2079
8.300000	 29.2091
8.318000	 29.2174
8.336000	 29.2233
8.353999	 29.2061
8.372000	 29.161
8.390000	 29.1075
8.408000	 29.0702
8.426000	 29.0615
8.443999	 29.0809
8.462000	 29.1191
8.480000	 29.1588
8.498000	 29.1779
8.516000	 29.1663
8.533999	 29.1327
8.552000	 29.0886
8.570000	 29.0342
8.588000	 28.9684
8.606000	 28.9071
8.624000	 28.8784
8.641999	 28.8968
8.660000	 28.9396
8.678000	 28.9602
8.696000	 28.9299
8.714000	 28.8642
8.731999	 28.8088
8.750000	 28.807
8.768000	 28.8663
8.786000	 28.9474
8.804000	 28.9951
8.821999	 28.9875
8.840000	 28.9481
8.858000	 28.9149
8.876000	 28.903
8.894000	 28.8988
8.911999	 28.8825
8.930000	 28.8523
8.948000	 28.821
8.966000	 28.7979
8.984000	 28.7791
9.001999	 28.7564
9.020000	 28.7255
9.038000	 28.686
9.056000	 28.6394
9.074000	 28.5903
9.092000	 28.55
9.109999	 28.5285
9.128000	 28.5247
9.146000	 28.5257
9.164000	 28.517
9.182000	 28.4925
9.199999	 28.4573
9.218000	 28.4241
9.236000	 28.4028
9.254000	 28.3914
9.272000	 28.3789
9.289999	 28.3581
9.308000	 28.3372
9.326000	 28.3346
9.344000	 28.3608
9.362000	 28.4043
9.379999	 28.4369
9.398000	 28.434
9.416000	 28.3922
9.434000	 28.3299
9.452000	 28.2748
9.469999	 28.2502
9.488000	 28.2663
9.506000	 28.314
9.524000	 28.3673
9.542000	 28.3951
9.560000	 28.381
9.577999	 28.3347
9.596000	 28.2807
9.614000	 28.2372
9.632000	 28.2021
9.650000	 28.1628
9.667999	 28.1154
9.686000	 28.0737
9.704000	 28.0571
9.722000	 28.0705
9.740000	 28.1005
9.757999	 28.131
9.776000	 28.1618
9.794000	 28.2047
9.812000	 28.2622
9.830000	 28.3116
9.847999	 28.3147
9.866000	 28.2465
9.884000	 28.1157
9.902000	 27.9617
9.920000	 27.8309
9.937999	 27.752
9.956000	 27.7266
9.974000	 27.739
9.992000	 27.7703
10.01	27.8072
10.028	27.8444
10.046	27.8805
10.064	27.9135
10.082	27.9364
10.1	27.9339
10.118	27.8872
10.136	27.7865
10.154	27.6442
10.172	27.4963
10.19	27.3923
10.208	27.3678
10.226	27.4269
10.244	27.5408
10.262	27.6608
10.28	27.7456
10.298	27.7752
10.316	27.7531
10.334	27.6976
10.352	27.6289
10.37	27.5621
10.388	27.5048
10.406	27.4586
10.424	27.4204
10.442	27.384
10.46	27.3439
10.478	27.2989
10.496	27.2541
10.514	27.2171
10.532	27.1946
10.55	27.1867
10.568	27.1881
10.586	27.1906
10.604	27.1883
10.622	27.1792
10.64	27.1651
10.658	27.1488
10.676	27.132
10.694	27.1155
10.712	27.1005
10.73	27.0874
10.748	27.0765
10.766	27.0668
10.784	27.0568
10.802	27.0444
10.82	27.0296
10.838	27.013
10.856	26.9964
10.874	26.9807
10.892	26.9648
10.91	26.9465
10.928	26.9243
10.946	26.9002
10.964	26.8798
10.982	26.8715
11	26.8815
11.018	26.9112
11.036	26.9538
11.054	26.996
11.072	27.0226
11.09	27.0195
11.108	26.9807
11.126	26.9089
11.144	26.8143
11.162	26.7133
11.18	26.6214
11.198	26.5507
11.216	26.5058
11.234	26.4836
11.252	26.4752
11.27	26.4701
11.288	26.4593
11.306	26.4389
11.324	26.4096
11.342	26.376
11.36	26.3434
11.378	26.3172
11.396	26.3007
11.414	26.2952
11.432	26.2996
11.45	26.3107
11.468	26.3237
11.486	26.3342
11.504	26.3386
11.522	26.3341
11.54	26.3196
11.558	26.2953
11.576	26.2621
11.594	26.2216
11.612	26.1771
11.63	26.1335
11.648	26.0965
11.666	26.0717
11.684	26.0622
11.702	26.0672
11.72	26.0817
11.738	26.0983
11.756	26.1096
11.774	26.1102
11.792	26.0977
11.81	26.0734
11.828	26.0405
11.846	26.0038
11.864	25.9682
11.882	25.9374
11.9	25.9139
11.918	25.8974
11.936	25.8852
11.954	25.8727
11.972	25.8547
11.99	25.8273
12.008	25.7904
12.026	25.7483
12.044	25.7087
12.062	25.6804
12.08	25.6694
12.098	25.6763
12.116	25.6953
12.134	25.7152
12.152	25.7236
12.17	25.7122
12.188	25.6788
12.206	25.6296
12.224	25.576
12.242	25.531
12.26	25.504
12.278	25.4981
12.296	25.5091
12.314	25.5276
12.332	25.5424
12.35	25.5442
12.368	25.5275
12.386	25.4919
12.404	25.4418
12.422	25.3848
12.44	25.3287
12.458	25.28
12.476	25.2431
12.494	25.2192
12.512	25.2067
12.53	25.2025
12.548	25.2019
12.566	25.1998
12.584	25.1918
12.602	25.1745
12.62	25.146
12.638	25.1074
12.656	25.063
12.674	25.0194
12.692	24.9841
12.71	24.9631
12.728	24.9599
12.746	24.9738
12.764	24.9998
12.782	25.0303
12.8	25.0569
12.818	25.0729
12.836	25.0746
12.854	25.0616
12.872	25.0373
12.89	25.0066
12.908	24.9742
12.926	24.9434
12.944	24.9154
12.962	24.8881
12.98	24.8579
12.998	24.8205
13.016	24.7729
13.034	24.7145
13.052	24.6474
13.07	24.576
13.088	24.5059
13.106	24.4424
13.124	24.3898
13.142	24.3503
13.16	24.3241
13.178	24.3101
13.196	24.3063
13.214	24.3115
13.232	24.3255
13.25	24.3491
13.268	24.3834
13.286	24.4291
13.304	24.4854
13.322	24.5497
13.34	24.6173
13.358	24.6821
13.376	24.7378
13.394	24.7784
13.412	24.7991
13.43	24.7966
13.448	24.7694
13.466	24.7177
13.484	24.6436
13.502	24.5512
13.52	24.4466
13.538	24.338
13.556	24.2345
13.574	24.1456
13.592	24.0794
13.61	24.0414
13.628	24.0333
13.646	24.052
13.664	24.0902
13.682	24.1374
13.7	24.1823
13.718	24.2143
13.736	24.2268
13.754	24.2168
13.772	24.1861
13.79	24.1403
13.808	24.0867
13.826	24.0326
13.844	23.9829
13.862	23.9398
13.88	23.9019
13.898	23.8655
13.916	23.8257
13.934	23.7781
13.952	23.7202
13.97	23.6525
13.988	23.5782
14.006	23.5035
14.024	23.4357
14.042	23.3819
14.06	23.3474
14.078	23.3347
14.096	23.3429
14.114	23.3683
14.132	23.405
14.15	23.4454
14.168	23.4817
14.186	23.5066
14.204	23.5147
14.222	23.5024
14.24	23.4686
14.258	23.415
14.276	23.3446
14.294	23.2625
14.312	23.1755
14.33	23.0907
14.348	23.0158
14.366	22.9577
14.384	22.9219
14.402	22.9117
14.42	22.9278
14.438	22.9683
14.456	23.029
14.474	23.1037
14.492	23.1849
14.51	23.2644
14.528	23.335
14.546	23.3913
14.564	23.4295
14.582	23.4478
14.6	23.4463
14.618	23.4266
14.636	23.3913
14.654	23.3429
14.672	23.2841
14.69	23.2171
14.708	23.1443
14.726	23.0677
14.744	22.9895
14.762	22.9123
14.78	22.8388
14.798	22.7714
14.816	22.7123
14.834	22.6636
14.852	22.6255
14.87	22.5975
14.888	22.5783
14.906	22.5662
14.924	22.5593
14.942	22.5555
14.96	22.5538
14.978	22.5534
14.996	22.5539
15.014	22.556
15.032	22.5607
15.05	22.5689
15.068	22.5813
15.086	22.5979
15.104	22.6183
15.122	22.6415
15.14	22.6657
15.158	22.6891
15.176	22.7099
15.194	22.7261
15.212	22.7361
15.23	22.7392
15.248	22.735
15.266	22.7237
15.284	22.7059
15.302	22.6822
15.32	22.6532
15.338	22.6196
15.356	22.5817
15.374	22.5396
15.392	22.4931
15.41	22.4421
15.428	22.3865
15.446	22.3266
15.464	22.2631
15.482	22.1974
15.5	22.1315
15.518	22.0687
15.536	22.0126
15.554	21.9667
15.572	21.9346
15.59	21.92
15.608	21.9247
15.626	21.9496
15.644	21.9946
15.662	22.0569
15.68	22.1328
15.698	22.2182
15.716	22.3068
15.734	22.3922
15.752	22.4697
15.77	22.5345
15.788	22.5825
15.806	22.6122
15.824	22.6231
15.842	22.616
15.86	22.5933
15.878	22.5578
15.896	22.5123
15.914	22.4603
15.932	22.4044
15.95	22.3463
15.968	22.2873
15.986	22.2279
16.004	22.1676
16.022	22.1059
16.04	22.0423
16.058	21.9764
16.076	21.9082
16.094	21.8381
16.112	21.7671
16.13	21.6964
16.148	21.6274
16.166	21.5619
16.184	21.5007
16.202	21.4443
16.22	21.3936
16.238	21.348
16.256	21.307
16.274	21.2704
16.292	21.238
16.31	21.2096
16.328	21.1862
16.346	21.1686
16.364	21.1578
16.382	21.1555
16.4	21.1626
16.418	21.1797
16.436	21.2068
16.454	21.242
16.472	21.2837
16.49	21.3283
16.508	21.3724
16.526	21.4133
16.544	21.4464
16.562	21.4694
16.58	21.4804
16.598	21.4786
16.616	21.4651
16.634	21.441
16.652	21.4103
16.67	21.3759
16.688	21.3409
16.706	21.3096
16.724	21.2836
16.742	21.265
16.76	21.2539
16.778	21.2497
16.796	21.2509
16.814	21.2545
16.832	21.2589
16.85	21.2601
16.868	21.2569
16.886	21.248
16.904	21.2325
16.922	21.2112
16.94	21.1846
16.958	21.1552
16.976	21.1241
16.994	21.0944
17.012	21.0675
17.03	21.0445
17.048	21.0263
17.066	21.012
17.084	21.001
17.102	20.9907
17.12	20.98
17.138	20.9649
17.156	20.9433
17.174	20.913
17.192	20.8714
17.21	20.8178
17.228	20.7513
17.246	20.6729
17.264	20.5832
17.282	20.4853
17.3	20.3808
17.318	20.2732
17.336	20.1658
17.354	20.0607
17.372	19.9622
17.39	19.8712
17.408	19.7907
17.426	19.7213
17.444	19.6636
17.462	19.6176
17.48	19.5827
17.498	19.5576
17.516	19.5409
17.534	19.5316
17.552	19.5271
17.57	19.5265
17.588	19.5282
17.606	19.5316
17.624	19.5357
17.642	19.541
17.66	19.5476
17.678	19.5563
17.696	19.5674
17.714	19.5825
17.732	19.6021
17.75	19.627
17.768	19.6578
17.786	19.6946
17.804	19.7369
17.822	19.7842
17.84	19.8351
17.858	19.8886
17.876	19.9433
17.894	19.9971
17.912	20.0491
17.93	20.0972
17.948	20.1408
17.966	20.1783
17.984	20.2093
18.002	20.2332
18.02	20.25
18.038	20.2596
18.056	20.2626
18.074	20.259
18.092	20.25
18.11	20.2357
18.128	20.2171
18.146	20.1945
18.164	20.1687
18.182	20.1403
18.2	20.1097
18.218	20.0777
18.236	20.0448
18.254	20.0115
18.272	19.9781
18.29	19.9459
18.308	19.9149
18.326	19.8864
18.344	19.8602
18.362	19.8371
18.38	19.8169
18.398	19.7996
18.416	19.7847
18.434	19.7721
18.452	19.7609
18.47	19.7507
18.488	19.7401
18.506	19.7289
18.524	19.7155
18.542	19.6997
18.56	19.6805
18.578	19.6577
18.596	19.6309
18.614	19.6001
18.632	19.5656
18.65	19.5277
18.668	19.487
18.686	19.4438
18.704	19.3993
18.722	19.3534
18.74	19.3073
18.758	19.2611
18.776	19.2157
18.794	19.1711
18.812	19.1278
18.83	19.0858
18.848	19.0452
18.866	19.006
18.884	18.9681
18.902	18.9317
18.92	18.8967
18.938	18.8634
18.956	18.8316
18.974	18.8015
18.992	18.7734
19.01	18.7473
19.028	18.7233
19.046	18.7017
19.064	18.6825
19.082	18.6657
19.1	18.6514
19.118	18.6393
19.136	18.6294
19.154	18.6215
19.172	18.6152
19.19	18.6105
19.208	18.6071
19.226	18.6051
19.244	18.6044
19.262	18.6052
19.28	18.6078
19.298	18.6123
19.316	18.6193
19.334	18.6288
19.352	18.6413
19.37	18.6569
19.388	18.6759
19.406	18.6983
19.424	18.7239
19.442	18.7527
19.46	18.7837
19.478	18.817
19.496	18.8509
19.514	18.8852
19.532	18.9183
19.55	18.9492
19.568	18.9768
19.586	18.9997
19.604	19.0174
19.622	19.0285
19.64	19.0332
19.658	19.0303
19.676	19.0201
19.694	19.0027
19.712	18.9782
19.73	18.9479
19.748	18.9115
19.766	18.8711
19.784	18.8268
19.802	18.7806
19.82	18.7332
19.838	18.6855
19.856	18.6392
19.874	18.5944
19.892	18.5526
19.91	18.5136
19.928	18.4783
19.946	18.4468
19.964	18.4191
19.982	18.3952
20	18.3747
20.018	18.3576
20.036	18.3436
20.054	18.3321
20.072	18.3231
20.09	18.3161
20.108	18.3111
20.126	18.3079
20.144	18.3064
20.162	18.3068
20.18	18.3093
20.198	18.314
20.216	18.3216
20.234	18.332
20.252	18.3462
20.27	18.364
20.288	18.3861
20.306	18.4126
20.324	18.4435
20.342	18.4789
20.36	18.5185
20.378	18.5618
20.396	18.6088
20.414	18.6577
20.432	18.7087
20.45	18.7599
20.468	18.8106
20.486	18.8597
20.504	18.9046
20.522	18.9458
20.54	18.9802
20.558	19.008
20.576	19.0273
20.594	19.037
20.612	19.037
20.63	19.0259
20.648	19.004
20.666	18.971
20.684	18.9266
20.702	18.8722
20.72	18.8079
20.738	18.7345
20.756	18.6544
20.774	18.5668
20.792	18.4751
20.81	18.3796
20.828	18.2817
20.846	18.1842
20.864	18.0864
20.882	17.9917
20.9	17.8999
20.918	17.8123
20.936	17.7304
20.954	17.6539
20.972	17.5841
20.99	17.5211
21.008	17.4648
21.026	17.4155
21.044	17.3728
21.062	17.3362
21.08	17.3057
21.098	17.2802
21.116	17.2596
21.134	17.2433
21.152	17.2303
21.17	17.2209
21.188	17.2138
21.206	17.2088
21.224	17.2057
21.242	17.2036
21.26	17.2026
21.278	17.2021
21.296	17.202
21.314	17.2019
21.332	17.2016
21.35	17.2011
21.368	17.1999
21.386	17.1978
21.404	17.1947
21.422	17.1902
21.44	17.1844
21.458	17.1769
21.476	17.1676
21.494	17.1565
21.512	17.1434
21.53	17.1282
21.548	17.1114
21.566	17.0931
21.584	17.0734
21.602	17.053
21.62	17.0318
21.638	17.0103
21.656	16.9892
21.674	16.9684
21.692	16.9484
21.71	16.9291
21.728	16.9108
21.746	16.8937
21.764	16.878
21.782	16.8632
21.8	16.8492
21.818	16.836
21.836	16.8217
21.854	16.8064
21.872	16.7894
21.89	16.7687
21.908	16.7451
21.926	16.7173
21.944	16.6841
21.962	16.6462
21.98	16.6031
21.998	16.5546
22.016	16.5011
22.034	16.4434
22.052	16.3807
22.07	16.3154
22.088	16.2489
22.106	16.1805
22.124	16.1145
22.142	16.0511
22.16	15.991
22.178	15.9391
22.196	15.894
22.214	15.8581
22.232	15.8348
22.25	15.8229
22.268	15.8239
22.286	15.8395
22.304	15.8687
22.322	15.9107
22.34	15.9664
22.358	16.0343
22.376	16.1112
22.394	16.1986
22.412	16.2934
22.43	16.391
22.448	16.494
22.466	16.5975
22.484	16.6978
22.502	16.7969
22.52	16.89
22.538	16.9748
22.556	17.0526
22.574	17.1207
22.592	17.1781
22.61	17.2257
22.628	17.2633
22.646	17.2903
22.664	17.308
22.682	17.318
22.7	17.3195
22.718	17.3143
22.736	17.3048
22.754	17.2894
22.772	17.271
22.79	17.2523
22.808	17.2318
22.826	17.2113
22.844	17.192
22.862	17.1734
22.88	17.1553
22.898	17.1384
22.916	17.1224
22.934	17.1042
22.952	17.0836
22.97	17.0608
22.988	17.0314
23.006	16.9955
23.024	16.9529
23.042	16.898
23.06	16.8307
23.078	16.751
23.096	16.6551
23.114	16.543
23.132	16.4147
23.15	16.2682
23.168	16.103
23.186	15.9199
23.204	15.7188
23.222	15.4988
23.24	15.2614
23.258	15.0099
23.276	14.7426
23.294	14.4617
23.312	14.173
23.33	13.8746
23.348	13.5688
23.366	13.2637
23.384	12.9579
23.402	12.6527
23.42	12.3563
23.438	12.0679
23.456	11.788
23.474	11.5247
23.492	11.2785
23.51	11.0485
23.528	10.8408
23.546	10.6567
23.564	10.4946
23.582	10.3584
23.6	10.2497
23.618	10.1671
23.636	10.1115
23.654	10.0843
23.672	10.0848
23.69	10.1109
23.708	10.1616
23.726	10.2385
23.744	10.3367
23.762	10.4523
23.78	10.5888
23.798	10.7405
23.816	10.9009
23.834	11.0742
23.852	11.2557
23.87	11.4377
23.888	11.6225
23.906	11.8087
23.924	11.9902
23.942	12.1663
23.96	12.3384
23.978	12.5037
23.996	12.6606
24.014	12.8104
24.032	12.9534
24.05	13.0893
24.068	13.2174
24.086	13.3405
24.104	13.4607
24.122	13.5747
24.14	13.6877
24.158	13.8062
24.176	13.9271
24.194	14.0528
24.212	14.1904
24.23	14.3412
24.248	14.503
24.266	14.6799
24.284	14.8748
24.302	15.0862
24.32	15.3125
24.338	15.5525
24.356	15.8086
24.374	16.077
24.392	16.3526
24.41	16.6392
24.428	16.9339
24.446	17.2258
24.464	17.5119
24.482	17.7974
24.5	18.0708
24.518	18.3229
24.536	18.5624
24.554	18.78
24.572	18.9626
24.59	19.1142
24.608	19.234
24.626	19.3096
24.644	19.3352
24.662	19.3175
24.68	19.2497
24.698	19.1247
24.716	18.945
24.734	18.7116
24.752	18.424
24.77	18.0791
24.788	17.6792
24.806	17.2326
24.824	16.7436
24.842	16.2048
24.86	15.6283
24.878	15.0281
24.896	14.3955
24.914	13.7357
24.932	13.0695
24.95	12.4058
24.968	11.7301
24.986	11.0649
25.004	10.4337
25.022	9.823883
25.04	9.241112
25.058	8.707232
25.076	8.232009
25.094	7.802987
25.112	7.432093
25.13	7.131856
25.148	6.898321
25.166	6.730326
25.184	6.632007
25.202	6.607244
25.22	6.654484
25.238	6.767784
25.256	6.941534
25.274	7.181554
25.292	7.483112
25.31	7.834361
25.328	8.229837
25.346	8.678651
25.364	9.167853
25.382	9.682671
25.4	10.2286
25.418	10.8057
25.436	11.398
25.454	11.9944
25.472	12.6069
25.49	13.2253
25.508	13.8347
25.526	14.4352
25.544	15.0339
25.562	15.612
25.58	16.1523
25.598	16.669
25.616	17.1544
25.634	17.5873
25.652	17.9572
25.67	18.2826
25.688	18.5424
25.706	18.7112
25.724	18.7911
25.742	18.7915
25.76	18.6893
25.778	18.4633
25.796	18.1249
25.814	17.6732
25.832	17.0956
25.85	16.3824
25.868	15.5389
25.886	14.5696
25.904	13.4781
25.922	12.2582
25.94	10.9079
25.958	9.450687
25.976	7.909473
25.994	6.264567
26.012	4.523092
26.03	2.724992
26.048	0.903268
26.066	-0.978249
26.084	-2.895920
26.102	-4.803503
26.12	-6.674544
26.138	-8.550147
26.156	-10.3936
26.174	-12.1577
26.192	-13.8278
26.21	-15.4356
26.228	-16.9501
26.246	-18.3379
26.264	-19.6008
26.282	-20.7532
26.3	-21.7728
26.318	-22.6378
26.336	-23.3539
26.354	-23.9269
26.372	-24.3485
26.39	-24.6108
26.408	-24.7152
26.426	-24.6662
26.444	-24.4661
26.462	-24.1165
26.48	-23.6119
26.498	-22.9595
26.516	-22.1703
26.534	-21.2505
26.552	-20.1877
26.57	-18.9949
26.588	-17.6896
26.606	-16.2808
26.624	-14.7498
26.642	-13.116
26.66	-11.4033
26.678	-9.622413
26.696	-7.750393
26.714	-5.810259
26.732	-3.829482
26.75	-1.817686
26.768	0.251793
26.786	2.349669
26.804	4.442459
26.822	6.516882
26.84	8.601954
26.858	10.672
26.876	12.6974
26.894	14.6659
26.912	16.6033
26.93	18.4887
26.948	20.2979
26.966	22.0724
26.984	23.9115
27.002	25.6024
27.02	26.9121
27.028	27.2699