File: Bakgrunnsmateriale/MATLAB/FTIR/ftir_data/LPE453/Mapping_121/LPE453_t15_cm-1.asc
PE IR       SPECTRUM    SPECTRUM    ASCII       PEDS        1.60
  -1
LPE7DB~1.ASC
17/05/16
15:33:14.00
17/05/16
15:33:14.00
tln
$LPE453_t0015$<tbV0>[5.2,-10.4,8.0,0.0,27,1,0]
370
64

2002,4.07
MIRTGS : RIGHTBACK : INTERNAL 2
MIR : ON : INTERNAL 2
OPTKBR

0.200000
8
8.000000
FILLER
RATIO
SPECTRUM
UNLOCKED 256

DOUBLE
64
COMBINED
1
0
0

1.000000
RATIO

1
0
TRUE
51149
0
LEFT NOT FITTED RIGHT NOT FITTED 0
NONE
NONE
15600
12
4.427000
51148
TRUE
1 0 8 72 0 0 0 0

15798

#HDR
-1
-1
#GR
CM-1
%T
2.38419e-05
0.0
5000
-1.000000
4631
8
38.163
-16.8547
#DATA
5000	-0.042343
4996	0.020933
4992	0.286841
4988	0.380516
4984	0.067806
4980	-0.220918
4976	-0.460672
4972	-0.686955
4968	-0.389647
4964	0.272703
4960	0.397515
4956	0.249028
4952	0.253844
4948	-0.010871
4944	-0.041937
4940	0.349640
4936	0.310158
4932	0.077700
4928	0.067210
4924	-0.007987
4920	-0.077199
4916	-0.074696
4912	-0.155162
4908	-0.107479
4904	0.025868
4900	0.242781
4896	0.684118
4892	0.718736
4888	0.287818
4884	0.033092
4880	-0.063967
4876	-0.035262
4872	0.352072
4868	0.528931
4864	0.165438
4860	-0.071573
4856	0.163865
4852	0.454163
4848	0.470852
4844	0.445866
4840	0.492906
4836	0.532937
4832	0.604701
4828	0.598835
4824	0.505924
4820	0.476217
4816	0.376272
4812	0.165462
4808	0.144100
4804	0.345063
4800	0.462889
4796	0.436401
4792	0.423336
4788	0.316882
4784	0.077700
4780	-0.087618
4776	-0.038313
4772	0.193119
4768	0.320959
4764	0.421333
4760	0.675249
4756	0.592947
4752	0.167417
4748	-0.087857
4744	-0.272965
4740	-0.442838
4736	-0.416827
4732	-0.150418
4728	0.180649
4724	0.378966
4720	0.464510
4716	0.472879
4712	0.460743
4708	0.273823
4704	0.048995
4700	0.005984
4696	-0.023937
4692	0.172662
4688	0.543451
4684	0.671482
4680	0.522565
4676	0.423645
4672	0.516319
4668	0.608849
4664	0.717711
4660	0.796937
4656	0.778388
4652	0.839376
4648	0.920295
4644	0.958871
4640	0.906443
4636	0.758457
4632	0.777339
4628	0.875926
4624	1.001763
4620	1.087117
4616	1.061081
4612	1.137971
4608	1.075291
4604	0.772237
4600	0.389838
4596	-0.142168
4592	-0.642061
4588	-0.723052
4584	-0.657010
4580	-0.890898
4576	-1.114583
4572	-1.338911
4568	-1.672983
4564	-1.710367
4560	-1.475143
4556	-1.335310
4552	-1.487088
4548	-1.994419
4544	-2.358531
4540	-2.171707
4536	-1.650118
4532	-0.991964
4528	-0.170850
4524	0.299286
4520	10.7613
4516	33.0633
4512	34.5664
4508	12.6476
4504	-0.600075
4500	-2.731370
4496	-2.764129
4492	-2.161979
4488	-1.622200
4484	-1.288485
4480	-1.398301
4476	-1.433539
4472	-1.338601
4468	-1.264739
4464	-1.212954
4460	-1.269745
4456	-1.383256
4452	-1.307344
4448	-1.268768
4444	-1.454520
4440	-1.637363
4436	-1.472306
4432	-1.033997
4428	-0.584959
4424	-0.221848
4420	-0.089049
4416	0.113224
4412	0.287270
4408	0.287151
4404	0.361180
4400	0.520443
4396	0.600481
4392	0.729346
4388	0.839710
4384	0.736379
4380	0.762629
4376	0.816082
4372	0.615882
4368	0.498414
4364	0.495982
4360	0.402259
4356	0.277209
4352	0.239753
4348	0.310850
4344	0.396919
4340	0.473737
4336	0.585436
4332	0.596356
4328	0.443673
4324	0.261974
4320	0.159454
4316	0.106000
4312	-0.046491
4308	-0.129222
4304	0.087857
4300	0.365400
4296	0.274443
4292	-0.102710
4288	-0.366687
4284	-0.325703
4280	-0.135421
4276	0.076293
4272	0.158596
4268	0.004482
4264	-0.121998
4260	-0.036954
4256	0.152921
4252	0.260996
4248	0.324797
4244	0.392460
4240	0.450468
4236	0.460791
4232	0.258421
4228	0.038337
4224	0.010061
4220	0.143861
4216	0.356268
4212	0.467848
4208	0.504517
4204	0.405955
4200	0.211238
4196	0.209546
4192	0.343060
4188	0.395512
4184	0.398874
4180	0.492644
4176	0.500679
4172	0.371503
4168	0.332713
4164	0.340080
4160	0.166273
4156	0.017070
4152	0.061011
4148	-0.033855
4144	-0.155115
4140	-0.083684
4136	0.010848
4132	0.059771
4128	0.064349
4124	-0.010704
4120	-0.049662
4116	0.114989
4112	0.285983
4108	0.225806
4104	0.051283
4100	-0.031423
4096	0.002765
4092	-0.029468
4088	-0.107121
4084	-0.142455
4080	-0.077915
4076	0.207495
4072	0.404024
4068	0.318145
4064	0.245881
4060	0.206112
4056	0.113296
4052	0.175142
4048	0.296974
4044	0.287270
4040	0.271773
4036	0.245380
4032	0.163364
4028	0.102496
4024	0.102686
4020	0.179290
4016	0.283169
4012	0.282812
4008	0.208044
4004	0.219273
4000	0.241208
3996	0.171685
3992	0.155639
3988	0.244283
3984	0.300383
3980	0.291156
3976	0.242447
3972	0.187182
3968	0.185537
3964	0.155854
3960	0.047588
3956	0.076866
3952	0.213861
3948	0.203156
3944	0.117611
3940	0.062847
3936	-0.009918
3932	-0.060343
3928	-0.037550
3924	-0.017786
3920	-0.021338
3916	0.050330
3912	0.200653
3908	0.242495
3904	0.116086
3900	-0.014376
3896	-0.050139
3892	0.030827
3888	0.108957
3884	0.021409
3880	-0.097680
3876	-0.082778
3872	0.003981
3868	0.068521
3864	0.052762
3860	-0.025343
3856	-0.085568
3852	-0.030708
3848	0.014281
3844	0.034403
3840	0.105953
3836	0.178527
3832	0.183200
3828	0.158429
3824	0.173282
3820	0.107979
3816	-0.026297
3812	0.025463
3808	0.138115
3804	0.067019
3800	-0.017952
3796	-0.064587
3792	-0.070977
3788	0.066590
3784	0.173783
3780	0.131916
3776	0.082063
3772	0.125432
3768	0.123167
3764	0.039148
3760	0.073385
3756	0.196981
3752	0.260400
3748	0.279283
3744	0.279211
3740	0.246596
3736	0.146460
3732	0.037765
3728	0.067687
3724	0.090456
3720	0.006127
3716	-0.013923
3712	0.029706
3708	0.059771
3704	0.133490
3700	0.178790
3696	0.110816
3692	0.040173
3688	0.035953
3684	0.106215
3680	0.186610
3676	0.128865
3672	-0.031995
3668	-0.121068
3664	-0.036334
3660	0.125455
3656	0.172400
3652	0.118708
3648	0.056767
3644	0.013279
3640	0.019931
3636	0.075840
3632	0.094318
3628	0.056815
3624	-0.000619
3620	-0.044918
3616	0.005006
3612	0.107502
3608	0.169754
3604	0.171875
3600	0.093555
3596	-0.012803
3592	-0.054764
3588	0.000333
3584	0.075721
3580	0.103902
3576	0.120282
3572	0.103354
3568	0.092625
3564	0.154304
3560	0.182986
3556	0.153946
3552	0.126862
3548	0.047636
3544	-0.044202
3540	0.001025
3536	0.053381
3532	-0.008988
3528	-0.003337
3524	0.052595
3520	0.090551
3516	0.202322
3512	0.243735
3508	0.162076
3504	0.096368
3500	0.039911
3496	0.121235
3492	0.280642
3488	0.248575
3484	0.152921
3480	0.123238
3476	0.121140
3472	0.134634
3468	0.060915
3464	-0.088095
3460	-0.113010
3456	-0.000381
3452	0.065732
3448	0.062608
3444	0.024771
3440	-0.076794
3436	-0.143790
3432	-0.100255
3428	0.011014
3424	0.064110
3420	0.013566
3416	-0.053119
3412	-0.002980
3408	0.131511
3404	0.143027
3400	0.084996
3396	0.089383
3392	0.040030
3388	-0.090289
3384	-0.135087
3380	-0.047993
3376	0.004148
3372	0.002503
3368	0.120353
3364	0.241518
3360	0.215554
3356	0.143575
3352	0.145792
3348	0.215268
3344	0.251245
3340	0.187468
3336	0.057220
3332	-0.015139
3328	-0.021672
3324	-0.011849
3320	0.037574
3316	0.076365
3312	0.054192
3308	0.036406
3304	0.045895
3300	0.024104
3296	-0.016355
3292	-0.015926
3288	0.011444
3284	-0.001978
3280	-0.041794
3276	-0.032997
3272	0.027084
3268	0.073885
3264	0.088024
3260	0.114011
3256	0.145792
3252	0.123739
3248	0.019693
3244	-0.093626
3240	-0.093150
3236	-0.002884
3232	0.062012
3228	0.097537
3224	0.081968
3220	-0.022530
3216	-0.051546
3212	0.064635
3208	0.145316
3204	0.149869
3200	0.153565
3196	0.106954
3192	0.008964
3188	-0.016021
3184	0.041079
3180	0.011634
3176	-0.089859
3172	-0.105309
3168	-0.078845
3164	-0.040006
3160	0.017142
3156	0.036001
3152	0.027751
3148	0.038719
3144	0.084233
3140	0.167846
3136	0.272727
3132	0.212955
3128	0.001931
3124	-0.113868
3120	-0.168108
3116	-0.106668
3112	0.118112
3108	0.239086
3104	0.185871
3100	0.100731
3096	0.053620
3092	0.003385
3088	-0.057911
3084	-0.055575
3080	0.005030
3076	0.063657
3072	0.120925
3068	0.099396
3064	-0.037217
3060	-0.095129
3056	-0.015616
3052	0.049710
3048	-0.007009
3044	-0.067257
3040	-0.029778
3036	0.028800
3032	0.074744
3028	0.103640
3024	0.125384
3020	0.110459
3016	0.045943
3012	-0.019431
3008	0.041365
3004	0.138354
3000	0.091838
2996	0.018763
2992	-0.007843
2988	-0.049781
2984	-0.043439
2980	0.048542
2976	0.144171
2972	0.146603
2968	0.073218
2964	0.015830
2960	0.005507
2956	0.036501
2952	0.045275
2948	0.025463
2944	0.115823
2940	0.230789
2936	0.133371
2932	-0.000309
2928	0.081348
2924	0.169038
2920	0.115561
2916	0.073885
2912	0.081586
2908	0.065398
2904	0.024771
2900	0.047993
2896	0.092720
2892	0.076961
2888	0.077176
2884	0.094008
2880	0.047612
2876	-0.008869
2872	0.054979
2868	0.196719
2864	0.219488
2860	0.094175
2856	-0.054526
2852	-0.144600
2848	-0.146222
2844	-0.089073
2840	-0.012063
2836	0.053691
2832	0.084590
2828	0.084996
2824	0.070548
2820	0.039911
2816	0.025653
2812	0.048518
2808	0.062251
2804	0.037145
2800	-0.025510
2796	-0.058221
2792	-0.020527
2788	0.033950
2784	0.072169
2780	0.066542
2776	0.041174
2772	0.055456
2768	0.084662
2764	0.093293
2760	0.057363
2756	0.017809
2752	0.045680
2748	0.075244
2744	0.061774
2740	0.044274
2736	0.020003
2732	-0.029635
2728	-0.046658
2724	0.024914
2720	0.100135
2716	0.101900
2712	0.096845
2708	0.126791
2704	0.119805
2700	0.052475
2696	0.013637
2692	0.029778
2688	0.045394
2684	0.054955
2680	0.035500
2676	0.014948
2672	0.061655
2668	0.106334
2664	0.073289
2660	0.058889
2656	0.123143
2652	0.181961
2648	0.184392
2644	0.118398
2640	0.029754
2636	-0.017762
2632	-0.026631
2628	0.009417
2624	0.065231
2620	0.085902
2616	0.116348
2612	0.123333
2608	0.069236
2604	0.030922
2600	0.018453
2596	-0.000882
2592	0.022482
2588	0.120830
2584	0.138568
2580	0.071215
2576	0.041866
2572	-0.003433
2568	-0.035238
2564	-0.004720
2560	0.016880
2556	-0.027942
2552	-0.067377
2548	-0.035905
2544	0.046825
2540	0.098061
2536	0.092220
2532	0.094842
2528	0.051259
2524	0.000500
2520	0.042629
2516	0.060510
2512	0.034475
2508	0.033640
2504	0.007939
2500	0.012111
2496	0.082325
2492	0.095963
2488	0.079369
2484	0.064396
2480	-0.031495
2476	-0.087857
2472	-0.000953
2468	0.147199
2464	0.197315
2460	0.088191
2456	-0.005817
2452	0.007438
2448	0.032234
2444	0.010061
2440	0.004768
2436	0.111460
2432	0.189995
2428	0.051903
2424	0.041317
2420	0.298118
2416	0.340962
2412	0.125002
2408	-0.058054
2404	-0.115871
2400	-0.051140
2396	0.087809
2392	0.186395
2388	0.149774
2384	0.060200
2380	0.008010
2376	0.018668
2372	0.064396
2368	0.049328
2364	-0.017428
2360	-0.037622
2356	0.012898
2352	0.031089
2348	-0.001001
2344	0.016880
2340	0.066995
2336	0.087308
2332	0.047349
2328	-0.002503
2324	0.026273
2320	0.059390
2316	0.029993
2312	-0.001764
2308	0.001287
2304	0.028347
2300	0.083708
2296	0.138854
2292	0.159025
2288	0.149083
2284	0.114965
2280	0.090241
2276	0.090909
2272	0.147557
2268	0.259685
2264	0.300955
2260	0.253868
2256	0.274968
2252	0.389003
2248	0.522875
2244	0.626707
2240	0.657582
2236	0.697422
2232	0.829267
2228	0.935053
2224	0.934410
2220	0.974345
2216	1.135587
2212	1.326990
2208	1.476478
2204	1.607728
2200	1.782917
2196	1.995778
2192	2.201318
2188	2.403306
2184	2.615165
2180	2.803277
2176	2.982330
2172	3.210377
2168	3.456711
2164	3.748822
2160	4.172444
2156	4.554414
2152	4.727649
2148	4.888367
2144	5.198478
2140	5.517745
2136	5.831146
2132	6.285429
2128	6.753373
2124	7.129836
2120	7.543826
2116	8.003711
2112	8.417749
2108	8.812737
2104	9.227299
2100	9.625482
2096	10.0267
2092	10.465
2088	10.9036
2084	11.3018
2080	11.746
2076	12.2777
2072	12.6601
2068	12.8884
2064	13.3433
2060	13.9343
2056	14.3367
2052	14.6798
2048	15.1195
2044	15.6077
2040	16.066
2036	16.4506
2032	16.7819
2028	17.1236
2024	17.5239
2020	17.9664
2016	18.3632
2012	18.6793
2008	19.0125
2004	19.419
2000	19.7991
1996	20.063
1992	20.3146
1988	20.6625
1984	21.0154
1980	21.3309
1976	21.6105
1972	21.8126
1968	22.0404
1964	22.3524
1960	22.6753
1956	22.9607
1952	23.2089
1948	23.4812
1944	23.7616
1940	23.9745
1936	24.0932
1932	24.1805
1928	24.3678
1924	24.6419
1920	24.9011
1916	25.1137
1912	25.2724
1908	25.3865
1904	25.4903
1900	25.5999
1896	25.7113
1892	25.8574
1888	26.0173
1884	26.1593
1880	26.3331
1876	26.5025
1872	26.6385
1868	26.7817
1864	26.8995
1860	26.9571
1856	26.9652
1852	27.0053
1848	27.1457
1844	27.3006
1840	27.3936
1836	27.4507
1832	27.5172
1828	27.6143
1824	27.7121
1820	27.8037
1816	27.8787
1812	27.894
1808	27.9078
1804	27.9902
1800	28.1248
1796	28.2425
1792	28.2586
1788	28.2405
1784	28.2862
1780	28.3835
1776	28.5082
1772	28.5869
1768	28.5951
1764	28.601
1760	28.6071
1756	28.6214
1752	28.6255
1748	28.6116
1744	28.6394
1740	28.6705
1736	28.7338
1732	28.7704
1728	28.6651
1724	28.6298
1720	28.7782
1716	28.924
1712	28.9556
1708	28.9834
1704	29.0556
1700	29.0814
1696	29.0244
1692	28.9772
1688	29.0533
1684	29.1238
1680	29.0577
1676	28.9922
1672	28.9854
1668	28.9719
1664	28.9308
1660	28.9323
1656	29.0704
1652	29.1628
1648	29.1011
1644	29.0514
1640	29.0653
1636	29.097
1632	29.0775
1628	29.0106
1624	28.9779
1620	29.0128
1616	29.0461
1612	28.9883
1608	28.897
1604	28.8795
1600	28.8881
1596	28.8529
1592	28.852
1588	28.9391
1584	29.0072
1580	29.0004
1576	29.0071
1572	29.0157
1568	28.9841
1564	29.0223
1560	29.1744
1556	29.2136
1552	29.0876
1548	28.9922
1544	29.0032
1540	29.0907
1536	29.0927
1532	28.9745
1528	28.9257
1524	28.984
1520	28.9449
1516	28.7826
1512	28.775
1508	28.9212
1504	28.9705
1500	28.9313
1496	28.8854
1492	28.8115
1488	28.7575
1484	28.7553
1480	28.7601
1476	28.7857
1472	28.7817
1468	28.6683
1464	28.5545
1460	28.5736
1456	28.7071
1452	28.756
1448	28.6498
1444	28.5604
1440	28.54
1436	28.5399
1432	28.5717
1428	28.5538
1424	28.4491
1420	28.4169
1416	28.4574
1412	28.4496
1408	28.3956
1404	28.3293
1400	28.3271
1396	28.4282
1392	28.5197
1388	28.5215
1384	28.4902
1380	28.4705
1376	28.4501
1372	28.4028
1368	28.324
1364	28.2603
1360	28.2039
1356	28.1548
1352	28.1214
1348	28.1062
1344	28.157
1340	28.2222
1336	28.2211
1332	28.1955
1328	28.1607
1324	28.0376
1320	27.8756
1316	27.8231
1312	27.8822
1308	27.9577
1304	27.9883
1300	27.9719
1296	27.9008
1292	27.8352
1288	27.9005
1284	28.0189
1280	28.01
1276	27.8836
1272	27.7983
1268	27.7794
1264	27.7257
1260	27.6761
1256	27.7496
1252	27.8599
1248	27.8436
1244	27.7484
1240	27.6919
1236	27.6537
1232	27.5885
1228	27.5429
1224	27.5507
1220	27.6128
1216	27.6808
1212	27.6645
1208	27.6457
1204	27.6822
1200	27.667
1196	27.5738
1192	27.4991
1188	27.5495
1184	27.644
1180	27.6748
1176	27.6955
1172	27.6862
1168	27.578
1164	27.4801
1160	27.4929
1156	27.5117
1152	27.4734
1148	27.4232
1144	27.3883
1140	27.3934
1136	27.4299
1132	27.3752
1128	27.2839
1124	27.2887
1120	27.288
1116	27.2103
1112	27.0407
1108	26.8559
1104	26.8848
1100	27.1107
1096	27.2501
1092	27.1445
1088	26.8793
1084	26.7028
1080	26.7735
1076	26.9038
1072	26.9346
1068	26.9464
1064	26.9183
1060	26.825
1056	26.7852
1052	26.769
1048	26.737
1044	26.6912
1040	26.5712
1036	26.4709
1032	26.3924
1028	26.367
1024	26.4866
1020	26.5787
1016	26.5849
1012	26.4473
1008	26.1731
1004	26.0419
1000	26.0243
996	 25.9919
992	 25.9334
988	 25.7854
984	 25.6975
980	 25.7914
976	 25.8629
972	 25.8829
968	 25.9831
964	 25.9766
960	 25.8421
956	 25.7403
952	 25.5961
948	 25.4946
944	 25.4781
940	 25.4174
936	 25.3785
932	 25.3711
928	 25.3069
924	 25.2165
920	 25.1873
916	 25.2388
912	 25.2086
908	 25.0177
904	 24.8326
900	 24.7417
896	 24.7091
892	 24.7584
888	 24.7995
884	 24.7401
880	 24.7494
876	 24.9152
872	 24.9937
868	 24.7842
864	 24.5222
860	 24.3794
856	 24.2728
852	 24.2054
848	 24.1379
844	 24.0581
840	 24.0484
836	 24.1291
832	 24.1915
828	 24.1146
824	 23.9418
820	 23.784
816	 23.6567
812	 23.5603
808	 23.4643
804	 23.4249
800	 23.5569
796	 23.6193
792	 23.5078
788	 23.4046
784	 23.4049
780	 23.5252
776	 23.4993
772	 23.2187
768	 22.983
764	 22.9342
760	 22.8396
756	 22.5742
752	 22.4802
748	 22.5241
744	 22.4323
740	 22.4746
736	 22.6729
732	 22.8985
728	 23.1571
724	 23.0149
720	 22.5108
716	 22.1974
712	 22.0611
708	 21.9068
704	 21.7396
700	 21.676
696	 21.8335
692	 22.0689
688	 22.035
684	 21.7797
680	 21.6236
676	 21.4797
672	 21.2584
668	 21.1001
664	 20.9485
660	 20.6733
656	 20.5312
652	 20.7442
648	 21.0431
644	 21.0807
640	 20.7722
636	 20.3938
632	 20.3847
628	 20.5739
624	 20.3812
620	 20.0145
616	 19.7409
612	 19.4768
608	 19.427
604	 19.4821
600	 19.4201
596	 19.4532
592	 19.5148
588	 19.4866
584	 19.382
580	 18.9394
576	 18.5223
572	 18.5676
568	 18.5804
564	 18.4504
560	 18.586
556	 18.6055
552	 18.2402
548	 18.3106
544	 18.7892
540	 18.6598
536	 18.2343
532	 18.1758
528	 18.118
524	 17.8463
520	 17.5941
516	 17.4822
512	 17.5652
508	 17.4585
504	 16.9651
500	 16.6262
496	 16.4534
492	 16.3195
488	 16.4886
484	 16.6078
480	 16.217
476	 15.8151
472	 15.9959
468	 16.449
464	 16.4646
460	 15.8819
456	 15.0557
452	 14.7898
448	 15.001
444	 14.8202
440	 14.6898
436	 15.012
432	 14.9456
428	 14.0692
424	 14.2545
420	 15.7991
416	 16.1621
412	 16.3521
408	 17.8668
404	 17.8635
400	 12.8243
396	 -0.183010
392	 -9.671902
388	 7.335519
384	 26.0672
380	 2.168917
376	 -16.8547
372	 -7.494306
370	 -4.545116