File: Bakgrunnsmateriale/MATLAB/FTIR/ftir_data/LPE453/Mapping_121/LPE453_t74.asc
PE IR       SPECTRUM    SPECTRUM    ASCII       PEDS        1.60
  -1
LPDFA9~1.ASC
17/05/16
20:27:21.00
17/05/16
20:27:47.00
tln
$LPE453_t0074$<tbV0>[-5.2,2.6,8.0,0.0,27,1,0]
27.028
64

2002,4.07
MIRTGS : RIGHTBACK : INTERNAL 2
MIR : ON : INTERNAL 2
OPTKBR

0.200000
8
8.000000
FILLER
RATIO
SPECTRUM
UNLOCKED 256

DOUBLE
64
COMBINED
1
0
0

0.002000
RATIO

1
0
TRUE
51149
0
LEFT NOT FITTED RIGHT NOT FITTED 0
NONE
NONE
15600
12
4.427000
51148
TRUE
1 0 8 72 0 0 0 0

15798

#HDR
-1
-1
#GR
µM
%T
2.38419e-05
0.0
2.000000
0.002000
12515
8
41.5278
-3.379224
#DATA
2.000000	 -0.005245
2.018000	 0.467761
2.036000	 -0.029088
2.054000	 0.113136
2.072000	 -0.007599
2.090000	 0.124418
2.108000	 0.407144
2.126000	 -1.078208
2.144000	 1.438785
2.162000	 1.063298
2.180000	 -0.552746
2.198000	 -2.160412
2.216000	 -1.931742
2.234000	 2.555848
2.252000	 -1.044683
2.270000	 0.672287
2.288000	 1.132108
2.306000	 0.417104
2.324000	 0.596067
2.342000	 -0.388619
2.360000	 0.271653
2.378000	 -0.020424
2.396000	 0.157071
2.414000	 0.298937
2.432000	 0.349797
2.450000	 0.016156
2.468000	 0.000897
2.486000	 0.011882
2.504000	 0.128269
2.522000	 0.181797
2.540000	 0.068988
2.558000	 0.224522
2.576000	 0.293171
2.594000	 -0.036496
2.612000	 -0.020547
2.630000	 0.087052
2.648000	 0.227938
2.666000	 0.047776
2.684000	 -0.061536
2.702000	 0.029302
2.720000	 0.182561
2.738000	 0.115254
2.756000	 0.036584
2.774000	 0.060766
2.792000	 -0.107160
2.810000	 0.185828
2.828000	 0.121300
2.846000	 0.149627
2.864000	 0.093362
2.882000	 -0.037376
2.900000	 -0.050896
2.918000	 0.034534
2.936000	 0.006396
2.954000	 0.039380
2.972000	 -0.077151
2.990000	 0.129448
3.008000	 0.151871
3.026000	 -0.016340
3.044000	 0.159773
3.062000	 -0.038840
3.080000	 0.237634
3.098000	 0.118656
3.116000	 -0.184817
3.134000	 0.063178
3.152000	 0.087145
3.170000	 -0.044166
3.188000	 -0.034482
3.206000	 0.191908
3.224000	 -0.030819
3.242000	 0.056217
3.260000	 0.108688
3.278000	 0.053819
3.296000	 0.142103
3.314000	 0.039302
3.332000	 -0.012681
3.350000	 0.126286
3.368000	 0.129571
3.386000	 -0.060806
3.404000	 0.138734
3.422000	 0.112373
3.440000	 0.106791
3.458000	 0.072002
3.476000	 0.059501
3.494000	 0.076990
3.512000	 -0.029482
3.530000	 0.055333
3.548000	 -0.019948
3.566000	 0.001830
3.584000	 0.041106
3.602000	 0.037442
3.620000	 0.124150
3.638000	 0.096609
3.656000	 0.059797
3.674000	 0.009865
3.692000	 -0.099981
3.710000	 0.023471
3.728000	 0.111099
3.746000	 0.074988
3.764000	 0.016100
3.782000	 0.029830
3.800000	 0.158203
3.818000	 0.102876
3.836000	 0.107051
3.854000	 0.105721
3.872000	 0.087514
3.890000	 0.105235
3.908000	 0.026322
3.926000	 0.082228
3.944000	 0.104398
3.962000	 -0.035890
3.980000	 0.123984
3.998000	 -0.092705
4.016000	 0.021636
4.034000	 0.111236
4.052000	 0.046353
4.070000	 0.040216
4.088000	 -0.006411
4.106000	 0.069584
4.124000	 -0.034517
4.141999	 -0.019057
4.160000	 -0.114653
4.178000	 0.149991
4.196000	 0.083984
4.214000	 0.080479
4.232000	 0.141386
4.250000	 0.086235
4.268000	 0.154629
4.286000	 0.127696
4.304000	 0.319314
4.322000	 0.421214
4.340000	 0.467251
4.358000	 0.579573
4.375999	 0.612237
4.394000	 0.880367
4.412000	 1.000210
4.430000	 1.187158
4.448000	 1.477597
4.466000	 1.913055
4.484000	 2.286552
4.502000	 2.717239
4.520000	 3.289742
4.538000	 3.887283
4.556000	 4.557601
4.574000	 5.301503
4.592000	 6.075340
4.609999	 6.803240
4.628000	 7.772425
4.646000	 8.575373
4.664000	 9.705514
4.682000	 10.6176
4.700000	 11.5529
4.718000	 12.6426
4.736000	 13.5928
4.754000	 14.5544
4.772000	 15.5771
4.790000	 16.6448
4.808000	 17.481
4.826000	 18.5394
4.843999	 19.3472
4.862000	 20.3384
4.880000	 21.1879
4.898000	 22.0271
4.916000	 22.8716
4.934000	 23.6173
4.952000	 24.3421
4.970000	 24.9253
4.988000	 25.583
5.006000	 26.1629
5.024000	 26.8117
5.042000	 27.26
5.060000	 27.7795
5.077999	 28.2429
5.096000	 28.5733
5.114000	 28.8773
5.132000	 29.3711
5.150000	 29.7482
5.168000	 30.0866
5.186000	 30.4743
5.204000	 30.6823
5.222000	 30.9618
5.240000	 31.2876
5.258000	 31.5153
5.276000	 31.7359
5.294000	 31.9933
5.312000	 32.1162
5.330000	 32.3327
5.348000	 32.496
5.366000	 32.6171
5.384000	 32.795
5.402000	 32.9412
5.420000	 33.1074
5.438000	 33.2409
5.456000	 33.3642
5.474000	 33.449
5.492000	 33.4508
5.510000	 33.4859
5.528000	 33.6752
5.546000	 33.8151
5.564000	 33.9106
5.582000	 33.9594
5.600000	 33.9609
5.618000	 34.0445
5.636000	 34.0545
5.654000	 34.1181
5.672000	 34.0857
5.690000	 34.1051
5.708000	 34.2717
5.726000	 34.3061
5.744000	 34.2517
5.762000	 34.3114
5.780000	 34.2183
5.798000	 34.1174
5.816000	 34.2122
5.834000	 34.2379
5.852000	 34.2723
5.870000	 34.3554
5.888000	 34.4401
5.906000	 34.4744
5.923999	 34.4435
5.942000	 34.4382
5.960000	 34.4593
5.978000	 34.408
5.996000	 34.3335
6.014000	 34.3737
6.032000	 34.4707
6.050000	 34.5086
6.068000	 34.5332
6.086000	 34.5886
6.104000	 34.661
6.122000	 34.655
6.140000	 34.4924
6.158000	 34.4387
6.176000	 34.3937
6.194000	 34.305
6.212000	 34.2437
6.230000	 34.2401
6.248000	 34.361
6.266000	 34.4772
6.284000	 34.5654
6.302000	 34.5911
6.320000	 34.5016
6.338000	 34.4298
6.356000	 34.404
6.374000	 34.3468
6.392000	 34.3073
6.410000	 34.2824
6.428000	 34.2254
6.446000	 34.2408
6.464000	 34.3641
6.482000	 34.4502
6.500000	 34.4462
6.518000	 34.4636
6.536000	 34.5136
6.554000	 34.4814
6.572000	 34.3988
6.590000	 34.3426
6.608000	 34.2894
6.626000	 34.2498
6.644000	 34.2057
6.662000	 34.1564
6.680000	 34.2125
6.698000	 34.3143
6.716000	 34.316
6.734000	 34.3046
6.752000	 34.3376
6.770000	 34.3541
6.788000	 34.2994
6.806000	 34.1781
6.824000	 34.0535
6.842000	 33.9525
6.860000	 33.8542
6.878000	 33.8098
6.896000	 33.8778
6.914000	 33.9761
6.932000	 34.0599
6.950000	 34.1681
6.968000	 34.2657
6.986000	 34.2857
7.004000	 34.2433
7.022000	 34.2184
7.040000	 34.2294
7.058000	 34.1802
7.076000	 34.011
7.094000	 33.8124
7.112000	 33.7116
7.130000	 33.7394
7.148000	 33.8006
7.166000	 33.8187
7.184000	 33.8583
7.202000	 33.9479
7.220000	 34.002
7.238000	 34.0093
7.256000	 34.0276
7.274000	 34.0609
7.292000	 34.0805
7.310000	 34.0543
7.328000	 33.9786
7.346000	 33.896
7.364000	 33.8155
7.382000	 33.7115
7.400000	 33.601
7.418000	 33.5093
7.436000	 33.4504
7.454000	 33.4815
7.472000	 33.625
7.490000	 33.7865
7.508000	 33.8761
7.526000	 33.9029
7.544000	 33.9144
7.562000	 33.9358
7.580000	 33.9569
7.598000	 33.9374
7.616000	 33.8572
7.634000	 33.7469
7.652000	 33.6294
7.670000	 33.4916
7.688000	 33.3529
7.706000	 33.2762
7.724000	 33.2795
7.742000	 33.3146
7.760000	 33.349
7.778000	 33.4031
7.796000	 33.4965
7.814000	 33.6054
7.832000	 33.6989
7.850000	 33.7785
7.868000	 33.8438
7.886000	 33.8618
7.904000	 33.8147
7.922000	 33.7403
7.940000	 33.6801
7.958000	 33.6242
7.976000	 33.5402
7.994000	 33.4303
8.012000	 33.3268
8.030000	 33.2558
8.048000	 33.2228
8.065999	 33.2182
8.084000	 33.2236
8.102000	 33.2263
8.120000	 33.237
8.138000	 33.2777
8.155999	 33.3489
8.173999	 33.4295
8.192000	 33.5019
8.210000	 33.5584
8.228000	 33.5935
8.246000	 33.5993
8.263999	 33.5713
8.282000	 33.5168
8.300000	 33.4425
8.318000	 33.3424
8.336000	 33.2203
8.353999	 33.1039
8.372000	 33.0237
8.390000	 32.9915
8.408000	 32.9946
8.426000	 33.003
8.443999	 32.9992
8.462000	 32.9976
8.480000	 33.0253
8.498000	 33.0833
8.516000	 33.1393
8.533999	 33.1676
8.552000	 33.1808
8.570000	 33.212
8.588000	 33.2752
8.606000	 33.3473
8.624000	 33.3881
8.641999	 33.3664
8.660000	 33.2758
8.678000	 33.1368
8.696000	 32.9882
8.714000	 32.8634
8.731999	 32.7685
8.750000	 32.6894
8.768000	 32.6206
8.786000	 32.5796
8.804000	 32.5815
8.821999	 32.6109
8.840000	 32.631
8.858000	 32.6243
8.876000	 32.6121
8.894000	 32.6287
8.911999	 32.6829
8.930000	 32.7508
8.948000	 32.805
8.966000	 32.8375
8.984000	 32.8579
9.001999	 32.8745
9.020000	 32.8862
9.038000	 32.8856
9.056000	 32.8671
9.074000	 32.833
9.092000	 32.7909
9.109999	 32.7433
9.128000	 32.6824
9.146000	 32.5992
9.164000	 32.5009
9.182000	 32.4082
9.199999	 32.3329
9.218000	 32.2607
9.236000	 32.1708
9.254000	 32.0715
9.272000	 32.0032
9.289999	 32.0018
9.308000	 32.0669
9.326000	 32.167
9.344000	 32.2712
9.362000	 32.3693
9.379999	 32.4628
9.398000	 32.5491
9.416000	 32.6191
9.434000	 32.6645
9.452000	 32.6816
9.469999	 32.6715
9.488000	 32.6397
9.506000	 32.5976
9.524000	 32.5578
9.542000	 32.5252
9.560000	 32.4917
9.577999	 32.443
9.596000	 32.3698
9.614000	 32.2727
9.632000	 32.159
9.650000	 32.0401
9.667999	 31.9329
9.686000	 31.8575
9.704000	 31.8265
9.722000	 31.836
9.740000	 31.8657
9.757999	 31.8929
9.776000	 31.9082
9.794000	 31.9205
9.812000	 31.9457
9.830000	 31.9921
9.847999	 32.0548
9.866000	 32.1226
9.884000	 32.1875
9.902000	 32.2489
9.920000	 32.3081
9.937999	 32.3597
9.956000	 32.3905
9.974000	 32.3866
9.992000	 32.3436
10.01	32.272
10.028	32.1926
10.046	32.1244
10.064	32.0738
10.082	32.0327
10.1	31.9855
10.118	31.9192
10.136	31.8317
10.154	31.7303
10.172	31.627
10.19	31.5331
10.208	31.4556
10.226	31.3978
10.244	31.3602
10.262	31.3411
10.28	31.3375
10.298	31.3462
10.316	31.3636
10.334	31.3865
10.352	31.4113
10.37	31.4333
10.388	31.4486
10.406	31.4573
10.424	31.4669
10.442	31.4899
10.46	31.5374
10.478	31.6121
10.496	31.7024
10.514	31.7885
10.532	31.8498
10.55	31.8757
10.568	31.868
10.586	31.8375
10.604	31.7945
10.622	31.7453
10.64	31.6915
10.658	31.6343
10.676	31.5767
10.694	31.5213
10.712	31.4667
10.73	31.4041
10.748	31.3209
10.766	31.2085
10.784	31.0697
10.802	30.9214
10.82	30.7879
10.838	30.6917
10.856	30.6427
10.874	30.6365
10.892	30.6587
10.91	30.6929
10.928	30.7282
10.946	30.7606
10.964	30.7921
10.982	30.8248
11	30.8581
11.018	30.8889
11.036	30.9135
11.054	30.929
11.072	30.9348
11.09	30.9308
11.108	30.9174
11.126	30.8955
11.144	30.8686
11.162	30.8429
11.18	30.8251
11.198	30.8199
11.216	30.8275
11.234	30.8424
11.252	30.856
11.27	30.8606
11.288	30.851
11.306	30.8267
11.324	30.7898
11.342	30.7435
11.36	30.6897
11.378	30.6292
11.396	30.562
11.414	30.4882
11.432	30.408
11.45	30.3222
11.468	30.2325
11.486	30.1414
11.504	30.0538
11.522	29.9764
11.54	29.9171
11.558	29.8829
11.576	29.8775
11.594	29.8993
11.612	29.9411
11.63	29.9924
11.648	30.0427
11.666	30.0829
11.684	30.1088
11.702	30.1206
11.72	30.1218
11.738	30.1178
11.756	30.1143
11.774	30.1154
11.792	30.1238
11.81	30.1401
11.828	30.163
11.846	30.1901
11.864	30.2189
11.882	30.2474
11.9	30.2748
11.918	30.3009
11.936	30.3256
11.954	30.3475
11.972	30.3635
11.99	30.3686
12.008	30.3581
12.026	30.3285
12.044	30.2799
12.062	30.2161
12.08	30.1429
12.098	30.0664
12.116	29.9896
12.134	29.9112
12.152	29.8265
12.17	29.7301
12.188	29.6189
12.206	29.4957
12.224	29.369
12.242	29.2508
12.26	29.1528
12.278	29.0839
12.296	29.0466
12.314	29.0367
12.332	29.0446
12.35	29.0588
12.368	29.0682
12.386	29.065
12.404	29.0475
12.422	29.0201
12.44	28.991
12.458	28.97
12.476	28.9658
12.494	28.9833
12.512	29.0226
12.53	29.0798
12.548	29.1486
12.566	29.2213
12.584	29.2915
12.602	29.3545
12.62	29.408
12.638	29.4519
12.656	29.4875
12.674	29.5176
12.692	29.5443
12.71	29.5689
12.728	29.5905
12.746	29.6075
12.764	29.6162
12.782	29.6123
12.8	29.5925
12.818	29.5548
12.836	29.5004
12.854	29.4323
12.872	29.3556
12.89	29.2755
12.908	29.1961
12.926	29.1192
12.944	29.0436
12.962	28.966
12.98	28.8823
12.998	28.7893
13.016	28.6866
13.034	28.5775
13.052	28.4683
13.07	28.3675
13.088	28.2837
13.106	28.2239
13.124	28.1912
13.142	28.1844
13.16	28.1989
13.178	28.2275
13.196	28.262
13.214	28.2951
13.232	28.3213
13.25	28.338
13.268	28.3444
13.286	28.342
13.304	28.3325
13.322	28.318
13.34	28.3
13.358	28.2788
13.376	28.2543
13.394	28.2263
13.412	28.1953
13.43	28.1627
13.448	28.1313
13.466	28.105
13.484	28.0878
13.502	28.0836
13.52	28.095
13.538	28.1224
13.556	28.1642
13.574	28.2162
13.592	28.2728
13.61	28.3274
13.628	28.3739
13.646	28.4074
13.664	28.4247
13.682	28.4252
13.7	28.4104
13.718	28.383
13.736	28.3467
13.754	28.3054
13.772	28.2623
13.79	28.2204
13.808	28.1811
13.826	28.1453
13.844	28.1127
13.862	28.0823
13.88	28.0523
13.898	28.0208
13.916	27.9857
13.934	27.9451
13.952	27.8979
13.97	27.8437
13.988	27.783
14.006	27.7177
14.024	27.6503
14.042	27.5838
14.06	27.5207
14.078	27.4631
14.096	27.4113
14.114	27.3646
14.132	27.3214
14.15	27.2795
14.168	27.237
14.186	27.1924
14.204	27.1455
14.222	27.0974
14.24	27.0501
14.258	27.0065
14.276	26.9689
14.294	26.9393
14.312	26.9184
14.33	26.906
14.348	26.9012
14.366	26.9022
14.384	26.9075
14.402	26.9157
14.42	26.9261
14.438	26.9385
14.456	26.9529
14.474	26.9695
14.492	26.9881
14.51	27.0081
14.528	27.028
14.546	27.0465
14.564	27.0627
14.582	27.0764
14.6	27.088
14.618	27.0988
14.636	27.1114
14.654	27.1284
14.672	27.1517
14.69	27.1824
14.708	27.22
14.726	27.2626
14.744	27.3065
14.762	27.3471
14.78	27.3799
14.798	27.4017
14.816	27.41
14.834	27.4043
14.852	27.3869
14.87	27.3617
14.888	27.3332
14.906	27.3061
14.924	27.2847
14.942	27.272
14.96	27.268
14.978	27.2711
14.996	27.2776
15.014	27.283
15.032	27.2814
15.05	27.2677
15.068	27.2383
15.086	27.1911
15.104	27.1256
15.122	27.0435
15.14	26.9483
15.158	26.8437
15.176	26.7338
15.194	26.6227
15.212	26.5144
15.23	26.4115
15.248	26.3155
15.266	26.2276
15.284	26.1482
15.302	26.0773
15.32	26.0146
15.338	25.9598
15.356	25.9128
15.374	25.8729
15.392	25.8395
15.41	25.8121
15.428	25.7898
15.446	25.772
15.464	25.7575
15.482	25.7453
15.5	25.7344
15.518	25.724
15.536	25.7137
15.554	25.7033
15.572	25.6922
15.59	25.6807
15.608	25.6688
15.626	25.6565
15.644	25.6441
15.662	25.632
15.68	25.6207
15.698	25.611
15.716	25.6043
15.734	25.6023
15.752	25.6066
15.77	25.6189
15.788	25.6412
15.806	25.6741
15.824	25.7178
15.842	25.7721
15.86	25.8345
15.878	25.9024
15.896	25.9726
15.914	26.0399
15.932	26.1003
15.95	26.1505
15.968	26.1867
15.986	26.2065
16.004	26.2091
16.022	26.1941
16.04	26.1634
16.058	26.1195
16.076	26.0647
16.094	26.0032
16.112	25.9383
16.13	25.8724
16.148	25.8084
16.166	25.7482
16.184	25.6927
16.202	25.6427
16.22	25.5978
16.238	25.5578
16.256	25.5222
16.274	25.4899
16.292	25.4604
16.31	25.4331
16.328	25.4073
16.346	25.3829
16.364	25.3595
16.382	25.3369
16.4	25.3146
16.418	25.2926
16.436	25.2703
16.454	25.2474
16.472	25.2237
16.49	25.1987
16.508	25.1721
16.526	25.1438
16.544	25.1136
16.562	25.0815
16.58	25.0477
16.598	25.0126
16.616	24.9767
16.634	24.9405
16.652	24.9048
16.67	24.8702
16.688	24.8372
16.706	24.8067
16.724	24.7793
16.742	24.7553
16.76	24.735
16.778	24.7185
16.796	24.7053
16.814	24.6946
16.832	24.6858
16.85	24.6774
16.868	24.6678
16.886	24.656
16.904	24.64
16.922	24.6193
16.94	24.5927
16.958	24.5605
16.976	24.5231
16.994	24.4819
17.012	24.4391
17.03	24.3964
17.048	24.3579
17.066	24.3255
17.084	24.3026
17.102	24.292
17.12	24.2949
17.138	24.3132
17.156	24.3464
17.174	24.3946
17.192	24.4548
17.21	24.5254
17.228	24.6021
17.246	24.6807
17.264	24.7583
17.282	24.8284
17.3	24.8891
17.318	24.9355
17.336	24.9659
17.354	24.9786
17.372	24.973
17.39	24.9497
17.408	24.9099
17.426	24.8568
17.444	24.7921
17.462	24.7209
17.48	24.645
17.498	24.5695
17.516	24.4965
17.534	24.4284
17.552	24.3679
17.57	24.3156
17.588	24.2724
17.606	24.2379
17.624	24.2117
17.642	24.1921
17.66	24.1784
17.678	24.1679
17.696	24.1602
17.714	24.1529
17.732	24.1451
17.75	24.1358
17.768	24.1242
17.786	24.11
17.804	24.0928
17.822	24.0727
17.84	24.0499
17.858	24.0248
17.876	23.9974
17.894	23.9684
17.912	23.9378
17.93	23.9061
17.948	23.8733
17.966	23.8401
17.984	23.8064
18.002	23.7726
18.02	23.7392
18.038	23.7065
18.056	23.6753
18.074	23.6459
18.092	23.6196
18.11	23.5964
18.128	23.5776
18.146	23.5632
18.164	23.5541
18.182	23.55
18.2	23.5514
18.218	23.5575
18.236	23.5683
18.254	23.5827
18.272	23.6004
18.29	23.6196
18.308	23.6398
18.326	23.6592
18.344	23.6776
18.362	23.6932
18.38	23.7062
18.398	23.7155
18.416	23.7215
18.434	23.7238
18.452	23.723
18.47	23.7193
18.488	23.7133
18.506	23.7054
18.524	23.6964
18.542	23.6865
18.56	23.6764
18.578	23.6661
18.596	23.6558
18.614	23.6456
18.632	23.6353
18.65	23.6246
18.668	23.6133
18.686	23.6013
18.704	23.5883
18.722	23.5744
18.74	23.5597
18.758	23.5443
18.776	23.5286
18.794	23.5132
18.812	23.4987
18.83	23.4858
18.848	23.4752
18.866	23.4674
18.884	23.4634
18.902	23.4635
18.92	23.4685
18.938	23.4783
18.956	23.4935
18.974	23.5135
18.992	23.5382
19.01	23.567
19.028	23.5992
19.046	23.6341
19.064	23.6708
19.082	23.7085
19.1	23.746
19.118	23.7826
19.136	23.8171
19.154	23.849
19.172	23.877
19.19	23.9011
19.208	23.9198
19.226	23.9335
19.244	23.9413
19.262	23.9434
19.28	23.9393
19.298	23.9292
19.316	23.913
19.334	23.8907
19.352	23.8626
19.37	23.8287
19.388	23.7896
19.406	23.7452
19.424	23.6966
19.442	23.6437
19.46	23.588
19.478	23.5293
19.496	23.4693
19.514	23.4083
19.532	23.3476
19.55	23.2878
19.568	23.2301
19.586	23.1754
19.604	23.1242
19.622	23.0782
19.64	23.0373
19.658	23.0027
19.676	22.9742
19.694	22.9523
19.712	22.937
19.73	22.9276
19.748	22.9242
19.766	22.9252
19.784	22.9308
19.802	22.9391
19.82	22.9491
19.838	22.9597
19.856	22.969
19.874	22.9765
19.892	22.9795
19.91	22.9783
19.928	22.9701
19.946	22.9553
19.964	22.9322
19.982	22.9005
20	22.8602
20.018	22.8108
20.036	22.7532
20.054	22.6878
20.072	22.615
20.09	22.5371
20.108	22.4538
20.126	22.3687
20.144	22.2815
20.162	22.1956
20.18	22.1123
20.198	22.0331
20.216	21.9613
20.234	21.8967
20.252	21.8431
20.27	21.7999
20.288	21.7697
20.306	21.7528
20.324	21.7494
20.342	21.7603
20.36	21.7847
20.378	21.8219
20.396	21.872
20.414	21.9318
20.432	22.0018
20.45	22.0781
20.468	22.1597
20.486	22.2446
20.504	22.3283
20.522	22.4115
20.54	22.4885
20.558	22.5599
20.576	22.6218
20.594	22.6726
20.612	22.7117
20.63	22.7362
20.648	22.7468
20.666	22.7422
20.684	22.7222
20.702	22.6877
20.72	22.6386
20.738	22.5757
20.756	22.5016
20.774	22.4156
20.792	22.3219
20.81	22.2205
20.828	22.1142
20.846	22.0065
20.864	21.8967
20.882	21.7904
20.9	21.6867
20.918	21.5889
20.936	21.4995
20.954	21.4179
20.972	21.3478
20.99	21.2886
21.008	21.2415
21.026	21.2076
21.044	21.1862
21.062	21.1778
21.08	21.1824
21.098	21.1984
21.116	21.2261
21.134	21.2641
21.152	21.3104
21.17	21.3656
21.188	21.4262
21.206	21.492
21.224	21.5616
21.242	21.6319
21.26	21.7039
21.278	21.7741
21.296	21.8421
21.314	21.9073
21.332	21.9673
21.35	22.0227
21.368	22.0722
21.386	22.1152
21.404	22.1521
21.422	22.1822
21.44	22.2056
21.458	22.223
21.476	22.2345
21.494	22.2402
21.512	22.2415
21.53	22.238
21.548	22.2307
21.566	22.2202
21.584	22.2063
21.602	22.1902
21.62	22.1717
21.638	22.1512
21.656	22.1292
21.674	22.1054
21.692	22.0804
21.71	22.054
21.728	22.0266
21.746	21.9989
21.764	21.9706
21.782	21.9424
21.8	21.9148
21.818	21.8876
21.836	21.8623
21.854	21.8389
21.872	21.8178
21.89	21.8002
21.908	21.7855
21.926	21.7748
21.944	21.769
21.962	21.7675
21.98	21.7706
21.998	21.7786
22.016	21.7908
22.034	21.8064
22.052	21.8261
22.07	21.8479
22.088	21.8706
22.106	21.895
22.124	21.9177
22.142	21.9387
22.16	21.9574
22.178	21.9708
22.196	21.9797
22.214	21.9827
22.232	21.9779
22.25	21.9659
22.268	21.9463
22.286	21.9181
22.304	21.8818
22.322	21.8383
22.34	21.7869
22.358	21.7288
22.376	21.6665
22.394	21.5987
22.412	21.5279
22.43	21.4576
22.448	21.3859
22.466	21.316
22.484	21.2507
22.502	21.1883
22.52	21.1319
22.538	21.0828
22.556	21.0401
22.574	21.0058
22.592	20.9805
22.61	20.9636
22.628	20.9556
22.646	20.9568
22.664	20.9665
22.682	20.9833
22.7	21.0082
22.718	21.0394
22.736	21.0747
22.754	21.1155
22.772	21.1593
22.79	21.2042
22.808	21.2516
22.826	21.2989
22.844	21.3444
22.862	21.3893
22.88	21.4312
22.898	21.4692
22.916	21.504
22.934	21.5338
22.952	21.5581
22.97	21.5773
22.988	21.5902
23.006	21.5965
23.024	21.5965
23.042	21.5896
23.06	21.5757
23.078	21.555
23.096	21.5275
23.114	21.4929
23.132	21.4517
23.15	21.4044
23.168	21.3508
23.186	21.2911
23.204	21.2268
23.222	21.1574
23.24	21.0833
23.258	21.0063
23.276	20.9257
23.294	20.8423
23.312	20.758
23.33	20.6725
23.348	20.5861
23.366	20.501
23.384	20.4167
23.402	20.3336
23.42	20.253
23.438	20.175
23.456	20.0996
23.474	20.0278
23.492	19.96
23.51	19.8957
23.528	19.8359
23.546	19.7808
23.564	19.7302
23.582	19.6844
23.6	19.6438
23.618	19.6082
23.636	19.5774
23.654	19.5512
23.672	19.5296
23.69	19.5132
23.708	19.502
23.726	19.4958
23.744	19.4955
23.762	19.5019
23.78	19.514
23.798	19.5335
23.816	19.5621
23.834	19.5986
23.852	19.6444
23.87	19.7019
23.888	19.7702
23.906	19.85
23.924	19.9437
23.942	20.0513
23.96	20.1725
23.978	20.3085
23.996	20.4601
24.014	20.6266
24.032	20.8079
24.05	21.0044
24.068	21.2163
24.086	21.4416
24.104	21.6788
24.122	21.9301
24.14	22.1919
24.158	22.4598
24.176	22.7364
24.194	23.0194
24.212	23.3017
24.23	23.5832
24.248	23.8652
24.266	24.1409
24.284	24.4068
24.302	24.6667
24.32	24.915
24.338	25.1466
24.356	25.365
24.374	25.5674
24.392	25.7485
24.41	25.909
24.428	26.0495
24.446	26.1671
24.464	26.26
24.482	26.3296
24.5	26.3769
24.518	26.4021
24.536	26.404
24.554	26.3851
24.572	26.3489
24.59	26.293
24.608	26.2192
24.626	26.1331
24.644	26.0368
24.662	25.9275
24.68	25.8102
24.698	25.6898
24.716	25.5628
24.734	25.432
24.752	25.3029
24.77	25.1763
24.788	25.0504
24.806	24.9279
24.824	24.8107
24.842	24.6979
24.86	24.5891
24.878	24.4842
24.896	24.3847
24.914	24.2891
24.932	24.1945
24.95	24.0995
24.968	24.006
24.986	23.9114
25.004	23.813
25.022	23.713
25.04	23.6098
25.058	23.4995
25.076	23.3807
25.094	23.2561
25.112	23.1213
25.13	22.9721
25.148	22.8097
25.166	22.6346
25.184	22.4454
25.202	22.2404
25.22	22.0199
25.238	21.7869
25.256	21.5444
25.274	21.2894
25.292	21.024
25.31	20.7541
25.328	20.4827
25.346	20.205
25.364	19.9271
25.382	19.6562
25.4	19.3887
25.418	19.1252
25.436	18.8744
25.454	18.6427
25.472	18.423
25.49	18.2211
25.508	18.0453
25.526	17.8972
25.544	17.7726
25.562	17.677
25.58	17.6159
25.598	17.5867
25.616	17.5894
25.634	17.6268
25.652	17.7017
25.67	17.8139
25.688	17.9591
25.706	18.1329
25.724	18.337
25.742	18.5723
25.76	18.8308
25.778	19.105
25.796	19.3986
25.814	19.7109
25.832	20.0377
25.85	20.3756
25.868	20.7269
25.886	21.0915
25.904	21.4685
25.922	21.8558
25.94	22.2535
25.958	22.6668
25.976	23.1009
25.994	23.5531
26.012	24.0234
26.03	24.517
26.048	25.0386
26.066	25.5863
26.084	26.1591
26.102	26.7573
26.12	27.3822
26.138	28.036
26.156	28.713
26.174	29.4067
26.192	30.1203
26.21	30.8605
26.228	31.6066
26.246	32.337
26.264	33.0563
26.282	33.7723
26.3	34.4619
26.318	35.1024
26.336	35.7022
26.354	36.2646
26.372	36.7752
26.39	37.2205
26.408	37.6064
26.426	37.9347
26.444	38.202
26.462	38.4039
26.48	38.5347
26.498	38.6053
26.516	38.6294
26.534	38.6153
26.552	38.5466
26.57	38.4388
26.588	38.3134
26.606	38.1835
26.624	38.0305
26.642	37.8673
26.66	37.711
26.678	37.5698
26.696	37.4276
26.714	37.2985
26.732	37.2
26.75	37.1424
26.768	37.1146
26.786	37.1181
26.804	37.1559
26.822	37.2272
26.84	37.3266
26.858	37.4636
26.876	37.6486
26.894	37.883
26.912	38.1544
26.93	38.4793
26.948	38.8766
26.966	39.399
26.984	40.0953
27.002	40.8113
27.02	41.3809
27.028	41.5278