File: Bakgrunnsmateriale/MATLAB/FTIR/ftir_data/LPE453/Mapping_121/LPE453_t25.asc
PE IR       SPECTRUM    SPECTRUM    ASCII       PEDS        1.60
  -1
LPDB9D~1.ASC
17/05/16
16:26:29.00
17/05/16
16:26:55.00
tln
$LPE453_t0025$<tbV0>[7.8,-7.8,8.0,0.0,27,1,0]
27.028
64

2002,4.07
MIRTGS : RIGHTBACK : INTERNAL 2
MIR : ON : INTERNAL 2
OPTKBR

0.200000
8
8.000000
FILLER
RATIO
SPECTRUM
UNLOCKED 256

DOUBLE
64
COMBINED
1
0
0

0.002000
RATIO

1
0
TRUE
51149
0
LEFT NOT FITTED RIGHT NOT FITTED 0
NONE
NONE
15600
12
4.427000
51148
TRUE
1 0 8 72 0 0 0 0

15798

#HDR
-1
-1
#GR
µM
%T
2.38419e-05
0.0
2.000000
0.002000
12515
8
64.9791
-3.884160
#DATA
2.000000	 0.300812
2.018000	 0.377702
2.036000	 0.268308
2.054000	 -0.492663
2.072000	 -0.055924
2.090000	 -0.101227
2.108000	 0.358951
2.126000	 0.112310
2.144000	 -0.237718
2.162000	 0.357749
2.180000	 0.270114
2.198000	 1.138502
2.216000	 6.076086
2.234000	 -1.154558
2.252000	 0.224553
2.270000	 -0.161034
2.288000	 0.338334
2.306000	 -0.195430
2.324000	 -0.083133
2.342000	 0.094971
2.360000	 0.168893
2.378000	 0.141302
2.396000	 -0.864752
2.414000	 0.164556
2.432000	 -0.059256
2.450000	 0.125427
2.468000	 0.077853
2.486000	 -0.117572
2.504000	 0.337156
2.522000	 0.177763
2.540000	 -0.028678
2.558000	 -0.064850
2.576000	 0.115615
2.594000	 0.120315
2.612000	 0.063865
2.630000	 0.280387
2.648000	 -0.093149
2.666000	 0.041041
2.684000	 0.019228
2.702000	 0.205508
2.720000	 0.071946
2.738000	 -0.084754
2.756000	 0.061642
2.774000	 0.072270
2.792000	 -0.011261
2.810000	 0.372086
2.828000	 -0.009026
2.846000	 0.047668
2.864000	 0.076459
2.882000	 0.064456
2.900000	 -0.031881
2.918000	 0.063700
2.936000	 -0.064461
2.954000	 -0.041054
2.972000	 0.042347
2.990000	 -0.033539
3.008000	 0.155246
3.026000	 -0.009286
3.044000	 0.045669
3.062000	 -0.104724
3.080000	 0.003254
3.098000	 0.076429
3.116000	 0.157023
3.134000	 0.077512
3.152000	 -0.047795
3.170000	 -0.036665
3.188000	 0.117229
3.206000	 0.113095
3.224000	 0.111437
3.242000	 0.018006
3.260000	 -0.009636
3.278000	 -0.159899
3.296000	 0.075860
3.314000	 0.139402
3.332000	 0.080081
3.350000	 0.061672
3.368000	 -0.064750
3.386000	 -0.024792
3.404000	 0.134459
3.422000	 -0.026970
3.440000	 -0.021388
3.458000	 0.185323
3.476000	 -0.014253
3.494000	 0.057797
3.512000	 0.050661
3.530000	 -0.030053
3.548000	 0.198604
3.566000	 0.120739
3.584000	 0.103298
3.602000	 0.010750
3.620000	 0.096584
3.638000	 -0.083624
3.656000	 0.113034
3.674000	 0.005923
3.692000	 0.028997
3.710000	 -0.047808
3.728000	 0.048767
3.746000	 0.082418
3.764000	 0.048546
3.782000	 0.007313
3.800000	 0.171445
3.818000	 0.054155
3.836000	 0.071399
3.854000	 0.139150
3.872000	 0.014564
3.890000	 0.026113
3.908000	 -0.044683
3.926000	 0.028075
3.944000	 0.008265
3.962000	 0.067722
3.980000	 0.022240
3.998000	 0.028555
4.016000	 0.187744
4.034000	 -0.124794
4.052000	 0.120448
4.070000	 0.093477
4.088000	 0.005530
4.106000	 0.105266
4.124000	 0.179730
4.141999	 0.117602
4.160000	 0.025850
4.178000	 -0.139275
4.196000	 -0.011795
4.214000	 -0.009005
4.232000	 -0.019649
4.250000	 -0.148714
4.268000	 -0.002265
4.286000	 0.021591
4.304000	 0.076384
4.322000	 0.039843
4.340000	 -0.030241
4.358000	 0.106646
4.375999	 -0.000739
4.394000	 0.096281
4.412000	 0.124130
4.430000	 0.289236
4.448000	 0.287065
4.466000	 0.549862
4.484000	 0.567264
4.502000	 0.812218
4.520000	 0.935907
4.538000	 1.200786
4.556000	 1.594720
4.574000	 1.910350
4.592000	 2.278894
4.609999	 2.785835
4.628000	 3.165291
4.646000	 3.556030
4.664000	 4.247876
4.682000	 4.823025
4.700000	 5.663084
4.718000	 6.393958
4.736000	 7.099340
4.754000	 7.806812
4.772000	 8.586889
4.790000	 9.416703
4.808000	 10.3674
4.826000	 11.2476
4.843999	 11.8405
4.862000	 12.5468
4.880000	 13.3733
4.898000	 14.1189
4.916000	 14.8757
4.934000	 15.5662
4.952000	 16.4499
4.970000	 16.9887
4.988000	 17.5338
5.006000	 18.1908
5.024000	 18.686
5.042000	 19.3031
5.060000	 19.8651
5.077999	 20.4404
5.096000	 20.9441
5.114000	 21.3245
5.132000	 21.7828
5.150000	 22.0858
5.168000	 22.462
5.186000	 22.943
5.204000	 23.2652
5.222000	 23.5276
5.240000	 23.818
5.258000	 24
5.276000	 24.2667
5.294000	 24.5637
5.312000	 24.825
5.330000	 24.9744
5.348000	 25.171
5.366000	 25.3842
5.384000	 25.7003
5.402000	 25.7842
5.420000	 25.8996
5.438000	 26.0598
5.456000	 26.1804
5.474000	 26.308
5.492000	 26.4507
5.510000	 26.5444
5.528000	 26.6526
5.546000	 26.7695
5.564000	 26.7301
5.582000	 26.8218
5.600000	 26.975
5.618000	 27.0225
5.636000	 27.1071
5.654000	 27.122
5.672000	 27.1983
5.690000	 27.3166
5.708000	 27.3357
5.726000	 27.385
5.744000	 27.4403
5.762000	 27.4397
5.780000	 27.4832
5.798000	 27.4623
5.816000	 27.4907
5.834000	 27.5774
5.852000	 27.585
5.870000	 27.5964
5.888000	 27.6048
5.906000	 27.5929
5.923999	 27.6148
5.942000	 27.6384
5.960000	 27.6247
5.978000	 27.6001
5.996000	 27.6461
6.014000	 27.7813
6.032000	 27.8112
6.050000	 27.7836
6.068000	 27.8584
6.086000	 27.861
6.104000	 27.7767
6.122000	 27.7833
6.140000	 27.7194
6.158000	 27.6082
6.176000	 27.6543
6.194000	 27.8003
6.212000	 27.8621
6.230000	 27.8615
6.248000	 27.7791
6.266000	 27.7568
6.284000	 27.7857
6.302000	 27.7696
6.320000	 27.7175
6.338000	 27.6273
6.356000	 27.6519
6.374000	 27.7963
6.392000	 27.8283
6.410000	 27.8138
6.428000	 27.8453
6.446000	 27.8234
6.464000	 27.792
6.482000	 27.738
6.500000	 27.7019
6.518000	 27.7106
6.536000	 27.7135
6.554000	 27.7123
6.572000	 27.7381
6.590000	 27.7986
6.608000	 27.8195
6.626000	 27.7426
6.644000	 27.6261
6.662000	 27.5483
6.680000	 27.5082
6.698000	 27.5745
6.716000	 27.6797
6.734000	 27.6804
6.752000	 27.631
6.770000	 27.6028
6.788000	 27.5763
6.806000	 27.55
6.824000	 27.5737
6.842000	 27.6447
6.860000	 27.6831
6.878000	 27.6672
6.896000	 27.6128
6.914000	 27.5278
6.932000	 27.4728
6.950000	 27.4602
6.968000	 27.4811
6.986000	 27.5137
7.004000	 27.4807
7.022000	 27.3402
7.040000	 27.1793
7.058000	 27.1606
7.076000	 27.2538
7.094000	 27.307
7.112000	 27.3178
7.130000	 27.3003
7.148000	 27.2501
7.166000	 27.2351
7.184000	 27.2739
7.202000	 27.3092
7.220000	 27.2638
7.238000	 27.1281
7.256000	 27.0346
7.274000	 27.0558
7.292000	 27.0786
7.310000	 27.041
7.328000	 27.0343
7.346000	 27.0978
7.364000	 27.1576
7.382000	 27.1659
7.400000	 27.1355
7.418000	 27.0823
7.436000	 27.0278
7.454000	 27.0177
7.472000	 27.0552
7.490000	 27.0731
7.508000	 27.0415
7.526000	 27.0022
7.544000	 26.9738
7.562000	 26.9475
7.580000	 26.9388
7.598000	 26.95
7.616000	 26.9536
7.634000	 26.9402
7.652000	 26.9147
7.670000	 26.8809
7.688000	 26.867
7.706000	 26.896
7.724000	 26.9196
7.742000	 26.8661
7.760000	 26.7569
7.778000	 26.6886
7.796000	 26.7049
7.814000	 26.7645
7.832000	 26.8082
7.850000	 26.8071
7.868000	 26.7669
7.886000	 26.7118
7.904000	 26.6676
7.922000	 26.6494
7.940000	 26.6541
7.958000	 26.6641
7.976000	 26.6742
7.994000	 26.695
8.012000	 26.7204
8.030000	 26.7195
8.048000	 26.6724
8.065999	 26.5989
8.084000	 26.5473
8.102000	 26.5482
8.120000	 26.5797
8.138000	 26.5948
8.155999	 26.5829
8.173999	 26.5685
8.192000	 26.5626
8.210000	 26.5549
8.228000	 26.5393
8.246000	 26.5137
8.263999	 26.4708
8.282000	 26.4152
8.300000	 26.37
8.318000	 26.3506
8.336000	 26.3526
8.353999	 26.3649
8.372000	 26.3775
8.390000	 26.3786
8.408000	 26.3613
8.426000	 26.3346
8.443999	 26.3116
8.462000	 26.2894
8.480000	 26.2531
8.498000	 26.2051
8.516000	 26.1723
8.533999	 26.1779
8.552000	 26.2085
8.570000	 26.2212
8.588000	 26.1859
8.606000	 26.118
8.624000	 26.0623
8.641999	 26.0476
8.660000	 26.0594
8.678000	 26.0652
8.696000	 26.0569
8.714000	 26.0594
8.731999	 26.0993
8.750000	 26.1792
8.768000	 26.2753
8.786000	 26.3471
8.804000	 26.3559
8.821999	 26.2888
8.840000	 26.1734
8.858000	 26.0623
8.876000	 25.9926
8.894000	 25.9667
8.911999	 25.9614
8.930000	 25.9508
8.948000	 25.9194
8.966000	 25.8693
8.984000	 25.8181
9.001999	 25.7866
9.020000	 25.7824
9.038000	 25.7972
9.056000	 25.8202
9.074000	 25.8483
9.092000	 25.8799
9.109999	 25.9058
9.128000	 25.9112
9.146000	 25.8827
9.164000	 25.8164
9.182000	 25.724
9.199999	 25.6325
9.218000	 25.5732
9.236000	 25.5648
9.254000	 25.6011
9.272000	 25.6526
9.289999	 25.6835
9.308000	 25.6731
9.326000	 25.6247
9.344000	 25.5584
9.362000	 25.4946
9.379999	 25.4397
9.398000	 25.3875
9.416000	 25.3302
9.434000	 25.27
9.452000	 25.2186
9.469999	 25.1889
9.488000	 25.1839
9.506000	 25.1894
9.524000	 25.1806
9.542000	 25.1407
9.560000	 25.0785
9.577999	 25.0258
9.596000	 25.015
9.614000	 25.0574
9.632000	 25.1377
9.650000	 25.2264
9.667999	 25.296
9.686000	 25.3293
9.704000	 25.3198
9.722000	 25.2663
9.740000	 25.1744
9.757999	 25.0622
9.776000	 24.9595
9.794000	 24.8955
9.812000	 24.8799
9.830000	 24.8933
9.847999	 24.8994
9.866000	 24.87
9.884000	 24.8045
9.902000	 24.7283
9.920000	 24.6737
9.937999	 24.66
9.956000	 24.6871
9.974000	 24.7412
9.992000	 24.8036
10.01	24.8564
10.028	24.8858
10.046	24.8871
10.064	24.8659
10.082	24.8376
10.1	24.8199
10.118	24.823
10.136	24.8435
10.154	24.8666
10.172	24.874
10.19	24.8529
10.208	24.804
10.226	24.7414
10.244	24.6872
10.262	24.6598
10.28	24.6639
10.298	24.6904
10.316	24.7219
10.334	24.7421
10.352	24.7425
10.37	24.7208
10.388	24.6785
10.406	24.6179
10.424	24.5432
10.442	24.4628
10.46	24.3885
10.478	24.3318
10.496	24.299
10.514	24.2891
10.532	24.2957
10.55	24.3107
10.568	24.3269
10.586	24.3381
10.604	24.3388
10.622	24.3243
10.64	24.2944
10.658	24.2536
10.676	24.2119
10.694	24.1786
10.712	24.1573
10.73	24.1437
10.748	24.1287
10.766	24.1061
10.784	24.0775
10.802	24.0527
10.82	24.0416
10.838	24.0482
10.856	24.0661
10.874	24.0817
10.892	24.082
10.91	24.0601
10.928	24.018
10.946	23.9638
10.964	23.9055
10.982	23.8477
11	23.7901
11.018	23.7311
11.036	23.6716
11.054	23.6171
11.072	23.575
11.09	23.552
11.108	23.5493
11.126	23.5609
11.144	23.5773
11.162	23.5874
11.18	23.5847
11.198	23.5683
11.216	23.5418
11.234	23.5109
11.252	23.4796
11.27	23.4494
11.288	23.4194
11.306	23.3884
11.324	23.3554
11.342	23.3208
11.36	23.2856
11.378	23.2514
11.396	23.2197
11.414	23.192
11.432	23.1695
11.45	23.1526
11.468	23.1408
11.486	23.1327
11.504	23.1264
11.522	23.12
11.54	23.1124
11.558	23.103
11.576	23.0915
11.594	23.0772
11.612	23.0584
11.63	23.0347
11.648	23.0071
11.666	22.9784
11.684	22.9528
11.702	22.9333
11.72	22.9212
11.738	22.9151
11.756	22.9112
11.774	22.9055
11.792	22.8951
11.81	22.8798
11.828	22.8624
11.846	22.8482
11.864	22.8431
11.882	22.8516
11.9	22.875
11.918	22.9107
11.936	22.9517
11.954	22.9885
11.972	23.01
11.99	23.0068
12.008	22.9741
12.026	22.9125
12.044	22.8287
12.062	22.7343
12.08	22.6424
12.098	22.5649
12.116	22.5091
12.134	22.4762
12.152	22.4615
12.17	22.4576
12.188	22.4567
12.206	22.4531
12.224	22.4449
12.242	22.433
12.26	22.42
12.278	22.4081
12.296	22.3989
12.314	22.3923
12.332	22.3863
12.35	22.3771
12.368	22.3603
12.386	22.3316
12.404	22.2887
12.422	22.2327
12.44	22.1678
12.458	22.1004
12.476	22.0378
12.494	21.9859
12.512	21.9479
12.53	21.9234
12.548	21.9088
12.566	21.8996
12.584	21.8911
12.602	21.88
12.62	21.8653
12.638	21.8481
12.656	21.8299
12.674	21.8117
12.692	21.7938
12.71	21.7756
12.728	21.7564
12.746	21.7357
12.764	21.7134
12.782	21.6901
12.8	21.6666
12.818	21.6441
12.836	21.6235
12.854	21.6053
12.872	21.5897
12.89	21.5762
12.908	21.5633
12.926	21.5489
12.944	21.5309
12.962	21.507
12.98	21.4758
12.998	21.4379
13.016	21.3961
13.034	21.3547
13.052	21.3188
13.07	21.2932
13.088	21.28
13.106	21.2786
13.124	21.2847
13.142	21.2919
13.16	21.2937
13.178	21.286
13.196	21.2673
13.214	21.2399
13.232	21.2085
13.25	21.1785
13.268	21.1544
13.286	21.1384
13.304	21.1302
13.322	21.1275
13.34	21.1273
13.358	21.1278
13.376	21.1289
13.394	21.1332
13.412	21.1447
13.43	21.1678
13.448	21.2054
13.466	21.2576
13.484	21.3211
13.502	21.3891
13.52	21.4525
13.538	21.5017
13.556	21.528
13.574	21.525
13.592	21.4897
13.61	21.4227
13.628	21.3285
13.646	21.2143
13.664	21.0895
13.682	20.9642
13.7	20.8478
13.718	20.7481
13.736	20.6701
13.754	20.6159
13.772	20.5844
13.79	20.5719
13.808	20.5729
13.826	20.5811
13.844	20.5908
13.862	20.5971
13.88	20.5974
13.898	20.5908
13.916	20.5779
13.934	20.5609
13.952	20.542
13.97	20.5232
13.988	20.5053
14.006	20.4881
14.024	20.4706
14.042	20.4509
14.06	20.4268
14.078	20.3967
14.096	20.3597
14.114	20.3158
14.132	20.2661
14.15	20.2125
14.168	20.1582
14.186	20.1069
14.204	20.0619
14.222	20.0266
14.24	20.0032
14.258	19.9927
14.276	19.9949
14.294	20.0087
14.312	20.0317
14.33	20.0609
14.348	20.0932
14.366	20.1255
14.384	20.1551
14.402	20.1802
14.42	20.1996
14.438	20.2125
14.456	20.219
14.474	20.2192
14.492	20.2134
14.51	20.202
14.528	20.1853
14.546	20.1631
14.564	20.1353
14.582	20.1016
14.6	20.0624
14.618	20.0177
14.636	19.9686
14.654	19.9159
14.672	19.8613
14.69	19.8061
14.708	19.7518
14.726	19.6997
14.744	19.6506
14.762	19.6046
14.78	19.5616
14.798	19.5213
14.816	19.483
14.834	19.4465
14.852	19.4117
14.87	19.3794
14.888	19.3503
14.906	19.3256
14.924	19.3062
14.942	19.2932
14.96	19.2868
14.978	19.2863
14.996	19.2903
15.014	19.2969
15.032	19.3029
15.05	19.3056
15.068	19.3029
15.086	19.2935
15.104	19.2766
15.122	19.2528
15.14	19.2238
15.158	19.1919
15.176	19.1596
15.194	19.1293
15.212	19.1034
15.23	19.0826
15.248	19.0673
15.266	19.0572
15.284	19.0509
15.302	19.0467
15.32	19.0428
15.338	19.0373
15.356	19.0287
15.374	19.0161
15.392	18.9995
15.41	18.9796
15.428	18.9574
15.446	18.9348
15.464	18.9138
15.482	18.8962
15.5	18.8838
15.518	18.8779
15.536	18.8788
15.554	18.8861
15.572	18.8991
15.59	18.9154
15.608	18.9326
15.626	18.9479
15.644	18.9583
15.662	18.9604
15.68	18.9523
15.698	18.9323
15.716	18.8992
15.734	18.8532
15.752	18.7952
15.77	18.7267
15.788	18.6506
15.806	18.5697
15.824	18.4867
15.842	18.4045
15.86	18.3263
15.878	18.2539
15.896	18.1894
15.914	18.1346
15.932	18.0904
15.95	18.0574
15.968	18.036
15.986	18.0257
16.004	18.0261
16.022	18.0362
16.04	18.0543
16.058	18.0787
16.076	18.1082
16.094	18.14
16.112	18.1726
16.13	18.2045
16.148	18.2335
16.166	18.2586
16.184	18.2792
16.202	18.2946
16.22	18.3053
16.238	18.3119
16.256	18.3152
16.274	18.3169
16.292	18.3184
16.31	18.321
16.328	18.3263
16.346	18.3353
16.364	18.3485
16.382	18.3659
16.4	18.3865
16.418	18.4097
16.436	18.4329
16.454	18.4539
16.472	18.4706
16.49	18.4801
16.508	18.4805
16.526	18.4706
16.544	18.4491
16.562	18.4167
16.58	18.3735
16.598	18.3216
16.616	18.2633
16.634	18.2004
16.652	18.1369
16.67	18.0751
16.688	18.0172
16.706	17.966
16.724	17.9221
16.742	17.8864
16.76	17.8587
16.778	17.8381
16.796	17.8233
16.814	17.8121
16.832	17.803
16.85	17.7934
16.868	17.7818
16.886	17.7667
16.904	17.7473
16.922	17.7236
16.94	17.6957
16.958	17.6653
16.976	17.6334
16.994	17.602
17.012	17.5729
17.03	17.5473
17.048	17.5269
17.066	17.5118
17.084	17.5023
17.102	17.497
17.12	17.4953
17.138	17.4943
17.156	17.4918
17.174	17.4858
17.192	17.4728
17.21	17.4519
17.228	17.4206
17.246	17.3789
17.264	17.3262
17.282	17.264
17.3	17.1937
17.318	17.1177
17.336	17.0394
17.354	16.9605
17.372	16.8859
17.39	16.8169
17.408	16.7569
17.426	16.7072
17.444	16.6689
17.462	16.6423
17.48	16.6268
17.498	16.6211
17.516	16.6234
17.534	16.6322
17.552	16.644
17.57	16.658
17.588	16.671
17.606	16.682
17.624	16.6891
17.642	16.6918
17.66	16.6897
17.678	16.6827
17.696	16.6711
17.714	16.656
17.732	16.6381
17.75	16.6181
17.768	16.5976
17.786	16.5771
17.804	16.5576
17.822	16.5392
17.84	16.5229
17.858	16.5087
17.876	16.4968
17.894	16.4874
17.912	16.4804
17.93	16.4759
17.948	16.4741
17.966	16.4749
17.984	16.4783
18.002	16.4844
18.02	16.4931
18.038	16.5043
18.056	16.5177
18.074	16.5332
18.092	16.5498
18.11	16.5674
18.128	16.5847
18.146	16.6014
18.164	16.6161
18.182	16.6283
18.2	16.637
18.218	16.6416
18.236	16.6414
18.254	16.6361
18.272	16.6254
18.29	16.6097
18.308	16.5891
18.326	16.5646
18.344	16.5366
18.362	16.5065
18.38	16.4748
18.398	16.4429
18.416	16.4114
18.434	16.3817
18.452	16.3542
18.47	16.3295
18.488	16.3077
18.506	16.2889
18.524	16.2724
18.542	16.2581
18.56	16.2447
18.578	16.2321
18.596	16.2187
18.614	16.2043
18.632	16.1876
18.65	16.1685
18.668	16.1463
18.686	16.1211
18.704	16.0928
18.722	16.0618
18.74	16.0289
18.758	15.9945
18.776	15.9597
18.794	15.9252
18.812	15.8923
18.83	15.8614
18.848	15.8336
18.866	15.8091
18.884	15.7886
18.902	15.7719
18.92	15.759
18.938	15.7495
18.956	15.7429
18.974	15.7387
18.992	15.7359
19.01	15.7341
19.028	15.7326
19.046	15.7313
19.064	15.7298
19.082	15.7281
19.1	15.7261
19.118	15.724
19.136	15.7219
19.154	15.7201
19.172	15.7191
19.19	15.7191
19.208	15.7208
19.226	15.7241
19.244	15.729
19.262	15.7353
19.28	15.7428
19.298	15.7512
19.316	15.7597
19.334	15.7682
19.352	15.7758
19.37	15.7827
19.388	15.7881
19.406	15.7921
19.424	15.7947
19.442	15.7959
19.46	15.7962
19.478	15.7956
19.496	15.7948
19.514	15.7939
19.532	15.7938
19.55	15.7949
19.568	15.7975
19.586	15.8021
19.604	15.8085
19.622	15.8169
19.64	15.8271
19.658	15.8383
19.676	15.8507
19.694	15.863
19.712	15.8751
19.73	15.8859
19.748	15.8952
19.766	15.9023
19.784	15.9071
19.802	15.9093
19.82	15.9087
19.838	15.9056
19.856	15.9004
19.874	15.8931
19.892	15.8841
19.91	15.8733
19.928	15.861
19.946	15.8473
19.964	15.8314
19.982	15.8135
20	15.7922
20.018	15.7672
20.036	15.7374
20.054	15.7009
20.072	15.6575
20.09	15.6043
20.108	15.5418
20.126	15.4674
20.144	15.3811
20.162	15.2822
20.18	15.17
20.198	15.0456
20.216	14.9095
20.234	14.7622
20.252	14.6076
20.27	14.4448
20.288	14.28
20.306	14.1124
20.324	13.9476
20.342	13.7886
20.36	13.6367
20.378	13.4985
20.396	13.3727
20.414	13.2658
20.432	13.1773
20.45	13.11
20.468	13.0656
20.486	13.0434
20.504	13.0443
20.522	13.0678
20.54	13.1111
20.558	13.1751
20.576	13.2548
20.594	13.3489
20.612	13.4551
20.63	13.5671
20.648	13.6864
20.666	13.8044
20.684	13.9222
20.702	14.0344
20.72	14.137
20.738	14.2303
20.756	14.3087
20.774	14.3733
20.792	14.4211
20.81	14.451
20.828	14.4638
20.846	14.4591
20.864	14.4372
20.882	14.401
20.9	14.3495
20.918	14.2867
20.936	14.2148
20.954	14.1343
20.972	14.0513
20.99	13.9643
21.008	13.8788
21.026	13.7966
21.044	13.7182
21.062	13.6486
21.08	13.5864
21.098	13.5343
21.116	13.4932
21.134	13.4625
21.152	13.4428
21.17	13.4341
21.188	13.434
21.206	13.4428
21.224	13.4587
21.242	13.4784
21.26	13.503
21.278	13.5276
21.296	13.5517
21.314	13.574
21.332	13.5907
21.35	13.603
21.368	13.6079
21.386	13.6046
21.404	13.5934
21.422	13.5736
21.44	13.545
21.458	13.5092
21.476	13.4662
21.494	13.4167
21.512	13.3645
21.53	13.3085
21.548	13.2518
21.566	13.1967
21.584	13.1426
21.602	13.0942
21.62	13.0509
21.638	13.0146
21.656	12.9886
21.674	12.9715
21.692	12.9658
21.71	12.9724
21.728	12.9908
21.746	13.0214
21.764	13.0646
21.782	13.1191
21.8	13.1841
21.818	13.2598
21.836	13.3438
21.854	13.4367
21.872	13.5367
21.89	13.6406
21.908	13.7499
21.926	13.8611
21.944	13.9721
21.962	14.0838
21.98	14.1915
21.998	14.2956
22.016	14.3947
22.034	14.4849
22.052	14.5675
22.07	14.6403
22.088	14.7012
22.106	14.7513
22.124	14.7889
22.142	14.8136
22.16	14.826
22.178	14.8261
22.196	14.8135
22.214	14.7895
22.232	14.7551
22.25	14.7097
22.268	14.656
22.286	14.5952
22.304	14.5269
22.322	14.4551
22.34	14.3802
22.358	14.3025
22.376	14.2263
22.394	14.1504
22.412	14.0764
22.43	14.0071
22.448	13.9415
22.466	13.8808
22.484	13.8264
22.502	13.7778
22.52	13.7352
22.538	13.6995
22.556	13.67
22.574	13.6458
22.592	13.6269
22.61	13.6131
22.628	13.6026
22.646	13.5958
22.664	13.592
22.682	13.5894
22.7	13.5884
22.718	13.5887
22.736	13.5897
22.754	13.5915
22.772	13.5945
22.79	13.5989
22.808	13.6042
22.826	13.6127
22.844	13.6256
22.862	13.6419
22.88	13.6647
22.898	13.6953
22.916	13.7327
22.934	13.7806
22.952	13.8402
22.97	13.9105
22.988	13.9949
23.006	14.094
23.024	14.2072
23.042	14.3357
23.06	14.4804
23.078	14.64
23.096	14.8132
23.114	15.0012
23.132	15.2023
23.15	15.4116
23.168	15.6307
23.186	15.8577
23.204	16.086
23.222	16.3177
23.24	16.5502
23.258	16.7753
23.276	16.9947
23.294	17.2065
23.312	17.4021
23.33	17.5829
23.348	17.7478
23.366	17.8894
23.384	18.0078
23.402	18.1035
23.42	18.1721
23.438	18.213
23.456	18.2273
23.474	18.2141
23.492	18.1721
23.51	18.1029
23.528	18.0096
23.546	17.8919
23.564	17.7501
23.582	17.5896
23.6	17.4118
23.618	17.215
23.636	17.0065
23.654	16.7895
23.672	16.5608
23.69	16.3269
23.708	16.0919
23.726	15.8524
23.744	15.6132
23.762	15.3783
23.78	15.1456
23.798	14.9167
23.816	14.694
23.834	14.477
23.852	14.2653
23.87	14.0593
23.888	13.8595
23.906	13.6651
23.924	13.4745
23.942	13.288
23.96	13.1055
23.978	12.9257
23.996	12.748
24.014	12.5728
24.032	12.3995
24.05	12.2272
24.068	12.056
24.086	11.887
24.104	11.7213
24.122	11.5571
24.14	11.397
24.158	11.2444
24.176	11.0968
24.194	10.9564
24.212	10.8286
24.23	10.7133
24.248	10.6094
24.266	10.5232
24.284	10.4578
24.302	10.4096
24.32	10.3836
24.338	10.3848
24.356	10.4113
24.374	10.4628
24.392	10.5403
24.41	10.6446
24.428	10.7744
24.446	10.9273
24.464	11.1033
24.482	11.3034
24.5	11.5229
24.518	11.7582
24.536	12.0128
24.554	12.2825
24.572	12.5614
24.59	12.8519
24.608	13.1527
24.626	13.4566
24.644	13.7603
24.662	14.068
24.68	14.3738
24.698	14.6724
24.716	14.9661
24.734	15.2545
24.752	15.5354
24.77	15.8086
24.788	16.0749
24.806	16.3332
24.824	16.583
24.842	16.825
24.86	17.0585
24.878	17.2827
24.896	17.4985
24.914	17.7053
24.932	17.9016
24.95	18.0869
24.968	18.2627
24.986	18.426
25.004	18.5739
25.022	18.7085
25.04	18.8285
25.058	18.9303
25.076	19.0123
25.094	19.0766
25.112	19.1211
25.13	19.1435
25.148	19.1447
25.166	19.1248
25.184	19.0826
25.202	19.0169
25.22	18.9284
25.238	18.8183
25.256	18.6879
25.274	18.5356
25.292	18.3629
25.31	18.1729
25.328	17.9671
25.346	17.7425
25.364	17.5039
25.382	17.2567
25.4	16.9994
25.418	16.7317
25.436	16.4582
25.454	16.1828
25.472	15.9019
25.49	15.618
25.508	15.3348
25.526	15.0533
25.544	14.7718
25.562	14.4918
25.58	14.2147
25.598	13.9401
25.616	13.6678
25.634	13.3986
25.652	13.1331
25.67	12.8709
25.688	12.6119
25.706	12.3564
25.724	12.1034
25.742	11.8532
25.76	11.6082
25.778	11.3707
25.796	11.1372
25.814	10.9104
25.832	10.6957
25.85	10.4953
25.868	10.3027
25.886	10.1265
25.904	9.977482
25.922	9.856350
25.94	9.757024
25.958	9.690237
25.976	9.666757
25.994	9.679633
26.012	9.729796
26.03	9.830607
26.048	9.993237
26.066	10.2064
26.084	10.4761
26.102	10.8152
26.12	11.2317
26.138	11.7145
26.156	12.2713
26.174	12.9127
26.192	13.6429
26.21	14.4552
26.228	15.3521
26.246	16.3363
26.264	17.4106
26.282	18.5726
26.3	19.8164
26.318	21.1366
26.336	22.5408
26.354	24.025
26.372	25.5746
26.39	27.1771
26.408	28.8482
26.426	30.5782
26.444	32.3444
26.462	34.1287
26.48	35.954
26.498	37.8055
26.516	39.656
26.534	41.4878
26.552	43.3278
26.57	45.1559
26.588	46.9426
26.606	48.6706
26.624	50.3666
26.642	52.0114
26.66	53.5797
26.678	55.0587
26.696	56.471
26.714	57.7996
26.732	59.0235
26.75	60.1318
26.768	61.1414
26.786	62.0433
26.804	62.8264
26.822	63.4851
26.84	64.0282
26.858	64.4524
26.876	64.7537
26.894	64.9284
26.912	64.9787
26.93	64.9088
26.948	64.7231
26.966	64.3807
26.984	63.815
27.002	63.1907
27.02	62.6863
27.028	62.5605