File: Bakgrunnsmateriale/MATLAB/FTIR/ftir_data/LPE453/Mapping_121/LPE453_t99_cm-1.asc
PE IR       SPECTRUM    SPECTRUM    ASCII       PEDS        1.60
  -1
LPEBDC~1.ASC
17/05/16
22:29:43.00
17/05/16
22:29:43.00
tln
$LPE453_t0099$<tbV0>[-13.0,7.8,8.0,0.0,27,1,0]
370
64

2002,4.07
MIRTGS : RIGHTBACK : INTERNAL 2
MIR : ON : INTERNAL 2
OPTKBR

0.200000
8
8.000000
FILLER
RATIO
SPECTRUM
UNLOCKED 256

DOUBLE
64
COMBINED
1
0
0

1.000000
RATIO

1
0
TRUE
51149
0
LEFT NOT FITTED RIGHT NOT FITTED 0
NONE
NONE
15600
12
4.427000
51148
TRUE
1 0 8 72 0 0 0 0

15798

#HDR
-1
-1
#GR
CM-1
%T
2.38419e-05
0.0
5000
-1.000000
4631
8
34.8726
-10.1551
#DATA
5000	0.485372
4996	0.556421
4992	0.545024
4988	0.436282
4984	0.253129
4980	0.016903
4976	-0.162982
4972	-0.056099
4968	0.139355
4964	0.013661
4960	-0.292730
4956	-0.222754
4952	0.140094
4948	0.290727
4944	0.313425
4940	0.422620
4936	0.307369
4932	-0.046586
4928	-0.170493
4924	-0.105857
4920	-0.034189
4916	0.147104
4912	0.467348
4908	0.638270
4904	0.433802
4900	0.252032
4896	0.239062
4892	0.168204
4888	0.206470
4884	0.305509
4880	0.293397
4876	0.237035
4872	0.127553
4868	-0.060963
4864	-0.085234
4860	0.103807
4856	0.309753
4852	0.556850
4848	0.661659
4844	0.385046
4840	0.120401
4836	0.193738
4832	0.374674
4828	0.537276
4824	0.647234
4820	0.588226
4816	0.394082
4812	0.311756
4808	0.369691
4804	0.492906
4800	0.741147
4796	0.886130
4792	0.722265
4788	0.452327
4784	0.302934
4780	0.305867
4776	0.398135
4772	0.311779
4768	0.009965
4764	-0.172281
4760	-0.079202
4756	0.205373
4752	0.449061
4748	0.492334
4744	0.533390
4740	0.483345
4736	0.458455
4732	0.551199
4728	0.454545
4724	0.240516
4720	0.240755
4716	0.195837
4712	-0.142741
4708	-0.379252
4704	-0.392484
4700	-0.448727
4696	-0.530266
4692	-0.420737
4688	0.050544
4684	0.543260
4680	0.776576
4676	0.771355
4672	0.584936
4668	0.549554
4664	0.182676
4660	-0.446963
4656	-0.227308
4652	0.486516
4648	0.941634
4644	1.519584
4640	2.505970
4636	3.407788
4632	3.661632
4628	3.050208
4624	1.837563
4620	1.126599
4616	0.982761
4612	1.246070
4608	1.623868
4604	1.390504
4600	0.554656
4596	-0.410389
4592	-0.867867
4588	-0.593543
4584	-0.085234
4580	0.106096
4576	-0.038218
4572	-0.329661
4568	-0.826478
4564	-1.140952
4560	-1.710343
4556	-2.081322
4552	-1.456785
4548	-0.776767
4544	-0.823712
4540	-1.117610
4536	-1.502847
4532	-1.931834
4528	-2.115130
4524	-2.216553
4520	-1.759457
4516	0.578641
4512	4.576325
4508	7.276463
4504	11.8797
4500	20.2793
4496	21.7696
4492	17.1559
4488	13.5709
4484	8.102202
4480	2.340960
4476	0.353097
4472	-0.236392
4468	-0.355243
4464	-0.656676
4460	-1.457047
4456	-1.779532
4452	-1.575636
4448	-1.118230
4444	-0.986719
4440	-1.366734
4436	-1.875805
4432	-1.721978
4428	-1.179456
4424	-0.623154
4420	-0.090813
4416	-0.141787
4412	-0.339198
4408	0.143861
4404	0.756812
4400	0.981307
4396	0.821542
4392	0.336122
4388	0.221180
4384	0.762438
4380	1.012730
4376	0.863361
4372	0.793528
4368	0.610899
4364	0.414657
4360	0.510001
4356	0.529789
4352	0.403547
4348	0.278067
4344	0.153970
4340	0.173735
4336	0.311350
4332	0.376701
4328	0.313568
4324	0.280189
4320	0.199365
4316	0.051927
4312	0.022816
4308	-0.022101
4304	-0.089192
4300	0.013399
4296	0.109386
4292	0.031757
4288	-0.110030
4284	-0.197672
4280	-0.071692
4276	0.273036
4272	0.447297
4268	0.322270
4264	0.142574
4260	0.132417
4256	0.228714
4252	0.224471
4248	0.157117
4244	0.071763
4240	0.039625
4236	0.101995
4232	0.140213
4228	0.183868
4224	0.285124
4220	0.313735
4216	0.249743
4212	0.288486
4208	0.344753
4204	0.298476
4200	0.258898
4196	0.181221
4192	0.079584
4188	0.019073
4184	0.064253
4180	0.240421
4176	0.482916
4172	0.601267
4168	0.482845
4164	0.398659
4160	0.419235
4156	0.390625
4152	0.386166
4148	0.439023
4144	0.413846
4140	0.324916
4136	0.297260
4132	0.315976
4128	0.279664
4124	0.200366
4120	0.210046
4116	0.240683
4112	0.176858
4108	0.096178
4104	0.057864
4100	0.042247
4096	0.046682
4092	0.045275
4088	-0.055575
4084	-0.138831
4080	-0.076007
4076	-0.073242
4072	-0.101947
4068	0.002837
4064	0.151753
4060	0.204801
4056	0.116133
4052	0.056457
4048	0.081706
4044	0.074100
4040	0.087976
4036	0.139069
4032	0.044894
4028	-0.097370
4024	-0.050473
4020	0.154995
4016	0.405216
4012	0.436854
4008	0.259280
4004	0.262188
4000	0.366234
3996	0.328254
3992	0.161027
3988	0.039792
3984	0.081753
3980	0.143909
3976	0.158762
3972	0.133395
3968	0.062227
3964	0.037312
3960	0.084424
3956	0.124979
3952	0.094318
3948	0.108504
3944	0.229811
3940	0.334692
3936	0.368523
3932	0.279068
3928	0.125646
3924	0.044775
3920	0.051093
3916	0.155115
3912	0.245475
3908	0.217604
3904	0.143432
3900	0.072050
3896	0.089788
3892	0.217556
3888	0.273966
3884	0.195455
3880	0.156736
3876	0.170445
3872	0.105667
3868	-0.011134
3864	-0.112724
3860	-0.120234
3856	-0.094485
3852	-0.122094
3848	-0.122785
3844	-0.082039
3840	-0.004291
3836	0.122165
3832	0.198507
3828	0.080847
3824	-0.107812
3820	-0.084114
3816	0.017428
3812	-0.023388
3808	-0.067949
3804	-0.049757
3800	-0.057578
3796	-0.065565
3792	0.013709
3788	0.116634
3784	0.147986
3780	0.147676
3776	0.117301
3772	0.077056
3768	0.027179
3764	-0.044441
3760	-0.049424
3756	-0.036811
3752	-0.069022
3748	-0.033402
3744	0.068426
3740	0.097227
3736	0.010871
3732	-0.076580
3728	-0.063800
3724	-0.001287
3720	0.019574
3716	0.041484
3712	0.086665
3708	0.050449
3704	-0.036430
3700	0.001335
3696	0.142812
3692	0.181794
3688	0.085735
3684	-0.006842
3680	-0.034809
3676	-0.062441
3672	-0.080227
3668	-0.006318
3664	0.067663
3660	0.078701
3656	0.061464
3652	0.032472
3648	0.007176
3644	0.007295
3640	0.046825
3636	0.048971
3632	0.000739
3628	-0.001859
3624	0.041818
3620	0.070667
3616	0.011825
3612	-0.155019
3608	-0.213813
3604	-0.035309
3600	0.109362
3596	0.099873
3592	0.085616
3588	0.060582
3584	0.057506
3580	0.126504
3576	0.165319
3572	0.135564
3568	0.076055
3564	0.017952
3560	0.007581
3556	0.048232
3552	0.079727
3548	0.044059
3544	-0.001454
3540	0.005006
3536	0.006198
3532	0.037622
3528	0.122737
3524	0.156807
3520	0.137853
3516	0.107908
3512	0.052762
3508	-0.028467
3504	-0.095033
3500	-0.083637
3496	-0.000810
3492	0.063610
3488	0.089836
3484	0.140571
3480	0.190758
3476	0.177383
3472	0.090122
3468	0.012278
3464	0.061297
3460	0.101280
3456	0.018143
3452	-0.038766
3448	0.008988
3444	0.096940
3440	0.081539
3436	0.042295
3432	0.076436
3428	0.017333
3424	-0.067949
3420	-0.016736
3416	0.113487
3412	0.167417
3408	0.075006
3404	0.041031
3400	0.122809
3396	0.129270
3392	0.046086
3388	-0.039672
3384	-0.083136
3380	-0.047826
3376	0.022482
3372	0.039792
3368	0.027942
3364	0.008273
3360	0.021553
3356	0.139474
3352	0.228667
3348	0.128531
3344	-0.015687
3340	-0.015497
3336	0.048398
3332	0.108289
3328	0.150561
3324	0.133442
3320	0.086045
3316	0.017595
3312	-0.073885
3308	-0.139641
3304	-0.151324
3300	-0.118637
3296	-0.043559
3292	0.038909
3288	0.076818
3284	0.111603
3280	0.139045
3276	0.060653
3272	-0.018978
3268	0.022602
3264	0.063014
3260	0.047302
3256	0.009012
3252	-0.018429
3248	-0.015425
3244	-0.003194
3240	0.022196
3236	0.031638
3232	-0.007033
3228	-0.020098
3224	0.006079
3220	-0.033926
3216	-0.090575
3212	-0.059223
3208	-0.018715
3204	0.024771
3200	0.121450
3196	0.122523
3192	-0.010895
3188	-0.062870
3184	0.015521
3180	0.057482
3176	0.054907
3172	0.073480
3168	0.079727
3164	0.098085
3160	0.125384
3156	0.081324
3152	0.032234
3148	0.083160
3144	0.157856
3140	0.163865
3136	0.162625
3132	0.186610
3128	0.176978
3124	0.131964
3120	0.159549
3116	0.228691
3112	0.197052
3108	0.120997
3104	0.078892
3100	0.079011
3096	0.120329
3092	0.167083
3088	0.170183
3084	0.145602
3080	0.171709
3076	0.183796
3072	0.127696
3068	0.115108
3064	0.148725
3060	0.125288
3056	0.047993
3052	0.026082
3048	0.088810
3044	0.074696
3040	-0.087070
3036	-0.233793
3032	-0.225162
3028	-0.148606
3024	-0.131058
3020	-0.096726
3016	-0.018954
3012	0.014042
3008	0.012350
3004	-0.021314
3000	-0.056171
2996	-0.068211
2992	-0.101923
2988	-0.082063
2984	0.006461
2980	0.037240
2976	0.050115
2972	0.093173
2968	0.116014
2964	0.139880
2960	0.182700
2956	0.172042
2952	0.115776
2948	0.081777
2944	0.083255
2940	0.091195
2936	0.034427
2932	-0.015950
2928	0.018262
2924	0.032043
2920	-0.016593
2916	-0.031423
2912	0.022244
2908	0.036025
2904	0.020027
2900	0.033545
2896	0.031781
2892	0.056672
2888	0.100469
2884	0.086879
2880	0.042366
2876	0.056791
2872	0.116682
2868	0.105452
2864	0.060796
2860	0.058579
2856	0.085568
2852	0.135827
2848	0.116419
2844	0.003123
2840	-0.044918
2836	0.013566
2832	0.027179
2828	-0.049805
2824	-0.073170
2820	-0.013852
2816	0.055646
2812	0.102925
2808	0.095367
2804	0.055480
2800	0.011372
2796	-0.020575
2792	-0.022935
2788	-0.003170
2784	0.034689
2780	0.072479
2776	0.042724
2772	-0.052928
2768	-0.074195
2764	0.013971
2760	0.094294
2756	0.104403
2752	0.101542
2748	0.103116
2744	0.044012
2740	-0.031208
2736	-0.048804
2732	-0.028228
2728	0.013065
2724	0.095438
2720	0.143027
2716	0.110411
2712	0.096869
2708	0.067329
2704	-0.003552
2700	0.002431
2696	0.074243
2692	0.125932
2688	0.106883
2684	0.038957
2680	0.038814
2676	0.106596
2672	0.130343
2668	0.098180
2664	0.077271
2660	0.063991
2656	0.040936
2652	0.025391
2648	-0.002527
2644	-0.010943
2640	-0.017404
2636	-0.051665
2632	-0.036525
2628	-0.009465
2624	0.004982
2620	0.046706
2616	0.099349
2612	0.165748
2608	0.174808
2604	0.120639
2600	0.103807
2596	0.064325
2592	0.000357
2588	-0.012946
2584	0.016951
2580	0.069832
2576	0.079655
2572	0.014853
2568	-0.052547
2564	-0.032091
2560	0.040221
2556	0.089693
2552	0.099086
2548	0.088024
2544	0.087237
2540	0.082445
2536	0.052309
2532	-0.009465
2528	-0.036954
2524	0.023078
2520	0.109076
2516	0.138616
2512	0.080251
2508	0.008797
2504	-0.015950
2500	-0.026273
2496	-0.033998
2492	-0.014448
2488	0.038838
2484	0.032353
2480	-0.023460
2476	0.014114
2472	0.104331
2468	0.122308
2464	0.038099
2460	-0.033378
2456	-0.005793
2452	0.037956
2448	0.043892
2444	0.055146
2440	0.081181
2436	0.037312
2432	-0.058031
2428	-0.056767
2424	0.047588
2420	0.124716
2416	0.117969
2412	0.081729
2408	0.028252
2404	-0.004935
2400	-0.011348
2396	-0.044322
2392	-0.048732
2388	0.006604
2384	0.017166
2380	-0.013041
2376	0.061273
2372	0.145959
2368	0.116991
2364	0.115084
2360	0.172805
2356	0.225973
2352	0.249648
2348	0.232124
2344	0.209093
2340	0.178360
2336	0.172948
2332	0.214076
2328	0.267148
2324	0.315093
2320	0.347065
2316	0.358295
2312	0.330281
2308	0.335264
2304	0.396394
2300	0.426220
2296	0.461077
2292	0.543403
2288	0.626802
2284	0.688385
2280	0.727248
2276	0.786042
2272	0.898599
2268	1.009511
2264	1.085019
2260	1.170682
2256	1.296043
2252	1.420140
2248	1.512670
2244	1.601648
2240	1.731824
2236	1.882624
2232	2.070569
2228	2.316880
2224	2.504110
2220	2.641582
2216	2.836847
2212	3.062653
2208	3.292465
2204	3.533029
2200	3.752350
2196	3.985857
2192	4.257583
2188	4.501342
2184	4.766440
2180	5.120968
2176	5.488133
2172	5.816864
2168	6.149029
2164	6.512427
2160	6.898903
2156	7.310628
2152	7.673025
2148	7.957434
2144	8.339905
2140	8.836960
2136	9.303355
2132	9.739375
2128	10.2075
2124	10.7294
2120	11.2346
2116	11.6672
2112	12.0555
2108	12.4713
2104	12.9558
2100	13.4421
2096	13.8891
2092	14.3199
2088	14.7703
2084	15.2782
2080	15.7779
2076	16.2243
2072	16.647
2068	17.0313
2064	17.4314
2060	17.8749
2056	18.2971
2052	18.7088
2048	19.1782
2044	19.6484
2040	20.0311
2036	20.3946
2032	20.7759
2028	21.1404
2024	21.4832
2020	21.826
2016	22.193
2012	22.5614
2008	22.933
2004	23.3232
2000	23.6765
1996	23.9496
1992	24.2029
1988	24.5023
1984	24.8151
1980	25.1202
1976	25.4188
1972	25.6868
1968	25.961
1964	26.2491
1960	26.4851
1956	26.7095
1952	26.9729
1948	27.2089
1944	27.4029
1940	27.5763
1936	27.7372
1932	27.9308
1928	28.1727
1924	28.4278
1920	28.6596
1916	28.8589
1912	29.0377
1908	29.2047
1904	29.3504
1900	29.5063
1896	29.694
1892	29.8476
1888	29.9481
1884	30.0447
1880	30.1505
1876	30.274
1872	30.4353
1868	30.6321
1864	30.8061
1860	30.935
1856	31.0475
1852	31.1255
1848	31.1753
1844	31.2391
1840	31.335
1836	31.4533
1832	31.5691
1828	31.676
1824	31.7607
1820	31.8362
1816	31.9386
1812	32.0428
1808	32.1445
1804	32.2541
1800	32.3443
1796	32.3787
1792	32.406
1788	32.482
1784	32.5365
1780	32.5828
1776	32.6511
1772	32.7056
1768	32.7723
1764	32.8629
1760	32.9552
1756	33.0262
1752	33.0843
1748	33.1393
1744	33.1863
1740	33.2114
1736	33.22
1732	33.2808
1728	33.3913
1724	33.4739
1720	33.5283
1716	33.5641
1712	33.549
1708	33.5478
1704	33.5922
1700	33.6218
1696	33.6687
1692	33.7266
1688	33.7539
1684	33.8069
1680	33.843
1676	33.8085
1672	33.778
1668	33.8056
1664	33.8841
1660	33.9647
1656	34.006
1652	34
1648	33.9838
1644	33.9892
1640	34.0113
1636	34.0562
1632	34.0828
1628	34.097
1624	34.1558
1620	34.1949
1616	34.207
1612	34.2276
1608	34.2445
1604	34.2608
1600	34.2534
1596	34.251
1592	34.3132
1588	34.4151
1584	34.4683
1580	34.4604
1576	34.4371
1572	34.4356
1568	34.469
1564	34.5244
1560	34.5854
1556	34.6296
1552	34.6493
1548	34.6221
1544	34.5794
1540	34.5432
1536	34.5162
1532	34.5191
1528	34.5273
1524	34.5367
1520	34.5379
1516	34.5886
1512	34.699
1508	34.748
1504	34.7287
1500	34.7228
1496	34.7342
1492	34.6912
1488	34.6552
1484	34.7005
1480	34.7249
1476	34.6874
1472	34.6472
1468	34.5958
1464	34.5721
1460	34.6637
1456	34.8006
1452	34.8687
1448	34.8618
1444	34.818
1440	34.7732
1436	34.7209
1432	34.6748
1428	34.7005
1424	34.7416
1420	34.7158
1416	34.699
1412	34.7455
1408	34.8046
1404	34.8145
1400	34.7969
1396	34.8115
1392	34.8084
1388	34.7816
1384	34.797
1380	34.8378
1376	34.8233
1372	34.7453
1368	34.6824
1364	34.6692
1360	34.6835
1356	34.7011
1352	34.7144
1348	34.6601
1344	34.5711
1340	34.6214
1336	34.7337
1332	34.7625
1328	34.7649
1324	34.7389
1320	34.7062
1316	34.723
1312	34.733
1308	34.7372
1304	34.7463
1300	34.7145
1296	34.6595
1292	34.6129
1288	34.588
1284	34.592
1280	34.6025
1276	34.6227
1272	34.6674
1268	34.7027
1264	34.6746
1260	34.5847
1256	34.5035
1252	34.4778
1248	34.4775
1244	34.4215
1240	34.3205
1236	34.3102
1232	34.4052
1228	34.4684
1224	34.4297
1220	34.3869
1216	34.4295
1212	34.4622
1208	34.4241
1204	34.3812
1200	34.3465
1196	34.2902
1192	34.2211
1188	34.1714
1184	34.1583
1180	34.1333
1176	34.0892
1172	34.0246
1168	33.9792
1164	34.051
1160	34.1993
1156	34.2509
1152	34.2441
1148	34.2448
1144	34.173
1140	34.0873
1136	34.0484
1132	34.0369
1128	34.0087
1124	33.8879
1120	33.752
1116	33.7052
1112	33.7412
1108	33.8341
1104	33.8596
1100	33.7475
1096	33.6574
1092	33.6458
1088	33.6523
1084	33.7105
1080	33.7054
1076	33.5649
1072	33.4717
1068	33.4272
1064	33.3231
1060	33.1987
1056	33.1485
1052	33.1494
1048	33.1081
1044	33.1266
1040	33.2095
1036	33.2264
1032	33.1653
1028	33.0685
1024	33.0003
1020	32.962
1016	32.928
1012	32.8769
1008	32.7825
1004	32.6883
1000	32.6015
996	 32.539
992	 32.5446
988	 32.5691
984	 32.6879
980	 32.8269
976	 32.7393
972	 32.5938
968	 32.536
964	 32.4549
960	 32.303
956	 32.1368
952	 32.0701
948	 32.0685
944	 32.0497
940	 31.9954
936	 31.9268
932	 31.8284
928	 31.7441
924	 31.7893
920	 31.8045
916	 31.7195
912	 31.6673
908	 31.6482
904	 31.6163
900	 31.4483
896	 31.2183
892	 31.1313
888	 31.0956
884	 31.0087
880	 30.9482
876	 30.8969
872	 30.8251
868	 30.8397
864	 30.9127
860	 30.9508
856	 30.9698
852	 30.9725
848	 30.8898
844	 30.7027
840	 30.4941
836	 30.3349
832	 30.2205
828	 30.1059
824	 29.9175
820	 29.7836
816	 29.8928
812	 30.0582
808	 30.0814
804	 30.0191
800	 29.9866
796	 30.0332
792	 30.055
788	 29.9914
784	 29.8837
780	 29.7651
776	 29.6501
772	 29.4468
768	 29.2058
764	 29.0303
760	 28.845
756	 28.6952
752	 28.8206
748	 29.1336
744	 29.1749
740	 28.9233
736	 28.7434
732	 28.7064
728	 28.7457
724	 28.7006
720	 28.427
716	 28.1633
712	 27.9997
708	 27.8154
704	 27.7282
700	 27.7459
696	 27.7241
692	 27.7596
688	 27.9006
684	 27.9432
680	 27.8863
676	 27.9381
672	 28.0106
668	 27.9632
664	 27.739
660	 27.258
656	 26.8585
652	 26.7289
648	 26.6742
644	 26.7039
640	 26.8241
636	 26.9429
632	 27.0495
628	 27.0439
624	 26.8271
620	 26.5913
616	 26.5471
612	 26.6154
608	 26.5548
604	 26.3415
600	 26.1878
596	 26.0876
592	 25.899
588	 25.685
584	 25.56
580	 25.4563
576	 25.205
572	 25.0777
568	 25.4419
564	 25.8265
560	 25.8105
556	 25.6551
552	 25.4628
548	 25.2058
544	 24.8894
540	 24.5091
536	 24.2447
532	 24.3033
528	 24.4835
524	 24.4083
520	 24.2336
516	 24.1237
512	 24.0527
508	 24.2585
504	 24.4337
500	 24.1748
496	 24.028
492	 24.0439
488	 23.42
484	 22.4458
480	 22.2696
476	 22.7923
472	 23.0131
468	 22.6513
464	 22.2682
460	 22.2879
456	 22.2616
452	 22.3015
448	 22.7944
444	 22.8088
440	 22.4968
436	 22.5347
432	 22.1835
428	 21.4192
424	 22.1951
420	 24.2409
416	 22.9703
412	 18.6775
408	 16.3533
404	 18.0221
400	 20.4073
396	 18.8328
392	 16.337
388	 14.8204
384	 10.5052
380	 0.776505
376	 -5.499315
372	 -7.965540
370	 -10.1551