File: Bakgrunnsmateriale/MATLAB/FTIR/ftir_data/LPE453/Mapping_121/LPE453_e124.asc
PE IR       SPECTRUM    SPECTRUM    ASCII       PEDS        1.60
  -1
LP8383~1.ASC
17/05/16
18:00:33.00
17/05/16
18:00:59.00
tln
$LPE453_e0124$<ebV0>[-23.3,12.1,10.0,0.0,27,1,0]
27.028
64

2002,4.07
MIRTGS : RIGHTBACK : INTERNAL 2
MIR : ON : INTERNAL 2
OPTKBR

0.200000
8
8.000000
FILLER
SINGLE
SPECTRUM
UNLOCKED 256

DOUBLE

COMBINED
1
0
0

0.002000
BACKG

1
0
TRUE
51149
0
LEFT NOT FITTED RIGHT NOT FITTED 0
NONE
NONE
15600
12
4.427000
51148
TRUE
1 0 8 72 0 0 0 0

15798

#HDR
-1
-1
#GR
µM
EGY
2.38419e-05
0.0
2.000000
0.002000
12515
8
2.420958
0.008201
#DATA
2.000000	 0.763392
2.018000	 0.787826
2.036000	 0.804422
2.054000	 0.820828
2.072000	 0.847202
2.090000	 0.868752
2.108000	 0.888425
2.126000	 0.898278
2.144000	 0.906334
2.162000	 0.917122
2.180000	 0.933344
2.198000	 0.964203
2.216000	 1.059320
2.234000	 0.995589
2.252000	 1.009370
2.270000	 1.016131
2.288000	 1.034175
2.306000	 1.064982
2.324000	 1.102201
2.342000	 1.138175
2.360000	 1.166995
2.378000	 1.184372
2.396000	 1.204996
2.414000	 1.220336
2.432000	 1.243427
2.450000	 1.278917
2.468000	 1.316226
2.486000	 1.353583
2.504000	 1.383937
2.522000	 1.404088
2.540000	 1.413555
2.558000	 1.421756
2.576000	 1.432766
2.594000	 1.438073
2.612000	 1.474767
2.630000	 1.497819
2.648000	 1.534007
2.666000	 1.530512
2.684000	 1.559505
2.702000	 1.566518
2.720000	 1.556131
2.738000	 1.558549
2.756000	 1.563863
2.774000	 1.579936
2.792000	 1.590124
2.810000	 1.601948
2.828000	 1.607966
2.846000	 1.611234
2.864000	 1.603906
2.882000	 1.594106
2.900000	 1.579469
2.918000	 1.570749
2.936000	 1.577047
2.954000	 1.592091
2.972000	 1.609385
2.990000	 1.641050
3.008000	 1.667712
3.026000	 1.692974
3.044000	 1.716526
3.062000	 1.738576
3.080000	 1.754438
3.098000	 1.765383
3.116000	 1.769642
3.134000	 1.774087
3.152000	 1.778568
3.170000	 1.787231
3.188000	 1.802072
3.206000	 1.822172
3.224000	 1.850978
3.242000	 1.886286
3.260000	 1.906634
3.278000	 1.935023
3.296000	 1.953468
3.314000	 1.936673
3.332000	 1.998792
3.350000	 2.004874
3.368000	 1.942368
3.386000	 1.900252
3.404000	 1.811300
3.422000	 1.762516
3.440000	 1.913454
3.458000	 1.966403
3.476000	 1.982291
3.494000	 1.885650
3.512000	 1.990099
3.530000	 2.075264
3.548000	 2.118870
3.566000	 2.148653
3.584000	 2.173163
3.602000	 2.200570
3.620000	 2.214023
3.638000	 2.225972
3.656000	 2.232744
3.674000	 2.233019
3.692000	 2.228237
3.710000	 2.221279
3.728000	 2.214892
3.746000	 2.211065
3.764000	 2.200937
3.782000	 2.197347
3.800000	 2.198004
3.818000	 2.200251
3.836000	 2.201793
3.854000	 2.202987
3.872000	 2.215971
3.890000	 2.235107
3.908000	 2.249132
3.926000	 2.264868
3.944000	 2.278073
3.962000	 2.288930
3.980000	 2.294440
3.998000	 2.300133
4.016000	 2.297352
4.034000	 2.294217
4.052000	 2.290235
4.070000	 2.281381
4.088000	 2.271029
4.106000	 2.256654
4.124000	 2.251662
4.141999	 2.239950
4.160000	 2.233491
4.178000	 2.229018
4.196000	 2.221462
4.214000	 2.216435
4.232000	 2.208817
4.250000	 2.225577
4.268000	 2.237340
4.286000	 2.247656
4.304000	 2.265531
4.322000	 2.285396
4.340000	 2.304931
4.358000	 2.315801
4.375999	 2.326795
4.394000	 2.337052
4.412000	 2.343611
4.430000	 2.346992
4.448000	 2.346775
4.466000	 2.350544
4.484000	 2.346328
4.502000	 2.343255
4.520000	 2.336287
4.538000	 2.330966
4.556000	 2.322491
4.574000	 2.315821
4.592000	 2.310131
4.609999	 2.307381
4.628000	 2.301954
4.646000	 2.300617
4.664000	 2.303168
4.682000	 2.302283
4.700000	 2.297840
4.718000	 2.300998
4.736000	 2.305278
4.754000	 2.305806
4.772000	 2.305397
4.790000	 2.304837
4.808000	 2.310839
4.826000	 2.324326
4.843999	 2.336495
4.862000	 2.351680
4.880000	 2.368201
4.898000	 2.382343
4.916000	 2.393881
4.934000	 2.399977
4.952000	 2.406280
4.970000	 2.412504
4.988000	 2.416810
5.006000	 2.420909
5.024000	 2.416672
5.042000	 2.413729
5.060000	 2.411246
5.077999	 2.401191
5.096000	 2.396250
5.114000	 2.388444
5.132000	 2.383447
5.150000	 2.377875
5.168000	 2.373137
5.186000	 2.367400
5.204000	 2.359500
5.222000	 2.352182
5.240000	 2.343702
5.258000	 2.338040
5.276000	 2.332213
5.294000	 2.333454
5.312000	 2.335641
5.330000	 2.338276
5.348000	 2.339607
5.366000	 2.344562
5.384000	 2.349388
5.402000	 2.353293
5.420000	 2.354633
5.438000	 2.362754
5.456000	 2.366308
5.474000	 2.369345
5.492000	 2.379292
5.510000	 2.386067
5.528000	 2.390519
5.546000	 2.390662
5.564000	 2.388704
5.582000	 2.388589
5.600000	 2.390816
5.618000	 2.388086
5.636000	 2.376254
5.654000	 2.371561
5.672000	 2.373094
5.690000	 2.365658
5.708000	 2.348594
5.726000	 2.333121
5.744000	 2.312943
5.762000	 2.289944
5.780000	 2.288708
5.798000	 2.289746
5.816000	 2.269478
5.834000	 2.262515
5.852000	 2.258513
5.870000	 2.235034
5.888000	 2.215811
5.906000	 2.220019
5.923999	 2.213563
5.942000	 2.202259
5.960000	 2.203930
5.978000	 2.194508
5.996000	 2.185400
6.014000	 2.178022
6.032000	 2.156120
6.050000	 2.128040
6.068000	 2.125227
6.086000	 2.128021
6.104000	 2.114958
6.122000	 2.101474
6.140000	 2.091967
6.158000	 2.069353
6.176000	 2.033662
6.194000	 1.989096
6.212000	 1.949523
6.230000	 1.940800
6.248000	 1.959565
6.266000	 1.975325
6.284000	 1.981211
6.302000	 1.978743
6.320000	 1.968463
6.338000	 1.953998
6.356000	 1.946643
6.374000	 1.942324
6.392000	 1.922952
6.410000	 1.896158
6.428000	 1.898713
6.446000	 1.919755
6.464000	 1.923520
6.482000	 1.924192
6.500000	 1.960871
6.518000	 2.021218
6.536000	 2.062970
6.554000	 2.076954
6.572000	 2.075246
6.590000	 2.070347
6.608000	 2.061182
6.626000	 2.037526
6.644000	 1.984052
6.662000	 1.862238
6.680000	 1.702668
6.698000	 1.645305
6.716000	 1.729978
6.734000	 1.848707
6.752000	 1.919531
6.770000	 1.941283
6.788000	 1.942156
6.806000	 1.936198
6.824000	 1.917348
6.842000	 1.874711
6.860000	 1.807964
6.878000	 1.747686
6.896000	 1.738606
6.914000	 1.778512
6.932000	 1.817444
6.950000	 1.831637
6.968000	 1.836631
6.986000	 1.840726
7.004000	 1.841035
7.022000	 1.836159
7.040000	 1.827037
7.058000	 1.816130
7.076000	 1.796999
7.094000	 1.759477
7.112000	 1.716132
7.130000	 1.696818
7.148000	 1.711399
7.166000	 1.741555
7.184000	 1.762541
7.202000	 1.764073
7.220000	 1.759415
7.238000	 1.765230
7.256000	 1.777359
7.274000	 1.784840
7.292000	 1.787494
7.310000	 1.788666
7.328000	 1.789063
7.346000	 1.789201
7.364000	 1.789060
7.382000	 1.787991
7.400000	 1.786663
7.418000	 1.785769
7.436000	 1.785292
7.454000	 1.786387
7.472000	 1.791514
7.490000	 1.800231
7.508000	 1.808946
7.526000	 1.815041
7.544000	 1.818839
7.562000	 1.821617
7.580000	 1.823656
7.598000	 1.824582
7.616000	 1.824335
7.634000	 1.823774
7.652000	 1.823754
7.670000	 1.824502
7.688000	 1.825528
7.706000	 1.826192
7.724000	 1.826546
7.742000	 1.826905
7.760000	 1.826721
7.778000	 1.825426
7.796000	 1.822775
7.814000	 1.817689
7.832000	 1.808105
7.850000	 1.791452
7.868000	 1.766124
7.886000	 1.733640
7.904000	 1.702501
7.922000	 1.686436
7.940000	 1.694019
7.958000	 1.720440
7.976000	 1.751986
7.994000	 1.777163
8.012000	 1.792477
8.030000	 1.800694
8.048000	 1.805369
8.065999	 1.807776
8.084000	 1.807766
8.102000	 1.805333
8.120000	 1.801846
8.138000	 1.798258
8.155999	 1.793763
8.173999	 1.786678
8.192000	 1.776331
8.210000	 1.763502
8.228000	 1.750075
8.246000	 1.737977
8.263999	 1.728634
8.282000	 1.722639
8.300000	 1.719796
8.318000	 1.719268
8.336000	 1.719573
8.353999	 1.719459
8.372000	 1.718026
8.390000	 1.714975
8.408000	 1.710250
8.426000	 1.704313
8.443999	 1.697625
8.462000	 1.690656
8.480000	 1.683643
8.498000	 1.676396
8.516000	 1.668427
8.533999	 1.659090
8.552000	 1.648458
8.570000	 1.637019
8.588000	 1.625527
8.606000	 1.614724
8.624000	 1.605144
8.641999	 1.597299
8.660000	 1.591349
8.678000	 1.586958
8.696000	 1.583292
8.714000	 1.579652
8.731999	 1.575766
8.750000	 1.571527
8.768000	 1.566695
8.786000	 1.560836
8.804000	 1.553269
8.821999	 1.543949
8.840000	 1.533299
8.858000	 1.522213
8.876000	 1.511058
8.894000	 1.499811
8.911999	 1.488163
8.930000	 1.476165
8.948000	 1.464161
8.966000	 1.452559
8.984000	 1.441839
9.001999	 1.432274
9.020000	 1.424053
9.038000	 1.417423
9.056000	 1.412453
9.074000	 1.409069
9.092000	 1.406769
9.109999	 1.405213
9.128000	 1.404231
9.146000	 1.403859
9.164000	 1.404066
9.182000	 1.404709
9.199999	 1.405418
9.218000	 1.405815
9.236000	 1.405522
9.254000	 1.404729
9.272000	 1.404109
9.289999	 1.404651
9.308000	 1.406932
9.326000	 1.410622
9.344000	 1.414586
9.362000	 1.417495
9.379999	 1.418462
9.398000	 1.416803
9.416000	 1.411102
9.434000	 1.398838
9.452000	 1.377649
9.469999	 1.348199
9.488000	 1.316181
9.506000	 1.290920
9.524000	 1.280600
9.542000	 1.287519
9.560000	 1.306798
9.577999	 1.329585
9.596000	 1.348206
9.614000	 1.359321
9.632000	 1.363547
9.650000	 1.363477
9.667999	 1.361192
9.686000	 1.357766
9.704000	 1.353558
9.722000	 1.348968
9.740000	 1.344561
9.757999	 1.341036
9.776000	 1.339023
9.794000	 1.338711
9.812000	 1.339977
9.830000	 1.342517
9.847999	 1.346078
9.866000	 1.350487
9.884000	 1.355532
9.902000	 1.360776
9.920000	 1.365644
9.937999	 1.369850
9.956000	 1.373065
9.974000	 1.375352
9.992000	 1.376774
10.01	1.377463
10.028	1.377419
10.046	1.376705
10.064	1.375341
10.082	1.373518
10.1	1.371237
10.118	1.368559
10.136	1.365512
10.154	1.362188
10.172	1.358714
10.19	1.355235
10.208	1.351812
10.226	1.348414
10.244	1.344940
10.262	1.341213
10.28	1.337217
10.298	1.332900
10.316	1.328254
10.334	1.323132
10.352	1.317681
10.37	1.311921
10.388	1.306016
10.406	1.299990
10.424	1.293832
10.442	1.287535
10.46	1.281159
10.478	1.274825
10.496	1.268785
10.514	1.263351
10.532	1.258541
10.55	1.254477
10.568	1.250819
10.586	1.247566
10.604	1.244546
10.622	1.241733
10.64	1.239023
10.658	1.236360
10.676	1.233634
10.694	1.230724
10.712	1.227611
10.73	1.224303
10.748	1.220940
10.766	1.217566
10.784	1.214243
10.802	1.210893
10.82	1.207460
10.838	1.203885
10.856	1.200019
10.874	1.195882
10.892	1.191307
10.91	1.186262
10.928	1.180738
10.946	1.174950
10.964	1.169115
10.982	1.163496
11	1.158385
11.018	1.153965
11.036	1.150272
11.054	1.147182
11.072	1.144564
11.09	1.142231
11.108	1.140041
11.126	1.137878
11.144	1.135625
11.162	1.133129
11.18	1.130126
11.198	1.126385
11.216	1.121647
11.234	1.115676
11.252	1.108220
11.27	1.099224
11.288	1.088735
11.306	1.076996
11.324	1.064519
11.342	1.051967
11.36	1.040164
11.378	1.029972
11.396	1.022080
11.414	1.017148
11.432	1.015483
11.45	1.017094
11.468	1.021586
11.486	1.028379
11.504	1.036663
11.522	1.045384
11.54	1.053864
11.558	1.061259
11.576	1.067308
11.594	1.071838
11.612	1.074827
11.63	1.076557
11.648	1.077241
11.666	1.077123
11.684	1.076421
11.702	1.075349
11.72	1.074010
11.738	1.072517
11.756	1.070862
11.774	1.069130
11.792	1.067212
11.81	1.065106
11.828	1.062782
11.846	1.060047
11.864	1.056699
11.882	1.052515
11.9	1.047098
11.918	1.039987
11.936	1.030671
11.954	1.018682
11.972	1.003654
11.99	0.985426
12.008	0.964270
12.026	0.940798
12.044	0.916165
12.062	0.892043
12.08	0.870272
12.098	0.852686
12.116	0.840760
12.134	0.835469
12.152	0.836771
12.17	0.843900
12.188	0.855448
12.206	0.869558
12.224	0.884349
12.242	0.898350
12.26	0.910402
12.278	0.920015
12.296	0.927006
12.314	0.931610
12.332	0.934266
12.35	0.935438
12.368	0.935579
12.386	0.935126
12.404	0.934376
12.422	0.933543
12.44	0.932810
12.458	0.932355
12.476	0.932149
12.494	0.932294
12.512	0.932844
12.53	0.933776
12.548	0.935136
12.566	0.936931
12.584	0.939181
12.602	0.941837
12.62	0.944824
12.638	0.948059
12.656	0.951361
12.674	0.954604
12.692	0.957581
12.71	0.960244
12.728	0.962486
12.746	0.964236
12.764	0.965528
12.782	0.966396
12.8	0.966909
12.818	0.967070
12.836	0.967011
12.854	0.966705
12.872	0.966276
12.89	0.965661
12.908	0.964940
12.926	0.964103
12.944	0.963125
12.962	0.962038
12.98	0.960858
12.998	0.959603
13.016	0.958295
13.034	0.956994
13.052	0.955749
13.07	0.954533
13.088	0.953466
13.106	0.952561
13.124	0.951739
13.142	0.950996
13.16	0.950304
13.178	0.949636
13.196	0.948931
13.214	0.948124
13.232	0.947207
13.25	0.946152
13.268	0.944974
13.286	0.943630
13.304	0.942202
13.322	0.940627
13.34	0.938973
13.358	0.937275
13.376	0.935517
13.394	0.933754
13.412	0.931937
13.43	0.930041
13.448	0.928062
13.466	0.926018
13.484	0.923928
13.502	0.921806
13.52	0.919626
13.538	0.917390
13.556	0.915089
13.574	0.912751
13.592	0.910303
13.61	0.907775
13.628	0.905153
13.646	0.902415
13.664	0.899640
13.682	0.896786
13.7	0.893922
13.718	0.891045
13.736	0.888198
13.754	0.885381
13.772	0.882568
13.79	0.879827
13.808	0.877119
13.826	0.874440
13.844	0.871773
13.862	0.869113
13.88	0.866446
13.898	0.863778
13.916	0.861096
13.934	0.858394
13.952	0.855696
13.97	0.852982
13.988	0.850258
14.006	0.847542
14.024	0.844855
14.042	0.842154
14.06	0.839458
14.078	0.836770
14.096	0.834092
14.114	0.831395
14.132	0.828675
14.15	0.825934
14.168	0.823126
14.186	0.820205
14.204	0.817178
14.222	0.813988
14.24	0.810605
14.258	0.806979
14.276	0.803090
14.294	0.798906
14.312	0.794370
14.33	0.789427
14.348	0.784055
14.366	0.778276
14.384	0.772142
14.402	0.765728
14.42	0.759165
14.438	0.752587
14.456	0.746177
14.474	0.740178
14.492	0.734777
14.51	0.730104
14.528	0.726277
14.546	0.723380
14.564	0.721416
14.582	0.720302
14.6	0.719890
14.618	0.720015
14.636	0.720492
14.654	0.721134
14.672	0.721764
14.69	0.722257
14.708	0.722512
14.726	0.722385
14.744	0.721948
14.762	0.721218
14.78	0.720182
14.798	0.718866
14.816	0.717345
14.834	0.715689
14.852	0.713916
14.87	0.712107
14.888	0.710314
14.906	0.708570
14.924	0.706915
14.942	0.705320
14.96	0.703837
14.978	0.702432
14.996	0.701072
15.014	0.699761
15.032	0.698455
15.05	0.697102
15.068	0.695674
15.086	0.694153
15.104	0.692532
15.122	0.690757
15.14	0.688876
15.158	0.686898
15.176	0.684826
15.194	0.682687
15.212	0.680509
15.23	0.678300
15.248	0.676080
15.266	0.673868
15.284	0.671645
15.302	0.669408
15.32	0.667191
15.338	0.665022
15.356	0.662853
15.374	0.660701
15.392	0.658569
15.41	0.656455
15.428	0.654359
15.446	0.652299
15.464	0.650251
15.482	0.648212
15.5	0.646210
15.518	0.644211
15.536	0.642222
15.554	0.640259
15.572	0.638347
15.59	0.636435
15.608	0.634543
15.626	0.632684
15.644	0.630853
15.662	0.629067
15.68	0.627316
15.698	0.625594
15.716	0.623919
15.734	0.622267
15.752	0.620620
15.77	0.618960
15.788	0.617312
15.806	0.615632
15.824	0.613905
15.842	0.612150
15.86	0.610338
15.878	0.608469
15.896	0.606543
15.914	0.604554
15.932	0.602545
15.95	0.600531
15.968	0.598496
15.986	0.596438
16.004	0.594372
16.022	0.592313
16.04	0.590259
16.058	0.588211
16.076	0.586166
16.094	0.584119
16.112	0.582028
16.13	0.579885
16.148	0.577722
16.166	0.575491
16.184	0.573176
16.202	0.570766
16.22	0.568227
16.238	0.565555
16.256	0.562744
16.274	0.559769
16.292	0.556646
16.31	0.553390
16.328	0.550018
16.346	0.546552
16.364	0.543010
16.382	0.539461
16.4	0.535968
16.418	0.532580
16.436	0.529368
16.454	0.526385
16.472	0.523672
16.49	0.521307
16.508	0.519303
16.526	0.517671
16.544	0.516394
16.562	0.515467
16.58	0.514882
16.598	0.514561
16.616	0.514487
16.634	0.514642
16.652	0.514861
16.67	0.515133
16.688	0.515453
16.706	0.515718
16.724	0.515900
16.742	0.515957
16.76	0.515877
16.778	0.515660
16.796	0.515311
16.814	0.514804
16.832	0.514132
16.85	0.513324
16.868	0.512405
16.886	0.511396
16.904	0.510307
16.922	0.509165
16.94	0.508016
16.958	0.506846
16.976	0.505665
16.994	0.504543
17.012	0.503475
17.03	0.502460
17.048	0.501554
17.066	0.500749
17.084	0.500031
17.102	0.499422
17.12	0.498924
17.138	0.498517
17.156	0.498191
17.174	0.497937
17.192	0.497741
17.21	0.497593
17.228	0.497460
17.246	0.497329
17.264	0.497185
17.282	0.497038
17.3	0.496875
17.318	0.496663
17.336	0.496408
17.354	0.496116
17.372	0.495753
17.39	0.495324
17.408	0.494834
17.426	0.494298
17.444	0.493728
17.462	0.493089
17.48	0.492386
17.498	0.491668
17.516	0.490892
17.534	0.490017
17.552	0.489108
17.57	0.488173
17.588	0.487197
17.606	0.486186
17.624	0.485140
17.642	0.484083
17.66	0.483023
17.678	0.481955
17.696	0.480883
17.714	0.479820
17.732	0.478778
17.75	0.477777
17.768	0.476797
17.786	0.475835
17.804	0.474871
17.822	0.473911
17.84	0.472984
17.858	0.472072
17.876	0.471160
17.894	0.470243
17.912	0.469317
17.93	0.468402
17.948	0.467497
17.966	0.466587
17.984	0.465667
18.002	0.464719
18.02	0.463762
18.038	0.462810
18.056	0.461866
18.074	0.460936
18.092	0.459991
18.11	0.459031
18.128	0.458084
18.146	0.457146
18.164	0.456219
18.182	0.455298
18.2	0.454376
18.218	0.453460
18.236	0.452554
18.254	0.451656
18.272	0.450766
18.29	0.449894
18.308	0.449038
18.326	0.448175
18.344	0.447306
18.362	0.446432
18.38	0.445552
18.398	0.444670
18.416	0.443778
18.434	0.442866
18.452	0.441932
18.47	0.440972
18.488	0.439986
18.506	0.438975
18.524	0.437945
18.542	0.436899
18.56	0.435835
18.578	0.434756
18.596	0.433644
18.614	0.432497
18.632	0.431358
18.65	0.430225
18.668	0.429067
18.686	0.427894
18.704	0.426736
18.722	0.425586
18.74	0.424416
18.758	0.423241
18.776	0.422099
18.794	0.420973
18.812	0.419837
18.83	0.418696
18.848	0.417540
18.866	0.416378
18.884	0.415223
18.902	0.414068
18.92	0.412908
18.938	0.411743
18.956	0.410574
18.974	0.409403
18.992	0.408236
19.01	0.407071
19.028	0.405908
19.046	0.404748
19.064	0.403583
19.082	0.402430
19.1	0.401321
19.118	0.400237
19.136	0.399159
19.154	0.398098
19.172	0.397078
19.19	0.396083
19.208	0.395092
19.226	0.394106
19.244	0.393112
19.262	0.392115
19.28	0.391124
19.298	0.390135
19.316	0.389121
19.334	0.388086
19.352	0.387026
19.37	0.385942
19.388	0.384814
19.406	0.383639
19.424	0.382439
19.442	0.381217
19.46	0.379969
19.478	0.378695
19.496	0.377404
19.514	0.376099
19.532	0.374787
19.55	0.373473
19.568	0.372159
19.586	0.370846
19.604	0.369539
19.622	0.368248
19.64	0.366969
19.658	0.365703
19.676	0.364449
19.694	0.363215
19.712	0.362000
19.73	0.360793
19.748	0.359594
19.766	0.358394
19.784	0.357187
19.802	0.355981
19.82	0.354782
19.838	0.353580
19.856	0.352362
19.874	0.351130
19.892	0.349880
19.91	0.348613
19.928	0.347323
19.946	0.346010
19.964	0.344675
19.982	0.343320
20	0.341939
20.018	0.340530
20.036	0.339096
20.054	0.337642
20.072	0.336167
20.09	0.334670
20.108	0.333150
20.126	0.331619
20.144	0.330077
20.162	0.328527
20.18	0.326970
20.198	0.325408
20.216	0.323844
20.234	0.322279
20.252	0.320723
20.27	0.319177
20.288	0.317633
20.306	0.316092
20.324	0.314553
20.342	0.313012
20.36	0.311477
20.378	0.309970
20.396	0.308485
20.414	0.307011
20.432	0.305548
20.45	0.304094
20.468	0.302646
20.486	0.301204
20.504	0.299769
20.522	0.298342
20.54	0.296921
20.558	0.295506
20.576	0.294099
20.594	0.292702
20.612	0.291309
20.63	0.289904
20.648	0.288492
20.666	0.287082
20.684	0.285680
20.702	0.284274
20.72	0.282860
20.738	0.281439
20.756	0.280018
20.774	0.278597
20.792	0.277171
20.81	0.275735
20.828	0.274296
20.846	0.272863
20.864	0.271434
20.882	0.270001
20.9	0.268562
20.918	0.267130
20.936	0.265719
20.954	0.264323
20.972	0.262936
20.99	0.261559
21.008	0.260192
21.026	0.258830
21.044	0.257482
21.062	0.256171
21.08	0.254894
21.098	0.253634
21.116	0.252382
21.134	0.251145
21.152	0.249926
21.17	0.248724
21.188	0.247544
21.206	0.246390
21.224	0.245252
21.242	0.244117
21.26	0.242987
21.278	0.241859
21.296	0.240733
21.314	0.239608
21.332	0.238481
21.35	0.237352
21.368	0.236218
21.386	0.235081
21.404	0.233937
21.422	0.232773
21.44	0.231593
21.458	0.230394
21.476	0.229173
21.494	0.227933
21.512	0.226678
21.53	0.225411
21.548	0.224121
21.566	0.222800
21.584	0.221452
21.602	0.220085
21.62	0.218700
21.638	0.217297
21.656	0.215879
21.674	0.214446
21.692	0.213001
21.71	0.211545
21.728	0.210077
21.746	0.208598
21.764	0.207104
21.782	0.205604
21.8	0.204106
21.818	0.202606
21.836	0.201112
21.854	0.199623
21.872	0.198142
21.89	0.196675
21.908	0.195219
21.926	0.193779
21.944	0.192360
21.962	0.190961
21.98	0.189583
21.998	0.188226
22.016	0.186892
22.034	0.185588
22.052	0.184313
22.07	0.183067
22.088	0.181856
22.106	0.180676
22.124	0.179522
22.142	0.178389
22.16	0.177281
22.178	0.176201
22.196	0.175148
22.214	0.174123
22.232	0.173126
22.25	0.172158
22.268	0.171211
22.286	0.170278
22.304	0.169361
22.322	0.168462
22.34	0.167583
22.358	0.166720
22.376	0.165860
22.394	0.165006
22.412	0.164152
22.43	0.163291
22.448	0.162424
22.466	0.161553
22.484	0.160679
22.502	0.159803
22.52	0.158913
22.538	0.158000
22.556	0.157071
22.574	0.156130
22.592	0.155185
22.61	0.154228
22.628	0.153250
22.646	0.152248
22.664	0.151230
22.682	0.150203
22.7	0.149167
22.718	0.148121
22.736	0.147070
22.754	0.146009
22.772	0.144945
22.79	0.143882
22.808	0.142818
22.826	0.141752
22.844	0.140684
22.862	0.139611
22.88	0.138547
22.898	0.137497
22.916	0.136457
22.934	0.135427
22.952	0.134405
22.97	0.133392
22.988	0.132397
23.006	0.131427
23.024	0.130476
23.042	0.129528
23.06	0.128580
23.078	0.127636
23.096	0.126699
23.114	0.125772
23.132	0.124852
23.15	0.123930
23.168	0.123008
23.186	0.122084
23.204	0.121147
23.222	0.120196
23.24	0.119233
23.258	0.118255
23.276	0.117265
23.294	0.116260
23.312	0.115232
23.33	0.114182
23.348	0.113110
23.366	0.112010
23.384	0.110875
23.402	0.109715
23.42	0.108548
23.438	0.107380
23.456	0.106203
23.474	0.105011
23.492	0.103791
23.51	0.102555
23.528	0.101327
23.546	0.100118
23.564	0.098918
23.582	0.097728
23.6	0.096543
23.618	0.095365
23.636	0.094207
23.654	0.093079
23.672	0.091975
23.69	0.090897
23.708	0.089845
23.726	0.088818
23.744	0.087819
23.762	0.086850
23.78	0.085910
23.798	0.084997
23.816	0.084105
23.834	0.083236
23.852	0.082390
23.87	0.081564
23.888	0.080764
23.906	0.079982
23.924	0.079202
23.942	0.078422
23.96	0.077645
23.978	0.076868
23.996	0.076089
24.014	0.075308
24.032	0.074525
24.05	0.073738
24.068	0.072948
24.086	0.072153
24.104	0.071352
24.122	0.070542
24.14	0.069729
24.158	0.068915
24.176	0.068100
24.194	0.067284
24.212	0.066471
24.23	0.065662
24.248	0.064857
24.266	0.064058
24.284	0.063267
24.302	0.062481
24.32	0.061708
24.338	0.060955
24.356	0.060223
24.374	0.059505
24.392	0.058796
24.41	0.058096
24.428	0.057405
24.446	0.056723
24.464	0.056046
24.482	0.055377
24.5	0.054716
24.518	0.054063
24.536	0.053419
24.554	0.052781
24.572	0.052143
24.59	0.051507
24.608	0.050872
24.626	0.050231
24.644	0.049577
24.662	0.048914
24.68	0.048247
24.698	0.047581
24.716	0.046917
24.734	0.046251
24.752	0.045579
24.77	0.044896
24.788	0.044205
24.806	0.043520
24.824	0.042851
24.842	0.042193
24.86	0.041542
24.878	0.040899
24.896	0.040258
24.914	0.039625
24.932	0.039005
24.95	0.038402
24.968	0.037810
24.986	0.037238
25.004	0.036693
25.022	0.036178
25.04	0.035687
25.058	0.035214
25.076	0.034758
25.094	0.034319
25.112	0.033899
25.13	0.033497
25.148	0.033116
25.166	0.032753
25.184	0.032400
25.202	0.032055
25.22	0.031722
25.238	0.031396
25.256	0.031075
25.274	0.030761
25.292	0.030452
25.31	0.030148
25.328	0.029849
25.346	0.029555
25.364	0.029264
25.382	0.028970
25.4	0.028673
25.418	0.028376
25.436	0.028075
25.454	0.027770
25.472	0.027461
25.49	0.027149
25.508	0.026836
25.526	0.026521
25.544	0.026204
25.562	0.025888
25.58	0.025575
25.598	0.025265
25.616	0.024957
25.634	0.024651
25.652	0.024348
25.67	0.024047
25.688	0.023748
25.706	0.023451
25.724	0.023156
25.742	0.022862
25.76	0.022571
25.778	0.022288
25.796	0.022013
25.814	0.021742
25.832	0.021476
25.85	0.021213
25.868	0.020956
25.886	0.020701
25.904	0.020447
25.922	0.020192
25.94	0.019938
25.958	0.019683
25.976	0.019426
25.994	0.019168
26.012	0.018910
26.03	0.018648
26.048	0.018383
26.066	0.018112
26.084	0.017838
26.102	0.017566
26.12	0.017299
26.138	0.017034
26.156	0.016771
26.174	0.016509
26.192	0.016246
26.21	0.015984
26.228	0.015721
26.246	0.015459
26.264	0.015196
26.282	0.014932
26.3	0.014671
26.318	0.014417
26.336	0.014169
26.354	0.013927
26.372	0.013689
26.39	0.013457
26.408	0.013229
26.426	0.013006
26.444	0.012789
26.462	0.012579
26.48	0.012377
26.498	0.012181
26.516	0.011991
26.534	0.011808
26.552	0.011632
26.57	0.011463
26.588	0.011299
26.606	0.011138
26.624	0.010983
26.642	0.010832
26.66	0.010686
26.678	0.010545
26.696	0.010411
26.714	0.010280
26.732	0.010151
26.75	0.010023
26.768	0.009897
26.786	0.009772
26.804	0.009647
26.822	0.009521
26.84	0.009394
26.858	0.009268
26.876	0.009145
26.894	0.009027
26.912	0.008914
26.93	0.008803
26.948	0.008692
26.966	0.008575
26.984	0.008446
27.002	0.008323
27.02	0.008227
27.028	0.008201