File: Bakgrunnsmateriale/MATLAB/FTIR/ftir_data/LPE453/Mapping_121/LPE453_t11_cm-1.asc
PE IR       SPECTRUM    SPECTRUM    ASCII       PEDS        1.60
  -1
LPD7D5~1.ASC
17/05/16
15:14:09.00
17/05/16
15:14:09.00
tln
$LPE453_t0011$<tbV0>[-13.0,-13.0,8.0,0.0,27,1,0]
370
64

2002,4.07
MIRTGS : RIGHTBACK : INTERNAL 2
MIR : ON : INTERNAL 2
OPTKBR

0.200000
8
8.000000
FILLER
RATIO
SPECTRUM
UNLOCKED 256

DOUBLE
64
COMBINED
1
0
0

1.000000
RATIO

1
0
TRUE
51149
0
LEFT NOT FITTED RIGHT NOT FITTED 0
NONE
NONE
15600
12
4.427000
51148
TRUE
1 0 8 72 0 0 0 0

15798

#HDR
-1
-1
#GR
CM-1
%T
2.38419e-05
0.0
5000
-1.000000
4631
8
38.2356
-10.7531
#DATA
5000	0.407242
4996	0.416588
4992	0.254797
4988	0.081682
4984	-0.002837
4980	-0.026679
4976	-0.019788
4972	0.237512
4968	0.644516
4964	0.887799
4960	1.084184
4956	1.276063
4952	1.108908
4948	0.674200
4944	0.462245
4940	0.364494
4936	0.120401
4932	-0.012898
4928	0.087261
4924	0.167798
4920	0.210070
4916	0.201082
4912	-0.020551
4908	-0.238990
4904	-0.273370
4900	-0.087428
4896	0.217056
4892	0.195336
4888	-0.045061
4884	0.004839
4880	0.242161
4876	0.155282
4872	0.036430
4868	0.317406
4864	0.325489
4860	-0.013732
4856	0.107884
4852	0.473308
4848	0.492382
4844	0.352835
4840	0.257492
4836	0.322747
4832	0.517177
4828	0.526976
4824	0.377154
4820	0.242447
4816	0.246620
4812	0.341224
4808	0.337553
4804	0.225257
4800	0.073623
4796	-0.056195
4792	-0.107288
4788	-0.189352
4784	-0.282835
4780	-0.157928
4776	0.111484
4772	0.255298
4768	0.271534
4764	0.325536
4760	0.352025
4756	0.133633
4752	-0.133824
4748	-0.136470
4744	-0.013041
4740	0.213503
4736	0.327539
4732	0.133991
4728	-0.044655
4724	-0.061750
4720	0.017476
4716	0.107860
4712	0.170755
4708	0.228190
4704	0.114655
4700	0.019001
4696	-0.029826
4692	-0.096678
4688	0.129008
4684	0.400686
4680	0.435686
4676	0.357770
4672	0.280737
4668	0.260043
4664	0.216722
4660	0.210976
4656	0.302791
4652	0.305795
4648	0.307059
4644	0.476813
4640	0.486373
4636	0.390625
4632	0.541043
4628	0.564312
4624	0.360321
4620	0.196504
4616	0.082564
4612	0.376558
4608	0.693154
4604	0.264072
4600	-0.264072
4596	-0.374484
4592	-0.482702
4588	-0.780415
4584	-1.080536
4580	-1.112437
4576	-0.838804
4572	-0.543785
4568	-0.333905
4564	-0.268435
4560	-0.690674
4556	-1.012492
4552	-1.000022
4548	-1.241850
4544	-1.480031
4540	-1.075196
4536	-0.076794
4532	0.172090
4528	-2.121043
4524	-5.117368
4520	5.631327
4516	31.4565
4512	35.7303
4508	14.7602
4504	2.327489
4500	0.153207
4496	-0.519704
4492	-0.169110
4488	-0.568985
4484	-0.950336
4480	-0.518608
4476	-0.251936
4472	-0.529909
4468	-0.736451
4464	-0.746250
4460	-0.548791
4456	-0.156211
4452	0.030207
4448	-0.214695
4444	-0.469040
4440	-0.564813
4436	-0.597715
4432	-0.388145
4428	-0.205087
4424	-0.399136
4420	-0.600647
4416	-0.300359
4412	0.252413
4408	0.494146
4404	0.481963
4400	0.464248
4396	0.442290
4392	0.326466
4388	0.278687
4384	0.319814
4380	0.175619
4376	-0.017142
4372	0.039005
4368	0.180697
4364	0.219583
4360	0.278663
4356	0.237631
4352	0.068759
4348	0.041651
4344	0.118851
4340	0.157570
4336	0.176143
4332	0.114655
4328	0.021314
4324	0.075268
4320	0.145339
4316	0.101113
4312	0.085258
4308	0.227808
4304	0.260710
4300	0.233030
4296	0.197458
4292	0.050115
4288	0.004363
4284	-0.026941
4280	-0.164628
4276	-0.220847
4272	-0.037026
4268	0.104451
4264	-0.014901
4260	-0.101852
4256	-0.016450
4252	0.061345
4248	-0.072860
4244	-0.180816
4240	-0.050830
4236	0.041222
4232	0.116634
4228	0.190854
4224	0.106287
4220	0.097322
4216	0.268507
4212	0.290584
4208	0.104379
4204	0.048661
4200	0.221848
4196	0.352907
4192	0.335144
4188	0.365018
4184	0.415086
4180	0.593638
4176	0.982141
4172	0.989484
4168	0.518298
4164	0.180006
4160	0.174951
4156	0.286221
4152	0.283384
4148	0.188970
4144	0.107169
4140	0.008773
4136	-0.041723
4132	-0.026965
4128	0.016427
4124	0.105094
4120	0.141549
4116	0.080370
4112	-0.031065
4108	-0.212883
4104	-0.328111
4100	-0.240182
4096	-0.144624
4092	-0.168371
4088	-0.095677
4084	-0.020337
4080	-0.047183
4076	-0.016093
4072	-0.092887
4068	-0.230646
4064	-0.204229
4060	-0.102281
4056	-0.066685
4052	-0.033974
4048	0.130033
4044	0.281786
4040	0.302577
4036	0.234961
4032	0.105762
4028	0.004458
4024	0.008702
4020	0.041437
4016	0.017809
4012	-0.041317
4008	-0.018954
4004	0.123620
4000	0.192213
3996	0.175857
3992	0.197148
3988	0.178480
3984	0.139522
3980	0.160503
3976	0.164890
3972	0.171589
3968	0.169658
3964	0.057768
3960	-0.019359
3956	0.040674
3952	0.077199
3948	0.028395
3944	-0.064539
3940	-0.101542
3936	-0.050950
3932	-0.052309
3928	-0.043749
3924	0.057578
3920	0.150918
3916	0.126791
3912	0.036001
3908	-0.029897
3904	-0.063419
3900	-0.111579
3896	-0.097751
3892	-0.014758
3888	-0.006580
3884	-0.097870
3880	-0.152015
3876	-0.005769
3872	0.150823
3868	0.086140
3864	-0.044345
3860	-0.049591
3856	-0.025653
3852	-0.103116
3848	-0.128817
3844	0.029206
3840	0.181365
3836	0.201964
3832	0.231432
3828	0.379896
3824	0.527572
3820	0.370049
3816	0.003838
3812	-0.120019
3808	-0.072908
3804	-0.132656
3800	-0.151515
3796	-0.026917
3792	0.115132
3788	0.211954
3784	0.273323
3780	0.230884
3776	0.034999
3772	-0.083231
3768	-0.050115
3764	-0.057435
3760	-0.044393
3756	-0.014543
3752	-0.065970
3748	-0.029683
3744	0.088763
3740	0.116634
3736	0.126099
3732	0.173950
3728	0.239896
3724	0.217056
3720	0.056624
3716	-0.016999
3712	0.064587
3708	0.116038
3704	0.078082
3700	0.042247
3696	0.042533
3692	0.039172
3688	0.020933
3684	0.043702
3680	0.039148
3676	-0.007629
3672	-0.034451
3668	-0.039148
3664	-0.038099
3660	-0.045442
3656	-0.000905
3652	0.069975
3648	0.111699
3644	0.081205
3640	-0.084614
3636	-0.189733
3632	-0.080323
3628	0.061821
3624	0.122618
3620	0.134348
3616	0.104832
3612	0.068187
3608	0.075769
3604	0.118517
3600	0.150632
3596	0.128984
3592	0.070524
3588	0.064897
3584	0.139212
3580	0.194191
3576	0.178575
3572	0.167202
3568	0.176596
3564	0.218939
3560	0.316429
3556	0.343680
3552	0.267100
3548	0.192594
3544	0.149440
3540	0.093007
3536	0.049734
3532	0.069570
3528	0.072693
3524	0.006794
3520	-0.023388
3516	0.055742
3512	0.115871
3508	0.091147
3504	0.084519
3500	0.062870
3496	0.021815
3492	0.071930
3488	0.141954
3484	0.151777
3480	0.074481
3476	-0.092291
3472	-0.127005
3468	0.020289
3464	0.090312
3460	0.040388
3456	0.024414
3452	0.092434
3448	0.167655
3444	0.102305
3440	0.034213
3436	0.176095
3432	0.268411
3428	0.145769
3424	0.038790
3420	-0.005197
3416	-0.023841
3412	0.040245
3408	0.102639
3404	0.068259
3400	0.072646
3396	0.133275
3392	0.138139
3388	0.120449
3384	0.106978
3380	0.089144
3376	0.056290
3372	0.041675
3368	0.061702
3364	0.039029
3360	0.005269
3356	-0.049686
3352	-0.131678
3348	-0.108194
3344	-0.005602
3340	0.048112
3336	0.082111
3332	0.135803
3328	0.137186
3324	0.064253
3320	0.010180
3316	-0.007677
3312	-0.009250
3308	0.061964
3304	0.161433
3300	0.160264
3296	0.048685
3292	-0.075602
3288	-0.083899
3284	-0.008058
3280	0.013732
3276	0.069451
3272	0.216841
3268	0.267601
3264	0.147175
3260	-0.021362
3256	-0.057816
3252	0.035166
3248	0.093865
3244	0.058627
3240	-0.038838
3236	-0.067615
3232	0.018215
3228	0.113058
3224	0.158095
3220	0.173449
3216	0.208306
3212	0.225925
3208	0.158548
3204	0.044631
3200	-0.053334
3196	-0.110340
3192	-0.119686
3188	-0.065422
3184	0.044131
3180	0.135731
3176	0.156402
3172	0.109815
3168	0.058317
3164	0.059747
3160	0.062203
3156	0.058007
3152	0.099349
3148	0.112438
3144	0.082778
3140	0.139951
3136	0.285100
3132	0.332999
3128	0.283479
3124	0.189900
3120	0.043058
3116	0.012111
3112	0.111722
3108	0.194573
3104	0.233817
3100	0.239419
3096	0.209689
3092	0.119256
3088	0.011205
3084	-0.011730
3080	0.012993
3076	0.045800
3072	0.094103
3068	0.103878
3064	0.074458
3060	0.032711
3056	0.010943
3052	0.037884
3048	0.052237
3044	0.063467
3040	0.102543
3036	0.094938
3032	0.070905
3028	0.098276
3024	0.173735
3020	0.246834
3016	0.246024
3012	0.196814
3008	0.116419
3004	0.045061
3000	0.026416
2996	0.000810
2992	0.018048
2988	0.100970
2984	0.105357
2980	0.029683
2976	-0.033354
2972	-0.070476
2968	-0.071096
2964	-0.046181
2960	-0.011277
2956	0.005221
2952	-0.021576
2948	-0.043487
2944	-0.005507
2940	0.061798
2936	0.036501
2932	-0.025010
2928	0.013041
2924	0.071692
2920	0.058913
2916	0.064849
2912	0.117802
2908	0.114250
2904	0.081229
2900	0.052452
2896	0.031590
2892	0.018358
2888	-0.011444
2884	0.004076
2880	0.013446
2876	-0.050306
2872	-0.083065
2868	-0.042819
2864	0.031042
2860	0.076079
2856	0.039196
2852	-0.043940
2848	-0.090074
2844	-0.051188
2840	-0.024938
2836	-0.051116
2832	-0.020003
2828	0.030326
2824	-0.016403
2820	-0.075030
2816	-0.053334
2812	-0.018095
2808	0.003933
2804	0.015211
2800	-0.017476
2796	-0.028395
2792	0.064682
2788	0.142502
2784	0.087404
2780	-0.008177
2776	-0.059890
2772	-0.039458
2768	0.026011
2764	0.035023
2760	0.034642
2756	0.053882
2752	-0.002217
2748	-0.062084
2744	-0.047874
2740	-0.039911
2736	-0.041961
2732	-0.022673
2728	0.004029
2724	0.023245
2720	0.066375
2716	0.121164
2712	0.074148
2708	-0.014710
2704	-0.003862
2700	0.038385
2696	0.069189
2692	0.121212
2688	0.137305
2684	0.097346
2680	0.070381
2676	0.098490
2672	0.091528
2668	0.000572
2664	-0.113105
2660	-0.162529
2656	-0.118184
2652	-0.038337
2648	0.027704
2644	0.045275
2640	0.049781
2636	0.058269
2632	0.032496
2628	0.030422
2624	0.056934
2620	0.067424
2616	0.066041
2612	0.061750
2608	0.092816
2604	0.132894
2600	0.099682
2596	0.017929
2592	-0.021719
2588	0.014233
2584	0.051617
2580	0.033307
2576	0.037121
2572	0.098943
2568	0.121760
2564	0.111508
2560	0.101470
2556	0.067639
2552	0.077629
2548	0.123095
2544	0.110268
2540	0.056433
2536	0.013494
2532	0.030350
2528	0.104999
2524	0.147604
2520	0.112843
2516	0.031781
2512	-0.077748
2508	-0.186061
2504	-0.169730
2500	-0.025868
2496	0.077104
2492	0.127243
2488	0.163793
2484	0.144076
2480	0.121927
2476	0.120902
2472	0.086379
2468	0.037145
2464	-0.028848
2460	-0.096559
2456	-0.082445
2452	-0.023007
2448	-0.011992
2444	0.052309
2440	0.206446
2436	0.233840
2432	0.130629
2428	0.107812
2424	0.188469
2420	0.228047
2416	0.283217
2412	0.461220
2408	0.530028
2404	0.379276
2400	0.210809
2396	0.131940
2392	0.071024
2388	0.009679
2384	-0.036597
2380	-0.123095
2376	-0.195765
2372	-0.195693
2368	-0.126504
2364	-0.053238
2360	-0.054192
2356	-0.029206
2352	0.084495
2348	0.148653
2344	0.128006
2340	0.124454
2336	0.119566
2332	0.042676
2328	-0.021886
2324	0.005674
2320	0.111532
2316	0.204825
2312	0.229191
2308	0.214147
2304	0.210618
2300	0.233268
2296	0.251507
2292	0.275754
2288	0.296163
2284	0.298523
2280	0.344085
2276	0.412750
2272	0.441217
2268	0.467610
2264	0.548005
2260	0.687456
2256	0.770902
2252	0.747728
2248	0.756573
2244	0.813436
2240	0.883841
2236	0.999569
2232	1.123857
2228	1.276564
2224	1.454567
2220	1.529932
2216	1.549553
2212	1.633310
2208	1.768541
2204	1.911187
2200	2.047634
2196	2.211833
2192	2.393078
2188	2.559137
2184	2.723526
2180	2.918648
2176	3.102087
2172	3.195762
2168	3.279209
2164	3.504514
2160	3.856658
2156	4.145622
2152	4.272651
2148	4.392266
2144	4.591417
2140	4.829359
2136	5.122590
2132	5.417871
2128	5.687141
2124	5.950355
2120	6.221961
2116	6.512212
2112	6.774854
2108	7.035088
2104	7.355546
2100	7.717919
2096	8.032250
2092	8.307528
2088	8.637595
2084	8.988666
2080	9.279274
2076	9.440159
2072	9.574747
2068	9.846067
2064	10.0689
2060	10.2351
2056	10.548
2052	10.9209
2048	11.286
2044	11.5899
2040	11.7561
2036	11.8657
2032	12.0354
2028	12.3155
2024	12.6276
2020	12.8611
2016	13.0889
2012	13.3799
2008	13.641
2004	13.8354
2000	13.9935
1996	14.1531
1992	14.3611
1988	14.5851
1984	14.7564
1980	14.8659
1976	14.9456
1972	15.095
1968	15.3522
1964	15.6081
1960	15.8017
1956	15.9235
1952	16.0232
1948	16.1631
1944	16.2874
1940	16.3424
1936	16.3658
1932	16.4345
1928	16.5893
1924	16.7759
1920	16.9155
1916	17.0279
1912	17.1649
1908	17.3198
1904	17.4292
1900	17.4541
1896	17.4914
1892	17.602
1888	17.7038
1884	17.8019
1880	17.8866
1876	17.8925
1872	17.9195
1868	18.0012
1864	18.0914
1860	18.1999
1856	18.2834
1852	18.3596
1848	18.4589
1844	18.5174
1840	18.5224
1836	18.5602
1832	18.679
1828	18.7845
1824	18.7873
1820	18.7899
1816	18.894
1812	19.0231
1808	19.0746
1804	19.0988
1800	19.1996
1796	19.313
1792	19.3018
1788	19.2699
1784	19.3663
1780	19.4497
1776	19.4871
1772	19.5435
1768	19.5132
1764	19.4493
1760	19.4685
1756	19.5821
1752	19.7881
1748	19.9586
1744	20.0081
1740	20.019
1736	20.0318
1732	20.0208
1728	19.9658
1724	19.9108
1720	19.9457
1716	20.0227
1712	20.0312
1708	20.0338
1704	20.1559
1700	20.3199
1696	20.3314
1692	20.2378
1688	20.2022
1684	20.2126
1680	20.2357
1676	20.2802
1672	20.2833
1668	20.2314
1664	20.2001
1660	20.2315
1656	20.3281
1652	20.4317
1648	20.4681
1644	20.4268
1640	20.3798
1636	20.4122
1632	20.4542
1628	20.4619
1624	20.4782
1620	20.4466
1616	20.365
1612	20.3593
1608	20.4674
1604	20.6001
1600	20.6701
1596	20.702
1592	20.735
1588	20.709
1584	20.6643
1580	20.664
1576	20.6802
1572	20.7489
1568	20.8302
1564	20.8806
1560	20.9252
1556	20.9183
1552	20.879
1548	20.8705
1544	20.95
1540	21.0678
1536	21.0769
1532	21.0521
1528	21.1268
1524	21.2455
1520	21.2846
1516	21.229
1512	21.2352
1508	21.295
1504	21.2279
1500	21.0926
1496	21.0698
1492	21.1576
1488	21.2086
1484	21.2391
1480	21.2957
1476	21.3251
1472	21.3109
1468	21.2583
1464	21.1791
1460	21.1107
1456	21.0492
1452	20.9932
1448	20.9819
1444	21.0401
1440	21.1557
1436	21.2389
1432	21.2449
1428	21.2492
1424	21.2699
1420	21.2614
1416	21.2581
1412	21.3209
1408	21.3674
1404	21.3333
1400	21.3186
1396	21.3059
1392	21.2258
1388	21.1542
1384	21.129
1380	21.1012
1376	21.0483
1372	20.9926
1368	21.0292
1364	21.1654
1360	21.2431
1356	21.2473
1352	21.251
1348	21.2496
1344	21.2983
1340	21.4088
1336	21.5047
1332	21.5874
1328	21.6736
1324	21.7654
1320	21.876
1316	21.9473
1312	21.9595
1308	22.0248
1304	22.1584
1300	22.2148
1296	22.2097
1292	22.2195
1288	22.1673
1284	22.1127
1280	22.158
1276	22.2138
1272	22.2345
1268	22.3256
1264	22.5004
1260	22.599
1256	22.6257
1252	22.722
1248	22.8074
1244	22.7575
1240	22.6032
1236	22.4267
1232	22.3282
1228	22.3771
1224	22.5385
1220	22.6349
1216	22.5748
1212	22.5262
1208	22.5879
1204	22.6733
1200	22.7154
1196	22.7074
1192	22.653
1188	22.5977
1184	22.6307
1180	22.6729
1176	22.5855
1172	22.5076
1168	22.6064
1164	22.7378
1160	22.7142
1156	22.6312
1152	22.6665
1148	22.7886
1144	22.8936
1140	22.9818
1136	22.9824
1132	22.8519
1128	22.7828
1124	22.8353
1120	22.8576
1116	22.8023
1112	22.6447
1108	22.458
1104	22.4115
1100	22.4319
1096	22.4631
1092	22.5737
1088	22.7061
1084	22.7535
1080	22.7271
1076	22.6852
1072	22.6069
1068	22.545
1064	22.5618
1060	22.6202
1056	22.6782
1052	22.7099
1048	22.6897
1044	22.6166
1040	22.629
1036	22.8135
1032	22.9244
1028	22.8383
1024	22.802
1020	22.8978
1016	22.9115
1012	22.7983
1008	22.7381
1004	22.7193
1000	22.7402
996	 22.8105
992	 22.8723
988	 22.9663
984	 23.0133
980	 23.0503
976	 23.1052
972	 22.9867
968	 22.7374
964	 22.5793
960	 22.5188
956	 22.4503
952	 22.4044
948	 22.4095
944	 22.4555
940	 22.5189
936	 22.5384
932	 22.5177
928	 22.5515
924	 22.6365
920	 22.6557
916	 22.6081
912	 22.5793
908	 22.5585
904	 22.398
900	 22.1377
896	 21.9703
892	 21.9581
888	 22.0052
884	 22.0376
880	 22.1747
876	 22.3216
872	 22.2747
868	 22.1944
864	 22.2812
860	 22.4375
856	 22.4793
852	 22.3723
848	 22.2106
844	 22.0487
840	 21.9021
836	 21.9662
832	 22.1364
828	 22.1365
824	 22.0382
820	 21.9364
816	 21.9264
812	 21.9877
808	 21.9836
804	 21.9472
800	 21.8823
796	 21.7818
792	 21.7719
788	 21.8122
784	 21.7164
780	 21.5812
776	 21.5914
772	 21.6816
768	 21.7273
764	 21.8095
760	 22.01
756	 22.1511
752	 22.1997
748	 22.0076
744	 21.4669
740	 21.2814
736	 21.6198
732	 21.7902
728	 21.5341
724	 21.2466
720	 21.2818
716	 21.3467
712	 21.2645
708	 21.2154
704	 21.235
700	 21.1791
696	 20.8783
692	 20.6599
688	 20.7823
684	 20.8669
680	 20.9192
676	 21.0796
672	 21.127
668	 20.9022
664	 20.4774
660	 20.2171
656	 20.2142
652	 20.3252
648	 20.5364
644	 20.5907
640	 20.4984
636	 20.7605
632	 21.1336
628	 21.0566
624	 20.6962
620	 20.4123
616	 20.2872
612	 20.2171
608	 20.1566
604	 20.1529
600	 20.1918
596	 20.2628
592	 20.4113
588	 20.4143
584	 20.1186
580	 19.9093
576	 20.0307
572	 19.9592
568	 19.4833
564	 19.2571
560	 19.3268
556	 19.2811
552	 19.2157
548	 19.3442
544	 19.5803
540	 19.5458
536	 19.3687
532	 19.4847
528	 19.7233
524	 19.608
520	 19.1752
516	 19.072
512	 19.2056
508	 19.0381
504	 18.722
500	 18.574
496	 18.7024
492	 18.7739
488	 18.3471
484	 17.8375
480	 18.0279
476	 18.7539
472	 19.2194
468	 19.103
464	 18.767
460	 18.8859
456	 19.0535
452	 18.5278
448	 17.9586
444	 16.8264
440	 14.4987
436	 12.839
432	 12.4405
428	 12.3488
424	 12.6537
420	 16.0861
416	 24.5781
412	 31.924
408	 32.6154
404	 31.5751
400	 31.4751
396	 20.15
392	 0.319194
388	 -1.795554
384	 11.7454
380	 6.095600
376	 -9.809732
372	 -7.214450
370	 -4.255723