File: Bakgrunnsmateriale/MATLAB/FTIR/ftir_data/LPE453/Mapping_121/LPE453_t04_cm-1.asc
PE IR       SPECTRUM    SPECTRUM    ASCII       PEDS        1.60
  -1
LP675B~1.ASC
17/05/16
14:41:52.00
17/05/16
14:41:52.00
tln
$LPE453_t0004$<tbV0>[5.2,-13.0,8.0,0.0,27,1,0]
370
64

2002,4.07
MIRTGS : RIGHTBACK : INTERNAL 2
MIR : ON : INTERNAL 2
OPTKBR

0.200000
8
8.000000
FILLER
RATIO
SPECTRUM
UNLOCKED 256

DOUBLE
64
COMBINED
1
0
0

1.000000
RATIO

1
0
TRUE
51149
0
LEFT NOT FITTED RIGHT NOT FITTED 0
NONE
NONE
15600
12
4.427000
51148
TRUE
1 0 8 72 0 0 0 0

15798

#HDR
-1
-1
#GR
CM-1
%T
2.38419e-05
0.0
5000
-1.000000
4631
8
33.994
-7.844638
#DATA
5000	0.331711
4996	0.533127
4992	0.337505
4988	-0.001311
4984	-0.107240
4980	-0.080895
4976	0.015521
4972	0.217008
4968	0.456690
4964	0.502204
4960	0.080728
4956	-0.300884
4952	-0.208878
4948	-0.014925
4944	0.126290
4940	0.339889
4936	0.453138
4932	0.310945
4928	0.201582
4924	0.177621
4920	-0.093984
4916	-0.336813
4912	-0.173568
4908	0.035548
4904	0.086045
4900	-0.013637
4896	-0.238156
4892	-0.110268
4888	0.257658
4884	0.355267
4880	0.315594
4876	0.173377
4872	0.094461
4868	0.074529
4864	-0.384283
4860	-0.703525
4856	-0.368928
4852	-0.024890
4848	0.203609
4844	0.514292
4840	0.413250
4836	-0.027871
4832	-0.231766
4828	-0.230455
4824	-0.203466
4820	-0.121903
4816	0.005698
4812	0.039196
4808	-0.053334
4804	-0.123500
4800	-0.042271
4796	0.177860
4792	0.373554
4788	0.352191
4784	0.203633
4780	0.173950
4776	0.242137
4772	0.295567
4768	0.192260
4764	-0.088095
4760	-0.221467
4756	-0.130701
4752	-0.024008
4748	0.132513
4744	0.345849
4740	0.302648
4736	0.096464
4732	-0.007414
4728	-0.178527
4724	-0.373744
4720	-0.331115
4716	-0.238204
4712	-0.017333
4708	0.388526
4704	0.383758
4700	-0.142383
4696	-0.242328
4692	0.278282
4688	0.496435
4684	0.586700
4680	0.663137
4676	0.273132
4672	-0.058531
4668	0.012707
4664	0.495290
4660	1.019930
4656	0.941348
4652	0.392889
4648	-0.250196
4644	-0.584030
4640	-0.314235
4636	0.286531
4632	-0.094056
4628	-1.268219
4624	-0.795865
4620	0.760316
4616	0.653791
4612	-0.390744
4608	-0.696325
4604	-0.025463
4600	1.482748
4596	2.019596
4592	0.847768
4588	-0.271415
4584	-0.495576
4580	-0.206732
4576	0.450134
4572	0.671815
4568	-0.168514
4564	-0.859856
4560	-0.814867
4556	-0.713825
4552	-1.132178
4548	-1.176190
4544	-0.133800
4540	0.183010
4536	-0.698852
4532	-0.924158
4528	0.389885
4524	1.722884
4520	2.262854
4516	1.092934
4512	-1.248955
4508	1.129174
4504	4.200792
4500	3.935885
4496	4.398393
4492	0.860738
4488	-3.085565
4484	-1.269888
4480	0.637364
4476	0.406146
4472	-0.098180
4468	-0.338101
4464	-0.299763
4460	-0.054144
4456	0.188112
4452	0.205707
4448	0.223779
4444	0.434207
4440	0.359058
4436	0.206327
4432	0.323534
4428	0.248026
4424	0.280737
4420	0.463128
4416	0.199031
4412	-0.207710
4408	-0.241613
4404	-0.079965
4400	-0.088095
4396	-0.080108
4392	0.064539
4388	0.162100
4384	0.084042
4380	-0.090861
4376	-0.018525
4372	0.109648
4368	0.048398
4364	0.123381
4360	0.389289
4356	0.371336
4352	0.264453
4348	0.432133
4344	0.454282
4340	0.233769
4336	0.056719
4332	-0.035023
4328	-0.015878
4324	0.138640
4320	0.232219
4316	0.178384
4312	0.209856
4308	0.157141
4304	0.010204
4300	0.122094
4296	0.224900
4292	0.166702
4288	0.235772
4284	0.396776
4280	0.345444
4276	0.102162
4272	0.002169
4268	0.011444
4264	-0.055217
4260	-0.024676
4256	0.047183
4252	-0.111961
4248	-0.331354
4244	-0.348544
4240	-0.239968
4236	-0.120854
4232	-0.127005
4228	-0.154972
4224	0.054240
4220	0.231623
4216	0.095152
4212	-0.068473
4208	-0.063061
4204	-0.008249
4200	-0.029706
4196	-0.063776
4192	0.135731
4188	0.387787
4184	0.488328
4180	0.508809
4176	0.347685
4172	0.108170
4168	-0.000643
4164	0.085711
4160	0.165987
4156	-0.018429
4152	-0.169181
4148	-0.081086
4144	0.074124
4140	0.206708
4136	0.195050
4132	0.083637
4128	-0.006699
4124	-0.090265
4120	-0.054264
4116	0.066971
4112	0.025606
4108	-0.089287
4104	-0.005769
4100	0.160503
4096	0.232768
4092	0.248765
4088	0.240325
4084	0.128316
4080	-0.020480
4076	-0.025534
4072	0.069904
4068	0.163388
4064	0.246572
4060	0.275373
4056	0.237011
4052	0.195169
4048	0.147175
4044	0.079774
4040	0.010251
4036	-0.084233
4032	-0.179004
4028	-0.198721
4024	-0.092101
4020	0.054121
4016	0.129532
4012	0.181937
4008	0.237035
4004	0.211906
4000	0.002336
3996	-0.155830
3992	-0.035667
3988	0.083565
3984	0.105524
3980	0.077462
3976	0.007510
3972	0.018954
3968	0.024485
3964	-0.020623
3960	0.028467
3956	0.124692
3952	0.165510
3948	0.138878
3944	0.102949
3940	0.103664
3936	0.104093
3932	0.112128
3928	0.098252
3924	0.084018
3920	0.099134
3916	-0.004410
3912	-0.067257
3908	0.141358
3904	0.278353
3900	0.138235
3896	0.019049
3892	-0.008749
3888	0.012087
3884	0.044441
3880	0.032162
3876	0.111365
3872	0.142812
3868	0.006914
3864	-0.070691
3860	-0.042271
3856	-0.030612
3852	-0.048327
3848	-0.009369
3844	0.049877
3840	0.026988
3836	-0.001668
3832	0.081586
3828	0.145316
3824	0.080132
3820	0.090718
3816	0.240540
3812	0.276756
3808	0.163960
3804	0.062036
3800	0.030064
3796	0.088143
3792	0.215554
3788	0.302982
3784	0.252962
3780	0.131201
3776	0.101804
3772	0.166988
3768	0.161266
3764	0.072240
3760	0.034594
3756	0.036621
3752	0.039935
3748	0.083637
3744	0.131916
3740	0.189971
3736	0.225114
3732	0.180101
3728	0.122547
3724	0.100040
3720	0.121212
3716	0.144577
3712	0.102829
3708	0.037741
3704	0.014781
3700	0.009369
3696	0.033330
3692	0.088667
3688	0.134325
3684	0.138044
3680	0.072193
3676	0.036311
3672	0.123262
3668	0.190591
3664	0.151872
3660	0.124931
3656	0.110793
3652	0.038313
3648	-0.022435
3644	0.007462
3640	0.048780
3636	0.046992
3632	0.053739
3628	-0.001692
3624	-0.093245
3620	-0.032424
3616	0.065779
3612	0.080847
3608	0.132083
3604	0.194716
3600	0.212454
3596	0.143694
3592	-0.013566
3588	-0.094795
3584	-0.050950
3580	0.054717
3576	0.140309
3572	0.134634
3568	0.058078
3564	-0.065350
3560	-0.173926
3556	-0.172710
3552	-0.066828
3548	-0.000715
3544	0.004673
3540	0.061964
3536	0.066447
3532	-0.016164
3528	0.001740
3524	0.062322
3520	0.006937
3516	-0.052142
3512	0.018262
3508	0.088787
3504	0.049424
3500	-0.011706
3496	0.005984
3492	0.063347
3488	0.059914
3484	0.051307
3480	0.092959
3476	0.095415
3472	0.114822
3468	0.156545
3464	0.128388
3460	0.125193
3456	0.189232
3452	0.197505
3448	0.070643
3444	-0.024151
3440	0.002360
3436	-0.020384
3432	-0.056362
3428	0.023245
3424	0.064969
3420	0.014925
3416	0.013399
3412	0.057721
3408	0.043582
3404	-0.004339
3400	-0.010776
3396	0.038838
3392	0.065922
3388	0.064325
3384	0.107192
3380	0.131225
3376	0.101590
3372	0.046205
3368	-0.016450
3364	-0.001597
3360	0.097513
3356	0.131702
3352	0.098967
3348	0.104951
3344	0.104141
3340	0.060939
3336	0.019693
3332	-0.006532
3328	-0.044703
3324	-0.061702
3320	0.001668
3316	0.066876
3312	0.030231
3308	-0.045990
3304	-0.037717
3300	0.041317
3296	0.099682
3292	0.090646
3288	0.042009
3284	0.049996
3280	0.090670
3276	0.098681
3272	0.113987
3268	0.149607
3264	0.142788
3260	0.060415
3256	0.022912
3252	0.057888
3248	0.084376
3244	0.114440
3240	0.114274
3236	0.045180
3232	-0.043177
3228	-0.098490
3224	-0.088620
3220	-0.029659
3216	0.009202
3212	0.073528
3208	0.151181
3204	0.096321
3200	0.026798
3196	0.027561
3192	-0.004053
3188	0.012755
3184	0.074338
3180	0.074291
3176	0.076675
3172	0.120830
3168	0.121378
3164	0.033879
3160	-0.044941
3156	-0.053954
3152	-0.039815
3148	0.010228
3144	0.107502
3140	0.162816
3136	0.104403
3132	0.013256
3128	0.023889
3124	0.056362
3120	0.055503
3116	0.097608
3112	0.082349
3108	0.008296
3104	-0.007009
3100	0.022649
3096	0.051259
3092	0.127696
3088	0.236606
3084	0.233078
3080	0.164628
3076	0.144958
3072	0.139117
3068	0.098896
3064	0.050473
3060	0.013351
3056	-0.013947
3052	-0.001645
3048	0.052404
3044	0.063085
3040	-0.012183
3036	-0.047421
3032	0.003552
3028	0.025987
3024	0.025796
3020	0.065708
3016	0.062203
3012	-0.002050
3008	0.012707
3004	0.117945
3000	0.200057
2996	0.220298
2992	0.185322
2988	0.115251
2984	0.034332
2980	-0.001049
2976	0.022411
2972	0.049185
2968	0.050568
2964	-0.000262
2960	-0.049424
2956	-0.017714
2952	0.025653
2948	0.001192
2944	-0.020766
2940	0.034499
2936	0.097608
2932	0.110697
2928	0.114560
2924	0.121402
2920	0.156974
2916	0.198626
2912	0.166749
2908	0.132226
2904	0.148248
2900	0.174093
2896	0.172638
2892	0.088453
2888	-0.027179
2884	-0.077986
2880	-0.078487
2876	-0.083708
2872	-0.048446
2868	0.020933
2864	0.047421
2860	0.094532
2856	0.105738
2852	-0.014901
2848	-0.097584
2844	-0.049734
2840	-0.003170
2836	-0.004529
2832	0.013422
2828	0.026607
2824	0.003528
2820	-0.003433
2816	-0.007677
2812	-0.061368
2808	-0.065040
2804	0.027871
2800	0.077939
2796	0.040364
2792	0.023436
2788	0.054740
2784	0.018882
2780	-0.034952
2776	0.017714
2772	0.111413
2768	0.126171
2764	0.044798
2760	0.029230
2756	0.096225
2752	0.083684
2748	0.009441
2744	-0.022196
2740	0.038194
2736	0.106978
2732	0.107717
2728	0.076127
2724	0.058221
2720	0.071883
2716	0.040841
2712	-0.021886
2708	-0.056266
2704	-0.083374
2700	-0.066137
2696	-0.014519
2692	-0.000190
2688	-0.002002
2684	0.005125
2680	-0.012755
2676	-0.063419
2672	-0.060081
2668	0.033617
2664	0.084495
2660	0.047826
2656	-0.007820
2652	-0.016665
2648	0.081610
2644	0.176143
2640	0.154209
2636	0.084781
2632	0.002956
2628	-0.019311
2624	0.056362
2620	0.135970
2616	0.169634
2612	0.147342
2608	0.114178
2604	0.122523
2600	0.112080
2596	0.028133
2592	-0.072598
2588	-0.116634
2584	-0.103521
2580	-0.063157
2576	0.009512
2572	0.061488
2568	0.054883
2564	0.025439
2560	0.000929
2556	0.005650
2552	0.024056
2548	0.011205
2544	-0.014066
2540	0.029754
2536	0.082135
2532	0.036096
2528	0.015640
2524	0.068879
2520	0.047278
2516	0.024604
2512	0.051283
2508	-0.028419
2504	-0.086808
2500	0.022149
2496	0.144004
2492	0.220465
2488	0.208473
2484	0.092864
2480	0.020551
2476	0.002050
2472	-0.005602
2468	-0.028896
2464	-0.075721
2460	-0.091099
2456	-0.126409
2452	-0.137710
2448	-0.051951
2444	0.039339
2440	0.049781
2436	-0.001907
2432	-0.113034
2428	-0.206255
2424	-0.131773
2420	0.084376
2416	0.212311
2412	0.123214
2408	0.038790
2404	0.015330
2400	-0.051498
2396	-0.034093
2392	-0.040030
2388	-0.071930
2384	0.002384
2380	0.018072
2376	0.012302
2372	0.047636
2368	0.021910
2364	-0.015449
2360	-0.024509
2356	-0.013279
2352	0.054335
2348	0.135087
2344	0.173830
2340	0.194692
2336	0.217270
2332	0.225973
2328	0.178241
2324	0.098872
2320	0.075650
2316	0.121021
2312	0.176906
2308	0.203776
2304	0.197291
2300	0.168085
2296	0.191450
2292	0.301361
2288	0.420665
2284	0.481343
2280	0.470757
2276	0.454092
2272	0.503754
2268	0.593376
2264	0.662493
2260	0.725960
2256	0.837469
2252	0.950622
2248	1.041245
2244	1.189899
2240	1.364827
2236	1.503229
2232	1.652240
2228	1.819586
2224	1.967430
2220	2.101612
2216	2.270865
2212	2.502822
2208	2.751898
2204	2.994823
2200	3.243541
2196	3.480052
2192	3.688383
2188	3.920984
2184	4.233813
2180	4.566049
2176	4.846501
2172	5.102896
2168	5.401682
2164	5.766892
2160	6.229901
2156	6.673073
2152	6.984257
2148	7.377481
2144	7.839655
2140	8.214592
2136	8.653593
2132	9.181213
2128	9.652900
2124	10.0826
2120	10.5373
2116	11.0177
2112	11.5054
2108	11.986
2104	12.4899
2100	12.9949
2096	13.4512
2092	13.9411
2088	14.4608
2084	14.8622
2080	15.2075
2076	15.6931
2072	16.2542
2068	16.8097
2064	17.431
2060	17.9702
2056	18.4139
2052	18.9038
2048	19.3184
2044	19.7038
2040	20.1683
2036	20.5817
2032	20.9252
2028	21.3356
2024	21.8073
2020	22.2499
2016	22.6866
2012	23.1104
2008	23.454
2004	23.764
2000	24.1539
1996	24.5559
1992	24.8674
1988	25.1819
1984	25.5346
1980	25.8346
1976	26.0567
1972	26.3059
1968	26.6223
1964	26.9357
1960	27.2457
1956	27.5463
1952	27.819
1948	28.0666
1944	28.2762
1940	28.4911
1936	28.7339
1932	28.9318
1928	29.0699
1924	29.2229
1920	29.4483
1916	29.69
1912	29.8496
1908	29.9882
1904	30.1983
1900	30.3999
1896	30.5208
1892	30.6319
1888	30.7914
1884	31.0001
1880	31.1761
1876	31.2548
1872	31.3145
1868	31.4103
1864	31.5461
1860	31.7068
1856	31.8404
1852	31.9374
1848	32.0578
1844	32.157
1840	32.1391
1836	32.139
1832	32.2698
1828	32.4265
1824	32.494
1820	32.5089
1816	32.5858
1812	32.6706
1808	32.7333
1804	32.8601
1800	32.9846
1796	33.0426
1792	33.0636
1788	33.0734
1784	33.0767
1780	33.0809
1776	33.1661
1772	33.2679
1768	33.2727
1764	33.2598
1760	33.243
1756	33.2225
1752	33.2753
1748	33.3772
1744	33.4612
1740	33.5359
1736	33.5887
1732	33.5312
1728	33.4826
1724	33.5881
1720	33.6916
1716	33.6437
1712	33.5536
1708	33.558
1704	33.6551
1700	33.776
1696	33.7792
1692	33.7376
1688	33.8636
1684	33.9931
1680	33.9305
1676	33.8072
1672	33.7152
1668	33.7042
1664	33.7627
1660	33.7991
1656	33.8679
1652	33.9382
1648	33.9253
1644	33.8386
1640	33.7307
1636	33.675
1632	33.6811
1628	33.7152
1624	33.7284
1620	33.7472
1616	33.7236
1612	33.6285
1608	33.6053
1604	33.6845
1600	33.7648
1596	33.7754
1592	33.7502
1588	33.736
1584	33.7145
1580	33.7122
1576	33.7466
1572	33.7495
1568	33.7161
1564	33.7825
1560	33.9328
1556	33.8716
1552	33.6454
1548	33.57
1544	33.6949
1540	33.8264
1536	33.7938
1532	33.7096
1528	33.6899
1524	33.7249
1520	33.7394
1516	33.6352
1512	33.5887
1508	33.6433
1504	33.5779
1500	33.5059
1496	33.4973
1492	33.426
1488	33.383
1484	33.41
1480	33.4331
1476	33.4081
1472	33.3636
1468	33.3843
1464	33.4706
1460	33.5162
1456	33.462
1452	33.3773
1448	33.2898
1444	33.2031
1440	33.2484
1436	33.3811
1432	33.3934
1428	33.3361
1424	33.3328
1420	33.2987
1416	33.1796
1412	33.0737
1408	33.0452
1404	33.0631
1400	33.0976
1396	33.1074
1392	33.0509
1388	32.9865
1384	32.9931
1380	33.054
1376	33.0758
1372	33.053
1368	32.9932
1364	32.9075
1360	32.8502
1356	32.8004
1352	32.7644
1348	32.8271
1344	32.9289
1340	32.9131
1336	32.8697
1332	32.8781
1328	32.8729
1324	32.8524
1320	32.807
1316	32.7673
1312	32.7676
1308	32.7656
1304	32.7456
1300	32.7023
1296	32.6617
1292	32.6611
1288	32.6753
1284	32.6441
1280	32.5359
1276	32.4617
1272	32.4928
1268	32.5305
1264	32.5193
1260	32.495
1256	32.4833
1252	32.5031
1248	32.5116
1244	32.4532
1240	32.4238
1236	32.4646
1232	32.502
1228	32.5064
1224	32.5022
1220	32.5014
1216	32.4637
1212	32.3754
1208	32.277
1204	32.2182
1200	32.21
1196	32.2052
1192	32.1843
1188	32.2377
1184	32.3255
1180	32.2978
1176	32.2255
1172	32.1896
1168	32.1798
1164	32.1626
1160	32.0864
1156	32.0281
1152	32.0568
1148	32.0934
1144	32.0803
1140	32.0703
1136	32.0015
1132	31.8832
1128	31.9144
1124	32.018
1120	32.0108
1116	31.9992
1112	31.9911
1108	31.9406
1104	31.9337
1100	31.8775
1096	31.8558
1092	31.9168
1088	31.8298
1084	31.6476
1080	31.5746
1076	31.6432
1072	31.6853
1068	31.6092
1064	31.5486
1060	31.5913
1056	31.6194
1052	31.5889
1048	31.573
1044	31.5102
1040	31.4634
1036	31.4305
1032	31.3274
1028	31.2296
1024	31.1437
1020	31.1528
1016	31.2789
1012	31.276
1008	31.1816
1004	31.2442
1000	31.2999
996	 31.215
992	 31.2027
988	 31.2373
984	 31.1302
980	 30.953
976	 30.8638
972	 30.8336
968	 30.7808
964	 30.7427
960	 30.7399
956	 30.728
952	 30.683
948	 30.702
944	 30.7894
940	 30.7494
936	 30.6397
932	 30.6274
928	 30.6058
924	 30.4988
920	 30.3884
916	 30.2601
912	 30.1376
908	 30.1392
904	 30.2117
900	 30.2358
896	 30.1614
892	 30.0562
888	 29.9955
884	 29.9854
880	 29.9886
876	 29.9474
872	 29.862
868	 29.7446
864	 29.6701
860	 29.6518
856	 29.6075
852	 29.4757
848	 29.372
844	 29.4987
840	 29.5525
836	 29.3638
832	 29.3548
828	 29.4491
824	 29.3186
820	 29.138
816	 29.137
812	 29.1461
808	 28.9331
804	 28.7255
800	 28.6403
796	 28.4896
792	 28.431
788	 28.5893
784	 28.7021
780	 28.6675
776	 28.6525
772	 28.6625
768	 28.4993
764	 28.2168
760	 28.1842
756	 28.2363
752	 28.057
748	 27.8504
744	 27.6524
740	 27.5877
736	 27.6949
732	 27.8352
728	 28.08
724	 28.0122
720	 27.6996
716	 27.6544
712	 27.5841
708	 27.2932
704	 27.0508
700	 27.0966
696	 27.196
692	 27.0485
688	 26.8799
684	 26.9368
680	 27.0866
676	 27.0019
672	 26.8658
668	 26.965
664	 26.8927
660	 26.5434
656	 26.4176
652	 26.468
648	 26.3585
644	 26.2219
640	 26.0648
636	 25.8217
632	 25.7733
628	 25.9912
624	 26.206
620	 26.2086
616	 25.9887
612	 25.547
608	 25.0718
604	 24.9649
600	 24.9719
596	 24.8165
592	 24.656
588	 24.4576
584	 24.4893
580	 24.7573
576	 24.5882
572	 24.1648
568	 24.1314
564	 24.2743
560	 24.333
556	 24.262
552	 23.9188
548	 23.4851
544	 23.2639
540	 23.388
536	 23.5313
532	 23.2163
528	 23.017
524	 23.4892
520	 23.9562
516	 23.8243
512	 23.4798
508	 23.1652
504	 22.7394
500	 22.4571
496	 22.4975
492	 22.4582
488	 22.0804
484	 21.9545
480	 22.1284
476	 21.9508
472	 21.7563
468	 21.911
464	 21.7083
460	 21.2956
456	 21.8147
452	 22.7597
448	 22.995
444	 22.4617
440	 21.4863
436	 20.7722
432	 19.5609
428	 17.9317
424	 18.0889
420	 19.6256
416	 19.0632
412	 17.3197
408	 19.9276
404	 22.8065
400	 21.5145
396	 22.7533
392	 22.6861
388	 9.579610
384	 2.260375
380	 15.0921
376	 12.1375
372	 -4.593253
370	 -7.844638