File: Bakgrunnsmateriale/MATLAB/FTIR/ftir_data/LPE453/Mapping_121/LPE453_t102.asc
PE IR       SPECTRUM    SPECTRUM    ASCII       PEDS        1.60
  -1
LP9B76~1.ASC
17/05/16
22:44:10.00
17/05/16
22:44:36.00
tln
$LPE453_t0102$<tbV0>[7.8,10.4,8.0,0.0,27,1,0]
27.028
64

2002,4.07
MIRTGS : RIGHTBACK : INTERNAL 2
MIR : ON : INTERNAL 2
OPTKBR

0.200000
8
8.000000
FILLER
RATIO
SPECTRUM
UNLOCKED 256

DOUBLE
64
COMBINED
1
0
0

0.002000
RATIO

1
0
TRUE
51149
0
LEFT NOT FITTED RIGHT NOT FITTED 0
NONE
NONE
15600
12
4.427000
51148
TRUE
1 0 8 72 0 0 0 0

15798

#HDR
-1
-1
#GR
µM
%T
2.38419e-05
0.0
2.000000
0.002000
12515
8
35.2121
-11.6192
#DATA
2.000000	 0.204348
2.018000	 0.226757
2.036000	 0.147465
2.054000	 0.436198
2.072000	 0.055407
2.090000	 0.366985
2.108000	 -0.287641
2.126000	 -0.086968
2.144000	 1.833972
2.162000	 0.482384
2.180000	 -0.016454
2.198000	 -0.031376
2.216000	 -0.213077
2.234000	 0.317790
2.252000	 -0.451781
2.270000	 0.430634
2.288000	 0.344213
2.306000	 0.886747
2.324000	 0.197297
2.342000	 0.117285
2.360000	 -0.071035
2.378000	 0.100755
2.396000	 0.387488
2.414000	 0.021586
2.432000	 -0.108443
2.450000	 -0.033724
2.468000	 0.186126
2.486000	 0.010873
2.504000	 0.105380
2.522000	 0.297978
2.540000	 0.115837
2.558000	 0.171425
2.576000	 0.264710
2.594000	 -0.117494
2.612000	 -0.030530
2.630000	 0.169640
2.648000	 -0.019227
2.666000	 0.107988
2.684000	 0.099098
2.702000	 0.011409
2.720000	 0.042665
2.738000	 -0.006481
2.756000	 0.169000
2.774000	 -0.013921
2.792000	 -0.001205
2.810000	 0.186627
2.828000	 -0.036882
2.846000	 0.191357
2.864000	 0.145927
2.882000	 0.028055
2.900000	 0.151776
2.918000	 0.036244
2.936000	 -0.003501
2.954000	 0.037591
2.972000	 0.127655
2.990000	 0.215842
3.008000	 0.133829
3.026000	 -0.140190
3.044000	 0.170130
3.062000	 0.039627
3.080000	 0.034754
3.098000	 0.072642
3.116000	 0.016526
3.134000	 0.023477
3.152000	 0.039137
3.170000	 -0.009466
3.188000	 0.004147
3.206000	 0.062447
3.224000	 0.083271
3.242000	 0.049221
3.260000	 -0.041101
3.278000	 -0.041151
3.296000	 0.057945
3.314000	 0.020665
3.332000	 -0.060417
3.350000	 0.113841
3.368000	 -0.067320
3.386000	 0.096453
3.404000	 -0.000509
3.422000	 -0.043635
3.440000	 0.062869
3.458000	 0.100687
3.476000	 0.042061
3.494000	 0.005442
3.512000	 0.190894
3.530000	 0.147657
3.548000	 0.037232
3.566000	 0.064228
3.584000	 0.079834
3.602000	 0.004423
3.620000	 -0.030596
3.638000	 0.003947
3.656000	 -0.028422
3.674000	 0.021772
3.692000	 -0.004588
3.710000	 0.133184
3.728000	 -0.028729
3.746000	 0.052257
3.764000	 0.100773
3.782000	 0.017467
3.800000	 0.029614
3.818000	 0.033157
3.836000	 -0.040399
3.854000	 0.053410
3.872000	 0.037620
3.890000	 0.030974
3.908000	 -0.002991
3.926000	 -0.012369
3.944000	 0.034544
3.962000	 -0.008571
3.980000	 0.009083
3.998000	 -0.161883
4.016000	 -0.062810
4.034000	 0.014068
4.052000	 0.023235
4.070000	 0.087273
4.088000	 0.036235
4.106000	 0.059015
4.124000	 0.138885
4.141999	 0.080938
4.160000	 0.047887
4.178000	 0.040476
4.196000	 0.117692
4.214000	 0.268651
4.232000	 0.329579
4.250000	 0.331974
4.268000	 0.412272
4.286000	 0.415441
4.304000	 0.475919
4.322000	 0.568029
4.340000	 0.645735
4.358000	 0.783047
4.375999	 1.143925
4.394000	 1.399302
4.412000	 1.547457
4.430000	 1.789461
4.448000	 2.206446
4.466000	 2.688452
4.484000	 3.095972
4.502000	 3.529424
4.520000	 4.028741
4.538000	 4.650092
4.556000	 5.326499
4.574000	 6.107861
4.592000	 6.915274
4.609999	 7.762160
4.628000	 8.523770
4.646000	 9.342299
4.664000	 10.4467
4.682000	 11.2717
4.700000	 12.1757
4.718000	 13.1993
4.736000	 14.338
4.754000	 15.1636
4.772000	 16.009
4.790000	 16.8922
4.808000	 17.8912
4.826000	 18.7038
4.843999	 19.5976
4.862000	 20.3767
4.880000	 21.213
4.898000	 21.8726
4.916000	 22.6345
4.934000	 23.1804
4.952000	 23.9216
4.970000	 24.6121
4.988000	 25.1643
5.006000	 25.7069
5.024000	 26.2258
5.042000	 26.6519
5.060000	 27.127
5.077999	 27.6812
5.096000	 28.0598
5.114000	 28.4257
5.132000	 28.7958
5.150000	 29.0817
5.168000	 29.411
5.186000	 29.7769
5.204000	 30.0954
5.222000	 30.3331
5.240000	 30.6246
5.258000	 30.8688
5.276000	 31.1336
5.294000	 31.2514
5.312000	 31.4014
5.330000	 31.6958
5.348000	 31.8376
5.366000	 32.0367
5.384000	 32.2498
5.402000	 32.3766
5.420000	 32.4337
5.438000	 32.6122
5.456000	 32.8158
5.474000	 32.7942
5.492000	 32.8546
5.510000	 32.9917
5.528000	 33.1042
5.546000	 33.1875
5.564000	 33.2051
5.582000	 33.3584
5.600000	 33.3996
5.618000	 33.4268
5.636000	 33.4874
5.654000	 33.6788
5.672000	 33.6977
5.690000	 33.6915
5.708000	 33.7532
5.726000	 33.7274
5.744000	 33.8226
5.762000	 33.8609
5.780000	 33.9728
5.798000	 34.0593
5.816000	 34.0152
5.834000	 34.0908
5.852000	 34.1654
5.870000	 34.1355
5.888000	 34.1123
5.906000	 34.1242
5.923999	 34.1368
5.942000	 34.2372
5.960000	 34.3037
5.978000	 34.3798
5.996000	 34.5158
6.014000	 34.5545
6.032000	 34.5041
6.050000	 34.5037
6.068000	 34.5125
6.086000	 34.5156
6.104000	 34.4701
6.122000	 34.4938
6.140000	 34.584
6.158000	 34.6292
6.176000	 34.599
6.194000	 34.5415
6.212000	 34.5227
6.230000	 34.5652
6.248000	 34.6458
6.266000	 34.6618
6.284000	 34.6463
6.302000	 34.7192
6.320000	 34.7437
6.338000	 34.62
6.356000	 34.4947
6.374000	 34.55
6.392000	 34.652
6.410000	 34.6919
6.428000	 34.7036
6.446000	 34.694
6.464000	 34.7319
6.482000	 34.8067
6.500000	 34.8242
6.518000	 34.7869
6.536000	 34.7994
6.554000	 34.803
6.572000	 34.7278
6.590000	 34.7045
6.608000	 34.7247
6.626000	 34.699
6.644000	 34.704
6.662000	 34.7278
6.680000	 34.6949
6.698000	 34.6753
6.716000	 34.7328
6.734000	 34.8059
6.752000	 34.8441
6.770000	 34.8382
6.788000	 34.8515
6.806000	 34.895
6.824000	 34.8851
6.842000	 34.821
6.860000	 34.7581
6.878000	 34.7593
6.896000	 34.8115
6.914000	 34.8094
6.932000	 34.7607
6.950000	 34.7286
6.968000	 34.7555
6.986000	 34.8549
7.004000	 34.9524
7.022000	 35.0152
7.040000	 35.038
7.058000	 34.9855
7.076000	 34.9273
7.094000	 34.928
7.112000	 34.953
7.130000	 34.9783
7.148000	 34.9989
7.166000	 35.019
7.184000	 35.032
7.202000	 35.0129
7.220000	 34.9884
7.238000	 34.9752
7.256000	 34.9283
7.274000	 34.8537
7.292000	 34.816
7.310000	 34.8206
7.328000	 34.8332
7.346000	 34.8494
7.364000	 34.8683
7.382000	 34.886
7.400000	 34.9054
7.418000	 34.9169
7.436000	 34.9398
7.454000	 35.0007
7.472000	 35.0411
7.490000	 35.0088
7.508000	 34.9703
7.526000	 34.9823
7.544000	 35.0035
7.562000	 34.99
7.580000	 34.9542
7.598000	 34.9253
7.616000	 34.9134
7.634000	 34.9009
7.652000	 34.8772
7.670000	 34.8594
7.688000	 34.8642
7.706000	 34.8807
7.724000	 34.8864
7.742000	 34.8906
7.760000	 34.9209
7.778000	 34.9595
7.796000	 34.9582
7.814000	 34.9316
7.832000	 34.9385
7.850000	 34.982
7.868000	 35.0102
7.886000	 34.9914
7.904000	 34.9435
7.922000	 34.918
7.940000	 34.9505
7.958000	 35.0096
7.976000	 35.0428
7.994000	 35.0448
8.012000	 35.0281
8.030000	 34.9808
8.048000	 34.9076
8.065999	 34.856
8.084000	 34.8639
8.102000	 34.9197
8.120000	 34.9852
8.138000	 35.0292
8.155999	 35.0417
8.173999	 35.0375
8.192000	 35.0406
8.210000	 35.061
8.228000	 35.0904
8.246000	 35.1159
8.263999	 35.1324
8.282000	 35.1484
8.300000	 35.1702
8.318000	 35.1827
8.336000	 35.1667
8.353999	 35.1301
8.372000	 35.0997
8.390000	 35.0907
8.408000	 35.1007
8.426000	 35.1244
8.443999	 35.1505
8.462000	 35.1593
8.480000	 35.1413
8.498000	 35.1111
8.516000	 35.0904
8.533999	 35.0812
8.552000	 35.0617
8.570000	 35.0113
8.588000	 34.9399
8.606000	 34.889
8.624000	 34.896
8.641999	 34.9556
8.660000	 35.0242
8.678000	 35.0613
8.696000	 35.0561
8.714000	 35.0232
8.731999	 34.9871
8.750000	 34.9728
8.768000	 34.9935
8.786000	 35.0385
8.804000	 35.0819
8.821999	 35.1082
8.840000	 35.119
8.858000	 35.1207
8.876000	 35.1134
8.894000	 35.0934
8.911999	 35.0588
8.930000	 35.0138
8.948000	 34.9667
8.966000	 34.9262
8.984000	 34.8972
9.001999	 34.8788
9.020000	 34.8744
9.038000	 34.8944
9.056000	 34.9461
9.074000	 35.0197
9.092000	 35.0904
9.109999	 35.1354
9.128000	 35.1497
9.146000	 35.1441
9.164000	 35.1294
9.182000	 35.1012
9.199999	 35.0465
9.218000	 34.9591
9.236000	 34.8528
9.254000	 34.7571
9.272000	 34.7001
9.289999	 34.6952
9.308000	 34.7387
9.326000	 34.8133
9.344000	 34.8961
9.362000	 34.967
9.379999	 35.0217
9.398000	 35.0711
9.416000	 35.1266
9.434000	 35.1815
9.452000	 35.2114
9.469999	 35.1958
9.488000	 35.1392
9.506000	 35.0704
9.524000	 35.0196
9.542000	 34.9936
9.560000	 34.9745
9.577999	 34.9386
9.596000	 34.8765
9.614000	 34.7983
9.632000	 34.7216
9.650000	 34.6602
9.667999	 34.6184
9.686000	 34.5909
9.704000	 34.5679
9.722000	 34.5415
9.740000	 34.5134
9.757999	 34.4964
9.776000	 34.5094
9.794000	 34.5666
9.812000	 34.6676
9.830000	 34.7927
9.847999	 34.908
9.866000	 34.9804
9.884000	 34.9925
9.902000	 34.953
9.920000	 34.8932
9.937999	 34.8491
9.956000	 34.8412
9.974000	 34.8654
9.992000	 34.9005
10.01	34.9233
10.028	34.9216
10.046	34.8967
10.064	34.8586
10.082	34.8189
10.1	34.7851
10.118	34.7577
10.136	34.7303
10.154	34.6918
10.172	34.6333
10.19	34.557
10.208	34.4772
10.226	34.4146
10.244	34.3844
10.262	34.3864
10.28	34.4067
10.298	34.4277
10.316	34.4382
10.334	34.4418
10.352	34.4519
10.37	34.4808
10.388	34.528
10.406	34.5806
10.424	34.6193
10.442	34.6299
10.46	34.6097
10.478	34.566
10.496	34.5107
10.514	34.455
10.532	34.4089
10.55	34.3819
10.568	34.3822
10.586	34.4129
10.604	34.4668
10.622	34.527
10.64	34.5746
10.658	34.5969
10.676	34.5929
10.694	34.5701
10.712	34.5394
10.73	34.5078
10.748	34.4782
10.766	34.4503
10.784	34.4233
10.802	34.3959
10.82	34.3654
10.838	34.3268
10.856	34.2764
10.874	34.2159
10.892	34.1543
10.91	34.1053
10.928	34.0801
10.946	34.0816
10.964	34.1016
10.982	34.1249
11	34.1367
11.018	34.1289
11.036	34.1025
11.054	34.065
11.072	34.0249
11.09	33.9882
11.108	33.957
11.126	33.9312
11.144	33.9102
11.162	33.8945
11.18	33.8852
11.198	33.8831
11.216	33.8877
11.234	33.8972
11.252	33.9098
11.27	33.9245
11.288	33.941
11.306	33.9598
11.324	33.9809
11.342	34.0042
11.36	34.0287
11.378	34.0543
11.396	34.0807
11.414	34.1075
11.432	34.1335
11.45	34.1562
11.468	34.1727
11.486	34.1809
11.504	34.1805
11.522	34.1738
11.54	34.1644
11.558	34.1563
11.576	34.1523
11.594	34.1536
11.612	34.1589
11.63	34.1649
11.648	34.1662
11.666	34.1563
11.684	34.129
11.702	34.0805
11.72	34.0108
11.738	33.9257
11.756	33.8352
11.774	33.7519
11.792	33.6864
11.81	33.6437
11.828	33.6217
11.846	33.6125
11.864	33.6053
11.882	33.5909
11.9	33.5638
11.918	33.5237
11.936	33.4744
11.954	33.422
11.972	33.3719
11.99	33.3273
12.008	33.2891
12.026	33.2564
12.044	33.2286
12.062	33.2072
12.08	33.196
12.098	33.1998
12.116	33.2232
12.134	33.2675
12.152	33.3298
12.17	33.4027
12.188	33.4765
12.206	33.5418
12.224	33.5919
12.242	33.6252
12.26	33.6448
12.278	33.6566
12.296	33.6669
12.314	33.6792
12.332	33.6928
12.35	33.7033
12.368	33.7037
12.386	33.6881
12.404	33.6541
12.422	33.6051
12.44	33.5491
12.458	33.4963
12.476	33.4563
12.494	33.4346
12.512	33.4306
12.53	33.4382
12.548	33.4484
12.566	33.4519
12.584	33.4422
12.602	33.417
12.62	33.3784
12.638	33.332
12.656	33.2852
12.674	33.2442
12.692	33.213
12.71	33.1927
12.728	33.1819
12.746	33.1768
12.764	33.1729
12.782	33.1659
12.8	33.152
12.818	33.1286
12.836	33.0944
12.854	33.0496
12.872	32.9952
12.89	32.9339
12.908	32.8691
12.926	32.8052
12.944	32.7463
12.962	32.696
12.98	32.6562
12.998	32.6276
13.016	32.6099
13.034	32.6016
13.052	32.6013
13.07	32.608
13.088	32.6215
13.106	32.6424
13.124	32.6704
13.142	32.705
13.16	32.744
13.178	32.7839
13.196	32.8204
13.214	32.8489
13.232	32.8659
13.25	32.8692
13.268	32.8595
13.286	32.8388
13.304	32.8112
13.322	32.7809
13.34	32.7519
13.358	32.7272
13.376	32.7088
13.394	32.6977
13.412	32.6942
13.43	32.6986
13.448	32.711
13.466	32.7315
13.484	32.7593
13.502	32.7928
13.52	32.8286
13.538	32.8621
13.556	32.8877
13.574	32.8998
13.592	32.8944
13.61	32.8694
13.628	32.8261
13.646	32.7687
13.664	32.7039
13.682	32.6392
13.7	32.5814
13.718	32.5357
13.736	32.5041
13.754	32.4855
13.772	32.4758
13.79	32.4697
13.808	32.4615
13.826	32.4465
13.844	32.4222
13.862	32.3881
13.88	32.3461
13.898	32.2992
13.916	32.2511
13.934	32.2045
13.952	32.1614
13.97	32.1225
13.988	32.0874
14.006	32.0548
14.024	32.0233
14.042	31.992
14.06	31.9606
14.078	31.9295
14.096	31.8997
14.114	31.8722
14.132	31.8477
14.15	31.8263
14.168	31.8076
14.186	31.7905
14.204	31.7736
14.222	31.7557
14.24	31.7359
14.258	31.7138
14.276	31.69
14.294	31.6656
14.312	31.642
14.33	31.6205
14.348	31.6029
14.366	31.5899
14.384	31.5828
14.402	31.5818
14.42	31.5875
14.438	31.6002
14.456	31.62
14.474	31.6468
14.492	31.6803
14.51	31.7199
14.528	31.7639
14.546	31.8103
14.564	31.8568
14.582	31.9005
14.6	31.9389
14.618	31.9694
14.636	31.9903
14.654	32.0012
14.672	32.0026
14.69	31.9957
14.708	31.9829
14.726	31.9668
14.744	31.9506
14.762	31.9368
14.78	31.9271
14.798	31.9224
14.816	31.9225
14.834	31.9262
14.852	31.9313
14.87	31.9351
14.888	31.935
14.906	31.9291
14.924	31.9155
14.942	31.8935
14.96	31.8637
14.978	31.8277
14.996	31.7878
15.014	31.7468
15.032	31.708
15.05	31.6742
15.068	31.6469
15.086	31.6268
15.104	31.6135
15.122	31.6054
15.14	31.5995
15.158	31.593
15.176	31.5828
15.194	31.5658
15.212	31.5396
15.23	31.5033
15.248	31.4571
15.266	31.4019
15.284	31.3404
15.302	31.2758
15.32	31.2114
15.338	31.1503
15.356	31.0958
15.374	31.0502
15.392	31.0145
15.41	30.9887
15.428	30.9717
15.446	30.9608
15.464	30.9532
15.482	30.946
15.5	30.936
15.518	30.92
15.536	30.8968
15.554	30.8657
15.572	30.827
15.59	30.7833
15.608	30.7376
15.626	30.6931
15.644	30.654
15.662	30.6245
15.68	30.6068
15.698	30.6026
15.716	30.6124
15.734	30.634
15.752	30.6647
15.77	30.7014
15.788	30.7384
15.806	30.7714
15.824	30.7969
15.842	30.8115
15.86	30.8136
15.878	30.8038
15.896	30.7832
15.914	30.7556
15.932	30.725
15.95	30.6952
15.968	30.6709
15.986	30.6561
16.004	30.653
16.022	30.6632
16.04	30.6869
16.058	30.7223
16.076	30.7677
16.094	30.8199
16.112	30.8754
16.13	30.9317
16.148	30.9855
16.166	31.0345
16.184	31.0774
16.202	31.1133
16.22	31.1422
16.238	31.1642
16.256	31.1797
16.274	31.1897
16.292	31.1946
16.31	31.195
16.328	31.1915
16.346	31.1843
16.364	31.1737
16.382	31.1603
16.4	31.1446
16.418	31.1272
16.436	31.109
16.454	31.091
16.472	31.0738
16.49	31.0584
16.508	31.0452
16.526	31.0342
16.544	31.0251
16.562	31.0168
16.58	31.0084
16.598	30.9982
16.616	30.9847
16.634	30.9667
16.652	30.9425
16.67	30.9115
16.688	30.8729
16.706	30.8267
16.724	30.7732
16.742	30.7128
16.76	30.6465
16.778	30.575
16.796	30.4993
16.814	30.4205
16.832	30.3391
16.85	30.2562
16.868	30.1721
16.886	30.0873
16.904	30.0028
16.922	29.9191
16.94	29.8371
16.958	29.7584
16.976	29.6838
16.994	29.6148
17.012	29.5527
17.03	29.4984
17.048	29.4534
17.066	29.4176
17.084	29.3917
17.102	29.3746
17.12	29.3657
17.138	29.3632
17.156	29.3652
17.174	29.3702
17.192	29.3751
17.21	29.379
17.228	29.3793
17.246	29.3751
17.264	29.3652
17.282	29.3494
17.3	29.3277
17.318	29.3009
17.336	29.2703
17.354	29.2369
17.372	29.2032
17.39	29.1701
17.408	29.1396
17.426	29.1131
17.444	29.0917
17.462	29.0762
17.48	29.0668
17.498	29.0633
17.516	29.0646
17.534	29.07
17.552	29.0774
17.57	29.086
17.588	29.0933
17.606	29.0983
17.624	29.0992
17.642	29.0949
17.66	29.0848
17.678	29.0684
17.696	29.046
17.714	29.0182
17.732	28.9862
17.75	28.9509
17.768	28.9146
17.786	28.8781
17.804	28.844
17.822	28.8128
17.84	28.7865
17.858	28.7652
17.876	28.7498
17.894	28.7398
17.912	28.7353
17.93	28.735
17.948	28.7387
17.966	28.7446
17.984	28.7525
18.002	28.7611
18.02	28.7701
18.038	28.7791
18.056	28.7881
18.074	28.7972
18.092	28.8073
18.11	28.8185
18.128	28.8323
18.146	28.8488
18.164	28.8689
18.182	28.8927
18.2	28.9204
18.218	28.9518
18.236	28.9867
18.254	29.0242
18.272	29.0642
18.29	29.105
18.308	29.1466
18.326	29.1871
18.344	29.2264
18.362	29.2636
18.38	29.2984
18.398	29.33
18.416	29.3585
18.434	29.3839
18.452	29.406
18.47	29.4246
18.488	29.4397
18.506	29.4513
18.524	29.4585
18.542	29.4613
18.56	29.4583
18.578	29.4497
18.596	29.4336
18.614	29.4099
18.632	29.3773
18.65	29.3359
18.668	29.2847
18.686	29.224
18.704	29.1542
18.722	29.0759
18.74	28.9904
18.758	28.8985
18.776	28.8029
18.794	28.7044
18.812	28.606
18.83	28.5088
18.848	28.4158
18.866	28.3278
18.884	28.2473
18.902	28.1747
18.92	28.1115
18.938	28.0575
18.956	28.0133
18.974	27.978
18.992	27.9513
19.01	27.9319
19.028	27.9185
19.046	27.9097
19.064	27.9037
19.082	27.8994
19.1	27.8944
19.118	27.8882
19.136	27.8788
19.154	27.8659
19.172	27.8481
19.19	27.8257
19.208	27.7983
19.226	27.7661
19.244	27.7296
19.262	27.6893
19.28	27.6463
19.298	27.6009
19.316	27.5549
19.334	27.5082
19.352	27.4627
19.37	27.4183
19.388	27.3762
19.406	27.3364
19.424	27.2993
19.442	27.2651
19.46	27.2338
19.478	27.2054
19.496	27.1793
19.514	27.1556
19.532	27.1336
19.55	27.1129
19.568	27.0933
19.586	27.0741
19.604	27.0552
19.622	27.0361
19.64	27.0169
19.658	26.9975
19.676	26.9779
19.694	26.9583
19.712	26.9386
19.73	26.9196
19.748	26.9012
19.766	26.884
19.784	26.8682
19.802	26.8543
19.82	26.8426
19.838	26.8334
19.856	26.827
19.874	26.8235
19.892	26.823
19.91	26.8256
19.928	26.8308
19.946	26.8386
19.964	26.8486
19.982	26.8606
20	26.8741
20.018	26.8889
20.036	26.9045
20.054	26.9203
20.072	26.9363
20.09	26.9516
20.108	26.9663
20.126	26.9799
20.144	26.9924
20.162	27.0038
20.18	27.014
20.198	27.0232
20.216	27.0318
20.234	27.0398
20.252	27.0481
20.27	27.0564
20.288	27.0656
20.306	27.0757
20.324	27.0868
20.342	27.0993
20.36	27.1129
20.378	27.1275
20.396	27.1431
20.414	27.1587
20.432	27.1745
20.45	27.189
20.468	27.202
20.486	27.2127
20.504	27.2196
20.522	27.2232
20.54	27.2216
20.558	27.2151
20.576	27.2032
20.594	27.1854
20.612	27.1621
20.63	27.1334
20.648	27.0994
20.666	27.0615
20.684	27.0195
20.702	26.9751
20.72	26.9293
20.738	26.8824
20.756	26.837
20.774	26.7924
20.792	26.7511
20.81	26.7132
20.828	26.6794
20.846	26.651
20.864	26.6277
20.882	26.6101
20.9	26.5982
20.918	26.5919
20.936	26.591
20.954	26.5954
20.972	26.604
20.99	26.617
21.008	26.6336
21.026	26.6532
21.044	26.6759
21.062	26.7005
21.08	26.7275
21.098	26.756
21.116	26.786
21.134	26.8174
21.152	26.8497
21.17	26.8831
21.188	26.9169
21.206	26.9511
21.224	26.9854
21.242	27.0187
21.26	27.0513
21.278	27.0816
21.296	27.1096
21.314	27.1344
21.332	27.1541
21.35	27.1695
21.368	27.1783
21.386	27.1802
21.404	27.1748
21.422	27.1605
21.44	27.1376
21.458	27.1057
21.476	27.0646
21.494	27.0145
21.512	26.9564
21.53	26.8896
21.548	26.816
21.566	26.7368
21.584	26.6517
21.602	26.5638
21.62	26.4726
21.638	26.3799
21.656	26.2883
21.674	26.197
21.692	26.1084
21.71	26.0234
21.728	25.9417
21.746	25.8652
21.764	25.7935
21.782	25.7267
21.8	25.6653
21.818	25.6091
21.836	25.557
21.854	25.5093
21.872	25.4654
21.89	25.424
21.908	25.3855
21.926	25.349
21.944	25.314
21.962	25.2807
21.98	25.2485
21.998	25.2173
22.016	25.1873
22.034	25.1585
22.052	25.1309
22.07	25.1049
22.088	25.0808
22.106	25.0586
22.124	25.0388
22.142	25.0215
22.16	25.0068
22.178	24.9947
22.196	24.9856
22.214	24.9788
22.232	24.974
22.25	24.9714
22.268	24.9699
22.286	24.9693
22.304	24.9697
22.322	24.9696
22.34	24.9687
22.358	24.9673
22.376	24.9641
22.394	24.9594
22.412	24.953
22.43	24.9449
22.448	24.9347
22.466	24.9234
22.484	24.9114
22.502	24.8983
22.52	24.886
22.538	24.8749
22.556	24.8649
22.574	24.8581
22.592	24.8545
22.61	24.8542
22.628	24.8591
22.646	24.8689
22.664	24.8837
22.682	24.9046
22.7	24.9313
22.718	24.9638
22.736	25.0019
22.754	25.0459
22.772	25.0947
22.79	25.1474
22.808	25.2047
22.826	25.2646
22.844	25.3259
22.862	25.3894
22.88	25.453
22.898	25.5158
22.916	25.5785
22.934	25.6389
22.952	25.6963
22.97	25.7513
22.988	25.8025
23.006	25.8499
23.024	25.8935
23.042	25.9324
23.06	25.9664
23.078	25.9957
23.096	26.0199
23.114	26.0389
23.132	26.0528
23.15	26.0608
23.168	26.0631
23.186	26.0595
23.204	26.0491
23.222	26.032
23.24	26.0081
23.258	25.9763
23.276	25.9367
23.294	25.8893
23.312	25.8336
23.33	25.7692
23.348	25.6965
23.366	25.6158
23.384	25.5266
23.402	25.4296
23.42	25.3263
23.438	25.2161
23.456	25.0997
23.474	24.9802
23.492	24.857
23.51	24.7305
23.528	24.6049
23.546	24.4806
23.564	24.3569
23.582	24.2384
23.6	24.1264
23.618	24.0194
23.636	23.9214
23.654	23.8344
23.672	23.7568
23.69	23.6907
23.708	23.6377
23.726	23.597
23.744	23.5683
23.762	23.5519
23.78	23.5484
23.798	23.5558
23.816	23.5721
23.834	23.5991
23.852	23.6342
23.87	23.6735
23.888	23.7192
23.906	23.769
23.924	23.8174
23.942	23.8651
23.96	23.912
23.978	23.9525
23.996	23.9847
24.014	24.0108
24.032	24.0265
24.05	24.029
24.068	24.0204
24.086	23.9991
24.104	23.9631
24.122	23.9128
24.14	23.8492
24.158	23.7729
24.176	23.6826
24.194	23.5801
24.212	23.4687
24.23	23.3484
24.248	23.2188
24.266	23.0839
24.284	22.9461
24.302	22.8027
24.32	22.6578
24.338	22.515
24.356	22.3712
24.374	22.2295
24.392	22.095
24.41	21.9669
24.428	21.8449
24.446	21.7325
24.464	21.6315
24.482	21.5404
24.5	21.4593
24.518	21.3886
24.536	21.3291
24.554	21.2787
24.572	21.2351
24.59	21.1995
24.608	21.1712
24.626	21.1469
24.644	21.1257
24.662	21.1094
24.68	21.0943
24.698	21.077
24.716	21.06
24.734	21.0412
24.752	21.0171
24.77	20.9873
24.788	20.953
24.806	20.9116
24.824	20.8615
24.842	20.8039
24.86	20.7381
24.878	20.6633
24.896	20.5787
24.914	20.4853
24.932	20.3843
24.95	20.2759
24.968	20.1591
24.986	20.0364
25.004	19.9107
25.022	19.7797
25.04	19.6449
25.058	19.5107
25.076	19.3784
25.094	19.2457
25.112	19.116
25.13	18.9927
25.148	18.8735
25.166	18.7597
25.184	18.6551
25.202	18.5614
25.22	18.4761
25.238	18.4018
25.256	18.341
25.274	18.2922
25.292	18.2559
25.31	18.2346
25.328	18.2298
25.346	18.2396
25.364	18.2656
25.382	18.3093
25.4	18.3702
25.418	18.4482
25.436	18.5448
25.454	18.6616
25.472	18.7973
25.49	18.9523
25.508	19.1277
25.526	19.3238
25.544	19.5401
25.562	19.7761
25.58	20.0315
25.598	20.3081
25.616	20.6038
25.634	20.915
25.652	21.2402
25.67	21.5828
25.688	21.9378
25.706	22.2994
25.724	22.6699
25.742	23.0505
25.76	23.4315
25.778	23.8038
25.796	24.1768
25.814	24.5447
25.832	24.8933
25.85	25.2149
25.868	25.5228
25.886	25.8031
25.904	26.0384
25.922	26.2268
25.94	26.3782
25.958	26.4767
25.976	26.5064
25.994	26.474
26.012	26.3808
26.03	26.2137
26.048	25.9612
26.066	25.6317
26.084	25.2233
26.102	24.7285
26.12	24.1416
26.138	23.4662
26.156	22.7048
26.174	21.8592
26.192	20.9275
26.21	19.9075
26.228	18.8096
26.246	17.6445
26.264	16.4058
26.282	15.0913
26.3	13.7224
26.318	12.3198
26.336	10.8678
26.354	9.369831
26.372	7.854651
26.39	6.348002
26.408	4.824832
26.426	3.296453
26.444	1.795579
26.462	0.348375
26.48	-1.074699
26.498	-2.457454
26.516	-3.768253
26.534	-4.984610
26.552	-6.133629
26.57	-7.200454
26.588	-8.161000
26.606	-8.999472
26.624	-9.734246
26.642	-10.358
26.66	-10.8593
26.678	-11.2298
26.696	-11.4758
26.714	-11.6009
26.732	-11.6078
26.75	-11.4941
26.768	-11.2532
26.786	-10.9015
26.804	-10.4566
26.822	-9.923033
26.84	-9.283018
26.858	-8.559687
26.876	-7.778817
26.894	-6.949447
26.912	-6.047579
26.93	-5.098043
26.948	-4.129088
26.966	-3.110613
26.984	-1.954168
27.002	-0.840433
27.02	0.032219
27.028	0.264859