File: Bakgrunnsmateriale/MATLAB/FTIR/ftir_data/LPE453/Mapping_121/LPE453_t53.asc
PE IR       SPECTRUM    SPECTRUM    ASCII       PEDS        1.60
  -1
LPC7A5~1.ASC
17/05/16
18:43:10.00
17/05/16
18:43:36.00
tln
$LPE453_t0053$<tbV0>[-7.8,-2.6,8.0,0.0,27,1,0]
27.028
64

2002,4.07
MIRTGS : RIGHTBACK : INTERNAL 2
MIR : ON : INTERNAL 2
OPTKBR

0.200000
8
8.000000
FILLER
RATIO
SPECTRUM
UNLOCKED 256

DOUBLE
64
COMBINED
1
0
0

0.002000
RATIO

1
0
TRUE
51149
0
LEFT NOT FITTED RIGHT NOT FITTED 0
NONE
NONE
15600
12
4.427000
51148
TRUE
1 0 8 72 0 0 0 0

15798

#HDR
-1
-1
#GR
µM
%T
2.38419e-05
0.0
2.000000
0.002000
12515
8
37.9348
-10.2714
#DATA
2.000000	 -0.433468
2.018000	 0.393774
2.036000	 0.440570
2.054000	 0.297991
2.072000	 0.268369
2.090000	 0.180890
2.108000	 0.338228
2.126000	 0.558969
2.144000	 1.411028
2.162000	 0.734632
2.180000	 -0.980387
2.198000	 -0.099046
2.216000	 1.229967
2.234000	 1.671964
2.252000	 -0.098679
2.270000	 0.126940
2.288000	 0.327600
2.306000	 0.149909
2.324000	 -0.021790
2.342000	 -0.055927
2.360000	 0.111356
2.378000	 -0.234429
2.396000	 0.248290
2.414000	 0.099354
2.432000	 0.113744
2.450000	 0.116069
2.468000	 -0.088877
2.486000	 0.028847
2.504000	 0.059625
2.522000	 0.055140
2.540000	 0.010916
2.558000	 -0.046529
2.576000	 0.068142
2.594000	 0.122320
2.612000	 -0.033165
2.630000	 -0.062930
2.648000	 0.043373
2.666000	 -0.016766
2.684000	 0.297274
2.702000	 -0.008920
2.720000	 0.165287
2.738000	 0.027978
2.756000	 0.024205
2.774000	 0.120791
2.792000	 -0.000552
2.810000	 -0.044346
2.828000	 0.035899
2.846000	 0.080672
2.864000	 0.016823
2.882000	 0.005957
2.900000	 0.002843
2.918000	 0.045794
2.936000	 0.097234
2.954000	 0.122493
2.972000	 0.015082
2.990000	 -0.039045
3.008000	 0.141823
3.026000	 -0.032566
3.044000	 0.102631
3.062000	 0.053587
3.080000	 0.131074
3.098000	 -0.010275
3.116000	 -0.005344
3.134000	 0.046443
3.152000	 -0.157572
3.170000	 0.096177
3.188000	 0.089849
3.206000	 0.063906
3.224000	 -0.186413
3.242000	 0.007994
3.260000	 0.044228
3.278000	 -0.025711
3.296000	 0.003497
3.314000	 0.088267
3.332000	 0.016790
3.350000	 0.084075
3.368000	 0.056951
3.386000	 0.176204
3.404000	 -0.041611
3.422000	 0.055692
3.440000	 0.096627
3.458000	 -0.062404
3.476000	 0.173840
3.494000	 0.142027
3.512000	 0.077135
3.530000	 0.094251
3.548000	 0.050024
3.566000	 0.028883
3.584000	 0.049340
3.602000	 0.053033
3.620000	 0.021473
3.638000	 0.074902
3.656000	 0.086882
3.674000	 -0.050294
3.692000	 -0.013507
3.710000	 0.044357
3.728000	 0.106538
3.746000	 0.069811
3.764000	 0.062427
3.782000	 0.033471
3.800000	 -0.010714
3.818000	 0.154161
3.836000	 0.164999
3.854000	 0.070919
3.872000	 0.096085
3.890000	 0.157734
3.908000	 0.122428
3.926000	 -0.016655
3.944000	 -0.064682
3.962000	 -0.030943
3.980000	 0.004423
3.998000	 0.140067
4.016000	 0.148680
4.034000	 0.037519
4.052000	 0.059475
4.070000	 0.052675
4.088000	 0.010771
4.106000	 -0.072508
4.124000	 0.010589
4.141999	 0.062930
4.160000	 0.113900
4.178000	 -0.012546
4.196000	 -0.021826
4.214000	 0.106687
4.232000	 0.031825
4.250000	 -0.005385
4.268000	 0.167708
4.286000	 0.097636
4.304000	 0.072380
4.322000	 0.117168
4.340000	 0.302413
4.358000	 0.344861
4.375999	 0.433856
4.394000	 0.504093
4.412000	 0.705294
4.430000	 0.940838
4.448000	 1.099026
4.466000	 1.376781
4.484000	 1.718637
4.502000	 2.109444
4.520000	 2.461778
4.538000	 3.019977
4.556000	 3.615145
4.574000	 4.186576
4.592000	 4.830918
4.609999	 5.549347
4.628000	 6.285715
4.646000	 7.191136
4.664000	 8.165252
4.682000	 8.960075
4.700000	 9.924088
4.718000	 10.8866
4.736000	 11.7907
4.754000	 12.7817
4.772000	 13.9064
4.790000	 14.95
4.808000	 15.8667
4.826000	 16.7003
4.843999	 17.5901
4.862000	 18.4925
4.880000	 19.3784
4.898000	 20.293
4.916000	 21.1585
4.934000	 21.9182
4.952000	 22.5293
4.970000	 23.2126
4.988000	 23.961
5.006000	 24.5662
5.024000	 25.2062
5.042000	 25.7557
5.060000	 26.1848
5.077999	 26.7171
5.096000	 27.1983
5.114000	 27.6008
5.132000	 28.0409
5.150000	 28.5413
5.168000	 28.9163
5.186000	 29.0883
5.204000	 29.3067
5.222000	 29.6564
5.240000	 30.0302
5.258000	 30.3574
5.276000	 30.6956
5.294000	 30.8868
5.312000	 31.0194
5.330000	 31.0479
5.348000	 31.1942
5.366000	 31.2927
5.384000	 31.4761
5.402000	 31.8034
5.420000	 32.1135
5.438000	 32.2194
5.456000	 32.1988
5.474000	 32.221
5.492000	 32.2382
5.510000	 32.3209
5.528000	 32.5123
5.546000	 32.7199
5.564000	 32.8496
5.582000	 32.9265
5.600000	 32.9572
5.618000	 32.936
5.636000	 32.9113
5.654000	 32.9172
5.672000	 32.8683
5.690000	 33.0783
5.708000	 33.2459
5.726000	 33.3168
5.744000	 33.3373
5.762000	 33.2127
5.780000	 33.2076
5.798000	 33.2486
5.816000	 33.1991
5.834000	 33.2859
5.852000	 33.3597
5.870000	 33.4253
5.888000	 33.4964
5.906000	 33.5535
5.923999	 33.5468
5.942000	 33.416
5.960000	 33.3041
5.978000	 33.2738
5.996000	 33.3352
6.014000	 33.4392
6.032000	 33.4947
6.050000	 33.5848
6.068000	 33.7324
6.086000	 33.743
6.104000	 33.6471
6.122000	 33.5248
6.140000	 33.3755
6.158000	 33.3083
6.176000	 33.3744
6.194000	 33.4
6.212000	 33.4175
6.230000	 33.4701
6.248000	 33.5262
6.266000	 33.622
6.284000	 33.6427
6.302000	 33.5927
6.320000	 33.4865
6.338000	 33.3313
6.356000	 33.294
6.374000	 33.3504
6.392000	 33.3682
6.410000	 33.3584
6.428000	 33.3811
6.446000	 33.4963
6.464000	 33.6222
6.482000	 33.6632
6.500000	 33.6312
6.518000	 33.5597
6.536000	 33.4962
6.554000	 33.3697
6.572000	 33.2095
6.590000	 33.1293
6.608000	 33.128
6.626000	 33.2228
6.644000	 33.3609
6.662000	 33.4182
6.680000	 33.4891
6.698000	 33.5653
6.716000	 33.4795
6.734000	 33.3684
6.752000	 33.3239
6.770000	 33.2604
6.788000	 33.162
6.806000	 33.0815
6.824000	 33.0052
6.842000	 32.9412
6.860000	 32.9856
6.878000	 33.1231
6.896000	 33.2553
6.914000	 33.3603
6.932000	 33.4352
6.950000	 33.4976
6.968000	 33.4989
6.986000	 33.384
7.004000	 33.2266
7.022000	 33.0681
7.040000	 32.9305
7.058000	 32.8783
7.076000	 32.8737
7.094000	 32.8613
7.112000	 32.8782
7.130000	 32.947
7.148000	 33.0427
7.166000	 33.1387
7.184000	 33.2217
7.202000	 33.2677
7.220000	 33.231
7.238000	 33.1271
7.256000	 33.0353
7.274000	 32.9652
7.292000	 32.8551
7.310000	 32.7094
7.328000	 32.6096
7.346000	 32.6103
7.364000	 32.6956
7.382000	 32.8041
7.400000	 32.8836
7.418000	 32.9461
7.436000	 33.0139
7.454000	 33.0744
7.472000	 33.1233
7.490000	 33.139
7.508000	 33.068
7.526000	 32.9354
7.544000	 32.8346
7.562000	 32.7944
7.580000	 32.7645
7.598000	 32.6956
7.616000	 32.5941
7.634000	 32.5194
7.652000	 32.5071
7.670000	 32.5312
7.688000	 32.5753
7.706000	 32.6701
7.724000	 32.8242
7.742000	 32.9787
7.760000	 33.0668
7.778000	 33.0729
7.796000	 33.0255
7.814000	 32.9626
7.832000	 32.8969
7.850000	 32.8086
7.868000	 32.6888
7.886000	 32.568
7.904000	 32.4752
7.922000	 32.4113
7.940000	 32.3778
7.958000	 32.3801
7.976000	 32.4039
7.994000	 32.4361
8.012000	 32.4883
8.030000	 32.5584
8.048000	 32.6093
8.065999	 32.6222
8.084000	 32.6308
8.102000	 32.6708
8.120000	 32.724
8.138000	 32.7427
8.155999	 32.703
8.173999	 32.617
8.192000	 32.5035
8.210000	 32.3702
8.228000	 32.2266
8.246000	 32.1014
8.263999	 32.0344
8.282000	 32.049
8.300000	 32.1278
8.318000	 32.2186
8.336000	 32.277
8.353999	 32.3045
8.372000	 32.3428
8.390000	 32.4306
8.408000	 32.5605
8.426000	 32.6841
8.443999	 32.7649
8.462000	 32.7964
8.480000	 32.78
8.498000	 32.7187
8.516000	 32.6267
8.533999	 32.5215
8.552000	 32.4067
8.570000	 32.2749
8.588000	 32.1324
8.606000	 32.009
8.624000	 31.9316
8.641999	 31.8922
8.660000	 31.8623
8.678000	 31.8318
8.696000	 31.8197
8.714000	 31.8451
8.731999	 31.9
8.750000	 31.961
8.768000	 32.0183
8.786000	 32.0838
8.804000	 32.1702
8.821999	 32.2719
8.840000	 32.3679
8.858000	 32.4372
8.876000	 32.4653
8.894000	 32.443
8.911999	 32.3674
8.930000	 32.246
8.948000	 32.0991
8.966000	 31.9538
8.984000	 31.839
9.001999	 31.7742
9.020000	 31.7525
9.038000	 31.7389
9.056000	 31.6991
9.074000	 31.6327
9.092000	 31.572
9.109999	 31.5532
9.128000	 31.5906
9.146000	 31.6749
9.164000	 31.7871
9.182000	 31.9092
9.199999	 32.0248
9.218000	 32.1207
9.236000	 32.1895
9.254000	 32.2306
9.272000	 32.2449
9.289999	 32.2299
9.308000	 32.18
9.326000	 32.0942
9.344000	 31.9844
9.362000	 31.8712
9.379999	 31.7683
9.398000	 31.6734
9.416000	 31.5759
9.434000	 31.4721
9.452000	 31.371
9.469999	 31.2867
9.488000	 31.2253
9.506000	 31.1811
9.524000	 31.1446
9.542000	 31.114
9.560000	 31.1011
9.577999	 31.1243
9.596000	 31.1955
9.614000	 31.3045
9.632000	 31.421
9.650000	 31.5105
9.667999	 31.5571
9.686000	 31.5703
9.704000	 31.5748
9.722000	 31.5906
9.740000	 31.6211
9.757999	 31.6521
9.776000	 31.6627
9.794000	 31.6374
9.812000	 31.5743
9.830000	 31.4877
9.847999	 31.4006
9.866000	 31.331
9.884000	 31.2802
9.902000	 31.234
9.920000	 31.1754
9.937999	 31.0983
9.956000	 31.013
9.974000	 30.9378
9.992000	 30.8874
10.01	30.8643
10.028	30.857
10.046	30.8468
10.064	30.82
10.082	30.7743
10.1	30.7227
10.118	30.6864
10.136	30.6814
10.154	30.7108
10.172	30.767
10.19	30.8401
10.208	30.9248
10.226	31.0187
10.244	31.1142
10.262	31.1947
10.28	31.2406
10.298	31.2396
10.316	31.1945
10.334	31.1215
10.352	31.038
10.37	30.9554
10.388	30.8757
10.406	30.7989
10.424	30.7263
10.442	30.6624
10.46	30.6094
10.478	30.564
10.496	30.5184
10.514	30.4657
10.532	30.4044
10.55	30.3394
10.568	30.2778
10.586	30.2252
10.604	30.1841
10.622	30.1554
10.64	30.1411
10.658	30.144
10.676	30.1657
10.694	30.2037
10.712	30.2506
10.73	30.2976
10.748	30.3389
10.766	30.3757
10.784	30.4158
10.802	30.4682
10.82	30.5363
10.838	30.6135
10.856	30.684
10.874	30.7281
10.892	30.7328
10.91	30.696
10.928	30.6287
10.946	30.5483
10.964	30.4692
10.982	30.3977
11	30.3294
11.018	30.2541
11.036	30.1643
11.054	30.06
11.072	29.9502
11.09	29.8486
11.108	29.766
11.126	29.7068
11.144	29.6682
11.162	29.6423
11.18	29.6205
11.198	29.5961
11.216	29.5663
11.234	29.5326
11.252	29.4996
11.27	29.4725
11.288	29.4568
11.306	29.4554
11.324	29.4696
11.342	29.4991
11.36	29.5427
11.378	29.5995
11.396	29.6676
11.414	29.7444
11.432	29.8259
11.45	29.9065
11.468	29.9798
11.486	30.0407
11.504	30.0866
11.522	30.1169
11.54	30.1326
11.558	30.136
11.576	30.1292
11.594	30.1131
11.612	30.0884
11.63	30.053
11.648	30.0033
11.666	29.935
11.684	29.8443
11.702	29.7307
11.72	29.5982
11.738	29.4547
11.756	29.3101
11.774	29.174
11.792	29.0534
11.81	28.9503
11.828	28.8635
11.846	28.7909
11.864	28.7307
11.882	28.6832
11.9	28.6502
11.918	28.6335
11.936	28.6332
11.954	28.647
11.972	28.6717
11.99	28.7032
12.008	28.7384
12.026	28.7764
12.044	28.8174
12.062	28.8635
12.08	28.9167
12.098	28.9779
12.116	29.0458
12.134	29.1169
12.152	29.1858
12.17	29.2461
12.188	29.2916
12.206	29.3179
12.224	29.3226
12.242	29.3056
12.26	29.2696
12.278	29.2198
12.296	29.1624
12.314	29.1045
12.332	29.0521
12.35	29.0091
12.368	28.9765
12.386	28.9522
12.404	28.931
12.422	28.9058
12.44	28.8698
12.458	28.8179
12.476	28.7479
12.494	28.661
12.512	28.5613
12.53	28.4549
12.548	28.3481
12.566	28.2466
12.584	28.1556
12.602	28.0797
12.62	28.0224
12.638	27.9865
12.656	27.9739
12.674	27.9843
12.692	28.015
12.71	28.0599
12.728	28.1109
12.746	28.1586
12.764	28.1951
12.782	28.2156
12.8	28.2198
12.818	28.2119
12.836	28.1995
12.854	28.1907
12.872	28.1921
12.89	28.2069
12.908	28.2341
12.926	28.2692
12.944	28.3052
12.962	28.335
12.98	28.3531
12.998	28.3569
13.016	28.3473
13.034	28.3282
13.052	28.3051
13.07	28.2841
13.088	28.2704
13.106	28.2671
13.124	28.2753
13.142	28.2938
13.16	28.3199
13.178	28.3489
13.196	28.3758
13.214	28.3949
13.232	28.4008
13.25	28.3884
13.268	28.354
13.286	28.2954
13.304	28.2128
13.322	28.1091
13.34	27.9898
13.358	27.8629
13.376	27.7379
13.394	27.6245
13.412	27.5312
13.43	27.4632
13.448	27.4223
13.466	27.4057
13.484	27.4075
13.502	27.419
13.52	27.4312
13.538	27.436
13.556	27.4278
13.574	27.4042
13.592	27.3659
13.61	27.3164
13.628	27.2609
13.646	27.2048
13.664	27.1532
13.682	27.1094
13.7	27.0757
13.718	27.053
13.736	27.0414
13.754	27.0402
13.772	27.049
13.79	27.0671
13.808	27.094
13.826	27.1282
13.844	27.1683
13.862	27.2119
13.88	27.2563
13.898	27.2987
13.916	27.3363
13.934	27.3672
13.952	27.3907
13.97	27.4074
13.988	27.4189
14.006	27.4276
14.024	27.4361
14.042	27.4467
14.06	27.4608
14.078	27.4791
14.096	27.5007
14.114	27.5243
14.132	27.5478
14.15	27.5687
14.168	27.5849
14.186	27.594
14.204	27.5949
14.222	27.5869
14.24	27.5706
14.258	27.5464
14.276	27.5162
14.294	27.4816
14.312	27.4439
14.33	27.4039
14.348	27.3611
14.366	27.3151
14.384	27.2636
14.402	27.2041
14.42	27.1339
14.438	27.0509
14.456	26.9542
14.474	26.8441
14.492	26.7227
14.51	26.5939
14.528	26.463
14.546	26.3353
14.564	26.2163
14.582	26.1103
14.6	26.0205
14.618	25.9486
14.636	25.8947
14.654	25.858
14.672	25.837
14.69	25.8297
14.708	25.8343
14.726	25.8487
14.744	25.8717
14.762	25.9011
14.78	25.9354
14.798	25.9729
14.816	26.0118
14.834	26.0509
14.852	26.0884
14.87	26.1236
14.888	26.156
14.906	26.1857
14.924	26.213
14.942	26.239
14.96	26.2644
14.978	26.2895
14.996	26.3146
15.014	26.3391
15.032	26.3623
15.05	26.3827
15.068	26.3991
15.086	26.4105
15.104	26.416
15.122	26.4161
15.14	26.4115
15.158	26.4034
15.176	26.3932
15.194	26.3827
15.212	26.3736
15.23	26.3668
15.248	26.3624
15.266	26.3599
15.284	26.3584
15.302	26.3562
15.32	26.3516
15.338	26.3429
15.356	26.3281
15.374	26.3058
15.392	26.2755
15.41	26.2369
15.428	26.1904
15.446	26.1367
15.464	26.0771
15.482	26.0125
15.5	25.9442
15.518	25.8736
15.536	25.8017
15.554	25.7295
15.572	25.6577
15.59	25.5875
15.608	25.5198
15.626	25.4555
15.644	25.3959
15.662	25.3424
15.68	25.2959
15.698	25.2576
15.716	25.2283
15.734	25.2086
15.752	25.1983
15.77	25.1969
15.788	25.2032
15.806	25.2154
15.824	25.2316
15.842	25.2496
15.86	25.2665
15.878	25.2805
15.896	25.2899
15.914	25.2935
15.932	25.2907
15.95	25.2815
15.968	25.2664
15.986	25.2466
16.004	25.2233
16.022	25.1977
16.04	25.1715
16.058	25.1457
16.076	25.1213
16.094	25.0991
16.112	25.0795
16.13	25.0629
16.148	25.0494
16.166	25.0388
16.184	25.031
16.202	25.0258
16.22	25.023
16.238	25.0223
16.256	25.0237
16.274	25.027
16.292	25.0323
16.31	25.0396
16.328	25.0492
16.346	25.0614
16.364	25.0763
16.382	25.0946
16.4	25.1163
16.418	25.1414
16.436	25.1699
16.454	25.2011
16.472	25.2344
16.49	25.2681
16.508	25.3005
16.526	25.33
16.544	25.3536
16.562	25.3691
16.58	25.3747
16.598	25.3679
16.616	25.3481
16.634	25.3144
16.652	25.2673
16.67	25.2084
16.688	25.1387
16.706	25.0619
16.724	24.9802
16.742	24.8967
16.76	24.8153
16.778	24.7379
16.796	24.6675
16.814	24.6056
16.832	24.5533
16.85	24.5109
16.868	24.4779
16.886	24.454
16.904	24.4371
16.922	24.4259
16.94	24.4185
16.958	24.4125
16.976	24.4067
16.994	24.399
17.012	24.3886
17.03	24.3749
17.048	24.3573
17.066	24.336
17.084	24.3113
17.102	24.284
17.12	24.2544
17.138	24.2235
17.156	24.1915
17.174	24.1587
17.192	24.1251
17.21	24.0905
17.228	24.0544
17.246	24.0162
17.264	23.9754
17.282	23.9313
17.3	23.8839
17.318	23.8327
17.336	23.7786
17.354	23.7217
17.372	23.6641
17.39	23.6067
17.408	23.5519
17.426	23.5019
17.444	23.4578
17.462	23.4225
17.48	23.3965
17.498	23.3813
17.516	23.3769
17.534	23.3838
17.552	23.4002
17.57	23.4257
17.588	23.4575
17.606	23.4943
17.624	23.5337
17.642	23.5734
17.66	23.6124
17.678	23.6482
17.696	23.6805
17.714	23.7082
17.732	23.7314
17.75	23.75
17.768	23.7648
17.786	23.776
17.804	23.7848
17.822	23.7914
17.84	23.797
17.858	23.8015
17.876	23.8055
17.894	23.8089
17.912	23.8118
17.93	23.814
17.948	23.8153
17.966	23.8155
17.984	23.8147
18.002	23.8128
18.02	23.8101
18.038	23.8067
18.056	23.8035
18.074	23.8005
18.092	23.7985
18.11	23.7975
18.128	23.7976
18.146	23.7986
18.164	23.8002
18.182	23.8014
18.2	23.8014
18.218	23.7989
18.236	23.7931
18.254	23.7822
18.272	23.7655
18.29	23.7417
18.308	23.7107
18.326	23.6716
18.344	23.6246
18.362	23.5702
18.38	23.5089
18.398	23.4418
18.416	23.37
18.434	23.2948
18.452	23.2179
18.47	23.1404
18.488	23.064
18.506	22.9895
18.524	22.9181
18.542	22.8505
18.56	22.7874
18.578	22.729
18.596	22.6757
18.614	22.6275
18.632	22.584
18.65	22.5454
18.668	22.5111
18.686	22.4812
18.704	22.4549
18.722	22.4322
18.74	22.4128
18.758	22.3967
18.776	22.3835
18.794	22.3732
18.812	22.366
18.83	22.3615
18.848	22.3595
18.866	22.36
18.884	22.3627
18.902	22.3675
18.92	22.3741
18.938	22.3821
18.956	22.3913
18.974	22.4013
18.992	22.4115
19.01	22.4215
19.028	22.4307
19.046	22.4387
19.064	22.4446
19.082	22.4482
19.1	22.4485
19.118	22.4453
19.136	22.4378
19.154	22.4259
19.172	22.4089
19.19	22.387
19.208	22.3601
19.226	22.3282
19.244	22.2919
19.262	22.2514
19.28	22.208
19.298	22.1618
19.316	22.1148
19.334	22.0671
19.352	22.0213
19.37	21.9773
19.388	21.9378
19.406	21.9026
19.424	21.8743
19.442	21.8527
19.46	21.8393
19.478	21.8345
19.496	21.8386
19.514	21.8519
19.532	21.8736
19.55	21.904
19.568	21.9416
19.586	21.9856
19.604	22.0349
19.622	22.0873
19.64	22.1424
19.658	22.1969
19.676	22.2509
19.694	22.3008
19.712	22.3471
19.73	22.3865
19.748	22.4192
19.766	22.4435
19.784	22.4589
19.802	22.4651
19.82	22.4617
19.838	22.4492
19.856	22.4281
19.874	22.3988
19.892	22.363
19.91	22.3206
19.928	22.2741
19.946	22.2234
19.964	22.1711
19.982	22.1174
20	22.0641
20.018	22.0124
20.036	21.9627
20.054	21.9167
20.072	21.8741
20.09	21.836
20.108	21.8023
20.126	21.7732
20.144	21.7487
20.162	21.7284
20.18	21.7121
20.198	21.6993
20.216	21.6892
20.234	21.6818
20.252	21.6755
20.27	21.6707
20.288	21.6658
20.306	21.6606
20.324	21.6544
20.342	21.6464
20.36	21.6365
20.378	21.6238
20.396	21.6086
20.414	21.5904
20.432	21.5693
20.45	21.545
20.468	21.5174
20.486	21.4867
20.504	21.4529
20.522	21.416
20.54	21.3766
20.558	21.3345
20.576	21.2905
20.594	21.2446
20.612	21.1971
20.63	21.1484
20.648	21.0986
20.666	21.0482
20.684	20.9974
20.702	20.9464
20.72	20.8955
20.738	20.8449
20.756	20.7952
20.774	20.7461
20.792	20.6986
20.81	20.6527
20.828	20.6088
20.846	20.5678
20.864	20.5293
20.882	20.4945
20.9	20.463
20.918	20.4356
20.936	20.4129
20.954	20.3948
20.972	20.3821
20.99	20.3746
21.008	20.3727
21.026	20.3766
21.044	20.386
21.062	20.4008
21.08	20.421
21.098	20.4458
21.116	20.4752
21.134	20.5087
21.152	20.5452
21.17	20.585
21.188	20.6264
21.206	20.6695
21.224	20.7136
21.242	20.7571
21.26	20.8005
21.278	20.8425
21.296	20.8828
21.314	20.9211
21.332	20.9563
21.35	20.9887
21.368	21.0175
21.386	21.0427
21.404	21.0639
21.422	21.0804
21.44	21.0923
21.458	21.0989
21.476	21.1003
21.494	21.0961
21.512	21.0853
21.53	21.0683
21.548	21.0439
21.566	21.0115
21.584	20.9713
21.602	20.9219
21.62	20.8633
21.638	20.7953
21.656	20.717
21.674	20.6286
21.692	20.5307
21.71	20.4227
21.728	20.3056
21.746	20.1809
21.764	20.0476
21.782	19.9089
21.8	19.7667
21.818	19.6202
21.836	19.4748
21.854	19.33
21.872	19.188
21.89	19.0547
21.908	18.9276
21.926	18.8117
21.944	18.7098
21.962	18.6207
21.98	18.5494
21.998	18.4963
22.016	18.4614
22.034	18.4472
22.052	18.4532
22.07	18.4791
22.088	18.5254
22.106	18.5919
22.124	18.6758
22.142	18.7775
22.16	18.8957
22.178	19.0258
22.196	19.1696
22.214	19.3235
22.232	19.4828
22.25	19.6498
22.268	19.8193
22.286	19.9885
22.304	20.1587
22.322	20.3246
22.34	20.4857
22.358	20.6417
22.376	20.7885
22.394	20.9269
22.412	21.0557
22.43	21.1723
22.448	21.2777
22.466	21.371
22.484	21.451
22.502	21.5183
22.52	21.5729
22.538	21.6144
22.556	21.6431
22.574	21.6597
22.592	21.6639
22.61	21.6563
22.628	21.6381
22.646	21.6086
22.664	21.569
22.682	21.5214
22.7	21.4648
22.718	21.401
22.736	21.3322
22.754	21.257
22.772	21.1782
22.79	21.0981
22.808	21.0152
22.826	20.9325
22.844	20.8517
22.862	20.7716
22.88	20.6951
22.898	20.6234
22.916	20.5558
22.934	20.4941
22.952	20.439
22.97	20.39
22.988	20.3481
23.006	20.3137
23.024	20.2865
23.042	20.2662
23.06	20.2531
23.078	20.2468
23.096	20.2457
23.114	20.2502
23.132	20.2599
23.15	20.2726
23.168	20.2887
23.186	20.3079
23.204	20.3278
23.222	20.3489
23.24	20.3707
23.258	20.3917
23.276	20.4119
23.294	20.4313
23.312	20.4492
23.33	20.4656
23.348	20.4806
23.366	20.4941
23.384	20.506
23.402	20.5164
23.42	20.5253
23.438	20.5327
23.456	20.5386
23.474	20.5431
23.492	20.5461
23.51	20.5477
23.528	20.5476
23.546	20.5461
23.564	20.543
23.582	20.5377
23.6	20.5301
23.618	20.5204
23.636	20.5077
23.654	20.4917
23.672	20.4727
23.69	20.4497
23.708	20.4217
23.726	20.3895
23.744	20.352
23.762	20.3082
23.78	20.2586
23.798	20.2027
23.816	20.1399
23.834	20.0702
23.852	19.9939
23.87	19.911
23.888	19.8214
23.906	19.7255
23.924	19.6239
23.942	19.5163
23.96	19.4031
23.978	19.2855
23.996	19.1639
24.014	19.0379
24.032	18.9087
24.05	18.7769
24.068	18.6418
24.086	18.5046
24.104	18.3663
24.122	18.226
24.14	18.0848
24.158	17.9437
24.176	17.802
24.194	17.6605
24.212	17.521
24.23	17.3835
24.248	17.2478
24.266	17.1156
24.284	16.9877
24.302	16.8629
24.32	16.7436
24.338	16.6318
24.356	16.5256
24.374	16.4271
24.392	16.3397
24.41	16.2623
24.428	16.1951
24.446	16.1415
24.464	16.1025
24.482	16.0763
24.5	16.0664
24.518	16.0758
24.536	16.1028
24.554	16.1478
24.572	16.212
24.59	16.2965
24.608	16.3998
24.626	16.5193
24.644	16.6552
24.662	16.8089
24.68	16.9743
24.698	17.1461
24.716	17.3295
24.734	17.519
24.752	17.7059
24.77	17.8915
24.788	18.0772
24.806	18.2524
24.824	18.4103
24.842	18.5587
24.86	18.6889
24.878	18.7904
24.896	18.8661
24.914	18.9163
24.932	18.9337
24.95	18.914
24.968	18.8612
24.986	18.7735
25.004	18.6489
25.022	18.4854
25.04	18.2864
25.058	18.0568
25.076	17.7967
25.094	17.5028
25.112	17.1851
25.13	16.8533
25.148	16.4989
25.166	16.1282
25.184	15.7562
25.202	15.3883
25.22	15.0148
25.238	14.6501
25.256	14.3093
25.274	13.9845
25.292	13.6784
25.31	13.4049
25.328	13.172
25.346	12.9706
25.364	12.8079
25.382	12.693
25.4	12.6258
25.418	12.6033
25.436	12.6274
25.454	12.7004
25.472	12.8234
25.49	12.9917
25.508	13.1996
25.526	13.4495
25.544	13.7432
25.562	14.068
25.58	14.4119
25.598	14.7861
25.616	15.1832
25.634	15.5858
25.652	15.9842
25.67	16.3924
25.688	16.7961
25.706	17.1774
25.724	17.5369
25.742	17.8812
25.76	18.1963
25.778	18.4694
25.796	18.7078
25.814	18.9102
25.832	19.0678
25.85	19.1741
25.868	19.2336
25.886	19.247
25.904	19.214
25.922	19.1331
25.94	19.0048
25.958	18.833
25.976	18.6214
25.994	18.3647
26.012	18.0659
26.03	17.7359
26.048	17.3835
26.066	16.9958
26.084	16.5834
26.102	16.1645
26.12	15.7493
26.138	15.3203
26.156	14.8947
26.174	14.4942
26.192	14.1243
26.21	13.7701
26.228	13.4493
26.246	13.1809
26.264	12.9635
26.282	12.7892
26.3	12.6717
26.318	12.6243
26.336	12.6439
26.354	12.7269
26.372	12.8783
26.39	13.1028
26.408	13.4009
26.426	13.7689
26.444	14.2032
26.462	14.7013
26.48	15.2699
26.498	15.9018
26.516	16.5868
26.534	17.3184
26.552	18.1087
26.57	18.9464
26.588	19.8155
26.606	20.7069
26.624	21.6353
26.642	22.5888
26.66	23.5516
26.678	24.5166
26.696	25.499
26.714	26.4843
26.732	27.4555
26.75	28.4055
26.768	29.3499
26.786	30.2744
26.804	31.1626
26.822	32.0082
26.84	32.8253
26.858	33.6018
26.876	34.3233
26.894	34.9837
26.912	35.5952
26.93	36.1489
26.948	36.6346
26.966	37.0461
26.984	37.3908
27.002	37.6675
27.02	37.8739
27.028	37.9348