File: Bakgrunnsmateriale/MATLAB/FTIR/ftir_data/LPE453/Mapping_121/LPE453_t103.asc
PE IR       SPECTRUM    SPECTRUM    ASCII       PEDS        1.60
  -1
LP9F76~1.ASC
17/05/16
22:48:46.00
17/05/16
22:49:12.00
tln
$LPE453_t0103$<tbV0>[5.2,10.4,8.0,0.0,27,1,0]
27.028
64

2002,4.07
MIRTGS : RIGHTBACK : INTERNAL 2
MIR : ON : INTERNAL 2
OPTKBR

0.200000
8
8.000000
FILLER
RATIO
SPECTRUM
UNLOCKED 256

DOUBLE
64
COMBINED
1
0
0

0.002000
RATIO

1
0
TRUE
51149
0
LEFT NOT FITTED RIGHT NOT FITTED 0
NONE
NONE
15600
12
4.427000
51148
TRUE
1 0 8 72 0 0 0 0

15798

#HDR
-1
-1
#GR
µM
%T
2.38419e-05
0.0
2.000000
0.002000
12515
8
40.0055
-2.489843
#DATA
2.000000	 0.216054
2.018000	 -0.138779
2.036000	 0.308113
2.054000	 -0.105577
2.072000	 0.059678
2.090000	 -0.228593
2.108000	 0.123356
2.126000	 0.385175
2.144000	 -0.032862
2.162000	 1.507655
2.180000	 0.307735
2.198000	 -0.179213
2.216000	 -1.346212
2.234000	 -1.806214
2.252000	 0.172216
2.270000	 0.185852
2.288000	 0.658749
2.306000	 0.304425
2.324000	 0.282285
2.342000	 0.227409
2.360000	 0.160718
2.378000	 0.217905
2.396000	 -0.024341
2.414000	 0.157444
2.432000	 0.095508
2.450000	 0.036205
2.468000	 0.088767
2.486000	 -0.047584
2.504000	 0.182051
2.522000	 -0.049276
2.540000	 0.153968
2.558000	 0.170552
2.576000	 0.028995
2.594000	 -0.061994
2.612000	 0.133569
2.630000	 0.064559
2.648000	 0.021759
2.666000	 0.094528
2.684000	 -0.117808
2.702000	 0.161854
2.720000	 0.207026
2.738000	 0.072602
2.756000	 -0.053625
2.774000	 -0.005567
2.792000	 0.070363
2.810000	 0.024129
2.828000	 -0.000430
2.846000	 0.092625
2.864000	 -0.109823
2.882000	 0.101490
2.900000	 -0.012580
2.918000	 0.141877
2.936000	 -0.033352
2.954000	 0.039145
2.972000	 -0.102231
2.990000	 0.143347
3.008000	 0.098821
3.026000	 -0.067450
3.044000	 0.013410
3.062000	 -0.008742
3.080000	 0.133698
3.098000	 -0.023814
3.116000	 0.126656
3.134000	 -0.038736
3.152000	 0.019670
3.170000	 0.037849
3.188000	 0.057898
3.206000	 -0.055736
3.224000	 0.003224
3.242000	 0.087610
3.260000	 0.047031
3.278000	 0.024262
3.296000	 0.050568
3.314000	 0.080607
3.332000	 0.020554
3.350000	 0.000372
3.368000	 0.154113
3.386000	 -0.038495
3.404000	 0.062612
3.422000	 0.009356
3.440000	 0.071104
3.458000	 -0.080066
3.476000	 0.005496
3.494000	 0.085033
3.512000	 -0.077801
3.530000	 -0.035100
3.548000	 0.002101
3.566000	 0.016524
3.584000	 0.033337
3.602000	 0.080194
3.620000	 0.086192
3.638000	 0.085214
3.656000	 0.009132
3.674000	 0.144336
3.692000	 -0.028117
3.710000	 0.021385
3.728000	 -0.016028
3.746000	 -0.007926
3.764000	 0.072661
3.782000	 0.124182
3.800000	 0.037111
3.818000	 0.049028
3.836000	 0.043961
3.854000	 0.046766
3.872000	 -0.057967
3.890000	 0.030948
3.908000	 0.101182
3.926000	 -0.023649
3.944000	 -0.042085
3.962000	 -0.015595
3.980000	 0.061357
3.998000	 0.093069
4.016000	 0.057529
4.034000	 -0.002732
4.052000	 0.075794
4.070000	 0.011619
4.088000	 0.081210
4.106000	 0.127565
4.124000	 0.220963
4.141999	 0.164319
4.160000	 0.102127
4.178000	 0.230960
4.196000	 0.221148
4.214000	 0.373335
4.232000	 0.421871
4.250000	 0.488472
4.268000	 0.512357
4.286000	 0.676201
4.304000	 0.899582
4.322000	 1.047068
4.340000	 1.250823
4.358000	 1.537050
4.375999	 1.814693
4.394000	 2.061478
4.412000	 2.467019
4.430000	 2.936027
4.448000	 3.428969
4.466000	 3.982203
4.484000	 4.573261
4.502000	 5.318360
4.520000	 5.980929
4.538000	 6.716939
4.556000	 7.682411
4.574000	 8.635332
4.592000	 9.590498
4.609999	 10.5568
4.628000	 11.6063
4.646000	 12.6771
4.664000	 13.7508
4.682000	 14.9811
4.700000	 16.1835
4.718000	 17.1662
4.736000	 18.3231
4.754000	 19.4296
4.772000	 20.4754
4.790000	 21.5275
4.808000	 22.5465
4.826000	 23.6988
4.843999	 24.6799
4.862000	 25.4956
4.880000	 26.3968
4.898000	 27.2996
4.916000	 28.1057
4.934000	 28.8286
4.952000	 29.4991
4.970000	 30.226
4.988000	 30.7576
5.006000	 31.4885
5.024000	 32.0403
5.042000	 32.4715
5.060000	 33.0049
5.077999	 33.4753
5.096000	 34.0239
5.114000	 34.4434
5.132000	 34.6631
5.150000	 35.0898
5.168000	 35.4569
5.186000	 35.739
5.204000	 35.9134
5.222000	 36.1806
5.240000	 36.5303
5.258000	 36.8074
5.276000	 37.0233
5.294000	 37.158
5.312000	 37.253
5.330000	 37.437
5.348000	 37.6707
5.366000	 37.8766
5.384000	 38.0401
5.402000	 38.2206
5.420000	 38.3032
5.438000	 38.4962
5.456000	 38.6064
5.474000	 38.6184
5.492000	 38.6101
5.510000	 38.6514
5.528000	 38.758
5.546000	 38.8538
5.564000	 38.9481
5.582000	 39.0644
5.600000	 39.1451
5.618000	 39.258
5.636000	 39.4021
5.654000	 39.403
5.672000	 39.27
5.690000	 39.229
5.708000	 39.2427
5.726000	 39.2355
5.744000	 39.2501
5.762000	 39.2213
5.780000	 39.3078
5.798000	 39.4452
5.816000	 39.5442
5.834000	 39.6535
5.852000	 39.752
5.870000	 39.7228
5.888000	 39.6452
5.906000	 39.6266
5.923999	 39.6004
5.942000	 39.5955
5.960000	 39.5359
5.978000	 39.562
5.996000	 39.6654
6.014000	 39.6788
6.032000	 39.6909
6.050000	 39.7734
6.068000	 39.8748
6.086000	 39.9046
6.104000	 39.882
6.122000	 39.8413
6.140000	 39.8801
6.158000	 39.9061
6.176000	 39.8559
6.194000	 39.6964
6.212000	 39.5802
6.230000	 39.5972
6.248000	 39.6225
6.266000	 39.6606
6.284000	 39.7545
6.302000	 39.8464
6.320000	 39.8612
6.338000	 39.8201
6.356000	 39.8584
6.374000	 39.9284
6.392000	 39.9412
6.410000	 39.8998
6.428000	 39.8864
6.446000	 39.8554
6.464000	 39.7269
6.482000	 39.6069
6.500000	 39.5394
6.518000	 39.4949
6.536000	 39.5082
6.554000	 39.5773
6.572000	 39.6535
6.590000	 39.7432
6.608000	 39.837
6.626000	 39.8825
6.644000	 39.9083
6.662000	 39.9307
6.680000	 39.868
6.698000	 39.7605
6.716000	 39.7338
6.734000	 39.7406
6.752000	 39.7158
6.770000	 39.6522
6.788000	 39.576
6.806000	 39.5049
6.824000	 39.4308
6.842000	 39.4309
6.860000	 39.5292
6.878000	 39.5791
6.896000	 39.5792
6.914000	 39.6477
6.932000	 39.7772
6.950000	 39.9241
6.968000	 40.0036
6.986000	 39.9802
7.004000	 39.9197
7.022000	 39.8514
7.040000	 39.7911
7.058000	 39.7484
7.076000	 39.6781
7.094000	 39.5831
7.112000	 39.5146
7.130000	 39.4783
7.148000	 39.4512
7.166000	 39.3822
7.184000	 39.2735
7.202000	 39.2558
7.220000	 39.3949
7.238000	 39.5919
7.256000	 39.7321
7.274000	 39.7795
7.292000	 39.7618
7.310000	 39.7385
7.328000	 39.7627
7.346000	 39.8188
7.364000	 39.835
7.382000	 39.7885
7.400000	 39.7094
7.418000	 39.6113
7.436000	 39.5126
7.454000	 39.4399
7.472000	 39.3858
7.490000	 39.3265
7.508000	 39.27
7.526000	 39.2546
7.544000	 39.2821
7.562000	 39.2959
7.580000	 39.288
7.598000	 39.3304
7.616000	 39.437
7.634000	 39.5364
7.652000	 39.5968
7.670000	 39.6416
7.688000	 39.6776
7.706000	 39.6932
7.724000	 39.6758
7.742000	 39.6327
7.760000	 39.5902
7.778000	 39.5452
7.796000	 39.4688
7.814000	 39.3862
7.832000	 39.3538
7.850000	 39.3593
7.868000	 39.3365
7.886000	 39.248
7.904000	 39.1197
7.922000	 39.0092
7.940000	 38.9531
7.958000	 38.9404
7.976000	 38.9497
7.994000	 38.9792
8.012000	 39.0293
8.030000	 39.1015
8.048000	 39.1987
8.065999	 39.3026
8.084000	 39.3797
8.102000	 39.4234
8.120000	 39.458
8.138000	 39.4962
8.155999	 39.5262
8.173999	 39.5336
8.192000	 39.5119
8.210000	 39.4631
8.228000	 39.4065
8.246000	 39.3682
8.263999	 39.348
8.282000	 39.3148
8.300000	 39.2419
8.318000	 39.1339
8.336000	 39.0214
8.353999	 38.9395
8.372000	 38.9013
8.390000	 38.8756
8.408000	 38.8257
8.426000	 38.7634
8.443999	 38.731
8.462000	 38.7501
8.480000	 38.8045
8.498000	 38.8594
8.516000	 38.901
8.533999	 38.9489
8.552000	 39.0239
8.570000	 39.1187
8.588000	 39.2079
8.606000	 39.2714
8.624000	 39.2995
8.641999	 39.2885
8.660000	 39.2504
8.678000	 39.2126
8.696000	 39.1934
8.714000	 39.1809
8.731999	 39.1483
8.750000	 39.0867
8.768000	 39.012
8.786000	 38.9449
8.804000	 38.8934
8.821999	 38.8506
8.840000	 38.7979
8.858000	 38.7162
8.876000	 38.6069
8.894000	 38.5
8.911999	 38.4325
8.930000	 38.4123
8.948000	 38.4148
8.966000	 38.4079
8.984000	 38.3817
9.001999	 38.3512
9.020000	 38.3426
9.038000	 38.3788
9.056000	 38.4659
9.074000	 38.5909
9.092000	 38.7302
9.109999	 38.8629
9.128000	 38.9771
9.146000	 39.0686
9.164000	 39.1378
9.182000	 39.1889
9.199999	 39.2249
9.218000	 39.2417
9.236000	 39.2311
9.254000	 39.1938
9.272000	 39.1435
9.289999	 39.0948
9.308000	 39.0481
9.326000	 38.9899
9.344000	 38.9109
9.362000	 38.8197
9.379999	 38.7359
9.398000	 38.669
9.416000	 38.6084
9.434000	 38.5347
9.452000	 38.4388
9.469999	 38.3285
9.488000	 38.2201
9.506000	 38.1262
9.524000	 38.055
9.542000	 38.0123
9.560000	 38.0023
9.577999	 38.0229
9.596000	 38.0651
9.614000	 38.1202
9.632000	 38.1858
9.650000	 38.2622
9.667999	 38.3438
9.686000	 38.4163
9.704000	 38.4667
9.722000	 38.495
9.740000	 38.5146
9.757999	 38.5403
9.776000	 38.5759
9.794000	 38.6138
9.812000	 38.6457
9.830000	 38.6711
9.847999	 38.6933
9.866000	 38.7115
9.884000	 38.7179
9.902000	 38.7045
9.920000	 38.6724
9.937999	 38.6312
9.956000	 38.59
9.974000	 38.5501
9.992000	 38.5075
10.01	38.46
10.028	38.4117
10.046	38.3679
10.064	38.3282
10.082	38.2835
10.1	38.2218
10.118	38.1377
10.136	38.0387
10.154	37.9418
10.172	37.8656
10.19	37.8219
10.208	37.81
10.226	37.8182
10.244	37.8295
10.262	37.8284
10.28	37.8096
10.298	37.778
10.316	37.7457
10.334	37.7263
10.352	37.7297
10.37	37.7595
10.388	37.8127
10.406	37.8825
10.424	37.9595
10.442	38.0339
10.46	38.0981
10.478	38.1485
10.496	38.1865
10.514	38.217
10.532	38.247
10.55	38.2817
10.568	38.3221
10.586	38.3633
10.604	38.3964
10.622	38.4116
10.64	38.4053
10.658	38.3803
10.676	38.3446
10.694	38.3058
10.712	38.2665
10.73	38.2244
10.748	38.1747
10.766	38.1157
10.784	38.0504
10.802	37.9846
10.82	37.9231
10.838	37.8658
10.856	37.8098
10.874	37.7513
10.892	37.6889
10.91	37.6233
10.928	37.5558
10.946	37.4866
10.964	37.4152
10.982	37.3424
11	37.2718
11.018	37.2118
11.036	37.1715
11.054	37.1587
11.072	37.1752
11.09	37.2165
11.108	37.2739
11.126	37.3363
11.144	37.394
11.162	37.4401
11.18	37.4713
11.198	37.4875
11.216	37.4915
11.234	37.4875
11.252	37.4819
11.27	37.4812
11.288	37.4926
11.306	37.5207
11.324	37.5667
11.342	37.6269
11.36	37.6935
11.378	37.7567
11.396	37.8089
11.414	37.8459
11.432	37.8681
11.45	37.8788
11.468	37.8815
11.486	37.8773
11.504	37.865
11.522	37.8414
11.54	37.8053
11.558	37.7579
11.576	37.7028
11.594	37.6443
11.612	37.5847
11.63	37.5236
11.648	37.4584
11.666	37.3856
11.684	37.3034
11.702	37.2125
11.72	37.1169
11.738	37.0218
11.756	36.9317
11.774	36.8488
11.792	36.7729
11.81	36.7016
11.828	36.6325
11.846	36.5648
11.864	36.5006
11.882	36.4438
11.9	36.3994
11.918	36.3706
11.936	36.3579
11.954	36.3581
11.972	36.3654
11.99	36.374
12.008	36.3794
12.026	36.381
12.044	36.3823
12.062	36.389
12.08	36.407
12.098	36.4399
12.116	36.487
12.134	36.5429
12.152	36.5991
12.17	36.6469
12.188	36.6799
12.206	36.6968
12.224	36.701
12.242	36.7
12.26	36.702
12.278	36.714
12.296	36.7403
12.314	36.7813
12.332	36.8337
12.35	36.8928
12.368	36.9532
12.386	37.0104
12.404	37.0625
12.422	37.1093
12.44	37.1512
12.458	37.1874
12.476	37.2156
12.494	37.2306
12.512	37.227
12.53	37.2009
12.548	37.152
12.566	37.084
12.584	37.0039
12.602	36.9204
12.62	36.8403
12.638	36.7669
12.656	36.7
12.674	36.6363
12.692	36.5721
12.71	36.5048
12.728	36.4349
12.746	36.3658
12.764	36.3025
12.782	36.2493
12.8	36.2076
12.818	36.1753
12.836	36.1462
12.854	36.1128
12.872	36.0677
12.89	36.0067
12.908	35.9302
12.926	35.8427
12.944	35.7517
12.962	35.665
12.98	35.5889
12.998	35.5263
13.016	35.4766
13.034	35.4368
13.052	35.4031
13.07	35.3733
13.088	35.3466
13.106	35.3247
13.124	35.3101
13.142	35.3062
13.16	35.3147
13.178	35.3357
13.196	35.3672
13.214	35.4063
13.232	35.4496
13.25	35.4944
13.268	35.5392
13.286	35.5831
13.304	35.6252
13.322	35.6647
13.34	35.6995
13.358	35.7274
13.376	35.7461
13.394	35.7538
13.412	35.7507
13.43	35.7389
13.448	35.723
13.466	35.7086
13.484	35.7018
13.502	35.708
13.52	35.731
13.538	35.7722
13.556	35.8301
13.574	35.9011
13.592	35.9794
13.61	36.0588
13.628	36.1326
13.646	36.195
13.664	36.2417
13.682	36.2698
13.7	36.2783
13.718	36.2687
13.736	36.2434
13.754	36.2062
13.772	36.1608
13.79	36.1112
13.808	36.0601
13.826	36.0088
13.844	35.957
13.862	35.9034
13.88	35.8462
13.898	35.7832
13.916	35.7128
13.934	35.6343
13.952	35.5485
13.97	35.4573
13.988	35.3637
14.006	35.2712
14.024	35.1835
14.042	35.1038
14.06	35.0345
14.078	34.9768
14.096	34.9305
14.114	34.8948
14.132	34.8678
14.15	34.8475
14.168	34.8312
14.186	34.8167
14.204	34.8017
14.222	34.7845
14.24	34.7636
14.258	34.7379
14.276	34.7067
14.294	34.6698
14.312	34.6271
14.33	34.5786
14.348	34.525
14.366	34.4673
14.384	34.4072
14.402	34.3464
14.42	34.2875
14.438	34.233
14.456	34.1858
14.474	34.1487
14.492	34.124
14.51	34.1135
14.528	34.1178
14.546	34.1368
14.564	34.1691
14.582	34.2129
14.6	34.2655
14.618	34.3241
14.636	34.3857
14.654	34.448
14.672	34.5093
14.69	34.5685
14.708	34.6256
14.726	34.681
14.744	34.7353
14.762	34.7898
14.78	34.8449
14.798	34.901
14.816	34.9577
14.834	35.014
14.852	35.0684
14.87	35.1193
14.888	35.1652
14.906	35.2047
14.924	35.2368
14.942	35.2612
14.96	35.2776
14.978	35.2863
14.996	35.2878
15.014	35.2823
15.032	35.27
15.05	35.251
15.068	35.2252
15.086	35.193
15.104	35.1548
15.122	35.1114
15.14	35.0646
15.158	35.0162
15.176	34.9683
15.194	34.9234
15.212	34.8834
15.23	34.8495
15.248	34.8221
15.266	34.8011
15.284	34.7847
15.302	34.7706
15.32	34.7568
15.338	34.7413
15.356	34.7224
15.374	34.6995
15.392	34.6725
15.41	34.6423
15.428	34.6101
15.446	34.578
15.464	34.5471
15.482	34.5179
15.5	34.4906
15.518	34.4642
15.536	34.4368
15.554	34.4067
15.572	34.3715
15.59	34.3285
15.608	34.2768
15.626	34.2155
15.644	34.1447
15.662	34.0662
15.68	33.9819
15.698	33.8942
15.716	33.8059
15.734	33.7198
15.752	33.6377
15.77	33.5615
15.788	33.4921
15.806	33.4293
15.824	33.3728
15.842	33.322
15.86	33.2758
15.878	33.2335
15.896	33.1945
15.914	33.1581
15.932	33.1243
15.95	33.093
15.968	33.0646
15.986	33.0391
16.004	33.0167
16.022	32.9976
16.04	32.9816
16.058	32.9684
16.076	32.958
16.094	32.9498
16.112	32.9437
16.13	32.9394
16.148	32.9364
16.166	32.9347
16.184	32.9343
16.202	32.9349
16.22	32.9367
16.238	32.9397
16.256	32.9438
16.274	32.9495
16.292	32.9571
16.31	32.967
16.328	32.9803
16.346	32.9982
16.364	33.0215
16.382	33.052
16.4	33.0909
16.418	33.1392
16.436	33.1981
16.454	33.2674
16.472	33.3469
16.49	33.4354
16.508	33.5303
16.526	33.6297
16.544	33.7296
16.562	33.8264
16.58	33.9176
16.598	33.9988
16.616	34.068
16.634	34.1233
16.652	34.1635
16.67	34.1892
16.688	34.2005
16.706	34.1998
16.724	34.1886
16.742	34.1686
16.76	34.1428
16.778	34.1124
16.796	34.0791
16.814	34.0439
16.832	34.0074
16.85	33.9694
16.868	33.93
16.886	33.889
16.904	33.8458
16.922	33.8003
16.94	33.7527
16.958	33.7033
16.976	33.6524
16.994	33.6012
17.012	33.5503
17.03	33.5006
17.048	33.4536
17.066	33.4095
17.084	33.3691
17.102	33.3324
17.12	33.2993
17.138	33.2693
17.156	33.2418
17.174	33.2165
17.192	33.1923
17.21	33.1689
17.228	33.1452
17.246	33.1209
17.264	33.0956
17.282	33.0692
17.3	33.0416
17.318	33.0128
17.336	32.9827
17.354	32.9514
17.372	32.919
17.39	32.8857
17.408	32.8517
17.426	32.817
17.444	32.7819
17.462	32.7466
17.48	32.7111
17.498	32.6759
17.516	32.6411
17.534	32.607
17.552	32.5737
17.57	32.5414
17.588	32.5102
17.606	32.48
17.624	32.4508
17.642	32.4223
17.66	32.3943
17.678	32.3664
17.696	32.3385
17.714	32.3101
17.732	32.2809
17.75	32.2506
17.768	32.2189
17.786	32.1856
17.804	32.1508
17.822	32.1144
17.84	32.0764
17.858	32.0366
17.876	31.9951
17.894	31.9515
17.912	31.9058
17.93	31.8577
17.948	31.8072
17.966	31.754
17.984	31.6979
18.002	31.6388
18.02	31.5769
18.038	31.5124
18.056	31.4461
18.074	31.3781
18.092	31.3104
18.11	31.243
18.128	31.1783
18.146	31.1168
18.164	31.0606
18.182	31.0106
18.2	30.9683
18.218	30.9347
18.236	30.9104
18.254	30.8964
18.272	30.8927
18.29	30.8992
18.308	30.9156
18.326	30.9408
18.344	30.9743
18.362	31.0144
18.38	31.0601
18.398	31.1096
18.416	31.1616
18.434	31.2145
18.452	31.267
18.47	31.318
18.488	31.3659
18.506	31.4101
18.524	31.4496
18.542	31.4841
18.56	31.513
18.578	31.5363
18.596	31.5543
18.614	31.5671
18.632	31.5754
18.65	31.5794
18.668	31.5804
18.686	31.5787
18.704	31.5758
18.722	31.5721
18.74	31.569
18.758	31.5667
18.776	31.5666
18.794	31.5687
18.812	31.5736
18.83	31.5813
18.848	31.5922
18.866	31.6059
18.884	31.6221
18.902	31.6401
18.92	31.6595
18.938	31.6794
18.956	31.6988
18.974	31.7171
18.992	31.7331
19.01	31.7465
19.028	31.756
19.046	31.7615
19.064	31.7622
19.082	31.7579
19.1	31.7483
19.118	31.7334
19.136	31.7132
19.154	31.688
19.172	31.658
19.19	31.6237
19.208	31.5861
19.226	31.5452
19.244	31.5023
19.262	31.4577
19.28	31.4126
19.298	31.3672
19.316	31.3233
19.334	31.2808
19.352	31.2413
19.37	31.2049
19.388	31.173
19.406	31.1455
19.424	31.1234
19.442	31.1067
19.46	31.0957
19.478	31.0907
19.496	31.0912
19.514	31.0972
19.532	31.1079
19.55	31.1228
19.568	31.141
19.586	31.1615
19.604	31.1837
19.622	31.2059
19.64	31.2281
19.658	31.2484
19.676	31.2671
19.694	31.2823
19.712	31.2944
19.73	31.3025
19.748	31.3066
19.766	31.3068
19.784	31.3029
19.802	31.2956
19.82	31.2851
19.838	31.2719
19.856	31.2566
19.874	31.2394
19.892	31.2211
19.91	31.2015
19.928	31.1811
19.946	31.1598
19.964	31.1372
19.982	31.1133
20	31.0872
20.018	31.0586
20.036	31.0268
20.054	30.9905
20.072	30.9498
20.09	30.903
20.108	30.8502
20.126	30.7904
20.144	30.7235
20.162	30.6493
20.18	30.5676
20.198	30.4791
20.216	30.3844
20.234	30.2837
20.252	30.1794
20.27	30.0709
20.288	29.9616
20.306	29.8512
20.324	29.7423
20.342	29.6366
20.36	29.5345
20.378	29.439
20.396	29.3493
20.414	29.2682
20.432	29.1955
20.45	29.1321
20.468	29.0786
20.486	29.0349
20.504	29.0012
20.522	28.9774
20.54	28.9622
20.558	28.9558
20.576	28.9566
20.594	28.9641
20.612	28.9777
20.63	28.9954
20.648	29.0175
20.666	29.0419
20.684	29.0689
20.702	29.0969
20.72	29.1249
20.738	29.153
20.756	29.18
20.774	29.2061
20.792	29.2305
20.81	29.2529
20.828	29.2736
20.846	29.2922
20.864	29.309
20.882	29.3239
20.9	29.3371
20.918	29.3486
20.936	29.3589
20.954	29.3678
20.972	29.3756
20.99	29.3823
21.008	29.3881
21.026	29.3929
21.044	29.3966
21.062	29.399
21.08	29.4004
21.098	29.4
21.116	29.3978
21.134	29.3937
21.152	29.3868
21.17	29.3774
21.188	29.3647
21.206	29.3485
21.224	29.3286
21.242	29.3045
21.26	29.2763
21.278	29.2439
21.296	29.2069
21.314	29.1658
21.332	29.121
21.35	29.0724
21.368	29.0213
21.386	28.9677
21.404	28.9124
21.422	28.8577
21.44	28.8026
21.458	28.7499
21.476	28.7005
21.494	28.6545
21.512	28.6153
21.53	28.582
21.548	28.5567
21.566	28.5407
21.584	28.5336
21.602	28.5372
21.62	28.5517
21.638	28.577
21.656	28.6136
21.674	28.6614
21.692	28.7195
21.71	28.788
21.728	28.8663
21.746	28.9523
21.764	29.0469
21.782	29.1475
21.8	29.2526
21.818	29.3628
21.836	29.4745
21.854	29.5879
21.872	29.7018
21.89	29.813
21.908	29.9227
21.926	30.0285
21.944	30.1287
21.962	30.2242
21.98	30.3124
21.998	30.3933
22.016	30.4666
22.034	30.5308
22.052	30.5863
22.07	30.6327
22.088	30.6695
22.106	30.697
22.124	30.7157
22.142	30.7255
22.16	30.7269
22.178	30.7208
22.196	30.7068
22.214	30.6861
22.232	30.6598
22.25	30.6275
22.268	30.5905
22.286	30.5498
22.304	30.5049
22.322	30.4576
22.34	30.4082
22.358	30.3567
22.376	30.3045
22.394	30.2513
22.412	30.1974
22.43	30.1437
22.448	30.09
22.466	30.0363
22.484	29.9828
22.502	29.9295
22.52	29.8762
22.538	29.823
22.556	29.7699
22.574	29.7166
22.592	29.6632
22.61	29.6096
22.628	29.5562
22.646	29.5027
22.664	29.4494
22.682	29.3969
22.7	29.3447
22.718	29.2936
22.736	29.2444
22.754	29.1964
22.772	29.1509
22.79	29.1091
22.808	29.0701
22.826	29.0356
22.844	29.0065
22.862	28.9822
22.88	28.9636
22.898	28.9512
22.916	28.9446
22.934	28.944
22.952	28.9495
22.97	28.9611
22.988	28.9776
23.006	28.9992
23.024	29.0258
23.042	29.0552
23.06	29.0876
23.078	29.1229
23.096	29.1589
23.114	29.1959
23.132	29.2336
23.15	29.2696
23.168	29.3043
23.186	29.3373
23.204	29.3657
23.222	29.3899
23.24	29.4098
23.258	29.4229
23.276	29.4293
23.294	29.4293
23.312	29.4226
23.33	29.4089
23.348	29.3886
23.366	29.3617
23.384	29.3283
23.402	29.2884
23.42	29.2421
23.438	29.1894
23.456	29.1304
23.474	29.0656
23.492	28.9949
23.51	28.9183
23.528	28.8369
23.546	28.7508
23.564	28.6597
23.582	28.5648
23.6	28.4663
23.618	28.3638
23.636	28.2586
23.654	28.1507
23.672	28.0399
23.69	27.9276
23.708	27.8148
23.726	27.7005
23.744	27.5868
23.762	27.4753
23.78	27.3646
23.798	27.2567
23.816	27.154
23.834	27.055
23.852	26.9613
23.87	26.8754
23.888	26.7967
23.906	26.7254
23.924	26.6638
23.942	26.6116
23.96	26.5687
23.978	26.5361
23.996	26.5145
24.014	26.5033
24.032	26.5025
24.05	26.5123
24.068	26.5326
24.086	26.5631
24.104	26.6034
24.122	26.6536
24.14	26.7135
24.158	26.7827
24.176	26.8612
24.194	26.949
24.212	27.0457
24.23	27.151
24.248	27.265
24.266	27.3887
24.284	27.5227
24.302	27.6665
24.32	27.8201
24.338	27.9836
24.356	28.1572
24.374	28.3403
24.392	28.5325
24.41	28.7354
24.428	28.9472
24.446	29.1639
24.464	29.3849
24.482	29.6121
24.5	29.8389
24.518	30.0603
24.536	30.2826
24.554	30.4976
24.572	30.6946
24.59	30.8779
24.608	31.0457
24.626	31.1861
24.644	31.2946
24.662	31.3779
24.68	31.425
24.698	31.4255
24.716	31.386
24.734	31.3025
24.752	31.1665
24.77	30.9768
24.788	30.7364
24.806	30.4423
24.824	30.0916
24.842	29.6846
24.86	29.2252
24.878	28.7176
24.896	28.1568
24.914	27.547
24.932	26.8996
24.95	26.2187
24.968	25.496
24.986	24.7472
25.004	23.9886
25.022	23.2091
25.04	22.4157
25.058	21.6284
25.076	20.8544
25.094	20.0818
25.112	19.328
25.13	18.6108
25.148	17.9207
25.166	17.2614
25.184	16.6474
25.202	16.0858
25.22	15.5679
25.238	15.1008
25.256	14.6924
25.274	14.342
25.292	14.0469
25.31	13.807
25.328	13.6236
25.346	13.4982
25.364	13.4241
25.382	13.3935
25.4	13.4113
25.418	13.4757
25.436	13.5744
25.454	13.6988
25.472	13.8589
25.49	14.0453
25.508	14.2441
25.526	14.4534
25.544	14.6798
25.562	14.912
25.58	15.1399
25.598	15.3682
25.616	15.5963
25.634	15.8179
25.652	16.0287
25.67	16.2318
25.688	16.4272
25.706	16.614
25.724	16.7905
25.742	16.9577
25.76	17.119
25.778	17.2775
25.796	17.4299
25.814	17.5783
25.832	17.728
25.85	17.8822
25.868	18.0371
25.886	18.1955
25.904	18.3613
25.922	18.536
25.94	18.7175
25.958	18.9063
25.976	19.1033
25.994	19.3105
26.012	19.526
26.03	19.7457
26.048	19.9663
26.066	20.193
26.084	20.4215
26.102	20.6441
26.12	20.8568
26.138	21.0674
26.156	21.2677
26.174	21.4476
26.192	21.6049
26.21	21.7466
26.228	21.8637
26.246	21.9463
26.264	21.995
26.282	22.014
26.3	21.9967
26.318	21.9367
26.336	21.8347
26.354	21.6931
26.372	21.5112
26.39	21.2882
26.408	21.0215
26.426	20.7144
26.444	20.3729
26.462	20.0008
26.48	19.5901
26.498	19.148
26.516	18.6862
26.534	18.212
26.552	17.7132
26.57	17.2
26.588	16.6868
26.606	16.1823
26.624	15.6732
26.642	15.1693
26.66	14.6837
26.678	14.223
26.696	13.7755
26.714	13.3503
26.732	12.9581
26.75	12.6047
26.768	12.2818
26.786	11.9935
26.804	11.7449
26.822	11.5386
26.84	11.3706
26.858	11.2425
26.876	11.1568
26.894	11.1145
26.912	11.114
26.93	11.1554
26.948	11.239
26.966	11.3818
26.984	11.608
27.002	11.8546
27.02	12.0533
27.028	12.1032