File: Bakgrunnsmateriale/MATLAB/FTIR/ftir_data/LPE453/Mapping_121/LPE453_t91.asc
PE IR       SPECTRUM    SPECTRUM    ASCII       PEDS        1.60
  -1
LPC7BD~1.ASC
17/05/16
21:52:49.00
17/05/16
21:53:16.00
tln
$LPE453_t0091$<tbV0>[7.8,7.8,8.0,0.0,27,1,0]
27.028
64

2002,4.07
MIRTGS : RIGHTBACK : INTERNAL 2
MIR : ON : INTERNAL 2
OPTKBR

0.200000
8
8.000000
FILLER
RATIO
SPECTRUM
UNLOCKED 256

DOUBLE
64
COMBINED
1
0
0

0.002000
RATIO

1
0
TRUE
51149
0
LEFT NOT FITTED RIGHT NOT FITTED 0
NONE
NONE
15600
12
4.427000
51148
TRUE
1 0 8 72 0 0 0 0

15798

#HDR
-1
-1
#GR
µM
%T
2.38419e-05
0.0
2.000000
0.002000
12515
8
35.9927
-8.822702
#DATA
2.000000	 -0.374388
2.018000	 -0.009868
2.036000	 0.386021
2.054000	 0.153727
2.072000	 -0.027952
2.090000	 0.141636
2.108000	 -0.082050
2.126000	 0.064581
2.144000	 -0.397282
2.162000	 0.946627
2.180000	 -0.534489
2.198000	 0.297788
2.216000	 -2.474986
2.234000	 -1.038839
2.252000	 0.037939
2.270000	 -0.062906
2.288000	 -0.079856
2.306000	 0.330601
2.324000	 -0.029060
2.342000	 0.272017
2.360000	 0.243744
2.378000	 0.353514
2.396000	 0.156375
2.414000	 0.022638
2.432000	 0.224801
2.450000	 0.263752
2.468000	 -0.127880
2.486000	 0.163998
2.504000	 0.401063
2.522000	 -0.106796
2.540000	 0.047114
2.558000	 0.206589
2.576000	 0.158190
2.594000	 0.106585
2.612000	 0.111478
2.630000	 0.180243
2.648000	 0.127527
2.666000	 -0.108863
2.684000	 0.126514
2.702000	 -0.093603
2.720000	 0.143399
2.738000	 0.055329
2.756000	 0.062321
2.774000	 0.074765
2.792000	 0.014772
2.810000	 0.008609
2.828000	 0.022760
2.846000	 0.142001
2.864000	 -0.075123
2.882000	 -0.006789
2.900000	 -0.019445
2.918000	 -0.027277
2.936000	 0.116078
2.954000	 0.107140
2.972000	 -0.004989
2.990000	 0.054236
3.008000	 -0.059064
3.026000	 0.009133
3.044000	 0.001151
3.062000	 0.108573
3.080000	 0.079303
3.098000	 0.111325
3.116000	 0.191393
3.134000	 0.179758
3.152000	 0.000515
3.170000	 0.033412
3.188000	 0.089007
3.206000	 -0.102505
3.224000	 0.170373
3.242000	 0.047478
3.260000	 -0.041273
3.278000	 0.145428
3.296000	 0.108355
3.314000	 0.024032
3.332000	 0.073835
3.350000	 -0.049106
3.368000	 -0.046626
3.386000	 0.057553
3.404000	 0.094830
3.422000	 -0.031192
3.440000	 -0.069552
3.458000	 0.129847
3.476000	 0.082946
3.494000	 0.128345
3.512000	 -0.007376
3.530000	 -0.020899
3.548000	 -0.014139
3.566000	 0.046750
3.584000	 0.091723
3.602000	 0.015330
3.620000	 0.040271
3.638000	 -0.000173
3.656000	 0.055716
3.674000	 0.043558
3.692000	 0.056630
3.710000	 0.008535
3.728000	 -0.039835
3.746000	 0.042946
3.764000	 0.160252
3.782000	 -0.000893
3.800000	 -0.080036
3.818000	 0.201816
3.836000	 0.005564
3.854000	 0.059066
3.872000	 0.017413
3.890000	 0.001626
3.908000	 -0.002304
3.926000	 0.001681
3.944000	 0.071271
3.962000	 0.040479
3.980000	 -0.028381
3.998000	 0.042065
4.016000	 0.032217
4.034000	 -0.090866
4.052000	 0.108683
4.070000	 -0.012951
4.088000	 0.029431
4.106000	 0.136205
4.124000	 -0.030744
4.141999	 -0.127373
4.160000	 0.070488
4.178000	 0.067857
4.196000	 0.054986
4.214000	 0.137560
4.232000	 0.181365
4.250000	 0.143972
4.268000	 0.231396
4.286000	 0.135810
4.304000	 0.273477
4.322000	 0.349179
4.340000	 0.481439
4.358000	 0.591509
4.375999	 0.669874
4.394000	 0.905829
4.412000	 1.137861
4.430000	 1.364236
4.448000	 1.686275
4.466000	 1.920284
4.484000	 2.345630
4.502000	 2.779253
4.520000	 3.343027
4.538000	 3.858256
4.556000	 4.445316
4.574000	 5.171978
4.592000	 5.882289
4.609999	 6.746593
4.628000	 7.601976
4.646000	 8.665152
4.664000	 9.522574
4.682000	 10.5107
4.700000	 11.5205
4.718000	 12.5714
4.736000	 13.6426
4.754000	 14.6412
4.772000	 15.6503
4.790000	 16.687
4.808000	 17.7461
4.826000	 18.6145
4.843999	 19.6154
4.862000	 20.4228
4.880000	 21.2888
4.898000	 22.1578
4.916000	 23.0464
4.934000	 23.8156
4.952000	 24.6322
4.970000	 25.3889
4.988000	 25.9802
5.006000	 26.593
5.024000	 27.1077
5.042000	 27.7963
5.060000	 28.2946
5.077999	 28.7785
5.096000	 29.2889
5.114000	 29.729
5.132000	 30.1776
5.150000	 30.4831
5.168000	 30.8324
5.186000	 31.2072
5.204000	 31.4459
5.222000	 31.7061
5.240000	 32.0669
5.258000	 32.2746
5.276000	 32.5705
5.294000	 32.8108
5.312000	 32.9539
5.330000	 33.1198
5.348000	 33.2648
5.366000	 33.4711
5.384000	 33.6384
5.402000	 33.7991
5.420000	 33.9241
5.438000	 34.1204
5.456000	 34.3173
5.474000	 34.4041
5.492000	 34.4293
5.510000	 34.5133
5.528000	 34.6341
5.546000	 34.6661
5.564000	 34.7705
5.582000	 34.8572
5.600000	 34.9117
5.618000	 34.9862
5.636000	 35.0743
5.654000	 35.118
5.672000	 35.1337
5.690000	 35.1937
5.708000	 35.1681
5.726000	 35.2082
5.744000	 35.3182
5.762000	 35.3655
5.780000	 35.4239
5.798000	 35.5271
5.816000	 35.5204
5.834000	 35.4812
5.852000	 35.4802
5.870000	 35.5267
5.888000	 35.6097
5.906000	 35.6246
5.923999	 35.6852
5.942000	 35.683
5.960000	 35.6466
5.978000	 35.6948
5.996000	 35.7135
6.014000	 35.728
6.032000	 35.7445
6.050000	 35.7395
6.068000	 35.7602
6.086000	 35.7889
6.104000	 35.8053
6.122000	 35.7903
6.140000	 35.8161
6.158000	 35.8444
6.176000	 35.7973
6.194000	 35.7822
6.212000	 35.8731
6.230000	 35.988
6.248000	 35.9409
6.266000	 35.8596
6.284000	 35.8432
6.302000	 35.8788
6.320000	 35.9187
6.338000	 35.8787
6.356000	 35.8731
6.374000	 35.8755
6.392000	 35.8858
6.410000	 35.8858
6.428000	 35.8523
6.446000	 35.7725
6.464000	 35.6943
6.482000	 35.7187
6.500000	 35.7919
6.518000	 35.8305
6.536000	 35.8293
6.554000	 35.8418
6.572000	 35.8934
6.590000	 35.9322
6.608000	 35.8692
6.626000	 35.7711
6.644000	 35.7526
6.662000	 35.7462
6.680000	 35.7074
6.698000	 35.7046
6.716000	 35.6997
6.734000	 35.6832
6.752000	 35.7186
6.770000	 35.7704
6.788000	 35.8133
6.806000	 35.8461
6.824000	 35.8143
6.842000	 35.7291
6.860000	 35.6952
6.878000	 35.7162
6.896000	 35.6943
6.914000	 35.6227
6.932000	 35.5572
6.950000	 35.5321
6.968000	 35.5768
6.986000	 35.6681
7.004000	 35.6968
7.022000	 35.6243
7.040000	 35.5493
7.058000	 35.5319
7.076000	 35.5453
7.094000	 35.5593
7.112000	 35.5686
7.130000	 35.5751
7.148000	 35.5721
7.166000	 35.5808
7.184000	 35.6201
7.202000	 35.635
7.220000	 35.5876
7.238000	 35.5282
7.256000	 35.4934
7.274000	 35.4484
7.292000	 35.3814
7.310000	 35.3479
7.328000	 35.3856
7.346000	 35.4639
7.364000	 35.5163
7.382000	 35.5026
7.400000	 35.4553
7.418000	 35.4224
7.436000	 35.4108
7.454000	 35.416
7.472000	 35.4287
7.490000	 35.4353
7.508000	 35.4514
7.526000	 35.4884
7.544000	 35.5041
7.562000	 35.46
7.580000	 35.4024
7.598000	 35.4075
7.616000	 35.4572
7.634000	 35.4551
7.652000	 35.3707
7.670000	 35.2839
7.688000	 35.2658
7.706000	 35.2992
7.724000	 35.3355
7.742000	 35.357
7.760000	 35.3565
7.778000	 35.3246
7.796000	 35.2805
7.814000	 35.2579
7.832000	 35.2579
7.850000	 35.2605
7.868000	 35.2584
7.886000	 35.2508
7.904000	 35.2413
7.922000	 35.2455
7.940000	 35.2633
7.958000	 35.265
7.976000	 35.2399
7.994000	 35.2144
8.012000	 35.2032
8.030000	 35.1942
8.048000	 35.1871
8.065999	 35.1916
8.084000	 35.1951
8.102000	 35.1771
8.120000	 35.1423
8.138000	 35.1074
8.155999	 35.078
8.173999	 35.0605
8.192000	 35.0648
8.210000	 35.077
8.228000	 35.0659
8.246000	 35.0276
8.263999	 34.9907
8.282000	 34.9726
8.300000	 34.9602
8.318000	 34.9422
8.336000	 34.9297
8.353999	 34.9395
8.372000	 34.9676
8.390000	 34.9862
8.408000	 34.973
8.426000	 34.9326
8.443999	 34.8809
8.462000	 34.841
8.480000	 34.8452
8.498000	 34.9045
8.516000	 34.9836
8.533999	 35.0277
8.552000	 35.0163
8.570000	 34.9791
8.588000	 34.9565
8.606000	 34.9551
8.624000	 34.9545
8.641999	 34.9475
8.660000	 34.945
8.678000	 34.9439
8.696000	 34.9152
8.714000	 34.8392
8.731999	 34.7335
8.750000	 34.6384
8.768000	 34.5813
8.786000	 34.5662
8.804000	 34.582
8.821999	 34.6124
8.840000	 34.6448
8.858000	 34.6784
8.876000	 34.7206
8.894000	 34.7701
8.911999	 34.8078
8.930000	 34.816
8.948000	 34.8027
8.966000	 34.7999
8.984000	 34.8316
9.001999	 34.8886
9.020000	 34.9325
9.038000	 34.9268
9.056000	 34.8665
9.074000	 34.7789
9.092000	 34.7003
9.109999	 34.6519
9.128000	 34.633
9.146000	 34.631
9.164000	 34.633
9.182000	 34.6335
9.199999	 34.6342
9.218000	 34.6404
9.236000	 34.6523
9.254000	 34.6588
9.272000	 34.6425
9.289999	 34.5958
9.308000	 34.531
9.326000	 34.4733
9.344000	 34.4396
9.362000	 34.4265
9.379999	 34.4152
9.398000	 34.3906
9.416000	 34.3521
9.434000	 34.3092
9.452000	 34.2709
9.469999	 34.2393
9.488000	 34.2133
9.506000	 34.1934
9.524000	 34.1826
9.542000	 34.1825
9.560000	 34.1907
9.577999	 34.2027
9.596000	 34.2155
9.614000	 34.2266
9.632000	 34.2314
9.650000	 34.2213
9.667999	 34.1881
9.686000	 34.1316
9.704000	 34.0648
9.722000	 34.0103
9.740000	 33.9899
9.757999	 34.0103
9.776000	 34.055
9.794000	 34.0899
9.812000	 34.0821
9.830000	 34.0233
9.847999	 33.9372
9.866000	 33.8636
9.884000	 33.8316
9.902000	 33.8421
9.920000	 33.871
9.937999	 33.8926
9.956000	 33.9004
9.974000	 33.9056
9.992000	 33.9221
10.01	33.9511
10.028	33.98
10.046	33.9946
10.064	33.9897
10.082	33.9705
10.1	33.9476
10.118	33.9318
10.136	33.9295
10.154	33.9416
10.172	33.961
10.19	33.9701
10.208	33.9485
10.226	33.8845
10.244	33.7849
10.262	33.6768
10.28	33.5918
10.298	33.5516
10.316	33.5576
10.334	33.5919
10.352	33.6303
10.37	33.6536
10.388	33.6587
10.406	33.6544
10.424	33.6535
10.442	33.6631
10.46	33.6797
10.478	33.6915
10.496	33.6856
10.514	33.6555
10.532	33.6036
10.55	33.5388
10.568	33.4716
10.586	33.409
10.604	33.3535
10.622	33.3043
10.64	33.2596
10.658	33.219
10.676	33.1848
10.694	33.1607
10.712	33.1491
10.73	33.1491
10.748	33.1558
10.766	33.1633
10.784	33.1674
10.802	33.1666
10.82	33.161
10.838	33.1505
10.856	33.1338
10.874	33.1092
10.892	33.0758
10.91	33.0347
10.928	32.9887
10.946	32.9419
10.964	32.8985
10.982	32.8629
11	32.8388
11.018	32.829
11.036	32.8333
11.054	32.8473
11.072	32.8634
11.09	32.8736
11.108	32.8728
11.126	32.8602
11.144	32.8384
11.162	32.8118
11.18	32.7841
11.198	32.7584
11.216	32.7362
11.234	32.7188
11.252	32.7071
11.27	32.7012
11.288	32.6996
11.306	32.6997
11.324	32.699
11.342	32.695
11.36	32.6873
11.378	32.6754
11.396	32.659
11.414	32.6373
11.432	32.61
11.45	32.5786
11.468	32.5472
11.486	32.5208
11.504	32.5035
11.522	32.4965
11.54	32.4978
11.558	32.5019
11.576	32.5027
11.594	32.4961
11.612	32.481
11.63	32.4602
11.648	32.4383
11.666	32.419
11.684	32.4033
11.702	32.3884
11.72	32.3691
11.738	32.3415
11.756	32.305
11.774	32.2631
11.792	32.2221
11.81	32.1883
11.828	32.1646
11.846	32.1489
11.864	32.135
11.882	32.1155
11.9	32.0847
11.918	32.0418
11.936	31.9911
11.954	31.9396
11.972	31.8947
11.99	31.861
12.008	31.8385
12.026	31.823
12.044	31.808
12.062	31.7866
12.08	31.7546
12.098	31.711
12.116	31.6588
12.134	31.6041
12.152	31.5543
12.17	31.5166
12.188	31.4966
12.206	31.497
12.224	31.5178
12.242	31.5566
12.26	31.6089
12.278	31.6693
12.296	31.7312
12.314	31.788
12.332	31.8342
12.35	31.8664
12.368	31.8835
12.386	31.8872
12.404	31.8814
12.422	31.871
12.44	31.861
12.458	31.8548
12.476	31.8537
12.494	31.8569
12.512	31.8614
12.53	31.8628
12.548	31.8565
12.566	31.8385
12.584	31.8068
12.602	31.7622
12.62	31.7077
12.638	31.6489
12.656	31.5927
12.674	31.546
12.692	31.5138
12.71	31.4982
12.728	31.4982
12.746	31.5089
12.764	31.5239
12.782	31.5366
12.8	31.5415
12.818	31.5358
12.836	31.5195
12.854	31.4956
12.872	31.4681
12.89	31.4414
12.908	31.4193
12.926	31.4033
12.944	31.393
12.962	31.385
12.98	31.3745
12.998	31.3561
13.016	31.325
13.034	31.2787
13.052	31.2173
13.07	31.1446
13.088	31.0674
13.106	30.9938
13.124	30.9324
13.142	30.8901
13.16	30.8702
13.178	30.8717
13.196	30.89
13.214	30.9175
13.232	30.9455
13.25	30.9666
13.268	30.9752
13.286	30.9693
13.304	30.9496
13.322	30.9193
13.34	30.8821
13.358	30.8421
13.376	30.8026
13.394	30.7657
13.412	30.7329
13.43	30.7049
13.448	30.6825
13.466	30.6667
13.484	30.6588
13.502	30.6605
13.52	30.6733
13.538	30.6975
13.556	30.7323
13.574	30.7758
13.592	30.8245
13.61	30.8742
13.628	30.92
13.646	30.957
13.664	30.981
13.682	30.9889
13.7	30.9788
13.718	30.9504
13.736	30.9052
13.754	30.8457
13.772	30.7761
13.79	30.7012
13.808	30.6262
13.826	30.5565
13.844	30.4966
13.862	30.4501
13.88	30.419
13.898	30.4033
13.916	30.401
13.934	30.4078
13.952	30.4182
13.97	30.4253
13.988	30.4225
14.006	30.4041
14.024	30.3665
14.042	30.309
14.06	30.2338
14.078	30.1459
14.096	30.052
14.114	29.9594
14.132	29.8752
14.15	29.8045
14.168	29.7505
14.186	29.7133
14.204	29.6905
14.222	29.678
14.24	29.6706
14.258	29.6641
14.276	29.655
14.294	29.6418
14.312	29.6251
14.33	29.607
14.348	29.5908
14.366	29.5797
14.384	29.5763
14.402	29.5813
14.42	29.5939
14.438	29.6118
14.456	29.6316
14.474	29.6497
14.492	29.6631
14.51	29.6697
14.528	29.6696
14.546	29.6643
14.564	29.6566
14.582	29.6501
14.6	29.6479
14.618	29.653
14.636	29.667
14.654	29.6897
14.672	29.7201
14.69	29.7561
14.708	29.7949
14.726	29.8336
14.744	29.8689
14.762	29.8989
14.78	29.9221
14.798	29.9374
14.816	29.9443
14.834	29.9419
14.852	29.9305
14.87	29.9096
14.888	29.8793
14.906	29.8396
14.924	29.7905
14.942	29.7333
14.96	29.6692
14.978	29.6
14.996	29.5275
15.014	29.4537
15.032	29.3813
15.05	29.3118
15.068	29.2463
15.086	29.1854
15.104	29.1289
15.122	29.0761
15.14	29.026
15.158	28.978
15.176	28.9314
15.194	28.8861
15.212	28.8423
15.23	28.8008
15.248	28.7625
15.266	28.7287
15.284	28.7004
15.302	28.6783
15.32	28.6626
15.338	28.653
15.356	28.649
15.374	28.649
15.392	28.6517
15.41	28.6555
15.428	28.6589
15.446	28.6608
15.464	28.6605
15.482	28.6578
15.5	28.6531
15.518	28.6476
15.536	28.6433
15.554	28.6417
15.572	28.6449
15.59	28.6549
15.608	28.6726
15.626	28.6986
15.644	28.7326
15.662	28.773
15.68	28.8176
15.698	28.8639
15.716	28.9081
15.734	28.9467
15.752	28.977
15.77	28.9966
15.788	29.0035
15.806	28.9977
15.824	28.9797
15.842	28.951
15.86	28.9145
15.878	28.8729
15.896	28.8286
15.914	28.785
15.932	28.7437
15.95	28.7059
15.968	28.6726
15.986	28.6435
16.004	28.6181
16.022	28.5954
16.04	28.5745
16.058	28.5547
16.076	28.5355
16.094	28.5169
16.112	28.4994
16.13	28.4833
16.148	28.4696
16.166	28.4589
16.184	28.4514
16.202	28.4475
16.22	28.4465
16.238	28.4474
16.256	28.4491
16.274	28.4492
16.292	28.446
16.31	28.438
16.328	28.4229
16.346	28.3998
16.364	28.3682
16.382	28.3277
16.4	28.2792
16.418	28.2233
16.436	28.162
16.454	28.0972
16.472	28.0305
16.49	27.9647
16.508	27.9021
16.526	27.8443
16.544	27.7936
16.562	27.7511
16.58	27.7178
16.598	27.6944
16.616	27.6806
16.634	27.6763
16.652	27.68
16.67	27.6904
16.688	27.7062
16.706	27.7246
16.724	27.7445
16.742	27.7639
16.76	27.7807
16.778	27.7941
16.796	27.8027
16.814	27.8059
16.832	27.8033
16.85	27.7949
16.868	27.7811
16.886	27.7621
16.904	27.7389
16.922	27.7119
16.94	27.682
16.958	27.6502
16.976	27.6169
16.994	27.5833
17.012	27.5499
17.03	27.5174
17.048	27.4869
17.066	27.4589
17.084	27.4342
17.102	27.4137
17.12	27.3979
17.138	27.3877
17.156	27.3833
17.174	27.3849
17.192	27.3925
17.21	27.4056
17.228	27.4235
17.246	27.4449
17.264	27.469
17.282	27.4932
17.3	27.5167
17.318	27.537
17.336	27.5527
17.354	27.5625
17.372	27.5647
17.39	27.5589
17.408	27.544
17.426	27.5204
17.444	27.4881
17.462	27.4484
17.48	27.4019
17.498	27.3507
17.516	27.2963
17.534	27.24
17.552	27.1843
17.57	27.1299
17.588	27.0788
17.606	27.0314
17.624	26.9889
17.642	26.9514
17.66	26.9192
17.678	26.8916
17.696	26.8684
17.714	26.8487
17.732	26.8318
17.75	26.8172
17.768	26.8039
17.786	26.7919
17.804	26.7802
17.822	26.769
17.84	26.7581
17.858	26.7474
17.876	26.7372
17.894	26.7275
17.912	26.7187
17.93	26.7106
17.948	26.7033
17.966	26.6968
17.984	26.6912
18.002	26.6862
18.02	26.682
18.038	26.6785
18.056	26.6755
18.074	26.673
18.092	26.6712
18.11	26.6701
18.128	26.67
18.146	26.6708
18.164	26.6728
18.182	26.676
18.2	26.6804
18.218	26.6856
18.236	26.6917
18.254	26.6978
18.272	26.7036
18.29	26.7078
18.308	26.7101
18.326	26.7089
18.344	26.7039
18.362	26.6934
18.38	26.6774
18.398	26.6547
18.416	26.6253
18.434	26.5889
18.452	26.5458
18.47	26.4963
18.488	26.4416
18.506	26.3821
18.524	26.3197
18.542	26.2549
18.56	26.1902
18.578	26.1259
18.596	26.0644
18.614	26.0059
18.632	25.9521
18.65	25.9029
18.668	25.8591
18.686	25.8206
18.704	25.7872
18.722	25.7587
18.74	25.7339
18.758	25.7125
18.776	25.6928
18.794	25.6743
18.812	25.6553
18.83	25.6354
18.848	25.6131
18.866	25.5883
18.884	25.5601
18.902	25.5286
18.92	25.4935
18.938	25.4554
18.956	25.4144
18.974	25.3714
18.992	25.3272
19.01	25.2826
19.028	25.2386
19.046	25.1958
19.064	25.1555
19.082	25.1178
19.1	25.0838
19.118	25.0536
19.136	25.0276
19.154	25.0058
19.172	24.9882
19.19	24.9746
19.208	24.9644
19.226	24.9576
19.244	24.9532
19.262	24.951
19.28	24.9499
19.298	24.9498
19.316	24.9493
19.334	24.9484
19.352	24.9458
19.37	24.9416
19.388	24.9345
19.406	24.9246
19.424	24.9114
19.442	24.8949
19.46	24.8753
19.478	24.8523
19.496	24.8272
19.514	24.7999
19.532	24.7717
19.55	24.7432
19.568	24.7156
19.586	24.6901
19.604	24.6673
19.622	24.6489
19.64	24.6349
19.658	24.627
19.676	24.6251
19.694	24.6298
19.712	24.6412
19.73	24.6589
19.748	24.683
19.766	24.7121
19.784	24.7464
19.802	24.7842
19.82	24.825
19.838	24.8676
19.856	24.9103
19.874	24.953
19.892	24.9937
19.91	25.0326
19.928	25.0681
19.946	25.1003
19.964	25.1287
19.982	25.1531
20	25.1738
20.018	25.1906
20.036	25.2042
20.054	25.2151
20.072	25.2235
20.09	25.2305
20.108	25.2361
20.126	25.2414
20.144	25.2464
20.162	25.2516
20.18	25.2573
20.198	25.2634
20.216	25.2703
20.234	25.2777
20.252	25.2853
20.27	25.2932
20.288	25.3007
20.306	25.3078
20.324	25.3139
20.342	25.3187
20.36	25.3221
20.378	25.3233
20.396	25.3226
20.414	25.3193
20.432	25.3134
20.45	25.305
20.468	25.294
20.486	25.2806
20.504	25.265
20.522	25.2472
20.54	25.2281
20.558	25.2076
20.576	25.1862
20.594	25.1643
20.612	25.1419
20.63	25.1198
20.648	25.098
20.666	25.0763
20.684	25.0549
20.702	25.0334
20.72	25.0117
20.738	24.9895
20.756	24.9655
20.774	24.94
20.792	24.9117
20.81	24.8802
20.828	24.8451
20.846	24.8052
20.864	24.7608
20.882	24.7111
20.9	24.6561
20.918	24.5961
20.936	24.5312
20.954	24.4616
20.972	24.3891
20.99	24.313
21.008	24.2356
21.026	24.1574
21.044	24.079
21.062	24.0029
21.08	23.9284
21.098	23.8575
21.116	23.7908
21.134	23.7284
21.152	23.6717
21.17	23.6201
21.188	23.5738
21.206	23.5328
21.224	23.4966
21.242	23.4641
21.26	23.4358
21.278	23.4096
21.296	23.3853
21.314	23.3623
21.332	23.3388
21.35	23.3152
21.368	23.2904
21.386	23.2637
21.404	23.2356
21.422	23.2057
21.44	23.174
21.458	23.1414
21.476	23.1079
21.494	23.0741
21.512	23.0417
21.53	23.0102
21.548	22.9813
21.566	22.9561
21.584	22.9343
21.602	22.9177
21.62	22.9066
21.638	22.9008
21.656	22.901
21.674	22.907
21.692	22.918
21.71	22.9342
21.728	22.9552
21.746	22.9792
21.764	23.0069
21.782	23.0366
21.8	23.067
21.818	23.0986
21.836	23.1288
21.854	23.1578
21.872	23.185
21.89	23.2085
21.908	23.2291
21.926	23.2457
21.944	23.2577
21.962	23.2653
21.98	23.2687
21.998	23.2676
22.016	23.2625
22.034	23.254
22.052	23.2417
22.07	23.2269
22.088	23.2108
22.106	23.1927
22.124	23.1747
22.142	23.1569
22.16	23.1396
22.178	23.1251
22.196	23.1127
22.214	23.1036
22.232	23.0991
22.25	23.0987
22.268	23.1034
22.286	23.1139
22.304	23.1297
22.322	23.1512
22.34	23.1787
22.358	23.2117
22.376	23.2496
22.394	23.2929
22.412	23.3407
22.43	23.392
22.448	23.4474
22.466	23.5053
22.484	23.5645
22.502	23.6256
22.52	23.6864
22.538	23.746
22.556	23.8048
22.574	23.8607
22.592	23.9135
22.61	23.963
22.628	24.0076
22.646	24.0473
22.664	24.0819
22.682	24.1106
22.7	24.1334
22.718	24.1503
22.736	24.1607
22.754	24.1648
22.772	24.1626
22.79	24.1537
22.808	24.1385
22.826	24.1166
22.844	24.0878
22.862	24.0523
22.88	24.0103
22.898	23.9623
22.916	23.908
22.934	23.8479
22.952	23.7824
22.97	23.7112
22.988	23.6345
23.006	23.5521
23.024	23.4641
23.042	23.3709
23.06	23.272
23.078	23.168
23.096	23.0603
23.114	22.9485
23.132	22.8332
23.15	22.7168
23.168	22.5989
23.186	22.48
23.204	22.3626
23.222	22.2458
23.24	22.1307
23.258	22.0202
23.276	21.9134
23.294	21.8112
23.312	21.7177
23.33	21.6323
23.348	21.5553
23.366	21.4898
23.384	21.4359
23.402	21.3932
23.42	21.3621
23.438	21.343
23.456	21.3353
23.474	21.3382
23.492	21.352
23.51	21.3764
23.528	21.4094
23.546	21.4512
23.564	21.5018
23.582	21.5581
23.6	21.6195
23.618	21.6869
23.636	21.7563
23.654	21.8256
23.672	21.8965
23.69	21.9662
23.708	22.0328
23.726	22.0974
23.744	22.159
23.762	22.2162
23.78	22.2692
23.798	22.3187
23.816	22.365
23.834	22.4073
23.852	22.4469
23.87	22.4856
23.888	22.5222
23.906	22.558
23.924	22.5957
23.942	22.6352
23.96	22.6765
23.978	22.7214
23.996	22.7711
24.014	22.8245
24.032	22.8824
24.05	22.9456
24.068	23.0142
24.086	23.086
24.104	23.1594
24.122	23.2367
24.14	23.3141
24.158	23.3867
24.176	23.4579
24.194	23.5246
24.212	23.5785
24.23	23.6197
24.248	23.6498
24.266	23.6599
24.284	23.6455
24.302	23.6117
24.32	23.5512
24.338	23.4568
24.356	23.3326
24.374	23.1764
24.392	22.9833
24.41	22.7534
24.428	22.488
24.446	22.186
24.464	21.8456
24.482	21.4672
24.5	21.0562
24.518	20.6163
24.536	20.1432
24.554	19.6427
24.572	19.1229
24.59	18.5802
24.608	18.0166
24.626	17.4421
24.644	16.8609
24.662	16.2678
24.68	15.6704
24.698	15.0757
24.716	14.4792
24.734	13.884
24.752	13.2965
24.77	12.7178
24.788	12.1458
24.806	11.582
24.824	11.0279
24.842	10.4835
24.86	9.946779
24.878	9.416020
24.896	8.893299
24.914	8.376985
24.932	7.862270
24.95	7.347106
24.968	6.834698
24.986	6.320230
25.004	5.798604
25.022	5.271913
25.04	4.739672
25.058	4.198492
25.076	3.646290
25.094	3.084721
25.112	2.514101
25.13	1.934469
25.148	1.343580
25.166	0.744190
25.184	0.140966
25.202	-0.464973
25.22	-1.076977
25.238	-1.688336
25.256	-2.292271
25.274	-2.894732
25.292	-3.491962
25.31	-4.072872
25.328	-4.632116
25.346	-5.178203
25.364	-5.700719
25.382	-6.187629
25.4	-6.642351
25.418	-7.066114
25.436	-7.449064
25.454	-7.783593
25.472	-8.075689
25.49	-8.323003
25.508	-8.520996
25.526	-8.667442
25.544	-8.764931
25.562	-8.814925
25.58	-8.818533
25.598	-8.771990
25.616	-8.679498
25.634	-8.548522
25.652	-8.382050
25.67	-8.172564
25.688	-7.931489
25.706	-7.672104
25.724	-7.392202
25.742	-7.087676
25.76	-6.774015
25.778	-6.465307
25.796	-6.150946
25.814	-5.835774
25.832	-5.534432
25.85	-5.256476
25.868	-4.991360
25.886	-4.745934
25.904	-4.529718
25.922	-4.345917
25.94	-4.189257
25.958	-4.062328
25.976	-3.967883
25.994	-3.908438
26.012	-3.880871
26.03	-3.880137
26.048	-3.902353
26.066	-3.954123
26.084	-4.029545
26.102	-4.118643
26.12	-4.216174
26.138	-4.331946
26.156	-4.455605
26.174	-4.574253
26.192	-4.684635
26.21	-4.795709
26.228	-4.896399
26.246	-4.974951
26.264	-5.031956
26.282	-5.072331
26.3	-5.087989
26.318	-5.070999
26.336	-5.023106
26.354	-4.946435
26.372	-4.838357
26.39	-4.696231
26.408	-4.518596
26.426	-4.308632
26.444	-4.070333
26.462	-3.806754
26.48	-3.513505
26.498	-3.193993
26.516	-2.853969
26.534	-2.496649
26.552	-2.114109
26.57	-1.714515
26.588	-1.308910
26.606	-0.903025
26.624	-0.485130
26.642	-0.066252
26.66	0.339614
26.678	0.726043
26.696	1.106371
26.714	1.468503
26.732	1.797857
26.75	2.087653
26.768	2.350048
26.786	2.576254
26.804	2.755743
26.822	2.883863
26.84	2.969361
26.858	3.006303
26.876	2.987653
26.894	2.909618
26.912	2.777408
26.93	2.589664
26.948	2.344433
26.966	2.011733
26.984	1.550561
27.002	1.069177
27.02	0.684940
27.028	0.586509