File: Bakgrunnsmateriale/MATLAB/FTIR/ftir_data/LPE453/Mapping_121/LPE453_t04.asc
PE IR       SPECTRUM    SPECTRUM    ASCII       PEDS        1.60
  -1
LPD399~1.ASC
17/05/16
14:41:52.00
17/05/16
14:42:18.00
tln
$LPE453_t0004$<tbV0>[5.2,-13.0,8.0,0.0,27,1,0]
27.028
64

2002,4.07
MIRTGS : RIGHTBACK : INTERNAL 2
MIR : ON : INTERNAL 2
OPTKBR

0.200000
8
8.000000
FILLER
RATIO
SPECTRUM
UNLOCKED 256

DOUBLE
64
COMBINED
1
0
0

0.002000
RATIO

1
0
TRUE
51149
0
LEFT NOT FITTED RIGHT NOT FITTED 0
NONE
NONE
15600
12
4.427000
51148
TRUE
1 0 8 72 0 0 0 0

15798

#HDR
-1
-1
#GR
µM
%T
2.38419e-05
0.0
2.000000
0.002000
12515
8
33.9953
-7.844638
#DATA
2.000000	 0.331711
2.018000	 -0.313716
2.036000	 -0.146257
2.054000	 0.098022
2.072000	 -0.220747
2.090000	 0.225323
2.108000	 0.350722
2.126000	 0.351954
2.144000	 0.467292
2.162000	 -1.210444
2.180000	 -0.384157
2.198000	 -1.308416
2.216000	 -1.067598
2.234000	 0.445606
2.252000	 0.388248
2.270000	 -0.122614
2.288000	 0.101835
2.306000	 0.073973
2.324000	 0.013793
2.342000	 0.013329
2.360000	 -0.152288
2.378000	 -0.021475
2.396000	 0.198178
2.414000	 0.131974
2.432000	 0.020320
2.450000	 0.030332
2.468000	 0.193849
2.486000	 -0.033924
2.504000	 -0.104735
2.522000	 -0.012872
2.540000	 0.104214
2.558000	 0.055666
2.576000	 0.035533
2.594000	 -0.035322
2.612000	 0.145531
2.630000	 0.038712
2.648000	 0.098179
2.666000	 0.047866
2.684000	 0.104816
2.702000	 0.009577
2.720000	 0.033858
2.738000	 0.044973
2.756000	 0.009729
2.774000	 0.184170
2.792000	 0.007465
2.810000	 -0.188671
2.828000	 0.067519
2.846000	 -0.023518
2.864000	 0.066307
2.882000	 0.143848
2.900000	 0.081101
2.918000	 0.044710
2.936000	 0.017979
2.954000	 0.091006
2.972000	 -0.013497
2.990000	 0.106942
3.008000	 -0.063622
3.026000	 -0.046676
3.044000	 0.039887
3.062000	 0.156650
3.080000	 0.092671
3.098000	 -0.099209
3.116000	 0.137003
3.134000	 -0.009411
3.152000	 0.114451
3.170000	 -0.050123
3.188000	 0.123114
3.206000	 0.061592
3.224000	 0.008644
3.242000	 0.240569
3.260000	 0.092138
3.278000	 0.014708
3.296000	 -0.025714
3.314000	 0.074800
3.332000	 0.181780
3.350000	 0.054494
3.368000	 0.054674
3.386000	 0.017580
3.404000	 0.076281
3.422000	 0.131287
3.440000	 0.132969
3.458000	 0.083822
3.476000	 -0.083191
3.494000	 0.064914
3.512000	 -0.096716
3.530000	 0.007417
3.548000	 -0.000583
3.566000	 0.021470
3.584000	 0.038346
3.602000	 0.012238
3.620000	 0.022118
3.638000	 0.023146
3.656000	 0.112113
3.674000	 0.065471
3.692000	 -0.052168
3.710000	 -0.009464
3.728000	 0.003082
3.746000	 -0.005440
3.764000	 0.001433
3.782000	 0.175180
3.800000	 -0.004205
3.818000	 0.147238
3.836000	 0.112864
3.854000	 -0.006964
3.872000	 -0.093056
3.890000	 0.064527
3.908000	 -0.001149
3.926000	 0.003793
3.944000	 0.081451
3.962000	 0.069046
3.980000	 0.051580
3.998000	 -0.022142
4.016000	 0.231718
4.034000	 0.013480
4.052000	 -0.029850
4.070000	 -0.115153
4.088000	 -0.002798
4.106000	 -0.013521
4.124000	 -0.163678
4.141999	 0.193317
4.160000	 0.013190
4.178000	 -0.024552
4.196000	 0.014369
4.214000	 0.041513
4.232000	 -0.019345
4.250000	 0.033916
4.268000	 0.179267
4.286000	 0.227461
4.304000	 0.090501
4.322000	 0.155054
4.340000	 0.198146
4.358000	 0.221950
4.375999	 0.471389
4.394000	 0.454672
4.412000	 0.622303
4.430000	 0.795543
4.448000	 1.035814
4.466000	 1.397110
4.484000	 1.730098
4.502000	 2.059230
4.520000	 2.478518
4.538000	 3.018612
4.556000	 3.539134
4.574000	 4.047479
4.592000	 4.734068
4.609999	 5.306130
4.628000	 6.136278
4.646000	 6.954340
4.664000	 7.831061
4.682000	 8.674025
4.700000	 9.689793
4.718000	 10.5912
4.736000	 11.5673
4.754000	 12.5557
4.772000	 13.5018
4.790000	 14.4982
4.808000	 15.2208
4.826000	 16.2392
4.843999	 17.3674
4.862000	 18.3259
4.880000	 19.2078
4.898000	 19.973
4.916000	 20.7388
4.934000	 21.4816
4.952000	 22.3161
4.970000	 23.1033
4.988000	 23.6969
5.006000	 24.4043
5.024000	 24.9828
5.042000	 25.5901
5.060000	 26.0415
5.077999	 26.5185
5.096000	 27.0648
5.114000	 27.5876
5.132000	 28.0343
5.150000	 28.3924
5.168000	 28.7912
5.186000	 29.0611
5.204000	 29.3499
5.222000	 29.7397
5.240000	 29.9716
5.258000	 30.3154
5.276000	 30.5364
5.294000	 30.7491
5.312000	 31.0751
5.330000	 31.2526
5.348000	 31.361
5.366000	 31.5623
5.384000	 31.8009
5.402000	 31.959
5.420000	 32.1421
5.438000	 32.1282
5.456000	 32.2347
5.474000	 32.4578
5.492000	 32.503
5.510000	 32.6139
5.528000	 32.7141
5.546000	 32.8929
5.564000	 33.0299
5.582000	 33.065
5.600000	 33.0774
5.618000	 33.081
5.636000	 33.2178
5.654000	 33.2761
5.672000	 33.2582
5.690000	 33.2247
5.708000	 33.277
5.726000	 33.4139
5.744000	 33.5173
5.762000	 33.588
5.780000	 33.4921
5.798000	 33.5613
5.816000	 33.6941
5.834000	 33.594
5.852000	 33.5484
5.870000	 33.669
5.888000	 33.7961
5.906000	 33.7376
5.923999	 33.8614
5.942000	 33.9936
5.960000	 33.862
5.978000	 33.7296
5.996000	 33.7067
6.014000	 33.7761
6.032000	 33.8294
6.050000	 33.9285
6.068000	 33.9252
6.086000	 33.8135
6.104000	 33.6981
6.122000	 33.6729
6.140000	 33.7105
6.158000	 33.7287
6.176000	 33.7496
6.194000	 33.6892
6.212000	 33.5997
6.230000	 33.657
6.248000	 33.7578
6.266000	 33.775
6.284000	 33.7472
6.302000	 33.7307
6.320000	 33.7078
6.338000	 33.7301
6.356000	 33.7557
6.374000	 33.7205
6.392000	 33.7668
6.410000	 33.9314
6.428000	 33.8559
6.446000	 33.6176
6.464000	 33.5862
6.482000	 33.7482
6.500000	 33.8328
6.518000	 33.751
6.536000	 33.6915
6.554000	 33.7042
6.572000	 33.7462
6.590000	 33.6809
6.608000	 33.5845
6.626000	 33.6326
6.644000	 33.608
6.662000	 33.514
6.680000	 33.5032
6.698000	 33.4468
6.716000	 33.3852
6.734000	 33.4007
6.752000	 33.4308
6.770000	 33.4198
6.788000	 33.3737
6.806000	 33.3675
6.824000	 33.4383
6.842000	 33.5101
6.860000	 33.495
6.878000	 33.4165
6.896000	 33.3391
6.914000	 33.2475
6.932000	 33.1988
6.950000	 33.288
6.968000	 33.3974
6.986000	 33.385
7.004000	 33.3343
7.022000	 33.3327
7.040000	 33.3076
7.058000	 33.2075
7.076000	 33.0984
7.094000	 33.0486
7.112000	 33.0506
7.130000	 33.0749
7.148000	 33.1052
7.166000	 33.1035
7.184000	 33.0506
7.202000	 32.9919
7.220000	 32.9829
7.238000	 33.0298
7.256000	 33.0717
7.274000	 33.0719
7.292000	 33.0467
7.310000	 32.993
7.328000	 32.9199
7.346000	 32.8656
7.364000	 32.8262
7.382000	 32.7828
7.400000	 32.7663
7.418000	 32.8251
7.436000	 32.9151
7.454000	 32.9332
7.472000	 32.8881
7.490000	 32.8693
7.508000	 32.8783
7.526000	 32.8754
7.544000	 32.8622
7.562000	 32.8376
7.580000	 32.7971
7.598000	 32.7679
7.616000	 32.7659
7.634000	 32.7689
7.652000	 32.7617
7.670000	 32.7438
7.688000	 32.7116
7.706000	 32.6749
7.724000	 32.6572
7.742000	 32.6624
7.760000	 32.6741
7.778000	 32.6672
7.796000	 32.6151
7.814000	 32.5288
7.832000	 32.4674
7.850000	 32.4694
7.868000	 32.5065
7.886000	 32.5303
7.904000	 32.526
7.922000	 32.5085
7.940000	 32.4923
7.958000	 32.4835
7.976000	 32.4906
7.994000	 32.5106
8.012000	 32.5125
8.030000	 32.4762
8.048000	 32.4328
8.065999	 32.4247
8.084000	 32.4517
8.102000	 32.4847
8.120000	 32.5042
8.138000	 32.5074
8.155999	 32.5033
8.173999	 32.5025
8.192000	 32.5029
8.210000	 32.4899
8.228000	 32.4525
8.246000	 32.3934
8.263999	 32.3257
8.282000	 32.2654
8.300000	 32.2256
8.318000	 32.2099
8.336000	 32.2105
8.353999	 32.2095
8.372000	 32.1954
8.390000	 32.1844
8.408000	 32.2081
8.426000	 32.269
8.443999	 32.3224
8.462000	 32.3244
8.480000	 32.283
8.498000	 32.2365
8.516000	 32.2058
8.533999	 32.1885
8.552000	 32.1807
8.570000	 32.1789
8.588000	 32.167
8.606000	 32.1299
8.624000	 32.0766
8.641999	 32.0359
8.660000	 32.0291
8.678000	 32.0523
8.696000	 32.0817
8.714000	 32.0939
8.731999	 32.0863
8.750000	 32.0762
8.768000	 32.072
8.786000	 32.0533
8.804000	 31.9968
8.821999	 31.9201
8.840000	 31.8741
8.858000	 31.8916
8.876000	 31.9553
8.894000	 32.0127
8.911999	 32.0267
8.930000	 32.0092
8.948000	 31.9967
8.966000	 32.0014
8.984000	 32.0002
9.001999	 31.9764
9.020000	 31.9464
9.038000	 31.9349
9.056000	 31.9345
9.074000	 31.9156
9.092000	 31.875
9.109999	 31.8477
9.128000	 31.8626
9.146000	 31.902
9.164000	 31.916
9.182000	 31.8722
9.199999	 31.7819
9.218000	 31.6818
9.236000	 31.6061
9.254000	 31.5746
9.272000	 31.5896
9.289999	 31.6334
9.308000	 31.6749
9.326000	 31.6866
9.344000	 31.6609
9.362000	 31.6128
9.379999	 31.5682
9.398000	 31.5487
9.416000	 31.5605
9.434000	 31.5914
9.452000	 31.6168
9.469999	 31.6193
9.488000	 31.6038
9.506000	 31.5887
9.524000	 31.582
9.542000	 31.573
9.560000	 31.5483
9.577999	 31.5113
9.596000	 31.4794
9.614000	 31.4641
9.632000	 31.456
9.650000	 31.4351
9.667999	 31.393
9.686000	 31.3392
9.704000	 31.2877
9.722000	 31.2429
9.740000	 31.2001
9.757999	 31.1585
9.776000	 31.1303
9.794000	 31.1339
9.812000	 31.1761
9.830000	 31.2397
9.847999	 31.2913
9.866000	 31.3023
9.884000	 31.2693
9.902000	 31.2168
9.920000	 31.1821
9.937999	 31.1891
9.956000	 31.2322
9.974000	 31.2809
9.992000	 31.303
10.01	31.2858
10.028	31.2434
10.046	31.2044
10.064	31.1907
10.082	31.2043
10.1	31.2284
10.118	31.2385
10.136	31.2182
10.154	31.1647
10.172	31.0887
10.19	31.0082
10.208	30.9397
10.226	30.8921
10.244	30.8657
10.262	30.852
10.28	30.8404
10.298	30.8235
10.316	30.8007
10.334	30.7764
10.352	30.7565
10.37	30.7442
10.388	30.7392
10.406	30.7392
10.424	30.7402
10.442	30.7377
10.46	30.7282
10.478	30.711
10.496	30.6908
10.514	30.677
10.532	30.6804
10.55	30.7047
10.568	30.7433
10.586	30.7795
10.604	30.7961
10.622	30.7833
10.64	30.7451
10.658	30.6956
10.676	30.653
10.694	30.6284
10.712	30.6229
10.73	30.6275
10.748	30.6295
10.766	30.6187
10.784	30.5915
10.802	30.5513
10.82	30.5052
10.838	30.4603
10.856	30.4189
10.874	30.3781
10.892	30.3331
10.91	30.2815
10.928	30.2264
10.946	30.1757
10.964	30.1389
10.982	30.1222
11	30.126
11.018	30.1454
11.036	30.1729
11.054	30.2008
11.072	30.2235
11.09	30.2367
11.108	30.2372
11.126	30.2231
11.144	30.1955
11.162	30.1586
11.18	30.1183
11.198	30.0801
11.216	30.0474
11.234	30.0215
11.252	30.0026
11.27	29.9905
11.288	29.9848
11.306	29.9845
11.324	29.9875
11.342	29.9903
11.36	29.9894
11.378	29.9823
11.396	29.9686
11.414	29.9492
11.432	29.9249
11.45	29.8959
11.468	29.8618
11.486	29.8229
11.504	29.7816
11.522	29.742
11.54	29.7085
11.558	29.6841
11.576	29.6689
11.594	29.6607
11.612	29.656
11.63	29.6511
11.648	29.6427
11.666	29.6281
11.684	29.6047
11.702	29.5706
11.72	29.5253
11.738	29.4731
11.756	29.4224
11.774	29.3849
11.792	29.372
11.81	29.3893
11.828	29.4336
11.846	29.4914
11.864	29.5427
11.882	29.5695
11.9	29.5608
11.918	29.5177
11.936	29.4535
11.954	29.3876
11.972	29.3397
11.99	29.3217
12.008	29.3348
12.026	29.3694
12.044	29.4102
12.062	29.4405
12.08	29.4486
12.098	29.4296
12.116	29.3858
12.134	29.3255
12.152	29.2597
12.17	29.1988
12.188	29.1515
12.206	29.1236
12.224	29.1158
12.242	29.1246
12.26	29.1424
12.278	29.159
12.296	29.1638
12.314	29.1481
12.332	29.1082
12.35	29.0462
12.368	28.9698
12.386	28.8902
12.404	28.8184
12.422	28.7615
12.44	28.7214
12.458	28.6946
12.476	28.6735
12.494	28.6499
12.512	28.6178
12.53	28.5761
12.548	28.5286
12.566	28.4818
12.584	28.4444
12.602	28.424
12.62	28.4253
12.638	28.4485
12.656	28.4894
12.674	28.5407
12.692	28.5939
12.71	28.6413
12.728	28.6768
12.746	28.6974
12.764	28.7033
12.782	28.6974
12.8	28.6845
12.818	28.6695
12.836	28.6569
12.854	28.6497
12.872	28.649
12.89	28.6537
12.908	28.6612
12.926	28.6672
12.944	28.6669
12.962	28.655
12.98	28.6274
12.998	28.5817
13.016	28.5186
13.034	28.4424
13.052	28.3607
13.07	28.2832
13.088	28.2197
13.106	28.1775
13.124	28.16
13.142	28.1656
13.16	28.1872
13.178	28.2145
13.196	28.2363
13.214	28.2436
13.232	28.2313
13.25	28.1995
13.268	28.1522
13.286	28.0959
13.304	28.0373
13.322	27.981
13.34	27.9289
13.358	27.8798
13.376	27.8314
13.394	27.7817
13.412	27.7305
13.43	27.6804
13.448	27.6358
13.466	27.602
13.484	27.5832
13.502	27.5809
13.52	27.5938
13.538	27.6173
13.556	27.6459
13.574	27.6749
13.592	27.7024
13.61	27.7293
13.628	27.7591
13.646	27.796
13.664	27.8433
13.682	27.9009
13.7	27.965
13.718	28.0279
13.736	28.0794
13.754	28.1098
13.772	28.1119
13.79	28.0836
13.808	28.0279
13.826	27.953
13.844	27.8702
13.862	27.791
13.88	27.7252
13.898	27.6789
13.916	27.6534
13.934	27.6455
13.952	27.6488
13.97	27.6554
13.988	27.6579
14.006	27.6501
14.024	27.6284
14.042	27.5915
14.06	27.5406
14.078	27.4785
14.096	27.4087
14.114	27.3353
14.132	27.2622
14.15	27.1935
14.168	27.1331
14.186	27.0848
14.204	27.0515
14.222	27.0351
14.24	27.0357
14.258	27.0516
14.276	27.0789
14.294	27.1124
14.312	27.1462
14.33	27.1745
14.348	27.1923
14.366	27.1964
14.384	27.1856
14.402	27.161
14.42	27.1253
14.438	27.082
14.456	27.0351
14.474	26.9887
14.492	26.9463
14.51	26.9114
14.528	26.8865
14.546	26.8729
14.564	26.8715
14.582	26.882
14.6	26.9033
14.618	26.9334
14.636	26.969
14.654	27.0064
14.672	27.0414
14.69	27.0698
14.708	27.0881
14.726	27.0933
14.744	27.0843
14.762	27.0622
14.78	27.0296
14.798	26.9906
14.816	26.9499
14.834	26.913
14.852	26.8851
14.87	26.8691
14.888	26.8665
14.906	26.877
14.924	26.898
14.942	26.9249
14.96	26.9519
14.978	26.9734
14.996	26.9845
15.014	26.981
15.032	26.9599
15.05	26.9215
15.068	26.8677
15.086	26.8018
15.104	26.7285
15.122	26.6541
15.14	26.584
15.158	26.5228
15.176	26.4739
15.194	26.4396
15.212	26.4204
15.23	26.4146
15.248	26.4194
15.266	26.4314
15.284	26.4459
15.302	26.4587
15.32	26.4668
15.338	26.4679
15.356	26.4605
15.374	26.4451
15.392	26.4228
15.41	26.3955
15.428	26.3654
15.446	26.3351
15.464	26.3062
15.482	26.2797
15.5	26.2557
15.518	26.2337
15.536	26.2124
15.554	26.1901
15.572	26.1652
15.59	26.1359
15.608	26.1017
15.626	26.0626
15.644	26.0189
15.662	25.9724
15.68	25.925
15.698	25.8788
15.716	25.8368
15.734	25.8017
15.752	25.775
15.77	25.7584
15.788	25.7529
15.806	25.7585
15.824	25.7747
15.842	25.8006
15.86	25.8344
15.878	25.8745
15.896	25.9191
15.914	25.966
15.932	26.0132
15.95	26.0593
15.968	26.1024
15.986	26.1411
16.004	26.1744
16.022	26.2014
16.04	26.2212
16.058	26.2335
16.076	26.238
16.094	26.2351
16.112	26.2248
16.13	26.2076
16.148	26.184
16.166	26.1544
16.184	26.1187
16.202	26.0773
16.22	26.0295
16.238	25.9753
16.256	25.9145
16.274	25.8468
16.292	25.7724
16.31	25.6915
16.328	25.6056
16.346	25.5164
16.364	25.4257
16.382	25.3369
16.4	25.2527
16.418	25.1753
16.436	25.1083
16.454	25.053
16.472	25.0105
16.49	24.9814
16.508	24.9644
16.526	24.9584
16.544	24.9604
16.562	24.9673
16.58	24.9768
16.598	24.9847
16.616	24.9893
16.634	24.9889
16.652	24.982
16.67	24.969
16.688	24.9501
16.706	24.9269
16.724	24.9005
16.742	24.8726
16.76	24.8447
16.778	24.8173
16.796	24.7912
16.814	24.766
16.832	24.7417
16.85	24.7173
16.868	24.692
16.886	24.6652
16.904	24.6363
16.922	24.6054
16.94	24.5726
16.958	24.5393
16.976	24.5065
16.994	24.4763
17.012	24.4509
17.03	24.4318
17.048	24.4216
17.066	24.4209
17.084	24.4312
17.102	24.4519
17.12	24.4828
17.138	24.5218
17.156	24.5664
17.174	24.6144
17.192	24.6607
17.21	24.7035
17.228	24.7382
17.246	24.7621
17.264	24.7732
17.282	24.7694
17.3	24.7508
17.318	24.7173
17.336	24.671
17.354	24.613
17.372	24.5479
17.39	24.4774
17.408	24.406
17.426	24.337
17.444	24.2728
17.462	24.217
17.48	24.1704
17.498	24.1352
17.516	24.111
17.534	24.0981
17.552	24.095
17.57	24.101
17.588	24.1137
17.606	24.1318
17.624	24.1531
17.642	24.176
17.66	24.1993
17.678	24.2213
17.696	24.2418
17.714	24.2598
17.732	24.2755
17.75	24.2889
17.768	24.3003
17.786	24.3098
17.804	24.3179
17.822	24.3245
17.84	24.3297
17.858	24.3331
17.876	24.3346
17.894	24.3333
17.912	24.3288
17.93	24.3202
17.948	24.3071
17.966	24.2886
17.984	24.2645
18.002	24.2342
18.02	24.1979
18.038	24.1554
18.056	24.1077
18.074	24.0549
18.092	23.9986
18.11	23.9389
18.128	23.8775
18.146	23.8149
18.164	23.7524
18.182	23.6907
18.2	23.6309
18.218	23.5736
18.236	23.5195
18.254	23.4694
18.272	23.4236
18.29	23.3828
18.308	23.3471
18.326	23.3172
18.344	23.2933
18.362	23.2758
18.38	23.2648
18.398	23.2607
18.416	23.2633
18.434	23.2728
18.452	23.2884
18.47	23.31
18.488	23.336
18.506	23.3661
18.524	23.3977
18.542	23.4306
18.56	23.4613
18.578	23.4894
18.596	23.5118
18.614	23.528
18.632	23.5355
18.65	23.5343
18.668	23.5232
18.686	23.5024
18.704	23.4721
18.722	23.433
18.74	23.3872
18.758	23.3355
18.776	23.2811
18.794	23.2253
18.812	23.1717
18.83	23.1217
18.848	23.0785
18.866	23.0431
18.884	23.0184
18.902	23.0047
18.92	23.0039
18.938	23.0155
18.956	23.0403
18.974	23.0771
18.992	23.1256
19.01	23.184
19.028	23.2506
19.046	23.3238
19.064	23.401
19.082	23.4806
19.1	23.5594
19.118	23.6364
19.136	23.7084
19.154	23.7747
19.172	23.8327
19.19	23.8822
19.208	23.9213
19.226	23.9503
19.244	23.9685
19.262	23.9763
19.28	23.9742
19.298	23.9625
19.316	23.9432
19.334	23.9161
19.352	23.8838
19.37	23.846
19.388	23.8058
19.406	23.763
19.424	23.7198
19.442	23.6763
19.46	23.6338
19.478	23.5927
19.496	23.553
19.514	23.515
19.532	23.4783
19.55	23.443
19.568	23.4083
19.586	23.3738
19.604	23.339
19.622	23.3032
19.64	23.2663
19.658	23.2274
19.676	23.1866
19.694	23.1435
19.712	23.098
19.73	23.0507
19.748	23.0014
19.766	22.9511
19.784	22.8996
19.802	22.8483
19.82	22.7976
19.838	22.7481
19.856	22.7008
19.874	22.6557
19.892	22.6143
19.91	22.5764
19.928	22.543
19.946	22.5141
19.964	22.49
19.982	22.4711
20	22.4571
20.018	22.4481
20.036	22.4438
20.054	22.4436
20.072	22.4475
20.09	22.4542
20.108	22.4639
20.126	22.4746
20.144	22.4865
20.162	22.4979
20.18	22.5083
20.198	22.5168
20.216	22.5219
20.234	22.5238
20.252	22.5211
20.27	22.514
20.288	22.5014
20.306	22.4834
20.324	22.4599
20.342	22.431
20.36	22.3971
20.378	22.3591
20.396	22.317
20.414	22.2732
20.432	22.2271
20.45	22.1812
20.468	22.1364
20.486	22.0934
20.504	22.0545
20.522	22.0193
20.54	21.99
20.558	21.9665
20.576	21.9492
20.594	21.9388
20.612	21.9347
20.63	21.937
20.648	21.9454
20.666	21.9584
20.684	21.9762
20.702	21.9969
20.72	22.0191
20.738	22.0427
20.756	22.0646
20.774	22.0855
20.792	22.1031
20.81	22.117
20.828	22.1267
20.846	22.1308
20.864	22.1299
20.882	22.1234
20.9	22.111
20.918	22.0937
20.936	22.0717
20.954	22.0453
20.972	22.0164
20.99	21.9844
21.008	21.9515
21.026	21.9186
21.044	21.886
21.062	21.856
21.08	21.8281
21.098	21.8042
21.116	21.7847
21.134	21.7697
21.152	21.7602
21.17	21.7559
21.188	21.7566
21.206	21.7625
21.224	21.7729
21.242	21.7867
21.26	21.8042
21.278	21.8231
21.296	21.8433
21.314	21.8637
21.332	21.8818
21.35	21.8986
21.368	21.9113
21.386	21.9194
21.404	21.9226
21.422	21.9194
21.44	21.9102
21.458	21.8943
21.476	21.8712
21.494	21.8414
21.512	21.806
21.53	21.7641
21.548	21.7181
21.566	21.6688
21.584	21.6163
21.602	21.5644
21.62	21.5126
21.638	21.4629
21.656	21.4182
21.674	21.3774
21.692	21.3439
21.71	21.3184
21.728	21.301
21.746	21.2943
21.764	21.2979
21.782	21.3122
21.8	21.3382
21.818	21.3754
21.836	21.4228
21.854	21.4809
21.872	21.5486
21.89	21.6235
21.908	21.7068
21.926	21.7955
21.944	21.8879
21.962	21.9846
21.98	22.0815
21.998	22.1788
22.016	22.2754
22.034	22.3681
22.052	22.4579
22.07	22.543
22.088	22.6216
22.106	22.6944
22.124	22.7601
22.142	22.8182
22.16	22.8689
22.178	22.9119
22.196	22.9469
22.214	22.9744
22.232	22.9948
22.25	23.0078
22.268	23.0141
22.286	23.014
22.304	23.0073
22.322	22.9946
22.34	22.9759
22.358	22.9514
22.376	22.921
22.394	22.8849
22.412	22.8431
22.43	22.7953
22.448	22.7416
22.466	22.6822
22.484	22.6175
22.502	22.5473
22.52	22.4725
22.538	22.3932
22.556	22.3096
22.574	22.2238
22.592	22.1355
22.61	22.0452
22.628	21.9555
22.646	21.8657
22.664	21.7768
22.682	21.6908
22.7	21.6072
22.718	21.5264
22.736	21.4494
22.754	21.3761
22.772	21.3063
22.79	21.2402
22.808	21.1781
22.826	21.1185
22.844	21.061
22.862	21.0061
22.88	20.9511
22.898	20.895
22.916	20.8386
22.934	20.7785
22.952	20.7139
22.97	20.6454
22.988	20.5701
23.006	20.4873
23.024	20.3977
23.042	20.2999
23.06	20.1934
23.078	20.0788
23.096	19.9566
23.114	19.8261
23.132	19.6883
23.15	19.5462
23.168	19.3988
23.186	19.2473
23.204	19.0959
23.222	18.9431
23.24	18.7906
23.258	18.6438
23.276	18.5016
23.294	18.365
23.312	18.2389
23.33	18.1225
23.348	18.0163
23.366	17.9247
23.384	17.8474
23.402	17.7843
23.42	17.7381
23.438	17.7091
23.456	17.6967
23.474	17.7014
23.492	17.7238
23.51	17.7631
23.528	17.8179
23.546	17.8884
23.564	17.9745
23.582	18.0723
23.6	18.181
23.618	18.3016
23.636	18.4288
23.654	18.5603
23.672	18.6986
23.69	18.8374
23.708	18.9725
23.726	19.1076
23.744	19.2372
23.762	19.3563
23.78	19.4689
23.798	19.5699
23.816	19.6538
23.834	19.7235
23.852	19.7764
23.87	19.807
23.888	19.816
23.906	19.804
23.924	19.7695
23.942	19.711
23.96	19.6302
23.978	19.5303
23.996	19.4111
24.014	19.2718
24.032	19.1196
24.05	18.9579
24.068	18.7822
24.086	18.6017
24.104	18.4244
24.122	18.2437
24.14	18.0673
24.158	17.9064
24.176	17.7566
24.194	17.6206
24.212	17.5087
24.23	17.4218
24.248	17.3572
24.266	17.323
24.284	17.3239
24.302	17.3562
24.32	17.4218
24.338	17.523
24.356	17.6607
24.374	17.8314
24.392	18.0308
24.41	18.2628
24.428	18.524
24.446	18.8046
24.464	19.1025
24.482	19.4226
24.5	19.7507
24.518	20.0757
24.536	20.4074
24.554	20.7357
24.572	21.046
24.59	21.3419
24.608	21.6231
24.626	21.8785
24.644	22.1025
24.662	22.3007
24.68	22.4688
24.698	22.6022
24.716	22.7017
24.734	22.7693
24.752	22.806
24.77	22.8093
24.788	22.7807
24.806	22.728
24.824	22.6557
24.842	22.5572
24.86	22.4422
24.878	22.3226
24.896	22.1929
24.914	22.0553
24.932	21.9229
24.95	21.8019
24.968	21.6844
24.986	21.5799
25.004	21.4987
25.022	21.4374
25.04	21.3959
25.058	21.3796
25.076	21.3916
25.094	21.4292
25.112	21.4925
25.13	21.5821
25.148	21.702
25.166	21.8469
25.184	22.0087
25.202	22.1855
25.22	22.3832
25.238	22.5895
25.256	22.792
25.274	23.0009
25.292	23.2099
25.31	23.3996
25.328	23.5605
25.346	23.707
25.364	23.822
25.382	23.8857
25.4	23.9044
25.418	23.8797
25.436	23.7933
25.454	23.6318
25.472	23.4068
25.49	23.1122
25.508	22.7379
25.526	22.2792
25.544	21.7416
25.562	21.1271
25.58	20.4369
25.598	19.663
25.616	18.8145
25.634	17.9074
25.652	16.9475
25.67	15.9184
25.688	14.8454
25.706	13.758
25.724	12.6497
25.742	11.5118
25.76	10.3817
25.778	9.293106
25.796	8.218408
25.814	7.171356
25.832	6.190841
25.85	5.301419
25.868	4.473150
25.886	3.728181
25.904	3.096331
25.922	2.585400
25.94	2.178518
25.958	1.889916
25.976	1.734273
25.994	1.714720
26.012	1.822559
26.03	2.051028
26.048	2.395768
26.066	2.871744
26.084	3.461979
26.102	4.140343
26.12	4.894346
26.138	5.752193
26.156	6.680102
26.174	7.636768
26.192	8.615610
26.21	9.646996
26.228	10.6829
26.246	11.6727
26.264	12.6234
26.282	13.5545
26.3	14.4208
26.318	15.1784
26.336	15.843
26.354	16.4215
26.372	16.8869
26.39	17.2139
26.408	17.4123
26.426	17.487
26.444	17.4332
26.462	17.2454
26.48	16.9178
26.498	16.463
26.516	15.8963
26.534	15.2262
26.552	14.431
26.57	13.5341
26.588	12.5672
26.606	11.5472
26.624	10.4415
26.642	9.280341
26.66	8.102053
26.678	6.925489
26.696	5.716348
26.714	4.503305
26.732	3.321352
26.75	2.187155
26.768	1.072289
26.786	-0.003183
26.804	-1.015140
26.822	-1.950628
26.84	-2.826726
26.858	-3.637577
26.876	-4.375349
26.894	-5.033280
26.912	-5.614040
26.93	-6.125285
26.948	-6.574655
26.966	-6.968748
26.984	-7.305668
27.002	-7.579543
27.02	-7.784548
27.028	-7.844638