File: Bakgrunnsmateriale/MATLAB/FTIR/ftir_data/LPE453/Mapping_121/LPE453_t76_cm-1.asc
PE IR       SPECTRUM    SPECTRUM    ASCII       PEDS        1.60
  -1
LPEA5A~1.ASC
17/05/16
20:36:34.00
17/05/16
20:36:34.00
tln
$LPE453_t0076$<tbV0>[-10.4,2.6,8.0,0.0,27,1,0]
370
64

2002,4.07
MIRTGS : RIGHTBACK : INTERNAL 2
MIR : ON : INTERNAL 2
OPTKBR

0.200000
8
8.000000
FILLER
RATIO
SPECTRUM
UNLOCKED 256

DOUBLE
64
COMBINED
1
0
0

1.000000
RATIO

1
0
TRUE
51149
0
LEFT NOT FITTED RIGHT NOT FITTED 0
NONE
NONE
15600
12
4.427000
51148
TRUE
1 0 8 72 0 0 0 0

15798

#HDR
-1
-1
#GR
CM-1
%T
2.38419e-05
0.0
5000
-1.000000
4631
8
33.0618
-1.288700
#DATA
5000	-0.038647
4996	-0.167059
4992	-0.224876
4988	-0.023794
4984	-0.072526
4980	-0.305938
4976	-0.303983
4972	-0.300717
4968	-0.187778
4964	0.118184
4960	0.208449
4956	-0.011062
4952	-0.232100
4948	-0.021696
4944	0.400352
4940	0.292944
4936	-0.051999
4932	-0.020742
4928	0.207281
4924	0.263476
4920	0.215983
4916	0.273418
4912	0.300097
4908	0.310897
4904	0.426578
4900	0.438284
4896	0.336194
4892	0.144577
4888	0.031399
4884	0.257325
4880	0.438642
4876	0.512480
4872	0.591063
4868	0.414943
4864	0.183987
4860	0.075221
4856	-0.015950
4852	-0.071454
4848	-0.099873
4844	-0.327038
4840	-0.621008
4836	-0.491261
4832	-0.133156
4828	0.113677
4824	0.257658
4820	0.315189
4816	0.288248
4812	0.124382
4808	0.007224
4804	-0.036406
4800	-0.264024
4796	-0.427985
4792	-0.144577
4788	0.146389
4784	-0.067901
4780	-0.299692
4776	-0.102257
4772	0.142669
4768	0.152444
4764	0.073504
4760	0.029397
4756	-0.102877
4752	-0.249052
4748	-0.307369
4744	-0.161981
4740	0.222063
4736	0.364637
4732	0.233745
4728	0.019741
4724	0.003004
4720	0.569891
4716	0.896763
4712	0.517845
4708	0.300574
4704	0.318026
4700	0.258660
4696	0.107884
4692	-0.453281
4688	-1.089644
4684	-0.641846
4680	0.528430
4676	1.042199
4672	0.738763
4668	-0.081658
4664	-0.814795
4660	-1.064467
4656	-1.063704
4652	-0.862383
4648	-0.453901
4644	0.474739
4640	1.489996
4636	1.401305
4632	0.423693
4628	-0.177955
4624	-0.162482
4620	-0.029563
4616	0.590753
4612	0.988912
4608	0.524568
4604	0.196480
4600	0.467181
4596	0.575995
4592	0.231099
4588	-0.115990
4584	-0.411963
4580	-0.942063
4576	-1.288700
4572	-0.857830
4568	-0.205993
4564	-0.147962
4560	-0.642609
4556	-0.844454
4552	-0.569009
4548	-0.501108
4544	-0.603246
4540	-0.366950
4536	0.039029
4532	0.227737
4528	0.223612
4524	0.139832
4520	-0.101542
4516	-0.663661
4512	-0.789976
4508	0.283837
4504	2.346944
4500	5.978703
4496	9.157395
4492	9.372758
4488	10.8597
4484	11.7322
4480	6.410408
4476	0.646328
4472	-0.645804
4468	-0.111603
4464	-0.306057
4460	-0.514388
4456	-0.209951
4452	-0.071954
4448	-0.216555
4444	-0.342488
4440	-0.468230
4436	-0.500345
4432	-0.500392
4428	-0.464963
4424	-0.418472
4420	-0.360608
4416	0.011920
4412	0.375747
4408	0.399446
4404	0.097155
4400	-0.246071
4396	-0.096964
4392	0.163960
4388	-0.029397
4384	-0.154352
4380	0.072765
4376	0.167679
4372	0.247502
4368	0.509166
4364	0.558423
4360	0.468897
4356	0.371932
4352	0.226473
4348	0.125765
4344	-0.069522
4340	-0.185751
4336	-0.033950
4332	0.053071
4328	0.143694
4324	0.250911
4320	0.147557
4316	0.296640
4312	0.581121
4308	0.402474
4304	0.072789
4300	-0.035905
4296	0.049948
4292	0.224852
4288	0.260281
4284	0.063657
4280	-0.005173
4276	0.155925
4272	0.184774
4268	-0.022745
4264	-0.230956
4260	-0.166249
4256	0.021457
4252	0.043654
4248	-0.025773
4244	0.078058
4240	0.136375
4236	-0.044608
4232	-0.192999
4228	-0.215458
4224	-0.205230
4220	-0.110864
4216	0.055694
4212	0.055480
4208	-0.106501
4204	-0.120067
4200	0.041866
4196	0.075578
4192	-0.028777
4188	0.054025
4184	0.189089
4180	0.325512
4176	0.473618
4172	0.395655
4168	0.314712
4164	0.377011
4160	0.250363
4156	-0.024890
4152	-0.113224
4148	-0.035953
4144	-0.000596
4140	0.002694
4136	0.055789
4132	0.180912
4128	0.216937
4124	0.054836
4120	0.019526
4116	0.150012
4112	0.231432
4108	0.255250
4104	0.154423
4100	0.042772
4096	0.020027
4092	-0.072669
4088	-0.198960
4084	-0.245833
4080	-0.141501
4076	0.053548
4072	0.112462
4068	0.089693
4064	0.119686
4060	0.143694
4056	0.114607
4052	0.091075
4048	0.065732
4044	-0.030303
4040	-0.099134
4036	-0.038003
4032	0.138497
4028	0.249242
4024	0.188755
4020	0.058698
4016	-0.031900
4012	0.054478
4008	0.119495
4004	0.036168
4000	0.052165
3996	-0.018930
3992	-0.166368
3988	-0.125265
3984	-0.068306
3980	-0.022435
3976	0.089240
3972	0.208759
3968	0.279426
3964	0.269412
3960	0.178241
3956	0.000548
3952	-0.052332
3948	0.083351
3944	0.078463
3940	-0.034475
3936	0.027918
3932	0.155544
3928	0.158596
3924	0.084447
3920	0.014734
3916	-0.022101
3912	-0.038027
3908	-0.031447
3904	0.035333
3900	0.142765
3896	0.151586
3892	0.060677
3888	0.002074
3884	-0.040578
3880	-0.044465
3876	0.031280
3872	0.104022
3868	0.065708
3864	-0.072503
3860	-0.148415
3856	-0.088834
3852	-0.030016
3848	-0.044679
3844	-0.033283
3840	0.080513
3836	0.210690
3832	0.223731
3828	0.191926
3824	0.176525
3820	0.136685
3816	0.131464
3812	0.149703
3808	0.155997
3804	0.138783
3800	0.087976
3796	0.103068
3792	0.120067
3788	0.041174
3784	-0.031566
3780	-0.042080
3776	-0.011849
3772	0.011420
3768	0.024890
3764	0.109267
3760	0.221085
3756	0.181698
3752	0.048899
3748	0.037884
3744	0.127029
3740	0.172305
3736	0.115466
3732	0.035929
3728	0.060558
3724	0.124883
3720	0.154209
3716	0.180149
3712	0.139045
3708	0.063371
3704	0.016975
3700	-0.103235
3696	-0.173401
3692	-0.063610
3688	0.049662
3684	0.050282
3680	-0.002551
3676	0.053429
3672	0.159668
3668	0.143408
3664	0.108265
3660	0.090980
3656	0.022315
3652	-0.060486
3648	-0.126028
3644	-0.154018
3640	-0.078821
3636	0.039815
3632	0.061559
3628	0.008988
3624	-0.027775
3620	-0.004768
3616	0.074410
3612	0.180649
3608	0.204944
3604	0.122308
3600	0.078082
3596	0.085449
3592	0.063228
3588	0.041222
3584	0.004553
3580	-0.034713
3576	0.078558
3572	0.207138
3568	0.132369
3564	0.001311
3560	-0.092911
3556	-0.100374
3552	0.044012
3548	0.129103
3544	0.072574
3540	0.055146
3536	0.092864
3532	0.075745
3528	0.057697
3524	0.029230
3520	-0.023937
3516	0.011801
3512	0.023055
3508	-0.082683
3504	-0.195646
3500	-0.255465
3496	-0.263094
3492	-0.178909
3488	-0.028491
3484	0.052618
3480	0.069785
3476	0.081205
3472	0.076317
3468	0.092411
3464	0.098037
3460	0.047755
3456	0.053524
3452	0.124216
3448	0.177407
3444	0.199723
3440	0.128650
3436	0.002741
3432	-0.030350
3428	0.050091
3424	0.073885
3420	-0.004863
3416	-0.029373
3412	0.058627
3408	0.200271
3404	0.233864
3400	0.112247
3396	0.018334
3392	0.000262
3388	-0.015020
3384	-0.062847
3380	-0.117015
3376	-0.061321
3372	0.038003
3368	0.100970
3364	0.164604
3360	0.177788
3356	0.164318
3352	0.123977
3348	0.052094
3344	0.031161
3340	0.023674
3336	-0.022268
3332	-0.029325
3328	0.002241
3324	0.044369
3320	0.122809
3316	0.095486
3312	-0.017547
3308	0.011253
3304	0.125646
3300	0.138854
3296	0.068116
3292	0.039649
3288	0.094699
3284	0.170969
3280	0.184488
3276	0.165724
3272	0.147414
3268	0.057554
3264	-0.031495
3260	-0.044631
3256	0.018954
3252	0.098776
3248	0.088834
3244	0.017642
3240	-0.051879
3236	-0.061058
3232	0.027704
3228	0.128483
3224	0.111460
3220	-0.006699
3216	-0.056648
3212	-0.036191
3208	-0.057291
3204	-0.013566
3200	0.101876
3196	0.132060
3192	0.095772
3188	0.040030
3184	0.004625
3180	0.021362
3176	0.046277
3172	0.062346
3168	0.074219
3164	0.056290
3160	-0.032711
3156	-0.080919
3152	-0.017428
3148	0.051403
3144	0.050497
3140	0.034332
3136	0.106978
3132	0.158143
3128	0.080633
3124	0.033640
3120	0.083851
3116	0.075507
3112	0.044631
3108	0.107765
3104	0.106072
3100	-0.016331
3096	-0.092482
3092	-0.060558
3088	0.016856
3084	0.071167
3080	0.079536
3076	0.056171
3072	0.038695
3068	0.031161
3064	0.037217
3060	0.018835
3056	-0.056457
3052	-0.100183
3048	-0.095891
3044	-0.090956
3040	-0.053668
3036	-0.019335
3032	-0.053763
3028	-0.068616
3024	-0.035047
3020	0.016736
3016	0.086927
3012	0.130558
3008	0.125718
3004	0.089764
3000	0.029540
2996	-0.002288
2992	0.028324
2988	0.042176
2984	0.012016
2980	0.005817
2976	0.018310
2972	-0.017642
2968	-0.029969
2964	-0.013995
2960	-0.073075
2956	-0.104379
2952	-0.047278
2948	0.013494
2944	0.044155
2940	0.023961
2936	-0.016355
2932	-0.000762
2928	0.041484
2924	0.061583
2920	0.077128
2916	0.061178
2912	0.009226
2908	0.000643
2904	0.041127
2900	0.032448
2896	-0.001859
2892	-0.003910
2888	-0.062465
2884	-0.099229
2880	-0.074625
2876	-0.050687
2872	0.003218
2868	0.074052
2864	0.062441
2860	0.043416
2856	0.053739
2852	0.017881
2848	0.017213
2844	0.053524
2840	-0.001907
2836	-0.015902
2832	0.056362
2828	0.080752
2824	0.035619
2820	0.031280
2816	0.117325
2812	0.187873
2808	0.142645
2804	0.004482
2800	-0.078463
2796	-0.059032
2792	-0.064706
2788	-0.078463
2784	-0.020575
2780	0.029206
2776	0.022983
2772	0.016164
2768	0.004863
2764	-0.009751
2760	0.049972
2756	0.159072
2752	0.217294
2748	0.191545
2744	0.123524
2740	0.055003
2736	0.012159
2732	0.019645
2728	0.016498
2724	-0.001478
2720	0.034046
2716	0.043106
2712	-0.022363
2708	-0.074005
2704	-0.067996
2700	-0.050640
2696	-0.052022
2692	-0.032401
2688	0.010728
2684	0.053930
2680	0.065493
2676	0.012230
2672	-0.019836
2668	0.031781
2664	0.076413
2660	0.050258
2656	0.021648
2652	0.055932
2648	0.086736
2644	0.049829
2640	-0.019550
2636	-0.052976
2632	-0.029087
2628	0.010728
2624	0.062656
2620	0.104212
2616	0.102949
2612	0.092840
2608	0.087809
2604	0.086021
2600	0.036549
2596	-0.022292
2592	-0.011944
2588	0.021052
2584	0.035619
2580	0.020194
2576	-0.002241
2572	-0.005817
2568	0.017619
2564	0.033187
2560	-0.020194
2556	-0.072193
2552	-0.066375
2548	-0.005960
2544	0.049400
2540	0.028085
2536	-0.015044
2532	-0.031924
2528	-0.036573
2524	-0.063872
2520	-0.110387
2516	-0.099420
2512	0.002145
2508	0.112104
2504	0.132346
2500	0.066566
2496	0.053954
2492	0.124168
2488	0.133752
2484	0.101137
2480	0.100064
2476	0.048637
2472	-0.035643
2468	-0.030422
2464	0.015377
2460	0.028085
2456	0.020837
2452	-0.010085
2448	-0.036001
2444	-0.039243
2440	-0.034046
2436	0.014877
2432	0.072431
2428	0.030469
2424	-0.070357
2420	-0.067257
2416	0.058460
2412	0.121402
2408	0.048041
2404	-0.064206
2400	-0.125265
2396	-0.126099
2392	-0.153660
2388	-0.164556
2384	-0.065755
2380	0.036716
2376	0.050067
2372	0.045680
2368	0.065374
2364	0.052571
2360	0.033092
2356	0.077629
2352	0.135278
2348	0.173234
2344	0.186586
2340	0.173759
2336	0.187945
2332	0.204873
2328	0.193953
2324	0.192356
2320	0.211811
2316	0.237655
2312	0.245094
2308	0.252962
2304	0.275087
2300	0.271964
2296	0.261259
2292	0.300049
2288	0.384473
2284	0.470638
2280	0.584125
2276	0.727772
2272	0.802922
2268	0.812411
2264	0.844001
2260	0.934743
2256	1.076102
2252	1.217937
2248	1.322340
2244	1.406717
2240	1.522517
2236	1.662945
2232	1.800632
2228	1.973271
2224	2.150964
2220	2.300524
2216	2.485418
2212	2.715945
2208	2.949047
2204	3.180527
2200	3.451156
2196	3.753161
2192	4.042363
2188	4.340982
2184	4.672884
2180	4.992270
2176	5.282521
2172	5.616521
2168	6.015038
2164	6.387853
2160	6.708478
2156	7.098364
2152	7.578063
2148	8.007264
2144	8.353352
2140	8.732438
2136	9.198045
2132	9.714579
2128	10.2206
2124	10.6422
2120	11.0645
2116	11.5706
2112	12.0572
2108	12.5057
2104	12.9942
2100	13.4948
2096	13.9874
2092	14.5069
2088	15.0159
2084	15.4815
2080	15.9106
2076	16.3062
2072	16.7984
2068	17.393
2064	17.9114
2060	18.3183
2056	18.6704
2052	19.0726
2048	19.5407
2044	20.0123
2040	20.4731
2036	20.9027
2032	21.3199
2028	21.7302
2024	22.0963
2020	22.4371
2016	22.8144
2012	23.2105
2008	23.5609
2004	23.9083
2000	24.2566
1996	24.5303
1992	24.8006
1988	25.1271
1984	25.4015
1980	25.6399
1976	25.9572
1972	26.3025
1968	26.6014
1964	26.8681
1960	27.1251
1956	27.3653
1952	27.5793
1948	27.784
1944	27.9508
1940	28.0922
1936	28.3
1932	28.5293
1928	28.7555
1924	29.0289
1920	29.2622
1916	29.4033
1912	29.5058
1908	29.6024
1904	29.7246
1900	29.8657
1896	29.9664
1892	30.0729
1888	30.2404
1884	30.3986
1880	30.5378
1876	30.6997
1872	30.8585
1868	30.982
1864	31.0688
1860	31.1239
1856	31.1726
1852	31.2257
1848	31.2794
1844	31.3582
1840	31.4807
1836	31.6343
1832	31.7663
1828	31.8484
1824	31.8989
1820	31.9228
1816	31.9157
1812	31.9055
1808	31.9687
1804	32.0507
1800	32.0341
1796	32.0132
1792	32.0858
1788	32.1911
1784	32.2707
1780	32.3376
1776	32.4258
1772	32.5195
1768	32.5504
1764	32.5127
1760	32.5082
1756	32.5269
1752	32.5069
1748	32.5261
1744	32.5902
1740	32.6467
1736	32.6896
1732	32.6964
1728	32.686
1724	32.6634
1720	32.6184
1716	32.6483
1712	32.8044
1708	32.8643
1704	32.7272
1700	32.6287
1696	32.6705
1692	32.7499
1688	32.8136
1684	32.8624
1680	32.923
1676	32.9694
1672	32.9511
1668	32.9384
1664	32.9649
1660	32.9772
1656	32.989
1652	32.9948
1648	32.9426
1644	32.8677
1640	32.8658
1636	32.9203
1632	32.9363
1628	32.9812
1624	33.0581
1620	33.0231
1616	32.9582
1612	32.9597
1608	32.9308
1604	32.8685
1600	32.8302
1596	32.8065
1592	32.8045
1588	32.7885
1584	32.7593
1580	32.8027
1576	32.8773
1572	32.9068
1568	32.9506
1564	33.0221
1560	32.9999
1556	32.854
1552	32.7497
1548	32.7655
1544	32.8002
1540	32.7747
1536	32.7187
1532	32.7367
1528	32.813
1524	32.8511
1520	32.8531
1516	32.8585
1512	32.8775
1508	32.8661
1504	32.7821
1500	32.6637
1496	32.6245
1492	32.6733
1488	32.6544
1484	32.5933
1480	32.6057
1476	32.6543
1472	32.6802
1468	32.6583
1464	32.6022
1460	32.5921
1456	32.6175
1452	32.6282
1448	32.6203
1444	32.5917
1440	32.5696
1436	32.5207
1432	32.4644
1428	32.4868
1424	32.5686
1420	32.6658
1416	32.6622
1412	32.5481
1408	32.5121
1404	32.5233
1400	32.4141
1396	32.2693
1392	32.2688
1388	32.3297
1384	32.3111
1380	32.2942
1376	32.3256
1372	32.3513
1368	32.3537
1364	32.3456
1360	32.3672
1356	32.3858
1352	32.3808
1348	32.378
1344	32.306
1340	32.199
1336	32.1871
1332	32.2064
1328	32.1673
1324	32.1531
1320	32.2209
1316	32.292
1312	32.3145
1308	32.2936
1304	32.2396
1300	32.1828
1296	32.0983
1292	32.0005
1288	31.9539
1284	31.9563
1280	32.0333
1276	32.0818
1272	32.003
1268	31.9812
1264	32.0737
1260	32.1236
1256	32.1249
1252	32.1105
1248	32.0241
1244	31.9157
1240	31.8457
1236	31.7724
1232	31.6996
1228	31.685
1224	31.7732
1220	31.9083
1216	31.9824
1212	31.9665
1208	31.9134
1204	31.9101
1200	31.9158
1196	31.8607
1192	31.797
1188	31.7126
1184	31.6051
1180	31.5744
1176	31.5962
1172	31.6329
1168	31.6896
1164	31.6991
1160	31.7514
1156	31.8516
1152	31.7866
1148	31.6463
1144	31.5788
1140	31.5264
1136	31.4878
1132	31.4058
1128	31.2678
1124	31.2336
1120	31.328
1116	31.4073
1112	31.4341
1108	31.4313
1104	31.3543
1100	31.2745
1096	31.2812
1092	31.2948
1088	31.2068
1084	31.0888
1080	31.0256
1076	30.9641
1072	30.97
1068	31.0657
1064	31.0698
1060	31.0129
1056	31.074
1052	31.1748
1048	31.1771
1044	31.1016
1040	31.0375
1036	30.9855
1032	30.8403
1028	30.7374
1024	30.8325
1020	30.8723
1016	30.7957
1012	30.8386
1008	30.9129
1004	30.8768
1000	30.8173
996	 30.8342
992	 30.8861
988	 30.8051
984	 30.6386
980	 30.5682
976	 30.5031
972	 30.378
968	 30.2738
964	 30.2014
960	 30.2242
956	 30.355
952	 30.4123
948	 30.3647
944	 30.384
940	 30.4208
936	 30.3869
932	 30.3034
928	 30.1263
924	 29.935
920	 29.8765
916	 29.8586
912	 29.7519
908	 29.7165
904	 29.864
900	 30.0175
896	 30.036
892	 30.002
888	 29.9434
884	 29.8565
880	 29.7379
876	 29.5846
872	 29.5147
868	 29.3925
864	 29.1659
860	 29.0504
856	 29.0637
852	 29.1053
848	 29.1802
844	 29.3238
840	 29.4664
836	 29.471
832	 29.3292
828	 29.1677
824	 28.9846
820	 28.7848
816	 28.7132
812	 28.7216
808	 28.6553
804	 28.5068
800	 28.3448
796	 28.2952
792	 28.4187
788	 28.5233
784	 28.4918
780	 28.5036
776	 28.5069
772	 28.3151
768	 28.0428
764	 27.8437
760	 27.7336
756	 27.6761
752	 27.7311
748	 27.8621
744	 27.8961
740	 27.8453
736	 27.9112
732	 28.0239
728	 27.9826
724	 27.8606
720	 27.6561
716	 27.3308
712	 27.1005
708	 26.9632
704	 26.6212
700	 26.2933
696	 26.3177
692	 26.5654
688	 26.7388
684	 26.6906
680	 26.6818
676	 26.8392
672	 26.9055
668	 26.8238
664	 26.7475
660	 26.5704
656	 26.2243
652	 25.8461
648	 25.5485
644	 25.4205
640	 25.3792
636	 25.3078
632	 25.372
628	 25.53
624	 25.5171
620	 25.5352
616	 25.6585
612	 25.7838
608	 25.8108
604	 25.512
600	 25.0477
596	 24.5931
592	 24.2374
588	 24.2153
584	 24.5293
580	 24.9103
576	 24.8893
572	 24.4455
568	 24.2178
564	 24.2907
560	 24.2371
556	 24.0213
552	 23.7031
548	 23.442
544	 23.3152
540	 23.2161
536	 23.2306
532	 23.1725
528	 23.1175
524	 23.2986
520	 23.3745
516	 23.3193
512	 23.2806
508	 23.0401
504	 22.6899
500	 22.5158
496	 22.3342
492	 22.1765
488	 21.9565
484	 21.4002
480	 21.1407
476	 21.3302
472	 21.4788
468	 21.4876
464	 21.6111
460	 22.2457
456	 22.489
452	 21.6505
448	 20.7408
444	 20.1281
440	 19.6807
436	 18.7979
432	 17.9695
428	 19.0006
424	 19.7887
420	 18.9156
416	 18.668
412	 18.9992
408	 19.2746
404	 17.82
400	 15.3694
396	 15.7799
392	 15.8629
388	 13.9553
384	 16.9982
380	 22.081
376	 10.8118
372	 0.916051
370	 2.897691