File: Bakgrunnsmateriale/MATLAB/FTIR/ftir_data/LPE453/Mapping_121/LPE453_e124_cm-1.asc
PE IR       SPECTRUM    SPECTRUM    ASCII       PEDS        1.60
  -1
LP07BB~1.ASC
17/05/16
18:00:33.00
17/05/16
18:00:33.00
tln
$LPE453_e0124$<ebV0>[-23.3,12.1,10.0,0.0,27,1,0]
370
64

2002,4.07
MIRTGS : RIGHTBACK : INTERNAL 2
MIR : ON : INTERNAL 2
OPTKBR

0.200000
8
8.000000
FILLER
SINGLE
SPECTRUM
UNLOCKED 256

DOUBLE

COMBINED
1
0
0

1.000000
BACKG

1
0
TRUE
51149
0
LEFT NOT FITTED RIGHT NOT FITTED 0
NONE
NONE
15600
12
4.427000
51148
TRUE
1 0 8 72 0 0 0 0

15798

#HDR
-1
-1
#GR
CM-1
EGY
2.38419e-05
0.0
5000
-1.000000
4631
8
2.420949
0.008201
#DATA
5000	0.763392
4996	0.765657
4992	0.767850
4988	0.770759
4984	0.773787
4980	0.774836
4976	0.774669
4972	0.776791
4968	0.781106
4964	0.783920
4960	0.785160
4956	0.787472
4952	0.788950
4948	0.788521
4944	0.788998
4940	0.790691
4936	0.792741
4932	0.795841
4928	0.799107
4924	0.800776
4920	0.802040
4916	0.803589
4912	0.804376
4908	0.805377
4904	0.807833
4900	0.810408
4896	0.811576
4892	0.811743
4888	0.813317
4884	0.815534
4880	0.816106
4876	0.816941
4872	0.819444
4868	0.820922
4864	0.821757
4860	0.824618
4856	0.828003
4852	0.830340
4848	0.832390
4844	0.835013
4840	0.838565
4836	0.842237
4832	0.844931
4828	0.846576
4824	0.848007
4820	0.849604
4816	0.851655
4812	0.854849
4808	0.858116
4804	0.860190
4800	0.861549
4796	0.863480
4792	0.865149
4788	0.866270
4784	0.869488
4780	0.874042
4776	0.876975
4772	0.878047
4768	0.879383
4764	0.881505
4760	0.884199
4756	0.886487
4752	0.886273
4748	0.886273
4744	0.888323
4740	0.891160
4736	0.895380
4732	0.898551
4728	0.898814
4724	0.898170
4720	0.897693
4716	0.898718
4712	0.900483
4708	0.899887
4704	0.898289
4700	0.899529
4696	0.901818
4692	0.902724
4688	0.902986
4684	0.902032
4680	0.900268
4676	0.901007
4672	0.904083
4668	0.906252
4664	0.906324
4660	0.906848
4656	0.908422
4652	0.908446
4648	0.908350
4644	0.910949
4640	0.913548
4636	0.913524
4632	0.913906
4628	0.915861
4624	0.917816
4620	0.921010
4616	0.925445
4612	0.927877
4608	0.926971
4604	0.927543
4600	0.930809
4596	0.932526
4592	0.932478
4588	0.932955
4584	0.936222
4580	0.942707
4576	0.947046
4572	0.948381
4568	0.950336
4564	0.952911
4560	0.957155
4556	0.960922
4552	0.963306
4548	0.965404
4544	0.968742
4540	0.964117
4536	0.960969
4532	0.968480
4528	0.983262
4524	0.972867
4520	0.937438
4516	0.994253
4512	1.061844
4508	1.009058
4504	0.966119
4500	0.974082
4496	0.986170
4492	1.006412
4488	1.001954
4484	0.983977
4480	0.987076
4476	0.995969
4472	0.999069
4468	1.000905
4464	1.000595
4460	1.001834
4456	1.004767
4452	1.006460
4448	1.007485
4444	1.009535
4440	1.009082
4436	1.006317
4432	1.005697
4428	1.006865
4424	1.007485
4420	1.007652
4416	1.010322
4412	1.013827
4408	1.015186
4404	1.016831
4400	1.018857
4396	1.019620
4392	1.021528
4388	1.024937
4384	1.026892
4380	1.026892
4376	1.028251
4372	1.032376
4368	1.037430
4364	1.039838
4360	1.040077
4356	1.043438
4352	1.049780
4348	1.055240
4344	1.058506
4340	1.061511
4336	1.065564
4332	1.070594
4328	1.076006
4324	1.080608
4320	1.084709
4316	1.088833
4312	1.093339
4308	1.098084
4304	1.101374
4300	1.105475
4296	1.111602
4292	1.116871
4288	1.122093
4284	1.128101
4280	1.133704
4276	1.136016
4272	1.136684
4268	1.140260
4264	1.145911
4260	1.149749
4256	1.152706
4252	1.157188
4248	1.159954
4244	1.161623
4240	1.164650
4236	1.168012
4232	1.170921
4228	1.173758
4224	1.176166
4220	1.177835
4216	1.180195
4212	1.182913
4208	1.184177
4204	1.184511
4200	1.186156
4196	1.189708
4192	1.192498
4188	1.193928
4184	1.196527
4180	1.200604
4176	1.203846
4172	1.205420
4168	1.204991
4164	1.204872
4160	1.207971
4156	1.211524
4152	1.214623
4148	1.218104
4144	1.220107
4140	1.220750
4136	1.223587
4132	1.228833
4128	1.232314
4124	1.234078
4120	1.237535
4116	1.241540
4112	1.243376
4108	1.245641
4104	1.250410
4100	1.256418
4096	1.262664
4092	1.267218
4088	1.271152
4084	1.275897
4080	1.281166
4076	1.287174
4072	1.293444
4068	1.298499
4064	1.302194
4060	1.306343
4056	1.311087
4052	1.316046
4048	1.321721
4044	1.327729
4040	1.333689
4036	1.339817
4032	1.345419
4028	1.349592
4024	1.352524
4020	1.355814
4016	1.361584
4012	1.368117
4008	1.372742
4004	1.376509
4000	1.378941
3996	1.381468
3992	1.385760
3988	1.389384
3984	1.392054
3980	1.394748
3976	1.396751
3972	1.398777
3968	1.402044
3964	1.404571
3960	1.405501
3956	1.407027
3952	1.409173
3948	1.410365
3944	1.410794
3940	1.412057
3936	1.414084
3932	1.415967
3928	1.417303
3924	1.418232
3920	1.419305
3916	1.420569
3912	1.421880
3908	1.421260
3904	1.419734
3900	1.421642
3896	1.424217
3892	1.424264
3888	1.425981
3884	1.430344
3880	1.434803
3876	1.436042
3872	1.435017
3868	1.437306
3864	1.442909
3860	1.443767
3856	1.438546
3852	1.441931
3848	1.454377
3844	1.459836
3840	1.458668
3836	1.461529
3832	1.469373
3828	1.475214
3824	1.476716
3820	1.477885
3816	1.483821
3812	1.492762
3808	1.497244
3804	1.497316
3800	1.499986
3796	1.507997
3792	1.517128
3788	1.523709
3784	1.527357
3780	1.530647
3776	1.534318
3772	1.535701
3768	1.536631
3764	1.539635
3760	1.541280
3756	1.537227
3752	1.531386
3748	1.530408
3744	1.535844
3740	1.543712
3736	1.548147
3732	1.551699
3728	1.556706
3724	1.561665
3720	1.564836
3716	1.562714
3712	1.559305
3708	1.561307
3704	1.565003
3700	1.566791
3696	1.565718
3692	1.559996
3688	1.557588
3684	1.561069
3680	1.560354
3676	1.555657
3672	1.555109
3668	1.560521
3664	1.566338
3660	1.566672
3656	1.562690
3652	1.558327
3648	1.558828
3644	1.564550
3640	1.569271
3636	1.569890
3632	1.565670
3628	1.564073
3624	1.568269
3620	1.570415
3616	1.570129
3612	1.571655
3608	1.576066
3604	1.580834
3600	1.583123
3596	1.583719
3592	1.582908
3588	1.583123
3584	1.587414
3580	1.591563
3576	1.593661
3572	1.594543
3568	1.594877
3564	1.597261
3560	1.600933
3556	1.603603
3552	1.605653
3548	1.607394
3544	1.608228
3540	1.608133
3536	1.607966
3532	1.608037
3528	1.608729
3524	1.610469
3520	1.612043
3516	1.611995
3512	1.610493
3508	1.608705
3504	1.606941
3500	1.605272
3496	1.604413
3492	1.603984
3488	1.602029
3484	1.599240
3480	1.598429
3476	1.598238
3472	1.596093
3468	1.592421
3464	1.589274
3460	1.587390
3456	1.585841
3452	1.583361
3448	1.579141
3444	1.574683
3440	1.572442
3436	1.571536
3432	1.570868
3428	1.570749
3424	1.571083
3420	1.571846
3416	1.572418
3412	1.573538
3408	1.575613
3404	1.578831
3400	1.583123
3396	1.586198
3392	1.587891
3388	1.590275
3384	1.592803
3380	1.594543
3376	1.596426
3372	1.599478
3368	1.604270
3364	1.610541
3360	1.615858
3356	1.620531
3352	1.627588
3348	1.635718
3344	1.641631
3340	1.645946
3336	1.651144
3332	1.657462
3328	1.663184
3324	1.668357
3320	1.674342
3316	1.680183
3312	1.684808
3308	1.689171
3304	1.693820
3300	1.698923
3296	1.704359
3292	1.709651
3288	1.713681
3284	1.717996
3280	1.724457
3276	1.730275
3272	1.733899
3268	1.736927
3264	1.740002
3260	1.743078
3256	1.746797
3252	1.751065
3248	1.753878
3244	1.755738
3240	1.758193
3236	1.760101
3232	1.762175
3228	1.765298
3224	1.767635
3220	1.768708
3216	1.769733
3212	1.770114
3208	1.769375
3204	1.769065
3200	1.770448
3196	1.772737
3192	1.773977
3188	1.774358
3184	1.775121
3180	1.775479
3176	1.776456
3172	1.778960
3168	1.780843
3164	1.781582
3160	1.783585
3156	1.786470
3152	1.788306
3148	1.791262
3144	1.796269
3140	1.800036
3136	1.802587
3132	1.806449
3128	1.811552
3124	1.816296
3120	1.820945
3116	1.827526
3112	1.835107
3108	1.841378
3104	1.847147
3100	1.854228
3096	1.862239
3092	1.870298
3088	1.878643
3084	1.887369
3080	1.894593
3076	1.899266
3072	1.902794
3068	1.906156
3064	1.910805
3060	1.917934
3056	1.926088
3052	1.933026
3048	1.938748
3044	1.944303
3040	1.948881
3036	1.952195
3032	1.954150
3028	1.951861
3024	1.943635
3020	1.936006
3016	1.939892
3012	1.956653
3008	1.976633
3004	1.991724
3000	2.001214
2996	2.007579
2992	2.010917
2988	2.009224
2984	2.002930
2980	1.994514
2976	1.981282
2972	1.959896
2968	1.935935
2964	1.917433
2960	1.907157
2956	1.902651
2952	1.898503
2948	1.887702
2944	1.864743
2940	1.831459
2936	1.796817
2932	1.767897
2928	1.748943
2924	1.751661
2920	1.784825
2916	1.834845
2912	1.878690
2908	1.907849
2904	1.927375
2900	1.942825
2896	1.955223
2892	1.965999
2888	1.975798
2884	1.982975
2880	1.985716
2876	1.980090
2872	1.961874
2868	1.930308
2864	1.895928
2860	1.883244
2856	1.903295
2852	1.942682
2848	1.984214
2844	2.018356
2840	2.043867
2836	2.063369
2832	2.078127
2828	2.090620
2824	2.103328
2820	2.115130
2816	2.124261
2812	2.132678
2808	2.141380
2804	2.149128
2800	2.155733
2796	2.161669
2792	2.169084
2788	2.178120
2784	2.186298
2780	2.193808
2776	2.200961
2772	2.206611
2768	2.210259
2764	2.212953
2760	2.215838
2756	2.219200
2752	2.223086
2748	2.226567
2744	2.229118
2740	2.231431
2736	2.232718
2732	2.232551
2728	2.232336
2724	2.232575
2720	2.233481
2716	2.233839
2712	2.231431
2708	2.227783
2704	2.225136
2700	2.222776
2696	2.221322
2692	2.221465
2688	2.220010
2684	2.216148
2680	2.213907
2676	2.213716
2672	2.212548
2668	2.209949
2664	2.206468
2660	2.203035
2656	2.200627
2652	2.199983
2648	2.199435
2644	2.197289
2640	2.196168
2636	2.197098
2632	2.197933
2628	2.198529
2624	2.199363
2620	2.200150
2616	2.200627
2612	2.201151
2608	2.201771
2604	2.201533
2600	2.201366
2596	2.202486
2592	2.204418
2588	2.208232
2584	2.213883
2580	2.220249
2576	2.227187
2572	2.233457
2568	2.237963
2564	2.241969
2560	2.247381
2556	2.253508
2552	2.259063
2548	2.263903
2544	2.268195
2540	2.272748
2536	2.277493
2532	2.281737
2528	2.285456
2524	2.288913
2520	2.291464
2516	2.293205
2512	2.294611
2508	2.296018
2504	2.298402
2500	2.300643
2496	2.300548
2492	2.298521
2488	2.296352
2484	2.295207
2480	2.294421
2476	2.293491
2472	2.291941
2468	2.290272
2464	2.287936
2460	2.284097
2456	2.280569
2452	2.277135
2448	2.272939
2444	2.268743
2440	2.263569
2436	2.257394
2432	2.253317
2428	2.252388
2424	2.251172
2420	2.246689
2416	2.241396
2412	2.238702
2408	2.236461
2404	2.233576
2400	2.232432
2396	2.231001
2392	2.227663
2388	2.224636
2384	2.221965
2380	2.219629
2376	2.217936
2372	2.215790
2368	2.212595
2364	2.209234
2360	2.209925
2356	2.217435
2352	2.227997
2348	2.235221
2344	2.237200
2340	2.238488
2336	2.243089
2332	2.249622
2328	2.256584
2324	2.264356
2320	2.272462
2316	2.280569
2312	2.289199
2308	2.297782
2304	2.305173
2300	2.310729
2296	2.314567
2292	2.318549
2288	2.323484
2284	2.328133
2280	2.332544
2276	2.336883
2272	2.340269
2268	2.342796
2264	2.344918
2260	2.346420
2256	2.347111
2252	2.346873
2248	2.346801
2244	2.348184
2240	2.350306
2236	2.349948
2232	2.347207
2228	2.345871
2224	2.345037
2220	2.342200
2216	2.338743
2212	2.336049
2208	2.333688
2204	2.331233
2200	2.327847
2196	2.323579
2192	2.320051
2188	2.317094
2184	2.314019
2180	2.311205
2176	2.309536
2172	2.308225
2168	2.306938
2164	2.304649
2160	2.301383
2156	2.299857
2152	2.300763
2148	2.302408
2144	2.303171
2140	2.302908
2136	2.302336
2132	2.300119
2128	2.297925
2124	2.298116
2120	2.300620
2116	2.303719
2112	2.305197
2108	2.305579
2104	2.305817
2100	2.305698
2096	2.305436
2092	2.304840
2088	2.304768
2084	2.306580
2080	2.310657
2076	2.317261
2072	2.324509
2068	2.330684
2064	2.337217
2060	2.344965
2056	2.353310
2052	2.362155
2048	2.370548
2044	2.378034
2040	2.385306
2036	2.391600
2032	2.396178
2028	2.399230
2024	2.401757
2020	2.405595
2016	2.409934
2012	2.412533
2008	2.414250
2004	2.417564
2000	2.420592
1996	2.420401
1992	2.417778
1988	2.415251
1984	2.413845
1980	2.413201
1976	2.410960
1972	2.405166
1968	2.399873
1964	2.397394
1960	2.393960
1956	2.389073
1952	2.385687
1948	2.383041
1944	2.379775
1940	2.376484
1936	2.373743
1932	2.371239
1928	2.367067
1924	2.362132
1920	2.357816
1916	2.353429
1912	2.348256
1908	2.343273
1904	2.339935
1900	2.336072
1896	2.332496
1892	2.332258
1888	2.333831
1884	2.335166
1880	2.336621
1876	2.338337
1872	2.339100
1868	2.340579
1864	2.344179
1860	2.347469
1856	2.350449
1852	2.353024
1848	2.353644
1844	2.355480
1840	2.361154
1836	2.365636
1832	2.366328
1828	2.368044
1824	2.373743
1820	2.380609
1816	2.385139
1812	2.388286
1808	2.391004
1804	2.390980
1800	2.389454
1796	2.388453
1792	2.388453
1788	2.390098
1784	2.390813
1780	2.388095
1776	2.380251
1772	2.372312
1768	2.371883
1764	2.373313
1760	2.370381
1756	2.361774
1752	2.348828
1748	2.337360
1744	2.325510
1740	2.308511
1736	2.291393
1732	2.286410
1728	2.291631
1724	2.287793
1720	2.271771
1716	2.262473
1712	2.262997
1708	2.255892
1704	2.237248
1700	2.219319
1696	2.215933
1692	2.220845
1688	2.213406
1684	2.202916
1680	2.203750
1676	2.201652
1672	2.192664
1668	2.185702
1664	2.180385
1660	2.168488
1656	2.144122
1652	2.125549
1648	2.125215
1644	2.128505
1640	2.121138
1636	2.107167
1632	2.099227
1628	2.089738
1624	2.069950
1620	2.040743
1616	2.004075
1612	1.966047
1608	1.941418
1604	1.944136
1600	1.961827
1596	1.975131
1592	1.980900
1588	1.980161
1584	1.973271
1580	1.960921
1576	1.949858
1572	1.945829
1568	1.940131
1564	1.919937
1560	1.895928
1556	1.897430
1552	1.917219
1548	1.924371
1544	1.921534
1540	1.942753
1536	1.996016
1532	2.046799
1528	2.072429
1524	2.077245
1520	2.073407
1516	2.068209
1512	2.055597
1508	2.026367
1504	1.958775
1500	1.819705
1496	1.673793
1492	1.655817
1488	1.760792
1484	1.872229
1480	1.928877
1476	1.942515
1472	1.941037
1468	1.931881
1464	1.904940
1460	1.849651
1456	1.776981
1452	1.735162
1448	1.757812
1444	1.805639
1440	1.829195
1436	1.835513
1432	1.840257
1428	1.841163
1424	1.835966
1420	1.825761
1416	1.812934
1412	1.786255
1408	1.738452
1404	1.700496
1400	1.704525
1396	1.737141
1392	1.762485
1388	1.763248
1384	1.759839
1380	1.770949
1376	1.782894
1372	1.787161
1368	1.788663
1364	1.789093
1360	1.789212
1356	1.788520
1352	1.786899
1348	1.785755
1344	1.785302
1340	1.788282
1336	1.797652
1332	1.808738
1328	1.816058
1324	1.820254
1320	1.823258
1316	1.824593
1312	1.824164
1308	1.823663
1304	1.824426
1300	1.825714
1296	1.826381
1292	1.826882
1288	1.826548
1284	1.824140
1280	1.818251
1276	1.804280
1272	1.776099
1268	1.732826
1264	1.693344
1260	1.690721
1256	1.727151
1252	1.768803
1248	1.792979
1244	1.803207
1240	1.807665
1236	1.807069
1232	1.802468
1228	1.797080
1224	1.788568
1220	1.773142
1216	1.753258
1212	1.735138
1208	1.723647
1204	1.719450
1200	1.719522
1196	1.719069
1192	1.715135
1188	1.707243
1184	1.696872
1180	1.685762
1176	1.674103
1172	1.659965
1168	1.642370
1164	1.623630
1160	1.606774
1156	1.594257
1152	1.586413
1148	1.580309
1144	1.573610
1140	1.565527
1136	1.553821
1132	1.536965
1128	1.517701
1124	1.498031
1120	1.477122
1116	1.455974
1112	1.437020
1108	1.421928
1104	1.412010
1100	1.406884
1096	1.404380
1092	1.403927
1088	1.405072
1084	1.405763
1080	1.404500
1076	1.404976
1072	1.411151
1068	1.417636
1064	1.416707
1060	1.398873
1056	1.348733
1052	1.291227
1048	1.287508
1044	1.330232
1040	1.359868
1036	1.363253
1032	1.356911
1028	1.347541
1024	1.339983
1020	1.339221
1016	1.344895
1012	1.354789
1008	1.365804
1004	1.373672
1000	1.377177
996	 1.377010
992	 1.373672
988	 1.367998
984	 1.360535
980	 1.352548
976	 1.344561
972	 1.335334
968	 1.324129
964	 1.310801
960	 1.296353
956	 1.281070
952	 1.266217
948	 1.254796
944	 1.246333
940	 1.239275
936	 1.232409
932	 1.224374
928	 1.215744
924	 1.206970
920	 1.196932
916	 1.184153
912	 1.168823
908	 1.155066
904	 1.145982
900	 1.139664
896	 1.133322
892	 1.123142
888	 1.103806
884	 1.072740
880	 1.037955
876	 1.016879
872	 1.021552
868	 1.044774
864	 1.066732
860	 1.076412
856	 1.076507
852	 1.072597
848	 1.067161
844	 1.059651
840	 1.045393
836	 1.012635
832	 0.949835
828	 0.873303
824	 0.835299
820	 0.860810
816	 0.907230
812	 0.931859
808	 0.935435
804	 0.932884
800	 0.932431
796	 0.936579
792	 0.945925
788	 0.957322
784	 0.964951
780	 0.967073
776	 0.965785
772	 0.962567
768	 0.957942
764	 0.953412
760	 0.950384
756	 0.947451
752	 0.942707
748	 0.936198
744	 0.928854
740	 0.920414
736	 0.910997
732	 0.900077
728	 0.888156
724	 0.876498
720	 0.865125
716	 0.853514
712	 0.841712
708	 0.829839
704	 0.817084
700	 0.800871
696	 0.777673
692	 0.747966
688	 0.725054
684	 0.720047
680	 0.722503
676	 0.719261
672	 0.711011
668	 0.703048
664	 0.696301
660	 0.687623
656	 0.676584
652	 0.665092
648	 0.653886
644	 0.643110
640	 0.632786
636	 0.623250
632	 0.614023
628	 0.603485
624	 0.591897
620	 0.580000
616	 0.566196
612	 0.547742
608	 0.527453
604	 0.515723
600	 0.515079
596	 0.515651
592	 0.511050
588	 0.503778
584	 0.498843
580	 0.497364
576	 0.495982
572	 0.492286
568	 0.486207
564	 0.478863
560	 0.472116
556	 0.465583
552	 0.458717
548	 0.451946
544	 0.445437
540	 0.438261
536	 0.429797
532	 0.420784
528	 0.411653
524	 0.402307
520	 0.393843
516	 0.385332
512	 0.374841
508	 0.363826
504	 0.353360
500	 0.341939
496	 0.328588
492	 0.314450
488	 0.300741
484	 0.287461
480	 0.273871
476	 0.260162
472	 0.247645
468	 0.236248
464	 0.223851
460	 0.209164
456	 0.193476
452	 0.179529
448	 0.168490
444	 0.158786
440	 0.147581
436	 0.135326
432	 0.124025
428	 0.112104
424	 0.097537
420	 0.084424
416	 0.074243
412	 0.063800
408	 0.054359
404	 0.045561
400	 0.036811
396	 0.031137
392	 0.026798
388	 0.022363
384	 0.018477
380	 0.014448
376	 0.011229
372	 0.009107
370	 0.008201