File: Bakgrunnsmateriale/MATLAB/FTIR/ftir_data/LPE453/Mapping_121/LPE453_t32_cm-1.asc
PE IR       SPECTRUM    SPECTRUM    ASCII       PEDS        1.60
  -1
LPD850~1.ASC
17/05/16
16:58:46.00
17/05/16
16:58:46.00
tln
$LPE453_t0032$<tbV0>[-10.4,-7.8,8.0,0.0,27,1,0]
370
64

2002,4.07
MIRTGS : RIGHTBACK : INTERNAL 2
MIR : ON : INTERNAL 2
OPTKBR

0.200000
8
8.000000
FILLER
RATIO
SPECTRUM
UNLOCKED 256

DOUBLE
64
COMBINED
1
0
0

1.000000
RATIO

1
0
TRUE
51149
0
LEFT NOT FITTED RIGHT NOT FITTED 0
NONE
NONE
15600
12
4.427000
51148
TRUE
1 0 8 72 0 0 0 0

15798

#HDR
-1
-1
#GR
CM-1
%T
2.38419e-05
0.0
5000
-1.000000
4631
8
50.2027
-1.038861
#DATA
5000	-0.107073
4996	-0.046634
4992	0.150227
4988	0.237441
4984	0.175738
4980	0.242185
4976	0.377941
4972	0.103044
4968	-0.461530
4964	-0.603699
4960	-0.388121
4956	-0.173854
4952	-0.047755
4948	-0.068044
4944	-0.058794
4940	0.137114
4936	0.195169
4932	0.047659
4928	0.061058
4924	0.134325
4920	0.168061
4916	0.329613
4912	0.317406
4908	-0.001406
4904	-0.029611
4900	0.372266
4896	0.700569
4892	0.817584
4888	0.728106
4884	0.151109
4880	-0.624847
4876	-0.762748
4872	-0.279998
4868	0.224924
4864	0.435495
4860	0.309205
4856	0.080370
4852	-0.093722
4848	-0.173664
4844	-0.207233
4840	-0.231575
4836	-0.116920
4832	0.063562
4828	0.135469
4824	0.150704
4820	0.229072
4816	0.249433
4812	0.212073
4808	0.177574
4804	0.090193
4800	0.010633
4796	0.019192
4792	0.100493
4788	0.153374
4784	0.205111
4780	0.181984
4776	0.054621
4772	-0.135159
4768	-0.269889
4764	-0.161790
4760	-0.010085
4756	0.042009
4752	0.065636
4748	-0.098466
4744	-0.335240
4740	-0.274753
4736	-0.058197
4732	-0.056409
4728	-0.091004
4724	0.016593
4720	0.020694
4716	-0.036454
4712	0.050354
4708	0.175690
4704	0.164723
4700	-0.076127
4696	-0.233912
4692	-0.073289
4688	0.085783
4684	0.027632
4680	0.000762
4676	0.159835
4672	0.365519
4668	0.534653
4664	0.486660
4660	0.355505
4656	0.403904
4652	0.458645
4648	0.388050
4644	0.189924
4640	0.141549
4636	0.485086
4632	0.752735
4628	0.445699
4624	0.024819
4620	0.046348
4616	0.191211
4612	0.333666
4608	0.534462
4604	0.424456
4600	0.231432
4596	0.430130
4592	0.730514
4588	0.643849
4584	0.266981
4580	0.134944
4576	0.521373
4572	0.253081
4568	-0.703811
4564	-0.848245
4560	-0.406002
4556	0.143980
4552	0.181245
4548	-0.461411
4544	-0.427150
4540	0.136590
4536	0.094008
4532	-0.792241
4528	-0.879859
4524	-0.244092
4520	3.910231
4516	11.1813
4512	10.6652
4508	5.256652
4504	2.005004
4500	-0.588226
4496	-0.745129
4492	-0.075864
4488	-0.068783
4484	-0.226855
4480	-0.959658
4476	-0.792789
4472	-0.112867
4468	0.202178
4464	0.381445
4460	0.314140
4456	0.365328
4452	0.633525
4448	0.595760
4444	0.273442
4440	0.079059
4436	0.144338
4432	0.258231
4428	0.295281
4424	0.256943
4420	0.224018
4416	0.267839
4412	0.191211
4408	0.121951
4404	0.104069
4400	0.074315
4396	0.213432
4392	0.257992
4388	0.106954
4384	0.091409
4380	0.168299
4376	0.264191
4372	0.467491
4368	0.627827
4364	0.503444
4360	0.155591
4356	-0.057148
4352	0.029420
4348	0.121617
4344	-0.018930
4340	-0.210976
4336	-0.266098
4332	-0.123167
4328	0.131106
4324	0.264954
4320	0.173211
4316	-0.010371
4312	-0.043773
4308	0.041770
4304	0.083184
4300	0.100159
4296	0.081443
4292	-0.065517
4288	-0.074696
4284	0.175309
4280	0.252580
4276	0.106930
4272	0.152826
4268	0.302004
4264	0.303053
4260	0.077462
4256	-0.151371
4252	-0.087809
4248	-0.061035
4244	-0.259518
4240	-0.358128
4236	-0.208830
4232	0.114989
4228	0.327324
4224	0.164604
4220	-0.012516
4216	-0.016260
4212	-0.041055
4208	0.032854
4204	0.208806
4200	0.259280
4196	0.339198
4192	0.471878
4188	0.383949
4184	0.163936
4180	-0.373315
4176	-0.808620
4172	-0.575709
4168	-0.132179
4164	0.087666
4160	0.080823
4156	-0.031185
4152	0.001287
4148	0.148820
4144	0.094580
4140	0.010681
4136	0.136780
4132	0.258016
4128	0.251817
4124	0.140547
4120	0.026750
4116	0.026535
4112	0.059032
4108	-0.012898
4104	-0.080299
4100	-0.026893
4096	0.029420
4092	0.117206
4088	0.180578
4084	0.047707
4080	-0.065302
4076	-0.021576
4072	-0.042700
4068	-0.097584
4064	0.024127
4060	0.194787
4056	0.170087
4052	-0.030875
4048	-0.202965
4044	-0.197887
4040	0.026464
4036	0.167465
4032	-0.029349
4028	-0.121164
4024	0.079393
4020	0.303268
4016	0.453352
4012	0.327801
4008	0.031018
4004	-0.077676
4000	-0.053000
3996	-0.024795
3992	0.049638
3988	0.118374
3984	0.096678
3980	0.083327
3976	0.098633
3972	0.043272
3968	-0.025296
3964	-0.027441
3960	0.001835
3956	0.037050
3952	0.101733
3948	0.154328
3944	0.139474
3940	0.063228
3936	0.058150
3932	0.153923
3928	0.124740
3924	-0.025057
3920	-0.028014
3916	0.053143
3912	-0.095272
3908	-0.281691
3904	-0.223517
3900	-0.041866
3896	0.095319
3892	0.046038
3888	-0.122356
3884	-0.188446
3880	-0.145077
3876	-0.026655
3872	0.044775
3868	0.011086
3864	0.005197
3860	0.118517
3856	0.225877
3852	0.193786
3848	0.093722
3844	0.013446
3840	0.050210
3836	0.200200
3832	0.303530
3828	0.269699
3824	-0.002193
3820	-0.202202
3816	-0.039339
3812	0.074172
3808	-0.005269
3804	-0.004124
3800	0.044965
3796	0.004553
3792	-0.041890
3788	-0.003767
3784	0.071287
3780	0.096344
3776	0.087237
3772	0.143265
3768	0.122904
3764	-0.077891
3760	-0.189208
3756	-0.057888
3752	0.100803
3748	0.119757
3744	0.086450
3740	0.035667
3736	-0.038933
3732	-0.024724
3728	0.071597
3724	0.067281
3720	0.000143
3716	-0.024008
3712	-0.098609
3708	-0.134754
3704	-0.010728
3700	0.089192
3696	0.135159
3692	0.223183
3688	0.217175
3684	0.071215
3680	-0.037956
3676	0.010442
3672	0.100517
3668	0.137281
3664	0.205016
3660	0.239062
3656	0.203824
3652	0.205945
3648	0.201511
3644	0.155162
3640	0.154399
3636	0.186324
3632	0.181722
3628	0.155329
3624	0.101208
3620	-0.028681
3616	-0.149297
3612	-0.189352
3608	-0.233554
3604	-0.263929
3600	-0.174427
3596	0.036954
3592	0.191283
3588	0.132751
3584	0.024771
3580	-0.014281
3576	-0.043964
3572	-0.016427
3568	0.024342
3564	0.006961
3560	0.006604
3556	0.032448
3552	0.030040
3548	0.005078
3544	-0.011706
3540	0.022149
3536	0.104570
3532	0.149822
3528	0.167465
3524	0.191998
3520	0.166368
3516	0.142598
3512	0.200080
3508	0.213217
3504	0.109195
3500	0.044250
3496	0.060653
3492	0.067973
3488	0.061249
3484	-0.015497
3480	-0.124382
3476	-0.085878
3472	-0.026774
3468	-0.052118
3464	0.012660
3460	0.094819
3456	0.046849
3452	-0.002455
3448	0.068855
3444	0.178837
3440	0.122213
3436	-0.031113
3432	-0.033950
3428	0.037884
3424	0.101542
3420	0.144886
3416	0.139093
3412	0.154876
3408	0.149512
3404	0.038075
3400	-0.091767
3396	-0.111246
3392	-0.084114
3388	-0.051140
3384	-0.011420
3380	0.019097
3376	0.065517
3372	0.096702
3368	0.136852
3364	0.146341
3360	0.091266
3356	0.072455
3352	0.078821
3348	0.060319
3344	0.083112
3340	0.107145
3336	0.021243
3332	-0.042009
3328	-0.028538
3324	-0.047516
3320	-0.076317
3316	-0.082421
3312	-0.052189
3308	-0.017595
3304	0.007796
3300	0.069952
3296	0.095653
3292	0.040984
3288	0.013160
3284	0.029659
3280	0.101494
3276	0.181531
3272	0.163602
3268	0.166034
3264	0.227451
3260	0.221419
3256	0.125432
3252	0.014972
3248	-0.041627
3244	-0.039458
3240	0.020503
3236	0.088572
3232	0.070905
3228	-0.026822
3224	-0.078201
3220	0.038218
3216	0.206923
3212	0.215339
3208	0.069212
3204	-0.055599
3200	-0.015950
3196	0.048112
3192	0.031828
3188	0.075411
3184	0.093603
3180	0.008153
3176	-0.005173
3172	0.081300
3168	0.126695
3164	0.129580
3160	0.177955
3156	0.201487
3152	0.088977
3148	-0.073671
3144	-0.154638
3140	-0.196027
3136	-0.180578
3132	-0.000596
3128	0.223660
3124	0.371932
3120	0.404620
3116	0.246024
3112	0.079512
3108	0.010299
3104	-0.044417
3100	-0.018835
3096	0.046157
3092	0.055813
3088	0.047159
3084	0.017499
3080	-0.032472
3076	-0.037717
3072	-0.037646
3068	-0.057673
3064	-0.013542
3060	0.029039
3056	-0.010824
3052	-0.007224
3048	0.039696
3044	-0.001692
3040	-0.058269
3036	-0.033617
3032	0.012779
3028	0.006103
3024	0.016736
3020	0.048494
3016	0.012612
3012	-0.004267
3008	-0.058913
3004	-0.139880
3000	-0.086784
2996	-0.024366
2992	-0.033664
2988	-0.000238
2984	0.050449
2980	0.077652
2976	0.073957
2972	0.000739
2968	-0.042581
2964	0.031256
2960	0.101947
2956	0.105381
2952	0.080943
2948	0.068521
2944	0.098752
2940	0.128459
2936	0.125408
2932	0.077152
2928	0.044250
2924	0.130462
2920	0.209426
2916	0.175261
2912	0.124263
2908	0.106525
2904	0.115251
2900	0.105690
2896	0.090885
2892	0.114822
2888	0.073456
2884	-0.032258
2880	-0.092959
2876	-0.085568
2872	-0.026845
2868	0.007224
2864	0.008749
2860	0.073790
2856	0.158333
2852	0.147438
2848	0.102019
2844	0.084781
2840	0.038456
2836	0.009536
2832	0.066471
2828	0.102305
2824	0.085973
2820	0.086140
2816	0.063180
2812	-0.009584
2808	-0.052595
2804	-0.006031
2800	0.049424
2796	0.080323
2792	0.087237
2788	0.000166
2784	-0.104475
2780	-0.110030
2776	-0.032949
2772	0.040698
2768	0.088167
2764	0.122046
2760	0.096535
2756	0.039076
2752	0.029802
2748	0.039100
2744	-0.000286
2740	-0.019860
2736	0.033569
2732	0.083589
2728	0.102782
2724	0.124502
2720	0.133752
2716	0.063300
2712	-0.043392
2708	-0.035262
2704	0.057792
2700	0.090050
2696	0.022912
2692	-0.045657
2688	-0.027203
2684	0.034046
2680	0.077819
2676	0.082111
2672	0.027918
2668	0.007462
2664	0.037765
2660	0.037622
2656	-0.001692
2652	-0.059199
2648	-0.070309
2644	-0.010681
2640	0.047707
2636	0.026750
2632	-0.033307
2628	-0.037288
2624	0.041055
2620	0.110745
2616	0.065708
2612	-0.000715
2608	0.051617
2604	0.128030
2600	0.125503
2596	0.111007
2592	0.105786
2588	0.051283
2584	-0.005936
2580	0.018382
2576	0.068783
2572	0.100827
2568	0.114440
2564	0.115871
2560	0.131583
2556	0.098133
2552	-0.005555
2548	-0.096678
2544	-0.097393
2540	0.000452
2536	0.119686
2532	0.129795
2528	0.022101
2524	-0.038790
2520	-0.029969
2516	-0.071501
2512	-0.115013
2508	-0.131845
2504	-0.253009
2500	-0.338268
2496	-0.140738
2492	0.107240
2488	0.127983
2484	0.050663
2480	0.008654
2476	-0.038599
2472	-0.067496
2468	-0.020766
2464	0.081038
2460	0.164747
2456	0.138306
2452	0.055885
2448	0.033926
2444	0.039291
2440	0.046706
2436	0.028848
2432	-0.076889
2428	-0.084137
2424	-0.006651
2420	-0.050449
2416	-0.056695
2412	0.055003
2408	0.125265
2404	0.120854
2400	0.098609
2396	0.062632
2392	-0.009274
2388	-0.042724
2384	0.010323
2380	0.095057
2376	0.166773
2372	0.177311
2368	0.120115
2364	0.109124
2360	0.155138
2356	0.159382
2352	0.150775
2348	0.129389
2344	0.104165
2340	0.154876
2336	0.228214
2332	0.267314
2328	0.268292
2324	0.234460
2320	0.254321
2316	0.333166
2312	0.346302
2308	0.357818
2304	0.446414
2300	0.487971
2296	0.477480
2292	0.495266
2288	0.551271
2284	0.637674
2280	0.712871
2276	0.747990
2272	0.796747
2268	0.934076
2264	1.135563
2260	1.299619
2256	1.400709
2252	1.503729
2248	1.575422
2244	1.604342
2240	1.739048
2236	1.965856
2232	2.163195
2228	2.343964
2224	2.548813
2220	2.778077
2216	2.956533
2212	3.082013
2208	3.295397
2204	3.558349
2200	3.752374
2196	3.993654
2192	4.358482
2188	4.719662
2184	5.014681
2180	5.318856
2176	5.644989
2172	5.951189
2168	6.298542
2164	6.760954
2160	7.215356
2156	7.588505
2152	8.031606
2148	8.495283
2144	8.890795
2140	9.301805
2136	9.703540
2132	10.0866
2128	10.5094
2124	10.9442
2120	11.3477
2116	11.7343
2112	12.1534
2108	12.6837
2104	13.2663
2100	13.7877
2096	14.2681
2092	14.7291
2088	15.1597
2084	15.526
2080	15.9001
2076	16.4519
2072	17.0339
2068	17.4722
2064	17.9056
2060	18.4043
2056	18.8523
2052	19.1986
2048	19.575
2044	19.9986
2040	20.4231
2036	20.856
2032	21.212
2028	21.5223
2024	21.8846
2020	22.2536
2016	22.597
2012	22.9335
2008	23.2597
2004	23.5951
2000	23.9434
1996	24.2593
1992	24.5493
1988	24.8494
1984	25.1579
1980	25.4628
1976	25.7454
1972	26.0074
1968	26.2191
1964	26.3842
1960	26.5648
1956	26.8157
1952	27.1005
1948	27.3295
1944	27.5056
1940	27.6908
1936	27.9323
1932	28.1409
1928	28.2542
1924	28.3817
1920	28.54
1916	28.7159
1912	28.9293
1908	29.1208
1904	29.2528
1900	29.3563
1896	29.4924
1892	29.6362
1888	29.7748
1884	29.8983
1880	29.9454
1876	30.0136
1872	30.192
1868	30.3656
1864	30.4335
1860	30.4767
1856	30.578
1852	30.7128
1848	30.8338
1844	30.9042
1840	30.9592
1836	30.9953
1832	31.0065
1828	31.0696
1824	31.1542
1820	31.2029
1816	31.2569
1812	31.3158
1808	31.3743
1804	31.4439
1800	31.5007
1796	31.5373
1792	31.5563
1788	31.5614
1784	31.5557
1780	31.5767
1776	31.6346
1772	31.6659
1768	31.6941
1764	31.7348
1760	31.7348
1756	31.7637
1752	31.832
1748	31.8746
1744	31.9045
1740	31.8762
1736	31.78
1732	31.7661
1728	31.908
1724	32.0444
1720	32.1231
1716	32.1674
1712	32.1002
1708	32.0143
1704	31.9957
1700	32.0367
1696	32.1183
1692	32.1379
1688	32.0973
1684	32.0864
1680	32.1042
1676	32.1208
1672	32.1326
1668	32.1963
1664	32.3101
1660	32.3516
1656	32.2922
1652	32.2371
1648	32.231
1644	32.2384
1640	32.2483
1636	32.2755
1632	32.3202
1628	32.3237
1624	32.2785
1620	32.2255
1616	32.2026
1612	32.2279
1608	32.2397
1604	32.2257
1600	32.2209
1596	32.2395
1592	32.2619
1588	32.2487
1584	32.252
1580	32.2615
1576	32.2062
1572	32.1704
1568	32.2058
1564	32.2581
1560	32.2834
1556	32.2788
1552	32.2639
1548	32.2693
1544	32.297
1540	32.3564
1536	32.4173
1532	32.4025
1528	32.3173
1524	32.1996
1520	32.1769
1516	32.2748
1512	32.2934
1508	32.1885
1504	32.1567
1500	32.2307
1496	32.2299
1492	32.1497
1488	32.1385
1484	32.1887
1480	32.2213
1476	32.1943
1472	32.11
1468	32.0358
1464	32.0116
1460	32.0506
1456	32.1039
1452	32.1341
1448	32.1796
1444	32.1843
1440	32.1763
1436	32.2341
1432	32.3009
1428	32.2702
1424	32.1358
1420	32.0043
1416	32.023
1412	32.1513
1408	32.1501
1404	32.036
1400	32.0098
1396	32.0395
1392	32.0388
1388	32.0567
1384	32.0984
1380	32.1218
1376	32.1299
1372	32.1382
1368	32.1549
1364	32.1865
1360	32.1704
1356	32.0691
1352	31.9619
1348	31.9095
1344	31.9454
1340	32.0555
1336	32.0796
1332	31.9929
1328	31.9721
1324	32.0454
1320	32.1633
1316	32.249
1312	32.1999
1308	32.1115
1304	32.0621
1300	32.0011
1296	31.9241
1292	31.8748
1288	31.886
1284	31.9177
1280	31.9325
1276	31.9238
1272	31.9124
1268	31.878
1264	31.8292
1260	31.8712
1256	31.9712
1252	32.0217
1248	32.0192
1244	31.9814
1240	31.9031
1236	31.8813
1232	31.9175
1228	31.8724
1224	31.7966
1220	31.7648
1216	31.7992
1212	31.9271
1208	32.0363
1204	32.0536
1200	32.056
1196	32.0318
1192	31.9816
1188	31.9651
1184	31.9045
1180	31.8052
1176	31.7602
1172	31.7142
1168	31.6698
1164	31.6271
1160	31.6338
1156	31.7919
1152	31.9051
1148	31.8892
1144	31.9047
1140	31.9733
1136	32.0066
1132	31.9746
1128	31.9335
1124	31.8765
1120	31.741
1116	31.5575
1112	31.3713
1108	31.2395
1104	31.2738
1100	31.461
1096	31.69
1092	31.8324
1088	31.8617
1084	31.8388
1080	31.7972
1076	31.7682
1072	31.7247
1068	31.6441
1064	31.5085
1060	31.4204
1056	31.415
1052	31.3709
1048	31.4024
1044	31.5084
1040	31.497
1036	31.4506
1032	31.531
1028	31.797
1024	32.0599
1020	31.979
1016	31.6988
1012	31.5256
1008	31.375
1004	31.1658
1000	31.0099
996	 30.9978
992	 31.0438
988	 31.0816
984	 31.1166
980	 31.207
976	 31.3969
972	 31.5281
968	 31.5552
964	 31.5398
960	 31.4519
956	 31.324
952	 31.1987
948	 31.0112
944	 30.8276
940	 30.7986
936	 30.7929
932	 30.7353
928	 30.8192
924	 31.0097
920	 31.0905
916	 31.1124
912	 31.1914
908	 31.2556
904	 31.2477
900	 31.1619
896	 31.0019
892	 30.8332
888	 30.6626
884	 30.4594
880	 30.2961
876	 30.2115
872	 30.2058
868	 30.3005
864	 30.461
860	 30.5946
856	 30.6185
852	 30.6318
848	 30.7573
844	 30.8355
840	 30.6673
836	 30.4902
832	 30.4462
828	 30.293
824	 30.106
820	 29.9856
816	 29.8608
812	 29.7631
808	 29.7613
804	 29.9615
800	 30.2247
796	 30.3587
792	 30.3672
788	 30.2982
784	 30.2387
780	 30.2351
776	 30.1497
772	 29.9284
768	 29.7275
764	 29.6813
760	 29.6493
756	 29.3227
752	 29.0582
748	 29.1542
744	 29.1316
740	 29.2609
736	 29.7782
732	 29.9927
728	 29.9158
724	 29.874
720	 29.8004
716	 29.636
712	 29.2683
708	 28.8937
704	 28.7699
700	 28.7711
696	 28.8389
692	 28.9107
688	 28.9334
684	 28.9869
680	 29.0998
676	 29.098
672	 28.8897
668	 28.7918
664	 28.802
660	 28.6015
656	 28.3982
652	 28.3097
648	 28.1111
644	 27.893
640	 27.7919
636	 27.9906
632	 28.3499
628	 28.3276
624	 28.0984
620	 28.0822
616	 28.2304
612	 28.2236
608	 27.8017
604	 27.2411
600	 27.0445
596	 27.1124
592	 26.9941
588	 26.681
584	 26.4335
580	 26.4585
576	 26.7199
572	 27.0266
568	 27.2274
564	 27.1874
560	 26.9434
556	 26.7177
552	 26.6527
548	 26.5131
544	 26.2193
540	 26.2729
536	 26.3469
532	 25.8556
528	 25.4611
524	 25.4662
520	 25.2696
516	 24.8553
512	 24.9014
508	 25.3094
504	 25.6536
500	 25.969
496	 25.9897
492	 25.7248
488	 25.2568
484	 24.5393
480	 24.0993
476	 24.2919
472	 24.6632
468	 24.2921
464	 23.1505
460	 22.3793
456	 22.9123
452	 23.8879
448	 24.1454
444	 24.4328
440	 24.7957
436	 24.6015
432	 23.8419
428	 22.8362
424	 21.3526
420	 19.2976
416	 17.3383
412	 17.0843
408	 21.0912
404	 24.2604
400	 21.5896
396	 18.4775
392	 19.761
388	 26.326
384	 31.2966
380	 34.6189
376	 46.271
372	 42.7562
370	 17.6825