File: Bakgrunnsmateriale/MATLAB/FTIR/ftir_data/LPE453/Mapping_121/LPE453_t67_cm-1.asc
PE IR       SPECTRUM    SPECTRUM    ASCII       PEDS        1.60
  -1
LP6ADA~1.ASC
17/05/16
19:55:04.00
17/05/16
19:55:04.00
tln
$LPE453_t0067$<tbV0>[13.0,2.6,8.0,0.0,27,1,0]
370
64

2002,4.07
MIRTGS : RIGHTBACK : INTERNAL 2
MIR : ON : INTERNAL 2
OPTKBR

0.200000
8
8.000000
FILLER
RATIO
SPECTRUM
UNLOCKED 256

DOUBLE
64
COMBINED
1
0
0

1.000000
RATIO

1
0
TRUE
51149
0
LEFT NOT FITTED RIGHT NOT FITTED 0
NONE
NONE
15600
12
4.427000
51148
TRUE
1 0 8 72 0 0 0 0

15798

#HDR
-1
-1
#GR
CM-1
%T
2.38419e-05
0.0
5000
-1.000000
4631
8
45.3596
-1.670265
#DATA
5000	0.182485
4996	0.038218
4992	0.153660
4988	0.516867
4984	0.784420
4980	0.599241
4976	0.251293
4972	0.131154
4968	0.144243
4964	0.071310
4960	-0.154972
4956	-0.275897
4952	-0.296211
4948	-0.350856
4944	-0.131154
4940	0.238728
4936	0.352787
4932	0.220775
4928	0.088000
4924	-0.046610
4920	-0.385713
4916	-0.626420
4912	-0.497221
4908	-0.286912
4904	-0.053787
4900	0.213527
4896	0.289440
4892	0.376129
4888	0.617265
4884	0.769138
4880	0.648164
4876	0.376319
4872	0.376772
4868	0.301003
4864	-0.065016
4860	-0.084853
4856	0.227165
4852	0.537943
4848	0.723981
4844	0.498342
4840	0.015687
4836	-0.170373
4832	0.110864
4828	0.266551
4824	0.096654
4820	0.118613
4816	0.251269
4812	0.286626
4808	0.313520
4804	0.206041
4800	0.090503
4796	0.195384
4792	0.231385
4788	0.190091
4784	0.141167
4780	-0.054717
4776	-0.156021
4772	0.028753
4768	0.124478
4764	0.087571
4760	0.228238
4756	0.256466
4752	0.027132
4748	-0.154948
4744	-0.082921
4740	0.109624
4736	0.215840
4732	0.246334
4728	0.072193
4724	0.049090
4720	0.551867
4716	0.954127
4712	0.243258
4708	-0.754213
4704	-0.661754
4700	-0.205469
4696	-0.119900
4692	-0.070476
4688	0.077700
4684	-0.268745
4680	-0.811314
4676	-0.853848
4672	-0.605177
4668	0.304317
4664	1.329588
4660	1.082801
4656	0.331163
4652	0.001406
4648	-0.027775
4644	0.322270
4640	0.604081
4636	0.800037
4632	1.367092
4628	1.697111
4624	1.254129
4620	0.681376
4616	0.747442
4612	0.858807
4608	0.400376
4604	0.185179
4600	0.435137
4596	0.333046
4592	0.052070
4588	-0.045776
4584	-0.037670
4580	0.096178
4576	0.013017
4572	-0.179314
4568	-0.094795
4564	-0.014209
4560	-0.100398
4556	0.134539
4552	0.416302
4548	-0.034308
4544	-0.659823
4540	-0.711703
4536	-0.473976
4532	-0.565576
4528	-0.720214
4524	-0.586509
4520	-0.278210
4516	-0.169897
4512	0.068569
4508	0.471258
4504	0.930905
4500	0.651192
4496	-1.531434
4492	1.478838
4488	12.9292
4484	18.0305
4480	10.4045
4476	2.086925
4472	-0.573778
4468	-0.171136
4464	0.410532
4460	0.251555
4456	-0.036358
4452	-0.153613
4448	-0.161623
4444	-0.103259
4440	0.110244
4436	0.315260
4432	0.257301
4428	0.221514
4424	0.176215
4420	0.003004
4416	-0.210475
4412	-0.417757
4408	-0.607275
4404	-0.841164
4400	-0.755190
4396	-0.138378
4392	0.354599
4388	0.329685
4384	0.135135
4380	0.142550
4376	0.353455
4372	0.423264
4368	0.302910
4364	0.306272
4360	0.429987
4356	0.605654
4352	0.665307
4348	0.481677
4344	0.302052
4340	0.346350
4336	0.491952
4332	0.487327
4328	0.286817
4324	0.105810
4320	0.110268
4316	0.086951
4312	-0.031256
4308	-0.078535
4304	0.090074
4300	0.266051
4296	0.111484
4292	-0.255346
4288	-0.421261
4284	-0.277853
4280	-0.264191
4276	-0.321364
4272	-0.072789
4268	0.087428
4264	0.014400
4260	0.096845
4256	0.286102
4252	0.299787
4248	0.219702
4244	0.237488
4240	0.395631
4236	0.446987
4232	0.236487
4228	0.075674
4224	0.066900
4220	0.124573
4216	0.169658
4212	0.153040
4208	0.253558
4204	0.396680
4200	0.385832
4196	0.423526
4192	0.486350
4188	0.610804
4184	0.883793
4180	0.778961
4176	0.303649
4172	-0.061845
4168	-0.163507
4164	-0.051355
4160	0.093436
4156	0.218820
4152	0.304007
4148	0.293779
4144	0.206422
4140	0.073003
4136	-0.059485
4132	-0.119137
4128	-0.018906
4124	0.110840
4120	0.151205
4116	0.129389
4112	0.037813
4108	-0.068950
4104	-0.132107
4100	0.000882
4096	0.213050
4092	0.212502
4088	0.155377
4084	0.195002
4080	0.198435
4076	0.175571
4072	0.215244
4068	0.200462
4064	0.056266
4060	-0.026941
4056	0.053977
4052	0.114178
4048	0.123834
4044	0.106716
4040	0.043630
4036	0.084519
4032	0.148320
4028	0.113582
4024	0.119829
4020	0.162076
4016	0.100731
4012	0.034451
4008	0.071072
4004	0.140762
4000	0.176787
3996	0.055885
3992	-0.145196
3988	-0.139665
3984	-0.000619
3980	0.061559
3976	0.079774
3972	0.085473
3968	-0.003862
3964	-0.159263
3960	-0.184559
3956	-0.051927
3952	0.047683
3948	0.079131
3944	0.090885
3940	0.138640
3936	0.318193
3932	0.389909
3928	0.239539
3924	0.099182
3920	0.035715
3916	0.024533
3912	0.021791
3908	-0.005292
3904	-0.095844
3900	-0.173497
3896	-0.113058
3892	-0.024366
3888	0.044941
3884	0.129842
3880	0.136661
3876	0.075411
3872	0.061321
3868	0.081348
3864	0.052022
3860	0.044655
3856	0.146079
3852	0.192308
3848	0.106787
3844	0.025558
3840	-0.013279
3836	0.016140
3832	0.124788
3828	0.202131
3824	0.192022
3820	0.139379
3816	0.058364
3812	-0.022268
3808	-0.027275
3804	0.032734
3800	0.071811
3796	0.078868
3792	0.105953
3788	0.083994
3784	-0.038266
3780	-0.127482
3776	-0.072789
3772	0.038051
3768	0.126457
3764	0.205540
3760	0.229907
3756	0.186753
3752	0.125718
3748	0.052762
3744	-0.051927
3740	-0.136756
3736	-0.092434
3732	0.054216
3728	0.085210
3724	0.030851
3720	0.048232
3716	0.032091
3712	-0.042724
3708	-0.103974
3704	-0.139689
3700	-0.098896
3696	0.020766
3692	0.071883
3688	0.059247
3684	0.124955
3680	0.174856
3676	0.147175
3672	0.128555
3668	0.138902
3664	0.117611
3660	0.041246
3656	0.005507
3652	0.057244
3648	0.053715
3644	-0.038981
3640	-0.097441
3636	-0.090527
3632	-0.031471
3628	0.025749
3624	0.055432
3620	0.148177
3616	0.266218
3612	0.238251
3608	0.105810
3604	0.024843
3600	0.028944
3596	0.076246
3592	0.090289
3588	0.054287
3584	0.032305
3580	0.042533
3576	0.043439
3572	-0.010824
3568	-0.028181
3564	0.075411
3560	0.158691
3556	0.160479
3552	0.135087
3548	0.069332
3544	0.034236
3540	0.098443
3536	0.127100
3532	0.074863
3528	0.051760
3524	0.081491
3520	0.151252
3516	0.195336
3512	0.134205
3508	0.052309
3504	-0.009679
3500	-0.069618
3496	-0.069928
3492	-0.036740
3488	0.042796
3484	0.161910
3480	0.162959
3476	0.038194
3472	-0.021076
3468	0.048899
3464	0.096106
3460	0.064563
3456	0.046563
3452	0.025391
3448	-0.025343
3444	-0.069403
3440	-0.063562
3436	-0.048923
3432	-0.025129
3428	0.063824
3424	0.106239
3420	0.050330
3416	0.002574
3412	0.027132
3408	0.071525
3404	0.105810
3400	0.124073
3396	0.095248
3392	0.050234
3388	0.038313
3384	0.099635
3380	0.148487
3376	0.051832
3372	-0.035953
3368	0.039839
3364	0.123596
3360	0.075101
3356	0.025057
3352	0.089502
3348	0.146484
3344	0.127601
3340	0.098252
3336	0.113630
3332	0.111532
3328	0.029540
3324	-0.001358
3320	0.049400
3316	0.099849
3312	0.127291
3308	0.091505
3304	0.031352
3300	0.037789
3296	0.096249
3292	0.135493
3288	0.117421
3284	0.078916
3280	0.062131
3276	0.077819
3272	0.129866
3268	0.189423
3264	0.222134
3260	0.220346
3256	0.174307
3252	0.091290
3248	0.021481
3244	-0.026416
3240	-0.077676
3236	-0.104355
3232	-0.099468
3228	-0.084280
3224	-0.046825
3220	0.003099
3216	0.069403
3212	0.190401
3208	0.266170
3204	0.163769
3200	0.026321
3196	-0.023293
3192	-0.058221
3188	-0.044083
3184	0.014042
3180	-0.006127
3176	-0.055623
3172	0.029158
3168	0.210475
3164	0.275540
3160	0.140786
3156	-0.024724
3152	-0.059962
3148	0.001263
3144	0.114083
3140	0.203633
3136	0.189471
3132	0.128698
3128	0.076770
3124	0.075030
3120	0.171637
3116	0.235414
3112	0.140500
3108	-0.033926
3104	-0.135684
3100	-0.088715
3096	0.050306
3092	0.119280
3088	0.125432
3084	0.209975
3080	0.289630
3076	0.230669
3072	0.101542
3068	0.049018
3064	0.048995
3060	0.045704
3056	0.097250
3052	0.193357
3048	0.222826
3044	0.125288
3040	0.018310
3036	-0.000405
3032	0.022745
3028	0.034356
3024	0.060796
3020	0.102806
3016	0.086927
3012	0.055980
3008	0.065207
3004	0.057148
3000	0.072240
2996	0.157165
2992	0.191020
2988	0.125813
2984	0.084185
2980	0.111460
2976	0.112485
2972	0.053262
2968	0.023174
2964	0.024580
2960	-0.006556
2956	-0.016880
2952	0.028634
2948	0.073814
2944	0.091719
2940	0.086975
2936	0.056314
2932	0.026845
2928	0.047087
2924	0.058794
2920	0.021147
2916	0.013494
2912	0.060129
2908	0.089716
2904	0.110101
2900	0.143957
2896	0.094485
2892	0.032043
2888	0.082492
2884	0.165319
2880	0.189757
2876	0.173926
2872	0.175547
2868	0.136899
2864	0.028324
2860	-0.042796
2856	-0.053787
2852	0.016903
2848	0.152945
2844	0.207948
2840	0.125765
2836	0.031757
2832	0.011301
2828	0.006246
2824	0.015974
2820	0.052380
2816	0.053954
2812	0.052952
2808	0.110626
2804	0.172519
2800	0.184130
2796	0.172662
2792	0.150108
2788	0.103592
2784	0.071477
2780	0.091409
2776	0.114774
2772	0.079083
2768	0.004005
2764	-0.032901
2760	0.003695
2756	0.046563
2752	0.033545
2748	-0.004816
2744	-0.042223
2740	-0.077772
2736	-0.082325
2732	-0.070381
2728	-0.066852
2724	-0.048828
2720	-0.036168
2716	-0.024819
2712	0.031709
2708	0.062036
2704	0.015377
2700	-0.027394
2696	-0.004076
2692	0.062036
2688	0.094699
2684	0.052237
2680	0.010824
2676	0.032305
2672	0.074052
2668	0.100302
2664	0.091409
2660	0.065159
2656	0.062894
2652	0.083804
2648	0.079846
2644	0.056624
2640	0.104570
2636	0.175738
2632	0.178360
2628	0.150489
2624	0.127673
2620	0.113582
2616	0.104355
2612	0.088071
2608	0.043320
2604	-0.012660
2600	-0.044250
2596	-0.050663
2592	-0.033473
2588	0.005793
2584	0.048065
2580	0.073361
2576	0.098681
2572	0.092220
2568	-0.015425
2564	-0.133013
2560	-0.146627
2556	-0.099849
2552	-0.060582
2548	-0.033116
2544	-0.011444
2540	0.010013
2536	0.003147
2532	-0.023055
2528	-0.022697
2524	0.015258
2520	0.066447
2516	0.041055
2512	-0.059580
2508	-0.052404
2504	0.054526
2500	0.071358
2496	0.068926
2492	0.137424
2488	0.128340
2484	0.034046
2480	-0.034809
2476	-0.033426
2472	0.012373
2468	0.021743
2464	0.049591
2460	0.102233
2456	0.079059
2452	0.025534
2448	0.004744
2444	0.004124
2440	0.040864
2436	0.063586
2432	0.071072
2428	0.161576
2424	0.222277
2420	0.151300
2416	0.059461
2412	-0.035858
2408	-0.103425
2404	-0.067496
2400	-0.036144
2396	-0.050282
2392	-0.019860
2388	0.036430
2384	0.038886
2380	0.024628
2376	0.054073
2372	0.116920
2368	0.155210
2364	0.104665
2360	0.004935
2356	-0.060105
2352	-0.076436
2348	-0.045943
2344	0.037646
2340	0.109076
2336	0.102305
2332	0.022673
2328	-0.024771
2324	0.026607
2320	0.039315
2316	-0.012826
2312	-0.033450
2308	-0.040340
2304	-0.027847
2300	0.017619
2296	0.051712
2292	0.059366
2288	0.065779
2284	0.053286
2280	0.034976
2276	0.053310
2272	0.088024
2268	0.142645
2264	0.177359
2260	0.143218
2256	0.123977
2252	0.156307
2248	0.193119
2244	0.235390
2240	0.250124
2236	0.249242
2232	0.327229
2228	0.412583
2224	0.429344
2220	0.424885
2216	0.423407
2212	0.481629
2208	0.617241
2204	0.740122
2200	0.831079
2196	0.920438
2192	1.035499
2188	1.146292
2184	1.194334
2180	1.241111
2176	1.340222
2172	1.472806
2168	1.626896
2164	1.789879
2160	1.930665
2156	2.066946
2152	2.231717
2148	2.426147
2144	2.636456
2140	2.853631
2136	3.088784
2132	3.306913
2128	3.490066
2124	3.724479
2120	4.053211
2116	4.350066
2112	4.561400
2108	4.762744
2104	5.000352
2100	5.299067
2096	5.583214
2092	5.801796
2088	6.035351
2084	6.259298
2080	6.486105
2076	6.832432
2072	7.238888
2068	7.583665
2064	7.905554
2060	8.254575
2056	8.532547
2052	8.742451
2048	9.003448
2044	9.296083
2040	9.593558
2036	9.910154
2032	10.2002
2028	10.4754
2024	10.737
2020	10.92
2016	11.0995
2012	11.3844
2008	11.7098
2004	12.0154
2000	12.3239
1996	12.6014
1992	12.8103
1988	12.9879
1984	13.1899
1980	13.4359
1976	13.6819
1972	13.8821
1968	14.0687
1964	14.2792
1960	14.5208
1956	14.7701
1952	14.9956
1948	15.1845
1944	15.3143
1940	15.4167
1936	15.5573
1932	15.7787
1928	16.0599
1924	16.3195
1920	16.5189
1916	16.6233
1912	16.6375
1908	16.6678
1904	16.7925
1900	16.9829
1896	17.1551
1892	17.2972
1888	17.4946
1884	17.7027
1880	17.8528
1876	17.9523
1872	17.9555
1868	17.9299
1864	18.0253
1860	18.2012
1856	18.3433
1852	18.4754
1848	18.6291
1844	18.7883
1840	18.9056
1836	18.9327
1832	18.8958
1828	18.8546
1824	18.8693
1820	19.0015
1816	19.2222
1812	19.4215
1808	19.5205
1804	19.4797
1800	19.3975
1796	19.3807
1792	19.3856
1788	19.4391
1784	19.5603
1780	19.6546
1776	19.785
1772	19.9756
1768	20.0393
1764	19.9725
1760	19.907
1756	19.9133
1752	19.9777
1748	20.005
1744	19.9998
1740	20.0606
1736	20.2222
1732	20.3616
1728	20.3589
1724	20.2947
1720	20.2729
1716	20.2684
1712	20.2589
1708	20.2708
1704	20.327
1700	20.4739
1696	20.6157
1692	20.6236
1688	20.6176
1684	20.6412
1680	20.5982
1676	20.5309
1672	20.4727
1668	20.4712
1664	20.6097
1660	20.7706
1656	20.8598
1652	20.9338
1648	20.9372
1644	20.8245
1640	20.7248
1636	20.6892
1632	20.6681
1628	20.7052
1624	20.8097
1620	20.9146
1616	20.9818
1612	21.0476
1608	21.1211
1604	21.1105
1600	21.0018
1596	20.8808
1592	20.8289
1588	20.891
1584	20.9971
1580	21.0853
1576	21.201
1572	21.2277
1568	21.1309
1564	21.0835
1560	21.0262
1556	20.89
1552	20.824
1548	20.885
1544	20.9731
1540	21.0865
1536	21.2487
1532	21.3421
1528	21.3312
1524	21.2824
1520	21.1859
1516	21.0719
1512	21.0079
1508	20.9941
1504	21.012
1500	21.0251
1496	21.0142
1492	21.0073
1488	21.0216
1484	21.0218
1480	20.9615
1476	20.8923
1472	20.9017
1468	20.9641
1464	21.0343
1460	21.1023
1456	21.1493
1452	21.0961
1448	20.942
1444	20.8601
1440	20.8612
1436	20.8419
1432	20.8348
1428	20.8739
1424	20.9717
1420	21.1168
1416	21.2061
1412	21.1792
1408	21.0615
1404	20.9526
1400	20.9295
1396	20.8734
1392	20.7936
1388	20.8611
1384	21.0181
1380	21.0996
1376	21.0863
1372	21.0744
1368	21.0792
1364	21.0176
1360	20.8771
1356	20.7461
1352	20.6876
1348	20.6616
1344	20.7218
1340	20.9196
1336	21.1033
1332	21.1641
1328	21.1181
1324	20.9961
1320	20.8825
1316	20.7862
1312	20.6743
1308	20.6731
1304	20.797
1300	20.8847
1296	20.9088
1292	20.9462
1288	20.9788
1284	20.9352
1280	20.8004
1276	20.662
1272	20.6348
1268	20.6825
1264	20.7469
1260	20.8294
1256	20.8979
1252	20.9354
1248	20.9101
1244	20.8107
1240	20.6918
1236	20.586
1232	20.5265
1228	20.5443
1224	20.6508
1220	20.7955
1216	20.861
1212	20.8314
1208	20.7429
1204	20.5956
1200	20.462
1196	20.3633
1192	20.2559
1188	20.2496
1184	20.3604
1180	20.4952
1176	20.6849
1172	20.8611
1168	20.8458
1164	20.6432
1160	20.4452
1156	20.3012
1152	20.1577
1148	20.1062
1144	20.1702
1140	20.2554
1136	20.4014
1132	20.5631
1128	20.5764
1124	20.4681
1120	20.281
1116	20.075
1112	19.9599
1108	19.9459
1104	20.0335
1100	20.1749
1096	20.3025
1092	20.4161
1088	20.4099
1084	20.2129
1080	20.0096
1076	19.9286
1072	19.898
1068	19.8312
1064	19.7531
1060	19.8134
1056	19.989
1052	20.0228
1048	19.8892
1044	19.7925
1040	19.7227
1036	19.5726
1032	19.3937
1028	19.3627
1024	19.4569
1020	19.4793
1016	19.5215
1012	19.7101
1008	19.8184
1004	19.7452
1000	19.6759
996	 19.555
992	 19.282
988	 19.0316
984	 18.8743
980	 18.8904
976	 19.0986
972	 19.2626
968	 19.339
964	 19.3676
960	 19.2948
956	 19.1715
952	 19.0262
948	 18.8534
944	 18.8049
940	 18.9466
936	 19.1266
932	 19.1976
928	 19.1776
924	 19.1064
920	 18.9111
916	 18.6186
912	 18.423
908	 18.4269
904	 18.5278
900	 18.6134
896	 18.6135
892	 18.6141
888	 18.6556
884	 18.5702
880	 18.3454
876	 18.1553
872	 18.0704
868	 17.9735
864	 17.842
860	 17.8311
856	 17.9427
852	 18.0226
848	 18.0851
844	 18.1988
840	 18.2121
836	 17.9899
832	 17.6786
828	 17.4581
824	 17.3142
820	 17.2658
816	 17.3514
812	 17.4766
808	 17.5472
804	 17.5062
800	 17.4151
796	 17.3846
792	 17.3336
788	 17.1438
784	 16.9457
780	 16.9026
776	 16.9298
772	 16.9311
768	 16.8318
764	 16.6167
760	 16.509
756	 16.5929
752	 16.7774
748	 16.8356
744	 16.5882
740	 16.3298
736	 16.3987
732	 16.5864
728	 16.5133
724	 16.2919
720	 16.1225
716	 15.995
712	 15.8823
708	 15.6839
704	 15.4801
700	 15.4088
696	 15.3739
692	 15.3189
688	 15.2543
684	 15.2511
680	 15.3168
676	 15.2712
672	 15.101
668	 14.9416
664	 14.8347
660	 14.6731
656	 14.5041
652	 14.5122
648	 14.6797
644	 14.8447
640	 14.8477
636	 14.6554
632	 14.2702
628	 13.8179
624	 13.5996
620	 13.5708
616	 13.565
612	 13.6113
608	 13.7775
604	 14.0787
600	 14.1855
596	 14.0448
592	 13.9066
588	 13.7461
584	 13.51
580	 13.2158
576	 13.0439
572	 13.0549
568	 12.9807
564	 12.6616
560	 12.4133
556	 12.5575
552	 12.6762
548	 12.4313
544	 12.1463
540	 12.0074
536	 11.9668
532	 11.8554
528	 11.6408
524	 11.7555
520	 12.1258
516	 12.203
512	 12.0847
508	 11.9557
504	 11.6273
500	 11.1251
496	 10.7697
492	 10.9367
488	 11.778
484	 12.6545
480	 12.858
476	 12.4226
472	 11.5088
468	 10.8741
464	 11.1484
460	 11.2619
456	 10.8353
452	 10.7905
448	 11.0289
444	 11.097
440	 10.9053
436	 10.7724
432	 10.9469
428	 11.0533
424	 11.4289
420	 12.1668
416	 11.6494
412	 9.787130
408	 7.794570
404	 6.178236
400	 6.930184
396	 14.152
392	 24.9435
388	 27.0266
384	 23.2433
380	 35.299
376	 45.2301
372	 28.1862
370	 17.4229