File: Bakgrunnsmateriale/MATLAB/FTIR/ftir_data/LPE453/Mapping_121/LPE453_t07.asc
PE IR       SPECTRUM    SPECTRUM    ASCII       PEDS        1.60
  -1
LPD395~1.ASC
17/05/16
14:55:42.00
17/05/16
14:56:08.00
tln
$LPE453_t0007$<tbV0>[-2.6,-13.0,8.0,0.0,27,1,0]
27.028
64

2002,4.07
MIRTGS : RIGHTBACK : INTERNAL 2
MIR : ON : INTERNAL 2
OPTKBR

0.200000
8
8.000000
FILLER
RATIO
SPECTRUM
UNLOCKED 256

DOUBLE
64
COMBINED
1
0
0

0.002000
RATIO

1
0
TRUE
51149
0
LEFT NOT FITTED RIGHT NOT FITTED 0
NONE
NONE
15600
12
4.427000
51148
TRUE
1 0 8 72 0 0 0 0

15798

#HDR
-1
-1
#GR
µM
%T
2.38419e-05
0.0
2.000000
0.002000
12515
8
36.6263
-4.113595
#DATA
2.000000	 0.276041
2.018000	 0.638136
2.036000	 -0.207329
2.054000	 0.070982
2.072000	 0.171815
2.090000	 0.027303
2.108000	 -0.050225
2.126000	 -0.034875
2.144000	 0.148918
2.162000	 0.722916
2.180000	 0.653029
2.198000	 0.550844
2.216000	 -1.310299
2.234000	 0.733283
2.252000	 0.154202
2.270000	 -0.035034
2.288000	 0.614859
2.306000	 -0.023233
2.324000	 0.055829
2.342000	 0.287982
2.360000	 0.008441
2.378000	 -0.085793
2.396000	 0.507480
2.414000	 0.358619
2.432000	 0.368617
2.450000	 0.008120
2.468000	 -0.026855
2.486000	 0.130075
2.504000	 0.141017
2.522000	 0.032535
2.540000	 0.145406
2.558000	 0.011840
2.576000	 0.338003
2.594000	 0.238305
2.612000	 0.188724
2.630000	 0.083840
2.648000	 -0.038692
2.666000	 0.124509
2.684000	 0.175297
2.702000	 -0.042572
2.720000	 0.075075
2.738000	 -0.167504
2.756000	 -0.050512
2.774000	 -0.042494
2.792000	 0.053694
2.810000	 -0.117904
2.828000	 0.037926
2.846000	 0.112915
2.864000	 0.105438
2.882000	 -0.167692
2.900000	 -0.009899
2.918000	 0.068940
2.936000	 -0.057337
2.954000	 0.011867
2.972000	 0.049622
2.990000	 0.059966
3.008000	 0.116860
3.026000	 -0.032978
3.044000	 0.026155
3.062000	 0.212348
3.080000	 -0.001488
3.098000	 0.032432
3.116000	 0.020484
3.134000	 -0.006160
3.152000	 -0.145615
3.170000	 0.152550
3.188000	 0.122081
3.206000	 0.080211
3.224000	 0.170479
3.242000	 -0.036913
3.260000	 -0.023437
3.278000	 0.105918
3.296000	 0.121735
3.314000	 0.003407
3.332000	 0.098083
3.350000	 -0.073653
3.368000	 0.198454
3.386000	 0.013133
3.404000	 -0.100147
3.422000	 0.091036
3.440000	 0.097135
3.458000	 0.047262
3.476000	 0.008182
3.494000	 0.234728
3.512000	 0.051470
3.530000	 0.043840
3.548000	 0.029088
3.566000	 0.126122
3.584000	 -0.061150
3.602000	 0.097970
3.620000	 0.046509
3.638000	 -0.026436
3.656000	 0.021842
3.674000	 0.018157
3.692000	 -0.075347
3.710000	 0.008692
3.728000	 0.011268
3.746000	 -0.075296
3.764000	 0.042798
3.782000	 -0.070637
3.800000	 0.093302
3.818000	 0.071595
3.836000	 0.046560
3.854000	 0.079613
3.872000	 0.033085
3.890000	 -0.019683
3.908000	 0.173346
3.926000	 0.182890
3.944000	 0.029690
3.962000	 -0.035307
3.980000	 0.263670
3.998000	 -0.115506
4.016000	 0.105880
4.034000	 0.010809
4.052000	 0.056088
4.070000	 0.131940
4.088000	 0.051354
4.106000	 0.140385
4.124000	 -0.006513
4.141999	 -0.050165
4.160000	 0.112727
4.178000	 0.004562
4.196000	 0.086079
4.214000	 0.155478
4.232000	 0.039083
4.250000	 0.095798
4.268000	 0.262871
4.286000	 0.309210
4.304000	 0.374558
4.322000	 0.400214
4.340000	 0.472356
4.358000	 0.639658
4.375999	 0.851865
4.394000	 1.032156
4.412000	 1.184313
4.430000	 1.343787
4.448000	 1.732662
4.466000	 2.157292
4.484000	 2.643217
4.502000	 3.081682
4.520000	 3.665909
4.538000	 4.324730
4.556000	 5.053521
4.574000	 5.791214
4.592000	 6.438677
4.609999	 7.321091
4.628000	 8.277491
4.646000	 9.297513
4.664000	 10.2923
4.682000	 11.2779
4.700000	 12.3425
4.718000	 13.3165
4.736000	 14.3675
4.754000	 15.3511
4.772000	 16.4111
4.790000	 17.3607
4.808000	 18.3889
4.826000	 19.2767
4.843999	 20.2426
4.862000	 21.6174
4.880000	 22.3392
4.898000	 23.0368
4.916000	 23.9152
4.934000	 24.5665
4.952000	 25.3748
4.970000	 25.994
4.988000	 26.6286
5.006000	 27.3568
5.024000	 28.0858
5.042000	 28.66
5.060000	 29.1269
5.077999	 29.6444
5.096000	 29.9413
5.114000	 30.3979
5.132000	 30.8701
5.150000	 31.3066
5.168000	 31.7508
5.186000	 32.1192
5.204000	 32.3078
5.222000	 32.5317
5.240000	 32.7643
5.258000	 32.8746
5.276000	 33.1339
5.294000	 33.4677
5.312000	 33.8151
5.330000	 34.1601
5.348000	 34.3991
5.366000	 34.3144
5.384000	 34.3255
5.402000	 34.3967
5.420000	 34.4729
5.438000	 34.5709
5.456000	 34.8062
5.474000	 35.0809
5.492000	 35.3091
5.510000	 35.4068
5.528000	 35.4385
5.546000	 35.3578
5.564000	 35.4002
5.582000	 35.461
5.600000	 35.3103
5.618000	 35.4446
5.636000	 35.741
5.654000	 35.9739
5.672000	 36.0544
5.690000	 36.033
5.708000	 35.9682
5.726000	 35.8944
5.744000	 35.8368
5.762000	 35.822
5.780000	 35.6469
5.798000	 35.7453
5.816000	 36.0122
5.834000	 36.0855
5.852000	 36.1998
5.870000	 36.48
5.888000	 36.6226
5.906000	 36.4345
5.923999	 36.3009
5.942000	 36.1801
5.960000	 36.0797
5.978000	 36.0676
5.996000	 36.0137
6.014000	 36.0064
6.032000	 36.2312
6.050000	 36.5809
6.068000	 36.5657
6.086000	 36.4405
6.104000	 36.4518
6.122000	 36.3053
6.140000	 36.0792
6.158000	 35.9616
6.176000	 35.9381
6.194000	 35.9315
6.212000	 35.8862
6.230000	 35.9691
6.248000	 36.142
6.266000	 36.2397
6.284000	 36.2788
6.302000	 36.317
6.320000	 36.2898
6.338000	 36.2359
6.356000	 36.1238
6.374000	 35.9412
6.392000	 35.8902
6.410000	 35.9808
6.428000	 35.9021
6.446000	 35.8311
6.464000	 36.0383
6.482000	 36.3019
6.500000	 36.353
6.518000	 36.2438
6.536000	 36.2136
6.554000	 36.3062
6.572000	 36.3917
6.590000	 36.36
6.608000	 36.2372
6.626000	 36.0612
6.644000	 35.8064
6.662000	 35.5993
6.680000	 35.5967
6.698000	 35.7511
6.716000	 35.8197
6.734000	 35.8323
6.752000	 35.9366
6.770000	 36.0874
6.788000	 36.194
6.806000	 36.2291
6.824000	 36.2132
6.842000	 36.1558
6.860000	 36.0456
6.878000	 35.8607
6.896000	 35.6686
6.914000	 35.5435
6.932000	 35.4809
6.950000	 35.4693
6.968000	 35.4394
6.986000	 35.4058
7.004000	 35.4836
7.022000	 35.6423
7.040000	 35.7718
7.058000	 35.8737
7.076000	 35.98
7.094000	 36.0521
7.112000	 36.0136
7.130000	 35.8609
7.148000	 35.6942
7.166000	 35.5807
7.184000	 35.5041
7.202000	 35.4269
7.220000	 35.3283
7.238000	 35.259
7.256000	 35.2711
7.274000	 35.3159
7.292000	 35.3646
7.310000	 35.4573
7.328000	 35.5671
7.346000	 35.6318
7.364000	 35.6652
7.382000	 35.6948
7.400000	 35.7065
7.418000	 35.6863
7.436000	 35.6472
7.454000	 35.5916
7.472000	 35.5107
7.490000	 35.4153
7.508000	 35.304
7.526000	 35.1539
7.544000	 35.0016
7.562000	 34.924
7.580000	 34.9279
7.598000	 34.9527
7.616000	 34.9639
7.634000	 35.0009
7.652000	 35.1247
7.670000	 35.3176
7.688000	 35.4881
7.706000	 35.5874
7.724000	 35.6333
7.742000	 35.6444
7.760000	 35.6343
7.778000	 35.6192
7.796000	 35.5777
7.814000	 35.467
7.832000	 35.2917
7.850000	 35.0988
7.868000	 34.9206
7.886000	 34.7686
7.904000	 34.6495
7.922000	 34.5693
7.940000	 34.5477
7.958000	 34.6121
7.976000	 34.748
7.994000	 34.8847
8.012000	 34.9671
8.030000	 35.0165
8.048000	 35.0885
8.065999	 35.1997
8.084000	 35.321
8.102000	 35.4261
8.120000	 35.5112
8.138000	 35.5674
8.155999	 35.5683
8.173999	 35.5002
8.192000	 35.3881
8.210000	 35.2717
8.228000	 35.164
8.246000	 35.047
8.263999	 34.9063
8.282000	 34.7517
8.300000	 34.6136
8.318000	 34.5229
8.336000	 34.4907
8.353999	 34.5109
8.372000	 34.5785
8.390000	 34.6878
8.408000	 34.8131
8.426000	 34.9148
8.443999	 34.9763
8.462000	 35.0176
8.480000	 35.0673
8.498000	 35.1341
8.516000	 35.2098
8.533999	 35.2858
8.552000	 35.3537
8.570000	 35.3911
8.588000	 35.3629
8.606000	 35.2473
8.624000	 35.0639
8.641999	 34.8659
8.660000	 34.702
8.678000	 34.5848
8.696000	 34.4987
8.714000	 34.4312
8.731999	 34.3883
8.750000	 34.3855
8.768000	 34.4216
8.786000	 34.4704
8.804000	 34.506
8.821999	 34.5267
8.840000	 34.5473
8.858000	 34.5817
8.876000	 34.6415
8.894000	 34.7353
8.911999	 34.8569
8.930000	 34.9799
8.948000	 35.0744
8.966000	 35.1284
8.984000	 35.1534
9.001999	 35.1642
9.020000	 35.1625
9.038000	 35.1392
9.056000	 35.0932
9.074000	 35.0341
9.092000	 34.967
9.109999	 34.883
9.128000	 34.77
9.146000	 34.6273
9.164000	 34.4692
9.182000	 34.3151
9.199999	 34.1804
9.218000	 34.0741
9.236000	 34.004
9.254000	 33.9783
9.272000	 33.9979
9.289999	 34.0501
9.308000	 34.1171
9.326000	 34.1887
9.344000	 34.268
9.362000	 34.3612
9.379999	 34.4662
9.398000	 34.5729
9.416000	 34.6731
9.434000	 34.7642
9.452000	 34.8437
9.469999	 34.9058
9.488000	 34.9466
9.506000	 34.967
9.524000	 34.969
9.542000	 34.9481
9.560000	 34.8956
9.577999	 34.8094
9.596000	 34.7001
9.614000	 34.5865
9.632000	 34.4829
9.650000	 34.3919
9.667999	 34.3051
9.686000	 34.2075
9.704000	 34.0847
9.722000	 33.9349
9.740000	 33.7802
9.757999	 33.6621
9.776000	 33.62
9.794000	 33.6625
9.812000	 33.7575
9.830000	 33.8557
9.847999	 33.9276
9.866000	 33.9796
9.884000	 34.0389
9.902000	 34.1237
9.920000	 34.2261
9.937999	 34.3202
9.956000	 34.386
9.974000	 34.4239
9.992000	 34.4491
10.01	34.4775
10.028	34.514
10.046	34.5532
10.064	34.5868
10.082	34.6098
10.1	34.622
10.118	34.6235
10.136	34.6111
10.154	34.5773
10.172	34.5123
10.19	34.4114
10.208	34.2827
10.226	34.1483
10.244	34.0359
10.262	33.9628
10.28	33.9231
10.298	33.8923
10.316	33.8427
10.334	33.7633
10.352	33.6641
10.37	33.5686
10.388	33.4957
10.406	33.4499
10.424	33.4237
10.442	33.4084
10.46	33.4037
10.478	33.4158
10.496	33.4513
10.514	33.5097
10.532	33.5817
10.55	33.655
10.568	33.7208
10.586	33.7793
10.604	33.8368
10.622	33.9009
10.64	33.9743
10.658	34.0534
10.676	34.1307
10.694	34.2008
10.712	34.2612
10.73	34.3126
10.748	34.3542
10.766	34.3794
10.784	34.3772
10.802	34.3385
10.82	34.2635
10.838	34.164
10.856	34.0567
10.874	33.9553
10.892	33.8626
10.91	33.7721
10.928	33.6733
10.946	33.5591
10.964	33.4297
10.982	33.2922
11	33.1575
11.018	33.0366
11.036	32.9401
11.054	32.8778
11.072	32.8561
11.09	32.8754
11.108	32.9267
11.126	32.9922
11.144	33.0535
11.162	33.0964
11.18	33.1182
11.198	33.1273
11.216	33.1389
11.234	33.1661
11.252	33.2159
11.27	33.2857
11.288	33.3648
11.306	33.4406
11.324	33.5018
11.342	33.5421
11.36	33.5612
11.378	33.5633
11.396	33.5547
11.414	33.5425
11.432	33.5316
11.45	33.5241
11.468	33.5198
11.486	33.5169
11.504	33.5132
11.522	33.5078
11.54	33.5005
11.558	33.4916
11.576	33.4797
11.594	33.462
11.612	33.4336
11.63	33.3893
11.648	33.3263
11.666	33.2449
11.684	33.1489
11.702	33.0438
11.72	32.9355
11.738	32.828
11.756	32.7225
11.774	32.6193
11.792	32.5191
11.81	32.4246
11.828	32.3407
11.846	32.2725
11.864	32.2242
11.882	32.1973
11.9	32.1902
11.918	32.1989
11.936	32.2179
11.954	32.2418
11.972	32.2656
11.99	32.2867
12.008	32.3045
12.026	32.3217
12.044	32.3432
12.062	32.375
12.08	32.4217
12.098	32.4853
12.116	32.563
12.134	32.6477
12.152	32.7308
12.17	32.8054
12.188	32.8693
12.206	32.9254
12.224	32.9796
12.242	33.0362
12.26	33.0954
12.278	33.1508
12.296	33.1918
12.314	33.2076
12.332	33.1913
12.35	33.1437
12.368	33.0728
12.386	32.9922
12.404	32.9173
12.422	32.8599
12.44	32.8257
12.458	32.8128
12.476	32.8136
12.494	32.8172
12.512	32.8128
12.53	32.7926
12.548	32.7528
12.566	32.6938
12.584	32.6188
12.602	32.5329
12.62	32.4415
12.638	32.3498
12.656	32.2613
12.674	32.1788
12.692	32.1038
12.71	32.0368
12.728	31.9775
12.746	31.9249
12.764	31.8774
12.782	31.8335
12.8	31.7914
12.818	31.7503
12.836	31.71
12.854	31.6717
12.872	31.6367
12.89	31.6072
12.908	31.5855
12.926	31.5738
12.944	31.5737
12.962	31.5864
12.98	31.6124
12.998	31.6523
13.016	31.7064
13.034	31.7754
13.052	31.8593
13.07	31.9572
13.088	32.0665
13.106	32.1819
13.124	32.2966
13.142	32.4027
13.16	32.4923
13.178	32.559
13.196	32.5997
13.214	32.6144
13.232	32.6059
13.25	32.5786
13.268	32.5377
13.286	32.4866
13.304	32.4274
13.322	32.3596
13.34	32.2823
13.358	32.1945
13.376	32.097
13.394	31.9929
13.412	31.8882
13.43	31.7902
13.448	31.7066
13.466	31.6436
13.484	31.6047
13.502	31.5898
13.52	31.5953
13.538	31.6152
13.556	31.6417
13.574	31.6667
13.592	31.6833
13.61	31.6858
13.628	31.6714
13.646	31.6391
13.664	31.5902
13.682	31.5272
13.7	31.4535
13.718	31.3731
13.736	31.29
13.754	31.2081
13.772	31.1304
13.79	31.0592
13.808	30.9957
13.826	30.9401
13.844	30.892
13.862	30.8504
13.88	30.8141
13.898	30.7825
13.916	30.7556
13.934	30.7338
13.952	30.7185
13.97	30.7116
13.988	30.7157
14.006	30.7332
14.024	30.7659
14.042	30.8149
14.06	30.8798
14.078	30.9582
14.096	31.0457
14.114	31.1365
14.132	31.2237
14.15	31.3006
14.168	31.3617
14.186	31.4032
14.204	31.4236
14.222	31.4245
14.24	31.4103
14.258	31.3864
14.276	31.3595
14.294	31.3349
14.312	31.3171
14.33	31.3083
14.348	31.3084
14.366	31.3155
14.384	31.326
14.402	31.3366
14.42	31.3445
14.438	31.348
14.456	31.347
14.474	31.3424
14.492	31.3365
14.51	31.3315
14.528	31.3291
14.546	31.3299
14.564	31.3337
14.582	31.3393
14.6	31.3446
14.618	31.347
14.636	31.3441
14.654	31.3344
14.672	31.317
14.69	31.2919
14.708	31.2598
14.726	31.2219
14.744	31.1794
14.762	31.1336
14.78	31.0848
14.798	31.0335
14.816	30.9793
14.834	30.9218
14.852	30.8604
14.87	30.7949
14.888	30.7256
14.906	30.653
14.924	30.5784
14.942	30.5034
14.96	30.4297
14.978	30.3585
14.996	30.2909
15.014	30.2272
15.032	30.1673
15.05	30.1104
15.068	30.0552
15.086	30.0004
15.104	29.9446
15.122	29.8868
15.14	29.8266
15.158	29.7646
15.176	29.7019
15.194	29.6402
15.212	29.5826
15.23	29.5318
15.248	29.4906
15.266	29.4617
15.284	29.4475
15.302	29.4496
15.32	29.4684
15.338	29.5039
15.356	29.5551
15.374	29.6196
15.392	29.6946
15.41	29.7769
15.428	29.8624
15.446	29.9467
15.464	30.0259
15.482	30.0967
15.5	30.1565
15.518	30.2033
15.536	30.2373
15.554	30.2591
15.572	30.2707
15.59	30.2754
15.608	30.2764
15.626	30.2767
15.644	30.2793
15.662	30.2872
15.68	30.3011
15.698	30.3218
15.716	30.3488
15.734	30.3803
15.752	30.4146
15.77	30.4499
15.788	30.4835
15.806	30.5138
15.824	30.5396
15.842	30.5598
15.86	30.5741
15.878	30.5829
15.896	30.5865
15.914	30.586
15.932	30.5821
15.95	30.5754
15.968	30.5665
15.986	30.5558
16.004	30.5432
16.022	30.5284
16.04	30.511
16.058	30.4904
16.076	30.4661
16.094	30.4376
16.112	30.4047
16.13	30.3671
16.148	30.3248
16.166	30.2782
16.184	30.2278
16.202	30.1744
16.22	30.1194
16.238	30.0641
16.256	30.0094
16.274	29.9569
16.292	29.9078
16.31	29.8629
16.328	29.823
16.346	29.7881
16.364	29.7582
16.382	29.7325
16.4	29.7097
16.418	29.6888
16.436	29.6681
16.454	29.6459
16.472	29.6212
16.49	29.5923
16.508	29.5585
16.526	29.5195
16.544	29.4751
16.562	29.4262
16.58	29.3732
16.598	29.3178
16.616	29.2612
16.634	29.2044
16.652	29.1494
16.67	29.0967
16.688	29.0472
16.706	29.0012
16.724	28.9584
16.742	28.9185
16.76	28.8806
16.778	28.8443
16.796	28.8086
16.814	28.7729
16.832	28.7367
16.85	28.7001
16.868	28.6634
16.886	28.6267
16.904	28.5917
16.922	28.5592
16.94	28.5302
16.958	28.5066
16.976	28.489
16.994	28.4786
17.012	28.4758
17.03	28.4809
17.048	28.4936
17.066	28.5131
17.084	28.5389
17.102	28.5692
17.12	28.6032
17.138	28.6392
17.156	28.6762
17.174	28.7134
17.192	28.7496
17.21	28.7847
17.228	28.8181
17.246	28.8495
17.264	28.879
17.282	28.9062
17.3	28.9313
17.318	28.9538
17.336	28.9739
17.354	28.9915
17.372	29.0065
17.39	29.0192
17.408	29.0296
17.426	29.0384
17.444	29.0461
17.462	29.0537
17.48	29.0615
17.498	29.0709
17.516	29.0821
17.534	29.0957
17.552	29.1121
17.57	29.1312
17.588	29.1528
17.606	29.1761
17.624	29.2005
17.642	29.2242
17.66	29.2467
17.678	29.2663
17.696	29.2824
17.714	29.2935
17.732	29.2997
17.75	29.3004
17.768	29.2959
17.786	29.286
17.804	29.2717
17.822	29.2533
17.84	29.2314
17.858	29.206
17.876	29.1775
17.894	29.1455
17.912	29.11
17.93	29.0702
17.948	29.0261
17.966	28.977
17.984	28.9232
18.002	28.8648
18.02	28.8027
18.038	28.7376
18.056	28.672
18.074	28.6066
18.092	28.5447
18.11	28.4871
18.128	28.437
18.146	28.3947
18.164	28.362
18.182	28.3386
18.2	28.3248
18.218	28.3187
18.236	28.32
18.254	28.3255
18.272	28.3346
18.29	28.3433
18.308	28.3512
18.326	28.3547
18.344	28.3539
18.362	28.3471
18.38	28.3348
18.398	28.3169
18.416	28.2949
18.434	28.2697
18.452	28.2435
18.47	28.2176
18.488	28.1939
18.506	28.1734
18.524	28.1571
18.542	28.1455
18.56	28.1377
18.578	28.1338
18.596	28.1314
18.614	28.1303
18.632	28.1273
18.65	28.1224
18.668	28.1127
18.686	28.0982
18.704	28.0774
18.722	28.0508
18.74	28.0188
18.758	27.9822
18.776	27.9431
18.794	27.9028
18.812	27.8643
18.83	27.8287
18.848	27.7993
18.866	27.7767
18.884	27.7635
18.902	27.7597
18.92	27.7667
18.938	27.7836
18.956	27.8101
18.974	27.8448
18.992	27.886
19.01	27.9316
19.028	27.9788
19.046	28.0257
19.064	28.0689
19.082	28.1072
19.1	28.1372
19.118	28.1585
19.136	28.1688
19.154	28.1686
19.172	28.157
19.19	28.135
19.208	28.1038
19.226	28.0643
19.244	28.0195
19.262	27.9701
19.28	27.9202
19.298	27.8699
19.316	27.8235
19.334	27.7808
19.352	27.7447
19.37	27.7151
19.388	27.6935
19.406	27.6798
19.424	27.6731
19.442	27.6737
19.46	27.6792
19.478	27.6899
19.496	27.7024
19.514	27.7162
19.532	27.729
19.55	27.7392
19.568	27.7457
19.586	27.7464
19.604	27.7412
19.622	27.7284
19.64	27.7085
19.658	27.681
19.676	27.646
19.694	27.6046
19.712	27.5567
19.73	27.5042
19.748	27.447
19.766	27.3871
19.784	27.3246
19.802	27.261
19.82	27.197
19.838	27.1332
19.856	27.0706
19.874	27.0093
19.892	26.9502
19.91	26.8932
19.928	26.8389
19.946	26.7873
19.964	26.7388
19.982	26.6933
20	26.6512
20.018	26.6128
20.036	26.5778
20.054	26.5464
20.072	26.5185
20.09	26.494
20.108	26.4729
20.126	26.4546
20.144	26.4392
20.162	26.4262
20.18	26.4154
20.198	26.4068
20.216	26.3998
20.234	26.3946
20.252	26.391
20.27	26.3891
20.288	26.3891
20.306	26.391
20.324	26.3951
20.342	26.4015
20.36	26.4105
20.378	26.4223
20.396	26.4369
20.414	26.4545
20.432	26.4751
20.45	26.4981
20.468	26.5235
20.486	26.5509
20.504	26.5791
20.522	26.6083
20.54	26.6365
20.558	26.664
20.576	26.6891
20.594	26.7112
20.612	26.73
20.63	26.7438
20.648	26.7529
20.666	26.7566
20.684	26.7547
20.702	26.7478
20.72	26.7358
20.738	26.7193
20.756	26.6998
20.774	26.6768
20.792	26.6527
20.81	26.6278
20.828	26.603
20.846	26.5803
20.864	26.5593
20.882	26.5418
20.9	26.5276
20.918	26.5174
20.936	26.5116
20.954	26.51
20.972	26.5122
20.99	26.5184
21.008	26.5278
21.026	26.5401
21.044	26.5552
21.062	26.5721
21.08	26.591
21.098	26.6113
21.116	26.6328
21.134	26.6556
21.152	26.6798
21.17	26.7053
21.188	26.7325
21.206	26.7613
21.224	26.7918
21.242	26.8245
21.26	26.8592
21.278	26.8956
21.296	26.9338
21.314	26.9733
21.332	27.013
21.35	27.0535
21.368	27.0929
21.386	27.1311
21.404	27.1676
21.422	27.2005
21.44	27.2303
21.458	27.2558
21.476	27.2763
21.494	27.2919
21.512	27.3016
21.53	27.3054
21.548	27.3037
21.566	27.2967
21.584	27.2845
21.602	27.2681
21.62	27.2471
21.638	27.2227
21.656	27.1962
21.674	27.1671
21.692	27.1365
21.71	27.1049
21.728	27.072
21.746	27.0386
21.764	27.0047
21.782	26.9697
21.8	26.9336
21.818	26.8964
21.836	26.8565
21.854	26.814
21.872	26.7684
21.89	26.7183
21.908	26.664
21.926	26.6051
21.944	26.5407
21.962	26.4712
21.98	26.3974
21.998	26.3186
22.016	26.236
22.034	26.1517
22.052	26.0644
22.07	25.9772
22.088	25.892
22.106	25.8077
22.124	25.7285
22.142	25.655
22.16	25.5873
22.178	25.5288
22.196	25.479
22.214	25.4385
22.232	25.4091
22.25	25.3902
22.268	25.3812
22.286	25.3822
22.304	25.3932
22.322	25.4109
22.34	25.4358
22.358	25.4666
22.376	25.499
22.394	25.5343
22.412	25.5699
22.43	25.6015
22.448	25.6312
22.466	25.6552
22.484	25.6706
22.502	25.6791
22.52	25.6775
22.538	25.6642
22.556	25.6404
22.574	25.605
22.592	25.5572
22.61	25.498
22.628	25.4287
22.646	25.3484
22.664	25.2587
22.682	25.1621
22.7	25.0573
22.718	24.9466
22.736	24.8329
22.754	24.7146
22.772	24.5947
22.79	24.4756
22.808	24.3559
22.826	24.2381
22.844	24.1242
22.862	24.0129
22.88	23.9061
22.898	23.8049
22.916	23.7085
22.934	23.6177
22.952	23.5329
22.97	23.4537
22.988	23.3798
23.006	23.3116
23.024	23.2486
23.042	23.19
23.06	23.1359
23.078	23.086
23.096	23.0393
23.114	22.9958
23.132	22.9554
23.15	22.9174
23.168	22.8818
23.186	22.8485
23.204	22.8164
23.222	22.7856
23.24	22.7562
23.258	22.728
23.276	22.7009
23.294	22.6751
23.312	22.6511
23.33	22.6284
23.348	22.6075
23.366	22.5895
23.384	22.5742
23.402	22.5617
23.42	22.5528
23.438	22.5473
23.456	22.5453
23.474	22.5477
23.492	22.5547
23.51	22.5659
23.528	22.582
23.546	22.6033
23.564	22.6293
23.582	22.6601
23.6	22.6959
23.618	22.7367
23.636	22.781
23.654	22.8283
23.672	22.879
23.69	22.9324
23.708	22.988
23.726	23.0461
23.744	23.1067
23.762	23.1697
23.78	23.2348
23.798	23.3029
23.816	23.3748
23.834	23.4497
23.852	23.5286
23.87	23.6131
23.888	23.7025
23.906	23.7972
23.924	23.8992
23.942	24.0083
23.96	24.1244
23.978	24.2485
23.996	24.3812
24.014	24.5221
24.032	24.6711
24.05	24.8287
24.068	24.995
24.086	25.1687
24.104	25.3487
24.122	25.5361
24.14	25.7294
24.158	25.9266
24.176	26.129
24.194	26.3355
24.212	26.5425
24.23	26.7502
24.248	26.9591
24.266	27.1654
24.284	27.3671
24.302	27.5666
24.32	27.7598
24.338	27.9427
24.356	28.1182
24.374	28.2837
24.392	28.4347
24.41	28.5726
24.428	28.697
24.446	28.804
24.464	28.8918
24.482	28.9625
24.5	29.0139
24.518	29.0441
24.536	29.0542
24.554	29.0439
24.572	29.0127
24.59	28.9598
24.608	28.8863
24.626	28.7936
24.644	28.682
24.662	28.5507
24.68	28.4025
24.698	28.24
24.716	28.0602
24.734	27.8667
24.752	27.6646
24.77	27.4537
24.788	27.233
24.806	27.0076
24.824	26.7808
24.842	26.5486
24.86	26.3158
24.878	26.0881
24.896	25.8646
24.914	25.6446
24.932	25.4308
24.95	25.2248
24.968	25.0253
24.986	24.8326
25.004	24.6472
25.022	24.4712
25.04	24.3018
25.058	24.1351
25.076	23.9704
25.094	23.8108
25.112	23.6489
25.13	23.4778
25.148	23.3024
25.166	23.1198
25.184	22.9219
25.202	22.7053
25.22	22.475
25.238	22.2254
25.256	21.9505
25.274	21.651
25.292	21.3286
25.31	20.983
25.328	20.6126
25.346	20.2164
25.364	19.7998
25.382	19.369
25.4	18.9185
25.418	18.4508
25.436	17.9788
25.454	17.5115
25.472	17.0369
25.49	16.567
25.508	16.1187
25.526	15.6938
25.544	15.2845
25.562	14.9047
25.58	14.5679
25.598	14.2676
25.616	14.0045
25.634	13.7861
25.652	13.6182
25.67	13.4974
25.688	13.4216
25.706	13.3888
25.724	13.4028
25.742	13.4627
25.76	13.5579
25.778	13.6791
25.796	13.8373
25.814	14.0246
25.832	14.2236
25.85	14.4241
25.868	14.641
25.886	14.8601
25.904	15.063
25.922	15.2467
25.94	15.4213
25.958	15.5728
25.976	15.6868
25.994	15.7664
26.012	15.8147
26.03	15.826
26.048	15.7946
26.066	15.7198
26.084	15.6066
26.102	15.4601
26.12	15.2817
26.138	15.0641
26.156	14.8184
26.174	14.5579
26.192	14.284
26.21	13.9868
26.228	13.6838
26.246	13.3933
26.264	13.1133
26.282	12.8364
26.3	12.5786
26.318	12.3555
26.336	12.1631
26.354	11.9977
26.372	11.8664
26.39	11.7755
26.408	11.7252
26.426	11.7115
26.444	11.7315
26.462	11.7838
26.48	11.8773
26.498	12.0018
26.516	12.1429
26.534	12.291
26.552	12.4612
26.57	12.6415
26.588	12.8147
26.606	12.9701
26.624	13.1223
26.642	13.262
26.66	13.3768
26.678	13.4588
26.696	13.5172
26.714	13.5486
26.732	13.5484
26.75	13.5121
26.768	13.4407
26.786	13.3399
26.804	13.2157
26.822	13.0681
26.84	12.8898
26.858	12.6929
26.876	12.4905
26.894	12.287
26.912	12.0693
26.93	11.8514
26.948	11.6491
26.966	11.469
26.984	11.2961
27.002	11.1435
27.02	11.0265
27.028	10.9938