File: Bakgrunnsmateriale/MATLAB/FTIR/ftir_data/LPE453/Mapping_121/LPE453_t96_cm-1.asc
PE IR       SPECTRUM    SPECTRUM    ASCII       PEDS        1.60
  -1
LPEB5A~1.ASC
17/05/16
22:15:53.00
17/05/16
22:15:53.00
tln
$LPE453_t0096$<tbV0>[-5.2,7.8,8.0,0.0,27,1,0]
370
64

2002,4.07
MIRTGS : RIGHTBACK : INTERNAL 2
MIR : ON : INTERNAL 2
OPTKBR

0.200000
8
8.000000
FILLER
RATIO
SPECTRUM
UNLOCKED 256

DOUBLE
64
COMBINED
1
0
0

1.000000
RATIO

1
0
TRUE
51149
0
LEFT NOT FITTED RIGHT NOT FITTED 0
NONE
NONE
15600
12
4.427000
51148
TRUE
1 0 8 72 0 0 0 0

15798

#HDR
-1
-1
#GR
CM-1
%T
2.38419e-05
0.0
5000
-1.000000
4631
8
40.2418
-3.201127
#DATA
5000	0.146317
4996	0.457859
4992	0.330495
4988	0.059866
4984	-0.019454
4980	0.120162
4976	0.267982
4972	0.141644
4968	-0.129747
4964	-0.113058
4960	0.185751
4956	0.306677
4952	0.092911
4948	-0.181293
4944	-0.281858
4940	-0.083732
4936	0.172281
4932	0.244069
4928	0.264620
4924	0.244545
4920	0.199818
4916	0.153875
4912	-0.013613
4908	-0.236725
4904	-0.336050
4900	-0.338745
4896	-0.272250
4892	-0.084543
4888	0.128960
4884	0.347208
4880	0.517940
4876	0.407028
4872	0.222253
4868	0.242829
4864	0.205421
4860	0.046896
4856	0.058197
4852	0.174117
4848	0.200843
4844	0.254797
4840	0.358557
4836	0.308585
4832	0.217270
4828	0.251626
4824	0.392341
4820	0.442910
4816	0.364160
4812	0.401091
4808	0.486874
4804	0.540208
4800	0.550413
4796	0.438928
4792	0.290346
4788	0.273728
4784	0.273633
4780	0.121951
4776	-0.034904
4772	0.032854
4768	0.270700
4764	0.338768
4760	0.198149
4756	0.006175
4752	-0.025820
4748	0.186085
4744	0.373125
4740	0.346040
4736	0.172185
4732	0.018715
4728	-0.066924
4724	0.017070
4720	0.313854
4716	0.482630
4712	0.336527
4708	0.031828
4704	-0.134205
4700	0.084805
4696	0.340604
4692	0.135827
4688	-0.188326
4684	0.042128
4680	0.539588
4676	0.886797
4672	1.001453
4668	0.747442
4664	0.447750
4660	0.036811
4656	-0.515604
4652	-0.431346
4648	0.373911
4644	1.171445
4640	1.402974
4636	0.945782
4632	0.869750
4628	1.642179
4624	1.668190
4620	0.732088
4616	-0.189638
4612	-0.417137
4608	-0.257086
4604	-0.138545
4600	0.278425
4596	0.551390
4592	0.415992
4588	0.474476
4584	0.854206
4580	1.092767
4576	0.535631
4572	-0.417447
4568	-0.789880
4564	-0.360441
4560	0.518202
4556	0.833201
4552	0.125265
4548	-0.664734
4544	-1.021957
4540	-0.521326
4536	-0.082588
4532	-1.049733
4528	-2.281832
4524	-3.167200
4520	-2.575278
4516	0.530600
4512	9.678959
4508	19.7093
4504	17.7719
4500	12.1902
4496	10.669
4492	10.2645
4488	9.851002
4484	4.423618
4480	-0.719213
4476	-1.401948
4472	-1.104545
4468	-0.832009
4464	-0.499415
4460	-0.475788
4456	-0.845479
4452	-0.882768
4448	-0.548863
4444	-0.592780
4440	-0.948667
4436	-1.130986
4432	-0.849580
4428	-0.271940
4424	0.339627
4420	0.544023
4416	0.530171
4412	0.548219
4408	0.449323
4404	0.232291
4400	0.158476
4396	0.218272
4392	0.258851
4388	0.516772
4384	0.629806
4380	0.484585
4376	0.586009
4372	0.833177
4368	0.939774
4364	0.811934
4360	0.642371
4356	0.552105
4352	0.486326
4348	0.574612
4344	0.547957
4340	0.276565
4336	0.175833
4332	0.284337
4328	0.322937
4324	0.288057
4320	0.339317
4316	0.379252
4312	0.334954
4308	0.271964
4304	0.153183
4300	0.017547
4296	0.027108
4292	0.151848
4288	0.199627
4284	0.155210
4280	0.137495
4276	0.094079
4272	0.053501
4268	0.117325
4264	0.163960
4260	0.084233
4256	-0.043630
4252	-0.171399
4248	-0.174975
4244	-0.015354
4240	0.100421
4236	0.238990
4232	0.329685
4228	0.202226
4224	0.055527
4220	0.044894
4216	0.065588
4212	0.104284
4208	0.224399
4204	0.327730
4200	0.325179
4196	0.235104
4192	0.108289
4188	0.021052
4184	0.150489
4180	0.412011
4176	0.297904
4172	-0.171875
4168	-0.309133
4164	-0.075125
4160	0.124073
4156	0.165963
4152	0.142216
4148	0.212669
4144	0.311875
4140	0.275373
4136	0.137758
4132	0.142526
4128	0.291728
4124	0.297784
4120	0.162959
4116	0.077223
4112	0.036859
4108	0.037193
4104	0.140285
4100	0.260210
4096	0.287461
4092	0.207901
4088	0.091242
4084	0.066733
4080	0.039696
4076	-0.114488
4072	-0.192022
4068	-0.060462
4064	0.053906
4060	0.030398
4056	0.048494
4052	0.147581
4048	0.196528
4044	0.137495
4040	0.123238
4036	0.161862
4032	0.131130
4028	0.105237
4024	0.043249
4020	-0.116372
4016	-0.172710
4012	-0.061249
4008	0.072932
4004	0.133156
4000	0.131249
3996	0.191879
3992	0.277805
3988	0.271534
3984	0.241541
3980	0.227284
3976	0.223135
3972	0.217652
3968	0.193142
3964	0.108671
3960	-0.047969
3956	-0.058197
3952	0.041699
3948	0.023579
3944	0.053262
3940	0.129628
3936	0.144910
3932	0.111556
3928	0.042271
3924	0.049042
3920	0.090742
3916	0.056934
3912	-0.065827
3908	-0.134158
3904	-0.057458
3900	0.052356
3896	0.139021
3892	0.124907
3888	0.015187
3884	0.021266
3880	0.165104
3876	0.237298
3872	0.162959
3868	0.109958
3864	0.126719
3860	0.112080
3856	0.090169
3852	0.084781
3848	0.076627
3844	0.084662
3840	0.110006
3836	0.079703
3832	0.054931
3828	0.153207
3824	0.275754
3820	0.181269
3816	-0.060343
3812	-0.221276
3808	-0.233697
3804	-0.129532
3800	-0.035238
3796	0.024867
3792	0.032544
3788	-0.042533
3784	-0.069713
3780	-0.018024
3776	0.016283
3772	0.039982
3768	0.039935
3764	0.035595
3760	0.112962
3756	0.193643
3752	0.151729
3748	0.037026
3744	0.023412
3740	0.026082
3736	-0.035357
3732	-0.022625
3728	0.058412
3724	0.112986
3720	0.124096
3716	0.099277
3712	0.019931
3708	-0.043559
3704	-0.015497
3700	0.037431
3696	0.070309
3692	0.082302
3688	0.082802
3684	0.125169
3680	0.196743
3676	0.222611
3672	0.208687
3668	0.160765
3664	0.069451
3660	0.009131
3656	-0.019311
3652	-0.022768
3648	0.026679
3644	0.014424
3640	-0.064611
3636	-0.082373
3632	-0.040268
3628	0.018143
3624	0.043225
3620	0.041794
3616	0.089240
3612	0.152254
3608	0.159716
3604	0.098776
3600	0.009655
3596	-0.048756
3592	-0.059747
3588	0.026321
3584	0.132417
3580	0.129628
3576	0.052618
3572	-0.018525
3568	-0.028300
3564	0.051856
3560	0.163674
3556	0.202655
3552	0.155282
3548	0.106430
3544	0.138878
3540	0.187659
3536	0.141668
3532	0.034070
3528	-0.070214
3524	-0.107383
3520	-0.048565
3516	0.006675
3512	0.027942
3508	0.047469
3504	0.037407
3500	0.005531
3496	-0.026965
3492	0.026059
3488	0.159788
3484	0.159883
3480	0.010299
3476	-0.051569
3472	0.019431
3468	0.077629
3464	0.089883
3460	0.051593
3456	-0.000381
3452	0.023460
3448	0.058102
3444	0.031161
3440	0.020313
3436	0.102806
3432	0.142407
3428	0.054931
3424	0.013256
3420	0.054264
3416	0.085735
3412	0.099754
3408	0.098347
3404	0.092339
3400	0.113487
3396	0.139904
3392	0.113654
3388	0.055623
3384	0.001621
3380	-0.066804
3376	-0.137448
3372	-0.174617
3368	-0.143837
3364	-0.053191
3360	0.049304
3356	0.137782
3352	0.193691
3348	0.186777
3344	0.113296
3340	0.084424
3336	0.137591
3332	0.201392
3328	0.270485
3324	0.300621
3320	0.246572
3316	0.160932
3312	0.080633
3308	0.048470
3304	0.052547
3300	-0.011324
3296	-0.062203
3292	-0.028443
3288	0.016784
3284	0.063347
3280	0.078654
3276	0.108504
3272	0.170874
3268	0.136542
3264	0.025844
3260	-0.026679
3256	0.001454
3252	0.002241
3248	-0.047564
3244	-0.053763
3240	0.010156
3236	0.110387
3232	0.180387
3228	0.204777
3224	0.213336
3220	0.185656
3216	0.163626
3212	0.150036
3208	0.120019
3204	0.158810
3200	0.183010
3196	0.069952
3192	-0.078272
3188	-0.116705
3184	-0.059175
3180	-0.037670
3176	-0.020718
3172	0.038218
3168	0.048422
3164	0.012302
3160	-0.034928
3156	-0.016069
3152	0.086307
3148	0.082993
3144	0.015735
3140	0.044584
3136	0.098538
3132	0.117421
3128	0.088524
3124	0.094151
3120	0.137877
3116	0.065398
3112	0.012326
3108	0.074219
3104	0.073480
3100	0.006365
3096	-0.039696
3092	-0.083112
3088	-0.060749
3084	0.023460
3080	0.067400
3076	0.096225
3072	0.117373
3068	0.113010
3064	0.093054
3060	0.023937
3056	-0.055432
3052	-0.036907
3048	0.026035
3044	0.047731
3040	0.058054
3036	0.043916
3032	-0.025534
3028	-0.063133
3024	-0.020337
3020	0.031924
3016	0.045847
3012	-0.005316
3008	-0.030732
3004	0.021457
3000	0.059747
2996	0.054264
2992	-0.002956
2988	-0.060558
2984	-0.028562
2980	0.033712
2976	0.063729
2972	0.008273
2968	-0.107574
2964	-0.059103
2960	0.089240
2956	0.114893
2952	0.096487
2948	0.107955
2944	0.075984
2940	0.046992
2936	0.091695
2932	0.102758
2928	0.063920
2924	0.057554
2920	0.073289
2916	0.081253
2912	0.044536
2908	0.008416
2904	0.036811
2900	0.077700
2896	0.094223
2892	0.084137
2888	0.024819
2884	0.003027
2880	0.104761
2876	0.201392
2872	0.174975
2868	0.093030
2864	0.021314
2860	-0.021982
2856	0.001001
2852	0.026226
2848	-0.009989
2844	-0.008535
2840	0.033545
2836	0.051188
2832	0.045394
2828	0.031971
2824	0.029325
2820	0.038194
2816	0.055861
2812	0.044298
2808	0.005078
2804	-0.015544
2800	0.015306
2796	0.064349
2792	0.059080
2788	0.039792
2784	0.034999
2780	0.021648
2776	0.011706
2772	-0.014233
2768	-0.028777
2764	-0.034213
2760	-0.059962
2756	-0.022363
2752	0.049090
2748	0.042128
2744	0.018310
2740	0.065398
2736	0.134563
2732	0.158762
2728	0.140476
2724	0.114130
2720	0.077509
2716	0.038695
2712	0.029397
2708	0.034379
2704	0.030946
2700	0.021934
2696	0.017476
2692	0.002813
2688	-0.033998
2684	-0.029730
2680	0.021386
2676	0.015234
2672	-0.003528
2668	0.036716
2664	0.044059
2660	0.005578
2656	-0.023269
2652	-0.028753
2648	0.007987
2644	0.045609
2640	0.040507
2636	0.013637
2632	0.003004
2628	0.020051
2624	0.048542
2620	0.052094
2616	-0.003218
2612	-0.021386
2608	0.048136
2604	0.106596
2600	0.155115
2596	0.193333
2592	0.169038
2588	0.105333
2584	0.060224
2580	0.070142
2576	0.086259
2572	0.073218
2568	0.049996
2564	0.007867
2560	-0.036430
2556	-0.012683
2552	0.031208
2548	0.013947
2544	-0.009608
2540	0.011706
2536	0.070095
2532	0.086498
2528	0.035142
2524	0.022077
2520	0.026845
2516	0.027275
2512	0.059986
2508	0.061559
2504	0.036525
2500	0.013518
2496	-0.004553
2492	-0.039458
2488	-0.030112
2484	0.000190
2480	-0.032114
2476	-0.035262
2472	0.048661
2468	0.144696
2464	0.138950
2460	0.095844
2456	0.108361
2452	0.130367
2448	0.127053
2444	0.121140
2440	0.118064
2436	0.130295
2432	0.167465
2428	0.145888
2424	0.027751
2420	-0.091385
2416	-0.124669
2412	-0.055599
2408	0.024557
2404	0.042867
2400	0.033545
2396	0.066065
2392	0.127053
2388	0.151753
2384	0.179243
2380	0.222969
2376	0.227856
2372	0.192022
2368	0.172376
2364	0.168967
2360	0.170707
2356	0.221920
2352	0.275182
2348	0.306177
2344	0.343728
2340	0.365376
2336	0.383663
2332	0.435829
2328	0.520849
2324	0.598835
2320	0.614547
2316	0.596761
2312	0.646758
2308	0.745010
2304	0.836229
2300	0.921726
2296	0.967645
2292	0.981903
2288	1.051306
2284	1.214122
2280	1.401066
2276	1.561713
2272	1.691222
2268	1.758909
2264	1.827120
2260	1.989340
2256	2.190065
2252	2.390956
2248	2.620935
2244	2.859902
2240	3.090167
2236	3.318715
2232	3.542399
2228	3.765201
2224	4.003238
2220	4.289412
2216	4.613852
2212	4.938864
2208	5.258488
2204	5.562877
2200	5.880331
2196	6.256532
2192	6.686162
2188	7.124376
2184	7.529354
2180	7.915878
2176	8.333325
2172	8.810997
2168	9.294581
2164	9.743595
2160	10.2351
2156	10.7511
2152	11.2492
2148	11.7701
2144	12.2691
2140	12.7604
2136	13.3059
2132	13.9053
2128	14.5293
2124	15.1061
2120	15.6217
2116	16.1506
2112	16.7296
2108	17.3307
2104	17.8717
2100	18.3179
2096	18.766
2092	19.2725
2088	19.8359
2084	20.4364
2080	21.0176
2076	21.5877
2072	22.1067
2068	22.5306
2064	22.9847
2060	23.5279
2056	24.0758
2052	24.5847
2048	25.0379
2044	25.4301
2040	25.7896
2036	26.1163
2032	26.4333
2028	26.7969
2024	27.2237
2020	27.7294
2016	28.2975
2012	28.7977
2008	29.1639
2004	29.5067
2000	29.8638
1996	30.1431
1992	30.324
1988	30.4751
1984	30.64
1980	30.8469
1976	31.1163
1972	31.4186
1968	31.738
1964	32.0873
1960	32.4486
1956	32.7922
1952	33.0852
1948	33.3072
1944	33.4967
1940	33.669
1936	33.7647
1932	33.7867
1928	33.7807
1924	33.8022
1920	33.9222
1916	34.0961
1912	34.292
1908	34.5786
1904	34.9155
1900	35.2119
1896	35.4791
1892	35.7015
1888	35.8173
1884	35.8762
1880	35.8988
1876	35.8509
1872	35.7775
1868	35.7065
1864	35.658
1860	35.7168
1856	35.8724
1852	36.0251
1848	36.1948
1844	36.4581
1840	36.7755
1836	37.0294
1832	37.1836
1828	37.2469
1824	37.2246
1820	37.1243
1816	36.9418
1812	36.7461
1808	36.6346
1804	36.5942
1800	36.603
1796	36.7004
1792	36.8418
1788	37.0007
1784	37.2121
1780	37.4408
1776	37.6327
1772	37.7409
1768	37.7648
1764	37.7336
1760	37.6301
1756	37.4604
1752	37.2712
1748	37.1252
1744	37.0619
1740	37.0533
1736	37.1137
1732	37.3035
1728	37.55
1724	37.7521
1720	37.9232
1716	38.0777
1712	38.1397
1708	38.0656
1704	37.9283
1700	37.7812
1696	37.6321
1692	37.4783
1688	37.3528
1684	37.2897
1680	37.2674
1676	37.2988
1672	37.4497
1668	37.6919
1664	37.8954
1660	38.0301
1656	38.1287
1652	38.1813
1648	38.1831
1644	38.1041
1640	37.9328
1636	37.7549
1632	37.5993
1628	37.4631
1624	37.3801
1620	37.3102
1616	37.2938
1612	37.3742
1608	37.5023
1604	37.7094
1600	37.9768
1596	38.2101
1592	38.3522
1588	38.3866
1584	38.2863
1580	38.0147
1576	37.6861
1572	37.4634
1568	37.3476
1564	37.308
1560	37.3416
1556	37.4047
1552	37.4773
1548	37.5813
1544	37.7159
1540	37.8674
1536	38.0631
1532	38.2306
1528	38.2571
1524	38.1716
1520	38.0368
1516	37.9036
1512	37.7144
1508	37.4405
1504	37.237
1500	37.1189
1496	37.0427
1492	37.1017
1488	37.3003
1484	37.5821
1480	37.8886
1476	38.1144
1472	38.1956
1468	38.2036
1464	38.2112
1460	38.1447
1456	37.9308
1452	37.6545
1448	37.4093
1444	37.2102
1440	37.1278
1436	37.1464
1432	37.1475
1428	37.1494
1424	37.2815
1420	37.5096
1416	37.7006
1412	37.8508
1408	37.9699
1404	38.0118
1400	37.9349
1396	37.7349
1392	37.4817
1388	37.265
1384	37.1142
1380	36.9617
1376	36.8004
1372	36.7624
1368	36.868
1364	36.9982
1360	37.1581
1356	37.3791
1352	37.5809
1348	37.77
1344	37.8977
1340	37.8417
1336	37.6688
1332	37.4581
1328	37.2085
1324	36.946
1320	36.6986
1316	36.5553
1312	36.5849
1308	36.6874
1304	36.7851
1300	36.9588
1296	37.2313
1292	37.521
1288	37.7379
1284	37.8062
1280	37.78
1276	37.6843
1272	37.4656
1268	37.175
1264	36.8798
1260	36.6388
1256	36.4635
1252	36.3589
1248	36.3644
1244	36.4238
1240	36.5825
1236	36.8707
1232	37.1576
1228	37.3847
1224	37.4892
1220	37.5103
1216	37.5475
1212	37.5002
1208	37.3204
1204	37.018
1200	36.6351
1196	36.3503
1192	36.2072
1188	36.1865
1184	36.2872
1180	36.4349
1176	36.6228
1172	36.8923
1168	37.1591
1164	37.2814
1160	37.3086
1156	37.3281
1152	37.2887
1148	37.1193
1144	36.8064
1140	36.4649
1136	36.2019
1132	36.0385
1128	35.9718
1124	35.9332
1120	35.9485
1116	36.1459
1112	36.4381
1108	36.6466
1104	36.8149
1100	37.046
1096	37.2227
1092	37.2022
1088	37.042
1084	36.8357
1080	36.6417
1076	36.4334
1072	36.1055
1068	35.7304
1064	35.4825
1060	35.4779
1056	35.6911
1052	35.9043
1048	36.0364
1044	36.2097
1040	36.4753
1036	36.7151
1032	36.7281
1028	36.5267
1024	36.3607
1020	36.2872
1016	36.083
1012	35.6946
1008	35.3349
1004	35.136
1000	35.0475
996	 35.0721
992	 35.2361
988	 35.4483
984	 35.6676
980	 35.9348
976	 36.1846
972	 36.2734
968	 36.2059
964	 36.0857
960	 35.9621
956	 35.8236
952	 35.5896
948	 35.2641
944	 34.9606
940	 34.7595
936	 34.6746
932	 34.6948
928	 34.853
924	 35.1037
920	 35.2926
916	 35.4133
912	 35.6178
908	 35.7846
904	 35.6895
900	 35.486
896	 35.3069
892	 35.0487
888	 34.6783
884	 34.3265
880	 34.0867
876	 33.8996
872	 33.7811
868	 33.8873
864	 34.229
860	 34.5849
856	 34.7895
852	 34.8819
848	 34.9234
844	 34.9097
840	 34.82
836	 34.6358
832	 34.3246
828	 33.8663
824	 33.4547
820	 33.3377
816	 33.3453
812	 33.2211
808	 33.0444
804	 33.0489
800	 33.2423
796	 33.5107
792	 33.9022
788	 34.2693
784	 34.342
780	 34.1958
776	 33.9772
772	 33.6887
768	 33.3986
764	 33.1415
760	 32.8726
756	 32.6285
752	 32.4832
748	 32.3127
744	 32.0453
740	 31.9817
736	 32.3139
732	 32.7896
728	 33.1383
724	 33.2806
720	 33.1498
716	 32.9169
712	 32.7972
708	 32.7084
704	 32.545
700	 32.2088
696	 31.7702
692	 31.4791
688	 31.3444
684	 31.2918
680	 31.3142
676	 31.4285
672	 31.5872
668	 31.7508
664	 32.0549
660	 32.3023
656	 32.2321
652	 32.0394
648	 31.7796
644	 31.4123
640	 30.9424
636	 30.4724
632	 30.296
628	 30.1645
624	 29.7984
620	 29.5784
616	 29.7271
612	 30.0611
608	 30.2494
604	 30.2607
600	 30.3869
596	 30.5314
592	 30.499
588	 30.3913
584	 30.3369
580	 30.1781
576	 29.7287
572	 29.3324
568	 29.2251
564	 28.9865
560	 28.6331
556	 28.6122
552	 28.7204
548	 28.6568
544	 28.4848
540	 28.435
536	 28.7544
532	 29.1792
528	 29.1288
524	 28.6151
520	 28.3778
516	 28.554
512	 28.3811
508	 27.7928
504	 27.1229
500	 26.5982
496	 26.5718
492	 26.8102
488	 26.8446
484	 26.8337
480	 27.2154
476	 27.6541
472	 27.5672
468	 26.8992
464	 25.994
460	 25.5744
456	 25.6824
452	 25.8035
448	 25.836
444	 25.5661
440	 25.2841
436	 25.1622
432	 23.9091
428	 21.2531
424	 19.373
420	 19.9392
416	 21.7472
412	 22.6533
408	 24.4335
404	 29.1355
400	 32.882
396	 35.9809
392	 37.7478
388	 26.7472
384	 14.1313
380	 20.786
376	 36.3251
372	 38.9363
370	 33.0408