File: Bakgrunnsmateriale/MATLAB/FTIR/ftir_data/LPE453/Mapping_121/LPE453_t60.asc
PE IR       SPECTRUM    SPECTRUM    ASCII       PEDS        1.60
  -1
LPCBA9~1.ASC
17/05/16
19:16:04.00
17/05/16
19:16:30.00
tln
$LPE453_t0060$<tbV0>[2.6,0.0,8.0,0.0,27,1,0]
27.028
64

2002,4.07
MIRTGS : RIGHTBACK : INTERNAL 2
MIR : ON : INTERNAL 2
OPTKBR

0.200000
8
8.000000
FILLER
RATIO
SPECTRUM
UNLOCKED 256

DOUBLE
64
COMBINED
1
0
0

0.002000
RATIO

1
0
TRUE
51149
0
LEFT NOT FITTED RIGHT NOT FITTED 0
NONE
NONE
15600
12
4.427000
51148
TRUE
1 0 8 72 0 0 0 0

15798

#HDR
-1
-1
#GR
µM
%T
2.38419e-05
0.0
2.000000
0.002000
12515
8
26.7494
-6.593942
#DATA
2.000000	 0.173497
2.018000	 0.141135
2.036000	 0.255744
2.054000	 0.212375
2.072000	 -0.274129
2.090000	 0.005539
2.108000	 0.663492
2.126000	 0.572641
2.144000	 0.552884
2.162000	 0.743188
2.180000	 0.054527
2.198000	 -0.300652
2.216000	 -1.433004
2.234000	 3.966272
2.252000	 -0.457535
2.270000	 -0.475013
2.288000	 -0.157208
2.306000	 -0.135432
2.324000	 -0.101072
2.342000	 0.117523
2.360000	 0.429954
2.378000	 0.201889
2.396000	 0.316973
2.414000	 0.028065
2.432000	 0.043398
2.450000	 0.140107
2.468000	 -0.042569
2.486000	 -0.032559
2.504000	 -0.069538
2.522000	 0.119998
2.540000	 0.106912
2.558000	 0.175183
2.576000	 0.136669
2.594000	 0.118632
2.612000	 -0.026585
2.630000	 0.059169
2.648000	 -0.008087
2.666000	 -0.035541
2.684000	 0.052037
2.702000	 0.141734
2.720000	 0.113599
2.738000	 -0.162434
2.756000	 0.093616
2.774000	 0.134795
2.792000	 0.070107
2.810000	 0.074287
2.828000	 -0.152269
2.846000	 -0.026234
2.864000	 0.101842
2.882000	 0.072157
2.900000	 0.079587
2.918000	 0.048790
2.936000	 0.059265
2.954000	 0.005407
2.972000	 -0.074507
2.990000	 0.095869
3.008000	 0.012302
3.026000	 0.119898
3.044000	 -0.023326
3.062000	 -0.064062
3.080000	 -0.026881
3.098000	 -0.034979
3.116000	 0.179388
3.134000	 0.048607
3.152000	 0.093714
3.170000	 0.013941
3.188000	 0.158571
3.206000	 -0.090676
3.224000	 -0.005132
3.242000	 0.144637
3.260000	 -0.007848
3.278000	 0.069081
3.296000	 0.055299
3.314000	 -0.182435
3.332000	 -0.005895
3.350000	 0.075279
3.368000	 0.059831
3.386000	 0.135029
3.404000	 -0.017239
3.422000	 -0.011293
3.440000	 0.117101
3.458000	 -0.002321
3.476000	 -0.019321
3.494000	 0.030708
3.512000	 0.005902
3.530000	 0.147762
3.548000	 0.089759
3.566000	 -0.017626
3.584000	 -0.021516
3.602000	 0.112753
3.620000	 0.025751
3.638000	 0.038570
3.656000	 -0.004098
3.674000	 0.170708
3.692000	 -0.087494
3.710000	 0.029055
3.728000	 0.007875
3.746000	 0.052419
3.764000	 0.007966
3.782000	 -0.045882
3.800000	 -0.001438
3.818000	 0.082280
3.836000	 -0.015999
3.854000	 0.073946
3.872000	 0.043613
3.890000	 -0.026737
3.908000	 0.015948
3.926000	 -0.007959
3.944000	 -0.018593
3.962000	 0.099072
3.980000	 0.063872
3.998000	 0.116656
4.016000	 0.069545
4.034000	 0.145366
4.052000	 0.106074
4.070000	 0.034339
4.088000	 0.039180
4.106000	 0.179326
4.124000	 -0.259869
4.141999	 0.163406
4.160000	 0.169430
4.178000	 0.021057
4.196000	 0.089658
4.214000	 0.029177
4.232000	 0.083598
4.250000	 -0.074438
4.268000	 -0.095990
4.286000	 -0.052249
4.304000	 -0.041368
4.322000	 -0.020776
4.340000	 0.081340
4.358000	 0.049513
4.375999	 0.046630
4.394000	 0.144271
4.412000	 0.173659
4.430000	 0.284676
4.448000	 0.445316
4.466000	 0.522512
4.484000	 0.656130
4.502000	 0.835447
4.520000	 1.016871
4.538000	 1.258849
4.556000	 1.610701
4.574000	 2.000167
4.592000	 2.423781
4.609999	 2.875712
4.628000	 3.421601
4.646000	 3.829283
4.664000	 4.479267
4.682000	 5.104527
4.700000	 5.757794
4.718000	 6.523013
4.736000	 7.168648
4.754000	 7.957508
4.772000	 8.761447
4.790000	 9.584085
4.808000	 10.2886
4.826000	 11.1026
4.843999	 11.9382
4.862000	 12.6302
4.880000	 13.2982
4.898000	 14.0798
4.916000	 14.8512
4.934000	 15.5366
4.952000	 16.0924
4.970000	 16.7582
4.988000	 17.3068
5.006000	 17.9045
5.024000	 18.5135
5.042000	 18.9252
5.060000	 19.4107
5.077999	 19.9807
5.096000	 20.4447
5.114000	 20.7982
5.132000	 21.1304
5.150000	 21.4539
5.168000	 21.8295
5.186000	 22.3193
5.204000	 22.6135
5.222000	 22.845
5.240000	 23.0839
5.258000	 23.4108
5.276000	 23.6204
5.294000	 23.8077
5.312000	 24.0781
5.330000	 24.2962
5.348000	 24.4446
5.366000	 24.5958
5.384000	 24.8165
5.402000	 25.0021
5.420000	 25.0008
5.438000	 25.1186
5.456000	 25.3634
5.474000	 25.4207
5.492000	 25.4342
5.510000	 25.563
5.528000	 25.7652
5.546000	 25.8538
5.564000	 25.8828
5.582000	 25.8684
5.600000	 25.9615
5.618000	 26.0238
5.636000	 26.082
5.654000	 26.1761
5.672000	 26.1997
5.690000	 26.2202
5.708000	 26.317
5.726000	 26.3667
5.744000	 26.3806
5.762000	 26.4414
5.780000	 26.555
5.798000	 26.5417
5.816000	 26.5066
5.834000	 26.4576
5.852000	 26.5227
5.870000	 26.5691
5.888000	 26.5958
5.906000	 26.6595
5.923999	 26.6761
5.942000	 26.6322
5.960000	 26.6205
5.978000	 26.6197
5.996000	 26.672
6.014000	 26.7304
6.032000	 26.7234
6.050000	 26.7362
6.068000	 26.7249
6.086000	 26.6127
6.104000	 26.5766
6.122000	 26.612
6.140000	 26.684
6.158000	 26.7452
6.176000	 26.7377
6.194000	 26.7286
6.212000	 26.7457
6.230000	 26.6878
6.248000	 26.6666
6.266000	 26.6493
6.284000	 26.5772
6.302000	 26.5827
6.320000	 26.6077
6.338000	 26.6234
6.356000	 26.6864
6.374000	 26.7009
6.392000	 26.6681
6.410000	 26.615
6.428000	 26.532
6.446000	 26.4922
6.464000	 26.5319
6.482000	 26.5626
6.500000	 26.544
6.518000	 26.5432
6.536000	 26.5493
6.554000	 26.5146
6.572000	 26.4537
6.590000	 26.4083
6.608000	 26.4162
6.626000	 26.4773
6.644000	 26.6026
6.662000	 26.6864
6.680000	 26.5971
6.698000	 26.475
6.716000	 26.4002
6.734000	 26.2878
6.752000	 26.2388
6.770000	 26.2824
6.788000	 26.312
6.806000	 26.3345
6.824000	 26.3403
6.842000	 26.285
6.860000	 26.2424
6.878000	 26.2916
6.896000	 26.378
6.914000	 26.405
6.932000	 26.3506
6.950000	 26.2328
6.968000	 26.161
6.986000	 26.2069
7.004000	 26.2427
7.022000	 26.225
7.040000	 26.2566
7.058000	 26.3193
7.076000	 26.3495
7.094000	 26.3601
7.112000	 26.3575
7.130000	 26.3195
7.148000	 26.2308
7.166000	 26.127
7.184000	 26.0877
7.202000	 26.1111
7.220000	 26.0986
7.238000	 26.0191
7.256000	 25.9562
7.274000	 25.9882
7.292000	 26.0914
7.310000	 26.1535
7.328000	 26.1127
7.346000	 26.0169
7.364000	 25.9403
7.382000	 25.9222
7.400000	 25.9202
7.418000	 25.8697
7.436000	 25.8408
7.454000	 25.9207
7.472000	 26.0123
7.490000	 25.9995
7.508000	 25.9384
7.526000	 25.9099
7.544000	 25.8883
7.562000	 25.852
7.580000	 25.8407
7.598000	 25.8511
7.616000	 25.8265
7.634000	 25.7759
7.652000	 25.7564
7.670000	 25.7654
7.688000	 25.7665
7.706000	 25.7598
7.724000	 25.7452
7.742000	 25.7045
7.760000	 25.6575
7.778000	 25.6458
7.796000	 25.652
7.814000	 25.6247
7.832000	 25.5735
7.850000	 25.5566
7.868000	 25.5945
7.886000	 25.6542
7.904000	 25.6874
7.922000	 25.6702
7.940000	 25.6204
7.958000	 25.5698
7.976000	 25.5358
7.994000	 25.5242
8.012000	 25.5246
8.030000	 25.5027
8.048000	 25.4423
8.065999	 25.3727
8.084000	 25.3287
8.102000	 25.3208
8.120000	 25.3417
8.138000	 25.3681
8.155999	 25.3717
8.173999	 25.3543
8.192000	 25.3487
8.210000	 25.3645
8.228000	 25.3732
8.246000	 25.3583
8.263999	 25.3444
8.282000	 25.3598
8.300000	 25.3948
8.318000	 25.4162
8.336000	 25.403
8.353999	 25.36
8.372000	 25.3022
8.390000	 25.2393
8.408000	 25.1767
8.426000	 25.1235
8.443999	 25.091
8.462000	 25.0844
8.480000	 25.1002
8.498000	 25.1323
8.516000	 25.1689
8.533999	 25.192
8.552000	 25.1992
8.570000	 25.2069
8.588000	 25.2233
8.606000	 25.234
8.624000	 25.2218
8.641999	 25.1868
8.660000	 25.1419
8.678000	 25.0914
8.696000	 25.0277
8.714000	 24.9503
8.731999	 24.8751
8.750000	 24.8168
8.768000	 24.7734
8.786000	 24.7415
8.804000	 24.7373
8.821999	 24.7798
8.840000	 24.8523
8.858000	 24.8964
8.876000	 24.8629
8.894000	 24.761
8.911999	 24.6506
8.930000	 24.5844
8.948000	 24.5687
8.966000	 24.5734
8.984000	 24.5699
9.001999	 24.5527
9.020000	 24.5307
9.038000	 24.5073
9.056000	 24.4694
9.074000	 24.402
9.092000	 24.3128
9.109999	 24.239
9.128000	 24.2214
9.146000	 24.2639
9.164000	 24.3284
9.182000	 24.3732
9.199999	 24.3913
9.218000	 24.4051
9.236000	 24.434
9.254000	 24.4746
9.272000	 24.5069
9.289999	 24.5125
9.308000	 24.4817
9.326000	 24.4153
9.344000	 24.327
9.362000	 24.2407
9.379999	 24.175
9.398000	 24.1322
9.416000	 24.1033
9.434000	 24.0811
9.452000	 24.0652
9.469999	 24.0554
9.488000	 24.0487
9.506000	 24.0431
9.524000	 24.0423
9.542000	 24.0527
9.560000	 24.073
9.577999	 24.0932
9.596000	 24.1042
9.614000	 24.1051
9.632000	 24.1005
9.650000	 24.0918
9.667999	 24.0731
9.686000	 24.0351
9.704000	 23.9756
9.722000	 23.9072
9.740000	 23.8512
9.757999	 23.821
9.776000	 23.8098
9.794000	 23.7972
9.812000	 23.7683
9.830000	 23.7273
9.847999	 23.6925
9.866000	 23.6789
9.884000	 23.6856
9.902000	 23.698
9.920000	 23.7034
9.937999	 23.7023
9.956000	 23.7059
9.974000	 23.7247
9.992000	 23.7584
10.01	23.7942
10.028	23.8124
10.046	23.7992
10.064	23.7541
10.082	23.6884
10.1	23.6149
10.118	23.539
10.136	23.4583
10.154	23.3726
10.172	23.2911
10.19	23.2315
10.208	23.2067
10.226	23.2128
10.244	23.2287
10.262	23.2296
10.28	23.2041
10.298	23.1593
10.316	23.1133
10.334	23.0803
10.352	23.0626
10.37	23.0527
10.388	23.0431
10.406	23.0331
10.424	23.0288
10.442	23.037
10.46	23.0585
10.478	23.0871
10.496	23.1128
10.514	23.1267
10.532	23.1244
10.55	23.1061
10.568	23.0749
10.586	23.035
10.604	22.989
10.622	22.9377
10.64	22.8816
10.658	22.8217
10.676	22.7622
10.694	22.709
10.712	22.6681
10.73	22.6411
10.748	22.6249
10.766	22.6146
10.784	22.6075
10.802	22.6064
10.82	22.6184
10.838	22.6495
10.856	22.6987
10.874	22.7548
10.892	22.8
10.91	22.8154
10.928	22.7906
10.946	22.7261
10.964	22.6335
10.982	22.532
11	22.4407
11.018	22.3758
11.036	22.3448
11.054	22.3465
11.072	22.3714
11.09	22.4037
11.108	22.4268
11.126	22.4262
11.144	22.3949
11.162	22.3339
11.18	22.2508
11.198	22.157
11.216	22.0644
11.234	21.9842
11.252	21.9254
11.27	21.8934
11.288	21.8892
11.306	21.9083
11.324	21.941
11.342	21.9753
11.36	22
11.378	22.0061
11.396	21.9904
11.414	21.9538
11.432	21.9007
11.45	21.8372
11.468	21.7713
11.486	21.711
11.504	21.6638
11.522	21.6354
11.54	21.6275
11.558	21.6369
11.576	21.6564
11.594	21.6777
11.612	21.6929
11.63	21.6961
11.648	21.6843
11.666	21.6566
11.684	21.6136
11.702	21.5571
11.72	21.4909
11.738	21.4211
11.756	21.3546
11.774	21.299
11.792	21.2605
11.81	21.2413
11.828	21.2387
11.846	21.2451
11.864	21.2502
11.882	21.2451
11.9	21.2243
11.918	21.188
11.936	21.1423
11.954	21.0958
11.972	21.0585
11.99	21.0375
12.008	21.036
12.026	21.0527
12.044	21.0833
12.062	21.1214
12.08	21.1605
12.098	21.1946
12.116	21.2177
12.134	21.2251
12.152	21.2134
12.17	21.1816
12.188	21.1324
12.206	21.0718
12.224	21.0077
12.242	20.948
12.26	20.8983
12.278	20.8607
12.296	20.834
12.314	20.814
12.332	20.7965
12.35	20.7784
12.368	20.7588
12.386	20.7387
12.404	20.7206
12.422	20.7064
12.44	20.6968
12.458	20.6902
12.476	20.6833
12.494	20.672
12.512	20.6525
12.53	20.6226
12.548	20.5821
12.566	20.5325
12.584	20.477
12.602	20.4195
12.62	20.364
12.638	20.3139
12.656	20.2714
12.674	20.2378
12.692	20.2132
12.71	20.1968
12.728	20.187
12.746	20.1814
12.764	20.1774
12.782	20.1714
12.8	20.1604
12.818	20.1417
12.836	20.1134
12.854	20.0748
12.872	20.0266
12.89	19.9713
12.908	19.9128
12.926	19.8554
12.944	19.8035
12.962	19.7605
12.98	19.7277
12.998	19.7052
13.016	19.6915
13.034	19.6843
13.052	19.6812
13.07	19.6801
13.088	19.6791
13.106	19.6767
13.124	19.6713
13.142	19.6617
13.16	19.6471
13.178	19.628
13.196	19.6061
13.214	19.5848
13.232	19.5688
13.25	19.5631
13.268	19.5718
13.286	19.5962
13.304	19.6347
13.322	19.6817
13.34	19.7291
13.358	19.768
13.376	19.7905
13.394	19.7919
13.412	19.772
13.43	19.7343
13.448	19.6859
13.466	19.635
13.484	19.59
13.502	19.5566
13.52	19.5374
13.538	19.5311
13.556	19.5328
13.574	19.5355
13.592	19.5311
13.61	19.5125
13.628	19.4752
13.646	19.4181
13.664	19.3437
13.682	19.2576
13.7	19.1677
13.718	19.0818
13.736	19.0069
13.754	18.9474
13.772	18.9048
13.79	18.8773
13.808	18.8609
13.826	18.8503
13.844	18.8407
13.862	18.8289
13.88	18.8137
13.898	18.796
13.916	18.7779
13.934	18.7616
13.952	18.7484
13.97	18.7381
13.988	18.7283
14.006	18.7157
14.024	18.6967
14.042	18.6686
14.06	18.6303
14.078	18.5835
14.096	18.5315
14.114	18.4793
14.132	18.4323
14.15	18.3953
14.168	18.3718
14.186	18.3633
14.204	18.3691
14.222	18.3868
14.24	18.4126
14.258	18.4422
14.276	18.4715
14.294	18.4974
14.312	18.5171
14.33	18.5287
14.348	18.5312
14.366	18.5241
14.384	18.5079
14.402	18.4835
14.42	18.4525
14.438	18.4169
14.456	18.3796
14.474	18.3429
14.492	18.3093
14.51	18.2801
14.528	18.2559
14.546	18.2358
14.564	18.2179
14.582	18.1996
14.6	18.178
14.618	18.15
14.636	18.1133
14.654	18.067
14.672	18.0116
14.69	17.9492
14.708	17.8828
14.726	17.8166
14.744	17.7556
14.762	17.7041
14.78	17.6651
14.798	17.6406
14.816	17.631
14.834	17.6351
14.852	17.65
14.87	17.6721
14.888	17.6978
14.906	17.7237
14.924	17.7471
14.942	17.7662
14.96	17.7811
14.978	17.7927
14.996	17.8027
15.014	17.8129
15.032	17.8253
15.05	17.8404
15.068	17.8577
15.086	17.8755
15.104	17.8912
15.122	17.9009
15.14	17.9012
15.158	17.8896
15.176	17.8644
15.194	17.8252
15.212	17.7741
15.23	17.7144
15.248	17.6498
15.266	17.5847
15.284	17.5238
15.302	17.4705
15.32	17.4267
15.338	17.3931
15.356	17.3692
15.374	17.3528
15.392	17.3415
15.41	17.333
15.428	17.3247
15.446	17.3151
15.464	17.3038
15.482	17.2913
15.5	17.2786
15.518	17.2675
15.536	17.2594
15.554	17.2553
15.572	17.2557
15.59	17.2603
15.608	17.2678
15.626	17.2767
15.644	17.2849
15.662	17.2898
15.68	17.2896
15.698	17.2826
15.716	17.2677
15.734	17.2446
15.752	17.2138
15.77	17.1761
15.788	17.1334
15.806	17.0874
15.824	17.0399
15.842	16.993
15.86	16.9486
15.878	16.9079
15.896	16.872
15.914	16.8418
15.932	16.8175
15.95	16.7987
15.968	16.7852
15.986	16.7757
16.004	16.7695
16.022	16.7657
16.04	16.7628
16.058	16.76
16.076	16.7568
16.094	16.7527
16.112	16.7478
16.13	16.7424
16.148	16.7367
16.166	16.7316
16.184	16.7273
16.202	16.7242
16.22	16.7222
16.238	16.721
16.256	16.72
16.274	16.718
16.292	16.7146
16.31	16.709
16.328	16.7007
16.346	16.6899
16.364	16.6769
16.382	16.6622
16.4	16.647
16.418	16.6318
16.436	16.618
16.454	16.6058
16.472	16.5957
16.49	16.5873
16.508	16.5798
16.526	16.5726
16.544	16.5636
16.562	16.5516
16.58	16.5352
16.598	16.5129
16.616	16.4843
16.634	16.4489
16.652	16.4073
16.67	16.3608
16.688	16.3103
16.706	16.2584
16.724	16.2063
16.742	16.1559
16.76	16.1091
16.778	16.0666
16.796	16.0294
16.814	15.9975
16.832	15.9709
16.85	15.9486
16.868	15.9296
16.886	15.9133
16.904	15.8977
16.922	15.882
16.94	15.8649
16.958	15.8454
16.976	15.8231
16.994	15.7971
17.012	15.7677
17.03	15.735
17.048	15.6997
17.066	15.6627
17.084	15.6251
17.102	15.5886
17.12	15.5537
17.138	15.5223
17.156	15.4949
17.174	15.4723
17.192	15.4548
17.21	15.4422
17.228	15.434
17.246	15.4291
17.264	15.4267
17.282	15.425
17.3	15.4233
17.318	15.4199
17.336	15.4139
17.354	15.4049
17.372	15.3923
17.39	15.3767
17.408	15.3585
17.426	15.3391
17.444	15.3194
17.462	15.3016
17.48	15.2864
17.498	15.2759
17.516	15.2704
17.534	15.2709
17.552	15.2772
17.57	15.2893
17.588	15.3057
17.606	15.3254
17.624	15.3468
17.642	15.3674
17.66	15.3861
17.678	15.4002
17.696	15.4091
17.714	15.4107
17.732	15.4048
17.75	15.3905
17.768	15.3682
17.786	15.3379
17.804	15.301
17.822	15.2581
17.84	15.2111
17.858	15.1612
17.876	15.1098
17.894	15.0586
17.912	15.0083
17.93	14.9606
17.948	14.9155
17.966	14.8738
17.984	14.8354
18.002	14.8001
18.02	14.7672
18.038	14.7364
18.056	14.7065
18.074	14.6772
18.092	14.6475
18.11	14.617
18.128	14.5853
18.146	14.5524
18.164	14.5183
18.182	14.4838
18.2	14.4493
18.218	14.4161
18.236	14.3845
18.254	14.3563
18.272	14.3317
18.29	14.3124
18.308	14.2983
18.326	14.2904
18.344	14.2885
18.362	14.2925
18.38	14.3018
18.398	14.3158
18.416	14.3332
18.434	14.3529
18.452	14.3735
18.47	14.394
18.488	14.4127
18.506	14.4291
18.524	14.4419
18.542	14.4509
18.56	14.4557
18.578	14.4562
18.596	14.4529
18.614	14.4456
18.632	14.4357
18.65	14.423
18.668	14.4088
18.686	14.3932
18.704	14.3772
18.722	14.3607
18.74	14.3443
18.758	14.3277
18.776	14.3112
18.794	14.2945
18.812	14.2771
18.83	14.2591
18.848	14.2398
18.866	14.2192
18.884	14.1969
18.902	14.1729
18.92	14.147
18.938	14.1194
18.956	14.0905
18.974	14.0606
18.992	14.0303
19.01	14.0004
19.028	13.9717
19.046	13.9449
19.064	13.9211
19.082	13.9009
19.1	13.8855
19.118	13.8751
19.136	13.8708
19.154	13.8725
19.172	13.8811
19.19	13.896
19.208	13.9172
19.226	13.9443
19.244	13.9763
19.262	14.0129
19.28	14.0521
19.298	14.0937
19.316	14.1351
19.334	14.1763
19.352	14.2143
19.37	14.2493
19.388	14.2786
19.406	14.3022
19.424	14.3182
19.442	14.3267
19.46	14.327
19.478	14.3188
19.496	14.3027
19.514	14.2785
19.532	14.2477
19.55	14.2107
19.568	14.1689
19.586	14.1237
19.604	14.0761
19.622	14.0281
19.64	13.9801
19.658	13.9342
19.676	13.8904
19.694	13.8504
19.712	13.8142
19.73	13.7823
19.748	13.7549
19.766	13.7316
19.784	13.7127
19.802	13.6973
19.82	13.6849
19.838	13.675
19.856	13.6666
19.874	13.6595
19.892	13.6524
19.91	13.6454
19.928	13.6375
19.946	13.6289
19.964	13.6192
19.982	13.6083
20	13.5967
20.018	13.5841
20.036	13.5712
20.054	13.5583
20.072	13.5456
20.09	13.5338
20.108	13.5229
20.126	13.5135
20.144	13.5056
20.162	13.4992
20.18	13.4944
20.198	13.4908
20.216	13.4881
20.234	13.4861
20.252	13.4838
20.27	13.4813
20.288	13.4773
20.306	13.4716
20.324	13.4637
20.342	13.4527
20.36	13.4389
20.378	13.4217
20.396	13.4011
20.414	13.378
20.432	13.352
20.45	13.3246
20.468	13.296
20.486	13.267
20.504	13.2396
20.522	13.2135
20.54	13.1915
20.558	13.1732
20.576	13.1603
20.594	13.1537
20.612	13.1533
20.63	13.1606
20.648	13.175
20.666	13.196
20.684	13.2241
20.702	13.2574
20.72	13.2954
20.738	13.3372
20.756	13.3795
20.774	13.4232
20.792	13.4641
20.81	13.5018
20.828	13.5346
20.846	13.5594
20.864	13.577
20.882	13.5844
20.9	13.5815
20.918	13.5679
20.936	13.5429
20.954	13.507
20.972	13.4612
20.99	13.4049
21.008	13.3411
21.026	13.2705
21.044	13.1941
21.062	13.1163
21.08	13.0358
21.098	12.9574
21.116	12.882
21.134	12.8105
21.152	12.7469
21.17	12.6901
21.188	12.6424
21.206	12.6047
21.224	12.5765
21.242	12.5584
21.26	12.5503
21.278	12.5503
21.296	12.5588
21.314	12.5741
21.332	12.5932
21.35	12.6172
21.368	12.642
21.386	12.6671
21.404	12.6916
21.422	12.712
21.44	12.7295
21.458	12.7417
21.476	12.7473
21.494	12.7471
21.512	12.74
21.53	12.7259
21.548	12.7056
21.566	12.6792
21.584	12.6468
21.602	12.6108
21.62	12.5708
21.638	12.5282
21.656	12.4852
21.674	12.4409
21.692	12.3982
21.71	12.3577
21.728	12.3196
21.746	12.2861
21.764	12.2568
21.782	12.2323
21.8	12.2137
21.818	12.2005
21.836	12.1932
21.854	12.1923
21.872	12.1972
21.89	12.2073
21.908	12.223
21.926	12.243
21.944	12.2666
21.962	12.294
21.98	12.3228
21.998	12.353
22.016	12.3839
22.034	12.4135
22.052	12.4425
22.07	12.469
22.088	12.4914
22.106	12.5104
22.124	12.5235
22.142	12.5303
22.16	12.5307
22.178	12.5227
22.196	12.5066
22.214	12.482
22.232	12.448
22.25	12.4047
22.268	12.3526
22.286	12.2914
22.304	12.2213
22.322	12.144
22.34	12.0591
22.358	11.9674
22.376	11.8717
22.394	11.7708
22.412	11.6669
22.43	11.5627
22.448	11.4569
22.466	11.3519
22.484	11.2496
22.502	11.1491
22.52	11.0521
22.538	10.9598
22.556	10.8714
22.574	10.7878
22.592	10.7094
22.61	10.6356
22.628	10.566
22.646	10.5012
22.664	10.4402
22.682	10.3816
22.7	10.3261
22.718	10.2726
22.736	10.2198
22.754	10.1683
22.772	10.1172
22.79	10.0652
22.808	10.0128
22.826	9.959924
22.844	9.906335
22.862	9.852009
22.88	9.798290
22.898	9.745293
22.916	9.692807
22.934	9.643744
22.952	9.598716
22.97	9.557261
22.988	9.522274
23.006	9.493893
23.024	9.472045
23.042	9.459776
23.06	9.457438
23.078	9.464626
23.096	9.482821
23.114	9.512118
23.132	9.552285
23.15	9.603866
23.168	9.667180
23.186	9.741667
23.204	9.826580
23.222	9.922360
23.24	10.0283
23.258	10.1429
23.276	10.2667
23.294	10.3988
23.312	10.5364
23.33	10.6801
23.348	10.8293
23.366	10.9809
23.384	11.1352
23.402	11.292
23.42	11.4492
23.438	11.607
23.456	11.7653
23.474	11.9217
23.492	12.0762
23.51	12.229
23.528	12.3774
23.546	12.5214
23.564	12.6612
23.582	12.7941
23.6	12.9196
23.618	13.0383
23.636	13.1475
23.654	13.2455
23.672	13.3336
23.69	13.4102
23.708	13.4737
23.726	13.5251
23.744	13.564
23.762	13.5902
23.78	13.6032
23.798	13.6046
23.816	13.5958
23.834	13.5751
23.852	13.545
23.87	13.5086
23.888	13.4641
23.906	13.4134
23.924	13.3617
23.942	13.3083
23.96	13.2532
23.978	13.2016
23.996	13.155
24.014	13.1115
24.032	13.0752
24.05	13.0489
24.068	13.0306
24.086	13.0216
24.104	13.0234
24.122	13.0362
24.14	13.0583
24.158	13.0877
24.176	13.1268
24.194	13.1729
24.212	13.2206
24.23	13.2705
24.248	13.3232
24.266	13.3714
24.284	13.4115
24.302	13.4476
24.32	13.4735
24.338	13.4831
24.356	13.4805
24.374	13.4624
24.392	13.4229
24.41	13.3618
24.428	13.2808
24.446	13.1784
24.464	13.0537
24.482	12.9072
24.5	12.7408
24.518	12.5555
24.536	12.3478
24.554	12.1242
24.572	11.893
24.59	11.6492
24.608	11.396
24.626	11.147
24.644	10.9065
24.662	10.6668
24.68	10.4431
24.698	10.2492
24.716	10.0748
24.734	9.927973
24.752	9.823624
24.77	9.762354
24.788	9.739990
24.806	9.766420
24.824	9.848941
24.842	9.982505
24.86	10.1684
24.878	10.4091
24.896	10.7079
24.914	11.0603
24.932	11.4593
24.95	11.9033
24.968	12.3983
24.986	12.9298
25.004	13.4827
25.022	14.0687
25.04	14.6795
25.058	15.2937
25.076	15.9039
25.094	16.5229
25.112	17.131
25.13	17.7084
25.148	18.2668
25.166	18.8008
25.184	19.2914
25.202	19.7303
25.22	20.1286
25.238	20.4756
25.256	20.7598
25.274	20.9847
25.292	21.1514
25.31	21.2547
25.328	21.2909
25.346	21.2621
25.364	21.1708
25.382	21.019
25.4	20.803
25.418	20.5254
25.436	20.1954
25.454	19.8186
25.472	19.3862
25.49	18.9086
25.508	18.3997
25.526	17.8595
25.544	17.2817
25.562	16.6836
25.58	16.0815
25.598	15.4633
25.616	14.835
25.634	14.2151
25.652	13.6131
25.67	13.0142
25.688	12.4341
25.706	11.8913
25.724	11.3853
25.742	10.9089
25.76	10.4775
25.778	10.1051
25.796	9.784014
25.814	9.515278
25.832	9.307515
25.85	9.167389
25.868	9.090812
25.886	9.075885
25.904	9.121507
25.922	9.229625
25.94	9.400690
25.958	9.627137
25.976	9.901512
25.994	10.2317
26.012	10.614
26.03	11.0326
26.048	11.4747
26.066	11.9577
26.084	12.4681
26.102	12.9815
26.12	13.4841
26.138	13.9982
26.156	14.5031
26.174	14.9726
26.192	15.3999
26.21	15.8031
26.228	16.1609
26.246	16.4504
26.264	16.6717
26.282	16.835
26.3	16.9269
26.318	16.9341
26.336	16.8581
26.354	16.7037
26.372	16.4699
26.39	16.1551
26.408	15.754
26.426	15.2735
26.444	14.7245
26.462	14.1145
26.48	13.4267
26.498	12.6768
26.516	11.8891
26.534	11.0803
26.552	10.2269
26.57	9.345897
26.588	8.462644
26.606	7.593043
26.624	6.716637
26.642	5.845401
26.66	4.996169
26.678	4.178814
26.696	3.380857
26.714	2.608034
26.732	1.868183
26.75	1.167089
26.768	0.501026
26.786	-0.133416
26.804	-0.739335
26.822	-1.316781
26.84	-1.861776
26.858	-2.381166
26.876	-2.882448
26.894	-3.368332
26.912	-3.831947
26.93	-4.280227
26.948	-4.721076
26.966	-5.177546
26.984	-5.671398
27.002	-6.135209
27.02	-6.496388
27.028	-6.593942