File: Bakgrunnsmateriale/MATLAB/FTIR/ftir_data/LPE453/Mapping_121/LPE453_t09.asc
PE IR       SPECTRUM    SPECTRUM    ASCII       PEDS        1.60
  -1
LPE39D~1.ASC
17/05/16
15:04:55.00
17/05/16
15:05:22.00
tln
$LPE453_t0009$<tbV0>[-7.8,-13.0,8.0,0.0,27,1,0]
27.028
64

2002,4.07
MIRTGS : RIGHTBACK : INTERNAL 2
MIR : ON : INTERNAL 2
OPTKBR

0.200000
8
8.000000
FILLER
RATIO
SPECTRUM
UNLOCKED 256

DOUBLE
64
COMBINED
1
0
0

0.002000
RATIO

1
0
TRUE
51149
0
LEFT NOT FITTED RIGHT NOT FITTED 0
NONE
NONE
15600
12
4.427000
51148
TRUE
1 0 8 72 0 0 0 0

15798

#HDR
-1
-1
#GR
µM
%T
2.38419e-05
0.0
2.000000
0.002000
12515
8
38.1469
-1.697283
#DATA
2.000000	 -0.096464
2.018000	 0.631255
2.036000	 -0.253260
2.054000	 -0.207121
2.072000	 0.154233
2.090000	 0.324192
2.108000	 -0.147367
2.126000	 0.074698
2.144000	 0.149556
2.162000	 -0.103714
2.180000	 -0.902580
2.198000	 -1.697283
2.216000	 31.8663
2.234000	 -0.078717
2.252000	 -0.266595
2.270000	 0.416274
2.288000	 0.291224
2.306000	 0.180952
2.324000	 -0.086084
2.342000	 -0.021286
2.360000	 0.103499
2.378000	 -0.064031
2.396000	 1.576775
2.414000	 0.285539
2.432000	 -0.098008
2.450000	 0.243845
2.468000	 0.144069
2.486000	 0.020794
2.504000	 0.164347
2.522000	 -0.048689
2.540000	 -0.038247
2.558000	 0.235964
2.576000	 -0.091478
2.594000	 0.222820
2.612000	 0.153538
2.630000	 0.065830
2.648000	 0.306214
2.666000	 0.194070
2.684000	 0.128145
2.702000	 0.175062
2.720000	 -0.052992
2.738000	 0.034315
2.756000	 0.205218
2.774000	 0.046981
2.792000	 0.062912
2.810000	 -0.130380
2.828000	 -0.099735
2.846000	 -0.013433
2.864000	 -0.021415
2.882000	 0.094320
2.900000	 0.098193
2.918000	 0.050538
2.936000	 -0.087291
2.954000	 0.108512
2.972000	 0.122380
2.990000	 -0.138642
3.008000	 0.067354
3.026000	 0.045036
3.044000	 0.060307
3.062000	 0.078911
3.080000	 0.056175
3.098000	 0.035662
3.116000	 0.267379
3.134000	 -0.059271
3.152000	 0.079793
3.170000	 -0.116907
3.188000	 0.038581
3.206000	 -0.131944
3.224000	 -0.045325
3.242000	 0.000127
3.260000	 0.066323
3.278000	 0.003956
3.296000	 -0.007487
3.314000	 0.099574
3.332000	 0.137385
3.350000	 0.004359
3.368000	 0.209673
3.386000	 0.009269
3.404000	 0.098170
3.422000	 0.070295
3.440000	 0.082133
3.458000	 -0.018789
3.476000	 0.134433
3.494000	 -0.007977
3.512000	 0.051832
3.530000	 0.016465
3.548000	 -0.000199
3.566000	 0.015300
3.584000	 0.014842
3.602000	 -0.005122
3.620000	 0.032313
3.638000	 -0.004314
3.656000	 0.090020
3.674000	 0.014481
3.692000	 -0.023896
3.710000	 0.070386
3.728000	 0.041258
3.746000	 0.076230
3.764000	 0.048104
3.782000	 0.081618
3.800000	 0.045799
3.818000	 0.054187
3.836000	 0.008809
3.854000	 0.022185
3.872000	 0.029435
3.890000	 -0.113153
3.908000	 0.028096
3.926000	 -0.013601
3.944000	 -0.082988
3.962000	 0.043611
3.980000	 0.080985
3.998000	 -0.042148
4.016000	 0.140691
4.034000	 0.025781
4.052000	 0.189288
4.070000	 0.032237
4.088000	 -0.051489
4.106000	 -0.102604
4.124000	 -0.186628
4.141999	 0.279318
4.160000	 0.005853
4.178000	 0.083658
4.196000	 0.102649
4.214000	 0.030054
4.232000	 0.220846
4.250000	 0.117760
4.268000	 0.214543
4.286000	 0.379397
4.304000	 0.442012
4.322000	 0.515387
4.340000	 0.701825
4.358000	 0.874738
4.375999	 1.077697
4.394000	 1.305534
4.412000	 1.504514
4.430000	 1.916642
4.448000	 2.398729
4.466000	 2.721102
4.484000	 3.140212
4.502000	 3.765491
4.520000	 4.308403
4.538000	 4.993441
4.556000	 5.629837
4.574000	 6.538290
4.592000	 7.378382
4.609999	 8.216226
4.628000	 9.100866
4.646000	 10.142
4.664000	 11.2564
4.682000	 12.173
4.700000	 13.1427
4.718000	 14.3804
4.736000	 15.4188
4.754000	 16.356
4.772000	 17.4409
4.790000	 18.5582
4.808000	 19.6829
4.826000	 20.5842
4.843999	 21.5128
4.862000	 22.634
4.880000	 23.2357
4.898000	 24.0664
4.916000	 24.7847
4.934000	 25.5698
4.952000	 26.289
4.970000	 26.9703
4.988000	 27.6665
5.006000	 28.2507
5.024000	 28.8362
5.042000	 29.5472
5.060000	 29.9367
5.077999	 30.3735
5.096000	 30.9294
5.114000	 31.3251
5.132000	 31.7711
5.150000	 32.1379
5.168000	 32.5189
5.186000	 32.8585
5.204000	 33.2194
5.222000	 33.5031
5.240000	 33.768
5.258000	 34.0881
5.276000	 34.3759
5.294000	 34.6021
5.312000	 34.7404
5.330000	 34.9635
5.348000	 35.1723
5.366000	 35.3634
5.384000	 35.443
5.402000	 35.5812
5.420000	 35.8139
5.438000	 36.0483
5.456000	 36.2226
5.474000	 36.3816
5.492000	 36.439
5.510000	 36.5957
5.528000	 36.675
5.546000	 36.654
5.564000	 36.8038
5.582000	 37.0111
5.600000	 37.0503
5.618000	 37.0761
5.636000	 37.1723
5.654000	 37.2501
5.672000	 37.3001
5.690000	 37.4018
5.708000	 37.4326
5.726000	 37.4148
5.744000	 37.4211
5.762000	 37.4838
5.780000	 37.442
5.798000	 37.265
5.816000	 37.4204
5.834000	 37.6677
5.852000	 37.7446
5.870000	 37.9544
5.888000	 38.0458
5.906000	 37.8904
5.923999	 37.9295
5.942000	 37.9946
5.960000	 37.899
5.978000	 37.8005
5.996000	 37.7167
6.014000	 37.7026
6.032000	 37.8983
6.050000	 38.1426
6.068000	 38.0579
6.086000	 37.9628
6.104000	 37.9834
6.122000	 37.956
6.140000	 37.854
6.158000	 37.8769
6.176000	 37.9524
6.194000	 37.8588
6.212000	 37.6578
6.230000	 37.5901
6.248000	 37.5886
6.266000	 37.6426
6.284000	 37.7209
6.302000	 37.8023
6.320000	 37.8598
6.338000	 37.9128
6.356000	 37.8711
6.374000	 37.8049
6.392000	 37.8252
6.410000	 37.9461
6.428000	 37.8643
6.446000	 37.7109
6.464000	 37.7649
6.482000	 37.9178
6.500000	 37.9756
6.518000	 37.9008
6.536000	 37.7956
6.554000	 37.7482
6.572000	 37.8007
6.590000	 37.8258
6.608000	 37.8554
6.626000	 37.9341
6.644000	 37.8143
6.662000	 37.5774
6.680000	 37.4901
6.698000	 37.5166
6.716000	 37.5413
6.734000	 37.4766
6.752000	 37.4257
6.770000	 37.5103
6.788000	 37.6144
6.806000	 37.6505
6.824000	 37.6919
6.842000	 37.7764
6.860000	 37.7313
6.878000	 37.4608
6.896000	 37.2887
6.914000	 37.3324
6.932000	 37.3799
6.950000	 37.3919
6.968000	 37.2913
6.986000	 37.0985
7.004000	 37.0449
7.022000	 37.1499
7.040000	 37.2414
7.058000	 37.2451
7.076000	 37.2091
7.094000	 37.2058
7.112000	 37.2625
7.130000	 37.3655
7.148000	 37.4427
7.166000	 37.4215
7.184000	 37.3656
7.202000	 37.3455
7.220000	 37.2914
7.238000	 37.1718
7.256000	 37.0517
7.274000	 36.9528
7.292000	 36.8999
7.310000	 36.9308
7.328000	 36.9998
7.346000	 37.0333
7.364000	 37.014
7.382000	 36.9846
7.400000	 37.0232
7.418000	 37.1587
7.436000	 37.3061
7.454000	 37.3487
7.472000	 37.2715
7.490000	 37.1616
7.508000	 37.0885
7.526000	 37.0417
7.544000	 36.966
7.562000	 36.8326
7.580000	 36.687
7.598000	 36.6088
7.616000	 36.6083
7.634000	 36.6184
7.652000	 36.6024
7.670000	 36.5899
7.688000	 36.5947
7.706000	 36.5912
7.724000	 36.5817
7.742000	 36.6067
7.760000	 36.6799
7.778000	 36.7711
7.796000	 36.8486
7.814000	 36.9074
7.832000	 36.9541
7.850000	 36.9695
7.868000	 36.9081
7.886000	 36.7606
7.904000	 36.5935
7.922000	 36.4873
7.940000	 36.45
7.958000	 36.4243
7.976000	 36.3741
7.994000	 36.318
8.012000	 36.2757
8.030000	 36.2276
8.048000	 36.163
8.065999	 36.1241
8.084000	 36.1675
8.102000	 36.2982
8.120000	 36.4587
8.138000	 36.5804
8.155999	 36.6381
8.173999	 36.6619
8.192000	 36.6891
8.210000	 36.7206
8.228000	 36.7328
8.246000	 36.7176
8.263999	 36.68
8.282000	 36.6173
8.300000	 36.5292
8.318000	 36.4382
8.336000	 36.3664
8.353999	 36.3064
8.372000	 36.236
8.390000	 36.1548
8.408000	 36.0872
8.426000	 36.0518
8.443999	 36.0419
8.462000	 36.0401
8.480000	 36.0389
8.498000	 36.0334
8.516000	 36.0141
8.533999	 35.9857
8.552000	 35.9867
8.570000	 36.0611
8.588000	 36.2001
8.606000	 36.3372
8.624000	 36.4084
8.641999	 36.4065
8.660000	 36.3669
8.678000	 36.3159
8.696000	 36.2539
8.714000	 36.1841
8.731999	 36.1329
8.750000	 36.1269
8.768000	 36.1468
8.786000	 36.1286
8.804000	 36.0273
8.821999	 35.8719
8.840000	 35.7418
8.858000	 35.6899
8.876000	 35.7043
8.894000	 35.734
8.911999	 35.735
8.930000	 35.687
8.948000	 35.594
8.966000	 35.4915
8.984000	 35.4474
9.001999	 35.5211
9.020000	 35.7014
9.038000	 35.903
9.056000	 36.0449
9.074000	 36.1145
9.092000	 36.1502
9.109999	 36.1825
9.128000	 36.2088
9.146000	 36.2111
9.164000	 36.1829
9.182000	 36.1393
9.199999	 36.1029
9.218000	 36.0884
9.236000	 36.0876
9.254000	 36.0716
9.272000	 36.0127
9.289999	 35.9074
9.308000	 35.7771
9.326000	 35.646
9.344000	 35.5277
9.362000	 35.4237
9.379999	 35.3265
9.398000	 35.2243
9.416000	 35.1086
9.434000	 34.9857
9.452000	 34.88
9.469999	 34.824
9.488000	 34.8371
9.506000	 34.9127
9.524000	 35.0226
9.542000	 35.1354
9.560000	 35.2332
9.577999	 35.3124
9.596000	 35.3784
9.614000	 35.4411
9.632000	 35.512
9.650000	 35.5973
9.667999	 35.688
9.686000	 35.757
9.704000	 35.7727
9.722000	 35.721
9.740000	 35.6192
9.757999	 35.5071
9.776000	 35.4268
9.794000	 35.4057
9.812000	 35.4479
9.830000	 35.535
9.847999	 35.6282
9.866000	 35.6799
9.884000	 35.6535
9.902000	 35.5413
9.920000	 35.3711
9.937999	 35.1888
9.956000	 35.031
9.974000	 34.911
9.992000	 34.8259
10.01	34.7731
10.028	34.7579
10.046	34.7879
10.064	34.8587
10.082	34.9481
10.1	35.0175
10.118	35.0281
10.136	34.9641
10.154	34.842
10.172	34.7063
10.19	34.6123
10.208	34.5975
10.226	34.6697
10.244	34.8073
10.262	34.972
10.28	35.1289
10.298	35.2545
10.316	35.3398
10.334	35.3886
10.352	35.4118
10.37	35.4225
10.388	35.4288
10.406	35.4288
10.424	35.4125
10.442	35.3686
10.46	35.2938
10.478	35.1974
10.496	35.097
10.514	35.0072
10.532	34.9339
10.55	34.8724
10.568	34.8158
10.586	34.7611
10.604	34.7112
10.622	34.6688
10.64	34.6312
10.658	34.5889
10.676	34.5305
10.694	34.4513
10.712	34.3568
10.73	34.2602
10.748	34.1755
10.766	34.1134
10.784	34.0801
10.802	34.0807
10.82	34.1207
10.838	34.2031
10.856	34.3227
10.874	34.4633
10.892	34.6016
10.91	34.7137
10.928	34.7875
10.946	34.8249
10.964	34.838
10.982	34.8409
11	34.8391
11.018	34.8285
11.036	34.8
11.054	34.7474
11.072	34.6729
11.09	34.5866
11.108	34.5008
11.126	34.4253
11.144	34.3636
11.162	34.3144
11.18	34.2753
11.198	34.2456
11.216	34.2262
11.234	34.2185
11.252	34.2218
11.27	34.2327
11.288	34.2453
11.306	34.253
11.324	34.248
11.342	34.2233
11.36	34.1744
11.378	34.1011
11.396	34.0101
11.414	33.9158
11.432	33.8355
11.45	33.7833
11.468	33.7667
11.486	33.7817
11.504	33.816
11.522	33.8535
11.54	33.8825
11.558	33.8984
11.576	33.9045
11.594	33.9084
11.612	33.9171
11.63	33.934
11.648	33.9583
11.666	33.9863
11.684	34.0148
11.702	34.043
11.72	34.0726
11.738	34.1083
11.756	34.154
11.774	34.2118
11.792	34.2801
11.81	34.3535
11.828	34.4242
11.846	34.4832
11.864	34.5223
11.882	34.5362
11.9	34.5231
11.918	34.4847
11.936	34.4256
11.954	34.3525
11.972	34.2728
11.99	34.1925
12.008	34.1168
12.026	34.048
12.044	33.9866
12.062	33.9299
12.08	33.874
12.098	33.8152
12.116	33.7521
12.134	33.6865
12.152	33.6235
12.17	33.5684
12.188	33.5243
12.206	33.4906
12.224	33.462
12.242	33.4304
12.26	33.3883
12.278	33.3308
12.296	33.2579
12.314	33.174
12.332	33.0866
12.35	33.0031
12.368	32.93
12.386	32.8704
12.404	32.8245
12.422	32.791
12.44	32.7685
12.458	32.7576
12.476	32.7598
12.494	32.7786
12.512	32.8172
12.53	32.8771
12.548	32.9575
12.566	33.0544
12.584	33.1618
12.602	33.2719
12.62	33.377
12.638	33.4703
12.656	33.5461
12.674	33.601
12.692	33.6332
12.71	33.6433
12.728	33.6331
12.746	33.6067
12.764	33.5685
12.782	33.5237
12.8	33.4773
12.818	33.4335
12.836	33.3958
12.854	33.3666
12.872	33.3469
12.89	33.3365
12.908	33.3341
12.926	33.337
12.944	33.3414
12.962	33.3438
12.98	33.3409
12.998	33.3303
13.016	33.3111
13.034	33.2843
13.052	33.2521
13.07	33.2169
13.088	33.181
13.106	33.1449
13.124	33.1078
13.142	33.0669
13.16	33.0197
13.178	32.9636
13.196	32.8978
13.214	32.823
13.232	32.741
13.25	32.6549
13.268	32.568
13.286	32.4835
13.304	32.4033
13.322	32.3289
13.34	32.2614
13.358	32.2005
13.376	32.1455
13.394	32.0954
13.412	32.0497
13.43	32.008
13.448	31.9711
13.466	31.9401
13.484	31.9174
13.502	31.9058
13.52	31.9079
13.538	31.9258
13.556	31.9599
13.574	32.0092
13.592	32.0706
13.61	32.1396
13.628	32.2114
13.646	32.2817
13.664	32.3477
13.682	32.4081
13.7	32.4638
13.718	32.5168
13.736	32.5699
13.754	32.6255
13.772	32.6855
13.79	32.7504
13.808	32.8199
13.826	32.8929
13.844	32.9671
13.862	33.04
13.88	33.1086
13.898	33.1698
13.916	33.2205
13.934	33.258
13.952	33.28
13.97	33.2853
13.988	33.274
14.006	33.248
14.024	33.2102
14.042	33.1653
14.06	33.1177
14.078	33.0714
14.096	33.0289
14.114	32.9907
14.132	32.9556
14.15	32.9203
14.168	32.8812
14.186	32.8344
14.204	32.7772
14.222	32.7082
14.24	32.6286
14.258	32.541
14.276	32.4491
14.294	32.3568
14.312	32.2679
14.33	32.1852
14.348	32.1102
14.366	32.043
14.384	31.9827
14.402	31.9278
14.42	31.8768
14.438	31.8289
14.456	31.7834
14.474	31.7407
14.492	31.7016
14.51	31.6672
14.528	31.6384
14.546	31.6152
14.564	31.5972
14.582	31.5832
14.6	31.5719
14.618	31.5616
14.636	31.5508
14.654	31.5391
14.672	31.5264
14.69	31.5137
14.708	31.5024
14.726	31.4937
14.744	31.4892
14.762	31.4897
14.78	31.4954
14.798	31.506
14.816	31.5208
14.834	31.539
14.852	31.5592
14.87	31.5808
14.888	31.6028
14.906	31.6244
14.924	31.6452
14.942	31.6643
14.96	31.681
14.978	31.695
14.996	31.7059
15.014	31.7136
15.032	31.7185
15.05	31.7212
15.068	31.7232
15.086	31.7256
15.104	31.7301
15.122	31.7383
15.14	31.7517
15.158	31.771
15.176	31.7965
15.194	31.8282
15.212	31.8644
15.23	31.9031
15.248	31.9417
15.266	31.9775
15.284	32.0069
15.302	32.0271
15.32	32.0363
15.338	32.0332
15.356	32.0175
15.374	31.9904
15.392	31.9537
15.41	31.9095
15.428	31.8609
15.446	31.8103
15.464	31.7596
15.482	31.7102
15.5	31.6622
15.518	31.6152
15.536	31.5672
15.554	31.5165
15.572	31.4608
15.59	31.3973
15.608	31.3247
15.626	31.242
15.644	31.1488
15.662	31.0463
15.68	30.9361
15.698	30.8203
15.716	30.7023
15.734	30.5855
15.752	30.4726
15.77	30.3662
15.788	30.2692
15.806	30.1832
15.824	30.1093
15.842	30.0483
15.86	30.0005
15.878	29.9654
15.896	29.9427
15.914	29.9312
15.932	29.9298
15.95	29.9374
15.968	29.9527
15.986	29.9739
16.004	29.9999
16.022	30.0295
16.04	30.0608
16.058	30.0928
16.076	30.1245
16.094	30.1544
16.112	30.1816
16.13	30.2053
16.148	30.2248
16.166	30.2397
16.184	30.2497
16.202	30.2547
16.22	30.2548
16.238	30.2504
16.256	30.2419
16.274	30.2298
16.292	30.2145
16.31	30.1961
16.328	30.1749
16.346	30.151
16.364	30.1247
16.382	30.0965
16.4	30.0674
16.418	30.038
16.436	30.0101
16.454	29.9854
16.472	29.9655
16.49	29.9528
16.508	29.949
16.526	29.9553
16.544	29.973
16.562	30.0024
16.58	30.0436
16.598	30.0958
16.616	30.1576
16.634	30.2279
16.652	30.304
16.67	30.384
16.688	30.4659
16.706	30.5466
16.724	30.6249
16.742	30.6988
16.76	30.7664
16.778	30.8271
16.796	30.8796
16.814	30.924
16.832	30.9604
16.85	30.9894
16.868	31.0117
16.886	31.0283
16.904	31.0403
16.922	31.0487
16.94	31.0548
16.958	31.0592
16.976	31.0622
16.994	31.0647
17.012	31.0661
17.03	31.066
17.048	31.0634
17.066	31.0573
17.084	31.0463
17.102	31.029
17.12	31.0047
17.138	30.972
17.156	30.9309
17.174	30.8811
17.192	30.8236
17.21	30.7591
17.228	30.6892
17.246	30.6156
17.264	30.5394
17.282	30.463
17.3	30.3868
17.318	30.3122
17.336	30.2397
17.354	30.1695
17.372	30.1014
17.39	30.0355
17.408	29.9711
17.426	29.908
17.444	29.8458
17.462	29.784
17.48	29.7227
17.498	29.662
17.516	29.6023
17.534	29.5439
17.552	29.4873
17.57	29.4326
17.588	29.3805
17.606	29.3312
17.624	29.285
17.642	29.2425
17.66	29.204
17.678	29.1695
17.696	29.1392
17.714	29.1135
17.732	29.0924
17.75	29.0763
17.768	29.0653
17.786	29.0595
17.804	29.059
17.822	29.0635
17.84	29.0728
17.858	29.086
17.876	29.1025
17.894	29.1208
17.912	29.1404
17.93	29.159
17.948	29.1763
17.966	29.1903
17.984	29.2009
18.002	29.207
18.02	29.2091
18.038	29.2068
18.056	29.2016
18.074	29.1936
18.092	29.185
18.11	29.1759
18.128	29.1684
18.146	29.1626
18.164	29.16
18.182	29.16
18.2	29.1632
18.218	29.168
18.236	29.1742
18.254	29.1792
18.272	29.1824
18.29	29.1807
18.308	29.174
18.326	29.1595
18.344	29.1373
18.362	29.1059
18.38	29.0659
18.398	29.0173
18.416	28.9616
18.434	28.9
18.452	28.8352
18.47	28.7688
18.488	28.7042
18.506	28.6426
18.524	28.5877
18.542	28.5403
18.56	28.5031
18.578	28.4763
18.596	28.4614
18.614	28.4584
18.632	28.4669
18.65	28.4867
18.668	28.516
18.686	28.5545
18.704	28.5996
18.722	28.6506
18.74	28.7044
18.758	28.7606
18.776	28.8163
18.794	28.871
18.812	28.9221
18.83	28.969
18.848	29.0098
18.866	29.0441
18.884	29.0706
18.902	29.0892
18.92	29.0993
18.938	29.1011
18.956	29.0947
18.974	29.0804
18.992	29.0586
19.01	29.0303
19.028	28.9965
19.046	28.9581
19.064	28.9167
19.082	28.8733
19.1	28.8297
19.118	28.7865
19.136	28.7455
19.154	28.7071
19.172	28.6728
19.19	28.6426
19.208	28.6174
19.226	28.5971
19.244	28.582
19.262	28.5719
19.28	28.5665
19.298	28.5658
19.316	28.5689
19.334	28.5757
19.352	28.5852
19.37	28.5975
19.388	28.6115
19.406	28.6274
19.424	28.644
19.442	28.6613
19.46	28.6785
19.478	28.6956
19.496	28.7113
19.514	28.7256
19.532	28.7374
19.55	28.7462
19.568	28.7512
19.586	28.7512
19.604	28.7458
19.622	28.7335
19.64	28.7144
19.658	28.687
19.676	28.6516
19.694	28.6081
19.712	28.5564
19.73	28.4975
19.748	28.4312
19.766	28.3595
19.784	28.2824
19.802	28.2019
19.82	28.1188
19.838	28.0343
19.856	27.9506
19.874	27.8677
19.892	27.7874
19.91	27.7094
19.928	27.6344
19.946	27.5626
19.964	27.4929
19.982	27.4255
20	27.3591
20.018	27.293
20.036	27.2267
20.054	27.1586
20.072	27.0891
20.09	27.0171
20.108	26.9428
20.126	26.8672
20.144	26.7898
20.162	26.7134
20.18	26.6385
20.198	26.5671
20.216	26.5026
20.234	26.4448
20.252	26.399
20.27	26.3641
20.288	26.344
20.306	26.3391
20.324	26.3499
20.342	26.3775
20.36	26.4207
20.378	26.4777
20.396	26.5486
20.414	26.6279
20.432	26.7168
20.45	26.8085
20.468	26.9007
20.486	26.9912
20.504	27.0732
20.522	27.1483
20.54	27.2097
20.558	27.2579
20.576	27.2913
20.594	27.3084
20.612	27.3107
20.63	27.2988
20.648	27.2729
20.666	27.2387
20.684	27.195
20.702	27.1479
20.72	27.1008
20.738	27.0545
20.756	27.0171
20.774	26.9867
20.792	26.9692
20.81	26.9657
20.828	26.9768
20.846	27.005
20.864	27.0495
20.882	27.1088
20.9	27.1841
20.918	27.2716
20.936	27.3695
20.954	27.4774
20.972	27.589
20.99	27.7058
21.008	27.8227
21.026	27.9374
21.044	28.0498
21.062	28.1552
21.08	28.2548
21.098	28.3467
21.116	28.4301
21.134	28.5058
21.152	28.5742
21.17	28.635
21.188	28.6906
21.206	28.741
21.224	28.7873
21.242	28.8317
21.26	28.8737
21.278	28.9149
21.296	28.9561
21.314	28.9967
21.332	29.0371
21.35	29.0775
21.368	29.1162
21.386	29.1534
21.404	29.1882
21.422	29.2178
21.44	29.2431
21.458	29.2618
21.476	29.2728
21.494	29.2763
21.512	29.2699
21.53	29.2539
21.548	29.2283
21.566	29.1928
21.584	29.1476
21.602	29.0941
21.62	29.0315
21.638	28.9616
21.656	28.8864
21.674	28.8051
21.692	28.7207
21.71	28.6336
21.728	28.5444
21.746	28.456
21.764	28.3676
21.782	28.2807
21.8	28.1965
21.818	28.1144
21.836	28.035
21.854	27.9583
21.872	27.8841
21.89	27.8117
21.908	27.7414
21.926	27.6724
21.944	27.6041
21.962	27.5367
21.98	27.4696
21.998	27.4026
22.016	27.3359
22.034	27.2698
22.052	27.2038
22.07	27.1393
22.088	27.077
22.106	27.0166
22.124	26.9604
22.142	26.9086
22.16	26.8616
22.178	26.8221
22.196	26.7896
22.214	26.765
22.232	26.7503
22.25	26.7449
22.268	26.7491
22.286	26.7638
22.304	26.7884
22.322	26.8214
22.34	26.8636
22.358	26.9137
22.376	26.9683
22.394	27.0289
22.412	27.0925
22.43	27.1551
22.448	27.2186
22.466	27.279
22.484	27.333
22.502	27.3825
22.52	27.4235
22.538	27.4542
22.556	27.4757
22.574	27.4855
22.592	27.4829
22.61	27.4684
22.628	27.4418
22.646	27.4023
22.664	27.3512
22.682	27.2906
22.7	27.2192
22.718	27.1394
22.736	27.0541
22.754	26.9617
22.772	26.8654
22.79	26.7681
22.808	26.6681
22.826	26.5683
22.844	26.4705
22.862	26.3735
22.88	26.2794
22.898	26.1893
22.916	26.1024
22.934	26.0189
22.952	25.9393
22.97	25.8632
22.988	25.7889
23.006	25.7167
23.024	25.6462
23.042	25.575
23.06	25.503
23.078	25.4301
23.096	25.3542
23.114	25.275
23.132	25.1929
23.15	25.1069
23.168	25.0172
23.186	24.9238
23.204	24.8261
23.222	24.7232
23.24	24.6164
23.258	24.5082
23.276	24.3968
23.294	24.2845
23.312	24.1762
23.33	24.0703
23.348	23.9688
23.366	23.878
23.384	23.7972
23.402	23.727
23.42	23.6733
23.438	23.636
23.456	23.6149
23.474	23.6138
23.492	23.6338
23.51	23.6736
23.528	23.7335
23.546	23.8146
23.564	23.9158
23.582	24.0341
23.6	24.1693
23.618	24.322
23.636	24.4864
23.654	24.6602
23.672	24.8462
23.69	25.0365
23.708	25.2265
23.726	25.4206
23.744	25.611
23.762	25.7911
23.78	25.9655
23.798	26.1289
23.816	26.2748
23.834	26.4063
23.852	26.5212
23.87	26.6154
23.888	26.6898
23.906	26.7443
23.924	26.7771
23.942	26.7876
23.96	26.7767
23.978	26.7451
23.996	26.6924
24.014	26.6187
24.032	26.5264
24.05	26.4169
24.068	26.2886
24.086	26.1448
24.104	25.9885
24.122	25.8172
24.14	25.6342
24.158	25.4436
24.176	25.2438
24.194	25.036
24.212	24.8247
24.23	24.6102
24.248	24.3914
24.266	24.1731
24.284	23.9579
24.302	23.7434
24.32	23.5323
24.338	23.3273
24.356	23.126
24.374	22.9309
24.392	22.7461
24.41	22.5718
24.428	22.4068
24.446	22.2518
24.464	22.1072
24.482	21.9727
24.5	21.8477
24.518	21.7324
24.536	21.6291
24.554	21.533
24.572	21.4382
24.59	21.3489
24.608	21.2623
24.626	21.1672
24.644	21.0603
24.662	20.9478
24.68	20.817
24.698	20.6565
24.716	20.4756
24.734	20.2664
24.752	20.0144
24.77	19.7188
24.788	19.3837
24.806	19.001
24.824	18.5646
24.842	18.078
24.86	17.5419
24.878	16.9561
24.896	16.3151
24.914	15.6249
24.932	14.8979
24.95	14.1376
24.968	13.3343
24.986	12.5086
25.004	11.681
25.022	10.8356
25.04	9.983595
25.058	9.154383
25.076	8.358434
25.094	7.577667
25.112	6.839391
25.13	6.171109
25.148	5.557534
25.166	5.004908
25.184	4.536849
25.202	4.165024
25.22	3.875688
25.238	3.678543
25.256	3.584471
25.274	3.593200
25.292	3.700080
25.31	3.903149
25.328	4.203848
25.346	4.606334
25.364	5.096885
25.382	5.660677
25.4	6.306645
25.418	7.031764
25.436	7.812522
25.454	8.632565
25.472	9.511766
25.49	10.4309
25.508	11.363
25.526	12.3058
25.544	13.2718
25.562	14.235
25.58	15.1714
25.598	16.0959
25.616	17.003
25.634	17.8717
25.652	18.6893
25.67	19.4711
25.688	20.2052
25.706	20.8771
25.724	21.4854
25.742	22.0365
25.76	22.523
25.778	22.9377
25.796	23.2824
25.814	23.5594
25.832	23.7687
25.85	23.9093
25.868	23.9793
25.886	23.9844
25.904	23.9306
25.922	23.8183
25.94	23.6444
25.958	23.4162
25.976	23.1412
25.994	22.8146
26.012	22.4378
26.03	22.0204
26.048	21.5702
26.066	21.0774
26.084	20.5494
26.102	19.9999
26.12	19.4364
26.138	18.8465
26.156	18.2421
26.174	17.6384
26.192	17.0385
26.21	16.4316
26.228	15.8328
26.246	15.2582
26.264	14.7057
26.282	14.169
26.3	13.662
26.318	13.1985
26.336	12.7716
26.354	12.3805
26.372	12.037
26.39	11.7521
26.408	11.5198
26.426	11.3396
26.444	11.2172
26.462	11.1571
26.48	11.1579
26.498	11.2173
26.516	11.3337
26.534	11.5072
26.552	11.7424
26.57	12.032
26.588	12.367
26.606	12.7432
26.624	13.1718
26.642	13.6401
26.66	14.1325
26.678	14.6424
26.696	15.185
26.714	15.7449
26.732	16.304
26.75	16.8546
26.768	17.4126
26.786	17.9638
26.804	18.4918
26.822	18.9895
26.84	19.4709
26.858	19.925
26.876	20.3387
26.894	20.7063
26.912	21.0386
26.93	21.3283
26.948	21.5666
26.966	21.7427
26.984	21.8541
27.002	21.9216
27.02	21.9669
27.028	21.9832