File: Bakgrunnsmateriale/MATLAB/FTIR/ftir_data/LPE453/Mapping_121/LPE453_t03.asc
PE IR       SPECTRUM    SPECTRUM    ASCII       PEDS        1.60
  -1
LPC395~1.ASC
17/05/16
14:37:15.00
17/05/16
14:37:41.00
tln
$LPE453_t0003$<tbV0>[7.8,-13.0,8.0,0.0,27,1,0]
27.028
64

2002,4.07
MIRTGS : RIGHTBACK : INTERNAL 2
MIR : ON : INTERNAL 2
OPTKBR

0.200000
8
8.000000
FILLER
RATIO
SPECTRUM
UNLOCKED 256

DOUBLE
64
COMBINED
1
0
0

0.002000
RATIO

1
0
TRUE
51149
0
LEFT NOT FITTED RIGHT NOT FITTED 0
NONE
NONE
15600
12
4.427000
51148
TRUE
1 0 8 72 0 0 0 0

15798

#HDR
-1
-1
#GR
µM
%T
2.38419e-05
0.0
2.000000
0.002000
12515
8
34.7465
-4.767086
#DATA
2.000000	 0.348305
2.018000	 0.293390
2.036000	 0.019139
2.054000	 -0.406237
2.072000	 -0.034417
2.090000	 0.030241
2.108000	 -0.203123
2.126000	 -0.138263
2.144000	 -1.112222
2.162000	 0.068139
2.180000	 -0.329375
2.198000	 -1.299200
2.216000	 -0.890936
2.234000	 -1.922677
2.252000	 -0.548809
2.270000	 -0.158294
2.288000	 0.934753
2.306000	 0.645704
2.324000	 0.297969
2.342000	 0.461469
2.360000	 -0.004792
2.378000	 0.294621
2.396000	 0.189534
2.414000	 0.322861
2.432000	 0.150822
2.450000	 0.009655
2.468000	 0.086522
2.486000	 0.007604
2.504000	 0.078265
2.522000	 0.079275
2.540000	 0.267443
2.558000	 0.112862
2.576000	 0.264065
2.594000	 0.222694
2.612000	 0.205145
2.630000	 0.070293
2.648000	 0.088943
2.666000	 0.155534
2.684000	 0.069763
2.702000	 -0.034535
2.720000	 -0.157087
2.738000	 0.028360
2.756000	 0.027181
2.774000	 0.005278
2.792000	 0.266945
2.810000	 0.266008
2.828000	 -0.061936
2.846000	 -0.007836
2.864000	 0.154960
2.882000	 -0.007003
2.900000	 0.040574
2.918000	 0.058020
2.936000	 0.115597
2.954000	 -0.077533
2.972000	 0.213893
2.990000	 0.194981
3.008000	 0.243430
3.026000	 0.217567
3.044000	 0.111392
3.062000	 0.039370
3.080000	 0.127182
3.098000	 0.113012
3.116000	 0.053175
3.134000	 0.195177
3.152000	 -0.034844
3.170000	 0.022615
3.188000	 0.169105
3.206000	 0.128923
3.224000	 0.090042
3.242000	 0.184836
3.260000	 0.096431
3.278000	 0.018624
3.296000	 0.028113
3.314000	 0.001352
3.332000	 0.058892
3.350000	 0.077182
3.368000	 0.021775
3.386000	 -0.053342
3.404000	 -0.062594
3.422000	 -0.005684
3.440000	 0.049588
3.458000	 0.160696
3.476000	 0.060670
3.494000	 0.047595
3.512000	 -0.055661
3.530000	 0.061355
3.548000	 0.041674
3.566000	 -0.000649
3.584000	 0.040710
3.602000	 0.027303
3.620000	 -0.066963
3.638000	 -0.089226
3.656000	 0.078837
3.674000	 0.044908
3.692000	 0.083209
3.710000	 0.042801
3.728000	 0.052436
3.746000	 0.177487
3.764000	 -0.022653
3.782000	 0.026106
3.800000	 0.029054
3.818000	 0.077338
3.836000	 0.044334
3.854000	 -0.014932
3.872000	 0.115038
3.890000	 0.082984
3.908000	 0.100512
3.926000	 -0.023101
3.944000	 0.060987
3.962000	 0.093840
3.980000	 0.063106
3.998000	 0.175874
4.016000	 0.086075
4.034000	 -0.021091
4.052000	 0.003004
4.070000	 0.003027
4.088000	 -0.016415
4.106000	 -0.058300
4.124000	 0.017550
4.141999	 -0.162251
4.160000	 -0.020941
4.178000	 0.035551
4.196000	 0.005779
4.214000	 0.037332
4.232000	 0.029962
4.250000	 0.062956
4.268000	 0.177922
4.286000	 0.206301
4.304000	 0.234734
4.322000	 0.241510
4.340000	 0.255480
4.358000	 0.401978
4.375999	 0.411964
4.394000	 0.558640
4.412000	 0.698384
4.430000	 0.924180
4.448000	 1.136196
4.466000	 1.343884
4.484000	 1.772110
4.502000	 2.059259
4.520000	 2.530470
4.538000	 3.009252
4.556000	 3.574368
4.574000	 4.060341
4.592000	 4.761296
4.609999	 5.539655
4.628000	 6.352669
4.646000	 7.281564
4.664000	 7.984882
4.682000	 9.007813
4.700000	 9.903551
4.718000	 10.7982
4.736000	 11.6887
4.754000	 12.7984
4.772000	 13.8846
4.790000	 14.9626
4.808000	 15.7385
4.826000	 16.5475
4.843999	 17.3398
4.862000	 18.3791
4.880000	 19.2224
4.898000	 20.1466
4.916000	 20.9244
4.934000	 21.7795
4.952000	 22.6755
4.970000	 23.2972
4.988000	 23.958
5.006000	 24.6069
5.024000	 25.1292
5.042000	 25.7065
5.060000	 26.2824
5.077999	 26.9217
5.096000	 27.525
5.114000	 27.9289
5.132000	 28.31
5.150000	 28.7584
5.168000	 29.0946
5.186000	 29.4822
5.204000	 29.8957
5.222000	 30.2186
5.240000	 30.5447
5.258000	 30.7171
5.276000	 30.9894
5.294000	 31.2768
5.312000	 31.4418
5.330000	 31.7974
5.348000	 32.1173
5.366000	 32.2811
5.384000	 32.3027
5.402000	 32.4171
5.420000	 32.6887
5.438000	 32.7827
5.456000	 32.894
5.474000	 33.1002
5.492000	 33.2441
5.510000	 33.3807
5.528000	 33.4565
5.546000	 33.5329
5.564000	 33.5943
5.582000	 33.6626
5.600000	 33.6599
5.618000	 33.6958
5.636000	 33.8423
5.654000	 33.8957
5.672000	 34.0196
5.690000	 34.0381
5.708000	 34.0456
5.726000	 34.0442
5.744000	 33.987
5.762000	 34.0018
5.780000	 34.0182
5.798000	 34.185
5.816000	 34.353
5.834000	 34.2991
5.852000	 34.3901
5.870000	 34.5722
5.888000	 34.5765
5.906000	 34.287
5.923999	 34.2429
5.942000	 34.3696
5.960000	 34.2671
5.978000	 34.2224
5.996000	 34.2983
6.014000	 34.428
6.032000	 34.5756
6.050000	 34.7394
6.068000	 34.6678
6.086000	 34.4892
6.104000	 34.4092
6.122000	 34.316
6.140000	 34.2506
6.158000	 34.3135
6.176000	 34.4707
6.194000	 34.5789
6.212000	 34.5349
6.230000	 34.471
6.248000	 34.4265
6.266000	 34.4001
6.284000	 34.3102
6.302000	 34.2232
6.320000	 34.1675
6.338000	 34.2322
6.356000	 34.3511
6.374000	 34.3434
6.392000	 34.3767
6.410000	 34.5586
6.428000	 34.5794
6.446000	 34.3985
6.464000	 34.357
6.482000	 34.4374
6.500000	 34.4173
6.518000	 34.2778
6.536000	 34.1281
6.554000	 34.1014
6.572000	 34.1281
6.590000	 34.1018
6.608000	 34.1316
6.626000	 34.2592
6.644000	 34.3442
6.662000	 34.3603
6.680000	 34.3525
6.698000	 34.2848
6.716000	 34.1868
6.734000	 34.0645
6.752000	 33.9603
6.770000	 33.9242
6.788000	 33.9187
6.806000	 33.876
6.824000	 33.7385
6.842000	 33.6798
6.860000	 33.7981
6.878000	 33.877
6.896000	 33.8944
6.914000	 33.9483
6.932000	 34.0073
6.950000	 34.026
6.968000	 33.9289
6.986000	 33.7736
7.004000	 33.6882
7.022000	 33.6424
7.040000	 33.5791
7.058000	 33.5187
7.076000	 33.4657
7.094000	 33.4433
7.112000	 33.4998
7.130000	 33.6078
7.148000	 33.7197
7.166000	 33.8283
7.184000	 33.903
7.202000	 33.9021
7.220000	 33.8504
7.238000	 33.8033
7.256000	 33.7511
7.274000	 33.685
7.292000	 33.6221
7.310000	 33.5061
7.328000	 33.3251
7.346000	 33.2094
7.364000	 33.2235
7.382000	 33.3033
7.400000	 33.4093
7.418000	 33.5229
7.436000	 33.5995
7.454000	 33.6328
7.472000	 33.6487
7.490000	 33.6567
7.508000	 33.6722
7.526000	 33.6937
7.544000	 33.6577
7.562000	 33.5202
7.580000	 33.3286
7.598000	 33.165
7.616000	 33.0777
7.634000	 33.0548
7.652000	 33.0428
7.670000	 33.0167
7.688000	 33.0172
7.706000	 33.0872
7.724000	 33.2136
7.742000	 33.3401
7.760000	 33.4235
7.778000	 33.4612
7.796000	 33.4653
7.814000	 33.44
7.832000	 33.3836
7.850000	 33.2919
7.868000	 33.1737
7.886000	 33.0632
7.904000	 32.9751
7.922000	 32.8854
7.940000	 32.7892
7.958000	 32.7259
7.976000	 32.7249
7.994000	 32.7748
8.012000	 32.8454
8.030000	 32.9109
8.048000	 32.9737
8.065999	 33.0594
8.084000	 33.1645
8.102000	 33.2389
8.120000	 33.2461
8.138000	 33.2098
8.155999	 33.1747
8.173999	 33.1484
8.192000	 33.1015
8.210000	 33.0157
8.228000	 32.9168
8.246000	 32.8425
8.263999	 32.7905
8.282000	 32.7267
8.300000	 32.6462
8.318000	 32.5847
8.336000	 32.5585
8.353999	 32.5343
8.372000	 32.4811
8.390000	 32.4274
8.408000	 32.4374
8.426000	 32.5421
8.443999	 32.7075
8.462000	 32.8624
8.480000	 32.955
8.498000	 32.983
8.516000	 32.9781
8.533999	 32.9609
8.552000	 32.9183
8.570000	 32.8371
8.588000	 32.7374
8.606000	 32.6526
8.624000	 32.5842
8.641999	 32.5057
8.660000	 32.4112
8.678000	 32.3297
8.696000	 32.2872
8.714000	 32.2753
8.731999	 32.2726
8.750000	 32.2757
8.768000	 32.293
8.786000	 32.3203
8.804000	 32.3433
8.821999	 32.3615
8.840000	 32.3917
8.858000	 32.4489
8.876000	 32.5333
8.894000	 32.63
8.911999	 32.7156
8.930000	 32.7681
8.948000	 32.7715
8.966000	 32.7155
8.984000	 32.6065
9.001999	 32.4748
9.020000	 32.3534
9.038000	 32.2532
9.056000	 32.1594
9.074000	 32.0548
9.092000	 31.9396
9.109999	 31.8318
9.128000	 31.7553
9.146000	 31.7297
9.164000	 31.7626
9.182000	 31.8433
9.199999	 31.9451
9.218000	 32.0426
9.236000	 32.1287
9.254000	 32.2137
9.272000	 32.3064
9.289999	 32.398
9.308000	 32.468
9.326000	 32.5039
9.344000	 32.5097
9.362000	 32.4966
9.379999	 32.4687
9.398000	 32.4243
9.416000	 32.3662
9.434000	 32.306
9.452000	 32.2541
9.469999	 32.2066
9.488000	 32.1484
9.506000	 32.0677
9.524000	 31.9665
9.542000	 31.859
9.560000	 31.7604
9.577999	 31.6846
9.596000	 31.6425
9.614000	 31.6373
9.632000	 31.6563
9.650000	 31.6724
9.667999	 31.6606
9.686000	 31.6175
9.704000	 31.5684
9.722000	 31.5539
9.740000	 31.6055
9.757999	 31.7232
9.776000	 31.8716
9.794000	 31.9968
9.812000	 32.0542
9.830000	 32.0325
9.847999	 31.9584
9.866000	 31.8784
9.884000	 31.8319
9.902000	 31.8307
9.920000	 31.8571
9.937999	 31.8806
9.956000	 31.88
9.974000	 31.8542
9.992000	 31.8174
10.01	31.7826
10.028	31.748
10.046	31.6999
10.064	31.6252
10.082	31.5242
10.1	31.4096
10.118	31.2968
10.136	31.1938
10.154	31.1026
10.172	31.0246
10.19	30.9664
10.208	30.9368
10.226	30.9411
10.244	30.9757
10.262	31.0306
10.28	31.0959
10.298	31.1677
10.316	31.248
10.334	31.3397
10.352	31.4408
10.37	31.5411
10.388	31.625
10.406	31.6787
10.424	31.6954
10.442	31.6801
10.46	31.644
10.478	31.5998
10.496	31.5549
10.514	31.51
10.532	31.4619
10.55	31.407
10.568	31.344
10.586	31.2743
10.604	31.2007
10.622	31.1265
10.64	31.0548
10.658	30.988
10.676	30.9257
10.694	30.8644
10.712	30.7992
10.73	30.7287
10.748	30.6574
10.766	30.5958
10.784	30.5547
10.802	30.5394
10.82	30.5463
10.838	30.5638
10.856	30.5809
10.874	30.593
10.892	30.6037
10.91	30.6219
10.928	30.6543
10.946	30.702
10.964	30.7592
10.982	30.8168
11	30.8683
11.018	30.9118
11.036	30.9506
11.054	30.9903
11.072	31.0336
11.09	31.0779
11.108	31.1154
11.126	31.1342
11.144	31.1244
11.162	31.0819
11.18	31.0113
11.198	30.9257
11.216	30.8415
11.234	30.7716
11.252	30.7204
11.27	30.6815
11.288	30.6402
11.306	30.5822
11.324	30.4992
11.342	30.3927
11.36	30.2733
11.378	30.1554
11.396	30.0498
11.414	29.9608
11.432	29.8869
11.45	29.824
11.468	29.7702
11.486	29.7289
11.504	29.7071
11.522	29.7126
11.54	29.7495
11.558	29.8145
11.576	29.8969
11.594	29.9828
11.612	30.0576
11.63	30.1122
11.648	30.1453
11.666	30.1627
11.684	30.1752
11.702	30.1929
11.72	30.2223
11.738	30.2634
11.756	30.3105
11.774	30.354
11.792	30.3828
11.81	30.3893
11.828	30.3705
11.846	30.3277
11.864	30.2667
11.882	30.195
11.9	30.1202
11.918	30.0483
11.936	29.9829
11.954	29.9248
11.972	29.8722
11.99	29.8217
12.008	29.7691
12.026	29.7107
12.044	29.6439
12.062	29.569
12.08	29.4892
12.098	29.409
12.116	29.334
12.134	29.2686
12.152	29.2157
12.17	29.1766
12.188	29.1521
12.206	29.1433
12.224	29.1514
12.242	29.1775
12.26	29.2206
12.278	29.2767
12.296	29.3387
12.314	29.3969
12.332	29.442
12.35	29.4674
12.368	29.471
12.386	29.4564
12.404	29.4318
12.422	29.4066
12.44	29.389
12.458	29.3837
12.476	29.3913
12.494	29.409
12.512	29.4322
12.53	29.4572
12.548	29.4825
12.566	29.5088
12.584	29.538
12.602	29.5714
12.62	29.6081
12.638	29.6442
12.656	29.6731
12.674	29.6879
12.692	29.6833
12.71	29.6579
12.728	29.6147
12.746	29.5608
12.764	29.505
12.782	29.4555
12.8	29.4168
12.818	29.3882
12.836	29.3641
12.854	29.3351
12.872	29.2922
12.89	29.2285
12.908	29.142
12.926	29.0364
12.944	28.9201
12.962	28.8036
12.98	28.6969
12.998	28.6067
13.016	28.5363
13.034	28.4856
13.052	28.4526
13.07	28.4345
13.088	28.4296
13.106	28.4376
13.124	28.4581
13.142	28.4906
13.16	28.5328
13.178	28.5805
13.196	28.6271
13.214	28.6659
13.232	28.6921
13.25	28.7035
13.268	28.7019
13.286	28.6928
13.304	28.6832
13.322	28.6806
13.34	28.6907
13.358	28.7157
13.376	28.7542
13.394	28.8012
13.412	28.85
13.43	28.8928
13.448	28.9232
13.466	28.9368
13.484	28.932
13.502	28.9101
13.52	28.8744
13.538	28.8297
13.556	28.7805
13.574	28.7309
13.592	28.6826
13.61	28.6363
13.628	28.5904
13.646	28.5422
13.664	28.4887
13.682	28.4275
13.7	28.3578
13.718	28.281
13.736	28.2009
13.754	28.1229
13.772	28.0532
13.79	27.9974
13.808	27.9594
13.826	27.9402
13.844	27.9377
13.862	27.9473
13.88	27.9624
13.898	27.976
13.916	27.9815
13.934	27.9739
13.952	27.9503
13.97	27.9102
13.988	27.8553
14.006	27.7891
14.024	27.7157
14.042	27.6396
14.06	27.5649
14.078	27.4947
14.096	27.4314
14.114	27.3767
14.132	27.332
14.15	27.2981
14.168	27.2752
14.186	27.2633
14.204	27.2618
14.222	27.2696
14.24	27.2846
14.258	27.3047
14.276	27.327
14.294	27.3489
14.312	27.3685
14.33	27.3842
14.348	27.3961
14.366	27.4049
14.384	27.4128
14.402	27.4221
14.42	27.435
14.438	27.4533
14.456	27.4778
14.474	27.5083
14.492	27.5435
14.51	27.5807
14.528	27.6165
14.546	27.648
14.564	27.673
14.582	27.69
14.6	27.6986
14.618	27.6997
14.636	27.6952
14.654	27.6874
14.672	27.6785
14.69	27.6705
14.708	27.6645
14.726	27.6608
14.744	27.6584
14.762	27.6558
14.78	27.6508
14.798	27.6414
14.816	27.6258
14.834	27.6024
14.852	27.5709
14.87	27.5322
14.888	27.4882
14.906	27.4417
14.924	27.3959
14.942	27.3548
14.96	27.3211
14.978	27.2962
14.996	27.2801
15.014	27.2716
15.032	27.2674
15.05	27.2629
15.068	27.2534
15.086	27.2346
15.104	27.2024
15.122	27.1543
15.14	27.0901
15.158	27.012
15.176	26.9231
15.194	26.8283
15.212	26.7344
15.23	26.6471
15.248	26.5718
15.266	26.513
15.284	26.474
15.302	26.4553
15.32	26.4562
15.338	26.4745
15.356	26.5065
15.374	26.5471
15.392	26.5917
15.41	26.636
15.428	26.6753
15.446	26.7062
15.464	26.7265
15.482	26.7351
15.5	26.7325
15.518	26.7204
15.536	26.702
15.554	26.6807
15.572	26.6602
15.59	26.6455
15.608	26.6397
15.626	26.6453
15.644	26.6639
15.662	26.6951
15.68	26.7369
15.698	26.7868
15.716	26.8404
15.734	26.8925
15.752	26.9392
15.77	26.9763
15.788	26.9998
15.806	27.0087
15.824	27.0027
15.842	26.9826
15.86	26.9518
15.878	26.9137
15.896	26.8719
15.914	26.8316
15.932	26.7964
15.95	26.769
15.968	26.7517
15.986	26.7452
16.004	26.7487
16.022	26.7612
16.04	26.7801
16.058	26.8028
16.076	26.8272
16.094	26.8503
16.112	26.87
16.13	26.8851
16.148	26.8942
16.166	26.8966
16.184	26.892
16.202	26.8803
16.22	26.8612
16.238	26.8345
16.256	26.7999
16.274	26.7569
16.292	26.7049
16.31	26.6436
16.328	26.5728
16.346	26.4931
16.364	26.4053
16.382	26.3111
16.4	26.2129
16.418	26.1127
16.436	26.0142
16.454	25.9203
16.472	25.8331
16.49	25.756
16.508	25.69
16.526	25.6363
16.544	25.5948
16.562	25.5643
16.58	25.5439
16.598	25.5309
16.616	25.5233
16.634	25.5195
16.652	25.5166
16.67	25.5138
16.688	25.5099
16.706	25.504
16.724	25.4964
16.742	25.4872
16.76	25.477
16.778	25.4663
16.796	25.4559
16.814	25.4462
16.832	25.4374
16.85	25.4298
16.868	25.4233
16.886	25.4175
16.904	25.4122
16.922	25.4075
16.94	25.4034
16.958	25.4002
16.976	25.3984
16.994	25.3986
17.012	25.4016
17.03	25.408
17.048	25.4189
17.066	25.4345
17.084	25.4554
17.102	25.4813
17.12	25.5118
17.138	25.5457
17.156	25.5816
17.174	25.6183
17.192	25.6529
17.21	25.6845
17.228	25.7106
17.246	25.73
17.264	25.7416
17.282	25.7446
17.3	25.7392
17.318	25.7255
17.336	25.705
17.354	25.6785
17.372	25.6488
17.39	25.6169
17.408	25.5857
17.426	25.5569
17.444	25.5322
17.462	25.5134
17.48	25.5009
17.498	25.4955
17.516	25.4964
17.534	25.5033
17.552	25.5142
17.57	25.5286
17.588	25.5432
17.606	25.5567
17.624	25.5667
17.642	25.5708
17.66	25.5675
17.678	25.5547
17.696	25.5319
17.714	25.4979
17.732	25.453
17.75	25.3969
17.768	25.3311
17.786	25.2561
17.804	25.1745
17.822	25.0872
17.84	24.9975
17.858	24.9071
17.876	24.8183
17.894	24.7339
17.912	24.6551
17.93	24.5848
17.948	24.5235
17.966	24.4726
17.984	24.4321
18.002	24.4023
18.02	24.3818
18.038	24.3699
18.056	24.3639
18.074	24.363
18.092	24.363
18.11	24.363
18.128	24.359
18.146	24.35
18.164	24.3325
18.182	24.3061
18.2	24.2689
18.218	24.2213
18.236	24.1629
18.254	24.0963
18.272	24.0217
18.29	23.9435
18.308	23.8624
18.326	23.7841
18.344	23.7094
18.362	23.6438
18.38	23.5884
18.398	23.5474
18.416	23.5213
18.434	23.5125
18.452	23.5203
18.47	23.5456
18.488	23.5857
18.506	23.6406
18.524	23.7058
18.542	23.7809
18.56	23.86
18.578	23.9427
18.596	24.0234
18.614	24.1018
18.632	24.1732
18.65	24.2377
18.668	24.2928
18.686	24.3389
18.704	24.3752
18.722	24.4024
18.74	24.4219
18.758	24.4343
18.776	24.442
18.794	24.4457
18.812	24.448
18.83	24.4494
18.848	24.452
18.866	24.456
18.884	24.4625
18.902	24.4712
18.92	24.4823
18.938	24.4951
18.956	24.5089
18.974	24.5229
18.992	24.536
19.01	24.5473
19.028	24.5555
19.046	24.5599
19.064	24.5594
19.082	24.5537
19.1	24.542
19.118	24.5244
19.136	24.5008
19.154	24.4714
19.172	24.4366
19.19	24.3969
19.208	24.3533
19.226	24.3062
19.244	24.2571
19.262	24.2061
19.28	24.1551
19.298	24.1042
19.316	24.0551
19.334	24.0077
19.352	23.9634
19.37	23.9223
19.388	23.8855
19.406	23.853
19.424	23.8254
19.442	23.8027
19.46	23.7848
19.478	23.7717
19.496	23.7627
19.514	23.7577
19.532	23.7558
19.55	23.7566
19.568	23.7593
19.586	23.7629
19.604	23.767
19.622	23.7702
19.64	23.7724
19.658	23.7721
19.676	23.7695
19.694	23.7634
19.712	23.7538
19.73	23.7403
19.748	23.7228
19.766	23.7017
19.784	23.677
19.802	23.6491
19.82	23.6184
19.838	23.5852
19.856	23.5502
19.874	23.5135
19.892	23.4759
19.91	23.4371
19.928	23.3976
19.946	23.3576
19.964	23.3168
19.982	23.2753
20	23.2329
20.018	23.1895
20.036	23.1448
20.054	23.0986
20.072	23.051
20.09	23.0017
20.108	22.9509
20.126	22.899
20.144	22.8459
20.162	22.7929
20.18	22.7401
20.198	22.6884
20.216	22.6393
20.234	22.5927
20.252	22.5509
20.27	22.5137
20.288	22.4829
20.306	22.4587
20.324	22.442
20.342	22.4335
20.36	22.4331
20.378	22.441
20.396	22.4572
20.414	22.4808
20.432	22.5121
20.45	22.5495
20.468	22.5927
20.486	22.6407
20.504	22.6919
20.522	22.7464
20.54	22.8016
20.558	22.8579
20.576	22.9136
20.594	22.9677
20.612	23.0202
20.63	23.0694
20.648	23.1158
20.666	23.1585
20.684	23.1973
20.702	23.2322
20.72	23.263
20.738	23.2897
20.756	23.3126
20.774	23.3314
20.792	23.3466
20.81	23.358
20.828	23.3658
20.846	23.3703
20.864	23.3714
20.882	23.3694
20.9	23.3644
20.918	23.3565
20.936	23.3461
20.954	23.333
20.972	23.3181
20.99	23.301
21.008	23.2827
21.026	23.2633
21.044	23.2434
21.062	23.2243
21.08	23.2056
21.098	23.1889
21.116	23.1743
21.134	23.1622
21.152	23.1539
21.17	23.149
21.188	23.1484
21.206	23.1523
21.224	23.1606
21.242	23.1737
21.26	23.1915
21.278	23.2134
21.296	23.2393
21.314	23.2688
21.332	23.3003
21.35	23.3346
21.368	23.3696
21.386	23.4053
21.404	23.4413
21.422	23.476
21.44	23.5097
21.458	23.5416
21.476	23.5711
21.494	23.5984
21.512	23.6229
21.53	23.6446
21.548	23.6638
21.566	23.6806
21.584	23.6951
21.602	23.708
21.62	23.7191
21.638	23.7289
21.656	23.7382
21.674	23.7466
21.692	23.7546
21.71	23.7623
21.728	23.7695
21.746	23.7763
21.764	23.7827
21.782	23.788
21.8	23.7917
21.818	23.7941
21.836	23.7939
21.854	23.7912
21.872	23.7857
21.89	23.7761
21.908	23.7629
21.926	23.7456
21.944	23.7236
21.962	23.6973
21.98	23.6666
21.998	23.6312
22.016	23.5919
22.034	23.5498
22.052	23.5046
22.07	23.4573
22.088	23.409
22.106	23.3591
22.124	23.3092
22.142	23.2596
22.16	23.2101
22.178	23.1615
22.196	23.1137
22.214	23.0664
22.232	23.0196
22.25	22.9735
22.268	22.9268
22.286	22.8789
22.304	22.8299
22.322	22.7777
22.34	22.7223
22.358	22.6632
22.376	22.5979
22.394	22.5271
22.412	22.4498
22.43	22.3646
22.448	22.2719
22.466	22.1714
22.484	22.0622
22.502	21.9446
22.52	21.8194
22.538	21.6864
22.556	21.5458
22.574	21.4002
22.592	21.249
22.61	21.0934
22.628	20.9371
22.646	20.779
22.664	20.621
22.682	20.4668
22.7	20.3149
22.718	20.1676
22.736	20.0279
22.754	19.8945
22.772	19.7692
22.79	19.6538
22.808	19.5473
22.826	19.4506
22.844	19.3644
22.862	19.2883
22.88	19.222
22.898	19.1654
22.916	19.1185
22.934	19.08
22.952	19.0499
22.97	19.0282
22.988	19.0121
23.006	19.0011
23.024	18.9956
23.042	18.9932
23.06	18.994
23.078	18.9978
23.096	19.0029
23.114	19.0087
23.132	19.0159
23.15	19.0246
23.168	19.0346
23.186	19.0462
23.204	19.0604
23.222	19.0763
23.24	19.095
23.258	19.1195
23.276	19.1488
23.294	19.1839
23.312	19.2283
23.33	19.2814
23.348	19.3436
23.366	19.4185
23.384	19.5057
23.402	19.6053
23.42	19.7193
23.438	19.8484
23.456	19.9917
23.474	20.1482
23.492	20.319
23.51	20.503
23.528	20.6958
23.546	20.898
23.564	21.1095
23.582	21.3229
23.6	21.5368
23.618	21.7533
23.636	21.9633
23.654	22.1628
23.672	22.3557
23.69	22.5343
23.708	22.6935
23.726	22.8372
23.744	22.9611
23.762	23.0611
23.78	23.1388
23.798	23.1947
23.816	23.2283
23.834	23.2381
23.852	23.2277
23.87	23.2017
23.888	23.1562
23.906	23.0958
23.924	23.0301
23.942	22.9571
23.96	22.8775
23.978	22.8032
23.996	22.737
24.014	22.675
24.032	22.6273
24.05	22.6004
24.068	22.5893
24.086	22.5986
24.104	22.6335
24.122	22.6922
24.14	22.7742
24.158	22.88
24.176	23.0121
24.194	23.1668
24.212	23.3379
24.23	23.5269
24.248	23.7341
24.266	23.9473
24.284	24.1612
24.302	24.3829
24.32	24.5991
24.338	24.7975
24.356	24.9866
24.374	25.159
24.392	25.3015
24.41	25.4163
24.428	25.5041
24.446	25.5564
24.464	25.5689
24.482	25.5456
24.5	25.485
24.518	25.3849
24.536	25.2441
24.554	25.0673
24.572	24.8601
24.59	24.6184
24.608	24.3453
24.626	24.0512
24.644	23.7392
24.662	23.4034
24.68	23.0569
24.698	22.7116
24.716	22.358
24.734	22.0043
24.752	21.6654
24.77	21.3411
24.788	21.028
24.806	20.7378
24.824	20.4792
24.842	20.2451
24.86	20.0401
24.878	19.8705
24.896	19.7363
24.914	19.6354
24.932	19.5681
24.95	19.5354
24.968	19.5377
24.986	19.5711
25.004	19.6321
25.022	19.7251
25.04	19.846
25.058	19.9858
25.076	20.142
25.094	20.3202
25.112	20.5098
25.13	20.7003
25.148	20.8987
25.166	21.1009
25.184	21.2956
25.202	21.4779
25.22	21.6548
25.238	21.8182
25.256	21.9593
25.274	22.0817
25.292	22.185
25.31	22.2634
25.328	22.3131
25.346	22.3378
25.364	22.3358
25.382	22.3048
25.4	22.2438
25.418	22.1544
25.436	22.0385
25.454	21.8969
25.472	21.7273
25.49	21.5332
25.508	21.3189
25.526	21.0844
25.544	20.8279
25.562	20.5546
25.58	20.2691
25.598	19.9689
25.616	19.6548
25.634	19.3311
25.652	19.0003
25.67	18.6603
25.688	18.3118
25.706	17.9559
25.724	17.5937
25.742	17.2246
25.76	16.8462
25.778	16.4565
25.796	16.0579
25.814	15.6488
25.832	15.2255
25.85	14.7857
25.868	14.3326
25.886	13.8635
25.904	13.3749
25.922	12.8667
25.94	12.3409
25.958	11.794
25.976	11.2222
25.994	10.6253
26.012	10.005
26.03	9.362056
26.048	8.696503
26.066	8.005036
26.084	7.291940
26.102	6.563510
26.12	5.822038
26.138	5.059154
26.156	4.286467
26.174	3.517880
26.192	2.756134
26.21	1.991197
26.228	1.237445
26.246	0.510049
26.264	-0.195546
26.282	-0.884584
26.3	-1.538045
26.318	-2.137406
26.336	-2.693765
26.354	-3.206852
26.372	-3.657467
26.39	-4.028174
26.408	-4.332660
26.426	-4.567284
26.444	-4.716476
26.462	-4.767075
26.48	-4.728982
26.498	-4.600915
26.516	-4.376497
26.534	-4.050187
26.552	-3.624139
26.57	-3.102050
26.588	-2.487154
26.606	-1.779164
26.624	-0.970422
26.642	-0.074323
26.66	0.893479
26.678	1.926911
26.696	3.042395
26.714	4.221028
26.732	5.440651
26.75	6.692945
26.768	7.998636
26.786	9.336102
26.804	10.6805
26.822	12.0221
26.84	13.3828
26.858	14.7425
26.876	16.0787
26.894	17.3817
26.912	18.671
26.93	19.9312
26.948	21.1441
26.966	22.3373
26.984	23.5804
27.002	24.7264
27.02	25.6147
27.028	25.8569