File: Bakgrunnsmateriale/MATLAB/FTIR/ftir_data/LPE453/Mapping_121/LPE453_t29_cm-1.asc
PE IR       SPECTRUM    SPECTRUM    ASCII       PEDS        1.60
  -1
LP68D9~1.ASC
17/05/16
16:44:56.00
17/05/16
16:44:56.00
tln
$LPE453_t0029$<tbV0>[-2.6,-7.8,8.0,0.0,27,1,0]
370
64

2002,4.07
MIRTGS : RIGHTBACK : INTERNAL 2
MIR : ON : INTERNAL 2
OPTKBR

0.200000
8
8.000000
FILLER
RATIO
SPECTRUM
UNLOCKED 256

DOUBLE
64
COMBINED
1
0
0

1.000000
RATIO

1
0
TRUE
51149
0
LEFT NOT FITTED RIGHT NOT FITTED 0
NONE
NONE
15600
12
4.427000
51148
TRUE
1 0 8 72 0 0 0 0

15798

#HDR
-1
-1
#GR
CM-1
%T
2.38419e-05
0.0
5000
-1.000000
4631
8
35.6909
-5.564045
#DATA
5000	0.752615
4996	0.412011
4992	0.017976
4988	-0.090432
4984	0.072360
4980	0.219488
4976	0.260972
4972	0.282955
4968	0.201177
4964	0.139236
4960	0.278186
4956	0.473713
4952	0.324225
4948	-0.058078
4944	-0.036859
4940	0.239133
4936	0.146913
4932	-0.015544
4928	0.234103
4924	0.647687
4920	0.748634
4916	0.435781
4912	0.075268
4908	-0.141692
4904	-0.185585
4900	-0.060367
4896	-0.159263
4892	-0.322771
4888	-0.063586
4884	-0.013136
4880	-0.136756
4876	0.212597
4872	0.311636
4868	-0.067234
4864	-0.223016
4860	-0.094795
4856	0.030374
4852	0.129890
4848	0.227189
4844	0.279617
4840	0.260663
4836	0.214791
4832	0.155043
4828	0.080871
4824	0.102996
4820	0.214862
4816	0.305342
4812	0.293254
4808	0.299525
4804	0.393939
4800	0.281739
4796	-0.073838
4792	-0.264739
4788	-0.133109
4784	-0.008010
4780	-0.070357
4776	-0.103878
4772	0.023531
4768	0.166678
4764	0.270652
4760	0.319170
4756	0.301384
4752	0.312161
4748	0.184345
4744	0.148820
4740	0.296068
4736	0.266551
4732	0.192046
4728	0.272250
4724	0.306344
4720	0.281739
4716	0.260210
4712	0.055861
4708	-0.184750
4704	-0.214672
4700	-0.186204
4696	0.003337
4692	0.365114
4688	0.407075
4684	0.179219
4680	0.248813
4676	0.452327
4672	0.507330
4668	0.498700
4664	0.292801
4660	-0.003886
4656	-0.060462
4652	0.189399
4648	0.536894
4644	0.745344
4640	0.675559
4636	0.624418
4632	0.955247
4628	1.112318
4624	0.746965
4620	0.402879
4616	0.379228
4612	0.665163
4608	1.115131
4604	0.970077
4600	0.109577
4596	-0.621724
4592	-0.897383
4588	-0.672078
4584	0.221323
4580	0.775718
4576	0.131034
4572	-0.135445
4568	0.580167
4564	0.955319
4560	0.583600
4556	-0.113177
4552	-0.469136
4548	-0.382137
4544	-1.052069
4540	-1.562833
4536	-1.156067
4532	-1.500773
4528	-1.909303
4524	-0.795769
4520	3.713130
4516	14.4959
4512	21.8853
4508	13.7114
4504	1.652717
4500	-3.720974
4496	-5.544829
4492	-1.789903
4488	1.912164
4484	1.474165
4480	0.356864
4476	-0.010561
4472	0.199818
4468	0.420069
4464	0.351667
4460	0.105452
4456	-0.067496
4452	-0.230884
4448	-0.383853
4444	-0.483322
4440	-0.704908
4436	-0.578069
4432	-0.076532
4428	0.105404
4424	0.245833
4420	0.551557
4416	0.649142
4412	0.634455
4408	0.667643
4404	0.478339
4400	0.063109
4396	-0.039172
4392	0.133490
4388	0.112390
4384	0.164818
4380	0.385451
4376	0.371003
4372	0.237751
4368	0.161457
4364	0.041198
4360	0.003194
4356	0.133991
4352	0.092101
4348	-0.073409
4344	0.027990
4340	0.168919
4336	0.079822
4332	0.011944
4328	0.031638
4324	0.035619
4320	0.107932
4316	0.181078
4312	0.113344
4308	0.005745
4304	0.072216
4300	0.208711
4296	0.219345
4292	0.140190
4288	0.089144
4284	-0.030755
4280	-0.204896
4276	-0.133156
4272	0.073504
4268	0.242614
4264	0.402641
4260	0.329089
4256	0.019049
4252	-0.112056
4248	0.016093
4244	0.165462
4240	0.161409
4236	0.020647
4232	-0.027751
4228	0.022482
4224	-0.044894
4220	-0.146961
4216	-0.045871
4212	0.097513
4208	0.050878
4204	0.043630
4200	0.300407
4196	0.365567
4192	0.037026
4188	0.010848
4184	0.329065
4180	0.272321
4176	-0.034785
4172	0.140142
4168	0.640940
4164	0.551557
4160	0.007724
4156	-0.131845
4152	-0.009703
4148	-0.041317
4144	-0.093603
4140	-0.055336
4136	0.122928
4132	0.246667
4128	0.149297
4124	0.036954
4120	-0.039649
4116	-0.046300
4112	-0.024652
4108	-0.023889
4104	-0.033974
4100	-0.150799
4096	-0.239968
4092	-0.155448
4088	-0.129652
4084	-0.202536
4080	-0.160121
4076	-0.038838
4072	0.052809
4068	0.121021
4064	0.207209
4060	0.261712
4056	0.231981
4052	0.209188
4048	0.313401
4044	0.357866
4040	0.280594
4036	0.306200
4032	0.386333
4028	0.363516
4024	0.260019
4020	0.155925
4016	0.105881
4012	0.071120
4008	0.034427
4004	0.116181
4000	0.229620
3996	0.169420
3992	0.013089
3988	-0.002121
3984	0.101208
3980	0.124335
3976	0.099897
3972	0.124406
3968	0.119090
3964	0.054049
3960	0.066876
3956	0.161528
3952	0.201606
3948	0.126981
3944	-0.000858
3940	-0.049686
3936	0.010848
3932	0.054216
3928	0.035166
3924	0.073337
3920	0.145697
3916	0.076746
3912	-0.090479
3908	-0.103855
3904	0.019288
3900	0.061488
3896	0.096487
3892	0.175046
3888	0.157809
3884	0.065851
3880	-0.044178
3876	-0.107502
3872	-0.097823
3868	-0.026845
3864	0.063157
3860	0.080251
3856	0.043535
3852	0.029397
3848	0.051403
3844	0.024509
3840	-0.076937
3836	-0.109267
3832	-0.034022
3828	0.100660
3824	0.201439
3820	0.145769
3816	0.088882
3812	0.063586
3808	-0.039863
3804	-0.073051
3800	0.010514
3796	0.077891
3792	0.141811
3788	0.161767
3784	0.100827
3780	0.085020
3776	0.081443
3772	0.040483
3768	0.014829
3764	0.007247
3760	0.071644
3756	0.127077
3752	0.081634
3748	0.091886
3744	0.076580
3740	-0.038838
3736	-0.032353
3732	0.024890
3728	-0.022530
3724	-0.058817
3720	-0.001311
3716	0.058960
3712	0.087356
3708	0.136995
3704	0.128102
3700	0.058221
3696	0.033903
3692	0.071811
3688	0.148987
3684	0.220274
3680	0.195431
3676	0.113058
3672	0.106763
3668	0.075960
3664	0.000190
3660	0.004172
3656	-0.007772
3652	-0.066375
3648	-0.044131
3644	0.003790
3640	0.038313
3636	0.116443
3632	0.166463
3628	0.148558
3624	0.077366
3620	-0.005865
3616	-0.052189
3612	-0.047779
3608	-0.020670
3604	-0.052404
3600	-0.022864
3596	0.119757
3592	0.204300
3588	0.222730
3584	0.223112
3580	0.179719
3576	0.054979
3572	-0.069570
3568	-0.056934
3564	-0.008964
3560	-0.031805
3556	0.037384
3552	0.198411
3548	0.212430
3544	0.080919
3540	-0.009799
3536	-0.002241
3532	0.064539
3528	0.126242
3524	0.106024
3520	0.039696
3516	-0.017285
3512	-0.023603
3508	-0.033259
3504	-0.147199
3500	-0.214362
3496	-0.099730
3492	0.107288
3488	0.240659
3484	0.178909
3480	0.030851
3476	0.026631
3472	0.102925
3468	0.065779
3464	-0.028133
3460	-0.020599
3456	0.071120
3452	0.073361
3448	0.010681
3444	0.011491
3440	0.037646
3436	0.019431
3432	-0.004744
3428	0.038790
3424	0.095391
3420	0.099468
3416	0.087070
3412	0.111150
3408	0.112867
3404	0.025272
3400	-0.034213
3396	0.018239
3392	0.076317
3388	0.068569
3384	0.036120
3380	0.049209
3376	0.090241
3372	0.051784
3368	-0.036931
3364	-0.036358
3360	0.101208
3356	0.226712
3352	0.202369
3348	0.086808
3344	-0.020599
3340	-0.047874
3336	-0.030589
3332	-0.011825
3328	0.021433
3324	-0.009393
3320	-0.117087
3316	-0.155878
3312	-0.072169
3308	0.006914
3304	0.036191
3300	0.021362
3296	-0.044512
3292	-0.026869
3288	0.047516
3284	0.039768
3280	0.021958
3276	0.036287
3272	0.005674
3268	-0.033330
3264	0.068998
3260	0.253677
3256	0.275349
3252	0.172996
3248	0.140690
3244	0.173425
3240	0.231981
3236	0.227737
3232	0.118136
3228	0.033235
3224	-0.012612
3220	-0.050473
3216	-0.074005
3212	-0.139784
3208	-0.162982
3204	-0.026655
3200	0.101232
3196	0.064229
3192	-0.004124
3188	-0.002789
3184	-0.017166
3180	-0.028705
3176	0.028443
3172	0.059652
3168	0.064039
3164	0.053477
3160	-0.008845
3156	-0.021123
3152	0.022029
3148	0.041913
3144	0.101375
3140	0.196671
3136	0.181841
3132	0.066542
3128	0.011610
3124	0.004768
3120	0.020289
3116	0.139713
3112	0.196385
3108	0.066018
3104	-0.020217
3100	0.048518
3096	0.107526
3092	0.053954
3088	-0.014591
3084	-0.036382
3080	-0.047612
3076	-0.058126
3072	-0.109338
3068	-0.158882
3064	-0.110673
3060	0.008702
3056	0.109958
3052	0.129079
3048	0.105524
3044	0.069737
3040	0.041484
3036	0.037360
3032	-0.000524
3028	-0.014996
3024	0.008058
3020	0.000452
3016	0.013542
3012	0.048708
3008	0.069952
3004	0.073361
3000	0.011920
2996	-0.044178
2992	-0.003957
2988	0.040173
2984	0.040054
2980	0.015449
2976	-0.026440
2972	-0.028371
2968	0.037789
2964	0.093173
2960	0.110363
2956	0.106263
2952	0.075435
2948	0.037932
2944	-0.008988
2940	0.013971
2936	0.092124
2932	0.085186
2928	0.051927
2924	0.079989
2920	0.060319
2916	-0.006914
2912	-0.012397
2908	0.014734
2904	0.047779
2900	0.026249
2896	-0.048112
2892	-0.038695
2888	0.029063
2884	0.041079
2880	-0.030493
2876	-0.103259
2872	-0.089502
2868	-0.062036
2864	-0.042510
2860	0.070071
2856	0.177145
2852	0.181484
2848	0.129628
2844	0.044083
2840	0.003695
2836	-0.021457
2832	-0.047516
2828	0.010466
2824	0.048494
2820	0.006937
2816	-0.002408
2812	0.015449
2808	0.013399
2804	-0.002717
2800	0.021076
2796	0.061988
2792	0.001645
2788	-0.056314
2784	0.006508
2780	0.035262
2776	0.001859
2772	0.003314
2768	0.037980
2764	0.098729
2760	0.126647
2756	0.140976
2752	0.160217
2748	0.087547
2744	-0.034451
2740	-0.091743
2736	-0.058436
2732	0.030183
2728	0.072908
2724	0.078082
2720	0.100135
2716	0.099563
2712	0.111937
2708	0.129652
2704	0.094032
2700	-0.006914
2696	-0.093054
2692	-0.039696
2688	0.053215
2684	0.071597
2680	0.038671
2676	-0.005125
2672	0.014281
2668	0.090670
2664	0.133395
2660	0.110197
2656	0.081014
2652	0.075650
2648	0.046014
2644	-0.003218
2640	-0.047445
2636	-0.092005
2632	-0.075316
2628	0.036811
2624	0.100684
2620	0.040555
2616	-0.012946
2612	-0.014543
2608	-0.003242
2604	0.020265
2600	0.057196
2596	0.082159
2592	0.051212
2588	0.009560
2584	0.033092
2580	0.086879
2576	0.106906
2572	0.109457
2568	0.123333
2564	0.121569
2560	0.097584
2556	0.060153
2552	0.038599
2548	0.022077
2544	0.032401
2540	0.024366
2536	-0.057744
2532	-0.063514
2528	0.038194
2524	0.081324
2520	0.044226
2516	-0.016641
2512	-0.121021
2508	-0.169825
2504	-0.112199
2500	-0.010728
2496	0.106739
2492	0.133371
2488	0.103044
2484	0.100874
2480	0.060820
2476	0.009107
2472	-0.002908
2468	-0.017905
2464	0.010013
2460	0.089573
2456	0.105881
2452	0.074863
2448	0.062727
2444	0.109004
2440	0.105929
2436	-0.003123
2432	-0.057244
2428	-0.059485
2424	-0.084614
2420	-0.062561
2416	0.001263
2412	-0.019001
2408	-0.086665
2404	-0.004982
2400	0.118565
2396	0.058293
2392	-0.094723
2388	-0.126218
2384	-0.026869
2380	0.037670
2376	0.028371
2372	0.005078
2368	0.030136
2364	0.120258
2360	0.172448
2356	0.171256
2352	0.185370
2348	0.181269
2344	0.154232
2340	0.155973
2336	0.183296
2332	0.218558
2328	0.233650
2324	0.244092
2320	0.291085
2316	0.357317
2312	0.372600
2308	0.354433
2304	0.426411
2300	0.531029
2296	0.556850
2292	0.581121
2288	0.636363
2284	0.657010
2280	0.704860
2276	0.838422
2272	0.973153
2268	1.034498
2264	1.089072
2260	1.225352
2256	1.348352
2252	1.408767
2248	1.526165
2244	1.743578
2240	1.989221
2236	2.155256
2232	2.295899
2228	2.509546
2224	2.679014
2220	2.782917
2216	2.970433
2212	3.245067
2208	3.544402
2204	3.853940
2200	4.149031
2196	4.452896
2192	4.766917
2188	5.088758
2184	5.457901
2180	5.860590
2176	6.270694
2172	6.632542
2168	6.901168
2164	7.240605
2160	7.761883
2156	8.305692
2152	8.773446
2148	9.279274
2144	9.829306
2140	10.2909
2136	10.7142
2132	11.1493
2128	11.589
2124	12.081
2120	12.5973
2116	13.1344
2112	13.6559
2108	14.1324
2104	14.6696
2100	15.2551
2096	15.801
2092	16.353
2088	16.9037
2084	17.4108
2080	17.8793
2076	18.299
2072	18.8146
2068	19.419
2064	19.8715
2060	20.2818
2056	20.849
2052	21.4378
2048	21.862
2044	22.1804
2040	22.5745
2036	23.044
2032	23.4772
2028	23.8626
2024	24.2687
2020	24.6683
2016	25.0277
2012	25.4014
2008	25.7987
2004	26.1754
2000	26.4883
1996	26.7974
1992	27.1089
1988	27.3467
1984	27.5897
1980	27.9278
1976	28.3059
1972	28.6612
1968	28.9767
1964	29.2618
1960	29.5084
1956	29.6685
1952	29.802
1948	29.9938
1944	30.2025
1940	30.4325
1936	30.7004
1932	30.9232
1928	31.099
1924	31.2616
1920	31.4127
1916	31.5961
1912	31.786
1908	31.9336
1904	32.0999
1900	32.3034
1896	32.4697
1892	32.5887
1888	32.6923
1884	32.7707
1880	32.8729
1876	33.0139
1872	33.1124
1868	33.2
1864	33.3253
1860	33.435
1856	33.5137
1852	33.6312
1848	33.8022
1844	33.9282
1840	33.9858
1836	34.0227
1832	34.0503
1828	34.1024
1824	34.1711
1820	34.2294
1816	34.3037
1812	34.4056
1808	34.5516
1804	34.6672
1800	34.645
1796	34.597
1792	34.6263
1788	34.7081
1784	34.7853
1780	34.7836
1776	34.7756
1772	34.8201
1768	34.8268
1764	34.8224
1760	34.8824
1756	34.9646
1752	35.0576
1748	35.113
1744	35.0896
1740	35.0859
1736	35.0972
1732	35.082
1728	35.087
1724	35.0952
1720	35.1324
1716	35.2152
1712	35.2555
1708	35.2604
1704	35.2946
1700	35.3359
1696	35.3797
1692	35.4344
1688	35.4708
1684	35.498
1680	35.4964
1676	35.4393
1672	35.3651
1668	35.3138
1664	35.3325
1660	35.4467
1656	35.5653
1652	35.6202
1648	35.6576
1644	35.6672
1640	35.6379
1636	35.6457
1632	35.6579
1628	35.6115
1624	35.5794
1620	35.5593
1616	35.5081
1612	35.4899
1608	35.5457
1604	35.6302
1600	35.6821
1596	35.6866
1592	35.6265
1588	35.5209
1584	35.5019
1580	35.6124
1576	35.6656
1572	35.5825
1568	35.5209
1564	35.5457
1560	35.5455
1556	35.5003
1552	35.4719
1548	35.4546
1544	35.4584
1540	35.5225
1536	35.5522
1532	35.5197
1528	35.5141
1524	35.519
1520	35.5567
1516	35.6314
1512	35.6287
1508	35.5491
1504	35.5362
1500	35.5921
1496	35.5747
1492	35.5178
1488	35.5298
1484	35.5302
1480	35.4855
1476	35.4672
1472	35.4733
1468	35.4706
1464	35.4995
1460	35.5124
1456	35.4189
1452	35.3639
1448	35.4576
1444	35.5707
1440	35.6013
1436	35.509
1432	35.3932
1428	35.3715
1424	35.3902
1420	35.4053
1416	35.4382
1412	35.4628
1408	35.4407
1404	35.4062
1400	35.4106
1396	35.4419
1392	35.4722
1388	35.5038
1384	35.4835
1380	35.3898
1376	35.3133
1372	35.294
1368	35.3037
1364	35.2954
1360	35.2648
1356	35.2394
1352	35.235
1348	35.2615
1344	35.3001
1340	35.3422
1336	35.33
1332	35.2588
1328	35.2264
1324	35.2062
1320	35.1699
1316	35.2256
1312	35.2731
1308	35.149
1304	35.0057
1300	34.9842
1296	35.0659
1292	35.1862
1288	35.2264
1284	35.1462
1280	35.0647
1276	35.0608
1272	35.0957
1268	35.0854
1264	35.0052
1260	34.9542
1256	34.9333
1252	34.8998
1248	34.8808
1244	34.8787
1240	34.9112
1236	34.9907
1232	35.0816
1228	35.1169
1224	35.1058
1220	35.0894
1216	34.9958
1212	34.8367
1208	34.7749
1204	34.8576
1200	34.9833
1196	34.9955
1192	34.8986
1188	34.8493
1184	34.8255
1180	34.8175
1176	34.8707
1172	34.8842
1168	34.9037
1164	34.939
1160	34.8794
1156	34.784
1152	34.6818
1148	34.6218
1144	34.6549
1140	34.6802
1136	34.6568
1132	34.6317
1128	34.6245
1124	34.6751
1120	34.7553
1116	34.7286
1112	34.6611
1108	34.7068
1104	34.8186
1100	34.8735
1096	34.8195
1092	34.6279
1088	34.3716
1084	34.3348
1080	34.457
1076	34.3977
1072	34.2754
1068	34.2401
1064	34.2375
1060	34.3123
1056	34.416
1052	34.474
1048	34.5123
1044	34.4895
1040	34.334
1036	34.1145
1032	33.931
1028	33.7937
1024	33.7317
1020	33.7616
1016	33.8489
1012	33.9924
1008	34.1739
1004	34.2772
1000	34.1668
996	 33.9755
992	 33.9038
988	 33.8829
984	 33.8435
980	 33.7293
976	 33.5579
972	 33.4565
968	 33.3952
964	 33.3664
960	 33.4576
956	 33.6303
952	 33.6762
948	 33.6462
944	 33.7484
940	 33.8163
936	 33.7638
932	 33.6441
928	 33.4446
924	 33.2507
920	 33.0714
916	 32.8512
912	 32.6702
908	 32.6051
904	 32.6133
900	 32.6481
896	 32.7246
892	 32.868
888	 32.9776
884	 32.974
880	 32.9556
876	 32.934
872	 32.8648
868	 32.718
864	 32.4477
860	 32.1905
856	 32.093
852	 32.1831
848	 32.2783
844	 32.2029
840	 32.2044
836	 32.3772
832	 32.4814
828	 32.4448
824	 32.2186
820	 31.9555
816	 31.9108
812	 31.8922
808	 31.7852
804	 31.5802
800	 31.3058
796	 31.2103
792	 31.2618
788	 31.283
784	 31.3358
780	 31.4393
776	 31.478
772	 31.5333
768	 31.6563
764	 31.6321
760	 31.4662
756	 31.4034
752	 31.3736
748	 31.1596
744	 30.8497
740	 30.5879
736	 30.4407
732	 30.4843
728	 30.6323
724	 30.7089
720	 30.7369
716	 30.7543
712	 30.7235
708	 30.6008
704	 30.4388
700	 30.266
696	 30.0092
692	 29.7533
688	 29.5553
684	 29.3854
680	 29.3196
676	 29.3086
672	 29.3645
668	 29.6179
664	 29.8313
660	 29.8499
656	 29.788
652	 29.6517
648	 29.3595
644	 29.0107
640	 28.8485
636	 28.7717
632	 28.4314
628	 28.0715
624	 28.0822
620	 28.1472
616	 27.9741
612	 27.7857
608	 27.8446
604	 27.922
600	 27.8888
596	 27.9594
592	 27.9886
588	 27.7447
584	 27.3401
580	 27.1865
576	 27.3241
572	 27.4233
568	 27.2668
564	 27.0068
560	 26.8332
556	 26.7477
552	 26.9451
548	 27.2813
544	 27.2532
540	 26.8316
536	 26.4443
532	 26.3399
528	 26.3033
524	 25.9254
520	 25.4431
516	 25.2949
512	 25.2908
508	 25.2311
504	 25.1106
500	 25.0686
496	 25.299
492	 25.3798
488	 24.8889
484	 24.5936
480	 24.5482
476	 24.0551
472	 23.5879
468	 23.5849
464	 23.9477
460	 24.316
456	 24.0559
452	 23.6674
448	 24.0084
444	 24.7029
440	 25.6788
436	 26.27
432	 25.1576
428	 22.8998
424	 22.17
420	 22.986
416	 22.2647
412	 19.685
408	 18.4922
404	 18.8222
400	 13.4702
396	 8.197069
392	 12.0291
388	 13.4886
384	 8.978819
380	 9.053516
376	 13.1984
372	 12.2293
370	 20.7333