File: Bakgrunnsmateriale/MATLAB/FTIR/ftir_data/LPE453/Mapping_121/LPE453_t74_cm-1.asc
PE IR       SPECTRUM    SPECTRUM    ASCII       PEDS        1.60
  -1
LPEA5B~1.ASC
17/05/16
20:27:21.00
17/05/16
20:27:21.00
tln
$LPE453_t0074$<tbV0>[-5.2,2.6,8.0,0.0,27,1,0]
370
64

2002,4.07
MIRTGS : RIGHTBACK : INTERNAL 2
MIR : ON : INTERNAL 2
OPTKBR

0.200000
8
8.000000
FILLER
RATIO
SPECTRUM
UNLOCKED 256

DOUBLE
64
COMBINED
1
0
0

1.000000
RATIO

1
0
TRUE
51149
0
LEFT NOT FITTED RIGHT NOT FITTED 0
NONE
NONE
15600
12
4.427000
51148
TRUE
1 0 8 72 0 0 0 0

15798

#HDR
-1
-1
#GR
CM-1
%T
2.38419e-05
0.0
5000
-1.000000
4631
8
41.6514
-3.650784
#DATA
5000	-0.005245
4996	-0.111961
4992	-0.056314
4988	-0.065016
4984	-0.100326
4980	-0.008702
4976	-0.008726
4972	-0.260877
4968	-0.324463
4964	0.037264
4960	0.319600
4956	0.449323
4952	0.533461
4948	0.522327
4944	0.540113
4940	0.413918
4936	0.213599
4932	0.320100
4928	0.563478
4924	0.492286
4920	0.210762
4916	0.052142
4912	-0.021409
4908	-0.099682
4904	-0.044965
4900	0.316262
4896	0.505065
4892	0.235223
4888	0.099086
4884	0.172734
4880	0.046539
4876	-0.103783
4872	0.013613
4868	0.114512
4864	0.070691
4860	0.115466
4856	0.207662
4852	0.207734
4848	0.125265
4844	-0.009202
4840	-0.131225
4836	-0.045347
4832	0.167489
4828	0.110912
4824	-0.146579
4820	-0.106930
4816	0.177407
4812	0.320458
4808	0.273942
4804	0.131607
4800	0.056385
4796	0.025439
4792	0.010919
4788	0.045204
4784	0.158333
4780	0.483942
4776	0.774431
4772	0.813770
4768	0.543975
4764	0.088262
4760	-0.050354
4756	0.182962
4752	0.382137
4748	0.453042
4744	0.414347
4740	0.120043
4736	-0.093436
4732	0.293850
4728	1.368069
4724	2.175688
4720	1.324105
4716	0.006103
4712	-0.103092
4708	-0.350713
4704	-1.051020
4700	-0.889706
4696	-0.374245
4692	-0.354003
4688	-0.194931
4684	0.687146
4680	1.198887
4676	0.669240
4672	0.336861
4668	0.841021
4664	1.454806
4660	1.385593
4656	1.075768
4652	1.530981
4648	1.779532
4644	0.924706
4640	0.095939
4636	-0.044560
4632	0.094294
4628	0.611805
4624	1.164555
4620	0.910711
4616	0.709486
4612	0.648808
4608	0.398898
4604	0.212574
4600	0.009536
4596	-0.315165
4592	-0.409817
4588	-0.503826
4584	-0.746607
4580	-0.969481
4576	-1.256370
4572	-1.472663
4568	-1.532578
4564	-1.853466
4560	-2.231907
4556	-2.222490
4552	-2.216148
4548	-2.045392
4544	-1.636362
4540	-1.520800
4536	-1.619505
4532	-1.560926
4528	-1.585602
4524	-1.614332
4520	-1.820254
4516	-2.220559
4512	-1.799893
4508	-1.196026
4504	-1.306891
4500	1.042270
4496	7.840061
4492	24.8727
4488	41.2571
4484	32.8743
4480	14.1031
4476	1.921486
4472	-3.500509
4468	-2.406287
4464	-1.039814
4460	-1.056814
4456	-1.260828
4452	-1.834058
4448	-1.880359
4444	-1.379466
4440	-1.024341
4436	-1.062417
4432	-0.950646
4428	-0.535130
4424	-0.289487
4420	-0.223970
4416	-0.262546
4412	-0.047087
4408	0.453996
4404	0.719666
4400	0.814032
4396	1.023983
4392	1.250004
4388	1.338791
4384	1.309871
4380	1.256155
4376	1.209926
4372	1.155066
4368	1.109528
4364	1.157712
4360	1.264715
4356	1.261186
4352	1.036834
4348	0.783205
4344	0.588226
4340	0.417995
4336	0.427889
4332	0.503587
4328	0.608134
4324	0.915884
4320	1.058316
4316	0.799775
4312	0.475358
4308	0.436496
4304	0.588369
4300	0.489234
4296	0.270700
4292	0.295829
4288	0.483846
4284	0.682091
4280	0.637030
4276	0.165247
4272	-0.303101
4268	-0.372052
4264	-0.191211
4260	-0.002002
4256	0.082254
4252	0.029611
4248	-0.097298
4244	-0.214338
4240	-0.052475
4236	0.436496
4232	0.697731
4228	0.436925
4224	0.053477
4220	-0.041604
4216	0.074172
4212	0.140976
4208	0.056552
4204	-0.046348
4200	-0.163221
4196	-0.342822
4192	-0.227403
4188	0.194358
4184	0.449299
4180	0.385570
4176	0.215601
4172	0.143074
4168	0.160741
4164	0.168251
4160	0.090932
4156	0.014185
4152	0.074839
4148	0.186562
4144	0.262784
4140	0.381064
4136	0.501370
4132	0.479578
4128	0.356221
4124	0.287985
4120	0.347948
4116	0.418066
4112	0.355243
4108	0.180745
4104	0.026059
4100	-0.005030
4096	0.086784
4092	0.154852
4088	0.094819
4084	0.030803
4080	0.008749
4076	-0.003600
4072	0.041294
4068	0.183296
4064	0.329637
4060	0.346732
4056	0.208234
4052	0.006175
4048	-0.035405
4044	0.128650
4040	0.210857
4036	0.121045
4032	0.080823
4028	0.081968
4024	0.027561
4020	0.003314
4016	0.007319
4012	0.034570
4008	0.073981
4004	0.087618
4000	0.117397
3996	0.117874
3992	0.144624
3988	0.144195
3984	0.044465
3980	-0.022745
3976	-0.014853
3972	0.063633
3968	0.168848
3964	0.165987
3960	0.071763
3956	0.070977
3952	0.192523
3948	0.238919
3944	0.150823
3940	0.087261
3936	0.059723
3932	0.004577
3928	0.003933
3924	0.087094
3920	0.159311
3916	0.228905
3912	0.265622
3908	0.189471
3904	0.079965
3900	0.054740
3896	0.167346
3892	0.285720
3888	0.288581
3884	0.289916
3880	0.273489
3876	0.128412
3872	-0.048494
3868	-0.125241
3864	-0.144672
3860	-0.092244
3856	-0.038337
3852	-0.040245
3848	-0.000500
3844	0.094676
3840	0.183987
3836	0.157237
3832	0.013732
3828	-0.012254
3824	0.114941
3820	0.175690
3816	0.119948
3812	0.050163
3808	0.074625
3804	0.111484
3800	0.023031
3796	-0.075316
3792	-0.100040
3788	-0.092530
3784	0.005197
3780	0.170087
3776	0.226211
3772	0.150322
3768	0.035452
3764	-0.027108
3760	0.026035
3756	0.091624
3752	0.062203
3748	0.030899
3744	0.071072
3740	0.077795
3736	0.016283
3732	-0.017213
3728	-0.032186
3724	-0.090050
3720	-0.096392
3716	-0.005793
3712	0.068092
3708	0.094556
3704	0.057268
3700	0.031185
3696	0.083112
3692	0.143623
3688	0.190854
3684	0.176787
3680	0.173974
3676	0.178575
3672	0.110483
3668	0.094437
3664	0.068879
3660	-0.007867
3656	0.027036
3652	0.119829
3648	0.125241
3644	0.106716
3640	0.120258
3636	0.125956
3632	0.105571
3628	0.027275
3624	0.011849
3620	0.088858
3616	0.030255
3612	-0.107431
3608	-0.069403
3604	0.096344
3600	0.168704
3596	0.113224
3592	0.009751
3588	-0.081920
3584	-0.126123
3580	-0.069308
3576	0.048637
3572	0.089097
3568	0.120782
3564	0.222229
3560	0.218558
3556	0.098919
3552	-0.005364
3548	-0.046300
3544	-0.009155
3540	0.082540
3536	0.120902
3532	0.049114
3528	-0.018382
3524	-0.033640
3520	0.012111
3516	0.123929
3512	0.127005
3508	-0.006699
3504	-0.038599
3500	0.092625
3496	0.167202
3492	0.101709
3488	0.034236
3484	0.032258
3480	0.097250
3476	0.118541
3472	0.022578
3468	-0.072407
3464	-0.060677
3460	0.108766
3456	0.234651
3452	0.109910
3448	-0.058197
3444	-0.062012
3440	0.040149
3436	0.028276
3432	-0.041651
3428	0.014591
3424	0.059056
3420	0.046825
3416	0.083851
3412	0.087761
3408	0.028252
3404	-0.001597
3400	0.017809
3396	0.075483
3392	0.116372
3388	0.084400
3384	0.024342
3380	0.039505
3376	0.103688
3372	0.053095
3368	-0.064134
3364	-0.068283
3360	-0.005102
3356	0.028228
3352	0.078153
3348	0.134897
3344	0.123429
3340	0.046944
3336	0.016093
3332	0.095224
3328	0.163388
3324	0.147199
3320	0.090432
3316	0.016546
3312	-0.002765
3308	0.012898
3304	-0.024294
3300	-0.019192
3296	0.075674
3292	0.155496
3288	0.181317
3284	0.140500
3280	0.055742
3276	0.036907
3272	0.079607
3268	0.022244
3264	-0.070142
3260	-0.041842
3256	-0.016188
3252	0.011014
3248	0.175380
3244	0.335121
3240	0.311088
3236	0.171494
3232	0.098824
3228	0.117731
3224	0.136208
3220	0.077390
3216	-0.062632
3212	-0.175428
3208	-0.168299
3204	-0.061750
3200	0.026440
3196	0.046300
3192	0.056910
3188	0.077366
3184	0.083804
3180	0.089979
3176	0.099158
3172	0.081872
3168	0.023937
3164	-0.018191
3160	-0.009489
3156	-0.033521
3152	-0.037574
3148	0.008773
3144	-0.018978
3140	-0.063633
3136	-0.016593
3132	0.126099
3128	0.252342
3124	0.277280
3120	0.211977
3116	0.134897
3112	0.128364
3108	0.102972
3104	0.025272
3100	-0.074911
3096	-0.117278
3092	-0.038099
3088	0.040888
3084	0.053787
3080	-0.003433
3076	-0.044775
3072	0.024914
3068	0.103974
3064	0.102663
3060	0.035166
3056	-0.017905
3052	0.024199
3048	0.106596
3044	0.125479
3040	0.095176
3036	0.117254
3032	0.153875
3028	0.115919
3024	0.060772
3020	0.050234
3016	0.019907
3012	-0.056695
3008	-0.077867
3004	-0.042772
3000	0.002813
2996	0.067710
2992	0.108599
2988	0.115489
2984	0.129461
2980	0.115060
2976	0.095796
2972	0.119566
2968	0.126123
2964	0.085568
2960	0.030994
2956	-0.024580
2952	-0.071883
2948	-0.039076
2944	0.065708
2940	0.132942
2936	0.132775
2932	0.100874
2928	0.071191
2924	0.093054
2920	0.126838
2916	0.111389
2912	0.090026
2908	0.095987
2904	0.154209
2900	0.172615
2896	0.102448
2892	0.071573
2888	0.097799
2884	0.098752
2880	0.067329
2876	0.061416
2872	0.068378
2868	0.042915
2864	0.046467
2860	0.114250
2856	0.122427
2852	0.030994
2848	-0.029420
2844	0.002884
2840	0.041627
2836	0.040364
2832	0.064778
2828	0.107073
2824	0.065612
2820	-0.020194
2816	0.039505
2812	0.169253
2808	0.131869
2804	-0.005745
2800	-0.058436
2796	-0.026893
2792	0.020027
2788	0.065159
2784	0.091242
2780	0.073766
2776	0.035667
2772	0.026702
2768	0.052547
2764	0.099444
2760	0.163650
2756	0.186181
2752	0.140476
2748	0.087261
2744	0.046944
2740	0.044178
2736	0.059771
2732	0.049853
2728	0.034713
2724	0.016283
2720	0.013422
2716	0.028038
2712	-0.029063
2708	-0.105786
2704	-0.081634
2700	-0.011014
2696	0.022268
2692	0.026822
2688	0.061774
2684	0.110721
2680	0.084662
2676	0.025153
2672	0.034308
2668	0.101757
2664	0.125861
2660	0.066614
2656	0.008511
2652	-0.008010
2648	0.003838
2644	0.030779
2640	0.089812
2636	0.167131
2632	0.163316
2628	0.118374
2624	0.111556
2620	0.104713
2616	0.104856
2612	0.117874
2608	0.111889
2604	0.095605
2600	0.092029
2596	0.100159
2592	0.122332
2588	0.138735
2584	0.105667
2580	0.064134
2576	0.081419
2572	0.105285
2568	0.099325
2564	0.085473
2560	0.042295
2556	-0.002956
2552	0.008559
2548	0.068855
2544	0.108838
2540	0.096631
2536	0.101828
2532	0.097751
2528	0.007343
2524	-0.036096
2520	0.065708
2516	0.160598
2512	0.107073
2508	-0.056004
2504	-0.147318
2500	-0.044846
2496	0.085091
2492	0.061964
2488	-0.005054
2484	0.025439
2480	0.098657
2476	0.120830
2472	0.091433
2468	0.047230
2464	0.016212
2460	0.025391
2456	0.040507
2452	0.013327
2448	-0.011372
2444	0.013279
2440	0.062966
2436	0.073194
2432	0.028109
2428	-0.022172
2424	-0.031447
2420	0.007486
2416	0.007605
2412	-0.067210
2408	-0.133514
2404	-0.117564
2400	0.001883
2396	0.119924
2392	0.155615
2388	0.146412
2384	0.096559
2380	0.044417
2376	0.047111
2372	0.096321
2368	0.152802
2364	0.150585
2360	0.121235
2356	0.113701
2352	0.075650
2348	0.079011
2344	0.147557
2340	0.132298
2336	0.095939
2332	0.149035
2328	0.218319
2324	0.304102
2320	0.398921
2316	0.427460
2312	0.417375
2308	0.435018
2304	0.468134
2300	0.491118
2296	0.555944
2292	0.596499
2288	0.575423
2284	0.649070
2280	0.800633
2276	0.879096
2272	0.899338
2268	0.964331
2264	1.062870
2260	1.141047
2256	1.212263
2252	1.314735
2248	1.487803
2244	1.694560
2240	1.876044
2236	2.049517
2232	2.216315
2228	2.366781
2224	2.546286
2220	2.803277
2216	3.076577
2212	3.312468
2208	3.567075
2204	3.858065
2200	4.165220
2196	4.472804
2192	4.793310
2188	5.145025
2184	5.508160
2180	5.874133
2176	6.215190
2172	6.537055
2168	6.935000
2164	7.418894
2160	7.843613
2156	8.187627
2152	8.625268
2148	9.190559
2144	9.715151
2140	10.1509
2136	10.5991
2132	11.0533
2128	11.511
2124	12.0398
2120	12.5835
2116	13.0758
2112	13.5344
2108	14.0007
2104	14.492
2100	14.9839
2096	15.515
2092	16.0805
2088	16.6067
2084	17.0441
2080	17.4651
2076	18.0107
2072	18.5521
2068	18.9531
2064	19.3999
2060	19.9456
2056	20.4232
2052	20.8656
2048	21.3197
2044	21.7567
2040	22.2237
2036	22.682
2032	23.0871
2028	23.4878
2024	23.9039
2020	24.2887
2016	24.6143
2012	24.9314
2008	25.2914
2004	25.6526
2000	25.969
1996	26.305
1992	26.6794
1988	26.9871
1984	27.2204
1980	27.4891
1976	27.8014
1972	28.0829
1968	28.3104
1964	28.5003
1960	28.6691
1956	28.8457
1952	29.1071
1948	29.4105
1944	29.6431
1940	29.8274
1936	30.0279
1932	30.2722
1928	30.4855
1924	30.6113
1920	30.7398
1916	30.9135
1912	31.1073
1908	31.3062
1904	31.4574
1900	31.5659
1896	31.709
1892	31.8855
1888	32.0163
1884	32.0858
1880	32.1915
1876	32.3387
1872	32.4503
1868	32.5328
1864	32.6088
1860	32.7074
1856	32.8382
1852	32.9271
1848	33.0124
1844	33.1385
1840	33.2236
1836	33.2948
1832	33.3811
1828	33.4386
1824	33.4606
1820	33.4471
1816	33.4642
1812	33.5711
1808	33.7054
1804	33.7994
1800	33.8657
1796	33.9293
1792	33.9595
1788	33.9509
1784	33.9836
1780	34.0445
1776	34.0523
1772	34.0751
1768	34.1227
1764	34.0988
1760	34.0667
1756	34.1479
1752	34.27
1748	34.3134
1744	34.2788
1740	34.2536
1736	34.3063
1732	34.28
1728	34.1504
1724	34.1243
1720	34.2013
1716	34.2408
1712	34.2384
1708	34.2861
1704	34.3496
1700	34.411
1696	34.4712
1692	34.4674
1688	34.4433
1684	34.4368
1680	34.4504
1676	34.4547
1672	34.3918
1668	34.3345
1664	34.3549
1660	34.4286
1656	34.4952
1652	34.5095
1648	34.5331
1644	34.5788
1640	34.6317
1636	34.6842
1632	34.6103
1628	34.4754
1624	34.4389
1620	34.4081
1616	34.3312
1612	34.2704
1608	34.2288
1604	34.2607
1600	34.3766
1596	34.4755
1592	34.5536
1588	34.5973
1584	34.5424
1580	34.4553
1576	34.4199
1572	34.3903
1568	34.3354
1564	34.3055
1560	34.2817
1556	34.2287
1552	34.2296
1548	34.3338
1544	34.4362
1540	34.452
1536	34.4475
1532	34.4936
1528	34.5116
1524	34.4451
1520	34.3744
1516	34.3244
1512	34.2742
1508	34.2398
1504	34.1886
1500	34.1579
1496	34.2418
1492	34.3242
1488	34.3091
1484	34.3104
1480	34.3465
1476	34.3471
1472	34.2672
1468	34.1339
1464	34.0149
1460	33.912
1456	33.8212
1452	33.8327
1448	33.9355
1444	34.0272
1440	34.1321
1436	34.2482
1432	34.2882
1428	34.2464
1424	34.2184
1420	34.229
1416	34.1508
1412	33.9391
1408	33.7488
1404	33.7162
1400	33.7868
1396	33.8171
1392	33.8579
1388	33.9598
1384	34.0063
1380	34.0147
1376	34.0488
1372	34.0793
1368	34.0545
1364	33.9623
1360	33.8664
1356	33.7569
1352	33.6216
1348	33.5076
1344	33.447
1340	33.5405
1336	33.747
1332	33.8747
1328	33.9055
1324	33.9234
1320	33.9539
1316	33.9351
1312	33.8221
1308	33.6748
1304	33.5021
1300	33.3267
1296	33.2705
1292	33.3105
1288	33.3579
1284	33.4517
1280	33.5967
1276	33.7218
1272	33.824
1268	33.8614
1264	33.7843
1260	33.6904
1256	33.6095
1252	33.4728
1248	33.3228
1244	33.2356
1240	33.2179
1236	33.2249
1232	33.2335
1228	33.2963
1224	33.4116
1220	33.5185
1216	33.5874
1212	33.595
1208	33.5301
1204	33.4142
1200	33.2389
1196	33.0662
1192	32.992
1188	33
1184	32.9984
1180	33.0129
1176	33.1021
1172	33.1662
1168	33.1936
1164	33.2879
1160	33.3846
1156	33.3315
1152	33.1153
1148	32.8832
1144	32.7267
1140	32.6084
1136	32.5802
1132	32.6272
1128	32.6179
1124	32.6349
1120	32.7456
1116	32.8296
1112	32.8662
1108	32.8877
1104	32.864
1100	32.7936
1096	32.6974
1092	32.5369
1088	32.3679
1084	32.2278
1080	32.0462
1076	32.0104
1072	32.1808
1068	32.3761
1064	32.5513
1060	32.6644
1056	32.6718
1052	32.5983
1048	32.5252
1044	32.4411
1040	32.2645
1036	32.0241
1032	31.8468
1028	31.8444
1024	31.9006
1020	31.9319
1016	32.0346
1012	32.1785
1008	32.3101
1004	32.3931
1000	32.3141
996	 32.1445
992	 32.0359
988	 31.904
984	 31.6804
980	 31.4709
976	 31.3573
972	 31.3401
968	 31.3819
964	 31.4368
960	 31.4621
956	 31.5383
952	 31.7436
948	 31.8749
944	 31.8212
940	 31.6968
936	 31.5524
932	 31.4056
928	 31.135
924	 30.7719
920	 30.6348
916	 30.7069
912	 30.7937
908	 30.8812
904	 30.9328
900	 30.9141
896	 30.8445
892	 30.8242
888	 30.8599
884	 30.8152
880	 30.678
876	 30.4816
872	 30.233
868	 29.9813
864	 29.8767
860	 29.9864
856	 30.1069
852	 30.1181
848	 30.1241
844	 30.1938
840	 30.2818
836	 30.3553
832	 30.3419
828	 30.1542
824	 29.9025
820	 29.5714
816	 29.1778
812	 29.0367
808	 29.0686
804	 28.9942
800	 28.994
796	 29.2085
792	 29.4243
788	 29.5419
784	 29.6131
780	 29.5482
776	 29.2906
772	 29.0037
768	 28.6578
764	 28.2798
760	 28.1964
756	 28.3156
752	 28.3363
748	 28.2642
744	 28.1434
740	 28.089
736	 28.2569
732	 28.4231
728	 28.3461
724	 28.1725
720	 28.037
716	 27.8548
712	 27.5732
708	 27.3396
704	 27.1441
700	 26.9518
696	 26.9026
692	 26.9486
688	 27.0353
684	 27.1
680	 27.2153
676	 27.3969
672	 27.3443
668	 27.269
664	 27.2532
660	 26.8821
656	 26.3366
652	 25.9614
648	 25.7854
644	 25.7184
640	 25.6572
636	 25.6029
632	 25.7146
628	 26.0732
624	 26.1892
620	 25.8758
616	 25.5668
612	 25.3911
608	 25.2559
604	 25.0919
600	 24.8765
596	 24.718
592	 24.6512
588	 24.4514
584	 24.2971
580	 24.6607
576	 24.9787
572	 24.6346
568	 24.2385
564	 24.1459
560	 24.026
556	 23.8034
552	 23.5898
548	 23.5777
544	 23.7076
540	 23.6992
536	 23.6205
532	 23.5107
528	 23.4793
524	 23.7126
520	 23.9361
516	 23.8079
512	 23.35
508	 22.9623
504	 22.9614
500	 22.8602
496	 22.1989
492	 21.7497
488	 22.2715
484	 22.745
480	 22.0826
476	 21.2406
472	 21.4208
468	 22.071
464	 22.2288
460	 22.0095
456	 21.7732
452	 21.9176
448	 21.8398
444	 21.1247
440	 21.057
436	 21.5364
432	 21.4096
428	 20.5081
424	 19.6775
420	 19.5508
416	 20.8766
412	 24.228
408	 26.3935
404	 25.2996
400	 23.8353
396	 21.592
392	 18.026
388	 19.0304
384	 24.8518
380	 35.0269
376	 38.2593
372	 37.7191
370	 41.5278