File: Bakgrunnsmateriale/MATLAB/FTIR/ftir_data/LPE453/Mapping_121/LPE453_t75.asc
PE IR       SPECTRUM    SPECTRUM    ASCII       PEDS        1.60
  -1
LPDFAD~1.ASC
17/05/16
20:31:57.00
17/05/16
20:32:24.00
tln
$LPE453_t0075$<tbV0>[-7.8,2.6,8.0,0.0,27,1,0]
27.028
64

2002,4.07
MIRTGS : RIGHTBACK : INTERNAL 2
MIR : ON : INTERNAL 2
OPTKBR

0.200000
8
8.000000
FILLER
RATIO
SPECTRUM
UNLOCKED 256

DOUBLE
64
COMBINED
1
0
0

0.002000
RATIO

1
0
TRUE
51149
0
LEFT NOT FITTED RIGHT NOT FITTED 0
NONE
NONE
15600
12
4.427000
51148
TRUE
1 0 8 72 0 0 0 0

15798

#HDR
-1
-1
#GR
µM
%T
2.38419e-05
0.0
2.000000
0.002000
12515
8
45.4204
-12.7852
#DATA
2.000000	 0.034594
2.018000	 -0.487467
2.036000	 -0.126547
2.054000	 -0.023638
2.072000	 0.026003
2.090000	 -0.057947
2.108000	 0.481328
2.126000	 0.664182
2.144000	 1.378279
2.162000	 0.154238
2.180000	 0.187453
2.198000	 0.470748
2.216000	 -0.321576
2.234000	 5.304271
2.252000	 -0.142302
2.270000	 -0.346089
2.288000	 -0.051921
2.306000	 -0.021839
2.324000	 -0.000602
2.342000	 0.113097
2.360000	 0.063518
2.378000	 0.047538
2.396000	 0.179390
2.414000	 0.070036
2.432000	 0.118239
2.450000	 0.045406
2.468000	 0.110234
2.486000	 0.076906
2.504000	 0.100352
2.522000	 0.055958
2.540000	 -0.042038
2.558000	 0.128040
2.576000	 0.021242
2.594000	 0.067833
2.612000	 -0.012130
2.630000	 0.180295
2.648000	 0.019840
2.666000	 0.074535
2.684000	 0.075352
2.702000	 0.065658
2.720000	 0.353395
2.738000	 0.030547
2.756000	 -0.083418
2.774000	 -0.044924
2.792000	 0.063317
2.810000	 0.003336
2.828000	 -0.074257
2.846000	 0.222783
2.864000	 0.101976
2.882000	 0.048013
2.900000	 0.126229
2.918000	 0.056447
2.936000	 0.190057
2.954000	 0.133149
2.972000	 0.072262
2.990000	 0.216994
3.008000	 -0.103461
3.026000	 0.008537
3.044000	 -0.067076
3.062000	 -0.027532
3.080000	 0.142318
3.098000	 0.037164
3.116000	 0.127243
3.134000	 -0.021554
3.152000	 0.040984
3.170000	 0.133578
3.188000	 0.080097
3.206000	 -0.030543
3.224000	 0.060921
3.242000	 0.046064
3.260000	 0.115379
3.278000	 -0.004046
3.296000	 0.069781
3.314000	 0.076623
3.332000	 0.046967
3.350000	 0.078954
3.368000	 -0.005671
3.386000	 0.073952
3.404000	 0.031709
3.422000	 0.000207
3.440000	 0.142275
3.458000	 0.018980
3.476000	 0.048717
3.494000	 0.043021
3.512000	 0.044987
3.530000	 -0.092431
3.548000	 0.014895
3.566000	 0.081602
3.584000	 0.082756
3.602000	 -0.060587
3.620000	 0.075444
3.638000	 0.070875
3.656000	 0.015494
3.674000	 0.162714
3.692000	 -0.067784
3.710000	 -0.046355
3.728000	 0.034278
3.746000	 -0.016582
3.764000	 0.038396
3.782000	 0.006985
3.800000	 0.009462
3.818000	 0.043765
3.836000	 0.019747
3.854000	 0.025514
3.872000	 -0.018942
3.890000	 0.095944
3.908000	 -0.003731
3.926000	 -0.062193
3.944000	 -0.034102
3.962000	 -0.029142
3.980000	 0.019996
3.998000	 0.104739
4.016000	 0.034187
4.034000	 -0.013705
4.052000	 0.016975
4.070000	 0.070271
4.088000	 0.057172
4.106000	 0.059801
4.124000	 0.078520
4.141999	 -0.002368
4.160000	 -0.006275
4.178000	 0.130827
4.196000	 0.045056
4.214000	 0.134996
4.232000	 0.121763
4.250000	 0.087957
4.268000	 0.154235
4.286000	 0.111402
4.304000	 0.189351
4.322000	 0.454087
4.340000	 0.296087
4.358000	 0.477809
4.375999	 0.647296
4.394000	 0.902612
4.412000	 1.020374
4.430000	 1.273674
4.448000	 1.484148
4.466000	 1.880058
4.484000	 2.284411
4.502000	 2.851533
4.520000	 3.335197
4.538000	 3.879570
4.556000	 4.475381
4.574000	 5.218649
4.592000	 5.982562
4.609999	 6.913051
4.628000	 7.691684
4.646000	 8.507329
4.664000	 9.631413
4.682000	 10.4994
4.700000	 11.5591
4.718000	 12.5915
4.736000	 13.6042
4.754000	 14.692
4.772000	 15.7778
4.790000	 16.7332
4.808000	 17.8826
4.826000	 18.8071
4.843999	 19.4278
4.862000	 20.6549
4.880000	 21.4314
4.898000	 22.1373
4.916000	 22.9739
4.934000	 23.7566
4.952000	 24.5051
4.970000	 25.1931
4.988000	 25.8026
5.006000	 26.3484
5.024000	 26.8842
5.042000	 27.4527
5.060000	 28.0381
5.077999	 28.5979
5.096000	 28.9936
5.114000	 29.2536
5.132000	 29.6289
5.150000	 30.014
5.168000	 30.4157
5.186000	 30.8093
5.204000	 31.2082
5.222000	 31.464
5.240000	 31.595
5.258000	 31.687
5.276000	 31.9983
5.294000	 32.3108
5.312000	 32.5102
5.330000	 32.7143
5.348000	 32.87
5.366000	 33.0435
5.384000	 33.1446
5.402000	 33.213
5.420000	 33.2749
5.438000	 33.3944
5.456000	 33.6153
5.474000	 33.881
5.492000	 34.0786
5.510000	 34.1067
5.528000	 34.1088
5.546000	 34.0857
5.564000	 34.0432
5.582000	 34.1271
5.600000	 34.2298
5.618000	 34.2746
5.636000	 34.3756
5.654000	 34.5692
5.672000	 34.8019
5.690000	 34.739
5.708000	 34.5409
5.726000	 34.4671
5.744000	 34.3892
5.762000	 34.4053
5.780000	 34.4951
5.798000	 34.692
5.816000	 34.8856
5.834000	 34.9121
5.852000	 34.8893
5.870000	 34.8358
5.888000	 34.6737
5.906000	 34.6514
5.923999	 34.679
5.942000	 34.7192
5.960000	 34.8399
5.978000	 34.9441
5.996000	 34.959
6.014000	 34.9972
6.032000	 35.0356
6.050000	 35.0326
6.068000	 34.9937
6.086000	 34.8176
6.104000	 34.6538
6.122000	 34.6865
6.140000	 34.7547
6.158000	 34.7622
6.176000	 34.8349
6.194000	 35.0362
6.212000	 35.1674
6.230000	 35.0941
6.248000	 35.0043
6.266000	 34.8458
6.284000	 34.6854
6.302000	 34.6082
6.320000	 34.5129
6.338000	 34.4865
6.356000	 34.6509
6.374000	 34.8698
6.392000	 34.9883
6.410000	 34.9984
6.428000	 34.9508
6.446000	 34.9036
6.464000	 34.8585
6.482000	 34.8174
6.500000	 34.7033
6.518000	 34.5371
6.536000	 34.4354
6.554000	 34.4232
6.572000	 34.5307
6.590000	 34.6455
6.608000	 34.7157
6.626000	 34.8585
6.644000	 34.9823
6.662000	 34.9394
6.680000	 34.8322
6.698000	 34.7461
6.716000	 34.6698
6.734000	 34.6029
6.752000	 34.4912
6.770000	 34.3603
6.788000	 34.2846
6.806000	 34.28
6.824000	 34.355
6.842000	 34.5359
6.860000	 34.7507
6.878000	 34.829
6.896000	 34.8187
6.914000	 34.8668
6.932000	 34.8566
6.950000	 34.714
6.968000	 34.5495
6.986000	 34.4325
7.004000	 34.3506
7.022000	 34.2798
7.040000	 34.2396
7.058000	 34.2782
7.076000	 34.3733
7.094000	 34.4656
7.112000	 34.5569
7.130000	 34.6644
7.148000	 34.7386
7.166000	 34.7515
7.184000	 34.7501
7.202000	 34.6932
7.220000	 34.501
7.238000	 34.2733
7.256000	 34.1338
7.274000	 34.0378
7.292000	 33.9336
7.310000	 33.8713
7.328000	 33.8912
7.346000	 33.9628
7.364000	 34.0461
7.382000	 34.1382
7.400000	 34.2387
7.418000	 34.3396
7.436000	 34.4395
7.454000	 34.5166
7.472000	 34.5392
7.490000	 34.5108
7.508000	 34.4284
7.526000	 34.2666
7.544000	 34.0662
7.562000	 33.916
7.580000	 33.8382
7.598000	 33.7987
7.616000	 33.7772
7.634000	 33.7753
7.652000	 33.8122
7.670000	 33.8986
7.688000	 33.996
7.706000	 34.0733
7.724000	 34.1609
7.742000	 34.2714
7.760000	 34.3541
7.778000	 34.374
7.796000	 34.3364
7.814000	 34.2394
7.832000	 34.0963
7.850000	 33.9648
7.868000	 33.8764
7.886000	 33.7981
7.904000	 33.7076
7.922000	 33.6388
7.940000	 33.6252
7.958000	 33.6566
7.976000	 33.7096
7.994000	 33.7742
8.012000	 33.8407
8.030000	 33.9006
8.048000	 33.9665
8.065999	 34.0616
8.084000	 34.1779
8.102000	 34.2754
8.120000	 34.3223
8.138000	 34.3098
8.155999	 34.2301
8.173999	 34.0896
8.192000	 33.9296
8.210000	 33.7935
8.228000	 33.6913
8.246000	 33.6001
8.263999	 33.4973
8.282000	 33.3974
8.300000	 33.342
8.318000	 33.3523
8.336000	 33.414
8.353999	 33.4993
8.372000	 33.5889
8.390000	 33.6793
8.408000	 33.7773
8.426000	 33.8885
8.443999	 34.0024
8.462000	 34.0872
8.480000	 34.1142
8.498000	 34.085
8.516000	 34.0243
8.533999	 33.9496
8.552000	 33.861
8.570000	 33.7589
8.588000	 33.6468
8.606000	 33.5179
8.624000	 33.3646
8.641999	 33.2066
8.660000	 33.0823
8.678000	 33.0076
8.696000	 32.9666
8.714000	 32.9507
8.731999	 32.9804
8.750000	 33.0735
8.768000	 33.2087
8.786000	 33.3395
8.804000	 33.4357
8.821999	 33.5
8.840000	 33.5517
8.858000	 33.6026
8.876000	 33.6482
8.894000	 33.6754
8.911999	 33.6765
8.930000	 33.6557
8.948000	 33.6237
8.966000	 33.5854
8.984000	 33.5309
9.001999	 33.4447
9.020000	 33.3212
9.038000	 33.1729
9.056000	 33.0248
9.074000	 32.901
9.092000	 32.8169
9.109999	 32.7809
9.128000	 32.7926
9.146000	 32.8379
9.164000	 32.8917
9.182000	 32.9372
9.199999	 32.9799
9.218000	 33.0408
9.236000	 33.1331
9.254000	 33.2481
9.272000	 33.361
9.289999	 33.4477
9.308000	 33.4925
9.326000	 33.4899
9.344000	 33.4455
9.362000	 33.3796
9.379999	 33.3188
9.398000	 33.2809
9.416000	 33.262
9.434000	 33.2379
9.452000	 33.1787
9.469999	 33.0657
9.488000	 32.9019
9.506000	 32.7141
9.524000	 32.5433
9.542000	 32.4237
9.560000	 32.3629
9.577999	 32.3425
9.596000	 32.3364
9.614000	 32.3308
9.632000	 32.3299
9.650000	 32.348
9.667999	 32.396
9.686000	 32.4705
9.704000	 32.5538
9.722000	 32.6269
9.740000	 32.6834
9.757999	 32.7332
9.776000	 32.7924
9.794000	 32.8674
9.812000	 32.9477
9.830000	 33.0118
9.847999	 33.0422
9.866000	 33.0348
9.884000	 32.9984
9.902000	 32.9473
9.920000	 32.8933
9.937999	 32.841
9.956000	 32.7868
9.974000	 32.7232
9.992000	 32.6424
10.01	32.5411
10.028	32.423
10.046	32.2978
10.064	32.1782
10.082	32.0761
10.1	31.9999
10.118	31.9522
10.136	31.9301
10.154	31.9264
10.172	31.9337
10.19	31.9504
10.208	31.9816
10.226	32.036
10.244	32.1172
10.262	32.2178
10.28	32.3194
10.298	32.4026
10.316	32.4556
10.334	32.4806
10.352	32.4883
10.37	32.4908
10.388	32.4939
10.406	32.4966
10.424	32.4932
10.442	32.4777
10.46	32.445
10.478	32.3923
10.496	32.32
10.514	32.2331
10.532	32.1415
10.55	32.0556
10.568	31.9816
10.586	31.9184
10.604	31.8593
10.622	31.7969
10.64	31.7272
10.658	31.6511
10.676	31.5725
10.694	31.4943
10.712	31.4179
10.73	31.3443
10.748	31.2773
10.766	31.2246
10.784	31.1946
10.802	31.1943
10.82	31.2257
10.838	31.2844
10.856	31.3627
10.874	31.4517
10.892	31.5448
10.91	31.6369
10.928	31.7245
10.946	31.8033
10.964	31.8684
10.982	31.9149
11	31.9399
11.018	31.9445
11.036	31.933
11.054	31.9118
11.072	31.8869
11.09	31.8605
11.108	31.8311
11.126	31.7934
11.144	31.7419
11.162	31.6736
11.18	31.5894
11.198	31.494
11.216	31.3946
11.234	31.2982
11.252	31.2104
11.27	31.1337
11.288	31.0692
11.306	31.0164
11.324	30.9748
11.342	30.9435
11.36	30.9205
11.378	30.9029
11.396	30.8867
11.414	30.8681
11.432	30.8458
11.45	30.8216
11.468	30.8011
11.486	30.7911
11.504	30.7975
11.522	30.8231
11.54	30.866
11.558	30.92
11.576	30.9771
11.594	31.0307
11.612	31.0766
11.63	31.1151
11.648	31.1494
11.666	31.1832
11.684	31.2186
11.702	31.254
11.72	31.2852
11.738	31.3074
11.756	31.3173
11.774	31.3148
11.792	31.3027
11.81	31.2845
11.828	31.2627
11.846	31.2364
11.864	31.2023
11.882	31.1555
11.9	31.0918
11.918	31.0094
11.936	30.9106
11.954	30.8004
11.972	30.686
11.99	30.575
12.008	30.475
12.026	30.3925
12.044	30.3316
12.062	30.2934
12.08	30.2753
12.098	30.2707
12.116	30.2715
12.134	30.2699
12.152	30.26
12.17	30.2392
12.188	30.2088
12.206	30.1727
12.224	30.1364
12.242	30.1062
12.26	30.0877
12.278	30.0857
12.296	30.1034
12.314	30.1415
12.332	30.1978
12.35	30.2668
12.368	30.341
12.386	30.4107
12.404	30.4682
12.422	30.5086
12.44	30.5321
12.458	30.5416
12.476	30.5419
12.494	30.5369
12.512	30.5286
12.53	30.5165
12.548	30.4985
12.566	30.4727
12.584	30.4388
12.602	30.3989
12.62	30.3572
12.638	30.318
12.656	30.2843
12.674	30.2568
12.692	30.2327
12.71	30.2068
12.728	30.1723
12.746	30.1242
12.764	30.0596
12.782	29.9794
12.8	29.8877
12.818	29.7912
12.836	29.6977
12.854	29.6137
12.872	29.5435
12.89	29.4887
12.908	29.4477
12.926	29.417
12.944	29.3913
12.962	29.3655
12.98	29.3356
12.998	29.2992
13.016	29.2566
13.034	29.2105
13.052	29.1654
13.07	29.1273
13.088	29.1024
13.106	29.0963
13.124	29.1123
13.142	29.1514
13.16	29.2111
13.178	29.2865
13.196	29.3701
13.214	29.454
13.232	29.531
13.25	29.5954
13.268	29.6441
13.286	29.6762
13.304	29.6932
13.322	29.6982
13.34	29.6948
13.358	29.6868
13.376	29.6775
13.394	29.6695
13.412	29.6644
13.43	29.6623
13.448	29.6623
13.466	29.662
13.484	29.6589
13.502	29.6501
13.52	29.6335
13.538	29.6082
13.556	29.5746
13.574	29.5344
13.592	29.4904
13.61	29.4456
13.628	29.4018
13.646	29.3599
13.664	29.3183
13.682	29.2745
13.7	29.2243
13.718	29.1642
13.736	29.0915
13.754	29.0055
13.772	28.9076
13.79	28.8014
13.808	28.6922
13.826	28.585
13.844	28.4849
13.862	28.396
13.88	28.3211
13.898	28.2614
13.916	28.2167
13.934	28.1854
13.952	28.1651
13.97	28.153
13.988	28.1461
14.006	28.1415
14.024	28.1369
14.042	28.1306
14.06	28.1219
14.078	28.1108
14.096	28.0985
14.114	28.0863
14.132	28.0764
14.15	28.0707
14.168	28.0709
14.186	28.0784
14.204	28.0933
14.222	28.1153
14.24	28.1427
14.258	28.1736
14.276	28.2054
14.294	28.2357
14.312	28.2621
14.33	28.2828
14.348	28.2967
14.366	28.3034
14.384	28.3033
14.402	28.2978
14.42	28.2885
14.438	28.2776
14.456	28.2676
14.474	28.2602
14.492	28.257
14.51	28.2587
14.528	28.2655
14.546	28.2767
14.564	28.2908
14.582	28.3059
14.6	28.32
14.618	28.3308
14.636	28.3365
14.654	28.3353
14.672	28.3266
14.69	28.3098
14.708	28.2849
14.726	28.2526
14.744	28.2137
14.762	28.1693
14.78	28.1201
14.798	28.0669
14.816	28.01
14.834	27.9492
14.852	27.8846
14.87	27.8158
14.888	27.7428
14.906	27.6657
14.924	27.585
14.942	27.5022
14.96	27.4195
14.978	27.3394
14.996	27.2648
15.014	27.199
15.032	27.1451
15.05	27.1055
15.068	27.0817
15.086	27.0741
15.104	27.0821
15.122	27.1036
15.14	27.1353
15.158	27.1738
15.176	27.2153
15.194	27.2556
15.212	27.2909
15.23	27.3187
15.248	27.3374
15.266	27.3463
15.284	27.3456
15.302	27.3367
15.32	27.3216
15.338	27.3023
15.356	27.2816
15.374	27.262
15.392	27.2453
15.41	27.233
15.428	27.2264
15.446	27.226
15.464	27.2319
15.482	27.2441
15.5	27.2622
15.518	27.286
15.536	27.3152
15.554	27.3499
15.572	27.3898
15.59	27.4346
15.608	27.4836
15.626	27.536
15.644	27.5902
15.662	27.6442
15.68	27.6957
15.698	27.7426
15.716	27.7818
15.734	27.8106
15.752	27.8273
15.77	27.8304
15.788	27.8187
15.806	27.7924
15.824	27.7517
15.842	27.698
15.86	27.6332
15.878	27.5596
15.896	27.4794
15.914	27.3958
15.932	27.3113
15.95	27.2282
15.968	27.1484
15.986	27.074
16.004	27.0056
16.022	26.944
16.04	26.889
16.058	26.84
16.076	26.7961
16.094	26.7558
16.112	26.7178
16.13	26.6809
16.148	26.6435
16.166	26.6047
16.184	26.564
16.202	26.521
16.22	26.4764
16.238	26.4308
16.256	26.3848
16.274	26.3404
16.292	26.2988
16.31	26.2612
16.328	26.2293
16.346	26.2038
16.364	26.1852
16.382	26.1736
16.4	26.1682
16.418	26.1683
16.436	26.1724
16.454	26.1788
16.472	26.186
16.49	26.1922
16.508	26.1963
16.526	26.1975
16.544	26.1951
16.562	26.1893
16.58	26.1801
16.598	26.1683
16.616	26.1547
16.634	26.1399
16.652	26.1251
16.67	26.1104
16.688	26.0963
16.706	26.0832
16.724	26.0711
16.742	26.0598
16.76	26.0493
16.778	26.0395
16.796	26.0303
16.814	26.0217
16.832	26.0137
16.85	26.0066
16.868	26.0003
16.886	25.9951
16.904	25.9912
16.922	25.9886
16.94	25.9874
16.958	25.9878
16.976	25.9896
16.994	25.9927
17.012	25.9968
17.03	26.0019
17.048	26.0076
17.066	26.0138
17.084	26.0204
17.102	26.0272
17.12	26.0344
17.138	26.0418
17.156	26.0494
17.174	26.0572
17.192	26.0652
17.21	26.0732
17.228	26.0811
17.246	26.0885
17.264	26.0951
17.282	26.0998
17.3	26.1024
17.318	26.1017
17.336	26.0969
17.354	26.0874
17.372	26.0722
17.39	26.0509
17.408	26.0229
17.426	25.988
17.444	25.9463
17.462	25.8979
17.48	25.8432
17.498	25.783
17.516	25.7179
17.534	25.6485
17.552	25.5765
17.57	25.5023
17.588	25.4274
17.606	25.3524
17.624	25.2783
17.642	25.206
17.66	25.1358
17.678	25.0684
17.696	25.004
17.714	24.9432
17.732	24.8861
17.75	24.8328
17.768	24.7836
17.786	24.7386
17.804	24.6979
17.822	24.6615
17.84	24.6296
17.858	24.6022
17.876	24.5793
17.894	24.5612
17.912	24.5478
17.93	24.5392
17.948	24.5352
17.966	24.5359
17.984	24.541
18.002	24.5503
18.02	24.5634
18.038	24.5799
18.056	24.5989
18.074	24.62
18.092	24.6418
18.11	24.6638
18.128	24.6845
18.146	24.7034
18.164	24.7187
18.182	24.73
18.2	24.7359
18.218	24.7361
18.236	24.73
18.254	24.7179
18.272	24.6998
18.29	24.6769
18.308	24.6496
18.326	24.6202
18.344	24.5894
18.362	24.5602
18.38	24.5334
18.398	24.5119
18.416	24.4966
18.434	24.4897
18.452	24.4917
18.47	24.5036
18.488	24.5246
18.506	24.555
18.524	24.5924
18.542	24.6366
18.56	24.6837
18.578	24.7334
18.596	24.7813
18.614	24.8271
18.632	24.8667
18.65	24.8999
18.668	24.9241
18.686	24.9395
18.704	24.9455
18.722	24.9427
18.74	24.9322
18.758	24.915
18.776	24.8935
18.794	24.8687
18.812	24.8436
18.83	24.8189
18.848	24.7971
18.866	24.7786
18.884	24.7648
18.902	24.7553
18.92	24.7503
18.938	24.7488
18.956	24.7498
18.974	24.7517
18.992	24.7528
19.01	24.7518
19.028	24.7462
19.046	24.7352
19.064	24.7168
19.082	24.6908
19.1	24.656
19.118	24.6128
19.136	24.5614
19.154	24.5025
19.172	24.4375
19.19	24.3674
19.208	24.2947
19.226	24.22
19.244	24.1466
19.262	24.0746
19.28	24.0074
19.298	23.9447
19.316	23.8892
19.334	23.8405
19.352	23.8001
19.37	23.7678
19.388	23.7436
19.406	23.7277
19.424	23.7189
19.442	23.7173
19.46	23.7215
19.478	23.7313
19.496	23.7452
19.514	23.7629
19.532	23.783
19.55	23.8049
19.568	23.8278
19.586	23.8506
19.604	23.873
19.622	23.8938
19.64	23.9128
19.658	23.9289
19.676	23.9421
19.694	23.9511
19.712	23.9559
19.73	23.9556
19.748	23.9503
19.766	23.9393
19.784	23.9226
19.802	23.9003
19.82	23.8722
19.838	23.8387
19.856	23.8001
19.874	23.7568
19.892	23.7098
19.91	23.659
19.928	23.6064
19.946	23.5516
19.964	23.4968
19.982	23.442
20	23.3886
20.018	23.3377
20.036	23.2897
20.054	23.2462
20.072	23.207
20.09	23.1739
20.108	23.1465
20.126	23.1259
20.144	23.1122
20.162	23.1056
20.18	23.1064
20.198	23.1142
20.216	23.129
20.234	23.1506
20.252	23.178
20.27	23.2116
20.288	23.2495
20.306	23.2919
20.324	23.3373
20.342	23.3848
20.36	23.4339
20.378	23.4824
20.396	23.5309
20.414	23.5769
20.432	23.6207
20.45	23.6607
20.468	23.6964
20.486	23.7274
20.504	23.7527
20.522	23.7725
20.54	23.7861
20.558	23.7936
20.576	23.795
20.594	23.7903
20.612	23.78
20.63	23.7649
20.648	23.7447
20.666	23.7211
20.684	23.6939
20.702	23.6644
20.72	23.6336
20.738	23.6014
20.756	23.5698
20.774	23.5384
20.792	23.5086
20.81	23.4808
20.828	23.4552
20.846	23.4328
20.864	23.4133
20.882	23.3972
20.9	23.3846
20.918	23.3752
20.936	23.3691
20.954	23.3659
20.972	23.3648
20.99	23.3661
21.008	23.3685
21.026	23.3719
21.044	23.376
21.062	23.3797
21.08	23.3834
21.098	23.3861
21.116	23.3876
21.134	23.3877
21.152	23.3857
21.17	23.3819
21.188	23.376
21.206	23.3679
21.224	23.3577
21.242	23.3456
21.26	23.3314
21.278	23.3156
21.296	23.2981
21.314	23.2789
21.332	23.2584
21.35	23.2363
21.368	23.213
21.386	23.1883
21.404	23.1622
21.422	23.1349
21.44	23.1062
21.458	23.076
21.476	23.0442
21.494	23.0107
21.512	22.9754
21.53	22.9382
21.548	22.8993
21.566	22.8585
21.584	22.816
21.602	22.7723
21.62	22.7273
21.638	22.6815
21.656	22.6356
21.674	22.5892
21.692	22.5437
21.71	22.4993
21.728	22.4564
21.746	22.4168
21.764	22.3798
21.782	22.347
21.8	22.3192
21.818	22.2962
21.836	22.2792
21.854	22.2685
21.872	22.264
21.89	22.2661
21.908	22.2748
21.926	22.2893
21.944	22.3097
21.962	22.3359
21.98	22.3655
21.998	22.399
22.016	22.4351
22.034	22.4712
22.052	22.5084
22.07	22.5439
22.088	22.5753
22.106	22.6038
22.124	22.6257
22.142	22.6405
22.16	22.6481
22.178	22.6455
22.196	22.6332
22.214	22.6106
22.232	22.5764
22.25	22.5311
22.268	22.4748
22.286	22.4072
22.304	22.3285
22.322	22.2402
22.34	22.1419
22.358	22.0345
22.376	21.9206
22.394	21.7992
22.412	21.6723
22.43	21.5427
22.448	21.409
22.466	21.2741
22.484	21.1401
22.502	21.0059
22.52	20.8743
22.538	20.7466
22.556	20.622
22.574	20.5029
22.592	20.3897
22.61	20.282
22.628	20.1812
22.646	20.0873
22.664	19.9999
22.682	19.9193
22.7	19.8455
22.718	19.7781
22.736	19.7162
22.754	19.6604
22.772	19.6094
22.79	19.562
22.808	19.5189
22.826	19.4786
22.844	19.4399
22.862	19.4035
22.88	19.3677
22.898	19.3317
22.916	19.2959
22.934	19.2593
22.952	19.2215
22.97	19.1828
22.988	19.1423
23.006	19.0997
23.024	19.0554
23.042	19.0096
23.06	18.9623
23.078	18.9136
23.096	18.8642
23.114	18.8139
23.132	18.7631
23.15	18.7132
23.168	18.6639
23.186	18.6157
23.204	18.5705
23.222	18.528
23.24	18.4884
23.258	18.4536
23.276	18.4238
23.294	18.3985
23.312	18.3781
23.33	18.3626
23.348	18.3519
23.366	18.3458
23.384	18.3445
23.402	18.3477
23.42	18.3551
23.438	18.3666
23.456	18.3822
23.474	18.4014
23.492	18.4242
23.51	18.4506
23.528	18.4797
23.546	18.5112
23.564	18.5453
23.582	18.5819
23.6	18.6208
23.618	18.662
23.636	18.7063
23.654	18.7539
23.672	18.8045
23.69	18.8586
23.708	18.9165
23.726	18.9781
23.744	19.0431
23.762	19.1112
23.78	19.1827
23.798	19.257
23.816	19.3333
23.834	19.4123
23.852	19.4931
23.87	19.5743
23.888	19.6571
23.906	19.7402
23.924	19.8212
23.942	19.9006
23.96	19.9782
23.978	20.0507
23.996	20.1169
24.014	20.1782
24.032	20.2322
24.05	20.2776
24.068	20.3154
24.086	20.3448
24.104	20.3646
24.122	20.3753
24.14	20.3769
24.158	20.369
24.176	20.3513
24.194	20.3244
24.212	20.2886
24.23	20.244
24.248	20.1905
24.266	20.1288
24.284	20.0593
24.302	19.9814
24.32	19.8963
24.338	19.805
24.356	19.7064
24.374	19.6019
24.392	19.4935
24.41	19.3802
24.428	19.2626
24.446	19.1439
24.464	19.0256
24.482	18.9061
24.5	18.7872
24.518	18.6703
24.536	18.5535
24.554	18.4393
24.572	18.3312
24.59	18.2273
24.608	18.1287
24.626	18.0403
24.644	17.9636
24.662	17.8955
24.68	17.8424
24.698	17.8096
24.716	17.7931
24.734	17.7959
24.752	17.8242
24.77	17.8777
24.788	17.9548
24.806	18.0609
24.824	18.1996
24.842	18.3679
24.86	18.5675
24.878	18.8006
24.896	19.0677
24.914	19.3674
24.932	19.6988
24.95	20.0624
24.968	20.4593
24.986	20.8845
25.004	21.3327
25.022	21.8083
25.04	22.3078
25.058	22.8229
25.076	23.351
25.094	23.8976
25.112	24.4525
25.13	25.0056
25.148	25.5628
25.166	26.1212
25.184	26.6713
25.202	27.2087
25.22	27.7393
25.238	28.257
25.256	28.7557
25.274	29.2372
25.292	29.702
25.31	30.1472
25.328	30.5709
25.346	30.9744
25.364	31.3583
25.382	31.7231
25.4	32.0664
25.418	32.3901
25.436	32.6992
25.454	32.9973
25.472	33.2793
25.49	33.5507
25.508	33.8193
25.526	34.0848
25.544	34.3438
25.562	34.606
25.58	34.8808
25.598	35.1621
25.616	35.4524
25.634	35.7598
25.652	36.0896
25.67	36.4368
25.688	36.8037
25.706	37.1938
25.724	37.6102
25.742	38.0502
25.76	38.5093
25.778	38.9832
25.796	39.4788
25.814	39.9903
25.832	40.5066
25.85	41.0222
25.868	41.5493
25.886	42.0729
25.904	42.5745
25.922	43.0535
25.94	43.5205
25.958	43.9543
25.976	44.3337
25.994	44.6699
26.012	44.9627
26.03	45.1903
26.048	45.3343
26.066	45.4096
26.084	45.4107
26.102	45.3225
26.12	45.1346
26.138	44.8574
26.156	44.4876
26.174	44.02
26.192	43.4509
26.21	42.7833
26.228	42.0211
26.246	41.1679
26.264	40.2179
26.282	39.1719
26.3	38.046
26.318	36.8561
26.336	35.5864
26.354	34.2426
26.372	32.8538
26.39	31.4458
26.408	29.9931
26.426	28.5076
26.444	27.0236
26.462	25.5679
26.48	24.1087
26.498	22.6648
26.516	21.2715
26.534	19.9542
26.552	18.6834
26.57	17.4748
26.588	16.3544
26.606	15.3402
26.624	14.4146
26.642	13.5814
26.66	12.8476
26.678	12.2193
26.696	11.6937
26.714	11.2652
26.732	10.9288
26.75	10.6859
26.768	10.5454
26.786	10.489
26.804	10.4962
26.822	10.5585
26.84	10.6925
26.858	10.8838
26.876	11.1161
26.894	11.3803
26.912	11.6882
26.93	12.0346
26.948	12.4128
26.966	12.845
26.984	13.3742
27.002	13.9011
27.02	14.3172
27.028	14.4263