File: Bakgrunnsmateriale/MATLAB/FTIR/ftir_data/LPE453/Mapping_121/LPE453_t111.asc
PE IR       SPECTRUM    SPECTRUM    ASCII       PEDS        1.60
  -1
LP9778~1.ASC
17/05/16
23:31:51.00
17/05/16
23:32:18.00
tln
$LPE453_t0111$<tbV0>[13.0,13.0,8.0,0.0,27,1,0]
27.028
64

2002,4.07
MIRTGS : RIGHTBACK : INTERNAL 2
MIR : ON : INTERNAL 2
OPTKBR

0.200000
8
8.000000
FILLER
RATIO
SPECTRUM
UNLOCKED 256

DOUBLE
64
COMBINED
1
0
0

0.002000
RATIO

1
0
TRUE
51149
0
LEFT NOT FITTED RIGHT NOT FITTED 0
NONE
NONE
15600
12
4.427000
51148
TRUE
1 0 8 72 0 0 0 0

15798

#HDR
-1
-1
#GR
µM
%T
2.38419e-05
0.0
2.000000
0.002000
12515
8
19.741
-6.063604
#DATA
2.000000	 -0.153827
2.018000	 -0.003251
2.036000	 -0.021668
2.054000	 -0.361882
2.072000	 0.023521
2.090000	 -0.413278
2.108000	 0.297772
2.126000	 0.097808
2.144000	 0.379845
2.162000	 2.010265
2.180000	 0.970850
2.198000	 -0.477699
2.216000	 -1.149214
2.234000	 -1.070901
2.252000	 -0.597435
2.270000	 0.246899
2.288000	 0.126811
2.306000	 0.530490
2.324000	 0.056914
2.342000	 0.026146
2.360000	 -0.019568
2.378000	 0.222847
2.396000	 0.477253
2.414000	 0.078771
2.432000	 0.077090
2.450000	 0.032452
2.468000	 -0.109146
2.486000	 0.168140
2.504000	 -0.360725
2.522000	 0.281780
2.540000	 0.016238
2.558000	 0.074441
2.576000	 -0.012752
2.594000	 0.054698
2.612000	 0.150601
2.630000	 0.043769
2.648000	 -0.055331
2.666000	 -0.026084
2.684000	 -0.038670
2.702000	 0.207578
2.720000	 0.139829
2.738000	 0.049893
2.756000	 0.069944
2.774000	 0.048155
2.792000	 0.046885
2.810000	 -0.089410
2.828000	 0.026639
2.846000	 0.078882
2.864000	 0.056205
2.882000	 0.248419
2.900000	 0.049436
2.918000	 0.110587
2.936000	 0.273949
2.954000	 0.228709
2.972000	 0.156033
2.990000	 -0.126289
3.008000	 -0.032923
3.026000	 0.012509
3.044000	 -0.188851
3.062000	 0.038864
3.080000	 0.089137
3.098000	 0.155897
3.116000	 -0.066229
3.134000	 -0.067360
3.152000	 0.113937
3.170000	 0.051732
3.188000	 0.095743
3.206000	 -0.008497
3.224000	 0.026782
3.242000	 0.013080
3.260000	 0.041353
3.278000	 -0.016398
3.296000	 0.021308
3.314000	 0.097093
3.332000	 -0.170726
3.350000	 0.064037
3.368000	 0.175301
3.386000	 0.009548
3.404000	 0.039245
3.422000	 0.042388
3.440000	 -0.069124
3.458000	 0.194351
3.476000	 -0.032632
3.494000	 0.077448
3.512000	 -0.054308
3.530000	 -0.012174
3.548000	 0.037883
3.566000	 -0.020115
3.584000	 0.120485
3.602000	 0.026424
3.620000	 0.046927
3.638000	 -0.074897
3.656000	 0.081257
3.674000	 -0.008941
3.692000	 -0.064486
3.710000	 0.029503
3.728000	 0.111458
3.746000	 -0.004678
3.764000	 0.028841
3.782000	 0.036246
3.800000	 0.047128
3.818000	 0.000791
3.836000	 -0.036567
3.854000	 0.065464
3.872000	 0.034218
3.890000	 0.168600
3.908000	 0.044243
3.926000	 -0.089789
3.944000	 0.063835
3.962000	 0.080324
3.980000	 0.031915
3.998000	 0.027006
4.016000	 0.105053
4.034000	 -0.030679
4.052000	 0.012048
4.070000	 -0.004761
4.088000	 0.116593
4.106000	 0.027785
4.124000	 0.060778
4.141999	 0.147467
4.160000	 0.057653
4.178000	 0.072211
4.196000	 -0.074361
4.214000	 -0.005931
4.232000	 -0.026781
4.250000	 0.007418
4.268000	 -0.032194
4.286000	 -0.034010
4.304000	 0.016959
4.322000	 0.049167
4.340000	 0.042941
4.358000	 0.017768
4.375999	 0.120606
4.394000	 0.065701
4.412000	 0.063197
4.430000	 0.131423
4.448000	 0.085592
4.466000	 0.161354
4.484000	 0.344838
4.502000	 0.451638
4.520000	 0.445906
4.538000	 0.557168
4.556000	 0.662885
4.574000	 0.811500
4.592000	 1.045019
4.609999	 1.389543
4.628000	 1.590302
4.646000	 2.041977
4.664000	 2.252873
4.682000	 2.583234
4.700000	 2.969274
4.718000	 3.353109
4.736000	 3.779573
4.754000	 4.194181
4.772000	 4.730860
4.790000	 5.266844
4.808000	 5.641061
4.826000	 6.208126
4.843999	 6.680733
4.862000	 7.308055
4.880000	 7.803275
4.898000	 8.166071
4.916000	 8.724408
4.934000	 9.227360
4.952000	 9.609895
4.970000	 10.0008
4.988000	 10.4042
5.006000	 10.882
5.024000	 11.2726
5.042000	 11.7022
5.060000	 12.1976
5.077999	 12.461
5.096000	 12.8084
5.114000	 13.1299
5.132000	 13.5809
5.150000	 13.8226
5.168000	 14.0968
5.186000	 14.2865
5.204000	 14.5302
5.222000	 14.862
5.240000	 15.1641
5.258000	 15.445
5.276000	 15.6839
5.294000	 15.8385
5.312000	 16.0296
5.330000	 16.2871
5.348000	 16.4404
5.366000	 16.5181
5.384000	 16.6223
5.402000	 16.8523
5.420000	 16.977
5.438000	 17.0429
5.456000	 17.2496
5.474000	 17.4538
5.492000	 17.5629
5.510000	 17.6266
5.528000	 17.7308
5.546000	 17.803
5.564000	 17.8638
5.582000	 17.9853
5.600000	 18.0921
5.618000	 18.1903
5.636000	 18.2658
5.654000	 18.2843
5.672000	 18.3372
5.690000	 18.4304
5.708000	 18.5525
5.726000	 18.5543
5.744000	 18.5541
5.762000	 18.6245
5.780000	 18.7426
5.798000	 18.7872
5.816000	 18.7184
5.834000	 18.801
5.852000	 18.874
5.870000	 18.8746
5.888000	 18.9843
5.906000	 19.088
5.923999	 19.0947
5.942000	 19.1781
5.960000	 19.1751
5.978000	 19.0936
5.996000	 19.1755
6.014000	 19.2218
6.032000	 19.2813
6.050000	 19.3454
6.068000	 19.3178
6.086000	 19.3391
6.104000	 19.4016
6.122000	 19.4639
6.140000	 19.4868
6.158000	 19.4794
6.176000	 19.4621
6.194000	 19.438
6.212000	 19.4316
6.230000	 19.463
6.248000	 19.515
6.266000	 19.4981
6.284000	 19.4868
6.302000	 19.5174
6.320000	 19.4997
6.338000	 19.5485
6.356000	 19.6361
6.374000	 19.7051
6.392000	 19.7392
6.410000	 19.6575
6.428000	 19.5811
6.446000	 19.6207
6.464000	 19.6579
6.482000	 19.6055
6.500000	 19.5557
6.518000	 19.5825
6.536000	 19.6298
6.554000	 19.5718
6.572000	 19.4737
6.590000	 19.5078
6.608000	 19.6368
6.626000	 19.7091
6.644000	 19.6614
6.662000	 19.5595
6.680000	 19.5095
6.698000	 19.4984
6.716000	 19.4758
6.734000	 19.4982
6.752000	 19.5636
6.770000	 19.5281
6.788000	 19.4245
6.806000	 19.4378
6.824000	 19.5367
6.842000	 19.5873
6.860000	 19.6076
6.878000	 19.6689
6.896000	 19.6851
6.914000	 19.6165
6.932000	 19.5973
6.950000	 19.641
6.968000	 19.6449
6.986000	 19.5972
7.004000	 19.5704
7.022000	 19.5801
7.040000	 19.5761
7.058000	 19.5671
7.076000	 19.5794
7.094000	 19.5717
7.112000	 19.5318
7.130000	 19.5142
7.148000	 19.528
7.166000	 19.516
7.184000	 19.4708
7.202000	 19.4369
7.220000	 19.4059
7.238000	 19.3667
7.256000	 19.3614
7.274000	 19.39
7.292000	 19.4134
7.310000	 19.4247
7.328000	 19.442
7.346000	 19.4607
7.364000	 19.4548
7.382000	 19.4357
7.400000	 19.4346
7.418000	 19.4414
7.436000	 19.4405
7.454000	 19.4266
7.472000	 19.3975
7.490000	 19.3813
7.508000	 19.3893
7.526000	 19.3844
7.544000	 19.353
7.562000	 19.3178
7.580000	 19.2914
7.598000	 19.2765
7.616000	 19.2596
7.634000	 19.2178
7.652000	 19.1679
7.670000	 19.1462
7.688000	 19.1444
7.706000	 19.1343
7.724000	 19.1199
7.742000	 19.1074
7.760000	 19.0824
7.778000	 19.0478
7.796000	 19.0294
7.814000	 19.0379
7.832000	 19.062
7.850000	 19.0799
7.868000	 19.0655
7.886000	 19.0105
7.904000	 18.9436
7.922000	 18.9069
7.940000	 18.9123
7.958000	 18.9262
7.976000	 18.9034
7.994000	 18.8366
8.012000	 18.7579
8.030000	 18.6906
8.048000	 18.6333
8.065999	 18.5857
8.084000	 18.5537
8.102000	 18.5329
8.120000	 18.5174
8.138000	 18.5124
8.155999	 18.5161
8.173999	 18.5178
8.192000	 18.5204
8.210000	 18.535
8.228000	 18.5592
8.246000	 18.5804
8.263999	 18.593
8.282000	 18.5963
8.300000	 18.5894
8.318000	 18.5743
8.336000	 18.5476
8.353999	 18.4988
8.372000	 18.4289
8.390000	 18.3598
8.408000	 18.3156
8.426000	 18.3036
8.443999	 18.3149
8.462000	 18.3321
8.480000	 18.3305
8.498000	 18.2898
8.516000	 18.2199
8.533999	 18.1641
8.552000	 18.1623
8.570000	 18.2108
8.588000	 18.2681
8.606000	 18.2957
8.624000	 18.2826
8.641999	 18.2352
8.660000	 18.1703
8.678000	 18.1181
8.696000	 18.1072
8.714000	 18.1345
8.731999	 18.1641
8.750000	 18.167
8.768000	 18.1491
8.786000	 18.1332
8.804000	 18.1232
8.821999	 18.1031
8.840000	 18.0633
8.858000	 18.014
8.876000	 17.9699
8.894000	 17.929
8.911999	 17.8768
8.930000	 17.807
8.948000	 17.7347
8.966000	 17.6864
8.984000	 17.6797
9.001999	 17.7095
9.020000	 17.7551
9.038000	 17.7906
9.056000	 17.7952
9.074000	 17.7603
9.092000	 17.6959
9.109999	 17.6281
9.128000	 17.5823
9.146000	 17.561
9.164000	 17.5443
9.182000	 17.515
9.199999	 17.4743
9.218000	 17.431
9.236000	 17.3848
9.254000	 17.3313
9.272000	 17.277
9.289999	 17.2409
9.308000	 17.2359
9.326000	 17.2539
9.344000	 17.277
9.362000	 17.2942
9.379999	 17.3023
9.398000	 17.2967
9.416000	 17.2702
9.434000	 17.2236
9.452000	 17.1705
9.469999	 17.1314
9.488000	 17.1204
9.506000	 17.1354
9.524000	 17.1596
9.542000	 17.1725
9.560000	 17.1616
9.577999	 17.1281
9.596000	 17.0836
9.614000	 17.0394
9.632000	 16.9995
9.650000	 16.9641
9.667999	 16.9355
9.686000	 16.9181
9.704000	 16.911
9.722000	 16.9036
9.740000	 16.8818
9.757999	 16.8405
9.776000	 16.7915
9.794000	 16.7545
9.812000	 16.7408
9.830000	 16.745
9.847999	 16.7519
9.866000	 16.7477
9.884000	 16.7284
9.902000	 16.6991
9.920000	 16.6699
9.937999	 16.6487
9.956000	 16.6383
9.974000	 16.6373
9.992000	 16.6437
10.01	16.6556
10.028	16.6697
10.046	16.6797
10.064	16.6758
10.082	16.6508
10.1	16.6053
10.118	16.5496
10.136	16.4963
10.154	16.4525
10.172	16.4164
10.19	16.3816
10.208	16.3435
10.226	16.3021
10.244	16.261
10.262	16.2244
10.28	16.1961
10.298	16.1786
10.316	16.174
10.334	16.1821
10.352	16.1994
10.37	16.218
10.388	16.2293
10.406	16.2268
10.424	16.2083
10.442	16.176
10.46	16.1347
10.478	16.091
10.496	16.0509
10.514	16.019
10.532	15.9977
10.55	15.9877
10.568	15.9875
10.586	15.9942
10.604	16.004
10.622	16.0121
10.64	16.0147
10.658	16.0096
10.676	15.9962
10.694	15.976
10.712	15.9516
10.73	15.9259
10.748	15.9016
10.766	15.8809
10.784	15.8653
10.802	15.8542
10.82	15.8447
10.838	15.8319
10.856	15.8107
10.874	15.7781
10.892	15.7343
10.91	15.6817
10.928	15.6245
10.946	15.5676
10.964	15.5163
10.982	15.4756
11	15.4492
11.018	15.4384
11.036	15.4401
11.054	15.4479
11.072	15.454
11.09	15.4518
11.108	15.4392
11.126	15.4184
11.144	15.3951
11.162	15.3757
11.18	15.3649
11.198	15.3652
11.216	15.3758
11.234	15.3935
11.252	15.4132
11.27	15.4287
11.288	15.4331
11.306	15.422
11.324	15.3937
11.342	15.3505
11.36	15.2983
11.378	15.2433
11.396	15.1891
11.414	15.1368
11.432	15.0849
11.45	15.0317
11.468	14.9777
11.486	14.926
11.504	14.8812
11.522	14.8479
11.54	14.8281
11.558	14.8207
11.576	14.8217
11.594	14.8268
11.612	14.8319
11.63	14.8342
11.648	14.8327
11.666	14.8272
11.684	14.8189
11.702	14.8096
11.72	14.8018
11.738	14.7979
11.756	14.7993
11.774	14.8064
11.792	14.8171
11.81	14.8282
11.828	14.8364
11.846	14.8381
11.864	14.8308
11.882	14.8131
11.9	14.7842
11.918	14.7445
11.936	14.6955
11.954	14.6401
11.972	14.5833
11.99	14.5308
12.008	14.4878
12.026	14.4566
12.044	14.4366
12.062	14.4244
12.08	14.4164
12.098	14.4101
12.116	14.4067
12.134	14.4116
12.152	14.4308
12.17	14.4683
12.188	14.5222
12.206	14.5831
12.224	14.6354
12.242	14.6624
12.26	14.6515
12.278	14.5978
12.296	14.5075
12.314	14.3957
12.332	14.2829
12.35	14.1884
12.368	14.1269
12.386	14.1043
12.404	14.1159
12.422	14.1489
12.44	14.1866
12.458	14.2138
12.476	14.2205
12.494	14.2043
12.512	14.1695
12.53	14.1257
12.548	14.0829
12.566	14.049
12.584	14.0283
12.602	14.0209
12.62	14.0239
12.638	14.0322
12.656	14.0405
12.674	14.0444
12.692	14.041
12.71	14.0293
12.728	14.0104
12.746	13.9864
12.764	13.9601
12.782	13.9343
12.8	13.9113
12.818	13.8917
12.836	13.8749
12.854	13.8582
12.872	13.8388
12.89	13.8133
12.908	13.7787
12.926	13.7336
12.944	13.6786
12.962	13.617
12.98	13.5542
12.998	13.4967
13.016	13.4507
13.034	13.4212
13.052	13.4106
13.07	13.4183
13.088	13.4406
13.106	13.4719
13.124	13.5055
13.142	13.5349
13.16	13.5555
13.178	13.5647
13.196	13.562
13.214	13.5491
13.232	13.5285
13.25	13.5031
13.268	13.4755
13.286	13.4479
13.304	13.4214
13.322	13.397
13.34	13.375
13.358	13.3556
13.376	13.3383
13.394	13.3225
13.412	13.3072
13.43	13.2914
13.448	13.274
13.466	13.2544
13.484	13.2327
13.502	13.2097
13.52	13.1871
13.538	13.1668
13.556	13.1505
13.574	13.1395
13.592	13.1342
13.61	13.134
13.628	13.1373
13.646	13.1424
13.664	13.1471
13.682	13.1501
13.7	13.1501
13.718	13.1469
13.736	13.1404
13.754	13.1306
13.772	13.1176
13.79	13.1011
13.808	13.0807
13.826	13.0559
13.844	13.0266
13.862	12.9934
13.88	12.9577
13.898	12.9218
13.916	12.8879
13.934	12.8586
13.952	12.8357
13.97	12.82
13.988	12.8112
14.006	12.8077
14.024	12.8071
14.042	12.8063
14.06	12.803
14.078	12.7952
14.096	12.7823
14.114	12.7647
14.132	12.7441
14.15	12.723
14.168	12.7042
14.186	12.6909
14.204	12.6853
14.222	12.6886
14.24	12.7011
14.258	12.7212
14.276	12.7464
14.294	12.7732
14.312	12.7976
14.33	12.8158
14.348	12.8244
14.366	12.8209
14.384	12.8039
14.402	12.7739
14.42	12.7323
14.438	12.6818
14.456	12.6255
14.474	12.5669
14.492	12.5095
14.51	12.4563
14.528	12.4096
14.546	12.3705
14.564	12.3397
14.582	12.3169
14.6	12.3016
14.618	12.2928
14.636	12.289
14.654	12.2886
14.672	12.29
14.69	12.2915
14.708	12.2914
14.726	12.2882
14.744	12.2803
14.762	12.2666
14.78	12.2465
14.798	12.2196
14.816	12.1863
14.834	12.1471
14.852	12.1033
14.87	12.056
14.888	12.0067
14.906	11.9566
14.924	11.9068
14.942	11.858
14.96	11.8106
14.978	11.7648
14.996	11.7206
15.014	11.6779
15.032	11.6367
15.05	11.5974
15.068	11.5603
15.086	11.526
15.104	11.4954
15.122	11.4693
15.14	11.4484
15.158	11.4331
15.176	11.4233
15.194	11.4191
15.212	11.4197
15.23	11.4243
15.248	11.4319
15.266	11.4416
15.284	11.4522
15.302	11.4628
15.32	11.4727
15.338	11.4811
15.356	11.487
15.374	11.4898
15.392	11.4888
15.41	11.4831
15.428	11.4719
15.446	11.4543
15.464	11.43
15.482	11.3989
15.5	11.3612
15.518	11.3179
15.536	11.2706
15.554	11.221
15.572	11.1716
15.59	11.1251
15.608	11.0839
15.626	11.0498
15.644	11.0248
15.662	11.0098
15.68	11.0048
15.698	11.0094
15.716	11.0225
15.734	11.0421
15.752	11.0664
15.77	11.0936
15.788	11.121
15.806	11.147
15.824	11.1702
15.842	11.1893
15.86	11.2039
15.878	11.2138
15.896	11.2192
15.914	11.2211
15.932	11.2204
15.95	11.218
15.968	11.215
15.986	11.2128
16.004	11.2119
16.022	11.2131
16.04	11.2167
16.058	11.2226
16.076	11.2304
16.094	11.2398
16.112	11.2498
16.13	11.2596
16.148	11.2683
16.166	11.2746
16.184	11.2779
16.202	11.2773
16.22	11.2718
16.238	11.2611
16.256	11.245
16.274	11.2232
16.292	11.196
16.31	11.1638
16.328	11.1273
16.346	11.0876
16.364	11.0453
16.382	11.0023
16.4	10.9599
16.418	10.9191
16.436	10.8818
16.454	10.8489
16.472	10.8213
16.49	10.7996
16.508	10.7835
16.526	10.7728
16.544	10.7664
16.562	10.7628
16.58	10.7608
16.598	10.7583
16.616	10.7538
16.634	10.7461
16.652	10.7337
16.67	10.7162
16.688	10.6932
16.706	10.6653
16.724	10.6331
16.742	10.5977
16.76	10.5609
16.778	10.5237
16.796	10.4878
16.814	10.4548
16.832	10.4253
16.85	10.4005
16.868	10.3807
16.886	10.3659
16.904	10.3558
16.922	10.3499
16.94	10.3475
16.958	10.3473
16.976	10.3488
16.994	10.3506
17.012	10.3519
17.03	10.3519
17.048	10.3494
17.066	10.3443
17.084	10.3358
17.102	10.3238
17.12	10.3082
17.138	10.2894
17.156	10.268
17.174	10.2444
17.192	10.2201
17.21	10.1957
17.228	10.1729
17.246	10.1527
17.264	10.1363
17.282	10.1253
17.3	10.1202
17.318	10.1218
17.336	10.1302
17.354	10.1453
17.372	10.1664
17.39	10.1927
17.408	10.2228
17.426	10.2553
17.444	10.2889
17.462	10.3213
17.48	10.3519
17.498	10.3785
17.516	10.4007
17.534	10.4174
17.552	10.4282
17.57	10.4332
17.588	10.4324
17.606	10.4262
17.624	10.4151
17.642	10.3997
17.66	10.3806
17.678	10.3586
17.696	10.3342
17.714	10.3082
17.732	10.2813
17.75	10.254
17.768	10.227
17.786	10.2008
17.804	10.1765
17.822	10.1544
17.84	10.1355
17.858	10.1203
17.876	10.1094
17.894	10.1029
17.912	10.101
17.93	10.1031
17.948	10.109
17.966	10.1169
17.984	10.126
18.002	10.1342
18.02	10.1396
18.038	10.1405
18.056	10.1344
18.074	10.1203
18.092	10.096
18.11	10.0613
18.128	10.0155
18.146	9.959076
18.164	9.892971
18.182	9.818855
18.2	9.738438
18.218	9.654819
18.236	9.569485
18.254	9.486565
18.272	9.407017
18.29	9.334683
18.308	9.269973
18.326	9.215605
18.344	9.171516
18.362	9.138583
18.38	9.116309
18.398	9.104291
18.416	9.101430
18.434	9.106594
18.452	9.118180
18.47	9.135096
18.488	9.155527
18.506	9.178751
18.524	9.203061
18.542	9.228053
18.56	9.252455
18.578	9.276105
18.596	9.298107
18.614	9.318410
18.632	9.336147
18.65	9.351277
18.668	9.362991
18.686	9.371182
18.704	9.374749
18.722	9.373616
18.74	9.366819
18.758	9.354360
18.776	9.335594
18.794	9.310736
18.812	9.279690
18.83	9.243018
18.848	9.201411
18.866	9.155700
18.884	9.107180
18.902	9.056890
18.92	9.006593
18.938	8.957258
18.956	8.910728
18.974	8.867710
18.992	8.829831
19.01	8.797386
19.028	8.771504
19.046	8.752082
19.064	8.739657
19.082	8.733749
19.1	8.734109
19.118	8.740181
19.136	8.751131
19.154	8.766480
19.172	8.784995
19.19	8.806444
19.208	8.829648
19.226	8.854514
19.244	8.879963
19.262	8.906084
19.28	8.932383
19.298	8.958894
19.316	8.985302
19.334	9.011653
19.352	9.038035
19.37	9.064445
19.388	9.091020
19.406	9.117762
19.424	9.144665
19.442	9.171770
19.46	9.198798
19.478	9.225825
19.496	9.252237
19.514	9.277925
19.532	9.302486
19.55	9.325821
19.568	9.347390
19.586	9.366664
19.604	9.383443
19.622	9.397079
19.64	9.407496
19.658	9.413752
19.676	9.415961
19.694	9.413440
19.712	9.406269
19.73	9.394116
19.748	9.376902
19.766	9.355031
19.784	9.328434
19.802	9.297764
19.82	9.263185
19.838	9.225347
19.856	9.185149
19.874	9.142731
19.892	9.099409
19.91	9.055046
19.928	9.011071
19.946	8.967365
19.964	8.924823
19.982	8.883573
20	8.843898
20.018	8.806118
20.036	8.770061
20.054	8.735757
20.072	8.703105
20.09	8.671708
20.108	8.641624
20.126	8.612342
20.144	8.583858
20.162	8.555938
20.18	8.528414
20.198	8.501358
20.216	8.474677
20.234	8.448477
20.252	8.423176
20.27	8.398678
20.288	8.375574
20.306	8.353776
20.324	8.333872
20.342	8.316235
20.36	8.300917
20.378	8.288468
20.396	8.278769
20.414	8.272357
20.432	8.269262
20.45	8.269391
20.468	8.272800
20.486	8.279327
20.504	8.288788
20.522	8.301185
20.54	8.316005
20.558	8.333353
20.576	8.352657
20.594	8.373733
20.612	8.396392
20.63	8.420083
20.648	8.444923
20.666	8.470017
20.684	8.495457
20.702	8.520687
20.72	8.545410
20.738	8.569487
20.756	8.591947
20.774	8.613064
20.792	8.631664
20.81	8.647690
20.828	8.660639
20.846	8.669622
20.864	8.674886
20.882	8.675513
20.9	8.671528
20.918	8.662807
20.936	8.649044
20.954	8.630483
20.972	8.607467
20.99	8.579769
21.008	8.548536
21.026	8.513902
21.044	8.476410
21.062	8.437746
21.08	8.397375
21.098	8.357409
21.116	8.318113
21.134	8.280097
21.152	8.245197
21.17	8.212883
21.188	8.184501
21.206	8.160396
21.224	8.140463
21.242	8.125200
21.26	8.114527
21.278	8.107709
21.296	8.104976
21.314	8.105565
21.332	8.108220
21.35	8.113436
21.368	8.119175
21.386	8.125120
21.404	8.130885
21.422	8.134693
21.44	8.137062
21.458	8.136806
21.476	8.133229
21.494	8.126682
21.512	8.116815
21.53	8.103397
21.548	8.087378
21.566	8.069086
21.584	8.048521
21.602	8.027734
21.62	8.006308
21.638	7.985452
21.656	7.966916
21.674	7.950022
21.692	7.936437
21.71	7.926662
21.728	7.920534
21.746	7.918952
21.764	7.921992
21.782	7.928993
21.8	7.939891
21.818	7.954677
21.836	7.971197
21.854	7.989839
21.872	8.009438
21.89	8.027406
21.908	8.044748
21.926	8.059277
21.944	8.069520
21.962	8.076147
21.98	8.077083
21.998	8.072096
22.016	8.061280
22.034	8.043827
22.052	8.019685
22.07	7.989624
22.088	7.953830
22.106	7.912165
22.124	7.866799
22.142	7.817714
22.16	7.765460
22.178	7.712836
22.196	7.659030
22.214	7.605588
22.232	7.554714
22.25	7.505433
22.268	7.459458
22.286	7.417951
22.304	7.380287
22.322	7.347334
22.34	7.319452
22.358	7.296253
22.376	7.277511
22.394	7.263576
22.412	7.253667
22.43	7.246869
22.448	7.243753
22.466	7.242977
22.484	7.243562
22.502	7.246100
22.52	7.248941
22.538	7.251418
22.556	7.253913
22.574	7.255107
22.592	7.254861
22.61	7.253220
22.628	7.249375
22.646	7.243457
22.664	7.235306
22.682	7.224412
22.7	7.210964
22.718	7.194745
22.736	7.175457
22.754	7.153351
22.772	7.127939
22.79	7.098843
22.808	7.066362
22.826	7.029865
22.844	6.988870
22.862	6.943652
22.88	6.894188
22.898	6.840415
22.916	6.782395
22.934	6.720334
22.952	6.654247
22.97	6.584158
22.988	6.510423
23.006	6.433056
23.024	6.352093
23.042	6.267984
23.06	6.180442
23.078	6.089837
23.096	5.997442
23.114	5.903164
23.132	5.807139
23.15	5.710474
23.168	5.613156
23.186	5.515178
23.204	5.417151
23.222	5.319042
23.24	5.220867
23.258	5.122982
23.276	5.025465
23.294	4.928189
23.312	4.831101
23.33	4.734093
23.348	4.637305
23.366	4.540994
23.384	4.444857
23.402	4.349241
23.42	4.255080
23.438	4.162110
23.456	4.070568
23.474	3.981831
23.492	3.895974
23.51	3.812849
23.528	3.733556
23.546	3.658057
23.564	3.586251
23.582	3.519747
23.6	3.458918
23.618	3.403255
23.636	3.354489
23.654	3.313491
23.672	3.279475
23.69	3.253515
23.708	3.236479
23.726	3.227891
23.744	3.227663
23.762	3.235841
23.78	3.252532
23.798	3.277237
23.816	3.309493
23.834	3.349792
23.852	3.397316
23.87	3.450918
23.888	3.511179
23.906	3.577478
23.924	3.648276
23.942	3.723908
23.96	3.804189
23.978	3.887150
23.996	3.972244
24.014	4.060146
24.032	4.149199
24.05	4.238523
24.068	4.329134
24.086	4.419212
24.104	4.507111
24.122	4.594184
24.14	4.678885
24.158	4.758999
24.176	4.836046
24.194	4.908671
24.212	4.973334
24.23	5.029944
24.248	5.079261
24.266	5.117765
24.284	5.143921
24.302	5.159958
24.32	5.161848
24.338	5.145944
24.356	5.115369
24.374	5.067019
24.392	4.995918
24.41	4.903441
24.428	4.789390
24.446	4.649333
24.464	4.481502
24.482	4.288123
24.5	4.066712
24.518	3.814887
24.536	3.533237
24.554	3.223077
24.572	2.885481
24.59	2.518513
24.608	2.124125
24.626	1.707301
24.644	1.268661
24.662	0.805161
24.68	0.326405
24.698	-0.159271
24.716	-0.659572
24.734	-1.166888
24.752	-1.668469
24.77	-2.166422
24.788	-2.662552
24.806	-3.141352
24.824	-3.592910
24.842	-4.028015
24.86	-4.435166
24.878	-4.799935
24.896	-5.127559
24.914	-5.417151
24.932	-5.656285
24.95	-5.838022
24.968	-5.969505
24.986	-6.045928
25.004	-6.061727
25.022	-6.018123
25.04	-5.916399
25.058	-5.755765
25.076	-5.534750
25.094	-5.253550
25.112	-4.916583
25.13	-4.527919
25.148	-4.082793
25.166	-3.585793
25.184	-3.046336
25.202	-2.467134
25.22	-1.841899
25.238	-1.182779
25.256	-0.502170
25.274	0.208210
25.292	0.943862
25.31	1.689242
25.328	2.436604
25.346	3.197403
25.364	3.957846
25.382	4.701948
25.4	5.434949
25.418	6.157689
25.436	6.855246
25.454	7.516648
25.472	8.152718
25.49	8.755825
25.508	9.314203
25.526	9.825182
25.544	10.2946
25.562	10.7168
25.58	11.0859
25.598	11.403
25.616	11.6701
25.634	11.8877
25.652	12.0552
25.67	12.1703
25.688	12.2392
25.706	12.2688
25.724	12.2567
25.742	12.2014
25.76	12.1142
25.778	12.0049
25.796	11.8643
25.814	11.6981
25.832	11.5205
25.85	11.34
25.868	11.1451
25.886	10.9461
25.904	10.7566
25.922	10.5792
25.94	10.4065
25.958	10.2478
25.976	10.1127
25.994	9.999116
26.012	9.904911
26.03	9.834424
26.048	9.791474
26.066	9.774133
26.084	9.782004
26.102	9.815921
26.12	9.877216
26.138	9.966891
26.156	10.0812
26.174	10.2159
26.192	10.3701
26.21	10.5467
26.228	10.7415
26.246	10.9499
26.264	11.1744
26.282	11.4159
26.3	11.6667
26.318	11.9189
26.336	12.1776
26.354	12.4422
26.372	12.7039
26.39	12.9547
26.408	13.2029
26.426	13.4446
26.444	13.6691
26.462	13.868
26.48	14.0517
26.498	14.214
26.516	14.3431
26.534	14.431
26.552	14.488
26.57	14.5081
26.588	14.4816
26.606	14.4022
26.624	14.2778
26.642	14.1047
26.66	13.8777
26.678	13.593
26.696	13.2539
26.714	12.8614
26.732	12.416
26.75	11.9163
26.768	11.3592
26.786	10.7529
26.804	10.1064
26.822	9.422032
26.84	8.690939
26.858	7.924335
26.876	7.134737
26.894	6.326750
26.912	5.488973
26.93	4.632643
26.948	3.770601
26.966	2.871119
26.984	1.867314
27.002	0.908943
27.02	0.159607
27.028	-0.041055