File: Bakgrunnsmateriale/MATLAB/FTIR/ftir_data/LPE453/Mapping_121/LPE453_t85.asc
PE IR       SPECTRUM    SPECTRUM    ASCII       PEDS        1.60
  -1
LPD3BD~1.ASC
17/05/16
21:18:41.00
17/05/16
21:19:07.00
tln
$LPE453_t0085$<tbV0>[-5.2,5.2,8.0,0.0,27,1,0]
27.028
64

2002,4.07
MIRTGS : RIGHTBACK : INTERNAL 2
MIR : ON : INTERNAL 2
OPTKBR

0.200000
8
8.000000
FILLER
RATIO
SPECTRUM
UNLOCKED 256

DOUBLE
64
COMBINED
1
0
0

0.002000
RATIO

1
0
TRUE
51149
0
LEFT NOT FITTED RIGHT NOT FITTED 0
NONE
NONE
15600
12
4.427000
51148
TRUE
1 0 8 72 0 0 0 0

15798

#HDR
-1
-1
#GR
µM
%T
2.38419e-05
0.0
2.000000
0.002000
12515
8
36.8863
-9.361505
#DATA
2.000000	 0.027561
2.018000	 -0.248657
2.036000	 0.051550
2.054000	 -0.001569
2.072000	 0.199222
2.090000	 0.466089
2.108000	 0.239317
2.126000	 0.091563
2.144000	 0.587492
2.162000	 -0.088500
2.180000	 -0.452443
2.198000	 -0.806747
2.216000	 -0.584593
2.234000	 -0.572186
2.252000	 -0.021990
2.270000	 -0.069461
2.288000	 0.534992
2.306000	 0.231202
2.324000	 0.231304
2.342000	 0.221965
2.360000	 -0.010362
2.378000	 0.242252
2.396000	 0.533071
2.414000	 0.073299
2.432000	 0.095721
2.450000	 0.107678
2.468000	 0.267191
2.486000	 -0.059112
2.504000	 -0.070589
2.522000	 0.142716
2.540000	 0.080508
2.558000	 -0.069875
2.576000	 0.060679
2.594000	 -0.072673
2.612000	 -0.020547
2.630000	 0.061230
2.648000	 0.028969
2.666000	 0.132735
2.684000	 0.095581
2.702000	 -0.115755
2.720000	 0.141455
2.738000	 0.153189
2.756000	 -0.016149
2.774000	 0.072311
2.792000	 0.006125
2.810000	 0.043735
2.828000	 -0.043640
2.846000	 0.040921
2.864000	 0.062754
2.882000	 -0.042304
2.900000	 0.028455
2.918000	 0.081558
2.936000	 0.072697
2.954000	 0.032564
2.972000	 0.064907
2.990000	 0.042608
3.008000	 -0.030709
3.026000	 0.145672
3.044000	 -0.071437
3.062000	 0.093344
3.080000	 0.039957
3.098000	 0.016028
3.116000	 0.039093
3.134000	 -0.015493
3.152000	 0.165613
3.170000	 0.212243
3.188000	 -0.045659
3.206000	 0.097792
3.224000	 -0.064521
3.242000	 -0.043750
3.260000	 -0.015929
3.278000	 0.054111
3.296000	 0.161919
3.314000	 0.006185
3.332000	 0.011252
3.350000	 0.081743
3.368000	 0.005204
3.386000	 0.038796
3.404000	 -0.098723
3.422000	 -0.010301
3.440000	 0.131517
3.458000	 -0.122998
3.476000	 0.039874
3.494000	 -0.005500
3.512000	 0.055421
3.530000	 -0.037361
3.548000	 -0.143769
3.566000	 -0.005456
3.584000	 0.101013
3.602000	 0.001356
3.620000	 -0.002960
3.638000	 0.114167
3.656000	 0.042975
3.674000	 0.009419
3.692000	 0.067189
3.710000	 0.032789
3.728000	 -0.120333
3.746000	 0.026995
3.764000	 0.090728
3.782000	 -0.030557
3.800000	 -0.066117
3.818000	 -0.028928
3.836000	 -0.036471
3.854000	 0.045278
3.872000	 0.080283
3.890000	 0.036470
3.908000	 0.097932
3.926000	 -0.070586
3.944000	 0.083043
3.962000	 -0.000554
3.980000	 0.083386
3.998000	 -0.031444
4.016000	 -0.051985
4.034000	 0.026262
4.052000	 0.105347
4.070000	 0.109894
4.088000	 0.048485
4.106000	 0.095148
4.124000	 0.020729
4.141999	 0.162581
4.160000	 0.106291
4.178000	 0.018802
4.196000	 0.117710
4.214000	 0.101520
4.232000	 0.095525
4.250000	 0.134650
4.268000	 0.357655
4.286000	 0.290586
4.304000	 0.440095
4.322000	 0.529741
4.340000	 0.595948
4.358000	 0.651775
4.375999	 0.955532
4.394000	 1.182443
4.412000	 1.343526
4.430000	 1.671214
4.448000	 2.113006
4.466000	 2.449043
4.484000	 2.987508
4.502000	 3.446321
4.520000	 4.126496
4.538000	 4.824967
4.556000	 5.543957
4.574000	 6.352175
4.592000	 7.165036
4.609999	 8.184709
4.628000	 9.177019
4.646000	 10.1415
4.664000	 11.173
4.682000	 12.2766
4.700000	 13.4571
4.718000	 14.4347
4.736000	 15.4639
4.754000	 16.6281
4.772000	 17.6195
4.790000	 18.6198
4.808000	 19.6454
4.826000	 20.6048
4.843999	 21.6289
4.862000	 22.4071
4.880000	 23.3397
4.898000	 24.1485
4.916000	 25.0267
4.934000	 25.8112
4.952000	 26.5396
4.970000	 27.1719
4.988000	 27.8628
5.006000	 28.5024
5.024000	 28.9554
5.042000	 29.6028
5.060000	 30.1236
5.077999	 30.5737
5.096000	 30.9711
5.114000	 31.2502
5.132000	 31.6171
5.150000	 31.9883
5.168000	 32.3786
5.186000	 32.7679
5.204000	 33.0707
5.222000	 33.3021
5.240000	 33.5304
5.258000	 33.7297
5.276000	 33.9265
5.294000	 34.1204
5.312000	 34.2718
5.330000	 34.4946
5.348000	 34.7103
5.366000	 34.9798
5.384000	 35.0872
5.402000	 35.1153
5.420000	 35.1857
5.438000	 35.2723
5.456000	 35.3788
5.474000	 35.5144
5.492000	 35.6674
5.510000	 35.8066
5.528000	 35.8955
5.546000	 35.9963
5.564000	 35.9922
5.582000	 35.8937
5.600000	 35.9186
5.618000	 35.9909
5.636000	 36.0793
5.654000	 36.2082
5.672000	 36.2895
5.690000	 36.3677
5.708000	 36.3902
5.726000	 36.3658
5.744000	 36.2972
5.762000	 36.2507
5.780000	 36.1681
5.798000	 36.2684
5.816000	 36.4333
5.834000	 36.5947
5.852000	 36.6739
5.870000	 36.6826
5.888000	 36.5241
5.906000	 36.5097
5.923999	 36.5245
5.942000	 36.4258
5.960000	 36.3409
5.978000	 36.3382
5.996000	 36.3817
6.014000	 36.4797
6.032000	 36.5657
6.050000	 36.6667
6.068000	 36.8
6.086000	 36.8805
6.104000	 36.8609
6.122000	 36.7157
6.140000	 36.5323
6.158000	 36.4479
6.176000	 36.4279
6.194000	 36.4527
6.212000	 36.5312
6.230000	 36.6032
6.248000	 36.6925
6.266000	 36.7786
6.284000	 36.8352
6.302000	 36.8015
6.320000	 36.7373
6.338000	 36.6834
6.356000	 36.564
6.374000	 36.4673
6.392000	 36.4151
6.410000	 36.355
6.428000	 36.3475
6.446000	 36.4371
6.464000	 36.5149
6.482000	 36.5877
6.500000	 36.6656
6.518000	 36.7122
6.536000	 36.7347
6.554000	 36.6965
6.572000	 36.6148
6.590000	 36.4911
6.608000	 36.3582
6.626000	 36.3068
6.644000	 36.325
6.662000	 36.3443
6.680000	 36.3387
6.698000	 36.3852
6.716000	 36.4684
6.734000	 36.4998
6.752000	 36.5398
6.770000	 36.5615
6.788000	 36.4983
6.806000	 36.4415
6.824000	 36.42
6.842000	 36.3346
6.860000	 36.1928
6.878000	 36.0654
6.896000	 35.9683
6.914000	 35.9581
6.932000	 36.0497
6.950000	 36.1674
6.968000	 36.2573
6.986000	 36.3294
7.004000	 36.4207
7.022000	 36.5102
7.040000	 36.5392
7.058000	 36.4887
7.076000	 36.3879
7.094000	 36.2848
7.112000	 36.1854
7.130000	 36.0722
7.148000	 35.9788
7.166000	 35.949
7.184000	 35.9685
7.202000	 36.0018
7.220000	 36.0516
7.238000	 36.1207
7.256000	 36.172
7.274000	 36.2044
7.292000	 36.2498
7.310000	 36.299
7.328000	 36.335
7.346000	 36.3551
7.364000	 36.3413
7.382000	 36.2896
7.400000	 36.2009
7.418000	 36.051
7.436000	 35.856
7.454000	 35.6925
7.472000	 35.6185
7.490000	 35.6348
7.508000	 35.7079
7.526000	 35.8058
7.544000	 35.9178
7.562000	 36.0136
7.580000	 36.0448
7.598000	 36.0471
7.616000	 36.1132
7.634000	 36.235
7.652000	 36.3197
7.670000	 36.3379
7.688000	 36.319
7.706000	 36.2553
7.724000	 36.127
7.742000	 35.9735
7.760000	 35.8466
7.778000	 35.7309
7.796000	 35.5892
7.814000	 35.4601
7.832000	 35.4254
7.850000	 35.501
7.868000	 35.6221
7.886000	 35.7174
7.904000	 35.7693
7.922000	 35.8112
7.940000	 35.8762
7.958000	 35.9559
7.976000	 36.0171
7.994000	 36.0413
8.012000	 36.03
8.030000	 35.9936
8.048000	 35.9409
8.065999	 35.8758
8.084000	 35.8
8.102000	 35.7109
8.120000	 35.608
8.138000	 35.5066
8.155999	 35.4242
8.173999	 35.3555
8.192000	 35.2843
8.210000	 35.2172
8.228000	 35.1846
8.246000	 35.2083
8.263999	 35.279
8.282000	 35.3676
8.300000	 35.4492
8.318000	 35.5251
8.336000	 35.6217
8.353999	 35.7354
8.372000	 35.8087
8.390000	 35.8028
8.408000	 35.749
8.426000	 35.699
8.443999	 35.6598
8.462000	 35.6064
8.480000	 35.5298
8.498000	 35.4384
8.516000	 35.3328
8.533999	 35.2091
8.552000	 35.0817
8.570000	 34.9878
8.588000	 34.9592
8.606000	 34.9932
8.624000	 35.0513
8.641999	 35.0902
8.660000	 35.0963
8.678000	 35.0916
8.696000	 35.1069
8.714000	 35.1533
8.731999	 35.2208
8.750000	 35.2976
8.768000	 35.3829
8.786000	 35.4754
8.804000	 35.5579
8.821999	 35.603
8.840000	 35.5959
8.858000	 35.549
8.876000	 35.4864
8.894000	 35.4186
8.911999	 35.3384
8.930000	 35.2409
8.948000	 35.1363
8.966000	 35.0389
8.984000	 34.9487
9.001999	 34.8541
9.020000	 34.7529
9.038000	 34.6604
9.056000	 34.5984
9.074000	 34.5777
9.092000	 34.598
9.109999	 34.654
9.128000	 34.7371
9.146000	 34.8294
9.164000	 34.9105
9.182000	 34.9747
9.199999	 35.0335
9.218000	 35.0973
9.236000	 35.1601
9.254000	 35.2069
9.272000	 35.2321
9.289999	 35.2436
9.308000	 35.2497
9.326000	 35.2479
9.344000	 35.23
9.362000	 35.1896
9.379999	 35.1211
9.398000	 35.0172
9.416000	 34.8791
9.434000	 34.7286
9.452000	 34.6007
9.469999	 34.5159
9.488000	 34.4601
9.506000	 34.4013
9.524000	 34.3267
9.542000	 34.258
9.560000	 34.2278
9.577999	 34.2449
9.596000	 34.2863
9.614000	 34.3209
9.632000	 34.3355
9.650000	 34.3394
9.667999	 34.3489
9.686000	 34.3749
9.704000	 34.4247
9.722000	 34.5055
9.740000	 34.6173
9.757999	 34.7412
9.776000	 34.8411
9.794000	 34.8842
9.812000	 34.8673
9.830000	 34.8186
9.847999	 34.7721
9.866000	 34.7397
9.884000	 34.7053
9.902000	 34.6444
9.920000	 34.5481
9.937999	 34.4316
9.956000	 34.3193
9.974000	 34.2263
9.992000	 34.1522
10.01	34.0899
10.028	34.0366
10.046	33.9967
10.064	33.9742
10.082	33.9652
10.1	33.9584
10.118	33.9439
10.136	33.9225
10.154	33.9053
10.172	33.9053
10.19	33.9261
10.208	33.9586
10.226	33.9877
10.244	34.0039
10.262	34.012
10.28	34.0279
10.298	34.0666
10.316	34.1314
10.334	34.21
10.352	34.2833
10.37	34.3354
10.388	34.3619
10.406	34.3679
10.424	34.3614
10.442	34.3467
10.46	34.3241
10.478	34.293
10.496	34.2543
10.514	34.2077
10.532	34.1508
10.55	34.0802
10.568	33.9945
10.586	33.8975
10.604	33.7972
10.622	33.7024
10.64	33.6177
10.658	33.5419
10.676	33.4702
10.694	33.3992
10.712	33.3294
10.73	33.2656
10.748	33.2148
10.766	33.1849
10.784	33.1807
10.802	33.2009
10.82	33.2368
10.838	33.2741
10.856	33.3012
10.874	33.3144
10.892	33.3209
10.91	33.3339
10.928	33.3637
10.946	33.4127
10.964	33.4743
10.982	33.5376
11	33.5955
11.018	33.6468
11.036	33.6929
11.054	33.7323
11.072	33.7579
11.09	33.7597
11.108	33.7322
11.126	33.6778
11.144	33.6062
11.162	33.5293
11.18	33.4554
11.198	33.3854
11.216	33.3151
11.234	33.24
11.252	33.1587
11.27	33.0738
11.288	32.9899
11.306	32.9092
11.324	32.8308
11.342	32.7513
11.36	32.6688
11.378	32.5848
11.396	32.5046
11.414	32.4359
11.432	32.3853
11.45	32.3552
11.468	32.3434
11.486	32.3439
11.504	32.3494
11.522	32.354
11.54	32.3555
11.558	32.3556
11.576	32.3603
11.594	32.3776
11.612	32.4153
11.63	32.4774
11.648	32.562
11.666	32.6608
11.684	32.7626
11.702	32.8569
11.72	32.9369
11.738	33.0013
11.756	33.0535
11.774	33.0988
11.792	33.1407
11.81	33.1789
11.828	33.2094
11.846	33.2262
11.864	33.2244
11.882	33.2018
11.9	33.1597
11.918	33.1021
11.936	33.0338
11.954	32.9598
11.972	32.8838
11.99	32.8075
12.008	32.73
12.026	32.6478
12.044	32.5573
12.062	32.4568
12.08	32.3483
12.098	32.2381
12.116	32.1355
12.134	32.0494
12.152	31.9846
12.17	31.9398
12.188	31.9074
12.206	31.8754
12.224	31.8318
12.242	31.7694
12.26	31.6883
12.278	31.5964
12.296	31.5077
12.314	31.4375
12.332	31.3981
12.35	31.3951
12.368	31.4272
12.386	31.4867
12.404	31.5621
12.422	31.6423
12.44	31.7191
12.458	31.7896
12.476	31.8549
12.494	31.9195
12.512	31.9881
12.53	32.0624
12.548	32.1404
12.566	32.2162
12.584	32.2821
12.602	32.3306
12.62	32.3574
12.638	32.3625
12.656	32.3499
12.674	32.3264
12.692	32.2988
12.71	32.2723
12.728	32.2494
12.746	32.2291
12.764	32.2085
12.782	32.1836
12.8	32.1516
12.818	32.1117
12.836	32.0657
12.854	32.0161
12.872	31.9659
12.89	31.9169
12.908	31.8695
12.926	31.8219
12.944	31.7711
12.962	31.7143
12.98	31.6498
12.998	31.5779
13.016	31.5008
13.034	31.4218
13.052	31.3448
13.07	31.2729
13.088	31.2076
13.106	31.1492
13.124	31.0968
13.142	31.0492
13.16	31.0056
13.178	30.9666
13.196	30.9333
13.214	30.9072
13.232	30.8894
13.25	30.8795
13.268	30.8754
13.286	30.8734
13.304	30.8692
13.322	30.8586
13.34	30.8396
13.358	30.8127
13.376	30.7815
13.394	30.7522
13.412	30.7321
13.43	30.728
13.448	30.7448
13.466	30.7841
13.484	30.844
13.502	30.9194
13.52	31.0032
13.538	31.0877
13.556	31.1659
13.574	31.2334
13.592	31.2877
13.61	31.3288
13.628	31.358
13.646	31.3777
13.664	31.3899
13.682	31.3959
13.7	31.396
13.718	31.3903
13.736	31.3781
13.754	31.3599
13.772	31.3362
13.79	31.3086
13.808	31.2783
13.826	31.2471
13.844	31.2157
13.862	31.1841
13.88	31.1512
13.898	31.1154
13.916	31.075
13.934	31.0285
13.952	30.9752
13.97	30.9155
13.988	30.8508
14.006	30.7831
14.024	30.7143
14.042	30.6458
14.06	30.5778
14.078	30.5092
14.096	30.4375
14.114	30.36
14.132	30.2739
14.15	30.1777
14.168	30.0715
14.186	29.9578
14.204	29.8407
14.222	29.7266
14.24	29.6216
14.258	29.532
14.276	29.4618
14.294	29.4136
14.312	29.3874
14.33	29.3808
14.348	29.3904
14.366	29.4113
14.384	29.4393
14.402	29.4709
14.42	29.5041
14.438	29.5381
14.456	29.5732
14.474	29.6102
14.492	29.6496
14.51	29.6915
14.528	29.7346
14.546	29.7773
14.564	29.8173
14.582	29.8526
14.6	29.8815
14.618	29.9034
14.636	29.9192
14.654	29.9308
14.672	29.9414
14.69	29.9542
14.708	29.9724
14.726	29.9989
14.744	30.0354
14.762	30.082
14.78	30.1377
14.798	30.2001
14.816	30.2665
14.834	30.3329
14.852	30.3958
14.87	30.4521
14.888	30.4995
14.906	30.5368
14.924	30.5631
14.942	30.579
14.96	30.5854
14.978	30.5834
14.996	30.574
15.014	30.5579
15.032	30.5356
15.05	30.507
15.068	30.4719
15.086	30.43
15.104	30.3805
15.122	30.3232
15.14	30.258
15.158	30.1854
15.176	30.1061
15.194	30.0215
15.212	29.9332
15.23	29.8432
15.248	29.7533
15.266	29.6655
15.284	29.5815
15.302	29.5025
15.32	29.4291
15.338	29.3616
15.356	29.3
15.374	29.2435
15.392	29.1909
15.41	29.1413
15.428	29.0931
15.446	29.0456
15.464	28.9979
15.482	28.9498
15.5	28.9015
15.518	28.8542
15.536	28.8095
15.554	28.7688
15.572	28.7338
15.59	28.7061
15.608	28.686
15.626	28.6734
15.644	28.6675
15.662	28.6661
15.68	28.667
15.698	28.6679
15.716	28.6659
15.734	28.6592
15.752	28.6468
15.77	28.6284
15.788	28.6047
15.806	28.5773
15.824	28.5477
15.842	28.5181
15.86	28.4907
15.878	28.4666
15.896	28.447
15.914	28.4323
15.932	28.4219
15.95	28.4153
15.968	28.4117
15.986	28.4096
16.004	28.4085
16.022	28.4076
16.04	28.4067
16.058	28.4059
16.076	28.4057
16.094	28.4067
16.112	28.4094
16.13	28.4143
16.148	28.4215
16.166	28.4308
16.184	28.442
16.202	28.4545
16.22	28.4676
16.238	28.481
16.256	28.4942
16.274	28.5071
16.292	28.5201
16.31	28.5333
16.328	28.5478
16.346	28.5639
16.364	28.5823
16.382	28.6031
16.4	28.6258
16.418	28.6498
16.436	28.6735
16.454	28.6952
16.472	28.7134
16.49	28.7255
16.508	28.7301
16.526	28.7259
16.544	28.7119
16.562	28.6883
16.58	28.6553
16.598	28.6144
16.616	28.5671
16.634	28.5149
16.652	28.4605
16.67	28.4053
16.688	28.3509
16.706	28.2986
16.724	28.2486
16.742	28.201
16.76	28.1554
16.778	28.1113
16.796	28.0675
16.814	28.023
16.832	27.9771
16.85	27.9285
16.868	27.8771
16.886	27.8227
16.904	27.7655
16.922	27.7057
16.94	27.6439
16.958	27.581
16.976	27.5176
16.994	27.4545
17.012	27.3925
17.03	27.3322
17.048	27.2747
17.066	27.2202
17.084	27.1695
17.102	27.1233
17.12	27.082
17.138	27.0461
17.156	27.016
17.174	26.9919
17.192	26.9738
17.21	26.9615
17.228	26.9546
17.246	26.9522
17.264	26.9538
17.282	26.9579
17.3	26.9638
17.318	26.9701
17.336	26.9758
17.354	26.9802
17.372	26.9825
17.39	26.9827
17.408	26.9807
17.426	26.9771
17.444	26.9723
17.462	26.9678
17.48	26.9642
17.498	26.963
17.516	26.9651
17.534	26.9713
17.552	26.9825
17.57	26.9987
17.588	27.0201
17.606	27.0462
17.624	27.0766
17.642	27.1099
17.66	27.1457
17.678	27.182
17.696	27.2183
17.714	27.253
17.732	27.2855
17.75	27.315
17.768	27.3411
17.786	27.3637
17.804	27.3826
17.822	27.398
17.84	27.4106
17.858	27.4208
17.876	27.4293
17.894	27.4371
17.912	27.4445
17.93	27.4525
17.948	27.4613
17.966	27.4715
17.984	27.4831
18.002	27.4964
18.02	27.511
18.038	27.5269
18.056	27.5434
18.074	27.5603
18.092	27.5769
18.11	27.5928
18.128	27.6074
18.146	27.6204
18.164	27.6313
18.182	27.6399
18.2	27.6459
18.218	27.6492
18.236	27.65
18.254	27.6483
18.272	27.6441
18.29	27.6381
18.308	27.6302
18.326	27.6208
18.344	27.6099
18.362	27.5982
18.38	27.5855
18.398	27.5718
18.416	27.5571
18.434	27.5415
18.452	27.5244
18.47	27.5054
18.488	27.4839
18.506	27.4597
18.524	27.4314
18.542	27.3988
18.56	27.3608
18.578	27.3174
18.596	27.2676
18.614	27.2113
18.632	27.1483
18.65	27.0788
18.668	27.0031
18.686	26.9215
18.704	26.8353
18.722	26.7448
18.74	26.6517
18.758	26.5566
18.776	26.4613
18.794	26.3664
18.812	26.2736
18.83	26.1832
18.848	26.0966
18.866	26.0141
18.884	25.9365
18.902	25.8638
18.92	25.7961
18.938	25.7334
18.956	25.6754
18.974	25.622
18.992	25.5725
19.01	25.5269
19.028	25.4846
19.046	25.4455
19.064	25.4095
19.082	25.3763
19.1	25.3457
19.118	25.3178
19.136	25.2925
19.154	25.2697
19.172	25.2494
19.19	25.2317
19.208	25.2166
19.226	25.204
19.244	25.1934
19.262	25.185
19.28	25.1784
19.298	25.1736
19.316	25.1701
19.334	25.168
19.352	25.1672
19.37	25.1677
19.388	25.1698
19.406	25.1732
19.424	25.1787
19.442	25.1862
19.46	25.1963
19.478	25.2092
19.496	25.2253
19.514	25.2448
19.532	25.2677
19.55	25.2942
19.568	25.324
19.586	25.3571
19.604	25.3928
19.622	25.4303
19.64	25.4694
19.658	25.5086
19.676	25.5479
19.694	25.5855
19.712	25.6216
19.73	25.6548
19.748	25.685
19.766	25.7118
19.784	25.7349
19.802	25.7545
19.82	25.7705
19.838	25.7837
19.856	25.7947
19.874	25.8037
19.892	25.8119
19.91	25.8191
19.928	25.8264
19.946	25.8337
19.964	25.8411
19.982	25.8489
20	25.8564
20.018	25.8636
20.036	25.8698
20.054	25.8738
20.072	25.8757
20.09	25.8734
20.108	25.8672
20.126	25.8555
20.144	25.8382
20.162	25.815
20.18	25.7852
20.198	25.7495
20.216	25.7083
20.234	25.6617
20.252	25.6119
20.27	25.5584
20.288	25.504
20.306	25.4488
20.324	25.3948
20.342	25.3435
20.36	25.2951
20.378	25.252
20.396	25.2139
20.414	25.1821
20.432	25.1568
20.45	25.1377
20.468	25.1251
20.486	25.1181
20.504	25.1158
20.522	25.1182
20.54	25.1229
20.558	25.1305
20.576	25.1387
20.594	25.1468
20.612	25.1544
20.63	25.1596
20.648	25.1628
20.666	25.1628
20.684	25.1594
20.702	25.1529
20.72	25.1429
20.738	25.1298
20.756	25.1143
20.774	25.0962
20.792	25.0765
20.81	25.0553
20.828	25.0331
20.846	25.0107
20.864	24.988
20.882	24.9659
20.9	24.9443
20.918	24.9235
20.936	24.9039
20.954	24.8854
20.972	24.868
20.99	24.8517
21.008	24.8364
21.026	24.8222
21.044	24.809
21.062	24.7969
21.08	24.7858
21.098	24.7759
21.116	24.7673
21.134	24.76
21.152	24.7542
21.17	24.75
21.188	24.7472
21.206	24.7461
21.224	24.7461
21.242	24.747
21.26	24.7489
21.278	24.7503
21.296	24.7514
21.314	24.7511
21.332	24.7478
21.35	24.742
21.368	24.7314
21.386	24.7156
21.404	24.6942
21.422	24.6653
21.44	24.6294
21.458	24.5857
21.476	24.5335
21.494	24.4733
21.512	24.4053
21.53	24.3291
21.548	24.2463
21.566	24.1578
21.584	24.0635
21.602	23.9666
21.62	23.8666
21.638	23.7655
21.656	23.6664
21.674	23.5682
21.692	23.4744
21.71	23.386
21.728	23.303
21.746	23.2284
21.764	23.1616
21.782	23.1033
21.8	23.0544
21.818	23.0144
21.836	22.983
21.854	22.9607
21.872	22.9462
21.89	22.9375
21.908	22.9358
21.926	22.9378
21.944	22.9416
21.962	22.9481
21.98	22.9528
21.998	22.9561
22.016	22.9568
22.034	22.9515
22.052	22.9411
22.07	22.9245
22.088	22.9003
22.106	22.8691
22.124	22.8311
22.142	22.7855
22.16	22.7335
22.178	22.6776
22.196	22.6164
22.214	22.5527
22.232	22.4897
22.25	22.4257
22.268	22.3648
22.286	22.3092
22.304	22.2579
22.322	22.2145
22.34	22.1798
22.358	22.1535
22.376	22.1373
22.394	22.1315
22.412	22.1353
22.43	22.148
22.448	22.1706
22.466	22.2004
22.484	22.2359
22.502	22.2781
22.52	22.323
22.538	22.369
22.556	22.4171
22.574	22.462
22.592	22.5037
22.61	22.5418
22.628	22.5722
22.646	22.5955
22.664	22.6109
22.682	22.6159
22.7	22.6109
22.718	22.596
22.736	22.5704
22.754	22.534
22.772	22.4884
22.79	22.4343
22.808	22.3709
22.826	22.3014
22.844	22.2276
22.862	22.1482
22.88	22.0671
22.898	21.9857
22.916	21.903
22.934	21.8231
22.952	21.7469
22.97	21.6737
22.988	21.6073
23.006	21.5484
23.024	21.4963
23.042	21.4537
23.06	21.4211
23.078	21.3977
23.096	21.3841
23.114	21.3806
23.132	21.3866
23.15	21.4012
23.168	21.4248
23.186	21.4568
23.204	21.4948
23.222	21.5393
23.24	21.5898
23.258	21.6441
23.276	21.7024
23.294	21.7645
23.312	21.8284
23.33	21.8941
23.348	21.9617
23.366	22.0305
23.384	22.1005
23.402	22.1717
23.42	22.2439
23.438	22.3168
23.456	22.3908
23.474	22.4666
23.492	22.544
23.51	22.6233
23.528	22.706
23.546	22.7926
23.564	22.8826
23.582	22.9766
23.6	23.0751
23.618	23.178
23.636	23.2839
23.654	23.3931
23.672	23.506
23.69	23.6195
23.708	23.732
23.726	23.8455
23.744	23.9556
23.762	24.059
23.78	24.1586
23.798	24.25
23.816	24.3283
23.834	24.3964
23.852	24.4515
23.87	24.4889
23.888	24.5099
23.906	24.5139
23.924	24.4975
23.942	24.46
23.96	24.4026
23.978	24.3249
23.996	24.226
24.014	24.1062
24.032	23.9691
24.05	23.816
24.068	23.6443
24.086	23.4607
24.104	23.2709
24.122	23.0696
24.14	22.8638
24.158	22.6634
24.176	22.4636
24.194	22.268
24.212	22.0883
24.23	21.9251
24.248	21.7757
24.266	21.6507
24.284	21.5559
24.302	21.4857
24.32	21.4463
24.338	21.4441
24.356	21.4763
24.374	21.5434
24.392	21.6476
24.41	21.7905
24.428	21.9698
24.446	22.1822
24.464	22.4281
24.482	22.7089
24.5	23.0165
24.518	23.3448
24.536	23.7004
24.554	24.0748
24.572	24.4564
24.59	24.8485
24.608	25.2504
24.626	25.6511
24.644	26.0467
24.662	26.4431
24.68	26.8305
24.698	27.1996
24.716	27.5567
24.734	27.8975
24.752	28.2137
24.77	28.5057
24.788	28.7755
24.806	29.0159
24.824	29.2221
24.842	29.3985
24.86	29.542
24.878	29.6481
24.896	29.7184
24.914	29.753
24.932	29.7486
24.95	29.7035
24.968	29.62
24.986	29.4961
25.004	29.3295
25.022	29.1202
25.04	28.8696
25.058	28.5781
25.076	28.2454
25.094	27.8708
25.112	27.4581
25.13	27.011
25.148	26.5245
25.166	26.0034
25.184	25.4573
25.202	24.8885
25.22	24.2899
25.238	23.6763
25.256	23.0627
25.274	22.4394
25.292	21.8112
25.31	21.1955
25.328	20.6014
25.346	20.0165
25.364	19.454
25.382	18.9295
25.4	18.4381
25.418	17.9787
25.436	17.5645
25.454	17.2056
25.472	16.8931
25.49	16.632
25.508	16.4305
25.526	16.2918
25.544	16.2115
25.562	16.1899
25.58	16.2275
25.598	16.3276
25.616	16.4857
25.634	16.6951
25.652	16.9538
25.67	17.2703
25.688	17.6296
25.706	18.015
25.724	18.4299
25.742	18.8794
25.76	19.3421
25.778	19.7985
25.796	20.2608
25.814	20.725
25.832	21.1759
25.85	21.6032
25.868	22.0174
25.886	22.4125
25.904	22.7798
25.922	23.1145
25.94	23.4212
25.958	23.703
25.976	23.963
25.994	24.1981
26.012	24.4096
26.03	24.6041
26.048	24.787
26.066	24.9545
26.084	25.1079
26.102	25.2511
26.12	25.3874
26.138	25.516
26.156	25.6343
26.174	25.7398
26.192	25.8375
26.21	25.9317
26.228	26.0034
26.246	26.033
26.264	26.0253
26.282	25.9875
26.3	25.8975
26.318	25.7341
26.336	25.5017
26.354	25.206
26.372	24.8402
26.39	24.3978
26.408	23.8797
26.426	23.2891
26.444	22.6281
26.462	21.8965
26.48	21.0811
26.498	20.1989
26.516	19.2737
26.534	18.3217
26.552	17.3204
26.57	16.286
26.588	15.2424
26.606	14.2062
26.624	13.1615
26.642	12.1126
26.66	11.0677
26.678	10.0314
26.696	8.997865
26.714	7.969862
26.732	6.951251
26.75	5.948471
26.768	4.964553
26.786	3.984465
26.804	2.992292
26.822	1.976657
26.84	0.945263
26.858	-0.095913
26.876	-1.141518
26.894	-2.196511
26.912	-3.274477
26.93	-4.345889
26.948	-5.378791
26.966	-6.385882
26.984	-7.435947
27.002	-8.405184
27.02	-9.156653
27.028	-9.361505