File: Bakgrunnsmateriale/MATLAB/FTIR/ftir_data/LPE453/Mapping_121/LPE453_t106.asc
PE IR       SPECTRUM    SPECTRUM    ASCII       PEDS        1.60
  -1
LP9B86~1.ASC
17/05/16
23:02:36.00
17/05/16
23:03:02.00
tln
$LPE453_t0106$<tbV0>[-2.6,10.4,8.0,0.0,27,1,0]
27.028
64

2002,4.07
MIRTGS : RIGHTBACK : INTERNAL 2
MIR : ON : INTERNAL 2
OPTKBR

0.200000
8
8.000000
FILLER
RATIO
SPECTRUM
UNLOCKED 256

DOUBLE
64
COMBINED
1
0
0

0.002000
RATIO

1
0
TRUE
51149
0
LEFT NOT FITTED RIGHT NOT FITTED 0
NONE
NONE
15600
12
4.427000
51148
TRUE
1 0 8 72 0 0 0 0

15798

#HDR
-1
-1
#GR
µM
%T
2.38419e-05
0.0
2.000000
0.002000
12515
8
36.4056
-9.694430
#DATA
2.000000	 0.073504
2.018000	 -0.080160
2.036000	 0.192539
2.054000	 -0.203217
2.072000	 0.311489
2.090000	 0.579735
2.108000	 0.297965
2.126000	 -0.789093
2.144000	 1.117705
2.162000	 0.551428
2.180000	 -0.630622
2.198000	 -0.690471
2.216000	 -0.077932
2.234000	 0.155056
2.252000	 -0.264796
2.270000	 0.188512
2.288000	 0.399037
2.306000	 -0.042752
2.324000	 0.327261
2.342000	 -0.052225
2.360000	 0.135105
2.378000	 0.119044
2.396000	 0.342265
2.414000	 0.037682
2.432000	 0.148647
2.450000	 0.076321
2.468000	 0.065447
2.486000	 0.091235
2.504000	 0.328694
2.522000	 0.064267
2.540000	 0.039028
2.558000	 0.018700
2.576000	 0.071745
2.594000	 0.038703
2.612000	 0.074604
2.630000	 0.153505
2.648000	 0.095819
2.666000	 -0.053510
2.684000	 0.179403
2.702000	 0.101577
2.720000	 -0.043714
2.738000	 -0.006134
2.756000	 0.051516
2.774000	 0.137002
2.792000	 0.065659
2.810000	 -0.040792
2.828000	 0.170537
2.846000	 -0.016105
2.864000	 0.122731
2.882000	 -0.006106
2.900000	 0.024462
2.918000	 -0.018373
2.936000	 -0.107393
2.954000	 0.109473
2.972000	 0.077808
2.990000	 0.018443
3.008000	 0.136873
3.026000	 0.062896
3.044000	 0.084477
3.062000	 -0.085612
3.080000	 -0.008947
3.098000	 0.001040
3.116000	 0.047007
3.134000	 0.022669
3.152000	 0.021891
3.170000	 -0.022711
3.188000	 0.194653
3.206000	 0.124068
3.224000	 0.069940
3.242000	 -0.053356
3.260000	 0.208586
3.278000	 0.102987
3.296000	 0.011404
3.314000	 0.046287
3.332000	 0.107738
3.350000	 -0.007755
3.368000	 0.026792
3.386000	 0.050003
3.404000	 0.023159
3.422000	 0.106243
3.440000	 -0.019643
3.458000	 0.058754
3.476000	 0.074888
3.494000	 0.075234
3.512000	 -0.014895
3.530000	 0.049875
3.548000	 0.027070
3.566000	 0.029257
3.584000	 0.098296
3.602000	 0.078709
3.620000	 0.049423
3.638000	 -0.000583
3.656000	 -0.026538
3.674000	 -0.050286
3.692000	 0.057606
3.710000	 0.083041
3.728000	 0.030251
3.746000	 0.044654
3.764000	 0.046552
3.782000	 -0.062350
3.800000	 0.025078
3.818000	 0.044687
3.836000	 0.094338
3.854000	 -0.013760
3.872000	 0.047068
3.890000	 0.123407
3.908000	 -0.064675
3.926000	 0.024443
3.944000	 0.050997
3.962000	 0.049505
3.980000	 0.090448
3.998000	 0.002512
4.016000	 0.073372
4.034000	 0.018651
4.052000	 0.005786
4.070000	 0.105774
4.088000	 0.088542
4.106000	 0.041764
4.124000	 0.179920
4.141999	 0.086525
4.160000	 0.047535
4.178000	 0.080589
4.196000	 0.148385
4.214000	 0.133883
4.232000	 0.211555
4.250000	 0.085357
4.268000	 0.304049
4.286000	 0.359151
4.304000	 0.396593
4.322000	 0.560671
4.340000	 0.565374
4.358000	 0.761835
4.375999	 0.859355
4.394000	 1.127014
4.412000	 1.430296
4.430000	 1.630772
4.448000	 2.013589
4.466000	 2.376849
4.484000	 2.849336
4.502000	 3.395116
4.520000	 3.891913
4.538000	 4.543087
4.556000	 5.376171
4.574000	 6.076702
4.592000	 6.886702
4.609999	 7.902366
4.628000	 8.843346
4.646000	 9.740940
4.664000	 10.7372
4.682000	 11.6954
4.700000	 12.8016
4.718000	 13.7327
4.736000	 14.7237
4.754000	 15.798
4.772000	 16.8225
4.790000	 17.9115
4.808000	 19.0258
4.826000	 19.8672
4.843999	 20.6601
4.862000	 21.441
4.880000	 22.3393
4.898000	 23.2544
4.916000	 24.2711
4.934000	 25.1953
4.952000	 25.8015
4.970000	 26.2668
4.988000	 26.6383
5.006000	 27.2372
5.024000	 27.9138
5.042000	 28.6808
5.060000	 29.3682
5.077999	 29.868
5.096000	 30.1692
5.114000	 30.311
5.132000	 30.5755
5.150000	 30.9037
5.168000	 31.314
5.186000	 31.8737
5.204000	 32.3628
5.222000	 32.6985
5.240000	 32.8671
5.258000	 32.7707
5.276000	 32.7376
5.294000	 32.8639
5.312000	 33.2032
5.330000	 33.5849
5.348000	 34.0552
5.366000	 34.4196
5.384000	 34.5018
5.402000	 34.3497
5.420000	 34.2
5.438000	 34.2272
5.456000	 34.3443
5.474000	 34.5696
5.492000	 34.8597
5.510000	 35.1517
5.528000	 35.3391
5.546000	 35.4012
5.564000	 35.3281
5.582000	 35.1683
5.600000	 34.9774
5.618000	 34.9558
5.636000	 35.0417
5.654000	 35.2342
5.672000	 35.4291
5.690000	 35.6829
5.708000	 35.9447
5.726000	 36.004
5.744000	 35.8838
5.762000	 35.6161
5.780000	 35.3847
5.798000	 35.2518
5.816000	 35.301
5.834000	 35.439
5.852000	 35.614
5.870000	 35.8809
5.888000	 36.134
5.906000	 36.2447
5.923999	 36.2072
5.942000	 36.0509
5.960000	 35.8336
5.978000	 35.6348
5.996000	 35.479
6.014000	 35.4169
6.032000	 35.4301
6.050000	 35.6155
6.068000	 35.8893
6.086000	 36.1368
6.104000	 36.3315
6.122000	 36.4056
6.140000	 36.343
6.158000	 36.1695
6.176000	 35.9239
6.194000	 35.7219
6.212000	 35.5443
6.230000	 35.3894
6.248000	 35.3802
6.266000	 35.5166
6.284000	 35.8076
6.302000	 36.1397
6.320000	 36.2709
6.338000	 36.2385
6.356000	 36.2199
6.374000	 36.2174
6.392000	 36.1207
6.410000	 35.8756
6.428000	 35.5833
6.446000	 35.3722
6.464000	 35.3265
6.482000	 35.4422
6.500000	 35.6074
6.518000	 35.735
6.536000	 35.9197
6.554000	 36.1656
6.572000	 36.3218
6.590000	 36.3754
6.608000	 36.3077
6.626000	 36.0997
6.644000	 35.8518
6.662000	 35.6364
6.680000	 35.499
6.698000	 35.4122
6.716000	 35.3254
6.734000	 35.3347
6.752000	 35.481
6.770000	 35.6776
6.788000	 35.8827
6.806000	 36.0776
6.824000	 36.1841
6.842000	 36.2344
6.860000	 36.2762
6.878000	 36.2261
6.896000	 36.0479
6.914000	 35.8039
6.932000	 35.5414
6.950000	 35.2851
6.968000	 35.128
6.986000	 35.1081
7.004000	 35.1143
7.022000	 35.1515
7.040000	 35.2827
7.058000	 35.4224
7.076000	 35.5625
7.094000	 35.761
7.112000	 35.9358
7.130000	 36.035
7.148000	 36.0792
7.166000	 36.0189
7.184000	 35.8477
7.202000	 35.6374
7.220000	 35.4113
7.238000	 35.1827
7.256000	 34.9979
7.274000	 34.8777
7.292000	 34.8311
7.310000	 34.8651
7.328000	 34.96
7.346000	 35.1015
7.364000	 35.2951
7.382000	 35.5213
7.400000	 35.7102
7.418000	 35.8028
7.436000	 35.8339
7.454000	 35.8788
7.472000	 35.9078
7.490000	 35.8302
7.508000	 35.6576
7.526000	 35.4633
7.544000	 35.2504
7.562000	 35.0081
7.580000	 34.8051
7.598000	 34.7221
7.616000	 34.7461
7.634000	 34.7873
7.652000	 34.7977
7.670000	 34.8312
7.688000	 34.9522
7.706000	 35.1454
7.724000	 35.3543
7.742000	 35.5371
7.760000	 35.6697
7.778000	 35.7516
7.796000	 35.7954
7.814000	 35.792
7.832000	 35.7186
7.850000	 35.5797
7.868000	 35.3972
7.886000	 35.175
7.904000	 34.9261
7.922000	 34.7072
7.940000	 34.569
7.958000	 34.4978
7.976000	 34.4634
7.994000	 34.4814
8.012000	 34.5733
8.030000	 34.7131
8.048000	 34.856
8.065999	 34.9871
8.084000	 35.1148
8.102000	 35.2456
8.120000	 35.3866
8.138000	 35.5351
8.155999	 35.6516
8.173999	 35.6789
8.192000	 35.6071
8.210000	 35.4865
8.228000	 35.3682
8.246000	 35.2583
8.263999	 35.1348
8.282000	 34.9778
8.300000	 34.7834
8.318000	 34.5739
8.336000	 34.3977
8.353999	 34.2956
8.372000	 34.2716
8.390000	 34.3051
8.408000	 34.3767
8.426000	 34.4727
8.443999	 34.5842
8.462000	 34.7115
8.480000	 34.8603
8.498000	 35.025
8.516000	 35.1851
8.533999	 35.316
8.552000	 35.3967
8.570000	 35.4183
8.588000	 35.3977
8.606000	 35.3678
8.624000	 35.3407
8.641999	 35.2863
8.660000	 35.1663
8.678000	 34.9815
8.696000	 34.7771
8.714000	 34.5985
8.731999	 34.4563
8.750000	 34.3294
8.768000	 34.2022
8.786000	 34.091
8.804000	 34.029
8.821999	 34.0322
8.840000	 34.0846
8.858000	 34.1561
8.876000	 34.2282
8.894000	 34.3022
8.911999	 34.3893
8.930000	 34.5018
8.948000	 34.6464
8.966000	 34.8164
8.984000	 34.9904
9.001999	 35.1392
9.020000	 35.2369
9.038000	 35.2687
9.056000	 35.2383
9.074000	 35.163
9.092000	 35.063
9.109999	 34.9529
9.128000	 34.8415
9.146000	 34.7323
9.164000	 34.6231
9.182000	 34.5074
9.199999	 34.3785
9.218000	 34.2338
9.236000	 34.0754
9.254000	 33.9096
9.272000	 33.7514
9.289999	 33.6262
9.308000	 33.5606
9.326000	 33.5676
9.344000	 33.6387
9.362000	 33.7488
9.379999	 33.867
9.398000	 33.9714
9.416000	 34.0568
9.434000	 34.1352
9.452000	 34.2253
9.469999	 34.3387
9.488000	 34.4709
9.506000	 34.6038
9.524000	 34.717
9.542000	 34.7976
9.560000	 34.8431
9.577999	 34.8581
9.596000	 34.8482
9.614000	 34.8144
9.632000	 34.7513
9.650000	 34.6521
9.667999	 34.5141
9.686000	 34.3443
9.704000	 34.1598
9.722000	 33.9826
9.740000	 33.832
9.757999	 33.7181
9.776000	 33.6381
9.794000	 33.5771
9.812000	 33.5157
9.830000	 33.4442
9.847999	 33.3717
9.866000	 33.3193
9.884000	 33.3049
9.902000	 33.3317
9.920000	 33.3881
9.937999	 33.4598
9.956000	 33.541
9.974000	 33.6333
9.992000	 33.7409
10.01	33.8649
10.028	34.0028
10.046	34.1508
10.064	34.2995
10.082	34.433
10.1	34.5321
10.118	34.5849
10.136	34.5951
10.154	34.5776
10.172	34.5439
10.19	34.4894
10.208	34.3955
10.226	34.2465
10.244	34.0467
10.262	33.8251
10.28	33.6201
10.298	33.4615
10.316	33.3597
10.334	33.3052
10.352	33.2798
10.37	33.2631
10.388	33.2375
10.406	33.1893
10.424	33.1114
10.442	33.0084
10.46	32.8962
10.478	32.7983
10.496	32.7359
10.514	32.7193
10.532	32.7476
10.55	32.812
10.568	32.9022
10.586	33.0081
10.604	33.1201
10.622	33.2278
10.64	33.3209
10.658	33.3942
10.676	33.45
10.694	33.4966
10.712	33.5442
10.73	33.5986
10.748	33.6587
10.766	33.7172
10.784	33.7655
10.802	33.7951
10.82	33.8002
10.838	33.7772
10.856	33.7254
10.874	33.6488
10.892	33.5554
10.91	33.4556
10.928	33.3581
10.946	33.2668
10.964	33.18
10.982	33.0924
11	33.0001
11.018	32.9018
11.036	32.7996
11.054	32.6963
11.072	32.5929
11.09	32.4895
11.108	32.3869
11.126	32.2896
11.144	32.2067
11.162	32.1495
11.18	32.1271
11.198	32.1427
11.216	32.1921
11.234	32.2646
11.252	32.3466
11.27	32.4269
11.288	32.4981
11.306	32.5584
11.324	32.6112
11.342	32.6626
11.36	32.7186
11.378	32.7819
11.396	32.8502
11.414	32.9157
11.432	32.969
11.45	33.003
11.468	33.0157
11.486	33.0115
11.504	33
11.522	32.9931
11.54	32.9988
11.558	33.019
11.576	33.0478
11.594	33.0736
11.612	33.082
11.63	33.0613
11.648	33.0066
11.666	32.9202
11.684	32.8107
11.702	32.6892
11.72	32.5661
11.738	32.4473
11.756	32.3338
11.774	32.2233
11.792	32.1131
11.81	32.0029
11.828	31.8957
11.846	31.7971
11.864	31.713
11.882	31.6468
11.9	31.5979
11.918	31.5619
11.936	31.5321
11.954	31.5019
11.972	31.4672
11.99	31.4279
12.008	31.3878
12.026	31.3537
12.044	31.3326
12.062	31.3304
12.08	31.3495
12.098	31.3883
12.116	31.4425
12.134	31.5063
12.152	31.5741
12.17	31.6427
12.188	31.7112
12.206	31.7807
12.224	31.8532
12.242	31.9294
12.26	32.0081
12.278	32.0855
12.296	32.1557
12.314	32.2132
12.332	32.2543
12.35	32.2786
12.368	32.2887
12.386	32.2894
12.404	32.2855
12.422	32.2797
12.44	32.2716
12.458	32.2572
12.476	32.2309
12.494	32.187
12.512	32.1227
12.53	32.0389
12.548	31.9405
12.566	31.8352
12.584	31.7308
12.602	31.6337
12.62	31.5471
12.638	31.4717
12.656	31.4057
12.674	31.3468
12.692	31.293
12.71	31.242
12.728	31.1921
12.746	31.1405
12.764	31.0844
12.782	31.021
12.8	30.9485
12.818	30.8671
12.836	30.78
12.854	30.6929
12.872	30.6129
12.89	30.5478
12.908	30.5034
12.926	30.4829
12.944	30.486
12.962	30.5095
12.98	30.5484
12.998	30.5972
13.016	30.6515
13.034	30.7087
13.052	30.7678
13.07	30.8293
13.088	30.8947
13.106	30.9654
13.124	31.0419
13.142	31.1239
13.16	31.2092
13.178	31.2948
13.196	31.3771
13.214	31.4523
13.232	31.518
13.25	31.5724
13.268	31.6153
13.286	31.6466
13.304	31.667
13.322	31.6765
13.34	31.6752
13.358	31.6628
13.376	31.6393
13.394	31.6052
13.412	31.5622
13.43	31.5125
13.448	31.4593
13.466	31.4051
13.484	31.352
13.502	31.3003
13.52	31.2486
13.538	31.1942
13.556	31.1337
13.574	31.0646
13.592	30.9854
13.61	30.8965
13.628	30.7999
13.646	30.6989
13.664	30.597
13.682	30.4968
13.7	30.4003
13.718	30.3084
13.736	30.2213
13.754	30.1389
13.772	30.061
13.79	29.988
13.808	29.9207
13.826	29.8602
13.844	29.8077
13.862	29.7635
13.88	29.7277
13.898	29.6992
13.916	29.6763
13.934	29.6571
13.952	29.6398
13.97	29.6232
13.988	29.607
14.006	29.5921
14.024	29.58
14.042	29.573
14.06	29.5734
14.078	29.583
14.096	29.6031
14.114	29.6337
14.132	29.6737
14.15	29.7213
14.168	29.7739
14.186	29.8285
14.204	29.8824
14.222	29.9336
14.24	29.9813
14.258	30.0259
14.276	30.0689
14.294	30.1123
14.312	30.1581
14.33	30.2077
14.348	30.2615
14.366	30.3187
14.384	30.3767
14.402	30.4318
14.42	30.4798
14.438	30.5166
14.456	30.5393
14.474	30.5462
14.492	30.5373
14.51	30.5146
14.528	30.4818
14.546	30.4427
14.564	30.4014
14.582	30.3611
14.6	30.3237
14.618	30.2898
14.636	30.2588
14.654	30.2287
14.672	30.1977
14.69	30.1636
14.708	30.1247
14.726	30.0801
14.744	30.0293
14.762	29.9724
14.78	29.9099
14.798	29.8426
14.816	29.7717
14.834	29.6987
14.852	29.6248
14.87	29.5518
14.888	29.4814
14.906	29.4154
14.924	29.3556
14.942	29.3038
14.96	29.2609
14.978	29.2273
14.996	29.2024
15.014	29.1851
15.032	29.1728
15.05	29.1625
15.068	29.1512
15.086	29.1358
15.104	29.1138
15.122	29.0831
15.14	29.0434
15.158	28.9952
15.176	28.94
15.194	28.8801
15.212	28.8189
15.23	28.7593
15.248	28.7036
15.266	28.6538
15.284	28.6115
15.302	28.577
15.32	28.5498
15.338	28.529
15.356	28.5137
15.374	28.5023
15.392	28.4942
15.41	28.489
15.428	28.4866
15.446	28.4881
15.464	28.4944
15.482	28.5065
15.5	28.5259
15.518	28.5534
15.536	28.5893
15.554	28.6334
15.572	28.6846
15.59	28.7409
15.608	28.8
15.626	28.8598
15.644	28.9176
15.662	28.9705
15.68	29.0169
15.698	29.0558
15.716	29.0862
15.734	29.109
15.752	29.125
15.77	29.1353
15.788	29.1423
15.806	29.1476
15.824	29.1526
15.842	29.159
15.86	29.1673
15.878	29.1776
15.896	29.1897
15.914	29.2028
15.932	29.2158
15.95	29.2276
15.968	29.2368
15.986	29.2422
16.004	29.2431
16.022	29.2385
16.04	29.2282
16.058	29.2124
16.076	29.191
16.094	29.1649
16.112	29.1346
16.13	29.1004
16.148	29.0635
16.166	29.024
16.184	28.9818
16.202	28.9371
16.22	28.8889
16.238	28.8367
16.256	28.78
16.274	28.7179
16.292	28.6501
16.31	28.5767
16.328	28.4981
16.346	28.4154
16.364	28.3296
16.382	28.2429
16.4	28.1573
16.418	28.0743
16.436	27.9964
16.454	27.9247
16.472	27.8599
16.49	27.8027
16.508	27.7526
16.526	27.709
16.544	27.6703
16.562	27.6351
16.58	27.6022
16.598	27.5693
16.616	27.5356
16.634	27.5004
16.652	27.4629
16.67	27.4237
16.688	27.383
16.706	27.3416
16.724	27.3004
16.742	27.2606
16.76	27.2232
16.778	27.1885
16.796	27.1577
16.814	27.1313
16.832	27.1097
16.85	27.0937
16.868	27.0837
16.886	27.08
16.904	27.0832
16.922	27.0932
16.94	27.1104
16.958	27.1341
16.976	27.1641
16.994	27.1995
17.012	27.2387
17.03	27.2809
17.048	27.3235
17.066	27.3652
17.084	27.4042
17.102	27.4382
17.12	27.4665
17.138	27.4872
17.156	27.5001
17.174	27.5047
17.192	27.5015
17.21	27.4911
17.228	27.4748
17.246	27.4545
17.264	27.4314
17.282	27.4083
17.3	27.3864
17.318	27.3681
17.336	27.3548
17.354	27.3476
17.372	27.3477
17.39	27.3551
17.408	27.3701
17.426	27.3916
17.444	27.4194
17.462	27.4514
17.48	27.4868
17.498	27.5234
17.516	27.5594
17.534	27.5936
17.552	27.6235
17.57	27.6486
17.588	27.667
17.606	27.6785
17.624	27.6825
17.642	27.6795
17.66	27.6694
17.678	27.6537
17.696	27.6328
17.714	27.6082
17.732	27.5807
17.75	27.5515
17.768	27.5216
17.786	27.4913
17.804	27.4612
17.822	27.4315
17.84	27.4018
17.858	27.3719
17.876	27.3416
17.894	27.3101
17.912	27.2772
17.93	27.2421
17.948	27.2049
17.966	27.165
17.984	27.1224
18.002	27.0771
18.02	27.0294
18.038	26.9792
18.056	26.927
18.074	26.8729
18.092	26.8175
18.11	26.7609
18.128	26.7034
18.146	26.6454
18.164	26.5872
18.182	26.5292
18.2	26.4716
18.218	26.4147
18.236	26.3587
18.254	26.3038
18.272	26.2499
18.29	26.1973
18.308	26.146
18.326	26.0961
18.344	26.0476
18.362	26.0005
18.38	25.9546
18.398	25.91
18.416	25.8663
18.434	25.8234
18.452	25.7811
18.47	25.7392
18.488	25.6975
18.506	25.656
18.524	25.615
18.542	25.5744
18.56	25.5344
18.578	25.4951
18.596	25.4573
18.614	25.4209
18.632	25.3869
18.65	25.3553
18.668	25.327
18.686	25.3022
18.704	25.2814
18.722	25.2645
18.74	25.2521
18.758	25.2439
18.776	25.2398
18.794	25.2397
18.812	25.2432
18.83	25.2499
18.848	25.259
18.866	25.2703
18.884	25.283
18.902	25.2969
18.92	25.3113
18.938	25.3263
18.956	25.3414
18.974	25.3569
18.992	25.3729
19.01	25.3899
19.028	25.4085
19.046	25.4296
19.064	25.4542
19.082	25.4829
19.1	25.5172
19.118	25.5573
19.136	25.6043
19.154	25.6579
19.172	25.7186
19.19	25.7853
19.208	25.8571
19.226	25.933
19.244	26.0103
19.262	26.0886
19.28	26.1636
19.298	26.2351
19.316	26.2981
19.334	26.3531
19.352	26.3952
19.37	26.4248
19.388	26.4393
19.406	26.4388
19.424	26.423
19.442	26.3916
19.46	26.3468
19.478	26.2883
19.496	26.2197
19.514	26.1413
19.532	26.0571
19.55	25.9688
19.568	25.8789
19.586	25.7905
19.604	25.7044
19.622	25.6244
19.64	25.5502
19.658	25.4841
19.676	25.426
19.694	25.3767
19.712	25.3361
19.73	25.3031
19.748	25.2778
19.766	25.2582
19.784	25.2443
19.802	25.2339
19.82	25.2258
19.838	25.2193
19.856	25.2124
19.874	25.2051
19.892	25.1952
19.91	25.183
19.928	25.1672
19.946	25.1476
19.964	25.1238
19.982	25.0957
20	25.0632
20.018	25.0262
20.036	24.9852
20.054	24.9405
20.072	24.8923
20.09	24.8417
20.108	24.7885
20.126	24.7345
20.144	24.6794
20.162	24.6249
20.18	24.5713
20.198	24.5196
20.216	24.471
20.234	24.4256
20.252	24.3851
20.27	24.3491
20.288	24.3189
20.306	24.2946
20.324	24.2763
20.342	24.2643
20.36	24.2584
20.378	24.2582
20.396	24.2639
20.414	24.274
20.432	24.2889
20.45	24.307
20.468	24.3279
20.486	24.3507
20.504	24.3737
20.522	24.3973
20.54	24.4191
20.558	24.4394
20.576	24.4568
20.594	24.4707
20.612	24.4808
20.63	24.4861
20.648	24.4869
20.666	24.4829
20.684	24.4739
20.702	24.4603
20.72	24.442
20.738	24.4193
20.756	24.3932
20.774	24.3632
20.792	24.3311
20.81	24.2967
20.828	24.261
20.846	24.2252
20.864	24.1891
20.882	24.1542
20.9	24.1204
20.918	24.0885
20.936	24.0593
20.954	24.0327
20.972	24.0097
20.99	23.9901
21.008	23.9743
21.026	23.9626
21.044	23.9547
21.062	23.9508
21.08	23.9509
21.098	23.9545
21.116	23.9618
21.134	23.9723
21.152	23.9854
21.17	24.0014
21.188	24.0194
21.206	24.0392
21.224	24.0607
21.242	24.0829
21.26	24.1063
21.278	24.1299
21.296	24.1536
21.314	24.1773
21.332	24.2003
21.35	24.2228
21.368	24.2443
21.386	24.2646
21.404	24.2839
21.422	24.3016
21.44	24.3181
21.458	24.3329
21.476	24.346
21.494	24.3575
21.512	24.3671
21.53	24.375
21.548	24.3811
21.566	24.3853
21.584	24.3878
21.602	24.3888
21.62	24.3883
21.638	24.3864
21.656	24.3835
21.674	24.3793
21.692	24.3748
21.71	24.3698
21.728	24.3648
21.746	24.3611
21.764	24.3581
21.782	24.357
21.8	24.3589
21.818	24.3632
21.836	24.3716
21.854	24.3842
21.872	24.4013
21.89	24.4237
21.908	24.4513
21.926	24.4843
21.944	24.5232
21.962	24.5679
21.98	24.6174
21.998	24.6722
22.016	24.7314
22.034	24.7933
22.052	24.8588
22.07	24.9256
22.088	24.9919
22.106	25.0587
22.124	25.1226
22.142	25.1833
22.16	25.2405
22.178	25.2911
22.196	25.3356
22.214	25.3731
22.232	25.4014
22.25	25.4215
22.268	25.4326
22.286	25.4337
22.304	25.4254
22.322	25.4082
22.34	25.3816
22.358	25.3464
22.376	25.3042
22.394	25.2543
22.412	25.1981
22.43	25.1378
22.448	25.0724
22.466	25.004
22.484	24.9348
22.502	24.8634
22.52	24.7926
22.538	24.7233
22.556	24.655
22.574	24.5894
22.592	24.527
22.61	24.4676
22.628	24.4115
22.646	24.3592
22.664	24.31
22.682	24.2637
22.7	24.2208
22.718	24.1802
22.736	24.1408
22.754	24.1035
22.772	24.0666
22.79	24.029
22.808	23.9915
22.826	23.9524
22.844	23.9107
22.862	23.867
22.88	23.8204
22.898	23.7704
22.916	23.7172
22.934	23.6608
22.952	23.601
22.97	23.538
22.988	23.4721
23.006	23.4031
23.024	23.3312
23.042	23.2573
23.06	23.1813
23.078	23.1033
23.096	23.025
23.114	22.9461
23.132	22.8668
23.15	22.7886
23.168	22.7114
23.186	22.6352
23.204	22.561
23.222	22.4885
23.24	22.4179
23.258	22.3495
23.276	22.2833
23.294	22.2191
23.312	22.1566
23.33	22.0959
23.348	22.0368
23.366	21.9788
23.384	21.922
23.402	21.8663
23.42	21.8112
23.438	21.7565
23.456	21.7025
23.474	21.6492
23.492	21.5964
23.51	21.5442
23.528	21.4931
23.546	21.443
23.564	21.3939
23.582	21.3468
23.6	21.3019
23.618	21.2589
23.636	21.2192
23.654	21.1836
23.672	21.1515
23.69	21.1233
23.708	21.0998
23.726	21.0807
23.744	21.0654
23.762	21.0534
23.78	21.0454
23.798	21.04
23.816	21.036
23.834	21.0343
23.852	21.0335
23.87	21.0316
23.888	21.0295
23.906	21.0263
23.924	21.0196
23.942	21.0096
23.96	20.9965
23.978	20.9782
23.996	20.954
24.014	20.9248
24.032	20.8897
24.05	20.8482
24.068	20.8006
24.086	20.7473
24.104	20.6882
24.122	20.6229
24.14	20.5525
24.158	20.4788
24.176	20.4009
24.194	20.3196
24.212	20.2366
24.23	20.1523
24.248	20.0661
24.266	19.9792
24.284	19.8923
24.302	19.8051
24.32	19.717
24.338	19.6278
24.356	19.538
24.374	19.4467
24.392	19.3524
24.41	19.2559
24.428	19.1568
24.446	19.0527
24.464	18.9434
24.482	18.83
24.5	18.7091
24.518	18.5779
24.536	18.4382
24.554	18.2888
24.572	18.1278
24.59	17.9544
24.608	17.7699
24.626	17.5755
24.644	17.3708
24.662	17.1551
24.68	16.9324
24.698	16.7064
24.716	16.4734
24.734	16.2372
24.752	16.004
24.77	15.7727
24.788	15.5426
24.806	15.3211
24.824	15.1132
24.842	14.9139
24.86	14.728
24.878	14.5617
24.896	14.413
24.914	14.282
24.932	14.1735
24.95	14.0905
24.968	14.0305
24.986	13.9941
25.004	13.9822
25.022	13.995
25.04	14.0317
25.058	14.0917
25.076	14.1753
25.094	14.2829
25.112	14.412
25.13	14.56
25.148	14.7281
25.166	14.9158
25.184	15.1207
25.202	15.3416
25.22	15.5798
25.238	15.8341
25.256	16.1036
25.274	16.3888
25.292	16.6893
25.31	17.0037
25.328	17.3313
25.346	17.6736
25.364	18.0281
25.382	18.392
25.4	18.7669
25.418	19.1523
25.436	19.5443
25.454	19.9403
25.472	20.3441
25.49	20.7515
25.508	21.1572
25.526	21.5613
25.544	21.9664
25.562	22.3652
25.58	22.751
25.598	23.1296
25.616	23.4978
25.634	23.8466
25.652	24.1711
25.67	24.4777
25.688	24.761
25.706	25.0141
25.724	25.2373
25.742	25.4331
25.76	25.5963
25.778	25.7219
25.796	25.8128
25.814	25.8686
25.832	25.886
25.85	25.8628
25.868	25.8018
25.886	25.7014
25.904	25.5594
25.922	25.3752
25.94	25.1502
25.958	24.884
25.976	24.5766
25.994	24.228
26.012	23.8386
26.03	23.4087
26.048	22.9384
26.066	22.4263
26.084	21.8746
26.102	21.2866
26.12	20.6643
26.138	20.0047
26.156	19.3111
26.174	18.5877
26.192	17.8355
26.21	17.0514
26.228	16.2403
26.246	15.4071
26.264	14.5504
26.282	13.6689
26.3	12.7684
26.318	11.8547
26.336	10.9241
26.354	9.977133
26.372	9.020853
26.39	8.061576
26.408	7.092681
26.426	6.117477
26.444	5.144879
26.462	4.181913
26.48	3.219926
26.498	2.264199
26.516	1.324543
26.534	0.407427
26.552	-0.497309
26.57	-1.382044
26.588	-2.235611
26.606	-3.051436
26.624	-3.839713
26.642	-4.593322
26.66	-5.302693
26.678	-5.963280
26.696	-6.584096
26.714	-7.157820
26.732	-7.675500
26.75	-8.132463
26.768	-8.535640
26.786	-8.881891
26.804	-9.167164
26.822	-9.389734
26.84	-9.553254
26.858	-9.655594
26.876	-9.694188
26.894	-9.667351
26.912	-9.576803
26.93	-9.423536
26.948	-9.208406
26.966	-8.903390
26.984	-8.466012
27.002	-8.003964
27.02	-7.634199
27.028	-7.540011