File: Bakgrunnsmateriale/MATLAB/FTIR/ftir_data/LPE453/Mapping_121/LPE453_t117_cm-1.asc
PE IR       SPECTRUM    SPECTRUM    ASCII       PEDS        1.60
  -1
LP0AFC~1.ASC
17/05/17
00:13:59.00
17/05/17
00:13:59.00
tln
$LPE453_t0117$<tbV0>[-2.6,13.0,8.0,0.0,27,1,0]
370
64

2002,4.07
MIRTGS : RIGHTBACK : INTERNAL 2
MIR : ON : INTERNAL 2
OPTKBR

0.200000
8
8.000000
FILLER
RATIO
SPECTRUM
UNLOCKED 256

DOUBLE
64
COMBINED
1
0
0

1.000000
RATIO

1
0
TRUE
51149
0
LEFT NOT FITTED RIGHT NOT FITTED 0
NONE
NONE
15600
12
4.427000
51148
TRUE
1 0 8 72 0 0 0 0

15798

#HDR
-1
-1
#GR
CM-1
%T
2.38419e-05
0.0
5000
-1.000000
4631
8
35.1771
-1.403307
#DATA
5000	0.248789
4996	0.148868
4992	0.199937
4988	0.170421
4984	0.099325
4980	0.252485
4976	0.469803
4972	0.386595
4968	0.206899
4964	0.104069
4960	-0.120067
4956	-0.105261
4952	0.110650
4948	0.108981
4944	0.088953
4940	-0.034141
4936	-0.264382
4932	-0.270342
4928	-0.018715
4924	0.289320
4920	0.334358
4916	0.100302
4912	-0.143194
4908	-0.158834
4904	0.028109
4900	0.174021
4896	0.220274
4892	0.140500
4888	-0.098586
4884	-0.194263
4880	-0.117468
4876	-0.065612
4872	0.022697
4868	-0.010418
4864	-0.201416
4860	-0.141406
4856	0.125455
4852	0.257849
4848	0.310969
4844	0.253176
4840	-0.012183
4836	-0.109457
4832	0.098347
4828	0.366234
4824	0.486612
4820	0.361514
4816	0.054001
4812	-0.217366
4808	-0.237321
4804	0.001716
4800	0.321412
4796	0.480151
4792	0.387692
4788	0.244402
4784	0.216031
4780	0.162267
4776	0.166940
4772	0.345754
4768	0.417876
4764	0.307846
4760	0.158524
4756	-0.089478
4752	-0.408840
4748	-0.596547
4744	-0.661182
4740	-0.689125
4736	-0.566124
4732	-0.450563
4728	-0.628352
4724	-0.777959
4720	-0.437855
4716	0.069713
4712	0.312566
4708	0.272989
4704	0.024604
4700	-0.096726
4696	-0.028848
4692	0.204920
4688	0.589156
4684	0.590848
4680	0.635766
4676	0.921988
4672	1.089739
4668	1.619982
4664	2.060151
4660	1.909661
4656	1.156067
4652	0.062656
4648	0.081610
4644	1.214957
4640	1.233983
4636	0.162506
4632	0.273394
4628	1.317572
4624	1.330208
4620	0.520014
4616	0.251436
4612	0.602865
4608	1.040005
4604	1.462793
4600	1.227307
4596	0.290226
4592	0.179457
4588	0.790762
4584	0.995659
4580	0.970578
4576	0.707125
4572	-0.308179
4568	-1.295566
4564	-1.133918
4560	-0.621819
4556	-0.252413
4552	0.393533
4548	0.864553
4544	1.225352
4540	1.385498
4536	1.113533
4532	0.340962
4528	-0.454664
4524	-0.819253
4520	-1.250720
4516	-1.259136
4512	0.485110
4508	3.298091
4504	3.967928
4500	2.887678
4496	1.203870
4492	-0.959849
4488	0.843787
4484	3.644776
4480	1.906895
4476	-0.346708
4472	-0.567984
4468	-0.272178
4464	0.143980
4460	0.120401
4456	-0.037193
4452	0.149250
4448	0.451946
4444	0.470280
4440	0.366854
4436	0.195264
4432	0.143480
4428	0.311374
4424	0.304365
4420	0.361752
4416	0.514125
4412	0.331568
4408	0.240206
4404	0.297546
4400	0.199222
4396	0.215101
4392	0.248908
4388	0.172972
4384	0.136184
4380	0.081968
4376	0.063252
4372	-0.013899
4368	-0.127601
4364	-0.189113
4360	-0.298428
4356	-0.231218
4352	0.179290
4348	0.589275
4344	0.653600
4340	0.481939
4336	0.247073
4332	0.037145
4328	-0.045371
4324	-0.114631
4320	-0.081443
4316	0.097370
4312	0.168609
4308	0.111484
4304	0.071501
4300	0.004506
4296	-0.009775
4292	0.125336
4288	0.199794
4284	0.167131
4280	0.167465
4276	0.262689
4272	0.269293
4268	0.096869
4264	0.108504
4260	0.193095
4256	0.158929
4252	0.196409
4248	0.257873
4244	0.228428
4240	0.095748
4236	0.083017
4232	0.203013
4228	0.254392
4224	0.216484
4220	0.128197
4216	0.115299
4212	0.150918
4208	0.157809
4204	0.095629
4200	-0.036978
4196	-0.071263
4192	-0.008249
4188	-0.023221
4184	-0.107121
4180	-0.195336
4176	-0.114774
4172	0.094151
4168	0.080537
4164	0.029850
4160	0.025153
4156	-0.015854
4152	0.043511
4148	0.063323
4144	0.047159
4140	0.093126
4136	0.029850
4132	-0.051093
4128	0.026154
4124	0.043129
4120	-0.071740
4116	-0.080156
4112	0.113344
4108	0.304269
4104	0.266146
4100	0.095176
4096	-0.002646
4092	0.020551
4088	0.064635
4084	0.012660
4080	-0.023341
4076	0.110459
4072	0.237202
4068	0.200319
4064	0.128817
4060	0.105047
4056	0.077009
4052	0.048828
4048	0.121283
4044	0.160527
4040	0.005483
4036	-0.155615
4032	-0.113415
4028	0.025939
4024	0.049567
4020	0.000071
4016	0.003147
4012	-0.003814
4008	-0.065422
4004	-0.117802
4000	-0.050926
3996	0.062727
3992	0.122475
3988	0.149178
3984	0.126600
3980	0.135445
3976	0.144791
3972	0.090074
3968	0.009727
3964	-0.034642
3960	0.027966
3956	0.151944
3952	0.272464
3948	0.304245
3944	0.165319
3940	-0.084209
3936	-0.266981
3932	-0.250983
3928	-0.058054
3924	0.113034
3920	0.064063
3916	-0.083780
3912	-0.076508
3908	0.058174
3904	0.142455
3900	0.133037
3896	0.121021
3892	0.181746
3888	0.161528
3884	0.079107
3880	0.137972
3876	0.178694
3872	0.095868
3868	0.022697
3864	0.004434
3860	0.074362
3856	0.181674
3852	0.133895
3848	-0.033187
3844	-0.091433
3840	-0.023770
3836	0.054574
3832	0.080466
3828	0.078177
3824	0.072669
3820	0.026583
3816	-0.058746
3812	-0.081443
3808	0.005435
3804	0.109148
3800	0.135135
3796	0.074315
3792	0.021457
3788	0.029873
3784	0.037145
3780	-0.002026
3776	-0.035452
3772	0.002455
3768	0.042295
3764	0.094580
3760	0.139617
3756	0.030231
3752	-0.059008
3748	0.005960
3744	0.029754
3740	0.037145
3736	0.053930
3732	0.028324
3728	0.047588
3724	0.036621
3720	-0.009799
3716	-0.025343
3712	-0.036215
3708	0.013113
3704	0.076198
3700	0.088429
3696	0.036072
3692	-0.044655
3688	-0.025963
3684	0.032448
3680	0.015473
3676	-0.009632
3672	-0.009346
3668	-0.033164
3664	-0.081849
3660	-0.122714
3656	-0.123333
3652	-0.020456
3648	0.097560
3644	0.111842
3640	0.105929
3636	0.120329
3632	0.124812
3628	0.146436
3624	0.187373
3620	0.147724
3616	0.001502
3612	-0.099897
3608	-0.092887
3604	-0.042366
3600	-0.009775
3596	0.020718
3592	0.081276
3588	0.059056
3584	-0.014257
3580	-0.004935
3576	0.013399
3572	0.075316
3568	0.254464
3564	0.342082
3560	0.221037
3556	0.108170
3552	0.102806
3548	0.083136
3544	0.056815
3540	0.080251
3536	0.069260
3532	0.036025
3528	0.063228
3524	0.062990
3520	0.056600
3516	0.146579
3512	0.194954
3508	0.122332
3504	0.033092
3500	0.017476
3496	0.104928
3492	0.156068
3488	0.108003
3484	0.053167
3480	-0.013160
3476	-0.059461
3472	-0.028395
3468	0.023198
3464	0.039529
3460	0.037002
3456	0.042033
3452	0.021624
3448	-0.022983
3444	-0.007033
3440	0.063633
3436	0.074863
3432	0.006961
3428	-0.004649
3424	0.027251
3420	0.004744
3416	0.023460
3412	0.047254
3408	0.045180
3404	0.034475
3400	-0.022888
3396	-0.003504
3392	0.138020
3388	0.181245
3384	0.068211
3380	0.013613
3376	0.028920
3372	0.015878
3368	-0.015544
3364	-0.016903
3360	0.008130
3356	0.024819
3352	0.100731
3348	0.117182
3344	-0.009608
3340	-0.073146
3336	-0.049257
3332	-0.043654
3328	-0.065898
3324	-0.081658
3320	-0.065064
3316	-0.013947
3312	0.067257
3308	0.064492
3304	-0.041842
3300	-0.095105
3296	-0.090527
3292	-0.106692
3288	-0.076532
3284	-0.039005
3280	-0.040650
3276	-0.015497
3272	-0.022816
3268	-0.041103
3264	0.049138
3260	0.158143
3256	0.192403
3252	0.179362
3248	0.120615
3244	0.050067
3240	-0.027918
3236	-0.063943
3232	0.077223
3228	0.280952
3224	0.293874
3220	0.145030
3216	0.050878
3212	0.057983
3208	0.081157
3204	0.099468
3200	0.115060
3196	0.098609
3192	0.020170
3188	-0.050091
3184	-0.036263
3180	-0.033974
3176	-0.096249
3172	-0.043058
3168	0.112366
3164	0.175094
3160	0.162196
3156	0.066781
3152	-0.075411
3148	-0.063490
3144	0.114393
3140	0.231385
3136	0.162005
3132	0.064015
3128	0.053024
3124	0.006031
3120	-0.088548
3116	-0.162100
3112	-0.157403
3108	-0.058698
3104	-0.007414
3100	-0.006651
3096	-0.009036
3092	0.008058
3088	0.062894
3084	0.074338
3080	0.054550
3076	0.049805
3072	0.045752
3068	0.012898
3064	-0.055122
3060	-0.099897
3056	-0.077342
3052	-0.021481
3048	0.002622
3044	-0.011444
3040	-0.016093
3036	-0.002908
3032	0.041818
3028	0.110268
3024	0.081205
3020	-0.015068
3016	-0.038385
3012	-0.018429
3008	0.027704
3004	0.081348
3000	0.097274
2996	0.104475
2992	0.108504
2988	0.098872
2984	0.106930
2980	0.120306
2976	0.111341
2972	0.112104
2968	0.082397
2964	-0.006699
2960	-0.048303
2956	0.003051
2952	0.069570
2948	0.103497
2944	0.144147
2940	0.124001
2936	0.046420
2932	0.031518
2928	0.026202
2924	0.019049
2920	0.004553
2916	-0.080895
2912	-0.127172
2908	-0.044322
2904	0.042414
2900	0.060915
2896	0.075483
2892	0.067567
2888	0.018739
2884	-0.005340
2880	0.040936
2876	0.066161
2872	0.013422
2868	0.014114
2864	0.040102
2860	0.029540
2856	0.075459
2852	0.093674
2848	0.043773
2844	0.028514
2840	0.044703
2836	0.058388
2832	0.039982
2828	0.020647
2824	0.046944
2820	0.054049
2816	0.019025
2812	0.007390
2808	0.021338
2804	0.021815
2800	0.012159
2796	-0.007390
2792	-0.003194
2788	0.079059
2784	0.138759
2780	0.067329
2776	-0.037908
2772	-0.040984
2768	0.003743
2764	0.049591
2760	0.121998
2756	0.122928
2752	0.054526
2748	0.004744
2744	0.015735
2740	0.084519
2736	0.135183
2732	0.112843
2728	0.045847
2724	0.019240
2720	0.018477
2716	-0.018143
2712	-0.054240
2708	-0.058102
2704	-0.041532
2700	-0.020837
2696	0.026106
2692	0.071167
2688	0.044894
2684	0.013327
2680	0.023579
2676	0.000262
2672	-0.047588
2668	-0.065302
2664	-0.044751
2660	0.014090
2656	0.058507
2652	0.021576
2648	-0.043559
2644	-0.035572
2640	-0.016117
2636	0.000929
2632	0.060582
2628	0.056672
2624	-0.007128
2620	-0.026106
2616	0.011157
2612	0.042533
2608	-0.001287
2604	-0.057625
2600	-0.026369
2596	0.015354
2592	0.009417
2588	0.026798
2584	0.046443
2580	0.047397
2576	0.037622
2572	-0.002431
2568	-0.001621
2564	0.050759
2560	0.073671
2556	0.033307
2552	-0.015020
2548	-0.029158
2544	-0.023913
2540	0.002908
2536	0.028109
2532	0.049090
2528	0.074934
2524	0.090003
2520	0.120520
2516	0.136804
2512	0.097799
2508	0.032877
2504	-0.010538
2500	-0.072336
2496	-0.147914
2492	-0.092816
2488	-0.003552
2484	-0.004053
2480	0.033426
2476	0.096249
2472	0.090718
2468	0.044488
2464	-0.017881
2460	-0.056147
2456	-0.037074
2452	-0.016188
2448	-0.040507
2444	-0.042057
2440	-0.002861
2436	-0.006175
2432	-0.074577
2428	-0.131368
2424	-0.052428
2420	0.060939
2416	0.016164
2412	-0.027036
2408	0.011491
2404	-0.030493
2400	-0.056362
2396	0.019025
2392	0.106024
2388	0.170207
2384	0.204229
2380	0.180983
2376	0.123620
2372	0.125718
2368	0.160884
2364	0.173282
2360	0.168395
2356	0.144934
2352	0.149750
2348	0.203537
2344	0.256681
2340	0.297045
2336	0.355696
2332	0.392365
2328	0.360059
2324	0.313091
2320	0.363063
2316	0.508165
2312	0.605654
2308	0.629281
2304	0.668478
2300	0.715446
2296	0.721645
2292	0.764203
2288	0.887870
2284	0.995278
2280	1.071667
2276	1.193881
2272	1.340198
2268	1.436138
2264	1.512598
2260	1.606297
2256	1.676630
2252	1.761054
2248	1.928353
2244	2.132368
2240	2.318787
2236	2.491831
2232	2.656054
2228	2.873277
2224	3.177595
2220	3.456926
2216	3.673052
2212	3.894591
2208	4.128932
2204	4.392480
2200	4.710364
2196	5.046319
2192	5.380105
2188	5.715703
2184	6.025671
2180	6.331110
2176	6.689763
2172	7.086038
2168	7.498455
2164	7.907938
2160	8.316063
2156	8.745646
2152	9.131455
2148	9.479069
2144	9.898018
2140	10.3843
2136	10.8506
2132	11.3076
2128	11.7939
2124	12.2972
2120	12.7789
2116	13.1811
2112	13.5722
2108	14.0556
2104	14.5671
2100	15.0311
2096	15.4823
2092	15.9636
2088	16.4268
2084	16.8485
2080	17.2873
2076	17.7636
2072	18.2504
2068	18.674
2064	19.1006
2060	19.6278
2056	20.1062
2052	20.4966
2048	20.8934
2044	21.2802
2040	21.6465
2036	22.0086
2032	22.3723
2028	22.7318
2024	23.0652
2020	23.41
2016	23.7723
2012	24.1078
2008	24.4411
2004	24.7986
2000	25.1199
1996	25.3969
1992	25.7081
1988	26.0254
1984	26.3211
1980	26.6124
1976	26.8519
1972	27.0576
1968	27.2794
1964	27.5378
1960	27.7984
1956	28.0097
1952	28.2208
1948	28.4237
1944	28.6311
1940	28.902
1936	29.1548
1932	29.3184
1928	29.4752
1924	29.705
1920	29.9428
1916	30.1004
1912	30.1893
1908	30.2931
1904	30.4457
1900	30.6224
1896	30.7803
1892	30.8864
1888	30.9962
1884	31.1321
1880	31.2858
1876	31.4559
1872	31.5756
1868	31.6715
1864	31.7955
1860	31.9054
1856	32.0109
1852	32.0999
1848	32.1438
1844	32.1959
1840	32.2774
1836	32.4093
1832	32.5855
1828	32.7452
1824	32.8625
1820	32.9292
1816	33.0013
1812	33.0832
1808	33.1245
1804	33.19
1800	33.2729
1796	33.2959
1792	33.3091
1788	33.3606
1784	33.4093
1780	33.4139
1776	33.4331
1772	33.53
1768	33.6389
1764	33.7329
1760	33.835
1756	33.9158
1752	34.0087
1748	34.1008
1744	34.0891
1740	34.0179
1736	33.9987
1732	34.0216
1728	34.0043
1724	33.9813
1720	34.0219
1716	34.0829
1712	34.1436
1708	34.2154
1704	34.3086
1700	34.4141
1696	34.516
1692	34.6183
1688	34.6417
1684	34.5577
1680	34.4565
1676	34.4058
1672	34.427
1668	34.4363
1664	34.4053
1660	34.4213
1656	34.4606
1652	34.5095
1648	34.5888
1644	34.6741
1640	34.761
1636	34.8294
1632	34.8736
1628	34.8892
1624	34.8657
1620	34.7975
1616	34.718
1612	34.6843
1608	34.7034
1604	34.7558
1600	34.7946
1596	34.7899
1592	34.8127
1588	34.8761
1584	34.9401
1580	34.997
1576	35.0353
1572	35.069
1568	35.1091
1564	35.0975
1560	35.0194
1556	34.9299
1552	34.857
1548	34.8449
1544	34.863
1540	34.858
1536	34.8896
1532	34.9583
1528	35.0131
1524	35.0235
1520	35.0226
1516	35.0737
1512	35.1414
1508	35.1771
1504	35.1451
1500	35.0434
1496	34.9431
1492	34.8596
1488	34.7645
1484	34.6984
1480	34.6652
1476	34.6866
1472	34.7716
1468	34.8092
1464	34.8181
1460	34.8751
1456	34.9329
1452	34.9418
1448	34.8867
1444	34.8575
1440	34.8987
1436	34.9136
1432	34.8828
1428	34.8094
1424	34.6883
1420	34.5924
1416	34.5383
1412	34.5266
1408	34.6099
1404	34.7478
1400	34.8347
1396	34.9009
1392	34.9681
1388	34.9295
1384	34.8052
1380	34.7143
1376	34.639
1372	34.5701
1368	34.5473
1364	34.5259
1360	34.4894
1356	34.4275
1352	34.3826
1348	34.426
1344	34.4668
1340	34.5113
1336	34.6458
1332	34.7418
1328	34.7376
1324	34.7127
1320	34.6621
1316	34.5773
1312	34.4768
1308	34.3451
1304	34.2393
1300	34.2414
1296	34.2896
1292	34.3187
1288	34.3416
1284	34.3375
1280	34.3382
1276	34.3982
1272	34.4896
1268	34.5543
1264	34.5544
1260	34.5147
1256	34.4275
1252	34.2875
1248	34.1511
1244	34.0697
1240	34.0281
1236	33.9761
1232	33.9474
1228	33.9751
1224	34.0173
1220	34.081
1216	34.1879
1212	34.2619
1208	34.2512
1204	34.1717
1200	34.1407
1196	34.1603
1192	34.0635
1188	33.8951
1184	33.8052
1180	33.7499
1176	33.6786
1172	33.6312
1168	33.6233
1164	33.6417
1160	33.7014
1156	33.8194
1152	33.9264
1148	33.9405
1144	33.8831
1140	33.8617
1136	33.8924
1132	33.8925
1128	33.8156
1124	33.6498
1120	33.478
1116	33.3527
1112	33.2591
1108	33.2651
1104	33.3709
1100	33.4523
1096	33.4577
1092	33.4805
1088	33.552
1084	33.5951
1080	33.5524
1076	33.4357
1072	33.3386
1068	33.2393
1064	33.0445
1060	32.8706
1056	32.8488
1052	32.9077
1048	32.8935
1044	32.803
1040	32.8347
1036	32.9644
1032	33.0826
1028	33.1655
1024	33.1502
1020	33.1745
1016	33.2608
1012	33.1992
1008	33.0287
1004	32.8612
1000	32.6963
996	 32.5665
992	 32.4672
988	 32.4245
984	 32.4177
980	 32.3768
976	 32.3991
972	 32.5247
968	 32.6192
964	 32.6264
960	 32.6033
956	 32.5553
952	 32.5412
948	 32.5146
944	 32.3458
940	 32.211
936	 32.1754
932	 32.0819
928	 31.9565
924	 31.8776
920	 31.8424
916	 31.8201
912	 31.814
908	 31.9129
904	 32.0443
900	 32.0455
896	 32.0189
892	 31.9755
888	 31.8912
884	 31.8681
880	 31.7343
876	 31.4611
872	 31.3028
868	 31.2093
864	 31.0598
860	 30.9873
856	 31.0664
852	 31.159
848	 31.176
844	 31.2077
840	 31.3688
836	 31.5456
832	 31.5037
828	 31.236
824	 30.9695
820	 30.907
816	 30.9728
812	 30.8908
808	 30.6524
804	 30.4826
800	 30.3909
796	 30.3478
792	 30.3883
788	 30.4564
784	 30.5143
780	 30.5588
776	 30.54
772	 30.5089
768	 30.569
764	 30.4643
760	 30.1333
756	 30.0117
752	 30.051
748	 29.8889
744	 29.5935
740	 29.4253
736	 29.3982
732	 29.4016
728	 29.5218
724	 29.7689
720	 29.9593
716	 29.9355
712	 29.768
708	 29.6719
704	 29.6222
700	 29.5023
696	 29.3253
692	 29.1554
688	 28.9929
684	 28.7713
680	 28.5732
676	 28.5129
672	 28.5151
668	 28.4874
664	 28.5103
660	 28.63
656	 28.7707
652	 28.7842
648	 28.6806
644	 28.7343
640	 28.7884
636	 28.4723
632	 28.0385
628	 27.7484
624	 27.5865
620	 27.521
616	 27.4083
612	 27.3074
608	 27.3366
604	 27.3575
600	 27.3013
596	 27.305
592	 27.388
588	 27.5525
584	 27.6732
580	 27.5071
576	 27.1636
572	 26.8863
568	 26.7245
564	 26.5029
560	 26.1137
556	 25.6527
552	 25.2662
548	 25.1988
544	 25.5165
540	 25.8524
536	 26.0378
532	 26.128
528	 26.0348
524	 25.8525
520	 25.5267
516	 25.105
512	 24.9295
508	 24.9283
504	 24.7761
500	 24.4805
496	 24.2638
492	 24.2545
488	 24.3289
484	 23.97
480	 23.5975
476	 23.6719
472	 23.8033
468	 24.0431
464	 24.077
460	 23.5955
456	 22.851
452	 22.3539
448	 22.4156
444	 22.7506
440	 23.1307
436	 23.1385
432	 23.017
428	 22.7309
424	 21.5383
420	 20.0329
416	 19.1651
412	 20.0686
408	 21.3317
404	 21.0768
400	 22.3729
396	 25.4523
392	 25.5122
388	 22.1461
384	 20.2286
380	 19.8653
376	 27.6402
372	 29.6377
370	 24.4632