File: Bakgrunnsmateriale/MATLAB/FTIR/ftir_data/LPE453/Mapping_121/LPE453_t114.asc
PE IR       SPECTRUM    SPECTRUM    ASCII       PEDS        1.60
  -1
LP9388~1.ASC
17/05/16
23:45:42.00
17/05/16
23:46:08.00
tln
$LPE453_t0114$<tbV0>[5.2,13.0,8.0,0.0,27,1,0]
27.028
64

2002,4.07
MIRTGS : RIGHTBACK : INTERNAL 2
MIR : ON : INTERNAL 2
OPTKBR

0.200000
8
8.000000
FILLER
RATIO
SPECTRUM
UNLOCKED 256

DOUBLE
64
COMBINED
1
0
0

0.002000
RATIO

1
0
TRUE
51149
0
LEFT NOT FITTED RIGHT NOT FITTED 0
NONE
NONE
15600
12
4.427000
51148
TRUE
1 0 8 72 0 0 0 0

15798

#HDR
-1
-1
#GR
µM
%T
2.38419e-05
0.0
2.000000
0.002000
12515
8
37.9437
-5.452534
#DATA
2.000000	 -0.050139
2.018000	 -0.078540
2.036000	 -0.136813
2.054000	 -0.461681
2.072000	 0.215801
2.090000	 -0.201663
2.108000	 0.321937
2.126000	 0.557792
2.144000	 1.352336
2.162000	 -0.486889
2.180000	 0.052727
2.198000	 -0.566114
2.216000	 -1.097126
2.234000	 -3.154045
2.252000	 -0.349794
2.270000	 0.353939
2.288000	 0.575550
2.306000	 0.387399
2.324000	 -0.358577
2.342000	 -0.299829
2.360000	 0.414624
2.378000	 0.078113
2.396000	 0.106153
2.414000	 0.241217
2.432000	 0.056952
2.450000	 0.109550
2.468000	 0.101900
2.486000	 0.138896
2.504000	 -0.006283
2.522000	 0.014081
2.540000	 0.183948
2.558000	 0.190177
2.576000	 0.081083
2.594000	 0.078424
2.612000	 -0.119795
2.630000	 0.047704
2.648000	 0.070944
2.666000	 0.111893
2.684000	 0.009111
2.702000	 -0.130662
2.720000	 0.136826
2.738000	 0.038650
2.756000	 0.154861
2.774000	 0.024278
2.792000	 -0.117455
2.810000	 0.002444
2.828000	 -0.036314
2.846000	 0.070672
2.864000	 0.077998
2.882000	 0.024909
2.900000	 -0.118300
2.918000	 0.001152
2.936000	 0.088966
2.954000	 0.016685
2.972000	 0.006302
2.990000	 -0.126345
3.008000	 0.099505
3.026000	 -0.032847
3.044000	 0.150198
3.062000	 0.142384
3.080000	 0.009747
3.098000	 0.052526
3.116000	 0.057530
3.134000	 0.126766
3.152000	 0.118728
3.170000	 -0.089411
3.188000	 0.015409
3.206000	 -0.088275
3.224000	 0.131445
3.242000	 -0.013523
3.260000	 0.087036
3.278000	 0.087243
3.296000	 0.122228
3.314000	 0.050114
3.332000	 -0.104202
3.350000	 0.007837
3.368000	 -0.061569
3.386000	 0.021323
3.404000	 0.047882
3.422000	 0.015065
3.440000	 0.029648
3.458000	 -0.056396
3.476000	 0.056497
3.494000	 0.037022
3.512000	 0.057413
3.530000	 0.054208
3.548000	 0.036580
3.566000	 0.062626
3.584000	 0.039173
3.602000	 0.141303
3.620000	 0.096092
3.638000	 0.003478
3.656000	 0.099687
3.674000	 0.014179
3.692000	 0.014865
3.710000	 0.058257
3.728000	 0.035200
3.746000	 0.059984
3.764000	 0.090541
3.782000	 0.015056
3.800000	 0.007577
3.818000	 -0.029166
3.836000	 0.080770
3.854000	 0.033477
3.872000	 0.074234
3.890000	 -0.054189
3.908000	 0.054065
3.926000	 0.054059
3.944000	 0.001474
3.962000	 0.057334
3.980000	 0.015925
3.998000	 0.078566
4.016000	 0.213137
4.034000	 0.118989
4.052000	 0.096401
4.070000	 0.129215
4.088000	 0.186962
4.106000	 0.184190
4.124000	 0.171183
4.141999	 0.348018
4.160000	 0.341868
4.178000	 0.471018
4.196000	 0.495558
4.214000	 0.518781
4.232000	 0.614396
4.250000	 0.720565
4.268000	 0.714423
4.286000	 0.973834
4.304000	 1.224566
4.322000	 1.427064
4.340000	 1.611747
4.358000	 1.955290
4.375999	 2.226336
4.394000	 2.582854
4.412000	 2.861675
4.430000	 3.324460
4.448000	 3.907628
4.466000	 4.497106
4.484000	 5.142739
4.502000	 5.788425
4.520000	 6.588278
4.538000	 7.258848
4.556000	 8.123970
4.574000	 9.063966
4.592000	 9.872370
4.609999	 11.0118
4.628000	 11.9186
4.646000	 12.9103
4.664000	 14.0212
4.682000	 15.0395
4.700000	 15.9315
4.718000	 16.7369
4.736000	 17.7103
4.754000	 18.7776
4.772000	 19.7469
4.790000	 20.7917
4.808000	 21.6519
4.826000	 22.4375
4.843999	 23.0879
4.862000	 23.9125
4.880000	 24.4696
4.898000	 25.1502
4.916000	 25.967
4.934000	 26.5376
4.952000	 27.198
4.970000	 27.7723
4.988000	 28.1408
5.006000	 28.4738
5.024000	 28.9047
5.042000	 29.3247
5.060000	 29.8399
5.077999	 30.3137
5.096000	 30.6742
5.114000	 31.0437
5.132000	 31.3109
5.150000	 31.5564
5.168000	 31.7563
5.186000	 31.9282
5.204000	 32.1651
5.222000	 32.2927
5.240000	 32.6076
5.258000	 32.9596
5.276000	 33.3001
5.294000	 33.5616
5.312000	 33.7335
5.330000	 33.8626
5.348000	 33.8936
5.366000	 33.8909
5.384000	 33.9321
5.402000	 34.0038
5.420000	 34.0819
5.438000	 34.3552
5.456000	 34.5888
5.474000	 34.7185
5.492000	 34.9595
5.510000	 35.1015
5.528000	 35.159
5.546000	 35.1948
5.564000	 35.133
5.582000	 35.0817
5.600000	 35.0749
5.618000	 35.0713
5.636000	 35.1479
5.654000	 35.2632
5.672000	 35.3949
5.690000	 35.5787
5.708000	 35.7289
5.726000	 35.8989
5.744000	 36.0377
5.762000	 35.9457
5.780000	 35.8519
5.798000	 35.8453
5.816000	 35.7766
5.834000	 35.7388
5.852000	 35.6837
5.870000	 35.728
5.888000	 35.8996
5.906000	 36.0881
5.923999	 36.2048
5.942000	 36.278
5.960000	 36.3743
5.978000	 36.4917
5.996000	 36.5766
6.014000	 36.5622
6.032000	 36.525
6.050000	 36.3913
6.068000	 36.2411
6.086000	 36.1662
6.104000	 36.1999
6.122000	 36.2589
6.140000	 36.3513
6.158000	 36.446
6.176000	 36.4941
6.194000	 36.6038
6.212000	 36.7712
6.230000	 36.9052
6.248000	 36.9657
6.266000	 37.0193
6.284000	 37.0927
6.302000	 37.0709
6.320000	 36.9721
6.338000	 36.904
6.356000	 36.8494
6.374000	 36.7068
6.392000	 36.5296
6.410000	 36.4996
6.428000	 36.54
6.446000	 36.5896
6.464000	 36.7178
6.482000	 36.848
6.500000	 36.9545
6.518000	 37.0745
6.536000	 37.175
6.554000	 37.2581
6.572000	 37.3629
6.590000	 37.3967
6.608000	 37.2974
6.626000	 37.1662
6.644000	 37.0414
6.662000	 36.9238
6.680000	 36.8031
6.698000	 36.6668
6.716000	 36.6102
6.734000	 36.671
6.752000	 36.7832
6.770000	 36.8879
6.788000	 36.9705
6.806000	 37.0634
6.824000	 37.189
6.842000	 37.2926
6.860000	 37.3487
6.878000	 37.3807
6.896000	 37.4075
6.914000	 37.4459
6.932000	 37.4255
6.950000	 37.3158
6.968000	 37.2495
6.986000	 37.2419
7.004000	 37.1608
7.022000	 37.0314
7.040000	 36.95
7.058000	 36.9088
7.076000	 36.8742
7.094000	 36.8754
7.112000	 36.9543
7.130000	 37.0582
7.148000	 37.1354
7.166000	 37.2162
7.184000	 37.3065
7.202000	 37.4021
7.220000	 37.5023
7.238000	 37.5664
7.256000	 37.5919
7.274000	 37.5915
7.292000	 37.5369
7.310000	 37.4608
7.328000	 37.4169
7.346000	 37.3709
7.364000	 37.2985
7.382000	 37.2324
7.400000	 37.1741
7.418000	 37.0882
7.436000	 36.9612
7.454000	 36.8514
7.472000	 36.8363
7.490000	 36.8949
7.508000	 36.9596
7.526000	 37.0352
7.544000	 37.1381
7.562000	 37.2361
7.580000	 37.3127
7.598000	 37.383
7.616000	 37.4557
7.634000	 37.5288
7.652000	 37.5962
7.670000	 37.6598
7.688000	 37.7249
7.706000	 37.7686
7.724000	 37.7532
7.742000	 37.6703
7.760000	 37.5443
7.778000	 37.4052
7.796000	 37.2737
7.814000	 37.1598
7.832000	 37.0749
7.850000	 37.03
7.868000	 37.0083
7.886000	 36.9698
7.904000	 36.9051
7.922000	 36.8624
7.940000	 36.8941
7.958000	 36.9877
7.976000	 37.0787
7.994000	 37.1287
8.012000	 37.1697
8.030000	 37.2639
8.048000	 37.4161
8.065999	 37.5614
8.084000	 37.6565
8.102000	 37.7353
8.120000	 37.8332
8.138000	 37.9179
8.155999	 37.9434
8.173999	 37.9164
8.192000	 37.8663
8.210000	 37.8036
8.228000	 37.7325
8.246000	 37.6598
8.263999	 37.574
8.282000	 37.4573
8.300000	 37.3237
8.318000	 37.211
8.336000	 37.1309
8.353999	 37.0602
8.372000	 36.985
8.390000	 36.9257
8.408000	 36.9076
8.426000	 36.9303
8.443999	 36.9729
8.462000	 37.0212
8.480000	 37.0784
8.498000	 37.1496
8.516000	 37.2342
8.533999	 37.328
8.552000	 37.4227
8.570000	 37.5019
8.588000	 37.5501
8.606000	 37.5745
8.624000	 37.6033
8.641999	 37.6581
8.660000	 37.7347
8.678000	 37.8077
8.696000	 37.8446
8.714000	 37.8216
8.731999	 37.7401
8.750000	 37.6391
8.768000	 37.5673
8.786000	 37.5372
8.804000	 37.5097
8.821999	 37.4373
8.840000	 37.3146
8.858000	 37.1844
8.876000	 37.0963
8.894000	 37.064
8.911999	 37.0577
8.930000	 37.0325
8.948000	 36.9671
8.966000	 36.8788
8.984000	 36.8059
9.001999	 36.776
9.020000	 36.7881
9.038000	 36.824
9.056000	 36.8694
9.074000	 36.9254
9.092000	 37.0037
9.109999	 37.1114
9.128000	 37.2424
9.146000	 37.3763
9.164000	 37.4874
9.182000	 37.5586
9.199999	 37.5939
9.218000	 37.6155
9.236000	 37.6444
9.254000	 37.6791
9.272000	 37.6966
9.289999	 37.6748
9.308000	 37.6138
9.326000	 37.5324
9.344000	 37.4487
9.362000	 37.3664
9.379999	 37.2846
9.398000	 37.2096
9.416000	 37.1535
9.434000	 37.1186
9.452000	 37.0917
9.469999	 37.0498
9.488000	 36.9789
9.506000	 36.8875
9.524000	 36.8041
9.542000	 36.7556
9.560000	 36.7461
9.577999	 36.7567
9.596000	 36.7646
9.614000	 36.7603
9.632000	 36.7505
9.650000	 36.744
9.667999	 36.7416
9.686000	 36.7351
9.704000	 36.7191
9.722000	 36.7002
9.740000	 36.6964
9.757999	 36.7262
9.776000	 36.7958
9.794000	 36.895
9.812000	 37.0039
9.830000	 37.1065
9.847999	 37.1992
9.866000	 37.287
9.884000	 37.3731
9.902000	 37.4514
9.920000	 37.5089
9.937999	 37.5351
9.956000	 37.53
9.974000	 37.5024
9.992000	 37.4629
10.01	37.417
10.028	37.3645
10.046	37.3034
10.064	37.2343
10.082	37.1612
10.1	37.0915
10.118	37.0333
10.136	36.9919
10.154	36.9666
10.172	36.9479
10.19	36.9207
10.208	36.8724
10.226	36.8006
10.244	36.7164
10.262	36.6381
10.28	36.58
10.298	36.5424
10.316	36.5123
10.334	36.4739
10.352	36.4193
10.37	36.3551
10.388	36.2976
10.406	36.2631
10.424	36.2599
10.442	36.2869
10.46	36.3377
10.478	36.4051
10.496	36.4832
10.514	36.5668
10.532	36.6495
10.55	36.7253
10.568	36.7916
10.586	36.8497
10.604	36.9023
10.622	36.9515
10.64	36.9959
10.658	37.0309
10.676	37.0521
10.694	37.0579
10.712	37.0499
10.73	37.033
10.748	37.012
10.766	36.9913
10.784	36.9743
10.802	36.9642
10.82	36.9641
10.838	36.9755
10.856	36.9978
10.874	37.026
10.892	37.0507
10.91	37.0586
10.928	37.037
10.946	36.9775
10.964	36.8802
10.982	36.7536
11	36.6125
11.018	36.4733
11.036	36.3482
11.054	36.2438
11.072	36.1614
11.09	36.0997
11.108	36.0567
11.126	36.0296
11.144	36.0136
11.162	36.0017
11.18	35.9869
11.198	35.9655
11.216	35.9392
11.234	35.9144
11.252	35.8989
11.27	35.8976
11.288	35.9096
11.306	35.9295
11.324	35.9489
11.342	35.9613
11.36	35.9654
11.378	35.9635
11.396	35.9609
11.414	35.9642
11.432	35.9789
11.45	36.0087
11.468	36.0557
11.486	36.1189
11.504	36.1943
11.522	36.2759
11.54	36.3576
11.558	36.4336
11.576	36.5005
11.594	36.5572
11.612	36.6038
11.63	36.6412
11.648	36.6699
11.666	36.6904
11.684	36.7041
11.702	36.7129
11.72	36.7188
11.738	36.7233
11.756	36.7262
11.774	36.7249
11.792	36.7162
11.81	36.6972
11.828	36.6664
11.846	36.6238
11.864	36.5707
11.882	36.5079
11.9	36.4358
11.918	36.3547
11.936	36.2657
11.954	36.1721
11.972	36.0789
11.99	35.9914
12.008	35.9126
12.026	35.8411
12.044	35.7712
12.062	35.6952
12.08	35.6076
12.098	35.5073
12.116	35.4002
12.134	35.2978
12.152	35.2128
12.17	35.1544
12.188	35.1252
12.206	35.1203
12.224	35.1299
12.242	35.1434
12.26	35.1539
12.278	35.1597
12.296	35.1633
12.314	35.17
12.332	35.1848
12.35	35.21
12.368	35.2453
12.386	35.2881
12.404	35.3343
12.422	35.379
12.44	35.4184
12.458	35.4497
12.476	35.4716
12.494	35.4848
12.512	35.4917
12.53	35.4956
12.548	35.5004
12.566	35.5097
12.584	35.5265
12.602	35.5518
12.62	35.5849
12.638	35.624
12.656	35.6661
12.674	35.7089
12.692	35.7504
12.71	35.7901
12.728	35.8283
12.746	35.8656
12.764	35.9017
12.782	35.9358
12.8	35.9657
12.818	35.9885
12.836	36.0013
12.854	36.002
12.872	35.9902
12.89	35.9671
12.908	35.9364
12.926	35.9017
12.944	35.867
12.962	35.8344
12.98	35.8037
12.998	35.7721
13.016	35.7349
13.034	35.6863
13.052	35.6213
13.07	35.5369
13.088	35.4334
13.106	35.3152
13.124	35.1894
13.142	35.0648
13.16	34.9501
13.178	34.8524
13.196	34.7758
13.214	34.721
13.232	34.6861
13.25	34.6671
13.268	34.6593
13.286	34.658
13.304	34.6593
13.322	34.6607
13.34	34.6604
13.358	34.658
13.376	34.6542
13.394	34.6502
13.412	34.6475
13.43	34.6474
13.448	34.6506
13.466	34.6571
13.484	34.6657
13.502	34.6732
13.52	34.6756
13.538	34.6689
13.556	34.6494
13.574	34.615
13.592	34.5661
13.61	34.506
13.628	34.441
13.646	34.3783
13.664	34.3262
13.682	34.2918
13.7	34.2804
13.718	34.2942
13.736	34.3322
13.754	34.3908
13.772	34.4641
13.79	34.5444
13.808	34.6242
13.826	34.6966
13.844	34.757
13.862	34.8027
13.88	34.8337
13.898	34.8522
13.916	34.8616
13.934	34.8662
13.952	34.8701
13.97	34.8765
13.988	34.8873
14.006	34.9031
14.024	34.9238
14.042	34.9482
14.06	34.9745
14.078	35.0016
14.096	35.0283
14.114	35.054
14.132	35.0781
14.15	35.0997
14.168	35.1184
14.186	35.1334
14.204	35.1438
14.222	35.1487
14.24	35.1485
14.258	35.144
14.276	35.1371
14.294	35.1297
14.312	35.1241
14.33	35.1225
14.348	35.1257
14.366	35.1338
14.384	35.145
14.402	35.1569
14.42	35.1665
14.438	35.1703
14.456	35.1657
14.474	35.1503
14.492	35.1231
14.51	35.0838
14.528	35.0331
14.546	34.9721
14.564	34.9022
14.582	34.8246
14.6	34.7408
14.618	34.6523
14.636	34.561
14.654	34.4688
14.672	34.3779
14.69	34.2908
14.708	34.2096
14.726	34.1361
14.744	34.071
14.762	34.0135
14.78	33.9618
14.798	33.9133
14.816	33.8651
14.834	33.8145
14.852	33.7588
14.87	33.6976
14.888	33.6315
14.906	33.5621
14.924	33.4928
14.942	33.4277
14.96	33.3711
14.978	33.3265
14.996	33.2962
15.014	33.2818
15.032	33.2831
15.05	33.2983
15.068	33.3246
15.086	33.3587
15.104	33.3969
15.122	33.4357
15.14	33.4724
15.158	33.5056
15.176	33.5345
15.194	33.5594
15.212	33.5816
15.23	33.6022
15.248	33.6226
15.266	33.6436
15.284	33.6661
15.302	33.6897
15.32	33.7133
15.338	33.7356
15.356	33.7544
15.374	33.7675
15.392	33.7736
15.41	33.772
15.428	33.7619
15.446	33.7448
15.464	33.7225
15.482	33.6978
15.5	33.674
15.518	33.6551
15.536	33.6439
15.554	33.6429
15.572	33.6541
15.59	33.6778
15.608	33.7134
15.626	33.7595
15.644	33.8138
15.662	33.8727
15.68	33.9334
15.698	33.9929
15.716	34.0482
15.734	34.097
15.752	34.138
15.77	34.1702
15.788	34.1936
15.806	34.2088
15.824	34.2167
15.842	34.2183
15.86	34.2148
15.878	34.2069
15.896	34.1955
15.914	34.1812
15.932	34.1643
15.95	34.1446
15.968	34.1221
15.986	34.097
16.004	34.0697
16.022	34.0409
16.04	34.0116
16.058	33.983
16.076	33.956
16.094	33.9326
16.112	33.9139
16.13	33.9005
16.148	33.8933
16.166	33.8916
16.184	33.8946
16.202	33.9011
16.22	33.9082
16.238	33.9139
16.256	33.916
16.274	33.9112
16.292	33.8978
16.31	33.8744
16.328	33.8396
16.346	33.7937
16.364	33.737
16.382	33.671
16.4	33.5977
16.418	33.5186
16.436	33.4364
16.454	33.3533
16.472	33.2707
16.49	33.1909
16.508	33.1145
16.526	33.0423
16.544	32.9747
16.562	32.9113
16.58	32.8517
16.598	32.795
16.616	32.7404
16.634	32.6872
16.652	32.634
16.67	32.5802
16.688	32.5252
16.706	32.4681
16.724	32.4089
16.742	32.348
16.76	32.2855
16.778	32.2221
16.796	32.1591
16.814	32.0981
16.832	32.0402
16.85	31.988
16.868	31.9431
16.886	31.9071
16.904	31.8825
16.922	31.8696
16.94	31.8696
16.958	31.8821
16.976	31.9067
16.994	31.9419
17.012	31.9856
17.03	32.0361
17.048	32.0894
17.066	32.1437
17.084	32.1959
17.102	32.2434
17.12	32.285
17.138	32.3189
17.156	32.3451
17.174	32.3633
17.192	32.3753
17.21	32.3819
17.228	32.3855
17.246	32.3882
17.264	32.3915
17.282	32.3976
17.3	32.407
17.318	32.4209
17.336	32.4389
17.354	32.4608
17.372	32.4845
17.39	32.509
17.408	32.5315
17.426	32.5498
17.444	32.5624
17.462	32.5667
17.48	32.5623
17.498	32.5479
17.516	32.5244
17.534	32.4919
17.552	32.453
17.57	32.4085
17.588	32.3624
17.606	32.3166
17.624	32.2745
17.642	32.2392
17.66	32.2123
17.678	32.1968
17.696	32.1931
17.714	32.2024
17.732	32.2238
17.75	32.2571
17.768	32.2995
17.786	32.3502
17.804	32.4051
17.822	32.4629
17.84	32.5197
17.858	32.5738
17.876	32.6228
17.894	32.6651
17.912	32.6998
17.93	32.7262
17.948	32.7444
17.966	32.7551
17.984	32.7593
18.002	32.7585
18.02	32.7543
18.038	32.748
18.056	32.7412
18.074	32.7346
18.092	32.7294
18.11	32.726
18.128	32.7247
18.146	32.725
18.164	32.7266
18.182	32.7285
18.2	32.7296
18.218	32.7286
18.236	32.7248
18.254	32.7164
18.272	32.7031
18.29	32.6836
18.308	32.6578
18.326	32.625
18.344	32.5855
18.362	32.5393
18.38	32.4868
18.398	32.4288
18.416	32.3659
18.434	32.299
18.452	32.2293
18.47	32.1575
18.488	32.0854
18.506	32.0134
18.524	31.9435
18.542	31.876
18.56	31.8129
18.578	31.7542
18.596	31.7014
18.614	31.6545
18.632	31.6144
18.65	31.5809
18.668	31.5539
18.686	31.5333
18.704	31.5182
18.722	31.508
18.74	31.5013
18.758	31.4974
18.776	31.4945
18.794	31.492
18.812	31.4878
18.83	31.4813
18.848	31.4709
18.866	31.4561
18.884	31.4355
18.902	31.409
18.92	31.3759
18.938	31.3362
18.956	31.2898
18.974	31.2371
18.992	31.1782
19.01	31.1139
19.028	31.0448
19.046	30.9716
19.064	30.8952
19.082	30.8165
19.1	30.7366
19.118	30.6563
19.136	30.577
19.154	30.4993
19.172	30.4249
19.19	30.3543
19.208	30.2891
19.226	30.2297
19.244	30.1778
19.262	30.1333
19.28	30.0977
19.298	30.0708
19.316	30.0531
19.334	30.0444
19.352	30.0446
19.37	30.0534
19.388	30.069
19.406	30.0917
19.424	30.1188
19.442	30.1504
19.46	30.1834
19.478	30.2176
19.496	30.2504
19.514	30.2813
19.532	30.3085
19.55	30.3308
19.568	30.3479
19.586	30.3588
19.604	30.3636
19.622	30.362
19.64	30.3544
19.658	30.3417
19.676	30.3241
19.694	30.3038
19.712	30.2804
19.73	30.2568
19.748	30.233
19.766	30.2111
19.784	30.1917
19.802	30.1761
19.82	30.1652
19.838	30.1593
19.856	30.1596
19.874	30.1657
19.892	30.1779
19.91	30.1961
19.928	30.2195
19.946	30.2483
19.964	30.2808
19.982	30.317
20	30.3554
20.018	30.3953
20.036	30.4359
20.054	30.4754
20.072	30.514
20.09	30.5495
20.108	30.5823
20.126	30.6106
20.144	30.6344
20.162	30.6531
20.18	30.6662
20.198	30.6739
20.216	30.6757
20.234	30.6719
20.252	30.6628
20.27	30.6483
20.288	30.6296
20.306	30.6066
20.324	30.5803
20.342	30.5513
20.36	30.52
20.378	30.4876
20.396	30.4541
20.414	30.4206
20.432	30.387
20.45	30.3542
20.468	30.3225
20.486	30.292
20.504	30.2631
20.522	30.2357
20.54	30.2096
20.558	30.1851
20.576	30.1616
20.594	30.1391
20.612	30.1174
20.63	30.0961
20.648	30.0753
20.666	30.0545
20.684	30.0338
20.702	30.0132
20.72	29.9925
20.738	29.972
20.756	29.9519
20.774	29.9321
20.792	29.9132
20.81	29.8952
20.828	29.8783
20.846	29.8631
20.864	29.8494
20.882	29.8379
20.9	29.8285
20.918	29.8213
20.936	29.8166
20.954	29.814
20.972	29.8133
20.99	29.8146
21.008	29.8172
21.026	29.821
21.044	29.8259
21.062	29.8312
21.08	29.837
21.098	29.8428
21.116	29.8483
21.134	29.8534
21.152	29.8576
21.17	29.8611
21.188	29.8635
21.206	29.8646
21.224	29.8646
21.242	29.8633
21.26	29.8608
21.278	29.8569
21.296	29.8516
21.314	29.845
21.332	29.8369
21.35	29.8273
21.368	29.8162
21.386	29.8035
21.404	29.7893
21.422	29.7734
21.44	29.756
21.458	29.737
21.476	29.7164
21.494	29.6941
21.512	29.6704
21.53	29.6451
21.548	29.6188
21.566	29.5918
21.584	29.564
21.602	29.5367
21.62	29.5095
21.638	29.4832
21.656	29.4585
21.674	29.4351
21.692	29.4141
21.71	29.3955
21.728	29.3795
21.746	29.367
21.764	29.3577
21.782	29.3518
21.8	29.3496
21.818	29.351
21.836	29.3555
21.854	29.3634
21.872	29.3741
21.89	29.3867
21.908	29.4017
21.926	29.4177
21.944	29.4342
21.962	29.4514
21.98	29.4673
21.998	29.482
22.016	29.495
22.034	29.5049
22.052	29.5122
22.07	29.5157
22.088	29.5144
22.106	29.5088
22.124	29.4975
22.142	29.4803
22.16	29.4572
22.178	29.427
22.196	29.3901
22.214	29.3463
22.232	29.2952
22.25	29.2369
22.268	29.1719
22.286	29.1001
22.304	29.0217
22.322	28.9378
22.34	28.8481
22.358	28.7534
22.376	28.6559
22.394	28.5547
22.412	28.4514
22.43	28.3487
22.448	28.2451
22.466	28.1434
22.484	28.0458
22.502	27.9509
22.52	27.8617
22.538	27.7793
22.556	27.703
22.574	27.6353
22.592	27.5766
22.61	27.5264
22.628	27.4858
22.646	27.4551
22.664	27.4335
22.682	27.4201
22.7	27.4161
22.718	27.4192
22.736	27.4273
22.754	27.4421
22.772	27.4599
22.79	27.4781
22.808	27.4985
22.826	27.5166
22.844	27.5298
22.862	27.5399
22.88	27.5425
22.898	27.5358
22.916	27.5211
22.934	27.4953
22.952	27.4576
22.97	27.4087
22.988	27.3472
23.006	27.2722
23.024	27.1847
23.042	27.0859
23.06	26.9751
23.078	26.8533
23.096	26.724
23.114	26.5862
23.132	26.4412
23.15	26.2944
23.168	26.1448
23.186	25.9937
23.204	25.8467
23.222	25.7026
23.24	25.5628
23.258	25.4326
23.276	25.3114
23.294	25.1998
23.312	25.1019
23.33	25.0175
23.348	24.9466
23.366	24.8915
23.384	24.8526
23.402	24.8291
23.42	24.8215
23.438	24.8305
23.456	24.8551
23.474	24.8935
23.492	24.9463
23.51	25.013
23.528	25.0897
23.546	25.1763
23.564	25.2731
23.582	25.3756
23.6	25.4828
23.618	25.5958
23.636	25.7104
23.654	25.8244
23.672	25.9398
23.69	26.0533
23.708	26.1627
23.726	26.2697
23.744	26.3725
23.762	26.4693
23.78	26.561
23.798	26.6474
23.816	26.7279
23.834	26.8026
23.852	26.8719
23.87	26.9364
23.888	26.9953
23.906	27.0498
23.924	27.1015
23.942	27.1503
23.96	27.1961
23.978	27.2412
23.996	27.2863
24.014	27.3305
24.032	27.3752
24.05	27.4212
24.068	27.4682
24.086	27.5156
24.104	27.5634
24.122	27.6121
24.14	27.6604
24.158	27.7068
24.176	27.7526
24.194	27.7964
24.212	27.8348
24.23	27.8678
24.248	27.896
24.266	27.9161
24.284	27.9266
24.302	27.9293
24.32	27.9213
24.338	27.9
24.356	27.8671
24.374	27.8212
24.392	27.7594
24.41	27.6821
24.428	27.5896
24.446	27.4804
24.464	27.3535
24.482	27.2096
24.5	27.0496
24.518	26.8739
24.536	26.6813
24.554	26.4741
24.572	26.2553
24.59	26.0229
24.608	25.7784
24.626	25.5267
24.644	25.2694
24.662	25.0037
24.68	24.7355
24.698	24.4704
24.716	24.2046
24.734	23.9407
24.752	23.6837
24.77	23.4329
24.788	23.1875
24.806	22.9525
24.824	22.7313
24.842	22.5201
24.86	22.323
24.878	22.1451
24.896	21.9845
24.914	21.8415
24.932	21.7204
24.95	21.6234
24.968	21.5481
24.986	21.4961
25.004	21.4693
25.022	21.4672
25.04	21.4893
25.058	21.536
25.076	21.6077
25.094	21.7044
25.112	21.8243
25.13	21.9658
25.148	22.1307
25.166	22.3172
25.184	22.5216
25.202	22.7427
25.22	22.9831
25.238	23.2381
25.256	23.5036
25.274	23.7835
25.292	24.075
25.31	24.3705
25.328	24.6665
25.346	24.9692
25.364	25.2699
25.382	25.5587
25.4	25.8399
25.418	26.1131
25.436	26.3672
25.454	26.5941
25.472	26.8024
25.49	26.9853
25.508	27.1328
25.526	27.2437
25.544	27.323
25.562	27.3622
25.58	27.3533
25.598	27.3
25.616	27.2022
25.634	27.0559
25.652	26.8575
25.67	26.6083
25.688	26.3115
25.706	25.97
25.724	25.5803
25.742	25.1429
25.76	24.6683
25.778	24.1661
25.796	23.6249
25.814	23.0529
25.832	22.4682
25.85	21.8808
25.868	21.2739
25.886	20.6653
25.904	20.0773
25.922	19.5129
25.94	18.9595
25.958	18.4365
25.976	17.9631
25.994	17.5321
26.012	17.1417
26.03	16.8058
26.048	16.5364
26.066	16.323
26.084	16.1702
26.102	16.0885
26.12	16.0863
26.138	16.1581
26.156	16.3018
26.174	16.5161
26.192	16.8022
26.21	17.1614
26.228	17.587
26.246	18.072
26.264	18.6242
26.282	19.2437
26.3	19.9085
26.318	20.5969
26.336	21.329
26.354	22.0986
26.372	22.8696
26.39	23.6097
26.408	24.3505
26.426	25.0779
26.444	25.7504
26.462	26.3356
26.48	26.8743
26.498	27.3416
26.516	27.6912
26.534	27.889
26.552	27.9705
26.57	27.9211
26.588	27.7144
26.606	27.3301
26.624	26.7818
26.642	26.0757
26.66	25.2153
26.678	24.1958
26.696	23.0041
26.714	21.6704
26.732	20.2289
26.75	18.6859
26.768	17.0019
26.786	15.2332
26.804	13.4426
26.822	11.6527
26.84	9.805932
26.858	7.959903
26.876	6.180052
26.894	4.495066
26.912	2.850236
26.93	1.286100
26.948	-0.149592
26.966	-1.449283
26.984	-2.676847
27.002	-3.747447
27.02	-4.565157
27.028	-4.795145