File: Bakgrunnsmateriale/MATLAB/FTIR/ftir_data/LPE453/Mapping_121/LPE453_e126.asc
PE IR       SPECTRUM    SPECTRUM    ASCII       PEDS        1.60
  -1
LP8B83~1.ASC
17/05/16
21:38:07.00
17/05/16
21:38:34.00
tln
$LPE453_e0126$<ebV0>[-23.3,12.1,10.0,0.0,27,1,0]
27.028
64

2002,4.07
MIRTGS : RIGHTBACK : INTERNAL 2
MIR : ON : INTERNAL 2
OPTKBR

0.200000
8
8.000000
FILLER
SINGLE
SPECTRUM
UNLOCKED 256

DOUBLE

COMBINED
1
0
0

0.002000
BACKG

1
0
TRUE
51149
0
LEFT NOT FITTED RIGHT NOT FITTED 0
NONE
NONE
15600
12
4.427000
51148
TRUE
1 0 8 72 0 0 0 0

15798

#HDR
-1
-1
#GR
µM
EGY
2.38419e-05
0.0
2.000000
0.002000
12515
8
2.420753
0.009417
#DATA
2.000000	 0.769877
2.018000	 0.784612
2.036000	 0.804602
2.054000	 0.826139
2.072000	 0.843404
2.090000	 0.875241
2.108000	 0.889084
2.126000	 0.904120
2.144000	 0.920568
2.162000	 0.914553
2.180000	 0.945090
2.198000	 0.972704
2.216000	 0.989659
2.234000	 1.001273
2.252000	 1.015149
2.270000	 1.019373
2.288000	 1.035684
2.306000	 1.066891
2.324000	 1.106594
2.342000	 1.142085
2.360000	 1.169736
2.378000	 1.184866
2.396000	 1.199792
2.414000	 1.217723
2.432000	 1.246869
2.450000	 1.280594
2.468000	 1.322043
2.486000	 1.357825
2.504000	 1.387040
2.522000	 1.403101
2.540000	 1.414439
2.558000	 1.423145
2.576000	 1.429401
2.594000	 1.437279
2.612000	 1.480658
2.630000	 1.500572
2.648000	 1.533107
2.666000	 1.532992
2.684000	 1.559236
2.702000	 1.566875
2.720000	 1.556369
2.738000	 1.557554
2.756000	 1.563813
2.774000	 1.577255
2.792000	 1.591732
2.810000	 1.602041
2.828000	 1.607995
2.846000	 1.613715
2.864000	 1.605121
2.882000	 1.596750
2.900000	 1.580188
2.918000	 1.572370
2.936000	 1.580240
2.954000	 1.591923
2.972000	 1.612795
2.990000	 1.641131
3.008000	 1.668402
3.026000	 1.694646
3.044000	 1.724480
3.062000	 1.742169
3.080000	 1.757974
3.098000	 1.767518
3.116000	 1.771920
3.134000	 1.775542
3.152000	 1.778312
3.170000	 1.788492
3.188000	 1.803080
3.206000	 1.821558
3.224000	 1.851295
3.242000	 1.886964
3.260000	 1.911052
3.278000	 1.936221
3.296000	 1.957683
3.314000	 1.938930
3.332000	 2.001103
3.350000	 2.007690
3.368000	 1.948444
3.386000	 1.903368
3.404000	 1.813023
3.422000	 1.765824
3.440000	 1.912674
3.458000	 1.968561
3.476000	 1.982614
3.494000	 1.888358
3.512000	 1.989623
3.530000	 2.079351
3.548000	 2.120146
3.566000	 2.147587
3.584000	 2.171337
3.602000	 2.200798
3.620000	 2.217137
3.638000	 2.227547
3.656000	 2.233156
3.674000	 2.235800
3.692000	 2.228779
3.710000	 2.223885
3.728000	 2.216232
3.746000	 2.208862
3.764000	 2.202772
3.782000	 2.199125
3.800000	 2.197545
3.818000	 2.197150
3.836000	 2.201053
3.854000	 2.204593
3.872000	 2.217462
3.890000	 2.236888
3.908000	 2.252307
3.926000	 2.265132
3.944000	 2.278624
3.962000	 2.287211
3.980000	 2.294327
3.998000	 2.297438
4.016000	 2.300550
4.034000	 2.296186
4.052000	 2.292232
4.070000	 2.282598
4.088000	 2.271251
4.106000	 2.258835
4.124000	 2.249000
4.141999	 2.237776
4.160000	 2.231956
4.178000	 2.226613
4.196000	 2.223536
4.214000	 2.213072
4.232000	 2.208854
4.250000	 2.226394
4.268000	 2.237338
4.286000	 2.248210
4.304000	 2.267708
4.322000	 2.287483
4.340000	 2.301403
4.358000	 2.314297
4.375999	 2.328504
4.394000	 2.336469
4.412000	 2.345451
4.430000	 2.346981
4.448000	 2.349077
4.466000	 2.349724
4.484000	 2.348857
4.502000	 2.342543
4.520000	 2.336741
4.538000	 2.331149
4.556000	 2.323743
4.574000	 2.317568
4.592000	 2.313682
4.609999	 2.307452
4.628000	 2.301856
4.646000	 2.302499
4.664000	 2.304301
4.682000	 2.303866
4.700000	 2.302106
4.718000	 2.305499
4.736000	 2.305124
4.754000	 2.306481
4.772000	 2.306335
4.790000	 2.306400
4.808000	 2.312084
4.826000	 2.322195
4.843999	 2.339208
4.862000	 2.354175
4.880000	 2.368554
4.898000	 2.383351
4.916000	 2.395256
4.934000	 2.405364
4.952000	 2.409505
4.970000	 2.412699
4.988000	 2.419232
5.006000	 2.420301
5.024000	 2.420424
5.042000	 2.416362
5.060000	 2.410144
5.077999	 2.404410
5.096000	 2.398398
5.114000	 2.392172
5.132000	 2.385440
5.150000	 2.381443
5.168000	 2.377184
5.186000	 2.370273
5.204000	 2.361664
5.222000	 2.354145
5.240000	 2.346109
5.258000	 2.339539
5.276000	 2.334056
5.294000	 2.333967
5.312000	 2.338493
5.330000	 2.341207
5.348000	 2.339556
5.366000	 2.343035
5.384000	 2.350244
5.402000	 2.353597
5.420000	 2.354161
5.438000	 2.361156
5.456000	 2.365347
5.474000	 2.370476
5.492000	 2.380533
5.510000	 2.385467
5.528000	 2.389522
5.546000	 2.391903
5.564000	 2.390673
5.582000	 2.388391
5.600000	 2.391302
5.618000	 2.389016
5.636000	 2.377113
5.654000	 2.373642
5.672000	 2.375152
5.690000	 2.366873
5.708000	 2.348651
5.726000	 2.332890
5.744000	 2.313707
5.762000	 2.290812
5.780000	 2.289017
5.798000	 2.287740
5.816000	 2.267639
5.834000	 2.261237
5.852000	 2.260894
5.870000	 2.239340
5.888000	 2.219111
5.906000	 2.222738
5.923999	 2.215218
5.942000	 2.203642
5.960000	 2.204739
5.978000	 2.195221
5.996000	 2.185848
6.014000	 2.177422
6.032000	 2.156661
6.050000	 2.130162
6.068000	 2.127059
6.086000	 2.127812
6.104000	 2.115254
6.122000	 2.102552
6.140000	 2.092533
6.158000	 2.069305
6.176000	 2.034276
6.194000	 1.989884
6.212000	 1.949551
6.230000	 1.939187
6.248000	 1.957494
6.266000	 1.976556
6.284000	 1.982978
6.302000	 1.977976
6.320000	 1.968026
6.338000	 1.956075
6.356000	 1.950193
6.374000	 1.945139
6.392000	 1.923990
6.410000	 1.896426
6.428000	 1.898487
6.446000	 1.919205
6.464000	 1.924316
6.482000	 1.926803
6.500000	 1.963515
6.518000	 2.023168
6.536000	 2.063657
6.554000	 2.076414
6.572000	 2.075151
6.590000	 2.069463
6.608000	 2.059495
6.626000	 2.039737
6.644000	 1.989152
6.662000	 1.865326
6.680000	 1.704099
6.698000	 1.647335
6.716000	 1.731663
6.734000	 1.848231
6.752000	 1.917910
6.770000	 1.940355
6.788000	 1.941662
6.806000	 1.935450
6.824000	 1.917474
6.842000	 1.876028
6.860000	 1.808624
6.878000	 1.746696
6.896000	 1.736363
6.914000	 1.776548
6.932000	 1.817301
6.950000	 1.832834
6.968000	 1.837931
6.986000	 1.841491
7.004000	 1.840899
7.022000	 1.835626
7.040000	 1.827722
7.058000	 1.818655
7.076000	 1.800089
7.094000	 1.761948
7.112000	 1.717890
7.130000	 1.697559
7.148000	 1.710872
7.166000	 1.740113
7.184000	 1.761017
7.202000	 1.762981
7.220000	 1.758022
7.238000	 1.762203
7.256000	 1.773018
7.274000	 1.780810
7.292000	 1.784986
7.310000	 1.787884
7.328000	 1.789279
7.346000	 1.789494
7.364000	 1.788889
7.382000	 1.787686
7.400000	 1.786499
7.418000	 1.785837
7.436000	 1.785572
7.454000	 1.786753
7.472000	 1.791495
7.490000	 1.799858
7.508000	 1.808367
7.526000	 1.814037
7.544000	 1.817248
7.562000	 1.819749
7.580000	 1.822067
7.598000	 1.823515
7.616000	 1.823524
7.634000	 1.822940
7.652000	 1.823076
7.670000	 1.824076
7.688000	 1.825008
7.706000	 1.825508
7.724000	 1.825919
7.742000	 1.826222
7.760000	 1.825767
7.778000	 1.824496
7.796000	 1.822274
7.814000	 1.817728
7.832000	 1.808571
7.850000	 1.792527
7.868000	 1.767726
7.886000	 1.735700
7.904000	 1.705330
7.922000	 1.689970
7.940000	 1.697619
7.958000	 1.723831
7.976000	 1.755179
7.994000	 1.779942
8.012000	 1.794831
8.030000	 1.802657
8.048000	 1.806419
8.065999	 1.807459
8.084000	 1.806670
8.102000	 1.804635
8.120000	 1.801476
8.138000	 1.797243
8.155999	 1.792030
8.173999	 1.785389
8.192000	 1.776307
8.210000	 1.764426
8.228000	 1.751069
8.246000	 1.738525
8.263999	 1.728693
8.282000	 1.722587
8.300000	 1.719936
8.318000	 1.719839
8.336000	 1.720885
8.353999	 1.721480
8.372000	 1.720086
8.390000	 1.716425
8.408000	 1.711098
8.426000	 1.704887
8.443999	 1.698467
8.462000	 1.692107
8.480000	 1.685681
8.498000	 1.678637
8.516000	 1.670500
8.533999	 1.661157
8.552000	 1.650913
8.570000	 1.640019
8.588000	 1.628486
8.606000	 1.616645
8.624000	 1.605879
8.641999	 1.597554
8.660000	 1.592079
8.678000	 1.588594
8.696000	 1.585712
8.714000	 1.582516
8.731999	 1.578581
8.750000	 1.573794
8.768000	 1.568017
8.786000	 1.561004
8.804000	 1.552664
8.821999	 1.543229
8.840000	 1.533013
8.858000	 1.522372
8.876000	 1.511621
8.894000	 1.500663
8.911999	 1.489435
8.930000	 1.477917
8.948000	 1.466138
8.966000	 1.454217
8.984000	 1.442462
9.001999	 1.431577
9.020000	 1.422360
9.038000	 1.415487
9.056000	 1.411035
9.074000	 1.408431
9.092000	 1.406769
9.109999	 1.405375
9.128000	 1.404111
9.146000	 1.403292
9.164000	 1.403367
9.182000	 1.404262
9.199999	 1.405426
9.218000	 1.406061
9.236000	 1.405754
9.254000	 1.404939
9.272000	 1.404543
9.289999	 1.405384
9.308000	 1.407537
9.326000	 1.410572
9.344000	 1.413557
9.362000	 1.415760
9.379999	 1.416660
9.398000	 1.415519
9.416000	 1.410688
9.434000	 1.399197
9.452000	 1.378510
9.469999	 1.349249
9.488000	 1.317156
9.506000	 1.291677
9.524000	 1.281026
9.542000	 1.287519
9.560000	 1.306327
9.577999	 1.328734
9.596000	 1.347231
9.614000	 1.358464
9.632000	 1.363020
9.650000	 1.363183
9.667999	 1.361135
9.686000	 1.358155
9.704000	 1.354790
9.722000	 1.351229
9.740000	 1.347641
9.757999	 1.344281
9.776000	 1.341678
9.794000	 1.340396
9.812000	 1.340904
9.830000	 1.343175
9.847999	 1.346841
9.866000	 1.351489
9.884000	 1.356568
9.902000	 1.361650
9.920000	 1.366363
9.937999	 1.370533
9.956000	 1.373984
9.974000	 1.376599
9.992000	 1.378462
10.01	1.379489
10.028	1.379628
10.046	1.378837
10.064	1.377162
10.082	1.374843
10.1	1.372162
10.118	1.369199
10.136	1.365955
10.154	1.362396
10.172	1.358543
10.19	1.354700
10.208	1.351091
10.226	1.347858
10.244	1.344751
10.262	1.341479
10.28	1.337724
10.298	1.333313
10.316	1.328371
10.334	1.322953
10.352	1.317180
10.37	1.311031
10.388	1.304652
10.406	1.298150
10.424	1.291723
10.442	1.285576
10.46	1.279836
10.478	1.274542
10.496	1.269766
10.514	1.265450
10.532	1.261551
10.55	1.257884
10.568	1.254285
10.586	1.250668
10.604	1.247065
10.622	1.243601
10.64	1.240394
10.658	1.237485
10.676	1.234628
10.694	1.231748
10.712	1.228638
10.73	1.225303
10.748	1.221882
10.766	1.218414
10.784	1.214974
10.802	1.211611
10.82	1.208269
10.838	1.204918
10.856	1.201390
10.874	1.197593
10.892	1.193294
10.91	1.188346
10.928	1.182727
10.946	1.176684
10.964	1.170536
10.982	1.164663
11	1.159371
11.018	1.154794
11.036	1.150887
11.054	1.147539
11.072	1.144623
11.09	1.141986
11.108	1.139626
11.126	1.137397
11.144	1.135189
11.162	1.132859
11.18	1.130098
11.198	1.126598
11.216	1.122028
11.234	1.116088
11.252	1.108542
11.27	1.099309
11.288	1.088443
11.306	1.076299
11.324	1.063443
11.342	1.050544
11.36	1.038573
11.378	1.028464
11.396	1.020974
11.414	1.016764
11.432	1.016059
11.45	1.018760
11.468	1.024262
11.486	1.031785
11.504	1.040289
11.522	1.048837
11.54	1.056714
11.558	1.063376
11.576	1.068636
11.594	1.072551
11.612	1.075209
11.63	1.076845
11.648	1.077673
11.666	1.077780
11.684	1.077351
11.702	1.076471
11.72	1.075238
11.738	1.073757
11.756	1.072078
11.774	1.070291
11.792	1.068450
11.81	1.066342
11.828	1.063990
11.846	1.061162
11.864	1.057659
11.882	1.053244
11.9	1.047563
11.918	1.040258
11.936	1.030774
11.954	1.018740
11.972	1.003701
11.99	0.985473
12.008	0.964318
12.026	0.940834
12.044	0.916210
12.062	0.892044
12.08	0.870271
12.098	0.852703
12.116	0.840844
12.134	0.835546
12.152	0.836790
12.17	0.843802
12.188	0.855118
12.206	0.868899
12.224	0.883412
12.242	0.897049
12.26	0.908838
12.278	0.918249
12.296	0.925126
12.314	0.929768
12.332	0.932541
12.35	0.933943
12.368	0.934289
12.386	0.934005
12.404	0.933388
12.422	0.932543
12.44	0.931746
12.458	0.931123
12.476	0.930805
12.494	0.930953
12.512	0.931630
12.53	0.932868
12.548	0.934583
12.566	0.936759
12.584	0.939331
12.602	0.942151
12.62	0.945120
12.638	0.948114
12.656	0.951050
12.674	0.953919
12.692	0.956524
12.71	0.958879
12.728	0.960918
12.746	0.962590
12.764	0.963833
12.782	0.964648
12.8	0.965109
12.818	0.965222
12.836	0.965038
12.854	0.964677
12.872	0.964228
12.89	0.963674
12.908	0.963068
12.926	0.962410
12.944	0.961687
12.962	0.960895
12.98	0.960036
12.998	0.959113
13.016	0.958133
13.034	0.957185
13.052	0.956252
13.07	0.955316
13.088	0.954505
13.106	0.953728
13.124	0.952930
13.142	0.952130
13.16	0.951228
13.178	0.950251
13.196	0.949162
13.214	0.947906
13.232	0.946557
13.25	0.945116
13.268	0.943604
13.286	0.942025
13.304	0.940434
13.322	0.938885
13.34	0.937363
13.358	0.935904
13.376	0.934492
13.394	0.933124
13.412	0.931729
13.43	0.930322
13.448	0.928832
13.466	0.927152
13.484	0.925322
13.502	0.923370
13.52	0.921283
13.538	0.919034
13.556	0.916671
13.574	0.914204
13.592	0.911681
13.61	0.909031
13.628	0.906310
13.646	0.903549
13.664	0.900702
13.682	0.897776
13.7	0.894796
13.718	0.891829
13.736	0.888914
13.754	0.886049
13.772	0.883276
13.79	0.880615
13.808	0.878092
13.826	0.875651
13.844	0.873268
13.862	0.870873
13.88	0.868438
13.898	0.865973
13.916	0.863444
13.934	0.860811
13.952	0.858100
13.97	0.855356
13.988	0.852565
14.006	0.849805
14.024	0.847051
14.042	0.844368
14.06	0.841673
14.078	0.839023
14.096	0.836346
14.114	0.833635
14.132	0.830833
14.15	0.827898
14.168	0.824858
14.186	0.821634
14.204	0.818331
14.222	0.814861
14.24	0.811254
14.258	0.807458
14.276	0.803471
14.294	0.799254
14.312	0.794747
14.33	0.789898
14.348	0.784631
14.366	0.778939
14.384	0.772818
14.402	0.766342
14.42	0.759658
14.438	0.752917
14.456	0.746302
14.474	0.740054
14.492	0.734428
14.51	0.729580
14.528	0.725686
14.546	0.722788
14.564	0.720870
14.582	0.719859
14.6	0.719622
14.618	0.720013
14.636	0.720713
14.654	0.721588
14.672	0.722462
14.69	0.723180
14.708	0.723636
14.726	0.723771
14.744	0.723571
14.762	0.723091
14.78	0.722308
14.798	0.721262
14.816	0.720059
14.834	0.718716
14.852	0.717265
14.87	0.715701
14.888	0.714063
14.906	0.712385
14.924	0.710646
14.942	0.708852
14.96	0.706969
14.978	0.705023
14.996	0.703043
15.014	0.701039
15.032	0.699056
15.05	0.697106
15.068	0.695200
15.086	0.693344
15.104	0.691536
15.122	0.689811
15.14	0.688156
15.158	0.686541
15.176	0.684939
15.194	0.683344
15.212	0.681679
15.23	0.679959
15.248	0.678168
15.266	0.676260
15.284	0.674218
15.302	0.672117
15.32	0.669958
15.338	0.667739
15.356	0.665536
15.374	0.663317
15.392	0.661130
15.41	0.659007
15.428	0.656930
15.446	0.654886
15.464	0.652868
15.482	0.650858
15.5	0.648819
15.518	0.646774
15.536	0.644712
15.554	0.642626
15.572	0.640522
15.59	0.638361
15.608	0.636200
15.626	0.634075
15.644	0.631949
15.662	0.629837
15.68	0.627758
15.698	0.625723
15.716	0.623717
15.734	0.621743
15.752	0.619792
15.77	0.617856
15.788	0.615967
15.806	0.614102
15.824	0.612254
15.842	0.610433
15.86	0.608668
15.878	0.606939
15.896	0.605220
15.914	0.603579
15.932	0.601965
15.95	0.600365
15.968	0.598800
15.986	0.597228
16.004	0.595646
16.022	0.594057
16.04	0.592452
16.058	0.590807
16.076	0.589102
16.094	0.587323
16.112	0.585438
16.13	0.583443
16.148	0.581353
16.166	0.579159
16.184	0.576845
16.202	0.574386
16.22	0.571775
16.238	0.569014
16.256	0.566103
16.274	0.563043
16.292	0.559840
16.31	0.556503
16.328	0.553057
16.346	0.549548
16.364	0.546012
16.382	0.542490
16.4	0.539032
16.418	0.535676
16.436	0.532484
16.454	0.529512
16.472	0.526799
16.49	0.524393
16.508	0.522283
16.526	0.520469
16.544	0.518993
16.562	0.517804
16.58	0.516867
16.598	0.516166
16.616	0.515647
16.634	0.515263
16.652	0.514978
16.67	0.514751
16.688	0.514538
16.706	0.514319
16.724	0.514078
16.742	0.513779
16.76	0.513443
16.778	0.513065
16.796	0.512609
16.814	0.512108
16.832	0.511572
16.85	0.510995
16.868	0.510397
16.886	0.509799
16.904	0.509161
16.922	0.508488
16.94	0.507792
16.958	0.507059
16.976	0.506292
16.994	0.505529
17.012	0.504733
17.03	0.503883
17.048	0.503044
17.066	0.502196
17.084	0.501299
17.102	0.500404
17.12	0.499525
17.138	0.498666
17.156	0.497831
17.174	0.497022
17.192	0.496266
17.21	0.495568
17.228	0.494935
17.246	0.494361
17.264	0.493838
17.282	0.493370
17.3	0.492953
17.318	0.492581
17.336	0.492243
17.354	0.491932
17.372	0.491622
17.39	0.491308
17.408	0.490975
17.426	0.490627
17.444	0.490271
17.462	0.489847
17.48	0.489355
17.498	0.488813
17.516	0.488201
17.534	0.487497
17.552	0.486744
17.57	0.485947
17.588	0.485092
17.606	0.484185
17.624	0.483225
17.642	0.482248
17.66	0.481272
17.678	0.480278
17.696	0.479273
17.714	0.478292
17.732	0.477329
17.75	0.476382
17.768	0.475459
17.786	0.474561
17.804	0.473691
17.822	0.472843
17.84	0.472002
17.858	0.471171
17.876	0.470351
17.894	0.469530
17.912	0.468698
17.93	0.467876
17.948	0.467066
17.966	0.466236
17.984	0.465396
18.002	0.464564
18.02	0.463726
18.038	0.462870
18.056	0.462007
18.074	0.461140
18.092	0.460268
18.11	0.459391
18.128	0.458503
18.146	0.457599
18.164	0.456656
18.182	0.455679
18.2	0.454664
18.218	0.453629
18.236	0.452588
18.254	0.451529
18.272	0.450447
18.29	0.449360
18.308	0.448268
18.326	0.447186
18.344	0.446115
18.362	0.445057
18.38	0.444020
18.398	0.443023
18.416	0.442062
18.434	0.441134
18.452	0.440248
18.47	0.439422
18.488	0.438619
18.506	0.437823
18.524	0.437053
18.542	0.436320
18.56	0.435582
18.578	0.434836
18.596	0.434087
18.614	0.433335
18.632	0.432549
18.65	0.431731
18.668	0.430882
18.686	0.430003
18.704	0.429104
18.722	0.428180
18.74	0.427208
18.758	0.426195
18.776	0.425156
18.794	0.424088
18.812	0.422990
18.83	0.421865
18.848	0.420721
18.866	0.419552
18.884	0.418354
18.902	0.417127
18.92	0.415869
18.938	0.414589
18.956	0.413306
18.974	0.412012
18.992	0.410697
19.01	0.409372
19.028	0.408044
19.046	0.406717
19.064	0.405400
19.082	0.404094
19.1	0.402802
19.118	0.401526
19.136	0.400271
19.154	0.399036
19.172	0.397819
19.19	0.396623
19.208	0.395454
19.226	0.394309
19.244	0.393192
19.262	0.392098
19.28	0.391006
19.298	0.389921
19.316	0.388858
19.334	0.387815
19.352	0.386784
19.37	0.385766
19.388	0.384756
19.406	0.383756
19.424	0.382747
19.442	0.381726
19.46	0.380696
19.478	0.379659
19.496	0.378609
19.514	0.377547
19.532	0.376464
19.55	0.375354
19.568	0.374220
19.586	0.373062
19.604	0.371879
19.622	0.370663
19.64	0.369420
19.658	0.368159
19.676	0.366879
19.694	0.365594
19.712	0.364303
19.73	0.362998
19.748	0.361675
19.766	0.360353
19.784	0.359036
19.802	0.357721
19.82	0.356409
19.838	0.355099
19.856	0.353794
19.874	0.352490
19.892	0.351175
19.91	0.349852
19.928	0.348528
19.946	0.347208
19.964	0.345863
19.982	0.344485
20	0.343084
20.018	0.341662
20.036	0.340219
20.054	0.338756
20.072	0.337271
20.09	0.335758
20.108	0.334219
20.126	0.332658
20.144	0.331072
20.162	0.329479
20.18	0.327890
20.198	0.326298
20.216	0.324695
20.234	0.323087
20.252	0.321489
20.27	0.319902
20.288	0.318314
20.306	0.316716
20.324	0.315127
20.342	0.313565
20.36	0.312015
20.378	0.310458
20.396	0.308897
20.414	0.307343
20.432	0.305798
20.45	0.304261
20.468	0.302730
20.486	0.301207
20.504	0.299692
20.522	0.298184
20.54	0.296674
20.558	0.295158
20.576	0.293647
20.594	0.292146
20.612	0.290651
20.63	0.289157
20.648	0.287665
20.666	0.286180
20.684	0.284704
20.702	0.283232
20.72	0.281760
20.738	0.280292
20.756	0.278831
20.774	0.277378
20.792	0.275929
20.81	0.274478
20.828	0.273033
20.846	0.271602
20.864	0.270184
20.882	0.268766
20.9	0.267346
20.918	0.265935
20.936	0.264543
20.954	0.263166
20.972	0.261802
20.99	0.260450
21.008	0.259119
21.026	0.257810
21.044	0.256525
21.062	0.255267
21.08	0.254036
21.098	0.252827
21.116	0.251638
21.134	0.250471
21.152	0.249326
21.17	0.248202
21.188	0.247097
21.206	0.246007
21.224	0.244935
21.242	0.243881
21.26	0.242847
21.278	0.241819
21.296	0.240796
21.314	0.239776
21.332	0.238752
21.35	0.237725
21.368	0.236698
21.386	0.235679
21.404	0.234659
21.422	0.233622
21.44	0.232573
21.458	0.231506
21.476	0.230415
21.494	0.229305
21.512	0.228180
21.53	0.227043
21.548	0.225883
21.566	0.224695
21.584	0.223481
21.602	0.222229
21.62	0.220932
21.638	0.219605
21.656	0.218262
21.674	0.216900
21.692	0.215504
21.71	0.214062
21.728	0.212587
21.746	0.211098
21.764	0.209597
21.782	0.208072
21.8	0.206510
21.818	0.204918
21.836	0.203318
21.854	0.201714
21.872	0.200104
21.89	0.198489
21.908	0.196866
21.926	0.195248
21.944	0.193641
21.962	0.192041
21.98	0.190468
21.998	0.188924
22.016	0.187406
22.034	0.185913
22.052	0.184439
22.07	0.183000
22.088	0.181608
22.106	0.180258
22.124	0.178949
22.142	0.177681
22.16	0.176453
22.178	0.175266
22.196	0.174117
22.214	0.173010
22.232	0.171949
22.25	0.170934
22.268	0.169953
22.286	0.168998
22.304	0.168073
22.322	0.167174
22.34	0.166306
22.358	0.165463
22.376	0.164627
22.394	0.163802
22.412	0.162985
22.43	0.162170
22.448	0.161360
22.466	0.160553
22.484	0.159747
22.502	0.158942
22.52	0.158137
22.538	0.157330
22.556	0.156521
22.574	0.155705
22.592	0.154881
22.61	0.154049
22.628	0.153206
22.646	0.152355
22.664	0.151491
22.682	0.150609
22.7	0.149704
22.718	0.148790
22.736	0.147880
22.754	0.146975
22.772	0.146061
22.79	0.145124
22.808	0.144168
22.826	0.143203
22.844	0.142233
22.862	0.141256
22.88	0.140274
22.898	0.139290
22.916	0.138302
22.934	0.137308
22.952	0.136305
22.97	0.135295
22.988	0.134282
23.006	0.133265
23.024	0.132244
23.042	0.131219
23.06	0.130190
23.078	0.129158
23.096	0.128122
23.114	0.127080
23.132	0.126036
23.15	0.124990
23.168	0.123945
23.186	0.122899
23.204	0.121849
23.222	0.120793
23.24	0.119734
23.258	0.118675
23.276	0.117617
23.294	0.116557
23.312	0.115491
23.33	0.114415
23.348	0.113333
23.366	0.112251
23.384	0.111169
23.402	0.110086
23.42	0.109004
23.438	0.107925
23.456	0.106848
23.474	0.105773
23.492	0.104698
23.51	0.103625
23.528	0.102555
23.546	0.101491
23.564	0.100430
23.582	0.099375
23.6	0.098327
23.618	0.097284
23.636	0.096252
23.654	0.095234
23.672	0.094228
23.69	0.093231
23.708	0.092242
23.726	0.091260
23.744	0.090290
23.762	0.089335
23.78	0.088394
23.798	0.087466
23.816	0.086552
23.834	0.085652
23.852	0.084765
23.87	0.083889
23.888	0.083024
23.906	0.082169
23.924	0.081322
23.942	0.080485
23.96	0.079657
23.978	0.078831
23.996	0.078001
24.014	0.077171
24.032	0.076348
24.05	0.075537
24.068	0.074738
24.086	0.073941
24.104	0.073141
24.122	0.072339
24.14	0.071535
24.158	0.070728
24.176	0.069915
24.194	0.069098
24.212	0.068283
24.23	0.067473
24.248	0.066664
24.266	0.065853
24.284	0.065036
24.302	0.064216
24.32	0.063393
24.338	0.062570
24.356	0.061746
24.374	0.060921
24.392	0.060096
24.41	0.059267
24.428	0.058438
24.446	0.057612
24.464	0.056788
24.482	0.055963
24.5	0.055151
24.518	0.054359
24.536	0.053587
24.554	0.052830
24.572	0.052084
24.59	0.051345
24.608	0.050617
24.626	0.049909
24.644	0.049222
24.662	0.048554
24.68	0.047909
24.698	0.047292
24.716	0.046702
24.734	0.046138
24.752	0.045599
24.77	0.045086
24.788	0.044598
24.806	0.044135
24.824	0.043698
24.842	0.043286
24.86	0.042899
24.878	0.042534
24.896	0.042195
24.914	0.041878
24.932	0.041577
24.95	0.041288
24.968	0.041018
24.986	0.040756
25.004	0.040497
25.022	0.040240
25.04	0.039987
25.058	0.039737
25.076	0.039492
25.094	0.039254
25.112	0.039010
25.13	0.038749
25.148	0.038472
25.166	0.038182
25.184	0.037876
25.202	0.037552
25.22	0.037212
25.238	0.036854
25.256	0.036474
25.274	0.036070
25.292	0.035646
25.31	0.035207
25.328	0.034756
25.346	0.034291
25.364	0.033812
25.382	0.033318
25.4	0.032808
25.418	0.032284
25.436	0.031749
25.454	0.031207
25.472	0.030653
25.49	0.030093
25.508	0.029536
25.526	0.028985
25.544	0.028436
25.562	0.027891
25.58	0.027354
25.598	0.026822
25.616	0.026297
25.634	0.025780
25.652	0.025274
25.67	0.024776
25.688	0.024289
25.706	0.023818
25.724	0.023364
25.742	0.022925
25.76	0.022500
25.778	0.022087
25.796	0.021687
25.814	0.021299
25.832	0.020924
25.85	0.020562
25.868	0.020215
25.886	0.019879
25.904	0.019551
25.922	0.019232
25.94	0.018922
25.958	0.018621
25.976	0.018326
25.994	0.018037
26.012	0.017756
26.03	0.017482
26.048	0.017216
26.066	0.016958
26.084	0.016707
26.102	0.016460
26.12	0.016214
26.138	0.015971
26.156	0.015732
26.174	0.015500
26.192	0.015276
26.21	0.015059
26.228	0.014849
26.246	0.014646
26.264	0.014451
26.282	0.014264
26.3	0.014081
26.318	0.013901
26.336	0.013722
26.354	0.013546
26.372	0.013376
26.39	0.013213
26.408	0.013060
26.426	0.012913
26.444	0.012770
26.462	0.012629
26.48	0.012491
26.498	0.012356
26.516	0.012225
26.534	0.012097
26.552	0.011972
26.57	0.011850
26.588	0.011732
26.606	0.011617
26.624	0.011507
26.642	0.011400
26.66	0.011293
26.678	0.011184
26.696	0.011075
26.714	0.010966
26.732	0.010859
26.75	0.010754
26.768	0.010650
26.786	0.010547
26.804	0.010449
26.822	0.010354
26.84	0.010262
26.858	0.010173
26.876	0.010087
26.894	0.010006
26.912	0.009929
26.93	0.009854
26.948	0.009778
26.966	0.009694
26.984	0.009599
27.002	0.009508
27.02	0.009436
27.028	0.009417