File: Bakgrunnsmateriale/MATLAB/FTIR/ftir_data/LPE453/Mapping_121/LPE453_t118.asc
PE IR       SPECTRUM    SPECTRUM    ASCII       PEDS        1.60
  -1
LP9398~1.ASC
17/05/17
00:18:36.00
17/05/17
00:19:02.00
tln
$LPE453_t0118$<tbV0>[-5.2,13.0,8.0,0.0,27,1,0]
27.028
64

2002,4.07
MIRTGS : RIGHTBACK : INTERNAL 2
MIR : ON : INTERNAL 2
OPTKBR

0.200000
8
8.000000
FILLER
RATIO
SPECTRUM
UNLOCKED 256

DOUBLE
64
COMBINED
1
0
0

0.002000
RATIO

1
0
TRUE
51149
0
LEFT NOT FITTED RIGHT NOT FITTED 0
NONE
NONE
15600
12
4.427000
51148
TRUE
1 0 8 72 0 0 0 0

15798

#HDR
-1
-1
#GR
µM
%T
2.38419e-05
0.0
2.000000
0.002000
12515
8
35.4884
-1.255116
#DATA
2.000000	 0.307250
2.018000	 -0.134369
2.036000	 -0.141161
2.054000	 0.315981
2.072000	 0.284329
2.090000	 0.390431
2.108000	 -0.291323
2.126000	 0.256473
2.144000	 -1.255116
2.162000	 -0.113952
2.180000	 -0.007253
2.198000	 0.786622
2.216000	 3.956388
2.234000	 0.359344
2.252000	 -0.293453
2.270000	 -0.614588
2.288000	 -0.028183
2.306000	 0.172708
2.324000	 -0.071803
2.342000	 0.099274
2.360000	 0.146124
2.378000	 -0.021093
2.396000	 0.053738
2.414000	 -0.167202
2.432000	 0.075774
2.450000	 0.051364
2.468000	 0.015114
2.486000	 0.132294
2.504000	 0.087587
2.522000	 -0.197016
2.540000	 -0.078294
2.558000	 0.119435
2.576000	 0.087241
2.594000	 0.077400
2.612000	 0.093762
2.630000	 0.040078
2.648000	 0.004505
2.666000	 -0.024420
2.684000	 0.023096
2.702000	 -0.077532
2.720000	 0.015500
2.738000	 0.097936
2.756000	 0.075349
2.774000	 0.049660
2.792000	 -0.018871
2.810000	 0.179392
2.828000	 0.096536
2.846000	 -0.012665
2.864000	 0.028532
2.882000	 0.144781
2.900000	 0.203120
2.918000	 -0.068251
2.936000	 0.176746
2.954000	 0.024251
2.972000	 -0.113571
2.990000	 -0.103162
3.008000	 0.128193
3.026000	 0.044767
3.044000	 0.027145
3.062000	 -0.009495
3.080000	 0.218831
3.098000	 -0.088015
3.116000	 -0.003546
3.134000	 -0.021691
3.152000	 0.014888
3.170000	 0.139050
3.188000	 0.147427
3.206000	 -0.043339
3.224000	 0.029289
3.242000	 0.003065
3.260000	 0.083032
3.278000	 0.168736
3.296000	 0.141150
3.314000	 0.239675
3.332000	 -0.016383
3.350000	 -0.037030
3.368000	 0.059998
3.386000	 0.091104
3.404000	 -0.033797
3.422000	 0.117776
3.440000	 0.029753
3.458000	 0.101759
3.476000	 0.045583
3.494000	 0.065602
3.512000	 0.015226
3.530000	 0.053014
3.548000	 -0.090265
3.566000	 -0.023868
3.584000	 0.048490
3.602000	 -0.048559
3.620000	 0.059573
3.638000	 0.050537
3.656000	 0.042528
3.674000	 -0.011612
3.692000	 -0.030470
3.710000	 -0.037414
3.728000	 -0.040523
3.746000	 0.028602
3.764000	 0.152492
3.782000	 0.059685
3.800000	 0.052134
3.818000	 -0.119415
3.836000	 0.088904
3.854000	 -0.008526
3.872000	 -0.018177
3.890000	 0.023509
3.908000	 0.040463
3.926000	 0.072558
3.944000	 0.009051
3.962000	 0.042146
3.980000	 0.034773
3.998000	 0.017319
4.016000	 -0.068088
4.034000	 -0.069347
4.052000	 0.055269
4.070000	 -0.053040
4.088000	 -0.007576
4.106000	 -0.067928
4.124000	 -0.078042
4.141999	 -0.052604
4.160000	 0.144147
4.178000	 0.048371
4.196000	 0.057725
4.214000	 0.137542
4.232000	 0.199998
4.250000	 0.221548
4.268000	 0.194314
4.286000	 0.243025
4.304000	 0.394594
4.322000	 0.550873
4.340000	 0.521595
4.358000	 0.720846
4.375999	 0.872295
4.394000	 1.113510
4.412000	 1.311800
4.430000	 1.498821
4.448000	 1.854294
4.466000	 2.217522
4.484000	 2.717085
4.502000	 3.167646
4.520000	 3.668655
4.538000	 4.212868
4.556000	 4.886517
4.574000	 5.545104
4.592000	 6.307797
4.609999	 7.160569
4.628000	 7.972186
4.646000	 8.784878
4.664000	 9.687309
4.682000	 10.7282
4.700000	 11.7443
4.718000	 12.6373
4.736000	 13.4316
4.754000	 14.4128
4.772000	 15.3921
4.790000	 16.359
4.808000	 17.3095
4.826000	 18.1067
4.843999	 19.0591
4.862000	 19.7431
4.880000	 20.477
4.898000	 21.3427
4.916000	 22.1807
4.934000	 22.884
4.952000	 23.5095
4.970000	 24.2468
4.988000	 24.8272
5.006000	 25.3492
5.024000	 25.8528
5.042000	 26.4218
5.060000	 26.8022
5.077999	 27.3449
5.096000	 27.8443
5.114000	 28.274
5.132000	 28.53
5.150000	 28.8715
5.168000	 29.1847
5.186000	 29.4761
5.204000	 29.8936
5.222000	 30.2824
5.240000	 30.5601
5.258000	 30.8269
5.276000	 31.033
5.294000	 31.1806
5.312000	 31.3515
5.330000	 31.5795
5.348000	 31.7371
5.366000	 32.0595
5.384000	 32.3349
5.402000	 32.53
5.420000	 32.629
5.438000	 32.7176
5.456000	 32.8216
5.474000	 32.8959
5.492000	 32.9244
5.510000	 33.0716
5.528000	 33.2873
5.546000	 33.4961
5.564000	 33.6161
5.582000	 33.7292
5.600000	 33.8311
5.618000	 33.8376
5.636000	 33.7577
5.654000	 33.7726
5.672000	 33.8058
5.690000	 33.8681
5.708000	 34.0769
5.726000	 34.2851
5.744000	 34.3668
5.762000	 34.5
5.780000	 34.5953
5.798000	 34.6114
5.816000	 34.5295
5.834000	 34.4411
5.852000	 34.4276
5.870000	 34.4484
5.888000	 34.4546
5.906000	 34.5381
5.923999	 34.7047
5.942000	 34.8434
5.960000	 34.8636
5.978000	 34.8638
5.996000	 34.8805
6.014000	 34.8174
6.032000	 34.821
6.050000	 34.8501
6.068000	 34.8498
6.086000	 34.892
6.104000	 34.9841
6.122000	 35.0108
6.140000	 35.0558
6.158000	 35.1558
6.176000	 35.1834
6.194000	 35.2178
6.212000	 35.2703
6.230000	 35.2237
6.248000	 35.1064
6.266000	 35.0182
6.284000	 34.9772
6.302000	 34.9463
6.320000	 34.9481
6.338000	 34.9658
6.356000	 35.0322
6.374000	 35.2088
6.392000	 35.4148
6.410000	 35.4884
6.428000	 35.4382
6.446000	 35.3514
6.464000	 35.2935
6.482000	 35.2433
6.500000	 35.1248
6.518000	 35.0226
6.536000	 34.9981
6.554000	 34.9997
6.572000	 35.0253
6.590000	 35.0488
6.608000	 35.0302
6.626000	 35.1156
6.644000	 35.2744
6.662000	 35.3483
6.680000	 35.3295
6.698000	 35.2688
6.716000	 35.2838
6.734000	 35.273
6.752000	 35.1963
6.770000	 35.1483
6.788000	 35.0663
6.806000	 34.9237
6.824000	 34.8124
6.842000	 34.7584
6.860000	 34.7468
6.878000	 34.8405
6.896000	 35.0205
6.914000	 35.1525
6.932000	 35.2272
6.950000	 35.3049
6.968000	 35.368
6.986000	 35.3484
7.004000	 35.2545
7.022000	 35.1435
7.040000	 35.0467
7.058000	 34.9846
7.076000	 34.9143
7.094000	 34.7863
7.112000	 34.6741
7.130000	 34.6672
7.148000	 34.7337
7.166000	 34.7715
7.184000	 34.7393
7.202000	 34.7304
7.220000	 34.8309
7.238000	 34.9635
7.256000	 35.038
7.274000	 35.0705
7.292000	 35.0786
7.310000	 35.049
7.328000	 34.9834
7.346000	 34.9032
7.364000	 34.829
7.382000	 34.7482
7.400000	 34.6501
7.418000	 34.5539
7.436000	 34.4534
7.454000	 34.3651
7.472000	 34.3713
7.490000	 34.4746
7.508000	 34.5756
7.526000	 34.6468
7.544000	 34.7268
7.562000	 34.8039
7.580000	 34.8365
7.598000	 34.8191
7.616000	 34.782
7.634000	 34.7471
7.652000	 34.6965
7.670000	 34.6112
7.688000	 34.5198
7.706000	 34.4551
7.724000	 34.4042
7.742000	 34.3368
7.760000	 34.2532
7.778000	 34.1832
7.796000	 34.1553
7.814000	 34.1746
7.832000	 34.2314
7.850000	 34.3144
7.868000	 34.4012
7.886000	 34.4568
7.904000	 34.4701
7.922000	 34.4791
7.940000	 34.5263
7.958000	 34.5956
7.976000	 34.6276
7.994000	 34.5919
8.012000	 34.5151
8.030000	 34.4348
8.048000	 34.3564
8.065999	 34.2719
8.084000	 34.1901
8.102000	 34.1223
8.120000	 34.0601
8.138000	 33.9936
8.155999	 33.9296
8.173999	 33.874
8.192000	 33.8217
8.210000	 33.7786
8.228000	 33.768
8.246000	 33.8042
8.263999	 33.8712
8.282000	 33.9381
8.300000	 33.9875
8.318000	 34.0281
8.336000	 34.084
8.353999	 34.1613
8.372000	 34.2323
8.390000	 34.2589
8.408000	 34.2305
8.426000	 34.1673
8.443999	 34.0926
8.462000	 34.0152
8.480000	 33.9332
8.498000	 33.8371
8.516000	 33.7249
8.533999	 33.6186
8.552000	 33.5545
8.570000	 33.5441
8.588000	 33.5566
8.606000	 33.5542
8.624000	 33.5358
8.641999	 33.5354
8.660000	 33.5778
8.678000	 33.65
8.696000	 33.7131
8.714000	 33.7399
8.731999	 33.735
8.750000	 33.7302
8.768000	 33.7532
8.786000	 33.8013
8.804000	 33.8457
8.821999	 33.8625
8.840000	 33.8536
8.858000	 33.8348
8.876000	 33.8137
8.894000	 33.7812
8.911999	 33.7269
8.930000	 33.6545
8.948000	 33.5786
8.966000	 33.5112
8.984000	 33.4543
9.001999	 33.4032
9.020000	 33.3502
9.038000	 33.2879
9.056000	 33.2149
9.074000	 33.1423
9.092000	 33.0895
9.109999	 33.0692
9.128000	 33.0759
9.146000	 33.091
9.164000	 33.1001
9.182000	 33.1073
9.199999	 33.1278
9.218000	 33.171
9.236000	 33.2328
9.254000	 33.3024
9.272000	 33.3705
9.289999	 33.4294
9.308000	 33.4706
9.326000	 33.4869
9.344000	 33.4768
9.362000	 33.4456
9.379999	 33.3998
9.398000	 33.3445
9.416000	 33.2833
9.434000	 33.2168
9.452000	 33.1402
9.469999	 33.0485
9.488000	 32.9448
9.506000	 32.8423
9.524000	 32.7548
9.542000	 32.686
9.560000	 32.6306
9.577999	 32.5854
9.596000	 32.5554
9.614000	 32.5477
9.632000	 32.5609
9.650000	 32.5844
9.667999	 32.6092
9.686000	 32.6324
9.704000	 32.6557
9.722000	 32.68
9.740000	 32.7056
9.757999	 32.7329
9.776000	 32.7631
9.794000	 32.7961
9.812000	 32.828
9.830000	 32.8534
9.847999	 32.8685
9.866000	 32.8727
9.884000	 32.8672
9.902000	 32.8548
9.920000	 32.8411
9.937999	 32.8339
9.956000	 32.8387
9.974000	 32.8522
9.992000	 32.8622
10.01	32.8525
10.028	32.811
10.046	32.7384
10.064	32.6462
10.082	32.5491
10.1	32.4556
10.118	32.3657
10.136	32.2745
10.154	32.1803
10.172	32.0894
10.19	32.0136
10.208	31.9621
10.226	31.9361
10.244	31.9302
10.262	31.938
10.28	31.9581
10.298	31.9918
10.316	32.0382
10.334	32.0896
10.352	32.1341
10.37	32.1639
10.388	32.1818
10.406	32.2008
10.424	32.235
10.442	32.2896
10.46	32.3567
10.478	32.42
10.496	32.4652
10.514	32.4873
10.532	32.491
10.55	32.4858
10.568	32.4793
10.586	32.4733
10.604	32.465
10.622	32.4496
10.64	32.4233
10.658	32.3834
10.676	32.3285
10.694	32.2585
10.712	32.1757
10.73	32.086
10.748	31.9972
10.766	31.9166
10.784	31.8478
10.802	31.789
10.82	31.735
10.838	31.6797
10.856	31.6208
10.874	31.5603
10.892	31.5032
10.91	31.4553
10.928	31.4208
10.946	31.4014
10.964	31.3973
10.982	31.4069
11	31.4271
11.018	31.4533
11.036	31.4804
11.054	31.5035
11.072	31.5216
11.09	31.5375
11.108	31.5577
11.126	31.5889
11.144	31.635
11.162	31.6948
11.18	31.7629
11.198	31.8318
11.216	31.8947
11.234	31.9469
11.252	31.985
11.27	32.0057
11.288	32.0054
11.306	31.9809
11.324	31.9315
11.342	31.8609
11.36	31.7766
11.378	31.6891
11.396	31.6064
11.414	31.5326
11.432	31.4673
11.45	31.4071
11.468	31.3493
11.486	31.2943
11.504	31.2458
11.522	31.2085
11.54	31.1845
11.558	31.1708
11.576	31.159
11.594	31.1379
11.612	31.0973
11.63	31.0325
11.648	30.9462
11.666	30.8474
11.684	30.7482
11.702	30.6588
11.72	30.5863
11.738	30.5331
11.756	30.4985
11.774	30.4813
11.792	30.481
11.81	30.4986
11.828	30.5351
11.846	30.5898
11.864	30.6588
11.882	30.7359
11.9	30.8123
11.918	30.8794
11.936	30.9304
11.954	30.9614
11.972	30.9708
11.99	30.9605
12.008	30.9352
12.026	30.9011
12.044	30.866
12.062	30.838
12.08	30.8232
12.098	30.8245
12.116	30.8413
12.134	30.8691
12.152	30.901
12.17	30.9299
12.188	30.9496
12.206	30.9567
12.224	30.95
12.242	30.9304
12.26	30.8997
12.278	30.8602
12.296	30.8149
12.314	30.7673
12.332	30.7206
12.35	30.678
12.368	30.6407
12.386	30.6078
12.404	30.5763
12.422	30.5418
12.44	30.4999
12.458	30.4476
12.476	30.3839
12.494	30.3108
12.512	30.2324
12.53	30.1542
12.548	30.0813
12.566	30.0177
12.584	29.9656
12.602	29.9254
12.62	29.8958
12.638	29.8754
12.656	29.8632
12.674	29.8586
12.692	29.8623
12.71	29.8742
12.728	29.8943
12.746	29.9212
12.764	29.9523
12.782	29.9843
12.8	30.0132
12.818	30.0355
12.836	30.0493
12.854	30.0542
12.872	30.0518
12.89	30.045
12.908	30.0377
12.926	30.0341
12.944	30.0373
12.962	30.0489
12.98	30.0692
12.998	30.0966
13.016	30.1285
13.034	30.1618
13.052	30.1936
13.07	30.222
13.088	30.246
13.106	30.2658
13.124	30.2821
13.142	30.2953
13.16	30.3056
13.178	30.3116
13.196	30.3113
13.214	30.3016
13.232	30.2797
13.25	30.2433
13.268	30.1919
13.286	30.1265
13.304	30.05
13.322	29.9665
13.34	29.8807
13.358	29.7968
13.376	29.7184
13.394	29.6474
13.412	29.5845
13.43	29.5286
13.448	29.4781
13.466	29.4306
13.484	29.3844
13.502	29.3383
13.52	29.292
13.538	29.2461
13.556	29.2019
13.574	29.1612
13.592	29.1257
13.61	29.0964
13.628	29.0738
13.646	29.0579
13.664	29.048
13.682	29.0429
13.7	29.0413
13.718	29.0418
13.736	29.0434
13.754	29.0452
13.772	29.0466
13.79	29.047
13.808	29.0459
13.826	29.0429
13.844	29.0383
13.862	29.0326
13.88	29.0268
13.898	29.0228
13.916	29.0229
13.934	29.0291
13.952	29.0431
13.97	29.0658
13.988	29.097
14.006	29.1352
14.024	29.1774
14.042	29.2198
14.06	29.2583
14.078	29.2887
14.096	29.3076
14.114	29.3125
14.132	29.3025
14.15	29.2784
14.168	29.2425
14.186	29.1983
14.204	29.1505
14.222	29.1043
14.24	29.0646
14.258	29.0356
14.276	29.02
14.294	29.0191
14.312	29.032
14.33	29.0567
14.348	29.0894
14.366	29.1253
14.384	29.1592
14.402	29.1867
14.42	29.2043
14.438	29.2099
14.456	29.2025
14.474	29.1826
14.492	29.1514
14.51	29.1111
14.528	29.064
14.546	29.0126
14.564	28.9588
14.582	28.9047
14.6	28.8517
14.618	28.8013
14.636	28.7542
14.654	28.7107
14.672	28.6709
14.69	28.6339
14.708	28.5986
14.726	28.5635
14.744	28.5264
14.762	28.4853
14.78	28.4387
14.798	28.3859
14.816	28.3268
14.834	28.2625
14.852	28.1954
14.87	28.1286
14.888	28.0655
14.906	28.0095
14.924	27.9634
14.942	27.9297
14.96	27.9093
14.978	27.9018
14.996	27.9064
15.014	27.921
15.032	27.9428
15.05	27.9686
15.068	27.9959
15.086	28.0223
15.104	28.0458
15.122	28.0646
15.14	28.0778
15.158	28.0855
15.176	28.088
15.194	28.0861
15.212	28.0813
15.23	28.0752
15.248	28.0692
15.266	28.0646
15.284	28.063
15.302	28.0656
15.32	28.0728
15.338	28.085
15.356	28.1017
15.374	28.1222
15.392	28.1451
15.41	28.1688
15.428	28.1917
15.446	28.2116
15.464	28.227
15.482	28.2364
15.5	28.2388
15.518	28.2338
15.536	28.2216
15.554	28.2025
15.572	28.1776
15.59	28.1478
15.608	28.1139
15.626	28.0768
15.644	28.0369
15.662	27.9943
15.68	27.9492
15.698	27.9013
15.716	27.8507
15.734	27.7974
15.752	27.742
15.77	27.6852
15.788	27.6287
15.806	27.5746
15.824	27.5249
15.842	27.4818
15.86	27.4478
15.878	27.4237
15.896	27.4105
15.914	27.4081
15.932	27.415
15.95	27.4296
15.968	27.449
15.986	27.4698
16.004	27.4893
16.022	27.5046
16.04	27.5127
16.058	27.5124
16.076	27.5024
16.094	27.4823
16.112	27.4528
16.13	27.4146
16.148	27.369
16.166	27.3183
16.184	27.2643
16.202	27.2086
16.22	27.154
16.238	27.102
16.256	27.0543
16.274	27.0127
16.292	26.978
16.31	26.951
16.328	26.9321
16.346	26.9206
16.364	26.9163
16.382	26.9173
16.4	26.9218
16.418	26.9281
16.436	26.9335
16.454	26.9359
16.472	26.9339
16.49	26.9254
16.508	26.9101
16.526	26.8876
16.544	26.8589
16.562	26.8255
16.58	26.7888
16.598	26.7516
16.616	26.7158
16.634	26.6829
16.652	26.6552
16.67	26.6331
16.688	26.6176
16.706	26.6086
16.724	26.6057
16.742	26.6086
16.76	26.6162
16.778	26.6279
16.796	26.643
16.814	26.6609
16.832	26.6814
16.85	26.7047
16.868	26.7304
16.886	26.7587
16.904	26.7893
16.922	26.822
16.94	26.8564
16.958	26.8915
16.976	26.9267
16.994	26.9605
17.012	26.9914
17.03	27.0183
17.048	27.0393
17.066	27.0537
17.084	27.0604
17.102	27.0591
17.12	27.0499
17.138	27.0334
17.156	27.011
17.174	26.9835
17.192	26.954
17.21	26.9234
17.228	26.8947
17.246	26.8697
17.264	26.8498
17.282	26.8371
17.3	26.8318
17.318	26.8349
17.336	26.8457
17.354	26.864
17.372	26.8879
17.39	26.9164
17.408	26.9472
17.426	26.9779
17.444	27.0071
17.462	27.0315
17.48	27.0505
17.498	27.0614
17.516	27.0635
17.534	27.0559
17.552	27.0382
17.57	27.0105
17.588	26.9736
17.606	26.9282
17.624	26.8755
17.642	26.8173
17.66	26.7544
17.678	26.6896
17.696	26.6234
17.714	26.5579
17.732	26.4941
17.75	26.4333
17.768	26.3762
17.786	26.3231
17.804	26.2745
17.822	26.2303
17.84	26.1899
17.858	26.1529
17.876	26.1189
17.894	26.0866
17.912	26.0558
17.93	26.0251
17.948	25.9944
17.966	25.9629
17.984	25.9304
18.002	25.8969
18.02	25.8628
18.038	25.8282
18.056	25.7942
18.074	25.761
18.092	25.7301
18.11	25.7018
18.128	25.6774
18.146	25.6573
18.164	25.6424
18.182	25.6328
18.2	25.6289
18.218	25.6302
18.236	25.6368
18.254	25.6473
18.272	25.6617
18.29	25.678
18.308	25.6961
18.326	25.7141
18.344	25.7317
18.362	25.7473
18.38	25.7609
18.398	25.7712
18.416	25.7783
18.434	25.7818
18.452	25.7817
18.47	25.7782
18.488	25.7717
18.506	25.7625
18.524	25.7514
18.542	25.7387
18.56	25.7249
18.578	25.7104
18.596	25.6956
18.614	25.6807
18.632	25.6663
18.65	25.6522
18.668	25.6389
18.686	25.6263
18.704	25.6148
18.722	25.6043
18.74	25.595
18.758	25.587
18.776	25.5802
18.794	25.5748
18.812	25.5709
18.83	25.5684
18.848	25.5673
18.866	25.5677
18.884	25.5694
18.902	25.5724
18.92	25.5766
18.938	25.582
18.956	25.5882
18.974	25.5954
18.992	25.6033
19.01	25.6119
19.028	25.6212
19.046	25.6313
19.064	25.6422
19.082	25.6541
19.1	25.6671
19.118	25.6813
19.136	25.6968
19.154	25.7136
19.172	25.7319
19.19	25.7516
19.208	25.7725
19.226	25.7943
19.244	25.8167
19.262	25.8394
19.28	25.8609
19.298	25.8814
19.316	25.8992
19.334	25.9144
19.352	25.9248
19.37	25.9306
19.388	25.93
19.406	25.9232
19.424	25.9086
19.442	25.8862
19.46	25.8554
19.478	25.8162
19.496	25.7688
19.514	25.713
19.532	25.6499
19.55	25.5798
19.568	25.504
19.586	25.4234
19.604	25.3389
19.622	25.2526
19.64	25.1648
19.658	25.0781
19.676	24.9925
19.694	24.9108
19.712	24.8329
19.73	24.7609
19.748	24.6949
19.766	24.6359
19.784	24.5842
19.802	24.5397
19.82	24.5028
19.838	24.473
19.856	24.4498
19.874	24.4329
19.892	24.4209
19.91	24.4139
19.928	24.4098
19.946	24.4088
19.964	24.4089
19.982	24.4099
20	24.4104
20.018	24.4096
20.036	24.407
20.054	24.4014
20.072	24.393
20.09	24.3805
20.108	24.3642
20.126	24.3436
20.144	24.3184
20.162	24.2889
20.18	24.2547
20.198	24.2163
20.216	24.1737
20.234	24.127
20.252	24.077
20.27	24.0234
20.288	23.9673
20.306	23.9086
20.324	23.8484
20.342	23.787
20.36	23.7248
20.378	23.6634
20.396	23.6023
20.414	23.5435
20.432	23.4868
20.45	23.4334
20.468	23.3839
20.486	23.3385
20.504	23.2987
20.522	23.264
20.54	23.2354
20.558	23.2126
20.576	23.1961
20.594	23.1861
20.612	23.1822
20.63	23.1843
20.648	23.1923
20.666	23.2055
20.684	23.2242
20.702	23.2476
20.72	23.2751
20.738	23.3068
20.756	23.3419
20.774	23.3805
20.792	23.4219
20.81	23.466
20.828	23.5126
20.846	23.5614
20.864	23.6123
20.882	23.6649
20.9	23.7191
20.918	23.7746
20.936	23.8311
20.954	23.8883
20.972	23.9454
20.99	24.0026
21.008	24.0587
21.026	24.1132
21.044	24.166
21.062	24.2154
21.08	24.2619
21.098	24.3041
21.116	24.3415
21.134	24.3742
21.152	24.4009
21.17	24.422
21.188	24.4373
21.206	24.4465
21.224	24.45
21.242	24.4483
21.26	24.441
21.278	24.4299
21.296	24.4147
21.314	24.3964
21.332	24.3766
21.35	24.3547
21.368	24.3327
21.386	24.3109
21.404	24.2895
21.422	24.2698
21.44	24.2514
21.458	24.235
21.476	24.2209
21.494	24.2089
21.512	24.1985
21.53	24.1902
21.548	24.1829
21.566	24.1762
21.584	24.1701
21.602	24.1632
21.62	24.1555
21.638	24.1466
21.656	24.1354
21.674	24.1223
21.692	24.1068
21.71	24.0885
21.728	24.0679
21.746	24.0455
21.764	24.021
21.782	23.9954
21.8	23.9694
21.818	23.9427
21.836	23.9172
21.854	23.8927
21.872	23.8696
21.89	23.8493
21.908	23.8312
21.926	23.8159
21.944	23.8041
21.962	23.7954
21.98	23.7891
21.998	23.7858
22.016	23.7846
22.034	23.7838
22.052	23.7842
22.07	23.7839
22.088	23.7812
22.106	23.7771
22.124	23.7688
22.142	23.7561
22.16	23.7389
22.178	23.7153
22.196	23.6855
22.214	23.6493
22.232	23.6062
22.25	23.5562
22.268	23.5001
22.286	23.4381
22.304	23.3701
22.322	23.2984
22.34	23.2226
22.358	23.1435
22.376	23.064
22.394	22.9833
22.412	22.9029
22.43	22.8257
22.448	22.7504
22.466	22.679
22.484	22.6135
22.502	22.5526
22.52	22.4982
22.538	22.451
22.556	22.4104
22.574	22.3773
22.592	22.3518
22.61	22.3336
22.628	22.3226
22.646	22.3189
22.664	22.3222
22.682	22.3319
22.7	22.3485
22.718	22.3712
22.736	22.3995
22.754	22.4338
22.772	22.4732
22.79	22.5173
22.808	22.5665
22.826	22.6195
22.844	22.6757
22.862	22.7356
22.88	22.7976
22.898	22.8613
22.916	22.927
22.934	22.9923
22.952	23.0569
22.97	23.1209
22.988	23.1813
23.006	23.2378
23.024	23.2905
23.042	23.3356
23.06	23.3732
23.078	23.4031
23.096	23.4219
23.114	23.4299
23.132	23.4268
23.15	23.4102
23.168	23.38
23.186	23.3363
23.204	23.2781
23.222	23.205
23.24	23.1177
23.258	23.0168
23.276	22.9015
23.294	22.7731
23.312	22.6345
23.33	22.4847
23.348	22.325
23.366	22.1599
23.384	21.9886
23.402	21.8119
23.42	21.635
23.438	21.4571
23.456	21.2788
23.474	21.1055
23.492	20.9373
23.51	20.7737
23.528	20.6199
23.546	20.4766
23.564	20.3427
23.582	20.2221
23.6	20.1162
23.618	20.0237
23.636	19.9464
23.654	19.8853
23.672	19.8396
23.69	19.81
23.708	19.7973
23.726	19.801
23.744	19.8208
23.762	19.8567
23.78	19.9089
23.798	19.9764
23.816	20.0582
23.834	20.1553
23.852	20.2662
23.87	20.3889
23.888	20.525
23.906	20.6727
23.924	20.828
23.942	20.9922
23.96	21.1644
23.978	21.3392
23.996	21.5155
24.014	21.6949
24.032	21.872
24.05	22.0436
24.068	22.2129
24.086	22.3752
24.104	22.5264
24.122	22.6697
24.14	22.8016
24.158	22.9173
24.176	23.0184
24.194	23.1041
24.212	23.1705
24.23	23.2166
24.248	23.2438
24.266	23.251
24.284	23.2371
24.302	23.2024
24.32	23.1484
24.338	23.0761
24.356	22.9836
24.374	22.8738
24.392	22.7507
24.41	22.6127
24.428	22.4607
24.446	22.2999
24.464	22.1315
24.482	21.9531
24.5	21.7708
24.518	21.5895
24.536	21.4057
24.554	21.2222
24.572	21.0437
24.59	20.8695
24.608	20.6993
24.626	20.5354
24.644	20.3796
24.662	20.2307
24.68	20.088
24.698	19.9512
24.716	19.8214
24.734	19.697
24.752	19.5753
24.77	19.4572
24.788	19.3428
24.806	19.2278
24.824	19.1095
24.842	18.9902
24.86	18.868
24.878	18.7402
24.896	18.6081
24.914	18.4711
24.932	18.3266
24.95	18.1732
24.968	18.0128
24.986	17.8431
25.004	17.662
25.022	17.4703
25.04	17.2679
25.058	17.0539
25.076	16.8275
25.094	16.5893
25.112	16.3397
25.13	16.079
25.148	15.8061
25.166	15.5224
25.184	15.2299
25.202	14.9294
25.22	14.6191
25.238	14.3023
25.256	13.9821
25.274	13.6555
25.292	13.3245
25.31	12.9948
25.328	12.669
25.346	12.3427
25.364	12.0217
25.382	11.7127
25.4	11.4119
25.418	11.12
25.436	10.8472
25.454	10.6001
25.472	10.3702
25.49	10.1654
25.508	9.997106
25.526	9.865666
25.544	9.765647
25.562	9.709018
25.58	9.707008
25.598	9.752550
25.616	9.847855
25.634	10.0023
25.652	10.2214
25.67	10.4985
25.688	10.838
25.706	11.2458
25.724	11.724
25.742	12.2692
25.76	12.8798
25.778	13.555
25.796	14.3016
25.814	15.1117
25.832	15.9716
25.85	16.8747
25.868	17.8353
25.886	18.8352
25.904	19.8523
25.922	20.8877
25.94	21.9542
25.958	23.0202
25.976	24.054
25.994	25.0707
26.012	26.0706
26.03	27.0239
26.048	27.9043
26.066	28.7292
26.084	29.4949
26.102	30.1865
26.12	30.7931
26.138	31.3225
26.156	31.7763
26.174	32.1543
26.192	32.4505
26.21	32.6627
26.228	32.8099
26.246	32.912
26.264	32.9638
26.282	32.9586
26.3	32.9208
26.318	32.8738
26.336	32.806
26.354	32.7165
26.372	32.6265
26.39	32.5554
26.408	32.4945
26.426	32.442
26.444	32.4052
26.462	32.3918
26.48	32.4069
26.498	32.4384
26.516	32.4718
26.534	32.4986
26.552	32.5377
26.57	32.5711
26.588	32.5741
26.606	32.5324
26.624	32.469
26.642	32.3666
26.66	32.2021
26.678	31.9629
26.696	31.6676
26.714	31.3051
26.732	30.8613
26.75	30.3246
26.768	29.7005
26.786	28.9991
26.804	28.2303
26.822	27.3952
26.84	26.4826
26.858	25.51
26.876	24.4968
26.894	23.4497
26.912	22.3503
26.93	21.2181
26.948	20.0752
26.966	18.8824
26.984	17.5467
27.002	16.2693
27.02	15.27
27.028	15.0027