File: Bakgrunnsmateriale/MATLAB/FTIR/ftir_data/LPE453/Mapping_121/LPE453_t72.asc
PE IR       SPECTRUM    SPECTRUM    ASCII       PEDS        1.60
  -1
LPCFA1~1.ASC
17/05/16
20:18:07.00
17/05/16
20:18:34.00
tln
$LPE453_t0072$<tbV0>[0.0,2.6,8.0,0.0,27,1,0]
27.028
64

2002,4.07
MIRTGS : RIGHTBACK : INTERNAL 2
MIR : ON : INTERNAL 2
OPTKBR

0.200000
8
8.000000
FILLER
RATIO
SPECTRUM
UNLOCKED 256

DOUBLE
64
COMBINED
1
0
0

0.002000
RATIO

1
0
TRUE
51149
0
LEFT NOT FITTED RIGHT NOT FITTED 0
NONE
NONE
15600
12
4.427000
51148
TRUE
1 0 8 72 0 0 0 0

15798

#HDR
-1
-1
#GR
µM
%T
2.38419e-05
0.0
2.000000
0.002000
12515
8
33.1836
-0.816187
#DATA
2.000000	 0.122928
2.018000	 0.417031
2.036000	 0.173780
2.054000	 -0.118808
2.072000	 0.195422
2.090000	 0.486745
2.108000	 0.083433
2.126000	 -0.477320
2.144000	 1.291392
2.162000	 1.373389
2.180000	 0.249754
2.198000	 -0.760000
2.216000	 0.416360
2.234000	 3.794552
2.252000	 -0.611689
2.270000	 -0.048082
2.288000	 0.088387
2.306000	 0.267293
2.324000	 0.256320
2.342000	 0.236903
2.360000	 0.294338
2.378000	 0.093216
2.396000	 0.438551
2.414000	 -0.096109
2.432000	 0.286631
2.450000	 -0.119942
2.468000	 0.090759
2.486000	 0.110726
2.504000	 0.186568
2.522000	 -0.090872
2.540000	 0.056759
2.558000	 0.053735
2.576000	 -0.082039
2.594000	 0.264593
2.612000	 -0.055079
2.630000	 0.097866
2.648000	 0.008821
2.666000	 0.126282
2.684000	 -0.165899
2.702000	 0.102924
2.720000	 0.027962
2.738000	 0.150322
2.756000	 0.073918
2.774000	 0.161669
2.792000	 0.041308
2.810000	 0.043794
2.828000	 -0.001441
2.846000	 0.172626
2.864000	 0.206057
2.882000	 0.021119
2.900000	 0.132003
2.918000	 0.080186
2.936000	 0.081303
2.954000	 0.125132
2.972000	 0.042457
2.990000	 0.097457
3.008000	 0.096424
3.026000	 0.093768
3.044000	 0.060209
3.062000	 -0.104457
3.080000	 0.041758
3.098000	 0.101877
3.116000	 0.028604
3.134000	 0.010390
3.152000	 0.049014
3.170000	 0.061997
3.188000	 0.065194
3.206000	 -0.081444
3.224000	 0.159695
3.242000	 -0.081184
3.260000	 0.150409
3.278000	 0.110508
3.296000	 0.080003
3.314000	 -0.000277
3.332000	 0.148089
3.350000	 0.013748
3.368000	 0.028458
3.386000	 0.033101
3.404000	 0.022788
3.422000	 0.062938
3.440000	 0.017259
3.458000	 0.024792
3.476000	 -0.029778
3.494000	 -0.004824
3.512000	 0.062710
3.530000	 0.061127
3.548000	 0.086384
3.566000	 -0.022742
3.584000	 0.093454
3.602000	 -0.022316
3.620000	 -0.012041
3.638000	 0.044963
3.656000	 0.011313
3.674000	 0.022993
3.692000	 0.041318
3.710000	 0.005188
3.728000	 0.081285
3.746000	 -0.030394
3.764000	 0.078346
3.782000	 0.089446
3.800000	 -0.079628
3.818000	 -0.127469
3.836000	 0.001843
3.854000	 0.010311
3.872000	 0.062669
3.890000	 0.051747
3.908000	 -0.078506
3.926000	 0.056793
3.944000	 0.115096
3.962000	 0.033434
3.980000	 0.105583
3.998000	 0.194589
4.016000	 0.086877
4.034000	 -0.116103
4.052000	 0.140310
4.070000	 0.062361
4.088000	 0.029083
4.106000	 0.066984
4.124000	 0.206386
4.141999	 0.023693
4.160000	 0.053357
4.178000	 -0.028520
4.196000	 0.082305
4.214000	 0.099642
4.232000	 0.049629
4.250000	 0.001388
4.268000	 0.052856
4.286000	 0.241666
4.304000	 0.193036
4.322000	 0.245032
4.340000	 0.249421
4.358000	 0.400964
4.375999	 0.580451
4.394000	 0.639256
4.412000	 0.771669
4.430000	 0.997240
4.448000	 1.269266
4.466000	 1.571186
4.484000	 1.969259
4.502000	 2.391152
4.520000	 2.885165
4.538000	 3.434576
4.556000	 3.978944
4.574000	 4.620860
4.592000	 5.316283
4.609999	 6.122610
4.628000	 6.979882
4.646000	 7.517275
4.664000	 8.617744
4.682000	 9.640410
4.700000	 10.621
4.718000	 11.4454
4.736000	 12.5534
4.754000	 13.5147
4.772000	 14.4949
4.790000	 15.4814
4.808000	 16.3078
4.826000	 17.3408
4.843999	 18.2201
4.862000	 19.0866
4.880000	 19.8349
4.898000	 20.5853
4.916000	 21.427
4.934000	 22.1235
4.952000	 22.7665
4.970000	 23.4457
4.988000	 24.1943
5.006000	 24.7878
5.024000	 25.2277
5.042000	 25.7531
5.060000	 26.2613
5.077999	 26.7556
5.096000	 27.2139
5.114000	 27.5078
5.132000	 27.8701
5.150000	 28.2262
5.168000	 28.5598
5.186000	 28.9239
5.204000	 29.2624
5.222000	 29.5361
5.240000	 29.8188
5.258000	 29.9936
5.276000	 30.2524
5.294000	 30.4348
5.312000	 30.6995
5.330000	 30.9188
5.348000	 31.0395
5.366000	 31.1971
5.384000	 31.3907
5.402000	 31.4595
5.420000	 31.4847
5.438000	 31.6006
5.456000	 31.7982
5.474000	 31.9622
5.492000	 32.1167
5.510000	 32.1345
5.528000	 32.1454
5.546000	 32.2495
5.564000	 32.2439
5.582000	 32.2127
5.600000	 32.3347
5.618000	 32.4343
5.636000	 32.6054
5.654000	 32.7365
5.672000	 32.7476
5.690000	 32.7285
5.708000	 32.6544
5.726000	 32.5914
5.744000	 32.5954
5.762000	 32.7497
5.780000	 32.859
5.798000	 32.8396
5.816000	 32.9035
5.834000	 32.984
5.852000	 32.9631
5.870000	 32.8635
5.888000	 32.7837
5.906000	 32.7751
5.923999	 32.7855
5.942000	 32.8936
5.960000	 33.0512
5.978000	 33.1149
5.996000	 33.1456
6.014000	 33.1361
6.032000	 33.0297
6.050000	 32.938
6.068000	 32.9331
6.086000	 32.9058
6.104000	 32.9205
6.122000	 32.9903
6.140000	 33.0393
6.158000	 33.1158
6.176000	 33.1819
6.194000	 33.142
6.212000	 32.9947
6.230000	 32.8724
6.248000	 32.8329
6.266000	 32.7929
6.284000	 32.8313
6.302000	 32.9117
6.320000	 32.9494
6.338000	 33.0207
6.356000	 33.1044
6.374000	 33.13
6.392000	 33.1208
6.410000	 33.0599
6.428000	 32.922
6.446000	 32.7723
6.464000	 32.6682
6.482000	 32.6792
6.500000	 32.7851
6.518000	 32.9093
6.536000	 32.9967
6.554000	 33.0594
6.572000	 33.1117
6.590000	 33.1098
6.608000	 33.031
6.626000	 32.9088
6.644000	 32.813
6.662000	 32.726
6.680000	 32.588
6.698000	 32.5085
6.716000	 32.5068
6.734000	 32.5121
6.752000	 32.6184
6.770000	 32.7716
6.788000	 32.8435
6.806000	 32.8703
6.824000	 32.863
6.842000	 32.7478
6.860000	 32.5721
6.878000	 32.4853
6.896000	 32.5016
6.914000	 32.4633
6.932000	 32.3817
6.950000	 32.4456
6.968000	 32.601
6.986000	 32.6596
7.004000	 32.661
7.022000	 32.6995
7.040000	 32.7529
7.058000	 32.7696
7.076000	 32.7328
7.094000	 32.6536
7.112000	 32.5261
7.130000	 32.3773
7.148000	 32.2916
7.166000	 32.306
7.184000	 32.3708
7.202000	 32.4164
7.220000	 32.455
7.238000	 32.5477
7.256000	 32.6477
7.274000	 32.6794
7.292000	 32.6677
7.310000	 32.6396
7.328000	 32.5901
7.346000	 32.5502
7.364000	 32.5201
7.382000	 32.4351
7.400000	 32.2744
7.418000	 32.1043
7.436000	 32.0066
7.454000	 32.0121
7.472000	 32.0743
7.490000	 32.1273
7.508000	 32.1729
7.526000	 32.2518
7.544000	 32.3713
7.562000	 32.4981
7.580000	 32.5603
7.598000	 32.4986
7.616000	 32.3574
7.634000	 32.2364
7.652000	 32.1614
7.670000	 32.094
7.688000	 32.0129
7.706000	 31.925
7.724000	 31.8538
7.742000	 31.8243
7.760000	 31.8342
7.778000	 31.8634
7.796000	 31.9117
7.814000	 31.9897
7.832000	 32.0938
7.850000	 32.202
7.868000	 32.2834
7.886000	 32.3177
7.904000	 32.3087
7.922000	 32.2631
7.940000	 32.1747
7.958000	 32.0442
7.976000	 31.8874
7.994000	 31.7234
8.012000	 31.5797
8.030000	 31.4917
8.048000	 31.4727
8.065999	 31.4961
8.084000	 31.5234
8.102000	 31.5439
8.120000	 31.5835
8.138000	 31.6735
8.155999	 31.8106
8.173999	 31.9539
8.192000	 32.0526
8.210000	 32.0754
8.228000	 32.0355
8.246000	 31.973
8.263999	 31.9055
8.282000	 31.8184
8.300000	 31.7055
8.318000	 31.5931
8.336000	 31.5128
8.353999	 31.4607
8.372000	 31.4037
8.390000	 31.3285
8.408000	 31.2572
8.426000	 31.2187
8.443999	 31.2283
8.462000	 31.2879
8.480000	 31.3854
8.498000	 31.4911
8.516000	 31.5737
8.533999	 31.6208
8.552000	 31.6387
8.570000	 31.6413
8.588000	 31.6435
8.606000	 31.6474
8.624000	 31.6349
8.641999	 31.5835
8.660000	 31.4954
8.678000	 31.397
8.696000	 31.3078
8.714000	 31.2242
8.731999	 31.1379
8.750000	 31.0546
8.768000	 30.9883
8.786000	 30.9509
8.804000	 30.9485
8.821999	 30.9775
8.840000	 31.0226
8.858000	 31.0626
8.876000	 31.0916
8.894000	 31.1306
8.911999	 31.2058
8.930000	 31.3139
8.948000	 31.4166
8.966000	 31.4775
8.984000	 31.4945
9.001999	 31.4887
9.020000	 31.4689
9.038000	 31.4233
9.056000	 31.3436
9.074000	 31.2433
9.092000	 31.1387
9.109999	 31.0274
9.128000	 30.8956
9.146000	 30.7461
9.164000	 30.6077
9.182000	 30.5126
9.199999	 30.4689
9.218000	 30.4627
9.236000	 30.4803
9.254000	 30.5238
9.272000	 30.6006
9.289999	 30.7044
9.308000	 30.813
9.326000	 30.9043
9.344000	 30.9722
9.362000	 31.0257
9.379999	 31.0762
9.398000	 31.1265
9.416000	 31.1706
9.434000	 31.1967
9.452000	 31.1889
9.469999	 31.1322
9.488000	 31.0206
9.506000	 30.8691
9.524000	 30.7121
9.542000	 30.5824
9.560000	 30.4906
9.577999	 30.4245
9.596000	 30.3672
9.614000	 30.314
9.632000	 30.2708
9.650000	 30.2455
9.667999	 30.239
9.686000	 30.2445
9.704000	 30.252
9.722000	 30.2535
9.740000	 30.2467
9.757999	 30.2376
9.776000	 30.2393
9.794000	 30.2679
9.812000	 30.3345
9.830000	 30.4367
9.847999	 30.5555
9.866000	 30.6582
9.884000	 30.7101
9.902000	 30.6903
9.920000	 30.604
9.937999	 30.4829
9.956000	 30.3696
9.974000	 30.2956
9.992000	 30.2661
10.01	30.2609
10.028	30.2471
10.046	30.1979
10.064	30.1042
10.082	29.975
10.1	29.8325
10.118	29.7045
10.136	29.6141
10.154	29.5721
10.172	29.5741
10.19	29.6026
10.208	29.6368
10.226	29.6648
10.244	29.6871
10.262	29.7135
10.28	29.7528
10.298	29.8037
10.316	29.8534
10.334	29.8861
10.352	29.8949
10.37	29.8874
10.388	29.8829
10.406	29.8993
10.424	29.9414
10.442	29.9948
10.46	30.0336
10.478	30.0329
10.496	29.9838
10.514	29.895
10.532	29.7895
10.55	29.6899
10.568	29.6089
10.586	29.5448
10.604	29.4865
10.622	29.4221
10.64	29.3485
10.658	29.2712
10.676	29.2009
10.694	29.1447
10.712	29.1021
10.73	29.0667
10.748	29.0315
10.766	28.9956
10.784	28.9649
10.802	28.9499
10.82	28.959
10.838	28.9937
10.856	29.049
10.874	29.1158
10.892	29.1858
10.91	29.2535
10.928	29.316
10.946	29.3709
10.964	29.4147
10.982	29.4424
11	29.449
11.018	29.4325
11.036	29.3949
11.054	29.3429
11.072	29.2855
11.09	29.2312
11.108	29.1846
11.126	29.1466
11.144	29.1133
11.162	29.0785
11.18	29.0338
11.198	28.9704
11.216	28.8829
11.234	28.7715
11.252	28.6438
11.27	28.5136
11.288	28.3985
11.306	28.3115
11.324	28.2578
11.342	28.2332
11.36	28.2266
11.378	28.2261
11.396	28.2255
11.414	28.225
11.432	28.231
11.45	28.2502
11.468	28.287
11.486	28.3411
11.504	28.4084
11.522	28.4826
11.54	28.5579
11.558	28.6294
11.576	28.6943
11.594	28.7516
11.612	28.8004
11.63	28.8398
11.648	28.8681
11.666	28.8831
11.684	28.8817
11.702	28.8617
11.72	28.8229
11.738	28.7677
11.756	28.7009
11.774	28.6291
11.792	28.558
11.81	28.4909
11.828	28.4281
11.846	28.3678
11.864	28.3077
11.882	28.2454
11.9	28.1795
11.918	28.1091
11.936	28.0334
11.954	27.9522
11.972	27.8665
11.99	27.7794
12.008	27.6962
12.026	27.624
12.044	27.5701
12.062	27.5394
12.08	27.5325
12.098	27.5456
12.116	27.572
12.134	27.6042
12.152	27.636
12.17	27.6635
12.188	27.6846
12.206	27.6981
12.224	27.7031
12.242	27.6988
12.26	27.6855
12.278	27.6649
12.296	27.6413
12.314	27.6207
12.332	27.6098
12.35	27.614
12.368	27.6362
12.386	27.6754
12.404	27.7269
12.422	27.783
12.44	27.8355
12.458	27.8761
12.476	27.8975
12.494	27.8951
12.512	27.8671
12.53	27.8151
12.548	27.744
12.566	27.6612
12.584	27.575
12.602	27.4928
12.62	27.4201
12.638	27.3589
12.656	27.3079
12.674	27.2635
12.692	27.2206
12.71	27.1741
12.728	27.1207
12.746	27.0589
12.764	26.9904
12.782	26.9191
12.8	26.8503
12.818	26.7894
12.836	26.7412
12.854	26.709
12.872	26.6931
12.89	26.6923
12.908	26.7039
12.926	26.7244
12.944	26.7499
12.962	26.7775
12.98	26.8056
12.998	26.8334
13.016	26.8608
13.034	26.8876
13.052	26.9138
13.07	26.9391
13.088	26.9629
13.106	26.9847
13.124	27.0044
13.142	27.0218
13.16	27.0372
13.178	27.0499
13.196	27.0591
13.214	27.0629
13.232	27.0593
13.25	27.0454
13.268	27.0191
13.286	26.9784
13.304	26.9229
13.322	26.8535
13.34	26.7722
13.358	26.6824
13.376	26.5884
13.394	26.4952
13.412	26.408
13.43	26.3322
13.448	26.2726
13.466	26.2329
13.484	26.2148
13.502	26.2174
13.52	26.2372
13.538	26.2679
13.556	26.3015
13.574	26.3297
13.592	26.3451
13.61	26.3424
13.628	26.3191
13.646	26.2756
13.664	26.2147
13.682	26.1407
13.7	26.0582
13.718	25.9713
13.736	25.8829
13.754	25.7948
13.772	25.7078
13.79	25.6227
13.808	25.5404
13.826	25.4628
13.844	25.3924
13.862	25.3322
13.88	25.2851
13.898	25.2535
13.916	25.2387
13.934	25.2408
13.952	25.2587
13.97	25.2907
13.988	25.3339
14.006	25.3857
14.024	25.4432
14.042	25.504
14.06	25.5653
14.078	25.625
14.096	25.681
14.114	25.7314
14.132	25.7741
14.15	25.8078
14.168	25.8316
14.186	25.8453
14.204	25.8496
14.222	25.8452
14.24	25.8337
14.258	25.8168
14.276	25.7959
14.294	25.7728
14.312	25.7489
14.33	25.7255
14.348	25.7037
14.366	25.685
14.384	25.67
14.402	25.6587
14.42	25.6501
14.438	25.6429
14.456	25.6347
14.474	25.6228
14.492	25.6042
14.51	25.5758
14.528	25.5358
14.546	25.4833
14.564	25.4185
14.582	25.3429
14.6	25.2585
14.618	25.1684
14.636	25.0759
14.654	24.9838
14.672	24.8943
14.69	24.8092
14.708	24.7293
14.726	24.6554
14.744	24.5875
14.762	24.5257
14.78	24.4701
14.798	24.4208
14.816	24.3778
14.834	24.3418
14.852	24.3124
14.87	24.2896
14.888	24.2732
14.906	24.2627
14.924	24.2576
14.942	24.2571
14.96	24.2605
14.978	24.2669
14.996	24.2758
15.014	24.2864
15.032	24.298
15.05	24.3101
15.068	24.3225
15.086	24.3351
15.104	24.348
15.122	24.3614
15.14	24.3756
15.158	24.3911
15.176	24.4084
15.194	24.4278
15.212	24.4495
15.23	24.4735
15.248	24.4996
15.266	24.5275
15.284	24.5567
15.302	24.5861
15.32	24.6149
15.338	24.6421
15.356	24.6663
15.374	24.6867
15.392	24.7023
15.41	24.7129
15.428	24.7179
15.446	24.7173
15.464	24.7116
15.482	24.7013
15.5	24.6871
15.518	24.67
15.536	24.6504
15.554	24.629
15.572	24.6062
15.59	24.5821
15.608	24.5563
15.626	24.5283
15.644	24.4976
15.662	24.4634
15.68	24.4255
15.698	24.3838
15.716	24.3384
15.734	24.2903
15.752	24.2401
15.77	24.1889
15.788	24.1381
15.806	24.0883
15.824	24.0402
15.842	23.9939
15.86	23.9489
15.878	23.9046
15.896	23.8599
15.914	23.8137
15.932	23.7648
15.95	23.7129
15.968	23.6574
15.986	23.599
16.004	23.5386
16.022	23.4772
16.04	23.4167
16.058	23.3587
16.076	23.3044
16.094	23.2553
16.112	23.2123
16.13	23.1756
16.148	23.1451
16.166	23.1203
16.184	23.1007
16.202	23.0856
16.22	23.0744
16.238	23.0669
16.256	23.0629
16.274	23.0625
16.292	23.0662
16.31	23.0741
16.328	23.0866
16.346	23.1034
16.364	23.1241
16.382	23.1477
16.4	23.1727
16.418	23.1979
16.436	23.2212
16.454	23.2408
16.472	23.2557
16.49	23.2646
16.508	23.2681
16.526	23.2665
16.544	23.2616
16.562	23.2555
16.58	23.2499
16.598	23.2477
16.616	23.2502
16.634	23.2586
16.652	23.2736
16.67	23.2944
16.688	23.3202
16.706	23.3482
16.724	23.3766
16.742	23.4024
16.76	23.4227
16.778	23.4361
16.796	23.4403
16.814	23.4349
16.832	23.4195
16.85	23.3948
16.868	23.3624
16.886	23.3234
16.904	23.2811
16.922	23.2368
16.94	23.193
16.958	23.1519
16.976	23.1142
16.994	23.0817
17.012	23.0543
17.03	23.032
17.048	23.014
17.066	22.9993
17.084	22.9863
17.102	22.973
17.12	22.9581
17.138	22.9391
17.156	22.9146
17.174	22.8831
17.192	22.8432
17.21	22.7946
17.228	22.7366
17.246	22.6702
17.264	22.5957
17.282	22.5153
17.3	22.4305
17.318	22.3441
17.336	22.2589
17.354	22.1767
17.372	22.1016
17.39	22.0347
17.408	21.9789
17.426	21.9348
17.444	21.9035
17.462	21.8846
17.48	21.8777
17.498	21.8811
17.516	21.8931
17.534	21.9121
17.552	21.9349
17.57	21.9603
17.588	21.9853
17.606	22.0089
17.624	22.0294
17.642	22.0461
17.66	22.0585
17.678	22.0668
17.696	22.071
17.714	22.0718
17.732	22.0698
17.75	22.0656
17.768	22.0597
17.786	22.0525
17.804	22.0441
17.822	22.0345
17.84	22.0234
17.858	22.0103
17.876	21.9947
17.894	21.9763
17.912	21.9546
17.93	21.93
17.948	21.9025
17.966	21.8732
17.984	21.8427
18.002	21.8127
18.02	21.7847
18.038	21.7599
18.056	21.7406
18.074	21.7274
18.092	21.7221
18.11	21.725
18.128	21.7366
18.146	21.7564
18.164	21.7838
18.182	21.8172
18.2	21.8551
18.218	21.8949
18.236	21.9355
18.254	21.9736
18.272	22.0085
18.29	22.0373
18.308	22.0599
18.326	22.0746
18.344	22.0817
18.362	22.0812
18.38	22.0739
18.398	22.0609
18.416	22.0434
18.434	22.0231
18.452	22.0016
18.47	21.9802
18.488	21.9603
18.506	21.9428
18.524	21.9285
18.542	21.9176
18.56	21.9102
18.578	21.9063
18.596	21.9049
18.614	21.9059
18.632	21.9083
18.65	21.9119
18.668	21.9157
18.686	21.9197
18.704	21.9234
18.722	21.9269
18.74	21.93
18.758	21.9328
18.776	21.9356
18.794	21.9384
18.812	21.9413
18.83	21.944
18.848	21.9465
18.866	21.9483
18.884	21.9487
18.902	21.9472
18.92	21.9426
18.938	21.9342
18.956	21.9207
18.974	21.9016
18.992	21.8755
19.01	21.8423
19.028	21.8009
19.046	21.7514
19.064	21.6934
19.082	21.6274
19.1	21.5537
19.118	21.4729
19.136	21.3861
19.154	21.2941
19.172	21.1985
19.19	21.0999
19.208	21.0006
19.226	20.9008
19.244	20.8029
19.262	20.7071
19.28	20.6154
19.298	20.5279
19.316	20.4464
19.334	20.3709
19.352	20.3027
19.37	20.2417
19.388	20.1886
19.406	20.1433
19.424	20.106
19.442	20.0766
19.46	20.0547
19.478	20.0402
19.496	20.0324
19.514	20.0312
19.532	20.0355
19.55	20.0446
19.568	20.0577
19.586	20.0739
19.604	20.0927
19.622	20.1127
19.64	20.1339
19.658	20.1549
19.676	20.1758
19.694	20.1952
19.712	20.2133
19.73	20.2294
19.748	20.2434
19.766	20.2552
19.784	20.2647
19.802	20.272
19.82	20.2772
19.838	20.2805
19.856	20.2821
19.874	20.2819
19.892	20.2804
19.91	20.2773
19.928	20.273
19.946	20.2674
19.964	20.2603
19.982	20.2518
20	20.2417
20.018	20.2299
20.036	20.2162
20.054	20.2004
20.072	20.1823
20.09	20.1617
20.108	20.1385
20.126	20.1128
20.144	20.0844
20.162	20.0537
20.18	20.0206
20.198	19.9857
20.216	19.9493
20.234	19.9115
20.252	19.8735
20.27	19.835
20.288	19.7976
20.306	19.7612
20.324	19.7268
20.342	19.6953
20.36	19.6667
20.378	19.6423
20.396	19.6218
20.414	19.606
20.432	19.5948
20.45	19.5884
20.468	19.5871
20.486	19.5903
20.504	19.5978
20.522	19.6094
20.54	19.6235
20.558	19.6406
20.576	19.6586
20.594	19.6769
20.612	19.6948
20.63	19.7102
20.648	19.7234
20.666	19.732
20.684	19.7361
20.702	19.7342
20.72	19.7251
20.738	19.7091
20.756	19.685
20.774	19.6529
20.792	19.6131
20.81	19.5653
20.828	19.5106
20.846	19.4498
20.864	19.3829
20.882	19.3126
20.9	19.2384
20.918	19.1625
20.936	19.0868
20.954	19.0111
20.972	18.9389
20.99	18.8694
21.008	18.8051
21.026	18.7469
21.044	18.6947
21.062	18.6505
21.08	18.6139
21.098	18.585
21.116	18.5643
21.134	18.551
21.152	18.5446
21.17	18.5452
21.188	18.5508
21.206	18.5614
21.224	18.576
21.242	18.5924
21.26	18.6114
21.278	18.6305
21.296	18.6494
21.314	18.6676
21.332	18.6835
21.35	18.6976
21.368	18.7092
21.386	18.7178
21.404	18.724
21.422	18.7277
21.44	18.7289
21.458	18.7283
21.476	18.7262
21.494	18.7228
21.512	18.719
21.53	18.7147
21.548	18.7105
21.566	18.7067
21.584	18.7032
21.602	18.7003
21.62	18.6983
21.638	18.6966
21.656	18.6948
21.674	18.6932
21.692	18.6909
21.71	18.6877
21.728	18.6838
21.746	18.6785
21.764	18.6719
21.782	18.6643
21.8	18.6559
21.818	18.6466
21.836	18.6377
21.854	18.6287
21.872	18.6207
21.89	18.6154
21.908	18.6121
21.926	18.6129
21.944	18.6193
21.962	18.6306
21.98	18.6493
21.998	18.6756
22.016	18.7094
22.034	18.7517
22.052	18.8027
22.07	18.8614
22.088	18.9277
22.106	19.0017
22.124	19.0807
22.142	19.165
22.16	19.2536
22.178	19.3423
22.196	19.4326
22.214	19.5215
22.232	19.6052
22.25	19.6854
22.268	19.7584
22.286	19.8219
22.304	19.877
22.322	19.9206
22.34	19.9521
22.358	19.972
22.376	19.9795
22.394	19.9742
22.412	19.9574
22.43	19.9305
22.448	19.8926
22.466	19.8464
22.484	19.7938
22.502	19.7337
22.52	19.6697
22.538	19.6031
22.556	19.5333
22.574	19.4642
22.592	19.3963
22.61	19.3294
22.628	19.2666
22.646	19.2075
22.664	19.1524
22.682	19.1023
22.7	19.0575
22.718	19.0171
22.736	18.9806
22.754	18.9487
22.772	18.9197
22.79	18.8925
22.808	18.8681
22.826	18.8438
22.844	18.818
22.862	18.7917
22.88	18.7629
22.898	18.7306
22.916	18.6953
22.934	18.6554
22.952	18.6104
22.97	18.5607
22.988	18.5045
23.006	18.4417
23.024	18.3725
23.042	18.2963
23.06	18.2126
23.078	18.1219
23.096	18.0252
23.114	17.9222
23.132	17.8132
23.15	17.7
23.168	17.5821
23.186	17.4599
23.204	17.3355
23.222	17.2083
23.24	17.0789
23.258	16.9488
23.276	16.8179
23.294	16.6864
23.312	16.5549
23.33	16.4236
23.348	16.2924
23.366	16.1618
23.384	16.0317
23.402	15.9021
23.42	15.7741
23.438	15.6475
23.456	15.5224
23.474	15.3992
23.492	15.2784
23.51	15.1595
23.528	15.0425
23.546	14.9269
23.564	14.813
23.582	14.7016
23.6	14.5927
23.618	14.4861
23.636	14.3835
23.654	14.2854
23.672	14.1909
23.69	14.1029
23.708	14.0229
23.726	13.9492
23.744	13.8849
23.762	13.8324
23.78	13.7897
23.798	13.7592
23.816	13.744
23.834	13.7425
23.852	13.7557
23.87	13.7857
23.888	13.8317
23.906	13.894
23.924	13.9745
23.942	14.0732
23.96	14.1898
23.978	14.3241
23.996	14.4767
24.014	14.6474
24.032	14.8343
24.05	15.037
24.068	15.2569
24.086	15.4897
24.104	15.7318
24.122	15.987
24.14	16.25
24.158	16.5138
24.176	16.7827
24.194	17.0528
24.212	17.3138
24.23	17.5655
24.248	17.8099
24.266	18.036
24.284	18.2385
24.302	18.4237
24.32	18.5818
24.338	18.7038
24.356	18.7959
24.374	18.8529
24.392	18.8659
24.41	18.8362
24.428	18.7646
24.446	18.6458
24.464	18.4769
24.482	18.2606
24.5	17.9967
24.518	17.6847
24.536	17.3224
24.554	16.9153
24.572	16.4695
24.59	15.9812
24.608	15.4533
24.626	14.8965
24.644	14.3132
24.662	13.6972
24.68	13.0646
24.698	12.4294
24.716	11.7802
24.734	11.1273
24.752	10.4885
24.77	9.861305
24.788	9.242862
24.806	8.654288
24.824	8.108960
24.842	7.591962
24.86	7.119484
24.878	6.711769
24.896	6.361524
24.914	6.069887
24.932	5.854098
24.95	5.723273
24.968	5.667033
24.986	5.694187
25.004	5.814691
25.022	6.027147
25.04	6.328503
25.058	6.718762
25.076	7.200219
25.094	7.773553
25.112	8.429105
25.13	9.157992
25.148	9.972089
25.166	10.8601
25.184	11.7989
25.202	12.7826
25.22	13.827
25.238	14.901
25.256	15.973
25.274	17.0628
25.292	18.1608
25.31	19.231
25.328	20.2542
25.346	21.256
25.364	22.2097
25.382	23.0838
25.4	23.886
25.418	24.6202
25.436	25.2636
25.454	25.7984
25.472	26.2382
25.49	26.5781
25.508	26.8086
25.526	26.9244
25.544	26.9309
25.562	26.8334
25.58	26.6362
25.598	26.3297
25.616	25.9237
25.634	25.437
25.652	24.8777
25.67	24.2281
25.688	23.5132
25.706	22.7622
25.724	21.9705
25.742	21.1288
25.76	20.2708
25.778	19.427
25.796	18.5743
25.814	17.7233
25.832	16.9055
25.85	16.1413
25.868	15.4068
25.886	14.7191
25.904	14.1013
25.922	13.5593
25.94	13.0799
25.958	12.6754
25.976	12.3583
25.994	12.1287
26.012	11.9812
26.03	11.9153
26.048	11.931
26.066	12.0338
26.084	12.2159
26.102	12.4659
26.12	12.7789
26.138	13.1676
26.156	13.6155
26.174	14.1026
26.192	14.6246
26.21	15.1958
26.228	15.7955
26.246	16.4023
26.264	17.0199
26.282	17.6563
26.3	18.2899
26.318	18.8995
26.336	19.4955
26.354	20.0788
26.372	20.6316
26.39	21.1372
26.408	21.6071
26.426	22.039
26.444	22.4208
26.462	22.7424
26.48	23.0131
26.498	23.2298
26.516	23.3842
26.534	23.4702
26.552	23.4924
26.57	23.4512
26.588	23.3455
26.606	23.173
26.624	22.9306
26.642	22.6268
26.66	22.2707
26.678	21.8666
26.696	21.4064
26.714	20.8979
26.732	20.3508
26.75	19.7679
26.768	19.1399
26.786	18.4782
26.804	17.796
26.822	17.1014
26.84	16.3862
26.858	15.6511
26.876	14.8975
26.894	14.1286
26.912	13.3471
26.93	12.5438
26.948	11.7092
26.966	10.7896
26.984	9.720509
27.002	8.680945
27.02	7.864523
27.028	7.647943