File: Bakgrunnsmateriale/MATLAB/FTIR/ftir_data/LPE453/Mapping_121/LPE453_t58_cm-1.asc
PE IR       SPECTRUM    SPECTRUM    ASCII       PEDS        1.60
  -1
LPE959~1.ASC
17/05/16
19:06:51.00
17/05/16
19:06:51.00
tln
$LPE453_t0058$<tbV0>[7.8,0.0,8.0,0.0,27,1,0]
370
64

2002,4.07
MIRTGS : RIGHTBACK : INTERNAL 2
MIR : ON : INTERNAL 2
OPTKBR

0.200000
8
8.000000
FILLER
RATIO
SPECTRUM
UNLOCKED 256

DOUBLE
64
COMBINED
1
0
0

1.000000
RATIO

1
0
TRUE
51149
0
LEFT NOT FITTED RIGHT NOT FITTED 0
NONE
NONE
15600
12
4.427000
51148
TRUE
1 0 8 72 0 0 0 0

15798

#HDR
-1
-1
#GR
CM-1
%T
2.38419e-05
0.0
5000
-1.000000
4631
8
24.3291
-13.6148
#DATA
5000	-0.191450
4996	0.111937
4992	0.315618
4988	0.081133
4984	-0.303196
4980	-0.087285
4976	0.617456
4972	1.007986
4968	0.924777
4964	0.571250
4960	0.239539
4956	0.019526
4952	-0.188565
4948	-0.219178
4944	-0.084924
4940	-0.019764
4936	-0.021457
4932	0.042724
4928	0.165438
4924	0.181674
4920	0.061416
4916	-0.022506
4912	-0.096511
4908	-0.237941
4904	-0.195527
4900	0.137996
4896	0.258064
4892	0.002503
4888	-0.121855
4884	0.058341
4880	0.371050
4876	0.432395
4872	0.227093
4868	0.113201
4864	0.096988
4860	0.197839
4856	0.339484
4852	0.365805
4848	0.438523
4844	0.269341
4840	-0.336170
4836	-0.624036
4832	-0.298023
4828	0.103211
4824	0.345468
4820	0.449490
4816	0.398540
4812	0.323104
4808	0.104069
4804	-0.103020
4800	-0.050067
4796	0.026988
4792	0.172710
4788	0.363516
4784	0.300335
4780	0.125336
4776	0.201296
4772	0.314426
4768	0.298285
4764	0.499844
4760	0.376701
4756	-0.159311
4752	-0.082230
4748	0.251579
4744	0.051259
4740	-0.437855
4736	-0.521945
4732	-0.014495
4728	0.338268
4724	0.094485
4720	-0.225424
4716	-0.180482
4712	-0.376248
4708	-0.559616
4704	0.716829
4700	1.728153
4696	0.784850
4692	0.663733
4688	2.190279
4684	2.874326
4680	2.288365
4676	1.467895
4672	0.566649
4668	0.402903
4664	1.296710
4660	1.789307
4656	0.975799
4652	-0.161290
4648	-0.232505
4644	-0.007319
4640	-0.108623
4636	0.308036
4632	0.980544
4628	1.096868
4624	0.608158
4620	0.230050
4616	0.491070
4612	0.999116
4608	1.367378
4604	1.373171
4600	0.895643
4596	0.586533
4592	0.662398
4588	0.455784
4584	-0.120210
4580	-0.330257
4576	-0.011229
4572	0.223827
4568	0.341320
4564	0.528597
4560	0.443530
4556	0.194597
4552	0.227761
4548	0.110268
4544	-0.246644
4540	-0.356078
4536	-0.136113
4532	-0.086855
4528	-0.495862
4524	-0.672602
4520	-0.089287
4516	0.351095
4512	-0.104403
4508	-0.813126
4504	-1.766085
4500	-3.889560
4496	-4.652643
4492	2.834224
4488	15.9574
4484	21.4899
4480	14.1636
4476	4.420924
4472	1.154899
4468	0.967764
4464	-0.051045
4460	-0.599932
4456	-0.160074
4452	0.267219
4448	0.167942
4444	-0.317692
4440	-0.628542
4436	-0.708937
4432	-0.778865
4428	-0.797700
4424	-0.636982
4420	-0.304698
4416	-0.138449
4412	-0.099253
4408	0.078916
4404	0.203275
4400	0.237631
4396	0.249242
4392	0.166225
4388	0.115609
4384	0.303411
4380	0.543665
4376	0.489187
4372	0.188016
4368	0.068235
4364	0.287413
4360	0.421500
4356	0.307679
4352	0.182962
4348	0.157856
4344	0.138187
4340	0.118899
4336	0.157094
4332	0.099778
4328	0.132918
4324	0.333547
4320	0.414109
4316	0.365495
4312	0.285196
4308	0.298953
4304	0.188827
4300	-0.011777
4296	-0.048971
4292	-0.038599
4288	-0.024509
4284	-0.055742
4280	-0.045847
4276	0.016117
4272	-0.001478
4268	0.072240
4264	0.220751
4260	0.384020
4256	0.512790
4252	0.350689
4248	0.068306
4244	0.051712
4240	0.091147
4236	-0.005960
4232	-0.038123
4228	0.094127
4224	0.331950
4220	0.376582
4216	0.225424
4212	0.142359
4208	0.085711
4204	0.229930
4200	0.584173
4196	0.595617
4192	0.163054
4188	-0.095820
4184	0.171303
4180	0.481128
4176	0.587177
4172	0.564002
4168	0.286698
4164	0.034070
4160	0.018048
4156	0.119185
4152	0.203108
4148	0.264739
4144	0.403189
4140	0.504493
4136	0.447702
4132	0.251126
4128	0.069808
4124	-0.023984
4120	-0.095868
4116	-0.074386
4112	0.056505
4108	0.200295
4104	0.265789
4100	0.204658
4096	0.050282
4092	-0.037717
4088	0.074934
4084	0.207805
4080	0.247097
4076	0.224542
4072	0.179934
4068	0.147294
4064	0.079536
4060	0.081372
4056	0.124454
4052	0.099658
4048	0.105929
4044	0.173640
4040	0.204849
4036	0.111174
4032	0.004339
4028	0.043034
4024	0.125384
4020	0.088620
4016	0.050806
4012	0.072121
4008	0.062322
4004	0.046491
4000	0.020861
3996	-0.066947
3992	-0.099301
3988	0.130867
3984	0.339937
3980	0.184702
3976	-0.037837
3972	-0.063037
3968	0.047492
3964	0.106716
3960	0.086355
3956	0.106596
3952	0.093102
3948	0.033044
3944	0.052309
3940	0.111865
3936	0.121307
3932	0.084638
3928	0.054693
3924	0.058722
3920	0.095868
3916	0.131869
3912	0.162601
3908	0.191330
3904	0.151729
3900	0.068545
3896	0.004649
3892	-0.040197
3888	-0.084280
3884	-0.094342
3880	-0.132298
3876	-0.135374
3872	-0.056314
3868	-0.019311
3864	-0.065064
3860	-0.101661
3856	-0.078082
3852	-0.026488
3848	0.007224
3844	-0.001621
3840	-0.016164
3836	-0.000262
3832	0.005269
3828	-0.059866
3824	-0.044012
3820	0.162482
3816	0.239181
3812	0.121498
3808	0.065183
3804	0.092720
3800	0.084900
3796	-0.023341
3792	-0.080561
3788	0.018119
3784	0.061058
3780	0.032448
3776	0.056338
3772	0.014090
3768	-0.001883
3764	0.095486
3760	0.124692
3756	0.101304
3752	0.054836
3748	0.029587
3744	0.101161
3740	0.116276
3736	0.050449
3732	0.009989
3728	-0.050473
3724	-0.090169
3720	0.012874
3716	0.148129
3712	0.115489
3708	0.021386
3704	0.034451
3700	0.010061
3696	-0.092697
3692	-0.072908
3688	0.007224
3684	0.034689
3680	0.099587
3676	0.147366
3672	0.078058
3668	-0.028085
3664	-0.081658
3660	-0.098228
3656	-0.090718
3652	0.009465
3648	0.154113
3644	0.109291
3640	-0.055909
3636	-0.068044
3632	0.021076
3628	0.067591
3624	0.076413
3620	0.086903
3616	0.132346
3612	0.079894
3608	-0.119781
3604	-0.199222
3600	-0.095009
3596	0.041723
3592	0.124382
3588	0.095438
3584	0.003647
3580	-0.039267
3576	0.032043
3572	0.145339
3568	0.219488
3564	0.173735
3560	0.038743
3556	-0.024700
3552	-0.020599
3548	0.012755
3544	-0.005984
3540	-0.091838
3536	-0.121903
3532	-0.122737
3528	-0.061964
3524	0.026631
3520	0.056242
3516	0.053071
3512	0.033974
3508	0.031805
3504	0.037813
3500	0.031232
3496	0.020408
3492	-0.018715
3488	-0.117135
3484	-0.136852
3480	-0.023913
3476	0.027775
3472	0.015616
3468	0.070452
3464	0.138640
3460	0.136947
3456	0.107073
3452	0.072073
3448	0.039505
3444	0.112771
3440	0.201630
3436	0.169038
3432	0.164461
3428	0.197291
3424	0.161480
3420	0.138783
3416	0.090885
3412	0.002622
3408	0.020098
3404	0.063800
3400	0.035214
3396	0.027513
3392	0.081682
3388	0.149726
3384	0.151944
3380	0.082230
3376	0.075435
3372	0.136876
3368	0.147509
3364	0.102782
3360	0.000786
3356	-0.078654
3352	0.004506
3348	0.064396
3344	-0.063204
3340	-0.149106
3336	-0.052952
3332	0.055623
3328	0.033378
3324	-0.076460
3320	-0.127172
3316	-0.081396
3312	-0.024700
3308	0.027346
3304	0.067949
3300	0.083851
3296	0.097322
3292	0.095796
3288	0.080609
3284	0.049114
3280	-0.004982
3276	-0.006723
3272	0.013852
3268	-0.052595
3264	-0.073933
3260	0.026464
3256	0.057840
3252	0.006246
3248	0.012660
3244	0.040483
3240	0.000691
3236	-0.058388
3232	-0.070977
3228	-0.023055
3224	0.038504
3220	0.069856
3216	0.135850
3212	0.190973
3208	0.159907
3204	0.097632
3200	-0.001335
3196	-0.151562
3192	-0.229096
3188	-0.159120
3184	-0.078392
3180	-0.065970
3176	-0.056958
3172	-0.052905
3168	-0.077390
3164	-0.081253
3160	-0.022649
3156	0.043201
3152	0.084948
3148	0.154781
3144	0.221657
3140	0.243067
3136	0.210475
3132	0.039958
3128	-0.133132
3124	-0.124502
3120	-0.102686
3116	-0.151324
3112	-0.086593
3108	-0.009894
3104	-0.020241
3100	0.024724
3096	0.092434
3092	0.120377
3088	0.092196
3084	0.083279
3080	0.145983
3076	0.125288
3072	0.044965
3068	0.022721
3064	0.031638
3060	0.023484
3056	-0.001430
3052	-0.023865
3048	-0.071358
3044	-0.130081
3040	-0.118684
3036	-0.029730
3032	0.040078
3028	0.040197
3024	0.040245
3020	0.048208
3016	0.082898
3012	0.135993
3008	0.075840
3004	-0.016641
3000	0.010871
2996	0.102925
2992	0.153827
2988	0.169801
2984	0.169992
2980	0.121998
2976	0.055289
2972	0.043940
2968	0.100135
2964	0.155806
2960	0.141191
2956	0.065565
2952	0.041294
2948	0.091004
2944	0.077891
2940	0.015950
2936	0.038051
2932	0.110769
2928	0.096988
2924	0.009727
2920	-0.037956
2916	-0.004792
2912	0.046372
2908	0.038528
2904	0.042533
2900	0.117111
2896	0.160837
2892	0.131511
2888	0.100517
2884	0.096321
2880	0.099921
2876	0.098800
2872	0.077009
2868	0.048899
2864	0.005888
2860	-0.059580
2856	-0.091838
2852	-0.044965
2848	0.032186
2844	0.028800
2840	0.009036
2836	0.040578
2832	0.051403
2828	0.031542
2824	-0.041866
2820	-0.126719
2816	-0.104475
2812	-0.006222
2808	0.060319
2804	0.040698
2800	-0.014209
2796	-0.016951
2792	-0.007128
2788	-0.002861
2784	0.037169
2780	0.049972
2776	0.006794
2772	-0.022625
2768	-0.013208
2764	0.000214
2760	0.009441
2756	0.030136
2752	0.074982
2748	0.106549
2744	0.076198
2740	0.036716
2736	0.057673
2732	0.104856
2728	0.104355
2724	0.023126
2720	-0.093412
2716	-0.143718
2712	-0.129318
2708	-0.077605
2704	-0.026416
2700	-0.030303
2696	-0.034928
2692	-0.015521
2688	-0.001573
2684	0.003266
2680	0.010371
2676	0.021791
2672	0.052976
2668	0.068140
2664	0.042152
2660	0.023293
2656	0.033283
2652	0.074386
2648	0.108098
2644	0.124931
2640	0.129008
2636	0.104165
2632	0.071406
2628	0.066184
2624	0.071477
2620	0.013208
2616	-0.102400
2612	-0.186491
2608	-0.162124
2604	-0.054621
2600	0.014662
2596	0.008606
2592	-0.002384
2588	-0.014424
2584	-0.038838
2580	-0.005722
2576	0.081443
2572	0.132846
2568	0.140738
2564	0.148701
2560	0.104236
2556	-0.013899
2552	-0.070738
2548	-0.013113
2544	0.069594
2540	0.059604
2536	-0.025725
2532	-0.057315
2528	-0.032377
2524	-0.045204
2520	-0.081038
2516	-0.045299
2512	0.014472
2508	0.022101
2504	0.063157
2500	0.166559
2496	0.178194
2492	0.084233
2488	-0.001811
2484	-0.077772
2480	-0.117874
2476	-0.079703
2472	-0.010919
2468	0.037574
2464	0.085496
2460	0.090241
2456	0.002002
2452	-0.026416
2448	0.058579
2444	0.117707
2440	0.132060
2436	0.142931
2432	0.158977
2428	0.111603
2424	-0.013971
2420	0.010561
2416	0.220870
2412	0.329542
2408	0.281500
2404	0.175166
2400	0.013470
2396	-0.101423
2392	-0.104475
2388	-0.078368
2384	-0.051665
2380	-0.033593
2376	-0.040125
2372	-0.034213
2368	-0.016379
2364	-0.022768
2360	-0.055241
2356	-0.036048
2352	0.069403
2348	0.148248
2344	0.135207
2340	0.086522
2336	0.030088
2332	-0.038194
2328	-0.087189
2324	-0.071668
2320	-0.056266
2316	-0.077867
2312	-0.037074
2308	0.033068
2304	0.064420
2300	0.062131
2296	0.050139
2292	0.038242
2288	0.007724
2284	-0.022792
2280	-0.005626
2276	0.089836
2272	0.150585
2268	0.121450
2264	0.120997
2260	0.141501
2256	0.146627
2252	0.161671
2248	0.158619
2244	0.163388
2240	0.214505
2236	0.295209
2232	0.351691
2228	0.354576
2224	0.360560
2220	0.417852
2216	0.529241
2212	0.615477
2208	0.660037
2204	0.746774
2200	0.808167
2196	0.842881
2192	0.972580
2188	1.162457
2184	1.330232
2180	1.484584
2176	1.633000
2172	1.726913
2168	1.818466
2164	2.021169
2160	2.295494
2156	2.484130
2152	2.577519
2148	2.768158
2144	3.082060
2140	3.353214
2136	3.587675
2132	3.873705
2128	4.188442
2124	4.478335
2120	4.739022
2116	5.017614
2112	5.296778
2108	5.570340
2104	5.908203
2100	6.260395
2096	6.562328
2092	6.912565
2088	7.334780
2084	7.745099
2080	8.127593
2076	8.472299
2072	8.773183
2068	9.075212
2064	9.357738
2060	9.632253
2056	10.0197
2052	10.465
2048	10.842
2044	11.1707
2040	11.4727
2036	11.8
2032	12.2325
2028	12.6866
2024	13.0101
2020	13.2523
2016	13.5502
2012	13.9235
2008	14.2976
2004	14.5882
2000	14.8532
1996	15.1349
1992	15.4311
1988	15.776
1984	16.0888
1980	16.3458
1976	16.6208
1972	16.9165
1968	17.1907
1964	17.4534
1960	17.7539
1956	18.0545
1952	18.2712
1948	18.4337
1944	18.6541
1940	18.9188
1936	19.139
1932	19.3185
1928	19.4973
1924	19.6844
1920	19.8763
1916	20.0817
1912	20.2734
1908	20.4262
1904	20.5765
1900	20.713
1896	20.8371
1892	20.9923
1888	21.1284
1884	21.2757
1880	21.4484
1876	21.5554
1872	21.6745
1868	21.8548
1864	22.0303
1860	22.1753
1856	22.2586
1852	22.3198
1848	22.4132
1844	22.4823
1840	22.5111
1836	22.5784
1832	22.6899
1828	22.7926
1824	22.8672
1820	22.9156
1816	22.9631
1812	23.0387
1808	23.1632
1804	23.295
1800	23.3627
1796	23.3991
1792	23.4541
1788	23.5265
1784	23.6149
1780	23.6625
1776	23.6272
1772	23.606
1768	23.6861
1764	23.7859
1760	23.807
1756	23.7924
1752	23.8231
1748	23.8597
1744	23.8783
1740	23.9165
1736	23.9352
1732	23.9428
1728	24.0124
1724	24.1168
1720	24.159
1716	24.0911
1712	23.9949
1708	23.9948
1704	24.0677
1700	24.1452
1696	24.2074
1692	24.2254
1688	24.2116
1684	24.2114
1680	24.2249
1676	24.2146
1672	24.204
1668	24.2278
1664	24.2703
1660	24.3005
1656	24.297
1652	24.2917
1648	24.2495
1644	24.1516
1640	24.1298
1636	24.2151
1632	24.3051
1628	24.326
1624	24.2736
1620	24.2113
1616	24.1684
1612	24.1564
1608	24.1606
1604	24.1643
1600	24.1915
1596	24.2284
1592	24.2447
1588	24.2292
1584	24.1899
1580	24.1511
1576	24.1512
1572	24.1907
1568	24.2043
1564	24.1758
1560	24.1684
1556	24.1967
1552	24.191
1548	24.1422
1544	24.125
1540	24.1491
1536	24.1822
1532	24.182
1528	24.1529
1524	24.1677
1520	24.2148
1516	24.1923
1512	24.1188
1508	24.1617
1504	24.2355
1500	24.1933
1496	24.1517
1492	24.0933
1488	23.9742
1484	23.9273
1480	23.9384
1476	23.9242
1472	23.9474
1468	24.0202
1464	24.0423
1460	24.0069
1456	23.9087
1452	23.8178
1448	23.8623
1444	23.9526
1440	23.9404
1436	23.8628
1432	23.8303
1428	23.868
1424	23.909
1420	23.9097
1416	23.8673
1412	23.7954
1408	23.724
1404	23.6371
1400	23.5778
1396	23.6135
1392	23.6941
1388	23.7373
1384	23.719
1380	23.6606
1376	23.5785
1372	23.5112
1368	23.4946
1364	23.5184
1360	23.5238
1356	23.4816
1352	23.494
1348	23.5481
1344	23.57
1340	23.5566
1336	23.4785
1332	23.3921
1328	23.3613
1324	23.3883
1320	23.4639
1316	23.5293
1312	23.5111
1308	23.455
1304	23.412
1300	23.3528
1296	23.2849
1292	23.2696
1288	23.3376
1284	23.3962
1280	23.3875
1276	23.3303
1272	23.2469
1268	23.1964
1264	23.1661
1260	23.1329
1256	23.1344
1252	23.1382
1248	23.1187
1244	23.117
1240	23.1118
1236	23.0913
1232	23.0672
1228	23.001
1224	22.9409
1220	22.9226
1216	22.8925
1212	22.8755
1208	22.9078
1204	22.916
1200	22.8981
1196	22.9324
1192	22.9589
1188	22.8977
1184	22.7686
1180	22.6649
1176	22.6278
1172	22.638
1168	22.7138
1164	22.7548
1160	22.629
1156	22.5346
1152	22.5593
1148	22.5235
1144	22.383
1140	22.2388
1136	22.1973
1132	22.1975
1128	22.1594
1124	22.1478
1120	22.178
1116	22.2072
1112	22.2496
1108	22.2654
1104	22.1601
1100	21.9958
1096	21.9818
1092	22.1575
1088	22.2876
1084	22.2421
1080	22.0989
1076	21.9244
1072	21.7741
1068	21.7315
1064	21.7788
1060	21.7787
1056	21.7054
1052	21.6481
1048	21.6948
1044	21.7849
1040	21.7523
1036	21.6274
1032	21.5537
1028	21.6059
1024	21.6297
1020	21.5429
1016	21.608
1012	21.7344
1008	21.5725
1004	21.3435
1000	21.3083
996	 21.2434
992	 21.0601
988	 20.9191
984	 20.8862
980	 20.8969
976	 20.8739
972	 20.8331
968	 20.7656
964	 20.6327
960	 20.4954
956	 20.422
952	 20.4001
948	 20.4216
944	 20.418
940	 20.2972
936	 20.2412
932	 20.3093
928	 20.2708
924	 20.1999
920	 20.2306
916	 20.2498
912	 20.1564
908	 19.9292
904	 19.7064
900	 19.5622
896	 19.4855
892	 19.5519
888	 19.6363
884	 19.6246
880	 19.5424
876	 19.3962
872	 19.2682
868	 19.2071
864	 19.2011
860	 19.1993
856	 19.0915
852	 18.9767
848	 18.9963
844	 18.9536
840	 18.8399
836	 18.8063
832	 18.7045
828	 18.5432
824	 18.4607
820	 18.4189
816	 18.3477
812	 18.2148
808	 18.1474
804	 18.1735
800	 18.0543
796	 17.874
792	 17.8186
788	 17.7428
784	 17.6343
780	 17.5694
776	 17.5248
772	 17.457
768	 17.2662
764	 17.0977
760	 17.1786
756	 17.2689
752	 17.1719
748	 17.0662
744	 17.0477
740	 17.0732
736	 17.0724
732	 16.9781
728	 16.8416
724	 16.663
720	 16.4137
716	 16.2655
712	 16.2279
708	 16.2432
704	 16.3595
700	 16.3616
696	 16.1561
692	 16.0756
688	 16.2141
684	 16.1612
680	 15.9086
676	 15.8036
672	 15.7238
668	 15.4158
664	 15.0191
660	 14.9655
656	 15.2524
652	 15.4383
648	 15.4046
644	 15.1715
640	 14.7145
636	 14.1402
632	 13.8361
628	 14.1157
624	 14.5721
620	 14.7634
616	 14.6178
612	 14.2606
608	 14.036
604	 13.9554
600	 13.8201
596	 13.6413
592	 13.5838
588	 13.7426
584	 13.8789
580	 13.8108
576	 13.6093
572	 13.3732
568	 13.1459
564	 12.7869
560	 12.4655
556	 12.5592
552	 12.9654
548	 13.2125
544	 12.9478
540	 12.5561
536	 12.6648
532	 12.9816
528	 12.9841
524	 12.7166
520	 12.3495
516	 12.25
512	 12.4647
508	 12.3804
504	 11.9576
500	 11.8962
496	 12.0434
492	 11.7105
488	 11.2087
484	 11.1764
480	 11.0879
476	 10.4322
472	 10.1882
468	 10.472
464	 10.5627
460	 10.8126
456	 10.6981
452	 9.827733
448	 9.358930
444	 9.810304
440	 11.212
436	 12.5915
432	 12.967
428	 12.7666
424	 11.7557
420	 9.707212
416	 8.477735
412	 11.7974
408	 16.5382
404	 13.8698
400	 8.902263
396	 12.6941
392	 19.4886
388	 18.8105
384	 8.886528
380	 -5.939698
376	 -10.8243
372	 -9.254050
370	 -13.6148