File: Bakgrunnsmateriale/MATLAB/FTIR/ftir_data/LPE453/Mapping_121/LPE453_t64.asc
PE IR       SPECTRUM    SPECTRUM    ASCII       PEDS        1.60
  -1
LPDBA9~1.ASC
17/05/16
19:34:31.00
17/05/16
19:34:57.00
tln
$LPE453_t0064$<tbV0>[-7.8,0.0,8.0,0.0,27,1,0]
27.028
64

2002,4.07
MIRTGS : RIGHTBACK : INTERNAL 2
MIR : ON : INTERNAL 2
OPTKBR

0.200000
8
8.000000
FILLER
RATIO
SPECTRUM
UNLOCKED 256

DOUBLE
64
COMBINED
1
0
0

0.002000
RATIO

1
0
TRUE
51149
0
LEFT NOT FITTED RIGHT NOT FITTED 0
NONE
NONE
15600
12
4.427000
51148
TRUE
1 0 8 72 0 0 0 0

15798

#HDR
-1
-1
#GR
µM
%T
2.38419e-05
0.0
2.000000
0.002000
12515
8
38.9113
-17.4954
#DATA
2.000000	 0.027656
2.018000	 0.304273
2.036000	 0.191808
2.054000	 -0.290160
2.072000	 0.167415
2.090000	 -0.162815
2.108000	 0.933361
2.126000	 -0.159855
2.144000	 -0.108411
2.162000	 0.255167
2.180000	 0.386303
2.198000	 -0.033383
2.216000	 -1.031375
2.234000	 8.789828
2.252000	 -0.202665
2.270000	 0.309616
2.288000	 0.533223
2.306000	 0.219418
2.324000	 0.309418
2.342000	 0.440454
2.360000	 0.358815
2.378000	 0.173559
2.396000	 0.283017
2.414000	 0.107717
2.432000	 0.225333
2.450000	 0.242427
2.468000	 -0.049781
2.486000	 -0.014400
2.504000	 0.020646
2.522000	 0.023585
2.540000	 0.084272
2.558000	 0.317214
2.576000	 0.091911
2.594000	 0.219401
2.612000	 0.041562
2.630000	 0.036373
2.648000	 0.206243
2.666000	 0.066101
2.684000	 -0.055836
2.702000	 0.190666
2.720000	 -0.016983
2.738000	 0.060917
2.756000	 0.115885
2.774000	 -0.007854
2.792000	 0.022801
2.810000	 0.155704
2.828000	 -0.023006
2.846000	 0.143971
2.864000	 0.077713
2.882000	 -0.032009
2.900000	 -0.015779
2.918000	 -0.073838
2.936000	 0.014153
2.954000	 -0.006536
2.972000	 0.068922
2.990000	 -0.033505
3.008000	 0.071940
3.026000	 0.016976
3.044000	 0.057624
3.062000	 0.052617
3.080000	 -0.027456
3.098000	 0.065361
3.116000	 -0.013248
3.134000	 0.014335
3.152000	 0.090478
3.170000	 0.018547
3.188000	 0.090693
3.206000	 0.265991
3.224000	 0.014567
3.242000	 0.079699
3.260000	 0.002396
3.278000	 0.129424
3.296000	 -0.027659
3.314000	 -0.083927
3.332000	 0.037098
3.350000	 0.096862
3.368000	 0.121848
3.386000	 0.107642
3.404000	 0.059043
3.422000	 -0.010838
3.440000	 0.271365
3.458000	 0.224039
3.476000	 0.086638
3.494000	 0.103871
3.512000	 -0.013480
3.530000	 0.113597
3.548000	 0.120173
3.566000	 0.065607
3.584000	 0.029507
3.602000	 0.016467
3.620000	 0.003229
3.638000	 0.025070
3.656000	 -0.022613
3.674000	 0.006855
3.692000	 0.006013
3.710000	 0.093702
3.728000	 0.046719
3.746000	 -0.052932
3.764000	 0.067676
3.782000	 -0.054194
3.800000	 -0.035020
3.818000	 -0.034683
3.836000	 -0.005832
3.854000	 0.054334
3.872000	 0.124068
3.890000	 0.054851
3.908000	 0.002999
3.926000	 0.049857
3.944000	 0.009160
3.962000	 0.131004
3.980000	 -0.024359
3.998000	 0.004729
4.016000	 -0.017956
4.034000	 0.067421
4.052000	 -0.036993
4.070000	 0.017182
4.088000	 0.048336
4.106000	 -0.036917
4.124000	 -0.030247
4.141999	 0.093499
4.160000	 -0.067166
4.178000	 0.071972
4.196000	 0.075865
4.214000	 -0.022607
4.232000	 -0.062706
4.250000	 0.026967
4.268000	 -0.033507
4.286000	 0.082725
4.304000	 0.098692
4.322000	 0.193416
4.340000	 0.280576
4.358000	 0.276983
4.375999	 0.372639
4.394000	 0.555057
4.412000	 0.666697
4.430000	 0.910156
4.448000	 1.130626
4.466000	 1.456894
4.484000	 1.845726
4.502000	 2.096331
4.520000	 2.523583
4.538000	 3.077622
4.556000	 3.568181
4.574000	 4.221215
4.592000	 4.904144
4.609999	 5.544323
4.628000	 6.355498
4.646000	 7.146738
4.664000	 8.107821
4.682000	 8.975691
4.700000	 9.907277
4.718000	 10.819
4.736000	 11.8206
4.754000	 12.8212
4.772000	 13.7452
4.790000	 14.7964
4.808000	 15.614
4.826000	 16.5805
4.843999	 17.4731
4.862000	 18.4105
4.880000	 19.1706
4.898000	 20.0521
4.916000	 20.883
4.934000	 21.5702
4.952000	 22.2635
4.970000	 22.9779
4.988000	 23.7297
5.006000	 24.2978
5.024000	 24.8041
5.042000	 25.3062
5.060000	 25.9088
5.077999	 26.5086
5.096000	 26.8715
5.114000	 27.2304
5.132000	 27.6426
5.150000	 28.1046
5.168000	 28.4639
5.186000	 28.7217
5.204000	 29.0116
5.222000	 29.3012
5.240000	 29.5623
5.258000	 29.8035
5.276000	 30.0019
5.294000	 30.1888
5.312000	 30.3874
5.330000	 30.5505
5.348000	 30.8046
5.366000	 31.0035
5.384000	 31.1642
5.402000	 31.3431
5.420000	 31.4679
5.438000	 31.538
5.456000	 31.666
5.474000	 31.7733
5.492000	 31.8776
5.510000	 31.9203
5.528000	 31.9873
5.546000	 32.1187
5.564000	 32.1881
5.582000	 32.1546
5.600000	 32.2562
5.618000	 32.355
5.636000	 32.4267
5.654000	 32.5424
5.672000	 32.5125
5.690000	 32.56
5.708000	 32.7052
5.726000	 32.7247
5.744000	 32.7607
5.762000	 32.7123
5.780000	 32.7118
5.798000	 32.7047
5.816000	 32.7917
5.834000	 32.8349
5.852000	 32.8041
5.870000	 32.838
5.888000	 32.9429
5.906000	 32.9839
5.923999	 32.9667
5.942000	 32.9098
5.960000	 32.8374
5.978000	 32.8567
5.996000	 32.8533
6.014000	 32.8424
6.032000	 32.9414
6.050000	 33.0306
6.068000	 33.045
6.086000	 33.0364
6.104000	 33.1129
6.122000	 33.1501
6.140000	 33.0555
6.158000	 32.9982
6.176000	 32.9997
6.194000	 32.9944
6.212000	 33.0707
6.230000	 33.0937
6.248000	 33.0217
6.266000	 33.0232
6.284000	 33.1151
6.302000	 33.1553
6.320000	 33.0797
6.338000	 33.0236
6.356000	 33.0107
6.374000	 32.9933
6.392000	 32.9585
6.410000	 32.9099
6.428000	 32.8722
6.446000	 32.887
6.464000	 32.981
6.482000	 33.0611
6.500000	 33.0413
6.518000	 32.9767
6.536000	 32.9566
6.554000	 32.9344
6.572000	 32.8975
6.590000	 32.8873
6.608000	 32.8863
6.626000	 32.8935
6.644000	 32.853
6.662000	 32.7443
6.680000	 32.6355
6.698000	 32.6084
6.716000	 32.6978
6.734000	 32.8021
6.752000	 32.8717
6.770000	 32.8962
6.788000	 32.8711
6.806000	 32.8091
6.824000	 32.7282
6.842000	 32.6917
6.860000	 32.6806
6.878000	 32.689
6.896000	 32.7718
6.914000	 32.8493
6.932000	 32.8697
6.950000	 32.8705
6.968000	 32.8601
6.986000	 32.8234
7.004000	 32.7565
7.022000	 32.7212
7.040000	 32.7347
7.058000	 32.7296
7.076000	 32.6985
7.094000	 32.6484
7.112000	 32.5502
7.130000	 32.4848
7.148000	 32.547
7.166000	 32.6348
7.184000	 32.6459
7.202000	 32.657
7.220000	 32.6952
7.238000	 32.6823
7.256000	 32.6454
7.274000	 32.6644
7.292000	 32.6742
7.310000	 32.5844
7.328000	 32.445
7.346000	 32.3346
7.364000	 32.2893
7.382000	 32.3141
7.400000	 32.3379
7.418000	 32.3283
7.436000	 32.3508
7.454000	 32.4175
7.472000	 32.4753
7.490000	 32.5067
7.508000	 32.5164
7.526000	 32.5128
7.544000	 32.4913
7.562000	 32.4466
7.580000	 32.4046
7.598000	 32.3807
7.616000	 32.3472
7.634000	 32.2835
7.652000	 32.1977
7.670000	 32.1213
7.688000	 32.0925
7.706000	 32.1093
7.724000	 32.1407
7.742000	 32.1784
7.760000	 32.2412
7.778000	 32.3299
7.796000	 32.4011
7.814000	 32.4007
7.832000	 32.3359
7.850000	 32.274
7.868000	 32.2483
7.886000	 32.228
7.904000	 32.1851
7.922000	 32.1366
7.940000	 32.1091
7.958000	 32.1022
7.976000	 32.1011
7.994000	 32.0967
8.012000	 32.0821
8.030000	 32.0549
8.048000	 32.0298
8.065999	 32.0344
8.084000	 32.0795
8.102000	 32.141
8.120000	 32.1793
8.138000	 32.182
8.155999	 32.1746
8.173999	 32.172
8.192000	 32.1562
8.210000	 32.1186
8.228000	 32.0721
8.246000	 32.0147
8.263999	 31.9311
8.282000	 31.8353
8.300000	 31.7587
8.318000	 31.7058
8.336000	 31.6728
8.353999	 31.6745
8.372000	 31.7195
8.390000	 31.7907
8.408000	 31.858
8.426000	 31.9024
8.443999	 31.9254
8.462000	 31.936
8.480000	 31.9381
8.498000	 31.9378
8.516000	 31.9409
8.533999	 31.9365
8.552000	 31.8982
8.570000	 31.8196
8.588000	 31.738
8.606000	 31.7045
8.624000	 31.7257
8.641999	 31.7551
8.660000	 31.7484
8.678000	 31.7081
8.696000	 31.6636
8.714000	 31.6303
8.731999	 31.6049
8.750000	 31.5838
8.768000	 31.5716
8.786000	 31.5717
8.804000	 31.5842
8.821999	 31.608
8.840000	 31.6402
8.858000	 31.6751
8.876000	 31.7088
8.894000	 31.74
8.911999	 31.7631
8.930000	 31.7698
8.948000	 31.7616
8.966000	 31.7503
8.984000	 31.7364
9.001999	 31.6944
9.020000	 31.593
9.038000	 31.4352
9.056000	 31.2641
9.074000	 31.1301
9.092000	 31.0557
9.109999	 31.0325
9.128000	 31.0405
9.146000	 31.0663
9.164000	 31.1028
9.182000	 31.1496
9.199999	 31.2126
9.218000	 31.2999
9.236000	 31.4073
9.254000	 31.5101
9.272000	 31.5718
9.289999	 31.5708
9.308000	 31.5173
9.326000	 31.4474
9.344000	 31.3963
9.362000	 31.3771
9.379999	 31.379
9.398000	 31.3831
9.416000	 31.3761
9.434000	 31.3504
9.452000	 31.2998
9.469999	 31.2225
9.488000	 31.1302
9.506000	 31.0482
9.524000	 30.9993
9.542000	 30.9851
9.560000	 30.981
9.577999	 30.9567
9.596000	 30.9023
9.614000	 30.835
9.632000	 30.7845
9.650000	 30.7721
9.667999	 30.7976
9.686000	 30.8427
9.704000	 30.8839
9.722000	 30.911
9.740000	 30.9327
9.757999	 30.9633
9.776000	 31.0055
9.794000	 31.0451
9.812000	 31.0642
9.830000	 31.0574
9.847999	 31.0353
9.866000	 31.0118
9.884000	 30.9915
9.902000	 30.966
9.920000	 30.9219
9.937999	 30.8509
9.956000	 30.7521
9.974000	 30.6329
9.992000	 30.5084
10.01	30.3971
10.028	30.3118
10.046	30.2518
10.064	30.2054
10.082	30.1614
10.1	30.1215
10.118	30.1045
10.136	30.1346
10.154	30.2239
10.172	30.3612
10.19	30.5128
10.208	30.6375
10.226	30.7049
10.244	30.707
10.262	30.662
10.28	30.6041
10.298	30.5664
10.316	30.5678
10.334	30.6043
10.352	30.6557
10.37	30.6965
10.388	30.7082
10.406	30.6866
10.424	30.6405
10.442	30.5861
10.46	30.5371
10.478	30.4997
10.496	30.469
10.514	30.4327
10.532	30.3765
10.55	30.2946
10.568	30.1912
10.586	30.0813
10.604	29.9824
10.622	29.909
10.64	29.8668
10.658	29.8535
10.676	29.8608
10.694	29.8785
10.712	29.8951
10.73	29.9026
10.748	29.8964
10.766	29.8793
10.784	29.8603
10.802	29.8516
10.82	29.8621
10.838	29.8922
10.856	29.9343
10.874	29.9756
10.892	30.0053
10.91	30.0175
10.928	30.0127
10.946	29.9941
10.964	29.9636
10.982	29.9212
11	29.8653
11.018	29.7967
11.036	29.7205
11.054	29.6454
11.072	29.5801
11.09	29.5295
11.108	29.4922
11.126	29.4606
11.144	29.4253
11.162	29.3783
11.18	29.3171
11.198	29.2454
11.216	29.1707
11.234	29.1013
11.252	29.0435
11.27	29.0003
11.288	28.9726
11.306	28.9598
11.324	28.9609
11.342	28.9752
11.36	29.001
11.378	29.036
11.396	29.078
11.414	29.1254
11.432	29.1774
11.45	29.2336
11.468	29.2925
11.486	29.3499
11.504	29.3993
11.522	29.4345
11.54	29.4523
11.558	29.4536
11.576	29.4427
11.594	29.4238
11.612	29.3988
11.63	29.3663
11.648	29.3223
11.666	29.2642
11.684	29.1928
11.702	29.1134
11.72	29.0353
11.738	28.9677
11.756	28.9164
11.774	28.8828
11.792	28.8634
11.81	28.8518
11.828	28.8412
11.846	28.8259
11.864	28.8017
11.882	28.7667
11.9	28.7199
11.918	28.6615
11.936	28.592
11.954	28.513
11.972	28.4265
11.99	28.3357
12.008	28.2446
12.026	28.1579
12.044	28.0813
12.062	28.0216
12.08	27.986
12.098	27.9802
12.116	28.0074
12.134	28.0659
12.152	28.1483
12.17	28.2434
12.188	28.3376
12.206	28.4176
12.224	28.473
12.242	28.4984
12.26	28.4941
12.278	28.4659
12.296	28.4236
12.314	28.3797
12.332	28.3456
12.35	28.3292
12.368	28.3325
12.386	28.352
12.404	28.3789
12.422	28.4018
12.44	28.411
12.458	28.4002
12.476	28.3682
12.494	28.3186
12.512	28.2577
12.53	28.1915
12.548	28.1236
12.566	28.0548
12.584	27.9837
12.602	27.9084
12.62	27.8294
12.638	27.7508
12.656	27.6796
12.674	27.624
12.692	27.5909
12.71	27.5833
12.728	27.5989
12.746	27.6303
12.764	27.6668
12.782	27.6977
12.8	27.7145
12.818	27.7134
12.836	27.6953
12.854	27.6649
12.872	27.6284
12.89	27.5923
12.908	27.5613
12.926	27.5381
12.944	27.5231
12.962	27.5162
12.98	27.5178
12.998	27.5287
13.016	27.5508
13.034	27.5867
13.052	27.6381
13.07	27.7049
13.088	27.7846
13.106	27.8724
13.124	27.9615
13.142	28.0445
13.16	28.1143
13.178	28.1649
13.196	28.1937
13.214	28.1998
13.232	28.1845
13.25	28.1502
13.268	28.1011
13.286	28.0405
13.304	27.9721
13.322	27.8983
13.34	27.8222
13.358	27.7457
13.376	27.6712
13.394	27.6002
13.412	27.5338
13.43	27.4719
13.448	27.4128
13.466	27.3536
13.484	27.2905
13.502	27.2199
13.52	27.1393
13.538	27.0477
13.556	26.9467
13.574	26.8407
13.592	26.736
13.61	26.6395
13.628	26.5584
13.646	26.4987
13.664	26.4644
13.682	26.4566
13.7	26.4743
13.718	26.5142
13.736	26.5722
13.754	26.6428
13.772	26.7211
13.79	26.8024
13.808	26.8829
13.826	26.9589
13.844	27.0276
13.862	27.0862
13.88	27.1324
13.898	27.1642
13.916	27.1802
13.934	27.1798
13.952	27.1634
13.97	27.1326
13.988	27.0899
14.006	27.0388
14.024	26.9828
14.042	26.9259
14.06	26.8711
14.078	26.8208
14.096	26.7762
14.114	26.7376
14.132	26.7049
14.15	26.6779
14.168	26.6561
14.186	26.6399
14.204	26.6299
14.222	26.6272
14.24	26.6327
14.258	26.6467
14.276	26.6685
14.294	26.696
14.312	26.7258
14.33	26.7536
14.348	26.7739
14.366	26.7816
14.384	26.7715
14.402	26.7408
14.42	26.6882
14.438	26.6144
14.456	26.5222
14.474	26.4159
14.492	26.301
14.51	26.1837
14.528	26.0703
14.546	25.9658
14.564	25.8744
14.582	25.799
14.6	25.7412
14.618	25.7017
14.636	25.6796
14.654	25.6733
14.672	25.6805
14.69	25.6983
14.708	25.7234
14.726	25.7522
14.744	25.7806
14.762	25.8047
14.78	25.8219
14.798	25.8301
14.816	25.8284
14.834	25.8175
14.852	25.7992
14.87	25.7768
14.888	25.7538
14.906	25.734
14.924	25.721
14.942	25.7173
14.96	25.724
14.978	25.7408
14.996	25.7666
15.014	25.7994
15.032	25.8361
15.05	25.8737
15.068	25.9101
15.086	25.9435
15.104	25.9729
15.122	25.9982
15.14	26.0198
15.158	26.038
15.176	26.0534
15.194	26.0666
15.212	26.0779
15.23	26.0872
15.248	26.0942
15.266	26.0986
15.284	26.1003
15.302	26.0995
15.32	26.0961
15.338	26.0901
15.356	26.0812
15.374	26.069
15.392	26.0527
15.41	26.0311
15.428	26.0028
15.446	25.9657
15.464	25.9185
15.482	25.8602
15.5	25.79
15.518	25.7086
15.536	25.6174
15.554	25.5184
15.572	25.4147
15.59	25.3102
15.608	25.2081
15.626	25.1114
15.644	25.0228
15.662	24.9443
15.68	24.8762
15.698	24.819
15.716	24.7721
15.734	24.7341
15.752	24.7038
15.77	24.6797
15.788	24.66
15.806	24.6438
15.824	24.6302
15.842	24.6183
15.86	24.6075
15.878	24.5979
15.896	24.5894
15.914	24.5825
15.932	24.5775
15.95	24.5748
15.968	24.5748
15.986	24.5776
16.004	24.5833
16.022	24.5916
16.04	24.602
16.058	24.6136
16.076	24.6257
16.094	24.637
16.112	24.6465
16.13	24.6536
16.148	24.6576
16.166	24.6584
16.184	24.6565
16.202	24.6521
16.22	24.6463
16.238	24.64
16.256	24.6341
16.274	24.6297
16.292	24.6265
16.31	24.6246
16.328	24.623
16.346	24.6202
16.364	24.6152
16.382	24.6061
16.4	24.5921
16.418	24.5725
16.436	24.5471
16.454	24.5171
16.472	24.4834
16.49	24.4483
16.508	24.414
16.526	24.3821
16.544	24.3551
16.562	24.3339
16.58	24.3191
16.598	24.3105
16.616	24.3068
16.634	24.3069
16.652	24.308
16.67	24.3082
16.688	24.3058
16.706	24.2983
16.724	24.2853
16.742	24.2661
16.76	24.2414
16.778	24.2122
16.796	24.1804
16.814	24.1485
16.832	24.1181
16.85	24.0926
16.868	24.0734
16.886	24.0618
16.904	24.0589
16.922	24.0645
16.94	24.0785
16.958	24.0988
16.976	24.1242
16.994	24.1521
17.012	24.1799
17.03	24.2057
17.048	24.226
17.066	24.2394
17.084	24.2435
17.102	24.2368
17.12	24.2185
17.138	24.1879
17.156	24.1455
17.174	24.0914
17.192	24.0275
17.21	23.9546
17.228	23.8752
17.246	23.7916
17.264	23.7053
17.282	23.6201
17.3	23.5373
17.318	23.4598
17.336	23.3896
17.354	23.3278
17.372	23.2763
17.39	23.2353
17.408	23.2053
17.426	23.1856
17.444	23.176
17.462	23.1747
17.48	23.181
17.498	23.1925
17.516	23.2077
17.534	23.2252
17.552	23.2424
17.57	23.2587
17.588	23.2721
17.606	23.2823
17.624	23.2883
17.642	23.2901
17.66	23.2878
17.678	23.2818
17.696	23.2725
17.714	23.2609
17.732	23.2477
17.75	23.2337
17.768	23.2199
17.786	23.2067
17.804	23.1949
17.822	23.1845
17.84	23.1758
17.858	23.1683
17.876	23.1621
17.894	23.1562
17.912	23.1501
17.93	23.1427
17.948	23.1337
17.966	23.1218
17.984	23.1067
18.002	23.0879
18.02	23.0654
18.038	23.0389
18.056	23.0092
18.074	22.9763
18.092	22.9419
18.11	22.9062
18.128	22.8712
18.146	22.8376
18.164	22.8074
18.182	22.7813
18.2	22.7606
18.218	22.7461
18.236	22.7383
18.254	22.737
18.272	22.7425
18.29	22.7536
18.308	22.77
18.326	22.7898
18.344	22.8125
18.362	22.8357
18.38	22.8588
18.398	22.8795
18.416	22.8973
18.434	22.9107
18.452	22.9192
18.47	22.9221
18.488	22.9194
18.506	22.911
18.524	22.8977
18.542	22.8795
18.56	22.8578
18.578	22.8327
18.596	22.8055
18.614	22.7764
18.632	22.7468
18.65	22.7166
18.668	22.6867
18.686	22.6568
18.704	22.6273
18.722	22.5982
18.74	22.5689
18.758	22.5395
18.776	22.5092
18.794	22.4781
18.812	22.4454
18.83	22.4111
18.848	22.3751
18.866	22.3373
18.884	22.298
18.902	22.2573
18.92	22.2157
18.938	22.1736
18.956	22.1318
18.974	22.0907
18.992	22.0512
19.01	22.0137
19.028	21.9788
19.046	21.9468
19.064	21.9179
19.082	21.8921
19.1	21.8697
19.118	21.8501
19.136	21.8333
19.154	21.8189
19.172	21.806
19.19	21.7944
19.208	21.7831
19.226	21.7718
19.244	21.7596
19.262	21.7464
19.28	21.7315
19.298	21.715
19.316	21.6964
19.334	21.6758
19.352	21.6534
19.37	21.6291
19.388	21.6034
19.406	21.5762
19.424	21.5485
19.442	21.5201
19.46	21.4917
19.478	21.4635
19.496	21.436
19.514	21.4094
19.532	21.3839
19.55	21.3597
19.568	21.337
19.586	21.316
19.604	21.2966
19.622	21.2792
19.64	21.2636
19.658	21.2501
19.676	21.2388
19.694	21.2295
19.712	21.2225
19.73	21.2175
19.748	21.2148
19.766	21.2142
19.784	21.2156
19.802	21.2189
19.82	21.2242
19.838	21.2311
19.856	21.2392
19.874	21.2486
19.892	21.2588
19.91	21.27
19.928	21.2819
19.946	21.2944
19.964	21.3078
19.982	21.3219
20	21.3372
20.018	21.3534
20.036	21.3711
20.054	21.3908
20.072	21.4126
20.09	21.4373
20.108	21.4649
20.126	21.496
20.144	21.5308
20.162	21.5693
20.18	21.6117
20.198	21.6576
20.216	21.7068
20.234	21.7592
20.252	21.8134
20.27	21.8697
20.288	21.9263
20.306	21.9832
20.324	22.0388
20.342	22.0922
20.36	22.1429
20.378	22.1892
20.396	22.2314
20.414	22.2676
20.432	22.2978
20.45	22.3219
20.468	22.3393
20.486	22.3504
20.504	22.3551
20.522	22.3536
20.54	22.3468
20.558	22.3345
20.576	22.3176
20.594	22.2965
20.612	22.2715
20.63	22.244
20.648	22.2137
20.666	22.1816
20.684	22.1476
20.702	22.112
20.72	22.0753
20.738	22.0372
20.756	21.9977
20.774	21.9566
20.792	21.9139
20.81	21.8697
20.828	21.8237
20.846	21.7754
20.864	21.7251
20.882	21.6723
20.9	21.6173
20.918	21.5598
20.936	21.4998
20.954	21.4375
20.972	21.3733
20.99	21.3069
21.008	21.2391
21.026	21.1698
21.044	21.0993
21.062	21.0283
21.08	20.9566
21.098	20.8849
21.116	20.8132
21.134	20.7415
21.152	20.6702
21.17	20.5992
21.188	20.5285
21.206	20.4581
21.224	20.3882
21.242	20.3188
21.26	20.2498
21.278	20.1812
21.296	20.113
21.314	20.0451
21.332	19.9778
21.35	19.9108
21.368	19.8452
21.386	19.7807
21.404	19.7179
21.422	19.6586
21.44	19.6021
21.458	19.5499
21.476	19.5027
21.494	19.4605
21.512	19.4254
21.53	19.3967
21.548	19.3759
21.566	19.3638
21.584	19.3601
21.602	19.366
21.62	19.3819
21.638	19.4071
21.656	19.4417
21.674	19.4857
21.692	19.5378
21.71	19.5981
21.728	19.6658
21.746	19.739
21.764	19.8184
21.782	19.902
21.8	19.9883
21.818	20.0778
21.836	20.1675
21.854	20.2573
21.872	20.3466
21.89	20.4329
21.908	20.5169
21.926	20.5972
21.944	20.6726
21.962	20.7437
21.98	20.8093
21.998	20.8692
22.016	20.9236
22.034	20.9724
22.052	21.0155
22.07	21.0533
22.088	21.0861
22.106	21.1137
22.124	21.1369
22.142	21.1557
22.16	21.1702
22.178	21.181
22.196	21.1879
22.214	21.1913
22.232	21.1916
22.25	21.1888
22.268	21.1828
22.286	21.1737
22.304	21.1615
22.322	21.1461
22.34	21.1274
22.358	21.1054
22.376	21.0796
22.394	21.0501
22.412	21.0167
22.43	20.9789
22.448	20.937
22.466	20.8905
22.484	20.8387
22.502	20.7821
22.52	20.7198
22.538	20.6514
22.556	20.5773
22.574	20.4969
22.592	20.4102
22.61	20.3172
22.628	20.2182
22.646	20.1127
22.664	20.0015
22.682	19.8852
22.7	19.7633
22.718	19.6368
22.736	19.5069
22.754	19.3726
22.772	19.2359
22.79	19.0979
22.808	18.9579
22.826	18.8177
22.844	18.6786
22.862	18.5399
22.88	18.4031
22.898	18.2692
22.916	18.1375
22.934	18.0093
22.952	17.8852
22.97	17.7646
22.988	17.648
23.006	17.5354
23.024	17.4267
23.042	17.3218
23.06	17.2211
23.078	17.1242
23.096	17.0303
23.114	16.9392
23.132	16.8511
23.15	16.766
23.168	16.6835
23.186	16.6039
23.204	16.5278
23.222	16.4546
23.24	16.385
23.258	16.3208
23.276	16.2613
23.294	16.2071
23.312	16.1604
23.33	16.1206
23.348	16.0883
23.366	16.0656
23.384	16.0524
23.402	16.0486
23.42	16.0559
23.438	16.0748
23.456	16.1047
23.474	16.1452
23.492	16.1971
23.51	16.2596
23.528	16.3296
23.546	16.4071
23.564	16.4924
23.582	16.5805
23.6	16.6703
23.618	16.7633
23.636	16.8538
23.654	16.9393
23.672	17.0224
23.69	17.098
23.708	17.163
23.726	17.2198
23.744	17.2654
23.762	17.2967
23.78	17.3147
23.798	17.3198
23.816	17.3115
23.834	17.2887
23.852	17.2539
23.87	17.2101
23.888	17.1554
23.906	17.0919
23.924	17.0247
23.942	16.9531
23.96	16.8772
23.978	16.8027
23.996	16.7309
24.014	16.6599
24.032	16.5943
24.05	16.5371
24.068	16.4859
24.086	16.4428
24.104	16.4101
24.122	16.3874
24.14	16.3738
24.158	16.3687
24.176	16.3734
24.194	16.3864
24.212	16.4047
24.23	16.4285
24.248	16.4582
24.266	16.4896
24.284	16.5204
24.302	16.553
24.32	16.584
24.338	16.6101
24.356	16.6328
24.374	16.6516
24.392	16.6647
24.41	16.6715
24.428	16.673
24.446	16.6704
24.464	16.664
24.482	16.6532
24.5	16.6398
24.518	16.625
24.536	16.6068
24.554	16.5882
24.572	16.5729
24.59	16.5589
24.608	16.5473
24.626	16.5438
24.644	16.5503
24.662	16.564
24.68	16.5897
24.698	16.6322
24.716	16.6894
24.734	16.7617
24.752	16.8508
24.77	16.9573
24.788	17.0803
24.806	17.2199
24.824	17.3762
24.842	17.5499
24.86	17.7391
24.878	17.9421
24.896	18.1599
24.914	18.392
24.932	18.6353
24.95	18.8891
24.968	19.1554
24.986	19.43
25.004	19.7089
25.022	19.9935
25.04	20.2835
25.058	20.5766
25.076	20.8711
25.094	21.1682
25.112	21.4681
25.13	21.7707
25.148	22.075
25.166	22.3822
25.184	22.6942
25.202	23.0116
25.22	23.333
25.238	23.6608
25.256	23.9975
25.274	24.3421
25.292	24.6948
25.31	25.0572
25.328	25.4309
25.346	25.8151
25.364	26.209
25.382	26.6123
25.4	27.0258
25.418	27.449
25.436	27.8793
25.454	28.3154
25.472	28.7597
25.49	29.2091
25.508	29.6596
25.526	30.111
25.544	30.5652
25.562	31.0175
25.58	31.4635
25.598	31.9064
25.616	32.3446
25.634	32.7734
25.652	33.1896
25.67	33.5965
25.688	33.9922
25.706	34.3743
25.724	34.7429
25.742	35.0988
25.76	35.4405
25.778	35.7665
25.796	36.0766
25.814	36.372
25.832	36.6535
25.85	36.9221
25.868	37.1779
25.886	37.4199
25.904	37.647
25.922	37.8598
25.94	38.0593
25.958	38.2419
25.976	38.4046
25.994	38.552
26.012	38.682
26.03	38.7852
26.048	38.8541
26.066	38.8981
26.084	38.9108
26.102	38.8804
26.12	38.8005
26.138	38.683
26.156	38.5164
26.174	38.2858
26.192	37.9875
26.21	37.632
26.228	37.2076
26.246	36.7021
26.264	36.116
26.282	35.4548
26.3	34.7112
26.318	33.8779
26.336	32.9534
26.354	31.9425
26.372	30.8489
26.39	29.6756
26.408	28.4151
26.426	27.0742
26.444	25.6655
26.462	24.1985
26.48	22.6573
26.498	21.0551
26.516	19.4131
26.534	17.7454
26.552	16.0302
26.57	14.2846
26.588	12.5337
26.606	10.7913
26.624	9.033260
26.642	7.279602
26.66	5.556129
26.678	3.876316
26.696	2.218182
26.714	0.597479
26.732	-0.966112
26.75	-2.461707
26.768	-3.903437
26.786	-5.286035
26.804	-6.602389
26.822	-7.848389
26.84	-9.028925
26.858	-10.1438
26.876	-11.1922
26.894	-12.1727
26.912	-13.0848
26.93	-13.9327
26.948	-14.721
26.966	-15.47
26.984	-16.2032
27.002	-16.8554
27.02	-17.3561
27.028	-17.4954