File: Bakgrunnsmateriale/MATLAB/FTIR/ftir_data/LPE453/Mapping_121/LPE453_t79_cm-1.asc
PE IR       SPECTRUM    SPECTRUM    ASCII       PEDS        1.60
  -1
LPEADC~1.ASC
17/05/16
20:51:01.00
17/05/16
20:51:01.00
tln
$LPE453_t0079$<tbV0>[10.4,5.2,8.0,0.0,27,1,0]
370
64

2002,4.07
MIRTGS : RIGHTBACK : INTERNAL 2
MIR : ON : INTERNAL 2
OPTKBR

0.200000
8
8.000000
FILLER
RATIO
SPECTRUM
UNLOCKED 256

DOUBLE
64
COMBINED
1
0
0

1.000000
RATIO

1
0
TRUE
51149
0
LEFT NOT FITTED RIGHT NOT FITTED 0
NONE
NONE
15600
12
4.427000
51148
TRUE
1 0 8 72 0 0 0 0

15798

#HDR
-1
-1
#GR
CM-1
%T
2.38419e-05
0.0
5000
-1.000000
4631
8
28.5308
-3.973007
#DATA
5000	0.505256
4996	0.293111
4992	0.248193
4988	0.288987
4984	0.232887
4980	0.049567
4976	-0.129652
4972	-0.124454
4968	0.108242
4964	0.207734
4960	0.066375
4956	-0.051832
4952	-0.145125
4948	-0.214743
4944	-0.045180
4940	0.246787
4936	0.336265
4932	0.287103
4928	0.286817
4924	0.327944
4920	0.336170
4916	0.312590
4912	0.341272
4908	0.396013
4904	0.363707
4900	0.209116
4896	0.040602
4892	0.083279
4888	0.197172
4884	0.299549
4880	0.407958
4876	0.206375
4872	-0.082063
4868	-0.021338
4864	0.252103
4860	0.430583
4856	0.241756
4852	-0.067877
4848	-0.037288
4844	0.133514
4840	0.267553
4836	0.304031
4832	0.121450
4828	-0.000762
4824	0.221347
4820	0.506401
4816	0.602912
4812	0.525331
4808	0.414299
4804	0.534415
4800	0.736498
4796	0.769424
4792	0.647473
4788	0.427794
4784	0.313496
4780	0.363516
4776	0.397348
4772	0.322055
4768	0.155735
4764	0.111079
4760	0.141096
4756	0.048494
4752	0.053215
4748	0.238013
4744	0.313663
4740	0.357437
4736	0.606298
4732	0.733590
4728	0.528097
4724	0.334692
4720	0.409173
4716	0.334811
4712	-0.142407
4708	-0.591826
4704	-0.688147
4700	-0.453400
4696	-0.114250
4692	0.272226
4688	0.553989
4684	0.812458
4680	0.607752
4676	0.130271
4672	0.678157
4668	0.861668
4664	0.171542
4660	0.309062
4656	0.103378
4652	-1.414942
4648	-2.077627
4644	-1.111078
4640	0.348687
4636	0.451922
4632	-0.626564
4628	-0.483059
4624	-0.066184
4620	-0.570893
4616	-0.856399
4612	-0.322461
4608	0.571513
4604	0.861191
4600	0.180220
4596	-0.499176
4592	-0.885915
4588	-0.961136
4584	-0.260257
4580	0.353908
4576	0.237870
4572	-0.268173
4568	-0.547385
4564	-0.515222
4560	-0.544404
4556	-0.763082
4552	-1.257085
4548	-1.464009
4544	-1.269435
4540	-1.143717
4536	-1.298737
4532	-1.176595
4528	-0.615596
4524	-0.171327
4520	-0.428199
4516	-0.950956
4512	0.010061
4508	1.269364
4504	1.222991
4500	6.912064
4496	19.5429
4492	21.1031
4488	11.0208
4484	5.224466
4480	1.869249
4476	-0.633978
4472	-1.191926
4468	-1.266121
4464	-1.032280
4460	-0.935673
4456	-0.688362
4452	-0.608944
4448	-0.580787
4444	-0.555014
4440	-0.677084
4436	-0.835514
4432	-0.628829
4428	-0.311851
4424	-0.327944
4420	-0.198650
4416	0.233197
4412	0.351643
4408	0.267457
4404	0.388646
4400	0.564885
4396	0.479507
4392	0.320625
4388	0.324010
4384	0.373458
4380	0.302720
4376	0.282335
4372	0.454616
4368	0.439929
4364	0.294494
4360	0.381684
4356	0.474429
4352	0.358271
4348	0.187468
4344	0.045728
4340	0.018668
4336	0.148272
4332	0.134134
4328	-0.164747
4324	-0.322866
4320	-0.163388
4316	-0.028014
4312	-0.093770
4308	-0.071144
4304	0.149154
4300	0.247144
4296	0.168752
4292	0.117897
4288	0.195050
4284	0.272560
4280	0.170254
4276	-0.017023
4272	-0.084900
4268	-0.115513
4264	-0.066566
4260	0.138401
4256	0.168442
4252	-0.026774
4248	-0.125551
4244	0.012183
4240	0.119614
4236	0.058436
4232	0.104141
4228	0.182318
4224	0.064849
4220	-0.058674
4216	-0.058984
4212	-0.080013
4208	-0.100779
4204	0.034165
4200	0.213193
4196	0.262641
4192	0.326061
4188	0.402164
4184	0.290656
4180	0.220966
4176	0.312900
4172	0.354290
4168	0.279879
4164	0.110745
4160	0.012803
4156	0.101876
4152	0.096702
4148	-0.018286
4144	0.089240
4140	0.274538
4136	0.250101
4132	0.147747
4128	0.121021
4124	0.108766
4120	0.096082
4116	0.081372
4112	0.014877
4108	-0.049591
4104	0.022172
4100	0.267791
4096	0.383877
4092	0.179481
4088	0.072407
4084	0.141000
4080	0.119900
4076	0.117206
4072	0.160717
4068	0.102543
4064	-0.033426
4060	-0.060224
4056	0.022435
4052	0.062155
4048	0.073385
4044	0.122046
4040	0.093483
4036	-0.050163
4032	-0.070047
4028	0.025939
4024	-0.001287
4020	-0.045013
4016	0.023937
4012	0.073957
4008	0.141382
4004	0.156283
4000	0.004720
3996	-0.139188
3992	-0.173568
3988	-0.063896
3984	0.124430
3980	0.197243
3976	0.218796
3972	0.229334
3968	0.223231
3964	0.231742
3960	0.181674
3956	0.076103
3952	0.021052
3948	0.006055
3944	0.012516
3940	0.120830
3936	0.206303
3932	0.147485
3928	0.065350
3924	0.055265
3920	0.083851
3916	0.050473
3912	-0.048899
3908	-0.095129
3904	-0.055885
3900	0.032091
3896	0.121378
3892	0.152969
3888	0.100851
3884	0.037670
3880	0.090599
3876	0.226378
3872	0.281810
3868	0.230813
3864	0.175261
3860	0.162124
3856	0.160050
3852	0.052928
3848	-0.102066
3844	-0.068330
3840	0.064849
3836	0.122284
3832	0.113630
3828	0.083565
3824	0.048255
3820	-0.062847
3816	-0.166893
3812	-0.077676
3808	0.091338
3804	0.121569
3800	0.036811
3796	0.033211
3792	0.083184
3788	0.030517
3784	-0.038218
3780	-0.044870
3776	-0.015473
3772	0.043058
3768	0.108194
3764	0.188970
3760	0.194787
3756	0.136947
3752	0.082969
3748	0.021362
3744	-0.044155
3740	-0.097036
3736	-0.058794
3732	0.021409
3728	0.037646
3724	0.042438
3720	0.008964
3716	-0.018215
3712	0.090575
3708	0.232601
3704	0.220489
3700	0.055432
3696	-0.072097
3692	-0.027012
3688	0.107312
3684	0.139236
3680	0.066471
3676	0.061941
3672	0.135993
3668	0.186324
3664	0.189590
3660	0.159144
3656	0.125861
3652	0.153875
3648	0.192594
3644	0.151467
3640	0.107169
3636	0.085401
3632	0.119662
3628	0.187301
3624	0.154948
3620	0.153231
3616	0.199675
3612	0.125813
3608	0.018048
3604	-0.020265
3600	-0.031280
3596	-0.039076
3592	0.011968
3588	0.123715
3584	0.160169
3580	0.090503
3576	0.070476
3572	0.136971
3568	0.109124
3564	0.014996
3560	0.049209
3556	0.088620
3552	-0.014901
3548	-0.091838
3544	-0.044631
3540	-0.025177
3536	0.002408
3532	0.092053
3528	0.097846
3524	0.045561
3520	0.014734
3516	0.001430
3512	0.012803
3508	0.011110
3504	0.005125
3500	0.064826
3496	0.137448
3492	0.147604
3488	0.104808
3484	0.026440
3480	-0.041818
3476	-0.034379
3472	0.040221
3468	0.060296
3464	-0.011062
3460	-0.032925
3456	0.080132
3452	0.168609
3448	0.151586
3444	0.138998
3440	0.122928
3436	0.088119
3432	0.031208
3428	-0.029444
3424	0.002908
3420	0.053286
3416	0.053620
3412	0.069737
3408	0.048732
3404	-0.046634
3400	-0.077867
3396	0.010108
3392	0.124120
3388	0.178360
3384	0.150966
3380	0.081515
3376	0.021910
3372	0.033450
3368	0.097036
3364	0.119876
3360	0.122928
3356	0.159811
3352	0.174021
3348	0.100207
3344	0.001668
3340	-0.043225
3336	-0.075006
3332	-0.092983
3328	-0.091600
3324	-0.119972
3320	-0.103759
3316	0.008821
3312	0.144052
3308	0.218534
3304	0.200152
3300	0.166535
3296	0.138401
3292	0.058984
3288	-0.027132
3284	-0.058841
3280	-0.023341
3276	0.009465
3272	-0.011110
3268	0.019741
3264	0.096821
3260	0.119352
3256	0.084877
3252	0.075459
3248	0.129985
3244	0.121545
3240	0.033164
3236	-0.031447
3232	-0.028610
3228	-0.000905
3224	-0.065779
3220	-0.154232
3216	-0.105333
3212	0.002431
3208	0.014448
3204	0.019884
3200	0.143814
3196	0.229883
3192	0.158333
3188	0.063800
3184	0.022768
3180	0.004649
3176	0.020956
3172	0.042915
3168	0.048160
3164	0.066733
3160	0.079727
3156	0.063371
3152	0.003194
3148	-0.018811
3144	0.028204
3140	0.010704
3136	-0.001311
3132	0.075602
3128	0.121855
3124	0.126838
3120	0.086069
3116	0.035715
3112	0.040292
3108	0.020647
3104	-0.016427
3100	-0.034403
3096	-0.024962
3092	-0.014567
3088	-0.056767
3084	-0.052976
3080	0.029897
3076	0.100255
3072	0.143814
3068	0.140023
3064	0.035667
3060	-0.081324
3056	-0.058770
3052	0.023937
3048	0.030899
3044	-0.002479
3040	0.014495
3036	0.087285
3032	0.124597
3028	0.088405
3024	0.067114
3020	0.154590
3016	0.213646
3012	0.108027
3008	0.017690
3004	0.036597
3000	0.068950
2996	0.089001
2992	0.082397
2988	0.033593
2984	0.024962
2980	0.080657
2976	0.105500
2972	0.115346
2968	0.107336
2964	0.037550
2960	0.026845
2956	0.091767
2952	0.099515
2948	0.074124
2944	0.068116
2940	0.079941
2936	0.104761
2932	0.078058
2928	0.005578
2924	-0.079131
2920	-0.098514
2916	0.003910
2912	0.082492
2908	0.007700
2904	-0.116252
2900	-0.137352
2896	-0.053572
2892	0.043988
2888	0.050616
2884	0.008535
2880	0.043606
2876	0.079560
2872	0.047421
2868	0.057911
2864	0.116419
2860	0.123691
2856	0.073456
2852	0.059318
2848	0.084233
2844	0.082254
2840	0.077819
2836	0.056838
2832	0.006151
2828	-0.013566
2824	0.008964
2820	0.031709
2816	0.003051
2812	-0.026822
2808	0.039815
2804	0.120806
2800	0.110983
2796	0.072574
2792	0.065469
2788	0.069546
2784	0.043559
2780	0.013756
2776	0.050830
2772	0.081968
2768	0.043511
2764	0.018787
2760	-0.027465
2756	-0.108695
2752	-0.104665
2748	-0.036048
2744	0.000977
2740	0.001883
2736	0.033426
2732	0.093817
2728	0.061154
2724	0.000000
2720	0.046133
2716	0.078463
2712	0.024890
2708	-0.040030
2704	-0.041508
2700	0.013637
2696	0.095844
2692	0.113320
2688	0.057697
2684	0.055837
2680	0.092840
2676	0.064897
2672	-0.005149
2668	-0.048112
2664	-0.058197
2660	-0.007581
2656	0.062727
2652	0.067114
2648	0.010013
2644	-0.080943
2640	-0.119209
2636	-0.021457
2632	0.105595
2628	0.126886
2624	0.075483
2620	0.037789
2616	0.030589
2612	0.041437
2608	0.069713
2604	0.074601
2600	0.051188
2596	0.054311
2592	0.096058
2588	0.136661
2584	0.140237
2580	0.146961
2576	0.144958
2572	0.082874
2568	0.030159
2564	0.052928
2560	0.085639
2556	0.077271
2552	0.080227
2548	0.049686
2544	-0.044965
2540	-0.087690
2536	-0.032734
2532	0.015830
2528	-0.003600
2524	0.006508
2520	0.054430
2516	0.081825
2512	0.077390
2508	0.029587
2504	-0.049161
2500	-0.140357
2496	-0.117373
2492	0.015044
2488	0.060439
2484	0.023770
2480	-0.022649
2476	-0.031876
2472	0.007057
2468	0.040578
2464	0.044512
2460	0.008749
2456	0.000977
2452	0.024104
2448	-0.007653
2444	-0.051856
2440	-0.030708
2436	0.028061
2432	0.117540
2428	0.167393
2424	-0.019145
2420	-0.199818
2416	-0.076484
2412	0.025749
2408	-0.015974
2404	-0.016212
2400	-0.027132
2396	-0.054121
2392	-0.051307
2388	-0.027918
2384	0.033020
2380	0.097370
2376	0.116801
2372	0.084352
2368	0.020360
2364	-0.005865
2360	0.034236
2356	0.069880
2352	0.082635
2348	0.093531
2344	0.075387
2340	0.059103
2336	0.070428
2332	0.057339
2328	0.029301
2324	0.019812
2320	0.021672
2316	0.030946
2312	0.017356
2308	-0.029587
2304	-0.044250
2300	-0.010466
2296	0.010013
2292	0.050306
2288	0.172328
2284	0.271654
2280	0.243520
2276	0.177931
2272	0.170516
2268	0.188326
2264	0.234103
2260	0.337481
2256	0.425982
2252	0.432825
2248	0.411987
2244	0.449275
2240	0.549650
2236	0.635695
2232	0.674223
2228	0.709486
2224	0.786066
2220	0.903773
2216	1.036548
2212	1.184582
2208	1.306080
2204	1.357412
2200	1.423525
2196	1.608180
2192	1.866531
2188	2.086591
2184	2.245044
2180	2.413964
2176	2.632522
2172	2.858924
2168	3.099131
2164	3.380465
2160	3.633213
2156	3.855109
2152	4.144763
2148	4.444098
2144	4.686760
2140	4.979133
2136	5.381202
2132	5.787110
2128	6.083297
2124	6.356382
2120	6.710076
2116	7.120561
2112	7.505536
2108	7.825899
2104	8.186411
2100	8.606839
2096	9.015488
2092	9.404397
2088	9.780478
2084	10.1545
2080	10.5893
2076	11.0637
2072	11.4465
2068	11.8263
2064	12.3109
2060	12.7887
2056	13.199
2052	13.578
2048	13.9475
2044	14.2951
2040	14.6518
2036	15.0537
2032	15.429
2028	15.7617
2024	16.1411
2020	16.5713
2016	16.9873
2012	17.3638
2008	17.7124
2004	18.0357
2000	18.3228
1996	18.597
1992	18.8778
1988	19.1774
1984	19.5228
1980	19.9053
1976	20.2615
1972	20.566
1968	20.8692
1964	21.1434
1960	21.3335
1956	21.5157
1952	21.7748
1948	22.043
1944	22.2836
1940	22.5653
1936	22.8858
1932	23.2004
1928	23.475
1924	23.6549
1920	23.7406
1916	23.8267
1912	23.9869
1908	24.1988
1904	24.3855
1900	24.5277
1896	24.6919
1892	24.9112
1888	25.1517
1884	25.357
1880	25.4576
1876	25.5108
1872	25.6152
1868	25.6964
1864	25.738
1860	25.8545
1856	26.0549
1852	26.2914
1848	26.4862
1844	26.5651
1840	26.5885
1836	26.624
1832	26.6675
1828	26.7119
1824	26.7792
1820	26.8498
1816	26.8952
1812	26.9834
1808	27.1433
1804	27.2995
1800	27.4077
1796	27.472
1792	27.4702
1788	27.4323
1784	27.4408
1780	27.4794
1776	27.5191
1772	27.5675
1768	27.6429
1764	27.7705
1760	27.9029
1756	28.0072
1752	28.0661
1748	28.0363
1744	27.9245
1740	27.8199
1736	27.804
1732	27.8652
1728	27.9665
1724	28.0711
1720	28.2119
1716	28.3571
1712	28.3714
1708	28.2968
1704	28.2182
1700	28.1815
1696	28.1848
1692	28.1667
1688	28.1794
1684	28.2357
1680	28.2752
1676	28.2832
1672	28.3105
1668	28.4173
1664	28.4973
1660	28.4372
1656	28.3485
1652	28.3306
1648	28.3116
1644	28.3051
1640	28.3448
1636	28.369
1632	28.3945
1628	28.4367
1624	28.474
1620	28.4687
1616	28.4155
1612	28.3384
1608	28.244
1604	28.1914
1600	28.1695
1596	28.1645
1592	28.2451
1588	28.3609
1584	28.4037
1580	28.4345
1576	28.4502
1572	28.3476
1568	28.2274
1564	28.1778
1560	28.1334
1556	28.1071
1552	28.1487
1548	28.223
1544	28.3399
1540	28.4924
1536	28.5195
1532	28.4159
1528	28.3764
1524	28.3935
1520	28.3414
1516	28.2265
1512	28.1487
1508	28.1796
1504	28.2606
1500	28.3359
1496	28.3956
1492	28.4107
1488	28.3939
1484	28.3417
1480	28.213
1476	28.077
1472	28.0042
1468	27.9668
1464	27.9751
1460	28.0205
1456	28.0794
1452	28.1555
1448	28.1885
1444	28.1812
1440	28.1888
1436	28.1373
1432	28.01
1428	27.8931
1424	27.8105
1420	27.8244
1416	27.9554
1412	28.0784
1408	28.1487
1404	28.2065
1400	28.2432
1396	28.2212
1392	28.13
1388	27.9956
1384	27.8659
1380	27.7802
1376	27.717
1372	27.7134
1368	27.8538
1364	28.0479
1360	28.1481
1356	28.1441
1352	28.0848
1348	27.9946
1344	27.876
1340	27.7287
1336	27.606
1332	27.5682
1328	27.5632
1324	27.5893
1320	27.7063
1316	27.856
1312	27.935
1308	27.8981
1304	27.8274
1300	27.7324
1296	27.5388
1292	27.3706
1288	27.3237
1284	27.3527
1280	27.4081
1276	27.4927
1272	27.6576
1268	27.7898
1264	27.7605
1260	27.6433
1256	27.5306
1252	27.4187
1248	27.353
1244	27.3561
1240	27.2854
1236	27.1978
1232	27.2889
1228	27.4531
1224	27.5464
1220	27.6258
1216	27.6256
1212	27.436
1208	27.2197
1204	27.1075
1200	27.0293
1196	26.9618
1192	26.9245
1188	26.9953
1184	27.2209
1180	27.4615
1176	27.5685
1172	27.5244
1168	27.3773
1164	27.2221
1160	27.075
1156	26.878
1152	26.6671
1148	26.5908
1144	26.7168
1140	26.8924
1136	27.0125
1132	27.1604
1128	27.2581
1124	27.1908
1120	27.0639
1116	26.8594
1112	26.595
1108	26.4292
1104	26.3856
1100	26.4269
1096	26.4935
1092	26.5388
1088	26.6124
1084	26.7454
1080	26.8573
1076	26.8433
1072	26.6403
1068	26.3861
1064	26.2267
1060	26.1227
1056	26.0942
1052	26.145
1048	26.2144
1044	26.3088
1040	26.4058
1036	26.4214
1032	26.2868
1028	26.0629
1024	25.9738
1020	25.9298
1016	25.7858
1012	25.7449
1008	25.7454
1004	25.7485
1000	25.8219
996	 25.8706
992	 25.936
988	 25.964
984	 25.9035
980	 25.8172
976	 25.5881
972	 25.2676
968	 25.1558
964	 25.2414
960	 25.3018
956	 25.3336
952	 25.4266
948	 25.5016
944	 25.4573
940	 25.3279
936	 25.1563
932	 24.9614
928	 24.7827
924	 24.6675
920	 24.6899
916	 24.8063
912	 24.8613
908	 24.8822
904	 24.8877
900	 24.8118
896	 24.7408
892	 24.7486
888	 24.7279
884	 24.5825
880	 24.3721
876	 24.1091
872	 23.8399
868	 23.7753
864	 23.9147
860	 24.074
856	 24.1999
852	 24.2639
848	 24.1876
844	 23.9656
840	 23.6873
836	 23.4526
832	 23.3076
828	 23.2473
824	 23.2407
820	 23.306
816	 23.42
812	 23.516
808	 23.5957
804	 23.5552
800	 23.3598
796	 23.1479
792	 22.9221
788	 22.75
784	 22.6933
780	 22.5942
776	 22.5045
772	 22.4678
768	 22.4176
764	 22.5693
760	 22.7972
756	 22.8246
752	 22.7417
748	 22.3987
744	 21.8793
740	 21.688
736	 21.6695
732	 21.515
728	 21.5497
724	 21.7418
720	 21.7185
716	 21.6086
712	 21.6094
708	 21.5574
704	 21.3235
700	 21.0997
696	 20.9079
692	 20.623
688	 20.4757
684	 20.5343
680	 20.6344
676	 20.8282
672	 20.8866
668	 20.7135
664	 20.5779
660	 20.3905
656	 20.1561
652	 19.9496
648	 19.7205
644	 19.6016
640	 19.5277
636	 19.4036
632	 19.4074
628	 19.4873
624	 19.3177
620	 18.9476
616	 18.8713
612	 19.0349
608	 18.9237
604	 18.6357
600	 18.5244
596	 18.5923
592	 18.7504
588	 18.8331
584	 18.7569
580	 18.6733
576	 18.6188
572	 18.5039
568	 18.2626
564	 18.0922
560	 17.9701
556	 17.5688
552	 17.1343
548	 17.0522
544	 17.2695
540	 17.3419
536	 17.1292
532	 16.9869
528	 16.9981
524	 16.8741
520	 16.4724
516	 16.2836
512	 16.4711
508	 16.3828
504	 16.0251
500	 15.8486
496	 15.6881
492	 15.7929
488	 16.2142
484	 16.0393
480	 15.6453
476	 15.6282
472	 15.1736
468	 14.4911
464	 14.3665
460	 14.4561
456	 14.5392
452	 14.625
448	 14.6787
444	 14.6137
440	 14.093
436	 13.9963
432	 14.0779
428	 13.1473
424	 12.889
420	 14.3958
416	 14.7756
412	 11.4619
408	 8.341622
404	 8.888196
400	 11.1917
396	 14.1449
392	 11.8005
388	 2.210354
384	 -3.973007
380	 1.404738
376	 12.2011
372	 16.6807
370	 15.5