File: Bakgrunnsmateriale/MATLAB/FTIR/ftir_data/LPE453/Mapping_121/LPE453_t99.asc
PE IR       SPECTRUM    SPECTRUM    ASCII       PEDS        1.60
  -1
LPE7BD~1.ASC
17/05/16
22:29:43.00
17/05/16
22:30:09.00
tln
$LPE453_t0099$<tbV0>[-13.0,7.8,8.0,0.0,27,1,0]
27.028
64

2002,4.07
MIRTGS : RIGHTBACK : INTERNAL 2
MIR : ON : INTERNAL 2
OPTKBR

0.200000
8
8.000000
FILLER
RATIO
SPECTRUM
UNLOCKED 256

DOUBLE
64
COMBINED
1
0
0

0.002000
RATIO

1
0
TRUE
51149
0
LEFT NOT FITTED RIGHT NOT FITTED 0
NONE
NONE
15600
12
4.427000
51148
TRUE
1 0 8 72 0 0 0 0

15798

#HDR
-1
-1
#GR
µM
%T
2.38419e-05
0.0
2.000000
0.002000
12515
8
34.873
-10.1551
#DATA
2.000000	 0.485372
2.018000	 -0.173083
2.036000	 0.498933
2.054000	 -0.038047
2.072000	 0.598569
2.090000	 0.317623
2.108000	 0.533998
2.126000	 -0.392818
2.144000	 0.212208
2.162000	 2.236732
2.180000	 -0.483037
2.198000	 -0.969664
2.216000	 3.951400
2.234000	 0.414139
2.252000	 -1.298300
2.270000	 0.594123
2.288000	 0.757812
2.306000	 0.293681
2.324000	 -0.078044
2.342000	 0.404762
2.360000	 0.079056
2.378000	 0.315462
2.396000	 0.584741
2.414000	 0.380078
2.432000	 0.173259
2.450000	 -0.108792
2.468000	 0.056528
2.486000	 0.011728
2.504000	 0.235465
2.522000	 0.035630
2.540000	 0.369264
2.558000	 0.236363
2.576000	 0.162194
2.594000	 -0.097772
2.612000	 0.105057
2.630000	 -0.047559
2.648000	 0.121959
2.666000	 -0.070318
2.684000	 -0.027275
2.702000	 -0.023397
2.720000	 -0.057729
2.738000	 0.034669
2.756000	 -0.004922
2.774000	 -0.085478
2.792000	 0.094236
2.810000	 0.016940
2.828000	 0.006191
2.846000	 0.080261
2.864000	 0.066832
2.882000	 0.035714
2.900000	 0.002904
2.918000	 -0.010908
2.936000	 0.036762
2.954000	 -0.076819
2.972000	 0.012221
2.990000	 -0.004863
3.008000	 0.137902
3.026000	 -0.152796
3.044000	 0.098615
3.062000	 0.052760
3.080000	 -0.012250
3.098000	 -0.019504
3.116000	 -0.027440
3.134000	 -0.044147
3.152000	 0.070612
3.170000	 0.056288
3.188000	 0.160036
3.206000	 0.176779
3.224000	 0.073139
3.242000	 0.146796
3.260000	 0.119086
3.278000	 0.043314
3.296000	 -0.248728
3.314000	 -0.046386
3.332000	 -0.049386
3.350000	 -0.015576
3.368000	 0.111970
3.386000	 0.134269
3.404000	 0.066760
3.422000	 0.014534
3.440000	 0.030193
3.458000	 0.058562
3.476000	 0.046240
3.494000	 0.054991
3.512000	 0.102125
3.530000	 0.034509
3.548000	 0.013241
3.566000	 0.058346
3.584000	 -0.016145
3.602000	 0.047178
3.620000	 0.052834
3.638000	 0.106105
3.656000	 -0.046466
3.674000	 0.133274
3.692000	 0.075800
3.710000	 0.084507
3.728000	 0.025969
3.746000	 0.112292
3.764000	 0.044652
3.782000	 -0.011091
3.800000	 -0.032607
3.818000	 0.056767
3.836000	 0.160738
3.854000	 0.041400
3.872000	 0.034649
3.890000	 -0.012643
3.908000	 0.058184
3.926000	 0.086948
3.944000	 0.045740
3.962000	 0.023567
3.980000	 0.091894
3.998000	 -0.022918
4.016000	 0.011562
4.034000	 -0.025194
4.052000	 0.121447
4.070000	 -0.018911
4.088000	 0.045237
4.106000	 0.024359
4.124000	 0.023614
4.141999	 0.103899
4.160000	 -0.005274
4.178000	 -0.055904
4.196000	 0.009712
4.214000	 0.135468
4.232000	 0.127907
4.250000	 0.248507
4.268000	 0.202404
4.286000	 0.199452
4.304000	 0.320657
4.322000	 0.345207
4.340000	 0.394384
4.358000	 0.485710
4.375999	 0.672708
4.394000	 0.789834
4.412000	 1.039803
4.430000	 1.251515
4.448000	 1.508551
4.466000	 1.763734
4.484000	 2.182959
4.502000	 2.595936
4.520000	 3.040758
4.538000	 3.555397
4.556000	 4.058796
4.574000	 4.606182
4.592000	 5.336578
4.609999	 6.046274
4.628000	 6.823176
4.646000	 7.642664
4.664000	 8.330401
4.682000	 9.321026
4.700000	 10.2502
4.718000	 11.2878
4.736000	 12.1055
4.754000	 13.0193
4.772000	 13.9371
4.790000	 14.8085
4.808000	 15.7934
4.826000	 16.6359
4.843999	 17.3877
4.862000	 18.2193
4.880000	 19.0338
4.898000	 19.8819
4.916000	 20.5687
4.934000	 21.2491
4.952000	 21.8809
4.970000	 22.5548
4.988000	 23.2443
5.006000	 23.8481
5.024000	 24.3138
5.042000	 24.8654
5.060000	 25.3985
5.077999	 25.8696
5.096000	 26.3555
5.114000	 26.7463
5.132000	 27.1792
5.150000	 27.5033
5.168000	 27.7815
5.186000	 28.1556
5.204000	 28.5709
5.222000	 28.906
5.240000	 29.189
5.258000	 29.4289
5.276000	 29.7221
5.294000	 29.9266
5.312000	 30.0825
5.330000	 30.268
5.348000	 30.539
5.366000	 30.821
5.384000	 31.0116
5.402000	 31.1367
5.420000	 31.2201
5.438000	 31.3661
5.456000	 31.5453
5.474000	 31.7041
5.492000	 31.8187
5.510000	 31.9689
5.528000	 32.1188
5.546000	 32.2776
5.564000	 32.3734
5.582000	 32.4139
5.600000	 32.5185
5.618000	 32.5829
5.636000	 32.6755
5.654000	 32.7592
5.672000	 32.8858
5.690000	 33.0029
5.708000	 33.0854
5.726000	 33.1592
5.744000	 33.2084
5.762000	 33.2234
5.780000	 33.3322
5.798000	 33.4622
5.816000	 33.536
5.834000	 33.5617
5.852000	 33.5428
5.870000	 33.5965
5.888000	 33.6358
5.906000	 33.713
5.923999	 33.7535
5.942000	 33.8228
5.960000	 33.83
5.978000	 33.7801
5.996000	 33.809
6.014000	 33.9108
6.032000	 33.9934
6.050000	 34.0043
6.068000	 33.9838
6.086000	 33.9925
6.104000	 34.029
6.122000	 34.0781
6.140000	 34.0917
6.158000	 34.1573
6.176000	 34.1975
6.194000	 34.2147
6.212000	 34.2369
6.230000	 34.2576
6.248000	 34.2555
6.266000	 34.2515
6.284000	 34.3296
6.302000	 34.439
6.320000	 34.4697
6.338000	 34.4468
6.356000	 34.432
6.374000	 34.4593
6.392000	 34.5174
6.410000	 34.5845
6.428000	 34.6321
6.446000	 34.6484
6.464000	 34.6109
6.482000	 34.5681
6.500000	 34.5297
6.518000	 34.5149
6.536000	 34.5232
6.554000	 34.5331
6.572000	 34.5368
6.590000	 34.5594
6.608000	 34.6636
6.626000	 34.7435
6.644000	 34.736
6.662000	 34.7203
6.680000	 34.7345
6.698000	 34.7065
6.716000	 34.6561
6.734000	 34.6857
6.752000	 34.7262
6.770000	 34.7
6.788000	 34.6587
6.806000	 34.6142
6.824000	 34.5697
6.842000	 34.6149
6.860000	 34.7454
6.878000	 34.8473
6.896000	 34.8726
6.914000	 34.8457
6.932000	 34.8015
6.950000	 34.7601
6.968000	 34.7079
6.986000	 34.6734
7.004000	 34.7039
7.022000	 34.7414
7.040000	 34.7205
7.058000	 34.697
7.076000	 34.7264
7.094000	 34.7836
7.112000	 34.8172
7.130000	 34.8065
7.148000	 34.7978
7.166000	 34.8137
7.184000	 34.8083
7.202000	 34.7837
7.220000	 34.7879
7.238000	 34.8236
7.256000	 34.8417
7.274000	 34.8027
7.292000	 34.7324
7.310000	 34.6823
7.328000	 34.6685
7.346000	 34.678
7.364000	 34.6921
7.382000	 34.7078
7.400000	 34.7123
7.418000	 34.6618
7.436000	 34.5821
7.454000	 34.5825
7.472000	 34.6741
7.490000	 34.7471
7.508000	 34.7625
7.526000	 34.7651
7.544000	 34.7544
7.562000	 34.7212
7.580000	 34.7062
7.598000	 34.7222
7.616000	 34.733
7.634000	 34.733
7.652000	 34.7414
7.670000	 34.7458
7.688000	 34.7234
7.706000	 34.6826
7.724000	 34.6425
7.742000	 34.6097
7.760000	 34.5899
7.778000	 34.588
7.796000	 34.5955
7.814000	 34.6031
7.832000	 34.6165
7.850000	 34.6442
7.868000	 34.6798
7.886000	 34.7025
7.904000	 34.6912
7.922000	 34.6407
7.940000	 34.5712
7.958000	 34.5125
7.976000	 34.4823
7.994000	 34.4783
8.012000	 34.478
8.030000	 34.4495
8.048000	 34.3835
8.065999	 34.3163
8.084000	 34.2994
8.102000	 34.3454
8.120000	 34.4171
8.138000	 34.4642
8.155999	 34.4601
8.173999	 34.4196
8.192000	 34.3884
8.210000	 34.3998
8.228000	 34.4391
8.246000	 34.4623
8.263999	 34.4493
8.282000	 34.4169
8.300000	 34.3883
8.318000	 34.3671
8.336000	 34.3421
8.353999	 34.3068
8.372000	 34.2638
8.390000	 34.2194
8.408000	 34.1831
8.426000	 34.1654
8.443999	 34.1591
8.462000	 34.1473
8.480000	 34.1262
8.498000	 34.0989
8.516000	 34.0634
8.533999	 34.0209
8.552000	 33.9858
8.570000	 33.9847
8.588000	 34.0372
8.606000	 34.1285
8.624000	 34.2116
8.641999	 34.2487
8.660000	 34.2478
8.678000	 34.2437
8.696000	 34.2489
8.714000	 34.2413
8.731999	 34.2021
8.750000	 34.1446
8.768000	 34.0954
8.786000	 34.065
8.804000	 34.0475
8.821999	 34.039
8.840000	 34.0357
8.858000	 34.022
8.876000	 33.978
8.894000	 33.9014
8.911999	 33.8151
8.930000	 33.7478
8.948000	 33.7124
8.966000	 33.706
8.984000	 33.7239
9.001999	 33.7647
9.020000	 33.819
9.038000	 33.8613
9.056000	 33.8625
9.074000	 33.8152
9.092000	 33.7432
9.109999	 33.6829
9.128000	 33.6536
9.146000	 33.6468
9.164000	 33.6452
9.182000	 33.6465
9.199999	 33.6628
9.218000	 33.6965
9.236000	 33.7255
9.254000	 33.7173
9.272000	 33.6611
9.289999	 33.5807
9.308000	 33.5129
9.326000	 33.4749
9.344000	 33.4548
9.362000	 33.4297
9.379999	 33.3857
9.398000	 33.3249
9.416000	 33.258
9.434000	 33.1986
9.452000	 33.1604
9.469999	 33.1485
9.488000	 33.1515
9.506000	 33.1492
9.524000	 33.1311
9.542000	 33.1081
9.560000	 33.1025
9.577999	 33.1255
9.596000	 33.1674
9.614000	 33.2071
9.632000	 33.2286
9.650000	 33.2281
9.667999	 33.2088
9.686000	 33.1744
9.704000	 33.1297
9.722000	 33.0824
9.740000	 33.041
9.757999	 33.0103
9.776000	 32.9886
9.794000	 32.9711
9.812000	 32.9547
9.830000	 32.939
9.847999	 32.9229
9.866000	 32.9022
9.884000	 32.8719
9.902000	 32.8309
9.920000	 32.7841
9.937999	 32.7385
9.956000	 32.6973
9.974000	 32.6585
9.992000	 32.6191
10.01	32.5805
10.028	32.5505
10.046	32.5363
10.064	32.5373
10.082	32.5452
10.1	32.5531
10.118	32.5652
10.136	32.5951
10.154	32.6523
10.172	32.7291
10.19	32.7983
10.208	32.8292
10.226	32.8082
10.244	32.7469
10.262	32.6739
10.28	32.6136
10.298	32.5752
10.316	32.5522
10.334	32.5317
10.352	32.5038
10.37	32.464
10.388	32.4112
10.406	32.346
10.424	32.2724
10.442	32.1992
10.46	32.1375
10.478	32.0956
10.496	32.0743
10.514	32.0681
10.532	32.0683
10.55	32.0684
10.568	32.0646
10.586	32.0552
10.604	32.0395
10.622	32.0182
10.64	31.9929
10.658	31.9664
10.676	31.9393
10.694	31.9089
10.712	31.8716
10.73	31.8274
10.748	31.7834
10.766	31.752
10.784	31.7433
10.802	31.7579
10.82	31.7855
10.838	31.809
10.856	31.8148
10.874	31.7987
10.892	31.7672
10.91	31.7321
10.928	31.7024
10.946	31.6815
10.964	31.6679
10.982	31.6585
11	31.6518
11.018	31.647
11.036	31.6413
11.054	31.6273
11.072	31.5962
11.09	31.5411
11.108	31.4633
11.126	31.3732
11.144	31.2853
11.162	31.2139
11.18	31.1662
11.198	31.1404
11.216	31.1287
11.234	31.1202
11.252	31.1063
11.27	31.0831
11.288	31.0525
11.306	31.0195
11.324	30.9901
11.342	30.9674
11.36	30.9511
11.378	30.9372
11.396	30.9209
11.414	30.899
11.432	30.8723
11.45	30.8454
11.468	30.825
11.486	30.817
11.504	30.8232
11.522	30.8412
11.54	30.8662
11.558	30.8923
11.576	30.9149
11.594	30.932
11.612	30.9437
11.63	30.9516
11.648	30.9579
11.666	30.9641
11.684	30.9704
11.702	30.9756
11.72	30.9772
11.738	30.972
11.756	30.9571
11.774	30.9304
11.792	30.891
11.81	30.8397
11.828	30.7788
11.846	30.7117
11.864	30.6423
11.882	30.5742
11.9	30.5101
11.918	30.4517
11.936	30.3994
11.954	30.3531
11.972	30.3119
11.99	30.2747
12.008	30.2406
12.026	30.2085
12.044	30.1762
12.062	30.1409
12.08	30.099
12.098	30.0482
12.116	29.9885
12.134	29.9242
12.152	29.8632
12.17	29.8148
12.188	29.7874
12.206	29.7859
12.224	29.8098
12.242	29.8536
12.26	29.909
12.278	29.9664
12.296	30.0173
12.314	30.056
12.332	30.0799
12.35	30.0892
12.368	30.086
12.386	30.0739
12.404	30.0562
12.422	30.0363
12.44	30.0169
12.458	30.0005
12.476	29.9896
12.494	29.986
12.512	29.9906
12.53	30.0024
12.548	30.0188
12.566	30.0361
12.584	30.0501
12.602	30.0577
12.62	30.0571
12.638	30.0486
12.656	30.0334
12.674	30.0132
12.692	29.9891
12.71	29.962
12.728	29.9324
12.746	29.9005
12.764	29.867
12.782	29.8331
12.8	29.8002
12.818	29.7693
12.836	29.7402
12.854	29.7112
12.872	29.6796
12.89	29.6425
12.908	29.5973
12.926	29.5432
12.944	29.4813
12.962	29.4144
12.98	29.3464
12.998	29.281
13.016	29.2209
13.034	29.1673
13.052	29.1194
13.07	29.0754
13.088	29.0327
13.106	28.9887
13.124	28.9417
13.142	28.8913
13.16	28.8389
13.178	28.788
13.196	28.7429
13.214	28.7096
13.232	28.693
13.25	28.6977
13.268	28.7257
13.286	28.7764
13.304	28.8461
13.322	28.9282
13.34	29.0136
13.358	29.0925
13.376	29.1557
13.394	29.196
13.412	29.2093
13.43	29.1952
13.448	29.1573
13.466	29.1014
13.484	29.0351
13.502	28.966
13.52	28.9007
13.538	28.8437
13.556	28.7975
13.574	28.7624
13.592	28.7373
13.61	28.7204
13.628	28.7104
13.646	28.706
13.664	28.7069
13.682	28.7125
13.7	28.7221
13.718	28.734
13.736	28.7455
13.754	28.7528
13.772	28.7516
13.79	28.738
13.808	28.7094
13.826	28.6653
13.844	28.6072
13.862	28.5386
13.88	28.4642
13.898	28.3894
13.916	28.3187
13.934	28.2554
13.952	28.2009
13.97	28.1548
13.988	28.1151
14.006	28.079
14.024	28.0434
14.042	28.0061
14.06	27.9659
14.078	27.9233
14.096	27.8797
14.114	27.8377
14.132	27.8001
14.15	27.7693
14.168	27.747
14.186	27.7336
14.204	27.7283
14.222	27.7294
14.24	27.7342
14.258	27.7401
14.276	27.7446
14.294	27.7462
14.312	27.7441
14.33	27.7387
14.348	27.7316
14.366	27.7247
14.384	27.7206
14.402	27.7215
14.42	27.7292
14.438	27.7444
14.456	27.7666
14.474	27.7946
14.492	27.8264
14.51	27.8592
14.528	27.8899
14.546	27.916
14.564	27.9352
14.582	27.9464
14.6	27.9491
14.618	27.944
14.636	27.9331
14.654	27.919
14.672	27.9046
14.69	27.8928
14.708	27.8859
14.726	27.8856
14.744	27.8923
14.762	27.9055
14.78	27.9234
14.798	27.944
14.816	27.9649
14.834	27.9834
14.852	27.9981
14.87	28.0076
14.888	28.0115
14.906	28.0099
14.924	28.003
14.942	27.9914
14.96	27.9749
14.978	27.9527
14.996	27.9237
15.014	27.8861
15.032	27.8381
15.05	27.7784
15.068	27.7064
15.086	27.6226
15.104	27.5285
15.122	27.4276
15.14	27.3239
15.158	27.2217
15.176	27.1249
15.194	27.0373
15.212	26.9616
15.23	26.8985
15.248	26.8482
15.266	26.8097
15.284	26.7809
15.302	26.7592
15.32	26.7424
15.338	26.7284
15.356	26.7161
15.374	26.7043
15.392	26.6933
15.41	26.6836
15.428	26.6756
15.446	26.6709
15.464	26.6701
15.482	26.6737
15.5	26.6822
15.518	26.6951
15.536	26.7119
15.554	26.732
15.572	26.7543
15.59	26.7777
15.608	26.8016
15.626	26.8254
15.644	26.8485
15.662	26.8709
15.68	26.8926
15.698	26.9137
15.716	26.9345
15.734	26.9552
15.752	26.9758
15.77	26.9963
15.788	27.0162
15.806	27.0345
15.824	27.0504
15.842	27.0628
15.86	27.0703
15.878	27.0719
15.896	27.0668
15.914	27.0539
15.932	27.0332
15.95	27.005
15.968	26.9699
15.986	26.9293
16.004	26.8844
16.022	26.8368
16.04	26.7884
16.058	26.741
16.076	26.6959
16.094	26.655
16.112	26.6194
16.13	26.5899
16.148	26.5671
16.166	26.5511
16.184	26.5418
16.202	26.539
16.22	26.5418
16.238	26.5491
16.256	26.5601
16.274	26.573
16.292	26.5866
16.31	26.5996
16.328	26.6102
16.346	26.6173
16.364	26.6199
16.382	26.6168
16.4	26.6076
16.418	26.5923
16.436	26.571
16.454	26.5444
16.472	26.5129
16.49	26.4779
16.508	26.441
16.526	26.403
16.544	26.3659
16.562	26.3305
16.58	26.2978
16.598	26.2685
16.616	26.2427
16.634	26.2205
16.652	26.2014
16.67	26.1849
16.688	26.1702
16.706	26.1561
16.724	26.1418
16.742	26.1262
16.76	26.1084
16.778	26.0882
16.796	26.0652
16.814	26.0393
16.832	26.0104
16.85	25.9791
16.868	25.9457
16.886	25.9106
16.904	25.8749
16.922	25.839
16.94	25.8035
16.958	25.7691
16.976	25.7362
16.994	25.7055
17.012	25.6771
17.03	25.6514
17.048	25.6286
17.066	25.6085
17.084	25.5911
17.102	25.5758
17.12	25.5624
17.138	25.55
17.156	25.5379
17.174	25.5253
17.192	25.511
17.21	25.4943
17.228	25.4739
17.246	25.4495
17.264	25.4206
17.282	25.3871
17.3	25.3496
17.318	25.3085
17.336	25.2657
17.354	25.2217
17.372	25.1798
17.39	25.141
17.408	25.1085
17.426	25.084
17.444	25.0692
17.462	25.0662
17.48	25.0754
17.498	25.0976
17.516	25.1323
17.534	25.1791
17.552	25.2354
17.57	25.3005
17.588	25.3704
17.606	25.4434
17.624	25.5164
17.642	25.5864
17.66	25.6519
17.678	25.7097
17.696	25.7593
17.714	25.7989
17.732	25.8286
17.75	25.8481
17.768	25.8585
17.786	25.86
17.804	25.8548
17.822	25.8435
17.84	25.8281
17.858	25.8095
17.876	25.7891
17.894	25.7675
17.912	25.7454
17.93	25.7233
17.948	25.7013
17.966	25.6793
17.984	25.6571
18.002	25.6344
18.02	25.6108
18.038	25.586
18.056	25.56
18.074	25.5325
18.092	25.5035
18.11	25.4731
18.128	25.4414
18.146	25.4085
18.164	25.3747
18.182	25.3399
18.2	25.3044
18.218	25.2682
18.236	25.2312
18.254	25.1935
18.272	25.1548
18.29	25.115
18.308	25.0741
18.326	25.0317
18.344	24.9879
18.362	24.9425
18.38	24.8956
18.398	24.8473
18.416	24.7978
18.434	24.7472
18.452	24.696
18.47	24.6445
18.488	24.5935
18.506	24.5431
18.524	24.4945
18.542	24.448
18.56	24.4045
18.578	24.3641
18.596	24.3282
18.614	24.2969
18.632	24.271
18.65	24.2507
18.668	24.2366
18.686	24.2287
18.704	24.227
18.722	24.2313
18.74	24.2413
18.758	24.2565
18.776	24.276
18.794	24.2992
18.812	24.3249
18.83	24.3523
18.848	24.3797
18.866	24.4064
18.884	24.4309
18.902	24.4525
18.92	24.4698
18.938	24.4828
18.956	24.4903
18.974	24.4928
18.992	24.4898
19.01	24.4818
19.028	24.4692
19.046	24.4527
19.064	24.433
19.082	24.4108
19.1	24.3872
19.118	24.3629
19.136	24.3389
19.154	24.3154
19.172	24.2935
19.19	24.2731
19.208	24.2546
19.226	24.2378
19.244	24.2225
19.262	24.2086
19.28	24.1953
19.298	24.1828
19.316	24.1701
19.334	24.1574
19.352	24.1444
19.37	24.1311
19.388	24.1176
19.406	24.1037
19.424	24.0905
19.442	24.0778
19.46	24.067
19.478	24.0581
19.496	24.0525
19.514	24.0505
19.532	24.0529
19.55	24.0603
19.568	24.0726
19.586	24.0903
19.604	24.1129
19.622	24.14
19.64	24.1711
19.658	24.2047
19.676	24.2406
19.694	24.2763
19.712	24.312
19.73	24.3448
19.748	24.3748
19.766	24.3996
19.784	24.4188
19.802	24.4315
19.82	24.4368
19.838	24.4349
19.856	24.4253
19.874	24.4087
19.892	24.3859
19.91	24.3571
19.928	24.3246
19.946	24.288
19.964	24.2505
19.982	24.212
20	24.1748
20.018	24.1398
20.036	24.1078
20.054	24.0808
20.072	24.0584
20.09	24.0417
20.108	24.0307
20.126	24.0249
20.144	24.0246
20.162	24.0282
20.18	24.0354
20.198	24.0448
20.216	24.0545
20.234	24.0642
20.252	24.0706
20.27	24.0741
20.288	24.0714
20.306	24.0623
20.324	24.0454
20.342	24.019
20.36	23.9834
20.378	23.9371
20.396	23.8803
20.414	23.8135
20.432	23.7363
20.45	23.6503
20.468	23.5556
20.486	23.4537
20.504	23.3471
20.522	23.2354
20.54	23.123
20.558	23.0091
20.576	22.8975
20.594	22.7895
20.612	22.6862
20.63	22.5911
20.648	22.5033
20.666	22.4262
20.684	22.3597
20.702	22.3048
20.72	22.2625
20.738	22.2323
20.756	22.2147
20.774	22.2095
20.792	22.2155
20.81	22.2328
20.828	22.26
20.846	22.2955
20.864	22.3395
20.882	22.3886
20.9	22.4433
20.918	22.5011
20.936	22.5603
20.954	22.6209
20.972	22.6796
20.99	22.7371
21.008	22.7911
21.026	22.8408
21.044	22.886
21.062	22.925
21.08	22.9582
21.098	22.9847
21.116	23.0042
21.134	23.0168
21.152	23.0222
21.17	23.0205
21.188	23.0121
21.206	22.997
21.224	22.9757
21.242	22.9488
21.26	22.9162
21.278	22.8794
21.296	22.8385
21.314	22.7941
21.332	22.7478
21.35	22.6991
21.368	22.65
21.386	22.6009
21.404	22.5522
21.422	22.5056
21.44	22.4606
21.458	22.4187
21.476	22.3806
21.494	22.3463
21.512	22.3167
21.53	22.2918
21.548	22.2717
21.566	22.2567
21.584	22.2465
21.602	22.2406
21.62	22.2393
21.638	22.2416
21.656	22.2464
21.674	22.2541
21.692	22.2628
21.71	22.2723
21.728	22.2824
21.746	22.2909
21.764	22.2985
21.782	22.3043
21.8	22.3074
21.818	22.3084
21.836	22.3067
21.854	22.302
21.872	22.2949
21.89	22.2862
21.908	22.2754
21.926	22.264
21.944	22.2526
21.962	22.2411
21.98	22.2317
21.998	22.2243
22.016	22.2196
22.034	22.22
22.052	22.2248
22.07	22.2349
22.088	22.2514
22.106	22.2738
22.124	22.3016
22.142	22.3355
22.16	22.3746
22.178	22.4172
22.196	22.4642
22.214	22.5136
22.232	22.5634
22.25	22.6146
22.268	22.6644
22.286	22.7112
22.304	22.7559
22.322	22.7955
22.34	22.8298
22.358	22.8588
22.376	22.8808
22.394	22.8957
22.412	22.9038
22.43	22.9045
22.448	22.8977
22.466	22.8846
22.484	22.866
22.502	22.8412
22.52	22.8128
22.538	22.7819
22.556	22.7479
22.574	22.7138
22.592	22.6797
22.61	22.6458
22.628	22.6145
22.646	22.5852
22.664	22.5585
22.682	22.536
22.7	22.5174
22.718	22.5028
22.736	22.4924
22.754	22.4864
22.772	22.484
22.79	22.4847
22.808	22.4892
22.826	22.4955
22.844	22.5027
22.862	22.5115
22.88	22.5196
22.898	22.5263
22.916	22.5321
22.934	22.5347
22.952	22.5335
22.97	22.5289
22.988	22.5192
23.006	22.5039
23.024	22.4835
23.042	22.4572
23.06	22.4251
23.078	22.3872
23.096	22.3434
23.114	22.2932
23.132	22.2372
23.15	22.1771
23.168	22.1124
23.186	22.0437
23.204	21.9733
23.222	21.9002
23.24	21.8256
23.258	21.7535
23.276	21.6828
23.294	21.6147
23.312	21.5539
23.33	21.4993
23.348	21.452
23.366	21.4168
23.384	21.3931
23.402	21.3813
23.42	21.3853
23.438	21.4054
23.456	21.4411
23.474	21.4941
23.492	21.5651
23.51	21.6533
23.528	21.7579
23.546	21.88
23.564	22.0187
23.582	22.1698
23.6	22.3328
23.618	22.5087
23.636	22.6904
23.654	22.8755
23.672	23.0669
23.69	23.2559
23.708	23.437
23.726	23.6152
23.744	23.7821
23.762	23.9304
23.78	24.0655
23.798	24.1811
23.816	24.2696
23.834	24.3347
23.852	24.3736
23.87	24.3809
23.888	24.3573
23.906	24.3034
23.924	24.2177
23.942	24.0989
23.96	23.9487
23.978	23.7701
23.996	23.563
24.014	23.3267
24.032	23.0676
24.05	22.7889
24.068	22.4867
24.086	22.1687
24.104	21.8417
24.122	21.5003
24.14	21.1506
24.158	20.8017
24.176	20.4497
24.194	20.0973
24.212	19.7531
24.23	19.4183
24.248	19.0907
24.266	18.7759
24.284	18.4775
24.302	18.1922
24.32	17.9233
24.338	17.674
24.356	17.442
24.374	17.2291
24.392	17.0386
24.41	16.8697
24.428	16.7222
24.446	16.5984
24.464	16.4989
24.482	16.4227
24.5	16.3709
24.518	16.3444
24.536	16.3431
24.554	16.3661
24.572	16.413
24.59	16.4847
24.608	16.5802
24.626	16.6969
24.644	16.8342
24.662	16.9938
24.68	17.1708
24.698	17.3611
24.716	17.5696
24.734	17.7908
24.752	18.0162
24.77	18.2468
24.788	18.4839
24.806	18.7184
24.824	18.9441
24.842	19.1675
24.86	19.3818
24.878	19.5785
24.896	19.7603
24.914	19.927
24.932	20.0723
24.95	20.1927
24.968	20.2919
24.986	20.3672
25.004	20.4157
25.022	20.4374
25.04	20.4337
25.058	20.4054
25.076	20.3519
25.094	20.2725
25.112	20.1713
25.13	20.052
25.148	19.9112
25.166	19.7516
25.184	19.5797
25.202	19.3977
25.22	19.2014
25.238	18.9976
25.256	18.7935
25.274	18.5859
25.292	18.3756
25.31	18.1685
25.328	17.9682
25.346	17.7712
25.364	17.5796
25.382	17.3967
25.4	17.2221
25.418	17.0552
25.436	16.8967
25.454	16.7475
25.472	16.6076
25.49	16.4761
25.508	16.3518
25.526	16.2352
25.544	16.1268
25.562	16.0238
25.58	15.9238
25.598	15.8292
25.616	15.7384
25.634	15.6474
25.652	15.5542
25.67	15.462
25.688	15.3672
25.706	15.2652
25.724	15.1567
25.742	15.0432
25.76	14.9199
25.778	14.7822
25.796	14.6342
25.814	14.4738
25.832	14.2956
25.85	14.0963
25.868	13.8804
25.886	13.6444
25.904	13.3836
25.922	13.0973
25.94	12.7884
25.958	12.453
25.976	12.0873
25.994	11.6919
26.012	11.2679
26.03	10.8147
26.048	10.3317
26.066	9.817249
26.084	9.274072
26.102	8.705497
26.12	8.112744
26.138	7.491385
26.156	6.847834
26.174	6.189746
26.192	5.517141
26.21	4.823844
26.228	4.122633
26.246	3.426847
26.264	2.733952
26.282	2.039044
26.3	1.355715
26.318	0.697233
26.336	0.057297
26.354	-0.564960
26.372	-1.158626
26.39	-1.713610
26.408	-2.235247
26.426	-2.723914
26.444	-3.174943
26.462	-3.583824
26.48	-3.950087
26.498	-4.278065
26.516	-4.572334
26.534	-4.835332
26.552	-5.060386
26.57	-5.254853
26.588	-5.428545
26.606	-5.586516
26.624	-5.718305
26.642	-5.834042
26.66	-5.946525
26.678	-6.062422
26.696	-6.170922
26.714	-6.279997
26.732	-6.399565
26.75	-6.534771
26.768	-6.678113
26.786	-6.833690
26.804	-7.006629
26.822	-7.201046
26.84	-7.414935
26.858	-7.644651
26.876	-7.886638
26.894	-8.141274
26.912	-8.413883
26.93	-8.695195
26.948	-8.975060
26.966	-9.258638
26.984	-9.569394
27.002	-9.863684
27.02	-10.0933
27.028	-10.1551