File: Bakgrunnsmateriale/MATLAB/FTIR/ftir_data/LPE453/Mapping_121/LPE453_t47.asc
PE IR       SPECTRUM    SPECTRUM    ASCII       PEDS        1.60
  -1
LPD3A5~1.ASC
17/05/16
18:15:30.00
17/05/16
18:15:56.00
tln
$LPE453_t0047$<tbV0>[7.8,-2.6,8.0,0.0,27,1,0]
27.028
64

2002,4.07
MIRTGS : RIGHTBACK : INTERNAL 2
MIR : ON : INTERNAL 2
OPTKBR

0.200000
8
8.000000
FILLER
RATIO
SPECTRUM
UNLOCKED 256

DOUBLE
64
COMBINED
1
0
0

0.002000
RATIO

1
0
TRUE
51149
0
LEFT NOT FITTED RIGHT NOT FITTED 0
NONE
NONE
15600
12
4.427000
51148
TRUE
1 0 8 72 0 0 0 0

15798

#HDR
-1
-1
#GR
µM
%T
2.38419e-05
0.0
2.000000
0.002000
12515
8
22.2555
-15.2378
#DATA
2.000000	 0.009989
2.018000	 -0.128595
2.036000	 0.399680
2.054000	 -0.036165
2.072000	 -0.000580
2.090000	 0.463891
2.108000	 0.026121
2.126000	 0.051105
2.144000	 0.325133
2.162000	 0.804723
2.180000	 -0.264602
2.198000	 -0.670688
2.216000	 3.013905
2.234000	 0.095305
2.252000	 0.683871
2.270000	 0.471324
2.288000	 0.420900
2.306000	 -0.099035
2.324000	 -0.122493
2.342000	 0.314881
2.360000	 0.007535
2.378000	 -0.037091
2.396000	 0.078844
2.414000	 0.100539
2.432000	 0.017011
2.450000	 0.056642
2.468000	 -0.016430
2.486000	 0.195944
2.504000	 0.155194
2.522000	 0.101311
2.540000	 -0.056406
2.558000	 -0.019397
2.576000	 -0.034847
2.594000	 0.222930
2.612000	 0.070530
2.630000	 -0.148936
2.648000	 0.057493
2.666000	 -0.042073
2.684000	 -0.061869
2.702000	 0.085522
2.720000	 -0.018321
2.738000	 0.008215
2.756000	 0.090985
2.774000	 -0.110045
2.792000	 0.030823
2.810000	 0.065195
2.828000	 -0.180117
2.846000	 0.054132
2.864000	 0.019048
2.882000	 0.094419
2.900000	 -0.113821
2.918000	 -0.042545
2.936000	 0.059727
2.954000	 0.053501
2.972000	 0.127556
2.990000	 0.166262
3.008000	 0.139166
3.026000	 0.161096
3.044000	 0.205603
3.062000	 0.137357
3.080000	 -0.056268
3.098000	 -0.024618
3.116000	 0.061356
3.134000	 -0.004626
3.152000	 0.174903
3.170000	 -0.004599
3.188000	 -0.000997
3.206000	 0.145056
3.224000	 0.014687
3.242000	 -0.055270
3.260000	 0.019850
3.278000	 0.039814
3.296000	 0.006289
3.314000	 -0.020114
3.332000	 0.066834
3.350000	 0.012369
3.368000	 0.098499
3.386000	 -0.028243
3.404000	 0.180804
3.422000	 0.270878
3.440000	 0.029126
3.458000	 -0.048308
3.476000	 0.113863
3.494000	 -0.093024
3.512000	 0.028975
3.530000	 0.072953
3.548000	 0.094143
3.566000	 0.072272
3.584000	 0.083890
3.602000	 0.085586
3.620000	 -0.102573
3.638000	 -0.004942
3.656000	 -0.034641
3.674000	 0.090948
3.692000	 0.019039
3.710000	 0.069670
3.728000	 0.140059
3.746000	 0.039401
3.764000	 0.037872
3.782000	 -0.034089
3.800000	 0.131492
3.818000	 0.001419
3.836000	 0.076666
3.854000	 0.028401
3.872000	 0.045325
3.890000	 0.025530
3.908000	 0.068669
3.926000	 -0.026731
3.944000	 -0.054033
3.962000	 0.047440
3.980000	 -0.104359
3.998000	 0.034915
4.016000	 0.016293
4.034000	 0.026329
4.052000	 0.018715
4.070000	 0.257252
4.088000	 0.076950
4.106000	 0.092644
4.124000	 0.099270
4.141999	 -0.083541
4.160000	 0.026531
4.178000	 0.049594
4.196000	 0.107993
4.214000	 -0.064832
4.232000	 -0.166189
4.250000	 0.054709
4.268000	 0.017158
4.286000	 0.081816
4.304000	 0.143292
4.322000	 -0.008722
4.340000	 0.001348
4.358000	 -0.009977
4.375999	 -0.026583
4.394000	 -0.024362
4.412000	 0.095630
4.430000	 -0.073157
4.448000	 0.129447
4.466000	 0.111392
4.484000	 0.201358
4.502000	 0.215868
4.520000	 0.371650
4.538000	 0.414223
4.556000	 0.657667
4.574000	 0.800444
4.592000	 1.053840
4.609999	 1.251840
4.628000	 1.540047
4.646000	 1.805700
4.664000	 2.238877
4.682000	 2.796641
4.700000	 3.300566
4.718000	 3.719216
4.736000	 4.194227
4.754000	 4.837865
4.772000	 5.415642
4.790000	 5.952053
4.808000	 6.576530
4.826000	 6.943730
4.843999	 7.881735
4.862000	 8.625550
4.880000	 9.052822
4.898000	 9.731153
4.916000	 10.2719
4.934000	 10.8476
4.952000	 11.5764
4.970000	 12.1804
4.988000	 12.7073
5.006000	 13.2179
5.024000	 13.724
5.042000	 14.1315
5.060000	 14.6057
5.077999	 15.1596
5.096000	 15.6297
5.114000	 15.9602
5.132000	 16.2996
5.150000	 16.6501
5.168000	 17.0744
5.186000	 17.4455
5.204000	 17.6798
5.222000	 17.9389
5.240000	 18.3156
5.258000	 18.62
5.276000	 18.765
5.294000	 18.9651
5.312000	 19.246
5.330000	 19.4358
5.348000	 19.6144
5.366000	 19.8192
5.384000	 19.9911
5.402000	 20.1397
5.420000	 20.3398
5.438000	 20.5092
5.456000	 20.6697
5.474000	 20.7897
5.492000	 20.8629
5.510000	 20.9912
5.528000	 21.1508
5.546000	 21.2762
5.564000	 21.3303
5.582000	 21.2985
5.600000	 21.3674
5.618000	 21.5239
5.636000	 21.5252
5.654000	 21.5879
5.672000	 21.6573
5.690000	 21.6366
5.708000	 21.7428
5.726000	 21.8606
5.744000	 21.8681
5.762000	 21.8366
5.780000	 21.8002
5.798000	 21.8359
5.816000	 22.0671
5.834000	 22.0635
5.852000	 22.038
5.870000	 22.0645
5.888000	 22.0451
5.906000	 22.0441
5.923999	 21.9942
5.942000	 22.0534
5.960000	 22.1728
5.978000	 22.1831
5.996000	 22.1298
6.014000	 22.054
6.032000	 22.0349
6.050000	 22.0517
6.068000	 22.0548
6.086000	 22.0661
6.104000	 22.1892
6.122000	 22.2508
6.140000	 22.1798
6.158000	 22.1573
6.176000	 22.0768
6.194000	 22.0071
6.212000	 22.0894
6.230000	 22.1707
6.248000	 22.1654
6.266000	 22.1676
6.284000	 22.162
6.302000	 22.1091
6.320000	 22.0125
6.338000	 21.9937
6.356000	 22.0747
6.374000	 22.13
6.392000	 22.1157
6.410000	 22.0865
6.428000	 22.0231
6.446000	 21.9265
6.464000	 21.9881
6.482000	 22.1957
6.500000	 22.2287
6.518000	 22.1436
6.536000	 22.1323
6.554000	 22.1101
6.572000	 22.0422
6.590000	 22.0003
6.608000	 21.9962
6.626000	 21.9944
6.644000	 21.9831
6.662000	 21.9915
6.680000	 21.963
6.698000	 21.8747
6.716000	 21.8526
6.734000	 21.883
6.752000	 21.8959
6.770000	 21.8992
6.788000	 21.9192
6.806000	 21.9126
6.824000	 21.8487
6.842000	 21.8113
6.860000	 21.8432
6.878000	 21.8666
6.896000	 21.8477
6.914000	 21.8436
6.932000	 21.8622
6.950000	 21.8696
6.968000	 21.845
6.986000	 21.7797
7.004000	 21.7141
7.022000	 21.7161
7.040000	 21.7656
7.058000	 21.7594
7.076000	 21.6675
7.094000	 21.5775
7.112000	 21.548
7.130000	 21.5526
7.148000	 21.572
7.166000	 21.6044
7.184000	 21.6312
7.202000	 21.6324
7.220000	 21.6034
7.238000	 21.5699
7.256000	 21.557
7.274000	 21.5567
7.292000	 21.5672
7.310000	 21.5765
7.328000	 21.5366
7.346000	 21.4553
7.364000	 21.4121
7.382000	 21.4382
7.400000	 21.4751
7.418000	 21.4559
7.436000	 21.3965
7.454000	 21.3661
7.472000	 21.373
7.490000	 21.368
7.508000	 21.3444
7.526000	 21.3244
7.544000	 21.2968
7.562000	 21.2421
7.580000	 21.1846
7.598000	 21.1775
7.616000	 21.2381
7.634000	 21.3088
7.652000	 21.3104
7.670000	 21.2362
7.688000	 21.1576
7.706000	 21.1388
7.724000	 21.1758
7.742000	 21.2203
7.760000	 21.2386
7.778000	 21.2326
7.796000	 21.2138
7.814000	 21.1791
7.832000	 21.1191
7.850000	 21.044
7.868000	 20.9919
7.886000	 20.9982
7.904000	 21.0571
7.922000	 21.1255
7.940000	 21.1604
7.958000	 21.1475
7.976000	 21.1065
7.994000	 21.0728
8.012000	 21.0625
8.030000	 21.055
8.048000	 21.0175
8.065999	 20.9455
8.084000	 20.8768
8.102000	 20.8595
8.120000	 20.8929
8.138000	 20.9277
8.155999	 20.9351
8.173999	 20.9302
8.192000	 20.9214
8.210000	 20.8941
8.228000	 20.855
8.246000	 20.8344
8.263999	 20.8363
8.282000	 20.8346
8.300000	 20.8189
8.318000	 20.8045
8.336000	 20.7948
8.353999	 20.7701
8.372000	 20.7171
8.390000	 20.6485
8.408000	 20.5857
8.426000	 20.5428
8.443999	 20.5269
8.462000	 20.5407
8.480000	 20.5813
8.498000	 20.6407
8.516000	 20.704
8.533999	 20.7415
8.552000	 20.725
8.570000	 20.657
8.588000	 20.5749
8.606000	 20.5156
8.624000	 20.4869
8.641999	 20.4816
8.660000	 20.4953
8.678000	 20.5161
8.696000	 20.516
8.714000	 20.4779
8.731999	 20.422
8.750000	 20.3848
8.768000	 20.3768
8.786000	 20.3799
8.804000	 20.3788
8.821999	 20.3755
8.840000	 20.374
8.858000	 20.3679
8.876000	 20.3535
8.894000	 20.3402
8.911999	 20.3381
8.930000	 20.341
8.948000	 20.3313
8.966000	 20.2986
8.984000	 20.2467
9.001999	 20.1844
9.020000	 20.1177
9.038000	 20.0532
9.056000	 20.0013
9.074000	 19.9722
9.092000	 19.968
9.109999	 19.9787
9.128000	 19.9866
9.146000	 19.9792
9.164000	 19.9583
9.182000	 19.935
9.199999	 19.9184
9.218000	 19.9085
9.236000	 19.9049
9.254000	 19.9144
9.272000	 19.9447
9.289999	 19.988
9.308000	 20.0177
9.326000	 20.0036
9.344000	 19.9341
9.362000	 19.8274
9.379999	 19.722
9.398000	 19.6549
9.416000	 19.6405
9.434000	 19.6635
9.452000	 19.6896
9.469999	 19.6915
9.488000	 19.6644
9.506000	 19.6206
9.524000	 19.5689
9.542000	 19.5059
9.560000	 19.4287
9.577999	 19.3511
9.596000	 19.3006
9.614000	 19.2982
9.632000	 19.3407
9.650000	 19.4055
9.667999	 19.471
9.686000	 19.5258
9.704000	 19.5636
9.722000	 19.5744
9.740000	 19.5476
9.757999	 19.4839
9.776000	 19.4021
9.794000	 19.3291
9.812000	 19.2817
9.830000	 19.259
9.847999	 19.2493
9.866000	 19.2426
9.884000	 19.234
9.902000	 19.2212
9.920000	 19.2
9.937999	 19.1663
9.956000	 19.1205
9.974000	 19.0703
9.992000	 19.0289
10.01	19.0069
10.028	19.0089
10.046	19.0305
10.064	19.0619
10.082	19.0927
10.1	19.1156
10.118	19.1286
10.136	19.1314
10.154	19.1223
10.172	19.0984
10.19	19.0583
10.208	19.0053
10.226	18.9465
10.244	18.8896
10.262	18.8405
10.28	18.8022
10.298	18.7753
10.316	18.7579
10.334	18.7446
10.352	18.7267
10.37	18.6959
10.388	18.6522
10.406	18.6055
10.424	18.572
10.442	18.5629
10.46	18.5753
10.478	18.592
10.496	18.592
10.514	18.5633
10.532	18.5109
10.55	18.4536
10.568	18.4123
10.586	18.3981
10.604	18.4078
10.622	18.4268
10.64	18.4392
10.658	18.4345
10.676	18.4106
10.694	18.3728
10.712	18.3307
10.73	18.294
10.748	18.2719
10.766	18.2698
10.784	18.2869
10.802	18.3145
10.82	18.3389
10.838	18.3446
10.856	18.3223
10.874	18.2725
10.892	18.2043
10.91	18.1315
10.928	18.0645
10.946	18.0081
10.964	17.9608
10.982	17.919
11	17.8814
11.018	17.8501
11.036	17.8294
11.054	17.8224
11.072	17.8268
11.09	17.8345
11.108	17.8356
11.126	17.8231
11.144	17.7978
11.162	17.7691
11.18	17.7489
11.198	17.7453
11.216	17.7575
11.234	17.7753
11.252	17.783
11.27	17.7686
11.288	17.7273
11.306	17.6653
11.324	17.5956
11.342	17.5324
11.36	17.4847
11.378	17.4536
11.396	17.4339
11.414	17.4186
11.432	17.4028
11.45	17.3869
11.468	17.3749
11.486	17.3718
11.504	17.3788
11.522	17.3922
11.54	17.4046
11.558	17.4075
11.576	17.3953
11.594	17.3672
11.612	17.3275
11.63	17.2831
11.648	17.2406
11.666	17.2047
11.684	17.1776
11.702	17.1599
11.72	17.1521
11.738	17.1553
11.756	17.1706
11.774	17.1968
11.792	17.2287
11.81	17.2565
11.828	17.2686
11.846	17.2555
11.864	17.2139
11.882	17.1485
11.9	17.0716
11.918	16.9989
11.936	16.9443
11.954	16.9162
11.972	16.9155
11.99	16.9349
12.008	16.9621
12.026	16.9834
12.044	16.987
12.062	16.967
12.08	16.9247
12.098	16.8666
12.116	16.8019
12.134	16.7394
12.152	16.6845
12.17	16.6385
12.188	16.5997
12.206	16.5649
12.224	16.5308
12.242	16.4956
12.26	16.4584
12.278	16.4194
12.296	16.3794
12.314	16.3391
12.332	16.2994
12.35	16.2617
12.368	16.2281
12.386	16.201
12.404	16.1826
12.422	16.1732
12.44	16.1712
12.458	16.1733
12.476	16.1746
12.494	16.1706
12.512	16.1588
12.53	16.1392
12.548	16.1154
12.566	16.0926
12.584	16.0764
12.602	16.0711
12.62	16.0779
12.638	16.0941
12.656	16.1142
12.674	16.131
12.692	16.1378
12.71	16.1298
12.728	16.1059
12.746	16.0684
12.764	16.0226
12.782	15.9751
12.8	15.9323
12.818	15.8982
12.836	15.874
12.854	15.8574
12.872	15.8446
12.89	15.8309
12.908	15.8131
12.926	15.7902
12.944	15.7635
12.962	15.7364
12.98	15.7125
12.998	15.6943
13.016	15.6821
13.034	15.6741
13.052	15.6665
13.07	15.655
13.088	15.637
13.106	15.6118
13.124	15.5817
13.142	15.551
13.16	15.5248
13.178	15.5074
13.196	15.5007
13.214	15.5038
13.232	15.5135
13.25	15.5249
13.268	15.5326
13.286	15.5325
13.304	15.5221
13.322	15.5014
13.34	15.4727
13.358	15.4394
13.376	15.4051
13.394	15.3731
13.412	15.345
13.43	15.3209
13.448	15.2992
13.466	15.2772
13.484	15.2516
13.502	15.2194
13.52	15.1785
13.538	15.1283
13.556	15.0701
13.574	15.0069
13.592	14.9432
13.61	14.8838
13.628	14.8333
13.646	14.7947
13.664	14.7694
13.682	14.7565
13.7	14.7532
13.718	14.7556
13.736	14.7601
13.754	14.7631
13.772	14.7631
13.79	14.7599
13.808	14.755
13.826	14.7504
13.844	14.7479
13.862	14.7489
13.88	14.7535
13.898	14.7607
13.916	14.7686
13.934	14.775
13.952	14.7781
13.97	14.7768
13.988	14.7712
14.006	14.7621
14.024	14.75
14.042	14.7353
14.06	14.7174
14.078	14.6947
14.096	14.6652
14.114	14.6266
14.132	14.5774
14.15	14.5173
14.168	14.4477
14.186	14.3719
14.204	14.2945
14.222	14.2208
14.24	14.1554
14.258	14.1017
14.276	14.0607
14.294	14.0312
14.312	14.0103
14.33	13.9936
14.348	13.9768
14.366	13.9558
14.384	13.9288
14.402	13.8965
14.42	13.8616
14.438	13.8288
14.456	13.803
14.474	13.7889
14.492	13.7901
14.51	13.8077
14.528	13.8398
14.546	13.8825
14.564	13.9303
14.582	13.977
14.6	14.0167
14.618	14.0445
14.636	14.0572
14.654	14.0539
14.672	14.0358
14.69	14.0052
14.708	13.9655
14.726	13.9206
14.744	13.8742
14.762	13.8292
14.78	13.7877
14.798	13.7507
14.816	13.7187
14.834	13.6913
14.852	13.6681
14.87	13.6484
14.888	13.6314
14.906	13.6166
14.924	13.6037
14.942	13.5923
14.96	13.5825
14.978	13.5741
14.996	13.567
15.014	13.561
15.032	13.5556
15.05	13.5503
15.068	13.5446
15.086	13.5376
15.104	13.5286
15.122	13.5168
15.14	13.5021
15.158	13.4844
15.176	13.4642
15.194	13.4424
15.212	13.4202
15.23	13.399
15.248	13.3799
15.266	13.3639
15.284	13.3514
15.302	13.342
15.32	13.3346
15.338	13.3281
15.356	13.3205
15.374	13.3096
15.392	13.294
15.41	13.2726
15.428	13.2449
15.446	13.2119
15.464	13.1753
15.482	13.1371
15.5	13.1002
15.518	13.0679
15.536	13.0429
15.554	13.027
15.572	13.0219
15.59	13.0275
15.608	13.0428
15.626	13.0663
15.644	13.0956
15.662	13.1271
15.68	13.158
15.698	13.1857
15.716	13.2075
15.734	13.2215
15.752	13.2268
15.77	13.2229
15.788	13.2099
15.806	13.1889
15.824	13.1608
15.842	13.1271
15.86	13.0896
15.878	13.0499
15.896	13.0096
15.914	12.9708
15.932	12.9348
15.95	12.903
15.968	12.8761
15.986	12.855
16.004	12.8394
16.022	12.8287
16.04	12.8216
16.058	12.8162
16.076	12.8109
16.094	12.8029
16.112	12.7901
16.13	12.7711
16.148	12.7441
16.166	12.7088
16.184	12.6657
16.202	12.6153
16.22	12.5603
16.238	12.5027
16.256	12.4446
16.274	12.3895
16.292	12.3389
16.31	12.2946
16.328	12.2578
16.346	12.2282
16.364	12.2056
16.382	12.1882
16.4	12.1744
16.418	12.1629
16.436	12.1514
16.454	12.1389
16.472	12.1247
16.49	12.1084
16.508	12.0906
16.526	12.0718
16.544	12.0538
16.562	12.0374
16.58	12.0236
16.598	12.0135
16.616	12.0069
16.634	12.004
16.652	12.0036
16.67	12.0046
16.688	12.0057
16.706	12.0047
16.724	12.0006
16.742	11.9918
16.76	11.9777
16.778	11.9583
16.796	11.9337
16.814	11.9051
16.832	11.8734
16.85	11.8402
16.868	11.807
16.886	11.7748
16.904	11.7449
16.922	11.7175
16.94	11.6929
16.958	11.6704
16.976	11.6495
16.994	11.6287
17.012	11.6069
17.03	11.5832
17.048	11.5565
17.066	11.5267
17.084	11.4936
17.102	11.4579
17.12	11.42
17.138	11.3818
17.156	11.3445
17.174	11.3093
17.192	11.2782
17.21	11.2517
17.228	11.2312
17.246	11.2169
17.264	11.2088
17.282	11.2066
17.3	11.2095
17.318	11.2167
17.336	11.227
17.354	11.2396
17.372	11.2534
17.39	11.2679
17.408	11.2826
17.426	11.2974
17.444	11.3122
17.462	11.3274
17.48	11.3432
17.498	11.3601
17.516	11.3783
17.534	11.398
17.552	11.4191
17.57	11.4416
17.588	11.4645
17.606	11.4872
17.624	11.5088
17.642	11.5277
17.66	11.5431
17.678	11.5533
17.696	11.5577
17.714	11.5547
17.732	11.5437
17.75	11.5241
17.768	11.4954
17.786	11.4574
17.804	11.4106
17.822	11.3554
17.84	11.2929
17.858	11.2241
17.876	11.1503
17.894	11.0736
17.912	10.9949
17.93	10.9172
17.948	10.841
17.966	10.7696
17.984	10.7034
18.002	10.6449
18.02	10.5948
18.038	10.5542
18.056	10.5237
18.074	10.5035
18.092	10.4931
18.11	10.4923
18.128	10.4996
18.146	10.5143
18.164	10.5341
18.182	10.5577
18.2	10.5833
18.218	10.6085
18.236	10.6323
18.254	10.6523
18.272	10.6679
18.29	10.6774
18.308	10.6806
18.326	10.6768
18.344	10.6661
18.362	10.649
18.38	10.626
18.398	10.5984
18.416	10.5669
18.434	10.533
18.452	10.498
18.47	10.4629
18.488	10.4296
18.506	10.3989
18.524	10.372
18.542	10.3495
18.56	10.3323
18.578	10.3204
18.596	10.3139
18.614	10.3126
18.632	10.3158
18.65	10.3233
18.668	10.3334
18.686	10.3457
18.704	10.3584
18.722	10.3711
18.74	10.3817
18.758	10.3899
18.776	10.394
18.794	10.3938
18.812	10.3883
18.83	10.3775
18.848	10.3613
18.866	10.3399
18.884	10.3139
18.902	10.2839
18.92	10.2507
18.938	10.2152
18.956	10.1788
18.974	10.1421
18.992	10.1068
19.01	10.0731
19.028	10.0424
19.046	10.0145
19.064	9.990203
19.082	9.969288
19.1	9.951911
19.118	9.937733
19.136	9.926413
19.154	9.917613
19.172	9.910605
19.19	9.905200
19.208	9.900574
19.226	9.896699
19.244	9.892955
19.262	9.889366
19.28	9.885494
19.298	9.881424
19.316	9.877234
19.334	9.872916
19.352	9.868487
19.37	9.863946
19.388	9.858998
19.406	9.853695
19.424	9.847328
19.442	9.839986
19.46	9.830599
19.478	9.819129
19.496	9.804708
19.514	9.787152
19.532	9.765889
19.55	9.740413
19.568	9.710943
19.586	9.677249
19.604	9.639868
19.622	9.599342
19.64	9.556111
19.658	9.512026
19.676	9.467059
19.694	9.424050
19.712	9.382692
19.73	9.345923
19.748	9.313670
19.766	9.287848
19.784	9.268929
19.802	9.257403
19.82	9.254038
19.838	9.258241
19.856	9.269936
19.874	9.288654
19.892	9.313006
19.91	9.343058
19.928	9.376370
19.946	9.413223
19.964	9.451307
19.982	9.490470
20	9.529376
20.018	9.567121
20.036	9.603589
20.054	9.637854
20.072	9.670150
20.09	9.700225
20.108	9.728101
20.126	9.754227
20.144	9.778563
20.162	9.801510
20.18	9.823319
20.198	9.843883
20.216	9.863369
20.234	9.881587
20.252	9.897815
20.27	9.912256
20.288	9.923481
20.306	9.931673
20.324	9.935502
20.342	9.934109
20.36	9.927390
20.378	9.914037
20.396	9.894341
20.414	9.867558
20.432	9.833548
20.45	9.792913
20.468	9.745523
20.486	9.692145
20.504	9.633869
20.522	9.570590
20.54	9.504937
20.558	9.436428
20.576	9.367486
20.594	9.298990
20.612	9.231529
20.63	9.167372
20.648	9.105997
20.666	9.049532
20.684	8.997925
20.702	8.951859
20.72	8.912067
20.738	8.878270
20.756	8.850816
20.774	8.829680
20.792	8.814355
20.81	8.804998
20.828	8.800923
20.846	8.801373
20.864	8.806469
20.882	8.814589
20.9	8.826028
20.918	8.839503
20.936	8.854181
20.954	8.870055
20.972	8.885327
20.99	8.900400
21.008	8.913982
21.026	8.925588
21.044	8.935129
21.062	8.941476
21.08	8.944870
21.098	8.945001
21.116	8.941625
21.134	8.935036
21.152	8.925403
21.17	8.912608
21.188	8.897746
21.206	8.880770
21.224	8.862261
21.242	8.843319
21.26	8.823550
21.278	8.804601
21.296	8.786679
21.314	8.770070
21.332	8.755909
21.35	8.743921
21.368	8.734264
21.386	8.727334
21.404	8.722545
21.422	8.719075
21.44	8.717389
21.458	8.715661
21.476	8.713479
21.494	8.710543
21.512	8.704305
21.53	8.695473
21.548	8.682321
21.566	8.663463
21.584	8.639442
21.602	8.608720
21.62	8.571240
21.638	8.527035
21.656	8.475587
21.674	8.416959
21.692	8.352445
21.71	8.281704
21.728	8.205732
21.746	8.127373
21.764	8.045460
21.782	7.962974
21.8	7.882098
21.818	7.801926
21.836	7.726207
21.854	7.654967
21.872	7.588919
21.89	7.530723
21.908	7.479660
21.926	7.436570
21.944	7.402388
21.962	7.376609
21.98	7.358907
21.998	7.349748
22.016	7.348183
22.034	7.352692
22.052	7.364060
22.07	7.380271
22.088	7.399923
22.106	7.423706
22.124	7.448843
22.142	7.474871
22.16	7.501765
22.178	7.527443
22.196	7.552158
22.214	7.575601
22.232	7.596950
22.25	7.616417
22.268	7.634130
22.286	7.649975
22.304	7.664021
22.322	7.676978
22.34	7.688710
22.358	7.699529
22.376	7.710577
22.394	7.721517
22.412	7.732931
22.43	7.745712
22.448	7.759264
22.466	7.774922
22.484	7.793663
22.502	7.814870
22.52	7.840146
22.538	7.870020
22.556	7.904173
22.574	7.944311
22.592	7.990668
22.61	8.043072
22.628	8.102356
22.646	8.168456
22.664	8.241348
22.682	8.321385
22.7	8.409002
22.718	8.502903
22.736	8.601993
22.754	8.707371
22.772	8.816227
22.79	8.926666
22.808	9.040443
22.826	9.152357
22.844	9.259703
22.862	9.364604
22.88	9.460527
22.898	9.545143
22.916	9.620278
22.934	9.678810
22.952	9.718978
22.97	9.742176
22.988	9.742292
23.006	9.718093
23.024	9.670740
23.042	9.596936
23.06	9.495517
23.078	9.367969
23.096	9.215201
23.114	9.035629
23.132	8.831489
23.15	8.608097
23.168	8.363501
23.186	8.100324
23.204	7.826793
23.222	7.540186
23.24	7.243862
23.258	6.948759
23.276	6.652136
23.294	6.356981
23.312	6.075075
23.33	5.804352
23.348	5.546642
23.366	5.312559
23.384	5.101444
23.402	4.913336
23.42	4.755464
23.438	4.628448
23.456	4.531059
23.474	4.466310
23.492	4.435617
23.51	4.437281
23.528	4.469678
23.546	4.533720
23.564	4.628690
23.582	4.748965
23.6	4.893666
23.618	5.064130
23.636	5.252153
23.654	5.454415
23.672	5.674462
23.69	5.903184
23.708	6.134860
23.726	6.374500
23.744	6.613957
23.762	6.846151
23.78	7.076142
23.798	7.297919
23.816	7.504268
23.834	7.698907
23.852	7.878681
23.87	8.037695
23.888	8.177868
23.906	8.298122
23.924	8.393903
23.942	8.465198
23.96	8.512732
23.978	8.533818
23.996	8.527235
24.014	8.494237
24.032	8.434570
24.05	8.347710
24.068	8.233591
24.086	8.094148
24.104	7.930831
24.122	7.741635
24.14	7.530006
24.158	7.300399
24.176	7.050286
24.194	6.782023
24.212	6.501906
24.23	6.209500
24.248	5.904001
24.266	5.593753
24.284	5.283069
24.302	4.967349
24.32	4.653301
24.338	4.347242
24.356	4.044713
24.374	3.749706
24.392	3.468983
24.41	3.202104
24.428	2.948076
24.446	2.709826
24.464	2.489283
24.482	2.285086
24.5	2.096074
24.518	1.921815
24.536	1.764557
24.554	1.619974
24.572	1.482680
24.59	1.355627
24.608	1.237001
24.626	1.118766
24.644	0.998058
24.662	0.879282
24.68	0.754658
24.698	0.617113
24.716	0.471795
24.734	0.314769
24.752	0.138634
24.77	-0.057789
24.788	-0.271931
24.806	-0.506379
24.824	-0.763586
24.842	-1.043294
24.86	-1.342612
24.878	-1.658680
24.896	-1.995202
24.914	-2.349133
24.932	-2.711972
24.95	-3.080559
24.968	-3.460923
24.986	-3.842485
25.004	-4.214281
25.022	-4.583070
25.04	-4.945097
25.058	-5.288342
25.076	-5.607581
25.094	-5.909716
25.112	-6.187481
25.13	-6.433338
25.148	-6.650416
25.166	-6.838405
25.184	-6.993155
25.202	-7.112039
25.22	-7.197209
25.238	-7.249375
25.256	-7.268980
25.274	-7.253796
25.292	-7.206338
25.31	-7.131443
25.328	-7.030938
25.346	-6.900610
25.364	-6.747656
25.382	-6.580163
25.4	-6.396067
25.418	-6.194700
25.436	-5.982654
25.454	-5.765017
25.472	-5.537902
25.49	-5.303265
25.508	-5.064553
25.526	-4.822936
25.544	-4.576770
25.562	-4.326858
25.58	-4.074033
25.598	-3.818623
25.616	-3.559917
25.634	-3.297078
25.652	-3.029789
25.67	-2.758963
25.688	-2.483313
25.706	-2.201335
25.724	-1.912535
25.742	-1.617685
25.76	-1.316934
25.778	-1.010296
25.796	-0.696070
25.814	-0.376198
25.832	-0.053911
25.85	0.269469
25.868	0.597983
25.886	0.926011
25.904	1.246776
25.922	1.560686
25.94	1.871680
25.958	2.170135
25.976	2.446423
25.994	2.706093
26.012	2.948660
26.03	3.163260
26.048	3.340458
26.066	3.486783
26.084	3.600684
26.102	3.676457
26.12	3.710241
26.138	3.705955
26.156	3.662359
26.174	3.577349
26.192	3.449225
26.21	3.279082
26.228	3.069217
26.246	2.821915
26.264	2.535726
26.282	2.210370
26.3	1.850880
26.318	1.462139
26.336	1.040272
26.354	0.586406
26.372	0.107844
26.39	-0.388840
26.408	-0.909487
26.426	-1.451553
26.444	-2.007383
26.462	-2.570669
26.48	-3.147139
26.498	-3.734331
26.516	-4.326736
26.534	-4.920651
26.552	-5.521495
26.57	-6.125259
26.588	-6.726031
26.606	-7.320236
26.624	-7.912997
26.642	-8.500870
26.66	-9.079176
26.678	-9.646471
26.696	-10.2084
26.714	-10.7581
26.732	-11.2876
26.75	-11.7939
26.768	-12.2848
26.786	-12.7525
26.804	-13.188
26.822	-13.5893
26.84	-13.9662
26.858	-14.3066
26.876	-14.5966
26.894	-14.8315
26.912	-15.0246
26.93	-15.1632
26.948	-15.2325
26.966	-15.2046
26.984	-15.0609
27.002	-14.8725
27.02	-14.7154
27.028	-14.6789