File: Bakgrunnsmateriale/MATLAB/FTIR/ftir_data/LPE453/Mapping_121/LPE453_t115_cm-1.asc
PE IR       SPECTRUM    SPECTRUM    ASCII       PEDS        1.60
  -1
LP08FC~1.ASC
17/05/16
23:50:18.00
17/05/16
23:50:18.00
tln
$LPE453_t0115$<tbV0>[2.6,13.0,8.0,0.0,27,1,0]
370
64

2002,4.07
MIRTGS : RIGHTBACK : INTERNAL 2
MIR : ON : INTERNAL 2
OPTKBR

0.200000
8
8.000000
FILLER
RATIO
SPECTRUM
UNLOCKED 256

DOUBLE
64
COMBINED
1
0
0

1.000000
RATIO

1
0
TRUE
51149
0
LEFT NOT FITTED RIGHT NOT FITTED 0
NONE
NONE
15600
12
4.427000
51148
TRUE
1 0 8 72 0 0 0 0

15798

#HDR
-1
-1
#GR
CM-1
%T
2.38419e-05
0.0
5000
-1.000000
4631
8
36.2794
-14.5929
#DATA
5000	0.412416
4996	0.304460
4992	0.291132
4988	0.264286
4984	0.171804
4980	0.160026
4976	0.226593
4972	0.148582
4968	-0.134396
4964	-0.212717
4960	0.010371
4956	0.084161
4952	0.020718
4948	0.111651
4944	0.147104
4940	-0.036907
4936	-0.084948
4932	0.077128
4928	0.031590
4924	-0.257420
4920	-0.306391
4916	0.038361
4912	0.282073
4908	0.270175
4904	0.313591
4900	0.372505
4896	0.321054
4892	0.217032
4888	0.169968
4884	0.349283
4880	0.573587
4876	0.445628
4872	0.298881
4868	0.378918
4864	0.388407
4860	0.152087
4856	-0.123047
4852	-0.134801
4848	-0.073385
4844	-0.107574
4840	-0.086021
4836	0.015282
4832	0.192904
4828	0.384497
4824	0.357580
4820	0.178599
4816	0.103640
4812	0.219917
4808	0.437450
4804	0.402307
4800	0.182318
4796	0.046610
4792	-0.112986
4788	-0.261807
4784	-0.203776
4780	-0.103449
4776	-0.085854
4772	0.012660
4768	0.176930
4764	0.372195
4760	0.523161
4756	0.624942
4752	0.543093
4748	0.293421
4744	0.284385
4740	0.367069
4736	0.062227
4732	-0.323057
4728	-0.363016
4724	-0.069379
4720	0.415015
4716	0.739669
4712	0.948619
4708	0.834608
4704	0.195312
4700	0.043916
4696	0.698781
4692	1.292896
4688	1.173591
4684	0.677156
4680	0.608825
4676	1.188039
4672	1.759505
4668	1.091194
4664	0.136804
4660	0.379252
4656	0.066018
4652	-1.354193
4648	-1.623010
4644	-0.330924
4640	0.683903
4636	0.720572
4632	0.605702
4628	0.659871
4624	0.713443
4620	0.712847
4616	0.790596
4612	0.825524
4608	0.525617
4604	0.285243
4600	0.224423
4596	-0.028610
4592	-0.257968
4588	-0.234103
4584	-0.399565
4580	-0.603938
4576	-0.478434
4572	-0.189900
4568	0.011539
4564	0.206995
4560	0.193786
4556	0.032043
4552	0.073719
4548	-0.054049
4544	-0.549530
4540	-0.658035
4536	-0.448131
4532	-0.578498
4528	-0.686979
4524	-0.524353
4520	-0.341200
4516	-0.422191
4512	-0.488686
4508	-0.338983
4504	1.346135
4500	5.600690
4496	11.8488
4492	13.9523
4488	11.1804
4484	10.5047
4480	6.180071
4476	-0.575518
4472	-1.693201
4468	-0.533962
4464	-0.299215
4460	-0.332856
4456	-0.678753
4452	-0.957012
4448	-1.029205
4444	-0.765848
4440	-0.509238
4436	-0.506353
4432	-0.690293
4428	-0.908923
4424	-0.755500
4420	-0.540471
4416	-0.471043
4412	-0.377631
4408	-0.353312
4404	-0.181865
4400	0.157856
4396	0.372815
4392	0.585579
4388	0.769615
4384	0.495338
4380	0.030732
4376	-0.016546
4372	0.064349
4368	0.068926
4364	0.265979
4360	0.461935
4356	0.326395
4352	0.039696
4348	0.092887
4344	0.399422
4340	0.442719
4336	0.372219
4332	0.449371
4328	0.520944
4324	0.406765
4320	0.003290
4316	-0.151515
4312	0.092601
4308	0.067830
4304	-0.129032
4300	-0.171113
4296	-0.180220
4292	-0.093865
4288	0.053715
4284	0.193786
4280	0.379133
4276	0.464653
4272	0.361299
4268	0.189495
4264	0.071692
4260	0.028347
4256	0.089097
4252	0.160527
4248	0.067067
4244	-0.007176
4240	0.093936
4236	0.207304
4232	0.237965
4228	0.257515
4224	0.285887
4220	0.183963
4216	-0.027298
4212	-0.024366
4208	0.216460
4204	0.403165
4200	0.360226
4196	0.203895
4192	0.164079
4188	0.163650
4184	0.160837
4180	0.249242
4176	0.259995
4172	0.135731
4168	0.076341
4164	0.090098
4160	0.017547
4156	-0.127840
4152	-0.186967
4148	-0.147342
4144	-0.079631
4140	0.046324
4136	0.153279
4132	0.138354
4128	0.083637
4124	0.026011
4120	-0.004696
4116	0.069785
4112	0.180196
4108	0.188064
4104	0.078248
4100	-0.030899
4096	-0.049352
4092	-0.021958
4088	0.005745
4084	0.070667
4080	0.140905
4076	0.174522
4072	0.224423
4068	0.255370
4064	0.182914
4060	0.110077
4056	0.104403
4052	0.115776
4048	0.142097
4044	0.168323
4040	0.107407
4036	0.048995
4032	0.128507
4028	0.219988
4024	0.180840
4020	0.065469
4016	0.023460
4012	0.053739
4008	0.015401
4004	-0.072050
4000	-0.075674
3996	0.014448
3992	-0.014805
3988	-0.216412
3984	-0.232100
3980	0.006198
3976	0.158691
3972	0.106501
3968	0.007700
3964	0.008988
3960	0.056672
3956	0.107002
3952	0.126218
3948	0.042939
3944	0.002598
3940	0.054311
3936	0.030088
3932	0.008702
3928	0.063467
3924	0.052285
3920	0.004100
3916	0.001931
3912	0.032162
3908	0.080347
3904	0.114011
3900	0.148057
3896	0.212192
3892	0.216245
3888	0.134015
3884	0.063371
3880	0.053453
3876	0.079131
3872	0.081706
3868	0.072646
3864	0.043320
3860	-0.047850
3856	-0.034976
3852	0.100779
3848	0.121331
3844	0.085759
3840	0.117993
3836	0.129270
3832	0.102996
3828	0.090789
3824	0.088167
3820	0.119304
3816	0.115609
3812	0.045013
3808	0.027084
3804	0.061011
3800	0.093388
3796	0.162291
3792	0.194168
3788	0.098729
3784	-0.031089
3780	-0.116991
3776	-0.150084
3772	-0.123810
3768	-0.048422
3764	0.028586
3760	0.051069
3756	0.053095
3752	0.090384
3748	0.133180
3744	0.188612
3740	0.265741
3736	0.264263
3732	0.197243
3728	0.162887
3724	0.119304
3720	0.011754
3716	-0.064063
3712	-0.063776
3708	-0.058341
3704	-0.044369
3700	0.003647
3696	0.076150
3692	0.096511
3688	0.024151
3684	-0.065445
3680	-0.113749
3676	-0.109195
3672	-0.084114
3668	-0.047397
3664	0.000333
3660	0.038146
3656	0.076198
3652	0.102853
3648	0.114393
3644	0.042581
3640	-0.059509
3636	-0.007104
3632	0.068140
3628	0.000262
3624	-0.076365
3620	-0.041294
3616	0.017571
3612	0.047636
3608	0.085377
3604	0.115990
3600	0.118279
3596	0.098896
3592	-0.002336
3588	-0.089073
3584	-0.023221
3580	0.024390
3576	-0.037574
3572	-0.044155
3568	0.021791
3564	0.029993
3560	-0.015783
3556	-0.003314
3552	0.002837
3548	-0.068807
3544	-0.104689
3540	-0.076317
3536	0.023531
3532	0.145888
3528	0.151753
3524	0.082111
3520	0.039052
3516	0.048375
3512	0.070548
3508	0.056171
3504	0.011396
3500	-0.037741
3496	-0.032162
3492	-0.035738
3488	-0.134491
3484	-0.149464
3480	-0.060796
3476	-0.020885
3472	0.079846
3468	0.192523
3464	0.221872
3460	0.254535
3456	0.220251
3452	0.148940
3448	0.160527
3444	0.171399
3440	0.141811
3436	0.124526
3432	0.070929
3428	-0.014138
3424	-0.042414
3420	-0.006437
3416	0.048398
3412	0.113415
3408	0.145196
3404	0.114512
3400	0.083231
3396	0.011396
3392	-0.068497
3388	-0.051140
3384	0.030136
3380	0.057435
3376	-0.022935
3372	-0.104117
3368	-0.089597
3364	-0.012159
3360	0.027775
3356	0.028538
3352	0.020551
3348	-0.043129
3344	-0.071287
3340	-0.036048
3336	-0.002527
3332	0.078344
3328	0.134205
3324	0.131535
3320	0.156712
3316	0.154018
3312	0.093650
3308	0.081181
3304	0.116705
3300	0.114178
3296	0.067448
3292	0.083398
3288	0.117635
3284	0.068068
3280	0.019550
3276	-0.010299
3272	-0.037074
3268	-0.019335
3264	-0.032353
3260	-0.084638
3256	-0.086140
3252	-0.016498
3248	0.083088
3244	0.169587
3240	0.205326
3236	0.146722
3232	0.075578
3228	0.067186
3224	0.070285
3220	0.057387
3216	0.029420
3212	0.010204
3208	0.018358
3204	0.039839
3200	0.008249
3196	-0.084686
3192	-0.125169
3188	-0.059866
3184	0.055456
3180	0.121474
3176	0.136041
3172	0.139832
3168	0.090742
3164	0.015401
3160	0.025320
3156	0.095844
3152	0.115299
3148	0.096631
3144	0.088500
3140	0.108289
3136	0.142860
3132	0.082182
3128	-0.028467
3124	-0.029063
3120	0.052881
3116	0.121951
3112	0.136208
3108	0.106883
3104	0.048279
3100	0.002622
3096	0.019669
3092	0.037765
3088	0.014162
3084	-0.061011
3080	-0.100898
3076	-0.037026
3072	-0.008320
3068	-0.052428
3064	-0.063967
3060	0.008225
3056	0.084090
3052	0.089240
3048	0.092291
3044	0.083184
3040	0.025033
3036	0.028419
3032	0.081658
3028	0.086188
3024	0.102519
3020	0.147438
3016	0.135445
3012	0.080823
3008	0.047850
3004	0.063443
3000	0.065374
2996	0.016355
2992	-0.035166
2988	-0.041079
2984	0.000667
2980	0.020289
2976	-0.002932
2972	-0.008487
2968	-0.015783
2964	-0.055050
2960	-0.051879
2956	-0.020384
2952	-0.030279
2948	-0.036072
2944	-0.004172
2940	0.030040
2936	0.061225
2932	0.100207
2928	0.116777
2924	0.098752
2920	0.112247
2916	0.166773
2912	0.184893
2908	0.120663
2904	0.023198
2900	-0.016736
2896	0.012731
2892	0.027894
2888	0.006103
2884	-0.001335
2880	-0.008845
2876	-0.042486
2872	-0.024580
2868	0.059723
2864	0.075650
2860	-0.001811
2856	-0.055146
2852	-0.051832
2848	-0.009775
2844	0.027656
2840	0.000572
2836	-0.026941
2832	0.008201
2828	0.018668
2824	-0.013732
2820	0.010418
2816	0.078392
2812	0.081443
2808	0.038051
2804	0.026178
2800	0.052809
2796	0.084328
2792	0.046920
2788	-0.007271
2784	0.037932
2780	0.085473
2776	0.039792
2772	-0.015568
2768	-0.014448
2764	0.006890
2760	0.027585
2756	0.051903
2752	0.035142
2748	-0.010824
2744	-0.044655
2740	-0.049424
2736	-0.029778
2732	-0.011539
2728	-0.003385
2724	0.020503
2720	0.062894
2716	0.092697
2712	0.084257
2708	0.056624
2704	0.048542
2700	0.043487
2696	0.029993
2692	0.010895
2688	0.039601
2684	0.102639
2680	0.111198
2676	0.094819
2672	0.080752
2668	0.071215
2664	0.074005
2660	0.067496
2656	0.053906
2652	0.061917
2648	0.097465
2644	0.099587
2640	0.029993
2636	-0.022625
2632	-0.011444
2628	0.021457
2624	0.084424
2620	0.143718
2616	0.142645
2612	0.096154
2608	0.038814
2604	0.019788
2600	0.071167
2596	0.121521
2592	0.107622
2588	0.073695
2584	0.003671
2580	-0.086092
2576	-0.076293
2572	-0.009417
2568	0.035834
2564	0.087547
2560	0.116086
2556	0.083136
2552	0.017452
2548	-0.032830
2544	-0.038957
2540	-0.008511
2536	0.018262
2532	0.011467
2528	-0.020098
2524	-0.068974
2520	-0.063228
2516	0.051212
2512	0.141620
2508	0.146555
2504	0.176501
2500	0.203227
2496	0.132155
2492	0.032782
2488	0.013947
2484	0.040674
2480	0.043678
2476	0.032639
2472	0.068020
2468	0.110435
2464	0.084233
2460	0.080871
2456	0.128579
2452	0.156903
2448	0.139474
2444	0.075030
2440	0.026154
2436	0.038671
2432	0.088143
2428	0.151085
2424	0.219798
2420	0.234913
2416	0.189638
2412	0.187897
2408	0.166916
2404	0.069260
2400	0.053381
2396	0.130724
2392	0.180912
2388	0.217819
2384	0.261688
2380	0.241994
2376	0.179123
2372	0.140619
2368	0.111436
2364	0.112533
2360	0.182294
2356	0.284194
2352	0.363993
2348	0.414752
2344	0.475025
2340	0.552511
2336	0.575137
2332	0.567579
2328	0.634264
2324	0.723338
2320	0.772833
2316	0.846672
2312	0.967335
2308	1.080441
2304	1.151561
2300	1.174569
2296	1.207304
2292	1.346063
2288	1.566338
2284	1.724433
2280	1.753282
2276	1.797342
2272	1.961755
2268	2.154254
2264	2.355813
2260	2.582097
2256	2.758622
2252	2.901458
2248	3.090000
2244	3.310346
2240	3.498387
2236	3.660392
2232	3.840875
2228	4.073548
2224	4.371714
2220	4.693436
2216	5.036544
2212	5.395340
2208	5.716419
2204	6.014537
2200	6.322073
2196	6.643605
2192	6.963491
2188	7.321786
2184	7.784175
2180	8.267784
2176	8.691120
2172	9.091949
2168	9.493994
2164	9.922194
2160	10.358
2156	10.7776
2152	11.2424
2148	11.7623
2144	12.2964
2140	12.796
2136	13.237
2132	13.6766
2128	14.1675
2124	14.6548
2120	15.112
2116	15.5924
2112	16.0925
2108	16.6158
2104	17.1107
2100	17.5396
2096	17.9939
2092	18.4941
2088	18.9829
2084	19.4483
2080	19.8985
2076	20.3299
2072	20.7554
2068	21.1374
2064	21.505
2060	21.9693
2056	22.444
2052	22.846
2048	23.225
2044	23.5924
2040	23.9443
2036	24.323
2032	24.7238
2028	25.0689
2024	25.3904
2020	25.7344
2016	26.0703
2012	26.3909
2008	26.7165
2004	27.0212
2000	27.2717
1996	27.5538
1992	27.8527
1988	28.0886
1984	28.3418
1980	28.6074
1976	28.8031
1972	28.9962
1968	29.2349
1964	29.4624
1960	29.6873
1956	29.9262
1952	30.1414
1948	30.3431
1944	30.5405
1940	30.7045
1936	30.8324
1932	30.9535
1928	31.1356
1924	31.3865
1920	31.6012
1916	31.7394
1912	31.835
1908	31.9104
1904	32.0154
1900	32.1522
1896	32.2921
1892	32.4521
1888	32.5956
1884	32.7161
1880	32.8618
1876	32.9869
1872	33.1017
1868	33.2428
1864	33.3374
1860	33.3852
1856	33.4542
1852	33.5632
1848	33.6567
1844	33.6891
1840	33.7296
1836	33.8222
1832	33.9338
1828	34.034
1824	34.1271
1820	34.2199
1816	34.2937
1812	34.3644
1808	34.4365
1804	34.4936
1800	34.5496
1796	34.6017
1792	34.6217
1788	34.6414
1784	34.6974
1780	34.7491
1776	34.795
1772	34.8475
1768	34.8879
1764	34.9144
1760	34.935
1756	34.9525
1752	34.9886
1748	35.0564
1744	35.0981
1740	35.1155
1736	35.1804
1732	35.2727
1728	35.3385
1724	35.3774
1720	35.419
1716	35.473
1712	35.4867
1708	35.4668
1704	35.4932
1700	35.5677
1696	35.6244
1692	35.6565
1688	35.699
1684	35.7499
1680	35.7617
1676	35.7373
1672	35.7187
1668	35.7001
1664	35.7067
1660	35.7313
1656	35.7417
1652	35.7677
1648	35.8049
1644	35.835
1640	35.8498
1636	35.8773
1632	35.9267
1628	35.9472
1624	35.9439
1620	35.9277
1616	35.9358
1612	35.9716
1608	35.9642
1604	35.9401
1600	35.9543
1596	36.0188
1592	36.1004
1588	36.0976
1584	36.014
1580	35.9607
1576	35.9688
1572	36.0305
1568	36.1216
1564	36.173
1560	36.1596
1556	36.1442
1552	36.1506
1548	36.1567
1544	36.2058
1540	36.273
1536	36.2595
1532	36.1784
1528	36.0902
1524	35.9993
1520	35.9466
1516	35.9671
1512	36.0125
1508	36.0841
1504	36.1613
1500	36.1544
1496	36.0902
1492	36.0794
1488	36.1631
1484	36.2588
1480	36.2744
1476	36.2261
1472	36.1706
1468	36.167
1464	36.2147
1460	36.196
1456	36.1146
1452	36.088
1448	36.0248
1444	35.8779
1440	35.8533
1436	35.9574
1432	36.0373
1428	36.091
1424	36.1468
1420	36.1858
1416	36.197
1412	36.1872
1408	36.1619
1404	36.1446
1400	36.1148
1396	36.0846
1392	36.0578
1388	35.949
1384	35.8524
1380	35.8994
1376	35.9693
1372	35.9622
1368	35.969
1364	36.0023
1360	35.9642
1356	35.9286
1352	35.9879
1348	36.0241
1344	36.008
1340	36.0265
1336	36.0421
1332	35.9995
1328	35.9587
1324	35.9386
1320	35.8603
1316	35.7428
1312	35.6527
1308	35.6271
1304	35.6646
1300	35.7131
1296	35.7411
1292	35.7615
1288	35.8144
1284	35.858
1280	35.8489
1276	35.8668
1272	35.9231
1268	35.9371
1264	35.901
1260	35.8177
1256	35.7029
1252	35.6143
1248	35.5296
1244	35.4789
1240	35.5088
1236	35.5407
1232	35.5762
1228	35.6341
1224	35.6755
1220	35.694
1216	35.7323
1212	35.8217
1208	35.8769
1204	35.823
1200	35.7075
1196	35.6049
1192	35.5613
1188	35.6032
1184	35.6475
1180	35.5411
1176	35.3407
1172	35.194
1168	35.2158
1164	35.3379
1160	35.3551
1156	35.3008
1152	35.3714
1148	35.5235
1144	35.605
1140	35.6133
1136	35.6011
1132	35.6054
1128	35.5986
1124	35.536
1120	35.4082
1116	35.2681
1112	35.1963
1108	35.1888
1104	35.1794
1100	35.0988
1096	35.0058
1092	34.9917
1088	35.063
1084	35.1593
1080	35.1689
1076	35.1364
1072	35.2023
1068	35.3098
1064	35.3318
1060	35.2512
1056	35.1321
1052	35.0716
1048	35.0722
1044	35.028
1040	34.9105
1036	34.8315
1032	34.8425
1028	34.8595
1024	34.8327
1020	34.8267
1016	34.9188
1012	35.0376
1008	35.059
1004	35.0353
1000	35.0609
996	 35.0566
992	 34.9773
988	 34.9143
984	 34.8748
980	 34.7684
976	 34.5972
972	 34.4567
968	 34.3567
964	 34.268
960	 34.2211
956	 34.2045
952	 34.247
948	 34.3762
944	 34.5158
940	 34.621
936	 34.6787
932	 34.6862
928	 34.6605
924	 34.6141
920	 34.5252
916	 34.3946
912	 34.2491
908	 34.1183
904	 33.9988
900	 33.8346
896	 33.7484
892	 33.7809
888	 33.7473
884	 33.7232
880	 33.85
876	 34.006
872	 34.0877
868	 34.1452
864	 34.1517
860	 33.9828
856	 33.7308
852	 33.6601
848	 33.7364
844	 33.7298
840	 33.6186
836	 33.468
832	 33.322
828	 33.2202
824	 33.1378
820	 33.032
816	 33.0077
812	 33.1217
808	 33.2092
804	 33.2546
800	 33.373
796	 33.4618
792	 33.388
788	 33.2541
784	 33.2098
780	 33.156
776	 32.9411
772	 32.7623
768	 32.6561
764	 32.4299
760	 32.2737
756	 32.2896
752	 32.3359
748	 32.3106
744	 32.1969
740	 32.1882
736	 32.3366
732	 32.4917
728	 32.5265
724	 32.5352
720	 32.6978
716	 32.7819
712	 32.6263
708	 32.4185
704	 32.2983
700	 32.2211
696	 32.0499
692	 31.9059
688	 31.8081
684	 31.5718
680	 31.348
676	 31.2976
672	 31.404
668	 31.6302
664	 31.9008
660	 32.0821
656	 31.9922
652	 31.6806
648	 31.5009
644	 31.4908
640	 31.4692
636	 31.2796
632	 30.8285
628	 30.5015
624	 30.4368
620	 30.3682
616	 30.2468
612	 30.1954
608	 30.2563
604	 30.2896
600	 30.3673
596	 30.4718
592	 30.4688
588	 30.5251
584	 30.5675
580	 30.4383
576	 30.309
572	 30.3438
568	 30.4237
564	 30.1286
560	 29.4979
556	 29.0088
552	 28.7388
548	 28.5552
544	 28.3818
540	 28.2868
536	 28.3213
532	 28.3261
528	 28.4065
524	 28.6218
520	 28.6337
516	 28.3849
512	 28.3839
508	 28.7605
504	 28.9229
500	 28.9452
496	 28.88
492	 28.3118
488	 27.5393
484	 26.8375
480	 26.4514
476	 26.5407
472	 26.7525
468	 26.7661
464	 26.7239
460	 27.0517
456	 27.1929
452	 26.6235
448	 26.3057
444	 26.7272
440	 26.961
436	 26.7229
432	 25.9604
428	 24.1611
424	 22.9778
420	 23.186
416	 22.7174
412	 22.2265
408	 23.4024
404	 25.7982
400	 27.3623
396	 25.9171
392	 24.2893
388	 22.8084
384	 15.4268
380	 3.807568
376	 -9.457302
372	 -14.58
370	 -13.4161