File: Bakgrunnsmateriale/MATLAB/FTIR/ftir_data/LPE453/Mapping_121/LPE453_t100_cm-1.asc
PE IR       SPECTRUM    SPECTRUM    ASCII       PEDS        1.60
  -1
LP0378~1.ASC
17/05/16
22:34:57.00
17/05/16
22:34:57.00
tln
$LPE453_t0100$<tbV0>[13.0,10.4,8.0,0.0,27,1,0]
370
64

2002,4.07
MIRTGS : RIGHTBACK : INTERNAL 2
MIR : ON : INTERNAL 2
OPTKBR

0.200000
8
8.000000
FILLER
RATIO
SPECTRUM
UNLOCKED 256

DOUBLE
64
COMBINED
1
0
0

1.000000
RATIO

1
0
TRUE
51149
0
LEFT NOT FITTED RIGHT NOT FITTED 0
NONE
NONE
15600
12
4.427000
51148
TRUE
1 0 8 72 0 0 0 0

15798

#HDR
-1
-1
#GR
CM-1
%T
2.38419e-05
0.0
5000
-1.000000
4631
8
24.573
-10.2397
#DATA
5000	0.186824
4996	0.028538
4992	-0.157761
4988	-0.066852
4984	0.265049
4980	0.512886
4976	0.477600
4972	0.205993
4968	-0.101089
4964	-0.103187
4960	0.148034
4956	0.206494
4952	0.113272
4948	0.108146
4944	0.095868
4940	0.089621
4936	0.197005
4932	0.185799
4928	-0.009202
4924	-0.094747
4920	0.019788
4916	0.220894
4912	0.330710
4908	0.203943
4904	0.025725
4900	-0.117182
4896	-0.215125
4892	-0.124382
4888	-0.029087
4884	0.049710
4880	0.310230
4876	0.544786
4872	0.487470
4868	0.195980
4864	-0.059127
4860	-0.089406
4856	-0.094962
4852	-0.174736
4848	-0.156927
4844	-0.012969
4840	0.057196
4836	0.031161
4832	-0.007486
4828	0.046873
4824	0.286889
4820	0.381469
4816	0.251078
4812	0.196576
4808	0.182151
4804	0.184011
4800	0.250411
4796	0.288677
4792	0.244450
4788	0.159263
4784	0.080704
4780	0.040292
4776	0.105834
4772	0.173282
4768	0.067162
4764	-0.047969
4760	0.015234
4756	0.255537
4752	0.553464
4748	0.629925
4744	0.462055
4740	0.232505
4736	0.085282
4732	0.106430
4728	0.191736
4724	0.162672
4720	-0.042748
4716	-0.332117
4712	-0.250172
4708	-0.011873
4704	-0.119805
4700	-0.148200
4696	0.034999
4692	0.422334
4688	0.688815
4684	0.306868
4680	-0.068283
4676	0.207042
4672	0.472807
4668	0.111389
4664	0.192952
4660	0.900316
4656	1.083850
4652	0.805306
4648	0.265383
4644	0.244975
4640	0.870490
4636	0.714325
4632	0.027036
4628	-0.503015
4624	-0.730276
4620	-0.020384
4616	1.168894
4612	1.679396
4608	1.286864
4604	0.485086
4600	0.174498
4596	0.488972
4592	0.806879
4588	0.869345
4584	0.579452
4580	0.372242
4576	0.254034
4572	-0.187921
4568	-0.469708
4564	-0.413560
4560	-0.281929
4556	-0.130844
4552	-0.185418
4548	-0.489521
4544	-0.620102
4540	-0.546312
4536	-0.529313
4532	-0.323104
4528	-0.007534
4524	0.187158
4520	0.365686
4516	0.321483
4512	-0.120878
4508	1.354742
4504	5.193424
4500	6.677484
4496	4.849648
4492	1.325869
4488	-2.153897
4484	-2.097988
4480	-0.601601
4476	-0.407576
4472	-0.778484
4468	-0.578069
4464	-0.021314
4460	0.150561
4456	0.360083
4452	0.151824
4448	-0.265049
4444	-0.161337
4440	0.182580
4436	0.146293
4432	-0.153875
4428	-0.253009
4424	-0.180888
4420	-0.026369
4416	0.008797
4412	-0.038790
4408	0.079846
4404	0.162291
4400	0.091218
4396	-0.020384
4392	-0.146198
4388	-0.251555
4384	-0.069069
4380	0.482654
4376	0.805711
4372	0.491333
4368	0.019288
4364	-0.152087
4360	-0.159358
4356	-0.050282
4352	0.194001
4348	0.410771
4344	0.471591
4340	0.403404
4336	0.356388
4332	0.411272
4328	0.502395
4324	0.484776
4320	0.366616
4316	0.358700
4312	0.431609
4308	0.299787
4304	0.040292
4300	0.055956
4296	0.238108
4292	0.349164
4288	0.424790
4284	0.216484
4280	-0.136685
4276	-0.072693
4272	0.240874
4268	0.327730
4264	0.214719
4260	0.089240
4256	-0.073909
4252	-0.209212
4248	-0.173139
4244	-0.040793
4240	-0.004339
4236	0.105142
4232	0.228977
4228	0.103402
4224	-0.079154
4220	-0.090098
4216	0.081253
4212	0.226950
4208	0.257968
4204	0.270986
4200	0.266194
4196	0.245428
4192	0.189161
4188	0.101089
4184	-0.000381
4180	-0.019669
4176	0.013327
4172	0.031781
4168	0.135302
4164	0.163125
4160	0.053405
4156	0.031018
4152	0.076699
4148	0.044250
4144	0.027918
4140	0.067329
4136	0.080108
4132	0.122499
4128	0.169181
4124	0.137662
4120	0.097703
4116	0.064325
4112	-0.035667
4108	-0.123500
4104	-0.055551
4100	0.084304
4096	0.145053
4092	0.192618
4088	0.175142
4084	0.106048
4080	0.072073
4076	0.046324
4072	-0.000739
4068	-0.071120
4064	-0.066328
4060	0.013566
4056	0.020599
4052	0.040316
4048	0.166320
4044	0.133466
4040	-0.112962
4036	-0.232958
4032	-0.107431
4028	0.140142
4024	0.341558
4020	0.312399
4016	0.144720
4012	0.138950
4008	0.198245
4004	0.153660
4000	0.129747
3996	0.150370
3992	0.153803
3988	0.060796
3984	-0.089216
3980	-0.129389
3976	-0.085949
3972	-0.074434
3968	-0.094628
3964	-0.076794
3960	0.001430
3956	0.036168
3952	-0.015354
3948	0.036478
3944	0.198197
3940	0.212931
3936	0.150442
3932	0.162458
3928	0.123858
3924	0.099682
3920	0.209808
3916	0.295019
3912	0.235843
3908	0.126600
3904	0.079250
3900	0.129485
3896	0.238728
3892	0.273585
3888	0.264811
3884	0.286436
3880	0.201034
3876	0.082588
3872	0.096774
3868	0.127267
3864	0.042653
3860	-0.056576
3856	-0.048828
3852	-0.006175
3848	-0.012445
3844	-0.030183
3840	-0.042152
3836	-0.056529
3832	-0.010371
3828	0.030088
3824	-0.022268
3820	-0.002717
3816	0.097346
3812	0.097894
3808	0.038051
3804	0.033521
3800	0.104951
3796	0.152206
3792	0.057363
3788	-0.055980
3784	-0.009465
3780	0.112605
3776	0.156188
3772	0.096917
3768	0.019145
3764	-0.004482
3760	0.037193
3756	0.088953
3752	0.128316
3748	0.188899
3744	0.162649
3740	0.045180
3736	-0.026202
3732	-0.060343
3728	-0.090265
3724	-0.086331
3720	-0.037932
3716	0.034928
3712	0.065374
3708	0.033926
3704	0.020360
3700	0.094890
3696	0.125646
3692	0.068616
3688	0.059676
3684	0.026679
3680	-0.025033
3676	-0.014472
3672	0.003576
3668	0.045323
3664	0.087738
3660	0.056338
3656	-0.017690
3652	-0.050711
3648	0.012278
3644	0.088500
3640	0.111055
3636	0.119876
3632	0.099205
3628	0.048327
3624	0.011849
3620	0.040054
3616	0.085878
3612	0.077152
3608	0.042366
3604	-0.003814
3600	-0.013256
3596	0.024008
3592	0.082707
3588	0.103211
3584	0.052094
3580	0.058889
3576	0.078225
3572	0.011539
3568	-0.056147
3564	-0.097274
3560	-0.104570
3556	0.014066
3552	0.166630
3548	0.144052
3544	0.073242
3540	0.109267
3536	0.161910
3532	0.107693
3528	-0.060510
3524	-0.129795
3520	-0.026273
3516	0.059247
3512	0.068378
3508	0.060057
3504	0.001311
3500	-0.077199
3496	-0.089669
3492	-0.081396
3488	-0.074434
3484	-0.046277
3480	-0.023794
3476	0.003528
3472	0.058293
3468	0.080561
3464	0.070238
3460	0.128507
3456	0.147318
3452	0.062966
3448	0.014972
3444	-0.003623
3440	0.000500
3436	0.056767
3432	0.061655
3428	0.015258
3424	-0.007796
3420	-0.021171
3416	0.015425
3412	0.100326
3408	0.146341
3404	0.199413
3400	0.219106
3396	0.056958
3392	-0.104308
3388	-0.039935
3384	0.115942
3380	0.183629
3376	0.142693
3372	0.053453
3368	-0.021266
3364	-0.045585
3360	-0.018262
3356	0.026106
3352	0.057911
3348	0.021481
3344	-0.027799
3340	0.014853
3336	0.026440
3332	-0.025129
3328	-0.033497
3324	-0.006508
3320	0.038599
3316	0.031280
3312	-0.065636
3308	-0.161552
3304	-0.128579
3300	-0.002551
3296	0.034689
3292	0.026178
3288	0.101470
3284	0.206041
3280	0.211071
3276	0.109362
3272	0.034189
3268	0.019192
3264	0.055742
3260	0.138759
3256	0.168323
3252	0.133180
3248	0.096654
3244	0.078439
3240	0.090193
3236	0.111436
3232	0.076127
3228	-0.034761
3224	-0.098848
3220	-0.055694
3216	0.036787
3212	0.090003
3208	0.105524
3204	0.149178
3200	0.154447
3196	0.097155
3192	0.016164
3188	-0.076484
3184	-0.118231
3180	-0.067138
3176	0.047945
3172	0.117015
3168	0.086712
3164	0.077962
3160	0.132894
3156	0.117444
3152	0.051689
3148	0.054287
3144	0.028109
3140	-0.030136
3136	-0.018811
3132	0.002789
3128	0.044989
3124	0.109910
3120	0.165820
3116	0.195407
3112	0.137948
3108	0.082492
3104	0.067377
3100	0.032329
3096	-0.015974
3092	-0.049281
3088	-0.072908
3084	-0.081324
3080	-0.030040
3076	-0.011086
3072	-0.040674
3068	0.010538
3064	0.080132
3060	0.080513
3056	0.067591
3052	0.042533
3048	0.043034
3044	0.087380
3040	0.093865
3036	0.089240
3032	0.112509
3028	0.131201
3024	0.112724
3020	0.036573
3016	-0.044107
3012	-0.105094
3008	-0.091457
3004	0.004911
3000	0.036382
2996	-0.019526
2992	-0.068402
2988	-0.045847
2984	0.016307
2980	0.038290
2976	0.044989
2972	0.055694
2968	0.046086
2964	0.050544
2960	0.058293
2956	0.042176
2952	0.026392
2948	-0.004529
2944	-0.012660
2940	-0.004935
2936	-0.023078
2932	0.001931
2928	0.082802
2924	0.113058
2920	0.062441
2916	0.013256
2912	-0.001788
2908	0.001788
2904	-0.007557
2900	0.023412
2896	0.083947
2892	0.072455
2888	0.016570
2884	-0.024580
2880	0.008177
2876	0.046920
2872	-0.010490
2868	-0.061178
2864	-0.045037
2860	-0.059509
2856	-0.110888
2852	-0.082898
2848	0.005054
2844	0.052142
2840	0.065422
2836	0.050640
2832	0.013399
2828	0.000953
2824	0.016331
2820	0.042963
2816	0.052857
2812	0.033855
2808	-0.006031
2804	-0.048208
2800	-0.028419
2796	0.039148
2792	0.088906
2788	0.099349
2784	0.066256
2780	0.030326
2776	0.034379
2772	0.052046
2768	0.074148
2764	0.099658
2760	0.090599
2756	0.057053
2752	0.034618
2748	0.044560
2744	0.052022
2740	0.017237
2736	-0.012445
2732	0.011277
2728	0.057077
2724	0.063681
2720	0.054311
2716	0.057673
2712	0.039219
2708	-0.000977
2704	-0.050687
2700	-0.123119
2696	-0.149774
2692	-0.095438
2688	-0.003957
2684	0.045752
2680	0.038337
2676	0.051641
2672	0.050306
2668	0.038790
2664	0.072312
2660	0.109887
2656	0.121736
2652	0.088381
2648	0.009131
2644	-0.043749
2640	-0.046706
2636	-0.062537
2632	-0.072956
2628	-0.009393
2624	0.066900
2620	0.045061
2616	-0.010728
2612	0.006985
2608	0.087499
2604	0.107669
2600	0.009965
2596	-0.051593
2592	-0.015616
2588	0.027084
2584	0.061988
2580	0.120306
2576	0.150442
2572	0.105214
2568	0.081634
2564	0.090932
2560	0.040340
2556	0.000572
2552	-0.013899
2548	-0.028133
2544	0.020813
2540	0.074815
2536	0.079178
2532	0.061464
2528	0.007843
2524	-0.055384
2520	-0.067019
2516	-0.031971
2512	-0.005102
2508	0.038290
2504	0.125002
2500	0.127077
2496	0.031089
2492	-0.035977
2488	-0.028657
2484	0.018692
2480	0.031471
2476	0.031423
2472	0.052046
2468	0.039362
2464	-0.021624
2460	-0.062060
2456	-0.054121
2452	-0.046515
2448	-0.024628
2444	0.017809
2440	0.075268
2436	0.092172
2432	0.046038
2428	0.083208
2424	0.191617
2420	0.255060
2416	0.242209
2412	0.174069
2408	0.053215
2404	-0.052618
2400	0.028443
2396	0.139999
2392	0.107431
2388	0.080251
2384	0.099110
2380	0.065970
2376	0.007891
2372	-0.030112
2368	-0.056719
2364	-0.081777
2360	-0.064730
2356	0.010943
2352	0.066113
2348	0.049591
2344	-0.003194
2340	0.006937
2336	0.065255
2332	0.059533
2328	0.005578
2324	-0.022244
2320	0.012040
2316	0.041961
2312	-0.002741
2308	-0.056695
2304	-0.052118
2300	0.023865
2296	0.122761
2292	0.146913
2288	0.096631
2284	0.037813
2280	0.023746
2276	0.056219
2272	0.089263
2268	0.107145
2264	0.115728
2260	0.117969
2256	0.134134
2252	0.193142
2248	0.274872
2244	0.356602
2240	0.415754
2236	0.433802
2232	0.457191
2228	0.517940
2224	0.586152
2220	0.659942
2216	0.770735
2212	0.904583
2208	1.031064
2204	1.130867
2200	1.190543
2196	1.231861
2192	1.338934
2188	1.518464
2184	1.649975
2180	1.743268
2176	1.893854
2172	2.063512
2168	2.222323
2164	2.385234
2160	2.559304
2156	2.797889
2152	3.102445
2148	3.427886
2144	3.710174
2140	3.920459
2136	4.106259
2132	4.322981
2128	4.605555
2124	4.893517
2120	5.136919
2116	5.425667
2112	5.780243
2108	6.112957
2104	6.453680
2100	6.819963
2096	7.172751
2092	7.504415
2088	7.770371
2084	8.061814
2080	8.464288
2076	8.874583
2072	9.218311
2068	9.516191
2064	9.816551
2060	10.127
2056	10.4664
2052	10.8544
2048	11.1987
2044	11.4892
2040	11.8118
2036	12.143
2032	12.4386
2028	12.7324
2024	13.0492
2020	13.3619
2016	13.6416
2012	13.9102
2008	14.2185
2004	14.5272
2000	14.8104
1996	15.1306
1992	15.4501
1988	15.7023
1984	15.948
1980	16.2283
1976	16.4847
1972	16.7145
1968	16.9419
1964	17.1572
1960	17.3847
1956	17.6187
1952	17.8463
1948	18.0614
1944	18.246
1940	18.3988
1936	18.5575
1932	18.7779
1928	18.9878
1924	19.1481
1920	19.3524
1916	19.5495
1912	19.6824
1908	19.8529
1904	20.057
1900	20.201
1896	20.2783
1892	20.361
1888	20.4992
1884	20.6842
1880	20.8654
1876	21.0121
1872	21.1231
1868	21.2057
1864	21.2957
1860	21.423
1856	21.5747
1852	21.7022
1848	21.8257
1844	21.913
1840	21.9507
1836	22.0483
1832	22.1708
1828	22.2347
1824	22.3053
1820	22.43
1816	22.5281
1812	22.5602
1808	22.5813
1804	22.6539
1800	22.771
1796	22.8728
1792	22.9382
1788	22.9611
1784	22.9964
1780	23.0843
1776	23.1468
1772	23.1803
1768	23.2256
1764	23.2403
1760	23.2577
1756	23.3487
1752	23.4637
1748	23.525
1744	23.5362
1740	23.5537
1736	23.5944
1732	23.6562
1728	23.7561
1724	23.8356
1720	23.8334
1716	23.8197
1712	23.8392
1708	23.84
1704	23.8352
1700	23.8405
1696	23.857
1692	23.9335
1688	24.0414
1684	24.0993
1680	24.0882
1676	24.0565
1672	24.0877
1668	24.1643
1664	24.1641
1660	24.1292
1656	24.1827
1652	24.2629
1648	24.2808
1644	24.2902
1640	24.3065
1636	24.286
1632	24.2676
1628	24.3138
1624	24.4245
1620	24.4888
1616	24.4603
1612	24.4382
1608	24.4405
1604	24.4424
1600	24.422
1596	24.3758
1592	24.3889
1588	24.4294
1584	24.4225
1580	24.395
1576	24.3768
1572	24.3956
1568	24.4443
1564	24.4832
1560	24.4678
1556	24.4555
1552	24.5067
1548	24.521
1544	24.4752
1540	24.4321
1536	24.4002
1532	24.417
1528	24.4471
1524	24.4158
1520	24.3835
1516	24.4196
1512	24.4779
1508	24.5291
1504	24.5715
1500	24.5385
1496	24.4201
1492	24.352
1488	24.431
1484	24.5074
1480	24.4897
1476	24.4591
1472	24.4245
1468	24.4028
1464	24.4634
1460	24.4948
1456	24.4133
1452	24.421
1448	24.4913
1444	24.4326
1440	24.3343
1436	24.2823
1432	24.2693
1428	24.2956
1424	24.3463
1420	24.3468
1416	24.2747
1412	24.2504
1408	24.3214
1404	24.3865
1400	24.3581
1396	24.2522
1392	24.1542
1388	24.1466
1384	24.2058
1380	24.2317
1376	24.2191
1372	24.2063
1368	24.2041
1364	24.2405
1360	24.2718
1356	24.2543
1352	24.2449
1348	24.238
1344	24.1819
1340	24.1192
1336	24.1001
1332	24.1401
1328	24.1774
1324	24.1305
1320	24.0721
1316	24.0475
1312	24.037
1308	24.0396
1304	24.0272
1300	24.0333
1296	24.0736
1292	24.0568
1288	23.9609
1284	23.9119
1280	23.9148
1276	23.8833
1272	23.8601
1268	23.8356
1264	23.7921
1260	23.7643
1256	23.7179
1252	23.6986
1248	23.7467
1244	23.7641
1240	23.7457
1236	23.7444
1232	23.6724
1228	23.5615
1224	23.5759
1220	23.6675
1216	23.7199
1212	23.7388
1208	23.7351
1204	23.6985
1200	23.6467
1196	23.6092
1192	23.5876
1188	23.5902
1184	23.5915
1180	23.5245
1176	23.4736
1172	23.5175
1168	23.5445
1164	23.5134
1160	23.509
1156	23.4899
1152	23.389
1148	23.303
1144	23.2852
1140	23.2474
1136	23.1908
1132	23.2164
1128	23.2808
1124	23.2887
1120	23.2648
1116	23.2422
1112	23.1763
1108	23.128
1104	23.1749
1100	23.2079
1096	23.1867
1092	23.1638
1088	23.157
1084	23.146
1080	23.1155
1076	23.0885
1072	23.0326
1068	22.9256
1064	22.8396
1060	22.8842
1056	22.9651
1052	22.8695
1048	22.7494
1044	22.7709
1040	22.7781
1036	22.7475
1032	22.7635
1028	22.7888
1024	22.6977
1020	22.5216
1016	22.4681
1012	22.4878
1008	22.4338
1004	22.4077
1000	22.4493
996	 22.4571
992	 22.4032
988	 22.3403
984	 22.3166
980	 22.3082
976	 22.1977
972	 22.0627
968	 22.0182
964	 22.0031
960	 22.0412
956	 22.1072
952	 22.1481
948	 22.1404
944	 22.0202
940	 21.8504
936	 21.7612
932	 21.7479
928	 21.6735
924	 21.5924
920	 21.6362
916	 21.6769
912	 21.6729
908	 21.5858
904	 21.4011
900	 21.3409
896	 21.3524
892	 21.312
888	 21.3299
884	 21.3559
880	 21.2207
876	 21.0311
872	 20.986
868	 21.0453
864	 21.0947
860	 21.0375
856	 20.9159
852	 20.7862
848	 20.581
844	 20.4925
840	 20.6163
836	 20.7097
832	 20.6131
828	 20.366
824	 20.1791
820	 20.143
816	 20.1456
812	 20.117
808	 20.058
804	 20.0298
800	 20.0725
796	 20.092
792	 19.9754
788	 19.73
784	 19.5168
780	 19.5024
776	 19.5828
772	 19.5299
768	 19.3746
764	 19.3048
760	 19.3369
756	 19.3423
752	 19.3389
748	 19.4113
744	 19.4323
740	 19.3057
736	 19.1133
732	 18.908
728	 18.794
724	 18.7809
720	 18.7088
716	 18.6623
712	 18.6666
708	 18.6458
704	 18.6488
700	 18.6728
696	 18.6002
692	 18.3028
688	 18.0915
684	 18.0899
680	 17.9958
676	 17.9116
672	 17.9309
668	 17.8475
664	 17.6354
660	 17.4842
656	 17.4459
652	 17.3999
648	 17.2707
644	 17.1125
640	 17.0066
636	 17.0185
632	 17.099
628	 16.9616
624	 16.6763
620	 16.6276
616	 16.7649
612	 16.7053
608	 16.3679
604	 16.1536
600	 16.1353
596	 16.1685
592	 16.1827
588	 15.9819
584	 15.6384
580	 15.3698
576	 15.3089
572	 15.4001
568	 15.4189
564	 15.38
560	 15.4104
556	 15.2009
552	 14.6237
548	 14.3019
544	 14.3365
540	 14.3508
536	 14.4638
532	 14.4297
528	 14.1686
524	 14.126
520	 13.9024
516	 13.5101
512	 13.6972
508	 14.1343
504	 14.2252
500	 13.8459
496	 13.0551
492	 12.3427
488	 12.1951
484	 12.5632
480	 12.9439
476	 12.9431
472	 12.9719
468	 13.1944
464	 13.0853
460	 12.9256
456	 12.8297
452	 12.2526
448	 11.9162
444	 12.0099
440	 11.9269
436	 12.0464
432	 12.0966
428	 10.9573
424	 8.347988
420	 6.235194
416	 6.202507
412	 6.863856
408	 6.655788
404	 5.848145
400	 4.329276
396	 0.287818
392	 -2.912521
388	 1.731443
384	 7.635903
380	 2.389430
376	 -6.925296
372	 -9.920716
370	 -10.2397