File: Bakgrunnsmateriale/MATLAB/FTIR/ftir_data/LPE453/Mapping_121/LPE453_t97_cm-1.asc
PE IR       SPECTRUM    SPECTRUM    ASCII       PEDS        1.60
  -1
LPEBDB~1.ASC
17/05/16
22:20:30.00
17/05/16
22:20:30.00
tln
$LPE453_t0097$<tbV0>[-7.8,7.8,8.0,0.0,27,1,0]
370
64

2002,4.07
MIRTGS : RIGHTBACK : INTERNAL 2
MIR : ON : INTERNAL 2
OPTKBR

0.200000
8
8.000000
FILLER
RATIO
SPECTRUM
UNLOCKED 256

DOUBLE
64
COMBINED
1
0
0

1.000000
RATIO

1
0
TRUE
51149
0
LEFT NOT FITTED RIGHT NOT FITTED 0
NONE
NONE
15600
12
4.427000
51148
TRUE
1 0 8 72 0 0 0 0

15798

#HDR
-1
-1
#GR
CM-1
%T
2.38419e-05
0.0
5000
-1.000000
4631
8
36.8793
-13.4294
#DATA
5000	-0.334215
4996	-0.374484
4992	-0.210714
4988	-0.036692
4984	0.032663
4980	-0.160145
4976	-0.256848
4972	-0.021505
4968	0.172162
4964	0.149202
4960	0.139689
4956	0.221872
4952	0.060915
4948	-0.170826
4944	-0.069832
4940	-0.064587
4936	-0.111007
4932	0.137281
4928	0.262761
4924	0.116658
4920	0.038909
4916	0.074648
4912	0.034379
4908	-0.010991
4904	0.113034
4900	0.240516
4896	0.362777
4892	0.687527
4888	0.729799
4884	0.373792
4880	0.144791
4876	0.054860
4872	0.095605
4868	0.184273
4864	0.238442
4860	0.495314
4856	0.781822
4852	0.784134
4848	0.591039
4844	0.328946
4840	0.097918
4836	-0.011062
4832	-0.069451
4828	-0.017380
4824	0.193905
4820	0.400018
4816	0.572991
4812	0.572419
4808	0.317645
4804	0.171089
4800	0.329399
4796	0.530743
4792	0.573205
4788	0.432991
4784	0.192356
4780	0.106716
4776	0.186562
4772	0.206923
4768	0.302720
4764	0.490903
4760	0.535273
4756	0.637149
4752	0.756168
4748	0.675630
4744	0.504899
4740	0.394487
4736	0.122690
4732	-0.286650
4728	-0.454545
4724	-0.524258
4720	-0.612735
4716	-0.793838
4712	-0.806832
4708	-0.325417
4704	0.400257
4700	0.833368
4696	0.479269
4692	0.086474
4688	0.236868
4684	0.428962
4680	0.583791
4676	1.057672
4672	1.523160
4668	1.283216
4664	1.189684
4660	1.850700
4656	1.387906
4652	0.007462
4648	0.421237
4644	1.694798
4640	1.984548
4636	1.997971
4632	1.545047
4628	-0.363874
4624	-2.464318
4620	-2.196645
4616	-0.611376
4612	0.013709
4608	0.351214
4604	0.956630
4600	1.277756
4596	1.267600
4592	1.212191
4588	0.788187
4584	0.583744
4580	1.345300
4576	1.765441
4572	1.668858
4568	1.383113
4564	0.656008
4560	0.456714
4556	0.929975
4552	0.859618
4548	0.669598
4544	0.830483
4540	0.358533
4536	0.126433
4532	0.807380
4528	1.255702
4524	0.439286
4520	-0.540518
4516	-1.271891
4512	-4.959917
4508	-12.5467
4504	-8.579611
4500	7.901859
4496	9.701228
4492	2.607727
4488	4.184865
4484	4.780888
4480	1.553392
4476	0.698137
4472	0.601673
4468	0.574421
4464	0.921893
4460	0.738596
4456	0.287032
4452	0.529313
4448	0.809836
4444	0.663447
4440	0.511336
4436	0.375318
4432	0.167202
4428	0.279259
4424	0.560569
4420	0.463199
4416	0.195717
4412	0.203347
4408	0.277471
4404	0.332880
4400	0.568294
4396	0.718450
4392	0.584864
4388	0.618910
4384	0.627589
4380	0.270485
4376	0.090742
4372	0.360035
4368	0.707578
4364	0.644207
4360	0.314140
4356	0.187468
4352	0.220823
4348	0.446677
4344	0.712704
4340	0.574278
4336	0.270175
4332	0.153660
4328	0.181722
4324	0.208020
4320	0.206971
4316	0.277447
4312	0.247454
4308	0.105071
4304	0.028920
4300	-0.055360
4296	-0.077509
4292	0.027751
4288	0.084114
4284	0.217700
4280	0.419306
4276	0.423812
4272	0.258183
4268	0.037527
4264	-0.116348
4260	-0.095105
4256	-0.043439
4252	0.019884
4248	0.080442
4244	0.056409
4240	0.008559
4236	-0.054669
4232	-0.049638
4228	0.158071
4224	0.357198
4220	0.250506
4216	0.019311
4212	-0.124144
4208	-0.144290
4204	0.012159
4200	0.221061
4196	0.263404
4192	0.191664
4188	0.183296
4184	0.159883
4180	0.200748
4176	0.266861
4172	0.013995
4168	-0.215315
4164	-0.042462
4160	0.212192
4156	0.171065
4152	0.014662
4148	0.127172
4144	0.332498
4140	0.328779
4136	0.170016
4132	0.098228
4128	0.129461
4124	0.094032
4120	0.054335
4116	0.086188
4112	0.076103
4108	0.018119
4104	-0.027513
4100	-0.061655
4096	0.008821
4092	0.156784
4088	0.194501
4084	0.028777
4080	-0.124478
4076	-0.082349
4072	0.013875
4068	0.021886
4064	-0.036573
4060	-0.061416
4056	-0.010681
4052	0.073289
4048	0.131154
4044	0.168657
4040	0.145268
4036	0.124955
4032	0.130844
4028	0.068497
4024	0.031089
4020	0.042986
4016	0.019502
4012	-0.010299
4008	0.050330
4004	0.052571
4000	-0.059199
3996	-0.104284
3992	-0.052642
3988	0.026655
3984	0.096511
3980	0.116539
3976	0.072646
3972	0.073313
3968	0.121331
3964	0.196051
3960	0.255441
3956	0.129055
3952	-0.015139
3948	-0.005841
3944	-0.000071
3940	0.020885
3936	0.098490
3932	0.102066
3928	0.061106
3924	0.038528
3920	0.016546
3916	0.012731
3912	-0.008654
3908	-0.056219
3904	0.009059
3900	0.153660
3896	0.218296
3892	0.202798
3888	0.116825
3884	0.045609
3880	-0.005745
3876	-0.088644
3872	-0.123643
3868	-0.105524
3864	-0.023078
3860	0.074315
3856	0.117659
3852	0.217032
3848	0.302195
3844	0.207829
3840	0.053191
3836	-0.014472
3832	0.053334
3828	0.159478
3824	0.120425
3820	0.031685
3816	0.002503
3812	-0.049138
3808	-0.092625
3804	-0.080347
3800	-0.087761
3796	-0.126528
3792	-0.109815
3788	-0.026392
3784	0.015449
3780	0.030088
3776	0.116634
3772	0.137567
3768	0.076198
3764	0.129055
3760	0.212025
3756	0.201845
3752	0.208401
3748	0.249719
3744	0.207948
3740	0.124883
3736	0.069546
3732	0.018000
3728	0.038242
3724	0.111937
3720	0.153851
3716	0.187683
3712	0.175023
3708	0.104641
3704	0.040245
3700	-0.011658
3696	0.003528
3692	0.006556
3688	-0.055599
3684	-0.011253
3680	0.057673
3676	0.045847
3672	0.074577
3668	0.084495
3664	0.046849
3660	0.067520
3656	0.101542
3652	0.131916
3648	0.169348
3644	0.135946
3640	0.101852
3636	0.101375
3632	0.041508
3628	0.021219
3624	0.040936
3620	-0.002479
3616	-0.012183
3612	0.052642
3608	0.023794
3604	-0.113224
3600	-0.113987
3596	-0.047326
3592	-0.031232
3588	0.104975
3584	0.196933
3580	0.152468
3576	0.118446
3572	0.087952
3568	0.087261
3564	0.077271
3560	-0.026535
3556	-0.093507
3552	-0.057935
3548	-0.026845
3544	-0.030875
3540	-0.015115
3536	0.039458
3532	0.072455
3528	0.089144
3524	0.099515
3520	0.072360
3516	0.107479
3512	0.181889
3508	0.168037
3504	0.148034
3500	0.189161
3496	0.190639
3492	0.051283
3488	-0.117254
3484	-0.112986
3480	-0.044131
3476	-0.040578
3472	0.050210
3468	0.143432
3464	0.051736
3460	-0.025177
3456	0.042176
3452	0.073361
3448	0.007271
3444	-0.045895
3440	-0.001168
3436	0.108599
3432	0.215816
3428	0.269436
3424	0.193762
3420	0.067758
3416	0.076007
3412	0.104975
3408	-0.007152
3404	-0.065898
3400	-0.008130
3396	0.032281
3392	0.086140
3388	0.108218
3384	0.039720
3380	0.015234
3376	0.053215
3372	0.069737
3368	0.029826
3364	-0.049519
3360	-0.029015
3356	0.057339
3352	0.017094
3348	-0.041198
3344	0.012993
3340	0.102114
3336	0.166344
3332	0.188398
3328	0.191259
3324	0.137805
3320	0.041460
3316	-0.019621
3312	-0.056838
3308	-0.062751
3304	-0.029826
3300	0.005936
3296	0.025200
3292	0.038146
3288	0.082683
3284	0.139188
3280	0.116157
3276	0.015425
3272	-0.030493
3268	0.046300
3264	0.112652
3260	0.044679
3256	-0.070667
3252	-0.143265
3248	-0.199913
3244	-0.192594
3240	-0.077557
3236	0.021862
3232	0.034976
3228	-0.023102
3224	-0.098824
3220	-0.076031
3216	0.031566
3212	0.077342
3208	0.024724
3204	0.016999
3200	0.083351
3196	0.114846
3192	0.122261
3188	0.108218
3184	0.090050
3180	0.095272
3176	0.094842
3172	0.119328
3168	0.154995
3164	0.151324
3160	0.076675
3156	-0.025224
3152	-0.025248
3148	0.109982
3144	0.202918
3140	0.092530
3136	-0.002884
3132	0.035524
3128	0.032067
3124	-0.025987
3120	-0.068140
3116	-0.032019
3112	0.033426
3108	0.036406
3104	0.028443
3100	0.035643
3096	0.042366
3092	0.046539
3088	0.066757
3084	0.098586
3080	0.110173
3076	0.136494
3072	0.193691
3068	0.247478
3064	0.212407
3060	0.114154
3056	0.038433
3052	-0.036859
3048	-0.073194
3044	-0.065326
3040	-0.034666
3036	0.035333
3032	0.090956
3028	0.120353
3024	0.125646
3020	0.089406
3016	0.056695
3012	0.015783
3008	-0.018405
3004	0.037264
3000	0.062751
2996	-0.006890
2992	0.000381
2988	0.061035
2984	0.062561
2980	0.046396
2976	0.034618
2972	0.044894
2968	0.091862
2964	0.092482
2960	0.047659
2956	0.040125
2952	0.045228
2948	0.019145
2944	0.031137
2940	0.128483
2936	0.156092
2932	0.058937
2928	-0.015544
2924	-0.011539
2920	0.055789
2916	0.099468
2912	0.035190
2908	-0.044083
2904	-0.037360
2900	0.014448
2896	0.061607
2892	0.060677
2888	0.004911
2884	-0.029659
2880	-0.025153
2876	-0.019574
2872	-0.063395
2868	-0.086212
2864	0.011301
2860	0.094103
2856	0.057673
2852	0.035429
2848	0.097370
2844	0.130677
2840	0.117683
2836	0.125527
2832	0.123333
2828	0.084733
2824	0.060725
2820	0.104379
2816	0.176405
2812	0.171756
2808	0.052618
2804	-0.065207
2800	-0.064253
2796	-0.001287
2792	0.010991
2788	-0.026154
2784	-0.053715
2780	-0.034332
2776	0.008630
2772	-0.028133
2768	-0.068998
2764	-0.011825
2760	0.013327
2756	0.004887
2752	-0.016474
2748	-0.078248
2744	-0.071740
2740	-0.020337
2736	-0.030207
2732	-0.040149
2728	0.002193
2724	0.033855
2720	0.012826
2716	0.009679
2712	0.036978
2708	0.076532
2704	0.109815
2700	0.064516
2696	-0.010728
2692	-0.030064
2688	0.007963
2684	0.031638
2680	0.014710
2676	0.004410
2672	0.010037
2668	0.034832
2664	0.050663
2660	0.017642
2656	-0.044918
2652	-0.074219
2648	-0.041794
2644	0.015568
2640	0.040888
2636	0.004744
2632	-0.022435
2628	-0.015425
2624	0.026702
2620	0.088667
2616	0.097966
2612	0.094342
2608	0.112700
2604	0.111460
2600	0.054216
2596	0.034499
2592	0.106239
2588	0.127148
2584	0.109124
2580	0.144147
2576	0.164604
2572	0.117635
2568	0.075268
2564	0.083780
2560	0.080299
2556	0.084304
2552	0.112533
2548	0.073218
2544	0.025844
2540	0.031161
2536	0.019621
2532	0.041675
2528	0.081658
2524	0.045061
2520	-0.009822
2516	-0.049257
2512	-0.063633
2508	-0.012087
2504	0.023150
2500	-0.004410
2496	-0.056791
2492	-0.078463
2488	-0.004458
2484	0.044322
2480	-0.007009
2476	-0.055932
2472	-0.042843
2468	-0.006937
2464	-0.024366
2460	-0.052022
2456	-0.035023
2452	-0.021290
2448	-0.011205
2444	0.010824
2440	-0.015282
2436	-0.081610
2432	-0.101637
2428	-0.047349
2424	0.046706
2420	0.095033
2416	0.066900
2412	0.000405
2408	-0.050258
2404	-0.009965
2400	0.051188
2396	0.031185
2392	0.039768
2388	0.113821
2384	0.144934
2380	0.140261
2376	0.135731
2372	0.164365
2368	0.214934
2364	0.214791
2360	0.184965
2356	0.165486
2352	0.184631
2348	0.262165
2344	0.313758
2340	0.334715
2336	0.387287
2332	0.430250
2328	0.446534
2324	0.448656
2320	0.480103
2316	0.569748
2312	0.641536
2308	0.671648
2304	0.749516
2300	0.902795
2296	1.062631
2292	1.176905
2288	1.257801
2284	1.320457
2280	1.373267
2276	1.440000
2272	1.520991
2268	1.637101
2264	1.794004
2260	1.988053
2256	2.149367
2252	2.245402
2248	2.422118
2244	2.651667
2240	2.821898
2236	3.012990
2232	3.276252
2228	3.546547
2224	3.769683
2220	3.981733
2216	4.278612
2212	4.651260
2208	4.998469
2204	5.312275
2200	5.653452
2196	6.044816
2192	6.433677
2188	6.741714
2184	7.012581
2180	7.395219
2176	7.873153
2172	8.321952
2168	8.755111
2164	9.155321
2160	9.573841
2156	10.1187
2152	10.6122
2148	11.0141
2144	11.5275
2140	12.1297
2136	12.7258
2132	13.2936
2128	13.8066
2124	14.2892
2120	14.7733
2116	15.2821
2112	15.8223
2108	16.3393
2104	16.8021
2100	17.2925
2096	17.8314
2092	18.3405
2088	18.8882
2084	19.5594
2080	20.1731
2076	20.6239
2072	21.0854
2068	21.5706
2064	21.9834
2060	22.346
2056	22.7285
2052	23.1467
2048	23.5582
2044	23.9802
2040	24.4483
2036	24.9715
2032	25.4915
2028	25.9542
2024	26.3648
2020	26.7406
2016	27.0975
2012	27.3935
2008	27.6309
2004	27.8833
2000	28.1366
1996	28.3462
1992	28.5668
1988	28.8618
1984	29.2598
1980	29.7505
1976	30.1868
1972	30.4808
1968	30.7527
1964	31.0524
1960	31.2778
1956	31.4086
1952	31.4808
1948	31.5318
1944	31.6161
1940	31.7419
1936	31.9097
1932	32.1172
1928	32.3299
1924	32.5722
1920	32.8987
1916	33.2337
1912	33.4817
1908	33.6599
1904	33.7741
1900	33.7919
1896	33.7608
1892	33.7654
1888	33.7657
1884	33.7154
1880	33.7067
1876	33.8086
1872	33.9925
1868	34.2317
1864	34.493
1860	34.7339
1856	34.9439
1852	35.1356
1848	35.3291
1844	35.4541
1840	35.434
1836	35.3024
1832	35.1226
1828	34.9726
1824	34.897
1820	34.8774
1816	34.9208
1812	35.0628
1808	35.259
1804	35.4488
1800	35.6293
1796	35.8158
1792	36.0173
1788	36.1373
1784	36.1407
1780	36.1177
1776	36.0345
1772	35.8665
1768	35.6959
1764	35.5724
1760	35.5164
1756	35.5198
1752	35.5951
1748	35.73
1744	35.8459
1740	36.0078
1736	36.2515
1732	36.4562
1728	36.5737
1724	36.5387
1720	36.4245
1716	36.3452
1712	36.1709
1708	35.9393
1704	35.7985
1700	35.7517
1696	35.7665
1692	35.8238
1688	35.9793
1684	36.2018
1680	36.3626
1676	36.5123
1672	36.6865
1668	36.7932
1664	36.8026
1660	36.7143
1656	36.5375
1652	36.2989
1648	36.0898
1644	35.9805
1640	35.9063
1636	35.8158
1632	35.7909
1628	35.9322
1624	36.1934
1620	36.4474
1616	36.6359
1612	36.7416
1608	36.7933
1604	36.8228
1600	36.8031
1596	36.7058
1592	36.5384
1588	36.359
1584	36.1484
1580	35.9101
1576	35.7572
1572	35.7243
1568	35.8531
1564	36.1121
1560	36.3532
1556	36.5358
1552	36.6982
1548	36.8018
1544	36.8121
1540	36.7918
1536	36.6905
1532	36.4813
1528	36.2801
1524	36.1321
1520	36.0076
1516	35.9062
1512	35.8151
1508	35.7716
1504	35.8748
1500	36.0596
1496	36.2627
1492	36.5189
1488	36.7433
1484	36.8594
1480	36.8691
1476	36.7435
1472	36.5654
1468	36.403
1464	36.158
1460	35.9118
1456	35.7655
1452	35.6967
1448	35.7072
1444	35.7578
1440	35.8692
1436	36.0839
1432	36.3759
1428	36.6261
1424	36.7239
1420	36.675
1416	36.5584
1412	36.4592
1408	36.3011
1404	36.052
1400	35.8631
1396	35.722
1392	35.5907
1388	35.5661
1384	35.6805
1380	35.8681
1376	36.022
1372	36.1223
1368	36.2277
1364	36.3936
1360	36.585
1356	36.6738
1352	36.6358
1348	36.4612
1344	36.1835
1340	35.9535
1336	35.7441
1332	35.5236
1328	35.4142
1324	35.4299
1320	35.513
1316	35.6702
1312	35.9099
1308	36.1584
1304	36.3568
1300	36.5253
1296	36.6234
1292	36.5737
1288	36.4412
1284	36.2969
1280	36.0647
1276	35.7574
1272	35.5107
1268	35.3494
1264	35.2532
1260	35.2875
1256	35.4189
1252	35.5712
1248	35.8097
1244	36.0943
1240	36.3314
1236	36.4966
1232	36.5617
1228	36.5334
1224	36.3772
1220	36.112
1216	35.8332
1212	35.5596
1208	35.32
1204	35.2012
1200	35.1668
1196	35.1548
1192	35.2262
1188	35.4266
1184	35.7275
1180	35.9859
1176	36.1567
1172	36.2806
1168	36.2929
1164	36.2163
1160	36.0894
1156	35.8928
1152	35.6544
1148	35.4212
1144	35.2265
1140	35.0873
1136	35.0477
1132	35.1674
1128	35.363
1124	35.5049
1120	35.6282
1116	35.8178
1112	36.0271
1108	36.1756
1104	36.268
1100	36.2488
1096	36.086
1092	35.8046
1088	35.4126
1084	35.0298
1080	34.8227
1076	34.7938
1072	34.819
1068	34.8746
1064	35.0054
1060	35.2003
1056	35.4035
1052	35.5858
1048	35.7594
1044	35.9186
1040	36.0446
1036	36.0397
1032	35.8248
1028	35.5082
1024	35.1649
1020	34.8175
1016	34.5511
1012	34.4232
1008	34.4421
1004	34.5318
1000	34.6804
996	 34.9372
992	 35.1959
988	 35.3919
984	 35.582
980	 35.6813
976	 35.6048
972	 35.5027
968	 35.3654
964	 35.1043
960	 34.7976
956	 34.4764
952	 34.2115
948	 34.0853
944	 34.1
940	 34.2566
936	 34.5115
932	 34.732
928	 34.8862
924	 35.0306
920	 35.1535
916	 35.2034
912	 35.1451
908	 34.944
904	 34.6218
900	 34.3728
896	 34.2397
892	 33.9524
888	 33.5517
884	 33.4417
880	 33.6195
876	 33.7427
872	 33.8082
868	 34.0153
864	 34.3164
860	 34.561
856	 34.7319
852	 34.8303
848	 34.7778
844	 34.5668
840	 34.2543
836	 33.8959
832	 33.5579
828	 33.3213
824	 33.1541
820	 33.0169
816	 33.0855
812	 33.2717
808	 33.3477
804	 33.4543
800	 33.7058
796	 33.9668
792	 34.147
788	 34.2226
784	 34.1872
780	 33.9723
776	 33.5397
772	 33.0619
768	 32.684
764	 32.3916
760	 32.172
756	 32.1229
752	 32.2006
748	 32.3002
744	 32.4674
740	 32.7112
736	 33.0173
732	 33.2756
728	 33.3486
724	 33.272
720	 33.1172
716	 32.8954
712	 32.5976
708	 32.2444
704	 31.9397
700	 31.7003
696	 31.4355
692	 31.2045
688	 31.1651
684	 31.3437
680	 31.5694
676	 31.7142
672	 31.7822
668	 31.8493
664	 31.9628
660	 31.9533
656	 31.7172
652	 31.4739
648	 31.3662
644	 31.1276
640	 30.6768
636	 30.3504
632	 30.0467
628	 29.771
624	 29.8218
620	 30.0192
616	 30.2517
612	 30.5201
608	 30.7215
604	 30.9693
600	 31.2603
596	 31.258
592	 30.8166
588	 30.277
584	 29.9468
580	 29.6771
576	 29.2692
572	 28.8525
568	 28.7618
564	 28.8513
560	 28.7069
556	 28.5408
552	 28.6693
548	 29.1125
544	 29.5638
540	 29.7313
536	 29.898
532	 29.8624
528	 29.2785
524	 28.7314
520	 28.4851
516	 28.2425
512	 27.9553
508	 27.7175
504	 27.5568
500	 27.315
496	 27.0723
492	 27.2304
488	 27.9
484	 28.4453
480	 28.2586
476	 27.8188
472	 27.7424
468	 27.5562
464	 26.9366
460	 26.6796
456	 26.9104
452	 26.8141
448	 26.3209
444	 25.7396
440	 24.9576
436	 24.8009
432	 25.641
428	 26.0788
424	 26.3989
420	 26.6509
416	 26.1214
412	 26.3156
408	 25.8057
404	 24.3637
400	 23.163
396	 19.8646
392	 17.4999
388	 20.3559
384	 22.3768
380	 19
376	 18.3108
372	 22.0425
370	 26.1805