File: Bakgrunnsmateriale/MATLAB/FTIR/ftir_data/LPE453/Mapping_121/LPE453_t112.asc
PE IR       SPECTRUM    SPECTRUM    ASCII       PEDS        1.60
  -1
LP9B78~1.ASC
17/05/16
23:36:28.00
17/05/16
23:36:54.00
tln
$LPE453_t0112$<tbV0>[10.4,13.0,8.0,0.0,27,1,0]
27.028
64

2002,4.07
MIRTGS : RIGHTBACK : INTERNAL 2
MIR : ON : INTERNAL 2
OPTKBR

0.200000
8
8.000000
FILLER
RATIO
SPECTRUM
UNLOCKED 256

DOUBLE
64
COMBINED
1
0
0

0.002000
RATIO

1
0
TRUE
51149
0
LEFT NOT FITTED RIGHT NOT FITTED 0
NONE
NONE
15600
12
4.427000
51148
TRUE
1 0 8 72 0 0 0 0

15798

#HDR
-1
-1
#GR
µM
%T
2.38419e-05
0.0
2.000000
0.002000
12515
8
29.7662
-2.344652
#DATA
2.000000	 0.212597
2.018000	 0.683376
2.036000	 0.145294
2.054000	 -0.027208
2.072000	 -0.047741
2.090000	 0.289354
2.108000	 0.241463
2.126000	 0.933526
2.144000	 2.212912
2.162000	 0.799802
2.180000	 0.963363
2.198000	 -0.285634
2.216000	 -0.417008
2.234000	 1.794614
2.252000	 -0.699080
2.270000	 0.722101
2.288000	 0.879565
2.306000	 0.378902
2.324000	 -0.095616
2.342000	 -0.099544
2.360000	 -0.116183
2.378000	 0.028557
2.396000	 0.186631
2.414000	 0.239067
2.432000	 -0.118874
2.450000	 0.016414
2.468000	 -0.097038
2.486000	 -0.015914
2.504000	 0.099122
2.522000	 0.014552
2.540000	 0.005306
2.558000	 -0.104287
2.576000	 0.067406
2.594000	 0.059885
2.612000	 0.086346
2.630000	 0.017302
2.648000	 -0.077197
2.666000	 0.124324
2.684000	 0.120722
2.702000	 0.178595
2.720000	 0.077612
2.738000	 0.061693
2.756000	 0.123513
2.774000	 0.094511
2.792000	 -0.081879
2.810000	 0.176399
2.828000	 -0.077022
2.846000	 0.075029
2.864000	 -0.072155
2.882000	 0.012500
2.900000	 -0.080221
2.918000	 0.083324
2.936000	 0.047362
2.954000	 -0.009338
2.972000	 0.049320
2.990000	 0.073476
3.008000	 0.219945
3.026000	 0.065247
3.044000	 0.073814
3.062000	 -0.079667
3.080000	 0.173724
3.098000	 0.006349
3.116000	 0.035102
3.134000	 0.043344
3.152000	 0.125352
3.170000	 0.011696
3.188000	 -0.034463
3.206000	 -0.203438
3.224000	 0.203099
3.242000	 0.083642
3.260000	 0.005046
3.278000	 -0.045990
3.296000	 0.008955
3.314000	 0.029386
3.332000	 0.025100
3.350000	 -0.103361
3.368000	 -0.094253
3.386000	 -0.010275
3.404000	 -0.016143
3.422000	 0.127602
3.440000	 -0.049135
3.458000	 0.023078
3.476000	 0.059782
3.494000	 0.071194
3.512000	 -0.036235
3.530000	 0.073103
3.548000	 0.089860
3.566000	 0.062738
3.584000	 0.058942
3.602000	 -0.012889
3.620000	 0.004344
3.638000	 0.096144
3.656000	 -0.019278
3.674000	 -0.033221
3.692000	 -0.016478
3.710000	 0.118934
3.728000	 0.025914
3.746000	 0.166571
3.764000	 0.195511
3.782000	 -0.018445
3.800000	 0.053450
3.818000	 -0.055109
3.836000	 -0.017667
3.854000	 0.088623
3.872000	 -0.000956
3.890000	 0.075085
3.908000	 0.076966
3.926000	 0.114860
3.944000	 -0.003256
3.962000	 0.037270
3.980000	 -0.015186
3.998000	 0.123001
4.016000	 -0.012543
4.034000	 -0.066399
4.052000	 0.010112
4.070000	 0.048821
4.088000	 0.008667
4.106000	 -0.019229
4.124000	 -0.149003
4.141999	 0.073415
4.160000	 0.009325
4.178000	 -0.044321
4.196000	 0.023850
4.214000	 -0.029217
4.232000	 0.130126
4.250000	 0.032370
4.268000	 0.175789
4.286000	 0.019037
4.304000	 0.081909
4.322000	 0.202514
4.340000	 0.194707
4.358000	 0.288188
4.375999	 0.387310
4.394000	 0.474747
4.412000	 0.523986
4.430000	 0.672742
4.448000	 0.902366
4.466000	 1.112472
4.484000	 1.364267
4.502000	 1.735594
4.520000	 2.046068
4.538000	 2.420570
4.556000	 2.851625
4.574000	 3.338698
4.592000	 3.881928
4.609999	 4.484508
4.628000	 5.110043
4.646000	 5.734300
4.664000	 6.361840
4.682000	 7.175090
4.700000	 7.913379
4.718000	 8.750444
4.736000	 9.441404
4.754000	 10.2193
4.772000	 11.0356
4.790000	 11.7484
4.808000	 12.5019
4.826000	 13.1428
4.843999	 13.8982
4.862000	 14.6618
4.880000	 15.3939
4.898000	 16.0472
4.916000	 16.7398
4.934000	 17.3776
4.952000	 17.8907
4.970000	 18.4388
4.988000	 19.0732
5.006000	 19.6181
5.024000	 20.001
5.042000	 20.5194
5.060000	 20.994
5.077999	 21.3895
5.096000	 21.737
5.114000	 22.1082
5.132000	 22.5386
5.150000	 22.9825
5.168000	 23.3168
5.186000	 23.6287
5.204000	 23.869
5.222000	 24.092
5.240000	 24.3889
5.258000	 24.5507
5.276000	 24.7784
5.294000	 25.0378
5.312000	 25.2576
5.330000	 25.4464
5.348000	 25.6055
5.366000	 25.8327
5.384000	 26.0449
5.402000	 26.1936
5.420000	 26.2932
5.438000	 26.4456
5.456000	 26.5652
5.474000	 26.7207
5.492000	 26.7987
5.510000	 26.9413
5.528000	 27.0181
5.546000	 27.1053
5.564000	 27.2201
5.582000	 27.294
5.600000	 27.4058
5.618000	 27.4535
5.636000	 27.4802
5.654000	 27.5514
5.672000	 27.5726
5.690000	 27.5858
5.708000	 27.6646
5.726000	 27.7963
5.744000	 27.881
5.762000	 27.9522
5.780000	 28.0211
5.798000	 28.0753
5.816000	 28.1115
5.834000	 28.1423
5.852000	 28.2047
5.870000	 28.3027
5.888000	 28.3518
5.906000	 28.3171
5.923999	 28.3276
5.942000	 28.4299
5.960000	 28.4315
5.978000	 28.4683
5.996000	 28.5531
6.014000	 28.5662
6.032000	 28.5718
6.050000	 28.6127
6.068000	 28.7504
6.086000	 28.8273
6.104000	 28.8276
6.122000	 28.8331
6.140000	 28.8476
6.158000	 28.8496
6.176000	 28.7793
6.194000	 28.7513
6.212000	 28.8794
6.230000	 29.0262
6.248000	 29.0173
6.266000	 29.005
6.284000	 29.1023
6.302000	 29.1195
6.320000	 29.0764
6.338000	 29.0732
6.356000	 29.0816
6.374000	 29.098
6.392000	 29.1027
6.410000	 29.063
6.428000	 29.0127
6.446000	 28.918
6.464000	 28.8863
6.482000	 28.9663
6.500000	 29.022
6.518000	 29.0544
6.536000	 29.0981
6.554000	 29.1119
6.572000	 29.1228
6.590000	 29.1248
6.608000	 29.0888
6.626000	 29.049
6.644000	 29.0365
6.662000	 29.032
6.680000	 29.0107
6.698000	 29.019
6.716000	 29.0457
6.734000	 29.0204
6.752000	 29.0047
6.770000	 29.0831
6.788000	 29.1807
6.806000	 29.1959
6.824000	 29.1876
6.842000	 29.1877
6.860000	 29.1112
6.878000	 28.9818
6.896000	 28.9371
6.914000	 28.9848
6.932000	 29.0299
6.950000	 29.0898
6.968000	 29.1764
6.986000	 29.1898
7.004000	 29.1433
7.022000	 29.1537
7.040000	 29.1991
7.058000	 29.1913
7.076000	 29.1599
7.094000	 29.1715
7.112000	 29.1997
7.130000	 29.1729
7.148000	 29.0955
7.166000	 29.0417
7.184000	 29.0371
7.202000	 29.046
7.220000	 29.0649
7.238000	 29.1292
7.256000	 29.2244
7.274000	 29.2774
7.292000	 29.2617
7.310000	 29.2083
7.328000	 29.1343
7.346000	 29.0742
7.364000	 29.0807
7.382000	 29.1274
7.400000	 29.1467
7.418000	 29.1204
7.436000	 29.0543
7.454000	 28.9621
7.472000	 28.8834
7.490000	 28.8349
7.508000	 28.8055
7.526000	 28.8239
7.544000	 28.9149
7.562000	 29.0107
7.580000	 29.0293
7.598000	 28.9832
7.616000	 28.9356
7.634000	 28.9158
7.652000	 28.9086
7.670000	 28.8905
7.688000	 28.8681
7.706000	 28.8589
7.724000	 28.8451
7.742000	 28.8063
7.760000	 28.7738
7.778000	 28.7819
7.796000	 28.8045
7.814000	 28.7993
7.832000	 28.7789
7.850000	 28.783
7.868000	 28.811
7.886000	 28.8245
7.904000	 28.7973
7.922000	 28.747
7.940000	 28.7223
7.958000	 28.756
7.976000	 28.8229
7.994000	 28.8607
8.012000	 28.8335
8.030000	 28.7552
8.048000	 28.6583
8.065999	 28.5764
8.084000	 28.5423
8.102000	 28.5613
8.120000	 28.5935
8.138000	 28.6009
8.155999	 28.5946
8.173999	 28.6023
8.192000	 28.6153
8.210000	 28.6105
8.228000	 28.5987
8.246000	 28.6083
8.263999	 28.6364
8.282000	 28.6437
8.300000	 28.6013
8.318000	 28.5244
8.336000	 28.4624
8.353999	 28.4491
8.372000	 28.4628
8.390000	 28.4499
8.408000	 28.3983
8.426000	 28.3652
8.443999	 28.41
8.462000	 28.5143
8.480000	 28.6013
8.498000	 28.6215
8.516000	 28.5933
8.533999	 28.5565
8.552000	 28.5246
8.570000	 28.495
8.588000	 28.4729
8.606000	 28.4635
8.624000	 28.4579
8.641999	 28.4479
8.660000	 28.438
8.678000	 28.4353
8.696000	 28.4342
8.714000	 28.4215
8.731999	 28.3865
8.750000	 28.3239
8.768000	 28.237
8.786000	 28.1473
8.804000	 28.0895
8.821999	 28.0854
8.840000	 28.1275
8.858000	 28.1888
8.876000	 28.2458
8.894000	 28.2817
8.911999	 28.2805
8.930000	 28.2367
8.948000	 28.1699
8.966000	 28.1188
8.984000	 28.1108
9.001999	 28.1394
9.020000	 28.1705
9.038000	 28.17
9.056000	 28.1321
9.074000	 28.0837
9.092000	 28.0624
9.109999	 28.086
9.128000	 28.1355
9.146000	 28.1699
9.164000	 28.1607
9.182000	 28.1162
9.199999	 28.0684
9.218000	 28.0392
9.236000	 28.023
9.254000	 28.0018
9.272000	 27.9702
9.289999	 27.9382
9.308000	 27.9152
9.326000	 27.8977
9.344000	 27.8773
9.362000	 27.8551
9.379999	 27.8419
9.398000	 27.8464
9.416000	 27.8672
9.434000	 27.8939
9.452000	 27.9148
9.469999	 27.9252
9.488000	 27.9291
9.506000	 27.9329
9.524000	 27.9355
9.542000	 27.9247
9.560000	 27.8858
9.577999	 27.8178
9.596000	 27.7399
9.614000	 27.6785
9.632000	 27.6471
9.650000	 27.639
9.667999	 27.6379
9.686000	 27.6331
9.704000	 27.625
9.722000	 27.6173
9.740000	 27.6089
9.757999	 27.5943
9.776000	 27.5708
9.794000	 27.5451
9.812000	 27.5299
9.830000	 27.5346
9.847999	 27.5565
9.866000	 27.5805
9.884000	 27.5863
9.902000	 27.5602
9.920000	 27.5028
9.937999	 27.4308
9.956000	 27.3683
9.974000	 27.3351
9.992000	 27.3388
10.01	27.3727
10.028	27.4212
10.046	27.4669
10.064	27.4977
10.082	27.51
10.1	27.5077
10.118	27.4987
10.136	27.489
10.154	27.4784
10.172	27.4613
10.19	27.4293
10.208	27.3793
10.226	27.3165
10.244	27.2539
10.262	27.2059
10.28	27.1793
10.298	27.1718
10.316	27.1733
10.334	27.1747
10.352	27.1737
10.37	27.1744
10.388	27.1838
10.406	27.2048
10.424	27.2331
10.442	27.2591
10.46	27.2733
10.478	27.2713
10.496	27.256
10.514	27.2341
10.532	27.2115
10.55	27.1878
10.568	27.1567
10.586	27.1101
10.604	27.0453
10.622	26.9697
10.64	26.8999
10.658	26.8543
10.676	26.844
10.694	26.8672
10.712	26.9086
10.73	26.9492
10.748	26.9734
10.766	26.976
10.784	26.9619
10.802	26.9418
10.82	26.9262
10.838	26.9219
10.856	26.9303
10.874	26.9481
10.892	26.9685
10.91	26.9823
10.928	26.9814
10.946	26.9603
10.964	26.9199
10.982	26.8665
11	26.8089
11.018	26.7553
11.036	26.7098
11.054	26.6733
11.072	26.6448
11.09	26.6246
11.108	26.6143
11.126	26.6149
11.144	26.6253
11.162	26.6402
11.18	26.6522
11.198	26.6546
11.216	26.6452
11.234	26.6267
11.252	26.6048
11.27	26.5846
11.288	26.5687
11.306	26.5559
11.324	26.5423
11.342	26.5241
11.36	26.4994
11.378	26.468
11.396	26.431
11.414	26.3898
11.432	26.3464
11.45	26.3034
11.468	26.2645
11.486	26.234
11.504	26.2157
11.522	26.2116
11.54	26.2206
11.558	26.2384
11.576	26.2572
11.594	26.2683
11.612	26.2631
11.63	26.2366
11.648	26.1889
11.666	26.1263
11.684	26.0596
11.702	26.0002
11.72	25.9576
11.738	25.9351
11.756	25.9294
11.774	25.9325
11.792	25.9348
11.81	25.9303
11.828	25.9177
11.846	25.9008
11.864	25.8857
11.882	25.8774
11.9	25.8776
11.918	25.8846
11.936	25.8937
11.954	25.9003
11.972	25.9007
11.99	25.8941
12.008	25.8819
12.026	25.8668
12.044	25.8513
12.062	25.8365
12.08	25.8219
12.098	25.8063
12.116	25.7884
12.134	25.7672
12.152	25.7433
12.17	25.7174
12.188	25.6904
12.206	25.6626
12.224	25.6343
12.242	25.6053
12.26	25.5756
12.278	25.5453
12.296	25.5154
12.314	25.4868
12.332	25.4606
12.35	25.4376
12.368	25.419
12.386	25.4056
12.404	25.3982
12.422	25.3976
12.44	25.4036
12.458	25.4151
12.476	25.4299
12.494	25.445
12.512	25.4575
12.53	25.4657
12.548	25.4699
12.566	25.4717
12.584	25.4737
12.602	25.4782
12.62	25.4862
12.638	25.497
12.656	25.5085
12.674	25.5183
12.692	25.5237
12.71	25.5232
12.728	25.5165
12.746	25.5039
12.764	25.4861
12.782	25.4634
12.8	25.4363
12.818	25.405
12.836	25.3706
12.854	25.3344
12.872	25.2991
12.89	25.2665
12.908	25.2379
12.926	25.2123
12.944	25.1872
12.962	25.1592
12.98	25.1252
12.998	25.0833
13.016	25.0337
13.034	24.978
13.052	24.919
13.07	24.8597
13.088	24.802
13.106	24.7474
13.124	24.6957
13.142	24.6466
13.16	24.5998
13.178	24.5563
13.196	24.5179
13.214	24.4876
13.232	24.4688
13.25	24.4641
13.268	24.4747
13.286	24.4996
13.304	24.5356
13.322	24.5776
13.34	24.6192
13.358	24.6539
13.376	24.6762
13.394	24.6824
13.412	24.6712
13.43	24.645
13.448	24.6085
13.466	24.5684
13.484	24.5321
13.502	24.5053
13.52	24.4918
13.538	24.4922
13.556	24.5043
13.574	24.5238
13.592	24.5454
13.61	24.5644
13.628	24.5777
13.646	24.5842
13.664	24.5848
13.682	24.5821
13.7	24.5788
13.718	24.5772
13.736	24.5779
13.754	24.5804
13.772	24.582
13.79	24.5798
13.808	24.5701
13.826	24.5503
13.844	24.5189
13.862	24.4758
13.88	24.4222
13.898	24.3601
13.916	24.2925
13.934	24.2223
13.952	24.1526
13.97	24.0862
13.988	24.0258
14.006	23.9734
14.024	23.9308
14.042	23.899
14.06	23.8781
14.078	23.8674
14.096	23.8651
14.114	23.8684
14.132	23.8741
14.15	23.8792
14.168	23.8806
14.186	23.8769
14.204	23.8671
14.222	23.8519
14.24	23.8331
14.258	23.813
14.276	23.7936
14.294	23.7765
14.312	23.7626
14.33	23.7514
14.348	23.742
14.366	23.7324
14.384	23.7211
14.402	23.7069
14.42	23.6898
14.438	23.6704
14.456	23.6508
14.474	23.6331
14.492	23.6198
14.51	23.6129
14.528	23.6133
14.546	23.6202
14.564	23.6318
14.582	23.645
14.6	23.6566
14.618	23.6633
14.636	23.6626
14.654	23.6534
14.672	23.6365
14.69	23.6136
14.708	23.5876
14.726	23.562
14.744	23.5403
14.762	23.5246
14.78	23.516
14.798	23.5142
14.816	23.5178
14.834	23.5243
14.852	23.5307
14.87	23.5343
14.888	23.5334
14.906	23.527
14.924	23.5151
14.942	23.4988
14.96	23.4797
14.978	23.4594
14.996	23.4393
15.014	23.4203
15.032	23.4026
15.05	23.3856
15.068	23.3681
15.086	23.3493
15.104	23.3281
15.122	23.3041
15.14	23.2778
15.158	23.25
15.176	23.2222
15.194	23.1958
15.212	23.1725
15.23	23.1531
15.248	23.1378
15.266	23.1262
15.284	23.1169
15.302	23.1076
15.32	23.0965
15.338	23.082
15.356	23.0623
15.374	23.0368
15.392	23.0059
15.41	22.9702
15.428	22.9309
15.446	22.89
15.464	22.8486
15.482	22.8079
15.5	22.7687
15.518	22.7314
15.536	22.6957
15.554	22.6614
15.572	22.6281
15.59	22.5956
15.608	22.5643
15.626	22.5349
15.644	22.5085
15.662	22.4868
15.68	22.4712
15.698	22.4631
15.716	22.4638
15.734	22.4734
15.752	22.4913
15.77	22.5166
15.788	22.547
15.806	22.5797
15.824	22.6124
15.842	22.6421
15.86	22.6658
15.878	22.682
15.896	22.6891
15.914	22.6866
15.932	22.6751
15.95	22.6555
15.968	22.6296
15.986	22.6001
16.004	22.5688
16.022	22.5379
16.04	22.5098
16.058	22.4856
16.076	22.466
16.094	22.4514
16.112	22.4407
16.13	22.4331
16.148	22.4271
16.166	22.4208
16.184	22.413
16.202	22.4023
16.22	22.3878
16.238	22.3697
16.256	22.3482
16.274	22.3248
16.292	22.301
16.31	22.2782
16.328	22.2586
16.346	22.2434
16.364	22.2334
16.382	22.2288
16.4	22.228
16.418	22.23
16.436	22.2313
16.454	22.2292
16.472	22.2212
16.49	22.2037
16.508	22.1756
16.526	22.1358
16.544	22.0847
16.562	22.0245
16.58	21.9569
16.598	21.8868
16.616	21.8179
16.634	21.7536
16.652	21.6989
16.67	21.6555
16.688	21.6258
16.706	21.6104
16.724	21.6087
16.742	21.6198
16.76	21.6402
16.778	21.6681
16.796	21.6996
16.814	21.7313
16.832	21.7613
16.85	21.7864
16.868	21.8055
16.886	21.8177
16.904	21.8229
16.922	21.8218
16.94	21.815
16.958	21.8045
16.976	21.791
16.994	21.7764
17.012	21.7617
17.03	21.7476
17.048	21.7354
17.066	21.725
17.084	21.7168
17.102	21.7105
17.12	21.7061
17.138	21.7028
17.156	21.7006
17.174	21.699
17.192	21.6977
17.21	21.6965
17.228	21.6952
17.246	21.6937
17.264	21.6921
17.282	21.6904
17.3	21.6888
17.318	21.6875
17.336	21.6866
17.354	21.6865
17.372	21.6869
17.39	21.688
17.408	21.6894
17.426	21.6909
17.444	21.6924
17.462	21.6931
17.48	21.693
17.498	21.6916
17.516	21.6885
17.534	21.6837
17.552	21.6769
17.57	21.6682
17.588	21.6579
17.606	21.6461
17.624	21.6333
17.642	21.6199
17.66	21.6061
17.678	21.5925
17.696	21.5793
17.714	21.5667
17.732	21.5544
17.75	21.5425
17.768	21.5302
17.786	21.5172
17.804	21.5022
17.822	21.485
17.84	21.464
17.858	21.4387
17.876	21.4081
17.894	21.3718
17.912	21.3294
17.93	21.2807
17.948	21.226
17.966	21.1659
17.984	21.101
18.002	21.0326
18.02	20.9622
18.038	20.8909
18.056	20.8213
18.074	20.754
18.092	20.6925
18.11	20.6375
18.128	20.5922
18.146	20.5571
18.164	20.5347
18.182	20.5252
18.2	20.5298
18.218	20.5479
18.236	20.5797
18.254	20.6227
18.272	20.6768
18.29	20.7374
18.308	20.8039
18.326	20.8709
18.344	20.9375
18.362	20.9979
18.38	21.0513
18.398	21.0934
18.416	21.1234
18.434	21.1388
18.452	21.14
18.47	21.1262
18.488	21.0995
18.506	21.0599
18.524	21.0116
18.542	20.9548
18.56	20.8951
18.578	20.8329
18.596	20.7736
18.614	20.7174
18.632	20.6686
18.65	20.6273
18.668	20.5956
18.686	20.5735
18.704	20.561
18.722	20.5577
18.74	20.5621
18.758	20.5735
18.776	20.5895
18.794	20.6094
18.812	20.6307
18.83	20.6527
18.848	20.6735
18.866	20.6927
18.884	20.709
18.902	20.7224
18.92	20.7321
18.938	20.7384
18.956	20.741
18.974	20.74
18.992	20.7356
19.01	20.7278
19.028	20.7168
19.046	20.7026
19.064	20.6853
19.082	20.665
19.1	20.6417
19.118	20.6156
19.136	20.5867
19.154	20.5555
19.172	20.5223
19.19	20.4875
19.208	20.4517
19.226	20.4154
19.244	20.3799
19.262	20.3453
19.28	20.3131
19.298	20.2835
19.316	20.2579
19.334	20.2364
19.352	20.2202
19.37	20.2092
19.388	20.2038
19.406	20.2039
19.424	20.2093
19.442	20.2198
19.46	20.2347
19.478	20.2538
19.496	20.276
19.514	20.301
19.532	20.3276
19.55	20.3552
19.568	20.383
19.586	20.41
19.604	20.436
19.622	20.4599
19.64	20.4818
19.658	20.5009
19.676	20.5172
19.694	20.5305
19.712	20.5406
19.73	20.5476
19.748	20.5515
19.766	20.5524
19.784	20.5503
19.802	20.5455
19.82	20.5379
19.838	20.5279
19.856	20.5157
19.874	20.5014
19.892	20.4849
19.91	20.4665
19.928	20.446
19.946	20.4235
19.964	20.3989
19.982	20.3721
20	20.3431
20.018	20.3117
20.036	20.2782
20.054	20.2424
20.072	20.2046
20.09	20.165
20.108	20.1237
20.126	20.0814
20.144	20.0382
20.162	19.9948
20.18	19.9515
20.198	19.909
20.216	19.868
20.234	19.8285
20.252	19.7917
20.27	19.7575
20.288	19.7264
20.306	19.6985
20.324	19.6738
20.342	19.6524
20.36	19.634
20.378	19.6183
20.396	19.6053
20.414	19.594
20.432	19.5847
20.45	19.576
20.468	19.5678
20.486	19.5596
20.504	19.5503
20.522	19.5401
20.54	19.5278
20.558	19.5136
20.576	19.497
20.594	19.4778
20.612	19.456
20.63	19.4315
20.648	19.4044
20.666	19.3751
20.684	19.3436
20.702	19.3107
20.72	19.2769
20.738	19.2424
20.756	19.2087
20.774	19.1755
20.792	19.1441
20.81	19.1147
20.828	19.0878
20.846	19.0644
20.864	19.0443
20.882	19.0283
20.9	19.0164
20.918	19.0087
20.936	19.0054
20.954	19.0062
20.972	19.0109
20.99	19.0195
21.008	19.0313
21.026	19.0459
21.044	19.0632
21.062	19.0819
21.08	19.1023
21.098	19.1232
21.116	19.1444
21.134	19.1656
21.152	19.1856
21.17	19.2048
21.188	19.222
21.206	19.2373
21.224	19.2502
21.242	19.2598
21.26	19.2663
21.278	19.2692
21.296	19.2682
21.314	19.2633
21.332	19.254
21.35	19.2404
21.368	19.2222
21.386	19.1992
21.404	19.1715
21.422	19.1386
21.44	19.1008
21.458	19.058
21.476	19.0103
21.494	18.9577
21.512	18.9008
21.53	18.8393
21.548	18.774
21.566	18.7056
21.584	18.6339
21.602	18.5606
21.62	18.4852
21.638	18.4089
21.656	18.3329
21.674	18.2569
21.692	18.1822
21.71	18.1094
21.728	18.0384
21.746	17.9704
21.764	17.9053
21.782	17.8432
21.8	17.7847
21.818	17.7295
21.836	17.6772
21.854	17.6279
21.872	17.5812
21.89	17.5364
21.908	17.4937
21.926	17.4525
21.944	17.4123
21.962	17.3733
21.98	17.3349
21.998	17.2972
22.016	17.2601
22.034	17.2235
22.052	17.1872
22.07	17.1519
22.088	17.1179
22.106	17.0849
22.124	17.0539
22.142	17.0248
22.16	16.9979
22.178	16.9744
22.196	16.954
22.214	16.9371
22.232	16.9244
22.25	16.9155
22.268	16.911
22.286	16.9114
22.304	16.9163
22.322	16.926
22.34	16.9405
22.358	16.9596
22.376	16.9835
22.394	17.0122
22.412	17.0454
22.43	17.0828
22.448	17.1246
22.466	17.1705
22.484	17.2204
22.502	17.2743
22.52	17.3318
22.538	17.3928
22.556	17.4573
22.574	17.5245
22.592	17.5947
22.61	17.6673
22.628	17.7411
22.646	17.8165
22.664	17.8926
22.682	17.9676
22.7	18.0425
22.718	18.1156
22.736	18.1848
22.754	18.2513
22.772	18.3128
22.79	18.3669
22.808	18.4152
22.826	18.4548
22.844	18.4838
22.862	18.5035
22.88	18.5123
22.898	18.5091
22.916	18.4947
22.934	18.4687
22.952	18.4305
22.97	18.3806
22.988	18.3205
23.006	18.2499
23.024	18.1692
23.042	18.0809
23.06	17.9845
23.078	17.8808
23.096	17.7729
23.114	17.6605
23.132	17.5441
23.15	17.4268
23.168	17.3083
23.186	17.1888
23.204	17.0708
23.222	16.9539
23.24	16.8384
23.258	16.7256
23.276	16.6154
23.294	16.5079
23.312	16.404
23.33	16.3037
23.348	16.2069
23.366	16.114
23.384	16.0251
23.402	15.94
23.42	15.8588
23.438	15.7815
23.456	15.708
23.474	15.6388
23.492	15.5738
23.51	15.5129
23.528	15.4573
23.546	15.4069
23.564	15.3617
23.582	15.3225
23.6	15.2899
23.618	15.2633
23.636	15.2432
23.654	15.23
23.672	15.2235
23.69	15.2233
23.708	15.2296
23.726	15.2426
23.744	15.261
23.762	15.2841
23.78	15.3126
23.798	15.3451
23.816	15.3799
23.834	15.4183
23.852	15.4587
23.87	15.499
23.888	15.5401
23.906	15.5812
23.924	15.6195
23.942	15.6556
23.96	15.6893
23.978	15.7178
23.996	15.74
24.014	15.7571
24.032	15.7674
24.05	15.7701
24.068	15.7659
24.086	15.7541
24.104	15.734
24.122	15.7066
24.14	15.6707
24.158	15.6245
24.176	15.5691
24.194	15.5037
24.212	15.4261
24.23	15.3364
24.248	15.2349
24.266	15.12
24.284	14.9906
24.302	14.8477
24.32	14.6907
24.338	14.5191
24.356	14.3326
24.374	14.1323
24.392	13.9189
24.41	13.6916
24.428	13.4512
24.446	13.2009
24.464	12.9407
24.482	12.6692
24.5	12.3923
24.518	12.1146
24.536	11.8318
24.554	11.5486
24.572	11.2717
24.59	10.9988
24.608	10.7306
24.626	10.4736
24.644	10.2307
24.662	9.998578
24.68	9.780676
24.698	9.580361
24.716	9.396689
24.734	9.228913
24.752	9.076983
24.77	8.942274
24.788	8.823876
24.806	8.717991
24.824	8.622419
24.842	8.540189
24.86	8.467008
24.878	8.397742
24.896	8.335279
24.914	8.278111
24.932	8.219384
24.95	8.156282
24.968	8.093487
24.986	8.023702
25.004	7.939217
25.022	7.843057
25.04	7.734688
25.058	7.609318
25.076	7.463985
25.094	7.301050
25.112	7.121043
25.13	6.924173
25.148	6.708268
25.166	6.476014
25.184	6.231989
25.202	5.977432
25.22	5.709191
25.238	5.433378
25.256	5.156183
25.274	4.872362
25.292	4.585230
25.31	4.304636
25.328	4.035341
25.346	3.769834
25.364	3.517399
25.382	3.288757
25.4	3.080506
25.418	2.891885
25.436	2.732518
25.454	2.609588
25.472	2.516440
25.49	2.457136
25.508	2.438241
25.526	2.460896
25.544	2.521752
25.562	2.624858
25.58	2.774119
25.598	2.968256
25.616	3.206425
25.634	3.489267
25.652	3.817086
25.67	4.189112
25.688	4.605617
25.706	5.067000
25.724	5.573828
25.742	6.125445
25.76	6.720256
25.778	7.357085
25.796	8.040457
25.814	8.765474
25.832	9.523583
25.85	10.3104
25.868	11.1345
25.886	11.9854
25.904	12.8502
25.922	13.7294
25.94	14.6304
25.958	15.5351
25.976	16.4254
25.994	17.31
26.012	18.1891
26.03	19.045
26.048	19.8624
26.066	20.6514
26.084	21.4099
26.102	22.1292
26.12	22.8035
26.138	23.4381
26.156	24.0319
26.174	24.5827
26.192	25.0865
26.21	25.5433
26.228	25.9627
26.246	26.3543
26.264	26.7172
26.282	27.0477
26.3	27.3543
26.318	27.6453
26.336	27.9187
26.354	28.1729
26.372	28.4115
26.39	28.6381
26.408	28.8563
26.426	29.0608
26.444	29.2442
26.462	29.4018
26.48	29.5462
26.498	29.6659
26.516	29.7428
26.534	29.7656
26.552	29.7541
26.57	29.6924
26.588	29.5574
26.606	29.3347
26.624	29.0432
26.642	28.6727
26.66	28.2083
26.678	27.6418
26.696	26.985
26.714	26.2321
26.732	25.3751
26.75	24.4063
26.768	23.3275
26.786	22.1493
26.804	20.8826
26.822	19.5304
26.84	18.0823
26.858	16.5517
26.876	14.9537
26.894	13.2935
26.912	11.5571
26.93	9.759644
26.948	7.917871
26.966	5.946954
26.984	3.695329
27.002	1.522064
27.02	-0.181678
27.028	-0.635361