File: Bakgrunnsmateriale/MATLAB/FTIR/ftir_data/LPE453/Mapping_121/LPE453_t55.asc
PE IR       SPECTRUM    SPECTRUM    ASCII       PEDS        1.60
  -1
LPD7AD~1.ASC
17/05/16
18:52:24.00
17/05/16
18:52:50.00
tln
$LPE453_t0055$<tbV0>[-13.0,-2.6,8.0,0.0,27,1,0]
27.028
64

2002,4.07
MIRTGS : RIGHTBACK : INTERNAL 2
MIR : ON : INTERNAL 2
OPTKBR

0.200000
8
8.000000
FILLER
RATIO
SPECTRUM
UNLOCKED 256

DOUBLE
64
COMBINED
1
0
0

0.002000
RATIO

1
0
TRUE
51149
0
LEFT NOT FITTED RIGHT NOT FITTED 0
NONE
NONE
15600
12
4.427000
51148
TRUE
1 0 8 72 0 0 0 0

15798

#HDR
-1
-1
#GR
µM
%T
2.38419e-05
0.0
2.000000
0.002000
12515
8
30.6833
-1.940066
#DATA
2.000000	 -0.160932
2.018000	 -0.028996
2.036000	 0.343673
2.054000	 -0.117529
2.072000	 -0.102621
2.090000	 0.200990
2.108000	 -0.365275
2.126000	 -0.171931
2.144000	 0.362089
2.162000	 -0.083649
2.180000	 -0.241987
2.198000	 -0.109567
2.216000	 0.010283
2.234000	 0.511138
2.252000	 -0.550139
2.270000	 -0.129885
2.288000	 0.254307
2.306000	 0.168398
2.324000	 -0.488159
2.342000	 0.317989
2.360000	 0.172650
2.378000	 -0.070369
2.396000	 0.446020
2.414000	 -0.204939
2.432000	 0.283434
2.450000	 0.317941
2.468000	 -0.029826
2.486000	 0.053893
2.504000	 0.187246
2.522000	 0.042529
2.540000	 0.168443
2.558000	 0.110868
2.576000	 -0.071254
2.594000	 0.170646
2.612000	 0.185839
2.630000	 -0.039679
2.648000	 0.138350
2.666000	 0.162995
2.684000	 0.033598
2.702000	 0.073332
2.720000	 0.044947
2.738000	 0.022002
2.756000	 0.026113
2.774000	 0.043727
2.792000	 0.075989
2.810000	 0.128009
2.828000	 0.155713
2.846000	 0.056268
2.864000	 0.114776
2.882000	 0.065776
2.900000	 0.182393
2.918000	 -0.120966
2.936000	 0.005085
2.954000	 0.092025
2.972000	 0.056242
2.990000	 -0.007126
3.008000	 -0.001573
3.026000	 -0.030143
3.044000	 0.236770
3.062000	 0.129733
3.080000	 0.167268
3.098000	 0.044086
3.116000	 0.087071
3.134000	 -0.043924
3.152000	 0.090479
3.170000	 0.013878
3.188000	 0.141224
3.206000	 0.073449
3.224000	 0.004904
3.242000	 0.040462
3.260000	 0.009372
3.278000	 0.002888
3.296000	 0.070804
3.314000	 -0.009206
3.332000	 0.060247
3.350000	 0.017012
3.368000	 0.015374
3.386000	 -0.044555
3.404000	 0.018142
3.422000	 0.113005
3.440000	 -0.028618
3.458000	 -0.035962
3.476000	 0.002855
3.494000	 0.081867
3.512000	 0.108332
3.530000	 0.023876
3.548000	 -0.085290
3.566000	 0.131688
3.584000	 -0.031636
3.602000	 -0.001700
3.620000	 0.085987
3.638000	 0.064774
3.656000	 -0.009308
3.674000	 -0.027871
3.692000	 0.003797
3.710000	 -0.019237
3.728000	 0.014661
3.746000	 0.060141
3.764000	 0.053838
3.782000	 0.036694
3.800000	 -0.003011
3.818000	 0.091817
3.836000	 -0.021333
3.854000	 -0.069796
3.872000	 -0.016711
3.890000	 0.092822
3.908000	 0.161625
3.926000	 0.094181
3.944000	 0.094033
3.962000	 0.048352
3.980000	 0.101694
3.998000	 -0.156646
4.016000	 0.026470
4.034000	 0.146995
4.052000	 0.059354
4.070000	 -0.047000
4.088000	 -0.025852
4.106000	 0.108756
4.124000	 0.031565
4.141999	 0.058070
4.160000	 0.049154
4.178000	 0.074267
4.196000	 0.038035
4.214000	 0.039042
4.232000	 0.115995
4.250000	 0.080578
4.268000	 -0.138798
4.286000	 -0.021528
4.304000	 0.073233
4.322000	 0.155827
4.340000	 0.155705
4.358000	 0.187872
4.375999	 0.355156
4.394000	 0.363104
4.412000	 0.398714
4.430000	 0.470238
4.448000	 0.595548
4.466000	 0.908528
4.484000	 1.164443
4.502000	 1.285359
4.520000	 1.676129
4.538000	 1.939229
4.556000	 2.288137
4.574000	 2.661258
4.592000	 3.286428
4.609999	 3.826255
4.628000	 4.394337
4.646000	 4.954093
4.664000	 5.701782
4.682000	 6.450137
4.700000	 7.133915
4.718000	 7.936472
4.736000	 8.676471
4.754000	 9.475432
4.772000	 10.3214
4.790000	 11.0229
4.808000	 11.9417
4.826000	 12.6619
4.843999	 13.34
4.862000	 14.2762
4.880000	 15.013
4.898000	 15.65
4.916000	 16.375
4.934000	 17.0986
4.952000	 17.9037
4.970000	 18.4231
4.988000	 19.0101
5.006000	 19.5903
5.024000	 20.0733
5.042000	 20.6722
5.060000	 21.1355
5.077999	 21.6545
5.096000	 22.0758
5.114000	 22.4949
5.132000	 22.8679
5.150000	 23.2918
5.168000	 23.6531
5.186000	 24.0595
5.204000	 24.3202
5.222000	 24.5634
5.240000	 24.91
5.258000	 25.1324
5.276000	 25.4597
5.294000	 25.7725
5.312000	 25.939
5.330000	 26.1178
5.348000	 26.406
5.366000	 26.5768
5.384000	 26.7992
5.402000	 27.055
5.420000	 27.113
5.438000	 27.2815
5.456000	 27.4312
5.474000	 27.5836
5.492000	 27.7174
5.510000	 27.9204
5.528000	 28.0455
5.546000	 28.1033
5.564000	 28.2598
5.582000	 28.4036
5.600000	 28.4099
5.618000	 28.5113
5.636000	 28.6848
5.654000	 28.7702
5.672000	 28.855
5.690000	 28.8415
5.708000	 28.8948
5.726000	 29.0578
5.744000	 29.1356
5.762000	 29.2216
5.780000	 29.2726
5.798000	 29.2686
5.816000	 29.1883
5.834000	 29.2168
5.852000	 29.4267
5.870000	 29.488
5.888000	 29.525
5.906000	 29.6052
5.923999	 29.6669
5.942000	 29.7057
5.960000	 29.7699
5.978000	 29.8565
5.996000	 29.8115
6.014000	 29.7505
6.032000	 29.8228
6.050000	 29.944
6.068000	 29.9726
6.086000	 29.9314
6.104000	 29.9361
6.122000	 29.9504
6.140000	 29.9886
6.158000	 30.064
6.176000	 30.0913
6.194000	 30.13
6.212000	 30.1891
6.230000	 30.2199
6.248000	 30.1958
6.266000	 30.2081
6.284000	 30.2786
6.302000	 30.3309
6.320000	 30.2966
6.338000	 30.2747
6.356000	 30.3669
6.374000	 30.4443
6.392000	 30.3869
6.410000	 30.3061
6.428000	 30.352
6.446000	 30.4148
6.464000	 30.4475
6.482000	 30.4953
6.500000	 30.5348
6.518000	 30.5604
6.536000	 30.5434
6.554000	 30.5175
6.572000	 30.5011
6.590000	 30.478
6.608000	 30.4594
6.626000	 30.4521
6.644000	 30.4879
6.662000	 30.5265
6.680000	 30.5692
6.698000	 30.6651
6.716000	 30.6469
6.734000	 30.4575
6.752000	 30.3215
6.770000	 30.357
6.788000	 30.4674
6.806000	 30.5003
6.824000	 30.4147
6.842000	 30.3493
6.860000	 30.405
6.878000	 30.4678
6.896000	 30.3942
6.914000	 30.3198
6.932000	 30.4208
6.950000	 30.555
6.968000	 30.5285
6.986000	 30.4349
7.004000	 30.4471
7.022000	 30.506
7.040000	 30.4986
7.058000	 30.4586
7.076000	 30.4419
7.094000	 30.4486
7.112000	 30.4627
7.130000	 30.4971
7.148000	 30.5111
7.166000	 30.4088
7.184000	 30.2639
7.202000	 30.243
7.220000	 30.3073
7.238000	 30.3096
7.256000	 30.2493
7.274000	 30.2251
7.292000	 30.2618
7.310000	 30.304
7.328000	 30.3134
7.346000	 30.2846
7.364000	 30.2327
7.382000	 30.1986
7.400000	 30.2032
7.418000	 30.2336
7.436000	 30.2687
7.454000	 30.285
7.472000	 30.2751
7.490000	 30.2514
7.508000	 30.2191
7.526000	 30.1918
7.544000	 30.1835
7.562000	 30.1815
7.580000	 30.1706
7.598000	 30.1579
7.616000	 30.1522
7.634000	 30.1506
7.652000	 30.1501
7.670000	 30.1558
7.688000	 30.1697
7.706000	 30.1794
7.724000	 30.1682
7.742000	 30.1303
7.760000	 30.0838
7.778000	 30.0602
7.796000	 30.0665
7.814000	 30.0777
7.832000	 30.0755
7.850000	 30.0666
7.868000	 30.0573
7.886000	 30.0426
7.904000	 30.0248
7.922000	 30.0136
7.940000	 30.0076
7.958000	 29.9994
7.976000	 29.9918
7.994000	 29.981
8.012000	 29.9461
8.030000	 29.8851
8.048000	 29.8225
8.065999	 29.7746
8.084000	 29.743
8.102000	 29.7315
8.120000	 29.7315
8.138000	 29.7177
8.155999	 29.6878
8.173999	 29.6681
8.192000	 29.6724
8.210000	 29.6925
8.228000	 29.7204
8.246000	 29.7484
8.263999	 29.7608
8.282000	 29.7509
8.300000	 29.7324
8.318000	 29.7224
8.336000	 29.7272
8.353999	 29.7366
8.372000	 29.73
8.390000	 29.6976
8.408000	 29.6421
8.426000	 29.5695
8.443999	 29.4954
8.462000	 29.4451
8.480000	 29.4306
8.498000	 29.4402
8.516000	 29.4509
8.533999	 29.449
8.552000	 29.4377
8.570000	 29.4268
8.588000	 29.42
8.606000	 29.4149
8.624000	 29.4112
8.641999	 29.4092
8.660000	 29.4017
8.678000	 29.3741
8.696000	 29.3188
8.714000	 29.249
8.731999	 29.1879
8.750000	 29.1426
8.768000	 29.1041
8.786000	 29.0729
8.804000	 29.066
8.821999	 29.0916
8.840000	 29.1306
8.858000	 29.151
8.876000	 29.1353
8.894000	 29.0899
8.911999	 29.0372
8.930000	 29.0037
8.948000	 29.0027
8.966000	 29.0189
8.984000	 29.0181
9.001999	 28.982
9.020000	 28.9309
9.038000	 28.9024
9.056000	 28.909
9.074000	 28.9254
9.092000	 28.9172
9.109999	 28.8763
9.128000	 28.8231
9.146000	 28.7814
9.164000	 28.7578
9.182000	 28.7416
9.199999	 28.7171
9.218000	 28.6753
9.236000	 28.6224
9.254000	 28.5804
9.272000	 28.5725
9.289999	 28.6005
9.308000	 28.6367
9.326000	 28.6438
9.344000	 28.6066
9.362000	 28.5449
9.379999	 28.4951
9.398000	 28.4815
9.416000	 28.5022
9.434000	 28.5371
9.452000	 28.5615
9.469999	 28.5569
9.488000	 28.5136
9.506000	 28.4316
9.524000	 28.3191
9.542000	 28.1922
9.560000	 28.0729
9.577999	 27.9843
9.596000	 27.9418
9.614000	 27.9452
9.632000	 27.9757
9.650000	 28.0073
9.667999	 28.0238
9.686000	 28.0281
9.704000	 28.0349
9.722000	 28.0524
9.740000	 28.071
9.757999	 28.0703
9.776000	 28.0374
9.794000	 27.9794
9.812000	 27.9196
9.830000	 27.8804
9.847999	 27.8698
9.866000	 27.8797
9.884000	 27.8947
9.902000	 27.9013
9.920000	 27.8923
9.937999	 27.8676
9.956000	 27.8339
9.974000	 27.8001
9.992000	 27.7716
10.01	27.7475
10.028	27.7214
10.046	27.6864
10.064	27.6402
10.082	27.5858
10.1	27.5317
10.118	27.4895
10.136	27.4687
10.154	27.4733
10.172	27.4981
10.19	27.5292
10.208	27.5514
10.226	27.5564
10.244	27.545
10.262	27.5224
10.28	27.4912
10.298	27.4511
10.316	27.4024
10.334	27.3496
10.352	27.2992
10.37	27.2545
10.388	27.2126
10.406	27.1673
10.424	27.1157
10.442	27.0633
10.46	27.0199
10.478	26.9929
10.496	26.9814
10.514	26.9789
10.532	26.9775
10.55	26.9735
10.568	26.9656
10.586	26.953
10.604	26.9343
10.622	26.9073
10.64	26.8723
10.658	26.8336
10.676	26.7975
10.694	26.769
10.712	26.75
10.73	26.7404
10.748	26.7402
10.766	26.7496
10.784	26.7681
10.802	26.7921
10.82	26.8148
10.838	26.8273
10.856	26.8222
10.874	26.7957
10.892	26.7489
10.91	26.6861
10.928	26.6138
10.946	26.5392
10.964	26.469
10.982	26.4085
11	26.3595
11.018	26.3204
11.036	26.2874
11.054	26.2573
11.072	26.2297
11.09	26.2077
11.108	26.1947
11.126	26.1923
11.144	26.1994
11.162	26.2117
11.18	26.2248
11.198	26.2363
11.216	26.2454
11.234	26.2521
11.252	26.2544
11.27	26.2479
11.288	26.2264
11.306	26.1864
11.324	26.1297
11.342	26.0645
11.36	26.0019
11.378	25.9524
11.396	25.9207
11.414	25.9044
11.432	25.896
11.45	25.8872
11.468	25.8718
11.486	25.8481
11.504	25.8185
11.522	25.7877
11.54	25.7603
11.558	25.7402
11.576	25.7291
11.594	25.7268
11.612	25.7304
11.63	25.7348
11.648	25.7338
11.666	25.7212
11.684	25.6932
11.702	25.6501
11.72	25.5958
11.738	25.5366
11.756	25.4781
11.774	25.4242
11.792	25.3761
11.81	25.3337
11.828	25.2973
11.846	25.2689
11.864	25.2517
11.882	25.2481
11.9	25.2587
11.918	25.2803
11.936	25.3072
11.954	25.3327
11.972	25.3512
11.99	25.36
12.008	25.3585
12.026	25.3471
12.044	25.3264
12.062	25.2964
12.08	25.2573
12.098	25.2105
12.116	25.16
12.134	25.1116
12.152	25.0719
12.17	25.0451
12.188	25.0319
12.206	25.0285
12.224	25.0284
12.242	25.0248
12.26	25.0133
12.278	24.9927
12.296	24.9653
12.314	24.9348
12.332	24.9055
12.35	24.88
12.368	24.8598
12.386	24.8448
12.404	24.8343
12.422	24.8274
12.44	24.8225
12.458	24.8179
12.476	24.8116
12.494	24.8008
12.512	24.7829
12.53	24.756
12.548	24.7192
12.566	24.6738
12.584	24.622
12.602	24.5674
12.62	24.5137
12.638	24.4638
12.656	24.4196
12.674	24.3821
12.692	24.3518
12.71	24.3287
12.728	24.3131
12.746	24.3052
12.764	24.3052
12.782	24.3123
12.8	24.3248
12.818	24.3399
12.836	24.3535
12.854	24.3614
12.872	24.3599
12.89	24.3469
12.908	24.3224
12.926	24.2882
12.944	24.2476
12.962	24.2047
12.98	24.163
12.998	24.1255
13.016	24.0937
13.034	24.0685
13.052	24.0502
13.07	24.0394
13.088	24.0366
13.106	24.0421
13.124	24.0563
13.142	24.0778
13.16	24.104
13.178	24.1302
13.196	24.151
13.214	24.1614
13.232	24.1579
13.25	24.1397
13.268	24.1087
13.286	24.069
13.304	24.0255
13.322	23.9824
13.34	23.9424
13.358	23.9057
13.376	23.8705
13.394	23.8336
13.412	23.7918
13.43	23.7427
13.448	23.6862
13.466	23.6241
13.484	23.5604
13.502	23.4999
13.52	23.4479
13.538	23.4086
13.556	23.3847
13.574	23.3772
13.592	23.3853
13.61	23.4062
13.628	23.436
13.646	23.4697
13.664	23.5026
13.682	23.5301
13.7	23.5489
13.718	23.5575
13.736	23.5565
13.754	23.5478
13.772	23.5345
13.79	23.5202
13.808	23.5076
13.826	23.4981
13.844	23.4914
13.862	23.4857
13.88	23.4784
13.898	23.4669
13.916	23.4495
13.934	23.4258
13.952	23.3966
13.97	23.3644
13.988	23.3323
14.006	23.3028
14.024	23.2775
14.042	23.2562
14.06	23.2367
14.078	23.2161
14.096	23.1907
14.114	23.1575
14.132	23.1154
14.15	23.0651
14.168	23.0092
14.186	22.9513
14.204	22.8961
14.222	22.8471
14.24	22.8064
14.258	22.7734
14.276	22.7457
14.294	22.7191
14.312	22.689
14.33	22.6514
14.348	22.604
14.366	22.5468
14.384	22.4833
14.402	22.4191
14.42	22.3616
14.438	22.318
14.456	22.2943
14.474	22.2945
14.492	22.3192
14.51	22.3659
14.528	22.4286
14.546	22.5
14.564	22.5728
14.582	22.64
14.6	22.6965
14.618	22.7391
14.636	22.7668
14.654	22.7806
14.672	22.7823
14.69	22.7742
14.708	22.7588
14.726	22.7381
14.744	22.7136
14.762	22.6866
14.78	22.6582
14.798	22.6288
14.816	22.5992
14.834	22.5698
14.852	22.5413
14.87	22.5141
14.888	22.4887
14.906	22.4652
14.924	22.4438
14.942	22.4245
14.96	22.4073
14.978	22.392
14.996	22.3784
15.014	22.3665
15.032	22.3559
15.05	22.3462
15.068	22.337
15.086	22.328
15.104	22.3185
15.122	22.3074
15.14	22.294
15.158	22.2778
15.176	22.2584
15.194	22.2355
15.212	22.2097
15.23	22.1816
15.248	22.152
15.266	22.1219
15.284	22.0924
15.302	22.0645
15.32	22.0389
15.338	22.0159
15.356	21.996
15.374	21.9791
15.392	21.9648
15.41	21.9526
15.428	21.9417
15.446	21.9308
15.464	21.919
15.482	21.9054
15.5	21.8892
15.518	21.87
15.536	21.8478
15.554	21.8229
15.572	21.7961
15.59	21.7683
15.608	21.7402
15.626	21.7121
15.644	21.6844
15.662	21.6567
15.68	21.6283
15.698	21.5984
15.716	21.5658
15.734	21.5294
15.752	21.4886
15.77	21.4429
15.788	21.3928
15.806	21.3398
15.824	21.2855
15.842	21.2326
15.86	21.1843
15.878	21.1433
15.896	21.1121
15.914	21.0937
15.932	21.0891
15.95	21.0987
15.968	21.1223
15.986	21.1578
16.004	21.2028
16.022	21.2545
16.04	21.3084
16.058	21.3614
16.076	21.4105
16.094	21.4519
16.112	21.4838
16.13	21.5051
16.148	21.5153
16.166	21.5155
16.184	21.5072
16.202	21.4925
16.22	21.4746
16.238	21.4562
16.256	21.4397
16.274	21.4275
16.292	21.4205
16.31	21.4191
16.328	21.4222
16.346	21.4278
16.364	21.4342
16.382	21.4376
16.4	21.4348
16.418	21.4238
16.436	21.4012
16.454	21.3662
16.472	21.3181
16.49	21.2575
16.508	21.1868
16.526	21.1078
16.544	21.0246
16.562	20.9409
16.58	20.8595
16.598	20.7853
16.616	20.7207
16.634	20.668
16.652	20.6292
16.67	20.6046
16.688	20.5945
16.706	20.5977
16.724	20.6132
16.742	20.6395
16.76	20.6741
16.778	20.7158
16.796	20.7623
16.814	20.8117
16.832	20.8629
16.85	20.9141
16.868	20.9641
16.886	21.0119
16.904	21.0558
16.922	21.0954
16.94	21.1296
16.958	21.1576
16.976	21.1791
16.994	21.1935
17.012	21.2006
17.03	21.2001
17.048	21.1925
17.066	21.178
17.084	21.157
17.102	21.1306
17.12	21.0994
17.138	21.0642
17.156	21.0258
17.174	20.9848
17.192	20.9418
17.21	20.8972
17.228	20.8514
17.246	20.8043
17.264	20.7561
17.282	20.7062
17.3	20.6546
17.318	20.601
17.336	20.5454
17.354	20.4877
17.372	20.4285
17.39	20.3683
17.408	20.3079
17.426	20.2488
17.444	20.1917
17.462	20.1388
17.48	20.0906
17.498	20.0488
17.516	20.014
17.534	19.9869
17.552	19.9674
17.57	19.9555
17.588	19.9503
17.606	19.9509
17.624	19.9561
17.642	19.9639
17.66	19.9737
17.678	19.9827
17.696	19.9903
17.714	19.9946
17.732	19.995
17.75	19.9906
17.768	19.9813
17.786	19.9669
17.804	19.948
17.822	19.9247
17.84	19.8983
17.858	19.8697
17.876	19.8397
17.894	19.8101
17.912	19.7813
17.93	19.7552
17.948	19.732
17.966	19.7131
17.984	19.6987
18.002	19.6896
18.02	19.6859
18.038	19.6878
18.056	19.6949
18.074	19.7071
18.092	19.7232
18.11	19.743
18.128	19.7646
18.146	19.7877
18.164	19.8103
18.182	19.8317
18.2	19.8507
18.218	19.8662
18.236	19.8775
18.254	19.884
18.272	19.8855
18.29	19.8822
18.308	19.8743
18.326	19.8628
18.344	19.848
18.362	19.8312
18.38	19.8129
18.398	19.7942
18.416	19.7756
18.434	19.7578
18.452	19.741
18.47	19.7255
18.488	19.7111
18.506	19.6978
18.524	19.6848
18.542	19.6721
18.56	19.6589
18.578	19.6452
18.596	19.6302
18.614	19.614
18.632	19.5964
18.65	19.5775
18.668	19.5576
18.686	19.5368
18.704	19.5159
18.722	19.4949
18.74	19.4748
18.758	19.4555
18.776	19.4377
18.794	19.4213
18.812	19.4065
18.83	19.3931
18.848	19.3809
18.866	19.3696
18.884	19.3585
18.902	19.3473
18.92	19.3354
18.938	19.3225
18.956	19.308
18.974	19.292
18.992	19.2743
19.01	19.2551
19.028	19.2348
19.046	19.2139
19.064	19.1931
19.082	19.1729
19.1	19.1544
19.118	19.138
19.136	19.1246
19.154	19.1144
19.172	19.1085
19.19	19.1068
19.208	19.1096
19.226	19.1169
19.244	19.1282
19.262	19.1434
19.28	19.1611
19.298	19.1813
19.316	19.2022
19.334	19.2239
19.352	19.2442
19.37	19.2632
19.388	19.279
19.406	19.2916
19.424	19.2997
19.442	19.3033
19.46	19.3017
19.478	19.2949
19.496	19.2832
19.514	19.2665
19.532	19.2456
19.55	19.2208
19.568	19.193
19.586	19.163
19.604	19.1314
19.622	19.0993
19.64	19.067
19.658	19.0357
19.676	19.0055
19.694	18.9776
19.712	18.9517
19.73	18.9288
19.748	18.9087
19.766	18.8918
19.784	18.8781
19.802	18.8676
19.82	18.8603
19.838	18.8559
19.856	18.8545
19.874	18.8558
19.892	18.8592
19.91	18.8649
19.928	18.8719
19.946	18.8804
19.964	18.8892
19.982	18.8981
20	18.9061
20.018	18.9127
20.036	18.9172
20.054	18.9183
20.072	18.916
20.09	18.9087
20.108	18.8965
20.126	18.8779
20.144	18.853
20.162	18.8211
20.18	18.7818
20.198	18.7354
20.216	18.6818
20.234	18.6213
20.252	18.5552
20.27	18.4832
20.288	18.4078
20.306	18.3287
20.324	18.2483
20.342	18.1678
20.36	18.0879
20.378	18.0116
20.396	17.9381
20.414	17.8707
20.432	17.809
20.45	17.7545
20.468	17.708
20.486	17.6694
20.504	17.6395
20.522	17.618
20.54	17.6046
20.558	17.5996
20.576	17.6017
20.594	17.6108
20.612	17.6262
20.63	17.646
20.648	17.6707
20.666	17.6981
20.684	17.7283
20.702	17.76
20.72	17.7919
20.738	17.8243
20.756	17.8555
20.774	17.886
20.792	17.9148
20.81	17.9414
20.828	17.9661
20.846	17.9884
20.864	18.0085
20.882	18.0264
20.9	18.0421
20.918	18.0558
20.936	18.0677
20.954	18.0779
20.972	18.0868
20.99	18.0944
21.008	18.1008
21.026	18.106
21.044	18.11
21.062	18.1124
21.08	18.1134
21.098	18.1121
21.116	18.1084
21.134	18.102
21.152	18.0919
21.17	18.0784
21.188	18.0601
21.206	18.037
21.224	18.0086
21.242	17.9742
21.26	17.934
21.278	17.888
21.296	17.8357
21.314	17.7779
21.332	17.7153
21.35	17.6476
21.368	17.577
21.386	17.5037
21.404	17.4285
21.422	17.3543
21.44	17.2802
21.458	17.2093
21.476	17.143
21.494	17.0811
21.512	17.0271
21.53	16.9802
21.548	16.9417
21.566	16.9129
21.584	16.8933
21.602	16.883
21.62	16.8826
21.638	16.8905
21.656	16.9056
21.674	16.9284
21.692	16.9556
21.71	16.9868
21.728	17.0213
21.746	17.0548
21.764	17.0887
21.782	17.1201
21.8	17.1469
21.818	17.1699
21.836	17.1865
21.854	17.1961
21.872	17.1992
21.89	17.1951
21.908	17.1835
21.926	17.1657
21.944	17.1421
21.962	17.1125
21.98	17.0801
21.998	17.0444
22.016	17.0067
22.034	16.97
22.052	16.9332
22.07	16.8986
22.088	16.8683
22.106	16.8412
22.124	16.8196
22.142	16.8041
22.16	16.7942
22.178	16.7903
22.196	16.793
22.214	16.8009
22.232	16.813
22.25	16.83
22.268	16.8498
22.286	16.871
22.304	16.8943
22.322	16.917
22.34	16.9387
22.358	16.9595
22.376	16.9771
22.394	16.9919
22.412	17.0036
22.43	17.0116
22.448	17.0159
22.466	17.0172
22.484	17.0156
22.502	17.011
22.52	17.005
22.538	16.998
22.556	16.99
22.574	16.9835
22.592	16.9784
22.61	16.9751
22.628	16.9758
22.646	16.9802
22.664	16.9889
22.682	17.0033
22.7	17.0234
22.718	17.0489
22.736	17.0802
22.754	17.1175
22.772	17.1596
22.79	17.2056
22.808	17.2564
22.826	17.3092
22.844	17.3625
22.862	17.4174
22.88	17.4701
22.898	17.5192
22.916	17.5657
22.934	17.6057
22.952	17.6379
22.97	17.6633
22.988	17.679
23.006	17.6843
23.024	17.6798
23.042	17.6647
23.06	17.6383
23.078	17.6014
23.096	17.5546
23.114	17.4972
23.132	17.4302
23.15	17.3562
23.168	17.2739
23.186	17.185
23.204	17.0945
23.222	17.0013
23.24	16.9066
23.258	16.8149
23.276	16.7258
23.294	16.6396
23.312	16.56
23.33	16.4873
23.348	16.4208
23.366	16.3613
23.384	16.3097
23.402	16.2649
23.42	16.2252
23.438	16.1918
23.456	16.1635
23.474	16.136
23.492	16.1097
23.51	16.0844
23.528	16.0546
23.546	16.0192
23.564	15.9796
23.582	15.9305
23.6	15.8703
23.618	15.8006
23.636	15.7186
23.654	15.622
23.672	15.5121
23.69	15.39
23.708	15.2558
23.726	15.1082
23.744	14.952
23.762	14.7906
23.78	14.6199
23.798	14.4471
23.816	14.2797
23.834	14.1124
23.852	13.9513
23.87	13.8062
23.888	13.6737
23.906	13.5561
23.924	13.4614
23.942	13.3904
23.96	13.3413
23.978	13.3178
23.996	13.3222
24.014	13.3529
24.032	13.4071
24.05	13.4842
24.068	13.5867
24.086	13.7069
24.104	13.8383
24.122	13.9874
24.14	14.1454
24.158	14.2998
24.176	14.4561
24.194	14.6104
24.212	14.7495
24.23	14.8723
24.248	14.9819
24.266	15.0676
24.284	15.1229
24.302	15.1529
24.32	15.1545
24.338	15.1244
24.356	15.062
24.374	14.9709
24.392	14.8545
24.41	14.7084
24.428	14.5365
24.446	14.3511
24.464	14.1548
24.482	13.9417
24.5	13.7276
24.518	13.5247
24.536	13.3215
24.554	13.1304
24.572	12.9693
24.59	12.833
24.608	12.7224
24.626	12.6534
24.644	12.6336
24.662	12.6546
24.68	12.7243
24.698	12.851
24.716	13.032
24.734	13.2658
24.752	13.5523
24.77	13.8951
24.788	14.2918
24.806	14.7318
24.824	15.2097
24.842	15.7346
24.86	16.2921
24.878	16.8651
24.896	17.4629
24.914	18.0808
24.932	18.6965
24.95	19.3
24.968	19.9056
24.986	20.4934
25.004	21.0421
25.022	21.5619
25.04	22.0491
25.058	22.4867
25.076	22.8664
25.094	23.1979
25.112	23.4737
25.13	23.6859
25.148	23.8346
25.166	23.9235
25.184	23.9551
25.202	23.928
25.22	23.8398
25.238	23.7015
25.256	23.5243
25.274	23.2989
25.292	23.0316
25.31	22.7403
25.328	22.434
25.346	22.0993
25.364	21.7529
25.382	21.4142
25.4	21.0773
25.418	20.741
25.436	20.4223
25.454	20.1342
25.472	19.8653
25.49	19.6223
25.508	19.416
25.526	19.2494
25.544	19.117
25.562	19.0229
25.58	18.9708
25.598	18.9614
25.616	18.9918
25.634	19.0591
25.652	19.1628
25.67	19.3068
25.688	19.4835
25.706	19.6842
25.724	19.9111
25.742	20.1665
25.76	20.4386
25.778	20.7164
25.796	21.008
25.814	21.3097
25.832	21.6103
25.85	21.9027
25.868	22.1955
25.886	22.482
25.904	22.7537
25.922	23.0089
25.94	23.2523
25.958	23.478
25.976	23.68
25.994	23.8595
26.012	24.018
26.03	24.1528
26.048	24.2614
26.066	24.3446
26.084	24.4034
26.102	24.4382
26.12	24.4492
26.138	24.4354
26.156	24.3988
26.174	24.3415
26.192	24.2635
26.21	24.1626
26.228	24.044
26.246	23.9127
26.264	23.7689
26.282	23.6102
26.3	23.4403
26.318	23.2625
26.336	23.0759
26.354	22.8799
26.372	22.676
26.39	22.4655
26.408	22.2495
26.426	22.0262
26.444	21.7934
26.462	21.5496
26.48	21.2989
26.498	21.0376
26.516	20.7593
26.534	20.4602
26.552	20.1459
26.57	19.8126
26.588	19.4544
26.606	19.0673
26.624	18.6553
26.642	18.2175
26.66	17.7522
26.678	17.2574
26.696	16.7333
26.714	16.1828
26.732	15.6092
26.75	15.0124
26.768	14.3877
26.786	13.7432
26.804	13.0878
26.822	12.424
26.84	11.7424
26.858	11.0545
26.876	10.3729
26.894	9.701892
26.912	9.029599
26.93	8.368002
26.948	7.730800
26.966	7.106197
26.984	6.455292
27.002	5.854889
27.02	5.389463
27.028	5.262541