File: Bakgrunnsmateriale/MATLAB/FTIR/ftir_data/LPE453/Mapping_121/LPE453_e122_cm-1.asc
PE IR       SPECTRUM    SPECTRUM    ASCII       PEDS        1.60
  -1
LPE453~1.ASC
17/05/16
14:22:06.00
17/05/16
14:22:06.00
tln
$LPE453_e0122$<ebV0>[-23.3,12.1,10.0,0.0,27,1,0]
370
64

2002,4.07
MIRTGS : RIGHTBACK : INTERNAL 2
MIR : ON : INTERNAL 2
OPTKBR

0.200000
8
8.000000
FILLER
SINGLE
SPECTRUM
UNLOCKED 256

DOUBLE

COMBINED
1
0
0

1.000000
BACKG

1
0
TRUE
51149
0
LEFT NOT FITTED RIGHT NOT FITTED 0
NONE
NONE
15600
12
4.427000
51148
TRUE
1 0 8 72 0 0 0 0

15798

#HDR
-1
-1
#GR
CM-1
EGY
2.38419e-05
0.0
5000
-1.000000
4631
8
2.391576
0.011110
#DATA
5000	0.749111
4996	0.753140
4992	0.754070
4988	0.753617
4984	0.754094
4980	0.756192
4976	0.758504
4972	0.760602
4968	0.762820
4964	0.763678
4960	0.763487
4956	0.766420
4952	0.766229
4948	0.759387
4944	0.756812
4940	0.760102
4936	0.764298
4932	0.765943
4928	0.764346
4924	0.763368
4920	0.767207
4916	0.775361
4912	0.780272
4908	0.784039
4904	0.787210
4900	0.781059
4896	0.780367
4892	0.797772
4888	0.807261
4884	0.799965
4880	0.796556
4876	0.796294
4872	0.795912
4868	0.798511
4864	0.799441
4860	0.801825
4856	0.808191
4852	0.811910
4848	0.811910
4844	0.813174
4840	0.815391
4836	0.816559
4832	0.817513
4828	0.819015
4824	0.822734
4820	0.828886
4816	0.832462
4812	0.833749
4808	0.836610
4804	0.840878
4800	0.845360
4796	0.847482
4792	0.848555
4788	0.851583
4784	0.853395
4780	0.855517
4776	0.859546
4772	0.862050
4768	0.863623
4764	0.865650
4760	0.867128
4756	0.868034
4752	0.870037
4748	0.872111
4744	0.872445
4740	0.872945
4736	0.872874
4732	0.872731
4728	0.874352
4724	0.877141
4720	0.880122
4716	0.881958
4712	0.882005
4708	0.881266
4704	0.881314
4700	0.882411
4696	0.883746
4692	0.885009
4688	0.885081
4684	0.885629
4680	0.888037
4676	0.888133
4672	0.885534
4668	0.884222
4664	0.884914
4660	0.886058
4656	0.887203
4652	0.888943
4648	0.888991
4644	0.888109
4640	0.889587
4636	0.892496
4632	0.894737
4628	0.894260
4624	0.893521
4620	0.895500
4616	0.897717
4612	0.899314
4608	0.901603
4604	0.904250
4600	0.906014
4596	0.907444
4592	0.909590
4588	0.912570
4584	0.915622
4580	0.918889
4576	0.922036
4572	0.923705
4568	0.923824
4564	0.924086
4560	0.926685
4556	0.931239
4552	0.935125
4548	0.936079
4544	0.936555
4540	0.939559
4536	0.941944
4532	0.943136
4528	0.945186
4524	0.948596
4520	0.951886
4516	0.953841
4512	0.957584
4508	0.962114
4504	0.963139
4500	0.961995
4496	0.962233
4492	0.967621
4488	0.975298
4484	0.974416
4480	0.970458
4476	0.970005
4472	0.968217
4468	0.963902
4464	0.973153
4460	1.027703
4456	1.095533
4452	1.121139
4448	1.120901
4444	1.099276
4440	1.043343
4436	1.000213
4432	0.988769
4428	0.982284
4424	0.978589
4420	0.975131
4416	0.973844
4412	0.978946
4408	0.982546
4404	0.984406
4400	0.987386
4396	0.988221
4392	0.987410
4388	0.990104
4384	0.994467
4380	0.997090
4376	0.999283
4372	1.001310
4368	1.002860
4364	1.004981
4360	1.008057
4356	1.012015
4352	1.017069
4348	1.022791
4344	1.028490
4340	1.033878
4336	1.038074
4332	1.040744
4328	1.043844
4324	1.049041
4320	1.055550
4316	1.061964
4312	1.067256
4308	1.071977
4304	1.076197
4300	1.079463
4296	1.083898
4292	1.090407
4288	1.096177
4284	1.100468
4280	1.105403
4276	1.110982
4272	1.115560
4268	1.118564
4264	1.121735
4260	1.125693
4256	1.128077
4252	1.129508
4248	1.132297
4244	1.136779
4240	1.141762
4236	1.145672
4232	1.149129
4228	1.152467
4224	1.154923
4220	1.155638
4216	1.156353
4212	1.159787
4208	1.164245
4204	1.166629
4200	1.166963
4196	1.166772
4192	1.167845
4188	1.171088
4184	1.174592
4180	1.177811
4176	1.180338
4172	1.181364
4168	1.181268
4164	1.182246
4160	1.185536
4156	1.188182
4152	1.189851
4148	1.191759
4144	1.193928
4140	1.197648
4136	1.202034
4132	1.205492
4128	1.207923
4124	1.210331
4120	1.213955
4116	1.218342
4112	1.221728
4108	1.224637
4104	1.228427
4100	1.232910
4096	1.236939
4092	1.240992
4088	1.246714
4084	1.252007
4080	1.255869
4076	1.261591
4072	1.268982
4068	1.275801
4064	1.280641
4060	1.284432
4056	1.289057
4052	1.293563
4048	1.298069
4044	1.303505
4040	1.310229
4036	1.316213
4032	1.318740
4028	1.321911
4024	1.327371
4020	1.331830
4016	1.335430
4012	1.339244
4008	1.343226
4004	1.345849
4000	1.347184
3996	1.350021
3992	1.354765
3988	1.358747
3984	1.360678
3980	1.363325
3976	1.367259
3972	1.370048
3968	1.371383
3964	1.372742
3960	1.375031
3956	1.376008
3952	1.376843
3948	1.380896
3944	1.383996
3940	1.383924
3936	1.383423
3932	1.383757
3928	1.383948
3924	1.384329
3920	1.386165
3916	1.388716
3912	1.390337
3908	1.387596
3904	1.384043
3900	1.386976
3896	1.391792
3892	1.392650
3888	1.392292
3884	1.393532
3880	1.397204
3876	1.399564
3872	1.398468
3868	1.400303
3864	1.407027
3860	1.406669
3856	1.396083
3852	1.399636
3848	1.418614
3844	1.423954
3840	1.417183
3836	1.420211
3832	1.434063
3828	1.444101
3824	1.444339
3820	1.442170
3816	1.447200
3812	1.455831
3808	1.458454
3804	1.458954
3800	1.466202
3796	1.478195
3792	1.487016
3788	1.491880
3784	1.495194
3780	1.498484
3776	1.502346
3772	1.504516
3768	1.506471
3764	1.509380
3760	1.509594
3756	1.502203
3752	1.489162
3748	1.482486
3744	1.489233
3740	1.500630
3736	1.506590
3732	1.513886
3728	1.523494
3724	1.528477
3720	1.530170
3716	1.527428
3712	1.524615
3708	1.529121
3704	1.533794
3700	1.534414
3696	1.532697
3692	1.525449
3688	1.522302
3684	1.527333
3680	1.524114
3676	1.513028
3672	1.511788
3668	1.523542
3664	1.533675
3660	1.533699
3656	1.528620
3652	1.521563
3648	1.521015
3644	1.530814
3640	1.539421
3636	1.540327
3632	1.533842
3628	1.531195
3624	1.536369
3620	1.537203
3616	1.535034
3612	1.536035
3608	1.541113
3604	1.547598
3600	1.550126
3596	1.549625
3592	1.548337
3588	1.549124
3584	1.555037
3580	1.560592
3576	1.563048
3572	1.563143
3568	1.561975
3564	1.563882
3560	1.568245
3556	1.571989
3552	1.574826
3548	1.576495
3544	1.576805
3540	1.576352
3536	1.576066
3532	1.576280
3528	1.577687
3524	1.579904
3520	1.581883
3516	1.583194
3512	1.582837
3508	1.580977
3504	1.578903
3500	1.577091
3496	1.575970
3492	1.574873
3488	1.572394
3484	1.569414
3480	1.567697
3476	1.567387
3472	1.566529
3468	1.564478
3464	1.561999
3460	1.559853
3456	1.556992
3452	1.551961
3448	1.547765
3444	1.546382
3440	1.547050
3436	1.547503
3432	1.544928
3428	1.542043
3424	1.542067
3420	1.543998
3416	1.546859
3412	1.549029
3408	1.549720
3404	1.550436
3400	1.552295
3396	1.555109
3392	1.557540
3388	1.559162
3384	1.561713
3380	1.565980
3376	1.570320
3372	1.574206
3368	1.578307
3364	1.582789
3360	1.587986
3356	1.594114
3352	1.600790
3348	1.606941
3344	1.612544
3340	1.617956
3336	1.622056
3332	1.625967
3328	1.631402
3324	1.637530
3320	1.643896
3316	1.650762
3312	1.657557
3308	1.664185
3304	1.669740
3300	1.674413
3296	1.679515
3292	1.684212
3288	1.688408
3284	1.692771
3280	1.697683
3276	1.702213
3272	1.706075
3268	1.710391
3264	1.714444
3260	1.718616
3256	1.723146
3252	1.725864
3248	1.728010
3244	1.730775
3240	1.733255
3236	1.735734
3232	1.737117
3228	1.737165
3224	1.737904
3220	1.739335
3216	1.739883
3212	1.740312
3208	1.742315
3204	1.743674
3200	1.743316
3196	1.743459
3192	1.744723
3188	1.746344
3184	1.748180
3180	1.749181
3176	1.749110
3172	1.750397
3168	1.752948
3164	1.754093
3160	1.754403
3156	1.756238
3152	1.759791
3148	1.764106
3144	1.768803
3140	1.773166
3136	1.776337
3132	1.778936
3128	1.782536
3124	1.787495
3120	1.793289
3116	1.799082
3112	1.803636
3108	1.809096
3104	1.817083
3100	1.826763
3096	1.836085
3092	1.843166
3088	1.849174
3084	1.855373
3080	1.861190
3076	1.866960
3072	1.872181
3068	1.876401
3064	1.881670
3060	1.889109
3056	1.896929
3052	1.903104
3048	1.908564
3044	1.914834
3040	1.919937
3036	1.922512
3032	1.922798
3028	1.919841
3024	1.912856
3020	1.905894
3016	1.910066
3012	1.928067
3008	1.949071
3004	1.963758
3000	1.970195
2996	1.972532
2992	1.976299
2988	1.978349
2984	1.973700
2980	1.965308
2976	1.953005
2972	1.932907
2968	1.908826
2964	1.889157
2960	1.879763
2956	1.877570
2952	1.873660
2948	1.862049
2944	1.839256
2940	1.805901
2936	1.770758
2932	1.740789
2928	1.721024
2924	1.723957
2920	1.757001
2916	1.806426
2912	1.850271
2908	1.880431
2904	1.899242
2900	1.911830
2896	1.924085
2892	1.936197
2888	1.947021
2884	1.954936
2880	1.956224
2876	1.950168
2872	1.934218
2868	1.903843
2864	1.869034
2860	1.855778
2856	1.875615
2852	1.914381
2848	1.955318
2844	1.989984
2840	2.015590
2836	2.033996
2832	2.048373
2828	2.061414
2824	2.073192
2820	2.083206
2816	2.093029
2812	2.102780
2808	2.110815
2804	2.117657
2800	2.124619
2796	2.132010
2792	2.139639
2788	2.146840
2784	2.153778
2780	2.160906
2776	2.167344
2772	2.172470
2768	2.177739
2764	2.182626
2760	2.186155
2756	2.189636
2752	2.192950
2748	2.195334
2744	2.196407
2740	2.196455
2736	2.197480
2732	2.199721
2728	2.201533
2724	2.201843
2720	2.201199
2716	2.200675
2712	2.199411
2708	2.197194
2704	2.195358
2700	2.193117
2696	2.191066
2692	2.190351
2688	2.188897
2684	2.185487
2680	2.181839
2676	2.180004
2672	2.179193
2668	2.176713
2664	2.172470
2660	2.168583
2656	2.166581
2652	2.166509
2648	2.166628
2644	2.165889
2640	2.164673
2636	2.163672
2632	2.163982
2628	2.164912
2624	2.165460
2620	2.166604
2616	2.167773
2612	2.168130
2608	2.168226
2604	2.168703
2600	2.169561
2596	2.170133
2592	2.171778
2588	2.176856
2584	2.184200
2580	2.191066
2576	2.196240
2572	2.200865
2568	2.206730
2564	2.213168
2560	2.218317
2556	2.221488
2552	2.224898
2548	2.230119
2544	2.236175
2540	2.242422
2536	2.247548
2532	2.250671
2528	2.253103
2524	2.256250
2520	2.260065
2516	2.262282
2512	2.262592
2508	2.263522
2504	2.264881
2500	2.265810
2496	2.267456
2492	2.269673
2488	2.270817
2484	2.269840
2480	2.267861
2476	2.265691
2472	2.263665
2468	2.262020
2464	2.259182
2460	2.255058
2456	2.252006
2452	2.249789
2448	2.245807
2444	2.241301
2440	2.237844
2436	2.233338
2432	2.227640
2428	2.222847
2424	2.218675
2420	2.214455
2416	2.210879
2412	2.208018
2408	2.205944
2404	2.203249
2400	2.199316
2396	2.196168
2392	2.194523
2388	2.193522
2384	2.192258
2380	2.189874
2376	2.186131
2372	2.180504
2368	2.173924
2364	2.170705
2360	2.174067
2356	2.183747
2352	2.196049
2348	2.203607
2344	2.205038
2340	2.206158
2336	2.209973
2332	2.215957
2328	2.223181
2324	2.231884
2320	2.241635
2316	2.250647
2312	2.258825
2308	2.266240
2304	2.272772
2300	2.278780
2296	2.284431
2292	2.289104
2288	2.293729
2284	2.299618
2280	2.304196
2276	2.306985
2272	2.310299
2268	2.313446
2264	2.315449
2260	2.316689
2256	2.317643
2252	2.318716
2248	2.320504
2244	2.322983
2240	2.323865
2236	2.322411
2232	2.321290
2228	2.320933
2224	2.319049
2220	2.315497
2216	2.311682
2212	2.308440
2208	2.305865
2204	2.303099
2200	2.299261
2196	2.295589
2192	2.293181
2188	2.290439
2184	2.286791
2180	2.284049
2176	2.281832
2172	2.279186
2168	2.277946
2164	2.277135
2160	2.276134
2156	2.275776
2152	2.275085
2148	2.275204
2144	2.277660
2140	2.279019
2136	2.277731
2132	2.276086
2128	2.274680
2124	2.273631
2120	2.274203
2116	2.276802
2112	2.279520
2108	2.279949
2104	2.278923
2100	2.278494
2096	2.278804
2092	2.278661
2088	2.278137
2084	2.279663
2080	2.283501
2076	2.287530
2072	2.293515
2068	2.302145
2064	2.310919
2060	2.318739
2056	2.326011
2052	2.334690
2048	2.343821
2044	2.350997
2040	2.357387
2036	2.364039
2032	2.370357
2028	2.375030
2024	2.377939
2020	2.380967
2016	2.384567
2012	2.387976
2008	2.390456
2004	2.391552
2000	2.391242
1996	2.390599
1992	2.389812
1988	2.388668
1984	2.387404
1980	2.385401
1976	2.383017
1972	2.380084
1968	2.375721
1964	2.370953
1960	2.367043
1956	2.363801
1952	2.361083
1948	2.357983
1944	2.353906
1940	2.350974
1936	2.349376
1932	2.346587
1928	2.342343
1924	2.336692
1920	2.330493
1916	2.326178
1912	2.322816
1908	2.318572
1904	2.314329
1900	2.310872
1896	2.308487
1892	2.307200
1888	2.307653
1884	2.309203
1880	2.310228
1876	2.310347
1872	2.308559
1868	2.309679
1864	2.316808
1860	2.322912
1856	2.325797
1852	2.326321
1848	2.322697
1844	2.323150
1840	2.332139
1836	2.338862
1832	2.338385
1828	2.338743
1824	2.345585
1820	2.353715
1816	2.357292
1812	2.359127
1808	2.362012
1804	2.362895
1800	2.360320
1796	2.354383
1792	2.351427
1788	2.355289
1784	2.358055
1780	2.355551
1776	2.345252
1772	2.335977
1768	2.338695
1764	2.341485
1760	2.338552
1756	2.330446
1752	2.315044
1748	2.301096
1744	2.289772
1740	2.271747
1736	2.251315
1732	2.247953
1728	2.259111
1724	2.257728
1720	2.238821
1716	2.228617
1712	2.233266
1708	2.225875
1704	2.198362
1700	2.171683
1696	2.171397
1692	2.185273
1688	2.176570
1684	2.162241
1680	2.166771
1676	2.166485
1672	2.157354
1668	2.153468
1664	2.151274
1660	2.136754
1656	2.101707
1652	2.078151
1648	2.084827
1644	2.095150
1640	2.088546
1636	2.073764
1632	2.068495
1628	2.061676
1624	2.042269
1620	2.011179
1616	1.972746
1612	1.938343
1608	1.917934
1604	1.921391
1600	1.939177
1596	1.953721
1592	1.960229
1588	1.958870
1584	1.950383
1580	1.933717
1576	1.919150
1572	1.916885
1568	1.914119
1564	1.888966
1560	1.855254
1556	1.858782
1552	1.888394
1548	1.897144
1544	1.887583
1540	1.904296
1536	1.960611
1532	2.016019
1528	2.040553
1524	2.039742
1520	2.034831
1516	2.034115
1512	2.022051
1508	1.990699
1504	1.927876
1500	1.795506
1496	1.651644
1492	1.633810
1488	1.737928
1484	1.848936
1480	1.905679
1476	1.917028
1472	1.914310
1468	1.907396
1464	1.881003
1460	1.821923
1456	1.747822
1452	1.710343
1448	1.736664
1444	1.785397
1440	1.807785
1436	1.813602
1432	1.820898
1428	1.822471
1424	1.814222
1420	1.802515
1416	1.792359
1412	1.768231
1408	1.720595
1404	1.681780
1400	1.684212
1396	1.714634
1392	1.738429
1388	1.739692
1384	1.737856
1380	1.749062
1376	1.760292
1372	1.764702
1368	1.765871
1364	1.765990
1360	1.767611
1356	1.769328
1352	1.769185
1348	1.767802
1344	1.765942
1340	1.767945
1336	1.777172
1332	1.788520
1328	1.796650
1324	1.801562
1320	1.804709
1316	1.806902
1312	1.807785
1308	1.807427
1304	1.806640
1300	1.806688
1296	1.807498
1292	1.807737
1288	1.806855
1284	1.804590
1280	1.800274
1276	1.789021
1272	1.762938
1268	1.721191
1264	1.682662
1260	1.680040
1256	1.715421
1252	1.755070
1248	1.778244
1244	1.787948
1240	1.790189
1236	1.788568
1232	1.784706
1228	1.778674
1224	1.770067
1220	1.756501
1216	1.737546
1212	1.719093
1208	1.707983
1204	1.705217
1200	1.706242
1196	1.706337
1192	1.702642
1188	1.694464
1184	1.683783
1180	1.673555
1176	1.663184
1172	1.648736
1168	1.629996
1164	1.610398
1160	1.593661
1156	1.582837
1152	1.576447
1148	1.570940
1144	1.563119
1140	1.551651
1136	1.538729
1132	1.524925
1128	1.507115
1124	1.485729
1120	1.464176
1116	1.444172
1112	1.426315
1108	1.411557
1104	1.401448
1100	1.395463
1096	1.391816
1092	1.391482
1088	1.394462
1084	1.397132
1080	1.396512
1076	1.396107
1072	1.400089
1068	1.405358
1064	1.405739
1060	1.389479
1056	1.339817
1052	1.281738
1048	1.277852
1044	1.321530
1040	1.351690
1036	1.354670
1032	1.347684
1028	1.338863
1024	1.331591
1020	1.329016
1016	1.333856
1012	1.345324
1008	1.357221
1004	1.364326
1000	1.367712
996	 1.368427
992	 1.364636
988	 1.357698
984	 1.351904
980	 1.345682
976	 1.335787
972	 1.323819
968	 1.311683
964	 1.298475
960	 1.283884
956	 1.269245
952	 1.255607
948	 1.244759
944	 1.238012
940	 1.231694
936	 1.223087
932	 1.214003
928	 1.205658
924	 1.197791
920	 1.188659
916	 1.175570
912	 1.159286
908	 1.144456
904	 1.134777
900	 1.129102
896	 1.124048
892	 1.115274
888	 1.095414
884	 1.062369
880	 1.026678
876	 1.006579
872	 1.013851
868	 1.038765
864	 1.059675
860	 1.067638
856	 1.067185
852	 1.062989
848	 1.057410
844	 1.050567
840	 1.037049
836	 1.004195
832	 0.941038
828	 0.864768
824	 0.826740
820	 0.851774
816	 0.897812
812	 0.922918
808	 0.928235
804	 0.926113
800	 0.924754
796	 0.928497
792	 0.937533
788	 0.948452
784	 0.956106
780	 0.958395
776	 0.956606
772	 0.952601
768	 0.948810
764	 0.945973
760	 0.942158
756	 0.937747
752	 0.933885
748	 0.928950
744	 0.921797
740	 0.913500
736	 0.904870
732	 0.894808
728	 0.883221
724	 0.871562
720	 0.860238
716	 0.848531
712	 0.836706
708	 0.824117
704	 0.810146
700	 0.794649
696	 0.774359
692	 0.745487
688	 0.720143
684	 0.713825
680	 0.716614
676	 0.714087
672	 0.706052
668	 0.696730
664	 0.688409
660	 0.680422
656	 0.671625
652	 0.661134
648	 0.649404
644	 0.638699
640	 0.629830
636	 0.619578
632	 0.607466
628	 0.596523
624	 0.586581
620	 0.575780
616	 0.562024
612	 0.543260
608	 0.523018
604	 0.511097
600	 0.509023
596	 0.508022
592	 0.505161
588	 0.501561
584	 0.496530
580	 0.492262
576	 0.489807
572	 0.487256
568	 0.482559
564	 0.475335
560	 0.467658
556	 0.460243
552	 0.452971
548	 0.446319
544	 0.440311
540	 0.434136
536	 0.427412
532	 0.420022
528	 0.410079
524	 0.399398
520	 0.390720
516	 0.382137
512	 0.371861
508	 0.360822
504	 0.351381
500	 0.342559
496	 0.331068
492	 0.316691
488	 0.299549
484	 0.282287
480	 0.267601
476	 0.254154
472	 0.242209
468	 0.230121
464	 0.216960
460	 0.203394
456	 0.188517
452	 0.175547
448	 0.163722
444	 0.153899
440	 0.149202
436	 0.141882
432	 0.129961
428	 0.117588
424	 0.102496
420	 0.085806
416	 0.072240
412	 0.062036
408	 0.053930
404	 0.045943
400	 0.038456
396	 0.032424
392	 0.027012
388	 0.021123
384	 0.015282
380	 0.012660
376	 0.012016
372	 0.011229
370	 0.011110