File: Bakgrunnsmateriale/MATLAB/FTIR/ftir_data/LPE453/Mapping_121/LPE453_t91_cm-1.asc
PE IR       SPECTRUM    SPECTRUM    ASCII       PEDS        1.60
  -1
LPDBD0~1.ASC
17/05/16
21:52:49.00
17/05/16
21:52:49.00
tln
$LPE453_t0091$<tbV0>[7.8,7.8,8.0,0.0,27,1,0]
370
64

2002,4.07
MIRTGS : RIGHTBACK : INTERNAL 2
MIR : ON : INTERNAL 2
OPTKBR

0.200000
8
8.000000
FILLER
RATIO
SPECTRUM
UNLOCKED 256

DOUBLE
64
COMBINED
1
0
0

1.000000
RATIO

1
0
TRUE
51149
0
LEFT NOT FITTED RIGHT NOT FITTED 0
NONE
NONE
15600
12
4.427000
51148
TRUE
1 0 8 72 0 0 0 0

15798

#HDR
-1
-1
#GR
CM-1
%T
2.38419e-05
0.0
5000
-1.000000
4631
8
35.9926
-8.822131
#DATA
5000	-0.374388
4996	-0.232100
4992	-0.247216
4988	0.003361
4984	0.450730
4980	0.531721
4976	0.079917
4972	-0.284504
4968	-0.220036
4964	-0.060558
4960	-0.038552
4956	-0.027966
4952	0.185918
4948	0.400161
4944	0.317788
4940	0.054717
4936	-0.092196
4932	-0.013470
4928	0.163340
4924	0.372242
4920	0.484609
4916	0.484132
4912	0.404024
4908	0.174379
4904	-0.016021
4900	-0.102496
4896	-0.034475
4892	0.184059
4888	0.275087
4884	0.401139
4880	0.501227
4876	0.186705
4872	-0.018095
4868	0.193595
4864	0.410938
4860	0.352859
4856	0.111842
4852	-0.000882
4848	0.098013
4844	0.271582
4840	0.314188
4836	0.254464
4832	0.143337
4828	-0.004649
4824	-0.007557
4820	0.023913
4816	-0.102066
4812	-0.127077
4808	0.069284
4804	0.190377
4800	0.188493
4796	0.205850
4792	0.203037
4788	0.174379
4784	0.129222
4780	0.029730
4776	-0.012135
4772	-0.031948
4768	-0.137948
4764	-0.195455
4760	-0.042963
4756	0.202226
4752	0.211524
4748	0.061631
4744	-0.076603
4740	-0.182867
4736	-0.161194
4732	-0.044989
4728	0.063443
4724	0.060749
4720	-0.179529
4716	-0.343918
4712	-0.195789
4708	0.049686
4704	0.076556
4700	-0.104761
4696	-0.208187
4692	-0.481891
4688	-0.581312
4684	-0.184035
4680	0.051665
4676	0.155639
4672	0.235009
4668	-0.046801
4664	-0.405883
4660	-0.323128
4656	0.055980
4652	0.114941
4648	-0.200915
4644	-0.207567
4640	-0.190854
4636	-0.469183
4632	0.145649
4628	0.886368
4624	1.024389
4620	1.683163
4616	1.419329
4612	0.504088
4608	0.838971
4604	1.244187
4600	0.827622
4596	0.011491
4592	-0.509047
4588	-0.576901
4584	-0.089049
4580	0.800251
4576	1.055836
4572	0.806713
4568	0.211071
4564	-0.084614
4560	0.536489
4556	0.822401
4552	0.487279
4548	0.155472
4544	-0.464987
4540	-0.825166
4536	-0.175786
4532	0.276231
4528	-0.197696
4524	-0.533246
4520	-0.307869
4516	-1.170492
4512	-2.615332
4508	-0.779938
4504	8.508419
4500	15.2285
4496	10.3851
4492	6.124973
4488	4.191136
4484	1.029515
4480	-0.362682
4476	-1.098060
4472	-1.424622
4468	-0.742530
4464	0.009489
4460	0.513911
4456	0.504350
4452	0.264334
4448	-0.014734
4444	-0.093293
4440	0.059342
4436	0.172162
4432	0.151085
4428	0.094723
4424	0.039982
4420	-0.189995
4416	-0.371456
4412	-0.339770
4408	-0.186896
4404	-0.014162
4400	0.072598
4396	0.159406
4392	0.282645
4388	0.239133
4384	-0.032782
4380	-0.276327
4376	-0.275588
4372	-0.132942
4368	0.016689
4364	0.071549
4360	-0.111317
4356	-0.376868
4352	-0.423622
4348	-0.151658
4344	0.272035
4340	0.469326
4336	0.301337
4332	0.197672
4328	0.285029
4324	0.243568
4320	0.121855
4316	-0.050187
4312	-0.215220
4308	-0.205969
4304	-0.074648
4300	0.109505
4296	0.241971
4292	0.221967
4288	0.180482
4284	0.095248
4280	-0.058341
4276	0.000905
4272	0.226759
4268	0.241637
4264	0.115871
4260	0.140261
4256	0.231623
4252	0.295281
4248	0.328922
4244	0.282216
4240	0.253319
4236	0.227928
4232	0.132226
4228	0.038766
4224	0.050759
4220	0.184702
4216	0.206112
4212	0.148582
4208	0.259661
4204	0.363326
4200	0.253629
4196	0.182032
4192	0.309371
4188	0.336861
4184	0.217342
4180	0.186252
4176	0.180864
4172	0.151109
4168	0.244903
4164	0.369977
4160	0.283861
4156	0.092697
4152	0.035762
4148	0.052976
4144	0.032997
4140	-0.009226
4136	-0.149226
4132	-0.227999
4128	-0.063753
4124	0.117945
4120	0.224614
4116	0.275063
4112	0.228929
4108	0.095033
4104	0.054121
4100	0.194478
4096	0.284886
4092	0.252842
4088	0.208401
4084	0.247812
4080	0.237655
4076	0.085616
4072	0.055599
4068	0.153064
4064	0.171494
4060	0.107455
4056	-0.014185
4052	-0.125932
4048	-0.133705
4044	-0.098228
4040	-0.022935
4036	0.055956
4032	0.051045
4028	0.080442
4024	0.155735
4020	0.159955
4016	0.196099
4012	0.265169
4008	0.268959
4004	0.251865
4000	0.291633
3996	0.378584
3992	0.394511
3988	0.340223
3984	0.259661
3980	0.094604
3976	-0.054860
3972	-0.045537
3968	-0.042557
3964	-0.125861
3960	-0.058794
3956	0.157332
3952	0.266075
3948	0.233864
3944	0.123381
3940	0.032711
3936	0.059700
3932	0.063753
3928	0.000619
3924	-0.052118
3920	-0.069880
3916	0.031948
3912	0.184512
3908	0.190210
3904	0.131082
3900	0.174117
3896	0.201892
3892	0.120234
3888	0.057172
3884	0.106382
3880	0.210356
3876	0.257325
3872	0.183653
3868	0.117421
3864	0.158667
3860	0.205874
3856	0.137567
3852	0.015306
3848	-0.018382
3844	0.002098
3840	0.021481
3836	0.076889
3832	0.127506
3828	0.106549
3824	0.066447
3820	0.043106
3816	0.121784
3812	0.244235
3808	0.212383
3804	0.165820
3800	0.207471
3796	0.206542
3792	0.166893
3788	0.149393
3784	0.159382
3780	0.157594
3776	0.123643
3772	0.091838
3768	0.027203
3764	-0.036406
3760	-0.022387
3756	-0.042223
3752	-0.104165
3748	-0.082874
3744	-0.025391
3740	-0.000143
3736	0.057792
3732	0.119709
3728	0.137829
3724	0.097560
3720	-0.036668
3716	-0.159072
3712	-0.148820
3708	-0.089049
3704	-0.086236
3700	-0.087094
3696	0.015854
3692	0.162315
3688	0.212430
3684	0.201869
3680	0.169825
3676	0.142288
3672	0.123143
3668	0.009250
3664	-0.078821
3660	-0.038003
3656	0.023603
3652	0.056505
3648	0.040650
3644	-0.034594
3640	-0.098085
3636	-0.069260
3632	0.009465
3628	0.067353
3624	0.097632
3620	0.094771
3616	0.087022
3612	0.111508
3608	0.114512
3604	0.057959
3600	-0.023245
3596	-0.051546
3592	0.034141
3588	0.112056
3584	0.061774
3580	-0.001573
3576	0.021576
3572	0.010752
3568	-0.079655
3564	-0.103831
3560	-0.021839
3556	0.047326
3552	0.004768
3548	-0.071573
3544	-0.044584
3540	0.023603
3536	0.021982
3532	-0.055932
3528	-0.083446
3524	0.054764
3520	0.173878
3516	0.158834
3512	0.143504
3508	0.189876
3504	0.216364
3500	0.145792
3496	0.011086
3492	-0.073194
3488	-0.054216
3484	-0.037550
3480	-0.080466
3476	-0.087523
3472	-0.014567
3468	-0.039196
3464	-0.134849
3460	-0.068974
3456	0.036716
3452	0.014042
3448	-0.020098
3444	-0.025820
3440	-0.031900
3436	0.040817
3432	0.073719
3428	-0.013113
3424	-0.013542
3420	0.068235
3416	0.112080
3412	0.137138
3408	0.139665
3404	0.086283
3400	0.078201
3396	0.107836
3392	0.081896
3388	0.079154
3384	0.121641
3380	0.157308
3376	0.142335
3372	0.070118
3368	0.013065
3364	-0.006818
3360	-0.001168
3356	0.004267
3352	-0.044679
3348	-0.048255
3344	0.071501
3340	0.172948
3336	0.150871
3332	0.052666
3328	-0.035476
3324	-0.058245
3320	-0.027227
3316	0.026297
3312	0.053095
3308	0.019836
3304	0.013923
3300	0.062537
3296	0.049996
3292	-0.021457
3288	-0.029349
3284	0.013256
3280	0.051331
3276	0.120115
3272	0.192904
3268	0.162434
3264	0.073099
3260	0.084042
3256	0.105810
3252	0.070357
3248	0.072550
3244	0.086545
3240	0.071811
3236	0.056028
3232	0.065350
3228	0.109529
3224	0.176429
3220	0.185942
3216	0.150465
3212	0.162601
3208	0.201702
3204	0.199222
3200	0.172328
3196	0.185370
3192	0.187706
3188	0.159764
3184	0.145626
3180	0.106096
3176	0.045180
3172	-0.006794
3168	-0.043368
3164	-0.039911
3160	-0.035715
3156	0.002169
3152	0.089883
3148	0.114297
3144	0.105786
3140	0.113320
3136	0.078821
3132	0.036215
3128	0.047802
3124	0.026035
3120	-0.081849
3116	-0.129628
3112	-0.050354
3108	0.077462
3104	0.161075
3100	0.162768
3096	0.123524
3092	0.090336
3088	0.071454
3084	0.043678
3080	0.019454
3076	-0.022053
3072	-0.073385
3068	-0.050234
3064	0.027632
3060	0.078821
3056	0.113582
3052	0.149130
3048	0.102066
3044	0.017023
3040	0.032615
3036	0.094032
3032	0.108885
3028	0.104570
3024	0.107479
3020	0.059986
3016	0.006628
3012	-0.018167
3008	0.021123
3004	0.082588
3000	0.057482
2996	0.009393
2992	0.004434
2988	-0.016212
2984	-0.062823
2980	-0.101804
2976	-0.086545
2972	-0.047254
2968	-0.052428
2964	-0.072598
2960	-0.068235
2956	-0.015568
2952	0.097870
2948	0.165033
2944	0.120782
2940	0.086116
2936	0.097656
2932	0.046777
2928	-0.018501
2924	-0.033879
2920	-0.017571
2916	0.032401
2912	0.034761
2908	-0.049209
2904	-0.082397
2900	0.017428
2896	0.127768
2892	0.131845
2888	0.065302
2884	0.045847
2880	0.074934
2876	0.080728
2872	0.049924
2868	0.020265
2864	0.076675
2860	0.168061
2856	0.150918
2852	0.081348
2848	0.007057
2844	-0.079202
2840	-0.080037
2836	-0.028753
2832	-0.022768
2828	-0.024223
2824	-0.015354
2820	-0.017237
2816	0.000691
2812	0.034356
2808	0.056314
2804	0.044512
2800	0.005221
2796	0.028777
2792	0.090265
2788	0.066661
2784	0.010323
2780	0.006246
2776	0.015616
2772	0.024843
2768	0.044941
2764	0.046801
2760	0.024986
2756	-0.001764
2752	-0.010728
2748	0.003361
2744	0.020003
2740	0.043845
2736	0.060391
2732	0.007414
2728	-0.027322
2724	0.021862
2720	0.045347
2716	0.020051
2712	0.021958
2708	0.061726
2704	0.063610
2700	0.020503
2696	0.006842
2692	0.014138
2688	-0.015401
2684	-0.039744
2680	-0.033521
2676	-0.006413
2672	0.030660
2668	0.048041
2664	0.071239
2660	0.114965
2656	0.169658
2652	0.179004
2648	0.096106
2644	-0.002980
2640	-0.069212
2636	-0.121736
2632	-0.090932
2628	0.047469
2624	0.170493
2620	0.204706
2616	0.164985
2612	0.076413
2608	0.008940
2604	0.023937
2600	0.054001
2596	0.058221
2592	0.055360
2588	0.030970
2584	0.020098
2580	0.003218
2576	-0.023770
2572	-0.010156
2568	0.020956
2564	0.009512
2560	-0.006532
2556	0.011897
2552	-0.005769
2548	-0.009226
2544	0.056958
2540	0.088429
2536	0.072121
2532	0.082373
2528	0.087261
2524	0.040817
2520	-0.013804
2516	-0.034618
2512	-0.025510
2508	0.011849
2504	0.050854
2500	0.027036
2496	-0.019574
2492	0.008606
2488	0.033307
2484	-0.053405
2480	-0.106310
2476	0.000357
2472	0.110888
2468	0.109553
2464	0.051927
2460	-0.003409
2456	-0.009250
2452	0.014829
2448	0.023221
2444	0.049233
2440	0.113368
2436	0.140380
2432	0.065684
2428	-0.028896
2424	-0.022864
2420	-0.019598
2416	-0.105428
2412	-0.113558
2408	-0.013017
2404	0.068616
2400	0.090694
2396	0.081729
2392	0.056076
2388	0.027537
2384	0.046253
2380	0.089716
2376	0.117540
2372	0.143837
2368	0.157666
2364	0.175046
2360	0.190091
2356	0.165128
2352	0.142765
2348	0.173401
2344	0.223851
2340	0.234079
2336	0.188541
2332	0.117993
2328	0.130558
2324	0.254225
2320	0.351333
2316	0.357913
2312	0.350666
2308	0.400900
2304	0.484275
2300	0.541663
2296	0.576758
2292	0.626587
2288	0.667333
2284	0.671982
2280	0.743317
2276	0.899648
2272	1.008248
2268	1.096439
2264	1.207041
2260	1.286172
2256	1.420474
2252	1.598095
2248	1.689267
2244	1.761674
2240	1.887893
2236	2.053904
2232	2.253580
2228	2.446937
2224	2.635693
2220	2.847528
2216	3.094696
2212	3.369116
2208	3.610897
2204	3.835368
2200	4.083943
2196	4.361128
2192	4.689097
2188	5.035471
2184	5.339264
2180	5.659341
2176	6.058406
2172	6.466007
2168	6.868767
2164	7.275700
2160	7.682967
2156	8.172750
2152	8.715462
2148	9.158825
2144	9.530663
2140	9.977173
2136	10.4902
2132	10.9891
2128	11.4784
2124	11.9806
2120	12.5089
2116	13.0553
2112	13.5771
2108	14.0869
2104	14.5803
2100	15.0661
2096	15.5905
2092	16.127
2088	16.646
2084	17.1763
2080	17.7284
2076	18.2055
2072	18.6269
2068	19.1409
2064	19.6647
2060	20.094
2056	20.5038
2052	20.9525
2048	21.43
2044	21.8929
2040	22.348
2036	22.8297
2032	23.2881
2028	23.691
2024	24.1068
2020	24.5623
2016	25.0025
2012	25.3955
2008	25.7295
2004	26.0474
2000	26.3977
1996	26.7076
1992	26.9813
1988	27.3397
1984	27.7368
1980	28.0585
1976	28.3118
1972	28.5717
1968	28.8799
1964	29.178
1960	29.4345
1956	29.6896
1952	29.9646
1948	30.2071
1944	30.3868
1940	30.5636
1936	30.7738
1932	31.0081
1928	31.2197
1924	31.3746
1920	31.4928
1916	31.6514
1912	31.8828
1908	32.0823
1904	32.2044
1900	32.3517
1896	32.5417
1892	32.71
1888	32.8359
1884	32.9225
1880	33.0173
1876	33.1241
1872	33.2138
1868	33.3174
1864	33.4562
1860	33.5823
1856	33.6656
1852	33.7735
1848	33.878
1844	33.9424
1840	34.0726
1836	34.2378
1832	34.3317
1828	34.3894
1824	34.4251
1820	34.4319
1816	34.4863
1812	34.5856
1808	34.6416
1804	34.6587
1800	34.7135
1796	34.7949
1792	34.8516
1788	34.8901
1784	34.9305
1780	34.9861
1776	35.0491
1772	35.1021
1768	35.1182
1764	35.1257
1760	35.1711
1756	35.195
1752	35.1685
1748	35.1807
1744	35.2615
1740	35.3304
1736	35.3624
1732	35.3954
1728	35.4661
1724	35.535
1720	35.5268
1716	35.4888
1712	35.479
1708	35.4821
1704	35.5197
1700	35.5902
1696	35.62
1692	35.6327
1688	35.6858
1684	35.6941
1680	35.6509
1676	35.6595
1672	35.7017
1668	35.7135
1664	35.7214
1660	35.7421
1656	35.7414
1652	35.7415
1648	35.7602
1644	35.7836
1640	35.8035
1636	35.7994
1632	35.7907
1628	35.8235
1624	35.8447
1620	35.8069
1616	35.7772
1612	35.8161
1608	35.9273
1604	35.9926
1600	35.9291
1596	35.8604
1592	35.8431
1588	35.8632
1584	35.9136
1580	35.9018
1576	35.8699
1572	35.8754
1568	35.8759
1564	35.8873
1560	35.8855
1556	35.8558
1552	35.7874
1548	35.7046
1544	35.7015
1540	35.7666
1536	35.8208
1532	35.8319
1528	35.8305
1524	35.8599
1520	35.9157
1516	35.9231
1512	35.8335
1508	35.7571
1504	35.7547
1500	35.7367
1496	35.7024
1492	35.7066
1488	35.6937
1484	35.6868
1480	35.7333
1476	35.7826
1472	35.8262
1468	35.8451
1464	35.7841
1460	35.7048
1456	35.7039
1452	35.7141
1448	35.6566
1444	35.5786
1440	35.5337
1436	35.5595
1432	35.6551
1428	35.6986
1424	35.6219
1420	35.5441
1416	35.5338
1412	35.5507
1408	35.5638
1404	35.5731
1400	35.5735
1396	35.5772
1392	35.6199
1388	35.6317
1384	35.5677
1380	35.51
1376	35.4684
1372	35.3935
1368	35.3479
1364	35.399
1360	35.4908
1356	35.5155
1352	35.4645
1348	35.4219
1344	35.4106
1340	35.4223
1336	35.4338
1332	35.4506
1328	35.4962
1324	35.4892
1320	35.4123
1316	35.4093
1312	35.4664
1308	35.4082
1304	35.2881
1300	35.2712
1296	35.321
1292	35.3555
1288	35.3522
1284	35.2987
1280	35.2587
1276	35.259
1272	35.2597
1268	35.2506
1264	35.2406
1260	35.26
1256	35.2615
1252	35.2223
1248	35.2029
1244	35.1898
1240	35.1909
1236	35.1914
1232	35.1487
1228	35.0981
1224	35.0627
1220	35.0685
1216	35.0717
1212	35.0162
1208	34.9753
1204	34.9551
1200	34.9304
1196	34.9498
1192	34.986
1188	34.9541
1184	34.8755
1180	34.8378
1176	34.9288
1172	35.0261
1168	34.9965
1164	34.9552
1160	34.9552
1156	34.9452
1152	34.9422
1148	34.8559
1144	34.681
1140	34.5747
1136	34.5804
1132	34.634
1128	34.694
1124	34.7773
1120	34.8164
1116	34.7976
1112	34.8583
1108	34.937
1104	34.8576
1100	34.7043
1096	34.6352
1092	34.6323
1088	34.6335
1084	34.6447
1080	34.6571
1076	34.5833
1072	34.4673
1068	34.4258
1064	34.3897
1060	34.3093
1056	34.2398
1052	34.1936
1048	34.1825
1044	34.2031
1040	34.2273
1036	34.2182
1032	34.1173
1028	33.9995
1024	34.0281
1020	34.0921
1016	33.964
1012	33.8333
1008	33.8719
1004	33.9012
1000	33.934
996	 33.992
992	 33.9721
988	 33.9302
984	 33.9508
980	 33.9567
976	 33.7734
972	 33.5675
968	 33.5844
964	 33.6559
960	 33.6528
956	 33.68
952	 33.675
948	 33.5443
944	 33.3859
940	 33.2636
936	 33.173
932	 33.149
928	 33.1662
924	 33.1599
920	 33.116
916	 33.0171
912	 32.8965
908	 32.8302
904	 32.8547
900	 32.8715
896	 32.8137
892	 32.7422
888	 32.7034
884	 32.6997
880	 32.6852
876	 32.6352
872	 32.5474
868	 32.4967
864	 32.503
860	 32.4628
856	 32.4048
852	 32.3431
848	 32.2212
844	 32.1471
840	 32.0745
836	 31.9191
832	 31.8284
828	 31.7602
824	 31.5984
820	 31.4942
816	 31.593
812	 31.7916
808	 31.8867
804	 31.8621
800	 31.8584
796	 31.8427
792	 31.6874
788	 31.516
784	 31.5164
780	 31.5341
776	 31.4461
772	 31.3888
768	 31.3142
764	 31.0631
760	 30.8713
756	 30.939
752	 30.9577
748	 30.8177
744	 30.6907
740	 30.6673
736	 30.8106
732	 30.9783
728	 30.9044
724	 30.6096
720	 30.4093
716	 30.4246
712	 30.2979
708	 29.9097
704	 29.69
700	 29.6484
696	 29.579
692	 29.6261
688	 29.6681
684	 29.6541
680	 29.7904
676	 29.9339
672	 29.8923
668	 29.631
664	 29.274
660	 28.9951
656	 28.7708
652	 28.6532
648	 28.6595
644	 28.645
640	 28.6969
636	 28.9245
632	 28.9813
628	 28.7626
624	 28.591
620	 28.4841
616	 28.4471
612	 28.4087
608	 28.1213
604	 27.7636
600	 27.6881
596	 27.7944
592	 27.755
588	 27.5594
584	 27.3957
580	 27.4392
576	 27.5644
572	 27.3951
568	 27.0323
564	 26.8332
560	 26.7479
556	 26.6907
552	 26.67
548	 26.6958
544	 26.6748
540	 26.3389
536	 25.8859
532	 25.6711
528	 25.4523
524	 25.1139
520	 24.9561
516	 24.9381
512	 24.7729
508	 24.6266
504	 24.8752
500	 25.1738
496	 25.2514
492	 25.3143
488	 25.2758
484	 25.0821
480	 24.8338
476	 24.2339
472	 23.5776
468	 23.2911
464	 22.9759
460	 22.9697
456	 23.2486
452	 23.1748
448	 23.1505
444	 23.6947
440	 24.1564
436	 23.8417
432	 22.7288
428	 21.4948
424	 21.5675
420	 22.3488
416	 22.9043
412	 23.6574
408	 20.8205
404	 13.2811
400	 5.915236
396	 -2.176308
392	 -8.541631
388	 -6.547188
384	 -3.891634
380	 -5.075025
376	 -1.135277
372	 2.968955
370	 0.586509