File: Bakgrunnsmateriale/MATLAB/FTIR/ftir_data/LPE453/Mapping_121/LPE453_t10.asc
PE IR       SPECTRUM    SPECTRUM    ASCII       PEDS        1.60
  -1
LPC799~1.ASC
17/05/16
15:09:32.00
17/05/16
15:09:58.00
tln
$LPE453_t0010$<tbV0>[-10.4,-13.0,8.0,0.0,27,1,0]
27.028
64

2002,4.07
MIRTGS : RIGHTBACK : INTERNAL 2
MIR : ON : INTERNAL 2
OPTKBR

0.200000
8
8.000000
FILLER
RATIO
SPECTRUM
UNLOCKED 256

DOUBLE
64
COMBINED
1
0
0

0.002000
RATIO

1
0
TRUE
51149
0
LEFT NOT FITTED RIGHT NOT FITTED 0
NONE
NONE
15600
12
4.427000
51148
TRUE
1 0 8 72 0 0 0 0

15798

#HDR
-1
-1
#GR
µM
%T
2.38419e-05
0.0
2.000000
0.002000
12515
8
70.5062
-5.079082
#DATA
2.000000	 0.144243
2.018000	 -0.040902
2.036000	 -0.081116
2.054000	 0.677354
2.072000	 -0.120391
2.090000	 0.324057
2.108000	 0.061533
2.126000	 0.298473
2.144000	 -0.079284
2.162000	 0.137887
2.180000	 0.512549
2.198000	 -0.287147
2.216000	 1.688347
2.234000	 0.714249
2.252000	 0.865677
2.270000	 0.451793
2.288000	 0.244451
2.306000	 0.072952
2.324000	 0.132103
2.342000	 0.155859
2.360000	 -0.189938
2.378000	 -0.139509
2.396000	 0.362866
2.414000	 -0.367558
2.432000	 0.118445
2.450000	 0.035115
2.468000	 0.156476
2.486000	 0.166908
2.504000	 0.302428
2.522000	 0.103044
2.540000	 0.174935
2.558000	 0.230870
2.576000	 -0.022279
2.594000	 0.031205
2.612000	 0.101420
2.630000	 0.033287
2.648000	 0.076455
2.666000	 0.065886
2.684000	 0.018558
2.702000	 0.117017
2.720000	 0.097899
2.738000	 0.021674
2.756000	 0.011160
2.774000	 0.061351
2.792000	 0.054414
2.810000	 -0.075958
2.828000	 0.110056
2.846000	 -0.146395
2.864000	 0.043330
2.882000	 0.016171
2.900000	 0.141598
2.918000	 -0.004354
2.936000	 0.188667
2.954000	 -0.100783
2.972000	 0.019487
2.990000	 0.166100
3.008000	 0.057955
3.026000	 0.084835
3.044000	 0.105179
3.062000	 -0.087869
3.080000	 -0.036055
3.098000	 0.137763
3.116000	 0.043241
3.134000	 0.204235
3.152000	 0.150573
3.170000	 0.103320
3.188000	 0.233050
3.206000	 -0.033060
3.224000	 -0.122490
3.242000	 0.122116
3.260000	 0.076719
3.278000	 0.072174
3.296000	 0.162015
3.314000	 -0.030719
3.332000	 0.005943
3.350000	 0.074912
3.368000	 0.053033
3.386000	 0.103687
3.404000	 -0.013964
3.422000	 0.061322
3.440000	 0.017330
3.458000	 -0.002627
3.476000	 0.063404
3.494000	 0.104352
3.512000	 -0.014047
3.530000	 0.079102
3.548000	 0.060728
3.566000	 0.122749
3.584000	 0.074864
3.602000	 0.001112
3.620000	 -0.056712
3.638000	 0.028713
3.656000	 0.068818
3.674000	 -0.117889
3.692000	 0.136632
3.710000	 0.048890
3.728000	 0.003479
3.746000	 0.137210
3.764000	 0.052244
3.782000	 0.002492
3.800000	 0.094126
3.818000	 -0.018687
3.836000	 -0.117181
3.854000	 0.052481
3.872000	 0.063575
3.890000	 0.038681
3.908000	 0.012813
3.926000	 0.076546
3.944000	 0.070739
3.962000	 0.033159
3.980000	 0.100347
3.998000	 0.231751
4.016000	 -0.094753
4.034000	 -0.105080
4.052000	 0.056695
4.070000	 0.149197
4.088000	 0.041564
4.106000	 0.009180
4.124000	 0.095222
4.141999	 0.014721
4.160000	 0.080320
4.178000	 0.206706
4.196000	 0.168499
4.214000	 0.154705
4.232000	 0.092824
4.250000	 0.155778
4.268000	 0.188180
4.286000	 0.293604
4.304000	 0.285541
4.322000	 0.385107
4.340000	 0.555609
4.358000	 0.692919
4.375999	 0.745458
4.394000	 0.934586
4.412000	 1.149315
4.430000	 1.365419
4.448000	 1.580062
4.466000	 1.908560
4.484000	 2.357780
4.502000	 2.804094
4.520000	 3.274407
4.538000	 3.910882
4.556000	 4.546552
4.574000	 5.138774
4.592000	 5.778528
4.609999	 6.512027
4.628000	 7.317021
4.646000	 8.184056
4.664000	 8.950407
4.682000	 9.941376
4.700000	 10.9598
4.718000	 11.8037
4.736000	 12.6615
4.754000	 13.5578
4.772000	 14.5529
4.790000	 15.5846
4.808000	 16.3333
4.826000	 17.3088
4.843999	 18.2299
4.862000	 19.055
4.880000	 19.7243
4.898000	 20.5139
4.916000	 21.2225
4.934000	 22.0536
4.952000	 22.678
4.970000	 23.1917
4.988000	 23.9892
5.006000	 24.74
5.024000	 25.1456
5.042000	 25.5484
5.060000	 26.019
5.077999	 26.5364
5.096000	 26.984
5.114000	 27.4273
5.132000	 27.8622
5.150000	 28.2647
5.168000	 28.6255
5.186000	 28.9559
5.204000	 29.2102
5.222000	 29.5111
5.240000	 29.7151
5.258000	 30.0056
5.276000	 30.3666
5.294000	 30.6714
5.312000	 30.7447
5.330000	 30.9352
5.348000	 31.1854
5.366000	 31.4274
5.384000	 31.6328
5.402000	 31.7774
5.420000	 31.913
5.438000	 32.0759
5.456000	 32.2315
5.474000	 32.4473
5.492000	 32.5207
5.510000	 32.7449
5.528000	 32.897
5.546000	 32.9795
5.564000	 33.1803
5.582000	 33.2976
5.600000	 33.346
5.618000	 33.4592
5.636000	 33.5341
5.654000	 33.6337
5.672000	 33.5903
5.690000	 33.6791
5.708000	 33.8417
5.726000	 33.9159
5.744000	 34.042
5.762000	 34.2146
5.780000	 34.3362
5.798000	 34.3694
5.816000	 34.394
5.834000	 34.5291
5.852000	 34.3851
5.870000	 34.3802
5.888000	 34.5542
5.906000	 34.5105
5.923999	 34.5575
5.942000	 34.7404
5.960000	 34.7835
5.978000	 34.7711
5.996000	 34.7122
6.014000	 34.6979
6.032000	 34.8488
6.050000	 35.0553
6.068000	 34.9837
6.086000	 34.8093
6.104000	 34.8332
6.122000	 34.9354
6.140000	 34.9303
6.158000	 34.9932
6.176000	 35.1839
6.194000	 35.2028
6.212000	 34.9499
6.230000	 34.881
6.248000	 34.9202
6.266000	 34.8821
6.284000	 34.8128
6.302000	 34.8219
6.320000	 34.9931
6.338000	 35.2014
6.356000	 35.1981
6.374000	 35.1072
6.392000	 35.2016
6.410000	 35.4467
6.428000	 35.4334
6.446000	 35.232
6.464000	 35.1904
6.482000	 35.2401
6.500000	 35.1964
6.518000	 35.065
6.536000	 35.0212
6.554000	 35.1842
6.572000	 35.418
6.590000	 35.4522
6.608000	 35.3804
6.626000	 35.4171
6.644000	 35.3962
6.662000	 35.2363
6.680000	 35.1423
6.698000	 35.1405
6.716000	 35.087
6.734000	 34.9926
6.752000	 34.9853
6.770000	 35.0671
6.788000	 35.0986
6.806000	 35.0733
6.824000	 35.0892
6.842000	 35.132
6.860000	 35.1263
6.878000	 35.1081
6.896000	 35.0999
6.914000	 35.0373
6.932000	 34.9875
6.950000	 34.9825
6.968000	 34.9016
6.986000	 34.8004
7.004000	 34.8444
7.022000	 34.9781
7.040000	 35.0593
7.058000	 35.053
7.076000	 35.0121
7.094000	 35.0065
7.112000	 35.0272
7.130000	 35.0349
7.148000	 35.0486
7.166000	 35.0839
7.184000	 35.1133
7.202000	 35.1064
7.220000	 35.0578
7.238000	 34.9907
7.256000	 34.9104
7.274000	 34.8065
7.292000	 34.7198
7.310000	 34.6907
7.328000	 34.6747
7.346000	 34.6372
7.364000	 34.6353
7.382000	 34.6993
7.400000	 34.756
7.418000	 34.7556
7.436000	 34.7634
7.454000	 34.852
7.472000	 34.9677
7.490000	 34.9928
7.508000	 34.9064
7.526000	 34.7967
7.544000	 34.7432
7.562000	 34.7343
7.580000	 34.7003
7.598000	 34.617
7.616000	 34.5393
7.634000	 34.5065
7.652000	 34.4934
7.670000	 34.4647
7.688000	 34.4241
7.706000	 34.4066
7.724000	 34.4226
7.742000	 34.4278
7.760000	 34.4017
7.778000	 34.4103
7.796000	 34.5009
7.814000	 34.5925
7.832000	 34.5838
7.850000	 34.4974
7.868000	 34.4236
7.886000	 34.3881
7.904000	 34.3427
7.922000	 34.259
7.940000	 34.1743
7.958000	 34.1414
7.976000	 34.1603
7.994000	 34.1811
8.012000	 34.1623
8.030000	 34.1123
8.048000	 34.0755
8.065999	 34.0826
8.084000	 34.1181
8.102000	 34.1492
8.120000	 34.1695
8.138000	 34.1843
8.155999	 34.1777
8.173999	 34.1373
8.192000	 34.095
8.210000	 34.094
8.228000	 34.1307
8.246000	 34.1585
8.263999	 34.1454
8.282000	 34.099
8.300000	 34.0408
8.318000	 33.9815
8.336000	 33.9225
8.353999	 33.8708
8.372000	 33.8351
8.390000	 33.8108
8.408000	 33.7813
8.426000	 33.739
8.443999	 33.6951
8.462000	 33.6685
8.480000	 33.6704
8.498000	 33.7035
8.516000	 33.7592
8.533999	 33.8158
8.552000	 33.8523
8.570000	 33.8645
8.588000	 33.8591
8.606000	 33.834
8.624000	 33.7806
8.641999	 33.7067
8.660000	 33.6384
8.678000	 33.5958
8.696000	 33.5769
8.714000	 33.5641
8.731999	 33.5388
8.750000	 33.4937
8.768000	 33.4332
8.786000	 33.3666
8.804000	 33.2994
8.821999	 33.2349
8.840000	 33.1789
8.858000	 33.1464
8.876000	 33.1555
8.894000	 33.206
8.911999	 33.2698
8.930000	 33.3129
8.948000	 33.3249
8.966000	 33.3256
8.984000	 33.3529
9.001999	 33.4392
9.020000	 33.5823
9.038000	 33.7351
9.056000	 33.8322
9.074000	 33.8361
9.092000	 33.7621
9.109999	 33.6589
9.128000	 33.5693
9.146000	 33.5037
9.164000	 33.4425
9.182000	 33.3564
9.199999	 33.2307
9.218000	 33.0838
9.236000	 32.9592
9.254000	 32.8916
9.272000	 32.8746
9.289999	 32.8637
9.308000	 32.8228
9.326000	 32.7603
9.344000	 32.7171
9.362000	 32.722
9.379999	 32.766
9.398000	 32.8192
9.416000	 32.8602
9.434000	 32.8899
9.452000	 32.918
9.469999	 32.9451
9.488000	 32.9586
9.506000	 32.9423
9.524000	 32.891
9.542000	 32.8191
9.560000	 32.7596
9.577999	 32.7457
9.596000	 32.7867
9.614000	 32.8568
9.632000	 32.9111
9.650000	 32.9167
9.667999	 32.8737
9.686000	 32.8058
9.704000	 32.7312
9.722000	 32.6444
9.740000	 32.5291
9.757999	 32.3853
9.776000	 32.245
9.794000	 32.1543
9.812000	 32.1373
9.830000	 32.1705
9.847999	 32.1973
9.866000	 32.1702
9.884000	 32.0844
9.902000	 31.9813
9.920000	 31.9179
9.937999	 31.9297
9.956000	 32.0116
9.974000	 32.129
9.992000	 32.2413
10.01	32.3196
10.028	32.3535
10.046	32.3506
10.064	32.3333
10.082	32.3316
10.1	32.3674
10.118	32.4405
10.136	32.5259
10.154	32.5903
10.172	32.6132
10.19	32.6001
10.208	32.5744
10.226	32.5548
10.244	32.543
10.262	32.5231
10.28	32.4791
10.298	32.4068
10.316	32.315
10.334	32.2168
10.352	32.121
10.37	32.0284
10.388	31.9372
10.406	31.8486
10.424	31.7703
10.442	31.7144
10.46	31.6926
10.478	31.7113
10.496	31.7653
10.514	31.8364
10.532	31.8964
10.55	31.9216
10.568	31.9032
10.586	31.8535
10.604	31.7971
10.622	31.758
10.64	31.7458
10.658	31.7541
10.676	31.7674
10.694	31.7758
10.712	31.7798
10.73	31.7891
10.748	31.8128
10.766	31.852
10.784	31.8989
10.802	31.9399
10.82	31.964
10.838	31.9652
10.856	31.9445
10.874	31.9064
10.892	31.8556
10.91	31.7957
10.928	31.7296
10.946	31.6595
10.964	31.5872
10.982	31.5147
11	31.4428
11.018	31.3724
11.036	31.306
11.054	31.2477
11.072	31.2013
11.09	31.169
11.108	31.1494
11.126	31.1367
11.144	31.124
11.162	31.1064
11.18	31.0843
11.198	31.0636
11.216	31.0523
11.234	31.056
11.252	31.0755
11.27	31.1065
11.288	31.1421
11.306	31.1763
11.324	31.2036
11.342	31.2189
11.36	31.2176
11.378	31.1951
11.396	31.1508
11.414	31.091
11.432	31.0298
11.45	30.9852
11.468	30.9736
11.486	31.0022
11.504	31.0651
11.522	31.1454
11.54	31.2232
11.558	31.2807
11.576	31.3074
11.594	31.3024
11.612	31.2703
11.63	31.2198
11.648	31.1597
11.666	31.0985
11.684	31.043
11.702	30.9967
11.72	30.9602
11.738	30.9303
11.756	30.9011
11.774	30.8657
11.792	30.8196
11.81	30.763
11.828	30.7007
11.846	30.6393
11.864	30.5843
11.882	30.5373
11.9	30.4952
11.918	30.4516
11.936	30.4007
11.954	30.3398
11.972	30.2712
11.99	30.2022
12.008	30.1428
12.026	30.1028
12.044	30.0886
12.062	30.1002
12.08	30.1313
12.098	30.172
12.116	30.211
12.134	30.2395
12.152	30.2545
12.17	30.2585
12.188	30.2587
12.206	30.2641
12.224	30.283
12.242	30.3193
12.26	30.3726
12.278	30.4373
12.296	30.505
12.314	30.5662
12.332	30.6131
12.35	30.6421
12.368	30.6538
12.386	30.6522
12.404	30.6436
12.422	30.6343
12.44	30.6292
12.458	30.6307
12.476	30.6392
12.494	30.6535
12.512	30.672
12.53	30.6923
12.548	30.7122
12.566	30.7288
12.584	30.7384
12.602	30.7364
12.62	30.7183
12.638	30.6804
12.656	30.6211
12.674	30.5419
12.692	30.4462
12.71	30.3385
12.728	30.2235
12.746	30.105
12.764	29.9856
12.782	29.8675
12.8	29.7532
12.818	29.6464
12.836	29.5517
12.854	29.4746
12.872	29.419
12.89	29.3875
12.908	29.3794
12.926	29.3915
12.944	29.4175
12.962	29.4509
12.98	29.4858
12.998	29.5184
13.016	29.5469
13.034	29.5716
13.052	29.593
13.07	29.6119
13.088	29.6277
13.106	29.6392
13.124	29.645
13.142	29.6443
13.16	29.6374
13.178	29.6271
13.196	29.618
13.214	29.6161
13.232	29.6268
13.25	29.6538
13.268	29.6977
13.286	29.754
13.304	29.8142
13.322	29.8664
13.34	29.8987
13.358	29.901
13.376	29.8683
13.394	29.8021
13.412	29.7105
13.43	29.6072
13.448	29.5085
13.466	29.4299
13.484	29.3831
13.502	29.3734
13.52	29.3991
13.538	29.452
13.556	29.5201
13.574	29.5901
13.592	29.6508
13.61	29.6946
13.628	29.7187
13.646	29.7245
13.664	29.7163
13.682	29.6991
13.7	29.6769
13.718	29.6526
13.736	29.6261
13.754	29.5964
13.772	29.5605
13.79	29.5162
13.808	29.4614
13.826	29.3959
13.844	29.3209
13.862	29.2385
13.88	29.1515
13.898	29.0633
13.916	28.9768
13.934	28.8942
13.952	28.8175
13.97	28.7481
13.988	28.6872
14.006	28.6357
14.024	28.5943
14.042	28.5633
14.06	28.5425
14.078	28.5307
14.096	28.526
14.114	28.5255
14.132	28.5259
14.15	28.5237
14.168	28.5162
14.186	28.5013
14.204	28.4778
14.222	28.446
14.24	28.4077
14.258	28.3659
14.276	28.3237
14.294	28.285
14.312	28.2533
14.33	28.2316
14.348	28.2228
14.366	28.2286
14.384	28.2503
14.402	28.2878
14.42	28.3406
14.438	28.4068
14.456	28.4838
14.474	28.5676
14.492	28.6534
14.51	28.7352
14.528	28.8073
14.546	28.8647
14.564	28.9036
14.582	28.9219
14.6	28.9197
14.618	28.8989
14.636	28.8638
14.654	28.8191
14.672	28.7701
14.69	28.7214
14.708	28.6769
14.726	28.6395
14.744	28.6102
14.762	28.5886
14.78	28.5733
14.798	28.5621
14.816	28.5527
14.834	28.543
14.852	28.5307
14.87	28.515
14.888	28.4954
14.906	28.4726
14.924	28.4475
14.942	28.4214
14.96	28.3954
14.978	28.3702
14.996	28.3456
15.014	28.321
15.032	28.295
15.05	28.266
15.068	28.2327
15.086	28.1938
15.104	28.1489
15.122	28.0983
15.14	28.0434
15.158	27.9865
15.176	27.93
15.194	27.8765
15.212	27.8288
15.23	27.7883
15.248	27.7558
15.266	27.7309
15.284	27.7123
15.302	27.6975
15.32	27.6836
15.338	27.6679
15.356	27.6472
15.374	27.6193
15.392	27.5833
15.41	27.5389
15.428	27.4863
15.446	27.4274
15.464	27.3643
15.482	27.2994
15.5	27.2358
15.518	27.1768
15.536	27.1248
15.554	27.082
15.572	27.0504
15.59	27.0314
15.608	27.0251
15.626	27.0315
15.644	27.0497
15.662	27.0778
15.68	27.1138
15.698	27.1555
15.716	27.2004
15.734	27.2458
15.752	27.29
15.77	27.3311
15.788	27.3674
15.806	27.3982
15.824	27.4231
15.842	27.442
15.86	27.4554
15.878	27.4643
15.896	27.4694
15.914	27.4724
15.932	27.4747
15.95	27.4774
15.968	27.4818
15.986	27.4887
16.004	27.4984
16.022	27.511
16.04	27.526
16.058	27.5427
16.076	27.5605
16.094	27.5784
16.112	27.5957
16.13	27.6118
16.148	27.6264
16.166	27.6393
16.184	27.6501
16.202	27.659
16.22	27.6653
16.238	27.669
16.256	27.6699
16.274	27.6669
16.292	27.6593
16.31	27.646
16.328	27.6258
16.346	27.598
16.364	27.5623
16.382	27.5183
16.4	27.4665
16.418	27.4074
16.436	27.3423
16.454	27.2729
16.472	27.2005
16.49	27.1274
16.508	27.0552
16.526	26.9853
16.544	26.9192
16.562	26.8573
16.58	26.8002
16.598	26.7482
16.616	26.7011
16.634	26.6588
16.652	26.6207
16.67	26.5864
16.688	26.5554
16.706	26.5268
16.724	26.5001
16.742	26.475
16.76	26.4501
16.778	26.4252
16.796	26.3998
16.814	26.3734
16.832	26.3458
16.85	26.3177
16.868	26.2896
16.886	26.2619
16.904	26.2366
16.922	26.2149
16.94	26.1982
16.958	26.1888
16.976	26.1875
16.994	26.1961
17.012	26.215
17.03	26.2445
17.048	26.2843
17.066	26.3334
17.084	26.3908
17.102	26.4536
17.12	26.5206
17.138	26.5882
17.156	26.6544
17.174	26.717
17.192	26.7732
17.21	26.8219
17.228	26.8614
17.246	26.8911
17.264	26.9105
17.282	26.9198
17.3	26.9194
17.318	26.91
17.336	26.8929
17.354	26.8687
17.372	26.8395
17.39	26.8059
17.408	26.7697
17.426	26.7322
17.444	26.6944
17.462	26.6578
17.48	26.6228
17.498	26.591
17.516	26.5626
17.534	26.5384
17.552	26.5187
17.57	26.5037
17.588	26.4934
17.606	26.4878
17.624	26.4866
17.642	26.4894
17.66	26.4961
17.678	26.5058
17.696	26.5184
17.714	26.5327
17.732	26.5483
17.75	26.5643
17.768	26.5795
17.786	26.5934
17.804	26.6045
17.822	26.6125
17.84	26.616
17.858	26.6145
17.876	26.6071
17.894	26.5935
17.912	26.5734
17.93	26.547
17.948	26.5143
17.966	26.4764
17.984	26.4338
18.002	26.3878
18.02	26.3395
18.038	26.29
18.056	26.241
18.074	26.1931
18.092	26.1476
18.11	26.1048
18.128	26.0649
18.146	26.0278
18.164	25.9927
18.182	25.9587
18.2	25.9247
18.218	25.8887
18.236	25.8498
18.254	25.8055
18.272	25.7552
18.29	25.697
18.308	25.6307
18.326	25.5556
18.344	25.4722
18.362	25.3812
18.38	25.2837
18.398	25.182
18.416	25.0779
18.434	24.9738
18.452	24.8726
18.47	24.7765
18.488	24.6884
18.506	24.6096
18.524	24.543
18.542	24.4891
18.56	24.449
18.578	24.4231
18.596	24.4109
18.614	24.4124
18.632	24.4258
18.65	24.4508
18.668	24.485
18.686	24.528
18.704	24.5767
18.722	24.6308
18.74	24.6879
18.758	24.7478
18.776	24.8082
18.794	24.8691
18.812	24.9293
18.83	24.9885
18.848	25.0457
18.866	25.1008
18.884	25.1536
18.902	25.2039
18.92	25.2516
18.938	25.2966
18.956	25.3392
18.974	25.3792
18.992	25.4168
19.01	25.4523
19.028	25.4858
19.046	25.5177
19.064	25.5483
19.082	25.578
19.1	25.6074
19.118	25.6365
19.136	25.6658
19.154	25.6955
19.172	25.7258
19.19	25.7566
19.208	25.7876
19.226	25.8187
19.244	25.8491
19.262	25.8787
19.28	25.9063
19.298	25.9316
19.316	25.953
19.334	25.9705
19.352	25.9823
19.37	25.9885
19.388	25.9883
19.406	25.9816
19.424	25.9685
19.442	25.9487
19.46	25.9235
19.478	25.8928
19.496	25.8583
19.514	25.8201
19.532	25.7804
19.55	25.7399
19.568	25.6999
19.586	25.662
19.604	25.6263
19.622	25.5947
19.64	25.5668
19.658	25.5434
19.676	25.5243
19.694	25.509
19.712	25.4977
19.73	25.4886
19.748	25.4818
19.766	25.4755
19.784	25.4694
19.802	25.462
19.82	25.4523
19.838	25.4399
19.856	25.4235
19.874	25.4033
19.892	25.3784
19.91	25.3489
19.928	25.3151
19.946	25.277
19.964	25.2353
19.982	25.1901
20	25.1421
20.018	25.0918
20.036	25.0395
20.054	24.9858
20.072	24.9306
20.09	24.8744
20.108	24.8172
20.126	24.7589
20.144	24.6997
20.162	24.6393
20.18	24.5778
20.198	24.5153
20.216	24.4517
20.234	24.3873
20.252	24.3227
20.27	24.2577
20.288	24.194
20.306	24.1313
20.324	24.0713
20.342	24.0149
20.36	23.9627
20.378	23.9171
20.396	23.8776
20.414	23.8468
20.432	23.8245
20.45	23.8115
20.468	23.8085
20.486	23.8148
20.504	23.8304
20.522	23.8551
20.54	23.8865
20.558	23.9252
20.576	23.968
20.594	24.014
20.612	24.0617
20.63	24.1072
20.648	24.1512
20.666	24.1892
20.684	24.2214
20.702	24.2456
20.72	24.26
20.738	24.2649
20.756	24.2588
20.774	24.242
20.792	24.2152
20.81	24.178
20.828	24.132
20.846	24.0788
20.864	24.0182
20.882	23.9538
20.9	23.8848
20.918	23.8143
20.936	23.7442
20.954	23.6743
20.972	23.6082
20.99	23.5453
21.008	23.4877
21.026	23.4364
21.044	23.3915
21.062	23.3543
21.08	23.3244
21.098	23.3027
21.116	23.2894
21.134	23.2844
21.152	23.2881
21.17	23.3003
21.188	23.3212
21.206	23.351
21.224	23.3894
21.242	23.4368
21.26	23.493
21.278	23.5576
21.296	23.6308
21.314	23.7119
21.332	23.8
21.35	23.8954
21.368	23.9958
21.386	24.1011
21.404	24.21
21.422	24.319
21.44	24.4296
21.458	24.5373
21.476	24.6406
21.494	24.7393
21.512	24.828
21.53	24.9081
21.548	24.9764
21.566	25.0301
21.584	25.0703
21.602	25.0939
21.62	25.1005
21.638	25.0907
21.656	25.0638
21.674	25.0199
21.692	24.9613
21.71	24.8877
21.728	24.8003
21.746	24.7035
21.764	24.5956
21.782	24.4808
21.8	24.3623
21.818	24.2388
21.836	24.1161
21.854	23.9942
21.872	23.8745
21.89	23.7614
21.908	23.6535
21.926	23.5534
21.944	23.463
21.962	23.3814
21.98	23.3104
21.998	23.2503
22.016	23.2008
22.034	23.1621
22.052	23.134
22.07	23.1162
22.088	23.1084
22.106	23.1106
22.124	23.1222
22.142	23.143
22.16	23.173
22.178	23.2115
22.196	23.2587
22.214	23.3142
22.232	23.3777
22.25	23.4494
22.268	23.5283
22.286	23.614
22.304	23.7067
22.322	23.8043
22.34	23.9071
22.358	24.0143
22.376	24.1221
22.394	24.2321
22.412	24.3414
22.43	24.446
22.448	24.5478
22.466	24.6429
22.484	24.7278
22.502	24.8044
22.52	24.8685
22.538	24.9181
22.556	24.9545
22.574	24.9748
22.592	24.9783
22.61	24.9658
22.628	24.9371
22.646	24.8916
22.664	24.8307
22.682	24.7565
22.7	24.6674
22.718	24.5667
22.736	24.4577
22.754	24.3382
22.772	24.2131
22.79	24.0868
22.808	23.9563
22.826	23.8278
22.844	23.7046
22.862	23.5845
22.88	23.4727
22.898	23.3719
22.916	23.2802
22.934	23.201
22.952	23.1354
22.97	23.0825
22.988	23.0435
23.006	23.0195
23.024	23.0093
23.042	23.011
23.06	23.0256
23.078	23.0518
23.096	23.0852
23.114	23.1269
23.132	23.1755
23.15	23.2248
23.168	23.276
23.186	23.3278
23.204	23.3741
23.222	23.4157
23.24	23.4519
23.258	23.4778
23.276	23.494
23.294	23.5001
23.312	23.4927
23.33	23.4713
23.348	23.4369
23.366	23.3895
23.384	23.3278
23.402	23.2535
23.42	23.17
23.438	23.0763
23.456	22.9735
23.474	22.8673
23.492	22.7575
23.51	22.6441
23.528	22.5333
23.546	22.4262
23.564	22.3215
23.582	22.2241
23.6	22.1361
23.618	22.0555
23.636	21.9852
23.654	21.9271
23.672	21.8802
23.69	21.8432
23.708	21.8161
23.726	21.7999
23.744	21.7907
23.762	21.7854
23.78	21.787
23.798	21.7906
23.816	21.7903
23.834	21.7895
23.852	21.7849
23.87	21.7702
23.888	21.7472
23.906	21.7151
23.924	21.6692
23.942	21.6089
23.96	21.5353
23.978	21.4481
23.996	21.3452
24.014	21.2274
24.032	21.1006
24.05	20.9672
24.068	20.8229
24.086	20.6779
24.104	20.5412
24.122	20.4056
24.14	20.2793
24.158	20.174
24.176	20.0852
24.194	20.0157
24.212	19.9762
24.23	19.9685
24.248	19.9894
24.266	20.0456
24.284	20.1416
24.302	20.2744
24.32	20.4442
24.338	20.6519
24.356	20.8994
24.374	21.1821
24.392	21.4941
24.41	21.8392
24.428	22.2145
24.446	22.6089
24.464	23.0204
24.482	23.454
24.5	23.8948
24.518	24.3304
24.536	24.7708
24.554	25.2065
24.572	25.6238
24.59	26.0255
24.608	26.4119
24.626	26.7738
24.644	27.1058
24.662	27.4124
24.68	27.6926
24.698	27.9447
24.716	28.1667
24.734	28.3633
24.752	28.5406
24.77	28.6959
24.788	28.8295
24.806	28.9532
24.824	29.074
24.842	29.1831
24.86	29.2918
24.878	29.414
24.896	29.5454
24.914	29.6865
24.932	29.8483
24.95	30.0374
24.968	30.248
24.986	30.4828
25.004	30.7456
25.022	31.0378
25.04	31.3561
25.058	31.6964
25.076	32.0587
25.094	32.446
25.112	32.8493
25.13	33.2603
25.148	33.6868
25.166	34.1229
25.184	34.5544
25.202	34.9762
25.22	35.3974
25.238	35.8048
25.256	36.1848
25.274	36.5439
25.292	36.8804
25.31	37.183
25.328	37.4445
25.346	37.6718
25.364	37.8615
25.382	38.0091
25.4	38.1125
25.418	38.1748
25.436	38.2003
25.454	38.1911
25.472	38.1406
25.49	38.0585
25.508	37.9571
25.526	37.8321
25.544	37.6783
25.562	37.5229
25.58	37.3908
25.598	37.2597
25.616	37.143
25.634	37.0749
25.652	37.0738
25.67	37.1114
25.688	37.2172
25.706	37.4273
25.724	37.7427
25.742	38.1487
25.76	38.6691
25.778	39.3262
25.796	40.1156
25.814	41.0298
25.832	42.0674
25.85	43.2322
25.868	44.5351
25.886	45.9499
25.904	47.4465
25.922	49.0307
25.94	50.7194
25.958	52.4581
25.976	54.1923
25.994	55.9558
26.012	57.743
26.03	59.4865
26.048	61.1298
26.066	62.7261
26.084	64.2473
26.102	65.6321
26.12	66.8417
26.138	67.9232
26.156	68.847
26.174	69.5725
26.192	70.0787
26.21	70.3896
26.228	70.5055
26.246	70.4249
26.264	70.1361
26.282	69.6441
26.3	68.9777
26.318	68.1642
26.336	67.1787
26.354	66.0297
26.372	64.7637
26.39	63.4226
26.408	61.9668
26.426	60.4145
26.444	58.8177
26.462	57.2187
26.48	55.5744
26.498	53.9064
26.516	52.2592
26.534	50.6653
26.552	49.0906
26.57	47.5506
26.588	46.0728
26.606	44.6757
26.624	43.3408
26.642	42.0729
26.66	40.8812
26.678	39.7738
26.696	38.7485
26.714	37.7962
26.732	36.9077
26.75	36.0812
26.768	35.327
26.786	34.6301
26.804	33.9736
26.822	33.3522
26.84	32.782
26.858	32.2448
26.876	31.7198
26.894	31.1974
26.912	30.6939
26.93	30.1986
26.948	29.6984
26.966	29.1603
26.984	28.5559
27.002	27.9778
27.02	27.5256
27.028	27.4046