File: Bakgrunnsmateriale/MATLAB/FTIR/ftir_data/LPE453/Mapping_121/LPE453_e125.asc
PE IR       SPECTRUM    SPECTRUM    ASCII       PEDS        1.60
  -1
LP8783~1.ASC
17/05/16
19:49:28.00
17/05/16
19:49:54.00
tln
$LPE453_e0125$<ebV0>[-23.3,12.1,10.0,0.0,27,1,0]
27.028
64

2002,4.07
MIRTGS : RIGHTBACK : INTERNAL 2
MIR : ON : INTERNAL 2
OPTKBR

0.200000
8
8.000000
FILLER
SINGLE
SPECTRUM
UNLOCKED 256

DOUBLE

COMBINED
1
0
0

0.002000
BACKG

1
0
TRUE
51149
0
LEFT NOT FITTED RIGHT NOT FITTED 0
NONE
NONE
15600
12
4.427000
51148
TRUE
1 0 8 72 0 0 0 0

15798

#HDR
-1
-1
#GR
µM
EGY
2.38419e-05
0.0
2.000000
0.002000
12515
8
2.421068
0.007271
#DATA
2.000000	 0.766324
2.018000	 0.787553
2.036000	 0.801399
2.054000	 0.821546
2.072000	 0.845064
2.090000	 0.870784
2.108000	 0.888557
2.126000	 0.924601
2.144000	 0.895948
2.162000	 0.925221
2.180000	 0.945901
2.198000	 0.970627
2.216000	 1.002138
2.234000	 1.062440
2.252000	 1.014751
2.270000	 1.022175
2.288000	 1.040364
2.306000	 1.068306
2.324000	 1.105735
2.342000	 1.142755
2.360000	 1.167715
2.378000	 1.187338
2.396000	 1.205653
2.414000	 1.220366
2.432000	 1.246895
2.450000	 1.277762
2.468000	 1.320551
2.486000	 1.355983
2.504000	 1.384842
2.522000	 1.403221
2.540000	 1.413842
2.558000	 1.424103
2.576000	 1.433955
2.594000	 1.434381
2.612000	 1.477521
2.630000	 1.500365
2.648000	 1.533164
2.666000	 1.533445
2.684000	 1.560823
2.702000	 1.564876
2.720000	 1.555873
2.738000	 1.558058
2.756000	 1.565471
2.774000	 1.578584
2.792000	 1.588961
2.810000	 1.602577
2.828000	 1.605440
2.846000	 1.609748
2.864000	 1.603232
2.882000	 1.593052
2.900000	 1.581494
2.918000	 1.568389
2.936000	 1.578831
2.954000	 1.591020
2.972000	 1.610599
2.990000	 1.640476
3.008000	 1.668710
3.026000	 1.695342
3.044000	 1.722187
3.062000	 1.741817
3.080000	 1.756160
3.098000	 1.765984
3.116000	 1.769738
3.134000	 1.773543
3.152000	 1.778666
3.170000	 1.790168
3.188000	 1.804860
3.206000	 1.828248
3.224000	 1.849243
3.242000	 1.883619
3.260000	 1.909734
3.278000	 1.936772
3.296000	 1.955891
3.314000	 1.937645
3.332000	 2.000605
3.350000	 2.008401
3.368000	 1.945891
3.386000	 1.903960
3.404000	 1.812262
3.422000	 1.764697
3.440000	 1.913466
3.458000	 1.969283
3.476000	 1.981755
3.494000	 1.889927
3.512000	 1.992787
3.530000	 2.080344
3.548000	 2.119484
3.566000	 2.152222
3.584000	 2.174442
3.602000	 2.200382
3.620000	 2.218004
3.638000	 2.229172
3.656000	 2.233791
3.674000	 2.233277
3.692000	 2.227615
3.710000	 2.223285
3.728000	 2.219585
3.746000	 2.207610
3.764000	 2.201590
3.782000	 2.198658
3.800000	 2.199145
3.818000	 2.198629
3.836000	 2.200603
3.854000	 2.205698
3.872000	 2.217318
3.890000	 2.235957
3.908000	 2.249680
3.926000	 2.264578
3.944000	 2.281497
3.962000	 2.290400
3.980000	 2.296509
3.998000	 2.296553
4.016000	 2.300125
4.034000	 2.296792
4.052000	 2.289240
4.070000	 2.280428
4.088000	 2.268710
4.106000	 2.261707
4.124000	 2.248834
4.141999	 2.240617
4.160000	 2.237888
4.178000	 2.227927
4.196000	 2.223597
4.214000	 2.216383
4.232000	 2.209159
4.250000	 2.226959
4.268000	 2.236051
4.286000	 2.246860
4.304000	 2.267493
4.322000	 2.284121
4.340000	 2.300180
4.358000	 2.314962
4.375999	 2.326729
4.394000	 2.334754
4.412000	 2.341838
4.430000	 2.344797
4.448000	 2.349612
4.466000	 2.351979
4.484000	 2.347478
4.502000	 2.344436
4.520000	 2.338411
4.538000	 2.332904
4.556000	 2.323552
4.574000	 2.317875
4.592000	 2.311676
4.609999	 2.305609
4.628000	 2.302987
4.646000	 2.303938
4.664000	 2.303724
4.682000	 2.303404
4.700000	 2.302286
4.718000	 2.305554
4.736000	 2.304571
4.754000	 2.305198
4.772000	 2.305064
4.790000	 2.305590
4.808000	 2.311966
4.826000	 2.322223
4.843999	 2.340483
4.862000	 2.355277
4.880000	 2.369989
4.898000	 2.383028
4.916000	 2.395108
4.934000	 2.403848
4.952000	 2.410616
4.970000	 2.416401
4.988000	 2.419507
5.006000	 2.421035
5.024000	 2.419500
5.042000	 2.416373
5.060000	 2.410635
5.077999	 2.402609
5.096000	 2.397127
5.114000	 2.393482
5.132000	 2.387346
5.150000	 2.380995
5.168000	 2.376829
5.186000	 2.369201
5.204000	 2.359387
5.222000	 2.352432
5.240000	 2.346662
5.258000	 2.339546
5.276000	 2.333675
5.294000	 2.332999
5.312000	 2.336970
5.330000	 2.339267
5.348000	 2.339634
5.366000	 2.343961
5.384000	 2.348616
5.402000	 2.353320
5.420000	 2.356082
5.438000	 2.365326
5.456000	 2.367149
5.474000	 2.370268
5.492000	 2.379713
5.510000	 2.386686
5.528000	 2.391589
5.546000	 2.391354
5.564000	 2.388908
5.582000	 2.387398
5.600000	 2.389919
5.618000	 2.389449
5.636000	 2.379792
5.654000	 2.373617
5.672000	 2.371308
5.690000	 2.363562
5.708000	 2.348048
5.726000	 2.332254
5.744000	 2.312892
5.762000	 2.288472
5.780000	 2.288036
5.798000	 2.290320
5.816000	 2.271149
5.834000	 2.262509
5.852000	 2.258953
5.870000	 2.235578
5.888000	 2.216336
5.906000	 2.221080
5.923999	 2.214287
5.942000	 2.202080
5.960000	 2.203105
5.978000	 2.195447
5.996000	 2.187509
6.014000	 2.177989
6.032000	 2.155476
6.050000	 2.126730
6.068000	 2.123271
6.086000	 2.125473
6.104000	 2.111994
6.122000	 2.100697
6.140000	 2.094047
6.158000	 2.072609
6.176000	 2.037650
6.194000	 1.992762
6.212000	 1.951915
6.230000	 1.942113
6.248000	 1.959476
6.266000	 1.976155
6.284000	 1.981352
6.302000	 1.978068
6.320000	 1.969569
6.338000	 1.956171
6.356000	 1.949146
6.374000	 1.945354
6.392000	 1.925044
6.410000	 1.897554
6.428000	 1.901481
6.446000	 1.922932
6.464000	 1.926664
6.482000	 1.927532
6.500000	 1.962736
6.518000	 2.022201
6.536000	 2.063803
6.554000	 2.076511
6.572000	 2.074669
6.590000	 2.071015
6.608000	 2.062169
6.626000	 2.038628
6.644000	 1.985793
6.662000	 1.864617
6.680000	 1.705386
6.698000	 1.647639
6.716000	 1.731213
6.734000	 1.849399
6.752000	 1.920949
6.770000	 1.943511
6.788000	 1.944807
6.806000	 1.939377
6.824000	 1.920713
6.842000	 1.877416
6.860000	 1.809703
6.878000	 1.748991
6.896000	 1.739433
6.914000	 1.779183
6.932000	 1.818937
6.950000	 1.833548
6.968000	 1.838959
6.986000	 1.843983
7.004000	 1.843884
7.022000	 1.837461
7.040000	 1.827489
7.058000	 1.816669
7.076000	 1.798027
7.094000	 1.761373
7.112000	 1.718842
7.130000	 1.699324
7.148000	 1.712826
7.166000	 1.741420
7.184000	 1.760434
7.202000	 1.760579
7.220000	 1.755485
7.238000	 1.760919
7.256000	 1.773266
7.274000	 1.782829
7.292000	 1.787591
7.310000	 1.788806
7.328000	 1.788374
7.346000	 1.788273
7.364000	 1.788228
7.382000	 1.787115
7.400000	 1.785597
7.418000	 1.785107
7.436000	 1.785831
7.454000	 1.787792
7.472000	 1.792205
7.490000	 1.799663
7.508000	 1.808248
7.526000	 1.815322
7.544000	 1.819518
7.562000	 1.821373
7.580000	 1.822763
7.598000	 1.824633
7.616000	 1.825970
7.634000	 1.825916
7.652000	 1.825145
7.670000	 1.824385
7.688000	 1.824199
7.706000	 1.824800
7.724000	 1.825578
7.742000	 1.825787
7.760000	 1.825251
7.778000	 1.823843
7.796000	 1.820698
7.814000	 1.815041
7.832000	 1.805750
7.850000	 1.790026
7.868000	 1.764955
7.886000	 1.732392
7.904000	 1.702164
7.922000	 1.687735
7.940000	 1.696154
7.958000	 1.722225
7.976000	 1.753025
7.994000	 1.777929
8.012000	 1.793676
8.030000	 1.801861
8.048000	 1.805457
8.065999	 1.806525
8.084000	 1.806120
8.102000	 1.804500
8.120000	 1.801549
8.138000	 1.797301
8.155999	 1.791671
8.173999	 1.784260
8.192000	 1.774464
8.210000	 1.762470
8.228000	 1.749510
8.246000	 1.737624
8.263999	 1.728578
8.282000	 1.723036
8.300000	 1.720520
8.318000	 1.720052
8.336000	 1.720388
8.353999	 1.720178
8.372000	 1.718234
8.390000	 1.714654
8.408000	 1.709845
8.426000	 1.703804
8.443999	 1.696807
8.462000	 1.689492
8.480000	 1.682580
8.498000	 1.675951
8.516000	 1.668917
8.533999	 1.660637
8.552000	 1.650815
8.570000	 1.639604
8.588000	 1.627350
8.606000	 1.615045
8.624000	 1.604410
8.641999	 1.596965
8.660000	 1.592864
8.678000	 1.590818
8.696000	 1.588966
8.714000	 1.585883
8.731999	 1.581312
8.750000	 1.575442
8.768000	 1.568659
8.786000	 1.560984
8.804000	 1.552479
8.821999	 1.543334
8.840000	 1.533669
8.858000	 1.523629
8.876000	 1.513147
8.894000	 1.502055
8.911999	 1.490340
8.930000	 1.478178
8.948000	 1.465902
8.966000	 1.453788
8.984000	 1.442190
9.001999	 1.431574
9.020000	 1.422740
9.038000	 1.416220
9.056000	 1.412232
9.074000	 1.409930
9.092000	 1.408241
9.109999	 1.406602
9.128000	 1.405081
9.146000	 1.404296
9.164000	 1.404797
9.182000	 1.406512
9.199999	 1.408664
9.218000	 1.410149
9.236000	 1.410300
9.254000	 1.409314
9.272000	 1.408163
9.289999	 1.407908
9.308000	 1.409043
9.326000	 1.411408
9.344000	 1.414104
9.362000	 1.416130
9.379999	 1.416794
9.398000	 1.415266
9.416000	 1.410188
9.434000	 1.398840
9.452000	 1.378709
9.469999	 1.350216
9.488000	 1.318934
9.506000	 1.293997
9.524000	 1.283552
9.542000	 1.289784
9.560000	 1.307956
9.577999	 1.329910
9.596000	 1.348406
9.614000	 1.360154
9.632000	 1.365425
9.650000	 1.366172
9.667999	 1.364417
9.686000	 1.361290
9.704000	 1.357464
9.722000	 1.353037
9.740000	 1.348328
9.757999	 1.343781
9.776000	 1.340213
9.794000	 1.338468
9.812000	 1.338963
9.830000	 1.341442
9.847999	 1.345448
9.866000	 1.350433
9.884000	 1.356126
9.902000	 1.362088
9.920000	 1.367945
9.937999	 1.373048
9.956000	 1.376871
9.974000	 1.379184
9.992000	 1.380168
10.01	1.380252
10.028	1.379661
10.046	1.378606
10.064	1.377008
10.082	1.374927
10.1	1.372374
10.118	1.369394
10.136	1.366078
10.154	1.362549
10.172	1.358891
10.19	1.355178
10.208	1.351430
10.226	1.347702
10.244	1.343857
10.262	1.339805
10.28	1.335398
10.298	1.330743
10.316	1.325791
10.334	1.320626
10.352	1.315249
10.37	1.309636
10.388	1.303815
10.406	1.297870
10.424	1.291954
10.442	1.286148
10.46	1.280551
10.478	1.275144
10.496	1.270068
10.514	1.265298
10.532	1.260791
10.55	1.256609
10.568	1.252655
10.586	1.248932
10.604	1.245508
10.622	1.242431
10.64	1.239697
10.658	1.237220
10.676	1.234755
10.694	1.232074
10.712	1.228993
10.73	1.225513
10.748	1.221786
10.766	1.218030
10.784	1.214395
10.802	1.210959
10.82	1.207605
10.838	1.204191
10.856	1.200511
10.874	1.196370
10.892	1.191678
10.91	1.186364
10.928	1.180496
10.946	1.174323
10.964	1.168018
10.982	1.161903
11	1.156272
11.018	1.151327
11.036	1.147158
11.054	1.143806
11.072	1.141179
11.09	1.139228
11.108	1.137702
11.126	1.136496
11.144	1.135288
11.162	1.133768
11.18	1.131584
11.198	1.128337
11.216	1.123713
11.234	1.117488
11.252	1.109439
11.27	1.099579
11.288	1.088038
11.306	1.075262
11.324	1.061870
11.342	1.048662
11.36	1.036666
11.378	1.026748
11.396	1.019628
11.414	1.015760
11.432	1.015341
11.45	1.018162
11.468	1.023666
11.486	1.031168
11.504	1.039756
11.522	1.048523
11.54	1.056743
11.558	1.063798
11.576	1.069376
11.594	1.073401
11.612	1.075959
11.63	1.077194
11.648	1.077448
11.666	1.076900
11.684	1.075783
11.702	1.074276
11.72	1.072588
11.738	1.070788
11.756	1.068955
11.774	1.067095
11.792	1.065184
11.81	1.063105
11.828	1.060796
11.846	1.058028
11.864	1.054639
11.882	1.050285
11.9	1.044634
11.918	1.037304
11.936	1.027782
11.954	1.015670
11.972	1.000654
11.99	0.982537
12.008	0.961589
12.026	0.938331
12.044	0.913843
12.062	0.889686
12.08	0.867778
12.098	0.849861
12.116	0.837583
12.134	0.831884
12.152	0.832893
12.17	0.839894
12.188	0.851441
12.206	0.865727
12.224	0.880894
12.242	0.895334
12.26	0.907915
12.278	0.917970
12.296	0.925356
12.314	0.930236
12.332	0.933030
12.35	0.934156
12.368	0.934122
12.386	0.933352
12.404	0.932225
12.422	0.930976
12.44	0.929880
12.458	0.929102
12.476	0.928777
12.494	0.928925
12.512	0.929622
12.53	0.930887
12.548	0.932630
12.566	0.934864
12.584	0.937523
12.602	0.940482
12.62	0.943673
12.638	0.946928
12.656	0.950161
12.674	0.953201
12.692	0.955963
12.71	0.958387
12.728	0.960443
12.746	0.962113
12.764	0.963353
12.782	0.964202
12.8	0.964695
12.818	0.964875
12.836	0.964795
12.854	0.964487
12.872	0.964034
12.89	0.963423
12.908	0.962739
12.926	0.961991
12.944	0.961199
12.962	0.960446
12.98	0.959709
12.998	0.958955
13.016	0.958193
13.034	0.957436
13.052	0.956661
13.07	0.955840
13.088	0.954919
13.106	0.953945
13.124	0.952847
13.142	0.951672
13.16	0.950392
13.178	0.948971
13.196	0.947497
13.214	0.945903
13.232	0.944241
13.25	0.942503
13.268	0.940735
13.286	0.939030
13.304	0.937375
13.322	0.935912
13.34	0.934605
13.358	0.933444
13.376	0.932410
13.394	0.931371
13.412	0.930251
13.43	0.928949
13.448	0.927398
13.466	0.925580
13.484	0.923499
13.502	0.921198
13.52	0.918723
13.538	0.916175
13.556	0.913623
13.574	0.911084
13.592	0.908600
13.61	0.906224
13.628	0.903866
13.646	0.901513
13.664	0.899156
13.682	0.896714
13.7	0.894233
13.718	0.891624
13.736	0.888935
13.754	0.886210
13.772	0.883468
13.79	0.880772
13.808	0.878125
13.826	0.875542
13.844	0.873064
13.862	0.870688
13.88	0.868373
13.898	0.866113
13.916	0.863841
13.934	0.861493
13.952	0.859082
13.97	0.856559
13.988	0.853883
14.006	0.851115
14.024	0.848188
14.042	0.845191
14.06	0.842099
14.078	0.838964
14.096	0.835812
14.114	0.832659
14.132	0.829534
14.15	0.826453
14.168	0.823398
14.186	0.820365
14.204	0.817296
14.222	0.814203
14.24	0.811009
14.258	0.807701
14.276	0.804224
14.294	0.800511
14.312	0.796508
14.33	0.792162
14.348	0.787394
14.366	0.782161
14.384	0.776461
14.402	0.770381
14.42	0.763974
14.438	0.757383
14.456	0.750804
14.474	0.744438
14.492	0.738495
14.51	0.733273
14.528	0.728876
14.546	0.725429
14.564	0.722968
14.582	0.721451
14.6	0.720781
14.618	0.720783
14.636	0.721265
14.654	0.721954
14.672	0.722688
14.69	0.723324
14.708	0.723725
14.726	0.723800
14.744	0.723544
14.762	0.722974
14.78	0.722101
14.798	0.720976
14.816	0.719669
14.834	0.718166
14.852	0.716595
14.87	0.714903
14.888	0.713129
14.906	0.711312
14.924	0.709416
14.942	0.707500
14.96	0.705540
14.978	0.703554
14.996	0.701567
15.014	0.699604
15.032	0.697711
15.05	0.695879
15.068	0.694129
15.086	0.692476
15.104	0.690917
15.122	0.689421
15.14	0.687981
15.158	0.686559
15.176	0.685118
15.194	0.683654
15.212	0.682108
15.23	0.680471
15.248	0.678725
15.266	0.676852
15.284	0.674907
15.302	0.672837
15.32	0.670684
15.338	0.668502
15.356	0.666263
15.374	0.664014
15.392	0.661756
15.41	0.659493
15.428	0.657237
15.446	0.654985
15.464	0.652741
15.482	0.650496
15.5	0.648223
15.518	0.645972
15.536	0.643723
15.554	0.641464
15.572	0.639194
15.59	0.636941
15.608	0.634713
15.626	0.632524
15.644	0.630406
15.662	0.628385
15.68	0.626446
15.698	0.624573
15.716	0.622764
15.734	0.621047
15.752	0.619414
15.77	0.617844
15.788	0.616331
15.806	0.614855
15.824	0.613400
15.842	0.611945
15.86	0.610494
15.878	0.609042
15.896	0.607580
15.914	0.606086
15.932	0.604539
15.95	0.602939
15.968	0.601310
15.986	0.599650
16.004	0.597953
16.022	0.596211
16.04	0.594444
16.058	0.592624
16.076	0.590735
16.094	0.588799
16.112	0.586784
16.13	0.584677
16.148	0.582473
16.166	0.580154
16.184	0.577707
16.202	0.575118
16.22	0.572370
16.238	0.569449
16.256	0.566341
16.274	0.563075
16.292	0.559655
16.31	0.556090
16.328	0.552424
16.346	0.548673
16.364	0.544859
16.382	0.541074
16.4	0.537372
16.418	0.533795
16.436	0.530418
16.454	0.527285
16.472	0.524431
16.49	0.521913
16.508	0.519744
16.526	0.517936
16.544	0.516510
16.562	0.515449
16.58	0.514740
16.598	0.514310
16.616	0.514117
16.634	0.514121
16.652	0.514287
16.67	0.514559
16.688	0.514875
16.706	0.515163
16.724	0.515408
16.742	0.515605
16.76	0.515651
16.778	0.515537
16.796	0.515306
16.814	0.514934
16.832	0.514417
16.85	0.513750
16.868	0.512962
16.886	0.512074
16.904	0.511096
16.922	0.510055
16.94	0.508998
16.958	0.507911
16.976	0.506803
16.994	0.505730
17.012	0.504705
17.03	0.503743
17.048	0.502827
17.066	0.501959
17.084	0.501135
17.102	0.500375
17.12	0.499680
17.138	0.499032
17.156	0.498421
17.174	0.497836
17.192	0.497271
17.21	0.496724
17.228	0.496197
17.246	0.495684
17.264	0.495178
17.282	0.494683
17.3	0.494197
17.318	0.493721
17.336	0.493255
17.354	0.492796
17.372	0.492357
17.39	0.491935
17.408	0.491525
17.426	0.491109
17.444	0.490672
17.462	0.490228
17.48	0.489776
17.498	0.489311
17.516	0.488819
17.534	0.488280
17.552	0.487711
17.57	0.487111
17.588	0.486448
17.606	0.485739
17.624	0.485016
17.642	0.484264
17.66	0.483482
17.678	0.482667
17.696	0.481824
17.714	0.480971
17.732	0.480101
17.75	0.479204
17.768	0.478298
17.786	0.477387
17.804	0.476480
17.822	0.475574
17.84	0.474659
17.858	0.473741
17.876	0.472829
17.894	0.471913
17.912	0.470990
17.93	0.470062
17.948	0.469128
17.966	0.468178
17.984	0.467219
18.002	0.466269
18.02	0.465309
18.038	0.464326
18.056	0.463322
18.074	0.462298
18.092	0.461255
18.11	0.460192
18.128	0.459107
18.146	0.458006
18.164	0.456914
18.182	0.455821
18.2	0.454718
18.218	0.453619
18.236	0.452531
18.254	0.451457
18.272	0.450397
18.29	0.449368
18.308	0.448371
18.326	0.447395
18.344	0.446441
18.362	0.445512
18.38	0.444602
18.398	0.443700
18.416	0.442801
18.434	0.441900
18.452	0.440979
18.47	0.440019
18.488	0.439033
18.506	0.438025
18.524	0.436987
18.542	0.435918
18.56	0.434817
18.578	0.433685
18.596	0.432529
18.614	0.431348
18.632	0.430156
18.65	0.428953
18.668	0.427768
18.686	0.426601
18.704	0.425466
18.722	0.424357
18.74	0.423251
18.758	0.422154
18.776	0.421075
18.794	0.420008
18.812	0.418942
18.83	0.417875
18.848	0.416806
18.866	0.415728
18.884	0.414624
18.902	0.413495
18.92	0.412335
18.938	0.411150
18.956	0.409944
18.974	0.408717
18.992	0.407465
19.01	0.406197
19.028	0.404921
19.046	0.403638
19.064	0.402350
19.082	0.401064
19.1	0.399794
19.118	0.398542
19.136	0.397320
19.154	0.396121
19.172	0.394941
19.19	0.393780
19.208	0.392635
19.226	0.391513
19.244	0.390425
19.262	0.389366
19.28	0.388324
19.298	0.387300
19.316	0.386293
19.334	0.385305
19.352	0.384344
19.37	0.383408
19.388	0.382478
19.406	0.381552
19.424	0.380641
19.442	0.379747
19.46	0.378845
19.478	0.377930
19.496	0.377010
19.514	0.376093
19.532	0.375159
19.55	0.374197
19.568	0.373207
19.586	0.372191
19.604	0.371139
19.622	0.370028
19.64	0.368869
19.658	0.367681
19.676	0.366459
19.694	0.365191
19.712	0.363877
19.73	0.362529
19.748	0.361147
19.766	0.359740
19.784	0.358309
19.802	0.356863
19.82	0.355406
19.838	0.353938
19.856	0.352454
19.874	0.350959
19.892	0.349471
19.91	0.347985
19.928	0.346508
19.946	0.345038
19.964	0.343576
19.982	0.342118
20	0.340676
20.018	0.339264
20.036	0.337868
20.054	0.336474
20.072	0.335088
20.09	0.333721
20.108	0.332373
20.126	0.331032
20.144	0.329697
20.162	0.328369
20.18	0.327052
20.198	0.325736
20.216	0.324410
20.234	0.323076
20.252	0.321737
20.27	0.320393
20.288	0.319030
20.306	0.317649
20.324	0.316238
20.342	0.314791
20.36	0.313310
20.378	0.311789
20.396	0.310229
20.414	0.308637
20.432	0.307012
20.45	0.305357
20.468	0.303675
20.486	0.301965
20.504	0.300224
20.522	0.298453
20.54	0.296683
20.558	0.294915
20.576	0.293148
20.594	0.291380
20.612	0.289620
20.63	0.287890
20.648	0.286186
20.666	0.284509
20.684	0.282861
20.702	0.281243
20.72	0.279653
20.738	0.278099
20.756	0.276602
20.774	0.275162
20.792	0.273767
20.81	0.272412
20.828	0.271102
20.846	0.269844
20.864	0.268633
20.882	0.267456
20.9	0.266316
20.918	0.265203
20.936	0.264108
20.954	0.263035
20.972	0.261985
20.99	0.260962
21.008	0.259946
21.026	0.258931
21.044	0.257914
21.062	0.256879
21.08	0.255829
21.098	0.254765
21.116	0.253692
21.134	0.252601
21.152	0.251474
21.17	0.250315
21.188	0.249140
21.206	0.247960
21.224	0.246764
21.242	0.245537
21.26	0.244284
21.278	0.243016
21.296	0.241736
21.314	0.240445
21.332	0.239149
21.35	0.237848
21.368	0.236548
21.386	0.235251
21.404	0.233956
21.422	0.232669
21.44	0.231388
21.458	0.230113
21.476	0.228845
21.494	0.227582
21.512	0.226317
21.53	0.225046
21.548	0.223778
21.566	0.222521
21.584	0.221270
21.602	0.220013
21.62	0.218751
21.638	0.217482
21.656	0.216204
21.674	0.214920
21.692	0.213621
21.71	0.212303
21.728	0.210971
21.746	0.209628
21.764	0.208277
21.782	0.206910
21.8	0.205521
21.818	0.204114
21.836	0.202692
21.854	0.201254
21.872	0.199803
21.89	0.198346
21.908	0.196881
21.926	0.195410
21.944	0.193933
21.962	0.192450
21.98	0.190979
21.998	0.189525
22.016	0.188083
22.034	0.186653
22.052	0.185230
22.07	0.183827
22.088	0.182452
22.106	0.181101
22.124	0.179783
22.142	0.178502
22.16	0.177255
22.178	0.176046
22.196	0.174875
22.214	0.173740
22.232	0.172643
22.25	0.171581
22.268	0.170557
22.286	0.169569
22.304	0.168619
22.322	0.167698
22.34	0.166808
22.358	0.165946
22.376	0.165103
22.394	0.164281
22.412	0.163475
22.43	0.162683
22.448	0.161907
22.466	0.161138
22.484	0.160366
22.502	0.159597
22.52	0.158824
22.538	0.158045
22.556	0.157262
22.574	0.156469
22.592	0.155664
22.61	0.154849
22.628	0.154019
22.646	0.153178
22.664	0.152322
22.682	0.151446
22.7	0.150550
22.718	0.149635
22.736	0.148695
22.754	0.147730
22.772	0.146750
22.79	0.145765
22.808	0.144773
22.826	0.143766
22.844	0.142738
22.862	0.141692
22.88	0.140626
22.898	0.139536
22.916	0.138425
22.934	0.137298
22.952	0.136156
22.97	0.134999
22.988	0.133833
23.006	0.132659
23.024	0.131476
23.042	0.130284
23.06	0.129081
23.078	0.127869
23.096	0.126654
23.114	0.125436
23.132	0.124215
23.15	0.122993
23.168	0.121768
23.186	0.120543
23.204	0.119327
23.222	0.118118
23.24	0.116918
23.258	0.115727
23.276	0.114545
23.294	0.113373
23.312	0.112216
23.33	0.111077
23.348	0.109952
23.366	0.108840
23.384	0.107737
23.402	0.106647
23.42	0.105572
23.438	0.104513
23.456	0.103469
23.474	0.102434
23.492	0.101407
23.51	0.100389
23.528	0.099380
23.546	0.098380
23.564	0.097390
23.582	0.096407
23.6	0.095428
23.618	0.094455
23.636	0.093492
23.654	0.092544
23.672	0.091608
23.69	0.090680
23.708	0.089755
23.726	0.088835
23.744	0.087924
23.762	0.087026
23.78	0.086140
23.798	0.085264
23.816	0.084400
23.834	0.083547
23.852	0.082705
23.87	0.081871
23.888	0.081043
23.906	0.080224
23.924	0.079416
23.942	0.078621
23.96	0.077837
23.978	0.077059
23.996	0.076285
24.014	0.075518
24.032	0.074755
24.05	0.073995
24.068	0.073240
24.086	0.072486
24.104	0.071729
24.122	0.070972
24.14	0.070212
24.158	0.069449
24.176	0.068681
24.194	0.067909
24.212	0.067137
24.23	0.066365
24.248	0.065592
24.266	0.064816
24.284	0.064035
24.302	0.063250
24.32	0.062463
24.338	0.061679
24.356	0.060896
24.374	0.060115
24.392	0.059338
24.41	0.058561
24.428	0.057787
24.446	0.057024
24.464	0.056277
24.482	0.055542
24.5	0.054819
24.518	0.054107
24.536	0.053405
24.554	0.052715
24.572	0.052045
24.59	0.051396
24.608	0.050765
24.626	0.050149
24.644	0.049547
24.662	0.048959
24.68	0.048390
24.698	0.047842
24.716	0.047319
24.734	0.046814
24.752	0.046314
24.77	0.045816
24.788	0.045325
24.806	0.044842
24.824	0.044365
24.842	0.043898
24.86	0.043436
24.878	0.042973
24.896	0.042511
24.914	0.042050
24.932	0.041585
24.95	0.041111
24.968	0.040631
24.986	0.040146
25.004	0.039659
25.022	0.039171
25.04	0.038680
25.058	0.038182
25.076	0.037674
25.094	0.037157
25.112	0.036635
25.13	0.036112
25.148	0.035586
25.166	0.035057
25.184	0.034525
25.202	0.033988
25.22	0.033445
25.238	0.032903
25.256	0.032370
25.274	0.031846
25.292	0.031329
25.31	0.030818
25.328	0.030312
25.346	0.029808
25.364	0.029315
25.382	0.028839
25.4	0.028384
25.418	0.027946
25.436	0.027518
25.454	0.027094
25.472	0.026674
25.49	0.026264
25.508	0.025868
25.526	0.025488
25.544	0.025122
25.562	0.024768
25.58	0.024422
25.598	0.024086
25.616	0.023759
25.634	0.023440
25.652	0.023128
25.67	0.022826
25.688	0.022530
25.706	0.022236
25.724	0.021942
25.742	0.021650
25.76	0.021360
25.778	0.021070
25.796	0.020780
25.814	0.020491
25.832	0.020201
25.85	0.019909
25.868	0.019617
25.886	0.019323
25.904	0.019024
25.922	0.018718
25.94	0.018407
25.958	0.018092
25.976	0.017774
25.994	0.017455
26.012	0.017132
26.03	0.016806
26.048	0.016477
26.066	0.016142
26.084	0.015805
26.102	0.015470
26.12	0.015142
26.138	0.014818
26.156	0.014498
26.174	0.014183
26.192	0.013874
26.21	0.013570
26.228	0.013272
26.246	0.012981
26.264	0.012695
26.282	0.012415
26.3	0.012145
26.318	0.011890
26.336	0.011650
26.354	0.011424
26.372	0.011211
26.39	0.011010
26.408	0.010823
26.426	0.010649
26.444	0.010487
26.462	0.010339
26.48	0.010204
26.498	0.010081
26.516	0.009970
26.534	0.009870
26.552	0.009784
26.57	0.009708
26.588	0.009638
26.606	0.009569
26.624	0.009507
26.642	0.009449
26.66	0.009391
26.678	0.009332
26.696	0.009272
26.714	0.009213
26.732	0.009152
26.75	0.009090
26.768	0.009030
26.786	0.008967
26.804	0.008894
26.822	0.008809
26.84	0.008715
26.858	0.008612
26.876	0.008501
26.894	0.008380
26.912	0.008249
26.93	0.008110
26.948	0.007966
26.966	0.007809
26.984	0.007626
27.002	0.007448
27.02	0.007308
27.028	0.007271