File: Bakgrunnsmateriale/MATLAB/FTIR/ftir_data/LPE453/Mapping_121/LPE453_t113_cm-1.asc
PE IR       SPECTRUM    SPECTRUM    ASCII       PEDS        1.60
  -1
LP06FC~1.ASC
17/05/16
23:41:05.00
17/05/16
23:41:05.00
tln
$LPE453_t0113$<tbV0>[7.8,13.0,8.0,0.0,27,1,0]
370
64

2002,4.07
MIRTGS : RIGHTBACK : INTERNAL 2
MIR : ON : INTERNAL 2
OPTKBR

0.200000
8
8.000000
FILLER
RATIO
SPECTRUM
UNLOCKED 256

DOUBLE
64
COMBINED
1
0
0

1.000000
RATIO

1
0
TRUE
51149
0
LEFT NOT FITTED RIGHT NOT FITTED 0
NONE
NONE
15600
12
4.427000
51148
TRUE
1 0 8 72 0 0 0 0

15798

#HDR
-1
-1
#GR
CM-1
%T
2.38419e-05
0.0
5000
-1.000000
4631
8
52.3118
-2.651524
#DATA
5000	0.052547
4996	-0.051116
4992	0.002241
4988	0.174689
4984	0.198674
4980	0.071239
4976	0.055932
4972	0.050020
4968	0.202012
4964	0.576257
4960	0.585412
4956	0.338006
4952	0.184679
4948	-0.097560
4944	-0.245833
4940	-0.125837
4936	-0.102472
4932	-0.224518
4928	-0.277757
4924	-0.328350
4920	-0.345396
4916	-0.077843
4912	0.387859
4908	0.712203
4904	0.543642
4900	0.158524
4896	0.035500
4892	0.161361
4888	0.301432
4884	0.282168
4880	0.218844
4876	0.192546
4872	0.257658
4868	0.236225
4864	0.172996
4860	0.299429
4856	0.260353
4852	0.029039
4848	-0.016188
4844	0.096368
4840	0.128579
4836	0.115346
4832	0.096487
4828	0.029134
4824	0.080227
4820	0.104379
4816	0.043869
4812	0.157070
4808	0.340795
4804	0.372743
4800	0.287437
4796	0.114774
4792	-0.169157
4788	-0.232791
4784	0.037598
4780	0.327754
4776	0.460004
4772	0.352382
4768	0.252342
4764	0.277709
4760	0.147390
4756	-0.072622
4752	-0.055766
4748	0.284337
4744	0.541377
4740	0.128364
4736	-0.517797
4732	-0.506544
4728	-0.063085
4724	0.257539
4720	0.406742
4716	0.321030
4712	0.141954
4708	-0.288987
4704	-0.809574
4700	-0.906443
4696	-0.824427
4692	-0.617051
4688	-0.077128
4684	0.522708
4680	1.000332
4676	0.856184
4672	0.286221
4668	0.150179
4664	0.182294
4660	0.690817
4656	1.728057
4652	2.067661
4648	1.331353
4644	0.242424
4640	-0.123476
4636	0.373721
4632	0.724577
4628	0.464582
4624	0.345301
4620	0.535202
4616	0.576925
4612	0.857090
4608	0.993585
4604	0.785946
4600	1.020169
4596	1.249980
4592	1.043319
4588	1.267766
4584	1.791071
4580	1.472330
4576	0.834679
4572	0.824069
4568	0.964307
4564	0.895094
4560	0.589132
4556	0.293874
4552	-0.004482
4548	-0.489974
4544	-0.670385
4540	-0.672817
4536	-0.687718
4532	-0.375962
4528	0.352644
4524	0.379896
4520	-0.686264
4516	-1.463389
4512	-1.629209
4508	-2.431654
4504	-1.992630
4500	1.733231
4496	3.965353
4492	6.807923
4488	13.1457
4484	15.2171
4480	8.683395
4476	1.537942
4472	-0.286030
4468	-0.709390
4464	-0.909376
4460	-0.574254
4456	-0.473093
4452	-0.383186
4448	-0.175905
4444	-0.270366
4440	-0.160503
4436	-0.181269
4432	-0.398612
4428	-0.417685
4424	-0.347661
4420	-0.171875
4416	0.212955
4412	0.209832
4408	0.034356
4404	0.057053
4400	0.194668
4396	0.608730
4392	0.932216
4388	0.979709
4384	0.849437
4380	0.476670
4376	0.135064
4372	0.144481
4368	0.399947
4364	0.685763
4360	0.722718
4356	0.591802
4352	0.521469
4348	0.506329
4344	0.574159
4340	0.599312
4336	0.533199
4332	0.669717
4328	0.837039
4324	0.661325
4320	0.221848
4316	-0.088930
4312	0.044655
4308	0.377750
4304	0.598239
4300	0.591754
4296	0.500440
4292	0.453138
4288	0.311732
4284	0.197124
4280	0.260496
4276	0.400471
4272	0.472545
4268	0.437974
4264	0.220417
4260	-0.053167
4256	-0.062298
4252	0.002288
4248	0.070786
4244	0.219249
4240	0.205588
4236	0.134849
4232	0.112318
4228	0.002288
4224	-0.092530
4220	-0.086092
4216	-0.099611
4212	-0.060272
4208	0.001549
4204	0.037097
4200	0.258612
4196	0.486493
4192	0.528764
4188	0.580596
4184	0.601124
4180	0.453424
4176	0.268816
4172	0.181961
4168	0.090408
4164	0.020003
4160	0.098657
4156	0.213766
4152	0.238633
4148	0.223708
4144	0.231623
4140	0.145220
4136	-0.002694
4132	0.053119
4128	0.220155
4124	0.216269
4120	0.105237
4116	0.065684
4112	0.058841
4108	0.029850
4104	0.063824
4100	0.193142
4096	0.303339
4092	0.253367
4088	0.140810
4084	0.181412
4080	0.270533
4076	0.223469
4072	0.154495
4068	0.173926
4064	0.174450
4060	0.084257
4056	0.011825
4052	0.000190
4048	0.001931
4044	0.087523
4040	0.213289
4036	0.174379
4032	0.093793
4028	0.149726
4024	0.150918
4020	0.069665
4016	0.095009
4012	0.152683
4008	0.139427
4004	0.101208
4000	0.001263
3996	-0.001025
3992	0.077486
3988	0.013566
3984	0.009655
3980	0.082993
3976	0.045657
3972	0.096535
3968	0.232934
3964	0.297784
3960	0.317049
3956	0.222396
3952	0.056266
3948	0.018000
3944	0.071525
3940	0.063705
3936	0.045251
3932	0.120925
3928	0.196743
3924	0.151062
3920	0.135946
3916	0.237011
3912	0.303983
3908	0.325131
3904	0.310039
3900	0.210309
3896	0.112438
3892	0.077533
3888	0.083398
3884	0.094628
3880	0.066161
3876	-0.010728
3872	-0.090456
3868	-0.116968
3864	-0.111579
3860	-0.068402
3856	0.106859
3852	0.287604
3848	0.324892
3844	0.258946
3840	0.146055
3836	-0.008082
3832	-0.122976
3828	-0.084233
3824	0.006723
3820	0.076699
3816	0.127148
3812	0.135612
3808	0.185036
3804	0.218701
3800	0.154304
3796	0.125169
3792	0.097846
3788	0.003528
3784	-0.055837
3780	-0.001430
3776	0.139880
3772	0.199985
3768	0.093173
3764	-0.015830
3760	0.065112
3756	0.163912
3752	0.085926
3748	0.045108
3744	0.109839
3740	0.167798
3736	0.218152
3732	0.180912
3728	0.136208
3724	0.180053
3720	0.184273
3716	0.141954
3712	0.125718
3708	0.122857
3704	0.091242
3700	0.014615
3696	-0.040388
3692	0.017547
3688	0.104904
3684	0.095868
3680	0.101470
3676	0.171589
3672	0.177860
3668	0.134181
3664	0.149703
3660	0.232458
3656	0.282812
3652	0.196456
3648	0.055336
3644	0.018405
3640	0.065112
3636	0.087976
3632	0.103116
3628	0.123167
3624	0.068736
3620	-0.016856
3616	0.003266
3612	0.107598
3608	0.185680
3604	0.173377
3600	0.118541
3596	0.092124
3592	0.037264
3588	-0.010728
3584	0.001549
3580	0.018811
3576	0.010967
3572	-0.006365
3568	0.005793
3564	0.083875
3560	0.153613
3556	0.151467
3552	0.125861
3548	0.106334
3544	0.085783
3540	0.047087
3536	0.034618
3532	0.068378
3528	0.140261
3524	0.192904
3520	0.157928
3516	0.079727
3512	-0.002503
3508	-0.108671
3504	-0.170445
3500	-0.116014
3496	-0.032377
3492	-0.004529
3488	-0.055313
3484	-0.096750
3480	-0.015020
3476	0.086522
3472	0.019907
3468	-0.080561
3464	-0.089836
3460	-0.058841
3456	-0.001358
3452	-0.008606
3448	-0.040864
3444	-0.039219
3440	-0.027418
3436	0.024223
3432	0.066637
3428	-0.000238
3424	-0.061631
3420	-0.017976
3416	0.041961
3412	0.072550
3408	0.045704
3404	0.028133
3400	0.057911
3396	0.094509
3392	0.195074
3388	0.287795
3384	0.275516
3380	0.219011
3376	0.214385
3372	0.184583
3368	0.068306
3364	-0.010895
3360	-0.050687
3356	-0.083017
3352	-0.095486
3348	-0.101351
3344	-0.095009
3340	-0.054574
3336	0.021171
3332	0.085210
3328	0.111460
3324	0.110340
3320	0.068688
3316	-0.006961
3312	-0.040245
3308	-0.021004
3304	-0.027298
3300	-0.091600
3296	-0.100231
3292	-0.053668
3288	-0.066256
3284	-0.083160
3280	-0.036931
3276	0.028777
3272	0.037312
3268	0.031971
3264	0.062346
3260	0.058174
3256	0.045704
3252	0.096440
3248	0.108480
3244	0.039577
3240	-0.002670
3236	-0.001955
3232	0.029730
3228	0.054550
3224	0.047016
3220	0.022840
3216	-0.027918
3212	-0.056314
3208	-0.035715
3204	0.006794
3200	0.027751
3196	0.065279
3192	0.143051
3188	0.159716
3184	0.117230
3180	0.039768
3176	-0.022387
3172	0.016450
3168	0.101375
3164	0.155234
3160	0.160193
3156	0.080418
3152	-0.008487
3148	-0.009965
3144	-0.040030
3140	-0.113272
3136	-0.121021
3132	-0.087261
3128	-0.030159
3124	0.038480
3120	0.047683
3116	0.010538
3112	0.003623
3108	0.029730
3104	0.030136
3100	0.009202
3096	-0.022482
3092	-0.039386
3088	-0.006127
3084	0.000882
3080	-0.013065
3076	0.027251
3072	0.088429
3068	0.106191
3064	0.092434
3060	0.076961
3056	0.042533
3052	0.014472
3048	0.009751
3044	0.017046
3040	0.024962
3036	-0.059342
3032	-0.112009
3028	0.023841
3024	0.114583
3020	0.115084
3016	0.154423
3012	0.160312
3008	0.099897
3004	0.024151
3000	0.038170
2996	0.092530
2992	0.081992
2988	0.057983
2984	0.030827
2980	0.003170
2976	-0.003647
2972	-0.012326
2968	-0.018858
2964	0.033068
2960	0.103831
2956	0.117659
2952	0.143742
2948	0.175285
2944	0.157070
2940	0.162220
2936	0.123000
2932	-0.023293
2928	-0.119948
2924	-0.083255
2920	-0.019741
2916	-0.021719
2912	-0.055074
2908	-0.059437
2904	-0.029134
2900	-0.012564
2896	-0.028300
2892	-0.047159
2888	-0.032782
2884	0.008153
2880	0.062084
2876	0.106477
2872	0.092458
2868	0.099134
2864	0.115013
2860	0.018072
2856	-0.062060
2852	-0.058364
2848	-0.077152
2844	-0.018167
2840	0.057220
2836	0.040078
2832	0.016760
2828	0.020909
2824	0.050520
2820	0.061655
2816	-0.006937
2812	-0.101876
2808	-0.113010
2804	-0.016951
2800	0.061178
2796	0.043964
2792	0.021028
2788	0.044488
2784	0.042676
2780	0.015163
2776	0.024414
2772	0.030255
2768	-0.012850
2764	-0.059890
2760	-0.062394
2756	-0.022888
2752	0.034904
2748	0.101065
2744	0.131702
2740	0.110864
2736	0.060749
2732	0.037932
2728	0.040364
2724	-0.023484
2720	-0.097703
2716	-0.087761
2712	-0.063109
2708	-0.004816
2704	0.068616
2700	0.083231
2696	0.036382
2692	-0.018668
2688	-0.024604
2684	0.005602
2680	0.008249
2676	-0.005149
2672	0.002264
2668	0.015211
2664	0.014138
2660	-0.016760
2656	-0.037550
2652	0.016140
2648	0.077033
2644	0.074601
2640	0.064539
2636	0.090074
2632	0.094318
2628	0.048327
2624	0.029635
2620	0.017166
2616	-0.013995
2612	0.019836
2608	0.058054
2604	0.036358
2600	0.018668
2596	0.005722
2592	-0.012516
2588	-0.023221
2584	-0.067973
2580	-0.116944
2576	-0.067615
2572	0.032401
2568	0.058698
2564	0.018310
2560	-0.030159
2556	-0.042128
2552	-0.029540
2548	-0.027489
2544	-0.019288
2540	0.002217
2536	0.034642
2532	0.102114
2528	0.164389
2524	0.194883
2520	0.164842
2516	0.035691
2512	-0.056958
2508	-0.063538
2504	-0.053215
2500	-0.010633
2496	0.024032
2492	0.000476
2488	-0.027155
2484	-0.016403
2480	0.004696
2476	0.028300
2472	0.085020
2468	0.083661
2464	0.000190
2460	-0.014328
2456	0.019717
2452	0.014209
2448	0.009393
2444	0.058126
2440	0.092506
2436	0.026965
2432	-0.011277
2428	0.079321
2424	0.161910
2420	0.123357
2416	0.048065
2412	0.036001
2408	0.047516
2404	0.081634
2400	0.134944
2396	0.117015
2392	0.082802
2388	0.130319
2384	0.207424
2380	0.255966
2376	0.261449
2372	0.224161
2368	0.198936
2364	0.209236
2360	0.233602
2356	0.250720
2352	0.248432
2348	0.273633
2344	0.345563
2340	0.431871
2336	0.493669
2332	0.488281
2328	0.430727
2324	0.401592
2320	0.453209
2316	0.563430
2312	0.670981
2308	0.725340
2304	0.735998
2300	0.747990
2296	0.786638
2292	0.872969
2288	0.991940
2284	1.111245
2280	1.281499
2276	1.482224
2272	1.567673
2268	1.597714
2264	1.717686
2260	1.845598
2256	1.941251
2252	2.098321
2248	2.313804
2244	2.524971
2240	2.692842
2236	2.832889
2232	3.025794
2228	3.289175
2224	3.550314
2220	3.755521
2216	3.966522
2212	4.240727
2208	4.535651
2204	4.848527
2200	5.186748
2196	5.498790
2192	5.749535
2188	6.003880
2184	6.336212
2180	6.706047
2176	7.103109
2172	7.540774
2168	7.951068
2164	8.297801
2160	8.636116
2156	9.069943
2152	9.579062
2148	10.0338
2144	10.4102
2140	10.7561
2136	11.107
2132	11.49
2128	11.9335
2124	12.4052
2120	12.8403
2116	13.2778
2112	13.7428
2108	14.2215
2104	14.6853
2100	15.0943
2096	15.4731
2092	15.8518
2088	16.226
2084	16.6239
2080	17.1009
2076	17.6052
2072	18.0368
2068	18.4314
2064	18.7783
2060	19.0623
2056	19.3888
2052	19.7825
2048	20.2109
2044	20.5935
2040	20.9199
2036	21.2625
2032	21.5992
2028	21.8812
2024	22.158
2020	22.4925
2016	22.8347
2012	23.1499
2008	23.44
2004	23.7162
2000	23.9944
1996	24.2506
1992	24.4818
1988	24.7098
1984	24.931
1980	25.131
1976	25.3358
1972	25.5601
1968	25.7721
1964	25.9703
1960	26.1595
1956	26.3504
1952	26.5944
1948	26.8063
1944	26.9235
1940	27.0796
1936	27.2976
1932	27.5265
1928	27.742
1924	27.8739
1920	27.9489
1916	28.0659
1912	28.2341
1908	28.3984
1904	28.537
1900	28.6641
1896	28.7783
1892	28.8724
1888	28.9725
1884	29.0937
1880	29.2019
1876	29.316
1872	29.4999
1868	29.6694
1864	29.7347
1860	29.7938
1856	29.9214
1852	30.0499
1848	30.119
1844	30.1334
1840	30.1394
1836	30.2112
1832	30.3353
1828	30.4179
1824	30.4531
1820	30.5059
1816	30.6034
1812	30.7107
1808	30.7606
1804	30.7846
1800	30.8602
1796	30.9483
1792	30.9973
1788	31.0171
1784	31.0217
1780	31.0263
1776	31.0582
1772	31.1388
1768	31.1978
1764	31.2136
1760	31.2633
1756	31.3383
1752	31.4077
1748	31.4651
1744	31.5168
1740	31.5693
1736	31.6294
1732	31.6925
1728	31.7203
1724	31.6977
1720	31.6735
1716	31.717
1712	31.8042
1708	31.8721
1704	31.9161
1700	31.9275
1696	31.9175
1692	31.9394
1688	31.9637
1684	31.9804
1680	31.9998
1676	32.0238
1672	32.0828
1668	32.1217
1664	32.1254
1660	32.1177
1656	32.1297
1652	32.2009
1648	32.2528
1644	32.2474
1640	32.2628
1636	32.3207
1632	32.4123
1628	32.4939
1624	32.5011
1620	32.501
1616	32.5403
1612	32.5447
1608	32.5491
1604	32.5992
1600	32.6403
1596	32.6588
1592	32.6526
1588	32.6577
1584	32.6936
1580	32.6909
1576	32.6646
1572	32.6334
1568	32.5857
1564	32.57
1560	32.6054
1556	32.6844
1552	32.7561
1548	32.7721
1544	32.7647
1540	32.7753
1536	32.8773
1532	33.0111
1528	33.0139
1524	32.9144
1520	32.8478
1516	32.8657
1512	32.906
1508	32.9112
1504	32.8953
1500	32.8408
1496	32.7553
1492	32.7572
1488	32.8614
1484	32.955
1480	32.9876
1476	32.9686
1472	32.9421
1468	32.9774
1464	33.0219
1460	33.0002
1456	32.9733
1452	32.9768
1448	33.0131
1444	33.0388
1440	33.0149
1436	32.9936
1432	33.0582
1428	33.1735
1424	33.231
1420	33.2487
1416	33.2882
1412	33.3404
1408	33.3563
1404	33.3113
1400	33.2215
1396	33.1624
1392	33.1534
1388	33.1548
1384	33.1674
1380	33.1894
1376	33.2257
1372	33.2694
1368	33.2855
1364	33.2474
1360	33.206
1356	33.2705
1352	33.4067
1348	33.4776
1344	33.4458
1340	33.3524
1336	33.3027
1332	33.3361
1328	33.3695
1324	33.341
1320	33.2717
1316	33.1808
1312	33.1073
1308	33.1385
1304	33.2311
1300	33.3063
1296	33.3342
1292	33.3198
1288	33.3272
1284	33.3551
1280	33.3859
1276	33.405
1272	33.3309
1268	33.2174
1264	33.2048
1260	33.273
1256	33.3113
1252	33.2593
1248	33.2068
1244	33.2349
1240	33.2989
1236	33.4064
1232	33.4972
1228	33.4928
1224	33.4615
1220	33.3937
1216	33.3049
1212	33.2945
1208	33.3253
1204	33.307
1200	33.2308
1196	33.1455
1192	33.12
1188	33.166
1184	33.1974
1180	33.1789
1176	33.1949
1172	33.2697
1168	33.3082
1164	33.2875
1160	33.2937
1156	33.3607
1152	33.4103
1148	33.4119
1144	33.4259
1140	33.4402
1136	33.3948
1132	33.3336
1128	33.3714
1124	33.4556
1120	33.4426
1116	33.3565
1112	33.3449
1108	33.4265
1104	33.4004
1100	33.2603
1096	33.2309
1092	33.3144
1088	33.4238
1084	33.4983
1080	33.3423
1076	33.0446
1072	32.9377
1068	32.9873
1064	33.032
1060	33.1063
1056	33.2298
1052	33.2686
1048	33.2001
1044	33.1409
1040	33.1142
1036	33.1424
1032	33.1414
1028	33.1017
1024	33.1813
1020	33.3055
1016	33.2985
1012	33.1949
1008	33.0952
1004	32.9915
1000	32.8918
996	 32.8531
992	 32.8719
988	 32.879
984	 32.8393
980	 32.8567
976	 32.9249
972	 32.9713
968	 33.0001
964	 32.9828
960	 32.9704
956	 32.9407
952	 32.9195
948	 32.9437
944	 32.8967
940	 32.8668
936	 32.9266
932	 32.8882
928	 32.7081
924	 32.58
920	 32.4738
916	 32.3617
912	 32.4054
908	 32.5084
904	 32.5256
900	 32.5304
896	 32.5924
892	 32.6136
888	 32.5304
884	 32.4686
880	 32.4989
876	 32.468
872	 32.2885
868	 32.1188
864	 32.0734
860	 32.1614
856	 32.2911
852	 32.3483
848	 32.3694
844	 32.3168
840	 32.1951
836	 32.1593
832	 32.1463
828	 32.0483
824	 31.9674
820	 31.9821
816	 32.0107
812	 31.9719
808	 31.8235
804	 31.6792
800	 31.6535
796	 31.655
792	 31.5982
788	 31.5827
784	 31.7122
780	 31.7249
776	 31.4618
772	 31.2743
768	 31.3707
764	 31.4416
760	 31.3539
756	 31.3328
752	 31.3284
748	 31.2823
744	 31.2103
740	 31.1181
736	 31.0726
732	 30.9446
728	 30.7318
724	 30.6664
720	 30.7486
716	 30.7175
712	 30.512
708	 30.4248
704	 30.5129
700	 30.5666
696	 30.5651
692	 30.5712
688	 30.5941
684	 30.5692
680	 30.4724
676	 30.3711
672	 30.3091
668	 30.2693
664	 30.2268
660	 30.2062
656	 30.1678
652	 29.994
648	 29.7689
644	 29.6329
640	 29.5517
636	 29.4962
632	 29.4868
628	 29.5842
624	 29.7385
620	 29.9086
616	 30.0962
612	 30.0525
608	 29.684
604	 29.2545
600	 28.9764
596	 28.8172
592	 28.6521
588	 28.6205
584	 28.6509
580	 28.3874
576	 28.0745
572	 28.1354
568	 28.3888
564	 28.421
560	 28.2803
556	 28.3291
552	 28.4946
548	 28.655
544	 28.7602
540	 28.5622
536	 28.2985
532	 28.2035
528	 28.0778
524	 27.8204
520	 27.5111
516	 27.2763
512	 27.2254
508	 27.4859
504	 27.7881
500	 27.8484
496	 27.8568
492	 27.7038
488	 27.1201
484	 26.4245
480	 26.3412
476	 26.842
472	 27.0587
468	 26.8428
464	 26.478
460	 26.0803
456	 25.9931
452	 26.264
448	 26.0445
444	 25.1689
440	 24.8965
436	 25.5139
432	 26.011
428	 25.2073
424	 23.8195
420	 24.2474
416	 25.7935
412	 26.0589
408	 26.1521
404	 29.4576
400	 34.4927
396	 33.4596
392	 25.3588
388	 18.6907
384	 17.4092
380	 20.2689
376	 37.3777
372	 52.3118
370	 49.3341