File: Bakgrunnsmateriale/MATLAB/FTIR/ftir_data/LPE453/Mapping_121/LPE453_e127_cm-1.asc
PE IR       SPECTRUM    SPECTRUM    ASCII       PEDS        1.60
  -1
LP0ABB~1.ASC
17/05/16
23:26:29.00
17/05/16
23:26:29.00
tln
$LPE453_e0127$<ebV0>[-23.3,12.1,10.0,0.0,27,1,0]
370
64

2002,4.07
MIRTGS : RIGHTBACK : INTERNAL 2
MIR : ON : INTERNAL 2
OPTKBR

0.200000
8
8.000000
FILLER
SINGLE
SPECTRUM
UNLOCKED 256

DOUBLE

COMBINED
1
0
0

1.000000
BACKG

1
0
TRUE
51149
0
LEFT NOT FITTED RIGHT NOT FITTED 0
NONE
NONE
15600
12
4.427000
51148
TRUE
1 0 8 72 0 0 0 0

15798

#HDR
-1
-1
#GR
CM-1
EGY
2.38419e-05
0.0
5000
-1.000000
4631
8
2.419400
0.007247
#DATA
5000	0.767540
4996	0.770258
4992	0.771665
4988	0.770282
4984	0.771903
4980	0.776171
4976	0.777721
4972	0.778985
4968	0.782585
4964	0.785231
4960	0.786280
4956	0.788712
4952	0.791168
4948	0.791788
4944	0.791931
4940	0.793075
4936	0.794553
4932	0.795197
4928	0.795674
4924	0.796627
4920	0.799250
4916	0.803446
4912	0.806307
4908	0.806903
4904	0.807118
4900	0.808429
4896	0.810313
4892	0.811791
4888	0.812602
4884	0.814032
4880	0.817394
4876	0.821375
4872	0.823116
4868	0.824260
4864	0.827312
4860	0.829815
4856	0.831437
4852	0.834536
4848	0.836563
4844	0.835967
4840	0.837588
4836	0.841951
4832	0.844693
4828	0.847339
4824	0.851655
4820	0.855016
4816	0.856685
4812	0.857782
4808	0.859737
4804	0.862741
4800	0.865674
4796	0.869083
4792	0.873112
4788	0.876331
4784	0.878095
4780	0.879454
4776	0.880885
4772	0.882506
4768	0.884151
4764	0.885272
4760	0.887155
4756	0.890874
4752	0.893878
4748	0.893259
4744	0.892114
4740	0.894427
4736	0.897192
4732	0.899219
4728	0.902676
4724	0.904726
4720	0.905179
4716	0.906801
4712	0.907611
4708	0.906801
4704	0.901889
4700	0.896477
4696	0.896883
4692	0.898361
4688	0.900316
4684	0.901293
4680	0.899410
4676	0.902175
4672	0.910043
4668	0.917506
4664	0.920176
4660	0.917625
4656	0.911474
4652	0.901937
4648	0.895643
4644	0.899791
4640	0.910687
4636	0.920081
4632	0.923657
4628	0.919365
4624	0.913047
4620	0.914883
4616	0.917458
4612	0.914430
4608	0.916647
4604	0.925064
4600	0.932908
4596	0.936746
4592	0.937032
4588	0.938606
4584	0.944423
4580	0.949931
4576	0.951671
4572	0.952863
4568	0.952434
4564	0.951361
4560	0.952315
4556	0.954961
4552	0.960850
4548	0.965428
4544	0.966000
4540	0.967407
4536	0.969505
4532	0.969052
4528	0.967550
4524	0.967168
4520	0.968480
4516	0.971364
4512	0.970244
4508	0.952696
4504	0.972795
4500	1.041507
4496	1.002669
4492	0.991249
4488	1.138186
4484	1.153922
4480	1.040625
4476	0.995492
4472	0.994038
4468	0.995206
4464	0.996470
4460	0.997042
4456	0.998234
4452	1.003456
4448	1.005053
4444	1.000022
4440	0.997924
4436	1.000142
4432	1.002979
4428	1.005434
4424	1.006698
4420	1.007795
4416	1.009249
4412	1.009202
4408	1.008915
4404	1.010751
4400	1.013064
4396	1.015019
4392	1.018810
4388	1.023674
4384	1.027178
4380	1.029229
4376	1.030898
4372	1.034188
4368	1.036620
4364	1.037955
4360	1.041293
4356	1.044654
4352	1.047444
4348	1.049518
4344	1.049733
4340	1.052141
4336	1.058864
4332	1.066374
4328	1.072669
4324	1.078724
4320	1.084852
4316	1.090502
4312	1.095795
4308	1.099395
4304	1.102232
4300	1.106715
4296	1.112604
4292	1.118731
4288	1.123404
4284	1.126933
4280	1.131367
4276	1.135826
4272	1.139950
4268	1.143956
4264	1.147484
4260	1.151227
4256	1.154947
4252	1.158165
4248	1.161098
4244	1.165032
4240	1.168417
4236	1.170134
4232	1.173472
4228	1.177024
4224	1.179575
4220	1.183128
4216	1.186203
4212	1.187562
4208	1.188063
4204	1.189279
4200	1.192164
4196	1.194596
4192	1.196122
4188	1.199221
4184	1.203513
4180	1.205801
4176	1.205706
4172	1.206851
4168	1.210498
4164	1.213741
4160	1.215958
4156	1.217818
4152	1.218724
4148	1.219725
4144	1.221370
4140	1.223254
4136	1.225852
4132	1.228570
4128	1.232528
4124	1.237130
4120	1.240515
4116	1.243948
4112	1.247525
4108	1.249408
4104	1.252102
4100	1.258015
4096	1.263856
4092	1.268172
4088	1.273107
4084	1.277613
4080	1.280736
4076	1.285696
4072	1.292514
4068	1.298332
4064	1.303744
4060	1.309990
4056	1.316022
4052	1.320886
4048	1.326251
4044	1.332807
4040	1.338005
4036	1.342058
4032	1.346921
4028	1.351737
4024	1.356339
4020	1.361775
4016	1.366567
4012	1.369524
4008	1.371884
4004	1.374769
4000	1.376724
3996	1.378703
3992	1.383066
3988	1.387357
3984	1.390695
3980	1.393842
3976	1.396369
3972	1.398038
3968	1.399183
3964	1.400971
3960	1.403641
3956	1.405811
3952	1.407527
3948	1.409769
3944	1.411199
3940	1.411819
3936	1.412820
3932	1.414442
3928	1.416182
3924	1.417374
3920	1.418352
3916	1.419973
3912	1.422166
3908	1.422286
3904	1.420116
3900	1.421070
3896	1.426076
3892	1.428508
3888	1.428341
3884	1.430892
3880	1.435065
3876	1.437258
3872	1.438117
3868	1.440215
3864	1.444029
3860	1.443982
3856	1.438450
3852	1.441788
3848	1.454257
3844	1.459145
3840	1.458382
3836	1.463246
3832	1.472806
3828	1.479768
3824	1.481461
3820	1.481318
3816	1.486372
3812	1.495575
3808	1.499819
3804	1.500487
3800	1.505637
3796	1.514554
3792	1.521635
3788	1.525831
3784	1.529288
3780	1.532459
3776	1.534438
3772	1.535964
3768	1.539635
3764	1.543641
3760	1.544690
3756	1.541924
3752	1.535964
3748	1.532649
3744	1.537251
3740	1.544570
3736	1.547479
3732	1.551103
3728	1.556682
3724	1.559591
3720	1.562023
3716	1.562786
3712	1.561594
3708	1.563453
3704	1.566147
3700	1.567292
3696	1.566529
3692	1.562118
3688	1.559829
3684	1.562380
3680	1.561307
3676	1.555228
3672	1.553559
3668	1.559925
3664	1.566791
3660	1.567173
3656	1.563739
3652	1.559758
3648	1.559495
3644	1.565718
3640	1.571702
3636	1.570892
3632	1.565194
3628	1.564264
3624	1.569342
3620	1.571559
3616	1.571154
3612	1.571917
3608	1.574945
3604	1.579046
3600	1.581120
3596	1.581692
3592	1.581358
3588	1.581525
3584	1.584815
3580	1.589488
3576	1.593422
3572	1.594781
3568	1.594734
3564	1.597166
3560	1.600861
3556	1.603531
3552	1.605248
3548	1.606583
3544	1.608133
3540	1.608657
3536	1.607966
3532	1.607799
3528	1.608943
3524	1.611614
3520	1.613831
3516	1.613521
3512	1.612067
3508	1.610684
3504	1.608777
3500	1.607871
3496	1.607823
3492	1.606202
3488	1.603841
3484	1.601958
3480	1.599550
3476	1.596832
3472	1.595687
3468	1.595449
3464	1.594448
3460	1.592707
3456	1.589083
3452	1.583504
3448	1.579022
3444	1.577091
3440	1.575946
3436	1.574301
3432	1.572847
3428	1.571202
3424	1.569819
3420	1.571059
3416	1.575064
3412	1.578640
3408	1.580238
3404	1.581478
3400	1.583266
3396	1.585102
3392	1.587319
3388	1.590442
3384	1.593160
3380	1.594400
3376	1.596355
3372	1.601028
3368	1.607131
3364	1.613163
3360	1.618838
3356	1.623988
3352	1.628732
3348	1.633906
3344	1.639842
3340	1.645851
3336	1.652026
3332	1.658844
3328	1.665329
3324	1.671361
3320	1.676750
3316	1.681542
3312	1.686811
3308	1.693224
3304	1.700019
3300	1.705479
3296	1.709675
3292	1.713776
3288	1.718854
3284	1.724386
3280	1.728868
3276	1.732635
3272	1.735997
3268	1.739597
3264	1.743435
3260	1.747179
3256	1.750993
3252	1.754927
3248	1.758146
3244	1.760554
3240	1.762962
3236	1.765727
3232	1.768326
3228	1.769852
3224	1.770234
3220	1.770663
3216	1.770949
3212	1.770043
3208	1.770734
3204	1.773619
3200	1.774382
3196	1.773738
3192	1.773595
3188	1.773667
3184	1.774954
3180	1.777005
3176	1.778578
3172	1.780176
3168	1.782679
3164	1.784324
3160	1.785326
3156	1.788187
3152	1.792025
3148	1.795268
3144	1.799416
3140	1.803803
3136	1.806616
3132	1.809310
3128	1.814603
3124	1.820826
3120	1.825833
3116	1.830530
3112	1.835060
3108	1.840305
3104	1.847457
3100	1.854658
3096	1.861739
3092	1.870274
3088	1.879024
3084	1.887392
3080	1.896166
3076	1.903939
3072	1.908063
3068	1.910543
3064	1.915192
3060	1.921796
3056	1.929402
3052	1.937270
3048	1.942777
3044	1.945900
3040	1.950526
3036	1.955866
3032	1.956653
3028	1.951456
3024	1.942539
3020	1.936101
3016	1.940679
3012	1.957535
3008	1.978087
3004	1.993489
3000	2.002310
2996	2.006816
2992	2.008247
2988	2.006959
2984	2.003145
2980	1.995158
2976	1.981449
2972	1.961946
2968	1.937580
2964	1.916551
2960	1.906919
2956	1.905083
2952	1.901936
2948	1.890563
2944	1.866984
2940	1.833057
2936	1.798057
2932	1.768708
2928	1.749014
2924	1.751947
2920	1.785254
2916	1.834058
2912	1.877117
2908	1.907038
2904	1.927804
2900	1.942610
2896	1.953601
2892	1.964640
2888	1.976561
2884	1.985764
2880	1.988148
2876	1.981878
2872	1.964068
2868	1.931667
2864	1.896286
2860	1.883935
2856	1.904320
2852	1.943445
2848	1.985716
2844	2.022171
2840	2.048373
2836	2.066731
2832	2.081489
2828	2.094483
2824	2.106499
2820	2.117109
2816	2.126622
2812	2.135252
2808	2.142238
2804	2.148962
2800	2.156782
2796	2.164077
2792	2.170014
2788	2.176451
2784	2.184939
2780	2.193999
2776	2.201533
2772	2.207374
2768	2.212452
2764	2.217364
2760	2.222275
2756	2.226233
2752	2.228355
2748	2.229642
2744	2.231144
2740	2.233171
2736	2.234864
2732	2.235746
2728	2.236104
2724	2.236032
2720	2.234649
2716	2.231812
2712	2.229309
2708	2.227520
2704	2.225708
2700	2.224898
2696	2.224469
2692	2.222728
2688	2.220177
2684	2.218580
2680	2.217721
2676	2.215409
2672	2.211475
2668	2.207803
2664	2.205777
2660	2.204012
2656	2.200651
2652	2.198219
2648	2.198338
2644	2.198457
2640	2.198314
2636	2.198410
2632	2.197790
2628	2.197504
2624	2.198052
2620	2.199077
2616	2.200579
2612	2.201795
2608	2.203011
2604	2.204036
2600	2.204680
2596	2.205586
2592	2.206945
2588	2.210187
2584	2.215456
2580	2.220821
2576	2.226591
2572	2.233815
2568	2.240538
2564	2.244377
2560	2.247738
2556	2.253675
2552	2.260065
2548	2.264857
2544	2.268815
2540	2.273035
2536	2.277278
2532	2.280998
2528	2.285146
2524	2.289462
2520	2.291846
2516	2.292895
2512	2.294826
2508	2.296733
2504	2.298378
2500	2.300715
2496	2.302598
2492	2.301979
2488	2.300596
2484	2.300906
2480	2.300715
2476	2.298045
2472	2.294445
2468	2.291011
2464	2.288150
2460	2.285218
2456	2.281570
2452	2.277684
2448	2.273559
2444	2.269625
2440	2.266550
2436	2.262306
2432	2.256655
2428	2.252864
2424	2.251625
2420	2.248787
2416	2.242732
2412	2.237558
2408	2.235436
2404	2.234053
2400	2.230930
2396	2.227616
2392	2.226519
2388	2.226042
2384	2.224612
2380	2.222037
2376	2.218508
2372	2.214646
2368	2.211260
2364	2.210497
2360	2.213811
2356	2.221345
2352	2.230882
2348	2.237629
2344	2.239775
2340	2.241587
2336	2.246284
2332	2.252840
2328	2.259182
2324	2.265572
2320	2.273035
2316	2.281689
2312	2.290797
2308	2.298736
2304	2.304553
2300	2.309751
2296	2.315402
2292	2.320671
2288	2.325105
2284	2.329683
2280	2.333807
2276	2.336978
2272	2.340149
2268	2.343773
2264	2.347183
2260	2.348804
2256	2.349328
2252	2.350544
2248	2.351331
2244	2.351260
2240	2.351164
2236	2.350282
2232	2.349281
2228	2.348375
2224	2.346396
2220	2.343726
2216	2.340364
2212	2.337265
2208	2.334785
2204	2.331686
2200	2.328372
2196	2.325701
2192	2.323722
2188	2.320671
2184	2.316045
2180	2.312159
2176	2.309417
2172	2.307558
2168	2.306818
2164	2.306294
2160	2.304911
2156	2.303385
2152	2.303123
2148	2.303361
2144	2.303528
2140	2.302360
2136	2.300310
2132	2.299642
2128	2.300429
2124	2.301383
2120	2.302765
2116	2.304983
2112	2.306938
2108	2.307176
2104	2.306604
2100	2.306389
2096	2.306127
2092	2.305793
2088	2.306294
2084	2.307367
2080	2.309417
2076	2.314686
2072	2.322196
2068	2.329921
2064	2.338075
2060	2.346324
2056	2.354311
2052	2.363443
2048	2.373218
2044	2.381515
2040	2.388167
2036	2.393531
2032	2.398228
2028	2.402830
2024	2.406787
2020	2.409768
2016	2.412772
2012	2.416181
2008	2.418184
2004	2.418208
2000	2.418565
1996	2.419328
1992	2.419185
1988	2.418470
1984	2.417087
1980	2.414703
1976	2.411174
1972	2.406740
1968	2.402997
1964	2.399778
1960	2.396345
1956	2.393913
1952	2.391982
1948	2.388238
1944	2.382946
1940	2.378582
1936	2.375602
1932	2.372670
1928	2.368068
1924	2.361774
1920	2.356791
1916	2.354073
1912	2.351117
1908	2.346587
1904	2.342343
1900	2.339148
1896	2.335953
1892	2.332949
1888	2.332997
1884	2.335882
1880	2.337718
1876	2.338290
1872	2.338576
1868	2.339887
1864	2.343821
1860	2.348923
1856	2.352738
1852	2.354311
1848	2.354788
1844	2.357935
1840	2.364325
1836	2.368569
1832	2.368950
1828	2.370262
1824	2.375197
1820	2.380728
1816	2.383756
1812	2.386164
1808	2.389788
1804	2.391839
1800	2.391099
1796	2.388906
1792	2.388048
1788	2.389836
1784	2.390861
1780	2.389359
1776	2.382612
1772	2.374935
1768	2.374434
1764	2.375388
1760	2.371549
1756	2.362227
1752	2.348685
1748	2.336478
1744	2.325224
1740	2.309322
1736	2.291727
1732	2.285885
1728	2.289867
1724	2.285504
1720	2.270722
1716	2.262568
1712	2.264022
1708	2.258157
1704	2.238988
1700	2.219605
1696	2.216672
1692	2.221846
1688	2.213597
1684	2.203416
1680	2.204680
1676	2.202153
1672	2.193379
1668	2.187323
1664	2.182531
1660	2.170538
1656	2.146267
1652	2.127981
1648	2.126312
1644	2.126979
1640	2.119159
1636	2.106308
1632	2.098464
1628	2.089405
1624	2.071070
1620	2.043509
1616	2.006626
1612	1.966953
1608	1.941394
1604	1.942825
1600	1.960206
1596	1.975297
1592	1.980710
1588	1.978182
1584	1.971149
1580	1.960420
1576	1.951694
1572	1.948738
1568	1.942443
1564	1.921463
1560	1.897644
1556	1.899838
1552	1.920151
1548	1.927471
1544	1.924967
1540	1.946115
1536	1.997923
1532	2.046704
1528	2.071261
1524	2.077054
1520	2.074265
1516	2.067899
1512	2.055335
1508	2.028393
1504	1.961278
1500	1.820898
1496	1.675295
1492	1.658535
1488	1.763319
1484	1.873707
1480	1.929974
1476	1.943302
1472	1.941561
1468	1.932835
1464	1.906466
1460	1.851582
1456	1.778697
1452	1.735353
1448	1.756477
1444	1.805448
1440	1.831221
1436	1.837372
1432	1.840996
1428	1.841330
1424	1.835870
1420	1.826095
1416	1.813936
1412	1.787877
1408	1.740598
1404	1.702380
1400	1.705479
1396	1.736068
1392	1.759791
1388	1.761245
1384	1.757907
1380	1.767635
1376	1.779270
1372	1.784658
1368	1.786518
1364	1.786422
1360	1.786947
1356	1.787042
1352	1.785612
1348	1.784300
1344	1.784729
1340	1.788258
1336	1.796483
1332	1.807475
1328	1.815700
1324	1.819634
1320	1.822400
1316	1.824760
1312	1.825523
1308	1.824951
1304	1.824927
1300	1.825332
1296	1.825404
1292	1.825404
1288	1.825022
1284	1.823496
1280	1.817965
1276	1.803660
1272	1.775503
1268	1.732921
1264	1.694941
1260	1.693463
1256	1.729536
1252	1.770210
1248	1.794552
1244	1.804494
1240	1.807141
1236	1.806044
1232	1.801729
1228	1.795244
1224	1.785445
1220	1.770853
1216	1.752400
1212	1.734209
1208	1.722788
1204	1.719808
1200	1.720643
1196	1.719975
1192	1.714801
1188	1.706409
1184	1.696515
1180	1.686072
1176	1.675081
1172	1.661729
1168	1.644349
1164	1.624798
1160	1.607346
1156	1.594924
1152	1.587629
1148	1.582098
1144	1.574492
1140	1.563239
1136	1.549458
1132	1.534628
1128	1.517128
1124	1.496386
1120	1.475501
1116	1.456093
1112	1.437497
1108	1.421451
1104	1.411700
1100	1.406931
1096	1.404142
1092	1.403498
1088	1.405286
1084	1.407432
1080	1.407814
1076	1.409506
1072	1.413726
1068	1.416897
1064	1.416230
1060	1.399898
1056	1.349449
1052	1.291489
1048	1.287961
1044	1.330685
1040	1.360750
1036	1.364350
1032	1.357316
1028	1.348114
1024	1.340317
1020	1.338601
1016	1.344752
1012	1.355481
1008	1.367139
1004	1.376008
1000	1.379179
996	 1.378345
992	 1.375317
988	 1.369619
984	 1.361966
980	 1.353764
976	 1.345205
972	 1.335310
968	 1.322841
964	 1.308941
960	 1.295256
956	 1.282048
952	 1.269006
948	 1.257181
944	 1.248192
940	 1.240301
936	 1.231336
932	 1.222562
928	 1.214838
924	 1.206612
920	 1.196789
916	 1.184129
912	 1.168775
908	 1.154446
904	 1.144504
900	 1.138377
896	 1.132869
892	 1.123452
888	 1.103901
884	 1.071023
880	 1.034402
876	 1.013708
872	 1.020765
868	 1.045584
864	 1.067352
860	 1.076960
856	 1.077604
852	 1.073312
848	 1.066637
844	 1.058149
840	 1.043605
836	 1.011633
832	 0.949811
828	 0.873017
824	 0.834369
820	 0.859284
816	 0.905656
812	 0.930571
808	 0.934219
804	 0.931668
800	 0.931477
796	 0.936388
792	 0.945115
788	 0.955033
784	 0.962328
780	 0.964546
776	 0.963521
772	 0.960779
768	 0.956916
764	 0.953698
760	 0.950932
756	 0.946354
752	 0.941133
748	 0.936245
744	 0.929737
740	 0.920677
736	 0.910615
732	 0.900435
728	 0.889253
724	 0.877499
720	 0.866270
716	 0.854921
712	 0.844025
708	 0.832581
704	 0.818514
700	 0.801372
696	 0.778770
692	 0.749421
688	 0.725650
684	 0.720310
680	 0.723934
676	 0.722432
672	 0.715160
668	 0.705885
664	 0.696897
660	 0.687789
656	 0.677537
652	 0.666713
648	 0.656247
644	 0.646519
640	 0.636577
636	 0.626039
632	 0.616431
628	 0.606727
624	 0.595188
620	 0.582337
616	 0.567150
612	 0.548148
608	 0.528645
604	 0.517606
600	 0.516152
596	 0.515365
592	 0.511217
588	 0.505661
584	 0.501155
580	 0.497961
576	 0.494289
572	 0.489521
568	 0.484418
564	 0.479602
560	 0.474214
556	 0.467848
552	 0.460529
548	 0.452351
544	 0.444555
540	 0.437355
536	 0.429797
532	 0.421404
528	 0.412106
524	 0.402331
520	 0.393462
516	 0.385403
512	 0.376152
508	 0.365495
504	 0.354385
500	 0.341558
496	 0.327801
492	 0.315189
488	 0.302147
484	 0.287556
480	 0.272822
476	 0.259542
472	 0.248527
468	 0.237679
464	 0.224733
460	 0.209760
456	 0.194263
452	 0.179672
448	 0.167870
444	 0.158619
440	 0.148963
436	 0.137472
432	 0.125074
428	 0.113272
424	 0.101375
420	 0.088357
416	 0.075721
412	 0.064039
408	 0.053906
404	 0.045895
400	 0.040245
396	 0.035715
392	 0.029659
388	 0.022339
384	 0.016546
380	 0.012373
376	 0.008797
372	 0.007247
370	 0.007390