File: Bakgrunnsmateriale/MATLAB/FTIR/ftir_data/LPE453/Mapping_121/LPE453_t104.asc
PE IR       SPECTRUM    SPECTRUM    ASCII       PEDS        1.60
  -1
LP9386~1.ASC
17/05/16
22:53:23.00
17/05/16
22:53:49.00
tln
$LPE453_t0104$<tbV0>[2.6,10.4,8.0,0.0,27,1,0]
27.028
64

2002,4.07
MIRTGS : RIGHTBACK : INTERNAL 2
MIR : ON : INTERNAL 2
OPTKBR

0.200000
8
8.000000
FILLER
RATIO
SPECTRUM
UNLOCKED 256

DOUBLE
64
COMBINED
1
0
0

0.002000
RATIO

1
0
TRUE
51149
0
LEFT NOT FITTED RIGHT NOT FITTED 0
NONE
NONE
15600
12
4.427000
51148
TRUE
1 0 8 72 0 0 0 0

15798

#HDR
-1
-1
#GR
µM
%T
2.38419e-05
0.0
2.000000
0.002000
12515
8
36.6557
-11.6789
#DATA
2.000000	 -0.154924
2.018000	 -0.198899
2.036000	 0.052287
2.054000	 0.584971
2.072000	 0.262749
2.090000	 0.251003
2.108000	 0.333791
2.126000	 0.566222
2.144000	 2.020587
2.162000	 0.595217
2.180000	 0.321376
2.198000	 -1.131445
2.216000	 -0.700929
2.234000	 -3.758419
2.252000	 -1.526204
2.270000	 0.286892
2.288000	 0.367657
2.306000	 0.326087
2.324000	 0.387981
2.342000	 -0.121065
2.360000	 0.424807
2.378000	 0.263755
2.396000	 0.817912
2.414000	 0.034559
2.432000	 0.086272
2.450000	 0.229743
2.468000	 -0.095926
2.486000	 -0.054974
2.504000	 0.118208
2.522000	 0.025022
2.540000	 0.136056
2.558000	 0.106348
2.576000	 0.068408
2.594000	 0.174951
2.612000	 -0.041819
2.630000	 0.130059
2.648000	 0.235351
2.666000	 0.191623
2.684000	 -0.100964
2.702000	 0.229987
2.720000	 0.064141
2.738000	 -0.114058
2.756000	 0.039960
2.774000	 -0.049563
2.792000	 0.072984
2.810000	 -0.069559
2.828000	 -0.046777
2.846000	 0.068658
2.864000	 0.002077
2.882000	 0.079446
2.900000	 0.090876
2.918000	 0.222540
2.936000	 0.070673
2.954000	 0.073373
2.972000	 -0.109940
2.990000	 0.167862
3.008000	 0.031369
3.026000	 0.067857
3.044000	 0.010059
3.062000	 0.053081
3.080000	 0.010416
3.098000	 0.040838
3.116000	 -0.003012
3.134000	 0.202071
3.152000	 0.083083
3.170000	 0.032775
3.188000	 0.041470
3.206000	 0.048561
3.224000	 0.098083
3.242000	 0.013368
3.260000	 0.060748
3.278000	 0.006708
3.296000	 -0.070914
3.314000	 0.041994
3.332000	 0.010648
3.350000	 0.004099
3.368000	 0.014684
3.386000	 0.023880
3.404000	 0.136133
3.422000	 0.136780
3.440000	 0.192121
3.458000	 -0.006068
3.476000	 0.050221
3.494000	 0.160578
3.512000	 -0.025442
3.530000	 0.028981
3.548000	 -0.044665
3.566000	 -0.018290
3.584000	 0.051480
3.602000	 0.141249
3.620000	 0.126664
3.638000	 0.052243
3.656000	 0.078728
3.674000	 -0.030192
3.692000	 0.078616
3.710000	 0.004060
3.728000	 0.020897
3.746000	 0.084942
3.764000	 0.023650
3.782000	 0.069490
3.800000	 0.005564
3.818000	 0.048865
3.836000	 0.051153
3.854000	 0.046736
3.872000	 -0.000648
3.890000	 -0.017398
3.908000	 0.018837
3.926000	 0.090532
3.944000	 -0.064623
3.962000	 -0.007940
3.980000	 -0.040117
3.998000	 0.052092
4.016000	 0.126135
4.034000	 -0.009100
4.052000	 -0.098364
4.070000	 -0.021168
4.088000	 0.099839
4.106000	 -0.042634
4.124000	 0.050498
4.141999	 0.075873
4.160000	 -0.013900
4.178000	 0.072520
4.196000	 0.155477
4.214000	 0.165159
4.232000	 0.293597
4.250000	 0.302703
4.268000	 0.298521
4.286000	 0.408606
4.304000	 0.517741
4.322000	 0.692090
4.340000	 0.795934
4.358000	 1.071999
4.375999	 1.221579
4.394000	 1.484129
4.412000	 1.759380
4.430000	 2.034986
4.448000	 2.458742
4.466000	 2.916645
4.484000	 3.531625
4.502000	 4.097103
4.520000	 4.649856
4.538000	 5.374099
4.556000	 6.117512
4.574000	 6.822919
4.592000	 7.735478
4.609999	 8.605989
4.628000	 9.621242
4.646000	 10.6609
4.664000	 11.6737
4.682000	 12.6581
4.700000	 13.6956
4.718000	 14.7104
4.736000	 15.7359
4.754000	 16.8404
4.772000	 17.8854
4.790000	 18.9144
4.808000	 19.7961
4.826000	 20.7133
4.843999	 21.6516
4.862000	 22.6278
4.880000	 23.3705
4.898000	 24.1758
4.916000	 25.0274
4.934000	 25.7489
4.952000	 26.4316
4.970000	 27.1379
4.988000	 27.8171
5.006000	 28.3716
5.024000	 28.8537
5.042000	 29.4803
5.060000	 29.9218
5.077999	 30.3626
5.096000	 30.706
5.114000	 31.1308
5.132000	 31.485
5.150000	 31.7319
5.168000	 32.1023
5.186000	 32.4468
5.204000	 32.86
5.222000	 33.0839
5.240000	 33.2565
5.258000	 33.4905
5.276000	 33.7165
5.294000	 33.8941
5.312000	 34.0791
5.330000	 34.2955
5.348000	 34.5417
5.366000	 34.6809
5.384000	 34.7546
5.402000	 34.8167
5.420000	 34.9824
5.438000	 35.0605
5.456000	 35.1862
5.474000	 35.3535
5.492000	 35.4826
5.510000	 35.6347
5.528000	 35.6837
5.546000	 35.7116
5.564000	 35.7695
5.582000	 35.7489
5.600000	 35.7
5.618000	 35.7455
5.636000	 35.9197
5.654000	 36.0256
5.672000	 36.0915
5.690000	 36.0867
5.708000	 36.1561
5.726000	 36.2462
5.744000	 36.2571
5.762000	 36.2384
5.780000	 36.2403
5.798000	 36.274
5.816000	 36.2702
5.834000	 36.2867
5.852000	 36.2873
5.870000	 36.3469
5.888000	 36.4793
5.906000	 36.5023
5.923999	 36.4957
5.942000	 36.4621
5.960000	 36.3736
5.978000	 36.3495
5.996000	 36.4109
6.014000	 36.4488
6.032000	 36.4352
6.050000	 36.4117
6.068000	 36.4002
6.086000	 36.3625
6.104000	 36.3838
6.122000	 36.4782
6.140000	 36.4977
6.158000	 36.5373
6.176000	 36.5437
6.194000	 36.4431
6.212000	 36.4207
6.230000	 36.4855
6.248000	 36.5387
6.266000	 36.5151
6.284000	 36.4933
6.302000	 36.5753
6.320000	 36.5172
6.338000	 36.3786
6.356000	 36.3932
6.374000	 36.4288
6.392000	 36.4464
6.410000	 36.4567
6.428000	 36.4434
6.446000	 36.4115
6.464000	 36.4454
6.482000	 36.53
6.500000	 36.5475
6.518000	 36.5
6.536000	 36.4455
6.554000	 36.4312
6.572000	 36.5147
6.590000	 36.6369
6.608000	 36.6314
6.626000	 36.5039
6.644000	 36.3883
6.662000	 36.3431
6.680000	 36.3672
6.698000	 36.4315
6.716000	 36.4494
6.734000	 36.4473
6.752000	 36.4724
6.770000	 36.4829
6.788000	 36.4604
6.806000	 36.4257
6.824000	 36.4229
6.842000	 36.4171
6.860000	 36.3726
6.878000	 36.3493
6.896000	 36.3382
6.914000	 36.3282
6.932000	 36.3217
6.950000	 36.3074
6.968000	 36.3323
6.986000	 36.3762
7.004000	 36.4017
7.022000	 36.4078
7.040000	 36.3471
7.058000	 36.2561
7.076000	 36.2601
7.094000	 36.3515
7.112000	 36.4261
7.130000	 36.4648
7.148000	 36.4906
7.166000	 36.4703
7.184000	 36.3831
7.202000	 36.286
7.220000	 36.2283
7.238000	 36.1822
7.256000	 36.1482
7.274000	 36.1928
7.292000	 36.2812
7.310000	 36.2977
7.328000	 36.2487
7.346000	 36.2253
7.364000	 36.2469
7.382000	 36.2848
7.400000	 36.3307
7.418000	 36.3758
7.436000	 36.3986
7.454000	 36.3933
7.472000	 36.3619
7.490000	 36.3109
7.508000	 36.2739
7.526000	 36.2799
7.544000	 36.3112
7.562000	 36.3305
7.580000	 36.3281
7.598000	 36.3139
7.616000	 36.292
7.634000	 36.2714
7.652000	 36.2721
7.670000	 36.2893
7.688000	 36.2956
7.706000	 36.2892
7.724000	 36.2837
7.742000	 36.2735
7.760000	 36.2561
7.778000	 36.2459
7.796000	 36.2414
7.814000	 36.2242
7.832000	 36.1934
7.850000	 36.1641
7.868000	 36.1408
7.886000	 36.1183
7.904000	 36.0963
7.922000	 36.0769
7.940000	 36.0523
7.958000	 36.0099
7.976000	 35.9559
7.994000	 35.9152
8.012000	 35.9011
8.030000	 35.9042
8.048000	 35.9179
8.065999	 35.9484
8.084000	 35.9964
8.102000	 36.0513
8.120000	 36.0999
8.138000	 36.1296
8.155999	 36.132
8.173999	 36.114
8.192000	 36.0969
8.210000	 36.0981
8.228000	 36.1169
8.246000	 36.132
8.263999	 36.1197
8.282000	 36.0806
8.300000	 36.0368
8.318000	 36.0026
8.336000	 35.9772
8.353999	 35.9627
8.372000	 35.9673
8.390000	 35.986
8.408000	 35.9934
8.426000	 35.9704
8.443999	 35.933
8.462000	 35.9218
8.480000	 35.9529
8.498000	 35.988
8.516000	 35.971
8.533999	 35.8948
8.552000	 35.8162
8.570000	 35.8012
8.588000	 35.8641
8.606000	 35.9634
8.624000	 36.0453
8.641999	 36.0806
8.660000	 36.0713
8.678000	 36.034
8.696000	 35.9816
8.714000	 35.9208
8.731999	 35.8564
8.750000	 35.7939
8.768000	 35.7387
8.786000	 35.7003
8.804000	 35.6854
8.821999	 35.69
8.840000	 35.7029
8.858000	 35.7162
8.876000	 35.7271
8.894000	 35.728
8.911999	 35.7069
8.930000	 35.6608
8.948000	 35.6056
8.966000	 35.5668
8.984000	 35.5597
9.001999	 35.583
9.020000	 35.6277
9.038000	 35.6839
9.056000	 35.7371
9.074000	 35.7694
9.092000	 35.7711
9.109999	 35.7489
9.128000	 35.7207
9.146000	 35.7035
9.164000	 35.7075
9.182000	 35.7364
9.199999	 35.7864
9.218000	 35.8428
9.236000	 35.8859
9.254000	 35.903
9.272000	 35.8929
9.289999	 35.8591
9.308000	 35.8032
9.326000	 35.727
9.344000	 35.6384
9.362000	 35.5509
9.379999	 35.4759
9.398000	 35.4165
9.416000	 35.3705
9.434000	 35.3376
9.452000	 35.3195
9.469999	 35.3178
9.488000	 35.3298
9.506000	 35.3481
9.524000	 35.3638
9.542000	 35.3715
9.560000	 35.3723
9.577999	 35.3707
9.596000	 35.371
9.614000	 35.3742
9.632000	 35.3805
9.650000	 35.392
9.667999	 35.4138
9.686000	 35.4505
9.704000	 35.4999
9.722000	 35.5502
9.740000	 35.5833
9.757999	 35.5843
9.776000	 35.551
9.794000	 35.4962
9.812000	 35.44
9.830000	 35.3957
9.847999	 35.3621
9.866000	 35.3268
9.884000	 35.2785
9.902000	 35.2154
9.920000	 35.1454
9.937999	 35.0791
9.956000	 35.0214
9.974000	 34.9707
9.992000	 34.9238
10.01	34.8808
10.028	34.8468
10.046	34.8275
10.064	34.8256
10.082	34.8393
10.1	34.8647
10.118	34.8985
10.136	34.9399
10.154	34.9888
10.172	35.0422
10.19	35.0925
10.208	35.1311
10.226	35.1525
10.244	35.1572
10.262	35.1499
10.28	35.1362
10.298	35.1205
10.316	35.1059
10.334	35.0952
10.352	35.091
10.37	35.0938
10.388	35.101
10.406	35.1082
10.424	35.1124
10.442	35.1142
10.46	35.114
10.478	35.1085
10.496	35.0889
10.514	35.0469
10.532	34.9803
10.55	34.8985
10.568	34.8177
10.586	34.7531
10.604	34.7098
10.622	34.6828
10.64	34.6614
10.658	34.6378
10.676	34.611
10.694	34.5851
10.712	34.5661
10.73	34.5564
10.748	34.5557
10.766	34.5605
10.784	34.5662
10.802	34.5669
10.82	34.5566
10.838	34.5304
10.856	34.4877
10.874	34.4353
10.892	34.3854
10.91	34.3525
10.928	34.346
10.946	34.3667
10.964	34.4062
10.982	34.4525
11	34.4966
11.018	34.5353
11.036	34.5705
11.054	34.6047
11.072	34.6362
11.09	34.6586
11.108	34.6647
11.126	34.6503
11.144	34.6177
11.162	34.575
11.18	34.5319
11.198	34.4954
11.216	34.4671
11.234	34.4426
11.252	34.4155
11.27	34.3809
11.288	34.3372
11.306	34.2864
11.324	34.2329
11.342	34.1806
11.36	34.1321
11.378	34.089
11.396	34.0524
11.414	34.0231
11.432	34.0023
11.45	33.9898
11.468	33.9837
11.486	33.9809
11.504	33.978
11.522	33.9736
11.54	33.9688
11.558	33.9664
11.576	33.9693
11.594	33.978
11.612	33.9891
11.63	33.9975
11.648	33.9983
11.666	33.9889
11.684	33.9711
11.702	33.9492
11.72	33.9286
11.738	33.9131
11.756	33.9036
11.774	33.8989
11.792	33.8969
11.81	33.8968
11.828	33.8994
11.846	33.9065
11.864	33.9193
11.882	33.9366
11.9	33.9544
11.918	33.967
11.936	33.9687
11.954	33.9561
11.972	33.9285
11.99	33.8883
12.008	33.839
12.026	33.7836
12.044	33.7239
12.062	33.6605
12.08	33.5937
12.098	33.5254
12.116	33.4588
12.134	33.3988
12.152	33.35
12.17	33.3153
12.188	33.2953
12.206	33.2874
12.224	33.2876
12.242	33.2919
12.26	33.2975
12.278	33.3038
12.296	33.3117
12.314	33.3221
12.332	33.3357
12.35	33.3512
12.368	33.3663
12.386	33.3781
12.404	33.3847
12.422	33.386
12.44	33.3839
12.458	33.382
12.476	33.3842
12.494	33.3931
12.512	33.4085
12.53	33.4277
12.548	33.4455
12.566	33.4563
12.584	33.4557
12.602	33.4418
12.62	33.4159
12.638	33.3822
12.656	33.3466
12.674	33.3144
12.692	33.2894
12.71	33.2732
12.728	33.2652
12.746	33.2634
12.764	33.2655
12.782	33.2693
12.8	33.2735
12.818	33.2774
12.836	33.2796
12.854	33.2779
12.872	33.2694
12.89	33.2505
12.908	33.2183
12.926	33.1713
12.944	33.1103
12.962	33.0383
12.98	32.9598
12.998	32.8799
13.016	32.8028
13.034	32.731
13.052	32.6651
13.07	32.6039
13.088	32.5458
13.106	32.4903
13.124	32.4377
13.142	32.3913
13.16	32.3554
13.178	32.3359
13.196	32.3373
13.214	32.3628
13.232	32.4128
13.25	32.4845
13.268	32.5719
13.286	32.6672
13.304	32.7615
13.322	32.8463
13.34	32.9143
13.358	32.9613
13.376	32.9857
13.394	32.9889
13.412	32.9749
13.43	32.9486
13.448	32.9154
13.466	32.8805
13.484	32.8477
13.502	32.8194
13.52	32.7964
13.538	32.7782
13.556	32.7638
13.574	32.7511
13.592	32.7382
13.61	32.7233
13.628	32.7054
13.646	32.6838
13.664	32.6589
13.682	32.6311
13.7	32.6013
13.718	32.5701
13.736	32.5379
13.754	32.5046
13.772	32.4697
13.79	32.4326
13.808	32.393
13.826	32.3508
13.844	32.307
13.862	32.2641
13.88	32.2252
13.898	32.1938
13.916	32.1726
13.934	32.1636
13.952	32.1674
13.97	32.1822
13.988	32.2045
14.006	32.2295
14.024	32.2523
14.042	32.2682
14.06	32.2739
14.078	32.2675
14.096	32.2487
14.114	32.2182
14.132	32.1782
14.15	32.1309
14.168	32.0788
14.186	32.0242
14.204	31.9696
14.222	31.9171
14.24	31.8688
14.258	31.8263
14.276	31.7912
14.294	31.7645
14.312	31.7462
14.33	31.7351
14.348	31.7287
14.366	31.7235
14.384	31.7155
14.402	31.701
14.42	31.6771
14.438	31.6422
14.456	31.5964
14.474	31.5414
14.492	31.4802
14.51	31.4167
14.528	31.355
14.546	31.2988
14.564	31.2506
14.582	31.2122
14.6	31.1845
14.618	31.167
14.636	31.1587
14.654	31.1581
14.672	31.1636
14.69	31.174
14.708	31.188
14.726	31.2045
14.744	31.223
14.762	31.2424
14.78	31.2626
14.798	31.283
14.816	31.3036
14.834	31.3243
14.852	31.3454
14.87	31.3667
14.888	31.3882
14.906	31.4096
14.924	31.4299
14.942	31.4481
14.96	31.4626
14.978	31.472
14.996	31.4748
15.014	31.4699
15.032	31.4567
15.05	31.4352
15.068	31.4062
15.086	31.3705
15.104	31.3298
15.122	31.2861
15.14	31.2417
15.158	31.1985
15.176	31.1588
15.194	31.1244
15.212	31.0973
15.23	31.0788
15.248	31.0696
15.266	31.0702
15.284	31.0801
15.302	31.098
15.32	31.1217
15.338	31.1489
15.356	31.176
15.374	31.1987
15.392	31.2135
15.41	31.2171
15.428	31.2066
15.446	31.1803
15.464	31.1381
15.482	31.0809
15.5	31.0107
15.518	30.9315
15.536	30.8472
15.554	30.7617
15.572	30.6793
15.59	30.6043
15.608	30.5393
15.626	30.4861
15.644	30.4459
15.662	30.4184
15.68	30.4026
15.698	30.3972
15.716	30.4001
15.734	30.4086
15.752	30.4206
15.77	30.4342
15.788	30.4468
15.806	30.4567
15.824	30.4626
15.842	30.4632
15.86	30.4574
15.878	30.4448
15.896	30.4253
15.914	30.3987
15.932	30.3659
15.95	30.3277
15.968	30.2851
15.986	30.2399
16.004	30.1934
16.022	30.1469
16.04	30.1022
16.058	30.0603
16.076	30.022
16.094	29.9882
16.112	29.9593
16.13	29.9355
16.148	29.9169
16.166	29.9033
16.184	29.8947
16.202	29.891
16.22	29.892
16.238	29.8977
16.256	29.9077
16.274	29.922
16.292	29.9402
16.31	29.9616
16.328	29.9856
16.346	30.0111
16.364	30.0372
16.382	30.0624
16.4	30.0855
16.418	30.1056
16.436	30.1213
16.454	30.1321
16.472	30.1377
16.49	30.1381
16.508	30.1341
16.526	30.1263
16.544	30.1164
16.562	30.1053
16.58	30.0942
16.598	30.0844
16.616	30.0765
16.634	30.0709
16.652	30.0674
16.67	30.0655
16.688	30.0644
16.706	30.0631
16.724	30.0609
16.742	30.0568
16.76	30.0506
16.778	30.0422
16.796	30.0316
16.814	30.0201
16.832	30.008
16.85	29.9969
16.868	29.9878
16.886	29.9816
16.904	29.9792
16.922	29.9807
16.94	29.9863
16.958	29.9951
16.976	30.0065
16.994	30.0188
17.012	30.03
17.03	30.0391
17.048	30.043
17.066	30.0409
17.084	30.0308
17.102	30.0115
17.12	29.9828
17.138	29.9442
17.156	29.8965
17.174	29.8401
17.192	29.7772
17.21	29.7088
17.228	29.6372
17.246	29.5646
17.264	29.4924
17.282	29.4231
17.3	29.3574
17.318	29.297
17.336	29.2424
17.354	29.1939
17.372	29.1514
17.39	29.1147
17.408	29.0829
17.426	29.0553
17.444	29.0311
17.462	29.0091
17.48	28.989
17.498	28.9695
17.516	28.9504
17.534	28.9312
17.552	28.9116
17.57	28.8917
17.588	28.8715
17.606	28.8512
17.624	28.8308
17.642	28.8105
17.66	28.7905
17.678	28.7707
17.696	28.7511
17.714	28.7316
17.732	28.712
17.75	28.6922
17.768	28.6722
17.786	28.652
17.804	28.6314
17.822	28.6107
17.84	28.5901
17.858	28.57
17.876	28.5509
17.894	28.5337
17.912	28.5186
17.93	28.5066
17.948	28.4979
17.966	28.4932
17.984	28.4927
18.002	28.4967
18.02	28.5052
18.038	28.518
18.056	28.5345
18.074	28.5546
18.092	28.5771
18.11	28.6018
18.128	28.6276
18.146	28.654
18.164	28.6803
18.182	28.7062
18.2	28.7313
18.218	28.7555
18.236	28.7788
18.254	28.8014
18.272	28.8236
18.29	28.846
18.308	28.8688
18.326	28.8927
18.344	28.918
18.362	28.945
18.38	28.9738
18.398	29.0043
18.416	29.0362
18.434	29.0691
18.452	29.1021
18.47	29.1346
18.488	29.1652
18.506	29.1935
18.524	29.2176
18.542	29.2371
18.56	29.2504
18.578	29.2574
18.596	29.2566
18.614	29.248
18.632	29.2311
18.65	29.2061
18.668	29.1731
18.686	29.1324
18.704	29.0852
18.722	29.0316
18.74	28.9734
18.758	28.9108
18.776	28.8458
18.794	28.7787
18.812	28.7114
18.83	28.6441
18.848	28.5785
18.866	28.5149
18.884	28.4542
18.902	28.3968
18.92	28.3434
18.938	28.2941
18.956	28.249
18.974	28.2081
18.992	28.1714
19.01	28.1385
19.028	28.1092
19.046	28.0831
19.064	28.0599
19.082	28.0393
19.1	28.0206
19.118	28.0036
19.136	27.9878
19.154	27.973
19.172	27.9588
19.19	27.9452
19.208	27.9319
19.226	27.9189
19.244	27.9062
19.262	27.8938
19.28	27.8817
19.298	27.8698
19.316	27.8582
19.334	27.8467
19.352	27.835
19.37	27.8233
19.388	27.811
19.406	27.7981
19.424	27.7842
19.442	27.7691
19.46	27.7525
19.478	27.7343
19.496	27.7143
19.514	27.6924
19.532	27.6688
19.55	27.6436
19.568	27.6171
19.586	27.5896
19.604	27.5614
19.622	27.5331
19.64	27.5047
19.658	27.4769
19.676	27.4497
19.694	27.4237
19.712	27.3989
19.73	27.3756
19.748	27.3538
19.766	27.3333
19.784	27.314
19.802	27.2957
19.82	27.2779
19.838	27.2606
19.856	27.243
19.874	27.2251
19.892	27.2061
19.91	27.1861
19.928	27.1645
19.946	27.1414
19.964	27.1164
19.982	27.0894
20	27.0606
20.018	27.0298
20.036	26.9974
20.054	26.9638
20.072	26.9289
20.09	26.894
20.108	26.8587
20.126	26.8243
20.144	26.7907
20.162	26.7591
20.18	26.7297
20.198	26.7031
20.216	26.6802
20.234	26.6611
20.252	26.647
20.27	26.6377
20.288	26.6339
20.306	26.6358
20.324	26.6434
20.342	26.6573
20.36	26.6769
20.378	26.7022
20.396	26.7332
20.414	26.7691
20.432	26.8102
20.45	26.8553
20.468	26.9038
20.486	26.9554
20.504	27.009
20.522	27.0647
20.54	27.1211
20.558	27.1783
20.576	27.2356
20.594	27.2928
20.612	27.3497
20.63	27.4059
20.648	27.4616
20.666	27.5167
20.684	27.5711
20.702	27.6252
20.72	27.6792
20.738	27.733
20.756	27.787
20.774	27.8409
20.792	27.8948
20.81	27.9488
20.828	28.0024
20.846	28.0548
20.864	28.1062
20.882	28.155
20.9	28.2018
20.918	28.2445
20.936	28.2821
20.954	28.3146
20.972	28.3393
20.99	28.3571
21.008	28.3655
21.026	28.3637
21.044	28.3517
21.062	28.3279
21.08	28.2927
21.098	28.2456
21.116	28.1861
21.134	28.115
21.152	28.0331
21.17	27.94
21.188	27.8381
21.206	27.7272
21.224	27.6089
21.242	27.4859
21.26	27.3573
21.278	27.2273
21.296	27.0961
21.314	26.9652
21.332	26.8383
21.35	26.7142
21.368	26.5964
21.386	26.4856
21.404	26.3821
21.422	26.2883
21.44	26.2035
21.458	26.1287
21.476	26.0647
21.494	26.0109
21.512	25.9671
21.53	25.9337
21.548	25.9091
21.566	25.8928
21.584	25.8847
21.602	25.8821
21.62	25.8856
21.638	25.8934
21.656	25.9029
21.674	25.915
21.692	25.9269
21.71	25.9378
21.728	25.9478
21.746	25.9545
21.764	25.9584
21.782	25.9588
21.8	25.9549
21.818	25.9471
21.836	25.9352
21.854	25.9189
21.872	25.8987
21.89	25.8748
21.908	25.8472
21.926	25.8164
21.944	25.7829
21.962	25.7466
21.98	25.7079
21.998	25.6669
22.016	25.6237
22.034	25.5781
22.052	25.5305
22.07	25.4802
22.088	25.427
22.106	25.3712
22.124	25.3118
22.142	25.2487
22.16	25.1819
22.178	25.1108
22.196	25.0354
22.214	24.9559
22.232	24.8722
22.25	24.7843
22.268	24.6932
22.286	24.5992
22.304	24.5021
22.322	24.4044
22.34	24.3056
22.358	24.2066
22.376	24.1105
22.394	24.0162
22.412	23.9256
22.43	23.8417
22.448	23.7628
22.466	23.6919
22.484	23.6314
22.502	23.5798
22.52	23.5401
22.538	23.5136
22.556	23.4994
22.574	23.4995
22.592	23.5144
22.61	23.5435
22.628	23.5871
22.646	23.6458
22.664	23.7182
22.682	23.803
22.7	23.9012
22.718	24.0104
22.736	24.1275
22.754	24.2543
22.772	24.3873
22.79	24.5235
22.808	24.6648
22.826	24.8066
22.844	24.9463
22.862	25.0858
22.88	25.2196
22.898	25.3453
22.916	25.4648
22.934	25.5728
22.952	25.668
22.97	25.7513
22.988	25.8197
23.006	25.8722
23.024	25.9097
23.042	25.9312
23.06	25.936
23.078	25.9249
23.096	25.8992
23.114	25.8579
23.132	25.8023
23.15	25.7357
23.168	25.6572
23.186	25.568
23.204	25.4722
23.222	25.3686
23.24	25.2587
23.258	25.1477
23.276	25.034
23.294	24.9194
23.312	24.8096
23.33	24.7038
23.348	24.6028
23.366	24.5116
23.384	24.4301
23.402	24.3581
23.42	24.2986
23.438	24.2518
23.456	24.2173
23.474	24.1964
23.492	24.1894
23.51	24.1959
23.528	24.2161
23.546	24.2507
23.564	24.2992
23.582	24.3597
23.6	24.432
23.618	24.5165
23.636	24.6095
23.654	24.7098
23.672	24.8188
23.69	24.932
23.708	25.0465
23.726	25.1648
23.744	25.2827
23.762	25.3962
23.78	25.5087
23.798	25.6157
23.816	25.7127
23.834	25.8023
23.852	25.8819
23.87	25.9468
23.888	25.9985
23.906	26.0361
23.924	26.0565
23.942	26.059
23.96	26.0447
23.978	26.0131
23.996	25.9633
24.014	25.8958
24.032	25.8127
24.05	25.7145
24.068	25.5996
24.086	25.4728
24.104	25.3382
24.122	25.1913
24.14	25.0386
24.158	24.8885
24.176	24.7365
24.194	24.5864
24.212	24.4494
24.23	24.3258
24.248	24.2132
24.266	24.1231
24.284	24.0617
24.302	24.0228
24.32	24.0136
24.338	24.0414
24.356	24.1022
24.374	24.1981
24.392	24.3338
24.41	24.5108
24.428	24.7263
24.446	24.9775
24.464	25.2651
24.482	25.5903
24.5	25.9445
24.518	26.3215
24.536	26.7297
24.554	27.157
24.572	27.5874
24.59	28.0277
24.608	28.4746
24.626	28.9091
24.644	29.3246
24.662	29.7317
24.68	30.1113
24.698	30.4459
24.716	30.7478
24.734	31.0081
24.752	31.2097
24.77	31.3522
24.788	31.4403
24.806	31.4624
24.824	31.4101
24.842	31.289
24.86	31.0982
24.878	30.8353
24.896	30.4979
24.914	30.0896
24.932	29.6162
24.95	29.0787
24.968	28.4724
24.986	27.8096
25.004	27.1025
25.022	26.3421
25.04	25.5349
25.058	24.6983
25.076	23.838
25.094	22.9436
25.112	22.0326
25.13	21.1224
25.148	20.2027
25.166	19.2786
25.184	18.3668
25.202	17.4745
25.22	16.5915
25.238	15.7293
25.256	14.9
25.274	14.0988
25.292	13.326
25.31	12.5895
25.328	11.894
25.346	11.2348
25.364	10.6142
25.382	10.0353
25.4	9.498640
25.418	9.002574
25.436	8.546588
25.454	8.130540
25.472	7.755498
25.49	7.419165
25.508	7.118731
25.526	6.855184
25.544	6.629472
25.562	6.435130
25.58	6.266236
25.598	6.128072
25.616	6.017151
25.634	5.924844
25.652	5.846659
25.67	5.789666
25.688	5.745819
25.706	5.705453
25.724	5.669119
25.742	5.640224
25.76	5.610171
25.778	5.571088
25.796	5.528192
25.814	5.479633
25.832	5.418629
25.85	5.340574
25.868	5.249983
25.886	5.144667
25.904	5.021333
25.922	4.878243
25.94	4.717208
25.958	4.539206
25.976	4.345139
25.994	4.132987
26.012	3.904064
26.03	3.662471
26.048	3.411531
26.066	3.147087
26.084	2.872236
26.102	2.592666
26.12	2.311742
26.138	2.024663
26.156	1.735478
26.174	1.449441
26.192	1.168653
26.21	0.889851
26.228	0.615084
26.246	0.346614
26.264	0.085170
26.282	-0.170448
26.3	-0.420608
26.318	-0.665652
26.336	-0.904697
26.354	-1.138284
26.372	-1.368076
26.39	-1.595517
26.408	-1.818580
26.426	-2.038543
26.444	-2.258339
26.462	-2.480411
26.48	-2.702721
26.498	-2.925939
26.516	-3.151815
26.534	-3.381567
26.552	-3.613604
26.57	-3.848915
26.588	-4.089037
26.606	-4.335001
26.624	-4.585706
26.642	-4.841508
26.66	-5.103013
26.678	-5.370620
26.696	-5.643933
26.714	-5.922929
26.732	-6.207644
26.75	-6.497867
26.768	-6.793239
26.786	-7.094571
26.804	-7.402745
26.822	-7.718541
26.84	-8.041687
26.858	-8.371253
26.876	-8.706306
26.894	-9.046813
26.912	-9.393993
26.93	-9.745866
26.948	-10.1003
26.966	-10.4724
26.984	-10.8882
27.002	-11.2853
27.02	-11.5958
27.028	-11.6789