File: Bakgrunnsmateriale/MATLAB/FTIR/ftir_data/LPE453/Mapping_121/LPE453_t110_cm-1.asc
PE IR       SPECTRUM    SPECTRUM    ASCII       PEDS        1.60
  -1
LP03FC~1.ASC
17/05/16
23:21:02.00
17/05/16
23:21:02.00
tln
$LPE453_t0110$<tbV0>[-13.0,10.4,8.0,0.0,27,1,0]
370
64

2002,4.07
MIRTGS : RIGHTBACK : INTERNAL 2
MIR : ON : INTERNAL 2
OPTKBR

0.200000
8
8.000000
FILLER
RATIO
SPECTRUM
UNLOCKED 256

DOUBLE
64
COMBINED
1
0
0

1.000000
RATIO

1
0
TRUE
51149
0
LEFT NOT FITTED RIGHT NOT FITTED 0
NONE
NONE
15600
12
4.427000
51148
TRUE
1 0 8 72 0 0 0 0

15798

#HDR
-1
-1
#GR
CM-1
%T
2.38419e-05
0.0
5000
-1.000000
4631
8
33.6948
-14.6998
#DATA
5000	0.098323
4996	0.136041
4992	0.130987
4988	0.151252
4984	0.144219
4980	0.047588
4976	0.044989
4972	0.137567
4968	0.178694
4964	0.160527
4960	0.186371
4956	0.306224
4952	0.315904
4948	0.154757
4944	0.006318
4940	-0.063061
4936	0.015234
4932	0.304007
4928	0.497651
4924	0.478672
4920	0.495243
4916	0.601911
4912	0.635790
4908	0.486493
4904	0.259780
4900	0.126981
4896	0.216984
4892	0.455880
4888	0.604963
4884	0.560235
4880	0.437664
4876	0.390172
4872	0.383830
4868	0.386571
4864	0.378322
4860	0.380802
4856	0.489854
4852	0.624537
4848	0.586748
4844	0.407433
4840	0.310254
4836	0.207257
4832	0.055599
4828	0.027942
4824	0.052523
4820	0.147032
4816	0.195884
4812	0.020360
4808	0.118541
4804	0.417065
4800	0.248456
4796	0.027561
4792	0.188040
4788	0.280666
4784	0.126457
4780	-0.062322
4776	-0.093841
4772	0.115871
4768	0.289082
4764	0.279927
4760	0.156426
4756	-0.043225
4752	-0.042033
4748	0.144529
4744	0.199532
4740	0.135731
4736	0.145697
4732	0.233340
4728	0.189304
4724	0.007605
4720	0.091218
4716	0.414657
4712	0.393867
4708	0.048589
4704	-0.161719
4700	-0.008177
4696	0.470161
4692	0.932741
4688	0.588417
4684	-0.368094
4680	-0.550031
4676	-0.126552
4672	0.042533
4668	-0.072360
4664	-0.266480
4660	0.275135
4656	1.326274
4652	1.096105
4648	0.081372
4644	0.364017
4640	1.662111
4636	2.087688
4632	1.161813
4628	0.337362
4624	0.503921
4620	1.269817
4616	2.089953
4612	2.651214
4608	2.678275
4604	2.457904
4600	2.442836
4596	1.978921
4592	1.257824
4588	1.116132
4584	0.922918
4580	0.401496
4576	0.389051
4572	0.781106
4568	0.823545
4564	0.917863
4560	1.178908
4556	0.871372
4552	0.380492
4548	0.394964
4544	0.667786
4540	0.841760
4536	1.058888
4532	1.153826
4528	0.935482
4524	0.183200
4520	-0.494003
4516	-1.346421
4512	-2.677416
4508	-5.016374
4504	-11.8178
4500	-13.6587
4496	1.285576
4492	20.0418
4488	22.4188
4484	9.433388
4480	0.588154
4476	-0.152897
4472	0.383329
4468	0.120735
4464	-0.050854
4460	0.378084
4456	0.364613
4452	-0.078415
4448	-0.255417
4444	-0.017046
4440	0.348687
4436	0.404882
4432	0.165867
4428	-0.006556
4424	0.180816
4420	0.480580
4416	0.540804
4412	0.354957
4408	0.129461
4404	0.060153
4400	0.155282
4396	0.353956
4392	0.540065
4388	0.547790
4384	0.330853
4380	0.150489
4376	0.201082
4372	0.329828
4368	0.375103
4364	0.299715
4360	0.337696
4356	0.486874
4352	0.409340
4348	0.300240
4344	0.557279
4340	0.837445
4336	0.593805
4332	0.087332
4328	-0.172066
4324	-0.217509
4320	-0.184154
4316	0.059032
4312	0.335502
4308	0.447797
4304	0.420331
4300	0.330376
4296	0.320601
4292	0.332212
4288	0.302529
4284	0.225424
4280	0.187540
4276	0.256609
4272	0.169372
4268	0.090527
4264	0.152516
4260	0.137734
4256	0.030779
4252	-0.018143
4248	0.059199
4244	0.183892
4240	0.270557
4236	0.338411
4232	0.284290
4228	0.071763
4224	-0.053930
4220	0.010299
4216	0.159502
4212	0.258493
4208	0.382065
4204	0.511050
4200	0.420212
4196	0.241589
4192	0.173258
4188	0.132536
4184	0.102996
4180	0.100541
4176	0.217819
4172	0.337433
4168	0.292205
4164	0.232005
4160	0.165557
4156	0.129413
4152	0.179862
4148	0.299239
4144	0.364923
4140	0.384330
4136	0.502514
4132	0.537538
4128	0.379610
4124	0.210785
4120	0.146532
4116	0.142598
4112	0.187492
4108	0.160932
4104	0.089430
4100	0.142431
4096	0.134086
4092	-0.022006
4088	-0.113606
4084	-0.090718
4080	-0.124764
4076	-0.196981
4072	-0.189542
4068	-0.087451
4064	0.029730
4060	0.038695
4056	0.044989
4052	0.082421
4048	0.041985
4044	-0.023388
4040	0.033211
4036	0.218439
4032	0.372266
4028	0.344920
4024	0.161194
4020	0.023221
4016	0.068759
4012	0.134658
4008	0.104427
4004	0.179815
4000	0.357031
3996	0.258326
3992	-0.055932
3988	-0.103449
3984	-0.016570
3980	-0.114345
3976	-0.202322
3972	-0.136947
3968	-0.026130
3964	0.010991
3960	-0.009346
3956	0.046896
3952	0.105786
3948	0.067877
3944	-0.002408
3940	-0.041389
3936	-0.035881
3932	0.004744
3928	0.099325
3924	0.210618
3920	0.216650
3916	0.077629
3912	0.005793
3908	0.080466
3904	0.123643
3900	0.128960
3896	0.112295
3892	0.063848
3888	0.057530
3884	0.053429
3880	-0.024795
3876	-0.115275
3872	-0.099825
3868	0.037574
3864	0.156211
3860	0.112557
3856	0.021743
3852	-0.022220
3848	-0.001120
3844	0.054812
3840	0.076794
3836	0.162672
3832	0.255036
3828	0.171041
3824	0.020813
3820	-0.096249
3816	-0.092029
3812	0.038409
3808	0.046873
3804	-0.036478
3800	-0.073027
3796	-0.071191
3792	-0.030612
3788	0.010490
3784	0.018024
3780	0.011396
3776	0.078654
3772	0.136089
3768	0.078582
3764	0.058531
3760	0.133323
3756	0.205993
3752	0.237870
3748	0.220561
3744	0.183963
3740	0.189781
3736	0.233483
3732	0.247955
3728	0.212359
3724	0.222516
3720	0.270724
3716	0.238227
3712	0.128674
3708	0.021076
3704	-0.023818
3700	-0.009703
3696	0.025606
3692	0.083494
3688	0.097298
3684	0.052118
3680	0.070714
3676	0.079655
3672	0.019192
3668	-0.012183
3664	0.005865
3660	0.047278
3656	0.097846
3652	0.153064
3648	0.203347
3644	0.203275
3640	0.079870
3636	-0.076603
3632	-0.137662
3628	-0.142955
3624	-0.123405
3620	-0.091123
3616	-0.015950
3612	0.102591
3608	0.151324
3604	0.102686
3600	0.024604
3596	0.008249
3592	0.056648
3588	0.047707
3584	-0.003266
3580	-0.013709
3576	0.027871
3572	0.140547
3568	0.184893
3564	0.080609
3560	-0.035071
3556	-0.042819
3552	0.038266
3548	0.079035
3544	0.073909
3540	0.070667
3536	0.026488
3532	-0.016784
3528	0.038552
3524	0.060701
3520	0.039911
3516	0.154423
3512	0.233650
3508	0.109863
3504	-0.036406
3500	-0.075268
3496	-0.079226
3492	-0.074815
3488	-0.036358
3484	0.015568
3480	0.058102
3476	0.069642
3472	0.038719
3468	0.050663
3464	0.124144
3460	0.095653
3456	-0.002408
3452	-0.053405
3448	-0.056219
3444	0.010395
3440	0.126600
3436	0.222897
3432	0.203943
3428	0.078368
3424	-0.082159
3420	-0.114107
3416	-0.008273
3412	0.055623
3408	0.109624
3404	0.142121
3400	0.133442
3396	0.150513
3392	0.124216
3388	0.039172
3384	0.005674
3380	0.027298
3376	0.056171
3372	0.082254
3368	0.073528
3364	0.051784
3360	0.023341
3356	0.013542
3352	0.055670
3348	0.098752
3344	0.058507
3340	-0.031256
3336	0.002312
3332	0.119447
3328	0.144886
3324	0.039958
3320	-0.057005
3316	0.000190
3312	0.112032
3308	0.168967
3304	0.177049
3300	0.157594
3296	0.162363
3292	0.173377
3288	0.166368
3284	0.165796
3280	0.184869
3276	0.214314
3272	0.161933
3268	0.035905
3264	-0.031018
3260	-0.035810
3256	0.031232
3252	0.134944
3248	0.111293
3244	0.017476
3240	-0.044631
3236	-0.051736
3232	0.001931
3228	-0.009131
3224	-0.065684
3220	-0.038027
3216	0.021338
3212	0.071430
3208	0.098729
3204	0.063824
3200	0.035333
3196	0.037002
3192	0.019979
3188	-0.038814
3184	-0.006771
3180	0.165081
3176	0.228190
3172	0.127172
3168	0.032567
3164	0.021743
3160	0.021171
3156	0.011730
3152	0.081181
3148	0.141525
3144	0.115704
3140	0.030350
3136	-0.025892
3132	0.067853
3128	0.152659
3124	0.151276
3120	0.153374
3116	0.064659
3112	-0.045514
3108	-0.062751
3104	-0.051069
3100	-0.031995
3096	-0.008916
3092	0.007295
3088	0.020480
3084	0.028586
3080	0.021338
3076	0.001811
3072	0.013303
3068	0.087928
3064	0.161314
3060	0.161981
3056	0.127792
3052	0.118327
3048	0.085973
3044	0.001335
3040	-0.015187
3036	0.077605
3032	0.152969
3028	0.167798
3024	0.174283
3020	0.137662
3016	0.075244
3012	0.059151
3008	0.048160
3004	0.038695
3000	0.108480
2996	0.179553
2992	0.100326
2988	-0.023007
2984	-0.017905
2980	0.059962
2976	0.098204
2972	0.075650
2968	0.012707
2964	-0.016379
2960	0.020170
2956	0.080251
2952	0.145745
2948	0.184059
2944	0.177192
2940	0.158619
2936	0.112009
2932	0.013279
2928	-0.057363
2924	-0.017857
2920	0.088477
2916	0.130653
2912	0.117349
2908	0.130033
2904	0.134730
2900	0.129222
2896	0.132584
2892	0.104618
2888	0.065612
2884	0.057339
2880	0.086688
2876	0.105428
2872	0.066685
2868	0.002264
2864	-0.071811
2860	-0.113868
2856	-0.117731
2852	-0.129151
2848	-0.112223
2844	-0.040221
2840	0.016236
2836	0.033211
2832	0.083947
2828	0.090885
2824	0.039863
2820	0.035619
2816	0.012230
2812	-0.049948
2808	-0.102496
2804	-0.104045
2800	-0.028443
2796	0.066661
2792	0.100755
2788	0.077366
2784	0.066423
2780	0.077843
2776	0.046801
2772	0.028610
2768	0.056457
2764	0.045108
2760	0.020384
2756	0.033497
2752	0.046706
2748	0.013995
2744	-0.019335
2740	0.024747
2736	0.060391
2732	0.057554
2728	0.066184
2724	0.069689
2720	0.061058
2716	0.023818
2712	-0.004196
2708	0.006866
2704	0.027322
2700	0.028371
2696	0.000619
2692	-0.041675
2688	-0.069284
2684	-0.033521
2680	0.050854
2676	0.117897
2672	0.130033
2668	0.095248
2664	0.048923
2660	0.017642
2656	0.022816
2652	0.047278
2648	0.003314
2644	-0.061535
2640	-0.030231
2636	0.008034
2632	-0.031208
2628	-0.078821
2624	-0.079560
2620	-0.041961
2616	0.001382
2612	0.026392
2608	0.043797
2604	0.049257
2600	0.035214
2596	0.054931
2592	0.070500
2588	0.027203
2584	0.001335
2580	0.017786
2576	0.048017
2572	0.087285
2568	0.085043
2564	0.016856
2560	-0.069093
2556	-0.115370
2552	-0.097322
2548	-0.060081
2544	-0.020718
2540	0.057840
2536	0.090932
2532	0.014996
2528	-0.060153
2524	-0.064182
2520	-0.036644
2516	0.015878
2512	0.086045
2508	0.086045
2504	0.057983
2500	0.060319
2496	0.010156
2492	-0.042796
2488	-0.034213
2484	-0.023269
2480	-0.023531
2476	-0.027465
2472	-0.050425
2468	-0.046682
2464	-0.008416
2460	0.019574
2456	0.047421
2452	0.051760
2448	0.029659
2444	-0.008487
2440	-0.019645
2436	0.028800
2432	0.006842
2428	-0.083422
2424	-0.142598
2420	-0.158643
2416	-0.058341
2412	0.103259
2408	0.151252
2404	0.116252
2400	0.071239
2396	0.012397
2392	0.005340
2388	0.061988
2384	0.115728
2380	0.143027
2376	0.116562
2372	0.026583
2368	-0.011873
2364	0.072622
2360	0.141429
2356	0.129532
2352	0.117945
2348	0.082659
2344	0.048255
2340	0.100064
2336	0.163698
2332	0.184535
2328	0.203108
2324	0.237107
2320	0.261569
2316	0.265359
2312	0.305986
2308	0.421881
2304	0.519061
2300	0.494265
2296	0.444006
2292	0.463938
2288	0.504302
2284	0.565028
2280	0.657320
2276	0.756525
2272	0.853919
2268	0.937771
2264	0.988507
2260	1.034712
2256	1.155757
2252	1.299452
2248	1.400017
2244	1.525664
2240	1.685643
2236	1.843404
2232	1.985692
2228	2.124500
2224	2.288675
2220	2.466320
2216	2.657914
2212	2.882409
2208	3.107833
2204	3.300189
2200	3.523373
2196	3.801941
2192	4.059910
2188	4.305768
2184	4.610252
2180	4.930734
2176	5.190300
2172	5.460667
2168	5.809473
2164	6.198954
2160	6.589579
2156	6.926822
2152	7.210612
2148	7.514786
2144	7.863616
2140	8.243560
2136	8.637380
2132	9.046673
2128	9.536075
2124	10.0672
2120	10.5162
2116	10.934
2112	11.3771
2108	11.815
2104	12.2445
2100	12.6603
2096	13.0709
2092	13.4959
2088	13.9401
2084	14.3925
2080	14.778
2076	15.0754
2072	15.4534
2068	16.016
2064	16.5529
2060	16.9305
2056	17.3203
2052	17.7553
2048	18.154
2044	18.5279
2040	18.9098
2036	19.3202
2032	19.6902
2028	19.9731
2024	20.2718
2020	20.6576
2016	21.0444
2012	21.3603
2008	21.6712
2004	22.0183
2000	22.3193
1996	22.5934
1992	22.8969
1988	23.1667
1984	23.4257
1980	23.7174
1976	23.9943
1972	24.2673
1968	24.5537
1964	24.8055
1960	25.0128
1956	25.189
1952	25.3493
1948	25.5285
1944	25.7295
1940	25.9518
1936	26.1855
1932	26.4122
1928	26.6324
1924	26.798
1920	26.8946
1916	27.0285
1912	27.2317
1908	27.4231
1904	27.5769
1900	27.7348
1896	27.8907
1892	27.9845
1888	28.0675
1884	28.2133
1880	28.3803
1876	28.5226
1872	28.6511
1868	28.7821
1864	28.8778
1860	28.977
1856	29.1384
1852	29.256
1848	29.2899
1844	29.3436
1840	29.4432
1836	29.582
1832	29.702
1828	29.7319
1824	29.7556
1820	29.8619
1816	30.031
1812	30.1787
1808	30.2577
1804	30.2842
1800	30.2997
1796	30.336
1792	30.382
1788	30.4384
1784	30.4978
1780	30.581
1776	30.6979
1772	30.7456
1768	30.7322
1764	30.7924
1760	30.8807
1756	30.9191
1752	30.9436
1748	30.9616
1744	30.991
1740	31.0325
1736	31.0581
1732	31.1279
1728	31.2578
1724	31.3424
1720	31.3814
1716	31.4223
1712	31.4401
1708	31.4402
1704	31.4478
1700	31.488
1696	31.567
1692	31.6329
1688	31.6643
1684	31.6517
1680	31.5725
1676	31.5264
1672	31.576
1668	31.6307
1664	31.6512
1660	31.6724
1656	31.7103
1652	31.7511
1648	31.7955
1644	31.8484
1640	31.891
1636	31.9562
1632	32.0357
1628	32.0591
1624	32.0067
1620	31.9325
1616	31.913
1612	31.9434
1608	31.9962
1604	32.0501
1600	32.0905
1596	32.1713
1592	32.2339
1588	32.2277
1584	32.2156
1580	32.2322
1576	32.2815
1572	32.3251
1568	32.3467
1564	32.3454
1560	32.3075
1556	32.2902
1552	32.3263
1548	32.364
1544	32.3977
1540	32.4581
1536	32.4996
1532	32.5013
1528	32.5058
1524	32.5297
1520	32.5625
1516	32.5932
1512	32.5729
1508	32.4925
1504	32.4406
1500	32.411
1496	32.3562
1492	32.3832
1488	32.5153
1484	32.5947
1480	32.5945
1476	32.6202
1472	32.7034
1468	32.7019
1464	32.5943
1460	32.5596
1456	32.5886
1452	32.6064
1448	32.5943
1444	32.5537
1440	32.5685
1436	32.5838
1432	32.5626
1428	32.608
1424	32.684
1420	32.6751
1416	32.6624
1412	32.7432
1408	32.7973
1404	32.7563
1400	32.6675
1396	32.5823
1392	32.5311
1388	32.4982
1384	32.492
1380	32.5228
1376	32.5607
1372	32.5745
1368	32.583
1364	32.6393
1360	32.7361
1356	32.817
1352	32.8501
1348	32.7994
1344	32.7388
1340	32.7627
1336	32.79
1332	32.7602
1328	32.722
1324	32.7161
1320	32.7106
1316	32.7143
1312	32.7523
1308	32.7349
1304	32.6335
1300	32.5727
1296	32.6187
1292	32.674
1288	32.7159
1284	32.7682
1280	32.7379
1276	32.6742
1272	32.6676
1268	32.6327
1264	32.5752
1260	32.5451
1256	32.4976
1252	32.4755
1248	32.5246
1244	32.5577
1240	32.5586
1236	32.6187
1232	32.7097
1228	32.7247
1224	32.6743
1220	32.6478
1216	32.5962
1212	32.4686
1208	32.3903
1204	32.3356
1200	32.2215
1196	32.1823
1192	32.2436
1188	32.2958
1184	32.3482
1180	32.3606
1176	32.3335
1172	32.3477
1168	32.3827
1164	32.372
1160	32.3187
1156	32.2444
1152	32.1492
1148	32.0995
1144	32.1448
1140	32.12
1136	31.9838
1132	31.912
1128	31.9252
1124	31.9382
1120	31.9192
1116	31.9224
1112	32.0022
1108	32.0494
1104	31.9614
1100	31.7821
1096	31.6149
1092	31.5738
1088	31.6245
1084	31.5985
1080	31.4976
1076	31.4014
1072	31.3195
1068	31.3247
1064	31.3805
1060	31.3772
1056	31.4022
1052	31.5427
1048	31.6178
1044	31.5367
1040	31.4257
1036	31.3044
1032	31.1727
1028	31.0536
1024	30.9764
1020	30.9078
1016	30.7621
1012	30.6125
1008	30.5977
1004	30.6691
1000	30.7346
996	 30.856
992	 30.9895
988	 30.9781
984	 30.874
980	 30.7441
976	 30.6046
972	 30.5382
968	 30.5153
964	 30.43
960	 30.3205
956	 30.3451
952	 30.4137
948	 30.2963
944	 30.1238
940	 30.0814
936	 30.0763
932	 30.1244
928	 30.1717
924	 30.0564
920	 29.9178
916	 29.8312
912	 29.7109
908	 29.5494
904	 29.3936
900	 29.2885
896	 29.2183
892	 29.1854
888	 29.1925
884	 29.2066
880	 29.2287
876	 29.2278
872	 29.1839
868	 29.1543
864	 29.1075
860	 29.0201
856	 28.9136
852	 28.7927
848	 28.7186
844	 28.6568
840	 28.6038
836	 28.5617
832	 28.3666
828	 28.0937
824	 28.0269
820	 28.1729
816	 28.3393
812	 28.4395
808	 28.3758
804	 28.1473
800	 27.9175
796	 27.7371
792	 27.6464
788	 27.6489
784	 27.6402
780	 27.5696
776	 27.45
772	 27.376
768	 27.3334
764	 27.2864
760	 27.3821
756	 27.5275
752	 27.4667
748	 27.2859
744	 27.141
740	 27.0877
736	 27.0632
732	 26.9189
728	 26.7
724	 26.5456
720	 26.4692
716	 26.3619
712	 26.1989
708	 26.0469
704	 25.9688
700	 26.0689
696	 26.3213
692	 26.5013
688	 26.4187
684	 26.1888
680	 26.079
676	 26.0299
672	 25.8131
668	 25.5269
664	 25.4076
660	 25.335
656	 25.2107
652	 25.2462
648	 25.3738
644	 25.3138
640	 25.1563
636	 25.2324
632	 25.4471
628	 25.4679
624	 25.3996
620	 25.2898
616	 24.9312
612	 24.3931
608	 24.0493
604	 24.0778
600	 24.1223
596	 23.9451
592	 23.7432
588	 23.7747
584	 24.1517
580	 24.4497
576	 24.2689
572	 24.0383
568	 24.0712
564	 24.113
560	 24.1375
556	 24.3003
552	 24.3491
548	 24.0262
544	 23.5752
540	 23.311
536	 23.1969
532	 23.111
528	 23.0845
524	 23.1904
520	 23.3865
516	 23.418
512	 23.3471
508	 23.3629
504	 23.2709
500	 23.005
496	 22.8683
492	 23.0154
488	 23.0401
484	 22.465
480	 21.9085
476	 22.0228
472	 21.699
468	 20.8923
464	 20.9775
460	 21.5393
456	 21.9155
452	 22.0259
448	 21.8346
444	 22.0752
440	 22.3642
436	 22.3328
432	 22.4858
428	 22.2983
424	 21.0775
420	 19.9642
416	 21.1681
412	 22.6779
408	 20.5917
404	 16.5985
400	 15.0947
396	 14.9806
392	 14.6788
388	 16.6936
384	 19.7906
380	 22.6506
376	 29.1374
372	 33.503
370	 28.6866