File: Bakgrunnsmateriale/MATLAB/FTIR/ftir_data/LPE453/Mapping_121/LPE453_t42_cm-1.asc
PE IR       SPECTRUM    SPECTRUM    ASCII       PEDS        1.60
  -1
LP5950~1.ASC
17/05/16
17:45:30.00
17/05/16
17:45:30.00
tln
$LPE453_t0042$<tbV0>[-7.8,-5.2,8.0,0.0,27,1,0]
370
64

2002,4.07
MIRTGS : RIGHTBACK : INTERNAL 2
MIR : ON : INTERNAL 2
OPTKBR

0.200000
8
8.000000
FILLER
RATIO
SPECTRUM
UNLOCKED 256

DOUBLE
64
COMBINED
1
0
0

1.000000
RATIO

1
0
TRUE
51149
0
LEFT NOT FITTED RIGHT NOT FITTED 0
NONE
NONE
15600
12
4.427000
51148
TRUE
1 0 8 72 0 0 0 0

15798

#HDR
-1
-1
#GR
CM-1
%T
2.38419e-05
0.0
5000
-1.000000
4631
8
46.9136
-1.813125
#DATA
5000	0.288605
4996	0.257849
4992	0.329160
4988	0.310611
4984	0.312972
4980	0.247216
4976	0.224590
4972	0.151348
4968	-0.054597
4964	0.035214
4960	0.191736
4956	0.065660
4952	-0.114560
4948	-0.118350
4944	0.027894
4940	0.172972
4936	0.229454
4932	0.233745
4928	0.141882
4924	0.197172
4920	0.551748
4916	0.657248
4912	0.452518
4908	0.295829
4904	0.231862
4900	0.274419
4896	0.314736
4892	0.170016
4888	0.105404
4884	0.434875
4880	0.651860
4876	0.570511
4872	0.606012
4868	0.530886
4864	0.294137
4860	0.224685
4856	0.356674
4852	0.269818
4848	-0.037932
4844	-0.035643
4840	0.205731
4836	0.365352
4832	0.306081
4828	0.231289
4824	0.204658
4820	-0.034093
4816	-0.121784
4812	0.057268
4808	0.160264
4804	0.254583
4800	0.461077
4796	0.567030
4792	0.271749
4788	-0.213456
4784	-0.539278
4780	-0.612688
4776	-0.430011
4772	-0.090503
4768	0.170588
4764	0.208330
4760	0.181794
4756	0.173735
4752	0.167107
4748	0.161504
4744	0.013113
4740	-0.163769
4736	-0.082826
4732	0.138711
4728	0.313210
4724	0.363945
4720	0.287866
4716	0.215435
4712	0.443530
4708	0.666952
4704	0.481891
4700	0.389146
4696	0.468492
4692	0.456690
4688	0.477170
4684	0.535106
4680	0.662183
4676	0.890398
4672	1.008868
4668	0.944304
4664	0.845456
4660	0.750279
4656	0.831103
4652	1.089310
4648	1.136541
4644	0.961756
4640	0.843930
4636	0.800991
4632	0.663971
4628	0.565218
4624	0.710082
4620	0.790882
4616	0.646257
4612	0.479292
4608	0.395488
4604	0.288748
4600	0.041770
4596	-0.182247
4592	-0.388455
4588	-0.458312
4584	-0.338029
4580	-0.591564
4576	-1.075959
4572	-1.380491
4568	-1.388907
4564	-1.328063
4560	-1.291990
4556	-1.076316
4552	-0.568294
4548	-0.420904
4544	-0.616025
4540	-1.111817
4536	-1.202201
4532	0.050663
4528	3.149175
4524	11.9996
4520	30.0636
4516	44.1893
4512	34.3338
4508	11.8172
4504	1.365256
4500	-0.654435
4496	-1.770329
4492	-1.627254
4488	-1.523137
4484	-1.499319
4480	-1.520919
4476	-1.427340
4472	-1.010656
4468	-0.782942
4464	-1.048707
4460	-1.035594
4456	-0.945591
4452	-0.918483
4448	-0.578904
4444	-0.495767
4440	-0.821208
4436	-0.981903
4432	-0.903081
4428	-0.736618
4424	-0.574445
4420	-0.476336
4416	-0.402569
4412	-0.193881
4408	0.153493
4404	0.463461
4400	0.570845
4396	0.448393
4392	0.382614
4388	0.603914
4384	0.750780
4380	0.686240
4376	0.522875
4372	0.305151
4368	0.131201
4364	-0.114631
4360	-0.283098
4356	-0.108480
4352	0.111484
4348	0.151705
4344	0.186514
4340	0.159406
4336	0.164771
4332	0.316810
4328	0.365948
4324	0.325894
4320	0.354862
4316	0.374722
4312	0.273728
4308	0.118732
4304	0.164508
4300	0.380182
4296	0.450348
4292	0.300288
4288	0.086164
4284	0.038075
4280	0.083971
4276	0.018167
4272	0.033307
4268	0.158071
4264	0.200152
4260	0.174117
4256	0.250601
4252	0.410509
4248	0.385665
4244	0.320267
4240	0.421452
4236	0.469517
4232	0.420212
4228	0.436043
4224	0.495767
4220	0.525975
4216	0.427865
4212	0.222063
4208	0.121426
4204	0.176787
4200	0.284290
4196	0.374746
4192	0.482511
4188	0.517106
4184	0.498509
4180	0.546693
4176	0.482797
4172	0.357007
4168	0.306940
4164	0.129079
4160	0.005459
4156	0.033712
4152	-0.077271
4148	-0.104928
4144	0.041151
4140	-0.030684
4136	-0.273370
4132	-0.339126
4128	-0.254082
4124	-0.105500
4120	0.005006
4116	0.050592
4112	-0.030779
4108	-0.197911
4104	-0.252413
4100	-0.155544
4096	0.005269
4092	0.078558
4088	0.100398
4084	0.207281
4080	0.249862
4076	0.135374
4072	0.053119
4068	0.140690
4064	0.324296
4060	0.407457
4056	0.271296
4052	0.064802
4048	0.020813
4044	0.133633
4040	0.246596
4036	0.273704
4032	0.233912
4028	0.192284
4024	0.213241
4020	0.297927
4016	0.274515
4012	0.126314
4008	0.055813
4004	0.075650
4000	0.112390
3996	0.115990
3992	0.002932
3988	-0.088262
3984	-0.023984
3980	0.038695
3976	-0.010323
3972	-0.033664
3968	0.116229
3964	0.217413
3960	0.114655
3956	0.087547
3952	0.160574
3948	0.167965
3944	0.163125
3940	0.158262
3936	0.167083
3932	0.231385
3928	0.311136
3924	0.281596
3920	0.096726
3916	-0.043606
3912	-0.027513
3908	0.020813
3904	0.062012
3900	0.151538
3896	0.213670
3892	0.093340
3888	-0.100016
3884	-0.094103
3880	-0.015616
3876	0.001788
3872	0.102949
3868	0.199127
3864	0.219225
3860	0.209879
3856	0.131011
3852	0.031089
3848	0.037097
3844	0.120162
3840	0.134611
3836	0.095391
3832	0.116610
3828	0.094366
3824	-0.068378
3820	-0.134658
3816	-0.010490
3812	0.104141
3808	0.141644
3804	0.095272
3800	0.015139
3796	0.015425
3792	0.039339
3788	0.059938
3784	0.147986
3780	0.226712
3776	0.196456
3772	0.100827
3768	-0.035786
3764	-0.124192
3760	-0.063133
3756	0.034046
3752	0.079274
3748	0.059080
3744	0.037527
3740	0.102829
3736	0.112032
3732	0.036358
3728	0.040936
3724	0.072383
3720	0.019741
3716	-0.051474
3712	-0.057864
3708	-0.033259
3704	-0.018620
3700	0.037145
3696	0.139307
3692	0.218510
3688	0.206232
3684	0.121188
3680	0.095725
3676	0.094056
3672	0.049805
3668	-0.019764
3664	-0.168704
3660	-0.263285
3656	-0.219821
3652	-0.111627
3648	0.013852
3644	0.083088
3640	0.081729
3636	0.046253
3632	0.054907
3628	0.066256
3624	-0.017666
3620	-0.111317
3616	-0.082325
3612	-0.004434
3608	-0.017476
3604	-0.014138
3600	0.088167
3596	0.160980
3592	0.091266
3588	-0.041556
3584	-0.054335
3580	-0.009751
3576	-0.010561
3572	0.049448
3568	0.044608
3564	-0.040721
3560	0.030112
3556	0.127696
3552	0.056362
3548	-0.030708
3544	-0.055670
3540	-0.057482
3536	-0.028729
3532	-0.037050
3528	-0.064253
3524	-0.093364
3520	-0.087523
3516	0.020289
3512	0.105643
3508	0.072479
3504	0.023841
3500	-0.019741
3496	0.001502
3492	0.119066
3488	0.156354
3484	0.136017
3480	0.133681
3476	0.141048
3472	0.198507
3468	0.151252
3464	-0.015497
3460	-0.044679
3456	-0.025725
3452	0.007963
3448	0.172853
3444	0.230312
3440	0.100111
3436	0.003027
3432	-0.020503
3428	-0.004172
3424	0.047659
3420	0.071930
3416	0.063681
3412	0.058364
3408	0.016736
3404	0.002551
3400	0.073981
3396	0.071811
3392	-0.015568
3388	-0.063490
3384	-0.039434
3380	0.055193
3376	0.167226
3372	0.202655
3368	0.147724
3364	0.042533
3360	-0.033211
3356	-0.005388
3352	0.087070
3348	0.211501
3344	0.312042
3340	0.314640
3336	0.221300
3332	0.124073
3328	0.097060
3324	0.114059
3320	0.108623
3316	0.054550
3312	0.034022
3308	0.012898
3304	-0.055527
3300	-0.051331
3296	0.017333
3292	0.059771
3288	0.057172
3284	0.041294
3280	0.068044
3276	0.114893
3272	0.150847
3268	0.167584
3264	0.055480
3260	-0.070905
3256	-0.042462
3252	-0.036120
3248	-0.086522
3244	-0.064802
3240	-0.032091
3236	-0.082755
3232	-0.155806
3228	-0.134706
3224	0.024390
3220	0.168323
3216	0.141143
3212	0.000023
3208	-0.134921
3204	-0.145721
3200	-0.061154
3196	0.009775
3192	0.080418
3188	0.127363
3184	0.104951
3180	0.018191
3176	-0.082445
3172	-0.070285
3168	0.033879
3164	0.082516
3160	0.084352
3156	0.136709
3152	0.169610
3148	0.088405
3144	-0.022006
3140	-0.072360
3136	0.013971
3132	0.198531
3128	0.164318
3124	-0.049996
3120	-0.151538
3116	-0.124597
3112	0.065851
3108	0.241541
3104	0.169038
3100	0.039219
3096	0.001835
3092	-0.005650
3088	-0.011658
3084	0.027847
3080	0.109529
3076	0.127530
3072	0.078392
3068	0.030541
3064	-0.013232
3060	-0.011277
3056	0.022387
3052	-0.015950
3048	-0.075554
3044	-0.050592
3040	0.005555
3036	0.007200
3032	-0.034475
3028	0.004863
3024	0.064325
3020	-0.000691
3016	-0.035452
3012	-0.002551
3008	-0.004887
3004	-0.023889
3000	-0.061416
2996	-0.083851
2992	-0.049781
2988	0.065398
2984	0.188708
2980	0.188827
2976	0.110626
2972	0.053906
2968	0.020408
2964	-0.006198
2960	0.032329
2956	0.128388
2952	0.168728
2948	0.091361
2944	0.014519
2940	0.054168
2936	0.079774
2932	0.017237
2928	0.013518
2924	0.081682
2920	0.071406
2916	0.016927
2912	0.023460
2908	0.036430
2904	0.009012
2900	0.011968
2896	0.010156
2892	-0.066637
2888	-0.091862
2884	-0.047993
2880	-0.017523
2876	0.079894
2872	0.246453
2868	0.296425
2864	0.152850
2860	-0.018382
2856	-0.127816
2852	-0.135087
2848	-0.036692
2844	0.017881
2840	0.049066
2836	0.114440
2832	0.128841
2828	0.097680
2824	0.102043
2820	0.131750
2816	0.116372
2812	0.048184
2808	0.018000
2804	0.064826
2800	0.120997
2796	0.130915
2792	0.116395
2788	0.090074
2784	0.061678
2780	0.054025
2776	0.017428
2772	-0.006341
2768	0.030755
2764	0.050902
2760	0.024938
2756	0.006508
2752	0.001025
2748	-0.048446
2744	-0.058412
2740	0.043535
2736	0.123333
2732	0.096678
2728	0.020098
2724	-0.042319
2720	-0.061631
2716	-0.051116
2712	-0.025820
2708	0.017762
2704	0.013971
2700	-0.087475
2696	-0.141286
2692	-0.071501
2688	0.011777
2684	0.037407
2680	0.017762
2676	0.001120
2672	0.030422
2668	0.017094
2664	-0.052118
2660	-0.055813
2656	-0.045299
2652	-0.029253
2648	0.043988
2644	0.082588
2640	0.075364
2636	0.071883
2632	0.091052
2628	0.094938
2624	0.036430
2620	-0.026988
2616	-0.036573
2612	-0.003337
2608	0.017166
2604	0.005435
2600	0.007677
2596	0.027036
2592	0.012350
2588	-0.031518
2584	-0.047636
2580	-0.037932
2576	-0.005197
2572	0.051474
2568	0.066733
2564	0.011849
2560	-0.039291
2556	-0.039887
2552	-0.009131
2548	0.035810
2544	0.098180
2540	0.136041
2536	0.125575
2532	0.112986
2528	0.039720
2524	-0.047802
2520	0.028824
2516	0.125312
2512	0.084018
2508	0.050926
2504	0.121712
2500	0.151801
2496	0.044679
2492	-0.024271
2488	0.000071
2484	0.001740
2480	0.019192
2476	0.048542
2472	0.022482
2468	-0.028061
2464	-0.024199
2460	0.038862
2456	0.083065
2452	0.090479
2448	0.043058
2444	-0.015592
2440	-0.010156
2436	0.052762
2432	0.138306
2428	0.155162
2424	0.100755
2420	0.009369
2416	-0.065469
2412	0.052547
2408	0.251650
2404	0.229835
2400	0.048804
2396	-0.054049
2392	-0.073194
2388	-0.063133
2384	-0.002789
2380	0.068449
2376	0.128078
2372	0.157260
2368	0.134444
2364	0.099897
2360	0.091910
2356	0.107288
2352	0.122308
2348	0.114250
2344	0.086331
2340	0.112414
2336	0.217580
2332	0.302600
2328	0.331568
2324	0.372409
2320	0.441265
2316	0.458383
2312	0.431823
2308	0.492262
2304	0.614333
2300	0.670552
2296	0.677609
2292	0.692486
2288	0.734329
2284	0.834465
2280	0.958800
2276	1.051259
2272	1.153802
2268	1.277875
2264	1.357436
2260	1.464462
2256	1.673865
2252	1.879930
2248	2.077484
2244	2.305126
2240	2.488946
2236	2.640819
2232	2.854895
2228	3.096652
2224	3.302741
2220	3.548336
2216	3.843903
2212	4.117488
2208	4.375410
2204	4.647707
2200	4.977989
2196	5.380272
2192	5.767893
2188	6.134462
2184	6.549048
2180	6.998181
2176	7.440280
2172	7.843112
2168	8.264803
2164	8.774638
2160	9.243083
2156	9.603548
2152	10.0034
2148	10.4992
2144	11.0369
2140	11.6167
2136	12.1978
2132	12.7043
2128	13.1787
2124	13.699
2120	14.2592
2116	14.8294
2112	15.4082
2108	15.957
2104	16.4418
2100	16.9508
2096	17.4887
2092	17.9951
2088	18.5264
2084	19.09
2080	19.658
2076	20.151
2072	20.5887
2068	21.0827
2064	21.5973
2060	22.1748
2056	22.7369
2052	23.1847
2048	23.5708
2044	23.947
2040	24.4001
2036	24.8859
2032	25.3029
2028	25.6565
2024	26.0731
2020	26.5567
2016	26.9922
2012	27.3864
2008	27.7261
2004	28.0101
2000	28.3106
1996	28.6258
1992	28.8937
1988	29.1547
1984	29.493
1980	29.8507
1976	30.1377
1972	30.4014
1968	30.6945
1964	30.949
1960	31.1465
1956	31.3645
1952	31.6274
1948	31.8954
1944	32.1358
1940	32.3506
1936	32.5232
1932	32.6526
1928	32.7965
1924	32.9806
1920	33.132
1916	33.2729
1912	33.5101
1908	33.7509
1904	33.9182
1900	34.0516
1896	34.1618
1892	34.2606
1888	34.34
1884	34.42
1880	34.5193
1876	34.6342
1872	34.7709
1868	34.8788
1864	34.9562
1860	35.0868
1856	35.2648
1852	35.4334
1848	35.5543
1844	35.592
1840	35.5626
1836	35.5596
1832	35.6642
1828	35.7849
1824	35.8307
1820	35.8516
1816	35.8787
1812	35.8866
1808	35.9478
1804	36.1013
1800	36.2032
1796	36.2129
1792	36.245
1788	36.3016
1784	36.3053
1780	36.2852
1776	36.286
1772	36.3258
1768	36.3612
1764	36.391
1760	36.4854
1756	36.548
1752	36.5097
1748	36.4841
1744	36.5453
1740	36.6384
1736	36.6837
1732	36.7016
1728	36.7679
1724	36.7855
1720	36.7207
1716	36.7028
1712	36.7019
1708	36.696
1704	36.7111
1700	36.7493
1696	36.7904
1692	36.7754
1688	36.7665
1684	36.7949
1680	36.8066
1676	36.8349
1672	36.8605
1668	36.8502
1664	36.8468
1660	36.8644
1656	36.8704
1652	36.8404
1648	36.8373
1644	36.8726
1640	36.9084
1636	36.9446
1632	36.937
1628	36.8808
1624	36.8576
1620	36.8899
1616	36.9158
1612	36.894
1608	36.841
1604	36.8129
1600	36.8164
1596	36.801
1592	36.7537
1588	36.7144
1584	36.7879
1580	36.8913
1576	36.8912
1572	36.8442
1568	36.794
1564	36.7764
1560	36.805
1556	36.8412
1552	36.8658
1548	36.911
1544	36.9333
1540	36.8894
1536	36.8532
1532	36.8461
1528	36.8286
1524	36.8201
1520	36.865
1516	36.8739
1512	36.8002
1508	36.7557
1504	36.8217
1500	36.9506
1496	36.9473
1492	36.8117
1488	36.7861
1484	36.7986
1480	36.6897
1476	36.5495
1472	36.5509
1468	36.6284
1464	36.6326
1460	36.6101
1456	36.6496
1452	36.7043
1448	36.6955
1444	36.673
1440	36.674
1436	36.6326
1432	36.5665
1428	36.5407
1424	36.5331
1420	36.5155
1416	36.5354
1412	36.5688
1408	36.4685
1404	36.296
1400	36.2966
1396	36.4367
1392	36.511
1388	36.5049
1384	36.5014
1380	36.4979
1376	36.4907
1372	36.4908
1368	36.4659
1364	36.4128
1360	36.355
1356	36.303
1352	36.2501
1348	36.1847
1344	36.1753
1340	36.2579
1336	36.2814
1332	36.2553
1328	36.3302
1324	36.4537
1320	36.5165
1316	36.4894
1312	36.4081
1308	36.2992
1304	36.1851
1300	36.1207
1296	36.1295
1292	36.1688
1288	36.1751
1284	36.165
1280	36.1725
1276	36.1958
1272	36.2104
1268	36.1934
1264	36.1628
1260	36.1142
1256	36.0543
1252	35.9828
1248	35.9155
1244	35.8762
1240	35.8284
1236	35.7907
1232	35.7798
1228	35.78
1224	35.797
1220	35.8208
1216	35.877
1212	35.9421
1208	35.9422
1204	35.8999
1200	35.884
1196	35.8836
1192	35.8523
1188	35.8025
1184	35.7424
1180	35.6844
1176	35.6481
1172	35.5959
1168	35.6153
1164	35.6913
1160	35.7029
1156	35.7161
1152	35.7458
1148	35.8115
1144	35.9095
1140	35.8961
1136	35.7352
1132	35.5278
1128	35.3842
1124	35.3412
1120	35.341
1116	35.3423
1112	35.3466
1108	35.2319
1104	35.1324
1100	35.2878
1096	35.4562
1092	35.5389
1088	35.5619
1084	35.4249
1080	35.3241
1076	35.3253
1072	35.264
1068	35.1632
1064	35.0944
1060	35.0276
1056	34.8937
1052	34.7685
1048	34.8626
1044	35.0489
1040	35.0875
1036	35.1023
1032	35.1452
1028	35.1632
1024	35.2754
1020	35.2811
1016	34.936
1012	34.6147
1008	34.5307
1004	34.45
1000	34.3585
996	 34.3929
992	 34.4616
988	 34.4879
984	 34.602
980	 34.7966
976	 34.9123
972	 34.9169
968	 34.8029
964	 34.623
960	 34.5641
956	 34.5405
952	 34.4224
948	 34.2929
944	 34.1596
940	 34.0162
936	 33.9339
932	 34.0239
928	 34.1963
924	 34.2039
920	 34.058
916	 33.9724
912	 33.9833
908	 34.0269
904	 34.0973
900	 34.1031
896	 34.0143
892	 33.8093
888	 33.4377
884	 33.197
880	 33.2704
876	 33.3363
872	 33.3134
868	 33.2855
864	 33.3206
860	 33.5742
856	 33.8202
852	 33.8251
848	 33.7375
844	 33.6124
840	 33.38
836	 33.0377
832	 32.7181
828	 32.5403
824	 32.3853
820	 32.315
816	 32.4558
812	 32.6022
808	 32.667
804	 32.7299
800	 32.8308
796	 32.9013
792	 32.8374
788	 32.7024
784	 32.5643
780	 32.4172
776	 32.2427
772	 32.1381
768	 32.06
764	 31.8391
760	 31.5682
756	 31.4698
752	 31.6134
748	 31.7395
744	 31.8137
740	 31.9079
736	 31.9745
732	 32.0813
728	 32.0829
724	 31.8229
720	 31.4965
716	 31.3061
712	 31.1252
708	 30.9953
704	 31.0771
700	 31.0457
696	 30.8264
692	 30.7298
688	 30.7138
684	 30.8043
680	 30.9984
676	 30.9641
672	 30.6577
668	 30.3938
664	 30.3233
660	 30.1979
656	 29.9727
652	 29.7989
648	 29.6052
644	 29.4578
640	 29.4521
636	 29.3766
632	 29.2923
628	 29.4383
624	 29.5301
620	 29.5917
616	 29.6804
612	 29.3093
608	 28.8057
604	 28.7164
600	 28.591
596	 28.1805
592	 27.8137
588	 27.65
584	 27.668
580	 27.7928
576	 27.9975
572	 28.2299
568	 28.3972
564	 28.4091
560	 28.1703
556	 27.7352
552	 27.3818
548	 27.4667
544	 27.8063
540	 27.901
536	 27.6562
532	 27.302
528	 27.0085
524	 26.8003
520	 26.598
516	 26.2762
512	 26.1996
508	 26.6883
504	 27.0231
500	 26.6678
496	 26.356
492	 26.2146
488	 25.6931
484	 25.2027
480	 25.1321
476	 25.2962
472	 25.3291
468	 25.0819
464	 24.5891
460	 24.4276
456	 25.4091
452	 25.9683
448	 24.6981
444	 23.3591
440	 22.7084
436	 22.5738
432	 23.6403
428	 25.0295
424	 25.108
420	 23.1967
416	 19.4685
412	 16.0751
408	 14.6004
404	 13.271
400	 8.915114
396	 6.708002
392	 15.537
388	 28.9899
384	 36.8527
380	 39.6801
376	 38.669
372	 43.2726
370	 46.9136