File: Bakgrunnsmateriale/MATLAB/FTIR/ftir_data/LPE453/Mapping_121/LPE453_t21.asc
PE IR       SPECTRUM    SPECTRUM    ASCII       PEDS        1.60
  -1
LPCB9D~1.ASC
17/05/16
16:00:54.00
17/05/16
16:01:20.00
tln
$LPE453_t0021$<tbV0>[-10.4,-10.4,8.0,0.0,27,1,0]
27.028
64

2002,4.07
MIRTGS : RIGHTBACK : INTERNAL 2
MIR : ON : INTERNAL 2
OPTKBR

0.200000
8
8.000000
FILLER
RATIO
SPECTRUM
UNLOCKED 256

DOUBLE
64
COMBINED
1
0
0

0.002000
RATIO

1
0
TRUE
51149
0
LEFT NOT FITTED RIGHT NOT FITTED 0
NONE
NONE
15600
12
4.427000
51148
TRUE
1 0 8 72 0 0 0 0

15798

#HDR
-1
-1
#GR
µM
%T
2.38419e-05
0.0
2.000000
0.002000
12515
8
41.0909
-12.7726
#DATA
2.000000	 0.202107
2.018000	 1.097085
2.036000	 0.462739
2.054000	 0.618067
2.072000	 0.073385
2.090000	 0.238377
2.108000	 -0.008437
2.126000	 0.294792
2.144000	 0.651824
2.162000	 1.334644
2.180000	 -0.240115
2.198000	 -1.188539
2.216000	 41.0909
2.234000	 -1.502792
2.252000	 -0.807153
2.270000	 0.504243
2.288000	 0.724161
2.306000	 0.221397
2.324000	 0.133280
2.342000	 -0.110398
2.360000	 0.211860
2.378000	 0.150411
2.396000	 -0.097680
2.414000	 0.367944
2.432000	 -0.057034
2.450000	 0.080133
2.468000	 0.146471
2.486000	 0.233190
2.504000	 0.217205
2.522000	 0.270263
2.540000	 0.298547
2.558000	 -0.157905
2.576000	 0.045762
2.594000	 0.101009
2.612000	 0.062293
2.630000	 0.043614
2.648000	 0.109830
2.666000	 0.045506
2.684000	 0.069410
2.702000	 0.060836
2.720000	 0.204393
2.738000	 0.147092
2.756000	 0.073206
2.774000	 -0.046951
2.792000	 -0.015848
2.810000	 0.044559
2.828000	 0.050136
2.846000	 -0.064096
2.864000	 0.079513
2.882000	 0.044065
2.900000	 -0.001387
2.918000	 0.021781
2.936000	 0.095050
2.954000	 0.209788
2.972000	 0.105590
2.990000	 -0.089475
3.008000	 0.159501
3.026000	 0.112119
3.044000	 0.151235
3.062000	 0.201381
3.080000	 0.096301
3.098000	 0.167133
3.116000	 0.082652
3.134000	 -0.007475
3.152000	 -0.035240
3.170000	 0.061095
3.188000	 0.094941
3.206000	 0.076279
3.224000	 0.148838
3.242000	 -0.061012
3.260000	 0.042451
3.278000	 0.127186
3.296000	 0.015997
3.314000	 0.090372
3.332000	 -0.027179
3.350000	 -0.128822
3.368000	 -0.062704
3.386000	 0.086010
3.404000	 0.011560
3.422000	 0.113806
3.440000	 0.086360
3.458000	 0.083389
3.476000	 0.050070
3.494000	 0.161011
3.512000	 0.172450
3.530000	 0.108600
3.548000	 0.024366
3.566000	 0.032298
3.584000	 0.061718
3.602000	 0.036023
3.620000	 -0.093230
3.638000	 0.067635
3.656000	 0.167581
3.674000	 0.107531
3.692000	 0.050513
3.710000	 -0.016560
3.728000	 0.051899
3.746000	 0.119843
3.764000	 0.078439
3.782000	 0.033742
3.800000	 0.036541
3.818000	 0.118853
3.836000	 0.055858
3.854000	 0.009119
3.872000	 0.027239
3.890000	 0.009817
3.908000	 -0.054263
3.926000	 -0.011446
3.944000	 0.037006
3.962000	 0.175809
3.980000	 -0.111221
3.998000	 0.282003
4.016000	 0.124144
4.034000	 0.018013
4.052000	 0.018427
4.070000	 0.154916
4.088000	 0.096463
4.106000	 0.294422
4.124000	 0.341499
4.141999	 0.177431
4.160000	 0.153898
4.178000	 0.147290
4.196000	 0.203175
4.214000	 0.150945
4.232000	 0.263332
4.250000	 0.139283
4.268000	 0.235226
4.286000	 0.422385
4.304000	 0.453023
4.322000	 0.538686
4.340000	 0.651193
4.358000	 0.802891
4.375999	 0.914255
4.394000	 1.126447
4.412000	 1.447204
4.430000	 1.690892
4.448000	 2.154983
4.466000	 2.500723
4.484000	 2.834077
4.502000	 3.435581
4.520000	 4.031600
4.538000	 4.617738
4.556000	 5.353592
4.574000	 6.182640
4.592000	 6.804464
4.609999	 7.683346
4.628000	 8.398690
4.646000	 9.593023
4.664000	 10.5067
4.682000	 11.4916
4.700000	 12.4805
4.718000	 13.4556
4.736000	 14.3801
4.754000	 15.5198
4.772000	 16.5487
4.790000	 17.4521
4.808000	 18.6109
4.826000	 19.3976
4.843999	 20.3074
4.862000	 21.4954
4.880000	 22.0525
4.898000	 22.8476
4.916000	 23.6751
4.934000	 24.4109
4.952000	 25.1046
4.970000	 25.8128
4.988000	 26.4437
5.006000	 27.0073
5.024000	 27.5772
5.042000	 28.1546
5.060000	 28.6683
5.077999	 29.1024
5.096000	 29.4579
5.114000	 29.9954
5.132000	 30.4312
5.150000	 30.8249
5.168000	 31.0906
5.186000	 31.5051
5.204000	 31.8952
5.222000	 32.1612
5.240000	 32.4478
5.258000	 32.6258
5.276000	 32.792
5.294000	 32.9897
5.312000	 33.2223
5.330000	 33.3744
5.348000	 33.4994
5.366000	 33.8083
5.384000	 34.0548
5.402000	 34.1973
5.420000	 34.2769
5.438000	 34.3613
5.456000	 34.4553
5.474000	 34.6122
5.492000	 34.7244
5.510000	 34.9524
5.528000	 35.0724
5.546000	 35.0484
5.564000	 35.1944
5.582000	 35.2355
5.600000	 35.2863
5.618000	 35.3547
5.636000	 35.5171
5.654000	 35.5193
5.672000	 35.5535
5.690000	 35.5895
5.708000	 35.6401
5.726000	 35.7883
5.744000	 35.9765
5.762000	 36.0791
5.780000	 35.8968
5.798000	 35.7584
5.816000	 35.9137
5.834000	 35.9194
5.852000	 35.7962
5.870000	 36.0146
5.888000	 36.314
5.906000	 36.1782
5.923999	 36.1123
5.942000	 36.1646
5.960000	 36.1151
5.978000	 36.217
5.996000	 36.2149
6.014000	 36.1647
6.032000	 36.256
6.050000	 36.3208
6.068000	 36.1621
6.086000	 36.0462
6.104000	 36.0447
6.122000	 36.0575
6.140000	 36.0711
6.158000	 36.1213
6.176000	 36.2453
6.194000	 36.2511
6.212000	 36.0837
6.230000	 36.0471
6.248000	 36.0731
6.266000	 36.0187
6.284000	 35.9328
6.302000	 35.9301
6.320000	 36.0042
6.338000	 36.0546
6.356000	 36.0984
6.374000	 36.1216
6.392000	 36.1654
6.410000	 36.3078
6.428000	 36.3095
6.446000	 36.1651
6.464000	 36.1556
6.482000	 36.283
6.500000	 36.2434
6.518000	 36.0851
6.536000	 36.0123
6.554000	 36.0188
6.572000	 36.0676
6.590000	 36.0704
6.608000	 36.0675
6.626000	 36.1517
6.644000	 36.1941
6.662000	 36.1482
6.680000	 36.1548
6.698000	 36.1275
6.716000	 36.0073
6.734000	 35.9193
6.752000	 35.8678
6.770000	 35.8125
6.788000	 35.756
6.806000	 35.7248
6.824000	 35.7344
6.842000	 35.7344
6.860000	 35.6505
6.878000	 35.6462
6.896000	 35.9078
6.914000	 36.108
6.932000	 36.0295
6.950000	 35.9017
6.968000	 35.8198
6.986000	 35.7436
7.004000	 35.7124
7.022000	 35.7344
7.040000	 35.7354
7.058000	 35.6928
7.076000	 35.6447
7.094000	 35.5617
7.112000	 35.4342
7.130000	 35.3714
7.148000	 35.4156
7.166000	 35.4791
7.184000	 35.5334
7.202000	 35.5888
7.220000	 35.5963
7.238000	 35.5828
7.256000	 35.6348
7.274000	 35.7278
7.292000	 35.7873
7.310000	 35.759
7.328000	 35.6306
7.346000	 35.486
7.364000	 35.389
7.382000	 35.2909
7.400000	 35.182
7.418000	 35.138
7.436000	 35.1698
7.454000	 35.1933
7.472000	 35.1596
7.490000	 35.1242
7.508000	 35.1493
7.526000	 35.2161
7.544000	 35.2883
7.562000	 35.3671
7.580000	 35.4418
7.598000	 35.4869
7.616000	 35.509
7.634000	 35.5176
7.652000	 35.4918
7.670000	 35.4235
7.688000	 35.3436
7.706000	 35.282
7.724000	 35.2283
7.742000	 35.1531
7.760000	 35.0661
7.778000	 35.0167
7.796000	 35.0229
7.814000	 35.0475
7.832000	 35.0583
7.850000	 35.0584
7.868000	 35.0635
7.886000	 35.089
7.904000	 35.1278
7.922000	 35.1484
7.940000	 35.139
7.958000	 35.1228
7.976000	 35.1243
7.994000	 35.1522
8.012000	 35.1986
8.030000	 35.2246
8.048000	 35.1809
8.065999	 35.0718
8.084000	 34.9608
8.102000	 34.8981
8.120000	 34.8761
8.138000	 34.8661
8.155999	 34.8541
8.173999	 34.834
8.192000	 34.8103
8.210000	 34.8114
8.228000	 34.8645
8.246000	 34.9471
8.263999	 35.0057
8.282000	 35.0212
8.300000	 35.0247
8.318000	 35.0485
8.336000	 35.0961
8.353999	 35.1484
8.372000	 35.1755
8.390000	 35.1586
8.408000	 35.1071
8.426000	 35.0465
8.443999	 34.9834
8.462000	 34.9028
8.480000	 34.809
8.498000	 34.7419
8.516000	 34.7288
8.533999	 34.7394
8.552000	 34.7142
8.570000	 34.6339
8.588000	 34.5376
8.606000	 34.4742
8.624000	 34.4635
8.641999	 34.5063
8.660000	 34.5903
8.678000	 34.6847
8.696000	 34.7565
8.714000	 34.7953
8.731999	 34.8166
8.750000	 34.8469
8.768000	 34.9002
8.786000	 34.9603
8.804000	 34.9922
8.821999	 34.9743
8.840000	 34.9166
8.858000	 34.8503
8.876000	 34.7972
8.894000	 34.7515
8.911999	 34.6928
8.930000	 34.6153
8.948000	 34.5324
8.966000	 34.4517
8.984000	 34.3559
9.001999	 34.2256
9.020000	 34.0795
9.038000	 33.9698
9.056000	 33.931
9.074000	 33.9452
9.092000	 33.9702
9.109999	 33.991
9.128000	 34.0324
9.146000	 34.1248
9.164000	 34.2685
9.182000	 34.4301
9.199999	 34.5634
9.218000	 34.6302
9.236000	 34.6173
9.254000	 34.5479
9.272000	 34.4734
9.289999	 34.4418
9.308000	 34.4663
9.326000	 34.5209
9.344000	 34.5692
9.362000	 34.5916
9.379999	 34.5902
9.398000	 34.5721
9.416000	 34.5389
9.434000	 34.4908
9.452000	 34.434
9.469999	 34.3788
9.488000	 34.3293
9.506000	 34.2755
9.524000	 34.2005
9.542000	 34.095
9.560000	 33.9684
9.577999	 33.8473
9.596000	 33.763
9.614000	 33.7374
9.632000	 33.7742
9.650000	 33.8567
9.667999	 33.9533
9.686000	 34.0327
9.704000	 34.0793
9.722000	 34.1009
9.740000	 34.1219
9.757999	 34.1668
9.776000	 34.2433
9.794000	 34.3311
9.812000	 34.3901
9.830000	 34.3876
9.847999	 34.3221
9.866000	 34.2259
9.884000	 34.1452
9.902000	 34.1123
9.920000	 34.1289
9.937999	 34.167
9.956000	 34.1862
9.974000	 34.1558
9.992000	 34.0712
10.01	33.9567
10.028	33.8563
10.046	33.8081
10.064	33.8199
10.082	33.8646
10.1	33.8976
10.118	33.8864
10.136	33.8312
10.154	33.7588
10.172	33.7008
10.19	33.6738
10.208	33.674
10.226	33.6881
10.244	33.7064
10.262	33.7277
10.28	33.7537
10.298	33.7843
10.316	33.8156
10.334	33.8434
10.352	33.8662
10.37	33.8855
10.388	33.904
10.406	33.9231
10.424	33.9451
10.442	33.9734
10.46	34.0132
10.478	34.0682
10.496	34.1346
10.514	34.199
10.532	34.2413
10.55	34.2461
10.568	34.2096
10.586	34.1428
10.604	34.063
10.622	33.9853
10.64	33.9129
10.658	33.839
10.676	33.7527
10.694	33.6489
10.712	33.5314
10.73	33.4104
10.748	33.2975
10.766	33.2006
10.784	33.123
10.802	33.0641
10.82	33.0207
10.838	32.9879
10.856	32.9602
10.874	32.9327
10.892	32.9039
10.91	32.8757
10.928	32.8526
10.946	32.8394
10.964	32.8374
10.982	32.846
11	32.8636
11.018	32.8913
11.036	32.9336
11.054	32.9963
11.072	33.0813
11.09	33.1841
11.108	33.2939
11.126	33.3962
11.144	33.4794
11.162	33.538
11.18	33.5733
11.198	33.5919
11.216	33.601
11.234	33.6054
11.252	33.6067
11.27	33.6032
11.288	33.5916
11.306	33.5688
11.324	33.5319
11.342	33.4793
11.36	33.4114
11.378	33.3308
11.396	33.2423
11.414	33.1527
11.432	33.0684
11.45	32.9933
11.468	32.9276
11.486	32.8683
11.504	32.8106
11.522	32.751
11.54	32.6891
11.558	32.6276
11.576	32.5703
11.594	32.52
11.612	32.4768
11.63	32.4382
11.648	32.4013
11.666	32.3652
11.684	32.3328
11.702	32.3099
11.72	32.3037
11.738	32.3194
11.756	32.3578
11.774	32.4147
11.792	32.4824
11.81	32.5528
11.828	32.6192
11.846	32.6771
11.864	32.7248
11.882	32.7625
11.9	32.7915
11.918	32.8133
11.936	32.8289
11.954	32.8384
11.972	32.8412
11.99	32.837
12.008	32.8272
12.026	32.8148
12.044	32.8049
12.062	32.8032
12.08	32.813
12.098	32.8335
12.116	32.8586
12.134	32.8786
12.152	32.8824
12.17	32.8628
12.188	32.8187
12.206	32.7562
12.224	32.6868
12.242	32.6223
12.26	32.5705
12.278	32.5334
12.296	32.5068
12.314	32.4828
12.332	32.4533
12.35	32.4132
12.368	32.3605
12.386	32.2979
12.404	32.2304
12.422	32.163
12.44	32.0995
12.458	32.0415
12.476	31.9879
12.494	31.9367
12.512	31.8865
12.53	31.8373
12.548	31.791
12.566	31.7506
12.584	31.7191
12.602	31.6985
12.62	31.6888
12.638	31.6882
12.656	31.6946
12.674	31.7062
12.692	31.7233
12.71	31.7473
12.728	31.7815
12.746	31.8286
12.764	31.8903
12.782	31.9657
12.8	32.0513
12.818	32.1421
12.836	32.2321
12.854	32.3164
12.872	32.392
12.89	32.4582
12.908	32.5161
12.926	32.5673
12.944	32.6127
12.962	32.6508
12.98	32.6786
12.998	32.6917
13.016	32.6868
13.034	32.6635
13.052	32.6256
13.07	32.58
13.088	32.536
13.106	32.502
13.124	32.4834
13.142	32.4813
13.16	32.4927
13.178	32.5116
13.196	32.5312
13.214	32.5464
13.232	32.5555
13.25	32.5605
13.268	32.5652
13.286	32.5739
13.304	32.5889
13.322	32.6088
13.34	32.628
13.358	32.6376
13.376	32.6276
13.394	32.5888
13.412	32.5158
13.43	32.4073
13.448	32.2675
13.466	32.1044
13.484	31.929
13.502	31.7529
13.52	31.5873
13.538	31.4417
13.556	31.3227
13.574	31.2339
13.592	31.1761
13.61	31.1473
13.628	31.1435
13.646	31.1587
13.664	31.1858
13.682	31.2171
13.7	31.2457
13.718	31.2659
13.736	31.2749
13.754	31.2712
13.772	31.2571
13.79	31.2367
13.808	31.2154
13.826	31.1983
13.844	31.1894
13.862	31.191
13.88	31.2031
13.898	31.2237
13.916	31.2497
13.934	31.2776
13.952	31.3049
13.97	31.3304
13.988	31.3548
14.006	31.3803
14.024	31.4103
14.042	31.4483
14.06	31.4969
14.078	31.5572
14.096	31.6275
14.114	31.705
14.132	31.7852
14.15	31.8624
14.168	31.9306
14.186	31.9839
14.204	32.0183
14.222	32.0305
14.24	32.0195
14.258	31.9856
14.276	31.9308
14.294	31.8582
14.312	31.7718
14.33	31.6763
14.348	31.5762
14.366	31.4764
14.384	31.3805
14.402	31.2916
14.42	31.211
14.438	31.1389
14.456	31.0745
14.474	31.0158
14.492	30.9603
14.51	30.905
14.528	30.8474
14.546	30.786
14.564	30.7207
14.582	30.6521
14.6	30.582
14.618	30.5128
14.636	30.4476
14.654	30.389
14.672	30.339
14.69	30.299
14.708	30.2694
14.726	30.25
14.744	30.24
14.762	30.2378
14.78	30.2423
14.798	30.2519
14.816	30.2653
14.834	30.2817
14.852	30.2994
14.87	30.3177
14.888	30.3357
14.906	30.3527
14.924	30.3689
14.942	30.3842
14.96	30.3996
14.978	30.4158
14.996	30.4342
15.014	30.456
15.032	30.4828
15.05	30.5154
15.068	30.5538
15.086	30.5971
15.104	30.6439
15.122	30.6917
15.14	30.7376
15.158	30.7791
15.176	30.814
15.194	30.8404
15.212	30.8577
15.23	30.8668
15.248	30.8693
15.266	30.8675
15.284	30.8645
15.302	30.8634
15.32	30.8664
15.338	30.8753
15.356	30.8908
15.374	30.9124
15.392	30.9381
15.41	30.9655
15.428	30.9916
15.446	31.0122
15.464	31.0244
15.482	31.026
15.5	31.0153
15.518	30.9928
15.536	30.9604
15.554	30.9205
15.572	30.8768
15.59	30.8338
15.608	30.795
15.626	30.7632
15.644	30.7407
15.662	30.7276
15.68	30.7227
15.698	30.7242
15.716	30.7287
15.734	30.732
15.752	30.7308
15.77	30.7218
15.788	30.7015
15.806	30.6685
15.824	30.6221
15.842	30.5622
15.86	30.4905
15.878	30.4088
15.896	30.319
15.914	30.2244
15.932	30.1275
15.95	30.0306
15.968	29.9361
15.986	29.8464
16.004	29.7629
16.022	29.6868
16.04	29.6197
16.058	29.5618
16.076	29.5136
16.094	29.4744
16.112	29.4434
16.13	29.4198
16.148	29.4016
16.166	29.3871
16.184	29.3752
16.202	29.3644
16.22	29.3536
16.238	29.3426
16.256	29.3309
16.274	29.3189
16.292	29.3069
16.31	29.2954
16.328	29.285
16.346	29.2761
16.364	29.2689
16.382	29.2632
16.4	29.2589
16.418	29.2557
16.436	29.2534
16.454	29.2518
16.472	29.2511
16.49	29.2515
16.508	29.2537
16.526	29.258
16.544	29.2655
16.562	29.2766
16.58	29.2918
16.598	29.3112
16.616	29.3345
16.634	29.3612
16.652	29.3901
16.67	29.4201
16.688	29.4503
16.706	29.4793
16.724	29.5065
16.742	29.5313
16.76	29.5538
16.778	29.5742
16.796	29.593
16.814	29.6107
16.832	29.6277
16.85	29.644
16.868	29.6592
16.886	29.6731
16.904	29.684
16.922	29.6912
16.94	29.6933
16.958	29.6886
16.976	29.6768
16.994	29.6571
17.012	29.6302
17.03	29.5966
17.048	29.5589
17.066	29.519
17.084	29.4793
17.102	29.4435
17.12	29.4131
17.138	29.3915
17.156	29.3793
17.174	29.3779
17.192	29.3867
17.21	29.4048
17.228	29.4302
17.246	29.4601
17.264	29.4926
17.282	29.5235
17.3	29.5513
17.318	29.5729
17.336	29.5869
17.354	29.5922
17.372	29.5882
17.39	29.5751
17.408	29.5534
17.426	29.5243
17.444	29.4884
17.462	29.4474
17.48	29.4016
17.498	29.3523
17.516	29.2996
17.534	29.2439
17.552	29.1855
17.57	29.1245
17.588	29.0609
17.606	28.9949
17.624	28.9269
17.642	28.8578
17.66	28.7878
17.678	28.7186
17.696	28.6508
17.714	28.586
17.732	28.525
17.75	28.469
17.768	28.4187
17.786	28.3745
17.804	28.3363
17.822	28.3039
17.84	28.2766
17.858	28.2533
17.876	28.233
17.894	28.2144
17.912	28.1967
17.93	28.1785
17.948	28.1595
17.966	28.1389
17.984	28.1167
18.002	28.0929
18.02	28.0681
18.038	28.0423
18.056	28.0165
18.074	27.991
18.092	27.9666
18.11	27.9433
18.128	27.9214
18.146	27.901
18.164	27.8818
18.182	27.8637
18.2	27.8463
18.218	27.8294
18.236	27.8126
18.254	27.796
18.272	27.7795
18.29	27.7634
18.308	27.748
18.326	27.7341
18.344	27.7222
18.362	27.7137
18.38	27.709
18.398	27.7093
18.416	27.715
18.434	27.7267
18.452	27.7442
18.47	27.7678
18.488	27.7959
18.506	27.8283
18.524	27.8627
18.542	27.8988
18.56	27.9335
18.578	27.9664
18.596	27.995
18.614	28.019
18.632	28.0371
18.65	28.0491
18.668	28.0552
18.686	28.0556
18.704	28.0518
18.722	28.0443
18.74	28.0351
18.758	28.0249
18.776	28.0157
18.794	28.0079
18.812	28.003
18.83	28.0008
18.848	28.0018
18.866	28.0055
18.884	28.0118
18.902	28.0201
18.92	28.0294
18.938	28.0394
18.956	28.0492
18.974	28.0587
18.992	28.0672
19.01	28.0752
19.028	28.0826
19.046	28.0902
19.064	28.0986
19.082	28.1083
19.1	28.1205
19.118	28.1352
19.136	28.1534
19.154	28.1747
19.172	28.1989
19.19	28.2256
19.208	28.2535
19.226	28.282
19.244	28.3088
19.262	28.3335
19.28	28.3533
19.298	28.3681
19.316	28.3755
19.334	28.3755
19.352	28.3666
19.37	28.3489
19.388	28.323
19.406	28.2889
19.424	28.2485
19.442	28.2017
19.46	28.1514
19.478	28.0977
19.496	28.043
19.514	27.9879
19.532	27.9337
19.55	27.8814
19.568	27.831
19.586	27.7832
19.604	27.7374
19.622	27.6935
19.64	27.6513
19.658	27.6092
19.676	27.5675
19.694	27.5246
19.712	27.4807
19.73	27.4346
19.748	27.3861
19.766	27.335
19.784	27.2813
19.802	27.225
19.82	27.1662
19.838	27.1053
19.856	27.0428
19.874	26.9787
19.892	26.9136
19.91	26.8476
19.928	26.7807
19.946	26.713
19.964	26.6443
19.982	26.5745
20	26.5033
20.018	26.4304
20.036	26.3558
20.054	26.2792
20.072	26.2008
20.09	26.1212
20.108	26.0403
20.126	25.9596
20.144	25.8789
20.162	25.8005
20.18	25.725
20.198	25.6541
20.216	25.5903
20.234	25.5338
20.252	25.4885
20.27	25.4537
20.288	25.4324
20.306	25.4248
20.324	25.4312
20.342	25.4528
20.36	25.4885
20.378	25.5373
20.396	25.5995
20.414	25.671
20.432	25.7529
20.45	25.8405
20.468	25.9324
20.486	26.0269
20.504	26.119
20.522	26.2097
20.54	26.293
20.558	26.3696
20.576	26.4364
20.594	26.4917
20.612	26.5359
20.63	26.567
20.648	26.5855
20.666	26.5927
20.684	26.5878
20.702	26.5733
20.72	26.5502
20.738	26.5192
20.756	26.4846
20.774	26.4453
20.792	26.4059
20.81	26.3668
20.828	26.3298
20.846	26.2982
20.864	26.271
20.882	26.2511
20.9	26.2385
20.918	26.2337
20.936	26.2376
20.954	26.2498
20.972	26.2701
20.99	26.2989
21.008	26.3347
21.026	26.3773
21.044	26.426
21.062	26.4787
21.08	26.5362
21.098	26.5956
21.116	26.6566
21.134	26.7182
21.152	26.7776
21.17	26.8359
21.188	26.8896
21.206	26.9384
21.224	26.9814
21.242	27.0157
21.26	27.0423
21.278	27.0581
21.296	27.0627
21.314	27.0557
21.332	27.0351
21.35	27.0014
21.368	26.9539
21.386	26.8918
21.404	26.8163
21.422	26.7283
21.44	26.6272
21.458	26.5163
21.476	26.3959
21.494	26.2672
21.512	26.1358
21.53	25.9995
21.548	25.8645
21.566	25.7346
21.584	25.6089
21.602	25.4957
21.62	25.3942
21.638	25.3077
21.656	25.2417
21.674	25.1943
21.692	25.1692
21.71	25.168
21.728	25.1895
21.746	25.2342
21.764	25.3029
21.782	25.3921
21.8	25.5003
21.818	25.6279
21.836	25.7669
21.854	25.9182
21.872	26.0783
21.89	26.2388
21.908	26.4029
21.926	26.5633
21.944	26.7149
21.962	26.8599
21.98	26.9913
21.998	27.1084
22.016	27.2113
22.034	27.2969
22.052	27.3655
22.07	27.4182
22.088	27.4549
22.106	27.4756
22.124	27.484
22.142	27.48
22.16	27.4646
22.178	27.4431
22.196	27.4139
22.214	27.3801
22.232	27.3459
22.25	27.3097
22.268	27.2741
22.286	27.241
22.304	27.2094
22.322	27.1797
22.34	27.1527
22.358	27.1274
22.376	27.1019
22.394	27.0773
22.412	27.0515
22.43	27.0218
22.448	26.9895
22.466	26.9523
22.484	26.908
22.502	26.8577
22.52	26.7998
22.538	26.733
22.556	26.6582
22.574	26.5755
22.592	26.4845
22.61	26.3859
22.628	26.2817
22.646	26.171
22.664	26.0553
22.682	25.9368
22.7	25.8146
22.718	25.6902
22.736	25.5655
22.754	25.4398
22.772	25.3136
22.79	25.1875
22.808	25.0615
22.826	24.935
22.844	24.8077
22.862	24.68
22.88	24.5506
22.898	24.419
22.916	24.2857
22.934	24.1496
22.952	24.0106
22.97	23.8687
22.988	23.7238
23.006	23.575
23.024	23.4232
23.042	23.2697
23.06	23.114
23.078	22.9568
23.096	22.8021
23.114	22.6487
23.132	22.4979
23.15	22.3556
23.168	22.221
23.186	22.0947
23.204	21.9808
23.222	21.8784
23.24	21.7884
23.258	21.7154
23.276	21.6585
23.294	21.6185
23.312	21.599
23.33	21.5998
23.348	21.6207
23.366	21.6643
23.384	21.7313
23.402	21.8203
23.42	21.93
23.438	22.0608
23.456	22.2121
23.474	22.3811
23.492	22.568
23.51	22.7727
23.528	22.9921
23.546	23.2263
23.564	23.4754
23.582	23.7347
23.6	24.0035
23.618	24.2828
23.636	24.5663
23.654	24.8516
23.672	25.1412
23.69	25.4287
23.708	25.7099
23.726	25.9886
23.744	26.2588
23.762	26.5156
23.78	26.7625
23.798	26.9953
23.816	27.2086
23.834	27.4052
23.852	27.5829
23.87	27.7377
23.888	27.8703
23.906	27.9807
23.924	28.0671
23.942	28.1288
23.96	28.1669
23.978	28.1817
23.996	28.1724
24.014	28.1392
24.032	28.0869
24.05	28.0178
24.068	27.929
24.086	27.8268
24.104	27.7172
24.122	27.596
24.14	27.4677
24.158	27.3395
24.176	27.2095
24.194	27.0784
24.212	26.951
24.23	26.8279
24.248	26.7079
24.266	26.5944
24.284	26.4901
24.302	26.3935
24.32	26.3036
24.338	26.2195
24.356	26.1431
24.374	26.0715
24.392	26.0007
24.41	25.9337
24.428	25.8682
24.446	25.796
24.464	25.7148
24.482	25.6287
24.5	25.5289
24.518	25.4087
24.536	25.2745
24.554	25.1196
24.572	24.9345
24.59	24.7207
24.608	24.479
24.626	24.2039
24.644	23.8928
24.662	23.5489
24.68	23.1689
24.698	22.7494
24.716	22.2906
24.734	21.7947
24.752	21.2637
24.77	20.697
24.788	20.0949
24.806	19.4602
24.824	18.7948
24.842	18.0966
24.86	17.3686
24.878	16.6145
24.896	15.833
24.914	15.0246
24.932	14.1927
24.95	13.3391
24.968	12.4619
24.986	11.5635
25.004	10.6465
25.022	9.708531
25.04	8.751616
25.058	7.780239
25.076	6.795326
25.094	5.793877
25.112	4.782789
25.13	3.768744
25.148	2.745682
25.166	1.718137
25.184	0.696871
25.202	-0.314751
25.22	-1.324047
25.238	-2.318715
25.256	-3.286110
25.274	-4.234294
25.292	-5.159585
25.31	-6.047555
25.328	-6.890765
25.346	-7.699736
25.364	-8.463271
25.382	-9.168222
25.4	-9.817829
25.418	-10.414
25.436	-10.9472
25.454	-11.4101
25.472	-11.8084
25.49	-12.1403
25.508	-12.4022
25.526	-12.5943
25.544	-12.7189
25.562	-12.7712
25.58	-12.7471
25.598	-12.6499
25.616	-12.4786
25.634	-12.2292
25.652	-11.8993
25.67	-11.4924
25.688	-11.0063
25.706	-10.4381
25.724	-9.786397
25.742	-9.053361
25.76	-8.241034
25.778	-7.350960
25.796	-6.377716
25.814	-5.327406
25.832	-4.210598
25.85	-3.031923
25.868	-1.779076
25.886	-0.469423
25.904	0.876088
25.922	2.258994
25.94	3.691135
25.958	5.141365
25.976	6.578559
25.994	8.021365
26.012	9.467178
26.03	10.8788
26.048	12.2251
26.066	13.537
26.084	14.7972
26.102	15.9691
26.12	17.0301
26.138	18.0093
26.156	18.8868
26.174	19.6356
26.192	20.2447
26.21	20.7316
26.228	21.0872
26.246	21.3013
26.264	21.3681
26.282	21.2945
26.3	21.0892
26.318	20.7605
26.336	20.2947
26.354	19.6994
26.372	19.001
26.39	18.2229
26.408	17.3387
26.426	16.3631
26.444	15.3334
26.462	14.2787
26.48	13.1632
26.498	12.0094
26.516	10.859
26.534	9.741261
26.552	8.619662
26.57	7.516473
26.588	6.466565
26.606	5.492057
26.624	4.564975
26.642	3.700415
26.66	2.920032
26.678	2.237519
26.696	1.638268
26.714	1.125043
26.732	0.702890
26.75	0.376741
26.768	0.145506
26.786	0.001817
26.804	-0.061847
26.822	-0.045214
26.84	0.061813
26.858	0.241063
26.876	0.472693
26.894	0.750258
26.912	1.092840
26.93	1.479415
26.948	1.886202
26.966	2.321290
26.984	2.833645
27.002	3.335785
27.02	3.730880
27.028	3.835272