File: Bakgrunnsmateriale/MATLAB/FTIR/ftir_data/LPE453/Mapping_121/LPE453_t08.asc
PE IR       SPECTRUM    SPECTRUM    ASCII       PEDS        1.60
  -1
LPE399~1.ASC
17/05/16
15:00:19.00
17/05/16
15:00:45.00
tln
$LPE453_t0008$<tbV0>[-5.2,-13.0,8.0,0.0,27,1,0]
27.028
64

2002,4.07
MIRTGS : RIGHTBACK : INTERNAL 2
MIR : ON : INTERNAL 2
OPTKBR

0.200000
8
8.000000
FILLER
RATIO
SPECTRUM
UNLOCKED 256

DOUBLE
64
COMBINED
1
0
0

0.002000
RATIO

1
0
TRUE
51149
0
LEFT NOT FITTED RIGHT NOT FITTED 0
NONE
NONE
15600
12
4.427000
51148
TRUE
1 0 8 72 0 0 0 0

15798

#HDR
-1
-1
#GR
µM
%T
2.38419e-05
0.0
2.000000
0.002000
12515
8
38.9097
-2.639225
#DATA
2.000000	 0.135898
2.018000	 0.406802
2.036000	 -0.097740
2.054000	 0.453501
2.072000	 0.099852
2.090000	 0.265415
2.108000	 0.233252
2.126000	 0.343610
2.144000	 0.250340
2.162000	 0.022930
2.180000	 -0.501876
2.198000	 -1.243457
2.216000	 29.9501
2.234000	 0.485374
2.252000	 -0.390077
2.270000	 -0.271859
2.288000	 0.251489
2.306000	 -0.171977
2.324000	 0.031878
2.342000	 -0.082183
2.360000	 0.168736
2.378000	 0.236080
2.396000	 0.267815
2.414000	 0.305724
2.432000	 -0.041702
2.450000	 0.107760
2.468000	 0.039278
2.486000	 0.267256
2.504000	 -0.040484
2.522000	 0.018722
2.540000	 0.157317
2.558000	 -0.054811
2.576000	 0.159755
2.594000	 -0.024548
2.612000	 0.094323
2.630000	 0.016150
2.648000	 -0.049397
2.666000	 0.231206
2.684000	 0.156468
2.702000	 0.102977
2.720000	 0.027965
2.738000	 0.091785
2.756000	 0.204068
2.774000	 0.007474
2.792000	 0.157488
2.810000	 0.060006
2.828000	 0.014452
2.846000	 -0.066846
2.864000	 0.026598
2.882000	 0.041178
2.900000	 0.142516
2.918000	 0.033668
2.936000	 0.060849
2.954000	 0.111890
2.972000	 -0.018027
2.990000	 0.060290
3.008000	 0.183632
3.026000	 0.026768
3.044000	 0.022449
3.062000	 -0.038097
3.080000	 0.070531
3.098000	 -0.089030
3.116000	 0.095701
3.134000	 0.130289
3.152000	 0.123641
3.170000	 -0.076889
3.188000	 -0.039328
3.206000	 0.002726
3.224000	 -0.004964
3.242000	 0.055246
3.260000	 0.172389
3.278000	 0.079825
3.296000	 0.172486
3.314000	 0.125997
3.332000	 -0.030928
3.350000	 -0.121145
3.368000	 -0.015634
3.386000	 0.062294
3.404000	 0.104448
3.422000	 0.078160
3.440000	 0.077651
3.458000	 0.213906
3.476000	 0.122149
3.494000	 -0.072783
3.512000	 0.022091
3.530000	 0.050347
3.548000	 0.105269
3.566000	 0.110967
3.584000	 0.024319
3.602000	 0.103498
3.620000	 -0.002073
3.638000	 0.059971
3.656000	 0.094315
3.674000	 0.080135
3.692000	 0.148019
3.710000	 -0.012340
3.728000	 0.119763
3.746000	 0.070207
3.764000	 0.071062
3.782000	 0.049196
3.800000	 0.182754
3.818000	 -0.058928
3.836000	 0.008415
3.854000	 0.045944
3.872000	 0.200881
3.890000	 0.020918
3.908000	 -0.126785
3.926000	 -0.096941
3.944000	 0.088925
3.962000	 0.051103
3.980000	 0.043399
3.998000	 0.103022
4.016000	 0.098051
4.034000	 0.020897
4.052000	 0.022505
4.070000	 0.045971
4.088000	 0.068842
4.106000	 0.050379
4.124000	 0.173036
4.141999	 0.235287
4.160000	 0.022121
4.178000	 0.236399
4.196000	 0.181384
4.214000	 0.082588
4.232000	 0.149205
4.250000	 0.204217
4.268000	 0.119239
4.286000	 0.394734
4.304000	 0.369674
4.322000	 0.421421
4.340000	 0.611586
4.358000	 0.732747
4.375999	 0.939361
4.394000	 0.958248
4.412000	 1.282029
4.430000	 1.486952
4.448000	 1.812813
4.466000	 2.166793
4.484000	 2.654133
4.502000	 3.033704
4.520000	 3.537465
4.538000	 4.101111
4.556000	 4.634957
4.574000	 5.331729
4.592000	 6.039714
4.609999	 6.798696
4.628000	 7.719394
4.646000	 8.421077
4.664000	 9.284767
4.682000	 10.1566
4.700000	 11.1265
4.718000	 11.9914
4.736000	 12.8211
4.754000	 13.8527
4.772000	 14.7309
4.790000	 15.7
4.808000	 16.5215
4.826000	 16.962
4.843999	 17.9285
4.862000	 18.7367
4.880000	 19.4789
4.898000	 20.3573
4.916000	 21.1585
4.934000	 21.7676
4.952000	 22.2383
4.970000	 22.6935
4.988000	 23.197
5.006000	 23.8862
5.024000	 24.5028
5.042000	 25.1845
5.060000	 25.6907
5.077999	 25.9457
5.096000	 26.1527
5.114000	 26.3005
5.132000	 26.6108
5.150000	 27.0848
5.168000	 27.6216
5.186000	 28.129
5.204000	 28.4026
5.222000	 28.6321
5.240000	 28.6394
5.258000	 28.658
5.276000	 28.712
5.294000	 28.9346
5.312000	 29.3004
5.330000	 29.6617
5.348000	 30.1029
5.366000	 30.2957
5.384000	 30.2796
5.402000	 30.2286
5.420000	 30.1796
5.438000	 30.0778
5.456000	 30.1744
5.474000	 30.4317
5.492000	 30.7116
5.510000	 30.9073
5.528000	 31.039
5.546000	 31.1721
5.564000	 31.2065
5.582000	 31.1395
5.600000	 30.9526
5.618000	 30.8333
5.636000	 30.826
5.654000	 30.9903
5.672000	 31.1679
5.690000	 31.402
5.708000	 31.709
5.726000	 31.8325
5.744000	 31.7053
5.762000	 31.5223
5.780000	 31.2079
5.798000	 30.9655
5.816000	 30.9943
5.834000	 31.1289
5.852000	 31.3702
5.870000	 31.7741
5.888000	 32.1092
5.906000	 32.1168
5.923999	 32.1396
5.942000	 32.1469
5.960000	 31.8811
5.978000	 31.5815
5.996000	 31.3351
6.014000	 31.2095
6.032000	 31.3539
6.050000	 31.5835
6.068000	 31.6165
6.086000	 31.7386
6.104000	 32.0697
6.122000	 32.2289
6.140000	 32.14
6.158000	 32.0218
6.176000	 31.9088
6.194000	 31.7396
6.212000	 31.496
6.230000	 31.3291
6.248000	 31.2109
6.266000	 31.1978
6.284000	 31.3475
6.302000	 31.5442
6.320000	 31.7689
6.338000	 32.0657
6.356000	 32.2273
6.374000	 32.1788
6.392000	 32.1961
6.410000	 32.2121
6.428000	 31.9012
6.446000	 31.5678
6.464000	 31.4905
6.482000	 31.5258
6.500000	 31.4593
6.518000	 31.3708
6.536000	 31.4068
6.554000	 31.5905
6.572000	 31.8868
6.590000	 32.1063
6.608000	 32.1355
6.626000	 32.1542
6.644000	 32.1757
6.662000	 32.0419
6.680000	 31.8178
6.698000	 31.6069
6.716000	 31.4469
6.734000	 31.2823
6.752000	 31.14
6.770000	 31.1262
6.788000	 31.263
6.806000	 31.4464
6.824000	 31.6092
6.842000	 31.8319
6.860000	 32.0627
6.878000	 32.1388
6.896000	 32.0748
6.914000	 31.9972
6.932000	 31.9217
6.950000	 31.7789
6.968000	 31.5771
6.986000	 31.3674
7.004000	 31.1548
7.022000	 31.0016
7.040000	 30.9429
7.058000	 30.9294
7.076000	 30.9918
7.094000	 31.1215
7.112000	 31.2228
7.130000	 31.3683
7.148000	 31.6326
7.166000	 31.8754
7.184000	 32.0085
7.202000	 32.0926
7.220000	 32.1427
7.238000	 32.0793
7.256000	 31.8455
7.274000	 31.5551
7.292000	 31.3915
7.310000	 31.3357
7.328000	 31.2459
7.346000	 31.1054
7.364000	 30.9844
7.382000	 30.9257
7.400000	 30.9462
7.418000	 31.0556
7.436000	 31.2577
7.454000	 31.5201
7.472000	 31.7645
7.490000	 31.928
7.508000	 32.011
7.526000	 32.0406
7.544000	 32.0119
7.562000	 31.917
7.580000	 31.7902
7.598000	 31.6595
7.616000	 31.5144
7.634000	 31.3669
7.652000	 31.2459
7.670000	 31.1373
7.688000	 31.0214
7.706000	 30.9362
7.724000	 30.9331
7.742000	 31.0086
7.760000	 31.1144
7.778000	 31.2147
7.796000	 31.3164
7.814000	 31.4467
7.832000	 31.6161
7.850000	 31.7996
7.868000	 31.9536
7.886000	 32.0514
7.904000	 32.0868
7.922000	 32.0441
7.940000	 31.9119
7.958000	 31.7325
7.976000	 31.5825
7.994000	 31.4893
8.012000	 31.4105
8.030000	 31.3034
8.048000	 31.1783
8.065999	 31.0685
8.084000	 30.9846
8.102000	 30.9148
8.120000	 30.8667
8.138000	 30.8809
8.155999	 30.9922
8.173999	 31.1791
8.192000	 31.3805
8.210000	 31.5526
8.228000	 31.6818
8.246000	 31.7695
8.263999	 31.8302
8.282000	 31.8794
8.300000	 31.9082
8.318000	 31.8911
8.336000	 31.8265
8.353999	 31.7426
8.372000	 31.6602
8.390000	 31.5741
8.408000	 31.4709
8.426000	 31.3506
8.443999	 31.2293
8.462000	 31.1212
8.480000	 31.0265
8.498000	 30.9387
8.516000	 30.8551
8.533999	 30.7843
8.552000	 30.7523
8.570000	 30.7958
8.588000	 30.9294
8.606000	 31.1224
8.624000	 31.3207
8.641999	 31.4933
8.660000	 31.6435
8.678000	 31.7818
8.696000	 31.9024
8.714000	 31.9864
8.731999	 32.0168
8.750000	 31.9927
8.768000	 31.9301
8.786000	 31.8522
8.804000	 31.775
8.821999	 31.7021
8.840000	 31.6349
8.858000	 31.5756
8.876000	 31.5229
8.894000	 31.4676
8.911999	 31.3981
8.930000	 31.3032
8.948000	 31.1785
8.966000	 31.0368
8.984000	 30.9104
9.001999	 30.8332
9.020000	 30.8138
9.038000	 30.8324
9.056000	 30.8684
9.074000	 30.9266
9.092000	 31.0292
9.109999	 31.1853
9.128000	 31.3717
9.146000	 31.5447
9.164000	 31.6691
9.182000	 31.7406
9.199999	 31.785
9.218000	 31.8362
9.236000	 31.9074
9.254000	 31.9798
9.272000	 32.0223
9.289999	 32.0227
9.308000	 31.9947
9.326000	 31.9573
9.344000	 31.9142
9.362000	 31.8555
9.379999	 31.7748
9.398000	 31.6749
9.416000	 31.5586
9.434000	 31.4247
9.452000	 31.2793
9.469999	 31.144
9.488000	 31.0452
9.506000	 30.9913
9.524000	 30.9658
9.542000	 30.9468
9.560000	 30.9316
9.577999	 30.938
9.596000	 30.9829
9.614000	 31.0676
9.632000	 31.1803
9.650000	 31.3047
9.667999	 31.4249
9.686000	 31.5283
9.704000	 31.6114
9.722000	 31.683
9.740000	 31.7614
9.757999	 31.8652
9.776000	 31.9972
9.794000	 32.1378
9.812000	 32.2506
9.830000	 32.3012
9.847999	 32.2762
9.866000	 32.1883
9.884000	 32.0667
9.902000	 31.938
9.920000	 31.8149
9.937999	 31.6999
9.956000	 31.5959
9.974000	 31.5086
9.992000	 31.4366
10.01	31.3637
10.028	31.2659
10.046	31.1326
10.064	30.9827
10.082	30.8561
10.1	30.7879
10.118	30.7827
10.136	30.8136
10.154	30.8485
10.172	30.8747
10.19	30.9074
10.208	30.9719
10.226	31.0797
10.244	31.22
10.262	31.3667
10.28	31.4978
10.298	31.6044
10.316	31.6881
10.334	31.7533
10.352	31.8018
10.37	31.8351
10.388	31.8579
10.406	31.8792
10.424	31.9065
10.442	31.9405
10.46	31.9737
10.478	31.9935
10.496	31.9893
10.514	31.9563
10.532	31.8948
10.55	31.8076
10.568	31.6986
10.586	31.5735
10.604	31.441
10.622	31.3134
10.64	31.2027
10.658	31.116
10.676	31.0525
10.694	31.0041
10.712	30.9605
10.73	30.9161
10.748	30.8707
10.766	30.8285
10.784	30.7921
10.802	30.7625
10.82	30.7399
10.838	30.7275
10.856	30.7315
10.874	30.7598
10.892	30.8168
10.91	30.9016
10.928	31.0082
10.946	31.1276
10.964	31.2521
10.982	31.3753
11	31.4918
11.018	31.5955
11.036	31.6808
11.054	31.7431
11.072	31.782
11.09	31.8014
11.108	31.8083
11.126	31.8118
11.144	31.8195
11.162	31.8354
11.18	31.858
11.198	31.8797
11.216	31.8902
11.234	31.8806
11.252	31.8469
11.27	31.7917
11.288	31.7224
11.306	31.6471
11.324	31.5701
11.342	31.4908
11.36	31.4055
11.378	31.3126
11.396	31.2152
11.414	31.1203
11.432	31.0341
11.45	30.9575
11.468	30.8865
11.486	30.8155
11.504	30.7424
11.522	30.6722
11.54	30.6148
11.558	30.5814
11.576	30.579
11.594	30.6078
11.612	30.6607
11.63	30.7276
11.648	30.7998
11.666	30.8719
11.684	30.9411
11.702	31.0068
11.72	31.0686
11.738	31.1259
11.756	31.1798
11.774	31.2333
11.792	31.2913
11.81	31.3585
11.828	31.4359
11.846	31.5201
11.864	31.6028
11.882	31.6738
11.9	31.7244
11.918	31.7503
11.936	31.7528
11.954	31.7381
11.972	31.7141
11.99	31.6885
12.008	31.6673
12.026	31.6542
12.044	31.651
12.062	31.6577
12.08	31.6723
12.098	31.6903
12.116	31.7043
12.134	31.7052
12.152	31.6841
12.17	31.636
12.188	31.5608
12.206	31.4645
12.224	31.357
12.242	31.2494
12.26	31.1501
12.278	31.0638
12.296	30.9914
12.314	30.931
12.332	30.8795
12.35	30.8336
12.368	30.7909
12.386	30.7496
12.404	30.7089
12.422	30.6694
12.44	30.6331
12.458	30.6031
12.476	30.5832
12.494	30.5771
12.512	30.5869
12.53	30.6117
12.548	30.6478
12.566	30.689
12.584	30.7288
12.602	30.7619
12.62	30.7854
12.638	30.7997
12.656	30.807
12.674	30.8102
12.692	30.8125
12.71	30.8163
12.728	30.8242
12.746	30.8383
12.764	30.8605
12.782	30.8926
12.8	30.9355
12.818	30.9894
12.836	31.0535
12.854	31.1262
12.872	31.2049
12.89	31.2861
12.908	31.3662
12.926	31.4403
12.944	31.5035
12.962	31.5506
12.98	31.5771
12.998	31.5797
13.016	31.5578
13.034	31.5143
13.052	31.4551
13.07	31.3874
13.088	31.3176
13.106	31.2493
13.124	31.1825
13.142	31.1141
13.16	31.0398
13.178	30.956
13.196	30.8628
13.214	30.7636
13.232	30.6654
13.25	30.5765
13.268	30.5044
13.286	30.4537
13.304	30.4246
13.322	30.4127
13.34	30.4107
13.358	30.4096
13.376	30.4014
13.394	30.3801
13.412	30.3432
13.43	30.2906
13.448	30.2243
13.466	30.1474
13.484	30.0638
13.502	29.9776
13.52	29.8935
13.538	29.8164
13.556	29.7514
13.574	29.7029
13.592	29.6741
13.61	29.6666
13.628	29.6804
13.646	29.7135
13.664	29.7632
13.682	29.8263
13.7	29.8995
13.718	29.9796
13.736	30.0642
13.754	30.1503
13.772	30.2356
13.79	30.3171
13.808	30.3917
13.826	30.4566
13.844	30.5095
13.862	30.5497
13.88	30.5779
13.898	30.5966
13.916	30.6094
13.934	30.6205
13.952	30.634
13.97	30.6526
13.988	30.6778
14.006	30.7097
14.024	30.7471
14.042	30.7885
14.06	30.8319
14.078	30.8753
14.096	30.917
14.114	30.9553
14.132	30.9886
14.15	31.0153
14.168	31.0339
14.186	31.043
14.204	31.0419
14.222	31.0297
14.24	31.0067
14.258	30.9731
14.276	30.9301
14.294	30.8788
14.312	30.8205
14.33	30.7566
14.348	30.6878
14.366	30.6148
14.384	30.5378
14.402	30.4569
14.42	30.3722
14.438	30.2842
14.456	30.1937
14.474	30.1018
14.492	30.0104
14.51	29.9216
14.528	29.8377
14.546	29.7603
14.564	29.6907
14.582	29.6295
14.6	29.5768
14.618	29.5319
14.636	29.4939
14.654	29.4618
14.672	29.4345
14.69	29.4115
14.708	29.3925
14.726	29.3773
14.744	29.3665
14.762	29.3601
14.78	29.3586
14.798	29.3626
14.816	29.3724
14.834	29.3884
14.852	29.4108
14.87	29.4396
14.888	29.4746
14.906	29.5152
14.924	29.5607
14.942	29.6095
14.96	29.6598
14.978	29.7098
14.996	29.7577
15.014	29.8016
15.032	29.8405
15.05	29.8736
15.068	29.9012
15.086	29.9238
15.104	29.9427
15.122	29.96
15.14	29.9779
15.158	29.9979
15.176	30.0214
15.194	30.0493
15.212	30.0817
15.23	30.1177
15.248	30.1564
15.266	30.1962
15.284	30.2352
15.302	30.2719
15.32	30.3053
15.338	30.335
15.356	30.3606
15.374	30.3826
15.392	30.4013
15.41	30.417
15.428	30.4299
15.446	30.439
15.464	30.4432
15.482	30.4408
15.5	30.4296
15.518	30.4076
15.536	30.3733
15.554	30.3262
15.572	30.2662
15.59	30.1951
15.608	30.1159
15.626	30.0317
15.644	29.9469
15.662	29.8668
15.68	29.7949
15.698	29.7347
15.716	29.6892
15.734	29.6593
15.752	29.6444
15.77	29.6431
15.788	29.6516
15.806	29.6656
15.824	29.681
15.842	29.6926
15.86	29.6955
15.878	29.6869
15.896	29.6644
15.914	29.6268
15.932	29.5753
15.95	29.5113
15.968	29.4376
15.986	29.3582
16.004	29.2763
16.022	29.195
16.04	29.1177
16.058	29.0459
16.076	28.9806
16.094	28.9224
16.112	28.8708
16.13	28.8252
16.148	28.7845
16.166	28.7475
16.184	28.7137
16.202	28.6823
16.22	28.6536
16.238	28.6277
16.256	28.6049
16.274	28.5864
16.292	28.5725
16.31	28.5638
16.328	28.5607
16.346	28.5631
16.364	28.5706
16.382	28.5826
16.4	28.5981
16.418	28.6162
16.436	28.6357
16.454	28.6558
16.472	28.6761
16.49	28.6959
16.508	28.7153
16.526	28.7343
16.544	28.7531
16.562	28.772
16.58	28.7913
16.598	28.8114
16.616	28.832
16.634	28.853
16.652	28.8738
16.67	28.8938
16.688	28.9122
16.706	28.9278
16.724	28.94
16.742	28.948
16.76	28.9514
16.778	28.9501
16.796	28.9442
16.814	28.9343
16.832	28.9209
16.85	28.9051
16.868	28.888
16.886	28.8704
16.904	28.8537
16.922	28.8384
16.94	28.8252
16.958	28.8146
16.976	28.8065
16.994	28.8009
17.012	28.7975
17.03	28.796
17.048	28.7957
17.066	28.7962
17.084	28.7971
17.102	28.7979
17.12	28.7986
17.138	28.7988
17.156	28.7985
17.174	28.7977
17.192	28.7963
17.21	28.7941
17.228	28.7909
17.246	28.7862
17.264	28.7795
17.282	28.7697
17.3	28.7563
17.318	28.7382
17.336	28.7146
17.354	28.685
17.372	28.6491
17.39	28.6072
17.408	28.5597
17.426	28.5081
17.444	28.4532
17.462	28.3976
17.48	28.3421
17.498	28.2896
17.516	28.2414
17.534	28.1989
17.552	28.1632
17.57	28.1346
17.588	28.1131
17.606	28.0976
17.624	28.0874
17.642	28.0798
17.66	28.074
17.678	28.0666
17.696	28.057
17.714	28.0424
17.732	28.0223
17.75	27.9952
17.768	27.9613
17.786	27.9204
17.804	27.8742
17.822	27.8231
17.84	27.7697
17.858	27.7154
17.876	27.662
17.894	27.6115
17.912	27.5651
17.93	27.5246
17.948	27.4902
17.966	27.4629
17.984	27.4423
18.002	27.4282
18.02	27.4196
18.038	27.416
18.056	27.4157
18.074	27.4184
18.092	27.4222
18.11	27.427
18.128	27.4312
18.146	27.435
18.164	27.4373
18.182	27.4382
18.2	27.4374
18.218	27.4348
18.236	27.4304
18.254	27.4245
18.272	27.417
18.29	27.408
18.308	27.3974
18.326	27.3854
18.344	27.372
18.362	27.3576
18.38	27.3424
18.398	27.3274
18.416	27.313
18.434	27.3001
18.452	27.2899
18.47	27.2831
18.488	27.2812
18.506	27.2848
18.524	27.2953
18.542	27.3131
18.56	27.3391
18.578	27.3732
18.596	27.4157
18.614	27.4665
18.632	27.5248
18.65	27.5903
18.668	27.6615
18.686	27.738
18.704	27.8176
18.722	27.8998
18.74	27.9822
18.758	28.0644
18.776	28.144
18.794	28.2207
18.812	28.2923
18.83	28.3585
18.848	28.4176
18.866	28.4694
18.884	28.5128
18.902	28.5479
18.92	28.5742
18.938	28.5919
18.956	28.6011
18.974	28.6021
18.992	28.5953
19.01	28.5814
19.028	28.561
19.046	28.5347
19.064	28.5032
19.082	28.467
19.1	28.427
19.118	28.3834
19.136	28.3368
19.154	28.2875
19.172	28.2358
19.19	28.1819
19.208	28.126
19.226	28.0681
19.244	28.0085
19.262	27.9473
19.28	27.885
19.298	27.8215
19.316	27.7577
19.334	27.6936
19.352	27.6302
19.37	27.5676
19.388	27.5073
19.406	27.4493
19.424	27.3952
19.442	27.3449
19.46	27.2994
19.478	27.259
19.496	27.2236
19.514	27.1935
19.532	27.1682
19.55	27.1476
19.568	27.1309
19.586	27.1173
19.604	27.106
19.622	27.0954
19.64	27.0852
19.658	27.0732
19.676	27.0595
19.694	27.0419
19.712	27.0209
19.73	26.9948
19.748	26.9637
19.766	26.9272
19.784	26.885
19.802	26.8377
19.82	26.785
19.838	26.7277
19.856	26.6663
19.874	26.6011
19.892	26.5333
19.91	26.4629
19.928	26.3915
19.946	26.319
19.964	26.2466
19.982	26.1745
20	26.1036
20.018	26.0343
20.036	25.9669
20.054	25.9018
20.072	25.8391
20.09	25.7792
20.108	25.7221
20.126	25.6682
20.144	25.6173
20.162	25.5701
20.18	25.5267
20.198	25.4876
20.216	25.4532
20.234	25.4236
20.252	25.4004
20.27	25.3831
20.288	25.373
20.306	25.3701
20.324	25.3751
20.342	25.3887
20.36	25.4108
20.378	25.4417
20.396	25.4812
20.414	25.5295
20.432	25.5867
20.45	25.6516
20.468	25.7241
20.486	25.8036
20.504	25.8889
20.522	25.9801
20.54	26.0748
20.558	26.1733
20.576	26.2739
20.594	26.3759
20.612	26.4787
20.63	26.5806
20.648	26.682
20.666	26.7812
20.684	26.8784
20.702	26.9728
20.72	27.0639
20.738	27.1518
20.756	27.2357
20.774	27.3157
20.792	27.3914
20.81	27.4628
20.828	27.5295
20.846	27.5912
20.864	27.6478
20.882	27.6985
20.9	27.7434
20.918	27.782
20.936	27.814
20.954	27.8395
20.972	27.8583
20.99	27.8702
21.008	27.8765
21.026	27.877
21.044	27.8728
21.062	27.8663
21.08	27.8565
21.098	27.8473
21.116	27.8391
21.134	27.8332
21.152	27.8334
21.17	27.8386
21.188	27.8519
21.206	27.8741
21.224	27.9051
21.242	27.9463
21.26	27.9975
21.278	28.0568
21.296	28.1249
21.314	28.1996
21.332	28.2773
21.35	28.3596
21.368	28.4402
21.386	28.5184
21.404	28.5927
21.422	28.657
21.44	28.7131
21.458	28.757
21.476	28.7864
21.494	28.8024
21.512	28.8028
21.53	28.7875
21.548	28.7581
21.566	28.715
21.584	28.6585
21.602	28.5934
21.62	28.5184
21.638	28.4374
21.656	28.3552
21.674	28.2699
21.692	28.1878
21.71	28.1101
21.728	28.0371
21.746	27.9736
21.764	27.9188
21.782	27.8737
21.8	27.8398
21.818	27.8164
21.836	27.8022
21.854	27.7978
21.872	27.8015
21.89	27.81
21.908	27.8247
21.926	27.8419
21.944	27.8593
21.962	27.878
21.98	27.8937
21.998	27.906
22.016	27.9148
22.034	27.9176
22.052	27.915
22.07	27.9069
22.088	27.8927
22.106	27.8726
22.124	27.8483
22.142	27.8199
22.16	27.7877
22.178	27.7541
22.196	27.7186
22.214	27.6822
22.232	27.6466
22.25	27.6111
22.268	27.5763
22.286	27.5427
22.304	27.51
22.322	27.4772
22.34	27.4444
22.358	27.4112
22.376	27.3749
22.394	27.3366
22.412	27.2947
22.43	27.2469
22.448	27.1942
22.466	27.1351
22.484	27.0679
22.502	26.9934
22.52	26.9112
22.538	26.8205
22.556	26.722
22.574	26.6176
22.592	26.5066
22.61	26.3903
22.628	26.273
22.646	26.1532
22.664	26.0334
22.682	25.9182
22.7	25.8056
22.718	25.6989
22.736	25.6022
22.754	25.5136
22.772	25.4359
22.79	25.3721
22.808	25.3206
22.826	25.2829
22.844	25.2606
22.862	25.2528
22.88	25.2589
22.898	25.2789
22.916	25.3129
22.934	25.3577
22.952	25.4129
22.97	25.4788
22.988	25.551
23.006	25.6295
23.024	25.7141
23.042	25.8
23.06	25.8875
23.078	25.976
23.096	26.0603
23.114	26.1409
23.132	26.2172
23.15	26.2855
23.168	26.3458
23.186	26.3982
23.204	26.4405
23.222	26.4725
23.24	26.4948
23.258	26.5072
23.276	26.5091
23.294	26.5014
23.312	26.4853
23.33	26.4603
23.348	26.4272
23.366	26.3885
23.384	26.3438
23.402	26.2935
23.42	26.24
23.438	26.1827
23.456	26.1221
23.474	26.0608
23.492	25.9986
23.51	25.9356
23.528	25.8748
23.546	25.8168
23.564	25.761
23.582	25.7095
23.6	25.663
23.618	25.621
23.636	25.5839
23.654	25.5521
23.672	25.5253
23.69	25.5038
23.708	25.488
23.726	25.4774
23.744	25.4726
23.762	25.4739
23.78	25.4808
23.798	25.4942
23.816	25.5146
23.834	25.5414
23.852	25.5755
23.87	25.6179
23.888	25.6679
23.906	25.7262
23.924	25.7951
23.942	25.8741
23.96	25.9632
23.978	26.0647
23.996	26.1793
24.014	26.3061
24.032	26.4464
24.05	26.6011
24.068	26.7696
24.086	26.9517
24.104	27.1471
24.122	27.3572
24.14	27.5793
24.158	27.8104
24.176	28.0527
24.194	28.304
24.212	28.5595
24.23	28.8195
24.248	29.0846
24.266	29.3486
24.284	29.608
24.302	29.8662
24.32	30.1188
24.338	30.3615
24.356	30.5968
24.374	30.8231
24.392	31.0369
24.41	31.2376
24.428	31.4266
24.446	31.6046
24.464	31.7705
24.482	31.9241
24.5	32.0703
24.518	32.213
24.536	32.348
24.554	32.4806
24.572	32.6181
24.59	32.757
24.608	32.8992
24.626	33.0543
24.644	33.2271
24.662	33.4126
24.68	33.6153
24.698	33.8396
24.716	34.084
24.734	34.3481
24.752	34.6324
24.77	34.9408
24.788	35.2707
24.806	35.6126
24.824	35.9615
24.842	36.3261
24.86	36.6928
24.878	37.0453
24.896	37.3935
24.914	37.7321
24.932	38.0383
24.95	38.3021
24.968	38.5383
24.986	38.7264
25.004	38.8445
25.022	38.9029
25.04	38.8984
25.058	38.8141
25.076	38.6411
25.094	38.3886
25.112	38.0529
25.13	37.6296
25.148	37.115
25.166	36.5162
25.184	35.8425
25.202	35.0944
25.22	34.2644
25.238	33.3734
25.256	32.4424
25.274	31.4555
25.292	30.4223
25.31	29.3729
25.328	28.3224
25.346	27.2484
25.364	26.178
25.382	25.1427
25.4	24.134
25.418	23.1488
25.436	22.213
25.454	21.3461
25.472	20.5317
25.49	19.7785
25.508	19.1014
25.526	18.5059
25.544	17.9843
25.562	17.5376
25.58	17.1674
25.598	16.8782
25.616	16.6635
25.634	16.5126
25.652	16.4211
25.67	16.3987
25.688	16.4313
25.706	16.5025
25.724	16.6139
25.742	16.7708
25.76	16.9568
25.778	17.1567
25.796	17.3798
25.814	17.623
25.832	17.8742
25.85	18.1251
25.868	18.383
25.886	18.645
25.904	18.9062
25.922	19.1639
25.94	19.4203
25.958	19.6779
25.976	19.9389
25.994	20.2002
26.012	20.4632
26.03	20.7342
26.048	21.0186
26.066	21.3122
26.084	21.6166
26.102	21.936
26.12	22.2738
26.138	22.6279
26.156	22.9974
26.174	23.3822
26.192	23.7843
26.21	24.2052
26.228	24.6369
26.246	25.0715
26.264	25.5127
26.282	25.9629
26.3	26.4084
26.318	26.8359
26.336	27.2542
26.354	27.6624
26.372	28.0451
26.39	28.3885
26.408	28.7042
26.426	28.9883
26.444	29.2273
26.462	29.4093
26.48	29.542
26.498	29.6253
26.516	29.6555
26.534	29.6293
26.552	29.548
26.57	29.4137
26.588	29.2278
26.606	28.9904
26.624	28.6983
26.642	28.3571
26.66	27.9737
26.678	27.5508
26.696	27.0816
26.714	26.5738
26.732	26.0365
26.75	25.4729
26.768	24.8746
26.786	24.2508
26.804	23.6124
26.822	22.9643
26.84	22.298
26.858	21.6196
26.876	20.9367
26.894	20.253
26.912	19.5632
26.93	18.8698
26.948	18.176
26.966	17.4527
26.984	16.6517
27.002	15.8901
27.02	15.2952
27.028	15.1355