File: Bakgrunnsmateriale/MATLAB/FTIR/ftir_data/LPE453/Mapping_121/LPE453_t12_cm-1.asc
PE IR       SPECTRUM    SPECTRUM    ASCII       PEDS        1.60
  -1
LPD750~1.ASC
17/05/16
15:19:23.00
17/05/16
15:19:23.00
tln
$LPE453_t0012$<tbV0>[13.0,-10.4,8.0,0.0,27,1,0]
370
64

2002,4.07
MIRTGS : RIGHTBACK : INTERNAL 2
MIR : ON : INTERNAL 2
OPTKBR

0.200000
8
8.000000
FILLER
RATIO
SPECTRUM
UNLOCKED 256

DOUBLE
64
COMBINED
1
0
0

1.000000
RATIO

1
0
TRUE
51149
0
LEFT NOT FITTED RIGHT NOT FITTED 0
NONE
NONE
15600
12
4.427000
51148
TRUE
1 0 8 72 0 0 0 0

15798

#HDR
-1
-1
#GR
CM-1
%T
2.38419e-05
0.0
5000
-1.000000
4631
8
28.0425
-2.929735
#DATA
5000	0.217247
4996	0.455474
4992	0.519561
4988	0.481653
4984	0.358462
4980	0.288391
4976	0.268387
4972	0.142002
4968	0.253367
4964	0.394916
4960	-0.053310
4956	-0.509881
4952	-0.432252
4948	-0.246620
4944	-0.205659
4940	-0.141119
4936	0.013232
4932	0.164580
4928	0.391674
4924	0.409960
4920	0.175499
4916	0.250792
4912	0.313162
4908	0.068998
4904	-0.091218
4900	-0.124049
4896	0.050616
4892	0.332331
4888	0.347161
4884	0.300049
4880	0.265264
4876	-0.060939
4872	-0.323963
4868	-0.310444
4864	-0.041317
4860	0.146746
4856	0.123715
4852	0.023269
4848	-0.010728
4844	0.203061
4840	0.456929
4836	0.403618
4832	0.146460
4828	-0.035405
4824	0.032067
4820	0.307798
4816	0.508379
4812	0.352621
4808	0.076556
4804	-0.103592
4800	-0.127077
4796	0.118589
4792	0.072717
4788	-0.059914
4784	0.097250
4780	0.173068
4776	0.152158
4772	0.032854
4768	-0.125598
4764	-0.269985
4760	-0.232577
4756	-0.011348
4752	0.044846
4748	-0.024533
4744	-0.032162
4740	0.063562
4736	0.166535
4732	0.152158
4728	0.161266
4724	0.348687
4720	0.461530
4716	0.324201
4712	0.103974
4708	0.028228
4704	0.161290
4700	0.240421
4696	0.248098
4692	0.345587
4688	0.433158
4684	0.399446
4680	0.307321
4676	0.339746
4672	0.481820
4668	0.699996
4664	0.880289
4660	0.792956
4656	0.739932
4652	0.943517
4648	1.034927
4644	0.995707
4640	1.003742
4636	0.818943
4632	0.569391
4628	0.498890
4624	0.581812
4620	1.055812
4616	1.382017
4612	1.095700
4608	1.024985
4604	1.003146
4600	0.672054
4596	0.702476
4592	0.903868
4588	0.991845
4584	1.004195
4580	0.827050
4576	0.563788
4572	0.372338
4568	0.375413
4564	0.258541
4560	0.193333
4556	0.487518
4552	0.701975
4548	0.514245
4544	0.214910
4540	0.318765
4536	0.375008
4532	-0.173377
4528	-1.072144
4524	-1.349592
4520	-0.510430
4516	3.319382
4512	7.348537
4508	5.842208
4504	2.671241
4500	1.728200
4496	1.533269
4492	1.242971
4488	0.505852
4484	-0.197458
4480	-0.283765
4476	-0.127387
4472	0.168061
4468	0.383877
4464	0.500965
4460	0.789999
4456	1.073050
4452	1.295208
4448	1.262569
4444	1.017141
4440	0.967860
4436	0.969338
4432	0.753378
4428	0.431346
4424	0.425100
4420	0.832176
4416	0.937032
4412	0.652933
4408	0.669240
4404	0.812959
4400	0.646543
4396	0.400638
4392	0.340557
4388	0.402832
4384	0.513434
4380	0.624465
4376	0.576329
4372	0.542736
4368	0.627613
4364	0.605726
4360	0.409603
4356	0.221586
4352	0.222110
4348	0.271773
4344	0.201702
4340	-0.000619
4336	-0.103116
4332	-0.017309
4328	0.038194
4324	0.055480
4320	0.056433
4316	0.176215
4312	0.448083
4308	0.382757
4304	0.041007
4300	-0.074529
4296	0.016546
4292	0.106287
4288	0.098085
4284	0.050592
4280	0.182437
4276	0.293040
4272	0.050783
4268	-0.215077
4264	-0.217533
4260	-0.099921
4256	0.016355
4252	0.082206
4248	0.079417
4244	0.093984
4240	0.136423
4236	0.137186
4232	0.073337
4228	-0.076055
4224	-0.148153
4220	0.059485
4216	0.283288
4212	0.273942
4208	0.069785
4204	-0.205016
4200	-0.209355
4196	-0.105476
4192	-0.125122
4188	0.121569
4184	0.530076
4180	0.539684
4176	0.470089
4172	0.622248
4168	0.567030
4164	0.339126
4160	0.139474
4156	0.023674
4152	-0.018477
4148	-0.006723
4144	0.092411
4140	0.205659
4136	0.347900
4132	0.524067
4128	0.579452
4124	0.350904
4120	0.087118
4116	0.042581
4112	0.071310
4108	0.058674
4104	0.019955
4100	0.016283
4096	0.086307
4092	0.155019
4088	0.080394
4084	-0.044059
4080	0.008511
4076	0.135278
4072	0.107932
4068	0.098037
4064	0.196790
4060	0.120568
4056	-0.057268
4052	-0.041532
4048	0.023174
4044	-0.000500
4040	-0.014567
4036	-0.079584
4032	-0.146460
4028	-0.124764
4024	0.017976
4020	0.285387
4016	0.363278
4012	0.170993
4008	0.057220
4004	0.076413
4000	0.052952
3996	0.005364
3992	0.058197
3988	0.152635
3984	0.191259
3980	0.233936
3976	0.287246
3972	0.271344
3968	0.151252
3964	-0.007200
3960	-0.074052
3956	-0.008225
3952	0.064635
3948	0.123214
3944	0.233173
3940	0.291538
3936	0.203514
3932	0.128960
3928	0.168991
3924	0.152969
3920	0.080561
3916	0.093913
3912	0.099205
3908	0.011587
3904	-0.005340
3900	0.068879
3896	0.045871
3892	-0.020051
3888	0.007510
3884	0.088572
3880	0.155711
3876	0.185322
3872	0.217652
3868	0.165843
3864	0.083518
3860	0.126004
3856	0.094842
3852	-0.051927
3848	-0.053668
3844	-0.035619
3840	-0.086188
3836	0.003623
3832	0.073599
3828	0.031733
3824	-0.021600
3820	-0.023508
3816	-0.055861
3812	-0.133228
3808	-0.106930
3804	-0.029778
3800	0.072455
3796	0.141239
3792	0.123214
3788	0.102138
3784	0.061798
3780	-0.013732
3776	0.000095
3772	0.159502
3768	0.288391
3764	0.267219
3760	0.191354
3756	0.070309
3752	-0.086593
3748	-0.118517
3744	-0.052285
3740	-0.008940
3736	-0.010013
3732	-0.077795
3728	-0.065755
3724	0.037765
3720	0.034117
3716	-0.001955
3712	0.026798
3708	0.057768
3704	0.137805
3700	0.205135
3696	0.142168
3692	0.084543
3688	0.108647
3684	0.152468
3680	0.175714
3676	0.111961
3672	0.005412
3668	-0.019097
3664	0.072002
3660	0.143003
3656	0.124096
3652	0.087904
3648	0.010490
3644	-0.073027
3640	-0.021743
3636	0.067901
3632	0.025153
3628	-0.025701
3624	-0.005292
3620	0.062584
3616	0.150394
3612	0.165271
3608	0.159239
3604	0.122261
3600	0.008416
3596	-0.094437
3592	-0.111246
3588	-0.091338
3584	-0.157499
3580	-0.213027
3576	-0.136566
3572	-0.015974
3568	0.006461
3564	-0.035905
3560	0.005364
3556	0.048184
3552	0.002026
3548	-0.066685
3544	-0.053405
3540	0.041532
3536	0.068521
3532	0.040054
3528	0.037693
3524	0.100231
3520	0.180053
3516	0.129604
3512	0.048923
3508	0.039172
3504	-0.024056
3500	-0.097370
3496	-0.022959
3492	0.077199
3488	0.112485
3484	0.213742
3480	0.246238
3476	0.083780
3472	-0.071525
3468	-0.112771
3464	-0.091409
3460	-0.027298
3456	0.016808
3452	0.010323
3448	0.010347
3444	-0.005936
3440	-0.077199
3436	-0.098848
3432	-0.027465
3428	0.000882
3424	-0.036001
3420	-0.019598
3416	0.077915
3412	0.176692
3408	0.221610
3404	0.221014
3400	0.180721
3396	0.078535
3392	-0.009751
3388	0.020861
3384	0.022816
3380	-0.092530
3376	-0.144696
3372	-0.037407
3368	0.109338
3364	0.154995
3360	0.090861
3356	0.024938
3352	0.047445
3348	0.104188
3344	0.124335
3340	0.110483
3336	0.067853
3332	-0.030612
3328	-0.116801
3324	-0.070834
3320	0.049614
3316	0.083255
3312	0.022315
3308	0.034570
3304	0.122237
3300	0.142478
3296	0.126576
3292	0.088071
3288	-0.029444
3284	-0.100636
3280	-0.071763
3276	-0.031948
3272	0.053238
3268	0.124979
3264	0.072145
3260	-0.008153
3256	-0.036573
3252	-0.013494
3248	0.042128
3244	0.044608
3240	-0.026822
3236	-0.053215
3232	0.004601
3228	0.079798
3224	0.110793
3220	0.038361
3216	-0.062823
3212	-0.103545
3208	-0.100922
3204	-0.023293
3200	0.034976
3196	0.017023
3192	0.024247
3188	0.004339
3184	0.004816
3180	0.091171
3176	0.152969
3172	0.155544
3168	0.157523
3164	0.214219
3160	0.252151
3156	0.164389
3152	0.034737
3148	-0.010609
3144	0.035476
3140	0.096702
3136	0.064611
3132	0.079345
3128	0.093078
3124	-0.060892
3120	-0.071454
3116	0.097560
3112	0.049161
3108	-0.125002
3104	-0.086355
3100	0.076627
3096	0.167942
3092	0.161099
3088	0.060486
3084	-0.049066
3080	-0.071573
3076	-0.014853
3072	0.036859
3068	0.015306
3064	-0.038623
3060	-0.071597
3056	-0.057840
3052	0.010871
3048	0.040531
3044	0.093603
3040	0.201582
3036	0.156378
3032	0.024747
3028	0.008988
3024	0.049996
3020	0.045299
3016	0.010061
3012	0.016665
3008	0.058388
3004	0.060391
3000	0.040721
2996	0.056052
2992	0.080919
2988	0.090408
2984	0.107407
2980	0.093102
2976	0.035047
2972	0.010442
2968	0.021147
2964	0.021171
2960	0.012135
2956	0.012755
2952	0.002336
2948	-0.032520
2944	-0.050592
2940	-0.010490
2936	0.032138
2932	0.028705
2928	0.032067
2924	0.039982
2920	0.049257
2916	0.105905
2912	0.167441
2908	0.147843
2904	0.044131
2900	-0.085449
2896	-0.129508
2892	-0.057458
2888	0.031065
2884	0.083613
2880	0.063395
2876	-0.025701
2872	-0.084185
2868	-0.051188
2864	-0.006055
2860	-0.039315
2856	-0.132179
2852	-0.145435
2848	-0.022673
2844	0.071692
2840	0.084733
2836	0.072026
2832	0.036907
2828	0.007247
2824	-0.005793
2820	0.016283
2816	0.097656
2812	0.154995
2808	0.116109
2804	0.060153
2800	0.050067
2796	0.043106
2792	0.007486
2788	-0.014638
2784	0.012397
2780	0.064754
2776	0.087833
2772	0.059366
2768	0.019931
2764	0.016736
2760	0.069141
2756	0.101733
2752	0.049829
2748	0.025534
2744	0.036096
2740	-0.025701
2736	-0.085473
2732	-0.072956
2728	-0.062704
2724	-0.061845
2720	-0.030159
2716	0.026464
2712	0.089597
2708	0.090527
2704	0.033020
2700	0.031518
2696	0.087642
2692	0.116038
2688	0.067710
2684	-0.000691
2680	0.025439
2676	0.056195
2672	0.036835
2668	0.035905
2664	-0.007367
2660	-0.047659
2656	-0.045442
2652	-0.041222
2648	-0.000715
2644	0.059461
2640	0.108814
2636	0.113964
2632	0.062680
2628	-0.004220
2624	-0.032067
2620	0.009489
2616	0.034594
2612	0.017762
2608	0.014877
2604	0.009942
2600	-0.023698
2596	-0.062823
2592	-0.026631
2588	0.064897
2584	0.072765
2580	0.010156
2576	0.015854
2572	0.068521
2568	0.071978
2564	0.024747
2560	0.021386
2556	0.087785
2552	0.081896
2548	-0.001740
2544	-0.033950
2540	-0.025391
2536	-0.029563
2532	0.004434
2528	0.092363
2524	0.144124
2520	0.150704
2516	0.171065
2512	0.227165
2508	0.263261
2504	0.189042
2500	0.090646
2496	0.002908
2492	-0.182604
2488	-0.290083
2484	-0.141286
2480	0.024008
2476	0.021719
2472	0.018668
2468	0.124740
2464	0.182795
2460	0.113892
2456	0.047636
2452	0.030732
2448	0.024271
2444	0.024771
2440	0.028562
2436	0.064349
2432	0.072574
2428	0.005960
2424	0.072264
2420	0.239014
2416	0.222039
2412	0.094485
2408	0.016617
2404	-0.026750
2400	-0.061249
2396	-0.097465
2392	-0.082516
2388	0.009441
2384	0.096058
2380	0.134706
2376	0.158286
2372	0.155854
2368	0.109243
2364	0.060439
2360	0.029850
2356	-0.009775
2352	-0.040864
2348	-0.053381
2344	-0.078940
2340	-0.054550
2336	0.033974
2332	0.071215
2328	0.071549
2324	0.073742
2320	0.033354
2316	0.013089
2312	0.053071
2308	0.067996
2304	0.039720
2300	0.049018
2296	0.109195
2292	0.167131
2288	0.204682
2284	0.218415
2280	0.219440
2276	0.260066
2272	0.358819
2268	0.433039
2264	0.413298
2260	0.404930
2256	0.504136
2252	0.637173
2248	0.755882
2244	0.824856
2240	0.846004
2236	0.951623
2232	1.147937
2228	1.243519
2224	1.235938
2220	1.329183
2216	1.516175
2212	1.685047
2208	1.846647
2204	1.990413
2200	2.115058
2196	2.295017
2192	2.524042
2188	2.738285
2184	2.946043
2180	3.162431
2176	3.394937
2172	3.689455
2168	4.028248
2164	4.301786
2160	4.524111
2156	4.797530
2152	5.094003
2148	5.375170
2144	5.644273
2140	5.909967
2136	6.237959
2132	6.649518
2128	7.085061
2124	7.468605
2120	7.846117
2116	8.255100
2112	8.559393
2108	8.826923
2104	9.237265
2100	9.671783
2096	10.0255
2092	10.3678
2088	10.7302
2084	11.1711
2080	11.6261
2076	12.0184
2072	12.5143
2068	12.9959
2064	13.1769
2060	13.3532
2056	13.7705
2052	14.1984
2048	14.5859
2044	14.9586
2040	15.2834
2036	15.6247
2032	15.9679
2028	16.2818
2024	16.6193
2020	16.9924
2016	17.3444
2012	17.62
2008	17.874
2004	18.1825
2000	18.5076
1996	18.7802
1992	19.0286
1988	19.2965
1984	19.5424
1980	19.7869
1976	20.0608
1972	20.3188
1968	20.5264
1964	20.7085
1960	20.9213
1956	21.1921
1952	21.4325
1948	21.5862
1944	21.7858
1940	22.053
1936	22.2619
1932	22.3682
1928	22.4619
1924	22.6438
1920	22.8841
1916	23.0681
1912	23.1724
1908	23.3175
1904	23.5129
1900	23.6471
1896	23.7315
1892	23.838
1888	23.9434
1884	24.0448
1880	24.1989
1876	24.4163
1872	24.6309
1868	24.7507
1864	24.7841
1860	24.8322
1856	24.9728
1852	25.1227
1848	25.1732
1844	25.1578
1840	25.1523
1836	25.2338
1832	25.3652
1828	25.4875
1824	25.6087
1820	25.6662
1816	25.6885
1812	25.7759
1808	25.9088
1804	26.0473
1800	26.1734
1796	26.2508
1792	26.2702
1788	26.2618
1784	26.2597
1780	26.3021
1776	26.4063
1772	26.4925
1768	26.525
1764	26.5449
1760	26.5617
1756	26.6096
1752	26.6557
1748	26.6687
1744	26.6945
1740	26.739
1736	26.79
1732	26.8184
1728	26.8623
1724	26.9086
1720	26.9118
1716	26.9197
1712	26.9479
1708	27.0088
1704	27.1601
1700	27.3414
1696	27.3476
1692	27.2343
1688	27.2172
1684	27.2666
1680	27.2554
1676	27.2561
1672	27.3519
1668	27.4178
1664	27.3722
1660	27.3826
1656	27.5799
1652	27.6996
1648	27.5904
1644	27.4424
1640	27.4309
1636	27.5387
1632	27.5506
1628	27.4754
1624	27.4754
1620	27.5551
1616	27.608
1612	27.596
1608	27.5936
1604	27.5942
1600	27.5748
1596	27.5792
1592	27.6166
1588	27.6562
1584	27.6669
1580	27.659
1576	27.6862
1572	27.7407
1568	27.7579
1564	27.8032
1560	27.8905
1556	27.8933
1552	27.8298
1548	27.7927
1544	27.8586
1540	27.931
1536	27.8728
1532	27.7709
1528	27.7575
1524	27.8345
1520	27.8999
1516	27.9381
1512	28.0034
1508	28.041
1504	27.9425
1500	27.8211
1496	27.8389
1492	27.943
1488	27.9824
1484	27.8968
1480	27.8197
1476	27.855
1472	27.8992
1468	27.8887
1464	27.8624
1460	27.8918
1456	27.9599
1452	27.8788
1448	27.7572
1444	27.8617
1440	28.0157
1436	27.9649
1432	27.8439
1428	27.8327
1424	27.8779
1420	27.9155
1416	27.9372
1412	27.9672
1408	28
1404	27.9464
1400	27.8823
1396	27.8832
1392	27.8409
1388	27.7912
1384	27.8117
1380	27.8815
1376	27.9347
1372	27.9181
1368	27.9142
1364	27.94
1360	27.9134
1356	27.8335
1352	27.7797
1348	27.7948
1344	27.7786
1340	27.6891
1336	27.6156
1332	27.6372
1328	27.7376
1324	27.8391
1320	27.8488
1316	27.7898
1312	27.8369
1308	27.9221
1304	27.8906
1300	27.8127
1296	27.7628
1292	27.7393
1288	27.7075
1284	27.6764
1280	27.649
1276	27.6556
1272	27.7391
1268	27.8139
1264	27.8596
1260	27.8436
1256	27.7162
1252	27.6327
1248	27.6359
1244	27.6368
1240	27.6652
1236	27.7271
1232	27.7434
1228	27.6823
1224	27.6154
1220	27.6058
1216	27.6601
1212	27.7253
1208	27.7172
1204	27.6674
1200	27.6091
1196	27.5655
1192	27.5971
1188	27.591
1184	27.4853
1180	27.4275
1176	27.4814
1172	27.5696
1168	27.6195
1164	27.6188
1160	27.5667
1156	27.5212
1152	27.528
1148	27.5064
1144	27.4321
1140	27.3596
1136	27.2968
1132	27.253
1128	27.2516
1124	27.291
1120	27.307
1116	27.2527
1112	27.2943
1108	27.4987
1104	27.559
1100	27.4724
1096	27.443
1092	27.3601
1088	27.2349
1084	27.0964
1080	26.9512
1076	26.9224
1072	26.9571
1068	26.9529
1064	26.9788
1060	27.1355
1056	27.3585
1052	27.4569
1048	27.3084
1044	27.0432
1040	26.8515
1036	26.7659
1032	26.7077
1028	26.6279
1024	26.5893
1020	26.6138
1016	26.5523
1012	26.5064
1008	26.7006
1004	26.8781
1000	26.8925
996	 26.9069
992	 26.9249
988	 26.8028
984	 26.5878
980	 26.4914
976	 26.4596
972	 26.461
968	 26.4518
964	 26.3885
960	 26.447
956	 26.5488
952	 26.5042
948	 26.3715
944	 26.3044
940	 26.2611
936	 26.1333
932	 25.9704
928	 25.8694
924	 25.8232
920	 25.8478
916	 26.0108
912	 26.0549
908	 25.8951
904	 25.8921
900	 26.0654
896	 26.0889
892	 25.9133
888	 25.7094
884	 25.5355
880	 25.374
876	 25.2329
872	 25.2087
868	 25.3049
864	 25.4121
860	 25.4616
856	 25.409
852	 25.4555
848	 25.6316
844	 25.5996
840	 25.3261
836	 25.0618
832	 24.9459
828	 24.835
824	 24.7741
820	 24.8235
816	 24.7068
812	 24.5386
808	 24.5924
804	 24.7183
800	 24.7356
796	 24.7107
792	 24.6695
788	 24.6301
784	 24.5076
780	 24.3262
776	 24.2064
772	 24.0467
768	 23.7919
764	 23.5794
760	 23.5902
756	 23.7805
752	 23.9545
748	 24.0341
744	 24.0161
740	 23.8793
736	 23.7896
732	 23.787
728	 23.7795
724	 23.8141
720	 23.6753
716	 23.4085
712	 23.3316
708	 23.3052
704	 23.2878
700	 23.2865
696	 23.1043
692	 23.1255
688	 23.4105
684	 23.3761
680	 23.1173
676	 22.8549
672	 22.5474
668	 22.3586
664	 22.3062
660	 22.1652
656	 22.1603
652	 22.3519
648	 22.4335
644	 22.4391
640	 22.3769
636	 22.209
632	 21.9879
628	 21.7377
624	 21.4564
620	 21.156
616	 20.9639
612	 21.0997
608	 21.1424
604	 20.7366
600	 20.5348
596	 20.6974
592	 20.8832
588	 21.0598
584	 21.0566
580	 20.7718
576	 20.548
572	 20.347
568	 20.0094
564	 19.7828
560	 19.7008
556	 19.7949
552	 19.9778
548	 20.1693
544	 20.257
540	 19.9495
536	 19.533
532	 19.3069
528	 19.1154
524	 19.0246
520	 19.0931
516	 18.9337
512	 18.935
508	 19.3614
504	 19.3121
500	 18.9416
496	 18.7361
492	 18.3297
488	 18.2385
484	 18.5161
480	 18.3522
476	 18.1104
472	 17.9228
468	 17.8553
464	 18.0845
460	 17.5797
456	 16.6295
452	 16.6931
448	 17.5893
444	 18.3166
440	 17.6563
436	 16.5003
432	 17.1713
428	 17.7739
424	 17.0527
420	 17.6301
416	 19.4348
412	 18.6088
408	 14.3487
404	 9.367489
400	 3.054499
396	 -1.960182
392	 -1.077222
388	 4.397988
384	 14.5658
380	 18.8069
376	 6.234741
372	 -2.929735
370	 -1.538610