File: Bakgrunnsmateriale/MATLAB/FTIR/ftir_data/LPE453/Mapping_121/LPE453_t106_cm-1.asc
PE IR       SPECTRUM    SPECTRUM    ASCII       PEDS        1.60
  -1
LP0978~1.ASC
17/05/16
23:02:36.00
17/05/16
23:02:36.00
tln
$LPE453_t0106$<tbV0>[-2.6,10.4,8.0,0.0,27,1,0]
370
64

2002,4.07
MIRTGS : RIGHTBACK : INTERNAL 2
MIR : ON : INTERNAL 2
OPTKBR

0.200000
8
8.000000
FILLER
RATIO
SPECTRUM
UNLOCKED 256

DOUBLE
64
COMBINED
1
0
0

1.000000
RATIO

1
0
TRUE
51149
0
LEFT NOT FITTED RIGHT NOT FITTED 0
NONE
NONE
15600
12
4.427000
51148
TRUE
1 0 8 72 0 0 0 0

15798

#HDR
-1
-1
#GR
CM-1
%T
2.38419e-05
0.0
5000
-1.000000
4631
8
36.4049
-9.692692
#DATA
5000	0.073504
4996	-0.113153
4992	0.094246
4988	0.326204
4984	0.433468
4980	0.426077
4976	0.337076
4972	0.224494
4968	-0.085115
4964	-0.457859
4960	-0.433349
4956	-0.118708
4952	0.015759
4948	-0.048732
4944	-0.054001
4940	0.082206
4936	0.139594
4932	0.023531
4928	-0.077366
4924	-0.074291
4920	-0.009274
4916	0.125074
4912	0.197625
4908	0.074577
4904	0.011801
4900	0.155663
4896	0.270748
4892	0.176835
4888	-0.018477
4884	-0.143980
4880	-0.091099
4876	-0.032544
4872	-0.139117
4868	-0.202202
4864	-0.077700
4860	0.205826
4856	0.289559
4852	0.100326
4848	0.081491
4844	0.160980
4840	0.131320
4836	0.165033
4832	0.255799
4828	0.298309
4824	0.335383
4820	0.393342
4816	0.427150
4812	0.365805
4808	0.228047
4804	0.169634
4800	0.163435
4796	0.006127
4792	-0.075173
4788	0.245141
4784	0.626444
4780	0.764226
4776	0.899934
4772	0.767827
4768	0.330829
4764	0.207448
4760	0.173163
4756	-0.087356
4752	-0.142073
4748	0.167918
4744	0.300526
4740	0.223946
4736	0.376796
4732	0.269865
4728	-0.287771
4724	-0.268983
4720	0.492095
4716	0.945305
4712	0.544714
4708	-0.128459
4704	-0.740385
4700	-1.190662
4696	-1.175689
4692	-0.488758
4688	1.299810
4684	2.419877
4680	1.780486
4676	1.785659
4672	2.027273
4668	1.230549
4664	1.137924
4660	1.572299
4656	1.322722
4652	0.952005
4648	0.567150
4644	0.104236
4640	-0.257205
4636	-0.487470
4632	-0.017762
4628	0.672006
4624	0.313448
4620	-0.480413
4616	-0.513148
4612	0.181508
4608	0.540471
4604	0.312376
4600	-0.107884
4596	-0.578498
4592	-0.769448
4588	-0.677967
4584	-0.318360
4580	0.183677
4576	0.223779
4572	-0.185871
4568	-0.391840
4564	-0.327086
4560	-0.558304
4556	-0.663638
4552	-0.606179
4548	-0.775742
4544	-0.890660
4540	-0.889825
4536	-0.881195
4532	-0.450491
4528	-0.084114
4524	-0.599932
4520	-1.313757
4516	-1.073145
4512	0.130128
4508	1.344013
4504	3.239154
4500	8.054399
4496	13.1904
4492	11.6829
4488	7.835650
4484	8.078908
4480	5.431532
4476	-0.133991
4472	-1.809430
4468	-1.251840
4464	-0.796008
4460	-0.552701
4456	-0.269913
4452	-0.244951
4448	-0.467705
4444	-0.420308
4440	-0.243973
4436	-0.071740
4432	0.038290
4428	-0.155425
4424	-0.488352
4420	-0.220775
4416	0.359702
4412	0.475978
4408	0.326752
4404	0.115156
4400	-0.128912
4396	-0.333690
4392	-0.303840
4388	0.021648
4384	0.370383
4380	0.413322
4376	0.244736
4372	0.309014
4368	0.588226
4364	0.717306
4360	0.605511
4356	0.482988
4352	0.460600
4348	0.443029
4344	0.330448
4340	0.094270
4336	-0.042581
4332	0.173830
4328	0.444984
4324	0.320243
4320	0.158762
4316	0.251579
4312	0.398206
4308	0.539398
4304	0.414085
4300	0.108361
4296	0.077128
4292	0.187015
4288	0.211381
4284	0.199937
4280	0.222229
4276	0.190997
4272	0.008702
4268	-0.047802
4264	-0.014519
4260	-0.127673
4256	-0.089097
4252	-0.009775
4248	-0.060200
4244	0.028514
4240	0.134754
4236	0.122666
4232	0.067114
4228	-0.007772
4224	-0.084471
4220	-0.032186
4216	0.041389
4212	0.010848
4208	0.058412
4204	0.133633
4200	0.143003
4196	0.144553
4192	0.065922
4188	-0.006699
4184	0.092840
4180	0.245475
4176	0.338935
4172	0.312662
4168	0.201916
4164	0.200605
4160	0.200343
4156	0.071454
4152	-0.064015
4148	-0.098180
4144	-0.003075
4140	0.072503
4136	0.079202
4132	0.172114
4128	0.233507
4124	0.078821
4120	-0.106024
4116	-0.043058
4112	0.144076
4108	0.134921
4104	-0.003218
4100	-0.010418
4096	0.032687
4092	-0.006484
4088	-0.002551
4084	0.052666
4080	0.093507
4076	0.144147
4072	0.137329
4068	0.070810
4064	0.047349
4060	0.056982
4056	0.036621
4052	0.063109
4048	0.112962
4044	0.011110
4040	-0.087833
4036	-0.023603
4032	0.044560
4028	0.061964
4024	0.085020
4020	0.088453
4016	0.040483
4012	-0.040006
4008	-0.062346
4004	0.049591
4000	0.215005
3996	0.320219
3992	0.313425
3988	0.251817
3984	0.164842
3980	0.027585
3976	0.002884
3972	0.064396
3968	0.068831
3964	0.070023
3960	0.111818
3956	0.076103
3952	-0.001931
3948	0.097608
3944	0.223779
3940	0.144314
3936	0.015687
3932	0.012373
3928	0.080418
3924	0.061678
3920	-0.099754
3916	-0.207757
3912	-0.109720
3908	0.079894
3904	0.194764
3900	0.124025
3896	-0.008535
3892	-0.035786
3888	-0.020551
3884	0.027656
3880	0.118923
3876	0.181746
3872	0.170993
3868	0.172805
3864	0.214362
3860	0.164270
3856	0.058531
3852	0.002264
3848	-0.003314
3844	-0.017547
3840	0.015974
3836	0.133824
3832	0.164890
3828	0.058984
3824	-0.047731
3820	-0.109815
3816	-0.147366
3812	-0.097227
3808	0.039744
3804	0.138831
3800	0.159144
3796	0.167703
3792	0.169396
3788	0.132989
3784	0.077700
3780	0.077295
3776	0.094461
3772	0.034499
3768	-0.021696
3764	0.012278
3760	0.061702
3756	0.037956
3752	-0.036025
3748	-0.076985
3744	-0.047039
3740	-0.012898
3736	0.012445
3732	0.072956
3728	0.146842
3724	0.190091
3720	0.135874
3716	0.062227
3712	0.096130
3708	0.137853
3704	0.112533
3700	0.100970
3696	0.072336
3692	0.027537
3688	0.073909
3684	0.079917
3680	-0.011539
3676	-0.040411
3672	0.040650
3668	0.124955
3664	0.134468
3660	0.094795
3656	0.031304
3652	-0.006747
3648	0.020480
3644	0.054097
3640	0.010395
3636	-0.041198
3632	-0.003099
3628	0.057077
3624	0.104713
3620	0.156140
3616	0.166320
3612	0.150489
3608	0.152826
3604	0.126361
3600	0.066709
3596	0.027036
3592	0.007367
3588	0.000286
3584	0.036501
3580	0.076436
3576	0.071668
3572	0.108003
3568	0.145483
3564	0.078320
3560	-0.017166
3556	-0.067996
3552	-0.017786
3548	0.074934
3544	0.109434
3540	0.149202
3536	0.170397
3532	0.153088
3528	0.129556
3524	0.050330
3520	-0.014019
3516	-0.024485
3512	-0.003361
3508	0.011730
3504	-0.036644
3500	-0.015807
3496	0.090670
3492	0.123000
3488	0.120544
3484	0.094556
3480	0.038409
3476	0.040340
3472	0.025773
3468	-0.029969
3464	-0.031495
3460	0.025010
3456	0.059342
3452	0.037050
3448	0.025534
3444	0.069570
3440	0.093603
3436	0.016427
3432	-0.060224
3428	-0.035595
3424	0.038504
3420	0.093913
3416	0.077795
3412	-0.035023
3408	-0.121617
3404	-0.064897
3400	-0.006246
3396	-0.028419
3392	0.009608
3388	0.091791
3384	0.107908
3380	0.098037
3376	0.073218
3372	0.016975
3368	0.029850
3364	0.083684
3360	0.067925
3356	0.039243
3352	0.032377
3348	0.023674
3344	0.019001
3340	0.040054
3336	0.047564
3332	0.027298
3328	0.070285
3324	0.143980
3320	0.170326
3316	0.128579
3312	0.089859
3308	0.094413
3304	0.051569
3300	-0.004243
3296	-0.010895
3292	0.028896
3288	0.084042
3284	0.074243
3280	0.048947
3276	0.100135
3272	0.109696
3268	-0.019121
3264	-0.108575
3260	-0.059509
3256	0.011658
3252	0.013518
3248	-0.011730
3244	0.022602
3240	0.072932
3236	0.038027
3232	-0.016665
3228	0.000143
3224	0.012469
3220	-0.015211
3216	-0.021028
3212	0.019407
3208	0.048279
3204	0.000524
3200	-0.052165
3196	-0.018334
3192	0.029349
3188	-0.020003
3184	-0.024437
3180	0.033140
3176	0.024104
3172	0.024056
3168	0.014925
3164	-0.040340
3160	-0.050687
3156	-0.024509
3152	-0.036644
3148	-0.060510
3144	0.019931
3140	0.178837
3136	0.175380
3132	0.025177
3128	0.001645
3124	0.099134
3120	0.132441
3116	0.064730
3112	0.016593
3108	0.069642
3104	0.103402
3100	0.028014
3096	-0.037336
3092	-0.007677
3088	0.002264
3084	-0.061249
3080	-0.062036
3076	0.025367
3072	0.113749
3068	0.199961
3064	0.217270
3060	0.132799
3056	0.079488
3052	0.098490
3048	0.086331
3044	0.007247
3040	-0.040268
3036	-0.005292
3032	0.003719
3028	-0.064373
3024	-0.062441
3020	0.015377
3016	0.055480
3012	0.065779
3008	0.078296
3004	0.109457
3000	0.092077
2996	-0.012326
2992	-0.089597
2988	-0.055408
2984	0.005507
2980	0.050616
2976	0.109481
2972	0.088286
2968	0.010395
2964	0.033164
2960	0.090432
2956	0.070190
2952	0.046992
2948	0.044345
2944	0.016164
2940	0.012516
2936	0.029778
2932	0.052762
2928	0.104165
2924	0.118088
2920	0.086259
2916	0.055122
2912	0.015997
2908	-0.016856
2904	-0.023603
2900	-0.050878
2896	-0.043654
2892	0.054955
2888	0.097346
2884	0.038218
2880	0.024819
2876	0.090765
2872	0.125575
2868	0.090718
2864	0.071096
2860	0.074195
2856	0.034451
2852	-0.005483
2848	-0.015473
2844	0.001525
2840	0.028944
2836	0.032377
2832	0.059509
2828	0.104403
2824	0.103282
2820	0.052380
2816	-0.005125
2812	0.003910
2808	0.041985
2804	0.026655
2800	-0.019192
2796	-0.021719
2792	0.059580
2788	0.121760
2784	0.110268
2780	0.097393
2776	0.076580
2772	0.028634
2768	-0.001287
2764	0.026249
2760	0.088500
2756	0.126218
2752	0.082516
2748	-0.019645
2744	-0.074172
2740	-0.052452
2736	-0.027537
2732	-0.033259
2728	-0.052094
2724	-0.056147
2720	-0.046777
2716	-0.036025
2712	0.023269
2708	0.056004
2704	0.010609
2700	0.014090
2696	0.076127
2692	0.084424
2688	0.022768
2684	0.012040
2680	0.058150
2676	0.069236
2672	0.059270
2668	0.032258
2664	0.015044
2660	0.041794
2656	0.040626
2652	-0.025987
2648	-0.081110
2644	-0.061082
2640	-0.007367
2636	0.023984
2632	0.026345
2628	0.009703
2624	0.010275
2620	0.039386
2616	0.049042
2612	0.033307
2608	0.071716
2604	0.142812
2600	0.102424
2596	-0.000715
2592	-0.000762
2588	0.043916
2584	0.052785
2580	0.028181
2576	0.024795
2572	0.099205
2568	0.129938
2564	0.025033
2560	-0.059747
2556	-0.062370
2552	-0.065469
2548	-0.003862
2544	0.134968
2540	0.184202
2536	0.070428
2532	-0.046396
2528	-0.020647
2524	0.049257
2520	0.061678
2516	0.048255
2512	0.104212
2508	0.190567
2504	0.109267
2500	-0.026297
2496	0.000500
2492	0.066518
2488	0.067067
2484	0.037431
2480	0.016212
2476	0.042152
2472	0.049710
2468	0.006175
2464	0.043964
2460	0.110244
2456	0.100851
2452	0.110149
2448	0.110912
2444	0.055360
2440	0.014233
2436	0.032353
2432	0.128030
2428	0.192308
2424	0.171995
2420	0.127220
2416	0.090765
2412	0.090456
2408	0.088787
2404	0.049257
2400	0.025582
2396	0.059819
2392	0.085067
2388	0.094556
2384	0.139403
2380	0.165891
2376	0.148820
2372	0.131559
2368	0.148081
2364	0.200653
2360	0.209856
2356	0.133275
2352	0.082826
2348	0.145888
2344	0.275945
2340	0.352001
2336	0.347375
2332	0.371313
2328	0.398468
2324	0.393748
2320	0.450539
2316	0.540733
2312	0.555062
2308	0.523090
2304	0.568795
2300	0.675034
2296	0.746273
2292	0.787758
2288	0.824546
2284	0.881195
2280	0.991249
2276	1.121759
2272	1.245474
2268	1.383399
2264	1.494812
2260	1.564431
2256	1.678276
2252	1.857018
2248	2.020907
2244	2.165818
2240	2.338075
2236	2.517724
2232	2.726721
2228	3.005290
2224	3.265118
2220	3.447699
2216	3.650093
2212	3.919649
2208	4.206323
2204	4.511022
2200	4.872035
2196	5.271339
2192	5.628991
2188	5.937099
2184	6.273365
2180	6.648254
2176	7.078671
2172	7.563424
2168	8.043932
2164	8.499503
2160	8.921813
2156	9.339094
2152	9.786033
2148	10.2647
2144	10.7469
2140	11.2049
2136	11.6753
2132	12.2087
2128	12.7573
2124	13.2426
2120	13.682
2116	14.1445
2112	14.6553
2108	15.1946
2104	15.7308
2100	16.2539
2096	16.7655
2092	17.297
2088	17.8656
2084	18.4453
2080	19.0082
2076	19.4836
2072	19.8778
2068	20.2778
2064	20.7039
2060	21.1176
2056	21.5213
2052	21.9855
2048	22.4861
2044	22.9704
2040	23.4596
2036	24.002
2032	24.5885
2028	25.0767
2024	25.4242
2020	25.7509
2016	26.0533
2012	26.2703
2008	26.4584
2004	26.6927
2000	27.018
1996	27.3835
1992	27.7569
1988	28.174
1984	28.6095
1980	29.0307
1976	29.3912
1972	29.6856
1968	29.9458
1964	30.1246
1960	30.2156
1956	30.2969
1952	30.4164
1948	30.605
1944	30.8069
1940	30.9826
1936	31.2335
1932	31.5673
1928	31.8946
1924	32.1939
1920	32.4645
1916	32.6601
1912	32.7953
1908	32.8693
1904	32.8212
1900	32.7382
1896	32.7326
1892	32.7815
1888	32.9014
1884	33.1161
1880	33.3504
1876	33.5964
1872	33.8896
1868	34.1903
1864	34.4049
1860	34.4941
1856	34.4892
1852	34.3807
1848	34.246
1844	34.1959
1840	34.2152
1836	34.2717
1832	34.3688
1828	34.5171
1824	34.7029
1820	34.9016
1816	35.1009
1812	35.2605
1808	35.3579
1804	35.4008
1800	35.3755
1796	35.3008
1792	35.1869
1788	35.0405
1784	34.9524
1780	34.9557
1776	35.0038
1772	35.1134
1768	35.2574
1764	35.3942
1760	35.557
1756	35.7605
1752	35.9423
1748	36.0092
1744	35.9713
1740	35.8447
1736	35.6416
1732	35.4557
1728	35.317
1724	35.2471
1720	35.2877
1716	35.387
1712	35.5
1708	35.6494
1704	35.8572
1700	36.0671
1696	36.2042
1692	36.248
1688	36.2063
1684	36.0921
1680	35.9254
1676	35.7585
1672	35.605
1668	35.4838
1664	35.4262
1660	35.409
1656	35.477
1652	35.6641
1648	35.8887
1644	36.0945
1640	36.2714
1636	36.3854
1632	36.399
1628	36.3255
1624	36.1741
1620	35.9669
1616	35.7798
1612	35.6316
1608	35.4741
1604	35.3719
1600	35.3886
1596	35.5127
1592	35.7573
1588	36.0636
1584	36.2503
1580	36.2612
1576	36.225
1572	36.2215
1568	36.2098
1564	36.1016
1560	35.8715
1556	35.6024
1552	35.3947
1548	35.3208
1544	35.3962
1540	35.5513
1536	35.6827
1532	35.8175
1528	36.0385
1524	36.2474
1520	36.353
1516	36.3693
1512	36.253
1508	36.0262
1504	35.7875
1500	35.5921
1496	35.4763
1492	35.3894
1488	35.3142
1484	35.3612
1480	35.5317
1476	35.734
1472	35.9467
1468	36.1248
1464	36.2037
1460	36.2554
1456	36.2704
1452	36.1495
1448	35.915
1444	35.6418
1440	35.3593
1436	35.1506
1432	35.1066
1428	35.1141
1424	35.1538
1420	35.3018
1416	35.4512
1412	35.6252
1408	35.851
1404	36.0007
1400	36.0742
1396	36.0363
1392	35.8487
1388	35.6058
1384	35.3406
1380	35.089
1376	34.9137
1372	34.8336
1368	34.8649
1364	34.9829
1360	35.1699
1356	35.4284
1352	35.6797
1348	35.8038
1344	35.8424
1340	35.9012
1336	35.8642
1332	35.6628
1328	35.4175
1324	35.1322
1320	34.8442
1316	34.7214
1312	34.7623
1308	34.7957
1304	34.8262
1300	34.9939
1296	35.2632
1292	35.5184
1288	35.6917
1284	35.7808
1280	35.7948
1276	35.6855
1272	35.4661
1268	35.1692
1264	34.8286
1260	34.5893
1256	34.4878
1252	34.4663
1248	34.579
1244	34.7826
1240	34.9766
1236	35.1622
1232	35.3612
1228	35.5757
1224	35.6823
1220	35.5775
1216	35.3952
1212	35.2275
1208	35.0147
1204	34.7173
1200	34.4198
1196	34.2775
1192	34.3029
1188	34.425
1184	34.5971
1180	34.8131
1176	35.0747
1172	35.3063
1168	35.4152
1164	35.3924
1160	35.3464
1156	35.2389
1152	34.9524
1148	34.6273
1144	34.3906
1140	34.1754
1136	34.0311
1132	34.0633
1128	34.1854
1124	34.3146
1120	34.4918
1116	34.7635
1112	35.0681
1108	35.2532
1104	35.2319
1100	35.0694
1096	34.8656
1092	34.6628
1088	34.4437
1084	34.1728
1080	33.8616
1076	33.6072
1072	33.5736
1068	33.7573
1064	33.974
1060	34.135
1056	34.3366
1052	34.6017
1048	34.7976
1044	34.8582
1040	34.8106
1036	34.6352
1032	34.3046
1028	33.9319
1024	33.6807
1020	33.5443
1016	33.3928
1012	33.3043
1008	33.3905
1004	33.5612
1000	33.7941
996	 34.1021
992	 34.424
988	 34.5898
984	 34.5633
980	 34.4204
976	 34.0238
972	 33.5421
968	 33.3128
964	 33.2593
960	 33.1468
956	 32.8947
952	 32.7224
948	 32.8057
944	 33.0529
940	 33.3129
936	 33.4705
932	 33.5973
928	 33.7455
924	 33.7988
920	 33.6696
916	 33.4169
912	 33.1756
908	 32.9284
904	 32.6506
900	 32.3695
896	 32.1525
892	 32.1748
888	 32.3888
884	 32.5772
880	 32.7308
876	 32.9207
872	 33.0157
868	 32.9932
864	 33.0447
860	 33.0654
856	 32.8221
852	 32.4532
848	 32.1104
844	 31.7853
840	 31.5873
836	 31.4878
832	 31.3654
828	 31.3453
824	 31.5134
820	 31.7384
816	 31.9858
812	 32.2167
808	 32.29
804	 32.2728
800	 32.1679
796	 31.8539
792	 31.5196
788	 31.2978
784	 31.1129
780	 30.8553
776	 30.5586
772	 30.496
768	 30.6666
764	 30.8985
760	 31.1992
756	 31.5027
752	 31.6613
748	 31.6499
744	 31.4806
740	 31.2674
736	 31.0086
732	 30.6127
728	 30.2201
724	 29.9061
720	 29.7128
716	 29.6264
712	 29.5725
708	 29.6555
704	 29.884
700	 30.0921
696	 30.3246
692	 30.5345
688	 30.4674
684	 30.2865
680	 30.1296
676	 29.8621
672	 29.5085
668	 29.2409
664	 29.1565
660	 29.0134
656	 28.7157
652	 28.5296
648	 28.4866
644	 28.5722
640	 28.8566
636	 29.0964
632	 29.1522
628	 29.2098
624	 29.2369
620	 29.1023
616	 28.8494
612	 28.444
608	 27.9503
604	 27.6461
600	 27.4311
596	 27.1875
592	 27.0803
588	 27.2271
584	 27.4708
580	 27.46
576	 27.3467
572	 27.4918
568	 27.6783
564	 27.583
560	 27.3734
556	 27.1185
552	 26.742
548	 26.3215
544	 25.9487
540	 25.6274
536	 25.3443
532	 25.24
528	 25.3274
524	 25.4864
520	 25.9532
516	 26.4347
512	 26.0607
508	 25.4001
504	 25.218
500	 25.0632
496	 24.627
492	 24.2753
488	 24.358
484	 24.4845
480	 24.2505
476	 23.974
472	 24.0178
468	 24.2437
464	 24.3821
460	 24.3624
456	 24.492
452	 25.1222
448	 25.4089
444	 24.7829
440	 24.1597
436	 23.6551
432	 22.7966
428	 21.9837
424	 21.3395
420	 21.0372
416	 20.8755
412	 19.951
408	 18.6388
404	 15.9979
400	 13.9827
396	 16.0504
392	 21.2065
388	 25.6921
384	 23.1086
380	 11.9675
376	 -2.590513
372	 -9.692692
370	 -7.540011