File: Bakgrunnsmateriale/MATLAB/FTIR/ftir_data/LPE453/Mapping_121/LPE453_t90_cm-1.asc
PE IR       SPECTRUM    SPECTRUM    ASCII       PEDS        1.60
  -1
LPDB55~1.ASC
17/05/16
21:48:13.00
17/05/16
21:48:13.00
tln
$LPE453_t0090$<tbV0>[10.4,7.8,8.0,0.0,27,1,0]
370
64

2002,4.07
MIRTGS : RIGHTBACK : INTERNAL 2
MIR : ON : INTERNAL 2
OPTKBR

0.200000
8
8.000000
FILLER
RATIO
SPECTRUM
UNLOCKED 256

DOUBLE
64
COMBINED
1
0
0

1.000000
RATIO

1
0
TRUE
51149
0
LEFT NOT FITTED RIGHT NOT FITTED 0
NONE
NONE
15600
12
4.427000
51148
TRUE
1 0 8 72 0 0 0 0

15798

#HDR
-1
-1
#GR
CM-1
%T
2.38419e-05
0.0
5000
-1.000000
4631
8
33.5304
-5.241775
#DATA
5000	0.354862
4996	0.492739
4992	0.560665
4988	0.495028
4984	0.440835
4980	0.287342
4976	0.028681
4972	-0.080990
4968	0.062179
4964	0.326514
4960	0.355982
4956	0.029897
4952	-0.245046
4948	-0.200319
4944	0.034284
4940	0.172805
4936	0.132298
4932	0.147485
4928	0.057911
4924	-0.224995
4920	-0.218892
4916	-0.047469
4912	-0.046110
4908	0.079536
4904	0.403976
4900	0.593376
4896	0.567841
4892	0.389981
4888	0.250792
4884	0.287103
4880	0.263071
4876	0.140213
4872	0.153684
4868	0.252699
4864	0.141859
4860	-0.052881
4856	-0.045776
4852	0.054597
4848	0.103330
4844	0.056481
4840	-0.030660
4836	0.053858
4832	0.236558
4828	0.212097
4824	0.042057
4820	-0.108504
4816	-0.169610
4812	-0.059866
4808	0.137257
4804	0.238394
4800	0.216436
4796	0.225949
4792	0.402379
4788	0.482773
4784	0.324702
4780	0.242328
4776	0.152683
4772	-0.115704
4768	-0.454926
4764	-0.616478
4760	-0.405979
4756	0.072312
4752	0.457882
4748	0.352811
4744	-0.018167
4740	-0.162792
4736	-0.093317
4732	-0.112056
4728	-0.096225
4724	0.149703
4720	0.238156
4716	0.084185
4712	-0.005769
4708	-0.162386
4704	-0.289154
4700	-0.070977
4696	0.330114
4692	0.720334
4688	0.947952
4684	0.856995
4680	0.488305
4676	-0.365257
4672	-0.887274
4668	-0.085115
4664	0.781726
4660	0.424933
4656	-0.552773
4652	-0.867199
4648	-0.562381
4644	-0.955867
4640	-1.556110
4636	-0.954437
4632	-0.129199
4628	0.196218
4624	0.840449
4620	0.840663
4616	-0.033473
4612	-0.060367
4608	0.683641
4604	0.675225
4600	1.035046
4596	2.331519
4592	2.432322
4588	0.880360
4584	-0.546193
4580	-0.796937
4576	-0.114655
4572	0.562500
4568	0.618433
4564	0.496125
4560	0.558996
4556	0.531601
4552	0.499939
4548	0.496721
4544	0.447583
4540	0.552392
4536	0.480389
4532	-0.364351
4528	-0.950455
4524	-1.345396
4520	-2.028775
4516	-0.673055
4512	5.075907
4508	12.0724
4504	12.0101
4500	4.214334
4496	-3.156852
4492	-5.095124
4488	-0.900340
4484	2.814102
4480	1.310729
4476	-0.653886
4472	-1.044416
4468	-0.975632
4464	-0.619602
4460	-0.150465
4456	-0.094461
4452	-0.324726
4448	-0.111508
4444	0.252723
4440	0.362730
4436	0.324654
4432	0.118970
4428	-0.028419
4424	0.094676
4420	0.129437
4416	-0.023078
4412	-0.085210
4408	-0.092601
4404	-0.098299
4400	-0.087046
4396	0.025820
4392	0.281667
4388	0.313186
4384	0.154352
4380	0.175142
4376	0.261855
4372	0.289988
4368	0.194215
4364	0.026130
4360	-0.123715
4356	-0.392293
4352	-0.481295
4348	-0.084209
4344	0.414633
4340	0.547695
4336	0.308060
4332	0.070166
4328	0.061726
4324	0.131273
4320	0.119423
4316	0.080561
4312	0.098013
4308	0.030040
4304	-0.021743
4300	0.055480
4296	0.017237
4292	-0.127124
4288	-0.213289
4284	-0.208997
4280	-0.132465
4276	0.007772
4272	0.166249
4268	0.239610
4264	0.234484
4260	0.099158
4256	-0.120925
4252	-0.282382
4248	-0.397253
4244	-0.369477
4240	-0.188875
4236	-0.061535
4232	-0.034070
4228	0.073599
4224	0.178861
4220	0.145530
4216	0.142550
4212	0.202798
4208	0.226068
4204	0.146079
4200	0.039839
4196	0.168585
4192	0.356793
4188	0.157451
4184	-0.091314
4180	-0.046348
4176	0.041913
4172	0.147175
4168	0.249195
4164	0.156736
4160	0.132918
4156	0.331759
4152	0.399827
4148	0.319528
4144	0.295948
4140	0.295305
4136	0.276732
4132	0.225424
4128	0.180888
4124	0.160336
4120	0.081300
4116	0.055932
4112	0.094747
4108	0.060915
4104	0.008010
4100	0.005769
4096	0.056290
4092	0.029015
4088	-0.079894
4084	-0.117754
4080	-0.061941
4076	0.085258
4072	0.166058
4068	0.119829
4064	0.104045
4060	0.088739
4056	0.061440
4052	0.035786
4048	-0.004100
4044	0.074601
4040	0.179862
4036	0.106883
4032	0.002431
4028	-0.011014
4024	-0.020623
4020	-0.032138
4016	0.055313
4012	0.156331
4008	0.024080
4004	-0.229573
4000	-0.243973
3996	-0.108933
3992	-0.060057
3988	-0.047779
3984	-0.040078
3980	-0.069689
3976	-0.063395
3972	0.047206
3968	0.140309
3964	0.172853
3960	0.164508
3956	0.096774
3952	0.088214
3948	0.115728
3944	0.062108
3940	-0.017571
3936	-0.072884
3932	-0.080585
3928	-0.010180
3924	0.099325
3920	0.167798
3916	0.148010
3912	0.144410
3908	0.212383
3904	0.159144
3900	-0.005149
3896	-0.023531
3892	0.033569
3888	0.068736
3884	0.145244
3880	0.120806
3876	-0.005364
3872	-0.082206
3868	-0.079178
3864	0.027203
3860	0.143384
3856	0.177574
3852	0.149559
3848	0.110387
3844	0.049233
3840	-0.081562
3836	-0.138545
3832	-0.066351
3828	0.065159
3824	0.191783
3820	0.136494
3816	-0.034785
3812	-0.117087
3808	-0.084996
3804	0.005125
3800	0.065279
3796	0.044226
3792	0.005412
3788	0.054669
3784	0.134062
3780	0.130319
3776	0.091695
3772	0.068688
3768	0.033569
3764	0.005054
3760	0.025320
3756	0.100803
3752	0.189781
3748	0.208449
3744	0.090813
3740	-0.013160
3736	0.050592
3732	0.120949
3728	0.087952
3724	0.054574
3720	0.057578
3716	0.068998
3712	0.049281
3708	-0.035476
3704	-0.106859
3700	-0.101447
3696	-0.058460
3692	-0.003290
3688	0.044965
3684	0.036478
3680	0.025534
3676	0.081801
3672	0.074458
3668	0.036478
3664	0.071239
3660	0.097155
3656	0.105357
3652	0.101828
3648	0.039076
3644	-0.006818
3640	0.040030
3636	0.070834
3632	0.049734
3628	0.092315
3624	0.171685
3620	0.133967
3616	0.079441
3612	0.068449
3608	-0.021290
3604	-0.015115
3600	0.078773
3596	0.062799
3592	0.035023
3588	0.040531
3584	0.039696
3580	0.016856
3576	-0.037550
3572	-0.091361
3568	-0.103068
3564	-0.059008
3560	-0.036716
3556	-0.114130
3552	-0.196743
3548	-0.204968
3544	-0.156950
3540	-0.066041
3536	-0.007939
3532	0.008964
3528	0.063753
3524	0.110554
3520	0.100564
3516	-0.017690
3512	-0.120115
3508	-0.025916
3504	0.114297
3500	0.183939
3496	0.210499
3492	0.198221
3488	0.088500
3484	-0.077581
3480	-0.154328
3476	-0.105190
3472	0.014734
3468	0.106453
3464	0.120472
3460	0.094962
3456	0.066137
3452	0.055003
3448	0.027441
3444	-0.038266
3440	-0.039076
3436	0.035834
3432	0.033473
3428	-0.041723
3424	-0.012373
3420	0.114178
3416	0.139045
3412	0.045347
3408	0.044465
3404	0.166869
3400	0.207376
3396	0.117945
3392	0.045561
3388	0.040125
3384	-0.011396
3380	-0.097393
3376	-0.063109
3372	0.025057
3368	0.017118
3364	-0.026345
3360	0.004363
3356	0.133228
3352	0.229644
3348	0.128149
3344	-0.067496
3340	-0.059795
3336	0.063991
3332	0.019025
3328	-0.036001
3324	0.026774
3320	0.060868
3316	0.051951
3312	0.068211
3308	0.070714
3304	-0.018286
3300	-0.125932
3296	-0.097227
3292	0.039196
3288	0.156068
3284	0.134611
3280	0.032448
3276	0.035476
3272	0.070834
3268	0.027060
3264	0.002670
3260	-0.020241
3256	-0.106787
3252	-0.115442
3248	-0.022363
3244	0.075721
3240	0.150847
3236	0.147771
3232	0.098371
3228	0.075173
3224	0.077199
3220	0.075888
3216	0.035071
3212	-0.050473
3208	-0.113034
3204	-0.091958
3200	-0.067543
3196	-0.100159
3192	-0.055575
3188	0.074243
3184	0.117754
3180	0.104451
3176	0.121498
3172	0.121545
3168	0.099277
3164	0.098204
3160	0.095391
3156	0.057554
3152	0.050306
3148	0.099849
3144	0.165891
3140	0.171518
3136	0.098419
3132	0.072050
3128	0.083804
3124	0.117564
3120	0.111579
3116	-0.050330
3112	-0.177836
3108	-0.099277
3104	0.046920
3100	0.134325
3096	0.144195
3092	0.061416
3088	-0.026941
3084	-0.032806
3080	-0.007033
3076	0.024437
3072	0.078463
3068	0.079727
3064	0.042700
3060	0.070166
3056	0.088453
3052	0.021719
3048	-0.086975
3044	-0.143504
3040	-0.090551
3036	-0.030803
3032	-0.030636
3028	-0.013685
3024	0.058770
3020	0.129747
3016	0.152707
3012	0.087714
3008	0.012135
3004	0.051236
3000	0.104737
2996	0.087285
2992	0.042080
2988	0.031590
2984	0.069451
2980	0.071120
2976	0.029349
2972	-0.000238
2968	0.036835
2964	0.138401
2960	0.167226
2956	0.042200
2952	-0.081396
2948	-0.021958
2944	0.108075
2940	0.083351
2936	-0.006532
2932	-0.000429
2928	0.020074
2924	-0.045561
2920	-0.105905
2916	-0.052690
2912	-0.004220
2908	-0.001287
2904	0.062179
2900	0.124049
2896	0.110721
2892	0.094199
2888	0.066804
2884	0.007390
2880	-0.007820
2876	-0.018215
2872	-0.053453
2868	-0.059580
2864	-0.036263
2860	0.048804
2856	0.169420
2852	0.189447
2848	0.054216
2844	-0.059509
2840	-0.014495
2836	0.081419
2832	0.114393
2828	0.070118
2824	0.023198
2820	0.041198
2816	0.069856
2812	0.038456
2808	-0.001430
2804	-0.033807
2800	-0.043940
2796	-0.002360
2792	0.013303
2788	0.008273
2784	0.001454
2780	-0.016260
2776	-0.018739
2772	-0.009846
2768	0.012755
2764	-0.010728
2760	-0.038290
2756	-0.016808
2752	-0.016403
2748	-0.041198
2744	-0.051999
2740	-0.041198
2736	0.010585
2732	0.079274
2728	0.114083
2724	0.094151
2720	0.073504
2716	0.088667
2712	0.097513
2708	0.078773
2704	0.032663
2700	-0.028157
2696	-0.078654
2692	-0.119471
2688	-0.110554
2684	-0.006818
2680	0.098204
2676	0.095462
2672	0.023913
2668	-0.008773
2664	0.007176
2660	0.045013
2656	0.095081
2652	0.070619
2648	0.029420
2644	0.058865
2640	0.073289
2636	0.067424
2632	0.051164
2628	0.008416
2624	-0.013422
2620	-0.008225
2616	-0.008487
2612	-0.040531
2608	-0.088405
2604	-0.078725
2600	-0.037240
2596	-0.019788
2592	0.049471
2588	0.146889
2584	0.143647
2580	0.084376
2576	0.059890
2572	0.047469
2568	0.024914
2564	0.009965
2560	0.001859
2556	0.019383
2552	0.062942
2548	0.045180
2544	-0.050735
2540	-0.062346
2536	0.043797
2532	0.079488
2528	0.038719
2524	0.028347
2520	0.033068
2516	0.040245
2512	0.077700
2508	0.115036
2504	0.084018
2500	-0.002932
2496	-0.056791
2492	-0.041675
2488	-0.029706
2484	-0.053071
2480	-0.049519
2476	0.000214
2472	0.037837
2468	0.022912
2464	-0.019121
2460	-0.054597
2456	-0.066423
2452	-0.066900
2448	-0.062537
2444	-0.030541
2440	0.004315
2436	0.002336
2432	0.004100
2428	0.051760
2424	0.090122
2420	0.058889
2416	0.005078
2412	0.010967
2408	0.059700
2404	0.116562
2400	0.130653
2396	0.076937
2392	0.007247
2388	-0.028204
2384	0.003647
2380	0.052332
2376	0.060987
2372	0.035572
2368	-0.010371
2364	-0.035715
2360	-0.023746
2356	0.009727
2352	0.078582
2348	0.105500
2344	0.035309
2340	0.007033
2336	0.039768
2332	0.045704
2328	0.031375
2324	-0.009989
2320	-0.021982
2316	0.058794
2312	0.149226
2308	0.203871
2304	0.248360
2300	0.293803
2296	0.300908
2292	0.223875
2288	0.165462
2284	0.186896
2280	0.216889
2276	0.228118
2272	0.238704
2268	0.270223
2264	0.340008
2260	0.428605
2256	0.482034
2252	0.503683
2248	0.566172
2244	0.678038
2240	0.780200
2236	0.854063
2232	0.922536
2228	1.029133
2224	1.159167
2220	1.269102
2216	1.391649
2212	1.535797
2208	1.698422
2204	1.866507
2200	1.988172
2196	2.082061
2192	2.188825
2188	2.330613
2184	2.529644
2180	2.752137
2176	2.949881
2172	3.138303
2168	3.312492
2164	3.487229
2160	3.802824
2156	4.256343
2152	4.606890
2148	4.734444
2144	4.854011
2140	5.168986
2136	5.543112
2132	5.805468
2128	6.054353
2124	6.384563
2120	6.704616
2116	6.991720
2112	7.309007
2108	7.647156
2104	7.928514
2100	8.195805
2096	8.534049
2092	8.894801
2088	9.271693
2084	9.674572
2080	10.0291
2076	10.3358
2072	10.6116
2068	10.8963
2064	11.2941
2060	11.7134
2056	11.9894
2052	12.1837
2048	12.4488
2044	12.782
2040	13.1023
2036	13.3938
2032	13.6863
2028	14.0071
2024	14.3216
2020	14.5603
2016	14.761
2012	15.0137
2008	15.2771
2004	15.5123
2000	15.7788
1996	16.0362
1992	16.2147
1988	16.4079
1984	16.6989
1980	17.009
1976	17.2688
1972	17.5036
1968	17.7212
1964	17.9379
1960	18.173
1956	18.3946
1952	18.5861
1948	18.7445
1944	18.8747
1940	19.0362
1936	19.2298
1932	19.3794
1928	19.5121
1924	19.6786
1920	19.8549
1916	20.0015
1912	20.1272
1908	20.2756
1904	20.4395
1900	20.5902
1896	20.712
1892	20.8271
1888	20.9556
1884	21.0497
1880	21.1302
1876	21.2859
1872	21.4887
1868	21.624
1864	21.6764
1860	21.7666
1856	21.9343
1852	22.085
1848	22.1695
1844	22.2272
1840	22.2853
1836	22.3358
1832	22.3906
1828	22.4502
1824	22.5124
1820	22.5945
1816	22.7006
1812	22.7965
1808	22.8799
1804	22.971
1800	23.0403
1796	23.0924
1792	23.1435
1788	23.1622
1784	23.154
1780	23.1484
1776	23.1846
1772	23.3043
1768	23.4167
1764	23.4554
1760	23.5034
1756	23.5848
1752	23.654
1748	23.7321
1744	23.8024
1740	23.8004
1736	23.8191
1732	23.8966
1728	23.9106
1724	23.8868
1720	23.9227
1716	23.9871
1712	24.0427
1708	24.0911
1704	24.1185
1700	24.1657
1696	24.2109
1692	24.1987
1688	24.2171
1684	24.2833
1680	24.3398
1676	24.4015
1672	24.4502
1668	24.4798
1664	24.4896
1660	24.4715
1656	24.4684
1652	24.5047
1648	24.576
1644	24.654
1640	24.6977
1636	24.7103
1632	24.7239
1628	24.7423
1624	24.8022
1620	24.856
1616	24.7761
1612	24.7252
1608	24.918
1604	25.109
1600	25.0745
1596	25.0329
1592	25.0766
1588	25.087
1584	25.0538
1580	25.0475
1576	25.0903
1572	25.129
1568	25.1442
1564	25.1728
1560	25.2513
1556	25.3494
1552	25.3465
1548	25.271
1544	25.2978
1540	25.3934
1536	25.4243
1532	25.3674
1528	25.2685
1524	25.2445
1520	25.3284
1516	25.4256
1512	25.4665
1508	25.4776
1504	25.4934
1500	25.5155
1496	25.5347
1492	25.534
1488	25.5693
1484	25.6252
1480	25.6689
1476	25.7042
1472	25.6981
1468	25.6715
1464	25.6506
1460	25.6726
1456	25.7341
1452	25.759
1448	25.7941
1444	25.9437
1440	26.1247
1436	26.1255
1432	25.9866
1428	25.9184
1424	25.9272
1420	25.935
1416	25.91
1412	25.9244
1408	26.0604
1404	26.1882
1400	26.1775
1396	26.1378
1392	26.1761
1388	26.2511
1384	26.3201
1380	26.3598
1376	26.3763
1372	26.3846
1368	26.3579
1364	26.3128
1360	26.3063
1356	26.3385
1352	26.3449
1348	26.3373
1344	26.3661
1340	26.4029
1336	26.4128
1332	26.4118
1328	26.4614
1324	26.5351
1320	26.5507
1316	26.5231
1312	26.4934
1308	26.4951
1304	26.5154
1300	26.5419
1296	26.637
1292	26.7386
1288	26.7431
1284	26.7272
1280	26.7813
1276	26.8494
1272	26.809
1268	26.7126
1264	26.7066
1260	26.7365
1256	26.7523
1252	26.8047
1248	26.8363
1244	26.8581
1240	26.9464
1236	27.0433
1232	27.089
1228	27.0527
1224	26.987
1220	26.9814
1216	26.9647
1212	26.9305
1208	26.9697
1204	26.9976
1200	26.9513
1196	26.9682
1192	27.088
1188	27.1727
1184	27.1882
1180	27.1728
1176	27.1852
1172	27.2427
1168	27.2561
1164	27.185
1160	27.0947
1156	27.0836
1152	27.1694
1148	27.2704
1144	27.3361
1140	27.3805
1136	27.4561
1132	27.5356
1128	27.5076
1124	27.4421
1120	27.4265
1116	27.4113
1112	27.4086
1108	27.4079
1104	27.3824
1100	27.3567
1096	27.3852
1092	27.4975
1088	27.6143
1084	27.6924
1080	27.7069
1076	27.6306
1072	27.5234
1068	27.464
1064	27.4646
1060	27.4847
1056	27.4905
1052	27.4621
1048	27.4121
1044	27.3841
1040	27.4127
1036	27.4458
1032	27.4833
1028	27.5515
1024	27.5612
1020	27.5669
1016	27.5832
1012	27.5242
1008	27.4977
1004	27.4812
1000	27.4376
996	 27.4689
992	 27.5281
988	 27.5496
984	 27.5806
980	 27.6616
976	 27.676
972	 27.5907
968	 27.5145
964	 27.4378
960	 27.3981
956	 27.395
952	 27.2812
948	 27.1765
944	 27.3007
940	 27.4577
936	 27.4184
932	 27.3017
928	 27.2202
924	 27.2074
920	 27.2505
916	 27.2343
912	 27.2368
908	 27.2526
904	 27.1117
900	 26.9306
896	 26.8791
892	 26.9764
888	 27.0506
884	 27.0579
880	 27.1575
876	 27.2212
872	 27.1179
868	 27.0207
864	 27.0349
860	 27.0116
856	 26.8799
852	 26.7638
848	 26.6901
844	 26.6669
840	 26.7189
836	 26.7008
832	 26.6093
828	 26.6028
824	 26.7248
820	 26.9369
816	 26.9857
812	 26.756
808	 26.5142
804	 26.4771
800	 26.542
796	 26.4791
792	 26.3035
788	 26.2267
784	 26.3361
780	 26.4798
776	 26.4566
772	 26.3168
768	 26.2518
764	 26.2348
760	 26.2119
756	 26.1483
752	 25.8899
748	 25.5772
744	 25.4322
740	 25.362
736	 25.3972
732	 25.6097
728	 25.813
724	 25.7801
720	 25.6106
716	 25.5779
712	 25.5326
708	 25.246
704	 24.9132
700	 24.7987
696	 24.9167
692	 25.0574
688	 25.0083
684	 24.8535
680	 24.8388
676	 24.8924
672	 24.8956
668	 24.9848
664	 25.0807
660	 24.9664
656	 24.6803
652	 24.4784
648	 24.4073
644	 24.3197
640	 24.2454
636	 24.1737
632	 24.0751
628	 23.9308
624	 23.7568
620	 23.7338
616	 23.7915
612	 23.7227
608	 23.7342
604	 23.9076
600	 23.81
596	 23.3919
592	 22.9214
588	 22.6073
584	 22.6271
580	 22.769
576	 22.7176
572	 22.5029
568	 22.4356
564	 22.6091
560	 22.6264
556	 22.4114
552	 22.2893
548	 22.2925
544	 22.286
540	 22.1028
536	 21.6343
532	 21.2991
528	 21.2873
524	 21.2025
520	 21.1818
516	 21.38
512	 21.2921
508	 20.7831
504	 20.414
500	 20.2827
496	 20.2562
492	 20.4689
488	 20.579
484	 20.1546
480	 19.6664
476	 19.5655
472	 19.478
468	 19.5222
464	 20.0355
460	 20.3198
456	 20.1444
452	 19.9827
448	 19.8758
444	 19.6722
440	 19.1093
436	 18.386
432	 17.5986
428	 17.3705
424	 17.6602
420	 17.0288
416	 15.856
412	 14.8066
408	 14.3659
404	 15.6986
400	 15.5341
396	 11.6348
392	 11.4438
388	 19.2706
384	 24.6269
380	 20.8495
376	 20.7972
372	 29.2056
370	 33.5304