File: Bakgrunnsmateriale/MATLAB/FTIR/ftir_data/LPE453/Mapping_121/LPE453_t105_cm-1.asc
PE IR       SPECTRUM    SPECTRUM    ASCII       PEDS        1.60
  -1
LP0878~1.ASC
17/05/16
22:57:59.00
17/05/16
22:57:59.00
tln
$LPE453_t0105$<tbV0>[0.0,10.4,8.0,0.0,27,1,0]
370
64

2002,4.07
MIRTGS : RIGHTBACK : INTERNAL 2
MIR : ON : INTERNAL 2
OPTKBR

0.200000
8
8.000000
FILLER
RATIO
SPECTRUM
UNLOCKED 256

DOUBLE
64
COMBINED
1
0
0

1.000000
RATIO

1
0
TRUE
51149
0
LEFT NOT FITTED RIGHT NOT FITTED 0
NONE
NONE
15600
12
4.427000
51148
TRUE
1 0 8 72 0 0 0 0

15798

#HDR
-1
-1
#GR
CM-1
%T
2.38419e-05
0.0
5000
-1.000000
4631
8
36.5716
-8.763027
#DATA
5000	0.472474
4996	0.537610
4992	0.400280
4988	0.424909
4984	0.381708
4980	0.144815
4976	0.115895
4972	0.325083
4968	0.274085
4964	0.003981
4960	0.006198
4956	0.186252
4952	0.114464
4948	-0.122213
4944	-0.100636
4940	-0.066018
4936	-0.183987
4932	-0.143766
4928	-0.069975
4924	-0.078892
4920	-0.126171
4916	-0.150203
4912	0.027036
4908	0.338172
4904	0.453686
4900	0.249004
4896	-0.180459
4892	-0.414371
4888	-0.042223
4884	0.466895
4880	0.466108
4876	0.093936
4872	-0.073051
4868	0.000143
4864	-0.146245
4860	-0.285124
4856	-0.044226
4852	0.006031
4848	-0.150036
4844	0.065255
4840	0.172543
4836	0.008296
4832	-0.034451
4828	-0.147414
4824	-0.271749
4820	-0.238347
4816	-0.249624
4812	-0.211501
4808	-0.012493
4804	0.134778
4800	0.153303
4796	0.171399
4792	0.263929
4788	0.305247
4784	0.018382
4780	-0.238919
4776	-0.072860
4772	0.159144
4768	0.163698
4764	0.020480
4760	-0.032043
4756	-0.044035
4752	-0.065612
4748	-0.037693
4744	-0.096249
4740	-0.280809
4736	-0.496912
4732	-0.432896
4728	0.006914
4724	0.335192
4720	0.298976
4716	0.167036
4712	-0.046753
4708	-0.177192
4704	-0.214171
4700	0.125622
4696	0.948023
4692	1.380157
4688	1.495742
4684	1.571965
4680	1.006937
4676	0.173091
4672	0.069165
4668	0.293111
4664	0.485658
4660	1.101231
4656	1.660513
4652	1.711916
4648	1.574039
4644	1.837897
4640	1.987791
4636	1.050305
4632	0.077414
4628	0.083589
4624	0.177979
4620	-0.255656
4616	-0.469851
4612	-0.194239
4608	0.269079
4604	0.764369
4600	0.852656
4596	0.370311
4592	-0.094294
4588	-0.109910
4584	0.075650
4580	0.033044
4576	-0.315618
4572	-0.480198
4568	-0.297188
4564	-0.106477
4560	-0.075745
4556	-0.067114
4552	-0.215625
4548	-0.382685
4544	-0.371146
4540	-0.027608
4536	0.356841
4532	0.585913
4528	0.546455
4524	0.241541
4520	0.366592
4516	0.317907
4512	0.163674
4508	0.129747
4504	-4.699444
4500	-8.730912
4496	-0.902342
4492	9.563851
4488	17.6631
4484	15.6693
4480	3.779840
4476	-1.844549
4472	-1.434206
4468	-0.692486
4464	-0.329089
4460	-0.024080
4456	0.271463
4452	0.142049
4448	-0.002956
4444	-0.084114
4440	-0.292658
4436	-0.320577
4432	-0.140142
4428	-0.110530
4424	-0.205278
4420	-0.193357
4416	-0.232815
4412	-0.366568
4408	-0.228762
4404	0.025105
4400	0.174856
4396	0.204777
4392	-0.133204
4388	-0.585842
4384	-0.673007
4380	-0.444102
4376	-0.026607
4372	0.366306
4368	0.337147
4364	0.055670
4360	0.057387
4356	0.225877
4352	0.185012
4348	0.118708
4344	0.248122
4340	0.247979
4336	-0.073099
4332	-0.369644
4328	-0.226807
4324	0.086879
4320	0.043773
4316	-0.036835
4312	0.039625
4308	0.146651
4304	0.106287
4300	0.023102
4296	0.093102
4292	0.084304
4288	0.053596
4284	0.165367
4280	0.162339
4276	-0.004482
4272	-0.036668
4268	0.103950
4264	0.193047
4260	0.050139
4256	-0.244998
4252	-0.336813
4248	-0.149106
4244	0.084948
4240	0.173044
4236	0.155401
4232	0.199246
4228	0.251460
4224	0.184440
4220	0.083494
4216	-0.001287
4212	-0.035881
4208	0.023698
4204	0.123906
4200	0.172948
4196	0.101733
4192	0.149798
4188	0.202488
4184	-0.105142
4180	-0.271606
4176	-0.005793
4172	0.054502
4168	-0.138807
4164	-0.114965
4160	-0.012588
4156	0.011706
4152	0.087690
4148	0.148105
4144	0.174975
4140	0.166511
4136	0.048828
4132	0.003004
4128	0.061416
4124	0.085735
4120	0.137352
4116	0.186157
4112	0.133776
4108	0.074100
4104	0.141143
4100	0.266242
4096	0.336503
4092	0.392365
4088	0.409650
4084	0.312066
4080	0.157451
4076	0.065469
4072	0.039243
4068	-0.025367
4064	-0.032067
4060	0.112533
4056	0.179672
4052	0.168132
4048	0.182199
4044	0.135946
4040	0.066018
4036	0.010633
4032	0.020456
4028	0.035119
4024	0.042152
4020	0.160217
4016	0.263714
4012	0.180411
4008	0.020813
4004	0.017476
4000	0.084757
3996	0.184583
3992	0.393748
3988	0.485372
3984	0.329756
3980	0.159406
3976	0.146794
3972	0.152659
3968	0.119209
3964	0.098109
3960	0.037431
3956	0.029110
3952	0.107765
3948	0.141596
3944	0.100588
3940	-0.036001
3936	-0.151610
3932	-0.089025
3928	0.015354
3924	0.079345
3920	0.158786
3916	0.164389
3912	0.048899
3908	-0.063729
3904	-0.032114
3900	0.079202
3896	0.064325
3892	-0.033378
3888	-0.064277
3884	-0.030946
3880	0.023007
3876	0.008368
3872	-0.032043
3868	0.020194
3864	0.090360
3860	0.060558
3856	-0.009369
3852	0.040316
3848	0.138378
3844	0.137090
3840	0.091075
3836	0.099945
3832	0.061988
3828	-0.048255
3824	-0.059771
3820	-0.034570
3816	-0.041699
3812	-0.028133
3808	-0.070667
3804	-0.161314
3800	-0.148272
3796	-0.067305
3792	-0.042462
3788	0.009775
3784	0.116372
3780	0.155091
3776	0.156593
3772	0.166416
3768	0.163531
3764	0.167965
3760	0.116586
3756	0.006651
3752	-0.081658
3748	-0.069332
3744	-0.027918
3740	-0.061821
3736	-0.084805
3732	-0.075149
3728	-0.069808
3724	-0.070810
3720	-0.060009
3716	-0.009655
3712	0.021481
3708	0.044846
3704	0.138258
3700	0.186896
3696	0.103139
3692	0.065755
3688	0.130629
3684	0.123763
3680	0.067162
3676	0.034141
3672	0.007748
3668	-0.022506
3664	-0.066161
3660	-0.046658
3656	0.055599
3652	0.128984
3648	0.095558
3644	0.040221
3640	0.060725
3636	0.073385
3632	0.087952
3628	0.134038
3624	0.098967
3620	0.062441
3616	0.073790
3612	0.004124
3608	-0.085377
3604	-0.098443
3600	-0.080370
3596	-0.021433
3592	0.036787
3588	0.035142
3584	0.030660
3580	0.057077
3576	0.065088
3572	-0.005936
3568	-0.073409
3564	-0.039863
3560	0.041651
3556	0.072669
3552	0.059199
3548	0.051355
3544	0.084996
3540	0.169348
3536	0.191807
3532	0.126266
3528	0.078177
3524	0.049686
3520	-0.013875
3516	-0.041770
3512	0.036859
3508	0.120329
3504	0.104689
3500	0.044822
3496	0.005722
3492	0.013804
3488	0.031018
3484	-0.007486
3480	-0.011229
3476	0.027585
3472	0.036287
3468	0.051236
3464	0.044655
3460	-0.003385
3456	-0.005626
3452	0.059938
3448	0.097584
3444	0.070261
3440	0.046968
3436	-0.002908
3432	-0.084829
3428	-0.068402
3424	0.013303
3420	0.046777
3416	0.082921
3412	0.136113
3408	0.156712
3404	0.179958
3400	0.167870
3396	0.147557
3392	0.184321
3388	0.111675
3384	-0.045156
3380	-0.136232
3376	-0.138783
3372	-0.039315
3368	0.057792
3364	0.131273
3360	0.186061
3356	0.142860
3352	0.093722
3348	0.136494
3344	0.183677
3340	0.142598
3336	0.081634
3332	0.076365
3328	0.098991
3324	0.157809
3320	0.159287
3316	0.049710
3312	-0.012564
3308	0.017404
3304	0.066781
3300	0.082564
3296	0.114583
3292	0.138425
3288	0.093626
3284	0.073671
3280	0.026655
3276	-0.082898
3272	-0.119423
3268	-0.072288
3264	-0.010943
3260	0.034260
3256	0.056123
3252	0.050044
3248	0.001215
3244	-0.006175
3240	0.081777
3236	0.111198
3232	0.052762
3228	0.079250
3224	0.172734
3220	0.200223
3216	0.165200
3212	0.116443
3208	0.042510
3204	-0.047063
3200	-0.045847
3196	0.031280
3192	0.054597
3188	0.040602
3184	0.024747
3180	0.004458
3176	0.046610
3172	0.122404
3168	0.083780
3164	-0.052523
3160	-0.108194
3156	-0.072288
3152	-0.010037
3148	0.047874
3144	0.038838
3140	0.019454
3136	-0.006484
3132	-0.055575
3128	-0.030899
3124	0.014519
3120	0.058245
3116	0.106716
3112	0.066590
3108	0.016212
3104	0.027227
3100	-0.005745
3096	-0.072002
3092	-0.074338
3088	-0.041007
3084	0.001716
3080	0.026059
3076	0.006151
3072	0.009226
3068	0.061249
3064	0.093865
3060	0.104784
3056	0.087976
3052	-0.011301
3048	-0.036525
3044	0.091075
3040	0.151634
3036	0.068616
3032	-0.009560
3028	-0.021409
3024	0.004220
3020	0.036954
3016	0.046300
3012	0.023889
3008	-0.003623
3004	0.025677
3000	0.100636
2996	0.157427
2992	0.111198
2988	0.000166
2984	-0.033617
2980	-0.039005
2976	-0.089931
2972	-0.089788
2968	-0.028872
2964	-0.014376
2960	-0.037813
2956	-0.038790
2952	-0.021743
2948	0.005316
2944	0.048542
2940	0.076794
2936	0.043821
2932	-0.042891
2928	-0.096130
2924	-0.053930
2920	-0.016641
2916	-0.051355
2912	-0.040173
2908	0.052046
2904	0.111508
2900	0.092482
2896	0.024628
2892	-0.059247
2888	-0.053238
2884	0.070738
2880	0.147080
2876	0.133204
2872	0.075912
2868	0.002932
2864	0.016760
2860	0.055980
2856	0.013804
2852	-0.005531
2848	0.031709
2844	0.027155
2840	0.004768
2836	0.044941
2832	0.120043
2828	0.098752
2824	0.000882
2820	-0.038313
2816	-0.042128
2812	-0.075888
2808	-0.070357
2804	0.027561
2800	0.100088
2796	0.099110
2792	0.067949
2788	0.023913
2784	0.013852
2780	0.016427
2776	0.025892
2772	0.055956
2768	0.056958
2764	0.048232
2760	0.058507
2756	0.048542
2752	0.024962
2748	0.004935
2744	-0.013971
2740	0.026082
2736	0.079584
2732	0.029730
2728	-0.030422
2724	0.016283
2720	0.112986
2716	0.160074
2712	0.116395
2708	0.030565
2704	-0.045037
2700	-0.090503
2696	-0.043749
2692	0.051665
2688	0.101375
2684	0.105834
2680	0.067639
2676	0.043535
2672	0.051283
2668	0.054144
2664	0.062155
2660	0.041222
2656	-0.008630
2652	-0.028586
2648	-0.032949
2644	-0.010848
2640	0.071334
2636	0.112891
2632	0.039267
2628	-0.019121
2624	-0.007796
2620	0.020051
2616	0.060367
2612	0.065541
2608	0.057125
2604	0.082707
2600	0.097608
2596	0.065660
2592	0.029802
2588	0.055432
2584	0.093054
2580	0.038051
2576	-0.058007
2572	-0.063896
2568	0.002670
2564	0.040149
2560	0.015425
2556	-0.007772
2552	0.027370
2548	0.048589
2544	0.051546
2540	0.095582
2536	0.090479
2532	0.040268
2528	0.040864
2524	0.055480
2520	0.055456
2516	0.072813
2512	0.085997
2508	0.077366
2504	0.031757
2500	-0.043773
2496	-0.072097
2492	-0.035262
2488	-0.021576
2484	-0.040769
2480	0.006437
2476	0.047874
2472	0.027799
2468	0.065302
2464	0.103735
2460	0.062322
2456	0.026106
2452	0.047874
2448	0.037050
2444	-0.013399
2440	0.024127
2436	0.084877
2432	0.096368
2428	0.116086
2424	0.035429
2420	-0.133132
2416	-0.137186
2412	0.014781
2408	0.089192
2404	0.058650
2400	0.032043
2396	0.018143
2392	0.050139
2388	0.120258
2384	0.145006
2380	0.159335
2376	0.162649
2372	0.105714
2368	0.038957
2364	0.062417
2360	0.158262
2356	0.191283
2352	0.174641
2348	0.198745
2344	0.234270
2340	0.241303
2336	0.265264
2332	0.332427
2328	0.380730
2324	0.417423
2320	0.520944
2316	0.613617
2312	0.578403
2308	0.543284
2304	0.633215
2300	0.739622
2296	0.816655
2292	0.885796
2288	0.925636
2284	0.973129
2280	1.055622
2276	1.197361
2272	1.389861
2268	1.517462
2264	1.562881
2260	1.666688
2256	1.865911
2252	2.085089
2248	2.295708
2244	2.481651
2240	2.618837
2236	2.745509
2232	2.936506
2228	3.153276
2224	3.364777
2220	3.669357
2216	4.025697
2212	4.354834
2208	4.668188
2204	4.941248
2200	5.199670
2196	5.497288
2192	5.856013
2188	6.247830
2184	6.645393
2180	7.038712
2176	7.431936
2172	7.824778
2168	8.208847
2164	8.667707
2160	9.167957
2156	9.636354
2152	10.1594
2148	10.6951
2144	11.1445
2140	11.5927
2136	12.1139
2132	12.6576
2128	13.1497
2124	13.6098
2120	14.1264
2116	14.6822
2112	15.209
2108	15.6888
2104	16.1625
2100	16.7018
2096	17.2662
2092	17.8095
2088	18.347
2084	18.8567
2080	19.3726
2076	19.9163
2072	20.3777
2068	20.7471
2064	21.2025
2060	21.7435
2056	22.2021
2052	22.6162
2048	23.0863
2044	23.5395
2040	23.9496
2036	24.3934
2032	24.867
2028	25.2956
2024	25.6696
2020	26.0547
2016	26.4515
2012	26.8328
2008	27.1627
2004	27.4346
2000	27.7348
1996	28.0574
1992	28.3428
1988	28.6528
1984	29.0255
1980	29.3902
1976	29.6896
1972	29.9399
1968	30.1908
1964	30.4496
1960	30.6804
1956	30.8985
1952	31.0991
1948	31.2262
1944	31.3354
1940	31.5238
1936	31.7893
1932	32.0583
1928	32.294
1924	32.5093
1920	32.6868
1916	32.8454
1912	33.0194
1908	33.2111
1904	33.3677
1900	33.4549
1896	33.5212
1892	33.5783
1888	33.6497
1884	33.7667
1880	33.8938
1876	34.0001
1872	34.1445
1868	34.3413
1864	34.4742
1860	34.5762
1856	34.7245
1852	34.8104
1848	34.8259
1844	34.8499
1840	34.8552
1836	34.8563
1832	34.8997
1828	34.9835
1824	35.0733
1820	35.1413
1816	35.2263
1812	35.3614
1808	35.5144
1804	35.6359
1800	35.6906
1796	35.7065
1792	35.7261
1788	35.7466
1784	35.7397
1780	35.6935
1776	35.6746
1772	35.6558
1768	35.5938
1764	35.6107
1760	35.7115
1756	35.8019
1752	35.9053
1748	36.0019
1744	36.0428
1740	36.1007
1736	36.1405
1732	36.0781
1728	36.0296
1724	36.0554
1720	36.0741
1716	36.0311
1712	35.9274
1708	35.8554
1704	35.904
1700	36.0272
1696	36.1422
1692	36.2285
1688	36.2869
1684	36.3465
1680	36.3636
1676	36.2946
1672	36.2481
1668	36.2589
1664	36.2542
1660	36.2072
1656	36.1381
1652	36.0981
1648	36.1275
1644	36.1829
1640	36.2318
1636	36.3074
1632	36.4059
1628	36.504
1624	36.5691
1620	36.5367
1616	36.4357
1612	36.3673
1608	36.3225
1604	36.2406
1600	36.1661
1596	36.1168
1592	36.077
1588	36.078
1584	36.1067
1580	36.1588
1576	36.2285
1572	36.3232
1568	36.4351
1564	36.4886
1560	36.4983
1556	36.5034
1552	36.4669
1548	36.3666
1544	36.2308
1540	36.0667
1536	35.9439
1532	35.9476
1528	35.9895
1524	36.0334
1520	36.1387
1516	36.2753
1512	36.3582
1508	36.3479
1504	36.3036
1500	36.2725
1496	36.2248
1492	36.1845
1488	36.185
1484	36.15
1480	36.0744
1476	35.9875
1472	35.865
1468	35.786
1464	35.7925
1460	35.8187
1456	35.9058
1452	36.071
1448	36.206
1444	36.2272
1440	36.1783
1436	36.1378
1432	36.1356
1428	36.1219
1424	36.0128
1420	35.8518
1416	35.7239
1412	35.6436
1408	35.5838
1404	35.5752
1400	35.6664
1396	35.7701
1392	35.8616
1388	36.0113
1384	36.1434
1380	36.1584
1376	36.1385
1372	36.1089
1368	35.9972
1364	35.8664
1360	35.7848
1356	35.709
1352	35.6042
1348	35.5278
1344	35.5197
1340	35.5861
1336	35.7029
1332	35.7791
1328	35.8408
1324	35.9286
1320	35.9462
1316	35.8882
1312	35.8408
1308	35.8193
1304	35.7263
1300	35.553
1296	35.4367
1292	35.3703
1288	35.3023
1284	35.2706
1280	35.3096
1276	35.4206
1272	35.5502
1268	35.6423
1264	35.6971
1260	35.7312
1256	35.7545
1252	35.7594
1248	35.6976
1244	35.5955
1240	35.5134
1236	35.3786
1232	35.2044
1228	35.0877
1224	35.0425
1220	35.0972
1216	35.2006
1212	35.2577
1208	35.2929
1204	35.3878
1200	35.5313
1196	35.6203
1192	35.6449
1188	35.6181
1184	35.4758
1180	35.282
1176	35.1799
1172	35.1101
1168	34.9659
1164	34.8569
1160	34.8995
1156	35.0015
1152	35.0663
1148	35.1423
1144	35.2498
1140	35.3403
1136	35.3561
1132	35.3318
1128	35.3355
1124	35.2902
1120	35.1366
1116	34.9005
1112	34.6522
1108	34.4999
1104	34.4687
1100	34.5196
1096	34.5843
1092	34.6512
1088	34.8134
1084	35.025
1080	35.1072
1076	35.0702
1072	35.077
1068	35.0846
1064	34.9823
1060	34.85
1056	34.702
1052	34.5051
1048	34.3221
1044	34.1791
1040	34.1344
1036	34.2078
1032	34.2349
1028	34.1989
1024	34.307
1020	34.5888
1016	34.8048
1012	34.797
1008	34.6981
1004	34.6141
1000	34.4756
996	 34.27
992	 34.1205
988	 34.086
984	 34.0818
980	 34.0351
976	 33.8988
972	 33.7323
968	 33.6715
964	 33.8259
960	 34.1305
956	 34.3258
952	 34.2809
948	 34.1465
944	 34.1203
940	 34.0972
936	 33.9537
932	 33.7129
928	 33.4152
924	 33.2128
920	 33.1543
916	 33.145
912	 33.11
908	 33.1656
904	 33.3613
900	 33.5275
896	 33.6836
892	 33.7685
888	 33.6709
884	 33.544
880	 33.3933
876	 33.102
872	 32.8585
868	 32.8148
864	 32.7961
860	 32.6591
856	 32.458
852	 32.3383
848	 32.3694
844	 32.5294
840	 32.721
836	 32.8544
832	 32.9607
828	 32.989
824	 32.8723
820	 32.7732
816	 32.7199
812	 32.4575
808	 32.0371
804	 31.7361
800	 31.5483
796	 31.4634
792	 31.5017
788	 31.6087
784	 31.7188
780	 31.7977
776	 31.9796
772	 32.1681
768	 32.1739
764	 32.0637
760	 31.9238
756	 31.8548
752	 31.7984
748	 31.5221
744	 31.0989
740	 30.833
736	 30.7444
732	 30.6512
728	 30.5951
724	 30.6461
720	 30.7245
716	 30.8308
712	 30.9593
708	 31.084
704	 31.1758
700	 31.1454
696	 31.008
692	 30.7642
688	 30.3918
684	 30.0628
680	 29.8109
676	 29.459
672	 29.1544
668	 29.2626
664	 29.6181
660	 29.7852
656	 29.887
652	 30.0809
648	 30.1659
644	 30.1405
640	 30.0535
636	 29.8698
632	 29.6049
628	 29.1406
624	 28.6121
620	 28.3962
616	 28.3696
612	 28.1857
608	 28.0113
604	 28.0845
600	 28.2868
596	 28.6189
592	 28.8961
588	 28.8128
584	 28.5385
580	 28.2816
576	 28.0887
572	 28.002
568	 27.9562
564	 27.8186
560	 27.6009
556	 27.3033
552	 26.9018
548	 26.6079
544	 26.4707
540	 26.3568
536	 26.2674
532	 26.3193
528	 26.5434
524	 26.6555
520	 26.6222
516	 26.721
512	 26.8946
508	 26.7359
504	 26.385
500	 26.1554
496	 25.7148
492	 25.227
488	 24.9747
484	 24.7475
480	 24.8114
476	 25.2401
472	 25.1246
468	 24.2344
464	 23.8457
460	 24.4433
456	 24.9181
452	 24.9282
448	 24.8934
444	 24.5053
440	 23.6899
436	 23.3598
432	 23.6181
428	 23.6767
424	 23.8272
420	 23.5803
416	 21.9118
412	 20.0863
408	 21.0995
404	 22.8083
400	 22.043
396	 21.4893
392	 18.2157
388	 10.8947
384	 3.195834
380	 -1.809501
376	 2.841091
372	 1.693058
370	 -4.836201