File: Bakgrunnsmateriale/MATLAB/FTIR/ftir_data/LPE453/Mapping_121/LPE453_t83_cm-1.asc
PE IR       SPECTRUM    SPECTRUM    ASCII       PEDS        1.60
  -1
LP5BD5~1.ASC
17/05/16
21:09:28.00
17/05/16
21:09:28.00
tln
$LPE453_t0083$<tbV0>[0.0,5.2,8.0,0.0,27,1,0]
370
64

2002,4.07
MIRTGS : RIGHTBACK : INTERNAL 2
MIR : ON : INTERNAL 2
OPTKBR

0.200000
8
8.000000
FILLER
RATIO
SPECTRUM
UNLOCKED 256

DOUBLE
64
COMBINED
1
0
0

1.000000
RATIO

1
0
TRUE
51149
0
LEFT NOT FITTED RIGHT NOT FITTED 0
NONE
NONE
15600
12
4.427000
51148
TRUE
1 0 8 72 0 0 0 0

15798

#HDR
-1
-1
#GR
CM-1
%T
2.38419e-05
0.0
5000
-1.000000
4631
8
35.2099
-2.217388
#DATA
5000	0.232791
4996	0.516724
4992	0.583291
4988	0.333404
4984	0.300693
4980	0.512123
4976	0.529742
4972	0.390577
4968	0.391483
4964	0.538301
4960	0.539517
4956	0.368905
4952	0.193023
4948	0.147509
4944	0.221300
4940	0.308275
4936	0.429034
4932	0.404357
4928	0.222158
4924	0.192070
4920	0.222158
4916	0.082778
4912	-0.101470
4908	-0.215792
4904	-0.214076
4900	0.041961
4896	0.190591
4892	0.014209
4888	-0.000524
4884	0.131821
4880	0.047063
4876	0.055980
4872	0.222110
4868	0.350236
4864	0.411319
4860	0.321865
4856	0.226807
4852	0.320124
4848	0.378274
4844	0.275897
4840	0.161933
4836	0.088810
4832	0.140714
4828	0.477194
4824	0.762343
4820	0.628685
4816	0.491094
4812	0.524139
4808	0.486421
4804	0.480628
4800	0.562548
4796	0.490069
4792	0.274538
4788	0.186276
4784	0.305700
4780	0.489926
4776	0.479936
4772	0.358414
4768	0.424885
4764	0.514960
4760	0.290679
4756	-0.022411
4752	0.065636
4748	0.290679
4744	0.199985
4740	0.335955
4736	0.755834
4732	0.802111
4728	0.571393
4724	0.172257
4720	-0.342559
4716	-0.388979
4712	0.132822
4708	0.696992
4704	0.741338
4700	0.365257
4696	0.413846
4692	0.750446
4688	0.483322
4684	-0.468516
4680	-0.891447
4676	-0.351691
4672	-0.177359
4668	-0.732111
4664	-1.330852
4660	-0.977993
4656	0.299263
4652	0.641465
4648	0.001335
4644	-0.448513
4640	0.058674
4636	0.768947
4632	0.498127
4628	-0.008583
4624	-0.118875
4620	-0.189805
4616	-0.257492
4612	-0.250792
4608	-0.242137
4604	-0.075244
4600	0.031280
4596	-0.034117
4592	-0.149631
4588	-0.399184
4584	-0.514674
4580	-0.624132
4576	-0.813722
4572	-0.873589
4568	-1.005005
4564	-1.072096
4560	-0.746607
4556	-0.288009
4552	-0.249457
4548	-0.468444
4544	-0.756478
4540	-1.203012
4536	-1.509189
4532	-1.876020
4528	-2.217388
4524	-1.527881
4520	-0.423955
4516	-0.876760
4512	-1.372170
4508	0.988149
4504	4.259324
4500	6.113910
4496	12.8617
4492	20.8606
4488	17.87
4484	9.592628
4480	2.452969
4476	-1.207637
4472	-0.649785
4468	-0.252938
4464	-0.220918
4460	-0.670266
4456	-1.432728
4452	-1.251530
4448	-0.834989
4444	-0.892758
4440	-0.744032
4436	-0.512790
4432	-0.262427
4428	-0.168728
4424	-0.396394
4420	-0.534510
4416	-0.317263
4412	0.046801
4408	0.185871
4404	0.123047
4400	0.083088
4396	0.286507
4392	0.673913
4388	0.817990
4384	0.859880
4380	0.975632
4376	0.931620
4372	0.829887
4368	0.739836
4364	0.679731
4360	0.866746
4356	1.011943
4352	0.761222
4348	0.389051
4344	0.345826
4340	0.472688
4336	0.405812
4332	0.399374
4328	0.604557
4324	0.707745
4320	0.667476
4316	0.623583
4312	0.638628
4308	0.604104
4304	0.471639
4300	0.416898
4296	0.296831
4292	0.195503
4288	0.123119
4284	-0.092625
4280	-0.192689
4276	-0.116825
4272	-0.031828
4268	0.044798
4264	0.076460
4260	0.037741
4256	-0.003623
4252	-0.020360
4248	0.081539
4244	0.291061
4240	0.268268
4236	0.124335
4232	0.240492
4228	0.339651
4224	0.272631
4220	0.337219
4216	0.461959
4212	0.440955
4208	0.352287
4204	0.277209
4200	0.135540
4196	-0.036978
4192	-0.119280
4188	-0.081419
4184	0.023388
4180	0.202560
4176	0.462126
4172	0.645041
4168	0.615549
4164	0.437021
4160	0.324559
4156	0.318121
4152	0.207853
4148	0.100636
4144	0.181365
4140	0.278997
4136	0.283837
4132	0.222992
4128	0.150704
4124	0.169873
4120	0.231790
4116	0.210189
4112	0.062179
4108	-0.088238
4104	-0.045442
4100	0.153326
4096	0.240397
4092	0.112271
4088	-0.051403
4084	-0.043392
4080	0.092601
4076	0.146031
4072	0.174736
4068	0.291204
4064	0.374078
4060	0.318813
4056	0.200033
4052	0.140643
4048	0.117516
4044	0.087571
4040	0.110316
4036	0.139927
4032	0.116276
4028	0.038862
4024	-0.035214
4020	0.015735
4016	0.122523
4012	0.111341
4008	-0.018644
4004	-0.186872
4000	-0.254297
3996	-0.161528
3992	-0.141787
3988	-0.202417
3984	-0.107717
3980	0.076603
3976	0.175476
3972	0.180721
3968	0.169873
3964	0.142240
3960	0.159287
3956	0.206160
3952	0.139045
3948	0.036764
3944	0.012993
3940	0.012350
3936	-0.052165
3932	-0.102424
3928	0.043797
3924	0.227880
3920	0.208759
3916	0.085449
3912	-0.016880
3908	-0.054550
3904	-0.058364
3900	-0.115418
3896	-0.114059
3892	0.006532
3888	0.060963
3884	0.019741
3880	0.053596
3876	0.203776
3872	0.350904
3868	0.320887
3864	0.115513
3860	-0.030469
3856	-0.047850
3852	-0.051784
3848	-0.026607
3844	0.022602
3840	0.048661
3836	0.083637
3832	0.145840
3828	0.149250
3824	0.058364
3820	0.015091
3816	0.025987
3812	0.023245
3808	0.013828
3804	-0.013542
3800	-0.012016
3796	0.049567
3792	0.077199
3788	0.030350
3784	0.007820
3780	0.064706
3776	0.085186
3772	0.002026
3768	0.003743
3764	0.142073
3760	0.225019
3756	0.202059
3752	0.100421
3748	0.008630
3744	0.063538
3740	0.141572
3736	0.097131
3732	-0.011229
3728	-0.079894
3724	-0.055360
3720	-0.017881
3716	-0.008368
3712	0.044822
3708	0.108790
3704	0.112271
3700	0.166654
3696	0.277757
3692	0.268387
3688	0.212717
3684	0.267314
3680	0.312590
3676	0.201749
3672	0.057053
3668	0.012946
3664	0.006985
3660	-0.006151
3656	0.022530
3652	0.104117
3648	0.145292
3644	0.045204
3640	-0.107312
3636	-0.127410
3632	-0.016570
3628	0.079298
3624	0.107455
3620	0.161123
3616	0.229454
3612	0.233221
3608	0.190973
3604	0.115036
3600	0.036644
3596	0.010514
3592	0.039482
3588	0.065350
3584	0.017094
3580	-0.091409
3576	-0.100946
3572	-0.019025
3568	0.052332
3564	0.116157
3560	0.159049
3556	0.233459
3552	0.275135
3548	0.215291
3544	0.132799
3540	0.030374
3536	-0.011873
3532	0.034880
3528	0.050115
3524	0.059533
3520	0.144338
3516	0.206279
3512	0.190067
3508	0.212717
3504	0.213479
3500	0.137495
3496	0.183582
3492	0.274109
3488	0.154209
3484	-0.020599
3480	-0.049614
3476	-0.017333
3472	0.048780
3468	0.141501
3464	0.186729
3460	0.170707
3456	0.113964
3452	0.146627
3448	0.207710
3444	0.139307
3440	0.005888
3436	-0.108742
3432	-0.150084
3428	-0.113797
3424	-0.023984
3420	0.063419
3416	0.085759
3412	0.106215
3408	0.133872
3404	0.123095
3400	0.132918
3396	0.146174
3392	0.080108
3388	0.022172
3384	0.066089
3380	0.071477
3376	0.032663
3372	0.077939
3368	0.093173
3364	0.073814
3360	0.079846
3356	0.045013
3352	0.026917
3348	0.011372
3344	-0.032615
3340	0.027084
3336	0.141191
3332	0.108885
3328	0.039553
3324	0.037693
3320	0.027036
3316	0.056767
3312	0.093841
3308	0.068616
3304	0.039672
3300	0.047659
3296	0.072860
3292	0.098156
3288	0.113606
3284	0.065326
3280	-0.028252
3276	-0.085544
3272	-0.067234
3268	0.017070
3264	0.050735
3260	0.020599
3256	0.006985
3252	-0.017309
3248	0.020289
3244	0.126814
3240	0.133752
3236	0.066018
3232	0.082850
3228	0.138449
3224	0.120282
3220	0.078463
3216	0.039839
3212	0.025153
3208	0.079178
3204	0.106477
3200	0.044918
3196	0.010323
3192	0.061678
3188	0.059175
3184	-0.041818
3180	-0.096249
3176	-0.043535
3172	0.013279
3168	0.064325
3164	0.215458
3160	0.260281
3156	0.162506
3152	0.167107
3148	0.221085
3144	0.165748
3140	0.027632
3136	-0.041055
3132	-0.067877
3128	-0.143575
3124	-0.132274
3120	0.045728
3116	0.183033
3112	0.160551
3108	0.101470
3104	0.055956
3100	-0.010299
3096	-0.042319
3092	0.010919
3088	0.100207
3084	0.107288
3080	0.068879
3076	0.055027
3072	-0.024509
3068	-0.105571
3064	-0.081562
3060	-0.018596
3056	0.055503
3052	0.132942
3048	0.191521
3044	0.199723
3040	0.104117
3036	-0.008296
3032	-0.039982
3028	-0.031113
3024	-0.036573
3020	-0.035977
3016	0.005531
3012	0.043749
3008	0.014925
3004	-0.055718
3000	-0.078248
2996	-0.000286
2992	0.082850
2988	0.062823
2984	0.021934
2980	0.032210
2976	0.077676
2972	0.130915
2968	0.112652
2964	0.021719
2960	-0.018000
2956	0.014162
2952	0.050187
2948	0.068640
2944	0.031280
2940	-0.050306
2936	-0.101280
2932	-0.068664
2928	-0.007653
2924	-0.019788
2920	-0.053358
2916	-0.031900
2912	0.035476
2908	0.083065
2904	0.074982
2900	0.031399
2896	-0.009942
2892	0.013780
2888	0.036597
2884	-0.017356
2880	-0.046491
2876	0.005435
2872	0.015330
2868	-0.046205
2864	-0.022673
2860	0.049066
2856	0.006604
2852	-0.077247
2848	-0.053930
2844	-0.003075
2840	-0.014495
2836	-0.040888
2832	-0.060868
2828	-0.022387
2824	0.058293
2820	0.075292
2816	0.039649
2812	0.002837
2808	-0.002908
2804	0.046133
2800	0.062012
2796	0.029015
2792	0.049209
2788	0.076127
2784	0.049614
2780	0.031352
2776	0.055813
2772	0.092983
2768	0.097441
2764	0.074005
2760	0.054216
2756	0.040888
2752	0.021958
2748	0.016045
2744	0.007200
2740	-0.027632
2736	-0.040578
2732	-0.013422
2728	0.057411
2724	0.076723
2720	0.010585
2716	-0.001120
2712	0.043964
2708	0.095343
2704	0.143504
2700	0.155067
2696	0.095438
2692	0.034284
2688	0.051689
2684	0.069665
2680	0.045895
2676	0.008344
2672	-0.004291
2668	-0.003004
2664	-0.035905
2660	-0.076246
2656	-0.099825
2652	-0.053906
2648	0.032234
2644	-0.008559
2640	-0.085949
2636	-0.081586
2632	-0.078773
2628	-0.055098
2624	-0.000095
2620	0.018525
2616	0.012826
2612	0.025892
2608	0.026845
2604	0.026607
2600	0.052952
2596	0.068783
2592	0.060749
2588	0.061130
2584	0.072479
2580	0.071406
2576	0.073623
2572	0.092339
2568	0.085425
2564	0.008869
2560	-0.095152
2556	-0.131893
2552	-0.094389
2548	0.000143
2544	0.102210
2540	0.133943
2536	0.073122
2532	-0.021696
2528	-0.030374
2524	0.055217
2520	0.095701
2516	0.064897
2512	0.045490
2508	0.032997
2504	0.002360
2500	0.025558
2496	0.116157
2492	0.150799
2488	0.051236
2484	-0.059366
2480	-0.028061
2476	0.049448
2472	0.047373
2468	0.004506
2464	-0.031709
2460	-0.045967
2456	-0.015664
2452	-0.010442
2448	-0.047540
2444	-0.021886
2440	0.014829
2436	-0.018572
2432	-0.065827
2428	-0.082445
2424	-0.076603
2420	-0.053524
2416	-0.011539
2412	0.004291
2408	-0.000190
2404	0.000119
2400	-0.056600
2396	-0.090146
2392	-0.013065
2388	0.036025
2384	0.027418
2380	0.054001
2376	0.050425
2372	0.037527
2368	0.122427
2364	0.185155
2360	0.154638
2356	0.112175
2352	0.088930
2348	0.122261
2344	0.186753
2340	0.205087
2336	0.214409
2332	0.242543
2328	0.255751
2324	0.285863
2320	0.343370
2316	0.433707
2312	0.550341
2308	0.587654
2304	0.550270
2300	0.552892
2296	0.608825
2292	0.655555
2288	0.697112
2284	0.778365
2280	0.897574
2276	1.029729
2272	1.137542
2268	1.225543
2264	1.311612
2260	1.394438
2256	1.534867
2252	1.719951
2248	1.871371
2244	2.006030
2240	2.149057
2236	2.316522
2232	2.532720
2228	2.782535
2224	3.007006
2220	3.249025
2216	3.562951
2212	3.855824
2208	4.095864
2204	4.336738
2200	4.610514
2196	4.961585
2192	5.394482
2188	5.780673
2184	6.082820
2180	6.440329
2176	6.868696
2172	7.257866
2168	7.620120
2164	8.050155
2160	8.538603
2156	8.979797
2152	9.401988
2148	9.927630
2144	10.4614
2140	10.9266
2136	11.4184
2132	11.9063
2128	12.3451
2124	12.8223
2120	13.3632
2116	13.9079
2112	14.4396
2108	14.9836
2104	15.5205
2100	16.008
2096	16.4744
2092	16.9665
2088	17.4778
2084	17.9648
2080	18.4203
2076	18.9063
2072	19.4458
2068	19.9798
2064	20.4586
2060	20.8767
2056	21.278
2052	21.6941
2048	22.1627
2044	22.6706
2040	23.1176
2036	23.5158
2032	23.8865
2028	24.2455
2024	24.6467
2020	25.0481
2016	25.4233
2012	25.7925
2008	26.1437
2004	26.4501
2000	26.7065
1996	26.9572
1992	27.2478
1988	27.5558
1984	27.8469
1980	28.1291
1976	28.432
1972	28.7623
1968	29.082
1964	29.3757
1960	29.6323
1956	29.8372
1952	29.9965
1948	30.1268
1944	30.2706
1940	30.4275
1936	30.5658
1932	30.7295
1928	30.9657
1924	31.2176
1920	31.4527
1916	31.6831
1912	31.9047
1908	32.0967
1904	32.2298
1900	32.3131
1896	32.3897
1892	32.4835
1888	32.568
1884	32.5774
1880	32.5972
1876	32.7558
1872	32.9448
1868	33.1005
1864	33.2872
1860	33.4563
1856	33.571
1852	33.6389
1848	33.6422
1844	33.5899
1840	33.5157
1836	33.5115
1832	33.5988
1828	33.6812
1824	33.751
1820	33.8597
1816	34.0089
1812	34.1828
1808	34.3386
1804	34.4738
1800	34.5862
1796	34.6097
1792	34.5774
1788	34.4808
1784	34.3055
1780	34.2159
1776	34.2729
1772	34.3796
1768	34.4784
1764	34.5653
1760	34.6709
1756	34.8031
1752	34.8847
1748	34.8766
1744	34.8309
1740	34.763
1736	34.6826
1732	34.6438
1728	34.6269
1724	34.5994
1720	34.6499
1716	34.7826
1712	34.8757
1708	34.9541
1704	35.0594
1700	35.11
1696	35.0993
1692	35.097
1688	35.0594
1684	34.9453
1680	34.83
1676	34.7312
1672	34.6952
1668	34.7508
1664	34.8214
1660	34.8783
1656	34.9442
1652	35.0608
1648	35.1736
1644	35.2091
1640	35.1997
1636	35.1165
1632	34.9543
1628	34.8623
1624	34.8363
1620	34.7923
1616	34.7301
1612	34.6466
1608	34.6448
1604	34.7644
1600	34.8971
1596	34.9674
1592	35.0158
1588	35.1023
1584	35.1605
1580	35.099
1576	34.9456
1572	34.8188
1568	34.7542
1564	34.7157
1560	34.6685
1556	34.5884
1552	34.582
1548	34.6944
1544	34.8372
1540	34.9684
1536	35.031
1532	35.0168
1528	34.9687
1524	34.9198
1520	34.8789
1516	34.7873
1512	34.6668
1508	34.6114
1504	34.5818
1500	34.5205
1496	34.5285
1492	34.6947
1488	34.8919
1484	34.9484
1480	34.9178
1476	34.9495
1472	34.973
1468	34.8735
1464	34.7132
1460	34.5384
1456	34.3387
1452	34.2159
1448	34.1924
1444	34.2423
1440	34.4322
1436	34.6474
1432	34.7849
1428	34.8705
1424	34.8813
1420	34.8627
1416	34.8233
1412	34.6673
1408	34.4561
1404	34.3184
1400	34.2479
1396	34.1803
1392	34.14
1388	34.1969
1384	34.3421
1380	34.4977
1376	34.5933
1372	34.6579
1368	34.7063
1364	34.6834
1360	34.6004
1356	34.4442
1352	34.2231
1348	34.0266
1344	33.9126
1340	33.8648
1336	33.8666
1332	33.9652
1328	34.1169
1324	34.2636
1320	34.4038
1316	34.4821
1312	34.4878
1308	34.4493
1304	34.3579
1300	34.2169
1296	34.0501
1292	33.906
1288	33.785
1284	33.7043
1280	33.7185
1276	33.7987
1272	33.9523
1268	34.1417
1264	34.2842
1260	34.3746
1256	34.3949
1252	34.3199
1248	34.1354
1244	33.9213
1240	33.772
1236	33.6494
1232	33.5336
1228	33.4575
1224	33.4339
1220	33.518
1216	33.7103
1212	33.8775
1208	33.9636
1204	34.0692
1200	34.1314
1196	34.0434
1192	33.8645
1188	33.6794
1184	33.5032
1180	33.3139
1176	33.1561
1172	33.0736
1168	33.0925
1164	33.2665
1160	33.5213
1156	33.6583
1152	33.6349
1148	33.625
1144	33.7022
1140	33.7424
1136	33.6389
1132	33.3971
1128	33.1369
1124	32.9765
1120	32.889
1116	32.8481
1112	32.9093
1108	33.0365
1104	33.1497
1100	33.2735
1096	33.4093
1092	33.4669
1088	33.3987
1084	33.2952
1080	33.191
1076	33.0159
1072	32.8125
1068	32.6669
1064	32.5637
1060	32.4473
1056	32.3914
1052	32.5076
1048	32.732
1044	32.9048
1040	32.9844
1036	32.9913
1032	32.9207
1028	32.81
1024	32.7376
1020	32.6434
1016	32.4506
1012	32.2131
1008	32.0067
1004	31.9659
1000	32.0628
996	 32.1315
992	 32.2552
988	 32.464
984	 32.6029
980	 32.672
976	 32.6514
972	 32.4686
968	 32.1855
964	 31.9348
960	 31.7509
956	 31.5945
952	 31.4305
948	 31.3353
944	 31.4479
940	 31.6079
936	 31.6939
932	 31.8157
928	 31.9508
924	 32.0304
920	 32.0038
916	 31.8242
912	 31.5962
908	 31.3844
904	 31.1393
900	 30.8904
896	 30.626
892	 30.4703
888	 30.5733
884	 30.7774
880	 30.9289
876	 31.0653
872	 31.2305
868	 31.3098
864	 31.3214
860	 31.2929
856	 31.099
852	 30.7773
848	 30.4958
844	 30.3435
840	 30.2159
836	 30.0571
832	 29.9734
828	 30.08
824	 30.3548
820	 30.5428
816	 30.4749
812	 30.3475
808	 30.4049
804	 30.4956
800	 30.2931
796	 29.8572
792	 29.4717
788	 29.1926
784	 29.0046
780	 28.9482
776	 28.9752
772	 29.054
768	 29.1515
764	 29.28
760	 29.4764
756	 29.567
752	 29.4611
748	 29.3188
744	 29.1955
740	 29.0073
736	 28.7197
732	 28.3452
728	 28.0813
724	 27.9934
720	 27.9414
716	 27.9956
712	 28.1993
708	 28.4671
704	 28.5718
700	 28.3548
696	 28.0755
692	 28.0447
688	 28.0958
684	 27.9071
680	 27.5413
676	 27.1226
672	 26.8525
668	 26.9322
664	 27.0945
660	 27.0606
656	 26.999
652	 27.0373
648	 27.1132
644	 27.2415
640	 27.36
636	 27.3294
632	 27.0443
628	 26.5182
624	 25.9894
620	 25.6608
616	 25.5879
612	 25.738
608	 25.8359
604	 25.6744
600	 25.4913
596	 25.5766
592	 25.9037
588	 26.1042
584	 25.8301
580	 25.3543
576	 24.9568
572	 24.4796
568	 24.1382
564	 24.0417
560	 23.9752
556	 23.9977
552	 24.1855
548	 24.4663
544	 24.4945
540	 24.3556
536	 24.4116
532	 24.4278
528	 24.2153
524	 24.0119
520	 23.808
516	 23.2828
512	 22.6243
508	 22.3019
504	 22.4364
500	 22.8149
496	 22.7606
492	 22.2152
488	 22.2236
484	 22.7821
480	 23.0604
476	 23.011
472	 22.6237
468	 21.7958
464	 20.8086
460	 20.0631
456	 19.7926
452	 20.1459
448	 20.4754
444	 20.1677
440	 19.8679
436	 19.5752
432	 19.8465
428	 21.5933
424	 23.3381
420	 22.9131
416	 20.7525
412	 19.8508
408	 19.7964
404	 21.4236
400	 27.1404
396	 28.6907
392	 18.7733
388	 6.235289
384	 2.982544
380	 5.293631
376	 1.967668
372	 0.838565
370	 9.101724