File: Bakgrunnsmateriale/MATLAB/FTIR/ftir_data/LPE453/Mapping_121/LPE453_t19.asc
PE IR       SPECTRUM    SPECTRUM    ASCII       PEDS        1.60
  -1
LPE79D~1.ASC
17/05/16
15:51:41.00
17/05/16
15:52:07.00
tln
$LPE453_t0019$<tbV0>[-5.2,-10.4,8.0,0.0,27,1,0]
27.028
64

2002,4.07
MIRTGS : RIGHTBACK : INTERNAL 2
MIR : ON : INTERNAL 2
OPTKBR

0.200000
8
8.000000
FILLER
RATIO
SPECTRUM
UNLOCKED 256

DOUBLE
64
COMBINED
1
0
0

0.002000
RATIO

1
0
TRUE
51149
0
LEFT NOT FITTED RIGHT NOT FITTED 0
NONE
NONE
15600
12
4.427000
51148
TRUE
1 0 8 72 0 0 0 0

15798

#HDR
-1
-1
#GR
µM
%T
2.38419e-05
0.0
2.000000
0.002000
12515
8
41.7263
-1.228923
#DATA
2.000000	 0.009632
2.018000	 0.369100
2.036000	 -0.042628
2.054000	 0.189779
2.072000	 -0.021595
2.090000	 -0.062583
2.108000	 0.151894
2.126000	 0.510423
2.144000	 0.162781
2.162000	 0.918254
2.180000	 -0.245752
2.198000	 0.066946
2.216000	 16.9158
2.234000	 -0.430987
2.252000	 0.345113
2.270000	 0.181516
2.288000	 0.292857
2.306000	 0.113736
2.324000	 -0.268020
2.342000	 0.292424
2.360000	 0.009472
2.378000	 0.095709
2.396000	 0.501183
2.414000	 -0.167189
2.432000	 -0.008248
2.450000	 0.187863
2.468000	 -0.077947
2.486000	 0.161923
2.504000	 0.207160
2.522000	 0.219062
2.540000	 0.224436
2.558000	 0.328552
2.576000	 0.140171
2.594000	 0.161432
2.612000	 0.206254
2.630000	 0.177642
2.648000	 0.080855
2.666000	 0.170220
2.684000	 0.092941
2.702000	 0.193919
2.720000	 0.181976
2.738000	 0.036438
2.756000	 -0.026299
2.774000	 0.013867
2.792000	 0.092228
2.810000	 -0.027861
2.828000	 0.080838
2.846000	 0.103239
2.864000	 0.099015
2.882000	 0.074995
2.900000	 0.025168
2.918000	 0.012501
2.936000	 0.053871
2.954000	 0.076364
2.972000	 0.103019
2.990000	 0.023812
3.008000	 0.187490
3.026000	 -0.015833
3.044000	 0.238835
3.062000	 0.231031
3.080000	 -0.019070
3.098000	 -0.035783
3.116000	 0.110724
3.134000	 0.081550
3.152000	 0.109619
3.170000	 0.020930
3.188000	 -0.184293
3.206000	 -0.009198
3.224000	 -0.000395
3.242000	 0.083940
3.260000	 0.137035
3.278000	 0.061611
3.296000	 0.134873
3.314000	 -0.005619
3.332000	 0.059497
3.350000	 -0.000767
3.368000	 0.041966
3.386000	 0.052104
3.404000	 0.020020
3.422000	 0.039127
3.440000	 0.062637
3.458000	 0.054496
3.476000	 0.042678
3.494000	 0.074573
3.512000	 -0.015724
3.530000	 0.076567
3.548000	 0.038342
3.566000	 0.022852
3.584000	 0.022451
3.602000	 0.018135
3.620000	 -0.095563
3.638000	 0.005622
3.656000	 0.169996
3.674000	 0.083158
3.692000	 -0.025274
3.710000	 0.046830
3.728000	 0.138914
3.746000	 -0.013998
3.764000	 0.023768
3.782000	 -0.024741
3.800000	 -0.083165
3.818000	 0.113664
3.836000	 0.022792
3.854000	 -0.015541
3.872000	 0.095352
3.890000	 0.061456
3.908000	 -0.043648
3.926000	 -0.010797
3.944000	 -0.017762
3.962000	 0.053284
3.980000	 0.105508
3.998000	 0.296057
4.016000	 0.124347
4.034000	 0.082157
4.052000	 0.020892
4.070000	 0.072421
4.088000	 -0.016716
4.106000	 -0.066727
4.124000	 -0.208849
4.141999	 0.156034
4.160000	 0.117024
4.178000	 0.106550
4.196000	 0.058955
4.214000	 0.111062
4.232000	 0.177599
4.250000	 0.271301
4.268000	 0.280075
4.286000	 0.432276
4.304000	 0.502506
4.322000	 0.763793
4.340000	 0.772330
4.358000	 1.014569
4.375999	 1.281049
4.394000	 1.443256
4.412000	 1.763589
4.430000	 2.063040
4.448000	 2.574193
4.466000	 3.087779
4.484000	 3.642657
4.502000	 4.182022
4.520000	 4.891117
4.538000	 5.656529
4.556000	 6.562919
4.574000	 7.324593
4.592000	 8.228023
4.609999	 9.109519
4.628000	 10.1577
4.646000	 11.2646
4.664000	 12.4074
4.682000	 13.3746
4.700000	 14.5581
4.718000	 15.6494
4.736000	 16.7854
4.754000	 17.822
4.772000	 19.0368
4.790000	 20.2495
4.808000	 21.2581
4.826000	 22.0198
4.843999	 22.924
4.862000	 24.0601
4.880000	 24.88
4.898000	 25.7006
4.916000	 26.5267
4.934000	 27.3146
4.952000	 28.038
4.970000	 28.5756
4.988000	 29.0828
5.006000	 29.7177
5.024000	 30.4136
5.042000	 31.0655
5.060000	 31.6037
5.077999	 32.0311
5.096000	 32.4413
5.114000	 32.7724
5.132000	 32.9816
5.150000	 33.4485
5.168000	 33.8622
5.186000	 34.2093
5.204000	 34.5281
5.222000	 34.7921
5.240000	 34.9585
5.258000	 35.0633
5.276000	 35.1588
5.294000	 35.3023
5.312000	 35.5785
5.330000	 35.8603
5.348000	 36.174
5.366000	 36.3824
5.384000	 36.5764
5.402000	 36.6968
5.420000	 36.6763
5.438000	 36.5199
5.456000	 36.459
5.474000	 36.5845
5.492000	 36.755
5.510000	 36.976
5.528000	 37.2526
5.546000	 37.3791
5.564000	 37.5256
5.582000	 37.5709
5.600000	 37.5081
5.618000	 37.377
5.636000	 37.3334
5.654000	 37.3211
5.672000	 37.4245
5.690000	 37.562
5.708000	 37.7581
5.726000	 37.9782
5.744000	 38.1149
5.762000	 38.2097
5.780000	 38.1291
5.798000	 37.9138
5.816000	 37.8436
5.834000	 37.7311
5.852000	 37.7213
5.870000	 37.8842
5.888000	 38.112
5.906000	 38.1654
5.923999	 38.3289
5.942000	 38.5405
5.960000	 38.4119
5.978000	 38.3282
5.996000	 38.2394
6.014000	 38.0951
6.032000	 38.1321
6.050000	 38.1978
6.068000	 37.9922
6.086000	 37.8782
6.104000	 38.0267
6.122000	 38.1807
6.140000	 38.2926
6.158000	 38.5073
6.176000	 38.6612
6.194000	 38.6362
6.212000	 38.4598
6.230000	 38.2725
6.248000	 38.0725
6.266000	 37.9061
6.284000	 37.7697
6.302000	 37.7405
6.320000	 37.8127
6.338000	 38.006
6.356000	 38.1709
6.374000	 38.2506
6.392000	 38.5003
6.410000	 38.9254
6.428000	 38.9814
6.446000	 38.6858
6.464000	 38.494
6.482000	 38.4839
6.500000	 38.381
6.518000	 38.081
6.536000	 37.8489
6.554000	 37.8666
6.572000	 37.9951
6.590000	 38.0057
6.608000	 38.0571
6.626000	 38.2686
6.644000	 38.4125
6.662000	 38.4296
6.680000	 38.4384
6.698000	 38.4146
6.716000	 38.3854
6.734000	 38.3464
6.752000	 38.2456
6.770000	 38.1648
6.788000	 38.0579
6.806000	 37.8217
6.824000	 37.6191
6.842000	 37.6091
6.860000	 37.7129
6.878000	 37.8075
6.896000	 37.9308
6.914000	 38.1158
6.932000	 38.2736
6.950000	 38.3637
6.968000	 38.3725
6.986000	 38.3169
7.004000	 38.2667
7.022000	 38.2545
7.040000	 38.2194
7.058000	 38.0889
7.076000	 37.8975
7.094000	 37.7398
7.112000	 37.6628
7.130000	 37.6545
7.148000	 37.6721
7.166000	 37.6667
7.184000	 37.6302
7.202000	 37.6236
7.220000	 37.697
7.238000	 37.8288
7.256000	 37.978
7.274000	 38.1273
7.292000	 38.2626
7.310000	 38.3524
7.328000	 38.3653
7.346000	 38.2914
7.364000	 38.1461
7.382000	 37.9719
7.400000	 37.8098
7.418000	 37.6686
7.436000	 37.5625
7.454000	 37.5125
7.472000	 37.4851
7.490000	 37.4381
7.508000	 37.4093
7.526000	 37.4538
7.544000	 37.5541
7.562000	 37.664
7.580000	 37.7793
7.598000	 37.9094
7.616000	 38.029
7.634000	 38.1074
7.652000	 38.1581
7.670000	 38.2077
7.688000	 38.2393
7.706000	 38.2155
7.724000	 38.1302
7.742000	 38.012
7.760000	 37.8886
7.778000	 37.7533
7.796000	 37.5793
7.814000	 37.3884
7.832000	 37.2499
7.850000	 37.1798
7.868000	 37.1236
7.886000	 37.0709
7.904000	 37.0779
7.922000	 37.1653
7.940000	 37.2947
7.958000	 37.4448
7.976000	 37.6318
7.994000	 37.8436
8.012000	 38.015
8.030000	 38.0915
8.048000	 38.0896
8.065999	 38.0669
8.084000	 38.0513
8.102000	 38.0222
8.120000	 37.9473
8.138000	 37.8234
8.155999	 37.6826
8.173999	 37.5586
8.192000	 37.4515
8.210000	 37.3401
8.228000	 37.2237
8.246000	 37.1277
8.263999	 37.0682
8.282000	 37.0379
8.300000	 37.0311
8.318000	 37.0611
8.336000	 37.1423
8.353999	 37.2638
8.372000	 37.397
8.390000	 37.5287
8.408000	 37.6669
8.426000	 37.8159
8.443999	 37.9612
8.462000	 38.0756
8.480000	 38.1402
8.498000	 38.1546
8.516000	 38.1292
8.533999	 38.0683
8.552000	 37.9678
8.570000	 37.8334
8.588000	 37.6852
8.606000	 37.5381
8.624000	 37.3929
8.641999	 37.2571
8.660000	 37.1475
8.678000	 37.0687
8.696000	 37.0091
8.714000	 36.9642
8.731999	 36.9449
8.750000	 36.9588
8.768000	 36.9948
8.786000	 37.0397
8.804000	 37.0992
8.821999	 37.1912
8.840000	 37.319
8.858000	 37.4674
8.876000	 37.618
8.894000	 37.7566
8.911999	 37.8651
8.930000	 37.9254
8.948000	 37.9305
8.966000	 37.8869
8.984000	 37.8102
9.001999	 37.7234
9.020000	 37.652
9.038000	 37.6124
9.056000	 37.6017
9.074000	 37.5988
9.092000	 37.5752
9.109999	 37.5069
9.128000	 37.3807
9.146000	 37.2004
9.164000	 36.991
9.182000	 36.7919
9.199999	 36.6406
9.218000	 36.5557
9.236000	 36.5303
9.254000	 36.5413
9.272000	 36.5722
9.289999	 36.625
9.308000	 36.7114
9.326000	 36.8337
9.344000	 36.9786
9.362000	 37.1268
9.379999	 37.2625
9.398000	 37.3757
9.416000	 37.4608
9.434000	 37.5177
9.452000	 37.5557
9.469999	 37.5873
9.488000	 37.6165
9.506000	 37.6328
9.524000	 37.6195
9.542000	 37.5698
9.560000	 37.494
9.577999	 37.4146
9.596000	 37.3503
9.614000	 37.3047
9.632000	 37.2656
9.650000	 37.2128
9.667999	 37.1294
9.686000	 37.0106
9.704000	 36.8667
9.722000	 36.7167
9.740000	 36.581
9.757999	 36.472
9.776000	 36.3928
9.794000	 36.3359
9.812000	 36.2886
9.830000	 36.2413
9.847999	 36.1952
9.866000	 36.1642
9.884000	 36.1674
9.902000	 36.2178
9.920000	 36.3129
9.937999	 36.4348
9.956000	 36.5591
9.974000	 36.6683
9.992000	 36.7619
10.01	36.8546
10.028	36.9684
10.046	37.1156
10.064	37.2882
10.082	37.4598
10.1	37.5977
10.118	37.6798
10.136	37.7063
10.154	37.696
10.172	37.6725
10.19	37.6504
10.208	37.6274
10.226	37.5905
10.244	37.5252
10.262	37.4246
10.28	37.2913
10.298	37.1341
10.316	36.9656
10.334	36.7974
10.352	36.6395
10.37	36.5011
10.388	36.3891
10.406	36.3051
10.424	36.2453
10.442	36.1996
10.46	36.1585
10.478	36.1188
10.496	36.085
10.514	36.0649
10.532	36.0644
10.55	36.0821
10.568	36.1131
10.586	36.1546
10.604	36.211
10.622	36.291
10.64	36.3995
10.658	36.5316
10.676	36.6722
10.694	36.8037
10.712	36.913
10.73	36.9965
10.748	37.0568
10.766	37.098
10.784	37.1225
10.802	37.1314
10.82	37.1281
10.838	37.1194
10.856	37.1128
10.874	37.111
10.892	37.1088
10.91	37.0951
10.928	37.059
10.946	36.9954
10.964	36.9079
10.982	36.8055
11	36.6957
11.018	36.5806
11.036	36.4568
11.054	36.3198
11.072	36.1711
11.09	36.02
11.108	35.8802
11.126	35.7647
11.144	35.6786
11.162	35.6167
11.18	35.5673
11.198	35.5176
11.216	35.4619
11.234	35.4038
11.252	35.3551
11.27	35.3298
11.288	35.3377
11.306	35.3803
11.324	35.4504
11.342	35.5363
11.36	35.6275
11.378	35.7174
11.396	35.8055
11.414	35.8941
11.432	35.9847
11.45	36.0759
11.468	36.1633
11.486	36.2425
11.504	36.3121
11.522	36.3744
11.54	36.4334
11.558	36.4927
11.576	36.5524
11.594	36.6083
11.612	36.6535
11.63	36.6806
11.648	36.6849
11.666	36.6653
11.684	36.6248
11.702	36.5676
11.72	36.4985
11.738	36.4207
11.756	36.335
11.774	36.2415
11.792	36.1403
11.81	36.0329
11.828	35.9223
11.846	35.8124
11.864	35.7073
11.882	35.61
11.9	35.5224
11.918	35.4451
11.936	35.3776
11.954	35.3192
11.972	35.2685
11.99	35.224
12.008	35.1837
12.026	35.1453
12.044	35.1069
12.062	35.0675
12.08	35.0277
12.098	34.9895
12.116	34.9565
12.134	34.9329
12.152	34.9225
12.17	34.928
12.188	34.9504
12.206	34.9894
12.224	35.0426
12.242	35.1071
12.26	35.1792
12.278	35.2548
12.296	35.3299
12.314	35.4016
12.332	35.4675
12.35	35.5267
12.368	35.5793
12.386	35.627
12.404	35.6719
12.422	35.7157
12.44	35.7599
12.458	35.804
12.476	35.8464
12.494	35.884
12.512	35.9129
12.53	35.9302
12.548	35.9337
12.566	35.9228
12.584	35.8977
12.602	35.8594
12.62	35.8092
12.638	35.7486
12.656	35.6787
12.674	35.6011
12.692	35.5177
12.71	35.4317
12.728	35.3467
12.746	35.2664
12.764	35.1943
12.782	35.1329
12.8	35.0831
12.818	35.0436
12.836	35.012
12.854	34.9844
12.872	34.956
12.89	34.9217
12.908	34.8763
12.926	34.8163
12.944	34.7401
12.962	34.6494
12.98	34.5495
12.998	34.4494
13.016	34.3599
13.034	34.2918
13.052	34.2535
13.07	34.249
13.088	34.2762
13.106	34.327
13.124	34.3895
13.142	34.4496
13.16	34.4942
13.178	34.514
13.196	34.5051
13.214	34.4698
13.232	34.4142
13.25	34.3483
13.268	34.2826
13.286	34.227
13.304	34.1888
13.322	34.1727
13.34	34.1808
13.358	34.2126
13.376	34.266
13.394	34.3373
13.412	34.422
13.43	34.5149
13.448	34.6109
13.466	34.7044
13.484	34.79
13.502	34.8641
13.52	34.9241
13.538	34.9692
13.556	34.9999
13.574	35.0183
13.592	35.0273
13.61	35.0296
13.628	35.0274
13.646	35.0224
13.664	35.015
13.682	35.0049
13.7	34.9909
13.718	34.9718
13.736	34.9467
13.754	34.9151
13.772	34.8774
13.79	34.8351
13.808	34.7902
13.826	34.7457
13.844	34.7038
13.862	34.666
13.88	34.632
13.898	34.6003
13.916	34.5676
13.934	34.5298
13.952	34.4819
13.97	34.4197
13.988	34.3399
14.006	34.2411
14.024	34.1242
14.042	33.9922
14.06	33.85
14.078	33.7036
14.096	33.5594
14.114	33.4235
14.132	33.3012
14.15	33.1963
14.168	33.1109
14.186	33.0457
14.204	32.9999
14.222	32.9719
14.24	32.9584
14.258	32.9565
14.276	32.9628
14.294	32.9747
14.312	32.9905
14.33	33.0092
14.348	33.0311
14.366	33.0569
14.384	33.088
14.402	33.1254
14.42	33.1691
14.438	33.2185
14.456	33.2719
14.474	33.3266
14.492	33.3798
14.51	33.4286
14.528	33.4705
14.546	33.5045
14.564	33.5308
14.582	33.5509
14.6	33.5672
14.618	33.5831
14.636	33.6022
14.654	33.6278
14.672	33.6623
14.69	33.7075
14.708	33.7643
14.726	33.8325
14.744	33.911
14.762	33.998
14.78	34.0913
14.798	34.188
14.816	34.285
14.834	34.3785
14.852	34.4647
14.87	34.54
14.888	34.6016
14.906	34.6475
14.924	34.6762
14.942	34.6878
14.96	34.6826
14.978	34.6618
14.996	34.6267
15.014	34.5783
15.032	34.5179
15.05	34.4456
15.068	34.3621
15.086	34.2678
15.104	34.1632
15.122	34.0497
15.14	33.9298
15.158	33.8063
15.176	33.6831
15.194	33.5645
15.212	33.4554
15.23	33.3595
15.248	33.2797
15.266	33.2179
15.284	33.1742
15.302	33.1464
15.32	33.1314
15.338	33.1254
15.356	33.1233
15.374	33.1195
15.392	33.1098
15.41	33.0907
15.428	33.0592
15.446	33.0139
15.464	32.9549
15.482	32.8833
15.5	32.8006
15.518	32.7104
15.536	32.6157
15.554	32.5197
15.572	32.4255
15.59	32.3366
15.608	32.2549
15.626	32.182
15.644	32.1194
15.662	32.0677
15.68	32.0269
15.698	31.9969
15.716	31.9771
15.734	31.9668
15.752	31.9655
15.77	31.9724
15.788	31.9866
15.806	32.0072
15.824	32.0332
15.842	32.0634
15.86	32.0964
15.878	32.1306
15.896	32.1646
15.914	32.1962
15.932	32.2239
15.95	32.2466
15.968	32.2634
15.986	32.2737
16.004	32.278
16.022	32.2767
16.04	32.2715
16.058	32.2644
16.076	32.257
16.094	32.2518
16.112	32.2507
16.13	32.2547
16.148	32.2651
16.166	32.2822
16.184	32.3056
16.202	32.335
16.22	32.3687
16.238	32.4058
16.256	32.4448
16.274	32.4844
16.292	32.5241
16.31	32.5632
16.328	32.6016
16.346	32.6395
16.364	32.6769
16.382	32.714
16.4	32.7504
16.418	32.7857
16.436	32.8187
16.454	32.8478
16.472	32.8717
16.49	32.8879
16.508	32.8951
16.526	32.8921
16.544	32.8776
16.562	32.852
16.58	32.8155
16.598	32.7696
16.616	32.7166
16.634	32.6581
16.652	32.5978
16.67	32.5378
16.688	32.4802
16.706	32.4281
16.724	32.3823
16.742	32.3442
16.76	32.3145
16.778	32.293
16.796	32.2792
16.814	32.2719
16.832	32.2704
16.85	32.2726
16.868	32.2772
16.886	32.2832
16.904	32.2884
16.922	32.2918
16.94	32.2921
16.958	32.288
16.976	32.2788
16.994	32.2633
17.012	32.2409
17.03	32.211
17.048	32.1731
17.066	32.1271
17.084	32.0729
17.102	32.0111
17.12	31.942
17.138	31.8669
17.156	31.787
17.174	31.7032
17.192	31.618
17.21	31.5324
17.228	31.4486
17.246	31.3683
17.264	31.2926
17.282	31.2235
17.3	31.1616
17.318	31.1076
17.336	31.0618
17.354	31.0242
17.372	30.9942
17.39	30.9715
17.408	30.9553
17.426	30.9446
17.444	30.9386
17.462	30.9363
17.48	30.9375
17.498	30.941
17.516	30.9472
17.534	30.9559
17.552	30.9674
17.57	30.9817
17.588	30.9997
17.606	31.0214
17.624	31.0471
17.642	31.0766
17.66	31.1102
17.678	31.147
17.696	31.1868
17.714	31.2283
17.732	31.2708
17.75	31.3132
17.768	31.3542
17.786	31.3931
17.804	31.4287
17.822	31.4609
17.84	31.4892
17.858	31.5138
17.876	31.5349
17.894	31.5536
17.912	31.5704
17.93	31.5868
17.948	31.6034
17.966	31.6218
17.984	31.6421
18.002	31.6656
18.02	31.6919
18.038	31.7213
18.056	31.7527
18.074	31.7859
18.092	31.8186
18.11	31.8504
18.128	31.8784
18.146	31.902
18.164	31.9186
18.182	31.9277
18.2	31.9277
18.218	31.9182
18.236	31.8986
18.254	31.8696
18.272	31.8312
18.29	31.7853
18.308	31.7322
18.326	31.675
18.344	31.6143
18.362	31.5538
18.38	31.4943
18.398	31.4391
18.416	31.389
18.434	31.3464
18.452	31.3117
18.47	31.2861
18.488	31.2694
18.506	31.2621
18.524	31.2628
18.542	31.2716
18.56	31.2859
18.578	31.3053
18.596	31.3269
18.614	31.3504
18.632	31.3731
18.65	31.3948
18.668	31.4137
18.686	31.4297
18.704	31.4418
18.722	31.4501
18.74	31.4544
18.758	31.4548
18.776	31.4515
18.794	31.4446
18.812	31.4343
18.83	31.4206
18.848	31.4035
18.866	31.3829
18.884	31.3588
18.902	31.331
18.92	31.2997
18.938	31.2647
18.956	31.2263
18.974	31.1847
18.992	31.1401
19.01	31.0933
19.028	31.0448
19.046	30.9956
19.064	30.9466
19.082	30.8985
19.1	30.8525
19.118	30.8087
19.136	30.7681
19.154	30.7305
19.172	30.6962
19.19	30.6648
19.208	30.6356
19.226	30.6081
19.244	30.5808
19.262	30.5534
19.28	30.5234
19.298	30.4907
19.316	30.4526
19.334	30.4094
19.352	30.3587
19.37	30.3006
19.388	30.2342
19.406	30.1593
19.424	30.0765
19.442	29.9856
19.46	29.8882
19.478	29.7839
19.496	29.6754
19.514	29.5631
19.532	29.4494
19.55	29.3353
19.568	29.223
19.586	29.115
19.604	29.012
19.622	28.917
19.64	28.8302
19.658	28.7548
19.676	28.6905
19.694	28.6401
19.712	28.6033
19.73	28.5814
19.748	28.5744
19.766	28.5816
19.784	28.6033
19.802	28.6371
19.82	28.6824
19.838	28.737
19.856	28.798
19.874	28.8645
19.892	28.931
19.91	28.9981
19.928	29.0589
19.946	29.1144
19.964	29.1587
19.982	29.1913
20	29.2095
20.018	29.2112
20.036	29.1964
20.054	29.1632
20.072	29.1124
20.09	29.045
20.108	28.9606
20.126	28.8634
20.144	28.7527
20.162	28.6339
20.18	28.5083
20.198	28.3792
20.216	28.2517
20.234	28.1258
20.252	28.0088
20.27	27.8995
20.288	27.8038
20.306	27.7222
20.324	27.6566
20.342	27.6093
20.36	27.5796
20.378	27.5684
20.396	27.5752
20.414	27.5981
20.432	27.6377
20.45	27.69
20.468	27.754
20.486	27.8281
20.504	27.908
20.522	27.9947
20.54	28.0826
20.558	28.1721
20.576	28.2608
20.594	28.3474
20.612	28.4319
20.63	28.5124
20.648	28.5894
20.666	28.6638
20.684	28.7351
20.702	28.8052
20.72	28.8747
20.738	28.9442
20.756	29.0165
20.774	29.0909
20.792	29.1699
20.81	29.2539
20.828	29.3428
20.846	29.4377
20.864	29.538
20.882	29.6423
20.9	29.7513
20.918	29.862
20.936	29.9729
20.954	30.0837
20.972	30.1892
20.99	30.291
21.008	30.3843
21.026	30.4673
21.044	30.5398
21.062	30.5977
21.08	30.6421
21.098	30.671
21.116	30.6837
21.134	30.681
21.152	30.6634
21.17	30.6305
21.188	30.5858
21.206	30.529
21.224	30.4625
21.242	30.3904
21.26	30.3113
21.278	30.2307
21.296	30.1492
21.314	30.0682
21.332	29.9917
21.35	29.9184
21.368	29.8517
21.386	29.7923
21.404	29.7402
21.422	29.6967
21.44	29.6617
21.458	29.6344
21.476	29.6152
21.494	29.6032
21.512	29.5965
21.53	29.5956
21.548	29.5985
21.566	29.6038
21.584	29.6118
21.602	29.62
21.62	29.6285
21.638	29.6364
21.656	29.6421
21.674	29.6463
21.692	29.648
21.71	29.647
21.728	29.6436
21.746	29.6377
21.764	29.6291
21.782	29.6187
21.8	29.6067
21.818	29.5931
21.836	29.5789
21.854	29.5641
21.872	29.5491
21.89	29.5344
21.908	29.5201
21.926	29.5061
21.944	29.4926
21.962	29.4796
21.98	29.4664
21.998	29.4533
22.016	29.4399
22.034	29.4252
22.052	29.4097
22.07	29.3925
22.088	29.373
22.106	29.3516
22.124	29.3276
22.142	29.301
22.16	29.2718
22.178	29.2401
22.196	29.2058
22.214	29.1693
22.232	29.1313
22.25	29.0914
22.268	29.0507
22.286	29.0096
22.304	28.968
22.322	28.9273
22.34	28.8878
22.358	28.8493
22.376	28.8124
22.394	28.7774
22.412	28.7437
22.43	28.7107
22.448	28.6789
22.466	28.6471
22.484	28.6144
22.502	28.5815
22.52	28.5462
22.538	28.5078
22.556	28.4668
22.574	28.4201
22.592	28.3678
22.61	28.3095
22.628	28.2423
22.646	28.1669
22.664	28.0825
22.682	27.9871
22.7	27.8812
22.718	27.7646
22.736	27.6367
22.754	27.4974
22.772	27.3478
22.79	27.1883
22.808	27.0182
22.826	26.8404
22.844	26.6565
22.862	26.4653
22.88	26.2711
22.898	26.0751
22.916	25.8764
22.934	25.6808
22.952	25.4894
22.97	25.3014
22.988	25.1227
23.006	24.9537
23.024	24.7943
23.042	24.6499
23.06	24.5208
23.078	24.4066
23.096	24.3116
23.114	24.2357
23.132	24.1786
23.15	24.1425
23.168	24.128
23.186	24.1341
23.204	24.1594
23.222	24.2049
23.24	24.2692
23.258	24.3495
23.276	24.4467
23.294	24.5595
23.312	24.6837
23.33	24.8204
23.348	24.9682
23.366	25.1224
23.384	25.2838
23.402	25.4515
23.42	25.621
23.438	25.7927
23.456	25.9664
23.474	26.1373
23.492	26.3056
23.51	26.4715
23.528	26.6299
23.546	26.7802
23.564	26.9233
23.582	27.0552
23.6	27.1744
23.618	27.2824
23.636	27.3766
23.654	27.4562
23.672	27.5222
23.69	27.5721
23.708	27.6045
23.726	27.6207
23.744	27.6187
23.762	27.5963
23.78	27.555
23.798	27.4936
23.816	27.4104
23.834	27.306
23.852	27.1805
23.87	27.034
23.888	26.8657
23.906	26.6768
23.924	26.4689
23.942	26.2409
23.96	25.9938
23.978	25.7315
23.996	25.4543
24.014	25.1612
24.032	24.8583
24.05	24.5486
24.068	24.2283
24.086	23.9048
24.104	23.5846
24.122	23.2623
24.14	22.944
24.158	22.6388
24.176	22.3427
24.194	22.0583
24.212	21.7945
24.23	21.5516
24.248	21.3277
24.266	21.1309
24.284	20.9658
24.302	20.8282
24.32	20.722
24.338	20.6512
24.356	20.6146
24.374	20.6112
24.392	20.6413
24.41	20.7072
24.428	20.8063
24.446	20.9323
24.464	21.0845
24.482	21.2658
24.5	21.4661
24.518	21.6778
24.536	21.9092
24.554	22.15
24.572	22.3859
24.59	22.6228
24.608	22.8581
24.626	23.0755
24.644	23.2684
24.662	23.4457
24.68	23.5946
24.698	23.7035
24.716	23.781
24.734	23.8208
24.752	23.8115
24.77	23.75
24.788	23.6412
24.806	23.484
24.824	23.2762
24.842	23.0157
24.86	22.7108
24.878	22.3701
24.896	21.9847
24.914	21.5614
24.932	21.1207
24.95	20.6707
24.968	20.1971
24.986	19.7234
25.004	19.2738
25.022	18.8323
25.04	18.4084
25.058	18.0303
25.076	17.709
25.094	17.4273
25.112	17.208
25.13	17.0739
25.148	17.0152
25.166	17.0334
25.184	17.1421
25.202	17.3498
25.22	17.6495
25.238	18.0393
25.256	18.5183
25.274	19.0937
25.292	19.7573
25.31	20.4937
25.328	21.2969
25.346	22.1805
25.364	23.1217
25.382	24.0948
25.4	25.1123
25.418	26.1719
25.436	27.2405
25.454	28.2945
25.472	29.3603
25.49	30.4153
25.508	31.4265
25.526	32.3899
25.544	33.3209
25.562	34.1933
25.58	34.9819
25.598	35.6989
25.616	36.3431
25.634	36.8997
25.652	37.3585
25.67	37.7277
25.688	38.007
25.706	38.1953
25.724	38.2872
25.742	38.2856
25.76	38.2032
25.778	38.051
25.796	37.8136
25.814	37.5034
25.832	37.1462
25.85	36.7564
25.868	36.3104
25.886	35.8334
25.904	35.3571
25.922	34.8841
25.94	34.3968
25.958	33.9274
25.976	33.5081
25.994	33.1276
26.012	32.7823
26.03	32.4954
26.048	32.2872
26.066	32.1444
26.084	32.0694
26.102	32.0731
26.12	32.165
26.138	32.3423
26.156	32.5966
26.174	32.9197
26.192	33.314
26.21	33.7872
26.228	34.317
26.246	34.8801
26.264	35.4861
26.282	36.1417
26.3	36.8115
26.318	37.461
26.336	38.1105
26.354	38.759
26.372	39.3706
26.39	39.9127
26.408	40.4112
26.426	40.8581
26.444	41.2226
26.462	41.4787
26.48	41.6476
26.498	41.7237
26.516	41.6903
26.534	41.5342
26.552	41.2647
26.57	40.8833
26.588	40.3881
26.606	39.7758
26.624	39.0426
26.642	38.2
26.66	37.2612
26.678	36.2303
26.696	35.0919
26.714	33.8663
26.732	32.577
26.75	31.2321
26.768	29.8093
26.786	28.3336
26.804	26.8334
26.822	25.32
26.84	23.7685
26.858	22.2018
26.876	20.6458
26.894	19.1122
26.912	17.5792
26.93	16.0628
26.948	14.5818
26.966	13.0932
26.984	11.5041
27.002	10.0202
27.02	8.866263
27.028	8.553647