File: Bakgrunnsmateriale/MATLAB/FTIR/ftir_data/LPE453/Mapping_121/LPE453_t14_cm-1.asc
PE IR       SPECTRUM    SPECTRUM    ASCII       PEDS        1.60
  -1
LPE75B~1.ASC
17/05/16
15:28:37.00
17/05/16
15:28:37.00
tln
$LPE453_t0014$<tbV0>[7.8,-10.4,8.0,0.0,27,1,0]
370
64

2002,4.07
MIRTGS : RIGHTBACK : INTERNAL 2
MIR : ON : INTERNAL 2
OPTKBR

0.200000
8
8.000000
FILLER
RATIO
SPECTRUM
UNLOCKED 256

DOUBLE
64
COMBINED
1
0
0

1.000000
RATIO

1
0
TRUE
51149
0
LEFT NOT FITTED RIGHT NOT FITTED 0
NONE
NONE
15600
12
4.427000
51148
TRUE
1 0 8 72 0 0 0 0

15798

#HDR
-1
-1
#GR
CM-1
%T
2.38419e-05
0.0
5000
-1.000000
4631
8
32.4607
-6.658506
#DATA
5000	-0.105190
4996	-0.159597
4992	-0.231122
4988	-0.230860
4984	-0.170469
4980	-0.125002
4976	0.042891
4972	0.303030
4968	0.402450
4964	0.086736
4960	-0.104308
4956	0.146365
4952	0.147509
4948	-0.058579
4944	0.072193
4940	0.454282
4936	0.630116
4932	0.553798
4928	0.343108
4924	0.072097
4920	0.087308
4916	0.123023
4912	0.007152
4908	0.194001
4904	0.477027
4900	0.459790
4896	0.348377
4892	0.304126
4888	0.273036
4884	0.391602
4880	0.594878
4876	0.540208
4872	0.263905
4868	0.087523
4864	0.064802
4860	0.072860
4856	0.202131
4852	0.275468
4848	0.077366
4844	-0.013017
4840	0.053119
4836	0.073981
4832	0.159049
4828	0.315904
4824	0.360083
4820	0.353598
4816	0.444674
4812	0.451517
4808	0.322031
4804	0.203847
4800	0.181484
4796	0.134253
4792	0.020313
4788	-0.072145
4784	-0.091671
4780	-0.054621
4776	-0.090956
4772	-0.143027
4768	-0.043845
4764	0.320267
4760	0.588917
4756	0.414037
4752	0.164031
4748	0.131106
4744	0.212240
4740	0.060367
4736	-0.207924
4732	-0.138354
4728	-0.046730
4724	-0.113582
4720	0.029540
4716	0.330686
4712	0.607514
4708	0.722622
4704	0.543427
4700	0.250339
4696	0.084352
4692	0.001430
4688	-0.088739
4684	-0.138568
4680	-0.112724
4676	0.002098
4672	0.161623
4668	0.263428
4664	0.341844
4660	0.322675
4656	0.157022
4652	0.209832
4648	0.499439
4644	0.455379
4640	0.178885
4636	0.145101
4632	0.211048
4628	0.138425
4624	0.033044
4620	0.080299
4616	0.246119
4612	0.382232
4608	0.513482
4604	0.517749
4600	0.322961
4596	0.259995
4592	0.319838
4588	0.345802
4584	0.296330
4580	0.258064
4576	0.307440
4572	0.384402
4568	0.469803
4564	0.585174
4560	0.760316
4556	1.084613
4552	1.249504
4548	1.045870
4544	0.906610
4540	0.651264
4536	-0.093126
4532	-0.091171
4528	0.890827
4524	0.103640
4520	1.478147
4516	6.578350
4512	6.514501
4508	2.356457
4504	0.394988
4500	0.279068
4496	0.095868
4492	-0.600695
4488	-0.604534
4484	-0.352144
4480	-0.597763
4476	-0.488114
4472	0.112104
4468	0.289511
4464	0.162267
4460	-0.082278
4456	-0.414490
4452	-0.424504
4448	-0.071644
4444	0.239276
4440	0.470995
4436	0.756096
4432	0.635528
4428	0.168347
4424	-0.160479
4420	-0.255370
4416	-0.108861
4412	0.239443
4408	0.477027
4404	0.570702
4400	0.615215
4396	0.505995
4392	0.336837
4388	0.252556
4384	0.306367
4380	0.360822
4376	0.350284
4372	0.349307
4368	0.227546
4364	-0.126910
4360	-0.323367
4356	-0.205874
4352	-0.122022
4348	-0.019550
4344	0.095748
4340	0.034308
4336	-0.030493
4332	0.028371
4328	-0.005340
4324	-0.147414
4320	-0.116658
4316	0.108838
4312	0.136399
4308	-0.080800
4304	-0.238204
4300	-0.219321
4296	0.053143
4292	0.410819
4288	0.440740
4284	0.130963
4280	-0.056266
4276	0.036573
4272	0.113129
4268	-0.006747
4264	-0.141596
4260	-0.024271
4256	0.182580
4252	0.217700
4248	0.204038
4244	0.111937
4240	-0.082254
4236	-0.123906
4232	0.001978
4228	-0.086927
4224	-0.313496
4220	-0.282454
4216	-0.022268
4212	0.143241
4208	0.039577
4204	-0.116920
4200	-0.128483
4196	0.046801
4192	0.291442
4188	0.603556
4184	0.794291
4180	0.833272
4176	0.734281
4172	0.277495
4168	-0.243258
4164	-0.195741
4160	0.089526
4156	0.053405
4152	0.023388
4148	0.079751
4144	-0.044989
4140	-0.197815
4136	-0.212907
4132	-0.153827
4128	-0.104880
4124	-0.098562
4120	-0.011038
4116	0.192141
4112	0.272417
4108	0.231933
4104	0.207924
4100	0.157928
4096	0.161504
4092	0.230407
4088	0.248622
4084	0.215196
4080	0.194382
4076	0.143671
4072	0.033068
4068	-0.035381
4064	-0.058507
4060	-0.104117
4056	-0.185489
4052	-0.150465
4048	0.050520
4044	0.177788
4040	0.210428
4036	0.221657
4032	0.148224
4028	0.080275
4024	0.060606
4020	-0.018930
4016	-0.058865
4012	0.078678
4008	0.182104
4004	0.062322
4000	-0.107622
3996	-0.150585
3992	-0.094914
3988	0.010490
3984	0.116491
3980	0.167703
3976	0.101113
3972	-0.005412
3968	-0.002002
3964	0.041675
3960	0.034379
3956	0.050616
3952	0.134611
3948	0.150322
3944	0.127077
3940	0.216174
3936	0.239896
3932	0.104880
3928	0.042843
3924	0.147724
3920	0.233530
3916	0.190806
3912	0.233197
3908	0.328874
3904	0.239992
3900	0.061249
3896	-0.053262
3892	-0.038361
3888	0.057840
3884	0.139069
3880	0.177264
3876	0.115919
3872	0.028729
3868	0.016403
3864	0.044775
3860	0.071716
3856	0.067615
3852	0.057649
3848	0.083184
3844	0.101161
3840	-0.027489
3836	-0.190949
3832	-0.138783
3828	0.016403
3824	0.075960
3820	0.084066
3816	0.151705
3812	0.225639
3808	0.207090
3804	0.114703
3800	0.010728
3796	-0.006008
3792	0.032162
3788	0.016212
3784	-0.007104
3780	0.004816
3776	0.032567
3772	0.053358
3768	0.053453
3764	0.053715
3760	0.041246
3756	0.001764
3752	-0.015020
3748	-0.005030
3744	-0.042891
3740	-0.133943
3736	-0.134515
3732	-0.010633
3728	0.059413
3724	0.074911
3720	0.073313
3716	-0.021767
3712	-0.091147
3708	-0.035071
3704	0.064992
3700	0.090503
3696	0.034546
3692	-0.020456
3688	-0.038099
3684	0.019145
3680	0.123286
3676	0.177478
3672	0.150537
3668	0.101995
3664	0.093102
3660	0.151467
3656	0.158238
3652	0.016021
3648	-0.028562
3644	0.122475
3640	0.178337
3636	0.086116
3632	0.024271
3628	0.016999
3624	0.046706
3620	0.092411
3616	0.130319
3612	0.186800
3608	0.208997
3604	0.134968
3600	0.057291
3596	0.028872
3592	-0.019788
3588	-0.091457
3584	-0.136208
3580	-0.146341
3576	-0.108218
3572	-0.005102
3568	0.060462
3564	0.083398
3560	0.120496
3556	0.068688
3552	-0.079274
3548	-0.085234
3544	0.088143
3540	0.166058
3536	0.071811
3532	-0.043296
3528	-0.069808
3524	-0.063157
3520	-0.082397
3516	-0.038242
3512	0.076675
3508	0.129437
3504	0.076270
3500	0.014495
3496	0.019383
3492	0.011706
3488	-0.099372
3484	-0.173377
3480	-0.073766
3476	0.078701
3472	0.170826
3468	0.179433
3464	0.108623
3460	0.043797
3456	0.002932
3452	-0.034379
3448	-0.032472
3444	0.036692
3440	0.121355
3436	0.109815
3432	0.019025
3428	-0.037956
3424	-0.073862
3420	-0.060558
3416	0.053977
3412	0.139689
3408	0.161957
3404	0.184631
3400	0.190472
3396	0.167441
3392	0.144195
3388	0.137543
3384	0.087118
3380	-0.027632
3376	-0.124025
3372	-0.177788
3368	-0.173902
3364	-0.097703
3360	0.013494
3356	0.111603
3352	0.048279
3348	-0.079464
3344	-0.010752
3340	0.131487
3336	0.196385
3332	0.250935
3328	0.236320
3324	0.082230
3320	0.001335
3316	0.055980
3312	0.056028
3308	0.033235
3304	0.072789
3300	0.051093
3296	-0.029873
3292	-0.018119
3288	0.075078
3284	0.139474
3280	0.129771
3276	0.135159
3272	0.135970
3268	0.090765
3264	0.071716
3260	0.021696
3256	-0.010657
3252	0.018548
3248	-0.001955
3244	0.032043
3240	0.153326
3236	0.162124
3232	0.053215
3228	-0.020146
3224	-0.016880
3220	0.016880
3216	-0.011157
3212	-0.091361
3208	-0.093030
3204	-0.039148
3200	-0.028824
3196	0.032806
3192	0.178408
3188	0.202369
3184	0.110793
3180	0.088715
3176	0.107669
3172	0.086236
3168	0.051856
3164	0.039505
3160	0.065732
3156	0.100970
3152	0.104451
3148	0.118732
3144	0.144314
3140	0.167989
3136	0.246810
3132	0.286293
3128	0.190162
3124	0.030994
3120	0.014257
3116	0.114893
3112	0.038790
3108	-0.126099
3104	-0.156354
3100	-0.079679
3096	-0.037813
3092	-0.050473
3088	-0.022339
3084	-0.009822
3080	-0.040578
3076	-0.029420
3072	0.017666
3068	0.022220
3064	-0.006008
3060	0.036025
3056	0.095057
3052	0.051569
3048	0.021624
3044	0.049734
3040	0.041627
3036	0.036978
3032	0.032067
3028	0.014042
3024	0.032949
3020	0.026440
3016	-0.010800
3012	0.005578
3008	0.054860
3004	0.090122
3000	0.085973
2996	0.085854
2992	0.137114
2988	0.157880
2984	0.104808
2980	0.024485
2976	0.010204
2972	0.085091
2968	0.115394
2964	0.051760
2960	-0.032329
2956	-0.071668
2952	-0.088930
2948	-0.083613
2944	-0.015664
2940	0.024032
2936	0.015664
2932	-0.032854
2928	-0.101280
2924	-0.092768
2920	-0.032782
2916	0.053310
2912	0.163125
2908	0.199174
2904	0.108194
2900	0.021791
2896	0.025510
2892	0.037789
2888	0.013589
2884	-0.012087
2880	0.042462
2876	0.124311
2872	0.116753
2868	0.109910
2864	0.169253
2860	0.205159
2856	0.182986
2852	0.156235
2848	0.173735
2844	0.206112
2840	0.178551
2836	0.119423
2832	0.073504
2828	0.041508
2824	0.063848
2820	0.092625
2816	0.061035
2812	0.031542
2808	0.023436
2804	0.032186
2800	0.053358
2796	0.062775
2792	0.105357
2788	0.132298
2784	0.059819
2780	-0.024771
2776	-0.070881
2772	-0.099587
2768	-0.077390
2764	-0.043606
2760	-0.021743
2756	0.018858
2752	0.043773
2748	0.009226
2744	-0.050354
2740	-0.069022
2736	-0.011110
2732	0.077891
2728	0.070977
2724	0.006270
2720	0.022649
2716	0.095915
2712	0.119590
2708	0.093436
2704	0.067424
2700	0.041365
2696	0.020194
2692	-0.017452
2688	-0.062465
2684	-0.045537
2680	0.014567
2676	0.058484
2672	0.056529
2668	0.039744
2664	0.070953
2660	0.118231
2656	0.116491
2652	0.074028
2648	0.003170
2644	-0.046753
2640	-0.024175
2636	0.036168
2632	0.087952
2628	0.068187
2624	-0.027799
2620	-0.049042
2616	0.050616
2612	0.144553
2608	0.199651
2604	0.219798
2600	0.170159
2596	0.110936
2592	0.093579
2588	0.078105
2584	0.072574
2580	0.078463
2576	0.050926
2572	0.041341
2568	0.074124
2564	0.070929
2560	0.054931
2556	0.083684
2552	0.093817
2548	0.043582
2544	0.029945
2540	0.036907
2536	-0.048279
2532	-0.152373
2528	-0.166463
2524	-0.136661
2520	-0.092935
2516	-0.066757
2512	-0.100922
2508	-0.026822
2504	0.173163
2500	0.281667
2496	0.223231
2492	0.112295
2488	0.076699
2484	0.068950
2480	0.033116
2476	0.030875
2472	0.028347
2468	-0.047469
2464	-0.101017
2460	-0.050497
2456	0.006651
2452	-0.000667
2448	0.014376
2444	0.075912
2440	0.084137
2436	0.075626
2432	0.163984
2428	0.318694
2424	0.331377
2420	0.184106
2416	0.159764
2412	0.217652
2408	0.197505
2404	0.197577
2400	0.225257
2396	0.173878
2392	0.056242
2388	0.010371
2384	0.021958
2380	0.017738
2376	0.033140
2372	-0.001335
2368	-0.060558
2364	-0.030064
2360	0.035977
2356	0.022554
2352	-0.003719
2348	0.028467
2344	0.033903
2340	0.008749
2336	0.036931
2332	0.086832
2328	0.113797
2324	0.120425
2320	0.087642
2316	0.050163
2312	0.021195
2308	-0.019907
2304	0.008058
2300	0.084996
2296	0.167441
2292	0.278925
2288	0.370359
2284	0.411009
2280	0.420999
2276	0.413799
2272	0.397491
2268	0.400185
2264	0.478887
2260	0.566506
2256	0.599336
2252	0.621438
2248	0.669026
2244	0.801110
2240	0.974202
2236	1.103496
2232	1.179838
2228	1.270604
2224	1.431131
2220	1.594233
2216	1.712942
2212	1.835036
2208	2.043628
2204	2.286744
2200	2.476191
2196	2.622127
2192	2.777528
2188	2.979016
2184	3.214859
2180	3.505539
2176	3.821802
2172	4.132747
2168	4.430007
2164	4.692387
2160	4.958486
2156	5.292558
2152	5.663275
2148	6.029653
2144	6.438755
2140	6.834650
2136	7.220339
2132	7.684636
2128	8.195257
2124	8.660888
2120	9.060740
2116	9.465336
2112	9.903335
2108	10.3563
2104	10.8527
2100	11.3803
2096	11.8536
2092	12.2959
2088	12.7508
2084	13.1604
2080	13.5359
2076	13.9225
2072	14.3505
2068	14.8779
2064	15.4585
2060	15.9952
2056	16.507
2052	17.0416
2048	17.5113
2044	17.9154
2040	18.3837
2036	18.8571
2032	19.242
2028	19.6137
2024	20.0497
2020	20.4636
2016	20.7991
2012	21.1606
2008	21.568
2004	21.9578
2000	22.3182
1996	22.6438
1992	22.9526
1988	23.2842
1984	23.5795
1980	23.8538
1976	24.2097
1972	24.5657
1968	24.8569
1964	25.1183
1960	25.3574
1956	25.6362
1952	25.9236
1948	26.1345
1944	26.395
1940	26.7199
1936	26.9441
1932	27.1111
1928	27.3212
1924	27.5481
1920	27.7479
1916	27.9178
1912	28.1168
1908	28.3629
1904	28.5632
1900	28.6964
1896	28.8224
1892	28.9445
1888	29.0584
1884	29.2151
1880	29.4182
1876	29.5699
1872	29.6643
1868	29.7825
1864	29.9077
1860	30.0217
1856	30.0992
1852	30.1187
1848	30.2037
1844	30.3459
1840	30.4365
1836	30.5405
1832	30.6449
1828	30.6669
1824	30.6806
1820	30.7706
1816	30.9176
1812	31.0395
1808	31.0945
1804	31.1201
1800	31.1857
1796	31.3478
1792	31.4638
1788	31.3978
1784	31.3468
1780	31.4415
1776	31.591
1772	31.6778
1768	31.6571
1764	31.6502
1760	31.6789
1756	31.6654
1752	31.6573
1748	31.704
1744	31.7644
1740	31.843
1736	31.9748
1732	32.0324
1728	31.9119
1724	31.8209
1720	31.9144
1716	32.0149
1712	32.0345
1708	32.0605
1704	32.174
1700	32.3298
1696	32.2985
1692	32.1615
1688	32.1882
1684	32.2761
1680	32.2608
1676	32.2445
1672	32.2502
1668	32.1892
1664	32.1416
1660	32.2338
1656	32.4131
1652	32.4491
1648	32.3322
1644	32.2628
1640	32.3087
1636	32.332
1632	32.235
1628	32.1784
1624	32.2025
1620	32.2263
1616	32.208
1612	32.168
1608	32.1607
1604	32.1368
1600	32.1198
1596	32.1364
1592	32.153
1588	32.1657
1584	32.1934
1580	32.2758
1576	32.3744
1572	32.397
1568	32.3647
1564	32.3921
1560	32.4262
1556	32.315
1552	32.1995
1548	32.2106
1544	32.273
1540	32.296
1536	32.2647
1532	32.2448
1528	32.2155
1524	32.2059
1520	32.2392
1516	32.2028
1512	32.1655
1508	32.1739
1504	32.063
1500	31.9086
1496	31.8852
1492	31.9608
1488	32.0469
1484	32.0486
1480	32.0112
1476	32.0267
1472	31.9865
1468	31.9107
1464	31.8979
1460	31.8684
1456	31.7747
1452	31.667
1448	31.7101
1444	31.9129
1440	32.0705
1436	32.0616
1432	31.9695
1428	31.9364
1424	31.9122
1420	31.8156
1416	31.7312
1412	31.7072
1408	31.6922
1404	31.6492
1400	31.6222
1396	31.6919
1392	31.7533
1388	31.7139
1384	31.6207
1380	31.554
1376	31.5653
1372	31.6287
1368	31.7184
1364	31.7494
1360	31.5966
1356	31.3549
1352	31.2427
1348	31.2892
1344	31.4466
1340	31.5963
1336	31.6009
1332	31.5373
1328	31.4699
1324	31.3812
1320	31.2996
1316	31.2427
1312	31.2337
1308	31.2371
1304	31.2077
1300	31.1728
1296	31.2043
1292	31.2812
1288	31.2682
1284	31.2197
1280	31.2487
1276	31.2798
1272	31.1975
1268	31.0353
1264	30.9243
1260	30.8427
1256	30.7688
1252	30.7799
1248	30.8808
1244	30.996
1240	31.0776
1236	31.1202
1232	31.0908
1228	31.0563
1224	31.0416
1220	30.9594
1216	30.8651
1212	30.8382
1208	30.8318
1204	30.7598
1200	30.6875
1196	30.735
1192	30.8632
1188	30.9575
1184	30.9497
1180	30.8915
1176	30.8603
1172	30.8366
1168	30.7734
1164	30.6739
1160	30.5558
1156	30.4343
1152	30.3964
1148	30.4272
1144	30.4245
1140	30.4587
1136	30.5804
1132	30.6664
1128	30.6629
1124	30.6274
1120	30.5845
1116	30.5612
1112	30.4912
1108	30.3019
1104	30.1219
1100	30.0898
1096	30.1532
1092	30.2081
1088	30.2435
1084	30.3175
1080	30.3569
1076	30.2754
1072	30.1619
1068	30.0166
1064	29.8851
1060	29.877
1056	29.8987
1052	29.9649
1048	30.087
1044	30.0634
1040	30.0226
1036	30.0959
1032	30.1418
1028	30.1208
1024	30.035
1020	29.8861
1016	29.6855
1012	29.4424
1008	29.3421
1004	29.4543
1000	29.6117
996	 29.711
992	 29.7649
988	 29.781
984	 29.6744
980	 29.58
976	 29.5825
972	 29.4417
968	 29.1431
964	 28.9602
960	 28.9775
956	 29.037
952	 29.1143
948	 29.1862
944	 29.1842
940	 29.2044
936	 29.2069
932	 29.1732
928	 29.1209
924	 28.9815
920	 28.8366
916	 28.6817
912	 28.4816
908	 28.4045
904	 28.3908
900	 28.3134
896	 28.3006
892	 28.3701
888	 28.4454
884	 28.4634
880	 28.412
876	 28.3821
872	 28.2617
868	 27.9377
864	 27.6632
860	 27.5671
856	 27.5434
852	 27.5887
848	 27.6321
844	 27.6381
840	 27.675
836	 27.7274
832	 27.7829
828	 27.7554
824	 27.5476
820	 27.2787
816	 27.0813
812	 26.9542
808	 26.8822
804	 26.8776
800	 26.914
796	 27.0177
792	 27.1834
788	 27.2765
784	 27.2683
780	 27.1044
776	 26.8219
772	 26.6215
768	 26.516
764	 26.3569
760	 26.2216
756	 26.2645
752	 26.1346
748	 25.7993
744	 25.7813
740	 26.087
736	 26.3066
732	 26.3665
728	 26.4454
724	 26.2842
720	 25.8547
716	 25.5557
712	 25.3528
708	 25.2026
704	 25.0981
700	 24.9532
696	 24.8179
692	 24.7327
688	 24.8232
684	 25.1028
680	 25.1867
676	 24.9806
672	 24.8036
668	 24.5987
664	 24.3626
660	 24.3304
656	 24.2502
652	 23.8907
648	 23.6571
644	 23.695
640	 23.6643
636	 23.7879
632	 24.0613
628	 24.0597
624	 23.9387
620	 23.7273
616	 23.4217
612	 23.2939
608	 23.1043
604	 22.7987
600	 22.7867
596	 22.8812
592	 22.8056
588	 22.7855
584	 22.8968
580	 22.7505
576	 22.3897
572	 22.1705
568	 22.1046
564	 22.1117
560	 22.009
556	 21.788
552	 21.5991
548	 21.3528
544	 21.0444
540	 21.0215
536	 21.4044
532	 21.6898
528	 21.5377
524	 21.0691
520	 20.5293
516	 20.3166
512	 20.4814
508	 20.5612
504	 20.1147
500	 19.2662
496	 18.6829
492	 18.709
488	 19.3084
484	 19.917
480	 20.0954
476	 19.8024
472	 19.2681
468	 19.4187
464	 19.6926
460	 19.4463
456	 19.7608
452	 20.0856
448	 19.3403
444	 18.2185
440	 18.0148
436	 18.1898
432	 17.4081
428	 16.6037
424	 16.6754
420	 16.676
416	 17.2691
412	 20.2831
408	 23.6242
404	 22.7105
400	 18.1468
396	 14.7883
392	 14.9982
388	 21.3948
384	 28.5931
380	 21.4379
376	 6.688928
372	 -3.508019
370	 -6.658506