File: Bakgrunnsmateriale/MATLAB/FTIR/ftir_data/LPE453/Mapping_121/LPE453_t69.asc
PE IR       SPECTRUM    SPECTRUM    ASCII       PEDS        1.60
  -1
LPEBAD~1.ASC
17/05/16
20:04:17.00
17/05/16
20:04:44.00
tln
$LPE453_t0069$<tbV0>[7.8,2.6,8.0,0.0,27,1,0]
27.028
64

2002,4.07
MIRTGS : RIGHTBACK : INTERNAL 2
MIR : ON : INTERNAL 2
OPTKBR

0.200000
8
8.000000
FILLER
RATIO
SPECTRUM
UNLOCKED 256

DOUBLE
64
COMBINED
1
0
0

0.002000
RATIO

1
0
TRUE
51149
0
LEFT NOT FITTED RIGHT NOT FITTED 0
NONE
NONE
15600
12
4.427000
51148
TRUE
1 0 8 72 0 0 0 0

15798

#HDR
-1
-1
#GR
µM
%T
2.38419e-05
0.0
2.000000
0.002000
12515
8
29.3256
-8.970807
#DATA
2.000000	 0.450301
2.018000	 0.233794
2.036000	 0.242381
2.054000	 -0.010797
2.072000	 0.094017
2.090000	 0.198461
2.108000	 0.103064
2.126000	 0.498828
2.144000	 0.393019
2.162000	 -0.325357
2.180000	 0.371848
2.198000	 -0.222829
2.216000	 -0.320193
2.234000	 1.161274
2.252000	 -0.602376
2.270000	 0.360798
2.288000	 -0.044407
2.306000	 0.583202
2.324000	 0.234211
2.342000	 0.040593
2.360000	 -0.114683
2.378000	 -0.043282
2.396000	 0.307400
2.414000	 0.017855
2.432000	 -0.047052
2.450000	 0.029589
2.468000	 -0.012027
2.486000	 0.302749
2.504000	 0.056558
2.522000	 -0.011794
2.540000	 -0.014345
2.558000	 0.073466
2.576000	 0.028930
2.594000	 0.173917
2.612000	 -0.034320
2.630000	 0.154863
2.648000	 0.096921
2.666000	 0.014791
2.684000	 0.097954
2.702000	 0.116186
2.720000	 0.143328
2.738000	 -0.056500
2.756000	 0.037959
2.774000	 0.074682
2.792000	 0.110911
2.810000	 0.111651
2.828000	 0.147069
2.846000	 0.091235
2.864000	 -0.114509
2.882000	 0.224135
2.900000	 -0.048220
2.918000	 0.114651
2.936000	 0.051168
2.954000	 0.006688
2.972000	 0.002435
2.990000	 -0.046670
3.008000	 0.058673
3.026000	 0.089156
3.044000	 0.112387
3.062000	 0.113808
3.080000	 0.063214
3.098000	 -0.065389
3.116000	 -0.029255
3.134000	 -0.096843
3.152000	 0.021650
3.170000	 0.091401
3.188000	 0.046754
3.206000	 0.004574
3.224000	 0.047142
3.242000	 0.115229
3.260000	 0.018710
3.278000	 0.012415
3.296000	 0.014052
3.314000	 0.033126
3.332000	 0.067075
3.350000	 -0.135428
3.368000	 0.144313
3.386000	 0.047362
3.404000	 -0.009183
3.422000	 -0.064530
3.440000	 0.160191
3.458000	 0.033672
3.476000	 -0.030392
3.494000	 0.166935
3.512000	 0.033718
3.530000	 0.003404
3.548000	 -0.028588
3.566000	 0.078216
3.584000	 0.076909
3.602000	 0.056730
3.620000	 0.010832
3.638000	 -0.002874
3.656000	 0.093344
3.674000	 -0.097857
3.692000	 -0.008379
3.710000	 -0.062959
3.728000	 0.022614
3.746000	 0.136583
3.764000	 0.120182
3.782000	 -0.004270
3.800000	 0.098261
3.818000	 0.040015
3.836000	 -0.004683
3.854000	 0.026950
3.872000	 -0.029617
3.890000	 0.044618
3.908000	 -0.015557
3.926000	 0.066782
3.944000	 0.120815
3.962000	 0.214873
3.980000	 0.090814
3.998000	 -0.096881
4.016000	 0.113600
4.034000	 0.076010
4.052000	 -0.010294
4.070000	 0.023722
4.088000	 -0.049140
4.106000	 -0.096116
4.124000	 0.110387
4.141999	 0.313009
4.160000	 0.005000
4.178000	 -0.024229
4.196000	 -0.062602
4.214000	 -0.028229
4.232000	 -0.061870
4.250000	 0.049277
4.268000	 -0.055162
4.286000	 -0.042992
4.304000	 0.068542
4.322000	 0.068591
4.340000	 0.013007
4.358000	 0.043531
4.375999	 0.079079
4.394000	 0.160842
4.412000	 0.136049
4.430000	 0.164527
4.448000	 0.293658
4.466000	 0.534163
4.484000	 0.552774
4.502000	 0.782288
4.520000	 0.930630
4.538000	 1.290440
4.556000	 1.570261
4.574000	 1.808050
4.592000	 2.191067
4.609999	 2.843624
4.628000	 3.356239
4.646000	 3.657869
4.664000	 4.194762
4.682000	 4.939603
4.700000	 5.702616
4.718000	 6.359774
4.736000	 7.069084
4.754000	 7.861804
4.772000	 8.656553
4.790000	 9.572358
4.808000	 10.218
4.826000	 10.985
4.843999	 11.6318
4.862000	 12.6587
4.880000	 13.4509
4.898000	 14.1097
4.916000	 14.8711
4.934000	 15.6449
4.952000	 16.2257
4.970000	 16.8657
4.988000	 17.6455
5.006000	 18.3001
5.024000	 18.7958
5.042000	 19.3457
5.060000	 19.8497
5.077999	 20.3654
5.096000	 20.8079
5.114000	 21.2908
5.132000	 21.6456
5.150000	 22.0529
5.168000	 22.4243
5.186000	 22.763
5.204000	 23.1816
5.222000	 23.4697
5.240000	 23.7981
5.258000	 24.0871
5.276000	 24.3014
5.294000	 24.502
5.312000	 24.7486
5.330000	 24.9781
5.348000	 25.1175
5.366000	 25.3068
5.384000	 25.4578
5.402000	 25.6029
5.420000	 25.6803
5.438000	 25.8292
5.456000	 26.0118
5.474000	 26.0981
5.492000	 26.1559
5.510000	 26.2975
5.528000	 26.4967
5.546000	 26.6856
5.564000	 26.7113
5.582000	 26.7074
5.600000	 26.8399
5.618000	 26.8972
5.636000	 26.8956
5.654000	 26.9969
5.672000	 27.163
5.690000	 27.2204
5.708000	 27.2672
5.726000	 27.299
5.744000	 27.2729
5.762000	 27.2596
5.780000	 27.2913
5.798000	 27.4416
5.816000	 27.5319
5.834000	 27.5366
5.852000	 27.45
5.870000	 27.4004
5.888000	 27.3776
5.906000	 27.4611
5.923999	 27.5819
5.942000	 27.6082
5.960000	 27.5662
5.978000	 27.5636
5.996000	 27.5176
6.014000	 27.5696
6.032000	 27.6316
6.050000	 27.5561
6.068000	 27.5409
6.086000	 27.6152
6.104000	 27.6667
6.122000	 27.6702
6.140000	 27.6243
6.158000	 27.5734
6.176000	 27.5435
6.194000	 27.5642
6.212000	 27.5202
6.230000	 27.4854
6.248000	 27.5241
6.266000	 27.5661
6.284000	 27.5677
6.302000	 27.6024
6.320000	 27.6286
6.338000	 27.5283
6.356000	 27.4091
6.374000	 27.3902
6.392000	 27.473
6.410000	 27.4963
6.428000	 27.4596
6.446000	 27.494
6.464000	 27.5439
6.482000	 27.6028
6.500000	 27.6486
6.518000	 27.5784
6.536000	 27.4806
6.554000	 27.4608
6.572000	 27.5148
6.590000	 27.5279
6.608000	 27.4688
6.626000	 27.4846
6.644000	 27.5257
6.662000	 27.418
6.680000	 27.2351
6.698000	 27.1736
6.716000	 27.2038
6.734000	 27.1954
6.752000	 27.1983
6.770000	 27.2501
6.788000	 27.2643
6.806000	 27.2036
6.824000	 27.1628
6.842000	 27.1968
6.860000	 27.2211
6.878000	 27.1979
6.896000	 27.2143
6.914000	 27.283
6.932000	 27.2844
6.950000	 27.1945
6.968000	 27.1484
6.986000	 27.1595
7.004000	 27.1341
7.022000	 27.1165
7.040000	 27.1473
7.058000	 27.1612
7.076000	 27.1395
7.094000	 27.1203
7.112000	 27.1089
7.130000	 27.0785
7.148000	 27.0284
7.166000	 27.0144
7.184000	 27.0738
7.202000	 27.1442
7.220000	 27.1489
7.238000	 27.1144
7.256000	 27.0985
7.274000	 27.0879
7.292000	 27.0512
7.310000	 26.9933
7.328000	 26.939
7.346000	 26.9156
7.364000	 26.9232
7.382000	 26.9306
7.400000	 26.9155
7.418000	 26.8771
7.436000	 26.8374
7.454000	 26.834
7.472000	 26.8709
7.490000	 26.9045
7.508000	 26.8995
7.526000	 26.868
7.544000	 26.8453
7.562000	 26.8323
7.580000	 26.7948
7.598000	 26.7311
7.616000	 26.6881
7.634000	 26.6992
7.652000	 26.7451
7.670000	 26.7791
7.688000	 26.7738
7.706000	 26.7497
7.724000	 26.7394
7.742000	 26.7313
7.760000	 26.6936
7.778000	 26.6451
7.796000	 26.6368
7.814000	 26.6631
7.832000	 26.6628
7.850000	 26.615
7.868000	 26.5692
7.886000	 26.5714
7.904000	 26.6065
7.922000	 26.6272
7.940000	 26.6111
7.958000	 26.5762
7.976000	 26.5473
7.994000	 26.5246
8.012000	 26.4927
8.030000	 26.446
8.048000	 26.3902
8.065999	 26.3321
8.084000	 26.2852
8.102000	 26.2684
8.120000	 26.2792
8.138000	 26.2898
8.155999	 26.2858
8.173999	 26.2833
8.192000	 26.2938
8.210000	 26.304
8.228000	 26.3114
8.246000	 26.3275
8.263999	 26.3422
8.282000	 26.3385
8.300000	 26.3297
8.318000	 26.3398
8.336000	 26.365
8.353999	 26.3789
8.372000	 26.3638
8.390000	 26.3223
8.408000	 26.2654
8.426000	 26.2066
8.443999	 26.1557
8.462000	 26.1162
8.480000	 26.0908
8.498000	 26.0888
8.516000	 26.1106
8.533999	 26.1319
8.552000	 26.1239
8.570000	 26.0877
8.588000	 26.0518
8.606000	 26.0344
8.624000	 26.0194
8.641999	 25.9734
8.660000	 25.8823
8.678000	 25.773
8.696000	 25.7029
8.714000	 25.7147
8.731999	 25.795
8.750000	 25.8813
8.768000	 25.9211
8.786000	 25.9154
8.804000	 25.9021
8.821999	 25.9061
8.840000	 25.9187
8.858000	 25.9189
8.876000	 25.8965
8.894000	 25.8552
8.911999	 25.8071
8.930000	 25.7698
8.948000	 25.761
8.966000	 25.7817
8.984000	 25.8083
9.001999	 25.8088
9.020000	 25.7721
9.038000	 25.7131
9.056000	 25.6532
9.074000	 25.5999
9.092000	 25.5508
9.109999	 25.512
9.128000	 25.5004
9.146000	 25.524
9.164000	 25.5699
9.182000	 25.6134
9.199999	 25.6369
9.218000	 25.6326
9.236000	 25.5963
9.254000	 25.5286
9.272000	 25.4457
9.289999	 25.378
9.308000	 25.3503
9.326000	 25.3607
9.344000	 25.3836
9.362000	 25.3936
9.379999	 25.3818
9.398000	 25.3526
9.416000	 25.3132
9.434000	 25.2716
9.452000	 25.2416
9.469999	 25.2382
9.488000	 25.2626
9.506000	 25.2908
9.524000	 25.2865
9.542000	 25.2319
9.560000	 25.1455
9.577999	 25.0668
9.596000	 25.0224
9.614000	 25.0086
9.632000	 25.0039
9.650000	 24.9896
9.667999	 24.9601
9.686000	 24.9198
9.704000	 24.8778
9.722000	 24.847
9.740000	 24.8418
9.757999	 24.8697
9.776000	 24.9209
9.794000	 24.9698
9.812000	 24.9886
9.830000	 24.9659
9.847999	 24.9133
9.866000	 24.8543
9.884000	 24.8087
9.902000	 24.7835
9.920000	 24.7735
9.937999	 24.7681
9.956000	 24.7568
9.974000	 24.7331
9.992000	 24.6979
10.01	24.659
10.028	24.6264
10.046	24.606
10.064	24.5963
10.082	24.5917
10.1	24.5882
10.118	24.5858
10.136	24.5846
10.154	24.5802
10.172	24.5645
10.19	24.5328
10.208	24.4894
10.226	24.4456
10.244	24.4127
10.262	24.3964
10.28	24.3955
10.298	24.406
10.316	24.4237
10.334	24.4444
10.352	24.4615
10.37	24.4665
10.388	24.454
10.406	24.4247
10.424	24.3838
10.442	24.3363
10.46	24.2832
10.478	24.223
10.496	24.156
10.514	24.0864
10.532	24.024
10.55	23.9777
10.568	23.9524
10.586	23.9455
10.604	23.948
10.622	23.9473
10.64	23.9321
10.658	23.896
10.676	23.8411
10.694	23.7766
10.712	23.7165
10.73	23.6721
10.748	23.6488
10.766	23.6457
10.784	23.66
10.802	23.6892
10.82	23.7331
10.838	23.7907
10.856	23.8564
10.874	23.9189
10.892	23.9646
10.91	23.9817
10.928	23.9681
10.946	23.931
10.964	23.8838
10.982	23.84
11	23.8059
11.018	23.7795
11.036	23.7521
11.054	23.7132
11.072	23.6569
11.09	23.5831
11.108	23.4968
11.126	23.406
11.144	23.3177
11.162	23.2381
11.18	23.1735
11.198	23.1312
11.216	23.1177
11.234	23.1364
11.252	23.1838
11.27	23.2484
11.288	23.3124
11.306	23.3589
11.324	23.3757
11.342	23.3603
11.36	23.3195
11.378	23.2645
11.396	23.2059
11.414	23.1511
11.432	23.103
11.45	23.0619
11.468	23.0274
11.486	22.9989
11.504	22.9753
11.522	22.9551
11.54	22.935
11.558	22.9121
11.576	22.8846
11.594	22.8526
11.612	22.8184
11.63	22.7865
11.648	22.761
11.666	22.7445
11.684	22.7374
11.702	22.7378
11.72	22.7421
11.738	22.7469
11.756	22.7495
11.774	22.7481
11.792	22.7413
11.81	22.7286
11.828	22.7102
11.846	22.6869
11.864	22.661
11.882	22.6361
11.9	22.6165
11.918	22.606
11.936	22.6053
11.954	22.6117
11.972	22.6189
11.99	22.6192
12.008	22.6071
12.026	22.5808
12.044	22.5438
12.062	22.5032
12.08	22.4671
12.098	22.4411
12.116	22.4267
12.134	22.421
12.152	22.4181
12.17	22.4126
12.188	22.4014
12.206	22.3844
12.224	22.3631
12.242	22.3386
12.26	22.3099
12.278	22.274
12.296	22.2279
12.314	22.1705
12.332	22.1038
12.35	22.033
12.368	21.965
12.386	21.9066
12.404	21.8627
12.422	21.8354
12.44	21.8238
12.458	21.8251
12.476	21.8355
12.494	21.8508
12.512	21.8669
12.53	21.8803
12.548	21.8878
12.566	21.8873
12.584	21.8773
12.602	21.8573
12.62	21.8279
12.638	21.7901
12.656	21.7453
12.674	21.6943
12.692	21.6376
12.71	21.5756
12.728	21.5094
12.746	21.442
12.764	21.3777
12.782	21.3217
12.8	21.2791
12.818	21.2533
12.836	21.2439
12.854	21.2467
12.872	21.2549
12.89	21.2604
12.908	21.2565
12.926	21.2396
12.944	21.2101
12.962	21.1721
12.98	21.1309
12.998	21.091
13.016	21.0544
13.034	21.0203
13.052	20.9852
13.07	20.9449
13.088	20.8966
13.106	20.8406
13.124	20.7808
13.142	20.7243
13.16	20.6794
13.178	20.6537
13.196	20.6519
13.214	20.675
13.232	20.7196
13.25	20.7791
13.268	20.8455
13.286	20.9103
13.304	20.9666
13.322	21.0092
13.34	21.0357
13.358	21.0457
13.376	21.0407
13.394	21.0231
13.412	20.9955
13.43	20.9603
13.448	20.9192
13.466	20.8733
13.484	20.8232
13.502	20.7701
13.52	20.7153
13.538	20.6608
13.556	20.6091
13.574	20.5632
13.592	20.5257
13.61	20.4987
13.628	20.4832
13.646	20.4789
13.664	20.4844
13.682	20.4971
13.7	20.5137
13.718	20.531
13.736	20.5462
13.754	20.5573
13.772	20.5631
13.79	20.5628
13.808	20.5563
13.826	20.5437
13.844	20.5253
13.862	20.5017
13.88	20.4735
13.898	20.4418
13.916	20.4072
13.934	20.3702
13.952	20.3314
13.97	20.2903
13.988	20.2465
14.006	20.1992
14.024	20.1477
14.042	20.092
14.06	20.0325
14.078	19.9702
14.096	19.9066
14.114	19.8437
14.132	19.7835
14.15	19.7277
14.168	19.6779
14.186	19.6351
14.204	19.5994
14.222	19.5709
14.24	19.549
14.258	19.5331
14.276	19.5227
14.294	19.5169
14.312	19.5154
14.33	19.5175
14.348	19.5226
14.366	19.5298
14.384	19.5379
14.402	19.5455
14.42	19.5513
14.438	19.5537
14.456	19.5515
14.474	19.5436
14.492	19.5294
14.51	19.5088
14.528	19.4827
14.546	19.4523
14.564	19.4194
14.582	19.3861
14.6	19.3545
14.618	19.3263
14.636	19.3026
14.654	19.2833
14.672	19.2675
14.69	19.2538
14.708	19.2402
14.726	19.2246
14.744	19.205
14.762	19.1806
14.78	19.1513
14.798	19.1182
14.816	19.0829
14.834	19.0477
14.852	19.0152
14.87	18.9875
14.888	18.9661
14.906	18.9519
14.924	18.9449
14.942	18.9441
14.96	18.9482
14.978	18.9559
14.996	18.9657
15.014	18.9767
15.032	18.9878
15.05	18.9987
15.068	19.0088
15.086	19.0179
15.104	19.0253
15.122	19.0302
15.14	19.0318
15.158	19.0289
15.176	19.0208
15.194	19.0069
15.212	18.9872
15.23	18.9624
15.248	18.9335
15.266	18.9016
15.284	18.8686
15.302	18.8361
15.32	18.8054
15.338	18.7772
15.356	18.7519
15.374	18.729
15.392	18.7075
15.41	18.6863
15.428	18.6641
15.446	18.6392
15.464	18.6104
15.482	18.5768
15.5	18.538
15.518	18.494
15.536	18.4454
15.554	18.393
15.572	18.3378
15.59	18.2814
15.608	18.225
15.626	18.1699
15.644	18.1174
15.662	18.0687
15.68	18.0248
15.698	17.9863
15.716	17.954
15.734	17.928
15.752	17.9083
15.77	17.8947
15.788	17.8868
15.806	17.8838
15.824	17.8851
15.842	17.8897
15.86	17.8964
15.878	17.9045
15.896	17.9129
15.914	17.9208
15.932	17.9275
15.95	17.9325
15.968	17.9354
15.986	17.936
16.004	17.9342
16.022	17.9297
16.04	17.9225
16.058	17.9124
16.076	17.8991
16.094	17.8822
16.112	17.8613
16.13	17.8362
16.148	17.8067
16.166	17.7731
16.184	17.736
16.202	17.696
16.22	17.6549
16.238	17.6141
16.256	17.5753
16.274	17.5409
16.292	17.5123
16.31	17.491
16.328	17.478
16.346	17.4734
16.364	17.477
16.382	17.4877
16.4	17.5035
16.418	17.523
16.436	17.5435
16.454	17.563
16.472	17.58
16.49	17.5927
16.508	17.6007
16.526	17.6036
16.544	17.602
16.562	17.5968
16.58	17.5889
16.598	17.5799
16.616	17.5702
16.634	17.5607
16.652	17.5515
16.67	17.542
16.688	17.5319
16.706	17.5202
16.724	17.5062
16.742	17.4893
16.76	17.4691
16.778	17.4457
16.796	17.4194
16.814	17.3913
16.832	17.3622
16.85	17.3341
16.868	17.3079
16.886	17.2847
16.904	17.2658
16.922	17.2514
16.94	17.2419
16.958	17.2367
16.976	17.2352
16.994	17.2362
17.012	17.2382
17.03	17.2402
17.048	17.2402
17.066	17.2373
17.084	17.2303
17.102	17.2189
17.12	17.2027
17.138	17.1821
17.156	17.1577
17.174	17.1301
17.192	17.1012
17.21	17.0716
17.228	17.0434
17.246	17.0175
17.264	16.995
17.282	16.9771
17.3	16.9637
17.318	16.9554
17.336	16.9515
17.354	16.9516
17.372	16.954
17.39	16.9579
17.408	16.961
17.426	16.9616
17.444	16.9585
17.462	16.9492
17.48	16.9331
17.498	16.9087
17.516	16.876
17.534	16.8344
17.552	16.7849
17.57	16.728
17.588	16.6654
17.606	16.5984
17.624	16.5288
17.642	16.4587
17.66	16.389
17.678	16.3218
17.696	16.2577
17.714	16.198
17.732	16.1426
17.75	16.0919
17.768	16.0455
17.786	16.0033
17.804	15.9644
17.822	15.9287
17.84	15.8956
17.858	15.8651
17.876	15.8369
17.894	15.8116
17.912	15.7893
17.93	15.7712
17.948	15.7576
17.966	15.7499
17.984	15.7484
18.002	15.7541
18.02	15.7673
18.038	15.7882
18.056	15.8162
18.074	15.8512
18.092	15.8917
18.11	15.9373
18.128	15.9861
18.146	16.0373
18.164	16.0888
18.182	16.14
18.2	16.1892
18.218	16.2356
18.236	16.2785
18.254	16.3174
18.272	16.3521
18.29	16.3825
18.308	16.4087
18.326	16.4309
18.344	16.4491
18.362	16.4635
18.38	16.4742
18.398	16.481
18.416	16.4838
18.434	16.4824
18.452	16.4765
18.47	16.4657
18.488	16.4498
18.506	16.4285
18.524	16.4018
18.542	16.3694
18.56	16.3322
18.578	16.2902
18.596	16.2449
18.614	16.1963
18.632	16.1467
18.65	16.0962
18.668	16.0472
18.686	15.9999
18.704	15.9567
18.722	15.9177
18.74	15.8845
18.758	15.857
18.776	15.8361
18.794	15.8215
18.812	15.813
18.83	15.81
18.848	15.8118
18.866	15.8176
18.884	15.8261
18.902	15.8363
18.92	15.8467
18.938	15.8566
18.956	15.8643
18.974	15.8692
18.992	15.8699
19.01	15.8661
19.028	15.8564
19.046	15.8409
19.064	15.8186
19.082	15.7897
19.1	15.7536
19.118	15.7106
19.136	15.6606
19.154	15.6041
19.172	15.5419
19.19	15.4744
19.208	15.4034
19.226	15.3294
19.244	15.2548
19.262	15.1799
19.28	15.1077
19.298	15.0383
19.316	14.975
19.334	14.9176
19.352	14.8689
19.37	14.8286
19.388	14.7984
19.406	14.7781
19.424	14.7678
19.442	14.7675
19.46	14.7755
19.478	14.7921
19.496	14.8145
19.514	14.8425
19.532	14.873
19.55	14.905
19.568	14.9364
19.586	14.9649
19.604	14.9899
19.622	15.0084
19.64	15.0208
19.658	15.025
19.676	15.0213
19.694	15.0092
19.712	14.9887
19.73	14.961
19.748	14.926
19.766	14.8857
19.784	14.8401
19.802	14.7915
19.82	14.7409
19.838	14.6894
19.856	14.6391
19.874	14.59
19.892	14.5443
19.91	14.5018
19.928	14.4635
19.946	14.4296
19.964	14.3996
19.982	14.374
20	14.3516
20.018	14.3321
20.036	14.3146
20.054	14.2974
20.072	14.2805
20.09	14.2613
20.108	14.2403
20.126	14.215
20.144	14.1855
20.162	14.1511
20.18	14.111
20.198	14.0658
20.216	14.0154
20.234	13.9602
20.252	13.9022
20.27	13.841
20.288	13.7799
20.306	13.7187
20.324	13.6603
20.342	13.6063
20.36	13.5574
20.378	13.5167
20.396	13.4836
20.414	13.4604
20.432	13.4471
20.45	13.4435
20.468	13.4504
20.486	13.4664
20.504	13.4905
20.522	13.5227
20.54	13.5592
20.558	13.6007
20.576	13.6435
20.594	13.6865
20.612	13.7285
20.63	13.7661
20.648	13.8001
20.666	13.8278
20.684	13.8491
20.702	13.8639
20.72	13.8715
20.738	13.8727
20.756	13.8687
20.774	13.859
20.792	13.8467
20.81	13.8316
20.828	13.8156
20.846	13.801
20.864	13.7873
20.882	13.7775
20.9	13.7714
20.918	13.7697
20.936	13.7734
20.954	13.782
20.972	13.7948
20.99	13.8123
21.008	13.8324
21.026	13.8547
21.044	13.8786
21.062	13.9014
21.08	13.9239
21.098	13.9435
21.116	13.9598
21.134	13.9726
21.152	13.9804
21.17	13.9836
21.188	13.9823
21.206	13.976
21.224	13.9656
21.242	13.952
21.26	13.935
21.278	13.9165
21.296	13.8967
21.314	13.8764
21.332	13.8574
21.35	13.8391
21.368	13.823
21.386	13.8097
21.404	13.7988
21.422	13.791
21.44	13.7863
21.458	13.7839
21.476	13.7839
21.494	13.7859
21.512	13.7884
21.53	13.7919
21.548	13.795
21.566	13.7966
21.584	13.7972
21.602	13.7952
21.62	13.7906
21.638	13.7833
21.656	13.7726
21.674	13.7587
21.692	13.7422
21.71	13.7229
21.728	13.7014
21.746	13.6792
21.764	13.6556
21.782	13.6324
21.8	13.6107
21.818	13.59
21.836	13.5724
21.854	13.5581
21.872	13.5472
21.89	13.5408
21.908	13.5387
21.926	13.5407
21.944	13.5472
21.962	13.5579
21.98	13.571
21.998	13.5872
22.016	13.6052
22.034	13.6227
22.052	13.6408
22.07	13.657
22.088	13.6694
22.106	13.6789
22.124	13.6828
22.142	13.6807
22.16	13.6725
22.178	13.6566
22.196	13.633
22.214	13.6019
22.232	13.5627
22.25	13.5154
22.268	13.4614
22.286	13.4008
22.304	13.3337
22.322	13.2629
22.34	13.1883
22.358	13.1106
22.376	13.033
22.394	12.9547
22.412	12.8772
22.43	12.803
22.448	12.7312
22.466	12.6632
22.484	12.6005
22.502	12.5424
22.52	12.4895
22.538	12.4422
22.556	12.4003
22.574	12.363
22.592	12.3307
22.61	12.3029
22.628	12.278
22.646	12.2568
22.664	12.2382
22.682	12.22
22.7	12.2033
22.718	12.1866
22.736	12.1682
22.754	12.1486
22.772	12.1276
22.79	12.1045
22.808	12.0796
22.826	12.0533
22.844	12.026
22.862	11.9976
22.88	11.968
22.898	11.9373
22.916	11.9056
22.934	11.8729
22.952	11.839
22.97	11.8042
22.988	11.7692
23.006	11.734
23.024	11.6987
23.042	11.6638
23.06	11.6296
23.078	11.5958
23.096	11.562
23.114	11.5282
23.132	11.4944
23.15	11.46
23.168	11.4251
23.186	11.3896
23.204	11.353
23.222	11.3152
23.24	11.2763
23.258	11.2364
23.276	11.195
23.294	11.1528
23.312	11.1109
23.33	11.0691
23.348	11.0277
23.366	10.9882
23.384	10.9502
23.402	10.9141
23.42	10.8812
23.438	10.8518
23.456	10.8256
23.474	10.8028
23.492	10.784
23.51	10.7686
23.528	10.7557
23.546	10.7456
23.564	10.7381
23.582	10.7307
23.6	10.7229
23.618	10.7155
23.636	10.7052
23.654	10.6905
23.672	10.6729
23.69	10.6493
23.708	10.6173
23.726	10.5788
23.744	10.5315
23.762	10.4733
23.78	10.4052
23.798	10.327
23.816	10.2382
23.834	10.138
23.852	10.0284
23.87	9.911612
23.888	9.785832
23.906	9.653107
23.924	9.517887
23.942	9.378742
23.96	9.236535
23.978	9.098016
23.996	8.964902
24.014	8.834825
24.032	8.713893
24.05	8.605491
24.068	8.505968
24.086	8.421081
24.104	8.356016
24.122	8.306134
24.14	8.276856
24.158	8.275916
24.176	8.299396
24.194	8.350106
24.212	8.437016
24.23	8.560903
24.248	8.719394
24.266	8.919648
24.284	9.165720
24.302	9.453702
24.32	9.787166
24.338	10.1698
24.356	10.6
24.374	11.0776
24.392	11.6034
24.41	12.1797
24.428	12.8036
24.446	13.4696
24.464	14.1777
24.482	14.9302
24.5	15.716
24.518	16.5267
24.536	17.3723
24.554	18.2394
24.572	19.1101
24.59	19.9921
24.608	20.8817
24.626	21.7569
24.644	22.6103
24.662	23.4538
24.68	24.2661
24.698	25.0274
24.716	25.7515
24.734	26.4287
24.752	27.04
24.77	27.585
24.788	28.0688
24.806	28.4786
24.824	28.8052
24.842	29.0554
24.86	29.2266
24.878	29.3143
24.896	29.316
24.914	29.2362
24.932	29.0803
24.95	28.849
24.968	28.5376
24.986	28.1594
25.004	27.7276
25.022	27.2306
25.04	26.6776
25.058	26.0907
25.076	25.477
25.094	24.8227
25.112	24.152
25.13	23.4887
25.148	22.8168
25.166	22.1457
25.184	21.5022
25.202	20.8967
25.22	20.3122
25.238	19.7715
25.256	19.2986
25.274	18.8845
25.292	18.5293
25.31	18.2476
25.328	18.0492
25.346	17.9262
25.364	17.8793
25.382	17.91
25.4	18.024
25.418	18.2159
25.436	18.4736
25.454	18.7899
25.472	19.1786
25.49	19.622
25.508	20.097
25.526	20.6041
25.544	21.1537
25.562	21.7165
25.58	22.2651
25.598	22.82
25.616	23.3709
25.634	23.8874
25.652	24.3523
25.67	24.7893
25.688	25.1763
25.706	25.4861
25.724	25.7186
25.742	25.8843
25.76	25.9648
25.778	25.9427
25.796	25.8271
25.814	25.6175
25.832	25.3043
25.85	24.88
25.868	24.3484
25.886	23.7137
25.904	22.9791
25.922	22.1416
25.94	21.1996
25.958	20.1672
25.976	19.0583
25.994	17.8603
26.012	16.5784
26.03	15.2378
26.048	13.8595
26.066	12.4185
26.084	10.9325
26.102	9.434880
26.12	7.944245
26.138	6.430597
26.156	4.921849
26.174	3.453523
26.192	2.034227
26.21	0.638971
26.228	-0.700883
26.246	-1.952079
26.264	-3.116638
26.282	-4.208547
26.3	-5.204420
26.318	-6.081337
26.336	-6.845406
26.354	-7.502208
26.372	-8.042487
26.39	-8.457279
26.408	-8.745825
26.426	-8.914849
26.444	-8.970807
26.462	-8.917734
26.48	-8.743193
26.498	-8.460621
26.516	-8.090097
26.534	-7.644305
26.552	-7.100843
26.57	-6.479714
26.588	-5.808978
26.606	-5.103477
26.624	-4.334168
26.642	-3.528090
26.66	-2.719637
26.678	-1.927096
26.696	-1.122006
26.714	-0.324237
26.732	0.441261
26.75	1.162776
26.768	1.860847
26.786	2.520633
26.804	3.124349
26.822	3.659332
26.84	4.134446
26.858	4.556573
26.876	4.931892
26.894	5.257178
26.912	5.520062
26.93	5.746087
26.948	5.962973
26.966	6.196842
26.984	6.443084
27.002	6.670251
27.02	6.846354
27.028	6.894373