File: Bakgrunnsmateriale/MATLAB/FTIR/ftir_data/LPE453/Mapping_121/LPE453_t115.asc
PE IR       SPECTRUM    SPECTRUM    ASCII       PEDS        1.60
  -1
LP9788~1.ASC
17/05/16
23:50:18.00
17/05/16
23:50:44.00
tln
$LPE453_t0115$<tbV0>[2.6,13.0,8.0,0.0,27,1,0]
27.028
64

2002,4.07
MIRTGS : RIGHTBACK : INTERNAL 2
MIR : ON : INTERNAL 2
OPTKBR

0.200000
8
8.000000
FILLER
RATIO
SPECTRUM
UNLOCKED 256

DOUBLE
64
COMBINED
1
0
0

0.002000
RATIO

1
0
TRUE
51149
0
LEFT NOT FITTED RIGHT NOT FITTED 0
NONE
NONE
15600
12
4.427000
51148
TRUE
1 0 8 72 0 0 0 0

15798

#HDR
-1
-1
#GR
µM
%T
2.38419e-05
0.0
2.000000
0.002000
12515
8
36.28
-14.6744
#DATA
2.000000	 0.412416
2.018000	 0.073803
2.036000	 0.287752
2.054000	 0.364288
2.072000	 0.408070
2.090000	 -0.225579
2.108000	 0.290053
2.126000	 0.148670
2.144000	 0.153145
2.162000	 0.702010
2.180000	 -0.242628
2.198000	 0.056088
2.216000	 -0.490728
2.234000	 -0.255185
2.252000	 -0.525314
2.270000	 -0.268480
2.288000	 0.059939
2.306000	 0.372863
2.324000	 -0.152788
2.342000	 0.266928
2.360000	 0.179637
2.378000	 0.367435
2.396000	 0.189985
2.414000	 -0.039670
2.432000	 0.183077
2.450000	 0.116506
2.468000	 0.116273
2.486000	 0.139032
2.504000	 0.025995
2.522000	 -0.000719
2.540000	 0.044107
2.558000	 0.064469
2.576000	 0.050826
2.594000	 -0.004708
2.612000	 0.091721
2.630000	 0.073299
2.648000	 -0.149292
2.666000	 0.102896
2.684000	 0.146564
2.702000	 -0.011330
2.720000	 -0.111554
2.738000	 0.101221
2.756000	 0.012529
2.774000	 0.112050
2.792000	 0.021297
2.810000	 -0.020028
2.828000	 0.021257
2.846000	 0.064292
2.864000	 -0.042019
2.882000	 0.152820
2.900000	 0.158190
2.918000	 -0.028694
2.936000	 0.133396
2.954000	 0.004653
2.972000	 -0.026322
2.990000	 -0.072995
3.008000	 0.131447
3.026000	 0.110857
3.044000	 0.087482
3.062000	 -0.017434
3.080000	 0.112605
3.098000	 0.067382
3.116000	 0.012948
3.134000	 -0.115985
3.152000	 0.141316
3.170000	 0.111056
3.188000	 0.140247
3.206000	 0.070906
3.224000	 0.015362
3.242000	 -0.049990
3.260000	 -0.057864
3.278000	 0.087209
3.296000	 0.057906
3.314000	 0.148205
3.332000	 0.070729
3.350000	 -0.011723
3.368000	 -0.009399
3.386000	 -0.023380
3.404000	 0.046946
3.422000	 0.097194
3.440000	 0.095208
3.458000	 0.027480
3.476000	 -0.035957
3.494000	 0.042309
3.512000	 -0.001616
3.530000	 -0.001357
3.548000	 0.037374
3.566000	 0.025630
3.584000	 0.014301
3.602000	 0.043861
3.620000	 0.013583
3.638000	 -0.002148
3.656000	 -0.025384
3.674000	 0.042876
3.692000	 0.059624
3.710000	 0.026933
3.728000	 0.113465
3.746000	 0.073043
3.764000	 0.055752
3.782000	 0.100557
3.800000	 -0.008680
3.818000	 0.148881
3.836000	 0.027015
3.854000	 0.122923
3.872000	 -0.030896
3.890000	 0.007086
3.908000	 0.112572
3.926000	 -0.038161
3.944000	 0.019210
3.962000	 -0.069193
3.980000	 0.135574
3.998000	 0.203302
4.016000	 0.012476
4.034000	 0.039660
4.052000	 0.110536
4.070000	 0.116269
4.088000	 0.113688
4.106000	 0.044060
4.124000	 0.207150
4.141999	 0.181663
4.160000	 0.066158
4.178000	 0.167523
4.196000	 0.264444
4.214000	 0.148514
4.232000	 0.124386
4.250000	 0.348484
4.268000	 0.494501
4.286000	 0.564910
4.304000	 0.732357
4.322000	 0.912083
4.340000	 1.149842
4.358000	 1.240410
4.375999	 1.691840
4.394000	 1.802076
4.412000	 2.223383
4.430000	 2.707360
4.448000	 3.079211
4.466000	 3.533662
4.484000	 3.939759
4.502000	 4.593251
4.520000	 5.361531
4.538000	 6.043602
4.556000	 6.731432
4.574000	 7.510203
4.592000	 8.516993
4.609999	 9.372176
4.628000	 10.2771
4.646000	 11.1942
4.664000	 12.2856
4.682000	 13.2541
4.700000	 14.2103
4.718000	 15.1654
4.736000	 16.1583
4.754000	 17.1676
4.772000	 18.0479
4.790000	 19.0205
4.808000	 19.9131
4.826000	 20.7441
4.843999	 21.4638
4.862000	 22.3589
4.880000	 23.1136
4.898000	 23.7991
4.916000	 24.5085
4.934000	 25.1675
4.952000	 25.7872
4.970000	 26.3851
4.988000	 26.9644
5.006000	 27.4326
5.024000	 27.9498
5.042000	 28.3878
5.060000	 28.7907
5.077999	 29.157
5.096000	 29.5542
5.114000	 29.9596
5.132000	 30.3147
5.150000	 30.638
5.168000	 30.8617
5.186000	 31.1205
5.204000	 31.5255
5.222000	 31.7672
5.240000	 31.9024
5.258000	 32.0875
5.276000	 32.3156
5.294000	 32.5662
5.312000	 32.7674
5.330000	 32.9823
5.348000	 33.1777
5.366000	 33.3433
5.384000	 33.4259
5.402000	 33.5869
5.420000	 33.684
5.438000	 33.7504
5.456000	 33.9106
5.474000	 34.0613
5.492000	 34.2018
5.510000	 34.3126
5.528000	 34.4202
5.546000	 34.5057
5.564000	 34.5877
5.582000	 34.6227
5.600000	 34.6709
5.618000	 34.7492
5.636000	 34.8175
5.654000	 34.8824
5.672000	 34.9197
5.690000	 34.9459
5.708000	 34.9896
5.726000	 35.0792
5.744000	 35.109
5.762000	 35.1917
5.780000	 35.3083
5.798000	 35.3711
5.816000	 35.4272
5.834000	 35.4872
5.852000	 35.4694
5.870000	 35.4999
5.888000	 35.5954
5.906000	 35.6472
5.923999	 35.6983
5.942000	 35.7586
5.960000	 35.7494
5.978000	 35.7222
5.996000	 35.6994
6.014000	 35.7149
6.032000	 35.7373
6.050000	 35.7599
6.068000	 35.805
6.086000	 35.8395
6.104000	 35.8574
6.122000	 35.9099
6.140000	 35.9461
6.158000	 35.9436
6.176000	 35.9255
6.194000	 35.9505
6.212000	 35.974
6.230000	 35.9443
6.248000	 35.9497
6.266000	 36.0206
6.284000	 36.1081
6.302000	 36.0759
6.320000	 35.9831
6.338000	 35.9585
6.356000	 36.0046
6.374000	 36.1026
6.392000	 36.1709
6.410000	 36.16
6.428000	 36.1444
6.446000	 36.1512
6.464000	 36.1631
6.482000	 36.2303
6.500000	 36.28
6.518000	 36.2268
6.536000	 36.134
6.554000	 36.0394
6.572000	 35.9587
6.590000	 35.9539
6.608000	 35.9963
6.626000	 36.0584
6.644000	 36.1451
6.662000	 36.1657
6.680000	 36.1055
6.698000	 36.0727
6.716000	 36.1366
6.734000	 36.2404
6.752000	 36.2788
6.770000	 36.2423
6.788000	 36.1846
6.806000	 36.1595
6.824000	 36.1988
6.842000	 36.2166
6.860000	 36.1479
6.878000	 36.0938
6.896000	 36.0735
6.914000	 35.9639
6.932000	 35.8469
6.950000	 35.8779
6.968000	 35.9794
6.986000	 36.0452
7.004000	 36.0945
7.022000	 36.1456
7.040000	 36.1828
7.058000	 36.1965
7.076000	 36.1925
7.094000	 36.1724
7.112000	 36.1528
7.130000	 36.1365
7.148000	 36.1049
7.166000	 36.0827
7.184000	 36.0576
7.202000	 35.9663
7.220000	 35.8649
7.238000	 35.8666
7.256000	 35.9399
7.274000	 35.9733
7.292000	 35.9596
7.310000	 35.9691
7.328000	 36.0002
7.346000	 35.9842
7.364000	 35.9349
7.382000	 35.9409
7.400000	 35.9991
7.418000	 36.0242
7.436000	 36.0101
7.454000	 36.0145
7.472000	 36.0389
7.490000	 36.0371
7.508000	 35.9982
7.526000	 35.963
7.544000	 35.9493
7.562000	 35.9166
7.580000	 35.8391
7.598000	 35.7466
7.616000	 35.6709
7.634000	 35.6298
7.652000	 35.6333
7.670000	 35.6674
7.688000	 35.7054
7.706000	 35.7321
7.724000	 35.7465
7.742000	 35.7645
7.760000	 35.8039
7.778000	 35.8465
7.796000	 35.8586
7.814000	 35.8483
7.832000	 35.8578
7.850000	 35.8973
7.868000	 35.9327
7.886000	 35.9373
7.904000	 35.9158
7.922000	 35.8725
7.940000	 35.8022
7.958000	 35.7192
7.976000	 35.6498
7.994000	 35.5929
8.012000	 35.5322
8.030000	 35.486
8.048000	 35.4834
8.065999	 35.5113
8.084000	 35.5347
8.102000	 35.5522
8.120000	 35.5826
8.138000	 35.6227
8.155999	 35.6573
8.173999	 35.6794
8.192000	 35.6912
8.210000	 35.7064
8.228000	 35.744
8.246000	 35.8047
8.263999	 35.8602
8.282000	 35.8759
8.300000	 35.8418
8.318000	 35.7739
8.336000	 35.6962
8.353999	 35.6272
8.372000	 35.5791
8.390000	 35.5613
8.408000	 35.5808
8.426000	 35.6248
8.443999	 35.6484
8.462000	 35.6077
8.480000	 35.5058
8.498000	 35.3784
8.516000	 35.2618
8.533999	 35.1904
8.552000	 35.1888
8.570000	 35.2496
8.588000	 35.3273
8.606000	 35.3663
8.624000	 35.3487
8.641999	 35.3099
8.660000	 35.3053
8.678000	 35.3598
8.696000	 35.4511
8.714000	 35.5367
8.731999	 35.5905
8.750000	 35.6123
8.768000	 35.6143
8.786000	 35.6074
8.804000	 35.6009
8.821999	 35.6016
8.840000	 35.6069
8.858000	 35.6042
8.876000	 35.5844
8.894000	 35.5442
8.911999	 35.4818
8.930000	 35.4015
8.948000	 35.318
8.966000	 35.2501
8.984000	 35.2078
9.001999	 35.1896
9.020000	 35.1878
9.038000	 35.1905
9.056000	 35.1817
9.074000	 35.149
9.092000	 35.0953
9.109999	 35.0389
9.128000	 34.9993
9.146000	 34.986
9.164000	 34.9995
9.182000	 35.0369
9.199999	 35.0904
9.218000	 35.1434
9.236000	 35.1748
9.254000	 35.1741
9.272000	 35.1524
9.289999	 35.1365
9.308000	 35.1498
9.326000	 35.1948
9.344000	 35.255
9.362000	 35.3069
9.379999	 35.3344
9.398000	 35.3323
9.416000	 35.3023
9.434000	 35.2511
9.452000	 35.1893
9.469999	 35.1313
9.488000	 35.0901
9.506000	 35.0715
9.524000	 35.0703
9.542000	 35.0722
9.560000	 35.0618
9.577999	 35.0293
9.596000	 34.9762
9.614000	 34.915
9.632000	 34.863
9.650000	 34.8336
9.667999	 34.8286
9.686000	 34.8393
9.704000	 34.8532
9.722000	 34.8599
9.740000	 34.8546
9.757999	 34.84
9.776000	 34.8244
9.794000	 34.8202
9.812000	 34.8376
9.830000	 34.8792
9.847999	 34.9376
9.866000	 34.9977
9.884000	 35.0426
9.902000	 35.0625
9.920000	 35.0594
9.937999	 35.0453
9.956000	 35.0358
9.974000	 35.0395
9.992000	 35.0539
10.01	35.0675
10.028	35.0676
10.046	35.0483
10.064	35.0138
10.082	34.9745
10.1	34.9408
10.118	34.9177
10.136	34.9022
10.154	34.8858
10.172	34.859
10.19	34.8151
10.208	34.7537
10.226	34.6804
10.244	34.6049
10.262	34.5361
10.28	34.4788
10.298	34.4317
10.316	34.3898
10.334	34.3489
10.352	34.309
10.37	34.2739
10.388	34.2469
10.406	34.2288
10.424	34.2166
10.442	34.2082
10.46	34.2045
10.478	34.2104
10.496	34.2315
10.514	34.27
10.532	34.3221
10.55	34.3811
10.568	34.4401
10.586	34.4952
10.604	34.5447
10.622	34.5879
10.64	34.6241
10.658	34.6525
10.676	34.6726
10.694	34.6844
10.712	34.6884
10.73	34.6861
10.748	34.6786
10.766	34.6676
10.784	34.6541
10.802	34.6378
10.82	34.6174
10.838	34.5906
10.856	34.5561
10.874	34.5143
10.892	34.4665
10.91	34.4153
10.928	34.3618
10.946	34.3068
10.964	34.2518
10.982	34.1991
11	34.1506
11.018	34.1071
11.036	34.0657
11.054	34.021
11.072	33.9682
11.09	33.9073
11.108	33.8447
11.126	33.7917
11.144	33.7583
11.162	33.7484
11.18	33.7573
11.198	33.7729
11.216	33.7823
11.234	33.7778
11.252	33.7596
11.27	33.7357
11.288	33.7186
11.306	33.7183
11.324	33.74
11.342	33.782
11.36	33.8379
11.378	33.8983
11.396	33.9551
11.414	34.0025
11.432	34.039
11.45	34.0661
11.468	34.0878
11.486	34.1075
11.504	34.1273
11.522	34.1464
11.54	34.1606
11.558	34.1637
11.576	34.1492
11.594	34.1123
11.612	34.0521
11.63	33.973
11.648	33.8838
11.666	33.7969
11.684	33.7247
11.702	33.6765
11.72	33.656
11.738	33.6608
11.756	33.683
11.774	33.7115
11.792	33.736
11.81	33.7493
11.828	33.748
11.846	33.7327
11.864	33.706
11.882	33.6709
11.9	33.6301
11.918	33.5853
11.936	33.538
11.954	33.4891
11.972	33.44
11.99	33.3924
12.008	33.3478
12.026	33.3074
12.044	33.2724
12.062	33.2425
12.08	33.2164
12.098	33.1924
12.116	33.168
12.134	33.1409
12.152	33.1101
12.17	33.0766
12.188	33.0437
12.206	33.0164
12.224	33.0001
12.242	32.9987
12.26	33.0134
12.278	33.0421
12.296	33.0795
12.314	33.119
12.332	33.1549
12.35	33.1831
12.368	33.2027
12.386	33.2155
12.404	33.2257
12.422	33.2383
12.44	33.2573
12.458	33.2848
12.476	33.32
12.494	33.3596
12.512	33.3987
12.53	33.4318
12.548	33.454
12.566	33.4621
12.584	33.4548
12.602	33.4335
12.62	33.4011
12.638	33.3619
12.656	33.3208
12.674	33.2829
12.692	33.2516
12.71	33.2295
12.728	33.2167
12.746	33.2112
12.764	33.2085
12.782	33.2031
12.8	33.1889
12.818	33.1611
12.836	33.1179
12.854	33.0613
12.872	32.9959
12.89	32.9287
12.908	32.8672
12.926	32.8163
12.944	32.7779
12.962	32.7498
12.98	32.7266
12.998	32.7011
13.016	32.6671
13.034	32.6214
13.052	32.5641
13.07	32.4993
13.088	32.4335
13.106	32.3734
13.124	32.3249
13.142	32.2911
13.16	32.2722
13.178	32.2663
13.196	32.2701
13.214	32.28
13.232	32.2929
13.25	32.3066
13.268	32.3195
13.286	32.3305
13.304	32.3379
13.322	32.3401
13.34	32.3353
13.358	32.3225
13.376	32.3014
13.394	32.2738
13.412	32.2429
13.43	32.2129
13.448	32.188
13.466	32.1723
13.484	32.1681
13.502	32.1765
13.52	32.1967
13.538	32.2266
13.556	32.2638
13.574	32.3054
13.592	32.3488
13.61	32.3917
13.628	32.4319
13.646	32.4671
13.664	32.4956
13.682	32.5156
13.7	32.5269
13.718	32.5298
13.736	32.5266
13.754	32.5208
13.772	32.5167
13.79	32.5189
13.808	32.5309
13.826	32.5543
13.844	32.5885
13.862	32.6305
13.88	32.6759
13.898	32.7189
13.916	32.7543
13.934	32.7776
13.952	32.7863
13.97	32.7794
13.988	32.758
14.006	32.7245
14.024	32.6821
14.042	32.6343
14.06	32.5841
14.078	32.534
14.096	32.486
14.114	32.4418
14.132	32.4022
14.15	32.368
14.168	32.3397
14.186	32.3169
14.204	32.2988
14.222	32.2838
14.24	32.2696
14.258	32.2538
14.276	32.234
14.294	32.2086
14.312	32.1768
14.33	32.1392
14.348	32.0973
14.366	32.0541
14.384	32.0127
14.402	31.9758
14.42	31.9448
14.438	31.9202
14.456	31.9007
14.474	31.8843
14.492	31.8676
14.51	31.8472
14.528	31.8204
14.546	31.7856
14.564	31.7425
14.582	31.692
14.6	31.6362
14.618	31.5778
14.636	31.5202
14.654	31.4661
14.672	31.4179
14.69	31.3771
14.708	31.3446
14.726	31.3204
14.744	31.3043
14.762	31.2957
14.78	31.2943
14.798	31.2997
14.816	31.3115
14.834	31.3296
14.852	31.3535
14.87	31.3833
14.888	31.4183
14.906	31.4581
14.924	31.5023
14.942	31.5501
14.96	31.6008
14.978	31.6538
14.996	31.7083
15.014	31.7635
15.032	31.8183
15.05	31.8716
15.068	31.9222
15.086	31.969
15.104	32.0105
15.122	32.0449
15.14	32.0707
15.158	32.0864
15.176	32.0905
15.194	32.082
15.212	32.0604
15.23	32.0264
15.248	31.981
15.266	31.9262
15.284	31.8652
15.302	31.8015
15.32	31.7383
15.338	31.6788
15.356	31.6258
15.374	31.5814
15.392	31.5463
15.41	31.5207
15.428	31.5038
15.446	31.494
15.464	31.4894
15.482	31.4884
15.5	31.4892
15.518	31.4903
15.536	31.491
15.554	31.4906
15.572	31.4889
15.59	31.4852
15.608	31.4787
15.626	31.4685
15.644	31.4531
15.662	31.4303
15.68	31.3987
15.698	31.357
15.716	31.304
15.734	31.2401
15.752	31.1663
15.77	31.0843
15.788	30.9974
15.806	30.9092
15.824	30.8228
15.842	30.7418
15.86	30.6696
15.878	30.6076
15.896	30.557
15.914	30.518
15.932	30.4893
15.95	30.4697
15.968	30.4571
15.986	30.4488
16.004	30.4431
16.022	30.438
16.04	30.4318
16.058	30.4239
16.076	30.4136
16.094	30.4006
16.112	30.385
16.13	30.3672
16.148	30.3474
16.166	30.3265
16.184	30.3048
16.202	30.283
16.22	30.2619
16.238	30.2424
16.256	30.2251
16.274	30.2111
16.292	30.2009
16.31	30.1951
16.328	30.1939
16.346	30.1969
16.364	30.2038
16.382	30.2136
16.4	30.2252
16.418	30.2376
16.436	30.2494
16.454	30.26
16.472	30.2688
16.49	30.2754
16.508	30.2802
16.526	30.2837
16.544	30.2869
16.562	30.2911
16.58	30.297
16.598	30.3058
16.616	30.3177
16.634	30.333
16.652	30.351
16.67	30.3711
16.688	30.3926
16.706	30.4135
16.724	30.433
16.742	30.4497
16.76	30.4627
16.778	30.4716
16.796	30.4764
16.814	30.4778
16.832	30.4764
16.85	30.4737
16.868	30.4709
16.886	30.469
16.904	30.4693
16.922	30.4723
16.94	30.4786
16.958	30.488
16.976	30.5003
16.994	30.5145
17.012	30.5293
17.03	30.5438
17.048	30.5562
17.066	30.5659
17.084	30.5716
17.102	30.5727
17.12	30.5688
17.138	30.5597
17.156	30.5459
17.174	30.5279
17.192	30.5067
17.21	30.4828
17.228	30.4575
17.246	30.4317
17.264	30.4062
17.282	30.3822
17.3	30.3602
17.318	30.3411
17.336	30.3252
17.354	30.3128
17.372	30.3045
17.39	30.3003
17.408	30.3006
17.426	30.3051
17.444	30.314
17.462	30.3262
17.48	30.3416
17.498	30.3589
17.516	30.3769
17.534	30.3946
17.552	30.4095
17.57	30.4208
17.588	30.4258
17.606	30.4236
17.624	30.4123
17.642	30.3908
17.66	30.3585
17.678	30.315
17.696	30.2606
17.714	30.1959
17.732	30.1222
17.75	30.0406
17.768	29.9535
17.786	29.8618
17.804	29.7687
17.822	29.6748
17.84	29.5829
17.858	29.4938
17.876	29.4089
17.894	29.329
17.912	29.2546
17.93	29.1859
17.948	29.123
17.966	29.0656
17.984	29.0133
18.002	28.9656
18.02	28.922
18.038	28.882
18.056	28.8449
18.074	28.8107
18.092	28.7785
18.11	28.7484
18.128	28.7199
18.146	28.6929
18.164	28.6671
18.182	28.6422
18.2	28.618
18.218	28.5944
18.236	28.5709
18.254	28.5476
18.272	28.5243
18.29	28.5007
18.308	28.4771
18.326	28.4534
18.344	28.4298
18.362	28.4068
18.38	28.3846
18.398	28.3637
18.416	28.3445
18.434	28.3275
18.452	28.3131
18.47	28.3018
18.488	28.2936
18.506	28.2886
18.524	28.2865
18.542	28.2873
18.56	28.2901
18.578	28.2949
18.596	28.3007
18.614	28.3074
18.632	28.3136
18.65	28.3195
18.668	28.3241
18.686	28.3275
18.704	28.3293
18.722	28.3299
18.74	28.3295
18.758	28.3283
18.776	28.3271
18.794	28.3261
18.812	28.3263
18.83	28.3282
18.848	28.3328
18.866	28.3401
18.884	28.3511
18.902	28.3655
18.92	28.3835
18.938	28.4047
18.956	28.4288
18.974	28.4553
18.992	28.4834
19.01	28.5125
19.028	28.5415
19.046	28.5697
19.064	28.5959
19.082	28.6195
19.1	28.6394
19.118	28.6552
19.136	28.666
19.154	28.6717
19.172	28.6716
19.19	28.6661
19.208	28.6551
19.226	28.6388
19.244	28.6176
19.262	28.5919
19.28	28.563
19.298	28.5309
19.316	28.4978
19.334	28.4637
19.352	28.4312
19.37	28.4001
19.388	28.3733
19.406	28.3504
19.424	28.3337
19.442	28.3231
19.46	28.32
19.478	28.3247
19.496	28.3371
19.514	28.3576
19.532	28.3851
19.55	28.4195
19.568	28.4592
19.586	28.5033
19.604	28.5506
19.622	28.5988
19.64	28.6478
19.658	28.6946
19.676	28.7396
19.694	28.78
19.712	28.8161
19.73	28.8467
19.748	28.8716
19.766	28.8911
19.784	28.9051
19.802	28.9146
19.82	28.9201
19.838	28.9226
19.856	28.9235
19.874	28.923
19.892	28.923
19.91	28.9232
19.928	28.9249
19.946	28.9282
19.964	28.9326
19.982	28.9387
20	28.9452
20.018	28.9516
20.036	28.9572
20.054	28.9602
20.072	28.9607
20.09	28.9561
20.108	28.9468
20.126	28.9309
20.144	28.9084
20.162	28.8787
20.18	28.8412
20.198	28.7965
20.216	28.7446
20.234	28.6859
20.252	28.6214
20.27	28.551
20.288	28.4766
20.306	28.3982
20.324	28.3172
20.342	28.2345
20.36	28.1502
20.378	28.0657
20.396	27.9809
20.414	27.8965
20.432	27.8126
20.45	27.7293
20.468	27.647
20.486	27.5654
20.504	27.4848
20.522	27.4051
20.54	27.3264
20.558	27.2486
20.576	27.1723
20.594	27.0974
20.612	27.0243
20.63	26.9537
20.648	26.8852
20.666	26.8204
20.684	26.759
20.702	26.702
20.72	26.6497
20.738	26.6024
20.756	26.5611
20.774	26.5257
20.792	26.4962
20.81	26.4729
20.828	26.4555
20.846	26.444
20.864	26.4383
20.882	26.4375
20.9	26.4418
20.918	26.4504
20.936	26.4628
20.954	26.4788
20.972	26.497
20.99	26.5179
21.008	26.5402
21.026	26.5635
21.044	26.5878
21.062	26.6118
21.08	26.6359
21.098	26.6591
21.116	26.6813
21.134	26.7023
21.152	26.7213
21.17	26.7387
21.188	26.7537
21.206	26.7664
21.224	26.7766
21.242	26.784
21.26	26.7888
21.278	26.7909
21.296	26.7903
21.314	26.7872
21.332	26.782
21.35	26.7745
21.368	26.7659
21.386	26.7561
21.404	26.7456
21.422	26.7357
21.44	26.7259
21.458	26.7179
21.476	26.7122
21.494	26.7088
21.512	26.7093
21.53	26.7133
21.548	26.7215
21.566	26.7348
21.584	26.7526
21.602	26.7749
21.62	26.8021
21.638	26.8333
21.656	26.8678
21.674	26.9059
21.692	26.9454
21.71	26.986
21.728	27.0272
21.746	27.0664
21.764	27.1044
21.782	27.1392
21.8	27.169
21.818	27.1946
21.836	27.2136
21.854	27.2257
21.872	27.2309
21.89	27.2279
21.908	27.2168
21.926	27.1979
21.944	27.171
21.962	27.1362
21.98	27.0951
21.998	27.0473
22.016	26.9938
22.034	26.9369
22.052	26.8756
22.07	26.8124
22.088	26.7492
22.106	26.685
22.124	26.6231
22.142	26.5641
22.16	26.5081
22.178	26.4579
22.196	26.4131
22.214	26.3745
22.232	26.3437
22.25	26.3203
22.268	26.3046
22.286	26.2973
22.304	26.298
22.322	26.3061
22.34	26.322
22.358	26.3452
22.376	26.3737
22.394	26.4085
22.412	26.4479
22.43	26.4898
22.448	26.5353
22.466	26.5822
22.484	26.6287
22.502	26.6758
22.52	26.7211
22.538	26.7637
22.556	26.8041
22.574	26.8404
22.592	26.8724
22.61	26.9002
22.628	26.923
22.646	26.9407
22.664	26.9534
22.682	26.9614
22.7	26.9645
22.718	26.9632
22.736	26.9579
22.754	26.9484
22.772	26.9356
22.79	26.9205
22.808	26.9026
22.826	26.8825
22.844	26.861
22.862	26.8376
22.88	26.8124
22.898	26.7857
22.916	26.7574
22.934	26.7262
22.952	26.692
22.97	26.6548
22.988	26.613
23.006	26.5666
23.024	26.5156
23.042	26.4578
23.06	26.3932
23.078	26.3219
23.096	26.2419
23.114	26.1531
23.132	26.0557
23.15	25.949
23.168	25.8326
23.186	25.7071
23.204	25.5738
23.222	25.4316
23.24	25.2818
23.258	25.1274
23.276	24.9671
23.294	24.8026
23.312	24.6382
23.33	24.4728
23.348	24.3077
23.366	24.148
23.384	23.9931
23.402	23.8434
23.42	23.7036
23.438	23.5738
23.456	23.4537
23.474	23.3463
23.492	23.2523
23.51	23.1709
23.528	23.103
23.546	23.0494
23.564	23.0094
23.582	22.9813
23.6	22.9652
23.618	22.9614
23.636	22.9661
23.654	22.978
23.672	22.9987
23.69	23.0236
23.708	23.0497
23.726	23.0796
23.744	23.1091
23.762	23.1345
23.78	23.1582
23.798	23.1776
23.816	23.1892
23.834	23.1945
23.852	23.1926
23.87	23.1816
23.888	23.1613
23.906	23.1326
23.924	23.0961
23.942	23.0509
23.96	22.9978
23.978	22.94
23.996	22.8779
24.014	22.8106
24.032	22.7417
24.05	22.6734
24.068	22.6036
24.086	22.5355
24.104	22.4723
24.122	22.4117
24.14	22.3561
24.158	22.309
24.176	22.2692
24.194	22.2372
24.212	22.2161
24.23	22.2066
24.248	22.2078
24.266	22.22
24.284	22.244
24.302	22.2794
24.32	22.3256
24.338	22.3819
24.356	22.4485
24.374	22.5251
24.392	22.6114
24.41	22.7073
24.428	22.8128
24.446	22.9272
24.464	23.0505
24.482	23.183
24.5	23.3232
24.518	23.4702
24.536	23.625
24.554	23.7863
24.572	23.9522
24.59	24.1231
24.608	24.2989
24.626	24.4784
24.644	24.6611
24.662	24.848
24.68	25.0368
24.698	25.2255
24.716	25.4163
24.734	25.6069
24.752	25.7934
24.77	25.9762
24.788	26.1561
24.806	26.3284
24.824	26.4901
24.842	26.6446
24.86	26.7883
24.878	26.9167
24.896	27.0313
24.914	27.1319
24.932	27.2152
24.95	27.2792
24.968	27.3258
24.986	27.354
25.004	27.3624
25.022	27.3509
25.04	27.3204
25.058	27.2722
25.076	27.2061
25.094	27.121
25.112	27.0211
25.13	26.9102
25.148	26.7852
25.166	26.6484
25.184	26.5051
25.202	26.3574
25.22	26.2019
25.238	26.0434
25.256	25.8872
25.274	25.7307
25.292	25.5747
25.31	25.4236
25.328	25.2801
25.346	25.1413
25.364	25.0095
25.382	24.8877
25.4	24.7761
25.418	24.6736
25.436	24.5802
25.454	24.4961
25.472	24.4225
25.49	24.3569
25.508	24.2965
25.526	24.2423
25.544	24.1955
25.562	24.1496
25.58	24.0988
25.598	24.0486
25.616	23.9954
25.634	23.9308
25.652	23.8502
25.67	23.7607
25.688	23.6548
25.706	23.5236
25.724	23.3674
25.742	23.1897
25.76	22.9829
25.778	22.7398
25.796	22.4633
25.814	22.1542
25.832	21.8102
25.85	21.4293
25.868	21.0123
25.886	20.5609
25.904	20.0771
25.922	19.5596
25.94	19.0075
25.958	18.427
25.976	17.824
25.994	17.1952
26.012	16.5413
26.03	15.869
26.048	15.1844
26.066	14.4831
26.084	13.7669
26.102	13.0402
26.12	12.3064
26.138	11.5623
26.156	10.8093
26.174	10.0496
26.192	9.284744
26.21	8.513972
26.228	7.735581
26.246	6.947922
26.264	6.151024
26.282	5.345641
26.3	4.530827
26.318	3.705636
26.336	2.869409
26.354	2.023081
26.372	1.168008
26.39	0.305201
26.408	-0.569241
26.426	-1.451894
26.444	-2.336349
26.462	-3.218207
26.48	-4.107684
26.498	-4.995622
26.516	-5.867575
26.534	-6.713891
26.552	-7.549085
26.57	-8.362575
26.588	-9.138719
26.606	-9.867935
26.624	-10.5636
26.642	-11.2175
26.66	-11.8181
26.678	-12.3588
26.696	-12.8477
26.714	-13.2821
26.732	-13.6575
26.75	-13.9703
26.768	-14.222
26.786	-14.4168
26.804	-14.5586
26.822	-14.6467
26.84	-14.6744
26.858	-14.6548
26.876	-14.6016
26.894	-14.5179
26.912	-14.3883
26.93	-14.233
26.948	-14.0748
26.966	-13.9212
26.984	-13.7482
27.002	-13.5815
27.02	-13.4509
27.028	-13.4161