File: Bakgrunnsmateriale/MATLAB/FTIR/ftir_data/LPE453/Mapping_121/LPE453_t01_cm-1.asc
PE IR       SPECTRUM    SPECTRUM    ASCII       PEDS        1.60
  -1
LPE453~3.ASC
17/05/16
14:28:01.00
17/05/16
14:28:01.00
tln
$LPE453_t0001$<tbV0>[13.0,-13.0,8.0,0.0,27,1,0]
370
64

2002,4.07
MIRTGS : RIGHTBACK : INTERNAL 2
MIR : ON : INTERNAL 2
OPTKBR

0.200000
8
8.000000
FILLER
RATIO
SPECTRUM
UNLOCKED 256

DOUBLE
64
COMBINED
1
0
0

1.000000
RATIO

1
0
TRUE
51149
0
LEFT NOT FITTED RIGHT NOT FITTED 0
NONE
NONE
15600
12
4.427000
51148
TRUE
1 0 8 72 0 0 0 0

15798

#HDR
-1
-1
#GR
CM-1
%T
2.38419e-05
0.0
5000
-1.000000
4631
8
33.3787
-6.256198
#DATA
5000	0.128602
4996	0.031805
4992	0.005078
4988	0.076818
4984	0.233817
4980	0.118994
4976	0.026726
4972	0.345349
4968	0.625658
4964	0.424170
4960	-0.051283
4956	-0.019955
4952	0.297188
4948	0.125980
4944	-0.170373
4940	-0.066566
4936	0.148200
4932	0.102233
4928	-0.029420
4924	0.027465
4920	0.144767
4916	0.254058
4912	0.351572
4908	0.421428
4904	0.603270
4900	0.734782
4896	0.574827
4892	0.214719
4888	0.014400
4884	0.190401
4880	0.092267
4876	-0.332832
4872	-0.130891
4868	0.189256
4864	0.017237
4860	0.069117
4856	0.329947
4852	-0.008153
4848	-0.596404
4844	-0.452232
4840	-0.252652
4836	-0.452184
4832	-0.220680
4828	0.211930
4824	0.575947
4820	1.064109
4816	1.045536
4812	0.871753
4808	1.362323
4804	0.970673
4800	-0.788688
4796	-1.524829
4792	-0.659894
4788	0.313234
4784	0.583338
4780	0.288271
4776	0.336813
4772	0.627326
4768	-0.427722
4764	-1.752233
4760	-0.844860
4756	1.074194
4752	1.778912
4748	1.329803
4744	0.700449
4740	0.563311
4736	1.120948
4732	1.596021
4728	1.639556
4724	1.495027
4720	0.844120
4716	0.031304
4712	0.086712
4708	0.443267
4704	0.127911
4700	-0.434064
4696	-0.550580
4692	-0.078487
4688	0.436592
4684	0.471472
4680	0.360298
4676	0.309348
4672	0.159192
4668	0.048780
4664	0.079035
4660	0.140333
4656	0.079131
4652	0.002336
4648	0.007128
4644	0.217223
4640	0.573110
4636	0.710701
4632	0.620532
4628	0.438785
4624	0.216126
4620	0.206375
4616	0.318408
4612	0.301003
4608	0.284409
4604	0.165104
4600	0.011873
4596	0.048089
4592	0.092339
4588	0.055575
4584	-0.046038
4580	-0.190448
4576	-0.195169
4572	-0.032639
4568	-0.057888
4564	-0.207233
4560	-0.201082
4556	-0.234556
4552	-0.514817
4548	-0.406551
4544	0.081419
4540	0.338459
4536	0.389909
4532	0.318264
4528	0.220036
4524	0.060534
4520	-0.005578
4516	0.015306
4512	0.030851
4508	-0.312805
4504	-0.909924
4500	-1.228475
4496	-1.171398
4492	0.190401
4488	4.157114
4484	10.409
4480	13.3492
4476	4.185461
4472	-6.256198
4468	0.901722
4464	9.503054
4460	3.845715
4456	-2.301311
4452	-2.969050
4448	-1.689887
4444	-0.066924
4440	0.615620
4436	0.137758
4432	-0.354480
4428	-0.183200
4424	0.216555
4420	0.347995
4416	0.511837
4412	0.457596
4408	0.039768
4404	-0.166130
4400	-0.028014
4396	0.216126
4392	0.373601
4388	0.324416
4384	0.175070
4380	0.181722
4376	0.295805
4372	0.287580
4368	0.274062
4364	0.339245
4360	0.306248
4356	0.133061
4352	0.023627
4348	0.089788
4344	0.185704
4340	0.230884
4336	0.208520
4332	0.175833
4328	0.160479
4324	0.024795
4320	-0.146436
4316	-0.161790
4312	0.009870
4308	0.252246
4304	0.208353
4300	-0.003504
4296	0.006842
4292	0.071954
4288	-0.040245
4284	-0.107550
4280	-0.050306
4276	0.052380
4272	0.175833
4268	0.094294
4264	-0.010180
4260	0.255060
4256	0.479793
4252	0.292444
4248	0.137734
4244	0.379252
4240	0.514078
4236	0.158405
4232	-0.135684
4228	-0.059199
4224	0.078368
4220	0.145173
4216	0.291633
4212	0.409197
4208	0.286078
4204	0.119519
4200	0.044274
4196	-0.142693
4192	-0.517106
4188	-0.509667
4184	0.139307
4180	0.623106
4176	0.409579
4172	0.156044
4168	0.329947
4164	0.434470
4160	0.413966
4156	0.479912
4152	0.449037
4148	0.357079
4144	0.378012
4140	0.415515
4136	0.252246
4132	-0.002360
4128	-0.061798
4124	0.003695
4120	0.001049
4116	-0.036001
4112	0.021076
4108	0.154519
4104	0.226140
4100	0.259828
4096	0.324416
4092	0.394678
4088	0.395917
4084	0.279045
4080	0.211381
4076	0.191378
4072	0.088214
4068	-0.019788
4064	-0.033664
4060	0.074243
4056	0.123453
4052	0.088405
4048	0.116920
4044	0.095629
4040	-0.037956
4036	-0.103044
4032	-0.046610
4028	-0.007796
4024	-0.064110
4020	-0.151586
4016	-0.081634
4012	0.135731
4008	0.217247
4004	0.037860
4000	-0.149250
3996	-0.095415
3992	0.081038
3988	0.182676
3984	0.113773
3980	-0.102829
3976	-0.203728
3972	-0.085520
3968	0.091123
3964	0.215840
3960	0.149965
3956	-0.030183
3952	-0.069880
3948	0.031542
3944	0.117039
3940	0.185036
3936	0.187087
3932	0.035786
3928	-0.049281
3924	0.023531
3920	0.061273
3916	-0.042223
3912	-0.121784
3908	-0.078153
3904	0.006365
3900	0.117039
3896	0.131535
3892	0.101375
3888	0.131368
3884	0.115966
3880	0.079274
3876	0.047636
3872	0.041103
3868	0.083160
3864	0.101757
3860	0.046372
3856	0.035667
3852	0.049662
3848	0.001454
3844	0.004982
3840	0.028061
3836	0.044703
3832	0.045776
3828	-0.033140
3824	-0.178623
3820	-0.243735
3816	-0.091338
3812	0.108242
3808	0.191211
3804	0.189566
3800	0.144171
3796	0.076007
3792	0.069713
3788	0.110483
3784	0.068712
3780	0.046348
3776	0.065112
3772	0.059342
3768	0.089550
3764	0.130081
3760	0.126123
3756	0.146889
3752	0.216412
3748	0.197315
3744	0.026822
3740	-0.164699
3736	-0.166821
3732	-0.045800
3728	-0.007534
3724	-0.036549
3720	-0.027585
3716	0.053048
3712	0.073623
3708	-0.032854
3704	-0.100588
3700	-0.046324
3696	0.072598
3692	0.187611
3688	0.234913
3684	0.211715
3680	0.151824
3676	0.100159
3672	0.058054
3668	0.016903
3664	-0.007271
3660	-0.009894
3656	-0.058579
3652	-0.179862
3648	-0.166559
3644	-0.022053
3640	0.054669
3636	0.141143
3632	0.225424
3628	0.211238
3624	0.160503
3620	0.012254
3616	-0.185203
3612	-0.226116
3608	-0.108671
3604	-0.003194
3600	0.056719
3596	0.051212
3592	-0.066232
3588	-0.080752
3584	0.083661
3580	0.184416
3576	0.153374
3572	0.055742
3568	-0.045180
3564	-0.050520
3560	0.037908
3556	0.137329
3552	0.136256
3548	0.016117
3544	-0.019931
3540	0.092267
3536	0.178790
3532	0.201129
3528	0.207042
3524	0.233221
3520	0.264668
3516	0.197005
3512	0.063467
3508	-0.066637
3504	-0.153017
3500	-0.099158
3496	0.001859
3492	0.001215
3488	-0.064706
3484	-0.089955
3480	-0.046944
3476	0.038814
3472	0.109839
3468	0.106382
3464	0.078773
3460	0.093221
3456	0.118422
3452	0.065684
3448	0.006031
3444	0.053024
3440	0.116944
3436	0.125455
3432	0.076007
3428	0.021910
3424	0.064206
3420	0.071477
3416	-0.030922
3412	-0.078082
3408	-0.023531
3404	0.042009
3400	0.056838
3396	-0.004124
3392	-0.087332
3388	-0.076580
3384	-0.013852
3380	-0.006580
3376	0.015330
3372	0.040245
3368	0.004887
3364	-0.013184
3360	0.002598
3356	0.032901
3352	0.072908
3348	0.065517
3344	0.002264
3340	-0.048136
3336	0.010347
3332	0.112938
3328	0.102472
3324	0.069022
3320	0.040578
3316	-0.023007
3312	0.048661
3308	0.134825
3304	0.035762
3300	-0.087070
3296	-0.091576
3292	-0.013446
3288	0.038218
3284	-0.028204
3280	-0.082707
3276	-0.026750
3272	0.001168
3268	-0.014948
3264	0.018978
3260	0.057101
3256	0.076937
3252	0.108265
3248	0.110244
3244	0.061917
3240	0.010323
3236	0.029373
3232	0.098967
3228	0.120902
3224	0.048303
3220	-0.041747
3216	-0.027489
3212	0.045847
3208	0.102806
3204	0.118541
3200	0.080776
3196	0.097942
3192	0.142669
3188	0.071287
3184	-0.035595
3180	-0.097084
3176	-0.122976
3172	-0.092577
3168	-0.008106
3164	0.075674
3160	0.055885
3156	-0.017929
3152	-0.004100
3148	0.069022
3144	0.041198
3140	0.016260
3136	0.163936
3132	0.279307
3128	0.232577
3124	0.114107
3120	-0.008416
3116	-0.022506
3112	0.116205
3108	0.211215
3104	0.145387
3100	0.092649
3096	0.061130
3092	-0.004506
3088	0.001978
3084	0.036931
3080	0.007128
3076	-0.038003
3072	-0.071239
3068	-0.135588
3064	-0.127530
3060	-0.058436
3056	-0.053381
3052	-0.056743
3048	-0.055170
3044	-0.004911
3040	0.068283
3036	0.057458
3032	0.059032
3028	0.077438
3024	0.087141
3020	0.073742
3016	0.014519
3012	0.006008
3008	0.036859
3004	0.031805
3000	0.039625
2996	0.099849
2992	0.094652
2988	-0.015377
2984	-0.053071
2980	-0.028967
2976	-0.015616
2972	0.054407
2968	0.108265
2964	0.108361
2960	0.110149
2956	0.086069
2952	0.044727
2948	-0.004100
2944	-0.069189
2940	-0.057482
2936	0.063657
2932	0.154972
2928	0.113034
2924	0.027394
2920	0.010824
2916	0.004959
2912	0.020718
2908	0.097680
2904	0.139880
2900	0.147485
2896	0.128769
2892	0.045967
2888	-0.033521
2884	-0.050330
2880	-0.012588
2876	0.042176
2872	0.037479
2868	-0.051784
2864	-0.105619
2860	-0.054526
2856	0.032877
2852	0.094246
2848	0.058865
2844	0.013875
2840	0.043392
2836	0.003242
2832	-0.086045
2828	-0.084829
2824	-0.034356
2820	-0.008153
2816	0.014233
2812	0.054073
2808	0.040960
2804	-0.010848
2800	-0.004601
2796	0.070142
2792	0.131249
2788	0.111484
2784	0.036311
2780	-0.013113
2776	-0.051021
2772	-0.079965
2768	-0.031733
2764	0.035214
2760	0.060343
2756	0.068521
2752	0.069570
2748	0.086259
2744	0.090837
2740	0.040626
2736	-0.014591
2732	-0.042057
2728	-0.039982
2724	-0.030708
2720	-0.005054
2716	0.049996
2712	0.064659
2708	0.063180
2704	0.078058
2700	0.082612
2696	0.063562
2692	0.049591
2688	0.112438
2684	0.145649
2680	0.057506
2676	-0.021457
2672	-0.021553
2668	0.010275
2664	0.060343
2660	0.113081
2656	0.133061
2652	0.116682
2648	0.094103
2644	0.090026
2640	0.067973
2636	0.023341
2632	-0.013899
2628	-0.003290
2624	0.095438
2620	0.163578
2616	0.109195
2612	0.029349
2608	-0.021886
2604	-0.052142
2600	-0.028133
2596	0.051069
2592	0.117421
2588	0.114083
2584	0.096821
2580	0.129294
2576	0.126171
2572	0.064992
2568	-0.001645
2564	-0.064826
2560	-0.071835
2556	-0.004220
2552	0.059890
2548	0.078082
2544	0.082659
2540	0.076627
2536	0.030350
2532	-0.019931
2528	-0.019884
2524	0.015687
2520	-0.004386
2516	-0.085186
2512	-0.099277
2508	-0.033164
2504	0.013089
2500	-0.003242
2496	0.000262
2492	0.027132
2488	0.036144
2484	0.091123
2480	0.161767
2476	0.192093
2472	0.136947
2468	0.023102
2464	-0.033640
2460	-0.004053
2456	0.077748
2452	0.143957
2448	0.145864
2444	0.110316
2440	0.045275
2436	0.055289
2432	0.131821
2428	0.118947
2424	0.140786
2420	0.214886
2416	0.221204
2412	0.198888
2408	0.107192
2404	-0.009369
2400	-0.011205
2396	0.067663
2392	0.124025
2388	0.172996
2384	0.231790
2380	0.197362
2376	0.059223
2372	-0.050377
2368	-0.072312
2364	-0.005602
2360	0.076222
2356	0.062561
2352	0.023937
2348	0.047516
2344	0.039792
2340	0.000357
2336	0.026082
2332	0.042963
2328	0.028061
2324	-0.018525
2320	-0.089788
2316	-0.092005
2312	-0.000834
2308	0.100016
2304	0.143599
2300	0.176048
2296	0.188183
2292	0.149607
2288	0.134992
2284	0.178337
2280	0.235319
2276	0.251483
2272	0.250935
2268	0.317692
2264	0.431227
2260	0.490283
2256	0.497937
2252	0.521206
2248	0.581383
2244	0.670337
2240	0.756525
2236	0.848579
2232	0.952935
2228	1.030945
2224	1.115584
2220	1.249337
2216	1.400303
2212	1.524019
2208	1.620197
2204	1.730132
2200	1.911830
2196	2.111721
2192	2.252388
2188	2.399420
2184	2.555084
2180	2.699017
2176	2.873897
2172	3.111958
2168	3.418803
2164	3.730034
2160	4.053163
2156	4.400491
2152	4.648756
2148	4.830574
2144	5.115079
2140	5.439925
2136	5.725049
2132	6.044220
2128	6.358623
2124	6.645250
2120	6.971478
2116	7.331705
2112	7.686185
2108	8.014154
2104	8.363938
2100	8.759355
2096	9.172177
2092	9.563803
2088	9.901046
2084	10.2797
2080	10.6557
2076	10.9401
2072	11.3597
2068	11.9181
2064	12.2872
2060	12.5096
2056	12.8498
2052	13.2125
2048	13.4941
2044	13.82
2040	14.2081
2036	14.5619
2032	14.8737
2028	15.2138
2024	15.5556
2020	15.8752
2016	16.193
2012	16.5027
2008	16.7932
2004	17.0695
2000	17.3367
1996	17.6181
1992	17.9635
1988	18.272
1984	18.4577
1980	18.6304
1976	18.8597
1972	19.1581
1968	19.4871
1964	19.7472
1960	19.9411
1956	20.1177
1952	20.3177
1948	20.5558
1944	20.8178
1940	21.0561
1936	21.1946
1932	21.3137
1928	21.4862
1924	21.6712
1920	21.8466
1916	21.9985
1912	22.1542
1908	22.3216
1904	22.4967
1900	22.6775
1896	22.8411
1892	22.9716
1888	23.0553
1884	23.1309
1880	23.2344
1876	23.3858
1872	23.5659
1868	23.6773
1864	23.7267
1860	23.8081
1856	23.9383
1852	24.1022
1848	24.2518
1844	24.3651
1840	24.4563
1836	24.4884
1832	24.5165
1828	24.6191
1824	24.7068
1820	24.7355
1816	24.8149
1812	24.9457
1808	25.0351
1804	25.0703
1800	25.0879
1796	25.1211
1792	25.1712
1788	25.2478
1784	25.3513
1780	25.4467
1776	25.4972
1772	25.5103
1768	25.5282
1764	25.5337
1760	25.5639
1756	25.6458
1752	25.6984
1748	25.734
1744	25.7718
1740	25.7987
1736	25.8469
1732	25.861
1728	25.86
1724	25.9567
1720	26.1082
1716	26.1998
1712	26.1979
1708	26.1661
1704	26.2249
1700	26.3699
1696	26.4197
1692	26.3617
1688	26.3609
1684	26.3884
1680	26.3369
1676	26.2851
1672	26.3179
1668	26.3584
1664	26.3937
1660	26.5414
1656	26.7173
1652	26.7112
1648	26.6285
1644	26.6542
1640	26.7012
1636	26.6733
1632	26.6411
1628	26.6762
1624	26.757
1620	26.8225
1616	26.8339
1612	26.7998
1608	26.7498
1604	26.726
1600	26.7358
1596	26.7531
1592	26.7962
1588	26.8239
1584	26.7993
1580	26.8473
1576	26.9762
1572	27.0008
1568	26.9329
1564	26.9544
1560	27.0421
1556	27.0214
1552	26.947
1548	26.9261
1544	26.9375
1540	26.9925
1536	26.9999
1532	26.9248
1528	26.923
1524	27.0107
1520	27.0541
1516	26.9838
1512	26.905
1508	26.9359
1504	26.9224
1500	26.8533
1496	26.9692
1492	27.1301
1488	27.0871
1484	26.9646
1480	26.8935
1476	26.8996
1472	26.8627
1468	26.7966
1464	26.8933
1460	27.0701
1456	27.1827
1452	27.2006
1448	27.0501
1444	26.9269
1440	27.0004
1436	27.0676
1432	27.0119
1428	26.9443
1424	26.9842
1420	27.07
1416	27.0694
1412	27.0328
1408	27.0262
1404	27.0442
1400	27.0562
1396	27.0622
1392	27.0649
1388	27.0411
1384	27.0354
1380	27.0617
1376	27.0988
1372	27.1384
1368	27.1401
1364	27.0792
1360	27.0257
1356	27.0652
1352	27.1299
1348	27.079
1344	26.9834
1340	26.9829
1336	27.0247
1332	27.0277
1328	27.0162
1324	27.0177
1320	27.0164
1316	27.0137
1312	27.026
1308	27.0354
1304	26.9905
1300	26.9193
1296	26.8846
1292	26.8928
1288	26.9309
1284	26.9108
1280	26.7806
1276	26.7161
1272	26.7453
1268	26.7154
1264	26.6798
1260	26.6882
1256	26.735
1252	26.8415
1248	26.9196
1244	26.875
1240	26.7767
1236	26.7085
1232	26.6923
1228	26.7097
1224	26.7151
1220	26.7346
1216	26.7853
1212	26.841
1208	26.8657
1204	26.8263
1200	26.7735
1196	26.7642
1192	26.7559
1188	26.698
1184	26.6189
1180	26.574
1176	26.5965
1172	26.7046
1168	26.7872
1164	26.7149
1160	26.6243
1156	26.6492
1152	26.6577
1148	26.5578
1144	26.4967
1140	26.5735
1136	26.6117
1132	26.5417
1128	26.4672
1124	26.4276
1120	26.4611
1116	26.4577
1112	26.2955
1108	26.203
1104	26.3426
1100	26.4977
1096	26.5195
1092	26.4844
1088	26.4385
1084	26.3754
1080	26.2912
1076	26.1442
1072	26.0002
1068	25.9696
1064	25.9949
1060	26.0982
1056	26.2846
1052	26.2831
1048	26.1048
1044	26.0207
1040	26.0336
1036	26.0608
1032	26.013
1028	25.9632
1024	25.9366
1020	25.7437
1016	25.531
1012	25.489
1008	25.5686
1004	25.7133
1000	25.7313
996	 25.6013
992	 25.5696
988	 25.6215
984	 25.5593
980	 25.4553
976	 25.4303
972	 25.4329
968	 25.4521
964	 25.4579
960	 25.405
956	 25.384
952	 25.3947
948	 25.3427
944	 25.2459
940	 25.1572
936	 25.0826
932	 25.0591
928	 25.0587
924	 25.018
920	 24.9002
916	 24.7886
912	 24.8733
908	 25.042
904	 25.0317
900	 24.8872
896	 24.8096
892	 24.7734
888	 24.7547
884	 24.7898
880	 24.7559
876	 24.6435
872	 24.5506
868	 24.4684
864	 24.4206
860	 24.4488
856	 24.4276
852	 24.3729
848	 24.3653
844	 24.2362
840	 24.0728
836	 24.1058
832	 24.1778
828	 24.0907
824	 23.9169
820	 23.802
816	 23.805
812	 23.811
808	 23.6503
804	 23.4739
800	 23.4953
796	 23.5465
792	 23.5356
788	 23.5385
784	 23.5058
780	 23.3971
776	 23.2109
772	 22.9894
768	 22.8614
764	 22.8484
760	 22.8389
756	 22.8704
752	 23.0184
748	 23.0111
744	 22.643
740	 22.3982
736	 22.5332
732	 22.6338
728	 22.5975
724	 22.5068
720	 22.3264
716	 22.1827
712	 22.1381
708	 22.104
704	 22.0303
700	 21.837
696	 21.6778
692	 21.8392
688	 22.0255
684	 21.8921
680	 21.6716
676	 21.6334
672	 21.6748
668	 21.5209
664	 21.4367
660	 21.5186
656	 21.3926
652	 21.249
648	 21.1287
644	 20.8817
640	 20.7142
636	 20.7468
632	 20.9111
628	 21.0203
624	 21.0235
620	 20.836
616	 20.4672
612	 20.1019
608	 19.8104
604	 19.8633
600	 20.0853
596	 20.1864
592	 20.2502
588	 20.1135
584	 19.9088
580	 19.843
576	 19.6938
572	 19.3549
568	 19.1484
564	 19.2195
560	 19.288
556	 19.1921
552	 19.0297
548	 19.1871
544	 19.4648
540	 19.2007
536	 18.7517
532	 18.5382
528	 18.5401
524	 18.651
520	 18.6816
516	 18.7401
512	 18.5454
508	 17.8765
504	 17.2736
500	 17.0272
496	 16.942
492	 16.9392
488	 17.0896
484	 17.2349
480	 17.336
476	 17.4528
472	 17.2919
468	 17.0511
464	 16.8043
460	 16.4586
456	 16.211
452	 16.017
448	 16.5607
444	 17.17
440	 16.2899
436	 15.5304
432	 15.6755
428	 14.7195
424	 13.0591
420	 14.1255
416	 18.0263
412	 19.4443
408	 17.0813
404	 17.8306
400	 25.8859
396	 33.1276
392	 29.7286
388	 20.3542
384	 17.172
380	 13.8829
376	 1.185250
372	 10.6975
370	 22.8685