File: Bakgrunnsmateriale/MATLAB/FTIR/ftir_data/LPE453/Mapping_121/LPE453_t02_cm-1.asc
PE IR       SPECTRUM    SPECTRUM    ASCII       PEDS        1.60
  -1
LP5750~1.ASC
17/05/16
14:32:38.00
17/05/16
14:32:38.00
tln
$LPE453_t0002$<tbV0>[10.4,-13.0,8.0,0.0,27,1,0]
370
64

2002,4.07
MIRTGS : RIGHTBACK : INTERNAL 2
MIR : ON : INTERNAL 2
OPTKBR

0.200000
8
8.000000
FILLER
RATIO
SPECTRUM
UNLOCKED 256

DOUBLE
64
COMBINED
1
0
0

1.000000
RATIO

1
0
TRUE
51149
0
LEFT NOT FITTED RIGHT NOT FITTED 0
NONE
NONE
15600
12
4.427000
51148
TRUE
1 0 8 72 0 0 0 0

15798

#HDR
-1
-1
#GR
CM-1
%T
2.38419e-05
0.0
5000
-1.000000
4631
8
33.9776
-8.430671
#DATA
5000	0.318956
4996	0.505518
4992	0.518798
4988	0.533628
4984	0.445723
4980	0.007057
4976	-0.227355
4972	0.025534
4968	0.246143
4964	0.198912
4960	0.064516
4956	-0.000119
4952	-0.036025
4948	-0.074577
4944	0.011610
4940	0.178360
4936	0.350594
4932	0.347089
4928	0.063967
4924	-0.099444
4920	-0.063705
4916	-0.053930
4912	-0.040316
4908	-0.028157
4904	0.083589
4900	0.241661
4896	0.130581
4892	-0.121307
4888	-0.223565
4884	-0.129866
4880	0.047421
4876	0.238847
4872	0.496840
4868	0.669288
4864	0.579643
4860	0.348973
4856	0.182867
4852	0.060629
4848	0.200819
4844	0.429868
4840	0.260949
4836	0.125741
4832	0.319743
4828	0.413799
4824	0.070738
4820	-0.278973
4816	-0.231456
4812	-0.169682
4808	-0.138139
4804	-0.013661
4800	-0.028085
4796	-0.103044
4792	-0.077533
4788	-0.044560
4784	0.112366
4780	0.404119
4776	0.506877
4772	0.456428
4768	0.483036
4764	0.459575
4760	0.321769
4756	0.169706
4752	-0.231075
4748	-0.619983
4744	-0.325345
4740	-0.061941
4736	-0.246214
4732	0.143647
4728	0.679373
4724	0.548458
4720	0.551891
4716	0.689315
4712	0.270128
4708	0.211524
4704	0.708842
4700	1.110434
4696	1.530456
4692	1.295304
4688	0.475740
4684	0.666570
4680	1.323938
4676	0.794148
4672	-0.348496
4668	-1.183271
4664	-1.209354
4660	-0.284194
4656	0.180006
4652	0.232219
4648	0.721311
4644	1.203060
4640	1.184535
4636	1.015043
4632	0.836420
4628	0.439739
4624	0.138545
4620	0.184845
4616	0.320339
4612	0.376224
4608	0.413966
4604	0.580000
4600	0.831913
4596	0.881457
4592	0.494360
4588	0.152015
4584	0.415945
4580	0.733828
4576	0.692486
4572	0.827169
4568	1.051592
4564	1.031756
4560	0.966310
4556	0.825977
4552	0.814652
4548	0.929117
4544	0.667023
4540	-0.196456
4536	-0.799703
4532	-0.901770
4528	-0.808835
4524	-0.658679
4520	-0.872516
4516	-1.499605
4512	-1.656246
4508	-1.306343
4504	-1.490211
4500	-2.751374
4496	-2.118563
4492	7.823348
4488	15.8228
4484	13.1458
4480	14.9499
4476	14.8921
4472	4.939579
4468	-1.232790
4464	-1.177215
4460	-0.368309
4456	-0.173759
4452	-0.193476
4448	-0.352931
4444	-0.732994
4440	-0.752210
4436	-0.378322
4432	-0.100111
4428	0.007534
4424	-0.188946
4420	-0.551056
4416	-0.592708
4412	-0.375962
4408	-0.038719
4404	0.298547
4400	0.402021
4396	0.462055
4392	0.675702
4388	0.841808
4384	0.940990
4380	0.987792
4376	0.883030
4372	0.680255
4368	0.553178
4364	0.551772
4360	0.501775
4356	0.342464
4352	0.232100
4348	0.233960
4344	0.247693
4340	0.305628
4336	0.370144
4332	0.339841
4328	0.265121
4324	0.276184
4320	0.464534
4316	0.428152
4312	0.216507
4308	0.301074
4304	0.467109
4300	0.373792
4296	0.199532
4292	0.267243
4288	0.512814
4284	0.569581
4280	0.262999
4276	-0.119590
4272	-0.219917
4268	-0.117564
4264	-0.008010
4260	0.073504
4256	0.135087
4252	0.166988
4248	0.148940
4244	0.057864
4240	0.073146
4236	0.058007
4232	-0.036120
4228	0.028872
4224	0.157475
4220	0.218915
4216	0.234723
4212	0.156235
4208	0.068235
4204	0.160360
4200	0.240135
4196	0.109505
4192	-0.007891
4188	0.136852
4184	0.510644
4180	0.723266
4176	0.508785
4172	0.201845
4168	0.232195
4164	0.401139
4160	0.290441
4156	0.082921
4152	0.117349
4148	0.322079
4144	0.425744
4140	0.322628
4136	0.208973
4132	0.241446
4128	0.343728
4124	0.345516
4120	0.263881
4116	0.175046
4112	0.036978
4108	-0.086760
4104	-0.075030
4100	0.049638
4096	0.161361
4092	0.159931
4088	0.114870
4084	0.051546
4080	-0.128602
4076	-0.269436
4072	-0.200676
4068	-0.103712
4064	-0.064015
4060	0.053453
4056	0.148940
4052	0.150060
4048	0.066781
4044	-0.010633
4040	-0.068044
4036	-0.178980
4032	-0.114154
4028	0.060629
4024	0.044107
4020	-0.043845
4016	-0.004482
4012	0.036644
4008	-0.006198
4004	-0.103926
4000	-0.115609
3996	0.096154
3992	0.336933
3988	0.376057
3984	0.313758
3980	0.263476
3976	0.171399
3972	0.109410
3968	0.122237
3964	0.141263
3960	0.077056
3956	-0.066614
3952	-0.075840
3948	0.059676
3944	0.178050
3940	0.187683
3936	0.064897
3932	-0.045895
3928	0.057959
3924	0.274825
3920	0.314664
3916	0.197601
3912	0.062966
3908	0.021743
3904	0.068426
3900	0.041317
3896	0.012087
3892	0.046205
3888	0.082588
3884	0.127482
3880	0.142788
3876	0.067329
3872	-0.010514
3868	0.039768
3864	0.112915
3860	0.075268
3856	0.019454
3852	0.009107
3848	-0.053691
3844	-0.100469
3840	0.006198
3836	0.132942
3832	0.119638
3828	0.104928
3824	0.183391
3820	0.169038
3816	0.031089
3812	-0.065374
3808	-0.026679
3804	0.060153
3800	0.098252
3796	0.096964
3792	0.060462
3788	0.043511
3784	0.027179
3780	-0.013279
3776	-0.002455
3772	0.027084
3768	0.062990
3764	0.115275
3760	0.113439
3756	0.114035
3752	0.095319
3748	0.016617
3744	0.007724
3740	0.079941
3736	0.122737
3732	0.105237
3728	0.063514
3724	0.000572
3720	-0.105118
3716	-0.170683
3712	-0.108242
3708	-0.012588
3704	0.029969
3700	0.079822
3696	0.111889
3692	0.078558
3688	0.085186
3684	0.128507
3680	0.084853
3676	0.028347
3672	0.043177
3668	0.056004
3664	0.056171
3660	0.059580
3656	0.067901
3652	0.087070
3648	0.085854
3644	0.072288
3640	0.015640
3636	-0.038480
3632	0.033593
3628	0.140881
3624	0.163936
3620	0.109434
3616	0.069212
3612	0.053787
3608	-0.008773
3604	-0.060200
3600	-0.068140
3596	-0.036907
3592	0.024461
3588	0.049114
3584	0.054693
3580	0.071310
3576	0.127005
3572	0.197172
3568	0.135159
3564	0.004673
3560	0.008535
3556	0.115036
3552	0.134634
3548	0.044488
3544	-0.008606
3540	0.034427
3536	0.121927
3532	0.143098
3528	0.083136
3524	0.028204
3520	0.044131
3516	0.092434
3512	0.097775
3508	0.079107
3504	0.099110
3500	0.190424
3496	0.231862
3492	0.149440
3488	0.104856
3484	0.136041
3480	0.120711
3476	0.067973
3472	0.030088
3468	-0.050377
3464	-0.125980
3460	-0.023818
3456	0.134253
3452	0.123047
3448	-0.013804
3444	-0.117278
3440	-0.123429
3436	-0.083899
3432	-0.004625
3428	0.066328
3424	0.062823
3420	0.019097
3416	0.034260
3412	0.079417
3408	-0.002908
3404	-0.102734
3400	-0.052928
3396	0.081729
3392	0.135779
3388	0.102329
3384	0.051546
3380	-0.002598
3376	0.044369
3372	0.163269
3368	0.173091
3364	0.120997
3360	0.112771
3356	0.057792
3352	0.022625
3348	0.052452
3344	0.052690
3340	0.060510
3336	0.083255
3332	0.115227
3328	0.131273
3324	0.122904
3320	0.113391
3316	0.079798
3312	0.086379
3308	0.122261
3304	0.112724
3300	0.115776
3296	0.128960
3292	0.130152
3288	0.155210
3284	0.144791
3280	0.073862
3276	0.063705
3272	0.153326
3268	0.166010
3264	0.088000
3260	0.092196
3256	0.151205
3252	0.156497
3248	0.123119
3244	0.123691
3240	0.138735
3236	0.108242
3232	0.074005
3228	0.072503
3224	0.082588
3220	0.125050
3216	0.186896
3212	0.146222
3208	-0.023436
3204	-0.146842
3200	-0.097465
3196	0.029635
3192	0.046849
3188	-0.030064
3184	-0.028705
3180	0.076270
3176	0.183892
3172	0.215744
3168	0.140357
3164	0.022554
3160	-0.039005
3156	-0.059199
3152	-0.059962
3148	-0.092625
3144	-0.123977
3140	-0.015282
3136	0.144219
3132	0.126647
3128	-0.049471
3124	-0.085258
3120	0.031948
3116	0.112867
3112	0.195312
3108	0.233411
3104	0.150847
3100	0.077390
3096	0.052356
3092	0.005888
3088	0.025439
3084	0.041294
3080	-0.074958
3076	-0.128102
3072	-0.049161
3068	0.012564
3064	0.041151
3060	0.032258
3056	-0.039243
3052	-0.057053
3048	0.006389
3044	0.069284
3040	0.110101
3036	0.077891
3032	0.005364
3028	0.000214
3024	0.017547
3020	0.005125
3016	-0.016236
3012	-0.046586
3008	-0.011682
3004	0.097084
3000	0.181508
2996	0.207424
2992	0.144004
2988	0.049901
2984	0.029444
2980	0.037479
2976	-0.010395
2972	-0.079154
2968	-0.019121
2964	0.139927
2960	0.184702
2956	0.112986
2952	0.048327
2948	0.016713
2944	0.015592
2940	0.013732
2936	-0.016784
2932	-0.032091
2928	-0.036048
2924	-0.079131
2920	-0.076842
2916	0.052213
2912	0.166368
2908	0.133776
2904	0.076055
2900	0.086951
2896	0.065445
2892	0.052833
2888	0.094366
2884	0.049471
2880	0.021171
2876	0.076198
2872	0.038170
2868	-0.048828
2864	-0.022506
2860	0.062561
2856	0.077176
2852	0.022768
2848	0.008845
2844	0.092649
2840	0.110626
2836	0.038123
2832	0.039577
2828	0.062298
2824	0.025010
2820	0.015616
2816	0.063991
2812	0.080704
2808	0.055241
2804	0.040555
2800	0.039720
2796	0.020503
2792	-0.020146
2788	-0.018000
2784	-0.006794
2780	-0.026750
2776	-0.010204
2772	0.049066
2768	0.097393
2764	0.090575
2760	0.100469
2756	0.140047
2752	0.087761
2748	-0.014615
2744	-0.038313
2740	-0.002694
2736	0.013566
2732	0.012016
2728	0.003123
2724	0.013685
2720	0.029993
2716	-0.020885
2712	-0.062537
2708	-0.037550
2704	0.000238
2700	0.049519
2696	0.080990
2692	0.044989
2688	-0.010991
2684	-0.018072
2680	0.009417
2676	0.025749
2672	0.034761
2668	0.075554
2664	0.115442
2660	0.076436
2656	-0.031900
2652	-0.107669
2648	-0.081729
2644	-0.033831
2640	-0.027775
2636	-0.037288
2632	-0.054574
2628	-0.038075
2624	0.034761
2620	0.095796
2616	0.054526
2612	-0.056529
2608	-0.040769
2604	0.075507
2600	0.096416
2596	0.079202
2592	0.085496
2588	0.071573
2584	0.060486
2580	0.021409
2576	-0.050234
2572	-0.048637
2568	-0.007510
2564	-0.027489
2560	-0.033593
2556	0.048422
2552	0.120401
2548	0.096917
2544	0.029468
2540	-0.009894
2536	0.000095
2532	0.025439
2528	0.062584
2524	0.139355
2520	0.144529
2516	0.029706
2512	-0.046563
2508	-0.036072
2504	0.008034
2500	0.039577
2496	-0.020003
2492	-0.073933
2488	-0.021696
2484	0.028204
2480	0.025391
2476	0.025939
2472	0.015377
2468	-0.066471
2464	-0.120782
2460	-0.059199
2456	0.017237
2452	0.042128
2448	0.057625
2444	0.080513
2440	0.066971
2436	0.092864
2432	0.236082
2428	0.335574
2424	0.246548
2420	0.034618
2416	-0.070238
2412	0.057458
2408	0.155353
2404	0.109863
2400	0.081539
2396	0.051689
2392	0.043845
2388	0.115036
2384	0.149512
2380	0.066828
2376	-0.026607
2372	-0.037884
2368	-0.002837
2364	0.058603
2360	0.129747
2356	0.174021
2352	0.162839
2348	0.081586
2344	-0.000882
2340	-0.003266
2336	0.022006
2332	0.033497
2328	0.080299
2324	0.139498
2320	0.162553
2316	0.167202
2312	0.191187
2308	0.228810
2304	0.246095
2300	0.258350
2296	0.291728
2292	0.339651
2288	0.402116
2284	0.459074
2280	0.511550
2276	0.576138
2272	0.607013
2268	0.631713
2264	0.727224
2260	0.836896
2256	0.906252
2252	0.965714
2248	1.058745
2244	1.208329
2240	1.367831
2236	1.499080
2232	1.608800
2228	1.735329
2224	1.894831
2220	2.058219
2216	2.229738
2212	2.394914
2208	2.555727
2204	2.771091
2200	3.054881
2196	3.363943
2192	3.633427
2188	3.862428
2184	4.122710
2180	4.407072
2176	4.703187
2172	5.017805
2168	5.334472
2164	5.715870
2160	6.140995
2156	6.495642
2152	6.797599
2148	7.148241
2144	7.516050
2140	7.892942
2136	8.374834
2132	8.876442
2128	9.317588
2124	9.778881
2120	10.2686
2116	10.7027
2112	11.0728
2108	11.4516
2104	11.9301
2100	12.4775
2096	12.9723
2092	13.4529
2088	13.9902
2084	14.553
2080	14.9862
2076	15.2736
2072	15.73
2068	16.3175
2064	16.7521
2060	17.1024
2056	17.4828
2052	17.9422
2048	18.4316
2044	18.8383
2040	19.2037
2036	19.6021
2032	20.0187
2028	20.4294
2024	20.8274
2020	21.201
2016	21.6146
2012	22.0666
2008	22.4586
2004	22.8118
2000	23.181
1996	23.538
1992	23.8408
1988	24.088
1984	24.3263
1980	24.6285
1976	24.9784
1972	25.2777
1968	25.552
1964	25.8787
1960	26.2119
1956	26.4942
1952	26.7031
1948	26.8741
1944	27.0813
1940	27.2716
1936	27.4103
1932	27.5698
1928	27.7528
1924	27.9969
1920	28.3081
1916	28.5883
1912	28.7981
1908	28.9706
1904	29.1446
1900	29.2907
1896	29.3698
1892	29.4002
1888	29.473
1884	29.6549
1880	29.889
1876	30.133
1872	30.3775
1868	30.5593
1864	30.7066
1860	30.8819
1856	31.0051
1852	31.0273
1848	31.0426
1844	31.1026
1840	31.1637
1836	31.2025
1832	31.263
1828	31.3935
1824	31.5528
1820	31.6893
1816	31.816
1812	31.9474
1808	32.093
1804	32.224
1800	32.297
1796	32.3136
1792	32.2573
1788	32.1699
1784	32.1261
1780	32.1517
1776	32.2861
1772	32.4927
1768	32.6968
1764	32.9024
1760	33.0272
1756	33.0054
1752	32.9685
1748	32.9974
1744	33.0234
1740	32.9983
1736	32.9123
1732	32.787
1728	32.7425
1724	32.8679
1720	33.0969
1716	33.2602
1712	33.3651
1708	33.5258
1704	33.6247
1700	33.5695
1696	33.4499
1692	33.361
1688	33.3302
1684	33.3002
1680	33.27
1676	33.3291
1672	33.4197
1668	33.4575
1664	33.509
1660	33.6502
1656	33.845
1652	33.9106
1648	33.8021
1644	33.6375
1640	33.5271
1636	33.452
1632	33.33
1628	33.2808
1624	33.2965
1620	33.344
1616	33.5047
1612	33.6891
1608	33.8136
1604	33.8799
1600	33.8941
1596	33.8738
1592	33.7878
1588	33.6354
1584	33.5347
1580	33.5348
1576	33.5169
1572	33.4099
1568	33.3204
1564	33.4572
1560	33.7489
1556	33.7941
1552	33.6551
1548	33.6702
1544	33.8614
1540	33.9776
1536	33.8093
1532	33.5243
1528	33.3652
1524	33.3261
1520	33.2586
1516	33.2231
1512	33.3861
1508	33.6128
1504	33.6901
1500	33.6615
1496	33.637
1492	33.6174
1488	33.5428
1484	33.4154
1480	33.2832
1476	33.1823
1472	33.0946
1468	33.0098
1464	32.9861
1460	33.0204
1456	33.1297
1452	33.34
1448	33.5433
1444	33.6329
1440	33.5779
1436	33.4264
1432	33.2625
1428	33.1326
1424	33.0327
1420	32.9133
1416	32.7652
1412	32.6596
1408	32.6663
1404	32.7375
1400	32.849
1396	33.0471
1392	33.1672
1388	33.1459
1384	33.1562
1380	33.1861
1376	33.0669
1372	32.836
1368	32.7049
1364	32.6696
1360	32.6145
1356	32.5581
1352	32.5264
1348	32.5819
1344	32.7702
1340	32.9521
1336	33.0477
1332	33.0832
1328	32.9969
1324	32.7968
1320	32.5868
1316	32.3775
1312	32.1561
1308	32.0224
1304	32.0632
1300	32.21
1296	32.3199
1292	32.3881
1288	32.5275
1284	32.7015
1280	32.7384
1276	32.6361
1272	32.5028
1268	32.3608
1264	32.2105
1260	32.039
1256	31.9086
1252	31.889
1248	31.9119
1244	31.9911
1240	32.1585
1236	32.293
1232	32.4157
1228	32.5616
1224	32.5812
1220	32.4327
1216	32.2344
1212	32.0794
1208	31.9093
1204	31.6857
1200	31.543
1196	31.5578
1192	31.6522
1188	31.7472
1184	31.8558
1180	32.0238
1176	32.1659
1172	32.2018
1168	32.2047
1164	32.1659
1160	32.0083
1156	31.8075
1152	31.5987
1148	31.3654
1144	31.224
1140	31.2306
1136	31.2882
1132	31.36
1128	31.4862
1124	31.6836
1120	31.8725
1116	31.917
1112	31.8463
1108	31.7172
1104	31.5179
1100	31.3319
1096	31.1933
1092	31.0347
1088	30.8917
1084	30.9154
1080	31.1086
1076	31.3197
1072	31.4537
1068	31.494
1064	31.5059
1060	31.4901
1056	31.3544
1052	31.1053
1048	30.7957
1044	30.505
1040	30.4031
1036	30.4788
1032	30.5358
1028	30.5771
1024	30.674
1020	30.8161
1016	30.9782
1012	31.0308
1008	31.0233
1004	31.0613
1000	30.9803
996	 30.7266
992	 30.4645
988	 30.2728
984	 30.0901
980	 29.9792
976	 30.0737
972	 30.2466
968	 30.3868
964	 30.5842
960	 30.7918
956	 30.9051
952	 30.9038
948	 30.7626
944	 30.4765
940	 30.1099
936	 29.7788
932	 29.5871
928	 29.5262
924	 29.521
920	 29.5966
916	 29.6929
912	 29.7423
908	 29.8656
904	 30.0422
900	 30.1079
896	 30.0028
892	 29.8306
888	 29.6356
884	 29.3633
880	 29.1195
876	 28.9397
872	 28.8049
868	 28.817
864	 28.955
860	 29.1003
856	 29.2755
852	 29.478
848	 29.5902
844	 29.6283
840	 29.5882
836	 29.3554
832	 28.9563
828	 28.6137
824	 28.5019
820	 28.529
816	 28.5029
812	 28.3403
808	 28.1965
804	 28.2929
800	 28.493
796	 28.5747
792	 28.5369
788	 28.3979
784	 28.2493
780	 28.1424
776	 27.9289
772	 27.6125
768	 27.4072
764	 27.3401
760	 27.3859
756	 27.5094
752	 27.5451
748	 27.6853
744	 27.9996
740	 27.9702
736	 27.6799
732	 27.6058
728	 27.5372
724	 27.2863
720	 26.9698
716	 26.6597
712	 26.5425
708	 26.584
704	 26.5497
700	 26.5439
696	 26.5119
692	 26.4584
688	 26.651
684	 26.8356
680	 26.8548
676	 26.9308
672	 26.9517
668	 26.71
664	 26.4581
660	 26.2412
656	 25.8501
652	 25.7179
648	 25.9731
644	 26.0055
640	 25.7442
636	 25.5372
632	 25.5542
628	 25.8309
624	 26.0498
620	 25.9739
616	 25.6582
612	 25.2139
608	 24.8541
604	 24.662
600	 24.6299
596	 24.5614
592	 24.3414
588	 24.2213
584	 24.2838
580	 24.5615
576	 24.7032
572	 24.5497
568	 24.5852
564	 24.5377
560	 24.2078
556	 24.032
552	 23.9046
548	 23.7093
544	 23.5793
540	 23.5141
536	 23.4637
532	 23.4182
528	 23.586
524	 23.6052
520	 23.2414
516	 23.3507
512	 23.8258
508	 23.6627
504	 22.8681
500	 22.0189
496	 21.4297
492	 21.0513
488	 21.053
484	 21.188
480	 21.0633
476	 21.2792
472	 21.7204
468	 22.0635
464	 22.3399
460	 22.6602
456	 22.9593
452	 22.4007
448	 21.7281
444	 20.7172
440	 18.4872
436	 17.2619
432	 17.6585
428	 17.6874
424	 16.9121
420	 17.0694
416	 19.7429
412	 23.1615
408	 25.8035
404	 28.4384
400	 27.085
396	 24.7699
392	 28.2862
388	 29.6705
384	 18.7461
380	 9.552574
376	 12.4058
372	 1.484537
370	 -8.430671