File: Bakgrunnsmateriale/MATLAB/FTIR/ftir_data/LPE453/Mapping_121/LPE453_t78_cm-1.asc
PE IR       SPECTRUM    SPECTRUM    ASCII       PEDS        1.60
  -1
LPEA59~1.ASC
17/05/16
20:46:24.00
17/05/16
20:46:24.00
tln
$LPE453_t0078$<tbV0>[13.0,5.2,8.0,0.0,27,1,0]
370
64

2002,4.07
MIRTGS : RIGHTBACK : INTERNAL 2
MIR : ON : INTERNAL 2
OPTKBR

0.200000
8
8.000000
FILLER
RATIO
SPECTRUM
UNLOCKED 256

DOUBLE
64
COMBINED
1
0
0

1.000000
RATIO

1
0
TRUE
51149
0
LEFT NOT FITTED RIGHT NOT FITTED 0
NONE
NONE
15600
12
4.427000
51148
TRUE
1 0 8 72 0 0 0 0

15798

#HDR
-1
-1
#GR
CM-1
%T
2.38419e-05
0.0
5000
-1.000000
4631
8
39.7787
-12.0702
#DATA
5000	0.310158
4996	0.075960
4992	-0.031805
4988	0.070834
4984	0.132274
4980	0.099754
4976	0.058412
4972	0.014352
4968	0.029516
4964	0.041246
4960	-0.085973
4956	-0.008487
4952	0.229668
4948	0.198817
4944	0.114345
4940	0.075817
4936	0.054621
4932	0.102114
4928	0.040936
4924	0.005578
4920	0.019526
4916	-0.009226
4912	0.052547
4908	0.011992
4904	-0.264000
4900	-0.383567
4896	-0.225353
4892	-0.048232
4888	-0.078582
4884	-0.297212
4880	-0.310206
4876	-0.070929
4872	0.041484
4868	0.088548
4864	0.299692
4860	0.518107
4856	0.506472
4852	0.420141
4848	0.467753
4844	0.505042
4840	0.365734
4836	0.187778
4832	0.242376
4828	0.347280
4824	0.231099
4820	0.111961
4816	0.105929
4812	0.158619
4808	0.282192
4804	0.421047
4800	0.385499
4796	0.230574
4792	0.291585
4788	0.481963
4784	0.401210
4780	0.111293
4776	-0.042629
4772	-0.052642
4768	-0.044488
4764	0.024318
4760	0.101923
4756	0.165033
4752	0.207710
4748	-0.028538
4744	-0.306701
4740	-0.199961
4736	0.089669
4732	0.249242
4728	0.111603
4724	-0.229692
4720	-0.537538
4716	-0.572657
4712	-0.501751
4708	-0.968718
4704	-1.125669
4700	-0.478053
4696	0.049877
4692	0.277066
4688	0.156950
4684	0.046467
4680	-0.091433
4676	-0.231385
4672	0.857949
4668	1.923298
4664	1.613020
4660	1.049351
4656	0.684189
4652	0.593280
4648	0.188398
4644	-0.578188
4640	-0.491023
4636	0.510907
4632	1.370382
4628	0.910544
4624	-0.171494
4620	-0.774312
4616	-0.431013
4612	0.363016
4608	0.429725
4604	0.109696
4600	0.175929
4596	0.420475
4592	0.286817
4588	0.210905
4584	0.545787
4580	0.605201
4576	0.144433
4572	-0.180053
4568	-0.232791
4564	-0.202775
4560	-0.297117
4556	-0.451564
4552	-0.142860
4548	0.065183
4544	0.017476
4540	0.066423
4536	-0.639081
4532	-1.353693
4528	-1.148247
4524	-1.660394
4520	-2.957463
4516	-2.537250
4512	-0.718784
4508	-1.007604
4504	-6.174182
4500	-12.0702
4496	-0.092601
4492	27.3535
4488	29.4298
4484	10.1716
4480	1.641607
4476	-0.028967
4472	-0.380802
4468	-0.638341
4464	-0.928378
4460	-0.917387
4456	-0.927591
4452	-0.661277
4448	-0.450372
4444	-0.337767
4440	-0.026845
4436	0.165843
4432	0.028538
4428	-0.233721
4424	-0.397944
4420	-0.356507
4416	-0.118970
4412	0.088548
4408	0.226426
4404	0.406885
4400	0.381851
4396	0.374293
4392	0.606465
4388	0.576972
4384	0.241732
4380	0.098752
4376	0.147414
4372	0.259089
4368	0.424695
4364	0.559592
4360	0.686717
4356	0.658726
4352	0.418901
4348	0.180459
4344	0.139522
4340	0.288128
4336	0.317168
4332	0.138306
4328	0.099611
4324	0.325560
4320	0.551319
4316	0.684070
4312	0.645446
4308	0.456809
4304	0.424718
4300	0.429940
4296	0.287270
4292	0.176954
4288	0.114679
4284	0.030350
4280	0.061988
4276	0.079369
4272	-0.099992
4268	-0.037312
4264	0.269579
4260	0.308370
4256	0.141334
4252	0.057387
4248	0.084996
4244	0.131726
4240	0.167131
4236	0.182795
4232	0.082373
4228	-0.079727
4224	-0.221443
4220	-0.201940
4216	0.078701
4212	0.326848
4208	0.231194
4204	0.001573
4200	0.036740
4196	0.235819
4192	0.315666
4188	0.237464
4184	0.137281
4180	0.185108
4176	0.200390
4172	0.137782
4168	0.226426
4164	0.333094
4160	0.327420
4156	0.309586
4152	0.266170
4148	0.264024
4144	0.398325
4140	0.487065
4136	0.386047
4132	0.210547
4128	0.103306
4124	0.050973
4120	-0.026774
4116	-0.019669
4112	0.106263
4108	0.201964
4104	0.234723
4100	0.173568
4096	0.045561
4092	-0.058794
4088	-0.119638
4084	-0.115561
4080	-0.079250
4076	-0.020956
4072	0.081729
4068	0.154113
4064	0.144958
4060	0.109553
4056	0.082850
4052	0.013518
4048	0.028872
4044	0.118637
4040	0.155282
4036	0.215888
4032	0.205349
4028	0.125002
4024	0.028491
4020	-0.039005
4016	0.043439
4012	0.153756
4008	0.154304
4004	0.030446
4000	0.021100
3996	0.183248
3992	0.220370
3988	0.168538
3984	0.120687
3980	0.052094
3976	0.001239
3972	-0.014305
3968	-0.006532
3964	-0.089216
3960	-0.156855
3956	-0.044322
3952	0.083923
3948	0.115585
3944	0.077009
3940	-0.014638
3936	-0.066208
3932	-0.009489
3928	0.058484
3924	0.093722
3920	0.142359
3916	0.143671
3912	0.113081
3908	0.084805
3904	-0.006508
3900	-0.036668
3896	0.062894
3892	0.142717
3888	0.169610
3884	0.164151
3880	0.136065
3876	0.095486
3872	0.143766
3868	0.234198
3864	0.245332
3860	0.218939
3856	0.122404
3852	0.006604
3848	-0.034999
3844	-0.011992
3840	0.049376
3836	0.018000
3832	-0.113797
3828	-0.150322
3824	-0.084400
3820	0.012087
3816	0.111651
3812	0.116562
3808	0.057625
3804	0.048398
3800	0.032210
3796	-0.030422
3792	-0.025272
3788	0.016570
3784	0.025439
3780	0.091695
3776	0.175523
3772	0.099635
3768	-0.031137
3764	-0.015950
3760	-0.027608
3756	-0.102686
3752	-0.044798
3748	0.054287
3744	0.015211
3740	-0.078034
3736	-0.081300
3732	0.017118
3728	0.159764
3724	0.234937
3720	0.180149
3716	0.098824
3712	0.089097
3708	0.088310
3704	0.099730
3700	0.127744
3696	0.009441
3692	-0.189709
3688	-0.206851
3684	-0.074577
3680	0.028848
3676	0.061011
3672	0.023531
3668	-0.018429
3664	0.057053
3660	0.136327
3656	0.081562
3652	0.097370
3648	0.215053
3644	0.206112
3640	0.157737
3636	0.209689
3632	0.204443
3628	0.084853
3624	0.035047
3620	0.063014
3616	0.030374
3612	-0.012063
3608	0.019288
3604	0.027728
3600	0.000905
3596	0.040793
3592	0.062465
3588	-0.040602
3584	-0.148010
3580	-0.106143
3576	0.004506
3572	0.043511
3568	0.004053
3564	-0.039863
3560	-0.096821
3556	-0.142312
3552	-0.088310
3548	0.078892
3544	0.107431
3540	-0.054216
3536	-0.120306
3532	-0.118207
3528	-0.050997
3524	0.109505
3520	0.121760
3516	0.041651
3512	-0.022149
3508	-0.057005
3504	0.013399
3500	0.108051
3496	0.143337
3492	0.109457
3488	0.028848
3484	-0.071430
3480	-0.149798
3476	-0.134253
3472	-0.126242
3468	-0.153422
3464	-0.078129
3460	0.081896
3456	0.199627
3452	0.226902
3448	0.150847
3444	-0.017356
3440	-0.057005
3436	0.050640
3432	0.105190
3428	0.128054
3424	0.189518
3420	0.199651
3416	0.167465
3412	0.147151
3408	0.131630
3404	0.097417
3400	0.066566
3396	0.061273
3392	0.064897
3388	0.059890
3384	0.049114
3380	0.001120
3376	-0.020432
3372	-0.017404
3368	-0.098228
3364	-0.113105
3360	0.009655
3356	0.104188
3352	0.180673
3348	0.230741
3344	0.108170
3340	-0.047898
3336	-0.038361
3332	0.034070
3328	0.031566
3324	0.035977
3320	0.040125
3316	0.003457
3312	-0.002145
3308	0.019717
3304	-0.024652
3300	-0.062012
3296	-0.029945
3292	-0.055694
3288	-0.025248
3284	0.102543
3280	0.132560
3276	0.084924
3272	0.049591
3268	0.006866
3264	-0.025725
3260	0.056433
3256	0.155758
3252	0.122785
3248	0.029397
3244	-0.004792
3240	0.085520
3236	0.177097
3232	0.157237
3228	0.087404
3224	0.029635
3220	-0.009250
3216	-0.098299
3212	-0.168848
3208	-0.118374
3204	-0.074100
3200	-0.053310
3196	0.028371
3192	0.101828
3188	0.086832
3184	-0.014495
3180	-0.083708
3176	-0.066208
3172	-0.095129
3168	-0.148916
3164	-0.054502
3160	0.112104
3156	0.184321
3152	0.174951
3148	0.155138
3144	0.169324
3140	0.167655
3136	0.163674
3132	0.217223
3128	0.244140
3124	0.224256
3120	0.138950
3116	0.048208
3112	0.058531
3108	0.033473
3104	-0.069236
3100	-0.116848
3096	-0.093865
3092	-0.056505
3088	0.011587
3084	0.085783
3080	0.058102
3076	0.016689
3072	0.074052
3068	0.121450
3064	0.107884
3060	0.056624
3056	0.009536
3052	0.032734
3048	0.060057
3044	0.022935
3040	-0.037145
3036	-0.070667
3032	-0.049138
3028	-0.028610
3024	-0.065112
3020	-0.058078
3016	0.018978
3012	0.080180
3008	0.116896
3004	0.068426
3000	-0.023412
2996	0.002169
2992	0.075531
2988	0.083971
2984	0.058317
2980	0.022816
2976	0.010132
2972	0.023198
2968	-0.009465
2964	-0.035858
2960	0.015234
2956	0.055217
2952	0.065279
2948	0.092124
2944	0.133156
2940	0.141072
2936	0.065207
2932	-0.011682
2928	-0.020098
2924	-0.041675
2920	-0.039768
2916	0.064158
2912	0.131249
2908	0.124335
2904	0.118160
2900	0.087475
2896	0.080204
2892	0.106787
2888	0.086998
2884	0.091934
2880	0.137662
2876	0.080251
2872	-0.030541
2868	-0.044655
2864	0.011920
2860	0.088953
2856	0.135588
2852	0.119400
2848	0.109028
2844	0.080037
2840	-0.021314
2836	-0.111293
2832	-0.057339
2828	0.100398
2824	0.136637
2820	0.016665
2816	-0.046157
2812	0.015902
2808	0.087308
2804	0.114035
2800	0.113391
2796	0.095033
2792	0.075984
2788	0.081634
2784	0.084209
2780	0.050020
2776	-0.002431
2772	0.000405
2768	0.072789
2764	0.068306
2760	-0.027251
2756	-0.080275
2752	-0.094366
2748	-0.078225
2744	-0.003600
2740	0.066399
2736	0.068354
2732	0.044822
2728	0.049448
2724	0.044584
2720	0.013399
2716	0.034475
2712	0.087165
2708	0.050711
2704	-0.012159
2700	-0.019097
2696	0.012350
2692	0.042390
2688	0.025248
2684	0.005459
2680	0.012183
2676	0.006604
2672	-0.009799
2668	-0.006341
2664	0.027918
2660	0.033140
2656	-0.002169
2652	-0.016832
2648	0.014781
2644	0.038266
2640	0.001358
2636	-0.037121
2632	-0.015759
2628	0.041437
2624	0.077867
2620	0.031447
2616	-0.030708
2612	-0.001335
2608	0.007438
2604	-0.038146
2600	-0.050210
2596	-0.040864
2592	-0.002765
2588	0.039482
2584	0.046968
2580	0.033473
2576	0.019288
2572	0.005316
2568	0.021243
2564	0.060296
2560	0.034976
2556	-0.006556
2552	0.008654
2548	0.018191
2544	-0.002717
2540	-0.007128
2536	0.017547
2532	0.014591
2528	-0.034761
2524	-0.029754
2520	0.008773
2516	0.007677
2512	0.039529
2508	0.036668
2504	0.002956
2500	0.068426
2496	0.120306
2492	0.126338
2488	0.127840
2484	0.070667
2480	0.002908
2476	-0.015997
2472	-0.002479
2468	0.031876
2464	0.059700
2460	0.033593
2456	0.026988
2452	0.071430
2448	0.074028
2444	0.016880
2440	-0.001502
2436	0.046801
2432	0.046825
2428	0.047850
2424	0.057458
2420	-0.017046
2416	-0.035214
2412	0.010776
2408	-0.000190
2404	-0.024485
2400	-0.041413
2396	-0.069046
2392	-0.057530
2388	-0.003433
2384	0.022840
2380	0.030946
2376	0.036215
2372	0.032925
2368	0.027108
2364	0.004172
2360	-0.007748
2356	0.020360
2352	0.054216
2348	0.068402
2344	0.090336
2340	0.114369
2336	0.106024
2332	0.073766
2328	0.027680
2324	-0.026559
2320	-0.038909
2316	-0.011873
2312	-0.008082
2308	-0.036239
2304	-0.035166
2300	0.023651
2296	0.069236
2292	0.096750
2288	0.159716
2284	0.217247
2280	0.207567
2276	0.158238
2272	0.132131
2268	0.139164
2264	0.163292
2260	0.153875
2256	0.106835
2252	0.096440
2248	0.150418
2244	0.197124
2240	0.199651
2236	0.233364
2232	0.303220
2228	0.381040
2224	0.459671
2220	0.508999
2216	0.522351
2212	0.502228
2208	0.507020
2204	0.597929
2200	0.742769
2196	0.834894
2192	0.836515
2188	0.870633
2184	1.008296
2180	1.177263
2176	1.320052
2172	1.463103
2168	1.668214
2164	1.884865
2160	1.991248
2156	2.043986
2152	2.159762
2148	2.337694
2144	2.518916
2140	2.637553
2136	2.785706
2132	3.063130
2128	3.323197
2124	3.482341
2120	3.625369
2116	3.803491
2112	3.998589
2108	4.198241
2104	4.453921
2100	4.726457
2096	4.963994
2092	5.183625
2088	5.344963
2084	5.524230
2080	5.826377
2076	6.164050
2072	6.433558
2068	6.571483
2064	6.704068
2060	7.043099
2056	7.428574
2052	7.654953
2048	7.811355
2044	8.009696
2040	8.243441
2036	8.492827
2032	8.765816
2028	9.040117
2024	9.272837
2020	9.480762
2016	9.695053
2012	9.854578
2008	10.0099
2004	10.245
2000	10.5113
1996	10.7743
1992	10.9983
1988	11.1928
1984	11.3668
1980	11.5154
1976	11.7034
1972	11.9207
1968	12.0931
1964	12.2289
1960	12.3875
1956	12.5907
1952	12.7725
1948	12.9135
1944	13.0824
1940	13.2476
1936	13.3622
1932	13.4421
1928	13.5391
1924	13.6918
1920	13.8405
1916	13.9553
1912	14.0762
1908	14.1838
1904	14.2828
1900	14.4182
1896	14.5528
1892	14.6684
1888	14.8077
1884	14.9477
1880	15.0359
1876	15.1066
1872	15.2068
1868	15.2931
1864	15.3305
1860	15.3869
1856	15.4716
1852	15.5554
1848	15.6477
1844	15.7204
1840	15.7864
1836	15.8789
1832	15.9833
1828	16.071
1824	16.1419
1820	16.2057
1816	16.2694
1812	16.3209
1808	16.3322
1804	16.3322
1800	16.3844
1796	16.4626
1792	16.5472
1788	16.6478
1784	16.7189
1780	16.7842
1776	16.8596
1772	16.929
1768	16.9933
1764	17.0231
1760	17.0233
1756	17.0477
1752	17.1287
1748	17.2201
1744	17.2625
1740	17.2436
1736	17.2042
1732	17.2327
1728	17.3262
1724	17.425
1720	17.5296
1716	17.6077
1712	17.6335
1708	17.6663
1704	17.7004
1700	17.6774
1696	17.6472
1692	17.6563
1688	17.6624
1684	17.6861
1680	17.7363
1676	17.7678
1672	17.824
1668	17.8922
1664	17.8892
1660	17.8641
1656	17.909
1652	17.9792
1648	18.0177
1644	18.0353
1640	18.0445
1636	18.0727
1632	18.113
1628	18.1499
1624	18.1804
1620	18.1626
1616	18.1135
1612	18.108
1608	18.1575
1604	18.2394
1600	18.3129
1596	18.312
1592	18.2624
1588	18.2661
1584	18.294
1580	18.2773
1576	18.2787
1572	18.3249
1568	18.3791
1564	18.4136
1560	18.4101
1556	18.4195
1552	18.4881
1548	18.5336
1544	18.4967
1540	18.5003
1536	18.5461
1532	18.5348
1528	18.5449
1524	18.6159
1520	18.6729
1516	18.6756
1512	18.6507
1508	18.6323
1504	18.6156
1500	18.6268
1496	18.6753
1492	18.7068
1488	18.6847
1484	18.6472
1480	18.6209
1476	18.6265
1472	18.7069
1468	18.7679
1464	18.777
1460	18.7923
1456	18.8
1452	18.836
1448	18.8668
1444	18.8591
1440	18.8576
1436	18.85
1432	18.8719
1428	18.9539
1424	19.024
1420	18.9934
1416	18.9203
1412	18.9499
1408	18.9937
1404	18.9756
1400	19.0011
1396	19.0464
1392	19.0559
1388	19.0475
1384	19.0217
1380	19.0078
1376	19.0435
1372	19.1164
1368	19.1999
1364	19.2357
1360	19.2065
1356	19.1497
1352	19.0972
1348	19.0929
1344	19.1251
1340	19.1279
1336	19.1208
1332	19.1505
1328	19.1893
1324	19.2411
1320	19.2968
1316	19.2822
1312	19.1933
1308	19.1813
1304	19.2678
1300	19.2847
1296	19.2487
1292	19.2645
1288	19.299
1284	19.324
1280	19.3882
1276	19.4453
1272	19.4455
1268	19.4586
1264	19.456
1260	19.4144
1256	19.4386
1252	19.465
1248	19.4286
1244	19.4209
1240	19.4228
1236	19.4063
1232	19.426
1228	19.4565
1224	19.4679
1220	19.4714
1216	19.424
1212	19.3621
1208	19.384
1204	19.489
1200	19.5637
1196	19.5763
1192	19.5988
1188	19.5954
1184	19.5867
1180	19.6391
1176	19.6328
1172	19.5695
1168	19.622
1164	19.6891
1160	19.6043
1156	19.4996
1152	19.5091
1148	19.5607
1144	19.5381
1140	19.4863
1136	19.49
1132	19.5408
1128	19.5522
1124	19.4995
1120	19.5339
1116	19.6354
1112	19.5964
1108	19.4852
1104	19.5383
1100	19.6801
1096	19.7232
1092	19.6408
1088	19.4974
1084	19.4278
1080	19.4562
1076	19.4925
1072	19.489
1068	19.4735
1064	19.4757
1060	19.4956
1056	19.5092
1052	19.4544
1048	19.3606
1044	19.3095
1040	19.2823
1036	19.2809
1032	19.3412
1028	19.3728
1024	19.3091
1020	19.2477
1016	19.244
1012	19.2556
1008	19.2659
1004	19.2764
1000	19.2507
996	 19.2224
992	 19.2433
988	 19.3155
984	 19.433
980	 19.4403
976	 19.257
972	 19.1125
968	 19.1149
964	 19.1757
960	 19.2607
956	 19.3026
952	 19.3149
948	 19.3026
944	 19.1692
940	 18.9607
936	 18.8462
932	 18.8789
928	 18.8874
924	 18.8775
920	 18.925
916	 18.939
912	 18.9712
908	 19.0105
904	 18.9169
900	 18.7303
896	 18.5897
892	 18.5612
888	 18.5857
884	 18.6203
880	 18.7107
876	 18.806
872	 18.8618
868	 18.871
864	 18.7407
860	 18.5107
856	 18.4
852	 18.4079
848	 18.334
844	 18.2866
840	 18.4024
836	 18.4348
832	 18.295
828	 18.1338
824	 18.0223
820	 18.0844
816	 18.1617
812	 18.0892
808	 18.0048
804	 17.9641
800	 18.036
796	 18.045
792	 17.8565
788	 17.7339
784	 17.7281
780	 17.7458
776	 17.7209
772	 17.6022
768	 17.4869
764	 17.3815
760	 17.2925
756	 17.3529
752	 17.41
748	 17.2966
744	 17.2307
740	 17.2662
736	 17.2755
732	 17.1792
728	 17.0218
724	 16.8519
720	 16.6781
716	 16.6702
712	 16.7665
708	 16.7641
704	 16.6492
700	 16.6951
696	 16.9062
692	 16.8782
688	 16.6229
684	 16.3731
680	 16.2385
676	 16.1575
672	 16.0937
668	 16.1526
664	 16.2629
660	 16.329
656	 16.3004
652	 16.1161
648	 15.8868
644	 15.7448
640	 15.5335
636	 15.2931
632	 15.3033
628	 15.3857
624	 15.3243
620	 15.2643
616	 15.2724
612	 15.1744
608	 15.0728
604	 15.1639
600	 15.1628
596	 14.9923
592	 14.9492
588	 15.0059
584	 14.9251
580	 14.7965
576	 14.7317
572	 14.5997
568	 14.5346
564	 14.5129
560	 14.3095
556	 14.0497
552	 13.8377
548	 13.648
544	 13.5351
540	 13.756
536	 13.9623
532	 13.6586
528	 13.3344
524	 13.2759
520	 13.25
516	 13.1633
512	 13.1594
508	 13.0957
504	 12.8338
500	 12.6652
496	 12.5919
492	 12.5844
488	 12.7692
484	 12.9334
480	 12.8286
476	 12.4647
472	 12.1102
468	 11.6947
464	 10.7589
460	 10.0651
456	 10.5597
452	 11.3577
448	 11.3428
444	 11.0188
440	 10.9946
436	 10.9792
432	 10.733
428	 10.6213
424	 10.1975
420	 8.586883
416	 6.807374
412	 6.771302
408	 8.430910
404	 9.840369
400	 6.969928
396	 1.305341
392	 2.544426
388	 3.710007
384	 1.183557
380	 18.0341
376	 38.0283
372	 37.8244
370	 33.952