File: Bakgrunnsmateriale/MATLAB/FTIR/ftir_data/LPE453/Mapping_121/LPE453_t92.asc
PE IR       SPECTRUM    SPECTRUM    ASCII       PEDS        1.60
  -1
LPC7B1~1.ASC
17/05/16
21:57:26.00
17/05/16
21:57:52.00
tln
$LPE453_t0092$<tbV0>[5.2,7.8,8.0,0.0,27,1,0]
27.028
64

2002,4.07
MIRTGS : RIGHTBACK : INTERNAL 2
MIR : ON : INTERNAL 2
OPTKBR

0.200000
8
8.000000
FILLER
RATIO
SPECTRUM
UNLOCKED 256

DOUBLE
64
COMBINED
1
0
0

0.002000
RATIO

1
0
TRUE
51149
0
LEFT NOT FITTED RIGHT NOT FITTED 0
NONE
NONE
15600
12
4.427000
51148
TRUE
1 0 8 72 0 0 0 0

15798

#HDR
-1
-1
#GR
µM
%T
2.38419e-05
0.0
2.000000
0.002000
12515
8
36.2392
-6.058593
#DATA
2.000000	 -0.077843
2.018000	 0.521599
2.036000	 0.057584
2.054000	 0.186749
2.072000	 -0.096084
2.090000	 0.087000
2.108000	 0.642714
2.126000	 -0.028724
2.144000	 -0.567112
2.162000	 0.200597
2.180000	 0.160932
2.198000	 0.425308
2.216000	 5.732549
2.234000	 0.305509
2.252000	 0.201418
2.270000	 -0.139111
2.288000	 0.522142
2.306000	 0.017895
2.324000	 -0.149986
2.342000	 0.176632
2.360000	 -0.059027
2.378000	 0.259902
2.396000	 -0.067181
2.414000	 0.098227
2.432000	 -0.242469
2.450000	 -0.094654
2.468000	 -0.002446
2.486000	 0.188738
2.504000	 0.011442
2.522000	 0.047217
2.540000	 -0.077596
2.558000	 0.012956
2.576000	 -0.022252
2.594000	 0.105633
2.612000	 0.029933
2.630000	 0.059511
2.648000	 -0.018204
2.666000	 -0.057073
2.684000	 -0.037785
2.702000	 -0.077607
2.720000	 0.084650
2.738000	 0.169857
2.756000	 -0.032008
2.774000	 -0.013435
2.792000	 0.057920
2.810000	 0.045074
2.828000	 0.009345
2.846000	 0.024255
2.864000	 0.088578
2.882000	 -0.104624
2.900000	 -0.011431
2.918000	 0.004841
2.936000	 0.207600
2.954000	 -0.066131
2.972000	 0.004396
2.990000	 0.146824
3.008000	 -0.042799
3.026000	 0.030840
3.044000	 0.095299
3.062000	 0.055419
3.080000	 0.153434
3.098000	 0.067930
3.116000	 0.114831
3.134000	 -0.018008
3.152000	 -0.002952
3.170000	 0.162300
3.188000	 0.046436
3.206000	 0.218080
3.224000	 0.075025
3.242000	 0.124508
3.260000	 0.003190
3.278000	 -0.046973
3.296000	 -0.017802
3.314000	 -0.021657
3.332000	 -0.012297
3.350000	 -0.042449
3.368000	 0.116988
3.386000	 -0.030606
3.404000	 0.083607
3.422000	 0.039122
3.440000	 0.127837
3.458000	 0.070306
3.476000	 0.162643
3.494000	 0.155928
3.512000	 0.040965
3.530000	 -0.031466
3.548000	 0.077614
3.566000	 0.019816
3.584000	 -0.023635
3.602000	 -0.050531
3.620000	 -0.015134
3.638000	 0.197572
3.656000	 0.033566
3.674000	 0.043768
3.692000	 -0.039686
3.710000	 0.148389
3.728000	 0.088108
3.746000	 0.131852
3.764000	 -0.009659
3.782000	 -0.002503
3.800000	 -0.005144
3.818000	 -0.039111
3.836000	 0.083339
3.854000	 0.087504
3.872000	 0.140838
3.890000	 0.079310
3.908000	 0.058373
3.926000	 0.020817
3.944000	 0.046299
3.962000	 -0.061443
3.980000	 -0.005348
3.998000	 -0.049830
4.016000	 0.020483
4.034000	 0.005820
4.052000	 0.122500
4.070000	 0.124362
4.088000	 -0.035018
4.106000	 0.105691
4.124000	 0.011074
4.141999	 0.081177
4.160000	 0.058407
4.178000	 0.155466
4.196000	 0.127088
4.214000	 0.128663
4.232000	 0.141571
4.250000	 0.140364
4.268000	 0.138635
4.286000	 0.201954
4.304000	 0.303174
4.322000	 0.355197
4.340000	 0.454333
4.358000	 0.586155
4.375999	 0.763690
4.394000	 0.964525
4.412000	 1.277781
4.430000	 1.382089
4.448000	 1.755272
4.466000	 2.191999
4.484000	 2.587019
4.502000	 3.060275
4.520000	 3.658268
4.538000	 4.215812
4.556000	 4.874538
4.574000	 5.646755
4.592000	 6.449352
4.609999	 7.160417
4.628000	 8.311400
4.646000	 8.994693
4.664000	 10.0649
4.682000	 11.0837
4.700000	 12.2204
4.718000	 13.157
4.736000	 14.2699
4.754000	 15.3981
4.772000	 16.4017
4.790000	 17.3828
4.808000	 18.5257
4.826000	 19.4841
4.843999	 20.2642
4.862000	 21.45
4.880000	 22.1829
4.898000	 22.9572
4.916000	 23.7864
4.934000	 24.556
4.952000	 25.3055
4.970000	 26.1179
4.988000	 26.7173
5.006000	 27.1633
5.024000	 27.7323
5.042000	 28.2661
5.060000	 28.9239
5.077999	 29.5259
5.096000	 29.9533
5.114000	 30.3716
5.132000	 30.6891
5.150000	 30.9532
5.168000	 31.3059
5.186000	 31.564
5.204000	 31.9077
5.222000	 32.2603
5.240000	 32.5951
5.258000	 32.7724
5.276000	 33.0106
5.294000	 33.1907
5.312000	 33.2953
5.330000	 33.437
5.348000	 33.6079
5.366000	 33.9951
5.384000	 34.2868
5.402000	 34.4046
5.420000	 34.463
5.438000	 34.477
5.456000	 34.4615
5.474000	 34.5434
5.492000	 34.6915
5.510000	 34.927
5.528000	 35.0628
5.546000	 35.2791
5.564000	 35.3312
5.582000	 35.237
5.600000	 35.2454
5.618000	 35.2567
5.636000	 35.2411
5.654000	 35.2866
5.672000	 35.3717
5.690000	 35.4828
5.708000	 35.6905
5.726000	 35.8325
5.744000	 35.8108
5.762000	 35.7416
5.780000	 35.6263
5.798000	 35.6333
5.816000	 35.6396
5.834000	 35.5899
5.852000	 35.7274
5.870000	 35.9205
5.888000	 35.9992
5.906000	 36.0388
5.923999	 36.0726
5.942000	 36.0721
5.960000	 35.9914
5.978000	 35.8802
5.996000	 35.8096
6.014000	 35.7306
6.032000	 35.6975
6.050000	 35.7731
6.068000	 35.8747
6.086000	 35.9983
6.104000	 36.1291
6.122000	 36.175
6.140000	 36.1379
6.158000	 36.0583
6.176000	 35.9367
6.194000	 35.8131
6.212000	 35.7453
6.230000	 35.6935
6.248000	 35.732
6.266000	 35.8628
6.284000	 36.0051
6.302000	 36.1604
6.320000	 36.2392
6.338000	 36.1783
6.356000	 36.1073
6.374000	 36.0779
6.392000	 36.0218
6.410000	 35.9459
6.428000	 35.9099
6.446000	 35.8363
6.464000	 35.7171
6.482000	 35.7016
6.500000	 35.826
6.518000	 35.9922
6.536000	 36.1175
6.554000	 36.1741
6.572000	 36.1805
6.590000	 36.1815
6.608000	 36.1091
6.626000	 35.9327
6.644000	 35.8049
6.662000	 35.6951
6.680000	 35.5348
6.698000	 35.5316
6.716000	 35.6613
6.734000	 35.7453
6.752000	 35.8015
6.770000	 35.8809
6.788000	 35.9452
6.806000	 35.9415
6.824000	 35.8954
6.842000	 35.8432
6.860000	 35.7947
6.878000	 35.7994
6.896000	 35.8379
6.914000	 35.7696
6.932000	 35.6041
6.950000	 35.4663
6.968000	 35.419
6.986000	 35.4817
7.004000	 35.6139
7.022000	 35.7179
7.040000	 35.7424
7.058000	 35.7119
7.076000	 35.6906
7.094000	 35.7258
7.112000	 35.794
7.130000	 35.8057
7.148000	 35.7133
7.166000	 35.5809
7.184000	 35.4739
7.202000	 35.3956
7.220000	 35.3485
7.238000	 35.3165
7.256000	 35.2852
7.274000	 35.2993
7.292000	 35.379
7.310000	 35.4661
7.328000	 35.5282
7.346000	 35.6056
7.364000	 35.7009
7.382000	 35.75
7.400000	 35.7377
7.418000	 35.7012
7.436000	 35.6604
7.454000	 35.6233
7.472000	 35.5806
7.490000	 35.4934
7.508000	 35.352
7.526000	 35.2033
7.544000	 35.0989
7.562000	 35.0599
7.580000	 35.0893
7.598000	 35.175
7.616000	 35.2827
7.634000	 35.3709
7.652000	 35.4176
7.670000	 35.4355
7.688000	 35.4594
7.706000	 35.4991
7.724000	 35.5232
7.742000	 35.5091
7.760000	 35.4685
7.778000	 35.4077
7.796000	 35.3179
7.814000	 35.2138
7.832000	 35.1271
7.850000	 35.0592
7.868000	 34.9916
7.886000	 34.9319
7.904000	 34.906
7.922000	 34.9216
7.940000	 34.9652
7.958000	 35.0253
7.976000	 35.1024
7.994000	 35.1983
8.012000	 35.2918
8.030000	 35.3415
8.048000	 35.3425
8.065999	 35.3501
8.084000	 35.4064
8.102000	 35.4765
8.120000	 35.4957
8.138000	 35.4468
8.155999	 35.3548
8.173999	 35.2365
8.192000	 35.0978
8.210000	 34.9606
8.228000	 34.8566
8.246000	 34.7966
8.263999	 34.7699
8.282000	 34.769
8.300000	 34.7937
8.318000	 34.8343
8.336000	 34.8763
8.353999	 34.9154
8.372000	 34.9595
8.390000	 35.0139
8.408000	 35.0732
8.426000	 35.1265
8.443999	 35.1637
8.462000	 35.1783
8.480000	 35.1676
8.498000	 35.1324
8.516000	 35.0809
8.533999	 35.0259
8.552000	 34.9675
8.570000	 34.8909
8.588000	 34.7932
8.606000	 34.7022
8.624000	 34.6478
8.641999	 34.6194
8.660000	 34.5795
8.678000	 34.5164
8.696000	 34.4602
8.714000	 34.4425
8.731999	 34.4675
8.750000	 34.5295
8.768000	 34.6322
8.786000	 34.7694
8.804000	 34.9035
8.821999	 34.9852
8.840000	 34.9952
8.858000	 34.9585
8.876000	 34.9166
8.894000	 34.889
8.911999	 34.8655
8.930000	 34.8295
8.948000	 34.7814
8.966000	 34.7343
8.984000	 34.6888
9.001999	 34.6202
9.020000	 34.4974
9.038000	 34.3166
9.056000	 34.1162
9.074000	 33.9592
9.092000	 33.8955
9.109999	 33.9294
9.128000	 34.0178
9.146000	 34.1009
9.164000	 34.145
9.182000	 34.1619
9.199999	 34.1869
9.218000	 34.2406
9.236000	 34.3112
9.254000	 34.3729
9.272000	 34.4146
9.289999	 34.4489
9.308000	 34.4952
9.326000	 34.5577
9.344000	 34.6177
9.362000	 34.6508
9.379999	 34.6479
9.398000	 34.6209
9.416000	 34.5887
9.434000	 34.5592
9.452000	 34.5281
9.469999	 34.4881
9.488000	 34.4375
9.506000	 34.3775
9.524000	 34.306
9.542000	 34.2203
9.560000	 34.1237
9.577999	 34.0261
9.596000	 33.938
9.614000	 33.8655
9.632000	 33.8101
9.650000	 33.768
9.667999	 33.7309
9.686000	 33.6918
9.704000	 33.654
9.722000	 33.6337
9.740000	 33.6494
9.757999	 33.7043
9.776000	 33.7786
9.794000	 33.8451
9.812000	 33.8921
9.830000	 33.9319
9.847999	 33.985
9.866000	 34.0554
9.884000	 34.1247
9.902000	 34.1647
9.920000	 34.1586
9.937999	 34.1156
9.956000	 34.0642
9.974000	 34.032
9.992000	 34.0297
10.01	34.0459
10.028	34.0541
10.046	34.0276
10.064	33.9529
10.082	33.8367
10.1	33.7047
10.118	33.5933
10.136	33.531
10.154	33.5256
10.172	33.559
10.19	33.595
10.208	33.6011
10.226	33.5655
10.244	33.4996
10.262	33.4285
10.28	33.3733
10.298	33.3448
10.316	33.3452
10.334	33.3736
10.352	33.4275
10.37	33.4991
10.388	33.5742
10.406	33.6359
10.424	33.6739
10.442	33.692
10.46	33.7036
10.478	33.7226
10.496	33.7525
10.514	33.7851
10.532	33.8054
10.55	33.8029
10.568	33.7749
10.586	33.7266
10.604	33.6649
10.622	33.5952
10.64	33.5169
10.658	33.4269
10.676	33.3218
10.694	33.2011
10.712	33.0702
10.73	32.9402
10.748	32.8253
10.766	32.7385
10.784	32.6858
10.802	32.6626
10.82	32.6565
10.838	32.6508
10.856	32.6345
10.874	32.6063
10.892	32.5758
10.91	32.5586
10.928	32.5672
10.946	32.6052
10.964	32.6646
10.982	32.7301
11	32.7854
11.018	32.8199
11.036	32.8326
11.054	32.8305
11.072	32.8244
11.09	32.824
11.108	32.8341
11.126	32.8545
11.144	32.8798
11.162	32.9022
11.18	32.9141
11.198	32.9092
11.216	32.8846
11.234	32.8427
11.252	32.7912
11.27	32.7401
11.288	32.7006
11.306	32.6787
11.324	32.6733
11.342	32.6758
11.36	32.6735
11.378	32.6537
11.396	32.6102
11.414	32.5447
11.432	32.4667
11.45	32.3889
11.468	32.3231
11.486	32.2744
11.504	32.2415
11.522	32.218
11.54	32.1968
11.558	32.1726
11.576	32.1437
11.594	32.112
11.612	32.081
11.63	32.0542
11.648	32.0342
11.666	32.0229
11.684	32.022
11.702	32.0331
11.72	32.0577
11.738	32.0962
11.756	32.1473
11.774	32.2065
11.792	32.2678
11.81	32.3242
11.828	32.3688
11.846	32.3957
11.864	32.4014
11.882	32.3858
11.9	32.3517
11.918	32.3055
11.936	32.2551
11.954	32.2088
11.972	32.1738
11.99	32.1541
12.008	32.1499
12.026	32.1582
12.044	32.1727
12.062	32.1852
12.08	32.1867
12.098	32.1695
12.116	32.1285
12.134	32.0626
12.152	31.9754
12.17	31.8749
12.188	31.7716
12.206	31.6769
12.224	31.6001
12.242	31.5461
12.26	31.5143
12.278	31.4991
12.296	31.4916
12.314	31.4815
12.332	31.4611
12.35	31.4268
12.368	31.3803
12.386	31.3276
12.404	31.2764
12.422	31.2338
12.44	31.2035
12.458	31.1862
12.476	31.179
12.494	31.1779
12.512	31.1796
12.53	31.183
12.548	31.1892
12.566	31.2008
12.584	31.2199
12.602	31.2469
12.62	31.2792
12.638	31.3119
12.656	31.339
12.674	31.3556
12.692	31.3593
12.71	31.3508
12.728	31.3342
12.746	31.3155
12.764	31.3012
12.782	31.2966
12.8	31.3048
12.818	31.325
12.836	31.3538
12.854	31.3848
12.872	31.4114
12.89	31.4272
12.908	31.428
12.926	31.4123
12.944	31.3821
12.962	31.3419
12.98	31.2972
12.998	31.2537
13.016	31.215
13.034	31.1823
13.052	31.1538
13.07	31.1251
13.088	31.0913
13.106	31.0478
13.124	30.9918
13.142	30.9234
13.16	30.8451
13.178	30.7613
13.196	30.6776
13.214	30.5999
13.232	30.5337
13.25	30.4833
13.268	30.4515
13.286	30.4396
13.304	30.4469
13.322	30.4708
13.34	30.5071
13.358	30.5504
13.376	30.5947
13.394	30.634
13.412	30.6631
13.43	30.679
13.448	30.6809
13.466	30.6701
13.484	30.6495
13.502	30.6235
13.52	30.5961
13.538	30.5712
13.556	30.5515
13.574	30.5389
13.592	30.5344
13.61	30.5386
13.628	30.5511
13.646	30.5712
13.664	30.5971
13.682	30.6263
13.7	30.6553
13.718	30.6804
13.736	30.6977
13.754	30.7043
13.772	30.6983
13.79	30.6798
13.808	30.6501
13.826	30.6125
13.844	30.5704
13.862	30.5273
13.88	30.4854
13.898	30.4454
13.916	30.4061
13.934	30.3649
13.952	30.3183
13.97	30.2631
13.988	30.197
14.006	30.1198
14.024	30.0334
14.042	29.942
14.06	29.8512
14.078	29.7674
14.096	29.6964
14.114	29.6425
14.132	29.6081
14.15	29.5928
14.168	29.5938
14.186	29.6063
14.204	29.6243
14.222	29.6414
14.24	29.652
14.258	29.6521
14.276	29.6394
14.294	29.6135
14.312	29.5759
14.33	29.5287
14.348	29.4752
14.366	29.4187
14.384	29.3624
14.402	29.3088
14.42	29.2602
14.438	29.218
14.456	29.1835
14.474	29.1574
14.492	29.1399
14.51	29.1309
14.528	29.1294
14.546	29.134
14.564	29.1426
14.582	29.1527
14.6	29.1618
14.618	29.1676
14.636	29.1682
14.654	29.1631
14.672	29.1527
14.69	29.1387
14.708	29.1233
14.726	29.1094
14.744	29.0999
14.762	29.0968
14.78	29.1016
14.798	29.1142
14.816	29.1339
14.834	29.1592
14.852	29.1874
14.87	29.2162
14.888	29.2438
14.906	29.2688
14.924	29.2904
14.942	29.3082
14.96	29.3226
14.978	29.3341
14.996	29.3429
15.014	29.3491
15.032	29.3522
15.05	29.351
15.068	29.3444
15.086	29.3312
15.104	29.3106
15.122	29.2824
15.14	29.2473
15.158	29.2065
15.176	29.1619
15.194	29.1156
15.212	29.0704
15.23	29.028
15.248	28.9898
15.266	28.9564
15.284	28.9276
15.302	28.9023
15.32	28.8791
15.338	28.8564
15.356	28.8325
15.374	28.8064
15.392	28.7779
15.41	28.7471
15.428	28.715
15.446	28.6831
15.464	28.6526
15.482	28.6247
15.5	28.5997
15.518	28.5776
15.536	28.5569
15.554	28.5358
15.572	28.5118
15.59	28.4818
15.608	28.4438
15.626	28.3963
15.644	28.3384
15.662	28.2708
15.68	28.1957
15.698	28.1158
15.716	28.0355
15.734	27.9599
15.752	27.8929
15.77	27.8382
15.788	27.7992
15.806	27.7764
15.824	27.7695
15.842	27.7771
15.86	27.7955
15.878	27.8212
15.896	27.851
15.914	27.8801
15.932	27.906
15.95	27.9267
15.968	27.9411
15.986	27.9492
16.004	27.9517
16.022	27.9496
16.04	27.9449
16.058	27.9388
16.076	27.9323
16.094	27.9267
16.112	27.9219
16.13	27.9179
16.148	27.9147
16.166	27.911
16.184	27.9062
16.202	27.8994
16.22	27.8891
16.238	27.8747
16.256	27.8554
16.274	27.8302
16.292	27.7988
16.31	27.7608
16.328	27.7162
16.346	27.6655
16.364	27.6093
16.382	27.5496
16.4	27.4889
16.418	27.4292
16.436	27.3747
16.454	27.3285
16.472	27.2933
16.49	27.2727
16.508	27.2679
16.526	27.2799
16.544	27.3081
16.562	27.3501
16.58	27.404
16.598	27.4646
16.616	27.528
16.634	27.5904
16.652	27.6458
16.67	27.692
16.688	27.7257
16.706	27.745
16.724	27.7499
16.742	27.7402
16.76	27.7182
16.778	27.6852
16.796	27.6444
16.814	27.5991
16.832	27.551
16.85	27.5041
16.868	27.4601
16.886	27.4207
16.904	27.3876
16.922	27.3608
16.94	27.3409
16.958	27.3269
16.976	27.3183
16.994	27.3141
17.012	27.313
17.03	27.3139
17.048	27.3152
17.066	27.316
17.084	27.3152
17.102	27.3117
17.12	27.3051
17.138	27.2946
17.156	27.2799
17.174	27.2609
17.192	27.2373
17.21	27.2093
17.228	27.1771
17.246	27.1408
17.264	27.1004
17.282	27.0566
17.3	27.0093
17.318	26.959
17.336	26.9061
17.354	26.8511
17.372	26.7951
17.39	26.7387
17.408	26.6835
17.426	26.6308
17.444	26.5816
17.462	26.5382
17.48	26.5013
17.498	26.473
17.516	26.4541
17.534	26.4458
17.552	26.448
17.57	26.4606
17.588	26.4829
17.606	26.5138
17.624	26.5521
17.642	26.5954
17.66	26.643
17.678	26.6912
17.696	26.7394
17.714	26.7847
17.732	26.8262
17.75	26.8623
17.768	26.8925
17.786	26.9164
17.804	26.9342
17.822	26.9462
17.84	26.9534
17.858	26.9566
17.876	26.9569
17.894	26.9557
17.912	26.9534
17.93	26.9514
17.948	26.9499
17.966	26.9494
17.984	26.9497
18.002	26.9507
18.02	26.9518
18.038	26.9526
18.056	26.9519
18.074	26.9494
18.092	26.9439
18.11	26.9353
18.128	26.9226
18.146	26.906
18.164	26.8852
18.182	26.8605
18.2	26.8319
18.218	26.8003
18.236	26.7657
18.254	26.7291
18.272	26.6907
18.29	26.6513
18.308	26.6111
18.326	26.5708
18.344	26.5301
18.362	26.4894
18.38	26.4483
18.398	26.4068
18.416	26.3644
18.434	26.3211
18.452	26.2765
18.47	26.2304
18.488	26.1831
18.506	26.1343
18.524	26.0845
18.542	26.0338
18.56	25.9829
18.578	25.9321
18.596	25.8825
18.614	25.8342
18.632	25.7885
18.65	25.7454
18.668	25.7062
18.686	25.6709
18.704	25.6398
18.722	25.6129
18.74	25.5903
18.758	25.5719
18.776	25.5575
18.794	25.5467
18.812	25.5391
18.83	25.5343
18.848	25.5314
18.866	25.5302
18.884	25.5295
18.902	25.5289
18.92	25.5275
18.938	25.5248
18.956	25.5197
18.974	25.5118
18.992	25.5002
19.01	25.4848
19.028	25.4648
19.046	25.4404
19.064	25.4111
19.082	25.3776
19.1	25.3399
19.118	25.2988
19.136	25.2552
19.154	25.2098
19.172	25.1641
19.19	25.1188
19.208	25.0759
19.226	25.0358
19.244	25.0007
19.262	24.9708
19.28	24.9479
19.298	24.932
19.316	24.9241
19.334	24.9239
19.352	24.9312
19.37	24.946
19.388	24.9668
19.406	24.9938
19.424	25.0244
19.442	25.0589
19.46	25.0942
19.478	25.1305
19.496	25.1649
19.514	25.1969
19.532	25.2249
19.55	25.248
19.568	25.2654
19.586	25.276
19.604	25.2799
19.622	25.2763
19.64	25.2655
19.658	25.2476
19.676	25.2228
19.694	25.1919
19.712	25.155
19.73	25.1139
19.748	25.0683
19.766	25.0205
19.784	24.9705
19.802	24.9201
19.82	24.8702
19.838	24.8216
19.856	24.7757
19.874	24.7326
19.892	24.6938
19.91	24.6589
19.928	24.6289
19.946	24.6037
19.964	24.583
19.982	24.5669
20	24.5544
20.018	24.5453
20.036	24.5389
20.054	24.5338
20.072	24.5301
20.09	24.5261
20.108	24.522
20.126	24.5164
20.144	24.5093
20.162	24.5002
20.18	24.4887
20.198	24.4753
20.216	24.4602
20.234	24.4436
20.252	24.4271
20.27	24.4102
20.288	24.3951
20.306	24.3817
20.324	24.3713
20.342	24.365
20.36	24.3627
20.378	24.3658
20.396	24.374
20.414	24.3875
20.432	24.4064
20.45	24.4299
20.468	24.4579
20.486	24.4894
20.504	24.5231
20.522	24.5591
20.54	24.5949
20.558	24.631
20.576	24.6655
20.594	24.6972
20.612	24.7262
20.63	24.751
20.648	24.7719
20.666	24.7878
20.684	24.7987
20.702	24.8044
20.72	24.8047
20.738	24.7998
20.756	24.7895
20.774	24.7738
20.792	24.7529
20.81	24.7269
20.828	24.6958
20.846	24.6595
20.864	24.6182
20.882	24.5716
20.9	24.5198
20.918	24.4628
20.936	24.4006
20.954	24.3332
20.972	24.2613
20.99	24.1847
21.008	24.1045
21.026	24.0208
21.044	23.9342
21.062	23.8462
21.08	23.7563
21.098	23.6668
21.116	23.5779
21.134	23.4904
21.152	23.4065
21.17	23.3255
21.188	23.2492
21.206	23.178
21.224	23.1119
21.242	23.0516
21.26	22.997
21.278	22.9476
21.296	22.9037
21.314	22.8646
21.332	22.8291
21.35	22.7977
21.368	22.7686
21.386	22.7415
21.404	22.716
21.422	22.6906
21.44	22.6657
21.458	22.6403
21.476	22.6139
21.494	22.5868
21.512	22.5589
21.53	22.5299
21.548	22.5007
21.566	22.4714
21.584	22.442
21.602	22.4141
21.62	22.3877
21.638	22.3631
21.656	22.3412
21.674	22.3217
21.692	22.3054
21.71	22.2927
21.728	22.2834
21.746	22.2779
21.764	22.2762
21.782	22.2781
21.8	22.2839
21.818	22.2935
21.836	22.3062
21.854	22.322
21.872	22.3408
21.89	22.362
21.908	22.3858
21.926	22.4119
21.944	22.4402
21.962	22.4706
21.98	22.5033
21.998	22.5383
22.016	22.5755
22.034	22.6154
22.052	22.6576
22.07	22.7026
22.088	22.7504
22.106	22.8011
22.124	22.8545
22.142	22.9108
22.16	22.9698
22.178	23.0311
22.196	23.0949
22.214	23.1604
22.232	23.2269
22.25	23.2948
22.268	23.3628
22.286	23.4302
22.304	23.4974
22.322	23.5625
22.34	23.6256
22.358	23.6864
22.376	23.7436
22.394	23.7974
22.412	23.8475
22.43	23.8932
22.448	23.9346
22.466	23.9718
22.484	24.0047
22.502	24.0333
22.52	24.0583
22.538	24.0795
22.556	24.0971
22.574	24.1124
22.592	24.1254
22.61	24.1361
22.628	24.146
22.646	24.1548
22.664	24.1627
22.682	24.1705
22.7	24.1782
22.718	24.1856
22.736	24.1922
22.754	24.1985
22.772	24.2036
22.79	24.2073
22.808	24.21
22.826	24.21
22.844	24.2064
22.862	24.1999
22.88	24.1882
22.898	24.1703
22.916	24.147
22.934	24.1155
22.952	24.0752
22.97	24.0266
22.988	23.9675
23.006	23.8975
23.024	23.817
23.042	23.7252
23.06	23.6213
23.078	23.5063
23.096	23.3815
23.114	23.246
23.132	23.101
23.15	22.9496
23.168	22.7911
23.186	22.6266
23.204	22.46
23.222	22.2901
23.24	22.1183
23.258	21.9497
23.276	21.7829
23.294	21.6193
23.312	21.4647
23.33	21.3182
23.348	21.1804
23.366	21.056
23.384	20.945
23.402	20.847
23.42	20.7646
23.438	20.6983
23.456	20.6473
23.474	20.6118
23.492	20.5924
23.51	20.5884
23.528	20.5974
23.546	20.6198
23.564	20.6554
23.582	20.7001
23.6	20.7529
23.618	20.8149
23.636	20.881
23.654	20.949
23.672	21.0212
23.69	21.0924
23.708	21.1594
23.726	21.2249
23.744	21.2849
23.762	21.3357
23.78	21.3795
23.798	21.4145
23.816	21.4383
23.834	21.4515
23.852	21.4545
23.87	21.4469
23.888	21.4283
23.906	21.3996
23.924	21.3625
23.942	21.3164
23.96	21.2617
23.978	21.2018
23.996	21.1372
24.014	21.067
24.032	20.9949
24.05	20.9232
24.068	20.8496
24.086	20.7776
24.104	20.7105
24.122	20.6457
24.14	20.586
24.158	20.536
24.176	20.494
24.194	20.4609
24.212	20.44
24.23	20.4318
24.248	20.4353
24.266	20.4532
24.284	20.4876
24.302	20.5371
24.32	20.6014
24.338	20.6804
24.356	20.7753
24.374	20.8838
24.392	21.0029
24.41	21.1353
24.428	21.2788
24.446	21.4262
24.464	21.5758
24.482	21.7311
24.5	21.8832
24.518	22.0253
24.536	22.1643
24.554	22.2923
24.572	22.3982
24.59	22.4857
24.608	22.5538
24.626	22.592
24.644	22.5959
24.662	22.5711
24.68	22.5102
24.698	22.4061
24.716	22.2624
24.734	22.0781
24.752	21.8495
24.77	21.5749
24.788	21.2565
24.806	20.8966
24.824	20.4958
24.842	20.0512
24.86	19.5694
24.878	19.0574
24.896	18.5098
24.914	17.9305
24.932	17.3322
24.95	16.7205
24.968	16.0867
24.986	15.4445
25.004	14.808
25.022	14.1678
25.04	13.5297
25.058	12.9109
25.076	12.3178
25.094	11.7401
25.112	11.1922
25.13	10.6891
25.148	10.2223
25.166	9.795287
25.184	9.421238
25.202	9.106200
25.22	8.842247
25.238	8.636313
25.256	8.495948
25.274	8.419409
25.292	8.405163
25.31	8.455036
25.328	8.571103
25.346	8.753230
25.364	8.997075
25.382	9.298161
25.4	9.661065
25.418	10.0832
25.436	10.553
25.454	11.0629
25.472	11.6241
25.49	12.224
25.508	12.8459
25.526	13.4894
25.544	14.1621
25.562	14.8448
25.58	15.5195
25.598	16.199
25.616	16.8773
25.634	17.5356
25.652	18.1633
25.67	18.7749
25.688	19.3569
25.706	19.8925
25.724	20.3814
25.742	20.8304
25.76	21.2281
25.778	21.5642
25.796	21.843
25.814	22.0654
25.832	22.228
25.85	22.3274
25.868	22.3638
25.886	22.3419
25.904	22.2666
25.922	22.1358
25.94	21.9469
25.958	21.7125
25.976	21.4451
25.994	21.1362
26.012	20.788
26.03	20.4177
26.048	20.0395
26.066	19.6391
26.084	19.2251
26.102	18.8155
26.12	18.4213
26.138	18.0281
26.156	17.6467
26.174	17.2913
26.192	16.9668
26.21	16.6637
26.228	16.3904
26.246	16.1555
26.264	15.9609
26.282	15.802
26.3	15.68
26.318	15.5959
26.336	15.5521
26.354	15.546
26.372	15.5734
26.39	15.6305
26.408	15.7238
26.426	15.8484
26.444	15.9947
26.462	16.155
26.48	16.3387
26.498	16.5397
26.516	16.7471
26.534	16.9532
26.552	17.1686
26.57	17.3859
26.588	17.594
26.606	17.7864
26.624	17.9727
26.642	18.1463
26.66	18.2986
26.678	18.4244
26.696	18.5306
26.714	18.6137
26.732	18.6693
26.75	18.6947
26.768	18.693
26.786	18.6637
26.804	18.606
26.822	18.5184
26.84	18.4002
26.858	18.2554
26.876	18.0881
26.894	17.899
26.912	17.6829
26.93	17.4474
26.948	17.2006
26.966	16.9335
26.984	16.6202
27.002	16.314
27.02	16.0732
27.028	16.0095