File: Bakgrunnsmateriale/MATLAB/FTIR/ftir_data/LPE453/Mapping_121/LPE453_t107.asc
PE IR       SPECTRUM    SPECTRUM    ASCII       PEDS        1.60
  -1
LP9F86~1.ASC
17/05/16
23:07:12.00
17/05/16
23:07:39.00
tln
$LPE453_t0107$<tbV0>[-5.2,10.4,8.0,0.0,27,1,0]
27.028
64

2002,4.07
MIRTGS : RIGHTBACK : INTERNAL 2
MIR : ON : INTERNAL 2
OPTKBR

0.200000
8
8.000000
FILLER
RATIO
SPECTRUM
UNLOCKED 256

DOUBLE
64
COMBINED
1
0
0

0.002000
RATIO

1
0
TRUE
51149
0
LEFT NOT FITTED RIGHT NOT FITTED 0
NONE
NONE
15600
12
4.427000
51148
TRUE
1 0 8 72 0 0 0 0

15798

#HDR
-1
-1
#GR
µM
%T
2.38419e-05
0.0
2.000000
0.002000
12515
8
35.959
-8.684990
#DATA
2.000000	 -0.003767
2.018000	 0.197140
2.036000	 0.159788
2.054000	 0.599480
2.072000	 0.298047
2.090000	 0.121284
2.108000	 -0.098999
2.126000	 0.005011
2.144000	 1.541966
2.162000	 0.090764
2.180000	 0.548057
2.198000	 0.784309
2.216000	 0.784504
2.234000	 -2.619260
2.252000	 0.784108
2.270000	 0.329717
2.288000	 -0.011608
2.306000	 0.292569
2.324000	 0.014847
2.342000	 0.045571
2.360000	 0.346167
2.378000	 0.209044
2.396000	 0.253882
2.414000	 0.142729
2.432000	 0.067111
2.450000	 0.306951
2.468000	 0.045170
2.486000	 0.220094
2.504000	 0.338881
2.522000	 0.003089
2.540000	 -0.217751
2.558000	 0.160089
2.576000	 0.046821
2.594000	 0.043052
2.612000	 -0.156487
2.630000	 -0.034720
2.648000	 0.253804
2.666000	 -0.007232
2.684000	 0.000715
2.702000	 -0.055898
2.720000	 0.010477
2.738000	 -0.032863
2.756000	 0.156371
2.774000	 0.046537
2.792000	 0.089084
2.810000	 -0.019464
2.828000	 -0.069405
2.846000	 -0.125407
2.864000	 -0.041445
2.882000	 0.042453
2.900000	 0.051601
2.918000	 -0.008201
2.936000	 0.223504
2.954000	 -0.093085
2.972000	 0.062897
2.990000	 0.048919
3.008000	 0.073559
3.026000	 -0.049387
3.044000	 0.069058
3.062000	 0.099236
3.080000	 0.059836
3.098000	 -0.013852
3.116000	 -0.029790
3.134000	 0.229868
3.152000	 0.048856
3.170000	 0.175793
3.188000	 0.179183
3.206000	 0.023134
3.224000	 0.029427
3.242000	 -0.045403
3.260000	 0.148465
3.278000	 0.061098
3.296000	 0.077414
3.314000	 -0.009255
3.332000	 0.085568
3.350000	 0.030191
3.368000	 0.089019
3.386000	 0.077871
3.404000	 0.109778
3.422000	 0.129832
3.440000	 0.087248
3.458000	 0.024603
3.476000	 0.041112
3.494000	 -0.015838
3.512000	 0.048453
3.530000	 0.041106
3.548000	 0.054291
3.566000	 0.011636
3.584000	 0.099354
3.602000	 0.040088
3.620000	 0.061490
3.638000	 -0.023340
3.656000	 0.054719
3.674000	 -0.030208
3.692000	 -0.065555
3.710000	 0.116135
3.728000	 -0.000205
3.746000	 0.039918
3.764000	 0.069455
3.782000	 -0.004424
3.800000	 0.033812
3.818000	 0.006289
3.836000	 -0.022918
3.854000	 0.094279
3.872000	 0.007120
3.890000	 -0.014657
3.908000	 0.093053
3.926000	 0.046856
3.944000	 0.027656
3.962000	 0.068013
3.980000	 0.093422
3.998000	 0.073406
4.016000	 -0.045318
4.034000	 0.063043
4.052000	 -0.000331
4.070000	 0.098183
4.088000	 0.054538
4.106000	 -0.013922
4.124000	 -0.160993
4.141999	 0.088663
4.160000	 0.175112
4.178000	 0.173947
4.196000	 0.115701
4.214000	 0.046616
4.232000	 0.161055
4.250000	 0.249008
4.268000	 0.213531
4.286000	 0.258641
4.304000	 0.320136
4.322000	 0.428294
4.340000	 0.641719
4.358000	 0.759794
4.375999	 0.946876
4.394000	 1.132883
4.412000	 1.311261
4.430000	 1.540264
4.448000	 1.912577
4.466000	 2.319993
4.484000	 2.755709
4.502000	 3.242074
4.520000	 3.779412
4.538000	 4.425399
4.556000	 5.147402
4.574000	 5.776379
4.592000	 6.534360
4.609999	 7.515764
4.628000	 8.355765
4.646000	 9.218674
4.664000	 10.1428
4.682000	 11.1942
4.700000	 12.1366
4.718000	 13.0065
4.736000	 14.1292
4.754000	 15.1495
4.772000	 16.1073
4.790000	 17.0516
4.808000	 17.9478
4.826000	 18.7287
4.843999	 19.8799
4.862000	 20.6373
4.880000	 21.5781
4.898000	 22.3977
4.916000	 23.0637
4.934000	 23.6578
4.952000	 24.3821
4.970000	 25.1047
4.988000	 25.9034
5.006000	 26.4485
5.024000	 26.9483
5.042000	 27.4923
5.060000	 27.7686
5.077999	 28.1584
5.096000	 28.5972
5.114000	 29.0343
5.132000	 29.6401
5.150000	 30.1082
5.168000	 30.4015
5.186000	 30.5794
5.204000	 30.7057
5.222000	 30.7839
5.240000	 31.0759
5.258000	 31.4151
5.276000	 31.7688
5.294000	 32.1762
5.312000	 32.4814
5.330000	 32.5568
5.348000	 32.5176
5.366000	 32.5143
5.384000	 32.5484
5.402000	 32.7167
5.420000	 32.898
5.438000	 33.179
5.456000	 33.5025
5.474000	 33.6879
5.492000	 33.7284
5.510000	 33.6859
5.528000	 33.5539
5.546000	 33.3924
5.564000	 33.4586
5.582000	 33.6536
5.600000	 33.823
5.618000	 34.0474
5.636000	 34.2885
5.654000	 34.4021
5.672000	 34.3497
5.690000	 34.2307
5.708000	 34.0568
5.726000	 33.9528
5.744000	 33.8847
5.762000	 33.9235
5.780000	 34.1096
5.798000	 34.3325
5.816000	 34.5907
5.834000	 34.7507
5.852000	 34.6457
5.870000	 34.5496
5.888000	 34.4614
5.906000	 34.3314
5.923999	 34.1251
5.942000	 34.0347
5.960000	 34.0932
5.978000	 34.2456
5.996000	 34.5084
6.014000	 34.7489
6.032000	 34.9341
6.050000	 34.955
6.068000	 34.8192
6.086000	 34.7403
6.104000	 34.6547
6.122000	 34.4772
6.140000	 34.3216
6.158000	 34.3356
6.176000	 34.4011
6.194000	 34.5006
6.212000	 34.6745
6.230000	 34.8967
6.248000	 35.0311
6.266000	 35.0589
6.284000	 34.9981
6.302000	 34.8857
6.320000	 34.7052
6.338000	 34.5139
6.356000	 34.3733
6.374000	 34.2335
6.392000	 34.1827
6.410000	 34.255
6.428000	 34.4567
6.446000	 34.6989
6.464000	 34.8664
6.482000	 35.0034
6.500000	 35.0794
6.518000	 35.0638
6.536000	 35.0394
6.554000	 34.9405
6.572000	 34.7217
6.590000	 34.5282
6.608000	 34.3801
6.626000	 34.2267
6.644000	 34.1629
6.662000	 34.1843
6.680000	 34.2288
6.698000	 34.3719
6.716000	 34.5923
6.734000	 34.8126
6.752000	 34.9949
6.770000	 35.054
6.788000	 35.0305
6.806000	 34.9839
6.824000	 34.8098
6.842000	 34.4994
6.860000	 34.246
6.878000	 34.1734
6.896000	 34.1621
6.914000	 34.1224
6.932000	 34.1469
6.950000	 34.2475
6.968000	 34.3815
6.986000	 34.5633
7.004000	 34.7611
7.022000	 34.9141
7.040000	 34.9986
7.058000	 35.0207
7.076000	 34.9816
7.094000	 34.8401
7.112000	 34.6356
7.130000	 34.4876
7.148000	 34.3538
7.166000	 34.1598
7.184000	 34.004
7.202000	 33.9419
7.220000	 33.9387
7.238000	 34.0224
7.256000	 34.2059
7.274000	 34.4287
7.292000	 34.6293
7.310000	 34.7718
7.328000	 34.8574
7.346000	 34.8938
7.364000	 34.8762
7.382000	 34.8219
7.400000	 34.7442
7.418000	 34.6461
7.436000	 34.5357
7.454000	 34.3968
7.472000	 34.2342
7.490000	 34.1061
7.508000	 34.0374
7.526000	 34.0089
7.544000	 34.0105
7.562000	 34.0507
7.580000	 34.1541
7.598000	 34.3239
7.616000	 34.5141
7.634000	 34.6868
7.652000	 34.8254
7.670000	 34.9013
7.688000	 34.9053
7.706000	 34.8649
7.724000	 34.8019
7.742000	 34.7246
7.760000	 34.6253
7.778000	 34.4787
7.796000	 34.2991
7.814000	 34.1459
7.832000	 34.0309
7.850000	 33.9168
7.868000	 33.8105
7.886000	 33.7463
7.904000	 33.7203
7.922000	 33.7428
7.940000	 33.8598
7.958000	 34.0488
7.976000	 34.2221
7.994000	 34.3539
8.012000	 34.4885
8.030000	 34.6419
8.048000	 34.7795
8.065999	 34.8626
8.084000	 34.8698
8.102000	 34.8142
8.120000	 34.7426
8.138000	 34.6843
8.155999	 34.612
8.173999	 34.4809
8.192000	 34.2904
8.210000	 34.0852
8.228000	 33.9131
8.246000	 33.7934
8.263999	 33.7237
8.282000	 33.7089
8.300000	 33.7573
8.318000	 33.8498
8.336000	 33.9475
8.353999	 34.0411
8.372000	 34.1576
8.390000	 34.3055
8.408000	 34.4591
8.426000	 34.592
8.443999	 34.6866
8.462000	 34.7323
8.480000	 34.7377
8.498000	 34.7219
8.516000	 34.6952
8.533999	 34.6522
8.552000	 34.5802
8.570000	 34.4667
8.588000	 34.3083
8.606000	 34.1221
8.624000	 33.9485
8.641999	 33.8288
8.660000	 33.7717
8.678000	 33.7468
8.696000	 33.7159
8.714000	 33.6646
8.731999	 33.6069
8.750000	 33.5716
8.768000	 33.5852
8.786000	 33.6584
8.804000	 33.782
8.821999	 33.9348
8.840000	 34.0961
8.858000	 34.2491
8.876000	 34.3763
8.894000	 34.4603
8.911999	 34.4972
8.930000	 34.5046
8.948000	 34.5056
8.966000	 34.5035
8.984000	 34.473
9.001999	 34.3872
9.020000	 34.2513
9.038000	 34.1056
9.056000	 33.99
9.074000	 33.9071
9.092000	 33.8235
9.109999	 33.7075
9.128000	 33.5621
9.146000	 33.4216
9.164000	 33.3208
9.182000	 33.2707
9.199999	 33.2624
9.218000	 33.2817
9.236000	 33.3197
9.254000	 33.3726
9.272000	 33.4388
9.289999	 33.5204
9.308000	 33.6206
9.326000	 33.7385
9.344000	 33.8624
9.362000	 33.9735
9.379999	 34.061
9.398000	 34.1311
9.416000	 34.1987
9.434000	 34.2675
9.452000	 34.3172
9.469999	 34.315
9.488000	 34.243
9.506000	 34.1201
9.524000	 33.9943
9.542000	 33.9052
9.560000	 33.8524
9.577999	 33.8003
9.596000	 33.7141
9.614000	 33.5905
9.632000	 33.4555
9.650000	 33.3373
9.667999	 33.2435
9.686000	 33.1593
9.704000	 33.0689
9.722000	 32.9751
9.740000	 32.9022
9.757999	 32.8777
9.776000	 32.9121
9.794000	 32.9925
9.812000	 33.0939
9.830000	 33.1949
9.847999	 33.2887
9.866000	 33.3823
9.884000	 33.4884
9.902000	 33.6139
9.920000	 33.7523
9.937999	 33.8861
9.956000	 33.9983
9.974000	 34.0811
9.992000	 34.1361
10.01	34.1668
10.028	34.1714
10.046	34.1428
10.064	34.0767
10.082	33.9798
10.1	33.8719
10.118	33.7776
10.136	33.7124
10.154	33.674
10.172	33.6411
10.19	33.5829
10.208	33.4764
10.226	33.3194
10.244	33.1318
10.262	32.9474
10.28	32.7949
10.298	32.6889
10.316	32.6283
10.334	32.6026
10.352	32.6003
10.37	32.6132
10.388	32.6369
10.406	32.6693
10.424	32.7098
10.442	32.7616
10.46	32.8311
10.478	32.9256
10.496	33.0479
10.514	33.1919
10.532	33.3407
10.55	33.4736
10.568	33.5733
10.586	33.6336
10.604	33.6616
10.622	33.6731
10.64	33.6835
10.658	33.7012
10.676	33.7257
10.694	33.7504
10.712	33.7671
10.73	33.7696
10.748	33.7532
10.766	33.7139
10.784	33.6486
10.802	33.5551
10.82	33.4342
10.838	33.2907
10.856	33.1324
10.874	32.9684
10.892	32.806
10.91	32.6522
10.928	32.5124
10.946	32.3935
10.964	32.3025
10.982	32.2449
11	32.2213
11.018	32.226
11.036	32.2478
11.054	32.2733
11.072	32.2935
11.09	32.3064
11.108	32.3173
11.126	32.3347
11.144	32.3632
11.162	32.4013
11.18	32.4416
11.198	32.4761
11.216	32.5017
11.234	32.5224
11.252	32.5479
11.27	32.5875
11.288	32.6458
11.306	32.719
11.324	32.7978
11.342	32.8722
11.36	32.9367
11.378	32.9919
11.396	33.0425
11.414	33.093
11.432	33.1429
11.45	33.1861
11.468	33.2107
11.486	33.2051
11.504	33.1631
11.522	33.0861
11.54	32.9829
11.558	32.8671
11.576	32.7515
11.594	32.6421
11.612	32.5389
11.63	32.4357
11.648	32.325
11.666	32.2027
11.684	32.0712
11.702	31.9387
11.72	31.8167
11.738	31.7149
11.756	31.6368
11.774	31.5801
11.792	31.5389
11.81	31.5083
11.828	31.4873
11.846	31.4798
11.864	31.4924
11.882	31.5307
11.9	31.5956
11.918	31.6823
11.936	31.7805
11.954	31.878
11.972	31.9632
11.99	32.0291
12.008	32.0737
12.026	32.0998
12.044	32.1133
12.062	32.1222
12.08	32.1342
12.098	32.1555
12.116	32.191
12.134	32.2424
12.152	32.3089
12.17	32.3869
12.188	32.4701
12.206	32.551
12.224	32.6211
12.242	32.6727
12.26	32.7002
12.278	32.7001
12.296	32.6725
12.314	32.621
12.332	32.5514
12.35	32.4707
12.368	32.3846
12.386	32.2973
12.404	32.2102
12.422	32.1222
12.44	32.0303
12.458	31.9314
12.476	31.8241
12.494	31.7094
12.512	31.5914
12.53	31.4769
12.548	31.3734
12.566	31.2876
12.584	31.2235
12.602	31.1808
12.62	31.1561
12.638	31.1435
12.656	31.1369
12.674	31.1316
12.692	31.1259
12.71	31.12
12.728	31.116
12.746	31.1154
12.764	31.1185
12.782	31.1238
12.8	31.1281
12.818	31.1279
12.836	31.1199
12.854	31.1032
12.872	31.0795
12.89	31.0528
12.908	31.0281
12.926	31.0109
12.944	31.0054
12.962	31.0145
12.98	31.0388
12.998	31.0776
13.016	31.129
13.034	31.191
13.052	31.2614
13.07	31.3381
13.088	31.419
13.106	31.5012
13.124	31.5813
13.142	31.6543
13.16	31.7147
13.178	31.7565
13.196	31.7744
13.214	31.7652
13.232	31.7293
13.25	31.6705
13.268	31.596
13.286	31.5146
13.304	31.4361
13.322	31.3682
13.34	31.3158
13.358	31.2795
13.376	31.2561
13.394	31.2394
13.412	31.2218
13.43	31.1955
13.448	31.1543
13.466	31.0951
13.484	31.018
13.502	30.9261
13.52	30.8249
13.538	30.7212
13.556	30.6215
13.574	30.5313
13.592	30.454
13.61	30.3904
13.628	30.3389
13.646	30.2954
13.664	30.2549
13.682	30.2117
13.7	30.1619
13.718	30.1027
13.736	30.0351
13.754	29.9621
13.772	29.8894
13.79	29.8232
13.808	29.7703
13.826	29.7358
13.844	29.7229
13.862	29.7324
13.88	29.763
13.898	29.8111
13.916	29.8721
13.934	29.9405
13.952	30.011
13.97	30.0787
13.988	30.14
14.006	30.1925
14.024	30.2354
14.042	30.2691
14.06	30.2953
14.078	30.3162
14.096	30.3344
14.114	30.3524
14.132	30.3722
14.15	30.395
14.168	30.4212
14.186	30.4502
14.204	30.481
14.222	30.5125
14.24	30.5442
14.258	30.5762
14.276	30.6091
14.294	30.6435
14.312	30.6802
14.33	30.7192
14.348	30.7596
14.366	30.7994
14.384	30.835
14.402	30.8626
14.42	30.8781
14.438	30.8784
14.456	30.8615
14.474	30.8271
14.492	30.7763
14.51	30.7121
14.528	30.6387
14.546	30.5605
14.564	30.4817
14.582	30.4057
14.6	30.335
14.618	30.2706
14.636	30.2128
14.654	30.1606
14.672	30.1127
14.69	30.0673
14.708	30.0223
14.726	29.9756
14.744	29.9246
14.762	29.8672
14.78	29.8015
14.798	29.7262
14.816	29.6407
14.834	29.5456
14.852	29.4431
14.87	29.3368
14.888	29.2308
14.906	29.1296
14.924	29.0383
14.942	28.9612
14.96	28.9016
14.978	28.8609
14.996	28.839
15.014	28.8349
15.032	28.8456
15.05	28.8672
15.068	28.8958
15.086	28.9274
15.104	28.9587
15.122	28.9867
15.14	29.0099
15.158	29.0275
15.176	29.0396
15.194	29.0464
15.212	29.0487
15.23	29.0468
15.248	29.041
15.266	29.0315
15.284	29.0183
15.302	29.0016
15.32	28.9819
15.338	28.9602
15.356	28.9382
15.374	28.9185
15.392	28.9038
15.41	28.897
15.428	28.9012
15.446	28.9192
15.464	28.9523
15.482	29.0006
15.5	29.0638
15.518	29.1389
15.536	29.2226
15.554	29.3114
15.572	29.4008
15.59	29.4863
15.608	29.5651
15.626	29.6352
15.644	29.6951
15.662	29.7452
15.68	29.7866
15.698	29.8202
15.716	29.8479
15.734	29.8708
15.752	29.8893
15.77	29.9035
15.788	29.9123
15.806	29.9144
15.824	29.9083
15.842	29.8926
15.86	29.8658
15.878	29.8278
15.896	29.7786
15.914	29.7191
15.932	29.6513
15.95	29.5769
15.968	29.4981
15.986	29.4176
16.004	29.3367
16.022	29.2568
16.04	29.179
16.058	29.1034
16.076	29.0302
16.094	28.959
16.112	28.8897
16.13	28.8222
16.148	28.7564
16.166	28.6926
16.184	28.631
16.202	28.572
16.22	28.5158
16.238	28.4621
16.256	28.4108
16.274	28.3611
16.292	28.3119
16.31	28.2625
16.328	28.2116
16.346	28.1583
16.364	28.1021
16.382	28.0427
16.4	27.9809
16.418	27.9174
16.436	27.8541
16.454	27.7929
16.472	27.7353
16.49	27.684
16.508	27.641
16.526	27.6075
16.544	27.5851
16.562	27.5739
16.58	27.5741
16.598	27.5849
16.616	27.6047
16.634	27.6323
16.652	27.6652
16.67	27.7016
16.688	27.7398
16.706	27.7772
16.724	27.8125
16.742	27.8444
16.76	27.8718
16.778	27.8943
16.796	27.9119
16.814	27.9247
16.832	27.9329
16.85	27.9373
16.868	27.9388
16.886	27.9381
16.904	27.9364
16.922	27.9346
16.94	27.9335
16.958	27.9341
16.976	27.9367
16.994	27.942
17.012	27.9499
17.03	27.9605
17.048	27.9733
17.066	27.9879
17.084	28.0036
17.102	28.0192
17.12	28.0343
17.138	28.0475
17.156	28.0584
17.174	28.0664
17.192	28.0711
17.21	28.0727
17.228	28.0711
17.246	28.067
17.264	28.0608
17.282	28.0537
17.3	28.0462
17.318	28.0393
17.336	28.0338
17.354	28.0302
17.372	28.0293
17.39	28.0311
17.408	28.0359
17.426	28.0438
17.444	28.0546
17.462	28.068
17.48	28.0838
17.498	28.1016
17.516	28.1209
17.534	28.1412
17.552	28.1619
17.57	28.1826
17.588	28.2019
17.606	28.2194
17.624	28.234
17.642	28.2443
17.66	28.2495
17.678	28.2477
17.696	28.2385
17.714	28.2199
17.732	28.1915
17.75	28.1523
17.768	28.1019
17.786	28.0401
17.804	27.9676
17.822	27.8849
17.84	27.7934
17.858	27.6945
17.876	27.5897
17.894	27.4815
17.912	27.3711
17.93	27.2616
17.948	27.1536
17.966	27.0502
17.984	26.9518
18.002	26.8604
18.02	26.7762
18.038	26.7002
18.056	26.6322
18.074	26.5724
18.092	26.5202
18.11	26.4754
18.128	26.4374
18.146	26.4056
18.164	26.3793
18.182	26.3579
18.2	26.3407
18.218	26.327
18.236	26.3164
18.254	26.3082
18.272	26.3022
18.29	26.2974
18.308	26.2938
18.326	26.2906
18.344	26.2877
18.362	26.2843
18.38	26.2803
18.398	26.2754
18.416	26.2696
18.434	26.2626
18.452	26.2548
18.47	26.2461
18.488	26.2371
18.506	26.2278
18.524	26.2191
18.542	26.2111
18.56	26.2048
18.578	26.2002
18.596	26.1983
18.614	26.1993
18.632	26.2041
18.65	26.2125
18.668	26.2252
18.686	26.2421
18.704	26.2633
18.722	26.2888
18.74	26.3178
18.758	26.3501
18.776	26.3846
18.794	26.4208
18.812	26.4569
18.83	26.4923
18.848	26.5254
18.866	26.5555
18.884	26.5806
18.902	26.6003
18.92	26.613
18.938	26.6186
18.956	26.6159
18.974	26.6053
18.992	26.5863
19.01	26.5596
19.028	26.5257
19.046	26.4855
19.064	26.4401
19.082	26.3905
19.1	26.3386
19.118	26.2852
19.136	26.2326
19.154	26.1813
19.172	26.1336
19.19	26.0897
19.208	26.0516
19.226	26.0191
19.244	25.9935
19.262	25.9748
19.28	25.9633
19.298	25.9589
19.316	25.9611
19.334	25.9699
19.352	25.984
19.37	26.0036
19.388	26.027
19.406	26.0541
19.424	26.0832
19.442	26.1143
19.46	26.1455
19.478	26.1768
19.496	26.2068
19.514	26.2351
19.532	26.261
19.55	26.2839
19.568	26.3033
19.586	26.3189
19.604	26.3306
19.622	26.3382
19.64	26.3418
19.658	26.3416
19.676	26.3376
19.694	26.3306
19.712	26.3205
19.73	26.3081
19.748	26.2935
19.766	26.2775
19.784	26.2603
19.802	26.242
19.82	26.2231
19.838	26.2035
19.856	26.1836
19.874	26.163
19.892	26.1414
19.91	26.1187
19.928	26.0939
19.946	26.0672
19.964	26.0373
19.982	26.0041
20	25.9669
20.018	25.9253
20.036	25.8792
20.054	25.8282
20.072	25.7726
20.09	25.7127
20.108	25.6486
20.126	25.5819
20.144	25.5122
20.162	25.4417
20.18	25.3709
20.198	25.301
20.216	25.2339
20.234	25.1695
20.252	25.1104
20.27	25.0561
20.288	25.0084
20.306	24.9675
20.324	24.9334
20.342	24.9069
20.36	24.8875
20.378	24.8747
20.396	24.8687
20.414	24.8678
20.432	24.8724
20.45	24.8807
20.468	24.8921
20.486	24.9059
20.504	24.9203
20.522	24.9357
20.54	24.9501
20.558	24.9637
20.576	24.9756
20.594	24.9855
20.612	24.9932
20.63	24.998
20.648	25.0002
20.666	24.9997
20.684	24.9965
20.702	24.9909
20.72	24.9829
20.738	24.9728
20.756	24.9614
20.774	24.9484
20.792	24.9347
20.81	24.9202
20.828	24.9054
20.846	24.8911
20.864	24.8772
20.882	24.8647
20.9	24.8533
20.918	24.8441
20.936	24.8375
20.954	24.8335
20.972	24.8334
20.99	24.837
21.008	24.8448
21.026	24.8574
21.044	24.8744
21.062	24.8963
21.08	24.923
21.098	24.9539
21.116	24.9893
21.134	25.0286
21.152	25.0709
21.17	25.1166
21.188	25.1638
21.206	25.2126
21.224	25.262
21.242	25.3104
21.26	25.3581
21.278	25.4033
21.296	25.4458
21.314	25.485
21.332	25.5197
21.35	25.5501
21.368	25.5754
21.386	25.5953
21.404	25.6098
21.422	25.6183
21.44	25.621
21.458	25.6182
21.476	25.6098
21.494	25.596
21.512	25.5773
21.53	25.5536
21.548	25.5254
21.566	25.4929
21.584	25.4562
21.602	25.4157
21.62	25.3713
21.638	25.3233
21.656	25.272
21.674	25.2173
21.692	25.1595
21.71	25.0986
21.728	25.0348
21.746	24.9688
21.764	24.9001
21.782	24.8298
21.8	24.7582
21.818	24.6851
21.836	24.6119
21.854	24.5381
21.872	24.4646
21.89	24.3928
21.908	24.3219
21.926	24.2537
21.944	24.189
21.962	24.1276
21.98	24.0716
21.998	24.0211
22.016	23.9764
22.034	23.9387
22.052	23.9076
22.07	23.8839
22.088	23.8684
22.106	23.8607
22.124	23.8614
22.142	23.8706
22.16	23.8882
22.178	23.9142
22.196	23.9487
22.214	23.9912
22.232	24.0408
22.25	24.098
22.268	24.1615
22.286	24.2308
22.304	24.3061
22.322	24.3855
22.34	24.4692
22.358	24.5566
22.376	24.6455
22.394	24.7366
22.412	24.8288
22.43	24.9198
22.448	25.0107
22.466	25.0998
22.484	25.1856
22.502	25.2689
22.52	25.348
22.538	25.4223
22.556	25.4921
22.574	25.5563
22.592	25.6147
22.61	25.6675
22.628	25.7143
22.646	25.7549
22.664	25.7897
22.682	25.8194
22.7	25.8435
22.718	25.863
22.736	25.8787
22.754	25.8899
22.772	25.8982
22.79	25.9048
22.808	25.9091
22.826	25.9122
22.844	25.9147
22.862	25.9163
22.88	25.9176
22.898	25.9193
22.916	25.9211
22.934	25.9219
22.952	25.9218
22.97	25.9208
22.988	25.9174
23.006	25.9118
23.024	25.9036
23.042	25.8901
23.06	25.8714
23.078	25.8472
23.096	25.8144
23.114	25.7733
23.132	25.7237
23.15	25.6627
23.168	25.5901
23.186	25.5063
23.204	25.4101
23.222	25.3012
23.24	25.1802
23.258	25.0474
23.276	24.9023
23.294	24.7458
23.312	24.5804
23.33	24.4051
23.348	24.2212
23.366	24.0325
23.384	23.8382
23.402	23.6392
23.42	23.4406
23.438	23.2419
23.456	23.0433
23.474	22.8497
23.492	22.6615
23.51	22.4781
23.528	22.303
23.546	22.1371
23.564	21.9795
23.582	21.8323
23.6	21.6964
23.618	21.5711
23.636	21.457
23.654	21.3548
23.672	21.2643
23.69	21.1843
23.708	21.1146
23.726	21.0558
23.744	21.0055
23.762	20.962
23.78	20.9267
23.798	20.8974
23.816	20.872
23.834	20.8516
23.852	20.8351
23.87	20.8205
23.888	20.8083
23.906	20.7984
23.924	20.7891
23.942	20.7804
23.96	20.7725
23.978	20.7649
23.996	20.7574
24.014	20.7501
24.032	20.7429
24.05	20.7357
24.068	20.7283
24.086	20.7211
24.104	20.7141
24.122	20.707
24.14	20.7003
24.158	20.6947
24.176	20.6897
24.194	20.6858
24.212	20.684
24.23	20.6846
24.248	20.6872
24.266	20.6923
24.284	20.7
24.302	20.71
24.32	20.7227
24.338	20.7383
24.356	20.7564
24.374	20.7776
24.392	20.8027
24.41	20.8313
24.428	20.8635
24.446	20.9004
24.464	20.9423
24.482	20.9886
24.5	21.0403
24.518	21.0982
24.536	21.1619
24.554	21.2314
24.572	21.3073
24.59	21.3896
24.608	21.478
24.626	21.5722
24.644	21.6723
24.662	21.7786
24.68	21.8895
24.698	22.0037
24.716	22.123
24.734	22.2452
24.752	22.367
24.77	22.489
24.788	22.6116
24.806	22.7312
24.824	22.8455
24.842	22.9573
24.86	23.0634
24.878	23.16
24.896	23.2478
24.914	23.3271
24.932	23.3963
24.95	23.4541
24.968	23.5012
24.986	23.5383
25.004	23.5656
25.022	23.5813
25.04	23.5876
25.058	23.5885
25.076	23.585
25.094	23.5745
25.112	23.5623
25.13	23.5536
25.148	23.5435
25.166	23.5356
25.184	23.5384
25.202	23.555
25.22	23.5795
25.238	23.6207
25.256	23.6877
25.274	23.776
25.292	23.8867
25.31	24.0277
25.328	24.2034
25.346	24.4094
25.364	24.648
25.382	24.9226
25.4	25.2341
25.418	25.5807
25.436	25.9604
25.454	26.3727
25.472	26.8211
25.49	27.2997
25.508	27.8009
25.526	28.3263
25.544	28.8791
25.562	29.4459
25.58	30.0143
25.598	30.5954
25.616	31.1824
25.634	31.758
25.652	32.3133
25.67	32.8628
25.688	33.3904
25.706	33.8765
25.724	34.3226
25.742	34.7357
25.76	35.0984
25.778	35.3946
25.796	35.6331
25.814	35.8127
25.832	35.9238
25.85	35.959
25.868	35.9237
25.886	35.8185
25.904	35.6432
25.922	35.3949
25.94	35.0738
25.958	34.6888
25.976	34.2487
25.994	33.7457
26.012	33.1828
26.03	32.5764
26.048	31.9397
26.066	31.2573
26.084	30.5401
26.102	29.8081
26.12	29.0733
26.138	28.3181
26.156	27.5578
26.174	26.8116
26.192	26.0853
26.21	25.3656
26.228	24.6671
26.246	24.0054
26.264	23.3808
26.282	22.7862
26.3	22.2304
26.318	21.7219
26.336	21.2596
26.354	20.8405
26.372	20.466
26.39	20.1373
26.408	19.8566
26.426	19.6206
26.444	19.4246
26.462	19.2651
26.48	19.1492
26.498	19.0703
26.516	19.0187
26.534	18.9872
26.552	18.9846
26.57	19.0052
26.588	19.0403
26.606	19.0842
26.624	19.144
26.642	19.2155
26.66	19.2927
26.678	19.3714
26.696	19.4544
26.714	19.543
26.732	19.6381
26.75	19.7391
26.768	19.8438
26.786	19.9566
26.804	20.0825
26.822	20.222
26.84	20.3687
26.858	20.5319
26.876	20.7217
26.894	20.9417
26.912	21.1825
26.93	21.4528
26.948	21.763
26.966	22.1463
26.984	22.6355
27.002	23.1303
27.02	23.5225
27.028	23.6245