File: Bakgrunnsmateriale/MATLAB/FTIR/ftir_data/LPE453/Mapping_121/LPE453_t39_cm-1.asc
PE IR       SPECTRUM    SPECTRUM    ASCII       PEDS        1.60
  -1
LPE8D9~1.ASC
17/05/16
17:31:40.00
17/05/16
17:31:40.00
tln
$LPE453_t0039$<tbV0>[0.0,-5.2,8.0,0.0,27,1,0]
370
64

2002,4.07
MIRTGS : RIGHTBACK : INTERNAL 2
MIR : ON : INTERNAL 2
OPTKBR

0.200000
8
8.000000
FILLER
RATIO
SPECTRUM
UNLOCKED 256

DOUBLE
64
COMBINED
1
0
0

1.000000
RATIO

1
0
TRUE
51149
0
LEFT NOT FITTED RIGHT NOT FITTED 0
NONE
NONE
15600
12
4.427000
51148
TRUE
1 0 8 72 0 0 0 0

15798

#HDR
-1
-1
#GR
CM-1
%T
2.38419e-05
0.0
5000
-1.000000
4631
8
38.4603
-5.418682
#DATA
5000	-0.064992
4996	0.279426
4992	0.538468
4988	0.381970
4984	0.228738
4980	0.252437
4976	0.266504
4972	0.198006
4968	-0.038146
4964	-0.173354
4960	-0.004577
4956	0.043773
4952	-0.067663
4948	0.021791
4944	0.184321
4940	0.275635
4936	0.241494
4932	0.137162
4928	0.250744
4924	0.397610
4920	0.138664
4916	-0.168132
4912	-0.028395
4908	0.165796
4904	0.208044
4900	0.271463
4896	0.082278
4892	-0.087380
4888	0.093412
4884	0.070357
4880	-0.160598
4876	-0.152373
4872	-0.043296
4868	0.080108
4864	0.235581
4860	0.282931
4856	0.285935
4852	0.320696
4848	0.300836
4844	0.264096
4840	0.201487
4836	0.100183
4832	0.180649
4828	0.350594
4824	0.286221
4820	0.151634
4816	0.090479
4812	0.008130
4808	0.055265
4804	0.187921
4800	0.130629
4796	-0.030660
4792	-0.110435
4788	-0.091433
4784	-0.021338
4780	0.086545
4776	0.171780
4772	0.285148
4768	0.496983
4764	0.547838
4760	0.373053
4756	0.183916
4752	0.124526
4748	0.176644
4744	0.153255
4740	0.014424
4736	-0.149273
4732	-0.210976
4728	-0.159573
4724	-0.085496
4720	0.000596
4716	0.100326
4712	0.195097
4708	0.246834
4704	0.242996
4700	0.187492
4696	0.065732
4692	-0.088882
4688	-0.194358
4684	-0.221967
4680	-0.225639
4676	-0.274062
4672	-0.205183
4668	0.166344
4664	0.569009
4660	0.577902
4656	0.452470
4652	0.411939
4648	0.174474
4644	-0.022196
4640	-0.018477
4636	-0.023746
4632	-0.036644
4628	0.013995
4624	0.046110
4620	-0.029873
4616	-0.050330
4612	-0.068449
4608	-0.176739
4604	-0.282740
4600	-0.340771
4596	-0.408458
4592	-0.455999
4588	-0.346875
4584	-0.274205
4580	-0.147867
4576	0.394821
4572	0.766134
4568	0.415611
4564	-0.006294
4560	0.017499
4556	0.339794
4552	0.781583
4548	0.719022
4544	0.212645
4540	0.294208
4536	1.067781
4532	1.824522
4528	2.488756
4524	2.982306
4520	-0.490689
4516	-5.141210
4512	-3.621792
4508	0.920701
4504	2.812552
4500	2.008914
4496	0.883340
4492	0.665688
4488	0.815010
4484	0.926709
4480	1.157951
4476	1.093912
4472	0.507450
4468	0.019240
4464	-0.094032
4460	0.073480
4456	0.259470
4452	0.522947
4448	0.877261
4444	0.896191
4440	0.537610
4436	0.218677
4432	0.188755
4428	0.257682
4424	0.147438
4420	0.069570
4416	0.173377
4412	0.229072
4408	0.195360
4404	0.291943
4400	0.346732
4396	0.255751
4392	0.276947
4388	0.323939
4384	0.224256
4380	0.231647
4376	0.364375
4372	0.363898
4368	0.310325
4364	0.262475
4360	0.201869
4356	0.153183
4352	0.130772
4348	0.069642
4344	-0.008583
4340	-0.052809
4336	-0.056672
4332	-0.002312
4328	-0.000119
4324	0.046157
4320	0.131702
4316	0.052094
4312	0.026583
4308	-0.020337
4304	-0.155997
4300	-0.229239
4296	-0.176787
4292	0.038146
4288	0.243282
4284	0.297999
4280	0.223374
4276	0.177311
4272	0.205993
4268	0.153994
4264	0.080394
4260	0.121235
4256	0.242686
4252	0.346493
4248	0.395727
4244	0.384593
4240	0.249290
4236	0.063443
4232	0.020194
4228	0.100731
4224	0.079727
4220	-0.072312
4216	-0.077915
4212	0.045657
4208	0.075173
4204	0.041985
4200	-0.030112
4196	0.076127
4192	0.441050
4188	0.608611
4184	0.498723
4180	0.358080
4176	0.251054
4172	0.075602
4168	-0.027799
4164	-0.025486
4160	-0.034952
4156	0.043320
4152	0.079965
4148	0.045061
4144	-0.029349
4140	-0.127983
4136	-0.054168
4132	0.012397
4128	-0.013661
4124	0.098609
4120	0.149202
4116	-0.019526
4112	-0.060725
4108	0.111460
4104	0.138950
4100	-0.010895
4096	-0.103664
4092	-0.109410
4088	-0.033712
4084	0.083923
4080	0.145506
4076	0.127124
4072	0.070261
4068	0.013780
4064	0.002551
4060	0.028753
4056	0.035572
4052	0.039219
4048	0.011777
4044	-0.027871
4040	0.069928
4036	0.238633
4032	0.311112
4028	0.314426
4024	0.257992
4020	0.184297
4016	0.218987
4012	0.252652
4008	0.139880
4004	0.012993
4000	0.024032
3996	0.093698
3992	0.159788
3988	0.185990
3984	0.148987
3980	0.135827
3976	0.156497
3972	0.185370
3968	0.111532
3964	-0.055742
3960	-0.140500
3956	-0.138401
3952	-0.101494
3948	-0.054168
3944	0.006985
3940	0.019383
3936	-0.043797
3932	-0.028586
3928	0.112271
3924	0.200557
3920	0.132560
3916	0.033736
3912	-0.024843
3908	-0.041198
3904	0.003790
3900	0.005102
3896	-0.074219
3892	-0.083184
3888	-0.014376
3884	0.065875
3880	0.211215
3876	0.311422
3872	0.189161
3868	-0.024461
3864	-0.112271
3860	-0.135135
3856	-0.182652
3852	-0.182962
3848	-0.142598
3844	-0.135922
3840	-0.109839
3836	-0.038337
3832	0.102424
3828	0.290417
3824	0.311350
3820	0.199103
3816	0.189185
3812	0.141549
3808	-0.038146
3804	-0.092267
3800	0.014948
3796	0.085687
3792	0.127768
3788	0.186157
3784	0.128197
3780	0.050449
3776	0.101041
3772	0.116205
3768	0.053930
3764	0.034093
3760	0.048422
3756	0.063681
3752	0.049662
3748	-0.043511
3744	-0.054168
3740	0.071406
3736	0.097131
3732	0.063395
3728	0.095391
3724	0.108671
3720	0.034666
3716	-0.052523
3712	-0.072765
3708	-0.045418
3704	0.001144
3700	0.019931
3696	-0.007939
3692	-0.037741
3688	-0.039172
3684	-0.026416
3680	0.044584
3676	0.116968
3672	0.106835
3668	0.110769
3664	0.116252
3660	0.110220
3656	0.108551
3652	0.045895
3648	-0.023698
3644	-0.077509
3640	-0.121569
3636	-0.103664
3632	-0.065708
3628	-0.038051
3624	-0.054621
3620	-0.054144
3616	0.028991
3612	0.094795
3608	0.094532
3604	0.117492
3600	0.136423
3596	0.059485
3592	-0.026321
3588	-0.048995
3584	-0.035023
3580	0.032901
3576	0.054574
3572	-0.019717
3568	-0.066685
3564	-0.029587
3560	-0.022101
3556	-0.076103
3552	-0.071859
3548	-0.021409
3544	0.022482
3540	0.042223
3536	0.024986
3532	0.024771
3528	0.042438
3524	0.101256
3520	0.135064
3516	0.090456
3512	0.119900
3508	0.173306
3504	0.124573
3500	0.061273
3496	0.033521
3492	0.095868
3488	0.269675
3484	0.357389
3480	0.260090
3476	0.137686
3472	0.095939
3468	0.055456
3464	-0.026178
3460	-0.042557
3456	0.065875
3452	0.195670
3448	0.254058
3444	0.208139
3440	0.075411
3436	0.005102
3432	0.021624
3428	0.018668
3424	0.003242
3420	0.028395
3416	0.072979
3412	0.058770
3408	0.030422
3404	0.047707
3400	0.098323
3396	0.169801
3392	0.215506
3388	0.169682
3384	0.035429
3380	-0.029802
3376	0.086593
3372	0.181531
3368	0.063610
3364	-0.038933
3360	-0.010013
3356	-0.007367
3352	-0.017857
3348	0.020694
3344	0.097560
3340	0.176191
3336	0.167918
3332	0.063848
3328	-0.022339
3324	-0.046038
3320	-0.024247
3316	0.005149
3312	0.028872
3308	0.050544
3304	0.047421
3300	0.074744
3296	0.107336
3292	0.087141
3288	0.031638
3284	-0.016927
3280	-0.007534
3276	-0.022101
3272	-0.136351
3268	-0.206804
3264	-0.096225
3260	0.066566
3256	0.167608
3252	0.207257
3248	0.124835
3244	-0.021862
3240	-0.080370
3236	-0.080943
3232	-0.067305
3228	0.018024
3224	0.055789
3220	-0.014567
3216	0.013923
3212	0.165510
3208	0.194239
3204	0.085639
3200	0.081634
3196	0.157022
3192	0.094509
3188	-0.035715
3184	-0.057888
3180	0.036549
3176	0.111174
3172	0.061678
3168	0.005698
3164	0.024747
3160	0.055837
3156	0.107526
3152	0.161719
3148	0.126457
3144	0.104022
3140	0.161814
3136	0.151777
3132	0.104427
3128	0.133323
3124	0.172758
3120	0.126218
3116	0.037121
3112	-0.010395
3108	0.049662
3104	0.187134
3100	0.241804
3096	0.206136
3092	0.156188
3088	0.083327
3084	0.042557
3080	0.080823
3076	0.109100
3072	0.083160
3068	0.072145
3064	0.118374
3060	0.180792
3056	0.207591
3052	0.160169
3048	0.048327
3044	-0.031805
3040	-0.000596
3036	0.095200
3032	0.104093
3028	0.040388
3024	0.041770
3020	0.033688
3016	-0.039649
3012	-0.089073
3008	-0.065684
3004	0.016927
3000	0.043678
2996	0.020146
2992	0.054812
2988	0.093150
2984	0.076007
2980	0.038695
2976	0.016117
2972	0.032186
2968	0.055003
2964	0.085330
2960	0.137376
2956	0.107741
2952	0.005555
2948	-0.066757
2944	-0.010824
2940	0.124144
2936	0.078392
2932	-0.021791
2928	0.075840
2924	0.193548
2920	0.153183
2916	0.004816
2912	-0.067400
2908	-0.043320
2904	-0.042724
2900	-0.020027
2896	0.008749
2892	0.020813
2888	0.060296
2884	0.059127
2880	0.026488
2876	0.019979
2872	-0.001668
2868	-0.028133
2864	-0.003170
2860	0.016689
2856	0.012803
2852	0.016355
2848	0.018501
2844	0.023341
2840	0.014805
2836	0.013399
2832	0.037050
2828	0.065565
2824	0.088644
2820	0.103497
2816	0.090050
2812	0.053310
2808	0.036025
2804	0.028324
2800	0.015473
2796	0.050687
2792	0.089550
2788	0.048899
2784	-0.010991
2780	-0.033068
2776	-0.014519
2772	0.023674
2768	0.030946
2764	-0.010395
2760	-0.068306
2756	-0.074911
2752	-0.000286
2748	0.068140
2744	0.053191
2740	0.023198
2736	0.022721
2732	0.042343
2728	0.056266
2724	0.027465
2720	0.003433
2716	0.031995
2712	0.071096
2708	0.021409
2704	-0.066351
2700	-0.065732
2696	-0.007605
2692	0.029730
2688	0.027084
2684	-0.008082
2680	-0.030970
2676	-0.048971
2672	-0.100088
2668	-0.111031
2664	-0.022435
2660	0.065231
2656	0.075697
2652	0.057244
2648	0.019168
2644	-0.019717
2640	-0.033497
2636	-0.052428
2632	-0.066184
2628	-0.042724
2624	-0.007486
2620	0.037884
2616	0.084805
2612	0.077056
2608	0.073933
2604	0.081515
2600	0.062990
2596	0.059676
2592	0.041794
2588	0.024008
2584	0.045490
2580	0.055503
2576	0.069880
2572	0.088357
2568	0.050449
2564	0.008749
2560	0.001621
2556	0.037670
2552	0.108361
2548	0.117230
2544	0.080347
2540	0.066661
2536	0.058460
2532	0.019145
2528	-0.040483
2524	-0.040173
2520	-0.024962
2516	-0.081372
2512	-0.138306
2508	-0.129485
2504	-0.099778
2500	-0.121140
2496	-0.135183
2492	-0.124883
2488	-0.102019
2484	-0.015997
2480	0.060749
2476	0.051856
2472	0.042557
2468	0.101089
2464	0.195765
2460	0.205397
2456	0.110316
2452	0.024628
2448	-0.014543
2444	-0.048446
2440	-0.023436
2436	-0.037622
2432	-0.159907
2428	-0.111079
2424	0.083398
2420	0.071430
2416	-0.013351
2412	0.023818
2408	0.003647
2404	-0.053787
2400	-0.049686
2396	-0.006914
2392	0.045442
2388	0.039958
2384	0.001955
2380	-0.008392
2376	-0.007843
2372	-0.019311
2368	-0.013518
2364	0.049138
2360	0.112891
2356	0.068163
2352	-0.017619
2348	-0.043678
2344	-0.030398
2340	0.006437
2336	0.022172
2332	0.038313
2328	0.103592
2324	0.120377
2320	0.062155
2316	0.044918
2312	0.057339
2308	0.054144
2304	0.101280
2300	0.214862
2296	0.299715
2292	0.315380
2288	0.284504
2284	0.253224
2280	0.280618
2276	0.321388
2272	0.329613
2268	0.346112
2264	0.389194
2260	0.418090
2256	0.473046
2252	0.592803
2248	0.688648
2244	0.710630
2240	0.722479
2236	0.778436
2232	0.878763
2228	1.024675
2224	1.161074
2220	1.268339
2216	1.403665
2212	1.536703
2208	1.651382
2204	1.828861
2200	2.057218
2196	2.231812
2192	2.367639
2188	2.553224
2184	2.814173
2180	3.127527
2176	3.438091
2172	3.707957
2168	3.971695
2164	4.296445
2160	4.691839
2156	5.042433
2152	5.266332
2148	5.474853
2144	5.744791
2140	6.057548
2136	6.410813
2132	6.768083
2128	7.172799
2124	7.688522
2120	8.205652
2116	8.675265
2112	9.144377
2108	9.597706
2104	10.023
2100	10.4292
2096	10.8
2092	11.135
2088	11.5465
2084	12.0497
2080	12.473
2076	12.9
2072	13.4451
2068	13.892
2064	14.2839
2060	14.7994
2056	15.2816
2052	15.6473
2048	16.0258
2044	16.4637
2040	16.8958
2036	17.3382
2032	17.8081
2028	18.2551
2024	18.6498
2020	19.0081
2016	19.3716
2012	19.7165
2008	20.0211
2004	20.3562
2000	20.7373
1996	21.1074
1992	21.4491
1988	21.7246
1984	21.9715
1980	22.2893
1976	22.6389
1972	22.9467
1968	23.2156
1964	23.4648
1960	23.7388
1956	24.0175
1952	24.2318
1948	24.4494
1944	24.72
1940	24.9924
1936	25.1928
1932	25.3351
1928	25.5143
1924	25.773
1920	26.0509
1916	26.2691
1912	26.4407
1908	26.5654
1904	26.6738
1900	26.8352
1896	27.0365
1892	27.2201
1888	27.3665
1884	27.4868
1880	27.5978
1876	27.7451
1872	27.8973
1868	27.9441
1864	27.9775
1860	28.1511
1856	28.3617
1852	28.5283
1848	28.6638
1844	28.7286
1840	28.7732
1836	28.8429
1832	28.9104
1828	28.9839
1824	29.0676
1820	29.135
1816	29.1905
1812	29.2656
1808	29.3516
1804	29.4258
1800	29.4942
1796	29.5607
1792	29.6189
1788	29.6302
1784	29.5864
1780	29.5893
1776	29.6698
1772	29.7426
1768	29.7973
1764	29.8625
1760	29.9211
1756	29.957
1752	29.9809
1748	30.0027
1744	30.0416
1740	30.1001
1736	30.1122
1732	30.1023
1728	30.1664
1724	30.2097
1720	30.1589
1716	30.1676
1712	30.2601
1708	30.3305
1704	30.3514
1700	30.3224
1696	30.2812
1692	30.2791
1688	30.2942
1684	30.2705
1680	30.243
1676	30.2579
1672	30.292
1668	30.3454
1664	30.4051
1660	30.4439
1656	30.4399
1652	30.3797
1648	30.3091
1644	30.2845
1640	30.3651
1636	30.501
1632	30.5382
1628	30.456
1624	30.373
1620	30.3853
1616	30.4271
1612	30.395
1608	30.3604
1604	30.3989
1600	30.4478
1596	30.4465
1592	30.4503
1588	30.4613
1584	30.4304
1580	30.4415
1576	30.4982
1572	30.4854
1568	30.4124
1564	30.3613
1560	30.3424
1556	30.3306
1552	30.3178
1548	30.2701
1544	30.1942
1540	30.2056
1536	30.3081
1532	30.3443
1528	30.2928
1524	30.2509
1520	30.266
1516	30.2816
1512	30.2753
1508	30.3128
1504	30.3444
1500	30.2841
1496	30.147
1492	30.0282
1488	30.017
1484	30.0788
1480	30.1518
1476	30.2098
1472	30.2748
1468	30.2924
1464	30.1713
1460	30.0559
1456	30.0319
1452	30.0043
1448	30.0068
1444	30.0485
1440	30.091
1436	30.1235
1432	30.111
1428	30.0735
1424	30.0346
1420	29.9778
1416	29.9327
1412	29.9215
1408	29.9518
1404	29.9896
1400	29.947
1396	29.8666
1392	29.8785
1388	29.9867
1384	30.0458
1380	30.0103
1376	29.9518
1372	29.9076
1368	29.8763
1364	29.826
1360	29.7757
1356	29.7684
1352	29.784
1348	29.8099
1344	29.8532
1340	29.8903
1336	29.8885
1332	29.8437
1328	29.7914
1324	29.7006
1320	29.5873
1316	29.5685
1312	29.5928
1308	29.5633
1304	29.5238
1300	29.5369
1296	29.6335
1292	29.7593
1288	29.8152
1284	29.7731
1280	29.7077
1276	29.6375
1272	29.5057
1268	29.4008
1264	29.376
1260	29.3749
1256	29.3888
1252	29.4181
1248	29.4106
1244	29.3443
1240	29.3321
1236	29.3865
1232	29.3898
1228	29.3345
1224	29.2689
1220	29.1875
1216	29.1461
1212	29.181
1208	29.2075
1204	29.1795
1200	29.1644
1196	29.2022
1192	29.2136
1188	29.1844
1184	29.1367
1180	29.0475
1176	29.0054
1172	29.0534
1168	29.0705
1164	29.0327
1160	28.9815
1156	28.9021
1152	28.8458
1148	28.8405
1144	28.8989
1140	28.951
1136	28.8481
1132	28.7324
1128	28.6972
1124	28.6659
1120	28.6889
1116	28.7573
1112	28.8259
1108	28.766
1104	28.5959
1100	28.6205
1096	28.7563
1092	28.6719
1088	28.4643
1084	28.3481
1080	28.3729
1076	28.4531
1072	28.39
1068	28.2999
1064	28.3635
1060	28.4514
1056	28.3601
1052	28.1572
1048	28.1203
1044	28.1469
1040	28.0771
1036	27.9966
1032	27.8962
1028	27.8166
1024	27.8111
1020	27.7307
1016	27.6404
1012	27.8056
1008	28.0044
1004	27.9544
1000	27.7893
996	 27.6538
992	 27.5588
988	 27.4106
984	 27.1746
980	 27.0369
976	 27.1417
972	 27.3149
968	 27.3393
964	 27.2755
960	 27.2293
956	 27.246
952	 27.3354
948	 27.2733
944	 27.0113
940	 26.808
936	 26.7681
932	 26.7888
928	 26.7746
924	 26.8157
920	 26.8991
916	 26.9441
912	 26.9438
908	 26.774
904	 26.4544
900	 26.2595
896	 26.2627
892	 26.2638
888	 26.2183
884	 26.107
880	 25.985
876	 26.0525
872	 26.1643
868	 26.204
864	 26.2029
860	 26.0871
856	 25.9018
852	 25.725
848	 25.5282
844	 25.2862
840	 25.1877
836	 25.3336
832	 25.4866
828	 25.537
824	 25.5487
820	 25.5151
816	 25.3895
812	 25.1559
808	 24.9045
804	 24.7492
800	 24.7695
796	 24.873
792	 24.8089
788	 24.659
784	 24.6678
780	 24.655
776	 24.4324
772	 24.2724
768	 24.3066
764	 24.3082
760	 24.1419
756	 23.9907
752	 23.9746
748	 23.7508
744	 23.3512
740	 23.1657
736	 23.2412
732	 23.4413
728	 23.5465
724	 23.4859
720	 23.3896
716	 23.2892
712	 23.1531
708	 23.0255
704	 22.9971
700	 22.9125
696	 22.6444
692	 22.5991
688	 22.9508
684	 23.1699
680	 23.0538
676	 22.7571
672	 22.3487
668	 22.0719
664	 21.9123
660	 21.75
656	 21.6666
652	 21.6333
648	 21.6729
644	 21.7352
640	 21.6893
636	 21.6668
632	 21.6809
628	 21.6318
624	 21.5064
620	 21.3006
616	 21.0723
612	 20.8805
608	 20.6474
604	 20.2371
600	 20.0596
596	 20.3493
592	 20.6417
588	 20.7678
584	 20.6388
580	 20.3544
576	 20.2011
572	 19.9137
568	 19.4605
564	 19.2855
560	 19.3132
556	 19.264
552	 19.2255
548	 19.3316
544	 19.335
540	 18.9548
536	 18.7448
532	 18.8608
528	 18.6796
524	 18.4602
520	 18.5065
516	 18.3353
512	 18.1351
508	 18.281
504	 18.2416
500	 17.9237
496	 17.8745
492	 18.0284
488	 18.0819
484	 18.2937
480	 18.217
476	 17.1075
472	 16.0417
468	 16.1865
464	 16.4898
460	 15.999
456	 15.8631
452	 16.325
448	 16.6463
444	 16.5249
440	 15.9913
436	 15.4539
432	 14.6056
428	 14.1434
424	 14.9142
420	 15.9142
416	 17.4593
412	 20.0731
408	 20.9892
404	 20.2051
400	 18.309
396	 12.2613
392	 12.2519
388	 27.3544
384	 38.4603
380	 27.3433
376	 6.336808
372	 11.1017
370	 20.6551