File: Bakgrunnsmateriale/MATLAB/FTIR/ftir_data/LPE453/Mapping_121/LPE453_t28_cm-1.asc
PE IR       SPECTRUM    SPECTRUM    ASCII       PEDS        1.60
  -1
LP6859~1.ASC
17/05/16
16:40:19.00
17/05/16
16:40:19.00
tln
$LPE453_t0028$<tbV0>[0.0,-7.8,8.0,0.0,27,1,0]
370
64

2002,4.07
MIRTGS : RIGHTBACK : INTERNAL 2
MIR : ON : INTERNAL 2
OPTKBR

0.200000
8
8.000000
FILLER
RATIO
SPECTRUM
UNLOCKED 256

DOUBLE
64
COMBINED
1
0
0

1.000000
RATIO

1
0
TRUE
51149
0
LEFT NOT FITTED RIGHT NOT FITTED 0
NONE
NONE
15600
12
4.427000
51148
TRUE
1 0 8 72 0 0 0 0

15798

#HDR
-1
-1
#GR
CM-1
%T
2.38419e-05
0.0
5000
-1.000000
4631
8
54.7985
-13.2264
#DATA
5000	-0.045609
4996	-0.086760
4992	-0.098156
4988	-0.174212
4984	-0.184845
4980	-0.096368
4976	-0.011444
4972	0.147652
4968	0.379729
4964	0.516724
4960	0.408053
4956	0.254154
4952	0.368833
4948	0.556564
4944	0.423765
4940	0.058531
4936	-0.071001
4932	0.152087
4928	0.243830
4924	0.076675
4920	0.090909
4916	0.266647
4912	0.199747
4908	-0.051045
4904	-0.091052
4900	0.054550
4896	0.218868
4892	0.368595
4888	0.274205
4884	0.063061
4880	0.339055
4876	0.935125
4872	0.955700
4868	0.411653
4864	0.006270
4860	-0.019454
4856	0.084996
4852	0.096774
4848	0.260138
4844	0.592899
4840	0.732302
4836	0.522518
4832	0.278306
4828	0.326514
4824	0.320625
4820	0.139379
4816	0.115561
4812	0.201487
4808	0.217914
4804	0.232911
4800	0.246381
4796	0.211620
4792	0.162148
4788	0.117182
4784	0.126481
4780	0.239610
4776	0.398898
4772	0.623726
4768	0.753307
4764	0.503015
4760	0.265860
4756	0.302052
4752	0.266814
4748	0.089526
4744	0.098991
4740	0.295758
4736	0.316524
4732	0.280380
4728	0.385141
4724	0.306034
4720	0.079798
4716	0.037431
4712	0.078177
4708	0.089693
4704	0.044989
4700	-0.063037
4696	0.066709
4692	0.261640
4688	0.188589
4684	0.181365
4680	0.245785
4676	0.157999
4672	0.141024
4668	0.295233
4664	0.344014
4660	0.158929
4656	-0.052762
4652	-0.280809
4648	-0.322198
4644	-0.021028
4640	0.164651
4636	0.065302
4632	0.170111
4628	0.619816
4624	0.481963
4620	-0.049543
4616	-0.201964
4612	-0.040578
4608	-0.010061
4604	-0.237154
4600	-0.612735
4596	-0.353193
4592	0.676012
4588	0.714540
4584	-0.233936
4580	-0.800323
4576	-1.015281
4572	-0.648093
4568	-0.095343
4564	-0.196242
4560	-0.515580
4556	-0.346970
4552	-0.101423
4548	-0.369930
4544	-1.327919
4540	-2.281522
4536	-2.728176
4532	-1.814341
4528	0.542616
4524	2.043724
4520	1.928067
4516	3.743481
4512	13.0529
4508	20.2639
4504	12.6706
4500	5.472397
4496	5.259394
4492	2.605080
4488	0.298023
4484	0.503253
4480	0.397562
4476	0.086617
4472	-0.590825
4468	-1.265764
4464	-1.298570
4460	-1.124167
4456	-1.088356
4452	-0.749897
4448	-0.059270
4444	0.060820
4440	-0.426197
4436	-0.552558
4432	-0.238776
4428	-0.049304
4424	-0.036001
4420	-0.060534
4416	0.074768
4412	0.358223
4408	0.469493
4404	0.308012
4400	0.208806
4396	0.273537
4392	0.176715
4388	0.067019
4384	0.285577
4380	0.450420
4376	0.181508
4372	-0.198888
4368	-0.187587
4364	0.048017
4360	0.109982
4356	0.073313
4352	0.057721
4348	0.109195
4344	0.209927
4340	0.198125
4336	0.154638
4332	0.280117
4328	0.411820
4324	0.470471
4320	0.552988
4316	0.437426
4312	0.237870
4308	0.168704
4304	0.053334
4300	0.022101
4296	0.117969
4292	0.107145
4288	0.069594
4284	0.107145
4280	0.036430
4276	-0.029540
4272	0.135231
4268	0.222325
4264	-0.023007
4260	-0.313591
4256	-0.229668
4252	0.111007
4248	0.244164
4244	0.167679
4240	0.162959
4236	0.315070
4232	0.257539
4228	-0.019145
4224	-0.051927
4220	0.110101
4216	0.204372
4212	0.199890
4208	0.249576
4204	0.290322
4200	0.169420
4196	-0.028896
4192	-0.266408
4188	-0.423860
4184	-0.230073
4180	0.283980
4176	0.658130
4172	0.503921
4168	0.079560
4164	0.109267
4160	0.453352
4156	0.445413
4152	0.232553
4148	0.130009
4144	0.050950
4140	-0.022101
4136	-0.049233
4132	-0.101685
4128	-0.120186
4124	-0.010251
4120	0.072789
4116	0.108313
4112	0.203776
4108	0.152277
4104	0.025486
4100	0.132393
4096	0.273847
4092	0.192761
4088	-0.009107
4084	-0.064444
4080	-0.006771
4076	-0.092244
4072	-0.129866
4068	0.035548
4064	0.086760
4060	-0.029230
4056	-0.126481
4052	-0.074720
4048	0.111985
4044	0.122237
4040	-0.035190
4036	-0.055027
4032	0.012898
4028	0.056433
4024	0.071239
4020	0.031375
4016	0.055980
4012	0.129222
4008	0.146508
4004	0.108122
4000	0.078010
3996	0.106287
3992	0.104475
3988	0.074958
3984	0.107645
3980	0.134515
3976	0.121450
3972	0.119018
3968	0.159239
3964	0.198388
3960	0.161457
3956	0.063037
3952	0.000262
3948	0.021958
3944	0.083589
3940	0.120997
3936	0.165963
3932	0.165128
3928	0.007343
3924	-0.104093
3920	-0.059485
3916	-0.008988
3912	-0.043511
3908	-0.112509
3904	-0.046920
3900	0.075769
3896	0.132751
3892	0.157570
3888	0.100970
3884	0.026535
3880	0.014591
3876	0.072669
3872	0.147175
3868	0.131440
3864	0.044178
3860	-0.003266
3856	-0.104928
3852	-0.211834
3848	-0.078773
3844	0.170707
3840	0.145816
3836	-0.165987
3832	-0.230860
3828	0.041818
3824	0.209164
3820	0.117778
3816	0.019168
3812	0.132608
3808	0.241398
3804	0.203514
3800	0.215744
3796	0.264644
3792	0.175476
3788	0.052142
3784	0.014829
3780	-0.024843
3776	-0.023460
3772	0.075840
3768	0.132369
3764	0.104236
3760	0.090765
3756	0.063776
3752	-0.084710
3748	-0.195264
3744	-0.151276
3740	-0.118041
3736	-0.095891
3732	-0.060391
3728	-0.088524
3724	-0.071644
3720	0.042390
3716	0.101852
3712	0.075507
3708	0.037598
3704	0.042271
3700	0.039172
3696	-0.002217
3692	-0.026822
3688	-0.012803
3684	-0.001168
3680	-0.042796
3676	-0.015902
3672	0.118994
3668	0.070452
3664	-0.142097
3660	-0.099754
3656	0.102567
3652	0.146842
3648	0.120043
3644	0.104093
3640	0.024628
3636	-0.095081
3632	-0.103354
3628	0.010442
3624	0.037908
3620	-0.059723
3616	-0.077080
3612	0.033211
3608	0.118875
3604	0.088310
3600	-0.026798
3596	-0.103926
3592	-0.103855
3588	-0.104713
3584	-0.088834
3580	-0.032806
3576	0.019979
3572	0.047445
3568	0.095677
3564	0.127959
3560	0.051188
3556	-0.036811
3552	-0.033926
3548	0.021910
3544	0.123786
3540	0.207948
3536	0.191521
3532	0.091576
3528	0.000500
3524	0.005769
3520	0.017714
3516	-0.007891
3512	-0.017428
3508	-0.027585
3504	-0.030231
3500	0.003814
3496	0.044226
3492	-0.005030
3488	-0.095415
3484	-0.091457
3480	-0.009703
3476	0.064826
3472	0.057435
3468	-0.032329
3464	-0.078177
3460	0.024008
3456	0.165224
3452	0.129914
3448	0.035905
3444	0.103688
3440	0.145697
3436	0.007390
3432	-0.090050
3428	0.007486
3424	0.109410
3420	0.087285
3416	0.046825
3412	0.037789
3408	0.093460
3404	0.179219
3400	0.148367
3396	0.010585
3392	-0.088167
3388	-0.064706
3384	0.020647
3380	0.081157
3376	0.051140
3372	-0.048208
3368	-0.067043
3364	0.010108
3360	0.016665
3356	-0.103068
3352	-0.192475
3348	-0.149297
3344	-0.079011
3340	-0.065875
3336	-0.033402
3332	0.050640
3328	0.082492
3324	0.049018
3320	0.039553
3316	0.070810
3312	0.085282
3308	0.040054
3304	-0.029873
3300	-0.046586
3296	0.022363
3292	0.059914
3288	0.031185
3284	0.069379
3280	0.095772
3276	0.082993
3272	0.108480
3268	0.108814
3264	0.069808
3260	0.010943
3256	-0.037741
3252	0.001239
3248	0.125336
3244	0.189590
3240	0.151801
3236	0.150680
3232	0.185227
3228	0.162053
3224	0.075387
3220	-0.055360
3216	-0.115156
3212	-0.061464
3208	-0.062823
3204	-0.110483
3200	-0.041031
3196	0.078892
3192	0.078225
3188	-0.039267
3184	-0.091862
3180	-0.039696
3176	0.001645
3172	0.019574
3168	0.041007
3164	0.082492
3160	0.083446
3156	0.003743
3152	-0.016593
3148	0.004887
3144	-0.002360
3140	0.035190
3136	0.094556
3132	0.133013
3128	0.150918
3124	0.105643
3120	0.086474
3116	0.190210
3112	0.229287
3108	0.094580
3104	-0.057506
3100	-0.059938
3096	0.012373
3092	0.010085
3088	0.011086
3084	0.055098
3080	0.078296
3076	0.075054
3072	0.040864
3068	-0.011515
3064	-0.027918
3060	-0.006055
3056	-0.009822
3052	-0.003886
3048	0.022220
3044	0.003862
3040	0.046491
3036	0.125694
3032	0.114440
3028	0.062251
3024	-0.005364
3020	-0.055408
3016	0.009799
3012	0.108122
3008	0.115966
3004	0.085401
3000	0.015640
2996	-0.088644
2992	-0.109100
2988	-0.070571
2984	-0.072264
2980	-0.066065
2976	-0.027084
2972	0.007176
2968	0.034737
2964	0.049495
2960	0.069379
2956	0.068879
2952	0.069284
2948	0.080370
2944	0.031399
2940	-0.035119
2936	-0.057029
2932	-0.040531
2928	-0.011014
2924	0.009298
2920	0.027966
2916	0.064611
2912	0.120520
2908	0.126004
2904	0.081300
2900	0.061106
2896	0.069546
2892	0.084137
2888	0.066232
2884	0.055027
2880	0.100231
2876	0.132226
2872	0.118231
2868	0.066208
2864	0.043058
2860	0.142478
2856	0.221800
2852	0.105285
2848	-0.061178
2844	-0.102758
2840	-0.096225
2836	-0.114393
2832	-0.081682
2828	0.053763
2824	0.198101
2820	0.183010
2816	0.033736
2812	-0.055456
2808	-0.031304
2804	0.024223
2800	0.041270
2796	0.041532
2792	0.056242
2788	0.066137
2784	0.071144
2780	0.065517
2776	0.067043
2772	0.100064
2768	0.133705
2764	0.142908
2760	0.133252
2756	0.062537
2752	-0.025343
2748	-0.015997
2744	0.051331
2740	0.105333
2736	0.129485
2732	0.115871
2728	0.078892
2724	0.028252
2720	-0.035810
2716	-0.091075
2712	-0.090217
2708	-0.024795
2704	0.009274
2700	0.006818
2696	-0.007247
2692	-0.012636
2688	0.081157
2684	0.135803
2680	0.043773
2676	-0.030899
2672	0.000786
2668	0.069117
2664	0.108575
2660	0.090336
2656	0.045776
2652	0.039696
2648	0.059032
2644	0.026249
2640	-0.036740
2636	-0.028705
2632	0.042033
2628	0.089287
2624	0.093221
2620	0.059890
2616	0.013375
2612	-0.008869
2608	-0.022935
2604	-0.031518
2600	-0.037622
2596	-0.037097
2592	-0.024318
2588	-0.010251
2584	0.010395
2580	0.035619
2576	0.062227
2572	0.055575
2568	0.010323
2564	0.043988
2560	0.110769
2556	0.062704
2552	-0.029492
2548	-0.071191
2544	-0.074338
2540	-0.056648
2536	-0.045418
2532	-0.058054
2528	-0.042390
2524	0.005960
2520	0.074005
2516	0.150251
2512	0.183367
2508	0.139999
2504	0.026726
2500	-0.015926
2496	0.056004
2492	0.114989
2488	0.081968
2484	-0.001263
2480	-0.029754
2476	0.006532
2472	0.083661
2468	0.157189
2464	0.140118
2460	0.008177
2456	-0.096559
2452	-0.056767
2448	0.025129
2444	0.072717
2440	0.077390
2436	0.068426
2432	0.116372
2428	0.168061
2424	0.201439
2420	0.101804
2416	-0.136637
2412	-0.137877
2408	0.094294
2404	0.171709
2400	0.057935
2396	-0.018811
2392	-0.023245
2388	-0.007462
2384	0.025725
2380	0.040006
2376	0.020313
2372	-0.038027
2368	-0.088262
2364	-0.050663
2360	0.027894
2356	0.056362
2352	0.049185
2348	0.071406
2344	0.097060
2340	0.059533
2336	0.022125
2332	0.066113
2328	0.125169
2324	0.094962
2320	0.015687
2316	0.011253
2312	0.053644
2308	0.038576
2304	0.048303
2300	0.153636
2296	0.253582
2292	0.285983
2288	0.312399
2284	0.361227
2280	0.360918
2276	0.344657
2272	0.386738
2268	0.451040
2264	0.478720
2260	0.478887
2256	0.561332
2252	0.715208
2248	0.800347
2244	0.874066
2240	0.982475
2236	1.057410
2232	1.150178
2228	1.257753
2224	1.374506
2220	1.584959
2216	1.840853
2212	2.030253
2208	2.162623
2204	2.280950
2200	2.405810
2196	2.588224
2192	2.856183
2188	3.166055
2184	3.416347
2180	3.641176
2176	3.964900
2172	4.249715
2168	4.399538
2164	4.644060
2160	5.142879
2156	5.727696
2152	6.114482
2148	6.374311
2144	6.715297
2140	7.095551
2136	7.466840
2132	7.861709
2128	8.296847
2124	8.696818
2120	9.060907
2116	9.471082
2112	9.900259
2108	10.3413
2104	10.7979
2100	11.2713
2096	11.7783
2092	12.2907
2088	12.7735
2084	13.1859
2080	13.5465
2076	13.9867
2072	14.5091
2068	14.961
2064	15.4473
2060	16.0409
2056	16.526
2052	16.8842
2048	17.2154
2044	17.5914
2040	18.0275
2036	18.4642
2032	18.9333
2028	19.3862
2024	19.7291
2020	20.0238
2016	20.3478
2012	20.6876
2008	21.0365
2004	21.405
2000	21.8014
1996	22.2019
1992	22.5149
1988	22.7847
1984	23.0639
1980	23.3006
1976	23.5673
1972	23.8861
1968	24.1801
1964	24.4641
1960	24.7355
1956	24.9783
1952	25.2356
1948	25.4683
1944	25.6225
1940	25.7702
1936	25.9761
1932	26.1793
1928	26.342
1924	26.5101
1920	26.7429
1916	26.964
1912	27.1108
1908	27.2662
1904	27.4598
1900	27.6544
1896	27.8148
1892	27.9596
1888	28.1042
1884	28.1982
1880	28.2491
1876	28.3542
1872	28.5525
1868	28.7047
1864	28.7433
1860	28.8009
1856	28.9144
1852	29.023
1848	29.1
1844	29.1659
1840	29.2586
1836	29.3646
1832	29.4681
1828	29.5429
1824	29.6083
1820	29.7145
1816	29.8235
1812	29.8753
1808	29.9391
1804	30.0465
1800	30.0975
1796	30.1207
1792	30.1945
1788	30.2623
1784	30.2686
1780	30.2634
1776	30.2806
1772	30.3029
1768	30.3208
1764	30.3951
1760	30.5508
1756	30.6268
1752	30.5782
1748	30.5585
1744	30.6067
1740	30.6739
1736	30.7096
1732	30.7382
1728	30.8064
1724	30.8259
1720	30.8311
1716	30.8831
1712	30.8879
1708	30.8619
1704	30.8266
1700	30.7908
1696	30.851
1692	30.9385
1688	30.938
1684	30.915
1680	30.9304
1676	30.9551
1672	30.9521
1668	30.9854
1664	31.0867
1660	31.1392
1656	31.1409
1652	31.1433
1648	31.1445
1644	31.163
1640	31.1643
1636	31.0919
1632	31.0076
1628	31.0221
1624	31.0966
1620	31.1272
1616	31.1054
1612	31.0575
1608	31.0243
1604	31.0735
1600	31.1466
1596	31.1107
1592	30.9937
1588	30.9417
1584	30.9972
1580	31.0617
1576	31.0443
1572	30.9952
1568	31.0159
1564	31.0713
1560	31.0716
1556	31.0683
1552	31.0896
1548	31.0962
1544	31.0889
1540	31.0272
1536	30.9405
1532	30.9291
1528	30.9685
1524	31.0051
1520	31.0402
1516	31.075
1512	31.1095
1508	31.1523
1504	31.1672
1500	31.0933
1496	31.0041
1492	31.0019
1488	30.991
1484	30.9224
1480	30.9117
1476	30.9613
1472	30.901
1468	30.791
1464	30.9184
1460	31.1569
1456	31.1568
1452	31.0071
1448	30.967
1444	30.9673
1440	30.8532
1436	30.7801
1432	30.8932
1428	30.9925
1424	30.965
1420	30.9042
1416	30.8807
1412	30.8744
1408	30.8277
1404	30.7978
1400	30.8134
1396	30.8073
1392	30.8017
1388	30.8211
1384	30.8016
1380	30.7599
1376	30.7666
1372	30.7799
1368	30.7158
1364	30.6457
1360	30.6769
1356	30.7444
1352	30.7981
1348	30.7906
1344	30.7015
1340	30.6493
1336	30.6831
1332	30.699
1328	30.655
1324	30.6541
1320	30.6727
1316	30.6565
1312	30.6969
1308	30.769
1304	30.7574
1300	30.6994
1296	30.6377
1292	30.5384
1288	30.4528
1284	30.4563
1280	30.5356
1276	30.5815
1272	30.527
1268	30.4402
1264	30.4102
1260	30.4154
1256	30.3889
1252	30.3769
1248	30.3983
1244	30.4132
1240	30.4121
1236	30.3937
1232	30.3827
1228	30.3395
1224	30.2365
1220	30.1872
1216	30.2483
1212	30.321
1208	30.3281
1204	30.3192
1200	30.3139
1196	30.22
1192	30.0892
1188	30.0601
1184	30.1092
1180	30.1731
1176	30.2376
1172	30.2593
1168	30.2055
1164	30.0701
1160	29.9588
1156	29.9698
1152	30.0107
1148	30.029
1144	30.045
1140	30.0731
1136	30.0661
1132	30.0081
1128	29.9794
1124	29.9862
1120	29.9472
1116	29.8865
1112	29.9453
1108	29.9888
1104	29.8594
1100	29.7975
1096	29.9351
1092	30.0418
1088	29.9784
1084	29.8457
1080	29.8046
1076	29.798
1072	29.6525
1068	29.4781
1064	29.4481
1060	29.5279
1056	29.5987
1052	29.5963
1048	29.5541
1044	29.4826
1040	29.3911
1036	29.3683
1032	29.3613
1028	29.3081
1024	29.2775
1020	29.2455
1016	29.1426
1012	29.0394
1008	29.058
1004	29.1573
1000	29.1675
996	 29.0375
992	 28.916
988	 28.9748
984	 29.1507
980	 29.1812
976	 29.0513
972	 28.9561
968	 28.879
964	 28.74
960	 28.6146
956	 28.5708
952	 28.5597
948	 28.523
944	 28.4544
940	 28.4023
936	 28.3835
932	 28.4158
928	 28.4794
924	 28.4343
920	 28.3555
916	 28.3492
912	 28.3084
908	 28.1955
904	 28.0829
900	 28.0339
896	 28.04
892	 28.0329
888	 28.0074
884	 27.9288
880	 27.8351
876	 27.8997
872	 27.881
868	 27.6342
864	 27.4667
860	 27.4389
856	 27.4385
852	 27.3665
848	 27.2162
844	 27.1486
840	 27.1953
836	 27.2811
832	 27.3389
828	 27.3383
824	 27.3134
820	 27.2776
816	 27.1405
812	 26.8264
808	 26.5935
804	 26.6008
800	 26.6115
796	 26.5966
792	 26.5822
788	 26.4543
784	 26.3667
780	 26.4631
776	 26.5317
772	 26.3978
768	 26.2631
764	 26.1938
760	 26.0412
756	 26.0708
752	 26.3733
748	 26.4449
744	 26.1632
740	 25.7816
736	 25.4846
732	 25.4042
728	 25.567
724	 25.7451
720	 25.634
716	 25.3192
712	 25.0528
708	 24.9007
704	 24.8085
700	 24.7034
696	 24.6558
692	 24.7006
688	 24.7912
684	 24.9234
680	 24.8974
676	 24.6867
672	 24.5159
668	 24.3401
664	 24.2311
660	 24.2313
656	 24.0749
652	 23.8873
648	 23.7681
644	 23.525
640	 23.3041
636	 23.4402
632	 23.8538
628	 24.1447
624	 24.0446
620	 23.6516
616	 23.1245
612	 22.7162
608	 22.7721
604	 23.0246
600	 22.9894
596	 22.7228
592	 22.5718
588	 22.3831
584	 21.9842
580	 21.775
576	 21.9448
572	 22.2942
568	 22.434
564	 22.2332
560	 21.8605
556	 21.4541
552	 21.0492
548	 20.8037
544	 20.7152
540	 20.5821
536	 20.6986
532	 21.1186
528	 21.447
524	 21.3891
520	 20.794
516	 20.0113
512	 19.8832
508	 20.4164
504	 20.7405
500	 20.6752
496	 20.2288
492	 19.4072
488	 18.7963
484	 18.8858
480	 19.4389
476	 19.6402
472	 19.546
468	 19.788
464	 19.6856
460	 19.0506
456	 18.695
452	 18.3958
448	 18.2086
444	 18.3295
440	 18.0427
436	 17.0476
432	 16.653
428	 17.6854
424	 18.2706
420	 16.8561
416	 14.9739
412	 16.0338
408	 19.9467
404	 21.4023
400	 12.7362
396	 -5.509972
392	 -12.6916
388	 4.583311
384	 25.5629
380	 25.2261
376	 29.2545
372	 45.7544
370	 54.7985