File: Bakgrunnsmateriale/MATLAB/FTIR/ftir_data/LPE453/Mapping_121/LPE453_t52_cm-1.asc
PE IR       SPECTRUM    SPECTRUM    ASCII       PEDS        1.60
  -1
LPD950~1.ASC
17/05/16
18:38:33.00
17/05/16
18:38:33.00
tln
$LPE453_t0052$<tbV0>[-5.2,-2.6,8.0,0.0,27,1,0]
370
64

2002,4.07
MIRTGS : RIGHTBACK : INTERNAL 2
MIR : ON : INTERNAL 2
OPTKBR

0.200000
8
8.000000
FILLER
RATIO
SPECTRUM
UNLOCKED 256

DOUBLE
64
COMBINED
1
0
0

1.000000
RATIO

1
0
TRUE
51149
0
LEFT NOT FITTED RIGHT NOT FITTED 0
NONE
NONE
15600
12
4.427000
51148
TRUE
1 0 8 72 0 0 0 0

15798

#HDR
-1
-1
#GR
CM-1
%T
2.38419e-05
0.0
5000
-1.000000
4631
8
36.2821
-2.422165
#DATA
5000	0.098371
4996	0.160312
4992	0.159168
4988	0.194430
4984	0.136971
4980	-0.080013
4976	-0.242757
4972	-0.223302
4968	-0.078773
4964	0.315809
4960	0.745964
4956	0.860404
4952	0.588274
4948	0.125861
4944	-0.019073
4940	0.003600
4936	-0.091052
4932	-0.117540
4928	-0.020956
4924	0.098896
4920	0.233602
4916	0.289130
4912	0.185728
4908	0.174713
4904	0.248122
4900	0.151610
4896	0.099921
4892	0.278043
4888	0.441622
4884	0.530171
4880	0.472617
4876	0.311064
4872	0.212192
4868	-0.011706
4864	-0.169157
4860	0.127196
4856	0.531744
4852	0.581383
4848	0.485062
4844	0.377535
4840	0.227475
4836	0.157070
4832	0.144171
4828	0.229263
4824	0.329756
4820	0.183844
4816	-0.109910
4812	-0.127935
4808	0.213694
4804	0.450229
4800	0.179290
4796	-0.140285
4792	-0.250458
4788	-0.442934
4784	-0.437498
4780	-0.267052
4776	-0.151038
4772	0.115776
4768	0.398755
4764	0.416469
4760	0.250577
4756	0.067138
4752	-0.168585
4748	-0.381350
4744	-0.312924
4740	-0.181388
4736	-0.212025
4732	-0.084304
4728	0.069880
4724	-0.035548
4720	-0.078225
4716	0.051569
4712	0.040960
4708	-0.042319
4704	0.040149
4700	0.171995
4696	0.383591
4692	0.477957
4688	0.338196
4684	0.467944
4680	0.689840
4676	0.806570
4672	1.024007
4668	0.895452
4664	0.552678
4660	0.463056
4656	0.118660
4652	-0.335478
4648	0.228881
4644	1.116895
4640	0.967407
4636	1.010465
4632	1.551103
4628	1.147317
4624	0.235724
4620	-0.289630
4616	0.088500
4612	1.474452
4608	1.856637
4604	0.581955
4600	-0.756001
4596	-1.446652
4592	-1.412200
4588	-0.549912
4584	0.569343
4580	0.890731
4576	0.311350
4572	-0.216722
4568	-0.148344
4564	0.176978
4560	0.234794
4556	-0.213527
4552	-0.654864
4548	-0.461411
4544	-0.178122
4540	0.236558
4536	0.614166
4532	0.995993
4528	1.178336
4524	0.161719
4520	-1.150512
4516	0.847864
4512	8.316755
4508	14.2633
4504	9.851813
4500	1.112985
4496	-0.889325
4492	1.813030
4488	2.006673
4484	-0.733304
4480	-2.238821
4476	-2.419185
4472	-1.937508
4468	-0.699377
4464	-0.320315
4460	-0.888085
4456	-0.800061
4452	-0.321936
4448	-0.277543
4444	-0.533914
4440	-0.491142
4436	-0.006341
4432	0.144433
4428	-0.247812
4424	-0.466084
4420	-0.466132
4416	-0.467562
4412	-0.293040
4408	-0.145626
4404	0.010275
4400	0.219726
4396	0.361680
4392	0.439143
4388	0.645709
4384	0.740599
4380	0.360012
4376	-0.023651
4372	-0.014328
4368	0.138950
4364	0.123095
4360	0.061154
4356	0.257229
4352	0.578236
4348	0.620031
4344	0.388002
4340	0.085687
4336	0.028800
4332	0.204110
4328	0.283074
4324	0.355529
4320	0.401496
4316	0.350856
4312	0.173616
4308	-0.071430
4304	-0.294089
4300	-0.395917
4296	-0.353956
4292	-0.131034
4288	0.093054
4284	0.114464
4280	0.088238
4276	0.129914
4272	0.171041
4268	0.128483
4264	0.116777
4260	0.171113
4256	0.086283
4252	-0.050067
4248	-0.034499
4244	0.030064
4240	0.025725
4236	0.065970
4232	0.163578
4228	0.223946
4224	0.296044
4220	0.387740
4216	0.355768
4212	0.248694
4208	0.272774
4204	0.359249
4200	0.318551
4196	0.153541
4192	-0.117707
4188	-0.327086
4184	-0.376868
4180	-0.263833
4176	0.074028
4172	0.236606
4168	0.007295
4164	-0.219845
4160	-0.168490
4156	0.010371
4152	0.072598
4148	0.046682
4144	0.074148
4140	0.187277
4136	0.240921
4132	0.183653
4128	0.177145
4124	0.203943
4120	0.173020
4116	0.089025
4112	-0.036525
4108	-0.124669
4104	-0.066995
4100	0.052237
4096	0.059652
4092	-0.052046
4088	-0.146365
4084	-0.096487
4080	-0.054788
4076	-0.110387
4072	-0.097322
4068	0.036406
4064	0.201940
4060	0.302100
4056	0.319314
4052	0.210881
4048	0.021719
4044	-0.046515
4040	0.014305
4036	0.057911
4032	0.004649
4028	-0.104761
4024	-0.109291
4020	0.002551
4016	0.054144
4012	0.032496
4008	-0.009346
4004	-0.018477
4000	0.057172
3996	0.133013
3992	0.116658
3988	0.116467
3984	0.178480
3980	0.173282
3976	0.133037
3972	0.185275
3968	0.220513
3964	0.135469
3960	0.063753
3956	0.073266
3952	0.102519
3948	0.143051
3944	0.164246
3940	0.115823
3936	0.099277
3932	0.151157
3928	0.172805
3924	0.162959
3920	0.196838
3916	0.260853
3912	0.216460
3908	0.088000
3904	0.006341
3900	-0.016403
3896	0.006055
3892	0.054574
3888	0.096702
3884	0.053501
3880	-0.053524
3876	-0.100231
3872	-0.040054
3868	0.000047
3864	-0.054478
3860	-0.025439
3856	0.057411
3852	0.074815
3848	0.162935
3844	0.229883
3840	0.200009
3836	0.208210
3832	0.166749
3828	0.079011
3824	0.012540
3820	-0.102138
3816	-0.134491
3812	0.003314
3808	0.094699
3804	0.060963
3800	0.000214
3796	-0.067996
3792	-0.084209
3788	-0.000190
3784	0.098919
3780	0.123500
3776	0.115442
3772	0.120115
3768	0.084948
3764	-0.004720
3760	-0.061845
3756	-0.053000
3752	0.032567
3748	0.137472
3744	0.120115
3740	0.025129
3736	-0.028085
3732	-0.035572
3728	-0.002765
3724	0.014686
3720	-0.026130
3716	-0.029802
3712	0.004649
3708	-0.030660
3704	-0.066828
3700	-0.002503
3696	0.063920
3692	0.081562
3688	0.069046
3684	0.055646
3680	0.083684
3676	0.112652
3672	0.146579
3668	0.209617
3664	0.218558
3660	0.146484
3656	0.071263
3652	0.025296
3648	0.002074
3644	-0.003600
3640	0.026392
3636	0.099778
3632	0.167298
3628	0.164985
3624	0.076937
3620	0.007200
3616	0.037860
3612	0.054359
3608	0.037670
3604	0.096654
3600	0.168466
3596	0.184988
3592	0.198936
3588	0.187158
3584	0.095605
3580	-0.000047
3576	-0.054216
3572	-0.020861
3568	0.129246
3564	0.260829
3560	0.267386
3556	0.159096
3552	0.019121
3548	-0.010275
3544	0.034260
3540	0.019049
3536	0.009965
3532	0.063276
3528	0.112867
3524	0.095725
3520	0.075888
3516	0.124263
3512	0.144290
3508	0.106859
3504	0.103855
3500	0.091862
3496	0.025057
3492	-0.043487
3488	-0.065088
3484	0.010490
3480	0.084495
3476	0.112056
3472	0.162005
3468	0.140285
3464	0.049686
3460	0.013566
3456	-0.015783
3452	-0.083971
3448	-0.108647
3444	-0.076246
3440	-0.043153
3436	-0.025272
3432	0.053334
3428	0.140023
3424	0.098633
3420	0.061297
3416	0.102639
3412	0.091671
3408	0.046324
3404	0.056862
3400	0.103425
3396	0.130224
3392	0.127100
3388	0.064063
3384	-0.012063
3380	0.008010
3376	0.068688
3372	0.090146
3368	0.114130
3364	0.155520
3360	0.142359
3356	0.066637
3352	0.037264
3348	0.059413
3344	0.061511
3340	0.032734
3336	0.002408
3332	0.052762
3328	0.118994
3324	0.110793
3320	0.072407
3316	0.053954
3312	0.043463
3308	-0.002789
3304	-0.007057
3300	0.093078
3296	0.201082
3292	0.191879
3288	0.128674
3284	0.131177
3280	0.128579
3276	0.099205
3272	0.094151
3268	0.073266
3264	0.056338
3260	0.061655
3256	0.014591
3252	-0.018763
3248	0.055813
3244	0.122046
3240	0.133347
3236	0.178098
3232	0.218629
3228	0.152468
3224	0.004720
3220	-0.120782
3216	-0.128555
3212	-0.003862
3208	0.118279
3204	0.165843
3200	0.152444
3196	0.074028
3192	0.032401
3188	0.077438
3184	0.122570
3180	0.120997
3176	0.073051
3172	0.030112
3168	0.015282
3164	-0.021171
3160	-0.062346
3156	-0.046133
3152	0.026869
3148	0.035238
3144	0.009226
3140	0.065064
3136	0.050187
3132	0.040006
3128	0.109434
3124	0.068545
3120	0.025606
3116	0.090026
3112	0.077772
3108	-0.009250
3104	-0.063014
3100	-0.075602
3096	-0.018644
3092	-0.001430
3088	-0.073742
3084	-0.101518
3080	-0.066542
3076	-0.041985
3072	-0.026798
3068	0.005960
3064	0.016283
3060	0.029468
3056	0.058174
3052	0.039005
3048	-0.000929
3044	-0.042629
3040	-0.048327
3036	0.015521
3032	0.040221
3028	0.013184
3024	0.043416
3020	0.054121
3016	-0.027155
3012	-0.038456
3008	0.046658
3004	0.056052
3000	0.034856
2996	0.088024
2992	0.117468
2988	0.097417
2984	0.092792
2980	0.076675
2976	0.093722
2972	0.176811
2968	0.182294
2964	0.125837
2960	0.124025
2956	0.125193
2952	0.122237
2948	0.147795
2944	0.179409
2940	0.171613
2936	0.090885
2932	0.042963
2928	0.055718
2924	0.027918
2920	-0.021028
2916	-0.029277
2912	0.028800
2908	0.085735
2904	0.071501
2900	0.083088
2896	0.091457
2892	0.034427
2888	0.057578
2884	0.123095
2880	0.078678
2876	0.045561
2872	0.087404
2868	0.054383
2864	-0.002670
2860	0.014352
2856	0.025534
2852	0.010347
2848	-0.010633
2844	-0.006508
2840	0.054216
2836	0.066542
2832	0.017642
2828	-0.023412
2824	0.011110
2820	0.044965
2816	-0.007534
2812	-0.044727
2808	-0.018596
2804	0.041699
2800	0.072813
2796	0.030159
2792	-0.040006
2788	-0.073719
2784	-0.038671
2780	0.013303
2776	0.057268
2772	0.096583
2768	0.075554
2764	-0.000023
2760	-0.094890
2756	-0.133490
2752	-0.077557
2748	-0.018000
2744	0.010919
2740	0.065088
2736	0.131821
2732	0.187540
2728	0.196719
2724	0.188350
2720	0.176739
2716	0.102591
2712	0.050926
2708	0.064778
2704	0.064563
2700	0.048899
2696	0.042700
2692	0.037813
2688	0.053787
2684	0.075960
2680	0.046706
2676	0.043296
2672	0.111341
2668	0.150060
2664	0.139021
2660	0.118899
2656	0.125002
2652	0.111150
2648	0.067639
2644	0.081634
2640	0.095200
2636	0.063133
2632	0.029921
2628	-0.014829
2624	-0.038385
2620	0.007867
2616	0.088047
2612	0.128579
2608	0.086998
2604	0.016379
2600	-0.017189
2596	0.011825
2592	0.062775
2588	0.048112
2584	0.041270
2580	0.105261
2576	0.132060
2572	0.135040
2568	0.172376
2564	0.182509
2560	0.172591
2556	0.154542
2552	0.110483
2548	0.048065
2544	0.004005
2540	0.053524
2536	0.093436
2532	-0.015497
2528	-0.113153
2524	-0.106287
2520	-0.072455
2516	-0.037980
2512	-0.021171
2508	0.021409
2504	0.091266
2500	0.112915
2496	0.053238
2492	-0.046300
2488	-0.094699
2484	-0.093531
2480	-0.106334
2476	-0.094890
2472	-0.061821
2468	-0.067615
2464	-0.045585
2460	0.003027
2456	0.017547
2452	-0.012922
2448	-0.062656
2444	-0.030541
2440	0.117015
2436	0.233650
2432	0.207424
2428	0.091671
2424	0.074601
2420	0.184702
2416	0.219774
2412	0.177717
2408	0.155448
2404	0.086712
2400	-0.000047
2396	0.005364
2392	0.038647
2388	0.017952
2384	0.022315
2380	0.095582
2376	0.129842
2372	0.070500
2368	0.033736
2364	0.066089
2360	0.101351
2356	0.097846
2352	0.052309
2348	0.028848
2344	0.044608
2340	0.058460
2336	0.071382
2332	0.088500
2328	0.114059
2324	0.128436
2320	0.125432
2316	0.158143
2312	0.214624
2308	0.207543
2304	0.185680
2300	0.216960
2296	0.250411
2292	0.293469
2288	0.375056
2284	0.438022
2280	0.425481
2276	0.435709
2272	0.540685
2268	0.641393
2264	0.688338
2260	0.714993
2256	0.739884
2252	0.817036
2248	0.960230
2244	1.087355
2240	1.176142
2236	1.285099
2232	1.446127
2228	1.592350
2224	1.696228
2220	1.854848
2216	2.069568
2212	2.290868
2208	2.528476
2204	2.734470
2200	2.943515
2196	3.190135
2192	3.373622
2188	3.571653
2184	3.902435
2180	4.282593
2176	4.596781
2172	4.869651
2168	5.212950
2164	5.576920
2160	5.901360
2156	6.251597
2152	6.646776
2148	7.083940
2144	7.517790
2140	7.925128
2136	8.370351
2132	8.857035
2128	9.327030
2124	9.758996
2120	10.1861
2116	10.6701
2112	11.1817
2108	11.6395
2104	12.0844
2100	12.5398
2096	12.9779
2092	13.4632
2088	14.0102
2084	14.5293
2080	15.0187
2076	15.4926
2072	15.9474
2068	16.3903
2064	16.8081
2060	17.2856
2056	17.8139
2052	18.2899
2048	18.7171
2044	19.1362
2040	19.5646
2036	19.9919
2032	20.4328
2028	20.8766
2024	21.2777
2020	21.6515
2016	22.0441
2012	22.4434
2008	22.811
2004	23.1638
2000	23.5122
1996	23.8446
1992	24.1754
1988	24.5109
1984	24.8477
1980	25.1326
1976	25.3664
1972	25.6727
1968	26.0051
1964	26.2271
1960	26.4523
1956	26.75
1952	27.0257
1948	27.2811
1944	27.5155
1940	27.7503
1936	27.9864
1932	28.1688
1928	28.3492
1924	28.5388
1920	28.7105
1916	28.8866
1912	29.0463
1908	29.1591
1904	29.2529
1900	29.3912
1896	29.5402
1892	29.6578
1888	29.8208
1884	30.0421
1880	30.2179
1876	30.3558
1872	30.517
1868	30.6325
1864	30.7074
1860	30.81
1856	30.8988
1852	30.9334
1848	30.936
1844	30.9805
1840	31.1014
1836	31.2302
1832	31.3547
1828	31.4904
1824	31.5665
1820	31.5766
1816	31.6053
1812	31.6807
1808	31.7493
1804	31.8183
1800	31.9129
1796	31.9665
1792	32.018
1788	32.1365
1784	32.2132
1780	32.2216
1776	32.234
1772	32.221
1768	32.2098
1764	32.2177
1760	32.2201
1756	32.2495
1752	32.3055
1748	32.3602
1744	32.4065
1740	32.437
1736	32.4786
1732	32.5722
1728	32.6812
1724	32.7856
1720	32.8305
1716	32.7765
1712	32.7432
1708	32.744
1704	32.6828
1700	32.6165
1696	32.6599
1692	32.7769
1688	32.8572
1684	32.8764
1680	32.858
1676	32.8208
1672	32.7718
1668	32.7067
1664	32.642
1660	32.6155
1656	32.6524
1652	32.7374
1648	32.7935
1644	32.7941
1640	32.8322
1636	32.8965
1632	32.9073
1628	32.9006
1624	32.8764
1620	32.7986
1616	32.7213
1612	32.697
1608	32.6762
1604	32.6388
1600	32.6764
1596	32.8061
1592	32.9065
1588	32.9642
1584	32.9757
1580	32.8578
1576	32.7415
1572	32.7305
1568	32.6882
1564	32.6154
1560	32.5999
1556	32.596
1552	32.6636
1548	32.8443
1544	32.9937
1540	33.0096
1536	32.9553
1532	32.8839
1528	32.7451
1524	32.5955
1520	32.5166
1516	32.4892
1512	32.507
1508	32.581
1504	32.6619
1500	32.6865
1496	32.653
1492	32.633
1488	32.6688
1484	32.6671
1480	32.616
1476	32.5721
1472	32.536
1468	32.4936
1464	32.3999
1460	32.3059
1456	32.3381
1452	32.4507
1448	32.5506
1444	32.6625
1440	32.7574
1436	32.7413
1432	32.6277
1428	32.4901
1424	32.3777
1420	32.2819
1416	32.1869
1412	32.1637
1408	32.2499
1404	32.3794
1400	32.4421
1396	32.4398
1392	32.4701
1388	32.5224
1384	32.4917
1380	32.3895
1376	32.2881
1372	32.165
1368	32.0632
1364	32.029
1360	32.0382
1356	32.1483
1352	32.3128
1348	32.3778
1344	32.3801
1340	32.3937
1336	32.3704
1332	32.282
1328	32.1802
1324	32.1255
1320	32.062
1316	31.9595
1312	31.9525
1308	32.0231
1304	32.0797
1300	32.162
1296	32.2284
1292	32.2189
1288	32.2015
1284	32.2172
1280	32.1574
1276	32.01
1272	31.8887
1268	31.8402
1264	31.8362
1260	31.844
1256	31.8723
1252	31.9309
1248	32.0336
1244	32.0974
1240	32.0694
1236	32.0315
1232	31.9543
1228	31.7996
1224	31.6709
1220	31.6327
1216	31.6116
1212	31.583
1208	31.6036
1204	31.6454
1200	31.6823
1196	31.7339
1192	31.7722
1188	31.8093
1184	31.8425
1180	31.776
1176	31.5667
1172	31.3655
1168	31.2706
1164	31.2147
1160	31.1992
1156	31.3047
1152	31.457
1148	31.5414
1144	31.6041
1140	31.7199
1136	31.7693
1132	31.6447
1128	31.4691
1124	31.3037
1120	31.1074
1116	30.9129
1112	30.7698
1108	30.7257
1104	30.7759
1100	30.9503
1096	31.2805
1092	31.532
1088	31.5095
1084	31.3002
1080	31.0372
1076	30.8448
1072	30.739
1068	30.6694
1064	30.679
1060	30.7616
1056	30.8301
1052	30.8841
1048	30.9813
1044	31.0768
1040	31.1048
1036	31.0242
1032	30.827
1028	30.601
1024	30.4069
1020	30.2854
1016	30.2668
1012	30.2514
1008	30.164
1004	30.1588
1000	30.3778
996	 30.6409
992	 30.7436
988	 30.6941
984	 30.5411
980	 30.3441
976	 30.1795
972	 29.9858
968	 29.7073
964	 29.5352
960	 29.5617
956	 29.6711
952	 29.851
948	 30.0545
944	 30.111
940	 30.0527
936	 29.9904
932	 29.8927
928	 29.7984
924	 29.7132
920	 29.5579
916	 29.3319
912	 29.0896
908	 28.9752
904	 29.0522
900	 29.2302
896	 29.3537
892	 29.3785
888	 29.4273
884	 29.4296
880	 29.2381
876	 28.9206
872	 28.6556
868	 28.5254
864	 28.4549
860	 28.3778
856	 28.343
852	 28.4209
848	 28.5982
844	 28.7646
840	 28.8014
836	 28.6872
832	 28.4886
828	 28.3092
824	 28.1092
820	 27.8721
816	 27.6867
812	 27.558
808	 27.5611
804	 27.6733
800	 27.748
796	 27.8033
792	 27.9079
788	 27.9165
784	 27.7481
780	 27.5758
776	 27.3318
772	 27.0506
768	 26.8994
764	 26.6772
760	 26.5026
756	 26.5624
752	 26.66
748	 26.7518
744	 26.8969
740	 26.9683
736	 26.8791
732	 26.7642
728	 26.7121
724	 26.5741
720	 26.3072
716	 26.0886
712	 25.9361
708	 25.8534
704	 25.8604
700	 25.8648
696	 25.901
692	 25.9631
688	 25.9675
684	 25.9962
680	 25.9369
676	 25.622
672	 25.2121
668	 24.7561
664	 24.396
660	 24.282
656	 24.2291
652	 24.3209
648	 24.668
644	 25.0275
640	 25.0565
636	 24.7957
632	 24.5913
628	 24.4659
624	 24.2857
620	 23.9707
616	 23.586
612	 23.4224
608	 23.5214
604	 23.5573
600	 23.5797
596	 23.6965
592	 23.765
588	 23.747
584	 23.5573
580	 23.1982
576	 22.8345
572	 22.6333
568	 22.5378
564	 22.3203
560	 22.034
556	 21.8058
552	 21.6733
548	 21.8554
544	 21.9598
540	 21.5883
536	 21.4739
532	 21.7315
528	 21.7108
524	 21.3231
520	 20.7663
516	 20.4847
512	 20.6964
508	 20.9461
504	 20.7541
500	 20.3638
496	 20.54
492	 21.0605
488	 21.1274
484	 20.9311
480	 20.7663
476	 20.6465
472	 20.3304
468	 19.5076
464	 18.964
460	 18.6513
456	 17.8487
452	 17.5492
448	 17.6466
444	 17.4557
440	 17.6081
436	 18.0491
432	 18.281
428	 18.5766
424	 18.866
420	 17.8772
416	 16.351
412	 16.5446
408	 17.4287
404	 17.7231
400	 20.6666
396	 20.6122
392	 12.9679
388	 14.503
384	 26.2001
380	 34.7254
376	 34.7547
372	 24.8774
370	 24.2181