File: Bakgrunnsmateriale/MATLAB/FTIR/ftir_data/LPE453/Mapping_121/LPE453_t100.asc
PE IR       SPECTRUM    SPECTRUM    ASCII       PEDS        1.60
  -1
LP9376~1.ASC
17/05/16
22:34:57.00
17/05/16
22:35:23.00
tln
$LPE453_t0100$<tbV0>[13.0,10.4,8.0,0.0,27,1,0]
27.028
64

2002,4.07
MIRTGS : RIGHTBACK : INTERNAL 2
MIR : ON : INTERNAL 2
OPTKBR

0.200000
8
8.000000
FILLER
RATIO
SPECTRUM
UNLOCKED 256

DOUBLE
64
COMBINED
1
0
0

0.002000
RATIO

1
0
TRUE
51149
0
LEFT NOT FITTED RIGHT NOT FITTED 0
NONE
NONE
15600
12
4.427000
51148
TRUE
1 0 8 72 0 0 0 0

15798

#HDR
-1
-1
#GR
µM
%T
2.38419e-05
0.0
2.000000
0.002000
12515
8
24.5732
-10.2397
#DATA
2.000000	 0.186824
2.018000	 0.193738
2.036000	 0.328122
2.054000	 0.241301
2.072000	 0.140115
2.090000	 0.092994
2.108000	 0.452529
2.126000	 -0.131982
2.144000	 0.167905
2.162000	 -0.729445
2.180000	 0.831631
2.198000	 -0.362727
2.216000	 -0.091366
2.234000	 -0.390799
2.252000	 0.151690
2.270000	 0.155646
2.288000	 0.309598
2.306000	 0.356844
2.324000	 0.008833
2.342000	 0.324892
2.360000	 0.051881
2.378000	 0.267945
2.396000	 0.017833
2.414000	 0.042311
2.432000	 -0.040452
2.450000	 0.082185
2.468000	 0.043455
2.486000	 0.362458
2.504000	 0.159229
2.522000	 -0.088889
2.540000	 0.158903
2.558000	 0.159016
2.576000	 0.261102
2.594000	 -0.036801
2.612000	 0.030863
2.630000	 0.057662
2.648000	 0.157223
2.666000	 0.144427
2.684000	 -0.093620
2.702000	 0.073156
2.720000	 -0.017154
2.738000	 -0.051551
2.756000	 0.054296
2.774000	 0.005738
2.792000	 0.045160
2.810000	 -0.082649
2.828000	 0.161625
2.846000	 0.068772
2.864000	 -0.081280
2.882000	 0.079095
2.900000	 0.016425
2.918000	 0.007115
2.936000	 0.167800
2.954000	 0.072034
2.972000	 -0.045721
2.990000	 -0.026610
3.008000	 -0.011020
3.026000	 -0.145684
3.044000	 0.181152
3.062000	 0.030462
3.080000	 0.088368
3.098000	 -0.037782
3.116000	 0.098812
3.134000	 -0.012116
3.152000	 0.114007
3.170000	 0.090786
3.188000	 -0.024193
3.206000	 0.177050
3.224000	 0.050832
3.242000	 -0.083673
3.260000	 0.022016
3.278000	 0.035817
3.296000	 0.099350
3.314000	 -0.015974
3.332000	 0.039346
3.350000	 0.001702
3.368000	 0.049559
3.386000	 0.032555
3.404000	 -0.014931
3.422000	 0.096592
3.440000	 0.000307
3.458000	 0.070694
3.476000	 0.046203
3.494000	 -0.042892
3.512000	 0.016052
3.530000	 0.020649
3.548000	 0.050367
3.566000	 -0.046751
3.584000	 0.099126
3.602000	 0.033351
3.620000	 0.101189
3.638000	 0.040795
3.656000	 -0.012290
3.674000	 0.056797
3.692000	 0.004760
3.710000	 -0.146306
3.728000	 0.044597
3.746000	 0.038763
3.764000	 0.122148
3.782000	 -0.043201
3.800000	 -0.070139
3.818000	 0.031499
3.836000	 0.105602
3.854000	 -0.046686
3.872000	 0.079575
3.890000	 0.089552
3.908000	 0.023553
3.926000	 -0.023272
3.944000	 0.077975
3.962000	 -0.055626
3.980000	 -0.007986
3.998000	 0.141587
4.016000	 -0.041299
4.034000	 0.029601
4.052000	 0.038468
4.070000	 -0.057562
4.088000	 -0.006969
4.106000	 0.087212
4.124000	 0.170144
4.141999	 0.218396
4.160000	 -0.053368
4.178000	 0.129787
4.196000	 0.097893
4.214000	 -0.022162
4.232000	 -0.083881
4.250000	 0.059084
4.268000	 -0.009616
4.286000	 0.069492
4.304000	 -0.020835
4.322000	 0.024121
4.340000	 -0.053570
4.358000	 0.142290
4.375999	 0.052552
4.394000	 0.057890
4.412000	 0.111160
4.430000	 0.124611
4.448000	 0.270677
4.466000	 0.422411
4.484000	 0.481717
4.502000	 0.634193
4.520000	 0.891520
4.538000	 1.138483
4.556000	 1.251009
4.574000	 1.585996
4.592000	 1.822612
4.609999	 2.174316
4.628000	 2.522863
4.646000	 3.071089
4.664000	 3.705161
4.682000	 4.113997
4.700000	 4.631313
4.718000	 5.165586
4.736000	 5.825111
4.754000	 6.499950
4.772000	 7.211225
4.790000	 7.790328
4.808000	 8.478518
4.826000	 9.209730
4.843999	 9.785108
4.862000	 10.3966
4.880000	 11.1061
4.898000	 11.6735
4.916000	 12.2816
4.934000	 12.8293
4.952000	 13.4073
4.970000	 13.905
4.988000	 14.4679
5.006000	 14.9968
5.024000	 15.555
5.042000	 15.9929
5.060000	 16.4679
5.077999	 16.8705
5.096000	 17.2501
5.114000	 17.6522
5.132000	 18.0329
5.150000	 18.3352
5.168000	 18.6078
5.186000	 18.9759
5.204000	 19.264
5.222000	 19.5867
5.240000	 19.8329
5.258000	 20.1445
5.276000	 20.2888
5.294000	 20.4617
5.312000	 20.7541
5.330000	 21.0065
5.348000	 21.169
5.366000	 21.3069
5.384000	 21.5244
5.402000	 21.7274
5.420000	 21.8983
5.438000	 21.9687
5.456000	 22.1491
5.474000	 22.25
5.492000	 22.4028
5.510000	 22.5424
5.528000	 22.5732
5.546000	 22.6786
5.564000	 22.8441
5.582000	 22.9434
5.600000	 22.974
5.618000	 23.0845
5.636000	 23.1603
5.654000	 23.219
5.672000	 23.2403
5.690000	 23.3074
5.708000	 23.4654
5.726000	 23.5324
5.744000	 23.547
5.762000	 23.6004
5.780000	 23.7
5.798000	 23.827
5.816000	 23.8293
5.834000	 23.8279
5.852000	 23.8419
5.870000	 23.8357
5.888000	 23.8431
5.906000	 23.9038
5.923999	 24.0402
5.942000	 24.1021
5.960000	 24.0683
5.978000	 24.0745
5.996000	 24.167
6.014000	 24.1497
6.032000	 24.1467
6.050000	 24.2497
6.068000	 24.2808
6.086000	 24.2952
6.104000	 24.3019
6.122000	 24.2694
6.140000	 24.3003
6.158000	 24.4271
6.176000	 24.488
6.194000	 24.4469
6.212000	 24.4391
6.230000	 24.4422
6.248000	 24.4272
6.266000	 24.3752
6.284000	 24.3969
6.302000	 24.4322
6.320000	 24.4111
6.338000	 24.3817
6.356000	 24.3848
6.374000	 24.4327
6.392000	 24.4812
6.410000	 24.4683
6.428000	 24.4576
6.446000	 24.5146
6.464000	 24.5124
6.482000	 24.4605
6.500000	 24.4171
6.518000	 24.4004
6.536000	 24.4373
6.554000	 24.4366
6.572000	 24.3895
6.590000	 24.4
6.608000	 24.4599
6.626000	 24.5133
6.644000	 24.5639
6.662000	 24.5575
6.680000	 24.4526
6.698000	 24.3546
6.716000	 24.4036
6.734000	 24.4981
6.752000	 24.499
6.770000	 24.4663
6.788000	 24.4367
6.806000	 24.4022
6.824000	 24.435
6.842000	 24.4984
6.860000	 24.4522
6.878000	 24.3961
6.896000	 24.4633
6.914000	 24.4826
6.932000	 24.3944
6.950000	 24.3146
6.968000	 24.2763
6.986000	 24.2706
7.004000	 24.2984
7.022000	 24.3453
7.040000	 24.3515
7.058000	 24.2905
7.076000	 24.246
7.094000	 24.2855
7.112000	 24.3611
7.130000	 24.3882
7.148000	 24.336
7.166000	 24.2367
7.184000	 24.1539
7.202000	 24.1419
7.220000	 24.1901
7.238000	 24.2286
7.256000	 24.2273
7.274000	 24.2148
7.292000	 24.2045
7.310000	 24.2041
7.328000	 24.2329
7.346000	 24.2674
7.364000	 24.2663
7.382000	 24.2476
7.400000	 24.2455
7.418000	 24.2385
7.436000	 24.1962
7.454000	 24.1401
7.472000	 24.1044
7.490000	 24.1042
7.508000	 24.1414
7.526000	 24.1763
7.544000	 24.1568
7.562000	 24.1027
7.580000	 24.0659
7.598000	 24.0481
7.616000	 24.0379
7.634000	 24.0386
7.652000	 24.0378
7.670000	 24.0265
7.688000	 24.0284
7.706000	 24.0569
7.724000	 24.0793
7.742000	 24.0504
7.760000	 23.9771
7.778000	 23.9208
7.796000	 23.913
7.814000	 23.914
7.832000	 23.8913
7.850000	 23.8674
7.868000	 23.8565
7.886000	 23.8363
7.904000	 23.8036
7.922000	 23.7798
7.940000	 23.7595
7.958000	 23.7257
7.976000	 23.6975
7.994000	 23.7075
8.012000	 23.7451
8.030000	 23.7661
8.048000	 23.7566
8.065999	 23.7454
8.084000	 23.7468
8.102000	 23.7267
8.120000	 23.6578
8.138000	 23.5773
8.155999	 23.5496
8.173999	 23.5889
8.192000	 23.6526
8.210000	 23.6998
8.228000	 23.7243
8.246000	 23.7368
8.263999	 23.7407
8.282000	 23.7319
8.300000	 23.7083
8.318000	 23.675
8.336000	 23.6423
8.353999	 23.6171
8.372000	 23.5992
8.390000	 23.5873
8.408000	 23.5861
8.426000	 23.5947
8.443999	 23.5934
8.462000	 23.5611
8.480000	 23.5088
8.498000	 23.4753
8.516000	 23.4849
8.533999	 23.5207
8.552000	 23.5446
8.570000	 23.538
8.588000	 23.5165
8.606000	 23.506
8.624000	 23.5099
8.641999	 23.5038
8.660000	 23.4648
8.678000	 23.3988
8.696000	 23.3355
8.714000	 23.2987
8.731999	 23.2879
8.750000	 23.2802
8.768000	 23.2553
8.786000	 23.2169
8.804000	 23.1899
8.821999	 23.1956
8.840000	 23.23
8.858000	 23.2692
8.876000	 23.2909
8.894000	 23.2903
8.911999	 23.2771
8.930000	 23.2639
8.948000	 23.2535
8.966000	 23.2349
8.984000	 23.1984
9.001999	 23.1543
9.020000	 23.1289
9.038000	 23.1384
9.056000	 23.1711
9.074000	 23.1998
9.092000	 23.2078
9.109999	 23.1985
9.128000	 23.1834
9.146000	 23.17
9.164000	 23.1613
9.182000	 23.1576
9.199999	 23.1561
9.218000	 23.1503
9.236000	 23.1372
9.254000	 23.1203
9.272000	 23.1052
9.289999	 23.0917
9.308000	 23.072
9.326000	 23.0382
9.344000	 22.9889
9.362000	 22.9299
9.379999	 22.8742
9.398000	 22.84
9.416000	 22.8434
9.434000	 22.8843
9.452000	 22.9379
9.469999	 22.9652
9.488000	 22.9392
9.506000	 22.8682
9.524000	 22.7919
9.542000	 22.7494
9.560000	 22.7496
9.577999	 22.7703
9.596000	 22.7838
9.614000	 22.779
9.632000	 22.7627
9.650000	 22.7486
9.667999	 22.747
9.686000	 22.7595
9.704000	 22.7785
9.722000	 22.7896
9.740000	 22.7762
9.757999	 22.7281
9.776000	 22.6498
9.794000	 22.5626
9.812000	 22.4958
9.830000	 22.4673
9.847999	 22.4718
9.866000	 22.486
9.884000	 22.4865
9.902000	 22.4659
9.920000	 22.4348
9.937999	 22.4109
9.956000	 22.406
9.974000	 22.4192
9.992000	 22.4405
10.01	22.4577
10.028	22.4624
10.046	22.4522
10.064	22.4298
10.082	22.4009
10.1	22.371
10.118	22.3446
10.136	22.3257
10.154	22.3171
10.172	22.3175
10.19	22.3176
10.208	22.3032
10.226	22.2648
10.244	22.2047
10.262	22.1378
10.28	22.0815
10.298	22.0456
10.316	22.027
10.334	22.0165
10.352	22.0079
10.37	22.0031
10.388	22.0081
10.406	22.0258
10.424	22.0529
10.442	22.0818
10.46	22.1069
10.478	22.1268
10.496	22.1425
10.514	22.1531
10.532	22.1539
10.55	22.1384
10.568	22.1022
10.586	22.0466
10.604	21.9784
10.622	21.9079
10.64	21.845
10.658	21.7972
10.676	21.7682
10.694	21.7561
10.712	21.7529
10.73	21.7476
10.748	21.7299
10.766	21.6966
10.784	21.6536
10.802	21.6149
10.82	21.5935
10.838	21.5954
10.856	21.6159
10.874	21.6426
10.892	21.6641
10.91	21.6751
10.928	21.6782
10.946	21.6777
10.964	21.6733
10.982	21.6584
11	21.6248
11.018	21.5691
11.036	21.4983
11.054	21.4279
11.072	21.3736
11.09	21.345
11.108	21.3401
11.126	21.3476
11.144	21.3545
11.162	21.3518
11.18	21.3387
11.198	21.3217
11.216	21.3095
11.234	21.3086
11.252	21.3204
11.27	21.3396
11.288	21.3562
11.306	21.3595
11.324	21.341
11.342	21.2981
11.36	21.235
11.378	21.1621
11.396	21.0917
11.414	21.035
11.432	20.9986
11.45	20.9835
11.468	20.9861
11.486	21.0009
11.504	21.0227
11.522	21.047
11.54	21.0701
11.558	21.0876
11.576	21.0949
11.594	21.0884
11.612	21.0669
11.63	21.0332
11.648	20.9925
11.666	20.9511
11.684	20.9123
11.702	20.8749
11.72	20.8339
11.738	20.7834
11.756	20.7213
11.774	20.6512
11.792	20.5826
11.81	20.5272
11.828	20.495
11.846	20.491
11.864	20.5133
11.882	20.5542
11.9	20.6034
11.918	20.6502
11.936	20.6864
11.954	20.7067
11.972	20.7078
11.99	20.6882
12.008	20.648
12.026	20.589
12.044	20.5158
12.062	20.4349
12.08	20.3543
12.098	20.2819
12.116	20.2237
12.134	20.1825
12.152	20.1577
12.17	20.1459
12.188	20.1428
12.206	20.1439
12.224	20.1458
12.242	20.1465
12.26	20.1447
12.278	20.1396
12.296	20.1307
12.314	20.1181
12.332	20.1022
12.35	20.0842
12.368	20.0659
12.386	20.0493
12.404	20.0366
12.422	20.0299
12.44	20.0303
12.458	20.0377
12.476	20.0509
12.494	20.067
12.512	20.0826
12.53	20.0937
12.548	20.097
12.566	20.0899
12.584	20.0708
12.602	20.0387
12.62	19.9938
12.638	19.9372
12.656	19.8709
12.674	19.7981
12.692	19.7232
12.71	19.6511
12.728	19.5873
12.746	19.5364
12.764	19.5019
12.782	19.4852
12.8	19.4854
12.818	19.4996
12.836	19.5226
12.854	19.5484
12.872	19.5708
12.89	19.5845
12.908	19.5857
12.926	19.5732
12.944	19.5475
12.962	19.5116
12.98	19.4695
12.998	19.4257
13.016	19.3846
13.034	19.3502
13.052	19.325
13.07	19.31
13.088	19.3049
13.106	19.3081
13.124	19.3167
13.142	19.3278
13.16	19.338
13.178	19.3451
13.196	19.3476
13.214	19.3458
13.232	19.341
13.25	19.3357
13.268	19.3326
13.286	19.3343
13.304	19.3424
13.322	19.357
13.34	19.3766
13.358	19.3983
13.376	19.4188
13.394	19.4342
13.412	19.4416
13.43	19.439
13.448	19.4257
13.466	19.4024
13.484	19.3707
13.502	19.3326
13.52	19.2899
13.538	19.2445
13.556	19.1974
13.574	19.149
13.592	19.0992
13.61	19.0484
13.628	18.9973
13.646	18.9475
13.664	18.9012
13.682	18.8611
13.7	18.8293
13.718	18.807
13.736	18.7941
13.754	18.7885
13.772	18.787
13.79	18.786
13.808	18.7824
13.826	18.7737
13.844	18.7593
13.862	18.7403
13.88	18.7191
13.898	18.6987
13.916	18.6817
13.934	18.6698
13.952	18.6636
13.97	18.6623
13.988	18.6639
14.006	18.6664
14.024	18.6678
14.042	18.667
14.06	18.6638
14.078	18.6589
14.096	18.6533
14.114	18.6482
14.132	18.6444
14.15	18.6426
14.168	18.6429
14.186	18.6449
14.204	18.6486
14.222	18.6537
14.24	18.6598
14.258	18.666
14.276	18.6711
14.294	18.6734
14.312	18.6705
14.33	18.6598
14.348	18.6385
14.366	18.6044
14.384	18.5569
14.402	18.4972
14.42	18.4284
14.438	18.3551
14.456	18.2827
14.474	18.2169
14.492	18.1625
14.51	18.1225
14.528	18.0975
14.546	18.0857
14.564	18.0836
14.582	18.0868
14.6	18.0904
14.618	18.0903
14.636	18.0834
14.654	18.0689
14.672	18.0475
14.69	18.0211
14.708	17.9925
14.726	17.965
14.744	17.9418
14.762	17.9247
14.78	17.9147
14.798	17.9112
14.816	17.9134
14.834	17.9189
14.852	17.9253
14.87	17.9299
14.888	17.9304
14.906	17.9253
14.924	17.913
14.942	17.8931
14.96	17.8657
14.978	17.8317
14.996	17.7922
15.014	17.749
15.032	17.7041
15.05	17.6598
15.068	17.6177
15.086	17.5793
15.104	17.5457
15.122	17.5178
15.14	17.4956
15.158	17.4787
15.176	17.4667
15.194	17.4584
15.212	17.4528
15.23	17.4487
15.248	17.4449
15.266	17.4406
15.284	17.4345
15.302	17.426
15.32	17.4143
15.338	17.3993
15.356	17.3808
15.374	17.3589
15.392	17.3341
15.41	17.3068
15.428	17.2775
15.446	17.2471
15.464	17.2162
15.482	17.1855
15.5	17.1557
15.518	17.1274
15.536	17.1009
15.554	17.0765
15.572	17.0544
15.59	17.035
15.608	17.0187
15.626	17.006
15.644	16.9975
15.662	16.9939
15.68	16.9952
15.698	17.0017
15.716	17.0129
15.734	17.028
15.752	17.0455
15.77	17.0639
15.788	17.0805
15.806	17.0929
15.824	17.0991
15.842	17.0969
15.86	17.0846
15.878	17.062
15.896	17.029
15.914	16.9869
15.932	16.9379
15.95	16.8841
15.968	16.8288
15.986	16.7754
16.004	16.7263
16.022	16.6838
16.04	16.6503
16.058	16.6265
16.076	16.6128
16.094	16.6093
16.112	16.6149
16.13	16.6285
16.148	16.6487
16.166	16.6729
16.184	16.6993
16.202	16.7259
16.22	16.7497
16.238	16.7687
16.256	16.7809
16.274	16.7839
16.292	16.7769
16.31	16.759
16.328	16.7301
16.346	16.6909
16.364	16.6425
16.382	16.5872
16.4	16.5275
16.418	16.4655
16.436	16.4048
16.454	16.3475
16.472	16.2954
16.49	16.2507
16.508	16.2138
16.526	16.1852
16.544	16.1642
16.562	16.1497
16.58	16.1408
16.598	16.1357
16.616	16.1335
16.634	16.1333
16.652	16.134
16.67	16.1357
16.688	16.1382
16.706	16.1417
16.724	16.1464
16.742	16.1526
16.76	16.1599
16.778	16.1683
16.796	16.1769
16.814	16.1848
16.832	16.191
16.85	16.1939
16.868	16.1925
16.886	16.1861
16.904	16.1735
16.922	16.1545
16.94	16.1289
16.958	16.0969
16.976	16.0587
16.994	16.0154
17.012	15.9678
17.03	15.9167
17.048	15.8636
17.066	15.8092
17.084	15.7546
17.102	15.7006
17.12	15.6478
17.138	15.597
17.156	15.5487
17.174	15.5034
17.192	15.4618
17.21	15.4242
17.228	15.3912
17.246	15.3631
17.264	15.3401
17.282	15.3226
17.3	15.3106
17.318	15.3041
17.336	15.3028
17.354	15.3064
17.372	15.314
17.39	15.3251
17.408	15.3388
17.426	15.3538
17.444	15.3695
17.462	15.3845
17.48	15.3984
17.498	15.4099
17.516	15.4189
17.534	15.4248
17.552	15.4276
17.57	15.4272
17.588	15.4241
17.606	15.4187
17.624	15.4117
17.642	15.404
17.66	15.3961
17.678	15.3893
17.696	15.3839
17.714	15.3808
17.732	15.38
17.75	15.3821
17.768	15.3862
17.786	15.3921
17.804	15.3986
17.822	15.4051
17.84	15.4093
17.858	15.4103
17.876	15.4063
17.894	15.3955
17.912	15.3769
17.93	15.349
17.948	15.3115
17.966	15.2638
17.984	15.2065
18.002	15.14
18.02	15.066
18.038	14.9855
18.056	14.9017
18.074	14.8155
18.092	14.7312
18.11	14.6493
18.128	14.5738
18.146	14.5052
18.164	14.4461
18.182	14.3966
18.2	14.3578
18.218	14.3289
18.236	14.31
18.254	14.2992
18.272	14.2963
18.29	14.2982
18.308	14.3044
18.326	14.3122
18.344	14.3212
18.362	14.329
18.38	14.3357
18.398	14.3404
18.416	14.3433
18.434	14.3443
18.452	14.3446
18.47	14.3445
18.488	14.3454
18.506	14.3478
18.524	14.3527
18.542	14.3604
18.56	14.3713
18.578	14.3855
18.596	14.4019
18.614	14.4205
18.632	14.4391
18.65	14.4576
18.668	14.4733
18.686	14.486
18.704	14.4932
18.722	14.4951
18.74	14.4899
18.758	14.478
18.776	14.4592
18.794	14.4343
18.812	14.4041
18.83	14.3697
18.848	14.3332
18.866	14.2956
18.884	14.2594
18.902	14.2252
18.92	14.1955
18.938	14.1703
18.956	14.151
18.974	14.1371
18.992	14.1287
19.01	14.1246
19.028	14.124
19.046	14.1252
19.064	14.1264
19.082	14.1263
19.1	14.1225
19.118	14.1141
19.136	14.099
19.154	14.0773
19.172	14.0475
19.19	14.0104
19.208	13.9664
19.226	13.9163
19.244	13.8621
19.262	13.8046
19.28	13.7474
19.298	13.6907
19.316	13.6389
19.334	13.5916
19.352	13.5528
19.37	13.5223
19.388	13.5024
19.406	13.493
19.424	13.4946
19.442	13.5073
19.46	13.5296
19.478	13.5618
19.496	13.6014
19.514	13.6481
19.532	13.6994
19.55	13.7543
19.568	13.8111
19.586	13.8679
19.604	13.9241
19.622	13.9775
19.64	14.0281
19.658	14.0741
19.676	14.1155
19.694	14.1515
19.712	14.182
19.73	14.2065
19.748	14.2251
19.766	14.2377
19.784	14.2444
19.802	14.245
19.82	14.2395
19.838	14.228
19.856	14.2105
19.874	14.1869
19.892	14.1571
19.91	14.1212
19.928	14.0788
19.946	14.03
19.964	13.9749
19.982	13.9134
20	13.8459
20.018	13.7727
20.036	13.6941
20.054	13.611
20.072	13.5233
20.09	13.4327
20.108	13.3388
20.126	13.2437
20.144	13.1473
20.162	13.0514
20.18	12.9566
20.198	12.8638
20.216	12.7745
20.234	12.6886
20.252	12.6082
20.27	12.5328
20.288	12.4639
20.306	12.4015
20.324	12.3461
20.342	12.2984
20.36	12.2581
20.378	12.2256
20.396	12.2008
20.414	12.1838
20.432	12.1745
20.45	12.1726
20.468	12.1778
20.486	12.1899
20.504	12.2084
20.522	12.2331
20.54	12.2631
20.558	12.2983
20.576	12.3377
20.594	12.381
20.612	12.4276
20.63	12.4759
20.648	12.5263
20.666	12.5767
20.684	12.6274
20.702	12.6771
20.72	12.7247
20.738	12.7702
20.756	12.812
20.774	12.8505
20.792	12.8845
20.81	12.9136
20.828	12.9378
20.846	12.9565
20.864	12.9701
20.882	12.9789
20.9	12.9827
20.918	12.9825
20.936	12.9788
20.954	12.9719
20.972	12.9636
20.99	12.9534
21.008	12.9433
21.026	12.9338
21.044	12.9253
21.062	12.9196
21.08	12.9162
21.098	12.9163
21.116	12.9202
21.134	12.9278
21.152	12.9394
21.17	12.955
21.188	12.9736
21.206	12.9954
21.224	13.0196
21.242	13.0446
21.26	13.0711
21.278	13.0968
21.296	13.1216
21.314	13.1448
21.332	13.1647
21.35	13.1818
21.368	13.1947
21.386	13.2031
21.404	13.2071
21.422	13.2061
21.44	13.2001
21.458	13.19
21.476	13.1757
21.494	13.1576
21.512	13.1373
21.53	13.1143
21.548	13.0902
21.566	13.0662
21.584	13.0419
21.602	13.0193
21.62	12.9981
21.638	12.979
21.656	12.963
21.674	12.9499
21.692	12.9396
21.71	12.9324
21.728	12.9278
21.746	12.9247
21.764	12.9238
21.782	12.9235
21.8	12.9225
21.818	12.9214
21.836	12.9173
21.854	12.9104
21.872	12.8999
21.89	12.8839
21.908	12.8628
21.926	12.8361
21.944	12.8033
21.962	12.7646
21.98	12.7209
21.998	12.6717
22.016	12.6179
22.034	12.5611
22.052	12.5004
22.07	12.4382
22.088	12.3759
22.106	12.3128
22.124	12.2522
22.142	12.1946
22.16	12.1401
22.178	12.0913
22.196	12.0479
22.214	12.0102
22.232	11.9792
22.25	11.9547
22.268	11.9363
22.286	11.9241
22.304	11.9179
22.322	11.9162
22.34	11.9192
22.358	11.9263
22.376	11.9351
22.394	11.9464
22.412	11.959
22.43	11.9706
22.448	11.9823
22.466	11.9926
22.484	12.0004
22.502	12.0063
22.52	12.0096
22.538	12.01
22.556	12.0077
22.574	12.0033
22.592	11.9965
22.61	11.9876
22.628	11.9781
22.646	11.9675
22.664	11.9565
22.682	11.9467
22.7	11.9375
22.718	11.9298
22.736	11.9248
22.754	11.9219
22.772	11.9218
22.79	11.925
22.808	11.9314
22.826	11.9406
22.844	11.9525
22.862	11.9673
22.88	11.9841
22.898	12.0028
22.916	12.0235
22.934	12.0444
22.952	12.0651
22.97	12.0857
22.988	12.1045
23.006	12.1215
23.024	12.1365
23.042	12.1471
23.06	12.1531
23.078	12.1547
23.096	12.1496
23.114	12.1383
23.132	12.1204
23.15	12.0934
23.168	12.0577
23.186	12.013
23.204	11.9577
23.222	11.8919
23.24	11.8154
23.258	11.7269
23.276	11.6263
23.294	11.5138
23.312	11.3892
23.33	11.2522
23.348	11.1034
23.366	10.9434
23.384	10.7719
23.402	10.5893
23.42	10.3975
23.438	10.1958
23.456	9.984854
23.474	9.767843
23.492	9.544274
23.51	9.314512
23.528	9.083117
23.546	8.850511
23.564	8.616033
23.582	8.384698
23.6	8.157926
23.618	7.934134
23.636	7.717977
23.654	7.511675
23.672	7.313156
23.69	7.125978
23.708	6.952628
23.726	6.791274
23.744	6.643741
23.762	6.511844
23.78	6.394664
23.798	6.292469
23.816	6.205875
23.834	6.135034
23.852	6.079100
23.87	6.037191
23.888	6.010245
23.906	5.996991
23.924	5.994926
23.942	6.004697
23.96	6.025876
23.978	6.054946
23.996	6.091035
24.014	6.135302
24.032	6.184376
24.05	6.236251
24.068	6.292752
24.086	6.351323
24.104	6.409535
24.122	6.469042
24.14	6.528210
24.158	6.584525
24.176	6.638748
24.194	6.690553
24.212	6.738117
24.23	6.781386
24.248	6.820758
24.266	6.854440
24.284	6.881413
24.302	6.902626
24.32	6.917154
24.338	6.923996
24.356	6.923312
24.374	6.915567
24.392	6.901111
24.41	6.879535
24.428	6.851244
24.446	6.817385
24.464	6.778108
24.482	6.732868
24.5	6.683602
24.518	6.631899
24.536	6.576633
24.554	6.518755
24.572	6.459742
24.59	6.399079
24.608	6.336964
24.626	6.274926
24.644	6.213980
24.662	6.153464
24.68	6.093023
24.698	6.032485
24.716	5.972629
24.734	5.912295
24.752	5.849838
24.77	5.786069
24.788	5.720919
24.806	5.651007
24.824	5.574210
24.842	5.492961
24.86	5.404545
24.878	5.305588
24.896	5.197540
24.914	5.079979
24.932	4.949528
24.95	4.804387
24.968	4.646568
24.986	4.474386
25.004	4.285932
25.022	4.081418
25.04	3.861478
25.058	3.626206
25.076	3.375152
25.094	3.108100
25.112	2.827130
25.13	2.534155
25.148	2.226491
25.166	1.906687
25.184	1.579898
25.202	1.247660
25.22	0.906477
25.238	0.562628
25.256	0.222507
25.274	-0.118982
25.292	-0.458807
25.31	-0.787495
25.328	-1.100440
25.346	-1.404848
25.364	-1.691974
25.382	-1.951703
25.4	-2.187669
25.418	-2.400314
25.436	-2.579732
25.454	-2.718576
25.472	-2.823871
25.49	-2.891140
25.508	-2.913259
25.526	-2.888195
25.544	-2.819663
25.562	-2.705519
25.58	-2.543503
25.598	-2.332092
25.616	-2.074531
25.634	-1.775047
25.652	-1.434887
25.67	-1.049130
25.688	-0.626567
25.706	-0.177264
25.724	0.301703
25.742	0.812946
25.76	1.341527
25.778	1.874041
25.796	2.423007
25.814	2.981034
25.832	3.529567
25.85	4.057572
25.868	4.580761
25.886	5.084817
25.904	5.551265
25.922	5.976525
25.94	6.370978
25.958	6.721896
25.976	7.016360
25.994	7.257780
26.012	7.448723
26.03	7.582635
26.048	7.653585
26.066	7.663837
26.084	7.615144
26.102	7.507805
26.12	7.340947
26.138	7.112274
26.156	6.827714
26.174	6.493984
26.192	6.111466
26.21	5.675122
26.228	5.195383
26.246	4.683143
26.264	4.135527
26.282	3.549015
26.3	2.936936
26.318	2.312265
26.336	1.667158
26.354	1.002290
26.372	0.331829
26.39	-0.331347
26.408	-0.997120
26.426	-1.662494
26.444	-2.315701
26.462	-2.947211
26.48	-3.566914
26.498	-4.169990
26.516	-4.746444
26.534	-5.288754
26.552	-5.804010
26.57	-6.290021
26.588	-6.742243
26.606	-7.157128
26.624	-7.536863
26.642	-7.882903
26.66	-8.196319
26.678	-8.476783
26.696	-8.722036
26.714	-8.936679
26.732	-9.125843
26.75	-9.290968
26.768	-9.426665
26.786	-9.539918
26.804	-9.638602
26.822	-9.725922
26.84	-9.795224
26.858	-9.852405
26.876	-9.904260
26.894	-9.954218
26.912	-9.997223
26.93	-10.036
26.948	-10.0738
26.966	-10.1145
26.984	-10.1583
27.002	-10.1993
27.02	-10.2311
27.028	-10.2397