File: Bakgrunnsmateriale/MATLAB/FTIR/ftir_data/LPE453/Mapping_121/LPE453_t06_cm-1.asc
PE IR       SPECTRUM    SPECTRUM    ASCII       PEDS        1.60
  -1
LP675A~1.ASC
17/05/16
14:51:05.00
17/05/16
14:51:05.00
tln
$LPE453_t0006$<tbV0>[0.0,-13.0,8.0,0.0,27,1,0]
370
64

2002,4.07
MIRTGS : RIGHTBACK : INTERNAL 2
MIR : ON : INTERNAL 2
OPTKBR

0.200000
8
8.000000
FILLER
RATIO
SPECTRUM
UNLOCKED 256

DOUBLE
64
COMBINED
1
0
0

1.000000
RATIO

1
0
TRUE
51149
0
LEFT NOT FITTED RIGHT NOT FITTED 0
NONE
NONE
15600
12
4.427000
51148
TRUE
1 0 8 72 0 0 0 0

15798

#HDR
-1
-1
#GR
CM-1
%T
2.38419e-05
0.0
5000
-1.000000
4631
8
46.8937
-2.580738
#DATA
5000	0.217509
4996	0.421214
4992	0.717425
4988	0.726366
4984	0.431132
4980	0.238418
4976	0.252747
4972	0.252413
4968	0.166916
4964	-0.037169
4960	-0.220060
4956	-0.311231
4952	-0.388431
4948	-0.198960
4944	0.138950
4940	0.360321
4936	0.472640
4932	0.342106
4928	0.116348
4924	0.034928
4920	0.061058
4916	0.066399
4912	0.090074
4908	0.148844
4904	0.115537
4900	0.067973
4896	0.238966
4892	0.492954
4888	0.582289
4884	0.680088
4880	0.798892
4876	0.757622
4872	0.604128
4868	0.455212
4864	0.424170
4860	0.430774
4856	0.390553
4852	0.327348
4848	0.244188
4844	0.206637
4840	0.185322
4836	0.189113
4832	0.259470
4828	0.371098
4824	0.458312
4820	0.493097
4816	0.529599
4812	0.619506
4808	0.600147
4804	0.270128
4800	-0.011086
4796	0.103735
4792	0.433135
4788	0.547170
4784	0.336170
4780	0.156855
4776	0.192236
4772	0.326299
4768	0.429105
4764	0.409340
4760	0.300860
4756	0.231647
4752	0.168085
4748	0.068902
4744	0.005054
4740	-0.145316
4736	-0.373864
4732	-0.374174
4728	-0.164341
4724	-0.073218
4720	-0.054979
4716	-0.007486
4712	0.027704
4708	0.198507
4704	0.475263
4700	0.600123
4696	0.566411
4692	0.403094
4688	0.137090
4684	0.107860
4680	0.322341
4676	0.369429
4672	0.307250
4668	0.499439
4664	0.672125
4660	0.600337
4656	0.455713
4652	0.417017
4648	0.584435
4644	0.573730
4640	0.577259
4636	0.870680
4632	0.782942
4628	0.275492
4624	0.146818
4620	0.760102
4616	1.492762
4612	1.618766
4608	1.138973
4604	0.500106
4600	0.161242
4596	0.123739
4592	-0.097298
4588	-0.393533
4584	-0.513768
4580	-0.133824
4576	0.718283
4572	0.983762
4568	-0.079560
4564	-1.435399
4560	-2.067255
4556	-2.312421
4552	-2.580738
4548	-1.728153
4544	-0.247478
4540	-0.458478
4536	-0.910115
4532	-0.209665
4528	0.478911
4524	2.112460
4520	10.6464
4516	18.1633
4512	12.9987
4508	7.089090
4504	5.429530
4500	4.880213
4496	3.986120
4492	1.010704
4488	-0.036096
4484	-0.550866
4480	-1.100158
4476	-0.577235
4472	-0.218439
4468	-0.204133
4464	-0.210332
4460	-0.218391
4456	-0.126886
4452	-0.094485
4448	-0.266242
4444	-0.459361
4440	-0.523161
4436	-0.342726
4432	-0.033402
4428	0.032615
4424	-0.236463
4420	-0.518345
4416	-0.444984
4412	-0.058865
4408	0.265598
4404	0.551438
4400	0.917959
4396	1.084876
4392	1.032638
4388	0.855684
4384	0.661325
4380	0.593566
4376	0.598692
4372	0.591349
4368	0.488996
4364	0.324010
4360	0.256347
4356	0.326085
4352	0.389170
4348	0.461506
4344	0.546145
4340	0.464868
4336	0.335216
4332	0.273847
4328	0.152611
4324	0.117897
4320	0.242447
4316	0.295257
4312	0.239801
4308	0.152707
4304	-0.043916
4300	-0.194573
4296	-0.067901
4292	0.114727
4288	0.074791
4284	-0.031447
4280	-0.117540
4276	-0.089955
4272	0.072288
4268	0.218248
4264	0.168871
4260	-0.042176
4256	-0.055122
4252	0.076341
4248	0.073742
4244	0.082898
4240	0.174736
4236	0.299477
4232	0.435209
4228	0.393342
4224	0.311136
4220	0.299763
4216	0.229620
4212	0.189423
4208	0.178003
4204	0.096940
4200	0.026702
4196	0.040793
4192	-0.142145
4188	-0.336933
4184	-0.023174
4180	0.380682
4176	0.336503
4172	-0.002622
4168	-0.108718
4164	0.193738
4160	0.380825
4156	0.234675
4152	0.171136
4148	0.281906
4144	0.267004
4140	0.063157
4136	-0.062036
4132	0.036215
4128	0.107979
4124	0.069379
4120	0.053501
4116	-0.043201
4112	-0.192332
4108	-0.161528
4104	-0.036120
4100	0.020408
4096	0.091910
4092	0.143790
4088	0.126743
4084	0.112915
4080	0.089478
4076	0.074529
4072	0.132417
4068	0.204849
4064	0.159406
4060	0.100922
4056	0.135231
4052	0.173139
4048	0.146746
4044	0.148439
4040	0.184440
4036	0.170683
4032	0.143933
4028	0.105452
4024	0.098800
4020	0.070977
4016	-0.049042
4012	0.058269
4008	0.326800
4004	0.363707
4000	0.245857
3996	0.100255
3992	-0.003218
3988	0.041770
3984	0.183033
3980	0.357604
3976	0.428843
3972	0.259661
3968	0.113916
3964	0.184869
3960	0.293493
3956	0.348520
3952	0.281620
3948	0.151062
3944	0.138020
3940	0.203227
3936	0.285935
3932	0.374317
3928	0.364422
3924	0.271272
3920	0.200247
3916	0.162553
3912	0.202298
3908	0.338745
3904	0.376224
3900	0.237584
3896	0.164341
3892	0.181293
3888	0.121474
3884	0.013494
3880	-0.053358
3876	-0.018095
3872	0.057911
3868	0.015568
3864	-0.179576
3860	-0.277328
3856	-0.181031
3852	-0.064635
3848	-0.055909
3844	-0.025916
3840	0.120782
3836	0.193595
3832	0.178313
3828	0.223207
3824	0.274252
3820	0.214290
3816	0.150942
3812	0.179672
3808	0.163197
3804	0.138330
3800	0.165009
3796	0.125145
3792	0.077056
3788	0.063133
3784	0.074982
3780	0.177407
3776	0.208139
3772	0.122737
3768	0.111365
3764	0.150251
3760	0.165963
3756	0.134038
3752	0.094652
3748	0.095152
3744	0.078725
3740	0.035691
3736	-0.005984
3732	0.024747
3728	0.106954
3724	0.148487
3720	0.169324
3716	0.221228
3712	0.256824
3708	0.193667
3704	0.151062
3700	0.226402
3696	0.244235
3692	0.144696
3688	0.065922
3684	0.037622
3680	-0.013470
3676	-0.084424
3672	-0.114774
3668	-0.100612
3664	-0.031900
3660	0.048255
3656	0.075721
3652	0.099492
3648	0.122141
3644	0.096797
3640	0.126171
3636	0.196361
3632	0.114202
3628	-0.026607
3624	-0.068211
3620	-0.044083
3616	0.049424
3612	0.095295
3608	0.026607
3604	-0.053572
3600	-0.134325
3596	-0.122785
3592	0.009012
3588	0.144267
3584	0.211668
3580	0.167942
3576	0.030422
3572	-0.072574
3568	-0.078010
3564	-0.128602
3560	-0.195813
3556	-0.167012
3552	-0.115799
3548	-0.053954
3544	0.033688
3540	0.079250
3536	0.084447
3532	0.118064
3528	0.152182
3524	0.157380
3520	0.189471
3516	0.152230
3512	0.056815
3508	0.070810
3504	0.106525
3500	0.048470
3496	-0.030565
3492	-0.051689
3488	0.005054
3484	0.145077
3480	0.134897
3476	-0.074815
3472	-0.178074
3468	-0.156831
3464	-0.146245
3460	-0.080299
3456	0.014448
3452	0.051307
3448	0.088596
3444	0.119924
3440	0.080418
3436	0.004243
3432	-0.009369
3428	0.048208
3424	0.132226
3420	0.228142
3416	0.280356
3412	0.230574
3408	0.173473
3404	0.150322
3400	0.067782
3396	-0.011396
3392	-0.002956
3388	0.045132
3384	0.088667
3380	0.096845
3376	0.034737
3372	-0.018310
3368	0.038456
3364	0.141906
3360	0.188255
3356	0.145888
3352	0.095510
3348	0.085687
3344	0.047564
3340	0.014638
3336	0.040721
3332	0.050616
3328	-0.032067
3324	-0.126433
3320	-0.078845
3316	0.052118
3312	0.153160
3308	0.186777
3304	0.107264
3300	-0.016880
3296	-0.085783
3292	-0.096535
3288	-0.048804
3284	0.033235
3280	0.041389
3276	-0.018787
3272	-0.019931
3268	0.007772
3264	0.002670
3260	0.040864
3256	0.074100
3252	0.063061
3248	0.083160
3244	0.134158
3240	0.153064
3236	0.139451
3232	0.155854
3228	0.143456
3224	0.070977
3220	0.007033
3216	-0.035953
3212	-0.032234
3208	0.030183
3204	0.077962
3200	0.073957
3196	0.052523
3192	0.029134
3188	0.019693
3184	0.059032
3180	0.122261
3176	0.143051
3172	0.088405
3168	-0.049161
3164	-0.166034
3160	-0.134253
3156	-0.004029
3152	0.108051
3148	0.143408
3144	0.120043
3140	0.041007
3136	-0.056242
3132	-0.146150
3128	-0.219202
3124	-0.153040
3120	-0.023579
3116	0.062489
3112	0.108933
3108	0.116968
3104	0.152826
3100	0.133705
3096	0.008845
3092	-0.061106
3088	-0.030112
3084	0.022363
3080	0.028610
3076	-0.010728
3072	-0.004720
3068	0.028991
3064	0.000286
3060	-0.029230
3056	0.034713
3052	0.184798
3048	0.318074
3044	0.316572
3040	0.210928
3036	0.094747
3032	-0.017380
3028	-0.103926
3024	-0.123453
3020	-0.077128
3016	-0.008296
3012	0.003123
3008	-0.060653
3004	-0.124526
3000	-0.122380
2996	-0.064516
2992	-0.018644
2988	-0.002598
2984	0.040721
2980	0.094270
2976	0.065398
2972	-0.033712
2968	-0.079560
2964	-0.031638
2960	0.036668
2956	0.119495
2952	0.160980
2948	0.076198
2944	-0.015139
2940	-0.028109
2936	-0.030517
2932	0.015068
2928	0.096130
2924	0.125217
2920	0.095534
2916	0.034618
2912	0.007033
2908	0.053954
2904	0.149798
2900	0.182819
2896	0.110530
2892	0.053191
2888	0.051665
2884	0.050377
2880	0.065255
2876	0.132322
2872	0.195622
2868	0.168776
2864	0.128722
2860	0.183224
2856	0.215458
2852	0.153851
2848	0.145554
2844	0.170540
2840	0.129008
2836	0.097751
2832	0.102853
2828	0.089883
2824	0.051522
2820	0.044226
2816	0.110340
2812	0.175261
2808	0.173902
2804	0.134396
2800	0.067138
2796	0.013685
2792	-0.006556
2788	-0.020503
2784	-0.019478
2780	0.012850
2776	0.072646
2772	0.106930
2768	0.088977
2764	0.052380
2760	0.041866
2756	0.030612
2752	-0.004386
2748	-0.009512
2744	0.016617
2740	0.030136
2736	0.035333
2732	0.049972
2728	0.081706
2724	0.129032
2720	0.150752
2716	0.111413
2712	0.041151
2708	0.009155
2704	0.026512
2700	0.050139
2696	0.071573
2692	0.087785
2688	0.084233
2684	0.060009
2680	0.045108
2676	0.068879
2672	0.102114
2668	0.082015
2664	0.000739
2660	-0.073361
2656	-0.054168
2652	0.055599
2648	0.106072
2644	0.039553
2640	-0.026082
2636	-0.045228
2632	-0.057268
2628	-0.032615
2624	0.031256
2620	0.059175
2616	0.066781
2612	0.118947
2608	0.169157
2604	0.115418
2600	-0.002741
2596	-0.047373
2592	-0.008749
2588	0.023174
2584	0.022363
2580	-0.021862
2576	-0.106620
2572	-0.126695
2568	-0.022172
2564	0.054764
2560	0.012612
2556	-0.016999
2552	0.008845
2548	0.010466
2544	0.024986
2540	0.060391
2536	0.080585
2532	0.099515
2528	0.079083
2524	0.020503
2520	-0.002288
2516	0.010323
2512	0.024294
2508	0.083827
2504	0.160169
2500	0.163793
2496	0.110793
2492	0.061202
2488	0.072169
2484	0.116658
2480	0.103783
2476	0.059223
2472	0.056552
2468	0.075960
2464	0.070834
2460	0.054430
2456	0.068068
2452	0.084328
2448	0.095796
2444	0.095796
2440	0.023841
2436	-0.070452
2432	-0.091004
2428	-0.080633
2424	-0.102877
2420	-0.012612
2416	0.231981
2412	0.362920
2408	0.221395
2404	-0.018143
2400	-0.126218
2396	-0.111222
2392	-0.074958
2388	-0.035119
2384	0.005936
2380	0.041222
2376	0.058674
2372	0.038695
2368	0.019121
2364	0.024271
2360	0.044131
2356	0.054502
2352	0.025343
2348	0.016546
2344	0.046443
2340	0.052261
2336	0.058889
2332	0.086498
2328	0.115704
2324	0.159716
2320	0.247955
2316	0.361490
2312	0.418066
2308	0.406765
2304	0.397181
2300	0.411486
2296	0.428342
2292	0.432395
2288	0.437474
2284	0.516653
2280	0.630831
2276	0.700163
2272	0.776314
2268	0.852990
2264	0.888252
2260	0.970005
2256	1.163578
2252	1.328253
2248	1.408982
2244	1.536011
2240	1.710891
2236	1.848196
2232	1.953935
2228	2.111434
2224	2.342200
2220	2.588415
2216	2.840542
2212	3.078436
2208	3.286361
2204	3.465676
2200	3.642344
2196	3.922152
2192	4.257559
2188	4.544830
2184	4.839658
2180	5.197978
2176	5.629968
2172	6.140685
2168	6.634044
2164	6.955242
2160	7.185268
2156	7.568216
2152	8.076095
2148	8.517384
2144	8.919072
2140	9.402728
2136	9.907555
2132	10.3574
2128	10.8261
2124	11.341
2120	11.8355
2116	12.3018
2112	12.8049
2108	13.3617
2104	13.9055
2100	14.4313
2096	14.9627
2092	15.4474
2088	15.9061
2084	16.395
2080	16.8614
2076	17.2977
2072	17.8103
2068	18.4417
2064	19.0406
2060	19.5021
2056	19.9136
2052	20.3188
2048	20.7489
2044	21.2291
2040	21.7098
2036	22.1585
2032	22.5526
2028	22.9815
2024	23.4994
2020	23.9725
2016	24.3621
2012	24.7564
2008	25.16
2004	25.5167
2000	25.8492
1996	26.1926
1992	26.5011
1988	26.7509
1984	27.0176
1980	27.3344
1976	27.6509
1972	27.9976
1968	28.3554
1964	28.6107
1960	28.8007
1956	29.0414
1952	29.3174
1948	29.5937
1944	29.8449
1940	30.0245
1936	30.2226
1932	30.5044
1928	30.7431
1924	30.91
1920	31.0828
1916	31.2431
1912	31.4006
1908	31.6125
1904	31.8441
1900	31.9967
1896	32.0632
1892	32.1728
1888	32.3552
1884	32.5102
1880	32.6256
1876	32.7791
1872	32.967
1868	33.0853
1864	33.1374
1860	33.2012
1856	33.3066
1852	33.4623
1848	33.5979
1844	33.6591
1840	33.7062
1836	33.7863
1832	33.8618
1828	33.9254
1824	33.9991
1820	34.048
1816	34.0738
1812	34.1057
1808	34.1899
1804	34.3612
1800	34.5148
1796	34.5664
1792	34.5616
1788	34.5788
1784	34.6249
1780	34.6513
1776	34.7197
1772	34.8121
1768	34.8084
1764	34.7705
1760	34.7568
1756	34.7453
1752	34.7664
1748	34.8044
1744	34.8511
1740	34.9288
1736	35.0313
1732	35.1096
1728	35.0912
1724	35.0463
1720	35.051
1716	35.0138
1712	34.9526
1708	35.0091
1704	35.1576
1700	35.271
1696	35.2365
1692	35.1421
1688	35.181
1684	35.2893
1680	35.3271
1676	35.3219
1672	35.3127
1668	35.2954
1664	35.2718
1660	35.2922
1656	35.438
1652	35.5388
1648	35.4478
1644	35.3081
1640	35.2401
1636	35.2445
1632	35.2512
1628	35.2558
1624	35.2595
1620	35.2873
1616	35.3446
1612	35.3462
1608	35.3044
1604	35.2953
1600	35.312
1596	35.2448
1592	35.1324
1588	35.0793
1584	35.0699
1580	35.1472
1576	35.272
1572	35.2751
1568	35.2319
1564	35.3926
1560	35.6265
1556	35.5562
1552	35.309
1548	35.2361
1544	35.3097
1540	35.3047
1536	35.1837
1532	35.0875
1528	35.1038
1524	35.2026
1520	35.2481
1516	35.1699
1512	35.1349
1508	35.2197
1504	35.1974
1500	35.0524
1496	34.9795
1492	34.9658
1488	34.9446
1484	34.914
1480	34.9124
1476	34.9819
1472	35.0249
1468	34.998
1464	34.9846
1460	35.0574
1456	35.1193
1452	35.0013
1448	34.8584
1444	34.8798
1440	34.9947
1436	35.0039
1432	34.8881
1428	34.8932
1424	34.9994
1420	34.9863
1416	34.8964
1412	34.8272
1408	34.7721
1404	34.754
1400	34.7353
1396	34.709
1392	34.7492
1388	34.7892
1384	34.7689
1380	34.729
1376	34.6539
1372	34.5292
1368	34.4321
1364	34.4592
1360	34.526
1356	34.5235
1352	34.5035
1348	34.5034
1344	34.5577
1340	34.6504
1336	34.6734
1332	34.6093
1328	34.5414
1324	34.4888
1320	34.3966
1316	34.2849
1312	34.2183
1308	34.1734
1304	34.1284
1300	34.1609
1296	34.2718
1292	34.3524
1288	34.3627
1284	34.3674
1280	34.3483
1276	34.2938
1272	34.2502
1268	34.1619
1264	34.0919
1260	34.0865
1256	34.0506
1252	33.9952
1248	33.9765
1244	34.0067
1240	34.0469
1236	34.0438
1232	34.0632
1228	34.1551
1224	34.197
1220	34.1458
1216	34.104
1212	34.0883
1208	34.0668
1204	34.0357
1200	33.9894
1196	33.9113
1192	33.845
1188	33.8305
1184	33.8147
1180	33.8075
1176	33.8194
1172	33.8817
1168	33.9859
1164	33.9956
1160	33.9033
1156	33.7921
1152	33.7298
1148	33.7217
1144	33.7254
1140	33.6994
1136	33.6012
1132	33.5403
1128	33.599
1124	33.6328
1120	33.6028
1116	33.6227
1112	33.5702
1108	33.4225
1104	33.3853
1100	33.38
1096	33.3123
1092	33.2665
1088	33.2665
1084	33.2792
1080	33.2146
1076	33.1472
1072	33.2614
1068	33.4434
1064	33.4683
1060	33.3551
1056	33.2423
1052	33.217
1048	33.2615
1044	33.2995
1040	33.2794
1036	33.1866
1032	33.0933
1028	33.0578
1024	33.0209
1020	32.9219
1016	32.8276
1012	32.7732
1008	32.7794
1004	32.8755
1000	32.97
996	 32.9939
992	 32.9407
988	 32.8428
984	 32.7822
980	 32.7902
976	 32.774
972	 32.691
968	 32.5715
964	 32.4687
960	 32.4316
956	 32.4139
952	 32.4804
948	 32.5802
944	 32.5
940	 32.3886
936	 32.4377
932	 32.428
928	 32.2784
924	 32.2456
920	 32.2737
916	 32.1283
912	 31.9757
908	 31.9863
904	 31.9859
900	 31.8914
896	 31.7731
892	 31.6713
888	 31.6381
884	 31.7104
880	 31.7996
876	 31.8082
872	 31.7692
868	 31.693
864	 31.5431
860	 31.4155
856	 31.3887
852	 31.3648
848	 31.3001
844	 31.2435
840	 31.2204
836	 31.2385
832	 31.2866
828	 31.3558
824	 31.4079
820	 31.399
816	 31.3262
812	 31.1429
808	 30.8805
804	 30.672
800	 30.5768
796	 30.5593
792	 30.5684
788	 30.6237
784	 30.6877
780	 30.6146
776	 30.5346
772	 30.6515
768	 30.7292
764	 30.6362
760	 30.4795
756	 30.2741
752	 30.2196
748	 30.334
744	 30.3068
740	 30.0566
736	 29.7281
732	 29.5509
728	 29.5583
724	 29.5712
720	 29.5893
716	 29.6332
712	 29.7161
708	 29.8499
704	 29.8842
700	 29.7172
696	 29.4035
692	 29.1254
688	 29.0031
684	 28.9951
680	 28.9497
676	 28.8381
672	 28.6957
668	 28.5651
664	 28.5854
660	 28.729
656	 28.9056
652	 28.9965
648	 28.8954
644	 28.6285
640	 28.4006
636	 28.3355
632	 28.2595
628	 28.0716
624	 27.844
620	 27.7107
616	 27.5898
612	 27.4291
608	 27.3663
604	 27.3472
600	 27.371
596	 27.4632
592	 27.4161
588	 27.2103
584	 27.0138
580	 26.9344
576	 27.0115
572	 26.9181
568	 26.5529
564	 26.3092
560	 26.2539
556	 26.2282
552	 26.0805
548	 25.8457
544	 25.7409
540	 25.8055
536	 25.8253
532	 25.6774
528	 25.563
524	 25.4643
520	 25.2795
516	 24.9605
512	 24.724
508	 24.7129
504	 24.6191
500	 24.4202
496	 24.2864
492	 24.2552
488	 24.6378
484	 25.2848
480	 25.2798
476	 24.7917
472	 24.387
468	 24.2338
464	 24.4868
460	 24.474
456	 23.8145
452	 22.9468
448	 22.867
444	 22.8945
440	 21.3165
436	 19.9234
432	 19.9669
428	 19.9571
424	 20.5507
420	 23.1982
416	 24.9082
412	 23.8607
408	 23.2571
404	 26.8317
400	 28.3058
396	 20.3024
392	 17.0981
388	 27.9013
384	 43.3954
380	 45.246
376	 34.1381
372	 23.4925
370	 18.9743