File: Bakgrunnsmateriale/MATLAB/FTIR/ftir_data/LPE453/Mapping_121/LPE453_t21_cm-1.asc
PE IR       SPECTRUM    SPECTRUM    ASCII       PEDS        1.60
  -1
LP58D5~1.ASC
17/05/16
16:00:54.00
17/05/16
16:00:54.00
tln
$LPE453_t0021$<tbV0>[-10.4,-10.4,8.0,0.0,27,1,0]
370
64

2002,4.07
MIRTGS : RIGHTBACK : INTERNAL 2
MIR : ON : INTERNAL 2
OPTKBR

0.200000
8
8.000000
FILLER
RATIO
SPECTRUM
UNLOCKED 256

DOUBLE
64
COMBINED
1
0
0

1.000000
RATIO

1
0
TRUE
51149
0
LEFT NOT FITTED RIGHT NOT FITTED 0
NONE
NONE
15600
12
4.427000
51148
TRUE
1 0 8 72 0 0 0 0

15798

#HDR
-1
-1
#GR
CM-1
%T
2.38419e-05
0.0
5000
-1.000000
4631
8
43.0971
-12.7604
#DATA
5000	0.202107
4996	0.114440
4992	0.062942
4988	0.238418
4984	0.316166
4980	0.035595
4976	-0.364017
4972	-0.401616
4968	-0.171470
4964	0.116515
4960	0.642919
4956	1.073813
4952	0.998735
4948	0.549292
4944	0.173234
4940	0.157141
4936	0.247454
4932	0.323247
4928	0.349235
4924	0.094056
4920	-0.142884
4916	0.112867
4912	0.454449
4908	0.285315
4904	-0.082206
4900	-0.274276
4896	-0.355482
4892	-0.225567
4888	0.170350
4884	0.301241
4880	0.320768
4876	0.776624
4872	0.876188
4868	0.592875
4864	0.662493
4860	0.733375
4856	0.520563
4852	0.449466
4848	0.428247
4844	0.167036
4840	0.014638
4836	0.124549
4832	0.180029
4828	0.111699
4824	0.037646
4820	0.072360
4816	0.125384
4812	0.037407
4808	0.021934
4804	0.143861
4800	0.268292
4796	0.315737
4792	0.301909
4788	0.260376
4784	0.239324
4780	0.275206
4776	0.335359
4772	0.334239
4768	0.156259
4764	0.000739
4760	0.050616
4756	0.141119
4752	0.202345
4748	0.183868
4744	-0.001001
4740	-0.045752
4736	0.173377
4732	0.330781
4728	0.278091
4724	0.147676
4720	0.057601
4716	0.033307
4712	0.213813
4708	0.384807
4704	0.300836
4700	0.374674
4696	0.645041
4692	0.750231
4688	0.707936
4684	0.699448
4680	0.740623
4676	0.683093
4672	0.648379
4668	0.725483
4664	0.643277
4660	0.434207
4656	0.369048
4652	0.482344
4648	0.753092
4644	0.911641
4640	0.794243
4636	0.802898
4632	1.086378
4628	1.319360
4624	1.305365
4620	1.178646
4616	1.083111
4612	0.894093
4608	0.738048
4604	0.763082
4600	0.447297
4596	-0.302219
4592	-0.669097
4588	-0.322914
4584	-0.213098
4580	-0.805497
4576	-1.355743
4572	-1.244521
4568	-0.647997
4564	-0.231838
4560	-0.109648
4556	-0.551033
4552	-0.939345
4548	-1.361799
4544	-1.411271
4540	-0.407958
4536	0.662112
4532	0.937700
4528	0.306224
4524	-1.051712
4520	10.0943
4516	36.8939
4512	38.4974
4508	12.0059
4504	-0.468301
4500	-0.139617
4496	-1.448917
4492	-2.050805
4488	-1.585364
4484	-1.333451
4480	-1.512813
4476	-1.487970
4472	-1.142954
4468	-0.900888
4464	-0.875282
4460	-0.970292
4456	-1.117849
4452	-1.188659
4448	-0.967383
4444	-0.674009
4440	-0.854659
4436	-1.155185
4432	-0.905108
4428	-0.389003
4424	-0.044918
4420	0.025534
4416	0.099301
4412	0.302958
4408	0.500559
4404	0.484204
4400	0.472426
4396	0.549769
4392	0.553512
4388	0.474786
4384	0.395274
4380	0.416803
4376	0.567626
4372	0.694608
4368	0.775074
4364	0.818705
4360	0.810885
4356	0.781178
4352	0.647830
4348	0.455498
4344	0.355625
4340	0.307798
4336	0.203371
4332	0.051307
4328	0.032567
4324	0.150346
4320	0.160574
4316	0.200819
4312	0.244045
4308	0.147986
4304	0.125622
4300	0.142550
4296	0.174427
4292	0.240302
4288	0.089764
4284	-0.138068
4280	-0.113677
4276	0.000786
4272	-0.038695
4268	-0.169062
4264	-0.182843
4260	-0.000691
4256	0.111365
4252	0.031900
4248	0.001358
4244	0.064706
4240	0.153398
4236	0.229454
4232	0.213241
4228	0.155878
4224	0.198554
4220	0.311541
4216	0.383901
4212	0.403285
4208	0.280380
4204	0.114059
4200	0.160026
4196	0.355839
4192	0.329518
4188	0.155520
4184	0.410437
4180	0.533342
4176	0.091552
4172	-0.119328
4168	0.022006
4164	0.124669
4160	0.226163
4156	0.372552
4152	0.426054
4148	0.446414
4144	0.423145
4140	0.244808
4136	0.123786
4132	0.086951
4128	0.088286
4124	0.140047
4120	0.053310
4116	-0.084304
4112	-0.060534
4108	0.038719
4104	0.151658
4100	0.254154
4096	0.177311
4092	-0.018048
4088	-0.099444
4084	-0.016927
4080	0.156402
4076	0.333881
4072	0.376605
4068	0.214934
4064	0.041866
4060	-0.012183
4056	0.045514
4052	0.144648
4048	0.134301
4044	0.106763
4040	0.147485
4036	0.183010
4032	0.216507
4028	0.229382
4024	0.247788
4020	0.139093
4016	-0.116062
4012	-0.222611
4008	-0.117182
4004	0.031161
4000	0.166535
3996	0.239181
3992	0.182127
3988	0.084972
3984	0.062775
3980	0.193595
3976	0.302505
3972	0.236821
3968	0.203752
3964	0.306010
3960	0.377726
3956	0.281405
3952	0.194811
3948	0.172710
3944	0.165843
3940	0.261473
3936	0.285577
3932	0.145912
3928	0.059509
3924	0.163269
3920	0.278043
3916	0.170493
3912	-0.051379
3908	-0.179100
3904	-0.067043
3900	0.171899
3896	0.158333
3892	0.004863
3888	0.026535
3884	0.071930
3880	0.005054
3876	-0.029230
3872	0.041556
3868	0.125741
3864	0.125479
3860	0.074052
3856	0.084662
3852	0.160408
3848	0.186419
3844	0.204634
3840	0.179553
3836	0.055146
3832	0.032520
3828	0.064468
3824	0.078034
3820	0.101971
3816	0.194764
3812	0.219488
3808	0.099420
3804	0.048708
3800	0.022268
3796	-0.055670
3792	-0.114750
3788	-0.082325
3784	-0.009441
3780	0.073695
3776	0.109720
3772	0.113558
3768	0.206661
3764	0.256657
3760	0.169277
3756	0.079703
3752	0.052595
3748	0.027155
3744	0.040912
3740	0.100326
3736	0.142431
3732	0.094676
3728	0.049090
3724	0.096368
3720	0.100588
3716	-0.007224
3712	-0.105571
3708	-0.103569
3704	-0.006985
3700	0.069856
3696	0.059652
3692	0.093936
3688	0.159335
3684	0.152778
3680	0.159215
3676	0.210285
3672	0.238370
3668	0.203418
3664	0.113582
3660	0.094199
3656	0.149345
3652	0.143504
3648	0.070595
3644	0.000524
3640	-0.037884
3636	-0.045156
3632	-0.005269
3628	0.085186
3624	0.181031
3620	0.160360
3616	0.017619
3612	-0.099515
3608	-0.124979
3604	-0.007987
3600	0.156760
3596	0.143647
3592	0.039553
3588	0.007820
3584	-0.002884
3580	-0.021553
3576	0.002145
3572	0.091147
3568	0.211119
3564	0.240612
3560	0.096917
3556	-0.000667
3552	0.119233
3548	0.205326
3544	0.147366
3540	0.105357
3536	0.048947
3532	0.010728
3528	0.024056
3524	-0.047755
3520	-0.088000
3516	-0.061559
3512	-0.062823
3508	0.005125
3504	0.088214
3500	0.084710
3496	0.061511
3492	0.078749
3488	0.037598
3484	-0.059771
3480	-0.017547
3476	0.094676
3472	0.100827
3468	-0.028491
3464	-0.169157
3460	-0.113129
3456	0.038075
3452	0.066614
3448	-0.005722
3444	0.012087
3440	0.154256
3436	0.163984
3432	0.032663
3428	0.010204
3424	0.051498
3420	0.043654
3416	0.014710
3412	0.024223
3408	0.079917
3404	0.093364
3400	0.075817
3396	0.096130
3392	0.146532
3388	0.194978
3384	0.207114
3380	0.152707
3376	0.065398
3372	0.019025
3368	0.055265
3364	0.110173
3360	0.062489
3356	-0.014209
3352	-0.028944
3348	-0.058436
3344	-0.090813
3340	-0.059676
3336	0.036716
3332	0.114989
3328	0.131177
3324	0.164389
3320	0.179338
3316	0.139927
3312	0.095534
3308	0.078773
3304	0.121545
3300	0.139403
3296	0.068068
3292	0.003361
3288	0.065279
3284	0.174522
3280	0.164771
3276	0.117015
3272	0.137376
3268	0.178313
3264	0.217270
3260	0.195693
3256	0.107884
3252	0.072383
3248	0.088334
3244	0.118780
3240	0.153589
3236	0.176453
3232	0.198340
3228	0.169062
3224	0.092792
3220	0.076627
3216	0.089287
3212	0.081801
3208	0.082540
3204	0.061988
3200	0.009036
3196	-0.050115
3192	-0.031685
3188	0.049662
3184	0.051736
3180	-0.000596
3176	-0.010108
3172	-0.044488
3168	-0.097274
3164	-0.042963
3160	0.038719
3156	0.053954
3152	0.108265
3148	0.271368
3144	0.392675
3140	0.291776
3136	0.054574
3132	0.013494
3128	0.198411
3124	0.239682
3120	0.102567
3116	0.016546
3112	-0.003838
3108	0.049781
3104	0.138187
3100	0.132012
3096	0.044655
3092	-0.059318
3088	-0.099754
3084	-0.053191
3080	-0.007700
3076	0.010323
3072	0.020003
3068	0.039339
3064	0.052523
3060	0.040245
3056	0.066280
3052	0.119090
3048	0.116348
3044	0.041079
3040	-0.032210
3036	-0.018358
3032	0.051903
3028	0.096559
3024	0.115656
3020	0.124621
3016	0.053954
3012	-0.032734
3008	-0.040435
3004	-0.030446
3000	-0.024485
2996	-0.018525
2992	-0.059747
2988	-0.132250
2984	-0.107693
2980	0.014567
2976	0.053501
2972	-0.016021
2968	-0.073146
2964	-0.074982
2960	-0.037026
2956	0.042438
2952	0.091862
2948	0.047516
2944	-0.007128
2940	-0.006151
2936	0.021839
2932	0.017499
2928	0.040888
2924	0.107741
2920	0.091195
2916	0.023126
2912	0.003838
2908	0.069117
2904	0.088500
2900	0.005841
2896	0.016784
2892	0.082182
2888	0.087070
2884	0.089597
2880	0.067090
2876	0.054478
2872	0.127840
2868	0.188183
2864	0.171351
2860	0.162100
2856	0.186610
2852	0.204277
2848	0.182104
2844	0.099492
2840	0.046539
2836	0.079464
2832	0.110745
2828	0.081658
2824	0.026869
2820	0.017547
2816	0.034093
2812	0.037574
2808	0.033879
2804	0.032925
2800	0.047731
2796	0.039553
2792	0.044727
2788	0.081419
2784	0.085902
2780	0.059270
2776	0.035405
2772	0.038123
2768	0.013923
2764	-0.067949
2760	-0.098800
2756	-0.025272
2752	0.061202
2748	0.060558
2744	0.031900
2740	0.088357
2736	0.159382
2732	0.179100
2728	0.139045
2724	0.100231
2720	0.120186
2716	0.121140
2712	0.091361
2708	0.042676
2704	-0.000381
2700	-0.003194
2696	-0.013256
2692	-0.023698
2688	0.027036
2684	0.065302
2680	0.017738
2676	0.024342
2672	0.097537
2668	0.127625
2664	0.154852
2660	0.136733
2656	0.068378
2652	0.075268
2648	0.101590
2644	0.031328
2640	-0.028944
2636	-0.004243
2632	0.034022
2628	0.043916
2624	0.050806
2620	0.105738
2616	0.143051
2612	0.109076
2608	0.065445
2604	0.033783
2600	0.013923
2596	0.008821
2592	0.015115
2588	0.044631
2584	0.046801
2580	-0.027441
2576	-0.065994
2572	-0.013494
2568	0.042843
2564	0.009322
2560	-0.055289
2556	-0.012087
2552	0.040626
2548	0.004935
2544	-0.069022
2540	-0.063419
2536	0.026822
2532	0.086402
2528	0.139927
2524	0.175833
2520	0.118064
2516	-0.019431
2512	-0.119066
2508	-0.103187
2504	0.077652
2500	0.369596
2496	0.469112
2492	0.251007
2488	0.041079
2484	0.021553
2480	0.025510
2476	-0.006937
2472	-0.016450
2468	0.017285
2464	0.089073
2460	0.153660
2456	0.146365
2452	0.102877
2448	0.090122
2444	0.114822
2440	0.192594
2436	0.287413
2432	0.293087
2428	0.285387
2424	0.358629
2420	0.376129
2416	0.248575
2412	0.103521
2408	0.079250
2404	0.150227
2400	0.238299
2396	0.216436
2392	0.115013
2388	0.128364
2384	0.196170
2380	0.205636
2376	0.168299
2372	0.156760
2368	0.230455
2364	0.269484
2360	0.228214
2356	0.174307
2352	0.133180
2348	0.147962
2344	0.213980
2340	0.310873
2336	0.401544
2332	0.420117
2328	0.406002
2324	0.443124
2320	0.508999
2316	0.531315
2312	0.555038
2308	0.614857
2304	0.652456
2300	0.707340
2296	0.782084
2292	0.839304
2288	0.889515
2284	0.926876
2280	1.009035
2276	1.121878
2272	1.241946
2268	1.401162
2264	1.490116
2260	1.555132
2256	1.783800
2252	2.038311
2248	2.159166
2244	2.264928
2240	2.456951
2236	2.626466
2232	2.744150
2228	2.981257
2224	3.278279
2220	3.499388
2216	3.746747
2212	4.062581
2208	4.349160
2204	4.593014
2200	4.885292
2196	5.250096
2192	5.628395
2188	6.016325
2184	6.379318
2180	6.649971
2176	6.944251
2172	7.368493
2168	7.803511
2164	8.127045
2160	8.480238
2156	9.039568
2152	9.646821
2148	10.1121
2144	10.5155
2140	10.9813
2136	11.4726
2132	11.9389
2128	12.4363
2124	12.9463
2120	13.4054
2116	13.846
2112	14.3157
2108	14.8521
2104	15.4443
2100	16.0181
2096	16.5023
2092	16.9044
2088	17.4051
2084	18.0295
2080	18.5944
2076	19.0286
2072	19.4082
2068	19.834
2064	20.3692
2060	21.0301
2056	21.5784
2052	21.8695
2048	22.1488
2044	22.5671
2040	23.0432
2036	23.4854
2032	23.8984
2028	24.2949
2024	24.6595
2020	25.0423
2016	25.4487
2012	25.8192
2008	26.164
2004	26.5144
2000	26.8374
1996	27.1193
1992	27.4375
1988	27.7942
1984	28.1058
1980	28.4061
1976	28.6865
1972	28.9323
1968	29.1779
1964	29.3749
1960	29.606
1956	29.9454
1952	30.2415
1948	30.4629
1944	30.7073
1940	30.894
1936	31.0414
1932	31.2663
1928	31.5221
1924	31.7664
1920	31.9675
1916	32.1205
1912	32.2922
1908	32.4626
1904	32.5803
1900	32.664
1896	32.7715
1892	32.9026
1888	33.0166
1884	33.1618
1880	33.3103
1876	33.376
1872	33.432
1868	33.5807
1864	33.7872
1860	33.9685
1856	34.0909
1852	34.1814
1848	34.2442
1844	34.2893
1840	34.3466
1836	34.3979
1832	34.4761
1828	34.5848
1824	34.6636
1820	34.7466
1816	34.9024
1812	35.0516
1808	35.0642
1804	35.0402
1800	35.1188
1796	35.2188
1792	35.2361
1788	35.2538
1784	35.3086
1780	35.3546
1776	35.468
1772	35.5447
1768	35.5146
1764	35.5396
1760	35.5838
1756	35.5938
1752	35.6387
1748	35.737
1744	35.8732
1740	36.0053
1736	36.0794
1732	35.9906
1728	35.8011
1724	35.7697
1720	35.8956
1716	35.9517
1712	35.8582
1708	35.8007
1704	35.9835
1700	36.2608
1696	36.2936
1692	36.1329
1688	36.1131
1684	36.1698
1680	36.1224
1676	36.1432
1672	36.2289
1668	36.2178
1664	36.1681
1660	36.1966
1656	36.3059
1652	36.3033
1648	36.1625
1644	36.0571
1640	36.0373
1636	36.0546
1632	36.0583
1628	36.0756
1624	36.1196
1620	36.2223
1616	36.2797
1612	36.162
1608	36.0482
1604	36.0567
1600	36.0713
1596	36.0203
1592	35.9427
1588	35.9188
1584	35.9753
1580	36.0334
1576	36.0712
1572	36.1095
1568	36.1236
1564	36.1772
1560	36.3095
1556	36.3172
1552	36.1839
1548	36.1382
1544	36.2501
1540	36.2855
1536	36.1473
1532	36.0349
1528	36.0065
1524	36.0397
1520	36.0766
1516	36.0626
1512	36.0865
1508	36.1769
1504	36.1839
1500	36.1432
1496	36.1583
1492	36.1023
1488	35.9795
1484	35.9052
1480	35.854
1476	35.7959
1472	35.7424
1468	35.7242
1464	35.7408
1460	35.7093
1456	35.6184
1452	35.7547
1448	36.0555
1444	36.0802
1440	35.9345
1436	35.8382
1432	35.7539
1428	35.7123
1424	35.735
1420	35.7317
1416	35.6817
1412	35.6234
1408	35.5037
1404	35.3828
1400	35.3965
1396	35.4709
1392	35.5331
1388	35.5939
1384	35.5897
1380	35.5972
1376	35.6943
1372	35.7814
1368	35.7593
1364	35.6011
1360	35.444
1356	35.3347
1352	35.2008
1348	35.1381
1344	35.1801
1340	35.1827
1336	35.1292
1332	35.1479
1328	35.2325
1324	35.326
1320	35.4262
1316	35.4882
1312	35.5139
1308	35.507
1304	35.4293
1300	35.3269
1296	35.2532
1292	35.163
1288	35.0502
1284	35.015
1280	35.0458
1276	35.0588
1272	35.06
1268	35.0898
1264	35.14
1260	35.1423
1256	35.1211
1252	35.1386
1248	35.2006
1244	35.214
1240	35.0818
1236	34.9314
1232	34.8784
1228	34.863
1224	34.8394
1220	34.8066
1216	34.8472
1212	34.9671
1208	35.0204
1204	35.0292
1200	35.0881
1196	35.1638
1192	35.1601
1188	35.0751
1184	34.9758
1180	34.8367
1176	34.7324
1172	34.7392
1168	34.6765
1164	34.5236
1160	34.4614
1156	34.5425
1152	34.6968
1148	34.7904
1144	34.8297
1140	34.9139
1136	34.9916
1132	34.9388
1128	34.827
1124	34.7436
1120	34.6218
1116	34.4764
1112	34.2964
1108	34.0412
1104	33.9307
1100	33.9689
1096	34.0197
1092	34.2123
1088	34.5044
1084	34.6342
1080	34.5241
1076	34.4426
1072	34.5283
1068	34.5922
1064	34.5714
1060	34.4909
1056	34.3797
1052	34.2766
1048	34.0951
1044	33.8441
1040	33.738
1036	33.87
1032	34.0458
1028	34.1061
1024	34.196
1020	34.3697
1016	34.3474
1012	34.1541
1008	34.13
1004	34.1843
1000	34.0215
996	 33.8166
992	 33.8613
988	 33.8787
984	 33.7278
980	 33.6723
976	 33.7085
972	 33.767
968	 33.8385
964	 33.889
960	 33.9356
956	 34.0138
952	 34.1654
948	 34.2473
944	 34.1112
940	 33.9197
936	 33.7101
932	 33.4129
928	 33.1557
924	 33.0156
920	 32.9396
916	 32.8657
912	 32.8376
908	 32.8827
904	 33.0312
900	 33.3124
896	 33.5346
892	 33.5989
888	 33.6056
884	 33.5577
880	 33.396
876	 33.1453
872	 32.9279
868	 32.7553
864	 32.5761
860	 32.4425
856	 32.3357
852	 32.3181
848	 32.4841
844	 32.6839
840	 32.7979
836	 32.8405
832	 32.8194
828	 32.8108
824	 32.8799
820	 32.7957
816	 32.5836
812	 32.4809
808	 32.3328
804	 32.1069
800	 31.9199
796	 31.7571
792	 31.6876
788	 31.7214
784	 31.8579
780	 32.1547
776	 32.4463
772	 32.6335
768	 32.6823
764	 32.5338
760	 32.4909
756	 32.5537
752	 32.5831
748	 32.6347
744	 32.3263
740	 31.645
736	 31.1893
732	 31.1813
728	 31.2749
724	 31.211
720	 31.2124
716	 31.3256
712	 31.4555
708	 31.7509
704	 32.019
700	 31.8936
696	 31.4665
692	 31.0922
688	 30.8244
684	 30.5058
680	 30.2724
676	 30.2488
672	 30.3287
668	 30.4085
664	 30.5365
660	 30.7649
656	 30.8692
652	 30.8749
648	 30.9968
644	 30.976
640	 30.7647
636	 30.7303
632	 30.6256
628	 30.173
624	 29.6725
620	 29.4209
616	 29.3453
612	 29.279
608	 29.2523
604	 29.2726
600	 29.4146
596	 29.5748
592	 29.6769
588	 29.6387
584	 29.4085
580	 29.4522
576	 29.5918
572	 29.3949
568	 28.9962
564	 28.5299
560	 28.2543
556	 28.1147
552	 27.9359
548	 27.8014
544	 27.7087
540	 27.8521
536	 28.0522
532	 28.0069
528	 28.0401
524	 28.1095
520	 28.2892
516	 28.3358
512	 27.9359
508	 27.546
504	 27.0941
500	 26.5033
496	 25.8035
492	 25.4322
488	 26.0566
484	 26.5919
480	 26.32
476	 26.3356
472	 26.8852
468	 26.9553
464	 25.8375
460	 25.2143
456	 26.5959
452	 27.484
448	 27.1806
444	 26.7909
440	 25.626
436	 24.136
432	 22.3697
428	 21.6597
424	 23.7772
420	 27.1341
416	 28.0644
412	 26.5595
408	 25.4656
404	 21.2492
400	 10.8519
396	 -3.101658
392	 -12.4293
388	 -7.596325
384	 11.7581
380	 20.8075
376	 6.039857
372	 0.554084
370	 3.835272