File: Bakgrunnsmateriale/MATLAB/FTIR/ftir_data/LPE453/Mapping_121/LPE453_t40.asc
PE IR       SPECTRUM    SPECTRUM    ASCII       PEDS        1.60
  -1
LPC3A9~1.ASC
17/05/16
17:36:16.00
17/05/16
17:36:42.00
tln
$LPE453_t0040$<tbV0>[-2.6,-5.2,8.0,0.0,27,1,0]
27.028
64

2002,4.07
MIRTGS : RIGHTBACK : INTERNAL 2
MIR : ON : INTERNAL 2
OPTKBR

0.200000
8
8.000000
FILLER
RATIO
SPECTRUM
UNLOCKED 256

DOUBLE
64
COMBINED
1
0
0

0.002000
RATIO

1
0
TRUE
51149
0
LEFT NOT FITTED RIGHT NOT FITTED 0
NONE
NONE
15600
12
4.427000
51148
TRUE
1 0 8 72 0 0 0 0

15798

#HDR
-1
-1
#GR
µM
%T
2.38419e-05
0.0
2.000000
0.002000
12515
8
35.691
-13.3731
#DATA
2.000000	 0.362753
2.018000	 0.498457
2.036000	 0.135225
2.054000	 0.470587
2.072000	 0.275668
2.090000	 -0.051010
2.108000	 0.189189
2.126000	 -0.142191
2.144000	 0.731061
2.162000	 0.520918
2.180000	 -0.159879
2.198000	 -0.848115
2.216000	 25.2262
2.234000	 -0.969268
2.252000	 -0.762951
2.270000	 0.398356
2.288000	 0.391787
2.306000	 -0.029275
2.324000	 0.122968
2.342000	 -0.171145
2.360000	 0.130165
2.378000	 0.130062
2.396000	 0.285622
2.414000	 0.199923
2.432000	 0.252946
2.450000	 -0.024811
2.468000	 -0.154181
2.486000	 0.079078
2.504000	 0.168196
2.522000	 0.188539
2.540000	 0.260772
2.558000	 -0.079479
2.576000	 -0.152632
2.594000	 0.249511
2.612000	 -0.046671
2.630000	 0.004350
2.648000	 -0.011353
2.666000	 0.066344
2.684000	 0.150932
2.702000	 0.041776
2.720000	 -0.093418
2.738000	 0.039928
2.756000	 0.124458
2.774000	 -0.009190
2.792000	 0.069034
2.810000	 0.019978
2.828000	 0.073498
2.846000	 -0.051402
2.864000	 0.072329
2.882000	 0.318465
2.900000	 -0.033906
2.918000	 0.189650
2.936000	 -0.103195
2.954000	 0.112247
2.972000	 0.037049
2.990000	 0.164503
3.008000	 0.032857
3.026000	 0.171730
3.044000	 0.088314
3.062000	 -0.008207
3.080000	 0.156223
3.098000	 0.004773
3.116000	 0.056482
3.134000	 0.254453
3.152000	 0.073337
3.170000	 -0.030310
3.188000	 0.114155
3.206000	 0.342158
3.224000	 0.009227
3.242000	 0.086912
3.260000	 -0.030496
3.278000	 0.106061
3.296000	 0.012094
3.314000	 0.040929
3.332000	 -0.079166
3.350000	 0.046910
3.368000	 0.041612
3.386000	 0.070041
3.404000	 -0.095640
3.422000	 -0.097136
3.440000	 0.010049
3.458000	 0.136297
3.476000	 -0.003776
3.494000	 -0.019437
3.512000	 0.063020
3.530000	 0.064886
3.548000	 -0.056668
3.566000	 0.017553
3.584000	 0.057166
3.602000	 -0.015749
3.620000	 0.057590
3.638000	 -0.080064
3.656000	 0.032945
3.674000	 0.112042
3.692000	 -0.057673
3.710000	 0.075207
3.728000	 0.099187
3.746000	 0.124131
3.764000	 0.106643
3.782000	 0.101608
3.800000	 -0.058535
3.818000	 0.109061
3.836000	 0.060324
3.854000	 0.079177
3.872000	 0.164122
3.890000	 0.101160
3.908000	 0.152392
3.926000	 0.148882
3.944000	 -0.002777
3.962000	 0.104226
3.980000	 0.029423
3.998000	 0.155684
4.016000	 -0.042412
4.034000	 0.103333
4.052000	 0.121196
4.070000	 0.027749
4.088000	 -0.014726
4.106000	 -0.049591
4.124000	 0.139251
4.141999	 0.253889
4.160000	 0.143158
4.178000	 0.024935
4.196000	 0.029222
4.214000	 -0.160796
4.232000	 0.047843
4.250000	 0.006775
4.268000	 0.074378
4.286000	 0.207018
4.304000	 0.201616
4.322000	 0.187945
4.340000	 0.094760
4.358000	 0.269057
4.375999	 0.460456
4.394000	 0.434653
4.412000	 0.496986
4.430000	 0.578782
4.448000	 0.905001
4.466000	 1.244800
4.484000	 1.657292
4.502000	 1.921296
4.520000	 2.371453
4.538000	 2.815922
4.556000	 3.397594
4.574000	 3.945731
4.592000	 4.560599
4.609999	 5.285958
4.628000	 5.926899
4.646000	 6.773633
4.664000	 7.760018
4.682000	 8.648710
4.700000	 9.532960
4.718000	 10.4582
4.736000	 11.429
4.754000	 12.4207
4.772000	 13.4029
4.790000	 14.4349
4.808000	 15.4031
4.826000	 16.378
4.843999	 17.3572
4.862000	 18.0961
4.880000	 19.0759
4.898000	 19.7889
4.916000	 20.5444
4.934000	 21.3214
4.952000	 22.1441
4.970000	 22.7878
4.988000	 23.3662
5.006000	 23.9856
5.024000	 24.4911
5.042000	 25.1531
5.060000	 25.7186
5.077999	 26.3172
5.096000	 26.6882
5.114000	 27.1175
5.132000	 27.5108
5.150000	 27.8879
5.168000	 28.3307
5.186000	 28.5601
5.204000	 28.9075
5.222000	 29.2121
5.240000	 29.4882
5.258000	 29.7531
5.276000	 30.029
5.294000	 30.253
5.312000	 30.4423
5.330000	 30.6556
5.348000	 30.8042
5.366000	 30.9399
5.384000	 31.0962
5.402000	 31.2514
5.420000	 31.5719
5.438000	 31.68
5.456000	 31.6723
5.474000	 31.8606
5.492000	 31.9259
5.510000	 32.0266
5.528000	 32.1583
5.546000	 32.1835
5.564000	 32.2782
5.582000	 32.3501
5.600000	 32.4673
5.618000	 32.4733
5.636000	 32.5027
5.654000	 32.5321
5.672000	 32.5302
5.690000	 32.5499
5.708000	 32.6391
5.726000	 32.6715
5.744000	 32.7896
5.762000	 32.9245
5.780000	 33.0006
5.798000	 33.0958
5.816000	 33.159
5.834000	 33.0941
5.852000	 33.0439
5.870000	 32.9805
5.888000	 32.9644
5.906000	 33.087
5.923999	 33.1399
5.942000	 33.1379
5.960000	 33.0875
5.978000	 32.9851
5.996000	 33.0109
6.014000	 33.0848
6.032000	 33.1449
6.050000	 33.2088
6.068000	 33.189
6.086000	 33.1313
6.104000	 33.096
6.122000	 33.1495
6.140000	 33.1637
6.158000	 33.091
6.176000	 33.139
6.194000	 33.2631
6.212000	 33.243
6.230000	 33.2119
6.248000	 33.2142
6.266000	 33.1825
6.284000	 33.1408
6.302000	 33.1577
6.320000	 33.182
6.338000	 33.1601
6.356000	 33.1508
6.374000	 33.1238
6.392000	 33.0957
6.410000	 33.0938
6.428000	 33.0973
6.446000	 33.1035
6.464000	 33.1691
6.482000	 33.2276
6.500000	 33.1932
6.518000	 33.1132
6.536000	 33.0193
6.554000	 33.0089
6.572000	 33.1128
6.590000	 33.2106
6.608000	 33.222
6.626000	 33.1589
6.644000	 33.131
6.662000	 33.1551
6.680000	 33.0589
6.698000	 32.9287
6.716000	 32.9913
6.734000	 33.1093
6.752000	 33.1658
6.770000	 33.147
6.788000	 33.0193
6.806000	 32.8855
6.824000	 32.8627
6.842000	 32.9208
6.860000	 33.0048
6.878000	 33.0224
6.896000	 32.9473
6.914000	 32.9085
6.932000	 32.9454
6.950000	 32.9938
6.968000	 33.0191
6.986000	 33.0074
7.004000	 32.9508
7.022000	 32.9183
7.040000	 32.93
7.058000	 32.9
7.076000	 32.8524
7.094000	 32.8141
7.112000	 32.7014
7.130000	 32.5731
7.148000	 32.5619
7.166000	 32.6162
7.184000	 32.639
7.202000	 32.6635
7.220000	 32.7184
7.238000	 32.723
7.256000	 32.6419
7.274000	 32.5783
7.292000	 32.6149
7.310000	 32.6841
7.328000	 32.6848
7.346000	 32.6408
7.364000	 32.6329
7.382000	 32.6484
7.400000	 32.6252
7.418000	 32.5682
7.436000	 32.5326
7.454000	 32.5466
7.472000	 32.5906
7.490000	 32.6238
7.508000	 32.6264
7.526000	 32.6122
7.544000	 32.596
7.562000	 32.5783
7.580000	 32.5739
7.598000	 32.5946
7.616000	 32.6015
7.634000	 32.5541
7.652000	 32.4912
7.670000	 32.4797
7.688000	 32.5067
7.706000	 32.5127
7.724000	 32.4942
7.742000	 32.4813
7.760000	 32.4586
7.778000	 32.3936
7.796000	 32.3064
7.814000	 32.2501
7.832000	 32.2535
7.850000	 32.3067
7.868000	 32.3776
7.886000	 32.4305
7.904000	 32.436
7.922000	 32.3891
7.940000	 32.327
7.958000	 32.2967
7.976000	 32.2961
7.994000	 32.2827
8.012000	 32.2383
8.030000	 32.1812
8.048000	 32.1205
8.065999	 32.0566
8.084000	 32.0142
8.102000	 32.0262
8.120000	 32.0832
8.138000	 32.137
8.155999	 32.1485
8.173999	 32.1171
8.192000	 32.0758
8.210000	 32.0659
8.228000	 32.0974
8.246000	 32.1369
8.263999	 32.1502
8.282000	 32.1364
8.300000	 32.1121
8.318000	 32.0838
8.336000	 32.0501
8.353999	 32.0151
8.372000	 31.9849
8.390000	 31.9607
8.408000	 31.939
8.426000	 31.9137
8.443999	 31.8849
8.462000	 31.8701
8.480000	 31.8928
8.498000	 31.9533
8.516000	 32.0238
8.533999	 32.0823
8.552000	 32.1263
8.570000	 32.1469
8.588000	 32.1186
8.606000	 32.0378
8.624000	 31.9456
8.641999	 31.8849
8.660000	 31.8492
8.678000	 31.8012
8.696000	 31.7349
8.714000	 31.6878
8.731999	 31.6899
8.750000	 31.7253
8.768000	 31.7524
8.786000	 31.7443
8.804000	 31.6995
8.821999	 31.6299
8.840000	 31.5569
8.858000	 31.5093
8.876000	 31.5044
8.894000	 31.5343
8.911999	 31.5743
8.930000	 31.6085
8.948000	 31.6356
8.966000	 31.6551
8.984000	 31.6561
9.001999	 31.6297
9.020000	 31.5876
9.038000	 31.5576
9.056000	 31.5561
9.074000	 31.5693
9.092000	 31.5663
9.109999	 31.532
9.128000	 31.4826
9.146000	 31.4499
9.164000	 31.4498
9.182000	 31.4723
9.199999	 31.4955
9.218000	 31.5077
9.236000	 31.5099
9.254000	 31.5055
9.272000	 31.4933
9.289999	 31.471
9.308000	 31.4432
9.326000	 31.4186
9.344000	 31.4024
9.362000	 31.3939
9.379999	 31.3918
9.398000	 31.3963
9.416000	 31.4057
9.434000	 31.4141
9.452000	 31.4191
9.469999	 31.4295
9.488000	 31.4577
9.506000	 31.4959
9.524000	 31.506
9.542000	 31.4478
9.560000	 31.3187
9.577999	 31.162
9.596000	 31.0317
9.614000	 30.9513
9.632000	 30.9063
9.650000	 30.867
9.667999	 30.8165
9.686000	 30.7606
9.704000	 30.7191
9.722000	 30.7106
9.740000	 30.7418
9.757999	 30.8018
9.776000	 30.863
9.794000	 30.8918
9.812000	 30.8679
9.830000	 30.8007
9.847999	 30.7265
9.866000	 30.6843
9.884000	 30.691
9.902000	 30.7329
9.920000	 30.7808
9.937999	 30.8137
9.956000	 30.8309
9.974000	 30.8432
9.992000	 30.8558
10.01	30.8605
10.028	30.8392
10.046	30.7804
10.064	30.6878
10.082	30.5796
10.1	30.4769
10.118	30.3936
10.136	30.3311
10.154	30.2828
10.172	30.2416
10.19	30.2048
10.208	30.1779
10.226	30.1714
10.244	30.1942
10.262	30.2465
10.28	30.3164
10.298	30.3851
10.316	30.4365
10.334	30.467
10.352	30.4864
10.37	30.5106
10.388	30.5508
10.406	30.606
10.424	30.665
10.442	30.7121
10.46	30.7347
10.478	30.7245
10.496	30.6799
10.514	30.6054
10.532	30.5123
10.55	30.4159
10.568	30.3321
10.586	30.2721
10.604	30.238
10.622	30.2217
10.64	30.2088
10.658	30.1841
10.676	30.1392
10.694	30.0766
10.712	30.0084
10.73	29.9508
10.748	29.9154
10.766	29.9027
10.784	29.9019
10.802	29.8967
10.82	29.8755
10.838	29.8377
10.856	29.7944
10.874	29.7631
10.892	29.7568
10.91	29.7793
10.928	29.8237
10.946	29.8767
10.964	29.9243
10.982	29.9555
11	29.9635
11.018	29.9451
11.036	29.9012
11.054	29.8384
11.072	29.7695
11.09	29.7112
11.108	29.6767
11.126	29.6709
11.144	29.6859
11.162	29.7029
11.18	29.7021
11.198	29.6703
11.216	29.6072
11.234	29.5236
11.252	29.436
11.27	29.3578
11.288	29.2951
11.306	29.2463
11.324	29.2062
11.342	29.1703
11.36	29.1379
11.378	29.1113
11.396	29.0934
11.414	29.0841
11.432	29.0796
11.45	29.0737
11.468	29.0604
11.486	29.0369
11.504	29.0053
11.522	28.9727
11.54	28.9491
11.558	28.9443
11.576	28.9656
11.594	29.0143
11.612	29.0849
11.63	29.1661
11.648	29.245
11.666	29.3091
11.684	29.3514
11.702	29.3725
11.72	29.3792
11.738	29.3818
11.756	29.3888
11.774	29.4033
11.792	29.4216
11.81	29.4341
11.828	29.4296
11.846	29.3988
11.864	29.3393
11.882	29.256
11.9	29.1599
11.918	29.0649
11.936	28.983
11.954	28.9206
11.972	28.8779
11.99	28.8486
12.008	28.8229
12.026	28.7903
12.044	28.7429
12.062	28.6793
12.08	28.6041
12.098	28.5253
12.116	28.4513
12.134	28.3874
12.152	28.3338
12.17	28.2882
12.188	28.2481
12.206	28.2131
12.224	28.1864
12.242	28.1741
12.26	28.1809
12.278	28.2096
12.296	28.259
12.314	28.3235
12.332	28.3946
12.35	28.4634
12.368	28.5214
12.386	28.5625
12.404	28.584
12.422	28.5861
12.44	28.572
12.458	28.547
12.476	28.5178
12.494	28.4914
12.512	28.4736
12.53	28.4669
12.548	28.4698
12.566	28.4773
12.584	28.4812
12.602	28.4727
12.62	28.4451
12.638	28.3955
12.656	28.3259
12.674	28.2424
12.692	28.154
12.71	28.0698
12.728	27.9973
12.746	27.9406
12.764	27.8996
12.782	27.8703
12.8	27.8469
12.818	27.8237
12.836	27.7965
12.854	27.7642
12.872	27.728
12.89	27.6913
12.908	27.6583
12.926	27.6323
12.944	27.6147
12.962	27.6056
12.98	27.6031
12.998	27.6047
13.016	27.6075
13.034	27.6091
13.052	27.6079
13.07	27.6029
13.088	27.5932
13.106	27.5788
13.124	27.5593
13.142	27.5357
13.16	27.5099
13.178	27.4857
13.196	27.4678
13.214	27.4614
13.232	27.4714
13.25	27.5009
13.268	27.5506
13.286	27.6183
13.304	27.6987
13.322	27.7838
13.34	27.8645
13.358	27.9309
13.376	27.9734
13.394	27.9843
13.412	27.9589
13.43	27.8959
13.448	27.7985
13.466	27.6737
13.484	27.5321
13.502	27.3859
13.52	27.2471
13.538	27.1263
13.556	27.0308
13.574	26.9635
13.592	26.9225
13.61	26.9024
13.628	26.8952
13.646	26.8917
13.664	26.8841
13.682	26.8664
13.7	26.8363
13.718	26.7944
13.736	26.7447
13.754	26.6926
13.772	26.644
13.79	26.6042
13.808	26.5763
13.826	26.5614
13.844	26.5578
13.862	26.5624
13.88	26.5709
13.898	26.5786
13.916	26.5813
13.934	26.5764
13.952	26.5631
13.97	26.542
13.988	26.5152
14.006	26.486
14.024	26.4585
14.042	26.4364
14.06	26.4231
14.078	26.4205
14.096	26.4292
14.114	26.4487
14.132	26.4774
14.15	26.513
14.168	26.5528
14.186	26.5938
14.204	26.6337
14.222	26.6705
14.24	26.7029
14.258	26.7298
14.276	26.7509
14.294	26.7657
14.312	26.7737
14.33	26.7744
14.348	26.7672
14.366	26.7519
14.384	26.7283
14.402	26.6968
14.42	26.6583
14.438	26.6139
14.456	26.5651
14.474	26.5134
14.492	26.4599
14.51	26.4054
14.528	26.35
14.546	26.2935
14.564	26.236
14.582	26.1775
14.6	26.1185
14.618	26.0599
14.636	26.003
14.654	25.9497
14.672	25.9015
14.69	25.8595
14.708	25.8246
14.726	25.7965
14.744	25.7743
14.762	25.7564
14.78	25.741
14.798	25.7266
14.816	25.7122
14.834	25.6973
14.852	25.6824
14.87	25.6687
14.888	25.6577
14.906	25.651
14.924	25.6498
14.942	25.6545
14.96	25.6642
14.978	25.677
14.996	25.6902
15.014	25.7006
15.032	25.7042
15.05	25.6979
15.068	25.6795
15.086	25.648
15.104	25.6034
15.122	25.5471
15.14	25.4821
15.158	25.4117
15.176	25.3396
15.194	25.2698
15.212	25.2065
15.23	25.1529
15.248	25.1112
15.266	25.0835
15.284	25.0712
15.302	25.0742
15.32	25.0922
15.338	25.1242
15.356	25.1683
15.374	25.2215
15.392	25.2808
15.41	25.3431
15.428	25.4047
15.446	25.4619
15.464	25.5117
15.482	25.5518
15.5	25.5802
15.518	25.5961
15.536	25.5996
15.554	25.5915
15.572	25.5731
15.59	25.5461
15.608	25.512
15.626	25.4718
15.644	25.4262
15.662	25.3755
15.68	25.3193
15.698	25.2572
15.716	25.1884
15.734	25.1126
15.752	25.0301
15.77	24.9417
15.788	24.8491
15.806	24.7549
15.824	24.6615
15.842	24.5723
15.86	24.4909
15.878	24.4195
15.896	24.3601
15.914	24.3141
15.932	24.2811
15.95	24.26
15.968	24.249
15.986	24.2444
16.004	24.2433
16.022	24.2425
16.04	24.2376
16.058	24.2264
16.076	24.2072
16.094	24.1786
16.112	24.1416
16.13	24.0971
16.148	24.0469
16.166	23.9946
16.184	23.9425
16.202	23.8937
16.22	23.8519
16.238	23.8184
16.256	23.7948
16.274	23.7819
16.292	23.779
16.31	23.7856
16.328	23.7997
16.346	23.8192
16.364	23.8425
16.382	23.8669
16.4	23.891
16.418	23.9138
16.436	23.9345
16.454	23.9535
16.472	23.971
16.49	23.9884
16.508	24.0067
16.526	24.0268
16.544	24.0505
16.562	24.0782
16.58	24.1103
16.598	24.1466
16.616	24.1858
16.634	24.2269
16.652	24.2675
16.67	24.3059
16.688	24.3401
16.706	24.3675
16.724	24.387
16.742	24.3967
16.76	24.3959
16.778	24.3848
16.796	24.3632
16.814	24.3329
16.832	24.2948
16.85	24.2511
16.868	24.2038
16.886	24.1545
16.904	24.1056
16.922	24.0579
16.94	24.0129
16.958	23.9712
16.976	23.9329
16.994	23.8978
17.012	23.8653
17.03	23.8347
17.048	23.8048
17.066	23.7748
17.084	23.7438
17.102	23.7111
17.12	23.6767
17.138	23.6404
17.156	23.6031
17.174	23.5651
17.192	23.5282
17.21	23.4931
17.228	23.4614
17.246	23.4344
17.264	23.4132
17.282	23.3993
17.3	23.393
17.318	23.3952
17.336	23.4054
17.354	23.4235
17.372	23.4481
17.39	23.4784
17.408	23.5123
17.426	23.5477
17.444	23.5832
17.462	23.6153
17.48	23.643
17.498	23.6631
17.516	23.6745
17.534	23.6755
17.552	23.6647
17.57	23.6418
17.588	23.6065
17.606	23.5594
17.624	23.5013
17.642	23.4344
17.66	23.3595
17.678	23.2806
17.696	23.1985
17.714	23.1175
17.732	23.0394
17.75	22.967
17.768	22.9032
17.786	22.8489
17.804	22.8066
17.822	22.7765
17.84	22.7592
17.858	22.7538
17.876	22.7598
17.894	22.7746
17.912	22.7973
17.93	22.8237
17.948	22.853
17.966	22.8807
17.984	22.9058
18.002	22.925
18.02	22.9372
18.038	22.9408
18.056	22.9353
18.074	22.9203
18.092	22.8972
18.11	22.8664
18.128	22.8309
18.146	22.7919
18.164	22.7527
18.182	22.715
18.2	22.6811
18.218	22.653
18.236	22.632
18.254	22.6189
18.272	22.6144
18.29	22.6175
18.308	22.6283
18.326	22.6443
18.344	22.6648
18.362	22.6868
18.38	22.7094
18.398	22.7294
18.416	22.7461
18.434	22.7573
18.452	22.7624
18.47	22.7604
18.488	22.7513
18.506	22.7348
18.524	22.7121
18.542	22.6831
18.56	22.6497
18.578	22.6121
18.596	22.5724
18.614	22.5307
18.632	22.4891
18.65	22.4474
18.668	22.4071
18.686	22.3682
18.704	22.3316
18.722	22.2974
18.74	22.2659
18.758	22.237
18.776	22.2108
18.794	22.187
18.812	22.1654
18.83	22.1457
18.848	22.1278
18.866	22.1111
18.884	22.0946
18.902	22.0777
18.92	22.0592
18.938	22.0379
18.956	22.0122
18.974	21.981
18.992	21.9426
19.01	21.896
19.028	21.8395
19.046	21.7729
19.064	21.6952
19.082	21.6068
19.1	21.5077
19.118	21.3994
19.136	21.2833
19.154	21.161
19.172	21.0359
19.19	20.9093
19.208	20.786
19.226	20.6669
19.244	20.5574
19.262	20.4577
19.28	20.3728
19.298	20.3024
19.316	20.2496
19.334	20.2142
19.352	20.197
19.37	20.1978
19.388	20.2144
19.406	20.2472
19.424	20.2919
19.442	20.3488
19.46	20.413
19.478	20.4843
19.496	20.5584
19.514	20.6343
19.532	20.7093
19.55	20.7813
19.568	20.8494
19.586	20.912
19.604	20.969
19.622	21.0195
19.64	21.064
19.658	21.1027
19.676	21.1359
19.694	21.1645
19.712	21.1884
19.73	21.2091
19.748	21.2266
19.766	21.2416
19.784	21.2544
19.802	21.2652
19.82	21.2742
19.838	21.2813
19.856	21.2866
19.874	21.2899
19.892	21.2908
19.91	21.2895
19.928	21.2856
19.946	21.2792
19.964	21.2703
19.982	21.259
20	21.2459
20.018	21.2312
20.036	21.2158
20.054	21.2005
20.072	21.1855
20.09	21.1726
20.108	21.1614
20.126	21.1538
20.144	21.1498
20.162	21.1502
20.18	21.1556
20.198	21.1658
20.216	21.1812
20.234	21.2013
20.252	21.2253
20.27	21.2534
20.288	21.2837
20.306	21.3163
20.324	21.3495
20.342	21.3822
20.36	21.4138
20.378	21.4422
20.396	21.4677
20.414	21.488
20.432	21.503
20.45	21.5119
20.468	21.5142
20.486	21.5098
20.504	21.4982
20.522	21.4794
20.54	21.4538
20.558	21.4211
20.576	21.3819
20.594	21.3361
20.612	21.2843
20.63	21.227
20.648	21.1642
20.666	21.0968
20.684	21.0248
20.702	20.949
20.72	20.8699
20.738	20.7877
20.756	20.7035
20.774	20.6171
20.792	20.53
20.81	20.4421
20.828	20.3543
20.846	20.2678
20.864	20.1824
20.882	20.1004
20.9	20.0213
20.918	19.9466
20.936	19.8774
20.954	19.8136
20.972	19.7567
20.99	19.7065
21.008	19.6637
21.026	19.6289
21.044	19.6017
21.062	19.5825
21.08	19.5713
21.098	19.5674
21.116	19.5708
21.134	19.5809
21.152	19.5964
21.17	19.6178
21.188	19.6431
21.206	19.6723
21.224	19.7046
21.242	19.7385
21.26	19.7744
21.278	19.8108
21.296	19.8473
21.314	19.8838
21.332	19.9192
21.35	19.9539
21.368	19.987
21.386	20.0184
21.404	20.0482
21.422	20.0759
21.44	20.1016
21.458	20.1252
21.476	20.1468
21.494	20.1663
21.512	20.1838
21.53	20.1993
21.548	20.2127
21.566	20.2238
21.584	20.2326
21.602	20.2389
21.62	20.2426
21.638	20.2438
21.656	20.2425
21.674	20.2388
21.692	20.2329
21.71	20.2248
21.728	20.2147
21.746	20.2032
21.764	20.1902
21.782	20.1761
21.8	20.1613
21.818	20.1458
21.836	20.1306
21.854	20.1156
21.872	20.1011
21.89	20.0877
21.908	20.0751
21.926	20.0638
21.944	20.0539
21.962	20.0453
21.98	20.0377
21.998	20.0313
22.016	20.0256
22.034	20.0199
22.052	20.0146
22.07	20.0087
22.088	20.0015
22.106	19.9934
22.124	19.9832
22.142	19.9708
22.16	19.9562
22.178	19.9387
22.196	19.9182
22.214	19.8949
22.232	19.8686
22.25	19.8394
22.268	19.8078
22.286	19.7741
22.304	19.7381
22.322	19.7011
22.34	19.6631
22.358	19.6244
22.376	19.5867
22.394	19.5493
22.412	19.5133
22.43	19.4801
22.448	19.4491
22.466	19.4211
22.484	19.3968
22.502	19.3759
22.52	19.3588
22.538	19.3457
22.556	19.3364
22.574	19.3309
22.592	19.3291
22.61	19.3311
22.628	19.3367
22.646	19.3458
22.664	19.3587
22.682	19.3757
22.7	19.3964
22.718	19.4216
22.736	19.4524
22.754	19.4881
22.772	19.5298
22.79	19.5783
22.808	19.6329
22.826	19.6949
22.844	19.765
22.862	19.8427
22.88	19.9289
22.898	20.0244
22.916	20.1286
22.934	20.2417
22.952	20.3638
22.97	20.4948
22.988	20.633
23.006	20.7792
23.024	20.9325
23.042	21.0897
23.06	21.2514
23.078	21.4167
23.096	21.5805
23.114	21.7437
23.132	21.9052
23.15	22.0588
23.168	22.2054
23.186	22.3442
23.204	22.4699
23.222	22.5834
23.24	22.684
23.258	22.7674
23.276	22.8338
23.294	22.8836
23.312	22.9148
23.33	22.9274
23.348	22.9218
23.366	22.8984
23.384	22.8564
23.402	22.7969
23.42	22.722
23.438	22.6309
23.456	22.5246
23.474	22.4066
23.492	22.2767
23.51	22.135
23.528	21.9863
23.546	21.8309
23.564	21.6684
23.582	21.5035
23.6	21.3377
23.618	21.1695
23.636	21.0032
23.654	20.8406
23.672	20.6798
23.69	20.5251
23.708	20.3795
23.726	20.2403
23.744	20.1117
23.762	19.9971
23.78	19.8937
23.798	19.805
23.816	19.7351
23.834	19.6816
23.852	19.6465
23.87	19.6331
23.888	19.641
23.906	19.6697
23.924	19.7206
23.942	19.7945
23.96	19.8903
23.978	20.0056
23.996	20.141
24.014	20.2969
24.032	20.4666
24.05	20.6471
24.068	20.8425
24.086	21.0438
24.104	21.2429
24.122	21.4469
24.14	21.6472
24.158	21.8312
24.176	22.0042
24.194	22.1627
24.212	22.2951
24.23	22.3998
24.248	22.4801
24.266	22.5272
24.284	22.5353
24.302	22.5087
24.32	22.446
24.338	22.345
24.356	22.2043
24.374	22.0284
24.392	21.8227
24.41	21.5825
24.428	21.3117
24.446	21.0233
24.464	20.7201
24.482	20.3958
24.5	20.0678
24.518	19.7499
24.536	19.43
24.554	19.1205
24.572	18.8397
24.59	18.5823
24.608	18.3493
24.626	18.1566
24.644	18.0122
24.662	17.9079
24.68	17.85
24.698	17.8453
24.716	17.8932
24.734	17.9898
24.752	18.1316
24.77	18.3229
24.788	18.5616
24.806	18.8336
24.824	19.1308
24.842	19.4645
24.86	19.8189
24.878	20.1749
24.896	20.5419
24.914	20.9158
24.932	21.274
24.95	21.6061
24.968	21.9262
24.986	22.2164
25.004	22.4572
25.022	22.6567
25.04	22.8132
25.058	22.914
25.076	22.9522
25.094	22.9346
25.112	22.859
25.13	22.7227
25.148	22.522
25.166	22.263
25.184	21.9545
25.202	21.5978
25.22	21.186
25.238	20.736
25.256	20.265
25.274	19.7612
25.292	19.2311
25.31	18.6963
25.328	18.1683
25.346	17.6317
25.364	17.1032
25.382	16.6023
25.4	16.1244
25.418	15.6671
25.436	15.2445
25.454	14.8678
25.472	14.5287
25.49	14.2302
25.508	13.9782
25.526	13.7758
25.544	13.62
25.562	13.5076
25.58	13.4363
25.598	13.4112
25.616	13.4272
25.634	13.4746
25.652	13.5488
25.67	13.6585
25.688	13.7924
25.706	13.937
25.724	14.0933
25.742	14.2661
25.76	14.4424
25.778	14.6108
25.796	14.7781
25.814	14.9423
25.832	15.0947
25.85	15.2287
25.868	15.3497
25.886	15.4563
25.904	15.5463
25.922	15.6174
25.94	15.6709
25.958	15.7102
25.976	15.7387
25.994	15.7526
26.012	15.7537
26.03	15.7491
26.048	15.7446
26.066	15.7321
26.084	15.7178
26.102	15.7133
26.12	15.7258
26.138	15.7468
26.156	15.7816
26.174	15.8374
26.192	15.9182
26.21	16.0197
26.228	16.1417
26.246	16.2837
26.264	16.4507
26.282	16.6412
26.3	16.8439
26.318	17.0477
26.336	17.2618
26.354	17.4839
26.372	17.6974
26.39	17.8877
26.408	18.0715
26.426	18.2402
26.444	18.371
26.462	18.4463
26.48	18.4879
26.498	18.4829
26.516	18.4066
26.534	18.2413
26.552	18.0072
26.57	17.6943
26.588	17.2859
26.606	16.7704
26.624	16.1597
26.642	15.4511
26.66	14.6391
26.678	13.7171
26.696	12.6838
26.714	11.5523
26.732	10.3364
26.75	9.037617
26.768	7.638286
26.786	6.166336
26.804	4.652801
26.822	3.105512
26.84	1.492363
26.858	-0.146410
26.876	-1.765882
26.894	-3.349666
26.912	-4.939331
26.93	-6.495001
26.948	-7.971015
26.966	-9.377994
26.984	-10.8032
27.002	-12.0982
27.02	-13.0982
27.028	-13.3731