File: Bakgrunnsmateriale/MATLAB/FTIR/ftir_data/LPE453/Mapping_121/LPE453_t82.asc
PE IR       SPECTRUM    SPECTRUM    ASCII       PEDS        1.60
  -1
LPC3B1~1.ASC
17/05/16
21:04:51.00
17/05/16
21:05:17.00
tln
$LPE453_t0082$<tbV0>[2.6,5.2,8.0,0.0,27,1,0]
27.028
64

2002,4.07
MIRTGS : RIGHTBACK : INTERNAL 2
MIR : ON : INTERNAL 2
OPTKBR

0.200000
8
8.000000
FILLER
RATIO
SPECTRUM
UNLOCKED 256

DOUBLE
64
COMBINED
1
0
0

0.002000
RATIO

1
0
TRUE
51149
0
LEFT NOT FITTED RIGHT NOT FITTED 0
NONE
NONE
15600
12
4.427000
51148
TRUE
1 0 8 72 0 0 0 0

15798

#HDR
-1
-1
#GR
µM
%T
2.38419e-05
0.0
2.000000
0.002000
12515
8
33.0471
-1.408590
#DATA
2.000000	 -0.358366
2.018000	 0.270252
2.036000	 0.165864
2.054000	 0.585792
2.072000	 -0.005185
2.090000	 0.318965
2.108000	 0.399420
2.126000	 0.698293
2.144000	 0.960444
2.162000	 0.826745
2.180000	 0.340445
2.198000	 -0.139712
2.216000	 1.660769
2.234000	 0.630818
2.252000	 -1.278204
2.270000	 0.079818
2.288000	 0.722947
2.306000	 0.416416
2.324000	 0.180094
2.342000	 0.035821
2.360000	 0.244563
2.378000	 0.106248
2.396000	 0.132054
2.414000	 0.020627
2.432000	 0.168105
2.450000	 0.172605
2.468000	 -0.145060
2.486000	 0.099148
2.504000	 0.286513
2.522000	 0.055563
2.540000	 0.206940
2.558000	 0.230112
2.576000	 0.023267
2.594000	 0.127678
2.612000	 0.105510
2.630000	 0.326822
2.648000	 -0.056555
2.666000	 0.046053
2.684000	 0.094458
2.702000	 0.021784
2.720000	 0.010050
2.738000	 -0.043640
2.756000	 0.085739
2.774000	 0.042487
2.792000	 0.019971
2.810000	 -0.040804
2.828000	 0.211799
2.846000	 0.075793
2.864000	 0.139170
2.882000	 0.097791
2.900000	 -0.143528
2.918000	 0.051994
2.936000	 0.243351
2.954000	 0.045480
2.972000	 0.120912
2.990000	 0.062171
3.008000	 0.097871
3.026000	 -0.057555
3.044000	 0.021246
3.062000	 0.128169
3.080000	 0.005762
3.098000	 -0.122178
3.116000	 0.102338
3.134000	 0.077715
3.152000	 0.107898
3.170000	 0.088853
3.188000	 0.105688
3.206000	 -0.011488
3.224000	 0.152445
3.242000	 -0.003783
3.260000	 0.153204
3.278000	 -0.134318
3.296000	 0.080219
3.314000	 0.181409
3.332000	 -0.031595
3.350000	 0.018661
3.368000	 0.088237
3.386000	 0.065190
3.404000	 0.004016
3.422000	 -0.073769
3.440000	 -0.013223
3.458000	 0.125957
3.476000	 0.137501
3.494000	 0.180261
3.512000	 -0.030627
3.530000	 -0.087997
3.548000	 0.074690
3.566000	 0.107302
3.584000	 0.082844
3.602000	 0.097939
3.620000	 0.033629
3.638000	 0.052854
3.656000	 0.178696
3.674000	 0.149548
3.692000	 0.050288
3.710000	 -0.117976
3.728000	 0.074367
3.746000	 0.093917
3.764000	 0.019223
3.782000	 0.052450
3.800000	 -0.003398
3.818000	 0.051441
3.836000	 0.000740
3.854000	 0.042887
3.872000	 0.027280
3.890000	 0.025299
3.908000	 -0.004569
3.926000	 -0.001123
3.944000	 0.100051
3.962000	 -0.098518
3.980000	 0.120421
3.998000	 -0.019869
4.016000	 0.011139
4.034000	 0.003176
4.052000	 -0.049498
4.070000	 -0.034157
4.088000	 0.027741
4.106000	 0.080819
4.124000	 0.070674
4.141999	 0.066078
4.160000	 0.050293
4.178000	 0.049540
4.196000	 0.081844
4.214000	 0.040372
4.232000	 0.040224
4.250000	 0.068980
4.268000	 0.163721
4.286000	 0.059091
4.304000	 0.181889
4.322000	 0.197827
4.340000	 0.203140
4.358000	 0.394450
4.375999	 0.461445
4.394000	 0.725953
4.412000	 0.814443
4.430000	 1.046082
4.448000	 1.247410
4.466000	 1.630137
4.484000	 2.017941
4.502000	 2.446440
4.520000	 2.889912
4.538000	 3.332100
4.556000	 4.008355
4.574000	 4.650333
4.592000	 5.255182
4.609999	 6.126568
4.628000	 6.949680
4.646000	 7.834509
4.664000	 8.642135
4.682000	 9.558322
4.700000	 10.5471
4.718000	 11.4865
4.736000	 12.6407
4.754000	 13.5716
4.772000	 14.5473
4.790000	 15.528
4.808000	 16.3687
4.826000	 17.397
4.843999	 18.1644
4.862000	 19.1193
4.880000	 19.8803
4.898000	 20.6913
4.916000	 21.3581
4.934000	 22.0722
4.952000	 22.8287
4.970000	 23.5282
4.988000	 24.1671
5.006000	 24.6961
5.024000	 25.2302
5.042000	 25.728
5.060000	 26.1433
5.077999	 26.6254
5.096000	 27.0743
5.114000	 27.5083
5.132000	 27.9658
5.150000	 28.2792
5.168000	 28.6075
5.186000	 28.9598
5.204000	 29.1754
5.222000	 29.3881
5.240000	 29.7063
5.258000	 30.1014
5.276000	 30.2548
5.294000	 30.4061
5.312000	 30.5533
5.330000	 30.6571
5.348000	 30.9226
5.366000	 31.1737
5.384000	 31.324
5.402000	 31.3781
5.420000	 31.3986
5.438000	 31.5052
5.456000	 31.6182
5.474000	 31.7804
5.492000	 31.9734
5.510000	 32.0191
5.528000	 32.0659
5.546000	 32.2155
5.564000	 32.2368
5.582000	 32.2388
5.600000	 32.219
5.618000	 32.2568
5.636000	 32.278
5.654000	 32.4501
5.672000	 32.5591
5.690000	 32.5793
5.708000	 32.6261
5.726000	 32.6489
5.744000	 32.5659
5.762000	 32.5546
5.780000	 32.6074
5.798000	 32.6854
5.816000	 32.7353
5.834000	 32.9272
5.852000	 32.9715
5.870000	 32.8532
5.888000	 32.7908
5.906000	 32.764
5.923999	 32.7224
5.942000	 32.7846
5.960000	 32.81
5.978000	 32.8554
5.996000	 32.9297
6.014000	 32.9315
6.032000	 32.9491
6.050000	 32.9821
6.068000	 32.918
6.086000	 32.7919
6.104000	 32.7861
6.122000	 32.8608
6.140000	 32.8891
6.158000	 32.9227
6.176000	 32.9049
6.194000	 32.819
6.212000	 32.7958
6.230000	 32.8009
6.248000	 32.8088
6.266000	 32.81
6.284000	 32.793
6.302000	 32.825
6.320000	 32.8655
6.338000	 32.8566
6.356000	 32.942
6.374000	 33.04
6.392000	 33.0325
6.410000	 32.962
6.428000	 32.8412
6.446000	 32.7922
6.464000	 32.7864
6.482000	 32.7121
6.500000	 32.704
6.518000	 32.7544
6.536000	 32.7473
6.554000	 32.7383
6.572000	 32.7458
6.590000	 32.7641
6.608000	 32.8254
6.626000	 32.8835
6.644000	 32.8818
6.662000	 32.7642
6.680000	 32.5714
6.698000	 32.4576
6.716000	 32.4341
6.734000	 32.4718
6.752000	 32.5503
6.770000	 32.6117
6.788000	 32.6567
6.806000	 32.6624
6.824000	 32.6116
6.842000	 32.5388
6.860000	 32.4643
6.878000	 32.4696
6.896000	 32.5705
6.914000	 32.5582
6.932000	 32.3753
6.950000	 32.2271
6.968000	 32.2062
6.986000	 32.2443
7.004000	 32.3119
7.022000	 32.3915
7.040000	 32.4538
7.058000	 32.5049
7.076000	 32.5435
7.094000	 32.5313
7.112000	 32.4425
7.130000	 32.3338
7.148000	 32.2923
7.166000	 32.3088
7.184000	 32.2998
7.202000	 32.224
7.220000	 32.1395
7.238000	 32.1403
7.256000	 32.2266
7.274000	 32.3395
7.292000	 32.4497
7.310000	 32.5183
7.328000	 32.5155
7.346000	 32.476
7.364000	 32.4338
7.382000	 32.3883
7.400000	 32.3399
7.418000	 32.2797
7.436000	 32.1931
7.454000	 32.105
7.472000	 32.0486
7.490000	 32.0078
7.508000	 31.9573
7.526000	 31.9131
7.544000	 31.9026
7.562000	 31.9364
7.580000	 32.0037
7.598000	 32.0717
7.616000	 32.1156
7.634000	 32.137
7.652000	 32.1307
7.670000	 32.0984
7.688000	 32.0613
7.706000	 32.0076
7.724000	 31.9053
7.742000	 31.7815
7.760000	 31.6941
7.778000	 31.6601
7.796000	 31.6717
7.814000	 31.7116
7.832000	 31.7528
7.850000	 31.7906
7.868000	 31.8403
7.886000	 31.8892
7.904000	 31.9131
7.922000	 31.9231
7.940000	 31.9404
7.958000	 31.9542
7.976000	 31.9318
7.994000	 31.865
8.012000	 31.79
8.030000	 31.7477
8.048000	 31.7271
8.065999	 31.6791
8.084000	 31.5887
8.102000	 31.5
8.120000	 31.4653
8.138000	 31.4953
8.155999	 31.5606
8.173999	 31.6261
8.192000	 31.6708
8.210000	 31.6884
8.228000	 31.6975
8.246000	 31.7223
8.263999	 31.7514
8.282000	 31.7411
8.300000	 31.6732
8.318000	 31.5816
8.336000	 31.5122
8.353999	 31.4681
8.372000	 31.4173
8.390000	 31.348
8.408000	 31.2902
8.426000	 31.278
8.443999	 31.3061
8.462000	 31.332
8.480000	 31.323
8.498000	 31.2964
8.516000	 31.2993
8.533999	 31.3544
8.552000	 31.4378
8.570000	 31.5112
8.588000	 31.5576
8.606000	 31.5753
8.624000	 31.5589
8.641999	 31.502
8.660000	 31.4081
8.678000	 31.2947
8.696000	 31.1897
8.714000	 31.118
8.731999	 31.0844
8.750000	 31.0678
8.768000	 31.0414
8.786000	 30.9956
8.804000	 30.939
8.821999	 30.881
8.840000	 30.8292
8.858000	 30.7954
8.876000	 30.7964
8.894000	 30.8462
8.911999	 30.9461
8.930000	 31.0771
8.948000	 31.2035
8.966000	 31.2894
8.984000	 31.3181
9.001999	 31.299
9.020000	 31.2533
9.038000	 31.1986
9.056000	 31.1458
9.074000	 31.0998
9.092000	 31.0569
9.109999	 31.0068
9.128000	 30.9403
9.146000	 30.8578
9.164000	 30.7696
9.182000	 30.6897
9.199999	 30.628
9.218000	 30.5863
9.236000	 30.5632
9.254000	 30.5615
9.272000	 30.5863
9.289999	 30.6376
9.308000	 30.7015
9.326000	 30.7571
9.344000	 30.792
9.362000	 30.8104
9.379999	 30.8239
9.398000	 30.8394
9.416000	 30.8539
9.434000	 30.8551
9.452000	 30.8247
9.469999	 30.7485
9.488000	 30.6307
9.506000	 30.4986
9.524000	 30.3888
9.542000	 30.3233
9.560000	 30.2958
9.577999	 30.2836
9.596000	 30.2685
9.614000	 30.2452
9.632000	 30.2136
9.650000	 30.174
9.667999	 30.1301
9.686000	 30.0905
9.704000	 30.066
9.722000	 30.0678
9.740000	 30.105
9.757999	 30.1794
9.776000	 30.28
9.794000	 30.3816
9.812000	 30.4559
9.830000	 30.487
9.847999	 30.4793
9.866000	 30.4517
9.884000	 30.4206
9.902000	 30.3907
9.920000	 30.358
9.937999	 30.3187
9.956000	 30.2745
9.974000	 30.2317
9.992000	 30.1954
10.01	30.1659
10.028	30.1393
10.046	30.1108
10.064	30.0773
10.082	30.0384
10.1	29.9946
10.118	29.9443
10.136	29.8831
10.154	29.8067
10.172	29.7168
10.19	29.6262
10.208	29.5552
10.226	29.5216
10.244	29.53
10.262	29.5691
10.28	29.6171
10.298	29.655
10.316	29.6749
10.334	29.683
10.352	29.6927
10.37	29.7156
10.388	29.7548
10.406	29.8042
10.424	29.8516
10.442	29.8846
10.46	29.896
10.478	29.8848
10.496	29.8553
10.514	29.8122
10.532	29.7594
10.55	29.6976
10.568	29.6264
10.586	29.5456
10.604	29.4563
10.622	29.3616
10.64	29.2666
10.658	29.1771
10.676	29.1001
10.694	29.0408
10.712	29.0017
10.73	28.98
10.748	28.9691
10.766	28.9618
10.784	28.9538
10.802	28.9458
10.82	28.9425
10.838	28.9484
10.856	28.9648
10.874	28.9891
10.892	29.0173
10.91	29.0459
10.928	29.0739
10.946	29.1017
10.964	29.1291
10.982	29.1542
11	29.1736
11.018	29.1854
11.036	29.19
11.054	29.1893
11.072	29.1844
11.09	29.1713
11.108	29.1419
11.126	29.0879
11.144	29.0074
11.162	28.909
11.18	28.8088
11.198	28.7255
11.216	28.6712
11.234	28.6458
11.252	28.6383
11.27	28.6326
11.288	28.6127
11.306	28.5709
11.324	28.509
11.342	28.4362
11.36	28.3639
11.378	28.3024
11.396	28.2572
11.414	28.2292
11.432	28.2155
11.45	28.2124
11.468	28.2165
11.486	28.2262
11.504	28.2414
11.522	28.262
11.54	28.2871
11.558	28.3146
11.576	28.3425
11.594	28.3695
11.612	28.3962
11.63	28.4246
11.648	28.4568
11.666	28.4932
11.684	28.5319
11.702	28.5677
11.72	28.594
11.738	28.6049
11.756	28.5976
11.774	28.573
11.792	28.5343
11.81	28.4863
11.828	28.434
11.846	28.3811
11.864	28.3299
11.882	28.2808
11.9	28.2326
11.918	28.1825
11.936	28.1273
11.954	28.0642
11.972	27.992
11.99	27.9114
12.008	27.8261
12.026	27.7404
12.044	27.6584
12.062	27.5816
12.08	27.5091
12.098	27.4378
12.116	27.3666
12.134	27.2976
12.152	27.2371
12.17	27.1932
12.188	27.1733
12.206	27.1799
12.224	27.2103
12.242	27.257
12.26	27.3107
12.278	27.3632
12.296	27.4092
12.314	27.4475
12.332	27.4798
12.35	27.5083
12.368	27.5346
12.386	27.5584
12.404	27.5782
12.422	27.5913
12.44	27.5967
12.458	27.5946
12.476	27.5868
12.494	27.5765
12.512	27.5666
12.53	27.5586
12.548	27.5525
12.566	27.5476
12.584	27.5421
12.602	27.5338
12.62	27.5208
12.638	27.5007
12.656	27.4708
12.674	27.4278
12.692	27.3697
12.71	27.2962
12.728	27.2097
12.746	27.1163
12.764	27.024
12.782	26.9418
12.8	26.8767
12.818	26.8318
12.836	26.8057
12.854	26.7926
12.872	26.7842
12.89	26.7722
12.908	26.7505
12.926	26.7176
12.944	26.6759
12.962	26.6316
12.98	26.5922
12.998	26.5643
13.016	26.5524
13.034	26.5573
13.052	26.5769
13.07	26.6066
13.088	26.6408
13.106	26.6748
13.124	26.7045
13.142	26.7282
13.16	26.7456
13.178	26.7588
13.196	26.77
13.214	26.7816
13.232	26.7951
13.25	26.8105
13.268	26.8269
13.286	26.8423
13.304	26.8544
13.322	26.8614
13.34	26.8628
13.358	26.8596
13.376	26.8541
13.394	26.8499
13.412	26.8502
13.43	26.8576
13.448	26.8727
13.466	26.8938
13.484	26.9166
13.502	26.9349
13.52	26.9416
13.538	26.9302
13.556	26.8959
13.574	26.8366
13.592	26.7535
13.61	26.6506
13.628	26.5348
13.646	26.4147
13.664	26.299
13.682	26.1953
13.7	26.1086
13.718	26.0418
13.736	25.9942
13.754	25.9629
13.772	25.9426
13.79	25.9279
13.808	25.9137
13.826	25.8961
13.844	25.8728
13.862	25.8438
13.88	25.8105
13.898	25.7751
13.916	25.7402
13.934	25.7082
13.952	25.6805
13.97	25.6578
13.988	25.6398
14.006	25.6258
14.024	25.6147
14.042	25.6058
14.06	25.5984
14.078	25.5919
14.096	25.5858
14.114	25.5792
14.132	25.5706
14.15	25.5585
14.168	25.5412
14.186	25.5171
14.204	25.4852
14.222	25.4454
14.24	25.3983
14.258	25.3454
14.276	25.2893
14.294	25.2331
14.312	25.1804
14.33	25.1342
14.348	25.0973
14.366	25.0718
14.384	25.0585
14.402	25.0569
14.42	25.0649
14.438	25.0796
14.456	25.0976
14.474	25.1149
14.492	25.1282
14.51	25.1343
14.528	25.1315
14.546	25.1192
14.564	25.0979
14.582	25.0689
14.6	25.0341
14.618	24.9956
14.636	24.9554
14.654	24.9147
14.672	24.8743
14.69	24.8345
14.708	24.7953
14.726	24.7567
14.744	24.719
14.762	24.683
14.78	24.6499
14.798	24.6212
14.816	24.5986
14.834	24.5839
14.852	24.5781
14.87	24.5818
14.888	24.5945
14.906	24.6155
14.924	24.6432
14.942	24.6755
14.96	24.7098
14.978	24.7437
14.996	24.7748
15.014	24.8009
15.032	24.8198
15.05	24.8301
15.068	24.8306
15.086	24.8211
15.104	24.8012
15.122	24.7716
15.14	24.7338
15.158	24.69
15.176	24.6429
15.194	24.5955
15.212	24.5515
15.23	24.5138
15.248	24.4845
15.266	24.4653
15.284	24.457
15.302	24.4584
15.32	24.4677
15.338	24.4825
15.356	24.4992
15.374	24.5138
15.392	24.5231
15.41	24.5242
15.428	24.5145
15.446	24.4924
15.464	24.4577
15.482	24.411
15.5	24.3537
15.518	24.2888
15.536	24.2195
15.554	24.1494
15.572	24.0821
15.59	24.0217
15.608	23.9705
15.626	23.9302
15.644	23.9017
15.662	23.884
15.68	23.875
15.698	23.8721
15.716	23.8707
15.734	23.8662
15.752	23.8548
15.77	23.8328
15.788	23.7975
15.806	23.7485
15.824	23.6865
15.842	23.6136
15.86	23.5346
15.878	23.4537
15.896	23.3752
15.914	23.3049
15.932	23.2463
15.95	23.2014
15.968	23.1719
15.986	23.1569
16.004	23.1542
16.022	23.1616
16.04	23.1744
16.058	23.1891
16.076	23.2027
16.094	23.2117
16.112	23.2146
16.13	23.2109
16.148	23.2003
16.166	23.1846
16.184	23.1655
16.202	23.1451
16.22	23.1268
16.238	23.1125
16.256	23.1038
16.274	23.1029
16.292	23.1101
16.31	23.1259
16.328	23.15
16.346	23.1814
16.364	23.2194
16.382	23.2618
16.4	23.3065
16.418	23.3518
16.436	23.3946
16.454	23.4327
16.472	23.4645
16.49	23.4876
16.508	23.5011
16.526	23.5046
16.544	23.498
16.562	23.4823
16.58	23.4585
16.598	23.4292
16.616	23.3963
16.634	23.3618
16.652	23.3289
16.67	23.2988
16.688	23.2732
16.706	23.2533
16.724	23.2391
16.742	23.2304
16.76	23.2261
16.778	23.2252
16.796	23.2259
16.814	23.2261
16.832	23.2245
16.85	23.2187
16.868	23.2076
16.886	23.1901
16.904	23.1652
16.922	23.1332
16.94	23.0938
16.958	23.0482
16.976	22.9971
16.994	22.9419
17.012	22.8843
17.03	22.8253
17.048	22.7672
17.066	22.7109
17.084	22.6578
17.102	22.6094
17.12	22.5661
17.138	22.5286
17.156	22.4967
17.174	22.4705
17.192	22.4487
17.21	22.4309
17.228	22.4157
17.246	22.4018
17.264	22.3882
17.282	22.3733
17.3	22.3565
17.318	22.3366
17.336	22.3133
17.354	22.2861
17.372	22.2554
17.39	22.2215
17.408	22.1851
17.426	22.147
17.444	22.1077
17.462	22.0685
17.48	22.0296
17.498	21.9919
17.516	21.9557
17.534	21.9211
17.552	21.888
17.57	21.8563
17.588	21.8256
17.606	21.7955
17.624	21.7658
17.642	21.7364
17.66	21.7073
17.678	21.6787
17.696	21.6508
17.714	21.6247
17.732	21.6009
17.75	21.5802
17.768	21.5641
17.786	21.5531
17.804	21.5484
17.822	21.5501
17.84	21.5591
17.858	21.5752
17.876	21.5983
17.894	21.6279
17.912	21.6637
17.93	21.7042
17.948	21.7491
17.966	21.7968
17.984	21.8468
18.002	21.8975
18.02	21.9483
18.038	21.9984
18.056	22.0469
18.074	22.0934
18.092	22.137
18.11	22.1777
18.128	22.2146
18.146	22.2475
18.164	22.2757
18.182	22.2988
18.2	22.3161
18.218	22.3267
18.236	22.3306
18.254	22.3265
18.272	22.3142
18.29	22.2934
18.308	22.2639
18.326	22.2256
18.344	22.1789
18.362	22.1245
18.38	22.063
18.398	21.9954
18.416	21.9229
18.434	21.847
18.452	21.7691
18.47	21.6905
18.488	21.6128
18.506	21.5368
18.524	21.4643
18.542	21.3955
18.56	21.3317
18.578	21.2732
18.596	21.2204
18.614	21.1735
18.632	21.1325
18.65	21.0971
18.668	21.0672
18.686	21.0426
18.704	21.0227
18.722	21.0076
18.74	20.9967
18.758	20.9898
18.776	20.9865
18.794	20.9865
18.812	20.9894
18.83	20.9947
18.848	21.0019
18.866	21.0102
18.884	21.0189
18.902	21.0271
18.92	21.0336
18.938	21.0378
18.956	21.038
18.974	21.0338
18.992	21.0234
19.01	21.0068
19.028	20.9829
19.046	20.9518
19.064	20.913
19.082	20.8674
19.1	20.8152
19.118	20.7575
19.136	20.6955
19.154	20.6301
19.172	20.5634
19.19	20.496
19.208	20.4302
19.226	20.3665
19.244	20.3068
19.262	20.2513
19.28	20.2015
19.298	20.1573
19.316	20.1193
19.334	20.0873
19.352	20.0613
19.37	20.0412
19.388	20.0261
19.406	20.016
19.424	20.01
19.442	20.0081
19.46	20.0094
19.478	20.0138
19.496	20.0211
19.514	20.0313
19.532	20.0441
19.55	20.0596
19.568	20.0777
19.586	20.0988
19.604	20.1226
19.622	20.1491
19.64	20.1784
19.658	20.2101
19.676	20.2443
19.694	20.28
19.712	20.3175
19.73	20.3553
19.748	20.3937
19.766	20.4312
19.784	20.4678
19.802	20.5021
19.82	20.5336
19.838	20.5617
19.856	20.5855
19.874	20.605
19.892	20.619
19.91	20.6278
19.928	20.6306
19.946	20.6277
19.964	20.6189
19.982	20.6042
20	20.5842
20.018	20.559
20.036	20.5292
20.054	20.4959
20.072	20.4592
20.09	20.4211
20.108	20.3814
20.126	20.3425
20.144	20.3045
20.162	20.2692
20.18	20.2375
20.198	20.21
20.216	20.1882
20.234	20.1718
20.252	20.1616
20.27	20.1576
20.288	20.1592
20.306	20.1666
20.324	20.1785
20.342	20.1942
20.36	20.213
20.378	20.2323
20.396	20.2527
20.414	20.2708
20.432	20.2869
20.45	20.2988
20.468	20.3054
20.486	20.3065
20.504	20.3004
20.522	20.2876
20.54	20.2674
20.558	20.2398
20.576	20.2056
20.594	20.1651
20.612	20.1189
20.63	20.0689
20.648	20.0148
20.666	19.9592
20.684	19.9021
20.702	19.845
20.72	19.7894
20.738	19.7351
20.756	19.6839
20.774	19.6354
20.792	19.5903
20.81	19.5489
20.828	19.5107
20.846	19.4756
20.864	19.4434
20.882	19.4132
20.9	19.3851
20.918	19.3581
20.936	19.3313
20.954	19.305
20.972	19.2777
20.99	19.2497
21.008	19.2205
21.026	19.1895
21.044	19.1572
21.062	19.1236
21.08	19.0886
21.098	19.0531
21.116	19.0169
21.134	18.9806
21.152	18.9452
21.17	18.9102
21.188	18.8774
21.206	18.8468
21.224	18.819
21.242	18.7954
21.26	18.7754
21.278	18.7603
21.296	18.7504
21.314	18.7457
21.332	18.7465
21.35	18.7529
21.368	18.7643
21.386	18.781
21.404	18.8024
21.422	18.8272
21.44	18.856
21.458	18.8867
21.476	18.9188
21.494	18.952
21.512	18.9836
21.53	19.0145
21.548	19.0425
21.566	19.066
21.584	19.0856
21.602	19.099
21.62	19.1063
21.638	19.1071
21.656	19.1002
21.674	19.0858
21.692	19.0645
21.71	19.0358
21.728	19.0004
21.746	18.96
21.764	18.9139
21.782	18.8645
21.8	18.8134
21.818	18.76
21.836	18.708
21.854	18.6575
21.872	18.6093
21.89	18.5667
21.908	18.5287
21.926	18.4969
21.944	18.4729
21.962	18.4561
21.98	18.4469
21.998	18.4459
22.016	18.4523
22.034	18.4653
22.052	18.4855
22.07	18.5107
22.088	18.5395
22.106	18.5727
22.124	18.6066
22.142	18.641
22.16	18.6753
22.178	18.7059
22.196	18.7336
22.214	18.7571
22.232	18.7741
22.25	18.7856
22.268	18.7903
22.286	18.7871
22.304	18.7767
22.322	18.759
22.34	18.7335
22.358	18.7008
22.376	18.6618
22.394	18.616
22.412	18.5644
22.43	18.5084
22.448	18.4472
22.466	18.3826
22.484	18.316
22.502	18.2466
22.52	18.1766
22.538	18.107
22.556	18.0373
22.574	17.9696
22.592	17.904
22.61	17.8407
22.628	17.7811
22.646	17.725
22.664	17.6728
22.682	17.6257
22.7	17.5833
22.718	17.5459
22.736	17.5141
22.754	17.4875
22.772	17.4665
22.79	17.4515
22.808	17.4422
22.826	17.4384
22.844	17.4401
22.862	17.4474
22.88	17.4587
22.898	17.4738
22.916	17.493
22.934	17.5137
22.952	17.5358
22.97	17.5594
22.988	17.5818
23.006	17.6026
23.024	17.6221
23.042	17.6375
23.06	17.6489
23.078	17.6562
23.096	17.6575
23.114	17.6525
23.132	17.6414
23.15	17.6237
23.168	17.5992
23.186	17.568
23.204	17.5305
23.222	17.486
23.24	17.4354
23.258	17.3805
23.276	17.3204
23.294	17.2564
23.312	17.1916
23.33	17.1253
23.348	17.0585
23.366	16.995
23.384	16.9344
23.402	16.8771
23.42	16.8264
23.438	16.7822
23.456	16.7444
23.474	16.7155
23.492	16.6959
23.51	16.685
23.528	16.6839
23.546	16.6935
23.564	16.713
23.582	16.7417
23.6	16.7798
23.618	16.8273
23.636	16.882
23.654	16.9433
23.672	17.0123
23.69	17.085
23.708	17.1591
23.726	17.237
23.744	17.3141
23.762	17.3867
23.78	17.4576
23.798	17.523
23.816	17.5778
23.834	17.6248
23.852	17.6615
23.87	17.6837
23.888	17.693
23.906	17.6883
23.924	17.6658
23.942	17.6252
23.96	17.5673
23.978	17.4903
23.996	17.3929
24.014	17.2762
24.032	17.1411
24.05	16.9878
24.068	16.8151
24.086	16.6273
24.104	16.4284
24.122	16.2143
24.14	15.9907
24.158	15.7652
24.176	15.5335
24.194	15.2994
24.212	15.0732
24.23	14.8546
24.248	14.6418
24.266	14.4471
24.284	14.2768
24.302	14.1241
24.32	13.9982
24.338	13.9081
24.356	13.8487
24.374	13.8229
24.392	13.837
24.41	13.8918
24.428	13.9849
24.446	14.1156
24.464	14.2852
24.482	14.4941
24.5	14.7352
24.518	15.0036
24.536	15.3063
24.554	15.633
24.572	15.9701
24.59	16.3236
24.608	16.6904
24.626	17.0537
24.644	17.4075
24.662	17.761
24.68	18.0979
24.698	18.4031
24.716	18.687
24.734	18.9421
24.752	19.1541
24.77	19.3224
24.788	19.4509
24.806	19.531
24.824	19.556
24.842	19.5303
24.86	19.4532
24.878	19.3228
24.896	19.1366
24.914	18.898
24.932	18.6129
24.95	18.2828
24.968	17.9032
24.986	17.4843
25.004	17.0361
25.022	16.5504
25.04	16.0333
25.058	15.5008
25.076	14.9582
25.094	14.3958
25.112	13.8297
25.13	13.2757
25.148	12.7235
25.166	12.1789
25.184	11.6589
25.202	11.1706
25.22	10.7031
25.238	10.2699
25.256	9.884989
25.274	9.542874
25.292	9.243823
25.31	8.996702
25.328	8.807325
25.346	8.670719
25.364	8.587788
25.382	8.560203
25.4	8.589499
25.418	8.673571
25.436	8.808935
25.454	8.993516
25.472	9.231287
25.49	9.516661
25.508	9.842365
25.526	10.2084
25.544	10.6178
25.562	11.0616
25.58	11.5314
25.598	12.0328
25.616	12.563
25.634	13.1133
25.652	13.679
25.67	14.2673
25.688	14.8702
25.706	15.4784
25.724	16.0921
25.742	16.7148
25.76	17.3384
25.778	17.9554
25.796	18.5693
25.814	19.1798
25.832	19.7832
25.85	20.3766
25.868	20.9623
25.886	21.5397
25.904	22.1077
25.922	22.6652
25.94	23.2127
25.958	23.7522
25.976	24.2858
25.994	24.8129
26.012	25.3334
26.03	25.8479
26.048	26.3575
26.066	26.8634
26.084	27.3635
26.102	27.8554
26.12	28.3382
26.138	28.8158
26.156	29.2828
26.174	29.7329
26.192	30.1666
26.21	30.5897
26.228	30.9898
26.246	31.354
26.264	31.6845
26.282	31.9863
26.3	32.2473
26.318	32.4559
26.336	32.6131
26.354	32.7231
26.372	32.7849
26.39	32.7972
26.408	32.7582
26.426	32.6708
26.444	32.5395
26.462	32.3667
26.48	32.1423
26.498	31.8773
26.516	31.5879
26.534	31.2856
26.552	30.956
26.57	30.6082
26.588	30.2564
26.606	29.9106
26.624	29.5618
26.642	29.2117
26.66	28.8637
26.678	28.5209
26.696	28.1818
26.714	27.8445
26.732	27.5074
26.75	27.1729
26.768	26.847
26.786	26.5162
26.804	26.1661
26.822	25.7882
26.84	25.3921
26.858	24.9761
26.876	24.5377
26.894	24.0713
26.912	23.5738
26.93	23.0593
26.948	22.5428
26.966	22.0108
26.984	21.42
27.002	20.857
27.02	20.417
27.028	20.2991