File: Bakgrunnsmateriale/MATLAB/FTIR/ftir_data/LPE453/Mapping_121/LPE453_t68_cm-1.asc
PE IR       SPECTRUM    SPECTRUM    ASCII       PEDS        1.60
  -1
LP6A59~1.ASC
17/05/16
19:59:41.00
17/05/16
19:59:41.00
tln
$LPE453_t0068$<tbV0>[10.4,2.6,8.0,0.0,27,1,0]
370
64

2002,4.07
MIRTGS : RIGHTBACK : INTERNAL 2
MIR : ON : INTERNAL 2
OPTKBR

0.200000
8
8.000000
FILLER
RATIO
SPECTRUM
UNLOCKED 256

DOUBLE
64
COMBINED
1
0
0

1.000000
RATIO

1
0
TRUE
51149
0
LEFT NOT FITTED RIGHT NOT FITTED 0
NONE
NONE
15600
12
4.427000
51148
TRUE
1 0 8 72 0 0 0 0

15798

#HDR
-1
-1
#GR
CM-1
%T
2.38419e-05
0.0
5000
-1.000000
4631
8
24.9104
-12.8846
#DATA
5000	0.128793
4996	0.215983
4992	0.185394
4988	0.261402
4984	0.362110
4980	0.454115
4976	0.476408
4972	0.386786
4968	0.284504
4964	0.120806
4960	-0.114512
4956	-0.318217
4952	-0.334143
4948	-0.216650
4944	-0.034809
4940	0.173091
4936	0.320458
4932	0.517797
4928	0.573277
4924	0.341200
4920	0.273394
4916	0.358867
4912	0.150585
4908	-0.040626
4904	0.123953
4900	0.295639
4896	0.237560
4892	0.165534
4888	0.303816
4884	0.418972
4880	0.413560
4876	0.402522
4872	0.283813
4868	0.248122
4864	0.318980
4860	0.187897
4856	0.053071
4852	0.245547
4848	0.371313
4844	0.270962
4840	0.252223
4836	0.198960
4832	0.146079
4828	0.094890
4824	-0.166296
4820	-0.269484
4816	0.001859
4812	0.242424
4808	0.132226
4804	-0.125741
4800	-0.178337
4796	-0.124120
4792	-0.119376
4788	0.011086
4784	0.274443
4780	0.369381
4776	0.235605
4772	-0.017666
4768	-0.342774
4764	-0.295376
4760	0.191974
4756	0.394153
4752	0.216507
4748	0.275063
4744	0.608062
4740	0.490856
4736	0.028419
4732	-0.120115
4728	0.084400
4724	0.437021
4720	0.859379
4716	1.115584
4712	0.948834
4708	0.637483
4704	0.496888
4700	0.406813
4696	-0.340294
4692	-1.281619
4688	-1.587343
4684	-1.401162
4680	-0.047945
4676	0.978684
4672	0.499033
4668	0.409555
4664	1.047778
4660	1.146078
4656	0.033307
4652	-0.859928
4648	-0.222921
4644	0.901532
4640	1.333808
4636	0.932478
4632	0.739288
4628	1.171684
4624	1.013875
4620	0.658845
4616	0.644803
4612	-0.151467
4608	-0.922060
4604	-0.582623
4600	0.016140
4596	0.286531
4592	0.167131
4588	0.074958
4584	0.618886
4580	0.780224
4576	0.365495
4572	0.358462
4568	0.302100
4564	0.345396
4560	0.774240
4556	0.722765
4552	0.473427
4548	0.487422
4544	0.324273
4540	0.071835
4536	0.295400
4532	0.686287
4528	1.101803
4524	1.285147
4520	0.715565
4516	0.295805
4512	-0.148534
4508	-1.306366
4504	-1.706671
4500	1.325535
4496	2.048492
4492	4.563927
4488	12.9695
4484	7.227897
4480	-2.887344
4476	-1.273393
4472	0.980782
4468	0.876235
4464	0.938987
4460	1.051712
4456	0.911283
4452	0.055432
4448	-0.791788
4444	-1.027369
4440	-0.917434
4436	-0.764298
4432	-0.723028
4428	-0.444316
4424	-0.012135
4420	0.013709
4416	-0.152611
4412	-0.126361
4408	-0.053071
4404	-0.157952
4400	-0.270318
4396	-0.092291
4392	0.198793
4388	0.270962
4384	0.161147
4380	0.129556
4376	0.206208
4372	0.208854
4368	0.222301
4364	0.330424
4360	0.361061
4356	0.383758
4352	0.483512
4348	0.495719
4344	0.265979
4340	-0.053167
4336	-0.027132
4332	0.229287
4328	0.147795
4324	-0.134229
4320	-0.180196
4316	-0.019550
4312	0.264191
4308	0.327825
4304	0.069570
4300	-0.078558
4296	-0.062227
4292	0.040555
4288	0.047302
4284	-0.084137
4280	0.006842
4276	0.230979
4272	0.305819
4268	0.268793
4264	0.184035
4260	-0.090789
4256	-0.243830
4252	-0.016593
4248	0.097084
4244	-0.065088
4240	-0.176930
4236	-0.160431
4232	-0.110697
4228	-0.029420
4224	0.008893
4220	0.059032
4216	0.182485
4212	0.284099
4208	0.220060
4204	0.044155
4200	-0.008034
4196	-0.059413
4192	-0.237727
4188	-0.258636
4184	-0.021696
4180	0.090789
4176	0.038385
4172	0.095152
4168	0.177383
4164	0.173640
4160	0.235033
4156	0.269079
4152	0.063776
4148	-0.101494
4144	-0.039315
4140	-0.008845
4136	0.044775
4132	0.136852
4128	0.079369
4124	0.074696
4120	0.151419
4116	0.067424
4112	-0.095677
4108	-0.178837
4104	-0.122332
4100	-0.040125
4096	0.033545
4092	0.148820
4088	0.207424
4084	0.267982
4080	0.256919
4076	0.109291
4072	0.002932
4068	0.003862
4064	-0.011658
4060	-0.088238
4056	-0.116133
4052	-0.040960
4048	0.038790
4044	-0.046396
4040	-0.161886
4036	-0.171661
4032	-0.150656
4028	-0.068831
4024	0.023794
4020	0.100278
4016	0.211572
4012	0.282239
4008	0.292825
4004	0.270462
4000	0.192499
3996	0.080895
3992	0.106167
3988	0.168919
3984	0.041294
3980	-0.105166
3976	-0.146698
3972	-0.093317
3968	0.016570
3964	0.031828
3960	-0.020360
3956	0.014066
3952	0.086641
3948	0.053572
3944	0.001931
3940	0.057768
3936	0.153827
3932	0.202798
3928	0.162005
3924	0.084161
3920	0.098705
3916	0.124478
3912	0.032901
3908	-0.042414
3904	-0.008773
3900	0.124192
3896	0.231194
3892	0.135326
3888	-0.032234
3884	-0.073790
3880	-0.021576
3876	0.079369
3872	0.118994
3868	-0.004601
3864	-0.090575
3860	-0.075650
3856	-0.077629
3852	-0.123286
3848	-0.176501
3844	-0.123238
3840	-0.019693
3836	0.024795
3832	0.046205
3828	0.058364
3824	0.102686
3820	0.167036
3816	0.110721
3812	-0.019407
3808	-0.068140
3804	-0.053167
3800	-0.028371
3796	-0.002217
3792	0.071120
3788	0.192070
3784	0.221323
3780	0.127339
3776	0.071001
3772	0.037240
3768	-0.030207
3764	-0.020456
3760	0.002622
3756	0.006103
3752	0.085449
3748	0.164031
3744	0.145554
3740	0.079607
3736	0.024485
3732	0.034499
3728	0.084257
3724	0.094175
3720	0.059843
3716	0.006127
3712	0.031113
3708	0.143480
3704	0.180530
3700	0.140380
3696	0.129032
3692	0.094270
3688	0.004434
3684	-0.067567
3680	-0.060582
3676	0.001716
3672	0.032949
3668	0.083041
3664	0.162506
3660	0.119495
3656	-0.003242
3652	-0.133156
3648	-0.233125
3644	-0.196003
3640	-0.079369
3636	0.009441
3632	0.068974
3628	0.090312
3624	0.054430
3620	-0.030779
3616	-0.084567
3612	-0.036716
3608	0.028061
3604	0.064158
3600	0.088858
3596	0.076556
3592	0.088739
3588	0.135803
3584	0.118303
3580	0.069093
3576	0.076150
3572	0.113987
3568	0.147199
3564	0.159502
3560	0.109505
3556	0.035381
3552	0.015115
3548	0.058364
3544	0.152945
3540	0.204682
3536	0.139379
3532	0.046801
3528	0.024580
3524	0.036692
3520	0.077295
3516	0.137162
3512	0.084853
3508	0.009346
3504	0.028991
3500	0.036406
3496	0.046372
3492	0.066637
3488	0.063657
3484	0.111651
3480	0.103759
3476	-0.030660
3472	-0.124359
3468	-0.124549
3464	-0.090694
3460	-0.039267
3456	0.019407
3452	0.068378
3448	0.073504
3444	0.046014
3440	0.014328
3436	-0.041365
3432	-0.102400
3428	-0.023603
3424	0.060200
3420	0.008177
3416	-0.014638
3412	-0.001955
3408	-0.004935
3404	0.022244
3400	0.045347
3396	0.080800
3392	0.086402
3388	0.028800
3384	-0.000739
3380	0.040745
3376	0.082230
3372	0.077748
3368	0.045251
3364	-0.007104
3360	-0.049376
3356	-0.046539
3352	0.001931
3348	0.056123
3344	0.092816
3340	0.091409
3336	0.022172
3332	-0.060701
3328	-0.077342
3324	-0.031614
3320	0.002527
3316	-0.012278
3312	-0.035619
3308	-0.050258
3304	-0.031089
3300	-0.023198
3296	-0.079345
3292	-0.068616
3288	0.002598
3284	0.004386
3280	-0.046658
3276	-0.017547
3272	0.133109
3268	0.241279
3264	0.209021
3260	0.097441
3256	0.022506
3252	-0.013208
3248	-0.067019
3244	-0.088953
3240	-0.045990
3236	0.011134
3232	0.033307
3228	0.079107
3224	0.120592
3220	0.126743
3216	0.176882
3212	0.171113
3208	0.083184
3204	0.066757
3200	0.121045
3196	0.132083
3192	0.061130
3188	0.008869
3184	0.023937
3180	0.023865
3176	-0.015974
3172	-0.031185
3168	-0.019860
3164	-0.046515
3160	-0.020933
3156	0.051140
3152	0.034117
3148	0.017714
3144	0.061321
3140	0.081419
3136	0.034880
3132	-0.074791
3128	-0.130987
3124	-0.066614
3120	0.049138
3116	0.126624
3112	0.091934
3108	0.030374
3104	0.011587
3100	0.034141
3096	0.096726
3092	0.095486
3088	0.036454
3084	0.040149
3080	0.095248
3076	0.108790
3072	0.065708
3068	0.027346
3064	0.031757
3060	0.032424
3056	-0.001311
3052	-0.010752
3048	0.019574
3044	0.027537
3040	0.024604
3036	0.059914
3032	0.087594
3028	0.072193
3024	0.044012
3020	0.033640
3016	0.028276
3012	-0.005769
3008	-0.001049
3004	0.063014
3000	0.106763
2996	0.150179
2992	0.176906
2988	0.117349
2984	0.049090
2980	0.029492
2976	0.021696
2972	0.037884
2968	0.077891
2964	0.081205
2960	0.044751
2956	0.046324
2952	0.052070
2948	0.036168
2944	0.056910
2940	0.087881
2936	0.099706
2932	0.056767
2928	-0.039744
2924	-0.099897
2920	-0.074267
2916	-0.006842
2912	0.044918
2908	0.065159
2904	0.063300
2900	0.049042
2896	0.014185
2892	-0.041985
2888	-0.082540
2884	-0.065684
2880	-0.029873
2876	-0.031185
2872	-0.045323
2868	-0.008320
2864	0.100064
2860	0.185775
2856	0.148272
2852	0.072050
2848	0.070333
2844	0.072336
2840	0.034403
2836	0.027179
2832	0.018024
2828	-0.005674
2824	0.001454
2820	0.001239
2816	0.023388
2812	0.080013
2808	0.085115
2804	0.059604
2800	0.075459
2796	0.102233
2792	0.108122
2788	0.084114
2784	0.049543
2780	0.034809
2776	-0.001811
2772	-0.027847
2768	0.012302
2764	0.029087
2760	0.031614
2756	0.066328
2752	0.080275
2748	0.020718
2744	-0.022053
2740	-0.011396
2736	-0.009441
2732	-0.020575
2728	0.010848
2724	0.082087
2720	0.087833
2716	0.050497
2712	0.058674
2708	0.098085
2704	0.096368
2700	0.036430
2696	0.008487
2692	0.051212
2688	0.076246
2684	0.049781
2680	0.046086
2676	0.091361
2672	0.122570
2668	0.077223
2664	0.034642
2660	0.047111
2656	0.043487
2652	0.054001
2648	0.095462
2644	0.095987
2640	0.100374
2636	0.086092
2632	-0.008940
2628	-0.065374
2624	-0.051975
2620	-0.021934
2616	0.017333
2612	0.055265
2608	0.067424
2604	0.049614
2600	0.042200
2596	0.055289
2592	0.063896
2588	0.032567
2584	0.004935
2580	0.000786
2576	0.023770
2572	0.074529
2568	0.077128
2564	0.033617
2560	0.034999
2556	0.043463
2552	-0.022101
2548	-0.047206
2544	0.030541
2540	0.074076
2536	0.003981
2532	-0.071382
2528	-0.064158
2524	-0.092697
2520	-0.139474
2516	-0.084590
2512	-0.053000
2508	-0.080943
2504	-0.012040
2500	0.079774
2496	0.078177
2492	0.066828
2488	0.054788
2484	0.007581
2480	-0.041747
2476	-0.061011
2472	-0.008058
2468	0.068974
2464	0.044226
2460	-0.016403
2456	0.010919
2452	0.058007
2448	0.050783
2444	0.047326
2440	0.111484
2436	0.158429
2432	0.099039
2428	0.110268
2424	0.255560
2420	0.270700
2416	0.151133
2412	0.110006
2408	0.081133
2404	-0.003266
2400	-0.008702
2396	-0.003719
2392	-0.046205
2388	-0.041317
2384	-0.031876
2380	-0.024557
2376	-0.026249
2372	-0.082707
2368	-0.118279
2364	-0.092482
2360	-0.040125
2356	0.008416
2352	0.041437
2348	0.061178
2344	0.060582
2340	0.014853
2336	-0.070643
2332	-0.088167
2328	-0.043463
2324	-0.033187
2320	-0.024032
2316	0.008273
2312	0.034976
2308	0.042986
2304	0.059628
2300	0.063991
2296	0.032114
2292	0.015854
2288	0.028824
2284	0.067520
2280	0.098991
2276	0.126051
2272	0.187182
2268	0.196433
2264	0.138354
2260	0.108814
2256	0.113224
2252	0.163340
2248	0.245070
2244	0.290298
2240	0.321984
2236	0.350642
2232	0.368595
2228	0.441622
2224	0.526881
2220	0.548791
2216	0.590610
2212	0.694584
2208	0.793838
2204	0.866150
2200	0.930213
2196	1.033806
2192	1.172327
2188	1.273632
2184	1.382350
2180	1.539182
2176	1.700496
2172	1.856088
2168	2.040982
2164	2.216219
2160	2.319765
2156	2.492976
2152	2.794361
2148	3.048110
2144	3.230619
2140	3.485727
2136	3.817582
2132	4.125666
2128	4.411482
2124	4.696035
2120	4.945254
2116	5.168509
2112	5.421113
2108	5.733251
2104	6.086587
2100	6.429982
2096	6.755280
2092	7.114648
2088	7.517814
2084	7.876324
2080	8.137464
2076	8.431863
2072	8.866286
2068	9.329843
2064	9.729599
2060	10.0697
2056	10.3549
2052	10.6713
2048	11.0742
2044	11.4997
2040	11.9075
2036	12.2438
2032	12.4974
2028	12.8174
2024	13.2418
2020	13.6229
2016	13.9192
2012	14.1961
2008	14.4721
2004	14.7433
2000	14.9855
1996	15.2185
1992	15.5205
1988	15.896
1984	16.2832
1980	16.6375
1976	16.9302
1972	17.1805
1968	17.4271
1964	17.6669
1960	17.9388
1956	18.2442
1952	18.526
1948	18.7449
1944	18.8979
1940	19.0748
1936	19.3189
1932	19.5623
1928	19.7782
1924	19.9897
1920	20.181
1916	20.3636
1912	20.5494
1908	20.7101
1904	20.8863
1900	21.0915
1896	21.2489
1892	21.357
1888	21.4956
1884	21.6932
1880	21.8538
1876	21.9055
1872	21.9459
1868	22.0784
1864	22.2916
1860	22.4849
1856	22.5945
1852	22.6722
1848	22.7942
1844	22.9041
1840	22.9379
1836	23.0159
1832	23.1521
1828	23.2254
1824	23.2692
1820	23.3493
1816	23.4325
1812	23.4987
1808	23.5488
1804	23.5966
1800	23.68
1796	23.793
1792	23.8784
1788	23.9221
1784	23.9525
1780	23.9589
1776	23.9633
1772	24.0112
1768	24.0607
1764	24.0977
1760	24.1674
1756	24.2166
1752	24.2294
1748	24.2798
1744	24.3065
1740	24.2644
1736	24.2626
1732	24.3299
1728	24.3835
1724	24.3718
1720	24.4034
1716	24.5718
1712	24.6763
1708	24.629
1704	24.5806
1700	24.5543
1696	24.5369
1692	24.5539
1688	24.6004
1684	24.6475
1680	24.657
1676	24.6829
1672	24.7683
1668	24.824
1664	24.8115
1660	24.7682
1656	24.7421
1652	24.7612
1648	24.7722
1644	24.7704
1640	24.8284
1636	24.8946
1632	24.8585
1628	24.7842
1624	24.7305
1620	24.6774
1616	24.6659
1612	24.7075
1608	24.7746
1604	24.7943
1600	24.7647
1596	24.7974
1592	24.8794
1588	24.908
1584	24.8313
1580	24.7213
1576	24.6922
1572	24.7312
1568	24.7727
1564	24.8245
1560	24.8814
1556	24.8751
1552	24.8321
1548	24.7954
1544	24.7493
1540	24.712
1536	24.6889
1532	24.6785
1528	24.6965
1524	24.726
1520	24.7479
1516	24.7554
1512	24.7546
1508	24.7683
1504	24.7559
1500	24.6984
1496	24.6698
1492	24.6538
1488	24.6101
1484	24.5934
1480	24.603
1476	24.6458
1472	24.6976
1468	24.7099
1464	24.6927
1460	24.6329
1456	24.5431
1452	24.473
1448	24.4668
1444	24.5297
1440	24.5493
1436	24.4735
1432	24.4073
1428	24.4173
1424	24.4716
1420	24.4702
1416	24.4496
1412	24.4653
1408	24.4005
1404	24.3322
1400	24.4006
1396	24.4571
1392	24.4379
1388	24.4122
1384	24.3984
1380	24.4071
1376	24.3516
1372	24.2326
1368	24.2036
1364	24.2435
1360	24.2426
1356	24.2224
1352	24.2031
1348	24.18
1344	24.1967
1340	24.2099
1336	24.1565
1332	24.081
1328	24.0212
1324	24.0274
1320	24.088
1316	24.1161
1312	24.1136
1308	24.1263
1304	24.1502
1300	24.1278
1296	24.0833
1292	24.0876
1288	24.0865
1284	24.0116
1280	23.941
1276	23.9392
1272	23.9597
1268	23.9697
1264	24.007
1260	24.0588
1256	24.0201
1252	23.9027
1248	23.8301
1244	23.8533
1240	23.8548
1236	23.7605
1232	23.723
1228	23.7722
1224	23.7889
1220	23.7778
1216	23.7518
1212	23.7064
1208	23.6507
1204	23.626
1200	23.6368
1196	23.6283
1192	23.637
1188	23.6878
1184	23.7165
1180	23.6631
1176	23.5336
1172	23.4424
1168	23.4651
1164	23.4943
1160	23.4448
1156	23.4149
1152	23.4039
1148	23.3533
1144	23.3724
1140	23.4427
1136	23.4019
1132	23.3178
1128	23.3251
1124	23.308
1120	23.1865
1116	23.0039
1112	22.8066
1108	22.7224
1104	22.7243
1100	22.6731
1096	22.6748
1092	22.7799
1088	22.8532
1084	22.919
1080	22.9694
1076	22.977
1072	22.9578
1068	22.8572
1064	22.7393
1060	22.6884
1056	22.7155
1052	22.7479
1048	22.6293
1044	22.4659
1040	22.4492
1036	22.4442
1032	22.3879
1028	22.4357
1024	22.5131
1020	22.4303
1016	22.2777
1012	22.1734
1008	22.1035
1004	22.0749
1000	22.0046
996	 21.8491
992	 21.7413
988	 21.7484
984	 21.8422
980	 21.9623
976	 22.0178
972	 22.0057
968	 21.9574
964	 21.8362
960	 21.6515
956	 21.5061
952	 21.4339
948	 21.3828
944	 21.3382
940	 21.3084
936	 21.3003
932	 21.2964
928	 21.2636
924	 21.1748
920	 21.0068
916	 20.8971
912	 20.8936
908	 20.8151
904	 20.725
900	 20.7443
896	 20.7886
892	 20.7551
888	 20.6447
884	 20.5904
880	 20.5274
876	 20.3719
872	 20.3084
868	 20.3
864	 20.276
860	 20.2975
856	 20.2975
852	 20.2692
848	 20.2179
844	 20.1083
840	 20.044
836	 19.9805
832	 19.7901
828	 19.6949
824	 19.8006
820	 19.8072
816	 19.6667
812	 19.6216
808	 19.7193
804	 19.7444
800	 19.5659
796	 19.3147
792	 19.0754
788	 18.8324
784	 18.7045
780	 18.7414
776	 18.7515
772	 18.6817
768	 18.6308
764	 18.5634
760	 18.4068
756	 18.208
752	 18.0324
748	 17.9253
744	 17.9358
740	 17.924
736	 17.8564
732	 17.8909
728	 17.9337
724	 17.8945
720	 17.733
716	 17.4594
712	 17.333
708	 17.3614
704	 17.2962
700	 17.1992
696	 17.265
692	 17.3651
688	 17.3718
684	 17.3266
680	 17.1487
676	 16.936
672	 16.8674
668	 16.7447
664	 16.4832
660	 16.2769
656	 16.1322
652	 16.0688
648	 16.111
644	 16.189
640	 16.3225
636	 16.2625
632	 15.8327
628	 15.4282
624	 15.2417
620	 15.1701
616	 15.2961
612	 15.5186
608	 15.6359
604	 15.5915
600	 15.3047
596	 14.9686
592	 14.879
588	 14.9296
584	 14.7109
580	 14.2251
576	 13.9208
572	 13.9039
568	 14.0172
564	 14.029
560	 13.8635
556	 13.7175
552	 13.622
548	 13.6162
544	 13.6362
540	 13.3532
536	 12.9078
532	 12.6549
528	 12.7404
524	 13.1252
520	 13.424
516	 13.3542
512	 13.0344
508	 12.7332
504	 12.682
500	 12.7268
496	 12.5606
492	 12.5474
488	 12.7511
484	 12.4656
480	 11.8064
476	 11.4369
472	 11.5382
468	 11.622
464	 11.187
460	 10.9916
456	 11.2061
452	 10.8166
448	 10.1573
444	 10.0044
440	 10.2549
436	 10.7172
432	 10.8304
428	 10.6062
424	 10.9526
420	 11.1654
416	 10.899
412	 11.9247
408	 16.1019
404	 21.5001
400	 23.792
396	 22.6174
392	 15.1409
388	 4.679369
384	 -3.035855
380	 -10.1577
376	 -12.8846
372	 -11.7469
370	 -10.3092