File: Bakgrunnsmateriale/MATLAB/FTIR/ftir_data/LPE453/Mapping_121/LPE453_t05.asc
PE IR       SPECTRUM    SPECTRUM    ASCII       PEDS        1.60
  -1
LPD39D~1.ASC
17/05/16
14:46:28.00
17/05/16
14:46:55.00
tln
$LPE453_t0005$<tbV0>[2.6,-13.0,8.0,0.0,27,1,0]
27.028
64

2002,4.07
MIRTGS : RIGHTBACK : INTERNAL 2
MIR : ON : INTERNAL 2
OPTKBR

0.200000
8
8.000000
FILLER
RATIO
SPECTRUM
UNLOCKED 256

DOUBLE
64
COMBINED
1
0
0

0.002000
RATIO

1
0
TRUE
51149
0
LEFT NOT FITTED RIGHT NOT FITTED 0
NONE
NONE
15600
12
4.427000
51148
TRUE
1 0 8 72 0 0 0 0

15798

#HDR
-1
-1
#GR
µM
%T
2.38419e-05
0.0
2.000000
0.002000
12515
8
44.2437
-6.525897
#DATA
2.000000	 -0.225424
2.018000	 -0.087593
2.036000	 -0.013084
2.054000	 0.463483
2.072000	 0.270667
2.090000	 0.145024
2.108000	 -0.213482
2.126000	 0.510273
2.144000	 0.145836
2.162000	 0.898966
2.180000	 0.200087
2.198000	 1.274045
2.216000	 -0.946930
2.234000	 0.515014
2.252000	 0.013100
2.270000	 0.703804
2.288000	 0.450447
2.306000	 -0.014112
2.324000	 0.238921
2.342000	 -0.113700
2.360000	 0.265654
2.378000	 0.191283
2.396000	 -0.089505
2.414000	 0.259608
2.432000	 0.031574
2.450000	 -0.088040
2.468000	 0.104463
2.486000	 0.093494
2.504000	 0.243403
2.522000	 0.110617
2.540000	 0.395188
2.558000	 -0.090958
2.576000	 0.138633
2.594000	 -0.022881
2.612000	 0.290741
2.630000	 0.035991
2.648000	 -0.024662
2.666000	 0.000769
2.684000	 -0.001044
2.702000	 0.188948
2.720000	 0.131472
2.738000	 0.021584
2.756000	 0.079109
2.774000	 -0.043241
2.792000	 0.024143
2.810000	 0.113564
2.828000	 0.000475
2.846000	 0.161502
2.864000	 0.122307
2.882000	 0.029681
2.900000	 0.035022
2.918000	 0.106765
2.936000	 0.114488
2.954000	 0.067437
2.972000	 -0.040436
2.990000	 0.154236
3.008000	 -0.074633
3.026000	 0.171642
3.044000	 0.089516
3.062000	 0.020770
3.080000	 0.061788
3.098000	 -0.017185
3.116000	 0.065558
3.134000	 0.037376
3.152000	 -0.037906
3.170000	 0.014165
3.188000	 0.148223
3.206000	 0.084215
3.224000	 0.041825
3.242000	 -0.064780
3.260000	 0.100253
3.278000	 -0.015998
3.296000	 0.038710
3.314000	 0.136604
3.332000	 0.114690
3.350000	 0.040690
3.368000	 0.020062
3.386000	 0.036072
3.404000	 0.126745
3.422000	 -0.018886
3.440000	 0.158120
3.458000	 0.051876
3.476000	 0.137782
3.494000	 -0.040762
3.512000	 0.059410
3.530000	 0.061175
3.548000	 0.147268
3.566000	 0.034760
3.584000	 -0.004310
3.602000	 0.045800
3.620000	 0.039720
3.638000	 -0.035641
3.656000	 0.151588
3.674000	 0.047439
3.692000	 0.011007
3.710000	 0.047678
3.728000	 0.060570
3.746000	 0.015804
3.764000	 0.028710
3.782000	 0.002783
3.800000	 -0.001659
3.818000	 -0.070344
3.836000	 0.054480
3.854000	 0.021511
3.872000	 -0.061564
3.890000	 0.012236
3.908000	 0.064643
3.926000	 0.028440
3.944000	 -0.046547
3.962000	 0.085393
3.980000	 0.073882
3.998000	 0.022477
4.016000	 0.005469
4.034000	 0.048367
4.052000	 -0.034305
4.070000	 -0.036555
4.088000	 -0.003468
4.106000	 0.127300
4.124000	 0.027175
4.141999	 0.135372
4.160000	 0.005464
4.178000	 -0.018934
4.196000	 -0.045177
4.214000	 0.082288
4.232000	 -0.032076
4.250000	 0.079762
4.268000	 0.004785
4.286000	 0.084262
4.304000	 0.164716
4.322000	 0.070977
4.340000	 0.267689
4.358000	 0.254837
4.375999	 0.492906
4.394000	 0.558716
4.412000	 0.740492
4.430000	 0.900033
4.448000	 1.187142
4.466000	 1.386310
4.484000	 1.661569
4.502000	 2.000223
4.520000	 2.492681
4.538000	 2.996981
4.556000	 3.527219
4.574000	 4.110836
4.592000	 4.814399
4.609999	 5.524286
4.628000	 6.329218
4.646000	 7.127920
4.664000	 8.096249
4.682000	 8.741418
4.700000	 9.878276
4.718000	 10.9093
4.736000	 11.856
4.754000	 12.8856
4.772000	 13.8137
4.790000	 14.6827
4.808000	 15.8078
4.826000	 16.8071
4.843999	 17.6719
4.862000	 18.6846
4.880000	 19.6243
4.898000	 20.3607
4.916000	 21.1773
4.934000	 22.028
4.952000	 22.7866
4.970000	 23.4693
4.988000	 24.104
5.006000	 24.7878
5.024000	 25.433
5.042000	 26.0765
5.060000	 26.6433
5.077999	 27.0913
5.096000	 27.5648
5.114000	 28.087
5.132000	 28.4726
5.150000	 28.9189
5.168000	 29.3407
5.186000	 29.7033
5.204000	 30.0115
5.222000	 30.3376
5.240000	 30.5347
5.258000	 30.7415
5.276000	 31.0806
5.294000	 31.3417
5.312000	 31.5626
5.330000	 31.7342
5.348000	 31.9018
5.366000	 32.125
5.384000	 32.2956
5.402000	 32.4575
5.420000	 32.5582
5.438000	 32.5376
5.456000	 32.7411
5.474000	 32.8997
5.492000	 32.9261
5.510000	 33.099
5.528000	 33.1965
5.546000	 33.2794
5.564000	 33.3652
5.582000	 33.4657
5.600000	 33.447
5.618000	 33.5263
5.636000	 33.7203
5.654000	 33.7321
5.672000	 33.6557
5.690000	 33.653
5.708000	 33.815
5.726000	 33.9026
5.744000	 33.8564
5.762000	 33.9408
5.780000	 33.984
5.798000	 33.956
5.816000	 33.9375
5.834000	 34.0044
5.852000	 34.1036
5.870000	 34.2173
5.888000	 34.2198
5.906000	 34.0948
5.923999	 34.1525
5.942000	 34.2817
5.960000	 34.188
5.978000	 34.1309
5.996000	 34.1735
6.014000	 34.2257
6.032000	 34.3114
6.050000	 34.4118
6.068000	 34.2958
6.086000	 34.1007
6.104000	 34.0702
6.122000	 34.0665
6.140000	 34.0741
6.158000	 34.1322
6.176000	 34.1847
6.194000	 34.1985
6.212000	 34.0953
6.230000	 34.0494
6.248000	 34.0513
6.266000	 34.0357
6.284000	 34.0494
6.302000	 34.0637
6.320000	 34.0547
6.338000	 34.021
6.356000	 33.9401
6.374000	 33.9402
6.392000	 34.0684
6.410000	 34.2534
6.428000	 34.2867
6.446000	 34.155
6.464000	 34.0596
6.482000	 34.0993
6.500000	 34.1481
6.518000	 34.1022
6.536000	 34.0332
6.554000	 34.0662
6.572000	 34.1111
6.590000	 34.0306
6.608000	 33.9911
6.626000	 34.0634
6.644000	 34.0309
6.662000	 33.9019
6.680000	 33.8623
6.698000	 33.8391
6.716000	 33.7825
6.734000	 33.8011
6.752000	 33.8662
6.770000	 33.883
6.788000	 33.8162
6.806000	 33.7653
6.824000	 33.7958
6.842000	 33.8227
6.860000	 33.7584
6.878000	 33.6014
6.896000	 33.4845
6.914000	 33.4991
6.932000	 33.6144
6.950000	 33.7142
6.968000	 33.6877
6.986000	 33.6448
7.004000	 33.6755
7.022000	 33.6832
7.040000	 33.5997
7.058000	 33.4853
7.076000	 33.4416
7.094000	 33.4799
7.112000	 33.5178
7.130000	 33.5133
7.148000	 33.5047
7.166000	 33.5158
7.184000	 33.5034
7.202000	 33.4266
7.220000	 33.3293
7.238000	 33.2963
7.256000	 33.3152
7.274000	 33.3206
7.292000	 33.3279
7.310000	 33.3766
7.328000	 33.4237
7.346000	 33.3981
7.364000	 33.3145
7.382000	 33.26
7.400000	 33.2713
7.418000	 33.3187
7.436000	 33.3864
7.454000	 33.4445
7.472000	 33.4239
7.490000	 33.3458
7.508000	 33.3242
7.526000	 33.3652
7.544000	 33.3662
7.562000	 33.3186
7.580000	 33.2922
7.598000	 33.2744
7.616000	 33.2149
7.634000	 33.1408
7.652000	 33.1047
7.670000	 33.1027
7.688000	 33.1064
7.706000	 33.1107
7.724000	 33.1209
7.742000	 33.1312
7.760000	 33.1342
7.778000	 33.1302
7.796000	 33.106
7.814000	 33.0337
7.832000	 32.9249
7.850000	 32.8403
7.868000	 32.8105
7.886000	 32.7999
7.904000	 32.7712
7.922000	 32.7394
7.940000	 32.7416
7.958000	 32.7847
7.976000	 32.8389
7.994000	 32.8594
8.012000	 32.8242
8.030000	 32.7666
8.048000	 32.75
8.065999	 32.7986
8.084000	 32.8722
8.102000	 32.9118
8.120000	 32.8839
8.138000	 32.7932
8.155999	 32.6876
8.173999	 32.6336
8.192000	 32.651
8.210000	 32.6961
8.228000	 32.723
8.246000	 32.7301
8.263999	 32.7331
8.282000	 32.734
8.300000	 32.7223
8.318000	 32.6949
8.336000	 32.6668
8.353999	 32.6553
8.372000	 32.6581
8.390000	 32.6529
8.408000	 32.6282
8.426000	 32.5958
8.443999	 32.5679
8.462000	 32.5465
8.480000	 32.5342
8.498000	 32.5323
8.516000	 32.5318
8.533999	 32.5273
8.552000	 32.5311
8.570000	 32.5497
8.588000	 32.5571
8.606000	 32.5225
8.624000	 32.4543
8.641999	 32.3902
8.660000	 32.354
8.678000	 32.3429
8.696000	 32.3495
8.714000	 32.372
8.731999	 32.3993
8.750000	 32.4142
8.768000	 32.4072
8.786000	 32.3778
8.804000	 32.3269
8.821999	 32.2604
8.840000	 32.1948
8.858000	 32.1542
8.876000	 32.1584
8.894000	 32.2055
8.911999	 32.266
8.930000	 32.2969
8.948000	 32.2719
8.966000	 32.2059
8.984000	 32.1499
9.001999	 32.1498
9.020000	 32.1983
9.038000	 32.2328
9.056000	 32.1889
9.074000	 32.0592
9.092000	 31.8981
9.109999	 31.7797
9.128000	 31.7485
9.146000	 31.7984
9.164000	 31.8875
9.182000	 31.9724
9.199999	 32.0287
9.218000	 32.0531
9.236000	 32.0507
9.254000	 32.0287
9.272000	 31.9952
9.289999	 31.9615
9.308000	 31.939
9.326000	 31.9316
9.344000	 31.9332
9.362000	 31.9317
9.379999	 31.9162
9.398000	 31.8822
9.416000	 31.8336
9.434000	 31.783
9.452000	 31.7468
9.469999	 31.7352
9.488000	 31.7439
9.506000	 31.7558
9.524000	 31.7541
9.542000	 31.7359
9.560000	 31.7134
9.577999	 31.6995
9.596000	 31.6932
9.614000	 31.6802
9.632000	 31.6476
9.650000	 31.5984
9.667999	 31.5497
9.686000	 31.5207
9.704000	 31.5184
9.722000	 31.5342
9.740000	 31.5528
9.757999	 31.5639
9.776000	 31.5662
9.794000	 31.5615
9.812000	 31.5467
9.830000	 31.5136
9.847999	 31.4581
9.866000	 31.388
9.884000	 31.3212
9.902000	 31.2755
9.920000	 31.2573
9.937999	 31.2604
9.956000	 31.2744
9.974000	 31.2923
9.992000	 31.3127
10.01	31.3356
10.028	31.3603
10.046	31.3842
10.064	31.4042
10.082	31.4173
10.1	31.4201
10.118	31.4095
10.136	31.3872
10.154	31.3598
10.172	31.3355
10.19	31.3171
10.208	31.2993
10.226	31.2727
10.244	31.2325
10.262	31.1842
10.28	31.1398
10.298	31.1095
10.316	31.0939
10.334	31.0835
10.352	31.0662
10.37	31.035
10.388	30.9929
10.406	30.9497
10.424	30.9165
10.442	30.8996
10.46	30.8992
10.478	30.9111
10.496	30.9286
10.514	30.9443
10.532	30.9513
10.55	30.9452
10.568	30.9264
10.586	30.9
10.604	30.8732
10.622	30.8523
10.64	30.8376
10.658	30.825
10.676	30.8085
10.694	30.7853
10.712	30.7568
10.73	30.7265
10.748	30.697
10.766	30.669
10.784	30.6425
10.802	30.6187
10.82	30.6011
10.838	30.5938
10.856	30.5991
10.874	30.6163
10.892	30.642
10.91	30.6712
10.928	30.6994
10.946	30.7213
10.964	30.7315
10.982	30.7262
11	30.7048
11.018	30.672
11.036	30.6336
11.054	30.5929
11.072	30.5475
11.09	30.4906
11.108	30.4171
11.126	30.3298
11.144	30.2418
11.162	30.1741
11.18	30.1449
11.198	30.162
11.216	30.2183
11.234	30.2958
11.252	30.3721
11.27	30.4314
11.288	30.4658
11.306	30.4764
11.324	30.4694
11.342	30.4521
11.36	30.4297
11.378	30.4046
11.396	30.3775
11.414	30.348
11.432	30.3149
11.45	30.278
11.468	30.2385
11.486	30.1987
11.504	30.1627
11.522	30.1347
11.54	30.1166
11.558	30.1074
11.576	30.1028
11.594	30.0967
11.612	30.0833
11.63	30.0594
11.648	30.0243
11.666	29.9793
11.684	29.9279
11.702	29.8736
11.72	29.8204
11.738	29.7733
11.756	29.738
11.774	29.72
11.792	29.7229
11.81	29.7458
11.828	29.7832
11.846	29.8247
11.864	29.859
11.882	29.8774
11.9	29.8756
11.918	29.8558
11.936	29.825
11.954	29.7916
11.972	29.7627
11.99	29.7412
12.008	29.7252
12.026	29.7095
12.044	29.688
12.062	29.657
12.08	29.6167
12.098	29.5712
12.116	29.5263
12.134	29.4874
12.152	29.457
12.17	29.4343
12.188	29.4155
12.206	29.3959
12.224	29.3711
12.242	29.3387
12.26	29.2986
12.278	29.2534
12.296	29.2072
12.314	29.1646
12.332	29.1287
12.35	29.1007
12.368	29.0793
12.386	29.0616
12.404	29.0446
12.422	29.027
12.44	29.0104
12.458	28.9989
12.476	28.9981
12.494	29.0133
12.512	29.0471
12.53	29.0982
12.548	29.1616
12.566	29.2294
12.584	29.2929
12.602	29.3447
12.62	29.3804
12.638	29.3985
12.656	29.4
12.674	29.3877
12.692	29.3641
12.71	29.3316
12.728	29.2913
12.746	29.245
12.764	29.1944
12.782	29.1421
12.8	29.091
12.818	29.045
12.836	29.0074
12.854	28.9808
12.872	28.9663
12.89	28.963
12.908	28.9684
12.926	28.9784
12.944	28.9878
12.962	28.9918
12.98	28.986
12.998	28.9675
13.016	28.9356
13.034	28.8917
13.052	28.8391
13.07	28.7826
13.088	28.7283
13.106	28.6823
13.124	28.6499
13.142	28.6342
13.16	28.6356
13.178	28.6517
13.196	28.6775
13.214	28.7061
13.232	28.7297
13.25	28.7412
13.268	28.7356
13.286	28.7104
13.304	28.666
13.322	28.6059
13.34	28.5358
13.358	28.4625
13.376	28.393
13.394	28.3335
13.412	28.2885
13.43	28.2603
13.448	28.2491
13.466	28.2523
13.484	28.2658
13.502	28.2839
13.52	28.3006
13.538	28.3104
13.556	28.3089
13.574	28.295
13.592	28.27
13.61	28.2377
13.628	28.2034
13.646	28.173
13.664	28.1514
13.682	28.1416
13.7	28.1444
13.718	28.1584
13.736	28.1802
13.754	28.206
13.772	28.2322
13.79	28.2563
13.808	28.277
13.826	28.2941
13.844	28.3079
13.862	28.3189
13.88	28.3269
13.898	28.3311
13.916	28.3299
13.934	28.3213
13.952	28.3037
13.97	28.276
13.988	28.2384
14.006	28.1916
14.024	28.1371
14.042	28.0766
14.06	28.012
14.078	27.9447
14.096	27.876
14.114	27.8069
14.132	27.7387
14.15	27.6726
14.168	27.6104
14.186	27.5541
14.204	27.5055
14.222	27.4664
14.24	27.4373
14.258	27.4181
14.276	27.4073
14.294	27.4023
14.312	27.4001
14.33	27.3975
14.348	27.3917
14.366	27.3802
14.384	27.3619
14.402	27.3369
14.42	27.3065
14.438	27.2722
14.456	27.2362
14.474	27.201
14.492	27.1691
14.51	27.1427
14.528	27.1232
14.546	27.1116
14.564	27.1079
14.582	27.1115
14.6	27.1213
14.618	27.1358
14.636	27.1529
14.654	27.171
14.672	27.1889
14.69	27.2056
14.708	27.2204
14.726	27.2328
14.744	27.2424
14.762	27.2489
14.78	27.2522
14.798	27.2519
14.816	27.2476
14.834	27.2384
14.852	27.2244
14.87	27.2051
14.888	27.1807
14.906	27.1511
14.924	27.1168
14.942	27.0784
14.96	27.0368
14.978	26.9931
14.996	26.9482
15.014	26.9032
15.032	26.8591
15.05	26.8166
15.068	26.7761
15.086	26.7377
15.104	26.7011
15.122	26.6658
15.14	26.6311
15.158	26.5962
15.176	26.5607
15.194	26.5242
15.212	26.4868
15.23	26.4493
15.248	26.4128
15.266	26.3791
15.284	26.3502
15.302	26.3281
15.32	26.3145
15.338	26.3104
15.356	26.3169
15.374	26.3334
15.392	26.3588
15.41	26.3913
15.428	26.4286
15.446	26.4674
15.464	26.505
15.482	26.5391
15.5	26.5674
15.518	26.5886
15.536	26.6024
15.554	26.6091
15.572	26.6096
15.59	26.6059
15.608	26.5996
15.626	26.5922
15.644	26.5851
15.662	26.5794
15.68	26.5753
15.698	26.5727
15.716	26.5708
15.734	26.5682
15.752	26.5637
15.77	26.5562
15.788	26.5438
15.806	26.5256
15.824	26.501
15.842	26.4694
15.86	26.4312
15.878	26.3873
15.896	26.3386
15.914	26.2873
15.932	26.2355
15.95	26.1853
15.968	26.1389
15.986	26.0989
16.004	26.0667
16.022	26.0439
16.04	26.0309
16.058	26.0273
16.076	26.0325
16.094	26.0451
16.112	26.0632
16.13	26.0848
16.148	26.1076
16.166	26.1291
16.184	26.1479
16.202	26.1624
16.22	26.1719
16.238	26.1763
16.256	26.1755
16.274	26.1706
16.292	26.1622
16.31	26.1513
16.328	26.1391
16.346	26.1261
16.364	26.1129
16.382	26.0996
16.4	26.086
16.418	26.072
16.436	26.0568
16.454	26.04
16.472	26.0209
16.49	25.9991
16.508	25.9742
16.526	25.946
16.544	25.9146
16.562	25.8801
16.58	25.8429
16.598	25.8035
16.616	25.7619
16.634	25.7182
16.652	25.6728
16.67	25.6255
16.688	25.5762
16.706	25.5239
16.724	25.4682
16.742	25.4081
16.76	25.3428
16.778	25.272
16.796	25.1954
16.814	25.1134
16.832	25.0266
16.85	24.9367
16.868	24.8458
16.886	24.7554
16.904	24.6697
16.922	24.5909
16.94	24.522
16.958	24.4663
16.976	24.4252
16.994	24.4007
17.012	24.3927
17.03	24.4013
17.048	24.4245
17.066	24.4603
17.084	24.5059
17.102	24.5564
17.12	24.6095
17.138	24.6595
17.156	24.7038
17.174	24.7395
17.192	24.7637
17.21	24.7758
17.228	24.7749
17.246	24.7624
17.264	24.739
17.282	24.7087
17.3	24.6733
17.318	24.637
17.336	24.6034
17.354	24.5747
17.372	24.5553
17.39	24.5459
17.408	24.5488
17.426	24.564
17.444	24.5919
17.462	24.6307
17.48	24.6796
17.498	24.7356
17.516	24.7961
17.534	24.859
17.552	24.9203
17.57	24.9788
17.588	25.0308
17.606	25.0753
17.624	25.1102
17.642	25.1348
17.66	25.1483
17.678	25.1509
17.696	25.1427
17.714	25.1245
17.732	25.0975
17.75	25.0625
17.768	25.0213
17.786	24.9745
17.804	24.9245
17.822	24.8717
17.84	24.8178
17.858	24.7632
17.876	24.7089
17.894	24.6549
17.912	24.6014
17.93	24.5486
17.948	24.4963
17.966	24.4439
17.984	24.3911
18.002	24.3372
18.02	24.2819
18.038	24.2248
18.056	24.1656
18.074	24.1044
18.092	24.0418
18.11	23.9782
18.128	23.9155
18.146	23.8542
18.164	23.7965
18.182	23.7436
18.2	23.6972
18.218	23.6587
18.236	23.6294
18.254	23.6101
18.272	23.6014
18.29	23.603
18.308	23.6149
18.326	23.6354
18.344	23.6638
18.362	23.6975
18.38	23.7356
18.398	23.775
18.416	23.8143
18.434	23.8512
18.452	23.8839
18.47	23.9109
18.488	23.9309
18.506	23.943
18.524	23.9467
18.542	23.9417
18.56	23.9282
18.578	23.906
18.596	23.8765
18.614	23.8397
18.632	23.7976
18.65	23.7504
18.668	23.7004
18.686	23.6481
18.704	23.5958
18.722	23.5439
18.74	23.4948
18.758	23.449
18.776	23.4087
18.794	23.3741
18.812	23.3471
18.83	23.3278
18.848	23.3175
18.866	23.3159
18.884	23.3232
18.902	23.3387
18.92	23.3618
18.938	23.3912
18.956	23.4253
18.974	23.4627
18.992	23.5012
19.01	23.5392
19.028	23.5743
19.046	23.6052
19.064	23.6296
19.082	23.647
19.1	23.6554
19.118	23.6553
19.136	23.6458
19.154	23.6276
19.172	23.6014
19.19	23.568
19.208	23.5292
19.226	23.4859
19.244	23.4409
19.262	23.3946
19.28	23.3504
19.298	23.3082
19.316	23.271
19.334	23.2386
19.352	23.2128
19.37	23.1934
19.388	23.1811
19.406	23.1758
19.424	23.1764
19.442	23.1831
19.46	23.1939
19.478	23.2088
19.496	23.2253
19.514	23.2431
19.532	23.26
19.55	23.2751
19.568	23.2871
19.586	23.2946
19.604	23.2973
19.622	23.2938
19.64	23.2844
19.658	23.2687
19.676	23.2469
19.694	23.2195
19.712	23.1864
19.73	23.1493
19.748	23.1083
19.766	23.0654
19.784	23.0209
19.802	22.9768
19.82	22.9342
19.838	22.8939
19.856	22.8581
19.874	22.8267
19.892	22.8016
19.91	22.7825
19.928	22.7705
19.946	22.7654
19.964	22.7671
19.982	22.7756
20	22.7899
20.018	22.8098
20.036	22.8341
20.054	22.8615
20.072	22.8917
20.09	22.9223
20.108	22.9536
20.126	22.9831
20.144	23.0107
20.162	23.035
20.18	23.0552
20.198	23.0713
20.216	23.0824
20.234	23.0888
20.252	23.0907
20.27	23.0881
20.288	23.0822
20.306	23.0728
20.324	23.0613
20.342	23.0484
20.36	23.0347
20.378	23.0218
20.396	23.0096
20.414	22.9994
20.432	22.9914
20.45	22.9861
20.468	22.9841
20.486	22.985
20.504	22.9888
20.522	22.9955
20.54	23.0038
20.558	23.0143
20.576	23.0252
20.594	23.036
20.612	23.0461
20.63	23.0539
20.648	23.0596
20.666	23.0614
20.684	23.0593
20.702	23.0524
20.72	23.04
20.738	23.0223
20.756	22.9989
20.774	22.9698
20.792	22.9357
20.81	22.8961
20.828	22.8523
20.846	22.8054
20.864	22.7552
20.882	22.7046
20.9	22.653
20.918	22.6027
20.936	22.5554
20.954	22.5109
20.972	22.4724
20.99	22.4393
21.008	22.4134
21.026	22.3956
21.044	22.3857
21.062	22.3846
21.08	22.3924
21.098	22.408
21.116	22.4319
21.134	22.4628
21.152	22.4989
21.17	22.5408
21.188	22.5852
21.206	22.632
21.224	22.6797
21.242	22.7254
21.26	22.77
21.278	22.8103
21.296	22.8458
21.314	22.8761
21.332	22.899
21.35	22.9152
21.368	22.924
21.386	22.9249
21.404	22.9187
21.422	22.9061
21.44	22.8866
21.458	22.8621
21.476	22.8331
21.494	22.8
21.512	22.7653
21.53	22.7282
21.548	22.6911
21.566	22.6555
21.584	22.6208
21.602	22.5896
21.62	22.5617
21.638	22.5376
21.656	22.5187
21.674	22.5045
21.692	22.495
21.71	22.4905
21.728	22.4906
21.746	22.4946
21.764	22.5029
21.782	22.5141
21.8	22.5273
21.818	22.5429
21.836	22.5585
21.854	22.5743
21.872	22.5896
21.89	22.6024
21.908	22.6135
21.926	22.6217
21.944	22.6264
21.962	22.6279
21.98	22.6258
21.998	22.6198
22.016	22.6102
22.034	22.5974
22.052	22.5809
22.07	22.5618
22.088	22.5406
22.106	22.517
22.124	22.4926
22.142	22.4675
22.16	22.4419
22.178	22.4172
22.196	22.3932
22.214	22.3704
22.232	22.3497
22.25	22.3308
22.268	22.3137
22.286	22.2987
22.304	22.2856
22.322	22.2734
22.34	22.2623
22.358	22.2518
22.376	22.2403
22.394	22.2284
22.412	22.2151
22.43	22.1991
22.448	22.181
22.466	22.1596
22.484	22.1337
22.502	22.1039
22.52	22.0691
22.538	22.0285
22.556	21.9826
22.574	21.9315
22.592	21.8747
22.61	21.8128
22.628	21.7468
22.646	21.6763
22.664	21.6021
22.682	21.5259
22.7	21.4468
22.718	21.3661
22.736	21.2854
22.754	21.204
22.772	21.123
22.79	21.0438
22.808	20.9656
22.826	20.8894
22.844	20.8158
22.862	20.7443
22.88	20.6758
22.898	20.6106
22.916	20.5486
22.934	20.4895
22.952	20.4337
22.97	20.3809
22.988	20.3306
23.006	20.2831
23.024	20.2381
23.042	20.1944
23.06	20.152
23.078	20.1108
23.096	20.0693
23.114	20.0278
23.132	19.9859
23.15	19.942
23.168	19.8964
23.186	19.8487
23.204	19.7972
23.222	19.7421
23.24	19.6832
23.258	19.6192
23.276	19.5502
23.294	19.4764
23.312	19.3972
23.33	19.3125
23.348	19.2227
23.366	19.1284
23.384	19.0294
23.402	18.926
23.42	18.8193
23.438	18.7087
23.456	18.5948
23.474	18.48
23.492	18.364
23.51	18.2471
23.528	18.1322
23.546	18.0195
23.564	17.9086
23.582	17.8033
23.6	17.7048
23.618	17.6118
23.636	17.528
23.654	17.4551
23.672	17.3914
23.69	17.3401
23.708	17.3034
23.726	17.2797
23.744	17.2707
23.762	17.2777
23.78	17.2997
23.798	17.3378
23.816	17.3939
23.834	17.4669
23.852	17.5575
23.87	17.667
23.888	17.7955
23.906	17.9423
23.924	18.1066
23.942	18.2893
23.96	18.4896
23.978	18.7041
23.996	18.9324
24.014	19.1754
24.032	19.4289
24.05	19.6909
24.068	19.9638
24.086	20.2427
24.104	20.5231
24.122	20.8091
24.14	21.0955
24.158	21.375
24.176	21.6512
24.194	21.9213
24.212	22.177
24.23	22.4181
24.248	22.6463
24.266	22.8529
24.284	23.0333
24.302	23.1922
24.32	23.3239
24.338	23.4222
24.356	23.4898
24.374	23.5264
24.392	23.5303
24.41	23.5003
24.428	23.4383
24.446	23.3471
24.464	23.2265
24.482	23.0753
24.5	22.9
24.518	22.7059
24.536	22.4878
24.554	22.2518
24.572	22.0067
24.59	21.7488
24.608	21.4798
24.626	21.2104
24.644	20.9448
24.662	20.6779
24.68	20.4165
24.698	20.1674
24.716	19.9271
24.734	19.6971
24.752	19.4813
24.77	19.2811
24.788	19.0947
24.806	18.921
24.824	18.7596
24.842	18.6122
24.86	18.4751
24.878	18.3442
24.896	18.2222
24.914	18.1074
24.932	17.9934
24.95	17.8775
24.968	17.764
24.986	17.6461
25.004	17.5164
25.022	17.3772
25.04	17.2287
25.058	17.0676
25.076	16.8915
25.094	16.7018
25.112	16.5003
25.13	16.2884
25.148	16.0613
25.166	15.8243
25.184	15.5867
25.202	15.3506
25.22	15.1095
25.238	14.8763
25.256	14.6644
25.274	14.4642
25.292	14.2807
25.31	14.1316
25.328	14.026
25.346	13.9512
25.364	13.9208
25.382	13.9504
25.4	14.0359
25.418	14.1753
25.436	14.3809
25.454	14.6621
25.472	15.0122
25.49	15.4327
25.508	15.9279
25.526	16.5002
25.544	17.1469
25.562	17.8654
25.58	18.6537
25.598	19.5177
25.616	20.451
25.634	21.4418
25.652	22.4848
25.67	23.591
25.688	24.7451
25.706	25.9298
25.724	27.1495
25.742	28.409
25.76	29.684
25.778	30.9524
25.796	32.2356
25.814	33.5207
25.832	34.7759
25.85	35.9829
25.868	37.1695
25.886	38.3091
25.904	39.3672
25.922	40.3402
25.94	41.2478
25.958	42.058
25.976	42.7389
25.994	43.3023
26.012	43.752
26.03	44.065
26.048	44.221
26.066	44.2302
26.084	44.095
26.102	43.8111
26.12	43.3734
26.138	42.7798
26.156	42.0425
26.174	41.1751
26.192	40.1745
26.21	39.0291
26.228	37.7715
26.246	36.4352
26.264	35.0115
26.282	33.4894
26.3	31.9094
26.318	30.3108
26.336	28.6714
26.354	26.9919
26.372	25.3125
26.39	23.6696
26.408	22.0382
26.426	20.4236
26.444	18.8542
26.462	17.3539
26.48	15.9061
26.498	14.5128
26.516	13.1846
26.534	11.9306
26.552	10.7473
26.57	9.629918
26.588	8.574380
26.606	7.580245
26.624	6.655243
26.642	5.787258
26.66	4.961976
26.678	4.172694
26.696	3.432612
26.714	2.729354
26.732	2.048050
26.75	1.380112
26.768	0.735456
26.786	0.110829
26.804	-0.498317
26.822	-1.095459
26.84	-1.678746
26.858	-2.245860
26.876	-2.794610
26.894	-3.325406
26.912	-3.841869
26.93	-4.337894
26.948	-4.806791
26.966	-5.256773
26.984	-5.710529
27.002	-6.121495
27.02	-6.438571
27.028	-6.525897