File: Bakgrunnsmateriale/MATLAB/FTIR/ftir_data/LPE453/Mapping_121/LPE453_t59_cm-1.asc
PE IR       SPECTRUM    SPECTRUM    ASCII       PEDS        1.60
  -1
LPE9D9~1.ASC
17/05/16
19:11:27.00
17/05/16
19:11:27.00
tln
$LPE453_t0059$<tbV0>[5.2,0.0,8.0,0.0,27,1,0]
370
64

2002,4.07
MIRTGS : RIGHTBACK : INTERNAL 2
MIR : ON : INTERNAL 2
OPTKBR

0.200000
8
8.000000
FILLER
RATIO
SPECTRUM
UNLOCKED 256

DOUBLE
64
COMBINED
1
0
0

1.000000
RATIO

1
0
TRUE
51149
0
LEFT NOT FITTED RIGHT NOT FITTED 0
NONE
NONE
15600
12
4.427000
51148
TRUE
1 0 8 72 0 0 0 0

15798

#HDR
-1
-1
#GR
CM-1
%T
2.38419e-05
0.0
5000
-1.000000
4631
8
25.8045
-2.477788
#DATA
5000	0.574278
4996	0.401139
4992	0.110697
4988	-0.135087
4984	-0.075125
4980	0.212597
4976	0.349998
4972	0.396609
4968	0.599455
4964	0.761103
4960	0.554108
4956	0.207185
4952	0.087809
4948	0.082731
4944	0.022912
4940	-0.025463
4936	-0.021505
4932	0.069355
4928	0.202178
4924	0.310802
4920	0.405883
4916	0.398993
4912	0.335073
4908	0.230073
4904	0.021910
4900	-0.129961
4896	-0.096035
4892	0.075268
4888	0.258970
4884	0.306749
4880	0.316190
4876	0.480079
4872	0.565314
4868	0.352907
4864	0.025439
4860	0.149846
4856	0.512909
4852	0.635290
4848	0.540351
4844	0.419712
4840	0.397658
4836	0.444459
4832	0.350356
4828	0.021457
4824	-0.045824
4820	0.241351
4816	0.399184
4812	0.369977
4808	0.132346
4804	-0.121974
4800	-0.093722
4796	0.035285
4792	0.244545
4788	0.528597
4784	0.523018
4780	0.336217
4776	0.354003
4772	0.419402
4768	0.441551
4764	0.490856
4760	0.319528
4756	0.095582
4752	0.680232
4748	1.328063
4744	0.929450
4740	0.826668
4736	1.395583
4732	1.158857
4728	0.432085
4724	0.300097
4720	0.440073
4716	0.670957
4712	0.718498
4708	0.288128
4704	-0.312304
4700	-0.683760
4696	-0.423192
4692	0.485825
4688	1.438713
4684	1.908397
4680	2.116322
4676	1.679229
4672	0.907731
4668	0.663399
4664	0.206136
4660	-0.126385
4656	0.304722
4652	0.361347
4648	-0.075459
4644	-0.169086
4640	0.089526
4636	0.281882
4632	0.433659
4628	0.835704
4624	1.000690
4620	0.743794
4616	0.655579
4612	0.711417
4608	0.732970
4604	0.712490
4600	0.268077
4596	-0.360631
4592	-0.435233
4588	-0.475907
4584	-0.602555
4580	-0.549292
4576	-0.716233
4572	-1.008605
4568	-0.958037
4564	-0.699424
4560	-0.714969
4556	-0.908279
4552	-1.128506
4548	-1.094865
4544	-0.705504
4540	-0.517654
4536	-0.637054
4532	-0.615882
4528	-0.511384
4524	-0.478649
4520	-0.883722
4516	-1.157212
4512	-1.213908
4508	-1.742887
4504	-2.477788
4500	-0.759625
4496	5.476403
4492	13.8449
4488	20.1257
4484	21.7037
4480	19.7063
4476	12.7478
4472	3.647661
4468	0.006937
4464	0.160121
4460	0.300288
4456	-0.228071
4452	-0.843191
4448	-1.130175
4444	-1.305341
4440	-1.025056
4436	-0.758647
4432	-0.712108
4428	-0.512218
4424	-0.325298
4420	-0.330495
4416	-0.355911
4412	-0.131249
4408	0.279808
4404	0.547409
4400	0.629067
4396	0.665903
4392	0.697946
4388	0.630784
4384	0.482130
4380	0.379037
4376	0.438809
4372	0.657296
4368	0.746321
4364	0.639104
4360	0.546503
4356	0.702738
4352	0.914907
4348	0.842547
4344	0.660681
4340	0.639772
4336	0.724840
4332	0.650525
4328	0.321912
4324	0.076889
4320	0.211787
4316	0.368762
4312	0.277781
4308	0.301337
4304	0.333714
4300	0.095248
4296	0.059413
4292	0.399947
4288	0.558662
4284	0.321435
4280	0.167322
4276	0.274920
4272	0.346803
4268	0.355792
4264	0.518751
4260	0.696349
4256	0.577402
4252	0.306582
4248	-0.001621
4244	-0.340747
4240	-0.538825
4236	-0.303912
4232	0.176644
4228	0.323939
4224	0.233054
4220	0.256204
4216	0.198507
4212	0.051403
4208	0.062155
4204	0.138998
4200	0.179982
4196	0.266242
4192	0.620198
4188	1.040720
4184	0.915002
4180	0.407052
4176	0.185132
4172	0.014901
4168	-0.161552
4164	0.145030
4160	0.402688
4156	0.305604
4152	0.278663
4148	0.279998
4144	0.221490
4140	0.188899
4136	0.197410
4132	0.237631
4128	0.270700
4124	0.300717
4120	0.324892
4116	0.262713
4112	0.252318
4108	0.356364
4104	0.340795
4100	0.285911
4096	0.322318
4092	0.340247
4088	0.324702
4084	0.207161
4080	0.073027
4076	0.096511
4072	0.150084
4068	0.125765
4064	0.093364
4060	0.132679
4056	0.209879
4052	0.197958
4048	0.109362
4044	0.060582
4040	0.043940
4036	0.104928
4032	0.165319
4028	0.100326
4024	0.043129
4020	0.042128
4016	0.044393
4012	0.002098
4008	-0.076365
4004	-0.120782
4000	-0.058984
3996	0.068569
3992	0.091338
3988	0.014066
3984	-0.074839
3980	-0.196337
3976	-0.220870
3972	-0.035119
3968	0.102472
3964	0.052928
3960	0.023031
3956	0.042891
3952	0.031185
3948	0.111436
3944	0.231909
3940	0.161576
3936	-0.017261
3932	-0.124382
3928	-0.099468
3924	0.025653
3920	0.129008
3916	0.134372
3912	0.071144
3908	-0.006675
3904	-0.119495
3900	-0.163793
3896	0.022912
3892	0.204420
3888	0.121307
3884	0.006747
3880	0.015354
3876	0.025320
3872	-0.009799
3868	-0.021719
3864	0.032258
3860	0.106024
3856	0.109601
3852	0.014209
3848	0.036025
3844	0.231242
3840	0.321698
3836	0.242829
3832	0.129985
3828	0.055885
3824	0.064158
3820	0.113439
3816	0.125193
3812	0.135469
3808	0.191807
3804	0.221347
3800	0.203800
3796	0.171756
3792	0.069618
3788	-0.071239
3784	-0.085902
3780	0.025629
3776	0.115919
3772	0.168251
3768	0.214743
3764	0.211381
3760	0.169801
3756	0.120711
3752	0.039076
3748	-0.040578
3744	-0.090646
3740	-0.110530
3736	-0.101900
3732	-0.039505
3728	0.097393
3724	0.215840
3720	0.210285
3716	0.148558
3712	0.118875
3708	0.085520
3704	0.042414
3700	-0.021219
3696	-0.105452
3692	-0.115203
3688	-0.018882
3684	0.048923
3680	0.033545
3676	0.037693
3672	0.016474
3668	-0.096845
3664	-0.081324
3660	0.081849
3656	0.138449
3652	0.122308
3648	0.126814
3644	0.072383
3640	-0.022149
3636	-0.026488
3632	0.069928
3628	0.125527
3624	0.108337
3620	0.119996
3616	0.163197
3612	0.155377
3608	0.053262
3604	-0.039911
3600	-0.030374
3596	0.015640
3592	0.042676
3588	0.048780
3584	0.089526
3580	0.132369
3576	0.103902
3572	0.060749
3568	0.017261
3564	-0.031375
3560	0.014162
3556	0.065541
3552	0.062990
3548	0.035786
3544	-0.050377
3540	-0.081825
3536	-0.046992
3532	-0.013327
3528	0.036525
3524	0.048494
3520	-0.000095
3516	-0.026106
3512	0.015544
3508	0.037670
3504	-0.002527
3500	-0.027036
3496	0.042510
3492	0.132584
3488	0.119090
3484	0.096869
3480	0.164175
3476	0.208067
3472	0.168943
3468	0.142526
3464	0.110840
3460	0.054359
3456	0.035715
3452	0.048708
3448	0.067877
3444	0.091123
3440	0.082588
3436	0.021338
3432	-0.058650
3428	-0.101256
3424	-0.058388
3420	0.026679
3416	0.107002
3412	0.110697
3408	0.050902
3404	0.028276
3400	0.020241
3396	0.015807
3392	0.010824
3388	-0.021243
3384	-0.027751
3380	0.051617
3376	0.145387
3372	0.154423
3368	0.109577
3364	0.118494
3360	0.149059
3356	0.106048
3352	0.043869
3348	-0.009250
3344	-0.030446
3340	0.009465
3336	0.028109
3332	-0.001311
3328	-0.030589
3324	-0.017070
3320	0.037145
3316	0.064063
3312	0.027513
3308	-0.010919
3304	-0.009441
3300	0.031900
3296	0.071334
3292	0.063610
3288	0.032019
3284	-0.048422
3280	-0.129365
3276	-0.041365
3272	0.157451
3268	0.239610
3264	0.145912
3260	0.097537
3256	0.154399
3252	0.131726
3248	0.018930
3244	-0.030708
3240	0.037646
3236	0.112462
3232	0.098419
3228	0.050401
3224	0.040721
3220	0.078392
3216	0.157618
3212	0.213241
3208	0.158262
3204	0.034475
3200	-0.044608
3196	-0.037717
3192	0.002288
3188	-0.020313
3184	-0.080657
3180	-0.087189
3176	-0.018954
3172	0.049996
3168	0.045561
3164	0.050663
3160	0.086617
3156	0.074934
3152	0.078153
3148	0.119304
3144	0.129532
3140	0.047731
3136	-0.026726
3132	0.032305
3128	0.159907
3124	0.169205
3120	0.049853
3116	0.058293
3112	0.114583
3108	0.124502
3104	0.190234
3100	0.148320
3096	0.005888
3092	0.008368
3088	0.070834
3084	0.025701
3080	-0.050258
3076	-0.067138
3072	-0.038957
3068	-0.045013
3064	-0.039815
3060	0.033140
3056	0.079679
3052	0.087404
3048	0.141954
3044	0.211262
3040	0.219297
3036	0.190949
3032	0.135636
3028	0.091481
3024	0.079464
3020	0.056624
3016	0.043439
3012	0.082230
3008	0.124120
3004	0.055265
3000	-0.033831
2996	-0.026249
2992	0.014662
2988	0.081825
2984	0.157523
2980	0.138640
2976	0.001621
2972	-0.113511
2968	-0.098109
2964	-0.021696
2960	0.046014
2956	0.062322
2952	-0.007057
2948	-0.078177
2944	-0.056982
2940	-0.011730
2936	-0.011420
2932	0.011062
2928	0.070381
2924	0.101852
2920	0.059556
2916	0.028300
2912	0.070261
2908	0.064706
2904	0.056552
2900	0.123715
2896	0.135564
2892	0.092840
2888	0.089383
2884	0.070548
2880	0.021290
2876	0.016331
2872	-0.034618
2868	-0.138282
2864	-0.093054
2860	0.087380
2856	0.210332
2852	0.199437
2848	0.153827
2844	0.160455
2840	0.155830
2836	0.078701
2832	-0.014090
2828	-0.036096
2824	0.012850
2820	0.045084
2816	0.065135
2812	0.078630
2808	0.070095
2804	0.070095
2800	0.005912
2796	-0.052595
2792	-0.040626
2788	-0.012850
2784	-0.001788
2780	-0.039815
2776	-0.046038
2772	-0.026702
2768	-0.026774
2764	-0.006246
2760	0.044250
2756	0.072932
2752	0.102496
2748	0.100517
2744	0.012731
2740	-0.033998
2736	-0.010943
2732	0.002431
2728	0.022625
2724	0.056600
2720	0.058555
2716	0.071310
2712	0.092124
2708	0.071883
2704	0.053882
2700	0.077152
2696	0.110936
2692	0.116157
2688	0.071525
2684	0.012993
2680	-0.013208
2676	-0.017023
2672	-0.011658
2668	-0.006341
2664	0.008440
2660	0.057840
2656	0.114250
2652	0.127887
2648	0.115823
2644	0.104117
2640	0.101685
2636	0.087928
2632	0.042700
2628	0.012969
2624	0.039124
2620	0.057172
2616	0.009250
2612	-0.006580
2608	-0.003337
2604	-0.049376
2600	-0.045084
2596	-0.012445
2592	-0.025796
2588	-0.034737
2584	-0.011491
2580	0.031876
2576	0.095200
2572	0.141310
2568	0.109100
2564	0.010323
2560	-0.078105
2556	-0.098371
2552	-0.043416
2548	0.050878
2544	0.094985
2540	0.057244
2536	-0.020051
2532	-0.035452
2528	0.058150
2524	0.135445
2520	0.137186
2516	0.140428
2512	0.102162
2508	0.029015
2504	0.014901
2500	0.033497
2496	0.066542
2492	0.052952
2488	-0.006127
2484	-0.020599
2480	-0.002384
2476	-0.020599
2472	-0.099205
2468	-0.161695
2464	-0.122857
2460	-0.026893
2456	-0.010418
2452	-0.013613
2448	0.005340
2444	0.005626
2440	0.012850
2436	0.024104
2432	0.051617
2428	0.089597
2424	0.052642
2420	-0.067496
2416	-0.037670
2412	0.120258
2408	0.153756
2404	0.122356
2400	0.042772
2396	-0.070571
2392	-0.086164
2388	-0.075125
2384	-0.115704
2380	-0.126934
2376	-0.031280
2372	0.078821
2368	0.083899
2364	0.021457
2360	-0.014734
2356	-0.019502
2352	-0.004029
2348	0.029873
2344	0.018882
2340	-0.037169
2336	-0.062942
2332	-0.032162
2328	-0.017333
2324	-0.044059
2320	-0.065851
2316	-0.070858
2312	-0.069212
2308	-0.047683
2304	-0.018119
2300	-0.008869
2296	0.023913
2292	0.076913
2288	0.121116
2284	0.144863
2280	0.125789
2276	0.083446
2272	0.060439
2268	0.073051
2264	0.128626
2260	0.220680
2256	0.292682
2252	0.318932
2248	0.325059
2244	0.340819
2240	0.392127
2236	0.483202
2232	0.555515
2228	0.582480
2224	0.591468
2220	0.607967
2216	0.686311
2212	0.820970
2208	0.952982
2204	1.073575
2200	1.193141
2196	1.332998
2192	1.487636
2188	1.623511
2184	1.751732
2180	1.900219
2176	2.089285
2172	2.267050
2168	2.423882
2164	2.621722
2160	2.808833
2156	3.051018
2152	3.418779
2148	3.679990
2144	3.827261
2140	4.101824
2136	4.437518
2132	4.741477
2128	5.049753
2124	5.356287
2120	5.693340
2116	6.046032
2112	6.379079
2108	6.721162
2104	7.092857
2100	7.480740
2096	7.811975
2092	8.097910
2088	8.431935
2084	8.845186
2080	9.357047
2076	9.852838
2072	10.235
2068	10.5633
2064	10.8326
2060	11.1077
2056	11.4973
2052	11.9283
2048	12.3089
2044	12.6798
2040	13.0697
2036	13.4319
2032	13.7607
2028	14.0652
2024	14.3972
2020	14.8434
2016	15.3127
2012	15.688
2008	16.016
2004	16.2998
2000	16.5269
1996	16.8199
1992	17.2022
1988	17.5229
1984	17.7612
1980	18.0199
1976	18.294
1972	18.5877
1968	18.9322
1964	19.2064
1960	19.3824
1956	19.6038
1952	19.8711
1948	20.1166
1944	20.3269
1940	20.5011
1936	20.6812
1932	20.8753
1928	21.0808
1924	21.3202
1920	21.5627
1916	21.7457
1912	21.8743
1908	22.0339
1904	22.1974
1900	22.3264
1896	22.4835
1892	22.6781
1888	22.8463
1884	22.9548
1880	23.0639
1876	23.1691
1872	23.2571
1868	23.411
1864	23.5812
1860	23.6752
1856	23.7455
1852	23.8153
1848	23.8734
1844	23.936
1840	24.0297
1836	24.1643
1832	24.2967
1828	24.4169
1824	24.5078
1820	24.5548
1816	24.6352
1812	24.755
1808	24.8128
1804	24.7967
1800	24.7954
1796	24.8453
1792	24.9057
1788	24.9706
1784	25.0488
1780	25.0806
1776	25.0824
1772	25.1365
1768	25.2236
1764	25.3197
1760	25.3963
1756	25.382
1752	25.3373
1748	25.3631
1744	25.4003
1740	25.3944
1736	25.4384
1732	25.4972
1728	25.499
1724	25.5397
1720	25.5806
1716	25.5762
1712	25.6496
1708	25.7636
1704	25.7542
1700	25.6736
1696	25.6491
1692	25.6855
1688	25.7424
1684	25.7697
1680	25.7336
1676	25.6778
1672	25.6494
1668	25.6325
1664	25.6587
1660	25.718
1656	25.704
1652	25.6475
1648	25.6372
1644	25.6743
1640	25.7472
1636	25.7626
1632	25.7216
1628	25.7547
1624	25.8025
1620	25.7948
1616	25.7763
1612	25.7296
1608	25.6592
1604	25.6546
1600	25.702
1596	25.741
1592	25.7403
1588	25.6626
1584	25.5988
1580	25.5913
1576	25.5716
1572	25.579
1568	25.6346
1564	25.6834
1560	25.7031
1556	25.7187
1552	25.7172
1548	25.6585
1544	25.6157
1540	25.6121
1536	25.6033
1532	25.6228
1528	25.6462
1524	25.6227
1520	25.5785
1516	25.5822
1512	25.6176
1508	25.6064
1504	25.5898
1500	25.6179
1496	25.6386
1492	25.6103
1488	25.5637
1484	25.5462
1480	25.5549
1476	25.5575
1472	25.5678
1468	25.5391
1464	25.4345
1460	25.3192
1456	25.2057
1452	25.134
1448	25.1671
1444	25.2115
1440	25.2539
1436	25.3766
1432	25.4667
1428	25.4559
1424	25.3972
1420	25.3094
1416	25.2354
1412	25.1871
1408	25.1686
1404	25.1541
1400	25.1128
1396	25.1447
1392	25.2235
1388	25.2436
1384	25.2027
1380	25.1132
1376	25.0358
1372	25.0131
1368	25.0211
1364	25.0112
1360	25.0077
1356	25.0788
1352	25.1453
1348	25.129
1344	25.0646
1340	25.0116
1336	24.9733
1332	24.9138
1328	24.9082
1324	24.9745
1320	24.9869
1316	24.9288
1312	24.8846
1308	24.8765
1304	24.8454
1300	24.7877
1296	24.7581
1292	24.7629
1288	24.7564
1284	24.6891
1280	24.6166
1276	24.6083
1272	24.6113
1268	24.6035
1264	24.6064
1260	24.5654
1256	24.5357
1252	24.5535
1248	24.5437
1244	24.5425
1240	24.5645
1236	24.545
1232	24.4711
1228	24.3862
1224	24.3626
1220	24.4174
1216	24.4437
1212	24.4142
1208	24.4237
1204	24.3985
1200	24.2654
1196	24.2184
1192	24.3213
1188	24.3455
1184	24.2653
1180	24.2489
1176	24.2277
1172	24.1452
1168	24.1146
1164	24.1134
1160	24.09
1156	24.0808
1152	24.0666
1148	24.0652
1144	24.0701
1140	23.975
1136	23.808
1132	23.7142
1128	23.729
1124	23.8086
1120	23.85
1116	23.7612
1112	23.6218
1108	23.5509
1104	23.5806
1100	23.6676
1096	23.6727
1092	23.5331
1088	23.4073
1084	23.3882
1080	23.3148
1076	23.1562
1072	23.1179
1068	23.1955
1064	23.2343
1060	23.2444
1056	23.2231
1052	23.1245
1048	23.0121
1044	22.9926
1040	23.0604
1036	23.0613
1032	22.9844
1028	22.9395
1024	22.8817
1020	22.8646
1016	22.9522
1012	22.9652
1008	22.9366
1004	22.9034
1000	22.7999
996	 22.7415
992	 22.6431
988	 22.5375
984	 22.5684
980	 22.5461
976	 22.4511
972	 22.3583
968	 22.2323
964	 22.1534
960	 22.1278
956	 22.0858
952	 21.9865
948	 21.8827
944	 21.8768
940	 21.9259
936	 21.9153
932	 21.7973
928	 21.6783
924	 21.6475
920	 21.6077
916	 21.5621
912	 21.5403
908	 21.4286
904	 21.2388
900	 21.1884
896	 21.3121
892	 21.3451
888	 21.2191
884	 21.0966
880	 21.0537
876	 21.0319
872	 20.9845
868	 20.9181
864	 20.843
860	 20.804
856	 20.7943
852	 20.7325
848	 20.6695
844	 20.6642
840	 20.5128
836	 20.261
832	 20.1622
828	 20.1591
824	 20.0639
820	 19.9134
816	 19.8412
812	 19.7775
808	 19.6947
804	 19.6555
800	 19.6656
796	 19.6532
792	 19.4945
788	 19.212
784	 19.0435
780	 18.9983
776	 18.9749
772	 19.0799
768	 19.1886
764	 19.0911
760	 18.8735
756	 18.8075
752	 18.7602
748	 18.4113
744	 18.2026
740	 18.3518
736	 18.3604
732	 18.2024
728	 18.0188
724	 17.8905
720	 18.0106
716	 18.2166
712	 18.1909
708	 17.9906
704	 17.8786
700	 17.7373
696	 17.5385
692	 17.464
688	 17.4084
684	 17.3455
680	 17.2946
676	 17.1708
672	 17.1099
668	 17.0034
664	 16.675
660	 16.4673
656	 16.4549
652	 16.5403
648	 16.5617
644	 16.307
640	 16.0407
636	 15.9518
632	 15.9667
628	 15.9714
624	 15.8636
620	 15.7045
616	 15.6025
612	 15.6107
608	 15.5855
604	 15.4131
600	 15.4159
596	 15.642
592	 15.7482
588	 15.6207
584	 15.1986
580	 14.7639
576	 14.6796
572	 14.8093
568	 14.9157
564	 14.7699
560	 14.3841
556	 14.0227
552	 14.0506
548	 14.3232
544	 14.0968
540	 13.7439
536	 13.9424
532	 14.1575
528	 14.0832
524	 13.8144
520	 13.3761
516	 13.1334
512	 13.0606
508	 12.8542
504	 12.6793
500	 12.5759
496	 12.372
492	 12.233
488	 12.244
484	 12.0451
480	 11.6174
476	 11.5874
472	 11.9685
468	 11.9776
464	 11.4512
460	 10.4316
456	 9.944677
452	 11.291
448	 12.6962
444	 12.5732
440	 11.5694
436	 10.6015
432	 10.1903
428	 10.446
424	 11.835
420	 12.2366
416	 10.4588
412	 10.5789
408	 12.6
404	 14.0671
400	 11.9848
396	 5.220198
392	 4.808783
388	 9.824228
384	 12.3403
380	 20.8333
376	 25.1475
372	 12.1645
370	 2.681374