File: Bakgrunnsmateriale/MATLAB/FTIR/ftir_data/LPE453/Mapping_121/LPE453_t29.asc
PE IR       SPECTRUM    SPECTRUM    ASCII       PEDS        1.60
  -1
LPEB9D~1.ASC
17/05/16
16:44:56.00
17/05/16
16:45:22.00
tln
$LPE453_t0029$<tbV0>[-2.6,-7.8,8.0,0.0,27,1,0]
27.028
64

2002,4.07
MIRTGS : RIGHTBACK : INTERNAL 2
MIR : ON : INTERNAL 2
OPTKBR

0.200000
8
8.000000
FILLER
RATIO
SPECTRUM
UNLOCKED 256

DOUBLE
64
COMBINED
1
0
0

0.002000
RATIO

1
0
TRUE
51149
0
LEFT NOT FITTED RIGHT NOT FITTED 0
NONE
NONE
15600
12
4.427000
51148
TRUE
1 0 8 72 0 0 0 0

15798

#HDR
-1
-1
#GR
µM
%T
2.38419e-05
0.0
2.000000
0.002000
12515
8
35.6912
-5.601680
#DATA
2.000000	 0.752615
2.018000	 0.480744
2.036000	 0.046779
2.054000	 -0.015406
2.072000	 0.074565
2.090000	 -0.014735
2.108000	 0.153514
2.126000	 -0.212727
2.144000	 0.306433
2.162000	 0.901596
2.180000	 -0.530537
2.198000	 -0.390493
2.216000	 21.6599
2.234000	 -0.008482
2.252000	 -0.681925
2.270000	 0.579411
2.288000	 0.209200
2.306000	 0.096836
2.324000	 0.112748
2.342000	 0.163531
2.360000	 0.067285
2.378000	 0.016755
2.396000	 -0.010991
2.414000	 -0.093087
2.432000	 -0.024523
2.450000	 -0.194658
2.468000	 0.210750
2.486000	 0.217715
2.504000	 0.070578
2.522000	 0.070382
2.540000	 -0.008827
2.558000	 -0.124568
2.576000	 0.009378
2.594000	 0.036068
2.612000	 0.082842
2.630000	 -0.042655
2.648000	 0.084346
2.666000	 0.074682
2.684000	 -0.054023
2.702000	 0.073942
2.720000	 0.119728
2.738000	 -0.063860
2.756000	 0.153417
2.774000	 -0.042940
2.792000	 0.206210
2.810000	 -0.028020
2.828000	 -0.002975
2.846000	 -0.028229
2.864000	 0.125856
2.882000	 0.099342
2.900000	 0.013602
2.918000	 0.055710
2.936000	 0.076477
2.954000	 0.044269
2.972000	 -0.047927
2.990000	 -0.011134
3.008000	 -0.000167
3.026000	 0.033129
3.044000	 0.049015
3.062000	 -0.000299
3.080000	 0.146630
3.098000	 0.031755
3.116000	 -0.171866
3.134000	 -0.008851
3.152000	 0.058664
3.170000	 -0.006154
3.188000	 0.196737
3.206000	 0.037595
3.224000	 0.007319
3.242000	 -0.034706
3.260000	 -0.158900
3.278000	 0.122576
3.296000	 0.022284
3.314000	 0.003094
3.332000	 0.036730
3.350000	 0.042793
3.368000	 0.016119
3.386000	 0.087075
3.404000	 0.062444
3.422000	 0.083649
3.440000	 0.023426
3.458000	 -0.036367
3.476000	 -0.093868
3.494000	 0.001021
3.512000	 0.117186
3.530000	 -0.047873
3.548000	 -0.003838
3.566000	 -0.002208
3.584000	 -0.038892
3.602000	 0.003223
3.620000	 0.116009
3.638000	 0.109316
3.656000	 -0.042978
3.674000	 0.090428
3.692000	 0.129538
3.710000	 -0.094447
3.728000	 0.062839
3.746000	 0.060752
3.764000	 0.083992
3.782000	 -0.002026
3.800000	 -0.066853
3.818000	 0.024518
3.836000	 0.001827
3.854000	 0.078673
3.872000	 0.051999
3.890000	 0.114046
3.908000	 0.086426
3.926000	 0.021231
3.944000	 -0.066470
3.962000	 0.081272
3.980000	 -0.106009
3.998000	 -0.046556
4.016000	 0.116193
4.034000	 0.043952
4.052000	 -0.018099
4.070000	 0.109007
4.088000	 0.078790
4.106000	 -0.016601
4.124000	 -0.080186
4.141999	 0.007873
4.160000	 0.000857
4.178000	 -0.042500
4.196000	 -0.007396
4.214000	 0.009319
4.232000	 0.141758
4.250000	 0.181202
4.268000	 0.151237
4.286000	 0.209011
4.304000	 0.248280
4.322000	 0.375553
4.340000	 0.422166
4.358000	 0.559763
4.375999	 0.653495
4.394000	 0.844921
4.412000	 1.047738
4.430000	 1.316834
4.448000	 1.517665
4.466000	 2.033448
4.484000	 2.389200
4.502000	 2.748189
4.520000	 3.216846
4.538000	 3.883149
4.556000	 4.538979
4.574000	 5.242020
4.592000	 6.097017
4.609999	 6.824148
4.628000	 7.654237
4.646000	 8.728579
4.664000	 9.818651
4.682000	 10.7317
4.700000	 11.6287
4.718000	 12.6574
4.736000	 13.7182
4.754000	 14.7439
4.772000	 15.8606
4.790000	 16.9454
4.808000	 17.8938
4.826000	 18.7983
4.843999	 19.8323
4.862000	 20.7308
4.880000	 21.7557
4.898000	 22.3975
4.916000	 23.2506
4.934000	 23.9856
4.952000	 24.7251
4.970000	 25.3944
4.988000	 26.1038
5.006000	 26.6692
5.024000	 27.2095
5.042000	 27.639
5.060000	 28.2793
5.077999	 28.8802
5.096000	 29.373
5.114000	 29.6865
5.132000	 29.9646
5.150000	 30.3256
5.168000	 30.7638
5.186000	 31.0876
5.204000	 31.3511
5.222000	 31.6476
5.240000	 31.9195
5.258000	 32.2082
5.276000	 32.4902
5.294000	 32.6702
5.312000	 32.8015
5.330000	 33.0083
5.348000	 33.1548
5.366000	 33.3385
5.384000	 33.487
5.402000	 33.6649
5.420000	 33.9044
5.438000	 33.9971
5.456000	 34.0438
5.474000	 34.1232
5.492000	 34.217
5.510000	 34.3289
5.528000	 34.5132
5.546000	 34.6738
5.564000	 34.6048
5.582000	 34.6348
5.600000	 34.7592
5.618000	 34.7835
5.636000	 34.7923
5.654000	 34.8296
5.672000	 34.8312
5.690000	 34.9338
5.708000	 35.0592
5.726000	 35.109
5.744000	 35.0822
5.762000	 35.096
5.780000	 35.0815
5.798000	 35.0936
5.816000	 35.1437
5.834000	 35.2432
5.852000	 35.258
5.870000	 35.2993
5.888000	 35.3517
5.906000	 35.4191
5.923999	 35.4704
5.942000	 35.5026
5.960000	 35.4711
5.978000	 35.3792
5.996000	 35.3124
6.014000	 35.3589
6.032000	 35.5185
6.050000	 35.6114
6.068000	 35.6577
6.086000	 35.6619
6.104000	 35.6344
6.122000	 35.6601
6.140000	 35.6207
6.158000	 35.579
6.176000	 35.5504
6.194000	 35.4929
6.212000	 35.5128
6.230000	 35.6078
6.248000	 35.678
6.266000	 35.6861
6.284000	 35.61
6.302000	 35.499
6.320000	 35.5418
6.338000	 35.6609
6.356000	 35.6173
6.374000	 35.525
6.392000	 35.542
6.410000	 35.546
6.428000	 35.4971
6.446000	 35.4692
6.464000	 35.4511
6.482000	 35.474
6.500000	 35.5446
6.518000	 35.5389
6.536000	 35.5125
6.554000	 35.5168
6.572000	 35.5337
6.590000	 35.6068
6.608000	 35.6429
6.626000	 35.5725
6.644000	 35.5282
6.662000	 35.5795
6.680000	 35.5889
6.698000	 35.5263
6.716000	 35.523
6.734000	 35.536
6.752000	 35.4974
6.770000	 35.4676
6.788000	 35.4726
6.806000	 35.4702
6.824000	 35.4849
6.842000	 35.5183
6.860000	 35.4685
6.878000	 35.3712
6.896000	 35.3951
6.914000	 35.5102
6.932000	 35.5942
6.950000	 35.5867
6.968000	 35.4796
6.986000	 35.3841
7.004000	 35.3724
7.022000	 35.3898
7.040000	 35.4029
7.058000	 35.4302
7.076000	 35.4596
7.094000	 35.4549
7.112000	 35.4215
7.130000	 35.4024
7.148000	 35.4177
7.166000	 35.4459
7.184000	 35.4723
7.202000	 35.5009
7.220000	 35.4977
7.238000	 35.4309
7.256000	 35.3477
7.274000	 35.3019
7.292000	 35.2948
7.310000	 35.3037
7.328000	 35.299
7.346000	 35.2749
7.364000	 35.2504
7.382000	 35.2344
7.400000	 35.2375
7.418000	 35.2609
7.436000	 35.2916
7.454000	 35.3276
7.472000	 35.3479
7.490000	 35.3159
7.508000	 35.2575
7.526000	 35.2284
7.544000	 35.2186
7.562000	 35.1878
7.580000	 35.1715
7.598000	 35.2225
7.616000	 35.2758
7.634000	 35.2266
7.652000	 35.0994
7.670000	 35.0011
7.688000	 34.9791
7.706000	 35.0218
7.724000	 35.1068
7.742000	 35.1945
7.760000	 35.2294
7.778000	 35.1888
7.796000	 35.1133
7.814000	 35.0623
7.832000	 35.0563
7.850000	 35.0791
7.868000	 35.101
7.886000	 35.0863
7.904000	 35.0306
7.922000	 34.9758
7.940000	 34.9513
7.958000	 34.9374
7.976000	 34.9144
7.994000	 34.8927
8.012000	 34.8811
8.030000	 34.877
8.048000	 34.885
8.065999	 34.9146
8.084000	 34.9671
8.102000	 35.0328
8.120000	 35.0897
8.138000	 35.1157
8.155999	 35.1127
8.173999	 35.1043
8.192000	 35.0951
8.210000	 35.0576
8.228000	 34.9711
8.246000	 34.8624
8.263999	 34.7871
8.282000	 34.779
8.300000	 34.8324
8.318000	 34.918
8.336000	 34.9914
8.353999	 35.008
8.372000	 34.9615
8.390000	 34.8963
8.408000	 34.8579
8.426000	 34.8439
8.443999	 34.8276
8.462000	 34.8124
8.480000	 34.825
8.498000	 34.8609
8.516000	 34.8841
8.533999	 34.884
8.552000	 34.8903
8.570000	 34.9186
8.588000	 34.9392
8.606000	 34.9199
8.624000	 34.8689
8.641999	 34.8112
8.660000	 34.7528
8.678000	 34.6904
8.696000	 34.6388
8.714000	 34.6218
8.731999	 34.6399
8.750000	 34.6676
8.768000	 34.6803
8.786000	 34.673
8.804000	 34.6556
8.821999	 34.6397
8.840000	 34.6283
8.858000	 34.6231
8.876000	 34.6329
8.894000	 34.6677
8.911999	 34.719
8.930000	 34.757
8.948000	 34.7541
8.966000	 34.7145
8.984000	 34.6718
9.001999	 34.6607
9.020000	 34.6915
9.038000	 34.7502
9.056000	 34.8125
9.074000	 34.8575
9.092000	 34.8736
9.109999	 34.857
9.128000	 34.8048
9.146000	 34.7104
9.164000	 34.5759
9.182000	 34.4315
9.199999	 34.3317
9.218000	 34.3175
9.236000	 34.3764
9.254000	 34.4451
9.272000	 34.461
9.289999	 34.4125
9.308000	 34.338
9.326000	 34.2806
9.344000	 34.2529
9.362000	 34.2408
9.379999	 34.2335
9.398000	 34.2371
9.416000	 34.2636
9.434000	 34.3124
9.452000	 34.3688
9.469999	 34.4166
9.488000	 34.4503
9.506000	 34.4744
9.524000	 34.4953
9.542000	 34.5123
9.560000	 34.5153
9.577999	 34.4908
9.596000	 34.4317
9.614000	 34.3418
9.632000	 34.2354
9.650000	 34.1287
9.667999	 34.0321
9.686000	 33.948
9.704000	 33.8739
9.722000	 33.8106
9.740000	 33.7627
9.757999	 33.736
9.776000	 33.7321
9.794000	 33.7472
9.812000	 33.7759
9.830000	 33.8151
9.847999	 33.8655
9.866000	 33.9285
9.884000	 34.0038
9.902000	 34.0876
9.920000	 34.1712
9.937999	 34.2399
9.956000	 34.2754
9.974000	 34.2637
9.992000	 34.2044
10.01	34.1152
10.028	34.0247
10.046	33.9569
10.064	33.9191
10.082	33.9029
10.1	33.8945
10.118	33.885
10.136	33.8726
10.154	33.8552
10.172	33.8268
10.19	33.7799
10.208	33.7134
10.226	33.6367
10.244	33.5647
10.262	33.5088
10.28	33.47
10.298	33.4415
10.316	33.4157
10.334	33.3907
10.352	33.3711
10.37	33.3653
10.388	33.3809
10.406	33.422
10.424	33.4859
10.442	33.5611
10.46	33.6295
10.478	33.6725
10.496	33.6816
10.514	33.6654
10.532	33.6465
10.55	33.6474
10.568	33.6776
10.586	33.7272
10.604	33.777
10.622	33.8087
10.64	33.8161
10.658	33.8029
10.676	33.7774
10.694	33.7436
10.712	33.7
10.73	33.6427
10.748	33.5712
10.766	33.4902
10.784	33.4076
10.802	33.3302
10.82	33.26
10.838	33.1941
10.856	33.1266
10.874	33.0523
10.892	32.9705
10.91	32.8845
10.928	32.8014
10.946	32.7289
10.964	32.6726
10.982	32.6343
11	32.6126
11.018	32.6038
11.036	32.604
11.054	32.6096
11.072	32.6187
11.09	32.6304
11.108	32.6451
11.126	32.6645
11.144	32.6912
11.162	32.7275
11.18	32.7742
11.198	32.8284
11.216	32.8838
11.234	32.9323
11.252	32.9667
11.27	32.9836
11.288	32.9852
11.306	32.9775
11.324	32.9676
11.342	32.9602
11.36	32.9562
11.378	32.9531
11.396	32.947
11.414	32.9352
11.432	32.9173
11.45	32.8938
11.468	32.8646
11.486	32.8273
11.504	32.778
11.522	32.7129
11.54	32.6312
11.558	32.5368
11.576	32.437
11.594	32.3402
11.612	32.2539
11.63	32.1833
11.648	32.1318
11.666	32.1013
11.684	32.0932
11.702	32.1076
11.72	32.1408
11.738	32.1855
11.756	32.231
11.774	32.265
11.792	32.2783
11.81	32.2683
11.828	32.2405
11.846	32.2069
11.864	32.1817
11.882	32.1762
11.9	32.1954
11.918	32.2371
11.936	32.2932
11.954	32.353
11.972	32.4064
11.99	32.4469
12.008	32.4727
12.026	32.4844
12.044	32.4836
12.062	32.4695
12.08	32.439
12.098	32.3885
12.116	32.3169
12.134	32.2286
12.152	32.1339
12.17	32.0458
12.188	31.9763
12.206	31.9317
12.224	31.9112
12.242	31.9079
12.26	31.9121
12.278	31.9144
12.296	31.9088
12.314	31.8936
12.332	31.8699
12.35	31.8397
12.368	31.8037
12.386	31.761
12.404	31.709
12.422	31.6454
12.44	31.5706
12.458	31.4878
12.476	31.404
12.494	31.328
12.512	31.2678
12.53	31.2286
12.548	31.2109
12.566	31.2114
12.584	31.2239
12.602	31.241
12.62	31.2571
12.638	31.2689
12.656	31.2758
12.674	31.2796
12.692	31.2835
12.71	31.2906
12.728	31.3034
12.746	31.3233
12.764	31.3495
12.782	31.3795
12.8	31.4097
12.818	31.4361
12.836	31.4558
12.854	31.4681
12.872	31.4747
12.89	31.4789
12.908	31.4852
12.926	31.4978
12.944	31.5189
12.962	31.5484
12.98	31.5834
12.998	31.6192
13.016	31.6498
13.034	31.6695
13.052	31.6741
13.07	31.6619
13.088	31.634
13.106	31.5943
13.124	31.5483
13.142	31.5023
13.16	31.462
13.178	31.4316
13.196	31.4128
13.214	31.4045
13.232	31.4035
13.25	31.4042
13.268	31.4011
13.286	31.3887
13.304	31.3633
13.322	31.3233
13.34	31.2693
13.358	31.2038
13.376	31.1302
13.394	31.0522
13.412	30.973
13.43	30.8952
13.448	30.8205
13.466	30.7498
13.484	30.6839
13.502	30.6234
13.52	30.5691
13.538	30.522
13.556	30.4832
13.574	30.4544
13.592	30.4372
13.61	30.4325
13.628	30.4405
13.646	30.4601
13.664	30.4893
13.682	30.5246
13.7	30.5624
13.718	30.5991
13.736	30.6319
13.754	30.659
13.772	30.6801
13.79	30.6955
13.808	30.7068
13.826	30.7151
13.844	30.7219
13.862	30.7281
13.88	30.734
13.898	30.7399
13.916	30.7453
13.934	30.75
13.952	30.7532
13.97	30.7544
13.988	30.753
14.006	30.7484
14.024	30.7397
14.042	30.7262
14.06	30.7074
14.078	30.6834
14.096	30.6543
14.114	30.6211
14.132	30.5852
14.15	30.548
14.168	30.511
14.186	30.4749
14.204	30.4398
14.222	30.4052
14.24	30.3698
14.258	30.332
14.276	30.2904
14.294	30.244
14.312	30.1925
14.33	30.1364
14.348	30.0767
14.366	30.0154
14.384	29.9543
14.402	29.8953
14.42	29.8396
14.438	29.7879
14.456	29.74
14.474	29.6953
14.492	29.6528
14.51	29.6116
14.528	29.5708
14.546	29.5304
14.564	29.4908
14.582	29.4531
14.6	29.4184
14.618	29.3882
14.636	29.3636
14.654	29.3449
14.672	29.332
14.69	29.3238
14.708	29.3192
14.726	29.3165
14.744	29.3146
14.762	29.3124
14.78	29.31
14.798	29.3083
14.816	29.3087
14.834	29.3138
14.852	29.3258
14.87	29.3468
14.888	29.3779
14.906	29.4189
14.924	29.4689
14.942	29.5253
14.96	29.5846
14.978	29.6435
14.996	29.6987
15.014	29.7473
15.032	29.7873
15.05	29.818
15.068	29.8395
15.086	29.8525
15.104	29.8583
15.122	29.8585
15.14	29.8543
15.158	29.847
15.176	29.8374
15.194	29.8263
15.212	29.8139
15.23	29.8
15.248	29.7842
15.266	29.7659
15.284	29.7442
15.302	29.7182
15.32	29.6872
15.338	29.6505
15.356	29.6073
15.374	29.5578
15.392	29.5021
15.41	29.4407
15.428	29.3749
15.446	29.3063
15.464	29.2367
15.482	29.1679
15.5	29.1019
15.518	29.0413
15.536	28.9878
15.554	28.9425
15.572	28.9064
15.59	28.8794
15.608	28.8603
15.626	28.8479
15.644	28.8396
15.662	28.832
15.68	28.8222
15.698	28.8073
15.716	28.784
15.734	28.7503
15.752	28.7052
15.77	28.6484
15.788	28.5812
15.806	28.5061
15.824	28.426
15.842	28.3448
15.86	28.2674
15.878	28.1971
15.896	28.1372
15.914	28.0906
15.932	28.0582
15.95	28.0401
15.968	28.0357
15.986	28.0422
16.004	28.0572
16.022	28.0778
16.04	28.1
16.058	28.1208
16.076	28.1381
16.094	28.1489
16.112	28.152
16.13	28.1467
16.148	28.1325
16.166	28.1102
16.184	28.0808
16.202	28.0452
16.22	28.0058
16.238	27.9644
16.256	27.9226
16.274	27.8832
16.292	27.8479
16.31	27.8181
16.328	27.7959
16.346	27.782
16.364	27.777
16.382	27.7806
16.4	27.7916
16.418	27.809
16.436	27.8302
16.454	27.8529
16.472	27.8753
16.49	27.8945
16.508	27.9093
16.526	27.9187
16.544	27.9223
16.562	27.9211
16.58	27.9158
16.598	27.9085
16.616	27.9006
16.634	27.8937
16.652	27.8896
16.67	27.8891
16.688	27.8927
16.706	27.9006
16.724	27.9122
16.742	27.9265
16.76	27.9424
16.778	27.959
16.796	27.9744
16.814	27.9874
16.832	27.9971
16.85	28.0017
16.868	28.0005
16.886	27.9928
16.904	27.9774
16.922	27.9544
16.94	27.9233
16.958	27.8846
16.976	27.8385
16.994	27.7857
17.012	27.7274
17.03	27.6644
17.048	27.5992
17.066	27.5331
17.084	27.4679
17.102	27.4064
17.12	27.3496
17.138	27.3
17.156	27.2584
17.174	27.2258
17.192	27.2027
17.21	27.1891
17.228	27.1845
17.246	27.1881
17.264	27.1991
17.282	27.2156
17.3	27.2369
17.318	27.2611
17.336	27.2871
17.354	27.3138
17.372	27.3395
17.39	27.3636
17.408	27.3848
17.426	27.4022
17.444	27.4151
17.462	27.4223
17.48	27.4236
17.498	27.4185
17.516	27.407
17.534	27.389
17.552	27.3652
17.57	27.3361
17.588	27.3028
17.606	27.266
17.624	27.2271
17.642	27.1873
17.66	27.1473
17.678	27.1087
17.696	27.0715
17.714	27.0367
17.732	27.0042
17.75	26.9743
17.768	26.9466
17.786	26.9211
17.804	26.8971
17.822	26.8745
17.84	26.8528
17.858	26.8322
17.876	26.8125
17.894	26.7942
17.912	26.7777
17.93	26.7641
17.948	26.7536
17.966	26.748
17.984	26.7474
18.002	26.7532
18.02	26.7656
18.038	26.7854
18.056	26.812
18.074	26.8456
18.092	26.8849
18.11	26.9296
18.128	26.9777
18.146	27.0285
18.164	27.0797
18.182	27.1302
18.2	27.178
18.218	27.2215
18.236	27.2595
18.254	27.2904
18.272	27.3135
18.29	27.3276
18.308	27.3325
18.326	27.3278
18.344	27.3135
18.362	27.29
18.38	27.2579
18.398	27.2179
18.416	27.1711
18.434	27.1184
18.452	27.0614
18.47	27.0009
18.488	26.9386
18.506	26.8753
18.524	26.8127
18.542	26.7511
18.56	26.6922
18.578	26.6362
18.596	26.5844
18.614	26.5367
18.632	26.4942
18.65	26.4568
18.668	26.4249
18.686	26.3984
18.704	26.3773
18.722	26.3614
18.74	26.3503
18.758	26.3435
18.776	26.3402
18.794	26.3398
18.812	26.341
18.83	26.3431
18.848	26.3445
18.866	26.3445
18.884	26.3415
18.902	26.3347
18.92	26.3226
18.938	26.305
18.956	26.2806
18.974	26.2496
18.992	26.2113
19.01	26.1665
19.028	26.1153
19.046	26.0586
19.064	25.9973
19.082	25.9325
19.1	25.8659
19.118	25.7984
19.136	25.732
19.154	25.6674
19.172	25.6066
19.19	25.55
19.208	25.4991
19.226	25.4539
19.244	25.4152
19.262	25.3827
19.28	25.3562
19.298	25.3355
19.316	25.3196
19.334	25.3085
19.352	25.3008
19.37	25.2965
19.388	25.2939
19.406	25.2933
19.424	25.2933
19.442	25.294
19.46	25.2945
19.478	25.2946
19.496	25.2941
19.514	25.2929
19.532	25.2907
19.55	25.2874
19.568	25.2832
19.586	25.2779
19.604	25.2716
19.622	25.2643
19.64	25.256
19.658	25.2467
19.676	25.2365
19.694	25.2254
19.712	25.2133
19.73	25.2005
19.748	25.1868
19.766	25.1726
19.784	25.1578
19.802	25.1428
19.82	25.1278
19.838	25.1132
19.856	25.0994
19.874	25.0865
19.892	25.0754
19.91	25.0662
19.928	25.0598
19.946	25.0563
19.964	25.0565
19.982	25.0605
20	25.0686
20.018	25.0812
20.036	25.098
20.054	25.119
20.072	25.1439
20.09	25.1717
20.108	25.2027
20.126	25.2346
20.144	25.2679
20.162	25.3003
20.18	25.3313
20.198	25.3597
20.216	25.3833
20.234	25.4023
20.252	25.4139
20.27	25.4187
20.288	25.415
20.306	25.4025
20.324	25.3815
20.342	25.3515
20.36	25.3133
20.378	25.268
20.396	25.2155
20.414	25.1587
20.432	25.0971
20.45	25.034
20.468	24.9707
20.486	24.9081
20.504	24.8495
20.522	24.7942
20.54	24.7453
20.558	24.7028
20.576	24.6672
20.594	24.6393
20.612	24.6185
20.63	24.6042
20.648	24.5966
20.666	24.5929
20.684	24.5936
20.702	24.5962
20.72	24.599
20.738	24.6018
20.756	24.6012
20.774	24.5979
20.792	24.5894
20.81	24.5753
20.828	24.5555
20.846	24.5287
20.864	24.4954
20.882	24.456
20.9	24.4101
20.918	24.3592
20.936	24.3039
20.954	24.2444
20.972	24.1833
20.99	24.1199
21.008	24.0565
21.026	23.9941
21.044	23.9328
21.062	23.8747
21.08	23.8193
21.098	23.7681
21.116	23.7215
21.134	23.6796
21.152	23.6431
21.17	23.6118
21.188	23.5858
21.206	23.5653
21.224	23.5499
21.242	23.5392
21.26	23.5334
21.278	23.5319
21.296	23.5347
21.314	23.5417
21.332	23.5525
21.35	23.5672
21.368	23.5855
21.386	23.6073
21.404	23.6327
21.422	23.6613
21.44	23.6932
21.458	23.7281
21.476	23.7658
21.494	23.8062
21.512	23.8484
21.53	23.8928
21.548	23.9383
21.566	23.9842
21.584	24.0307
21.602	24.0759
21.62	24.1203
21.638	24.1625
21.656	24.2008
21.674	24.2359
21.692	24.2658
21.71	24.2899
21.728	24.3082
21.746	24.3194
21.764	24.3237
21.782	24.3209
21.8	24.3106
21.818	24.2932
21.836	24.2693
21.854	24.2385
21.872	24.2018
21.89	24.1609
21.908	24.1148
21.926	24.0662
21.944	24.0163
21.962	23.9647
21.98	23.9147
21.998	23.8662
22.016	23.8202
22.034	23.7796
22.052	23.7435
22.07	23.7134
22.088	23.691
22.106	23.6753
22.124	23.6673
22.142	23.6674
22.16	23.6751
22.178	23.6899
22.196	23.7124
22.214	23.7413
22.232	23.7753
22.25	23.8151
22.268	23.8591
22.286	23.9063
22.304	23.9571
22.322	24.0101
22.34	24.0649
22.358	24.1216
22.376	24.1795
22.394	24.2386
22.412	24.2989
22.43	24.3605
22.448	24.4231
22.466	24.4874
22.484	24.5537
22.502	24.6219
22.52	24.6927
22.538	24.7665
22.556	24.8431
22.574	24.9225
22.592	25.0053
22.61	25.091
22.628	25.1783
22.646	25.268
22.664	25.3591
22.682	25.4502
22.7	25.5421
22.718	25.6332
22.736	25.721
22.754	25.807
22.772	25.8889
22.79	25.9648
22.808	26.0361
22.826	26.0998
22.844	26.1541
22.862	26.2003
22.88	26.2357
22.898	26.2593
22.916	26.2718
22.934	26.2709
22.952	26.2558
22.97	26.2272
22.988	26.1837
23.006	26.1249
23.024	26.0513
23.042	25.9628
23.06	25.8588
23.078	25.7402
23.096	25.6088
23.114	25.4638
23.132	25.3065
23.15	25.1402
23.168	24.9641
23.186	24.7794
23.204	24.5902
23.222	24.3951
23.24	24.1959
23.258	23.9976
23.276	23.7987
23.294	23.6009
23.312	23.4107
23.33	23.2268
23.348	23.0502
23.366	22.8867
23.384	22.7357
23.402	22.5973
23.42	22.4758
23.438	22.3715
23.456	22.2837
23.474	22.214
23.492	22.1632
23.51	22.1304
23.528	22.1142
23.546	22.1153
23.564	22.1332
23.582	22.1641
23.6	22.2072
23.618	22.2636
23.636	22.3277
23.654	22.3972
23.672	22.4746
23.69	22.5538
23.708	22.6308
23.726	22.709
23.744	22.7832
23.762	22.8488
23.78	22.9089
23.798	22.9602
23.816	22.998
23.834	23.0246
23.852	23.0385
23.87	23.0366
23.888	23.0197
23.906	22.9877
23.924	22.9394
23.942	22.8744
23.96	22.7933
23.978	22.697
23.996	22.5855
24.014	22.4585
24.032	22.318
24.05	22.1649
24.068	21.9979
24.086	21.8199
24.104	21.6333
24.122	21.4357
24.14	21.2305
24.158	21.0222
24.176	20.8085
24.194	20.5913
24.212	20.3764
24.23	20.1637
24.248	19.952
24.266	19.7483
24.284	19.5561
24.302	19.3718
24.32	19.2002
24.338	19.0458
24.356	18.9057
24.374	18.7821
24.392	18.6791
24.41	18.5973
24.428	18.5352
24.446	18.4922
24.464	18.4691
24.482	18.4661
24.5	18.4794
24.518	18.5067
24.536	18.5523
24.554	18.6094
24.572	18.6691
24.59	18.7362
24.608	18.8079
24.626	18.8713
24.644	18.9221
24.662	18.9672
24.68	18.9942
24.698	18.9916
24.716	18.9679
24.734	18.9165
24.752	18.8252
24.77	18.6924
24.788	18.5222
24.806	18.3092
24.824	18.0489
24.842	17.743
24.86	17.3941
24.878	17.0047
24.896	16.5693
24.914	16.093
24.932	15.5883
24.95	15.0589
24.968	14.4953
24.986	13.9169
25.004	13.3434
25.022	12.7622
25.04	12.1807
25.058	11.6219
25.076	11.0951
25.094	10.587
25.112	10.1137
25.13	9.691813
25.148	9.313826
25.166	8.981382
25.184	8.705193
25.202	8.491339
25.22	8.333985
25.238	8.234305
25.256	8.194112
25.274	8.217044
25.292	8.298027
25.31	8.428805
25.328	8.606597
25.346	8.839014
25.364	9.112216
25.382	9.410747
25.4	9.741945
25.418	10.1046
25.436	10.4789
25.454	10.8508
25.472	11.2358
25.49	11.6207
25.508	11.9865
25.526	12.3304
25.544	12.6615
25.562	12.9653
25.58	13.2283
25.598	13.4566
25.616	13.65
25.634	13.8013
25.652	13.9053
25.67	13.9658
25.688	13.9833
25.706	13.9581
25.724	13.8873
25.742	13.7722
25.76	13.6199
25.778	13.4365
25.796	13.2153
25.814	12.9611
25.832	12.6847
25.85	12.3923
25.868	12.074
25.886	11.7401
25.904	11.4036
25.922	11.0659
25.94	10.7198
25.958	10.3776
25.976	10.0515
25.994	9.736510
26.012	9.431871
26.03	9.147557
26.048	8.892015
26.066	8.657402
26.084	8.447616
26.102	8.271441
26.12	8.134914
26.138	8.032292
26.156	7.965284
26.174	7.936870
26.192	7.948587
26.21	7.998553
26.228	8.086476
26.246	8.212152
26.264	8.378536
26.282	8.584604
26.3	8.823158
26.318	9.087282
26.336	9.386473
26.354	9.716397
26.372	10.0596
26.39	10.4003
26.408	10.7521
26.426	11.1097
26.444	11.4563
26.462	11.7786
26.48	12.0948
26.498	12.3928
26.516	12.6511
26.534	12.8527
26.552	13.0103
26.57	13.1233
26.588	13.1871
26.606	13.1958
26.624	13.1458
26.642	13.0504
26.66	12.9242
26.678	12.7697
26.696	12.5664
26.714	12.3441
26.732	12.1371
26.75	11.9555
26.768	11.7636
26.786	11.6037
26.804	11.524
26.822	11.5436
26.84	11.62
26.858	11.7901
26.876	12.0965
26.894	12.5593
26.912	13.1442
26.93	13.8717
26.948	14.7662
26.966	15.9363
26.984	17.5031
27.002	19.1173
27.02	20.4021
27.028	20.7333