File: Bakgrunnsmateriale/MATLAB/FTIR/ftir_data/LPE453/Mapping_121/LPE453_t44.asc
PE IR       SPECTRUM    SPECTRUM    ASCII       PEDS        1.60
  -1
LPD3A9~1.ASC
17/05/16
17:54:43.00
17/05/16
17:55:09.00
tln
$LPE453_t0044$<tbV0>[-13.0,-5.2,8.0,0.0,27,1,0]
27.028
64

2002,4.07
MIRTGS : RIGHTBACK : INTERNAL 2
MIR : ON : INTERNAL 2
OPTKBR

0.200000
8
8.000000
FILLER
RATIO
SPECTRUM
UNLOCKED 256

DOUBLE
64
COMBINED
1
0
0

0.002000
RATIO

1
0
TRUE
51149
0
LEFT NOT FITTED RIGHT NOT FITTED 0
NONE
NONE
15600
12
4.427000
51148
TRUE
1 0 8 72 0 0 0 0

15798

#HDR
-1
-1
#GR
µM
%T
2.38419e-05
0.0
2.000000
0.002000
12515
8
32.5653
-19.1003
#DATA
2.000000	 -0.017309
2.018000	 0.165858
2.036000	 -0.258713
2.054000	 -0.302316
2.072000	 0.282593
2.090000	 0.109810
2.108000	 0.146205
2.126000	 0.306402
2.144000	 0.253824
2.162000	 0.513680
2.180000	 0.297527
2.198000	 0.980980
2.216000	 3.505455
2.234000	 0.298069
2.252000	 0.531232
2.270000	 0.153810
2.288000	 0.300906
2.306000	 -0.027335
2.324000	 -0.094087
2.342000	 -0.063076
2.360000	 0.275829
2.378000	 -0.032285
2.396000	 0.776726
2.414000	 -0.011499
2.432000	 0.204601
2.450000	 -0.118964
2.468000	 0.066836
2.486000	 0.289256
2.504000	 -0.057448
2.522000	 0.195063
2.540000	 -0.169117
2.558000	 0.169909
2.576000	 0.131674
2.594000	 -0.196284
2.612000	 -0.026849
2.630000	 0.038441
2.648000	 0.024242
2.666000	 -0.038651
2.684000	 0.227814
2.702000	 0.161082
2.720000	 0.050203
2.738000	 -0.039462
2.756000	 0.155849
2.774000	 -0.041271
2.792000	 0.274061
2.810000	 -0.039524
2.828000	 0.154619
2.846000	 -0.068042
2.864000	 0.190812
2.882000	 0.329504
2.900000	 0.188943
2.918000	 0.061435
2.936000	 0.113022
2.954000	 0.015379
2.972000	 0.130914
2.990000	 0.079622
3.008000	 0.135074
3.026000	 -0.055398
3.044000	 0.023211
3.062000	 0.026320
3.080000	 0.019920
3.098000	 0.050455
3.116000	 0.065491
3.134000	 -0.025206
3.152000	 -0.033030
3.170000	 -0.014892
3.188000	 0.236408
3.206000	 0.077330
3.224000	 0.080416
3.242000	 0.154566
3.260000	 0.057314
3.278000	 -0.073635
3.296000	 0.056674
3.314000	 0.093096
3.332000	 0.093473
3.350000	 0.124774
3.368000	 0.094089
3.386000	 -0.107106
3.404000	 0.035198
3.422000	 -0.026245
3.440000	 0.160184
3.458000	 0.058668
3.476000	 -0.025730
3.494000	 0.276927
3.512000	 0.047973
3.530000	 0.206305
3.548000	 0.028393
3.566000	 0.095819
3.584000	 0.069454
3.602000	 0.014245
3.620000	 0.111309
3.638000	 -0.007998
3.656000	 0.061330
3.674000	 -0.066784
3.692000	 0.015778
3.710000	 0.092372
3.728000	 -0.065265
3.746000	 0.045452
3.764000	 0.091285
3.782000	 0.046837
3.800000	 0.107055
3.818000	 0.084445
3.836000	 -0.002569
3.854000	 0.083782
3.872000	 0.134877
3.890000	 0.070566
3.908000	 0.049252
3.926000	 -0.032538
3.944000	 -0.019070
3.962000	 0.046623
3.980000	 0.014770
3.998000	 0.087399
4.016000	 -0.013399
4.034000	 0.052714
4.052000	 0.013406
4.070000	 -0.011795
4.088000	 0.035059
4.106000	 0.099070
4.124000	 0.367265
4.141999	 0.344113
4.160000	 0.047132
4.178000	 0.027235
4.196000	 0.020198
4.214000	 0.063234
4.232000	 0.047419
4.250000	 0.152811
4.268000	 0.049945
4.286000	 0.160479
4.304000	 0.164515
4.322000	 0.166638
4.340000	 0.263391
4.358000	 0.304249
4.375999	 0.334382
4.394000	 0.527341
4.412000	 0.743310
4.430000	 0.873796
4.448000	 1.008333
4.466000	 1.275601
4.484000	 1.562142
4.502000	 1.916484
4.520000	 2.226500
4.538000	 2.610346
4.556000	 3.075698
4.574000	 3.584206
4.592000	 4.199217
4.609999	 4.914634
4.628000	 5.560400
4.646000	 6.243627
4.664000	 7.085482
4.682000	 7.795573
4.700000	 8.696772
4.718000	 9.423428
4.736000	 10.4028
4.754000	 11.1371
4.772000	 11.9272
4.790000	 12.8237
4.808000	 13.7066
4.826000	 14.3472
4.843999	 15.1861
4.862000	 15.9848
4.880000	 16.7727
4.898000	 17.6463
4.916000	 18.5247
4.934000	 19.0245
4.952000	 19.6781
4.970000	 20.2973
4.988000	 20.912
5.006000	 21.5168
5.024000	 22.1553
5.042000	 22.5998
5.060000	 23.033
5.077999	 23.4856
5.096000	 23.9164
5.114000	 24.4315
5.132000	 24.8677
5.150000	 25.2066
5.168000	 25.5004
5.186000	 25.9111
5.204000	 26.2027
5.222000	 26.4466
5.240000	 26.7759
5.258000	 27.1859
5.276000	 27.446
5.294000	 27.6376
5.312000	 27.8676
5.330000	 27.9975
5.348000	 28.1063
5.366000	 28.3424
5.384000	 28.5961
5.402000	 28.8988
5.420000	 29.1056
5.438000	 29.211
5.456000	 29.2672
5.474000	 29.3352
5.492000	 29.4434
5.510000	 29.5833
5.528000	 29.6884
5.546000	 29.8463
5.564000	 30.02
5.582000	 30.1941
5.600000	 30.2841
5.618000	 30.3368
5.636000	 30.3473
5.654000	 30.4243
5.672000	 30.473
5.690000	 30.551
5.708000	 30.8161
5.726000	 30.8994
5.744000	 30.9774
5.762000	 30.9745
5.780000	 30.9522
5.798000	 30.9827
5.816000	 31.0024
5.834000	 31.0649
5.852000	 31.1242
5.870000	 31.1233
5.888000	 31.3417
5.906000	 31.5023
5.923999	 31.5127
5.942000	 31.5464
5.960000	 31.489
5.978000	 31.3433
5.996000	 31.299
6.014000	 31.4077
6.032000	 31.5336
6.050000	 31.6731
6.068000	 31.7738
6.086000	 31.834
6.104000	 31.8338
6.122000	 31.8473
6.140000	 31.8263
6.158000	 31.7792
6.176000	 31.7446
6.194000	 31.6842
6.212000	 31.6596
6.230000	 31.8076
6.248000	 31.9516
6.266000	 31.9804
6.284000	 32.0223
6.302000	 32.0313
6.320000	 32.064
6.338000	 32.0616
6.356000	 32.0001
6.374000	 32.043
6.392000	 32.0872
6.410000	 31.9995
6.428000	 31.9492
6.446000	 32.0558
6.464000	 32.192
6.482000	 32.2826
6.500000	 32.3633
6.518000	 32.3869
6.536000	 32.3473
6.554000	 32.2928
6.572000	 32.2287
6.590000	 32.1647
6.608000	 32.1028
6.626000	 32.0606
6.644000	 32.0578
6.662000	 32.0824
6.680000	 32.1
6.698000	 32.1223
6.716000	 32.2007
6.734000	 32.2977
6.752000	 32.3429
6.770000	 32.3014
6.788000	 32.2306
6.806000	 32.1963
6.824000	 32.1454
6.842000	 32.0857
6.860000	 32.0305
6.878000	 31.9303
6.896000	 31.9427
6.914000	 32.1263
6.932000	 32.2497
6.950000	 32.2685
6.968000	 32.3563
6.986000	 32.5123
7.004000	 32.5631
7.022000	 32.4923
7.040000	 32.3973
7.058000	 32.3237
7.076000	 32.2556
7.094000	 32.1578
7.112000	 32.0957
7.130000	 32.111
7.148000	 32.077
7.166000	 31.9725
7.184000	 31.9583
7.202000	 32.0749
7.220000	 32.2126
7.238000	 32.3116
7.256000	 32.3989
7.274000	 32.4648
7.292000	 32.4315
7.310000	 32.2745
7.328000	 32.1015
7.346000	 32.0235
7.364000	 32.0049
7.382000	 31.9454
7.400000	 31.8497
7.418000	 31.7981
7.436000	 31.8112
7.454000	 31.8563
7.472000	 31.9278
7.490000	 32.0217
7.508000	 32.0993
7.526000	 32.1442
7.544000	 32.1808
7.562000	 32.2282
7.580000	 32.2833
7.598000	 32.3138
7.616000	 32.273
7.634000	 32.1726
7.652000	 32.065
7.670000	 31.9548
7.688000	 31.8251
7.706000	 31.7145
7.724000	 31.6746
7.742000	 31.6957
7.760000	 31.7256
7.778000	 31.7411
7.796000	 31.7697
7.814000	 31.836
7.832000	 31.9203
7.850000	 31.9917
7.868000	 32.0375
7.886000	 32.0423
7.904000	 31.9921
7.922000	 31.9125
7.940000	 31.849
7.958000	 31.8061
7.976000	 31.7568
7.994000	 31.6929
8.012000	 31.6207
8.030000	 31.5336
8.048000	 31.4334
8.065999	 31.3612
8.084000	 31.3661
8.102000	 31.4439
8.120000	 31.5322
8.138000	 31.5756
8.155999	 31.5799
8.173999	 31.6001
8.192000	 31.6711
8.210000	 31.7625
8.228000	 31.8076
8.246000	 31.7734
8.263999	 31.6859
8.282000	 31.5937
8.300000	 31.5197
8.318000	 31.4554
8.336000	 31.3838
8.353999	 31.2997
8.372000	 31.2129
8.390000	 31.1425
8.408000	 31.106
8.426000	 31.1065
8.443999	 31.1347
8.462000	 31.178
8.480000	 31.2287
8.498000	 31.2876
8.516000	 31.3506
8.533999	 31.4036
8.552000	 31.4413
8.570000	 31.4697
8.588000	 31.4861
8.606000	 31.4737
8.624000	 31.424
8.641999	 31.3498
8.660000	 31.2728
8.678000	 31.2083
8.696000	 31.1593
8.714000	 31.1113
8.731999	 31.0349
8.750000	 30.9153
8.768000	 30.7792
8.786000	 30.6785
8.804000	 30.6397
8.821999	 30.6429
8.840000	 30.6519
8.858000	 30.6523
8.876000	 30.6499
8.894000	 30.6534
8.911999	 30.6661
8.930000	 30.6903
8.948000	 30.7301
8.966000	 30.7892
8.984000	 30.8661
9.001999	 30.9496
9.020000	 31.0216
9.038000	 31.0689
9.056000	 31.092
9.074000	 31.0972
9.092000	 31.0786
9.109999	 31.0205
9.128000	 30.9212
9.146000	 30.8026
9.164000	 30.6897
9.182000	 30.5774
9.199999	 30.4368
9.218000	 30.2565
9.236000	 30.0765
9.254000	 29.9666
9.272000	 29.9653
9.289999	 30.0416
9.308000	 30.1239
9.326000	 30.1635
9.344000	 30.1716
9.362000	 30.1949
9.379999	 30.2659
9.398000	 30.3762
9.416000	 30.4878
9.434000	 30.5638
9.452000	 30.5881
9.469999	 30.5697
9.488000	 30.5343
9.506000	 30.5074
9.524000	 30.496
9.542000	 30.4852
9.560000	 30.4514
9.577999	 30.3827
9.596000	 30.2886
9.614000	 30.1922
9.632000	 30.1125
9.650000	 30.0539
9.667999	 30.0092
9.686000	 29.9715
9.704000	 29.9401
9.722000	 29.9162
9.740000	 29.8949
9.757999	 29.8629
9.776000	 29.8092
9.794000	 29.7411
9.812000	 29.6865
9.830000	 29.6767
9.847999	 29.7211
9.866000	 29.7979
9.884000	 29.8693
9.902000	 29.9062
9.920000	 29.9055
9.937999	 29.8874
9.956000	 29.878
9.974000	 29.8925
9.992000	 29.9287
10.01	29.971
10.028	29.9974
10.046	29.9877
10.064	29.9312
10.082	29.8308
10.1	29.7018
10.118	29.5677
10.136	29.4493
10.154	29.3574
10.172	29.2897
10.19	29.2323
10.208	29.1703
10.226	29.0977
10.244	29.0209
10.262	28.9556
10.28	28.9158
10.298	28.9049
10.316	28.9137
10.334	28.9292
10.352	28.9455
10.37	28.9663
10.388	29
10.406	29.0486
10.424	29.1033
10.442	29.1484
10.46	29.172
10.478	29.1736
10.496	29.1659
10.514	29.1664
10.532	29.1887
10.55	29.233
10.568	29.2872
10.586	29.3308
10.604	29.346
10.622	29.3225
10.64	29.2608
10.658	29.1702
10.676	29.0651
10.694	28.9595
10.712	28.8646
10.73	28.7861
10.748	28.7242
10.766	28.6745
10.784	28.6302
10.802	28.5841
10.82	28.5317
10.838	28.4717
10.856	28.4061
10.874	28.3392
10.892	28.2772
10.91	28.227
10.928	28.195
10.946	28.1865
10.964	28.2039
10.982	28.2458
11	28.3076
11.018	28.3806
11.036	28.4546
11.054	28.5182
11.072	28.5621
11.09	28.5809
11.108	28.5752
11.126	28.5519
11.144	28.5208
11.162	28.4926
11.18	28.4744
11.198	28.4681
11.216	28.4719
11.234	28.4807
11.252	28.4892
11.27	28.4926
11.288	28.4852
11.306	28.4616
11.324	28.415
11.342	28.3409
11.36	28.2391
11.378	28.1167
11.396	27.9859
11.414	27.8625
11.432	27.7609
11.45	27.6881
11.468	27.6437
11.486	27.6209
11.504	27.6105
11.522	27.605
11.54	27.6021
11.558	27.6028
11.576	27.61
11.594	27.6249
11.612	27.6453
11.63	27.666
11.648	27.6819
11.666	27.6903
11.684	27.6936
11.702	27.6976
11.72	27.7089
11.738	27.7317
11.756	27.7647
11.774	27.802
11.792	27.8363
11.81	27.8624
11.828	27.8797
11.846	27.8922
11.864	27.906
11.882	27.9251
11.9	27.9496
11.918	27.9744
11.936	27.9906
11.954	27.9897
11.972	27.966
11.99	27.9195
12.008	27.8552
12.026	27.781
12.044	27.7057
12.062	27.6357
12.08	27.5729
12.098	27.5159
12.116	27.4604
12.134	27.4013
12.152	27.3352
12.17	27.2603
12.188	27.1773
12.206	27.0882
12.224	26.9952
12.242	26.9002
12.26	26.8039
12.278	26.7068
12.296	26.6101
12.314	26.5162
12.332	26.43
12.35	26.3574
12.368	26.3049
12.386	26.2775
12.404	26.2774
12.422	26.3032
12.44	26.3495
12.458	26.409
12.476	26.4736
12.494	26.5369
12.512	26.5949
12.53	26.6463
12.548	26.6921
12.566	26.7336
12.584	26.7712
12.602	26.8042
12.62	26.8306
12.638	26.8477
12.656	26.8532
12.674	26.8468
12.692	26.8309
12.71	26.8094
12.728	26.7872
12.746	26.7692
12.764	26.758
12.782	26.753
12.8	26.7513
12.818	26.7483
12.836	26.7394
12.854	26.7204
12.872	26.6903
12.89	26.6498
12.908	26.6012
12.926	26.547
12.944	26.489
12.962	26.4277
12.98	26.3625
12.998	26.2918
13.016	26.2155
13.034	26.1355
13.052	26.0566
13.07	25.9851
13.088	25.9275
13.106	25.8894
13.124	25.873
13.142	25.8778
13.16	25.9002
13.178	25.9355
13.196	25.9778
13.214	26.0224
13.232	26.0656
13.25	26.1049
13.268	26.1388
13.286	26.1661
13.304	26.1859
13.322	26.1976
13.34	26.2006
13.358	26.1949
13.376	26.1805
13.394	26.1578
13.412	26.1273
13.43	26.0891
13.448	26.0435
13.466	25.9905
13.484	25.9312
13.502	25.8682
13.52	25.8064
13.538	25.7516
13.556	25.7106
13.574	25.6889
13.592	25.6896
13.61	25.7121
13.628	25.7518
13.646	25.8004
13.664	25.8481
13.682	25.8852
13.7	25.9045
13.718	25.903
13.736	25.8824
13.754	25.8483
13.772	25.8091
13.79	25.7736
13.808	25.749
13.826	25.739
13.844	25.7428
13.862	25.7564
13.88	25.7725
13.898	25.7834
13.916	25.7814
13.934	25.761
13.952	25.7191
13.97	25.6557
13.988	25.5735
14.006	25.4773
14.024	25.3727
14.042	25.2658
14.06	25.1625
14.078	25.0678
14.096	24.9859
14.114	24.9198
14.132	24.8715
14.15	24.8415
14.168	24.8291
14.186	24.8325
14.204	24.8481
14.222	24.8718
14.24	24.8991
14.258	24.926
14.276	24.9488
14.294	24.9652
14.312	24.9739
14.33	24.9749
14.348	24.9695
14.366	24.959
14.384	24.9461
14.402	24.933
14.42	24.9219
14.438	24.915
14.456	24.914
14.474	24.9201
14.492	24.9343
14.51	24.9567
14.528	24.9865
14.546	25.0223
14.564	25.0618
14.582	25.1026
14.6	25.1413
14.618	25.1745
14.636	25.1994
14.654	25.2134
14.672	25.2157
14.69	25.2064
14.708	25.1863
14.726	25.1574
14.744	25.1217
14.762	25.082
14.78	25.0404
14.798	24.9984
14.816	24.9572
14.834	24.9174
14.852	24.879
14.87	24.8419
14.888	24.8062
14.906	24.7721
14.924	24.7397
14.942	24.7097
14.96	24.6826
14.978	24.6586
14.996	24.6374
15.014	24.6185
15.032	24.6002
15.05	24.5806
15.068	24.5572
15.086	24.5279
15.104	24.4904
15.122	24.4432
15.14	24.3859
15.158	24.3191
15.176	24.2443
15.194	24.1638
15.212	24.0816
15.23	24.0012
15.248	23.926
15.266	23.8595
15.284	23.8047
15.302	23.7631
15.32	23.7353
15.338	23.7212
15.356	23.7196
15.374	23.7281
15.392	23.744
15.41	23.7646
15.428	23.7866
15.446	23.8071
15.464	23.8239
15.482	23.8355
15.5	23.8411
15.518	23.8409
15.536	23.8363
15.554	23.8288
15.572	23.8204
15.59	23.8137
15.608	23.8101
15.626	23.8109
15.644	23.817
15.662	23.828
15.68	23.8428
15.698	23.8606
15.716	23.8794
15.734	23.898
15.752	23.9157
15.77	23.9319
15.788	23.947
15.806	23.9619
15.824	23.9777
15.842	23.9958
15.86	24.0175
15.878	24.0432
15.896	24.073
15.914	24.106
15.932	24.1402
15.95	24.1736
15.968	24.2034
15.986	24.2265
16.004	24.241
16.022	24.2449
16.04	24.2375
16.058	24.2192
16.076	24.1905
16.094	24.1537
16.112	24.1109
16.13	24.0639
16.148	24.0154
16.166	23.9669
16.184	23.9192
16.202	23.8733
16.22	23.8287
16.238	23.7846
16.256	23.7405
16.274	23.6948
16.292	23.6472
16.31	23.5971
16.328	23.5447
16.346	23.4909
16.364	23.4365
16.382	23.3837
16.4	23.3345
16.418	23.2905
16.436	23.2541
16.454	23.2265
16.472	23.2086
16.49	23.2005
16.508	23.2011
16.526	23.2096
16.544	23.2231
16.562	23.2391
16.58	23.2555
16.598	23.2683
16.616	23.2752
16.634	23.2743
16.652	23.2633
16.67	23.2418
16.688	23.2096
16.706	23.1677
16.724	23.1178
16.742	23.0618
16.76	23.0032
16.778	22.9439
16.796	22.8874
16.814	22.8364
16.832	22.7923
16.85	22.757
16.868	22.7307
16.886	22.7138
16.904	22.7049
16.922	22.7026
16.94	22.7054
16.958	22.7103
16.976	22.7159
16.994	22.7192
17.012	22.7188
17.03	22.7133
17.048	22.7017
17.066	22.6841
17.084	22.6607
17.102	22.6328
17.12	22.6012
17.138	22.5685
17.156	22.5364
17.174	22.5065
17.192	22.4819
17.21	22.4635
17.228	22.4536
17.246	22.453
17.264	22.4628
17.282	22.4833
17.3	22.5145
17.318	22.5559
17.336	22.6064
17.354	22.6653
17.372	22.7298
17.39	22.799
17.408	22.8703
17.426	22.9412
17.444	23.0101
17.462	23.0739
17.48	23.1319
17.498	23.1816
17.516	23.2227
17.534	23.2542
17.552	23.2765
17.57	23.2898
17.588	23.2953
17.606	23.2938
17.624	23.287
17.642	23.2764
17.66	23.2627
17.678	23.2477
17.696	23.2318
17.714	23.2155
17.732	23.1982
17.75	23.18
17.768	23.1592
17.786	23.1352
17.804	23.1061
17.822	23.0715
17.84	23.0297
17.858	22.9806
17.876	22.9236
17.894	22.8599
17.912	22.7895
17.93	22.7151
17.948	22.6375
17.966	22.5602
17.984	22.4842
18.002	22.4127
18.02	22.347
18.038	22.2889
18.056	22.2392
18.074	22.1985
18.092	22.1662
18.11	22.1418
18.128	22.1233
18.146	22.1098
18.164	22.0985
18.182	22.0879
18.2	22.0759
18.218	22.0611
18.236	22.0423
18.254	22.0187
18.272	21.9901
18.29	21.9573
18.308	21.9203
18.326	21.8813
18.344	21.8408
18.362	21.8014
18.38	21.7638
18.398	21.7304
18.416	21.7013
18.434	21.678
18.452	21.6602
18.47	21.6483
18.488	21.6411
18.506	21.6388
18.524	21.6391
18.542	21.6418
18.56	21.6444
18.578	21.6465
18.596	21.6458
18.614	21.6421
18.632	21.6339
18.65	21.6211
18.668	21.6036
18.686	21.5815
18.704	21.5555
18.722	21.5261
18.74	21.495
18.758	21.4629
18.776	21.432
18.794	21.4029
18.812	21.3781
18.83	21.3578
18.848	21.3441
18.866	21.3371
18.884	21.3378
18.902	21.3458
18.92	21.3613
18.938	21.3834
18.956	21.4114
18.974	21.4443
18.992	21.4806
19.01	21.5194
19.028	21.5588
19.046	21.5982
19.064	21.6359
19.082	21.6716
19.1	21.704
19.118	21.7333
19.136	21.7589
19.154	21.7812
19.172	21.8006
19.19	21.8175
19.208	21.8328
19.226	21.8466
19.244	21.8601
19.262	21.8732
19.28	21.8865
19.298	21.8998
19.316	21.9132
19.334	21.9264
19.352	21.9383
19.37	21.9489
19.388	21.9564
19.406	21.9607
19.424	21.9599
19.442	21.9539
19.46	21.9414
19.478	21.9223
19.496	21.8962
19.514	21.8627
19.532	21.8229
19.55	21.7768
19.568	21.7256
19.586	21.6704
19.604	21.6118
19.622	21.5518
19.64	21.4905
19.658	21.4303
19.676	21.3711
19.694	21.3146
19.712	21.2609
19.73	21.2111
19.748	21.1654
19.766	21.1242
19.784	21.0877
19.802	21.0559
19.82	21.0291
19.838	21.0072
19.856	20.9901
19.874	20.978
19.892	20.9706
19.91	20.9681
19.928	20.9701
19.946	20.9769
19.964	20.9879
19.982	21.0032
20	21.022
20.018	21.0441
20.036	21.0686
20.054	21.0946
20.072	21.1216
20.09	21.1475
20.108	21.1725
20.126	21.1937
20.144	21.2114
20.162	21.2231
20.18	21.228
20.198	21.2254
20.216	21.2133
20.234	21.1922
20.252	21.1606
20.27	21.1188
20.288	21.067
20.306	21.0047
20.324	20.9336
20.342	20.8538
20.36	20.7665
20.378	20.6736
20.396	20.575
20.414	20.4744
20.432	20.3712
20.45	20.2685
20.468	20.1671
20.486	20.0681
20.504	19.9744
20.522	19.8853
20.54	19.8039
20.558	19.7298
20.576	19.6645
20.594	19.6088
20.612	19.5628
20.63	19.5273
20.648	19.5021
20.666	19.4872
20.684	19.4828
20.702	19.4879
20.72	19.502
20.738	19.5247
20.756	19.5541
20.774	19.5908
20.792	19.6317
20.81	19.6768
20.828	19.7245
20.846	19.7727
20.864	19.8218
20.882	19.8685
20.9	19.9131
20.918	19.9541
20.936	19.9902
20.954	20.0217
20.972	20.047
20.99	20.0663
21.008	20.0794
21.026	20.0862
21.044	20.087
21.062	20.0822
21.08	20.0718
21.098	20.0572
21.116	20.0386
21.134	20.0166
21.152	19.9929
21.17	19.967
21.188	19.9409
21.206	19.9148
21.224	19.8892
21.242	19.8654
21.26	19.8431
21.278	19.8235
21.296	19.8068
21.314	19.793
21.332	19.7827
21.35	19.7758
21.368	19.7722
21.386	19.7723
21.404	19.7758
21.422	19.7823
21.44	19.792
21.458	19.8042
21.476	19.8189
21.494	19.836
21.512	19.8543
21.53	19.8743
21.548	19.8951
21.566	19.916
21.584	19.9371
21.602	19.9573
21.62	19.9766
21.638	19.9944
21.656	20.0092
21.674	20.0217
21.692	20.0307
21.71	20.0358
21.728	20.0372
21.746	20.0342
21.764	20.0269
21.782	20.0156
21.8	20.0004
21.818	19.9811
21.836	19.959
21.854	19.9338
21.872	19.9063
21.89	19.8777
21.908	19.8476
21.926	19.8175
21.944	19.7885
21.962	19.76
21.98	19.7339
21.998	19.7101
22.016	19.6889
22.034	19.6714
22.052	19.6572
22.07	19.6465
22.088	19.6394
22.106	19.636
22.124	19.6353
22.142	19.6375
22.16	19.6423
22.178	19.6484
22.196	19.6561
22.214	19.6646
22.232	19.6727
22.25	19.6811
22.268	19.6885
22.286	19.6943
22.304	19.6989
22.322	19.7014
22.34	19.7017
22.358	19.6999
22.376	19.6961
22.394	19.69
22.412	19.6822
22.43	19.6734
22.448	19.6631
22.466	19.6525
22.484	19.6422
22.502	19.632
22.52	19.6229
22.538	19.6156
22.556	19.6097
22.574	19.6065
22.592	19.6062
22.61	19.6086
22.628	19.6144
22.646	19.6235
22.664	19.6357
22.682	19.6509
22.7	19.6695
22.718	19.6904
22.736	19.7126
22.754	19.737
22.772	19.7619
22.79	19.786
22.808	19.8103
22.826	19.8323
22.844	19.8505
22.862	19.8659
22.88	19.8763
22.898	19.8805
22.916	19.8794
22.934	19.8706
22.952	19.8535
22.97	19.8286
22.988	19.7941
23.006	19.7493
23.024	19.6949
23.042	19.6297
23.06	19.5534
23.078	19.4666
23.096	19.3698
23.114	19.2626
23.132	19.1457
23.15	19.0211
23.168	18.8881
23.186	18.7477
23.204	18.603
23.222	18.4528
23.24	18.2984
23.258	18.1438
23.276	17.988
23.294	17.832
23.312	17.6797
23.33	17.5304
23.348	17.3847
23.366	17.2468
23.384	17.116
23.402	16.9927
23.42	16.8802
23.438	16.7784
23.456	16.6872
23.474	16.6089
23.492	16.544
23.51	16.4919
23.528	16.4533
23.546	16.4284
23.564	16.4168
23.582	16.4186
23.6	16.4338
23.618	16.4622
23.636	16.5032
23.654	16.5566
23.672	16.6226
23.69	16.6997
23.708	16.7869
23.726	16.8852
23.744	16.9923
23.762	17.1059
23.78	17.2276
23.798	17.3554
23.816	17.4867
23.834	17.623
23.852	17.7627
23.87	17.903
23.888	18.045
23.906	18.1878
23.924	18.3293
23.942	18.4697
23.96	18.609
23.978	18.7455
23.996	18.8786
24.014	19.009
24.032	19.135
24.05	19.2558
24.068	19.3723
24.086	19.4827
24.104	19.5852
24.122	19.6807
24.14	19.7685
24.158	19.8471
24.176	19.9175
24.194	19.9788
24.212	20.0295
24.23	20.0699
24.248	20.1001
24.266	20.1171
24.284	20.1192
24.302	20.1086
24.32	20.0818
24.338	20.0354
24.356	19.9712
24.374	19.8885
24.392	19.7856
24.41	19.6623
24.428	19.5194
24.446	19.3567
24.464	19.174
24.482	18.9714
24.5	18.7502
24.518	18.5113
24.536	18.2528
24.554	17.9779
24.572	17.6903
24.59	17.3877
24.608	17.0717
24.626	16.7482
24.644	16.4191
24.662	16.0809
24.68	15.741
24.698	15.4062
24.716	15.0708
24.734	14.7399
24.752	14.4222
24.77	14.1169
24.788	13.8224
24.806	13.5473
24.824	13.2977
24.842	13.0687
24.86	12.8633
24.878	12.686
24.896	12.5353
24.914	12.4112
24.932	12.3173
24.95	12.2554
24.968	12.2231
24.986	12.223
25.004	12.258
25.022	12.3273
25.04	12.4305
25.058	12.5684
25.076	12.7425
25.094	12.9522
25.112	13.1949
25.13	13.4678
25.148	13.7733
25.166	14.1093
25.184	14.4716
25.202	14.8588
25.22	15.274
25.238	15.7111
25.256	16.164
25.274	16.636
25.292	17.1256
25.31	17.6265
25.328	18.1356
25.346	18.6572
25.364	19.1863
25.382	19.717
25.4	20.2516
25.418	20.7902
25.436	21.3262
25.454	21.8555
25.472	22.3834
25.49	22.9047
25.508	23.4123
25.526	23.9066
25.544	24.391
25.562	24.8554
25.58	25.2902
25.598	25.7041
25.616	26.092
25.634	26.4407
25.652	26.7431
25.67	27.0104
25.688	27.2312
25.706	27.3915
25.724	27.4928
25.742	27.5402
25.76	27.5206
25.778	27.422
25.796	27.251
25.814	27.0071
25.832	26.6832
25.85	26.2746
25.868	25.7853
25.886	25.2154
25.904	24.5638
25.922	23.8283
25.94	23.0097
25.958	22.1141
25.976	21.1475
25.994	20.1042
26.012	18.987
26.03	17.8078
26.048	16.5768
26.066	15.2831
26.084	13.9343
26.102	12.5441
26.12	11.12
26.138	9.648377
26.156	8.143858
26.174	6.624675
26.192	5.095220
26.21	3.542856
26.228	1.984114
26.246	0.436506
26.264	-1.105609
26.282	-2.648033
26.3	-4.167743
26.318	-5.642300
26.336	-7.084300
26.354	-8.493846
26.372	-9.848978
26.39	-11.1302
26.408	-12.3587
26.426	-13.5245
26.444	-14.5996
26.462	-15.5615
26.48	-16.4346
26.498	-17.207
26.516	-17.8543
26.534	-18.3599
26.552	-18.7483
26.57	-19.0033
26.588	-19.1003
26.606	-19.0256
26.624	-18.8031
26.642	-18.4154
26.66	-17.8396
26.678	-17.0618
26.696	-16.0983
26.714	-14.9457
26.732	-13.5977
26.75	-12.0466
26.768	-10.2918
26.786	-8.349497
26.804	-6.236578
26.822	-3.952739
26.84	-1.475676
26.858	1.155034
26.876	3.896143
26.894	6.737177
26.912	9.724206
26.93	12.7987
26.948	15.8951
26.966	19.1145
26.984	22.7083
27.002	26.1406
27.02	28.8245
27.028	29.543