File: Bakgrunnsmateriale/MATLAB/FTIR/ftir_data/LPE453/Mapping_121/LPE453_t36.asc
PE IR       SPECTRUM    SPECTRUM    ASCII       PEDS        1.60
  -1
LPDF91~1.ASC
17/05/16
17:17:50.00
17/05/16
17:18:16.00
tln
$LPE453_t0036$<tbV0>[7.8,-5.2,8.0,0.0,27,1,0]
27.028
64

2002,4.07
MIRTGS : RIGHTBACK : INTERNAL 2
MIR : ON : INTERNAL 2
OPTKBR

0.200000
8
8.000000
FILLER
RATIO
SPECTRUM
UNLOCKED 256

DOUBLE
64
COMBINED
1
0
0

0.002000
RATIO

1
0
TRUE
51149
0
LEFT NOT FITTED RIGHT NOT FITTED 0
NONE
NONE
15600
12
4.427000
51148
TRUE
1 0 8 72 0 0 0 0

15798

#HDR
-1
-1
#GR
µM
%T
2.38419e-05
0.0
2.000000
0.002000
12515
8
31.4887
-10.6464
#DATA
2.000000	 0.272011
2.018000	 0.347902
2.036000	 -0.235284
2.054000	 0.049380
2.072000	 -0.124747
2.090000	 0.165091
2.108000	 0.041916
2.126000	 0.015959
2.144000	 0.394303
2.162000	 0.623908
2.180000	 0.080251
2.198000	 -1.331828
2.216000	 24.2871
2.234000	 -0.879994
2.252000	 -0.718339
2.270000	 0.422938
2.288000	 0.681398
2.306000	 0.306681
2.324000	 0.233785
2.342000	 -0.010902
2.360000	 0.201267
2.378000	 0.316470
2.396000	 0.239683
2.414000	 -0.020473
2.432000	 0.042439
2.450000	 -0.181166
2.468000	 0.029448
2.486000	 0.174604
2.504000	 0.185848
2.522000	 0.273936
2.540000	 0.349961
2.558000	 0.056272
2.576000	 0.123826
2.594000	 0.047298
2.612000	 0.100590
2.630000	 0.159385
2.648000	 0.109341
2.666000	 0.193664
2.684000	 0.174966
2.702000	 0.089921
2.720000	 0.137366
2.738000	 0.033137
2.756000	 -0.023361
2.774000	 -0.023696
2.792000	 0.090735
2.810000	 0.033785
2.828000	 0.061830
2.846000	 -0.006856
2.864000	 0.096656
2.882000	 0.039030
2.900000	 0.040412
2.918000	 0.069612
2.936000	 0.044325
2.954000	 0.084204
2.972000	 0.104790
2.990000	 0.102552
3.008000	 0.205661
3.026000	 0.079988
3.044000	 -0.024665
3.062000	 0.047440
3.080000	 0.053884
3.098000	 0.085194
3.116000	 0.045750
3.134000	 0.094766
3.152000	 -0.005124
3.170000	 0.165981
3.188000	 0.290846
3.206000	 0.197354
3.224000	 -0.007234
3.242000	 0.023823
3.260000	 0.012982
3.278000	 -0.079524
3.296000	 0.027492
3.314000	 0.034287
3.332000	 0.157604
3.350000	 0.084365
3.368000	 0.088405
3.386000	 0.155443
3.404000	 0.012397
3.422000	 0.165069
3.440000	 0.184947
3.458000	 0.016583
3.476000	 0.082358
3.494000	 0.113710
3.512000	 0.021239
3.530000	 0.131596
3.548000	 0.073381
3.566000	 -0.013066
3.584000	 -0.021664
3.602000	 -0.012766
3.620000	 0.086568
3.638000	 -0.094610
3.656000	 0.087285
3.674000	 -0.022011
3.692000	 0.002005
3.710000	 0.057639
3.728000	 0.054764
3.746000	 -0.009486
3.764000	 0.066211
3.782000	 -0.076059
3.800000	 -0.039440
3.818000	 0.058597
3.836000	 0.034756
3.854000	 0.056209
3.872000	 -0.000306
3.890000	 0.024250
3.908000	 0.069644
3.926000	 0.113806
3.944000	 -0.005158
3.962000	 -0.036586
3.980000	 0.122456
3.998000	 0.128447
4.016000	 0.136129
4.034000	 0.111620
4.052000	 0.064281
4.070000	 -0.020852
4.088000	 0.018689
4.106000	 0.142521
4.124000	 0.017577
4.141999	 -0.049674
4.160000	 0.075049
4.178000	 0.064322
4.196000	 -0.074369
4.214000	 -0.007618
4.232000	 0.056889
4.250000	 0.084758
4.268000	 0.034946
4.286000	 0.054386
4.304000	 0.048625
4.322000	 0.000124
4.340000	 -0.070416
4.358000	 -0.008932
4.375999	 0.054212
4.394000	 -0.086773
4.412000	 0.105584
4.430000	 0.020223
4.448000	 0.083316
4.466000	 0.130873
4.484000	 0.218848
4.502000	 0.259237
4.520000	 0.344654
4.538000	 0.587943
4.556000	 0.790569
4.574000	 0.981232
4.592000	 1.181425
4.609999	 1.502439
4.628000	 1.774647
4.646000	 2.086036
4.664000	 2.351713
4.682000	 2.878318
4.700000	 3.449289
4.718000	 3.965685
4.736000	 4.483965
4.754000	 4.942881
4.772000	 5.631672
4.790000	 6.113898
4.808000	 6.592759
4.826000	 7.339681
4.843999	 8.015611
4.862000	 8.673423
4.880000	 9.466480
4.898000	 10.0264
4.916000	 10.6306
4.934000	 11.2564
4.952000	 11.8509
4.970000	 12.3329
4.988000	 12.8181
5.006000	 13.3577
5.024000	 13.8842
5.042000	 14.4984
5.060000	 14.9635
5.077999	 15.4121
5.096000	 15.803
5.114000	 16.1674
5.132000	 16.5432
5.150000	 16.9651
5.168000	 17.2442
5.186000	 17.4334
5.204000	 17.765
5.222000	 18.1332
5.240000	 18.4347
5.258000	 18.7173
5.276000	 18.9285
5.294000	 19.1695
5.312000	 19.3305
5.330000	 19.536
5.348000	 19.7819
5.366000	 19.9118
5.384000	 20.1483
5.402000	 20.3124
5.420000	 20.3744
5.438000	 20.4608
5.456000	 20.5716
5.474000	 20.7077
5.492000	 20.8733
5.510000	 20.9906
5.528000	 21.081
5.546000	 21.2146
5.564000	 21.253
5.582000	 21.3321
5.600000	 21.4665
5.618000	 21.5254
5.636000	 21.5468
5.654000	 21.5661
5.672000	 21.6212
5.690000	 21.6551
5.708000	 21.7018
5.726000	 21.7219
5.744000	 21.847
5.762000	 21.866
5.780000	 21.9421
5.798000	 21.9536
5.816000	 21.9195
5.834000	 22.1032
5.852000	 22.0793
5.870000	 22.1815
5.888000	 22.2662
5.906000	 22.2516
5.923999	 22.236
5.942000	 22.1787
5.960000	 22.1427
5.978000	 22.1216
5.996000	 22.0826
6.014000	 22.1405
6.032000	 22.1801
6.050000	 22.2013
6.068000	 22.2213
6.086000	 22.2638
6.104000	 22.2572
6.122000	 22.1457
6.140000	 22.0789
6.158000	 22.0921
6.176000	 22.1426
6.194000	 22.2248
6.212000	 22.2392
6.230000	 22.1922
6.248000	 22.158
6.266000	 22.195
6.284000	 22.2235
6.302000	 22.1709
6.320000	 22.1193
6.338000	 22.1037
6.356000	 22.0714
6.374000	 22.0711
6.392000	 22.1139
6.410000	 22.0664
6.428000	 21.9625
6.446000	 21.9847
6.464000	 22.0505
6.482000	 22.0839
6.500000	 22.159
6.518000	 22.1895
6.536000	 22.1801
6.554000	 22.1525
6.572000	 22.0605
6.590000	 22.0131
6.608000	 22.0532
6.626000	 22.0975
6.644000	 22.1122
6.662000	 22.1064
6.680000	 22.0876
6.698000	 21.9983
6.716000	 21.8905
6.734000	 21.9003
6.752000	 21.9658
6.770000	 21.9895
6.788000	 21.9857
6.806000	 21.972
6.824000	 21.9496
6.842000	 21.9522
6.860000	 21.9452
6.878000	 21.8652
6.896000	 21.7987
6.914000	 21.8278
6.932000	 21.8823
6.950000	 21.8657
6.968000	 21.7995
6.986000	 21.7765
7.004000	 21.8017
7.022000	 21.824
7.040000	 21.7963
7.058000	 21.7275
7.076000	 21.6934
7.094000	 21.7012
7.112000	 21.6732
7.130000	 21.6295
7.148000	 21.6572
7.166000	 21.7192
7.184000	 21.7446
7.202000	 21.7524
7.220000	 21.7315
7.238000	 21.6457
7.256000	 21.5674
7.274000	 21.5855
7.292000	 21.6494
7.310000	 21.6676
7.328000	 21.6337
7.346000	 21.5744
7.364000	 21.5086
7.382000	 21.4551
7.400000	 21.4076
7.418000	 21.3699
7.436000	 21.3887
7.454000	 21.484
7.472000	 21.5839
7.490000	 21.5984
7.508000	 21.5549
7.526000	 21.558
7.544000	 21.6156
7.562000	 21.6481
7.580000	 21.6263
7.598000	 21.5763
7.616000	 21.5248
7.634000	 21.4868
7.652000	 21.4447
7.670000	 21.3794
7.688000	 21.332
7.706000	 21.3415
7.724000	 21.3623
7.742000	 21.3402
7.760000	 21.309
7.778000	 21.3209
7.796000	 21.3422
7.814000	 21.3035
7.832000	 21.2156
7.850000	 21.1531
7.868000	 21.1478
7.886000	 21.1731
7.904000	 21.2097
7.922000	 21.2571
7.940000	 21.299
7.958000	 21.3106
7.976000	 21.2885
7.994000	 21.2536
8.012000	 21.2319
8.030000	 21.2328
8.048000	 21.2372
8.065999	 21.219
8.084000	 21.182
8.102000	 21.1606
8.120000	 21.1748
8.138000	 21.2017
8.155999	 21.2026
8.173999	 21.1726
8.192000	 21.1385
8.210000	 21.1131
8.228000	 21.0861
8.246000	 21.0554
8.263999	 21.031
8.282000	 21.0082
8.300000	 20.9748
8.318000	 20.9379
8.336000	 20.9131
8.353999	 20.9038
8.372000	 20.9092
8.390000	 20.9296
8.408000	 20.9538
8.426000	 20.9592
8.443999	 20.9357
8.462000	 20.8996
8.480000	 20.8766
8.498000	 20.8784
8.516000	 20.8932
8.533999	 20.8919
8.552000	 20.8518
8.570000	 20.7837
8.588000	 20.73
8.606000	 20.7258
8.624000	 20.7567
8.641999	 20.7716
8.660000	 20.7375
8.678000	 20.6748
8.696000	 20.632
8.714000	 20.6307
8.731999	 20.6474
8.750000	 20.6436
8.768000	 20.6014
8.786000	 20.5304
8.804000	 20.4553
8.821999	 20.4036
8.840000	 20.3932
8.858000	 20.4194
8.876000	 20.458
8.894000	 20.4872
8.911999	 20.5032
8.930000	 20.5104
8.948000	 20.5068
8.966000	 20.4939
8.984000	 20.4943
9.001999	 20.5338
9.020000	 20.595
9.038000	 20.6145
9.056000	 20.5477
9.074000	 20.4309
9.092000	 20.3518
9.109999	 20.3557
9.128000	 20.3951
9.146000	 20.3825
9.164000	 20.2883
9.182000	 20.1707
9.199999	 20.1134
9.218000	 20.1477
9.236000	 20.2369
9.254000	 20.323
9.272000	 20.3735
9.289999	 20.3857
9.308000	 20.3629
9.326000	 20.3028
9.344000	 20.2099
9.362000	 20.1095
9.379999	 20.0378
9.398000	 20.0143
9.416000	 20.0258
9.434000	 20.0383
9.452000	 20.0275
9.469999	 19.9961
9.488000	 19.966
9.506000	 19.9564
9.524000	 19.9696
9.542000	 19.9936
9.560000	 20.0124
9.577999	 20.0129
9.596000	 19.9863
9.614000	 19.9306
9.632000	 19.8533
9.650000	 19.7685
9.667999	 19.6919
9.686000	 19.6366
9.704000	 19.6099
9.722000	 19.6096
9.740000	 19.6224
9.757999	 19.6297
9.776000	 19.6202
9.794000	 19.5995
9.812000	 19.5842
9.830000	 19.584
9.847999	 19.5888
9.866000	 19.5762
9.884000	 19.5344
9.902000	 19.4749
9.920000	 19.4242
9.937999	 19.4008
9.956000	 19.3996
9.974000	 19.3997
9.992000	 19.3841
10.01	19.3536
10.028	19.3217
10.046	19.2976
10.064	19.2768
10.082	19.2486
10.1	19.2117
10.118	19.1834
10.136	19.1873
10.154	19.2323
10.172	19.3012
10.19	19.3574
10.208	19.369
10.226	19.3286
10.244	19.2552
10.262	19.1813
10.28	19.1306
10.298	19.1077
10.316	19.0999
10.334	19.0905
10.352	19.0702
10.37	19.0407
10.388	19.0089
10.406	18.979
10.424	18.9483
10.442	18.9104
10.46	18.8634
10.478	18.814
10.496	18.7756
10.514	18.7587
10.532	18.7636
10.55	18.7785
10.568	18.7871
10.586	18.7773
10.604	18.7486
10.622	18.7098
10.64	18.6716
10.658	18.6403
10.676	18.6152
10.694	18.5922
10.712	18.5679
10.73	18.5422
10.748	18.5168
10.766	18.4945
10.784	18.4769
10.802	18.4659
10.82	18.463
10.838	18.4686
10.856	18.4797
10.874	18.4884
10.892	18.4844
10.91	18.4588
10.928	18.4105
10.946	18.3475
10.964	18.2845
10.982	18.2374
11	18.215
11.018	18.2164
11.036	18.2314
11.054	18.2443
11.072	18.242
11.09	18.2184
11.108	18.1761
11.126	18.1247
11.144	18.0752
11.162	18.0362
11.18	18.0096
11.198	17.991
11.216	17.9726
11.234	17.9481
11.252	17.9146
11.27	17.875
11.288	17.8352
11.306	17.8013
11.324	17.7773
11.342	17.7642
11.36	17.7599
11.378	17.7605
11.396	17.7615
11.414	17.7596
11.432	17.753
11.45	17.7416
11.468	17.7261
11.486	17.7073
11.504	17.685
11.522	17.6585
11.54	17.6265
11.558	17.5893
11.576	17.5488
11.594	17.5084
11.612	17.4726
11.63	17.4444
11.648	17.424
11.666	17.4088
11.684	17.395
11.702	17.3798
11.72	17.3622
11.738	17.3439
11.756	17.327
11.774	17.3135
11.792	17.3025
11.81	17.2908
11.828	17.2741
11.846	17.248
11.864	17.211
11.882	17.1647
11.9	17.1142
11.918	17.0668
11.936	17.0308
11.954	17.0135
11.972	17.0204
11.99	17.0523
12.008	17.1046
12.026	17.1679
12.044	17.2294
12.062	17.2763
12.08	17.2999
12.098	17.2976
12.116	17.2727
12.134	17.2337
12.152	17.1901
12.17	17.1495
12.188	17.116
12.206	17.0899
12.224	17.069
12.242	17.0512
12.26	17.0353
12.278	17.0218
12.296	17.0113
12.314	17.0035
12.332	16.9961
12.35	16.9855
12.368	16.968
12.386	16.9409
12.404	16.9037
12.422	16.8584
12.44	16.8081
12.458	16.7564
12.476	16.7066
12.494	16.6606
12.512	16.6194
12.53	16.5838
12.548	16.5548
12.566	16.5331
12.584	16.519
12.602	16.5117
12.62	16.5086
12.638	16.5056
12.656	16.4979
12.674	16.4812
12.692	16.4536
12.71	16.4158
12.728	16.3715
12.746	16.3258
12.764	16.2839
12.782	16.2491
12.8	16.2218
12.818	16.1994
12.836	16.1777
12.854	16.152
12.872	16.1189
12.89	16.077
12.908	16.0277
12.926	15.9746
12.944	15.9228
12.962	15.8774
12.98	15.8422
12.998	15.8196
13.016	15.8101
13.034	15.8124
13.052	15.8239
13.07	15.8409
13.088	15.8595
13.106	15.8759
13.124	15.8872
13.142	15.8914
13.16	15.8878
13.178	15.8765
13.196	15.8589
13.214	15.8356
13.232	15.8068
13.25	15.7712
13.268	15.7272
13.286	15.6729
13.304	15.6076
13.322	15.5328
13.34	15.4527
13.358	15.3743
13.376	15.3062
13.394	15.2566
13.412	15.2314
13.43	15.2325
13.448	15.2569
13.466	15.2972
13.484	15.343
13.502	15.3833
13.52	15.4084
13.538	15.4129
13.556	15.3957
13.574	15.3606
13.592	15.3146
13.61	15.2663
13.628	15.2238
13.646	15.193
13.664	15.177
13.682	15.1757
13.7	15.1863
13.718	15.2054
13.736	15.2289
13.754	15.2537
13.772	15.2771
13.79	15.2968
13.808	15.3109
13.826	15.3168
13.844	15.312
13.862	15.2942
13.88	15.2621
13.898	15.2158
13.916	15.1574
13.934	15.0908
13.952	15.0212
13.97	14.9545
13.988	14.8963
14.006	14.8508
14.024	14.8201
14.042	14.8041
14.06	14.8004
14.078	14.8055
14.096	14.8153
14.114	14.8261
14.132	14.8346
14.15	14.8388
14.168	14.8375
14.186	14.8305
14.204	14.8182
14.222	14.801
14.24	14.7793
14.258	14.7534
14.276	14.7235
14.294	14.6901
14.312	14.6535
14.33	14.6145
14.348	14.5735
14.366	14.5314
14.384	14.4888
14.402	14.4471
14.42	14.4072
14.438	14.3701
14.456	14.3368
14.474	14.3079
14.492	14.2839
14.51	14.2654
14.528	14.2522
14.546	14.2436
14.564	14.2387
14.582	14.2359
14.6	14.2337
14.618	14.2302
14.636	14.2236
14.654	14.2128
14.672	14.1971
14.69	14.1765
14.708	14.152
14.726	14.125
14.744	14.0977
14.762	14.0724
14.78	14.0511
14.798	14.035
14.816	14.0253
14.834	14.0217
14.852	14.0231
14.87	14.0271
14.888	14.0309
14.906	14.0311
14.924	14.0242
14.942	14.0068
14.96	13.9769
14.978	13.9336
14.996	13.8776
15.014	13.8106
15.032	13.7365
15.05	13.66
15.068	13.5864
15.086	13.5204
15.104	13.467
15.122	13.4303
15.14	13.412
15.158	13.4123
15.176	13.4301
15.194	13.4624
15.212	13.5047
15.23	13.5523
15.248	13.6006
15.266	13.6451
15.284	13.6815
15.302	13.7076
15.32	13.7219
15.338	13.724
15.356	13.7148
15.374	13.6959
15.392	13.6695
15.41	13.6374
15.428	13.602
15.446	13.5653
15.464	13.5289
15.482	13.494
15.5	13.4615
15.518	13.432
15.536	13.4053
15.554	13.3814
15.572	13.3599
15.59	13.3403
15.608	13.3222
15.626	13.305
15.644	13.2887
15.662	13.2727
15.68	13.2572
15.698	13.2426
15.716	13.2295
15.734	13.2191
15.752	13.212
15.77	13.209
15.788	13.2111
15.806	13.2182
15.824	13.2301
15.842	13.2462
15.86	13.2649
15.878	13.2844
15.896	13.303
15.914	13.3182
15.932	13.3281
15.95	13.3317
15.968	13.3279
15.986	13.3169
16.004	13.2996
16.022	13.2771
16.04	13.252
16.058	13.2263
16.076	13.2019
16.094	13.1812
16.112	13.165
16.13	13.1539
16.148	13.1481
16.166	13.1462
16.184	13.1465
16.202	13.1474
16.22	13.1454
16.238	13.1385
16.256	13.1249
16.274	13.102
16.292	13.069
16.31	13.0252
16.328	12.9704
16.346	12.9056
16.364	12.8315
16.382	12.7501
16.4	12.6635
16.418	12.5735
16.436	12.483
16.454	12.3943
16.472	12.3093
16.49	12.2308
16.508	12.1606
16.526	12.1
16.544	12.0508
16.562	12.0134
16.58	11.9884
16.598	11.9752
16.616	11.9729
16.634	11.9808
16.652	11.9962
16.67	12.0176
16.688	12.0433
16.706	12.0705
16.724	12.0983
16.742	12.1253
16.76	12.1508
16.778	12.1745
16.796	12.1967
16.814	12.2181
16.832	12.2394
16.85	12.2617
16.868	12.2856
16.886	12.3118
16.904	12.3401
16.922	12.37
16.94	12.4009
16.958	12.4307
16.976	12.4583
16.994	12.4812
17.012	12.4977
17.03	12.5062
17.048	12.505
17.066	12.4937
17.084	12.4716
17.102	12.4397
17.12	12.3985
17.138	12.3502
17.156	12.2967
17.174	12.2399
17.192	12.1833
17.21	12.1282
17.228	12.0776
17.246	12.0329
17.264	11.9956
17.282	11.9669
17.3	11.9469
17.318	11.9361
17.336	11.934
17.354	11.9404
17.372	11.9535
17.39	11.9726
17.408	11.9957
17.426	12.0212
17.444	12.0479
17.462	12.0737
17.48	12.098
17.498	12.1185
17.516	12.1346
17.534	12.1453
17.552	12.1499
17.57	12.1481
17.588	12.1397
17.606	12.1252
17.624	12.1048
17.642	12.0793
17.66	12.0492
17.678	12.0159
17.696	11.9797
17.714	11.9417
17.732	11.9025
17.75	11.8631
17.768	11.8237
17.786	11.7844
17.804	11.7457
17.822	11.7073
17.84	11.6688
17.858	11.6296
17.876	11.5895
17.894	11.5473
17.912	11.5029
17.93	11.4551
17.948	11.404
17.966	11.3488
17.984	11.2897
18.002	11.2266
18.02	11.1602
18.038	11.0908
18.056	11.02
18.074	10.9482
18.092	10.8781
18.11	10.8103
18.128	10.7482
18.146	10.6925
18.164	10.6465
18.182	10.6113
18.2	10.5891
18.218	10.5812
18.236	10.5886
18.254	10.612
18.272	10.6517
18.29	10.7065
18.308	10.7762
18.326	10.8579
18.344	10.9509
18.362	11.0509
18.38	11.1566
18.398	11.2635
18.416	11.3693
18.434	11.4702
18.452	11.5636
18.47	11.6469
18.488	11.7177
18.506	11.7747
18.524	11.8167
18.542	11.8431
18.56	11.8547
18.578	11.8513
18.596	11.8352
18.614	11.8067
18.632	11.7695
18.65	11.7239
18.668	11.674
18.686	11.6202
18.704	11.5667
18.722	11.5137
18.74	11.4645
18.758	11.4193
18.776	11.3803
18.794	11.3474
18.812	11.3217
18.83	11.3029
18.848	11.2913
18.866	11.2862
18.884	11.2869
18.902	11.2928
18.92	11.3026
18.938	11.3154
18.956	11.3298
18.974	11.3447
18.992	11.3588
19.01	11.371
19.028	11.38
19.046	11.385
19.064	11.3848
19.082	11.3792
19.1	11.3672
19.118	11.349
19.136	11.3243
19.154	11.2936
19.172	11.2574
19.19	11.2164
19.208	11.1721
19.226	11.125
19.244	11.0774
19.262	11.0297
19.28	10.9844
19.298	10.9416
19.316	10.9036
19.334	10.8704
19.352	10.8434
19.37	10.8226
19.388	10.8079
19.406	10.7995
19.424	10.796
19.442	10.7976
19.46	10.8023
19.478	10.8101
19.496	10.8188
19.514	10.8279
19.532	10.8359
19.55	10.8418
19.568	10.8449
19.586	10.8441
19.604	10.8395
19.622	10.8305
19.64	10.8172
19.658	10.8
19.676	10.779
19.694	10.7549
19.712	10.7277
19.73	10.6986
19.748	10.6677
19.766	10.6357
19.784	10.6029
19.802	10.5698
19.82	10.5368
19.838	10.5038
19.856	10.471
19.874	10.4385
19.892	10.4063
19.91	10.3743
19.928	10.3429
19.946	10.3119
19.964	10.2817
19.982	10.2522
20	10.2239
20.018	10.1969
20.036	10.1716
20.054	10.1484
20.072	10.1272
20.09	10.1087
20.108	10.0927
20.126	10.0793
20.144	10.0685
20.162	10.06
20.18	10.0536
20.198	10.0489
20.216	10.0453
20.234	10.0428
20.252	10.0404
20.27	10.0381
20.288	10.0354
20.306	10.032
20.324	10.0279
20.342	10.0229
20.36	10.017
20.378	10.0101
20.396	10.0023
20.414	9.993886
20.432	9.984779
20.45	9.975597
20.468	9.966490
20.486	9.957741
20.504	9.950065
20.522	9.943308
20.54	9.937992
20.558	9.934090
20.576	9.931741
20.594	9.931061
20.612	9.931990
20.63	9.934602
20.648	9.938872
20.666	9.944361
20.684	9.951184
20.702	9.958816
20.72	9.967036
20.738	9.975675
20.756	9.983772
20.774	9.991568
20.792	9.998091
20.81	10.0033
20.828	10.0068
20.846	10.0075
20.864	10.0059
20.882	10.0009
20.9	9.992803
20.918	9.981052
20.936	9.965246
20.954	9.945501
20.972	9.921381
20.99	9.892955
21.008	9.860180
21.026	9.822912
21.044	9.781375
21.062	9.735874
21.08	9.686292
21.098	9.633358
21.116	9.577041
21.134	9.517813
21.152	9.456599
21.17	9.393086
21.188	9.328725
21.206	9.263462
21.224	9.198053
21.242	9.134000
21.26	9.070794
21.278	9.010229
21.296	8.952318
21.314	8.897763
21.332	8.848234
21.35	8.803102
21.368	8.764388
21.386	8.732304
21.404	8.707337
21.422	8.691500
21.44	8.684149
21.458	8.686678
21.476	8.699710
21.494	8.723030
21.512	8.757672
21.53	8.803598
21.548	8.860420
21.566	8.928233
21.584	9.006825
21.602	9.094669
21.62	9.192383
21.638	9.298228
21.656	9.410214
21.674	9.529233
21.692	9.651623
21.71	9.777012
21.728	9.904614
21.746	10.0304
21.764	10.1556
21.782	10.2772
21.8	10.3928
21.818	10.5034
21.836	10.6057
21.854	10.6996
21.872	10.7846
21.89	10.8584
21.908	10.9218
21.926	10.9739
21.944	11.0143
21.962	11.0432
21.98	11.0606
21.998	11.0663
22.016	11.0608
22.034	11.0448
22.052	11.018
22.07	10.9816
22.088	10.9361
22.106	10.8813
22.124	10.8192
22.142	10.75
22.16	10.6741
22.178	10.5934
22.196	10.5074
22.214	10.4174
22.232	10.3253
22.25	10.2304
22.268	10.1343
22.286	10.0383
22.304	9.941626
22.322	9.846525
22.34	9.753134
22.358	9.661550
22.376	9.573384
22.394	9.488286
22.412	9.406763
22.43	9.329874
22.448	9.257359
22.466	9.189157
22.484	9.125450
22.502	9.066223
22.52	9.010713
22.538	8.958883
22.556	8.910691
22.574	8.864478
22.592	8.820291
22.61	8.777865
22.628	8.735470
22.646	8.693473
22.664	8.651315
22.682	8.607570
22.7	8.562476
22.718	8.516009
22.736	8.467779
22.754	8.417661
22.772	8.366469
22.79	8.314572
22.808	8.261398
22.826	8.209122
22.844	8.158826
22.862	8.109633
22.88	8.064396
22.898	8.024134
22.916	7.988047
22.934	7.959241
22.952	7.938482
22.97	7.925162
22.988	7.921947
23.006	7.929529
23.024	7.947252
23.042	7.976060
23.06	8.016539
23.078	8.067944
23.096	8.129235
23.114	8.201388
23.132	8.283085
23.15	8.370819
23.168	8.465904
23.186	8.566648
23.204	8.667648
23.222	8.770429
23.24	8.873209
23.258	8.969583
23.276	9.060599
23.294	9.145314
23.312	9.218377
23.33	9.280480
23.348	9.331171
23.366	9.366365
23.384	9.386357
23.402	9.391147
23.42	9.377932
23.438	9.345876
23.456	9.296159
23.474	9.229333
23.492	9.144245
23.51	9.042073
23.528	8.926975
23.546	8.798811
23.564	8.657419
23.582	8.509228
23.6	8.355836
23.618	8.195362
23.636	8.034726
23.654	7.876917
23.672	7.718881
23.69	7.567348
23.708	7.426733
23.726	7.293425
23.744	7.172382
23.762	7.068155
23.78	6.978001
23.798	6.904201
23.816	6.849874
23.834	6.814132
23.852	6.796767
23.87	6.798376
23.888	6.820149
23.906	6.860066
23.924	6.915005
23.942	6.986321
23.96	7.072963
23.978	7.169104
23.996	7.273584
24.014	7.388278
24.032	7.506621
24.05	7.624713
24.068	7.746129
24.086	7.865967
24.104	7.979531
24.122	8.089883
24.14	8.194232
24.158	8.288133
24.176	8.372200
24.194	8.446852
24.212	8.510636
24.23	8.562435
24.248	8.603247
24.266	8.634842
24.284	8.657518
24.302	8.669862
24.32	8.676289
24.338	8.680562
24.356	8.678750
24.374	8.675667
24.392	8.678518
24.41	8.685411
24.428	8.696794
24.446	8.719216
24.464	8.755144
24.482	8.801437
24.5	8.862618
24.518	8.942894
24.536	9.040993
24.554	9.155631
24.572	9.286102
24.59	9.434441
24.608	9.598632
24.626	9.773715
24.644	9.959429
24.662	10.159
24.68	10.3616
24.698	10.5578
24.716	10.7558
24.734	10.948
24.752	11.1216
24.77	11.2786
24.788	11.4209
24.806	11.5333
24.824	11.6059
24.842	11.6491
24.86	11.6525
24.878	11.6033
24.896	11.5052
24.914	11.3585
24.932	11.1542
24.95	10.8867
24.968	10.5609
24.986	10.1757
25.004	9.729224
25.022	9.219103
25.04	8.649490
25.058	8.026521
25.076	7.350697
25.094	6.617739
25.112	5.840245
25.13	5.030377
25.148	4.177638
25.166	3.289936
25.184	2.386152
25.202	1.472836
25.22	0.537710
25.238	-0.399889
25.256	-1.319965
25.274	-2.233885
25.292	-3.137019
25.31	-4.008974
25.328	-4.838726
25.346	-5.640379
25.364	-6.400221
25.382	-7.101963
25.4	-7.749314
25.418	-8.344706
25.436	-8.876868
25.454	-9.337064
25.472	-9.732098
25.49	-10.0596
25.508	-10.3149
25.526	-10.4966
25.544	-10.6075
25.562	-10.6464
25.58	-10.6124
25.598	-10.5046
25.616	-10.3251
25.634	-10.077
25.652	-9.761151
25.67	-9.374823
25.688	-8.923457
25.706	-8.413321
25.724	-7.842269
25.742	-7.209082
25.76	-6.524327
25.778	-5.797374
25.796	-5.018038
25.814	-4.193503
25.832	-3.339933
25.85	-2.466256
25.868	-1.557434
25.886	-0.629808
25.904	0.296159
25.922	1.219929
25.94	2.153095
25.958	3.071403
25.976	3.950516
25.994	4.802263
26.012	5.626897
26.03	6.400945
26.048	7.104408
26.066	7.754231
26.084	8.343207
26.102	8.853508
26.12	9.273086
26.138	9.614076
26.156	9.872110
26.174	10.0401
26.192	10.1134
26.21	10.0959
26.228	9.991545
26.246	9.804089
26.264	9.527679
26.282	9.162992
26.3	8.726365
26.318	8.233609
26.336	7.669956
26.354	7.040314
26.372	6.371919
26.39	5.689182
26.408	4.968677
26.426	4.221025
26.444	3.476956
26.462	2.761131
26.48	2.046351
26.498	1.347360
26.516	0.693169
26.534	0.104819
26.552	-0.440988
26.57	-0.932916
26.588	-1.351724
26.606	-1.684135
26.624	-1.943255
26.642	-2.126249
26.66	-2.227421
26.678	-2.241249
26.696	-2.168608
26.714	-2.017186
26.732	-1.794873
26.75	-1.502311
26.768	-1.129252
26.786	-0.692598
26.804	-0.211075
26.822	0.309383
26.84	0.886604
26.858	1.500425
26.876	2.128143
26.894	2.759867
26.912	3.414483
26.93	4.077365
26.948	4.731364
26.966	5.391395
26.984	6.106282
27.002	6.779121
27.02	7.303351
27.028	7.444787