File: Bakgrunnsmateriale/MATLAB/FTIR/ftir_data/LPE453/Mapping_121/LPE453_t53_cm-1.asc
PE IR       SPECTRUM    SPECTRUM    ASCII       PEDS        1.60
  -1
LPD9D0~1.ASC
17/05/16
18:43:10.00
17/05/16
18:43:10.00
tln
$LPE453_t0053$<tbV0>[-7.8,-2.6,8.0,0.0,27,1,0]
370
64

2002,4.07
MIRTGS : RIGHTBACK : INTERNAL 2
MIR : ON : INTERNAL 2
OPTKBR

0.200000
8
8.000000
FILLER
RATIO
SPECTRUM
UNLOCKED 256

DOUBLE
64
COMBINED
1
0
0

1.000000
RATIO

1
0
TRUE
51149
0
LEFT NOT FITTED RIGHT NOT FITTED 0
NONE
NONE
15600
12
4.427000
51148
TRUE
1 0 8 72 0 0 0 0

15798

#HDR
-1
-1
#GR
CM-1
%T
2.38419e-05
0.0
5000
-1.000000
4631
8
37.9348
-10.5479
#DATA
5000	-0.433468
4996	-0.242400
4992	0.057077
4988	0.289082
4984	0.382399
4980	0.254607
4976	0.026893
4972	-0.040340
4968	0.104498
4964	0.231194
4960	0.297999
4956	0.391077
4952	0.267863
4948	-0.023603
4944	0.049996
4940	0.354766
4936	0.413942
4932	0.330305
4928	0.149941
4924	-0.109648
4920	-0.104880
4916	0.221490
4912	0.431823
4908	0.526714
4904	0.662636
4900	0.479173
4896	0.014448
4892	-0.271749
4888	-0.231337
4884	-0.028586
4880	0.210952
4876	0.392198
4872	0.389289
4868	0.284552
4864	0.166869
4860	-0.041723
4856	-0.085020
4852	0.037407
4848	-0.052571
4844	-0.369048
4840	-0.559926
4836	-0.302720
4832	0.074791
4828	0.231885
4824	0.332808
4820	0.421619
4816	0.306224
4812	0.153160
4808	0.046300
4804	-0.102448
4800	-0.145006
4796	-0.007009
4792	0.071668
4788	0.083589
4784	0.201249
4780	0.230741
4776	0.183010
4772	0.059914
4768	-0.076293
4764	-0.104284
4760	-0.155639
4756	-0.138640
4752	-0.022530
4748	0.161433
4744	0.333547
4740	0.349569
4736	0.175166
4732	-0.050044
4728	-0.205564
4724	-0.265169
4720	-0.111603
4716	0.373935
4712	0.776314
4708	0.752329
4704	0.569224
4700	0.525712
4696	0.447678
4692	-0.004625
4688	-0.519156
4684	-0.620007
4680	-0.503969
4676	-0.412702
4672	-0.155615
4668	0.605964
4664	1.432108
4660	1.452660
4656	1.598525
4652	2.114200
4648	1.724219
4644	1.310038
4640	1.613736
4636	1.420593
4632	0.701093
4628	0.588011
4624	0.722742
4620	0.114107
4616	-0.582027
4612	-0.341463
4608	0.328969
4604	0.239610
4600	-0.122618
4596	0.083398
4592	-0.257754
4588	-0.974106
4584	-0.432348
4580	0.438046
4576	0.663709
4572	0.871825
4568	0.987935
4564	0.737595
4560	0.264382
4556	-0.155925
4552	-0.190639
4548	-0.073146
4544	-0.280737
4540	-0.826644
4536	-1.107978
4532	-0.363755
4528	0.648045
4524	1.194834
4520	1.345586
4516	1.389575
4512	1.291966
4508	2.736902
4504	0.660300
4500	-7.531642
4496	-9.889888
4492	2.024054
4488	16.9047
4484	14.219
4480	4.018473
4476	1.644921
4472	0.707030
4468	-0.538039
4464	-0.776267
4460	-0.550580
4456	-0.042104
4452	-0.050210
4448	-0.546193
4444	-0.551962
4440	-0.034403
4436	0.245094
4432	0.097656
4428	-0.346636
4424	-0.635290
4420	-0.410652
4416	-0.327253
4412	-0.470066
4408	-0.193834
4404	0.227475
4400	0.222229
4396	-0.006556
4392	-0.291848
4388	-0.502324
4384	-0.415515
4380	-0.204586
4376	0.001692
4372	0.260972
4368	0.355815
4364	0.217723
4360	0.123834
4356	0.024867
4352	-0.145602
4348	-0.208878
4344	-0.071835
4340	0.092816
4336	0.156164
4332	0.223302
4328	0.264883
4324	0.211334
4320	0.128579
4316	0.105524
4312	-0.071835
4308	-0.303554
4304	-0.125026
4300	0.204706
4296	0.195455
4292	0.139498
4288	0.292325
4284	0.403547
4280	0.330853
4276	0.092720
4272	-0.065374
4268	-0.031113
4264	-0.059604
4260	-0.109004
4256	0.004935
4252	0.198459
4248	0.252127
4244	0.127983
4240	0.055670
4236	0.161457
4232	0.304293
4228	0.185203
4224	-0.185084
4220	-0.394654
4216	-0.323295
4212	-0.228691
4208	-0.229191
4204	-0.222277
4200	-0.090813
4196	0.100207
4192	0.203299
4188	0.208950
4184	0.077223
4180	-0.061345
4176	0.135993
4172	0.208950
4168	-0.163936
4164	-0.207376
4160	0.029158
4156	0.050306
4152	0.018954
4148	0.089502
4144	0.124311
4140	0.024461
4136	-0.090312
4132	-0.098085
4128	0.012683
4124	0.117945
4120	0.128316
4116	0.139904
4112	0.117015
4108	0.012469
4104	-0.001502
4100	0.066351
4096	0.071573
4092	0.028061
4088	0.019764
4084	0.068449
4080	0.147581
4076	0.167441
4072	0.114798
4068	0.089979
4064	0.081372
4060	0.029706
4056	-0.076460
4052	-0.091743
4048	0.047707
4044	0.132274
4040	0.086450
4036	0.025725
4032	-0.013637
4028	-0.020432
4024	0.017070
4020	0.033497
4016	0.008988
4012	-0.041961
4008	-0.062513
4004	0.073766
4000	0.238442
3996	0.165653
3992	0.009679
3988	-0.011682
3984	-0.025129
3980	-0.037336
3976	-0.008988
3972	0.012373
3968	0.043082
3964	0.057005
3960	0.064969
3956	0.058341
3952	0.093722
3948	0.117540
3944	-0.028085
3940	-0.085854
3936	0.051355
3932	0.157761
3928	0.115275
3924	-0.021982
3920	-0.049948
3916	-0.020003
3912	-0.043463
3908	-0.044369
3904	-0.048923
3900	-0.023770
3896	0.037002
3892	0.041627
3888	0.013041
3884	0.030016
3880	0.108933
3876	0.100827
3872	-0.019574
3868	-0.042581
3864	0.019240
3860	0.046372
3856	0.099611
3852	0.210857
3848	0.352025
3844	0.464439
3840	0.333452
3836	0.054049
3832	-0.037217
3828	-0.035953
3824	-0.077390
3820	-0.055289
3816	-0.004506
3812	-0.022411
3808	-0.050544
3804	-0.067901
3800	-0.032615
3796	0.028324
3792	-0.015735
3788	-0.054788
3784	0.037550
3780	0.111103
3776	0.031423
3772	-0.000643
3768	0.144314
3764	0.205731
3760	0.059652
3756	-0.083565
3752	-0.053215
3748	0.105500
3744	0.200724
3740	0.173568
3736	0.189375
3732	0.298666
3728	0.336217
3724	0.250220
3720	0.147128
3716	0.056695
3712	-0.008225
3708	-0.011038
3704	0.002002
3700	-0.016689
3696	-0.049448
3692	-0.026416
3688	0.024795
3684	0.053453
3680	0.125169
3676	0.162959
3672	0.067520
3668	-0.053787
3664	-0.040769
3660	0.059199
3656	0.080800
3652	0.022530
3648	-0.041747
3644	-0.054430
3640	-0.029349
3636	-0.031590
3632	-0.027346
3628	0.030398
3624	0.021100
3620	-0.077319
3616	-0.084519
3612	-0.001621
3608	0.079512
3604	0.126147
3600	0.130963
3596	0.159263
3592	0.126481
3588	0.021648
3584	-0.009107
3580	0.002169
3576	-0.012660
3572	-0.012063
3568	0.014781
3564	-0.027155
3560	-0.058746
3556	0.000739
3552	0.015974
3548	0.018548
3544	0.034785
3540	0.014233
3536	0.036692
3532	0.075960
3528	0.076866
3524	0.077390
3520	0.093817
3516	0.096106
3512	0.062561
3508	0.010704
3504	-0.027203
3500	-0.053524
3496	-0.064826
3492	0.006484
3488	0.104212
3484	0.120997
3480	0.062632
3476	0.002264
3472	-0.014305
3468	0.044107
3464	0.156641
3460	0.160574
3456	0.046372
3452	-0.017166
3448	0.005602
3444	0.062370
3440	0.146245
3436	0.136590
3432	0.047969
3428	0.039291
3424	0.057363
3420	0.052738
3416	0.065350
3412	0.078630
3408	0.081992
3404	0.119614
3400	0.128793
3396	0.085854
3392	0.076293
3388	0.113105
3384	0.109672
3380	-0.004100
3376	-0.118088
3372	-0.148987
3368	-0.097203
3364	0.045228
3360	0.162029
3356	0.105166
3352	-0.024104
3348	-0.052380
3344	-0.039172
3340	-0.047373
3336	-0.003957
3332	0.070118
3328	0.104618
3324	0.149297
3320	0.219988
3316	0.229668
3312	0.132870
3308	0.012302
3304	-0.034213
3300	-0.009870
3296	0.035429
3292	0.071287
3288	0.093650
3284	0.104999
3280	0.107121
3276	0.083231
3272	0.045251
3268	0.047898
3264	0.045680
3260	-0.008177
3256	-0.026893
3252	0.026273
3248	0.104093
3244	0.185203
3240	0.191831
3236	0.121378
3232	0.065708
3228	-0.008153
3224	-0.039219
3220	0.035047
3216	0.070047
3212	0.027465
3208	-0.017189
3204	-0.044441
3200	-0.046133
3196	-0.000143
3192	0.046443
3188	0.013375
3184	-0.083947
3180	-0.167083
3176	-0.183701
3172	-0.151109
3168	-0.082683
3164	0.065374
3160	0.216865
3156	0.166869
3152	-0.038719
3148	-0.117063
3144	-0.054240
3140	0.037169
3136	0.097584
3132	0.132346
3128	0.183510
3124	0.173258
3120	0.080704
3116	0.047826
3112	0.094413
3108	0.047063
3104	-0.113916
3100	-0.213956
3096	-0.201845
3092	-0.139617
3088	-0.046682
3084	0.009965
3080	-0.018429
3076	-0.032377
3072	0.020956
3068	0.047588
3064	-0.007891
3060	-0.054717
3056	-0.056481
3052	-0.046038
3048	0.045824
3044	0.136399
3040	0.097918
3036	0.031471
3032	-0.030136
3028	-0.089812
3024	-0.042200
3020	0.061702
3016	0.083804
3012	0.021076
3008	-0.052976
3004	-0.052118
3000	0.057697
2996	0.175404
2992	0.187253
2988	0.137519
2984	0.059509
2980	-0.010752
2976	0.031495
2972	0.078654
2968	0.044631
2964	0.019407
2960	0.031590
2956	0.115489
2952	0.187635
2948	0.138401
2944	0.065493
2940	-0.005269
2936	-0.049781
2932	0.019812
2928	0.120925
2924	0.106406
2920	-0.021672
2916	-0.075626
2912	0.004053
2908	0.087451
2904	0.087141
2900	0.002789
2896	-0.076031
2892	-0.064396
2888	-0.000071
2884	0.062727
2880	0.133466
2876	0.173997
2872	0.097775
2868	0.023794
2864	0.090122
2860	0.177168
2856	0.150752
2852	0.074934
2848	0.072526
2844	0.095248
2840	0.101447
2836	0.108242
2832	0.088000
2828	0.063014
2824	0.044035
2820	0.041079
2816	0.072336
2812	0.090432
2808	0.065302
2804	0.026106
2800	-0.014042
2796	-0.011515
2792	0.032639
2788	0.063109
2784	0.068926
2780	0.043439
2776	0.055742
2772	0.105905
2768	0.105834
2764	0.051307
2760	-0.009083
2756	0.037288
2752	0.103688
2748	0.062012
2744	0.015425
2740	0.029397
2736	0.080919
2732	0.063371
2728	-0.031352
2724	-0.059032
2720	-0.043296
2716	-0.025653
2712	-0.006294
2708	-0.016069
2704	-0.012922
2700	0.035786
2696	0.047302
2692	0.025200
2688	0.039148
2684	0.091218
2680	0.111317
2676	0.096321
2672	0.092172
2668	0.045967
2664	0.005316
2660	0.045013
2656	0.058698
2652	0.014233
2648	0.000715
2644	0.034546
2640	0.067663
2636	0.053262
2632	-0.006484
2628	0.009179
2624	0.112986
2620	0.155949
2616	0.141739
2612	0.149941
2608	0.166606
2604	0.141882
2600	0.092506
2596	0.074434
2592	0.052547
2588	0.024533
2584	0.070261
2580	0.132751
2576	0.146675
2572	0.156021
2568	0.158715
2564	0.167465
2560	0.142955
2556	0.060987
2552	-0.000858
2548	-0.017762
2544	-0.009536
2540	-0.027680
2536	-0.063204
2532	-0.049686
2528	-0.026464
2524	-0.030922
2520	-0.025343
2516	-0.014209
2512	0.010251
2508	0.077772
2504	0.141596
2500	0.128173
2496	0.094628
2492	0.122022
2488	0.171470
2484	0.160503
2480	0.064802
2476	-0.009489
2472	0.003194
2468	0.058364
2464	0.085687
2460	0.055670
2456	0.061035
2452	0.095891
2448	0.047183
2444	-0.016951
2440	-0.028085
2436	-0.067329
2432	-0.060367
2428	0.011658
2424	0.004386
2420	0.018739
2416	0.065660
2412	0.052428
2408	0.083160
2404	0.114607
2400	0.056886
2396	0.000643
2392	-0.017809
2388	-0.027537
2384	-0.022649
2380	-0.020217
2376	0.028705
2372	0.128030
2368	0.121116
2364	0.046300
2360	0.000000
2356	-0.028681
2352	0.010728
2348	0.093626
2344	0.158214
2340	0.171971
2336	0.125741
2332	0.094127
2328	0.100493
2324	0.078129
2320	0.050020
2316	0.078630
2312	0.153708
2308	0.244283
2304	0.303554
2300	0.312781
2296	0.330209
2292	0.379061
2288	0.421857
2284	0.434732
2280	0.441241
2276	0.500226
2272	0.600647
2268	0.680398
2264	0.757718
2260	0.868749
2256	0.971341
2252	1.040887
2248	1.102709
2244	1.204133
2240	1.346230
2236	1.484370
2232	1.635813
2228	1.822304
2224	2.007889
2220	2.148413
2216	2.286195
2212	2.483177
2208	2.718758
2204	2.991461
2200	3.287553
2196	3.549551
2192	3.791308
2188	4.060339
2184	4.356026
2180	4.654335
2176	4.969406
2172	5.315899
2168	5.643725
2164	5.967640
2160	6.368255
2156	6.809711
2152	7.233452
2148	7.710552
2144	8.173418
2140	8.520627
2136	8.940196
2132	9.446048
2128	9.887814
2124	10.3381
2120	10.8304
2116	11.3086
2112	11.7389
2108	12.1589
2104	12.7031
2100	13.3213
2096	13.8522
2092	14.3537
2088	14.9061
2084	15.4268
2080	15.8537
2076	16.2454
2072	16.7143
2068	17.2189
2064	17.629
2060	18.0541
2056	18.5991
2052	19.086
2048	19.5079
2044	20.0012
2040	20.4857
2036	20.9424
2032	21.4118
2028	21.8126
2024	22.1392
2020	22.4755
2016	22.8302
2012	23.2202
2008	23.6518
2004	24.0316
2000	24.3623
1996	24.7068
1992	25.0665
1988	25.4167
1984	25.7128
1980	25.9592
1976	26.2034
1972	26.4968
1968	26.817
1964	27.094
1960	27.3383
1956	27.5681
1952	27.8024
1948	28.0825
1944	28.3815
1940	28.6587
1936	28.8779
1932	28.9957
1928	29.0962
1924	29.2247
1920	29.3715
1916	29.5911
1912	29.841
1908	30.0492
1904	30.2423
1900	30.463
1896	30.6692
1892	30.8084
1888	30.9099
1884	30.9992
1880	31.0324
1876	31.0499
1872	31.1386
1868	31.2306
1864	31.286
1860	31.3788
1856	31.5371
1852	31.7546
1848	31.9796
1844	32.1486
1840	32.2184
1836	32.205
1832	32.2013
1828	32.2186
1824	32.2237
1820	32.2458
1816	32.2997
1812	32.3975
1808	32.5521
1804	32.6945
1800	32.7953
1796	32.8708
1792	32.9214
1788	32.95
1784	32.9581
1780	32.936
1776	32.9065
1772	32.9282
1768	32.9072
1764	32.86
1760	32.9626
1756	33.139
1752	33.2447
1748	33.2979
1744	33.3409
1740	33.3239
1736	33.2243
1732	33.1832
1728	33.2416
1724	33.2407
1720	33.1985
1716	33.2454
1712	33.323
1708	33.3678
1704	33.4189
1700	33.4768
1696	33.5229
1692	33.563
1688	33.546
1684	33.4469
1680	33.342
1676	33.2832
1672	33.2773
1668	33.3308
1664	33.4168
1660	33.4754
1656	33.5163
1652	33.6121
1648	33.7322
1644	33.7539
1640	33.684
1636	33.5949
1632	33.4792
1628	33.3579
1624	33.308
1620	33.3605
1616	33.401
1612	33.4004
1608	33.4393
1604	33.4804
1600	33.5361
1596	33.6206
1592	33.6461
1588	33.6092
1584	33.5376
1580	33.4041
1576	33.2962
1572	33.3088
1568	33.3585
1564	33.3675
1560	33.3584
1556	33.3767
1552	33.4744
1548	33.6004
1544	33.6594
1540	33.6506
1536	33.5895
1532	33.5284
1528	33.4479
1524	33.2968
1520	33.1671
1516	33.1205
1512	33.1464
1508	33.2664
1504	33.3849
1500	33.4291
1496	33.5162
1492	33.5592
1488	33.446
1484	33.3534
1480	33.312
1476	33.2338
1472	33.1345
1468	33.0577
1464	32.9757
1460	32.9425
1456	33.0433
1452	33.193
1448	33.3179
1444	33.4093
1440	33.4803
1436	33.5093
1432	33.4068
1428	33.2371
1424	33.0639
1420	32.9186
1416	32.8764
1412	32.8697
1408	32.8624
1404	32.9133
1400	33.0144
1396	33.125
1392	33.2213
1388	33.2683
1384	33.2033
1380	33.0794
1376	32.9923
1372	32.8801
1368	32.7098
1364	32.6017
1360	32.6359
1356	32.7614
1352	32.8704
1348	32.9475
1344	33.0303
1340	33.0994
1336	33.1414
1332	33.0711
1328	32.9067
1324	32.8093
1320	32.7739
1316	32.6915
1312	32.5633
1308	32.5052
1304	32.5289
1300	32.5919
1296	32.7515
1292	32.9635
1288	33.0747
1284	33.0501
1280	32.9679
1276	32.8758
1272	32.7334
1268	32.5654
1264	32.4458
1260	32.3815
1256	32.3841
1252	32.4226
1248	32.4913
1244	32.5875
1240	32.622
1236	32.6415
1232	32.716
1228	32.737
1224	32.6393
1220	32.4703
1216	32.2608
1212	32.0762
1208	32.0391
1204	32.1577
1200	32.2709
1196	32.3157
1192	32.426
1188	32.6297
1184	32.7707
1180	32.79
1176	32.6934
1172	32.531
1168	32.3384
1164	32.109
1160	31.9423
1156	31.8784
1152	31.8283
1148	31.8378
1144	31.9318
1140	32.0312
1136	32.1639
1132	32.3376
1128	32.4541
1124	32.4348
1120	32.2569
1116	31.9957
1112	31.8007
1108	31.7496
1104	31.6928
1100	31.5747
1096	31.5779
1092	31.7445
1088	31.9699
1084	32.1512
1080	32.2376
1076	32.2227
1072	32.0809
1068	31.8634
1064	31.6707
1060	31.4723
1056	31.2879
1052	31.1818
1048	31.1141
1044	31.1258
1040	31.3136
1036	31.5197
1032	31.5711
1028	31.599
1024	31.6603
1020	31.6068
1016	31.4259
1012	31.2868
1008	31.1729
1004	30.994
1000	30.8742
996	 30.8515
992	 30.7781
988	 30.6827
984	 30.735
980	 30.9055
976	 31.1237
972	 31.2463
968	 31.1367
964	 30.9399
960	 30.7551
956	 30.6087
952	 30.4956
948	 30.3447
944	 30.2073
940	 30.1418
936	 30.1804
932	 30.2967
928	 30.3967
924	 30.5468
920	 30.7206
916	 30.6725
912	 30.4654
908	 30.2754
904	 30.0114
900	 29.7541
896	 29.6439
892	 29.5756
888	 29.4845
884	 29.4585
880	 29.5532
876	 29.7512
872	 29.9793
868	 30.1153
864	 30.1304
860	 30.0578
856	 29.8542
852	 29.4621
848	 29.0506
844	 28.7823
840	 28.6442
836	 28.6566
832	 28.7619
828	 28.9082
824	 29.1245
820	 29.3045
816	 29.2814
812	 29.1006
808	 28.9646
804	 28.875
800	 28.629
796	 28.2639
792	 28.0074
788	 28.0115
784	 28.179
780	 28.2104
776	 28.203
772	 28.322
768	 28.343
764	 28.2699
760	 28.3166
756	 28.401
752	 28.2436
748	 27.7857
744	 27.4353
740	 27.4274
736	 27.3779
732	 27.1607
728	 27.0413
724	 27.1013
720	 27.2777
716	 27.4046
712	 27.4487
708	 27.5379
704	 27.5948
700	 27.498
696	 27.3102
692	 26.9833
688	 26.4135
684	 25.9421
680	 25.8332
676	 25.9621
672	 26.1437
668	 26.2784
664	 26.3927
660	 26.4066
656	 26.3632
652	 26.3433
648	 26.1788
644	 25.8339
640	 25.4589
636	 25.2192
632	 25.2305
628	 25.2928
624	 25.1924
620	 25.0637
616	 25.0223
612	 25.0569
608	 25.1894
604	 25.3653
600	 25.2201
596	 24.7358
592	 24.4477
588	 24.392
584	 24.2489
580	 24.0263
576	 23.6991
572	 23.3937
568	 23.4935
564	 23.7297
560	 23.8013
556	 23.8146
552	 23.7974
548	 23.7864
544	 23.5005
540	 22.9394
536	 22.5321
532	 22.3718
528	 22.3828
524	 22.4484
520	 22.3191
516	 21.9551
512	 21.8726
508	 22.2765
504	 22.4461
500	 22.0641
496	 21.7291
492	 21.6539
488	 21.4761
484	 21.0618
480	 20.5964
476	 20.3727
472	 20.6228
468	 21.0168
464	 21.0378
460	 20.2294
456	 18.7891
452	 18.6753
448	 20.3194
444	 21.5795
440	 21.3663
436	 20.4884
432	 20.2712
428	 20.493
424	 20.5366
420	 20.1633
416	 18.8617
412	 17.0738
408	 16.0692
404	 17.7107
400	 18.68
396	 14.373
392	 13.2276
388	 18.4007
384	 17.5105
380	 12.6261
376	 20.1952
372	 34.5388
370	 37.9348