File: Bakgrunnsmateriale/MATLAB/FTIR/ftir_data/LPE453/Mapping_121/LPE453_t70.asc
PE IR       SPECTRUM    SPECTRUM    ASCII       PEDS        1.60
  -1
LPCFA9~1.ASC
17/05/16
20:08:54.00
17/05/16
20:09:20.00
tln
$LPE453_t0070$<tbV0>[5.2,2.6,8.0,0.0,27,1,0]
27.028
64

2002,4.07
MIRTGS : RIGHTBACK : INTERNAL 2
MIR : ON : INTERNAL 2
OPTKBR

0.200000
8
8.000000
FILLER
RATIO
SPECTRUM
UNLOCKED 256

DOUBLE
64
COMBINED
1
0
0

0.002000
RATIO

1
0
TRUE
51149
0
LEFT NOT FITTED RIGHT NOT FITTED 0
NONE
NONE
15600
12
4.427000
51148
TRUE
1 0 8 72 0 0 0 0

15798

#HDR
-1
-1
#GR
µM
%T
2.38419e-05
0.0
2.000000
0.002000
12515
8
28.9252
-36.4863
#DATA
2.000000	 0.253367
2.018000	 0.108594
2.036000	 0.356453
2.054000	 0.253029
2.072000	 0.258195
2.090000	 -0.366371
2.108000	 0.517808
2.126000	 -0.937535
2.144000	 0.082609
2.162000	 0.665796
2.180000	 0.702072
2.198000	 -0.082050
2.216000	 -0.208053
2.234000	 2.604382
2.252000	 -0.382469
2.270000	 0.290846
2.288000	 -0.176998
2.306000	 0.454560
2.324000	 0.103255
2.342000	 0.141299
2.360000	 0.266753
2.378000	 0.539776
2.396000	 0.180848
2.414000	 0.103611
2.432000	 -0.019800
2.450000	 0.089259
2.468000	 0.354575
2.486000	 -0.044987
2.504000	 0.313827
2.522000	 0.148840
2.540000	 -0.120235
2.558000	 0.005320
2.576000	 -0.043199
2.594000	 -0.082378
2.612000	 -0.019665
2.630000	 0.024100
2.648000	 0.000808
2.666000	 0.040580
2.684000	 0.105467
2.702000	 0.067853
2.720000	 -0.038668
2.738000	 -0.055803
2.756000	 0.045337
2.774000	 0.028391
2.792000	 0.181899
2.810000	 -0.143350
2.828000	 0.049986
2.846000	 0.063621
2.864000	 -0.015824
2.882000	 0.212881
2.900000	 0.091525
2.918000	 0.064871
2.936000	 0.116990
2.954000	 -0.037699
2.972000	 0.039550
2.990000	 0.146791
3.008000	 -0.072016
3.026000	 0.106193
3.044000	 0.069078
3.062000	 -0.052655
3.080000	 0.042884
3.098000	 -0.028986
3.116000	 -0.072701
3.134000	 0.153838
3.152000	 0.092086
3.170000	 0.096569
3.188000	 -0.060731
3.206000	 -0.141927
3.224000	 0.069430
3.242000	 -0.000184
3.260000	 0.066725
3.278000	 -0.077913
3.296000	 0.004829
3.314000	 -0.022465
3.332000	 0.074236
3.350000	 0.004429
3.368000	 0.188706
3.386000	 0.005961
3.404000	 0.098162
3.422000	 0.174843
3.440000	 0.015008
3.458000	 0.030800
3.476000	 0.098931
3.494000	 0.180772
3.512000	 0.059796
3.530000	 0.033605
3.548000	 -0.002022
3.566000	 0.062632
3.584000	 -0.003334
3.602000	 -0.010359
3.620000	 0.004949
3.638000	 0.006340
3.656000	 -0.030169
3.674000	 0.071455
3.692000	 -0.040865
3.710000	 -0.102255
3.728000	 0.022457
3.746000	 0.118853
3.764000	 -0.032301
3.782000	 -0.045197
3.800000	 0.057171
3.818000	 0.038104
3.836000	 0.131349
3.854000	 -0.011164
3.872000	 0.020766
3.890000	 0.059503
3.908000	 -0.095622
3.926000	 0.038471
3.944000	 0.039850
3.962000	 0.051788
3.980000	 0.018636
3.998000	 0.110925
4.016000	 0.175402
4.034000	 0.093720
4.052000	 0.029902
4.070000	 0.043271
4.088000	 -0.040614
4.106000	 0.112638
4.124000	 0.250585
4.141999	 -0.125894
4.160000	 0.013576
4.178000	 -0.000785
4.196000	 0.102729
4.214000	 0.067514
4.232000	 0.007622
4.250000	 0.067633
4.268000	 0.073070
4.286000	 -0.044137
4.304000	 -0.109197
4.322000	 0.072625
4.340000	 0.042264
4.358000	 0.145723
4.375999	 0.165271
4.394000	 0.178841
4.412000	 0.257055
4.430000	 0.383360
4.448000	 0.581470
4.466000	 0.641055
4.484000	 0.787662
4.502000	 1.102305
4.520000	 1.380045
4.538000	 1.773295
4.556000	 2.138117
4.574000	 2.562689
4.592000	 3.161819
4.609999	 3.588441
4.628000	 4.165198
4.646000	 4.873103
4.664000	 5.705971
4.682000	 6.281443
4.700000	 6.986777
4.718000	 7.832416
4.736000	 8.771883
4.754000	 9.576590
4.772000	 10.3224
4.790000	 11.097
4.808000	 12.047
4.826000	 13.0638
4.843999	 13.8686
4.862000	 14.4253
4.880000	 15.2904
4.898000	 16.0427
4.916000	 16.7101
4.934000	 17.4605
4.952000	 18.1482
4.970000	 18.8247
4.988000	 19.3848
5.006000	 19.9461
5.024000	 20.5216
5.042000	 21.002
5.060000	 21.514
5.077999	 22.0354
5.096000	 22.5299
5.114000	 22.9727
5.132000	 23.3353
5.150000	 23.6791
5.168000	 24.0515
5.186000	 24.4358
5.204000	 24.6502
5.222000	 24.9175
5.240000	 25.233
5.258000	 25.5019
5.276000	 25.7514
5.294000	 25.9323
5.312000	 26.1502
5.330000	 26.3932
5.348000	 26.594
5.366000	 26.7683
5.384000	 26.929
5.402000	 26.9963
5.420000	 27.1913
5.438000	 27.3062
5.456000	 27.4107
5.474000	 27.4728
5.492000	 27.6153
5.510000	 27.7674
5.528000	 27.8185
5.546000	 27.8552
5.564000	 27.8923
5.582000	 28.0043
5.600000	 28.097
5.618000	 28.1339
5.636000	 28.2151
5.654000	 28.3165
5.672000	 28.3699
5.690000	 28.3515
5.708000	 28.3783
5.726000	 28.4576
5.744000	 28.4516
5.762000	 28.4485
5.780000	 28.4508
5.798000	 28.4959
5.816000	 28.5987
5.834000	 28.7918
5.852000	 28.7836
5.870000	 28.6797
5.888000	 28.6786
5.906000	 28.7077
5.923999	 28.7618
5.942000	 28.7734
5.960000	 28.6916
5.978000	 28.6875
5.996000	 28.6789
6.014000	 28.7396
6.032000	 28.8723
6.050000	 28.925
6.068000	 28.8654
6.086000	 28.8182
6.104000	 28.8155
6.122000	 28.8026
6.140000	 28.8122
6.158000	 28.8399
6.176000	 28.8412
6.194000	 28.7888
6.212000	 28.754
6.230000	 28.7579
6.248000	 28.8253
6.266000	 28.8249
6.284000	 28.7872
6.302000	 28.8285
6.320000	 28.8155
6.338000	 28.7765
6.356000	 28.761
6.374000	 28.7485
6.392000	 28.7864
6.410000	 28.8243
6.428000	 28.8049
6.446000	 28.7769
6.464000	 28.7605
6.482000	 28.7751
6.500000	 28.801
6.518000	 28.7528
6.536000	 28.6483
6.554000	 28.6036
6.572000	 28.6456
6.590000	 28.6451
6.608000	 28.6298
6.626000	 28.654
6.644000	 28.6571
6.662000	 28.6191
6.680000	 28.5431
6.698000	 28.5874
6.716000	 28.7027
6.734000	 28.6569
6.752000	 28.5516
6.770000	 28.5034
6.788000	 28.4574
6.806000	 28.3741
6.824000	 28.3251
6.842000	 28.3498
6.860000	 28.3893
6.878000	 28.4329
6.896000	 28.4872
6.914000	 28.5059
6.932000	 28.4644
6.950000	 28.3913
6.968000	 28.3284
6.986000	 28.2947
7.004000	 28.297
7.022000	 28.309
7.040000	 28.2912
7.058000	 28.2529
7.076000	 28.2177
7.094000	 28.2004
7.112000	 28.1795
7.130000	 28.1446
7.148000	 28.1546
7.166000	 28.1917
7.184000	 28.1834
7.202000	 28.1569
7.220000	 28.1449
7.238000	 28.1506
7.256000	 28.1698
7.274000	 28.1533
7.292000	 28.0993
7.310000	 28.0813
7.328000	 28.1486
7.346000	 28.2759
7.364000	 28.3704
7.382000	 28.3721
7.400000	 28.3054
7.418000	 28.1978
7.436000	 28.0862
7.454000	 28.0265
7.472000	 28.0115
7.490000	 28.005
7.508000	 28.0127
7.526000	 28.0227
7.544000	 27.9983
7.562000	 27.959
7.580000	 27.9599
7.598000	 28.0018
7.616000	 28.027
7.634000	 28.0015
7.652000	 27.9573
7.670000	 27.9328
7.688000	 27.917
7.706000	 27.88
7.724000	 27.8108
7.742000	 27.7198
7.760000	 27.6385
7.778000	 27.6057
7.796000	 27.6272
7.814000	 27.6743
7.832000	 27.7227
7.850000	 27.7708
7.868000	 27.8159
7.886000	 27.838
7.904000	 27.825
7.922000	 27.7953
7.940000	 27.7724
7.958000	 27.7529
7.976000	 27.7295
7.994000	 27.7149
8.012000	 27.7055
8.030000	 27.6609
8.048000	 27.5678
8.065999	 27.4866
8.084000	 27.4888
8.102000	 27.5674
8.120000	 27.6436
8.138000	 27.652
8.155999	 27.5927
8.173999	 27.5226
8.192000	 27.497
8.210000	 27.5179
8.228000	 27.5443
8.246000	 27.5372
8.263999	 27.4866
8.282000	 27.4181
8.300000	 27.3687
8.318000	 27.3528
8.336000	 27.3571
8.353999	 27.3634
8.372000	 27.3608
8.390000	 27.3437
8.408000	 27.3138
8.426000	 27.2887
8.443999	 27.2898
8.462000	 27.3168
8.480000	 27.3437
8.498000	 27.3444
8.516000	 27.3133
8.533999	 27.2606
8.552000	 27.1994
8.570000	 27.145
8.588000	 27.1132
8.606000	 27.1041
8.624000	 27.095
8.641999	 27.0595
8.660000	 26.9946
8.678000	 26.9242
8.696000	 26.8757
8.714000	 26.8596
8.731999	 26.871
8.750000	 26.9027
8.768000	 26.9528
8.786000	 27.0227
8.804000	 27.1029
8.821999	 27.1684
8.840000	 27.1934
8.858000	 27.175
8.876000	 27.137
8.894000	 27.1061
8.911999	 27.0874
8.930000	 27.0639
8.948000	 27.0196
8.966000	 26.9533
8.984000	 26.874
9.001999	 26.7874
9.020000	 26.6953
9.038000	 26.6058
9.056000	 26.5409
9.074000	 26.5222
9.092000	 26.5516
9.109999	 26.6101
9.128000	 26.6769
9.146000	 26.7418
9.164000	 26.8029
9.182000	 26.8549
9.199999	 26.8884
9.218000	 26.8943
9.236000	 26.8658
9.254000	 26.797
9.272000	 26.6904
9.289999	 26.5654
9.308000	 26.4554
9.326000	 26.389
9.344000	 26.3747
9.362000	 26.4006
9.379999	 26.4455
9.398000	 26.4889
9.416000	 26.5155
9.434000	 26.5157
9.452000	 26.4874
9.469999	 26.4373
9.488000	 26.3796
9.506000	 26.3292
9.524000	 26.2971
9.542000	 26.2863
9.560000	 26.2936
9.577999	 26.3124
9.596000	 26.3353
9.614000	 26.3533
9.632000	 26.3568
9.650000	 26.3405
9.667999	 26.3057
9.686000	 26.2575
9.704000	 26.1997
9.722000	 26.1379
9.740000	 26.0855
9.757999	 26.0618
9.776000	 26.0778
9.794000	 26.1212
9.812000	 26.156
9.830000	 26.1461
9.847999	 26.0818
9.866000	 25.9856
9.884000	 25.8933
9.902000	 25.8268
9.920000	 25.7834
9.937999	 25.7464
9.956000	 25.7067
9.974000	 25.6717
9.992000	 25.6576
10.01	25.6743
10.028	25.7151
10.046	25.7609
10.064	25.7925
10.082	25.7999
10.1	25.7865
10.118	25.7653
10.136	25.7512
10.154	25.7535
10.172	25.7711
10.19	25.7916
10.208	25.7989
10.226	25.782
10.244	25.7415
10.262	25.6888
10.28	25.6379
10.298	25.5971
10.316	25.5654
10.334	25.5337
10.352	25.4913
10.37	25.4318
10.388	25.3578
10.406	25.2795
10.424	25.212
10.442	25.1697
10.46	25.1591
10.478	25.1761
10.496	25.2073
10.514	25.2374
10.532	25.2544
10.55	25.256
10.568	25.2467
10.586	25.2329
10.604	25.2185
10.622	25.2031
10.64	25.1838
10.658	25.1591
10.676	25.1316
10.694	25.1064
10.712	25.0903
10.73	25.0878
10.748	25.0999
10.766	25.1214
10.784	25.142
10.802	25.1471
10.82	25.1233
10.838	25.0626
10.856	24.9685
10.874	24.8572
10.892	24.751
10.91	24.6731
10.928	24.6366
10.946	24.6415
10.964	24.6758
10.982	24.7203
11	24.7576
11.018	24.7761
11.036	24.7746
11.054	24.7597
11.072	24.7408
11.09	24.7253
11.108	24.7141
11.126	24.7015
11.144	24.6783
11.162	24.637
11.18	24.576
11.198	24.5014
11.216	24.424
11.234	24.3553
11.252	24.3038
11.27	24.2725
11.288	24.2598
11.306	24.262
11.324	24.2745
11.342	24.2916
11.36	24.3073
11.378	24.3147
11.396	24.3086
11.414	24.2862
11.432	24.2506
11.45	24.2097
11.468	24.1744
11.486	24.1538
11.504	24.1517
11.522	24.1647
11.54	24.1845
11.558	24.201
11.576	24.2074
11.594	24.2034
11.612	24.1937
11.63	24.1858
11.648	24.1847
11.666	24.1912
11.684	24.1996
11.702	24.201
11.72	24.187
11.738	24.1526
11.756	24.0986
11.774	24.0305
11.792	23.9563
11.81	23.8832
11.828	23.8161
11.846	23.7572
11.864	23.7064
11.882	23.6625
11.9	23.6236
11.918	23.5875
11.936	23.5523
11.954	23.5164
11.972	23.4801
11.99	23.4454
12.008	23.4164
12.026	23.3988
12.044	23.3971
12.062	23.4129
12.08	23.4433
12.098	23.4813
12.116	23.5173
12.134	23.5422
12.152	23.5502
12.17	23.5408
12.188	23.5182
12.206	23.4898
12.224	23.4632
12.242	23.4434
12.26	23.4324
12.278	23.4285
12.296	23.4279
12.314	23.4266
12.332	23.4221
12.35	23.414
12.368	23.4042
12.386	23.3954
12.404	23.3898
12.422	23.3883
12.44	23.3897
12.458	23.3911
12.476	23.3882
12.494	23.3767
12.512	23.3531
12.53	23.3153
12.548	23.263
12.566	23.198
12.584	23.124
12.602	23.0465
12.62	22.9712
12.638	22.9038
12.656	22.8484
12.674	22.8066
12.692	22.7772
12.71	22.7565
12.728	22.739
12.746	22.719
12.764	22.6922
12.782	22.6569
12.8	22.614
12.818	22.5666
12.836	22.5194
12.854	22.4776
12.872	22.4448
12.89	22.4231
12.908	22.4129
12.926	22.4129
12.944	22.4205
12.962	22.4321
12.98	22.4436
12.998	22.451
13.016	22.4509
13.034	22.4404
13.052	22.4188
13.07	22.3871
13.088	22.3484
13.106	22.3071
13.124	22.2685
13.142	22.2369
13.16	22.215
13.178	22.2024
13.196	22.1962
13.214	22.1908
13.232	22.1796
13.25	22.156
13.268	22.116
13.286	22.0582
13.304	21.985
13.322	21.9017
13.34	21.8159
13.358	21.7357
13.376	21.6681
13.394	21.6186
13.412	21.5897
13.43	21.5819
13.448	21.5929
13.466	21.6192
13.484	21.656
13.502	21.6979
13.52	21.739
13.538	21.7734
13.556	21.7956
13.574	21.8012
13.592	21.7877
13.61	21.7547
13.628	21.7043
13.646	21.6414
13.664	21.5725
13.682	21.5053
13.7	21.4472
13.718	21.4035
13.736	21.3776
13.754	21.3698
13.772	21.378
13.79	21.3981
13.808	21.4256
13.826	21.456
13.844	21.4858
13.862	21.5129
13.88	21.5366
13.898	21.5571
13.916	21.5749
13.934	21.5901
13.952	21.6022
13.97	21.61
13.988	21.6118
14.006	21.6056
14.024	21.5895
14.042	21.5626
14.06	21.5243
14.078	21.4754
14.096	21.4173
14.114	21.352
14.132	21.2818
14.15	21.2094
14.168	21.1379
14.186	21.0703
14.204	21.0096
14.222	20.9585
14.24	20.9189
14.258	20.8915
14.276	20.8757
14.294	20.8699
14.312	20.8709
14.33	20.8749
14.348	20.8779
14.366	20.8761
14.384	20.8672
14.402	20.8504
14.42	20.8269
14.438	20.7989
14.456	20.7697
14.474	20.7426
14.492	20.7205
14.51	20.7051
14.528	20.6961
14.546	20.6916
14.564	20.6889
14.582	20.6846
14.6	20.6753
14.618	20.6583
14.636	20.632
14.654	20.5967
14.672	20.5536
14.69	20.505
14.708	20.4538
14.726	20.4029
14.744	20.3553
14.762	20.3131
14.78	20.2774
14.798	20.2489
14.816	20.2277
14.834	20.2135
14.852	20.2058
14.87	20.2041
14.888	20.2077
14.906	20.216
14.924	20.2284
14.942	20.2435
14.96	20.2602
14.978	20.2771
14.996	20.293
15.014	20.3062
15.032	20.3154
15.05	20.3193
15.068	20.3171
15.086	20.308
15.104	20.2917
15.122	20.2685
15.14	20.2389
15.158	20.2039
15.176	20.1645
15.194	20.1223
15.212	20.0789
15.23	20.0352
15.248	19.9923
15.266	19.9506
15.284	19.9099
15.302	19.8696
15.32	19.8289
15.338	19.787
15.356	19.7427
15.374	19.6955
15.392	19.6453
15.41	19.5925
15.428	19.5379
15.446	19.4831
15.464	19.43
15.482	19.3801
15.5	19.3351
15.518	19.2965
15.536	19.2646
15.554	19.2396
15.572	19.2212
15.59	19.2083
15.608	19.1999
15.626	19.1952
15.644	19.1933
15.662	19.1934
15.68	19.1955
15.698	19.1994
15.716	19.205
15.734	19.2122
15.752	19.2205
15.77	19.2294
15.788	19.2378
15.806	19.244
15.824	19.2468
15.842	19.2443
15.86	19.2351
15.878	19.2183
15.896	19.1934
15.914	19.1604
15.932	19.1204
15.95	19.0745
15.968	19.0244
15.986	18.9727
16.004	18.9209
16.022	18.8707
16.04	18.8242
16.058	18.7821
16.076	18.7452
16.094	18.7138
16.112	18.6882
16.13	18.6681
16.148	18.6534
16.166	18.644
16.184	18.6396
16.202	18.6398
16.22	18.6447
16.238	18.6538
16.256	18.6669
16.274	18.6836
16.292	18.7035
16.31	18.726
16.328	18.7507
16.346	18.777
16.364	18.8046
16.382	18.833
16.4	18.8617
16.418	18.8905
16.436	18.919
16.454	18.9467
16.472	18.9734
16.49	18.9982
16.508	19.0202
16.526	19.0389
16.544	19.0527
16.562	19.0606
16.58	19.0617
16.598	19.0548
16.616	19.0394
16.634	19.0152
16.652	18.9823
16.67	18.9412
16.688	18.8924
16.706	18.8381
16.724	18.7794
16.742	18.718
16.76	18.6564
16.778	18.5957
16.796	18.5379
16.814	18.4842
16.832	18.4353
16.85	18.3921
16.868	18.3545
16.886	18.3226
16.904	18.296
16.922	18.2743
16.94	18.2568
16.958	18.2428
16.976	18.2319
16.994	18.2233
17.012	18.2166
17.03	18.2116
17.048	18.208
17.066	18.2055
17.084	18.2042
17.102	18.2038
17.12	18.2042
17.138	18.2053
17.156	18.2069
17.174	18.2089
17.192	18.2112
17.21	18.2135
17.228	18.2156
17.246	18.2169
17.264	18.2173
17.282	18.2157
17.3	18.2117
17.318	18.2044
17.336	18.1928
17.354	18.1764
17.372	18.1538
17.39	18.1248
17.408	18.0885
17.426	18.0449
17.444	17.9937
17.462	17.9355
17.48	17.8708
17.498	17.8008
17.516	17.7271
17.534	17.6508
17.552	17.5749
17.57	17.5001
17.588	17.4297
17.606	17.3647
17.624	17.3072
17.642	17.2585
17.66	17.2193
17.678	17.1905
17.696	17.1719
17.714	17.1633
17.732	17.1638
17.75	17.1726
17.768	17.188
17.786	17.2092
17.804	17.2336
17.822	17.2606
17.84	17.2878
17.858	17.3144
17.876	17.3386
17.894	17.3594
17.912	17.3763
17.93	17.3883
17.948	17.3954
17.966	17.3977
17.984	17.3957
18.002	17.39
18.02	17.3817
18.038	17.3717
18.056	17.3617
18.074	17.3521
18.092	17.3449
18.11	17.3402
18.128	17.3391
18.146	17.3415
18.164	17.3478
18.182	17.3573
18.2	17.3697
18.218	17.3838
18.236	17.3989
18.254	17.4131
18.272	17.4261
18.29	17.4359
18.308	17.4423
18.326	17.444
18.344	17.441
18.362	17.4328
18.38	17.4197
18.398	17.402
18.416	17.3802
18.434	17.3552
18.452	17.3276
18.47	17.2982
18.488	17.2677
18.506	17.2365
18.524	17.2051
18.542	17.1737
18.56	17.1425
18.578	17.1116
18.596	17.0811
18.614	17.051
18.632	17.0215
18.65	16.9927
18.668	16.965
18.686	16.9387
18.704	16.9148
18.722	16.8935
18.74	16.8759
18.758	16.862
18.776	16.8528
18.794	16.848
18.812	16.8481
18.83	16.8525
18.848	16.8604
18.866	16.8712
18.884	16.8836
18.902	16.8968
18.92	16.9093
18.938	16.9205
18.956	16.9289
18.974	16.9342
18.992	16.9353
19.01	16.9326
19.028	16.9257
19.046	16.9156
19.064	16.9027
19.082	16.8881
19.1	16.8731
19.118	16.8583
19.136	16.8453
19.154	16.8343
19.172	16.8266
19.19	16.8221
19.208	16.821
19.226	16.8229
19.244	16.827
19.262	16.8328
19.28	16.8384
19.298	16.8436
19.316	16.8458
19.334	16.8453
19.352	16.8398
19.37	16.8296
19.388	16.8139
19.406	16.7925
19.424	16.7663
19.442	16.7352
19.46	16.7014
19.478	16.6649
19.496	16.6284
19.514	16.5925
19.532	16.5591
19.55	16.5296
19.568	16.5046
19.586	16.4856
19.604	16.4722
19.622	16.4652
19.64	16.4638
19.658	16.467
19.676	16.4747
19.694	16.4841
19.712	16.4956
19.73	16.5055
19.748	16.5139
19.766	16.518
19.784	16.5171
19.802	16.5098
19.82	16.4948
19.838	16.4723
19.856	16.4414
19.874	16.4027
19.892	16.3568
19.91	16.3036
19.928	16.2453
19.946	16.1817
19.964	16.1154
19.982	16.0465
20	15.977
20.018	15.9079
20.036	15.8398
20.054	15.7744
20.072	15.7114
20.09	15.6522
20.108	15.5966
20.126	15.5449
20.144	15.4972
20.162	15.453
20.18	15.4123
20.198	15.3749
20.216	15.3404
20.234	15.3089
20.252	15.28
20.27	15.2538
20.288	15.2302
20.306	15.209
20.324	15.1904
20.342	15.1745
20.36	15.1613
20.378	15.1508
20.396	15.1431
20.414	15.1382
20.432	15.1363
20.45	15.1364
20.468	15.1387
20.486	15.1424
20.504	15.1468
20.522	15.152
20.54	15.1561
20.558	15.1596
20.576	15.1611
20.594	15.1601
20.612	15.1565
20.63	15.1492
20.648	15.1383
20.666	15.1235
20.684	15.1048
20.702	15.0827
20.72	15.0572
20.738	15.0288
20.756	14.9989
20.774	14.9671
20.792	14.9355
20.81	14.9041
20.828	14.874
20.846	14.8467
20.864	14.8218
20.882	14.801
20.9	14.7843
20.918	14.7719
20.936	14.7645
20.954	14.7618
20.972	14.7634
20.99	14.7695
21.008	14.779
21.026	14.7916
21.044	14.8069
21.062	14.823
21.08	14.8405
21.098	14.8575
21.116	14.8735
21.134	14.8881
21.152	14.8998
21.17	14.9091
21.188	14.9147
21.206	14.9164
21.224	14.9142
21.242	14.9076
21.26	14.8966
21.278	14.8815
21.296	14.8623
21.314	14.8392
21.332	14.8127
21.35	14.7828
21.368	14.7502
21.386	14.7148
21.404	14.6769
21.422	14.6368
21.44	14.5943
21.458	14.5497
21.476	14.5032
21.494	14.4547
21.512	14.4041
21.53	14.3514
21.548	14.2965
21.566	14.2393
21.584	14.1799
21.602	14.1179
21.62	14.0534
21.638	13.9865
21.656	13.917
21.674	13.8449
21.692	13.7709
21.71	13.6947
21.728	13.6167
21.746	13.5383
21.764	13.4588
21.782	13.3796
21.8	13.3019
21.818	13.225
21.836	13.1511
21.854	13.08
21.872	13.0122
21.89	12.9495
21.908	12.8911
21.926	12.8381
21.944	12.7912
21.962	12.7501
21.98	12.7151
21.998	12.6867
22.016	12.6643
22.034	12.6473
22.052	12.6363
22.07	12.6299
22.088	12.6278
22.106	12.63
22.124	12.6349
22.142	12.6422
22.16	12.6517
22.178	12.6616
22.196	12.6724
22.214	12.6832
22.232	12.6927
22.25	12.7014
22.268	12.7086
22.286	12.714
22.304	12.7176
22.322	12.7196
22.34	12.7198
22.358	12.7183
22.376	12.716
22.394	12.7125
22.412	12.7084
22.43	12.7046
22.448	12.7005
22.466	12.6975
22.484	12.6964
22.502	12.6965
22.52	12.6994
22.538	12.7055
22.556	12.7144
22.574	12.7273
22.592	12.7444
22.61	12.7655
22.628	12.7909
22.646	12.8206
22.664	12.8544
22.682	12.8918
22.7	12.9333
22.718	12.9778
22.736	13.024
22.754	13.0727
22.772	13.1223
22.79	13.1714
22.808	13.2211
22.826	13.2687
22.844	13.3129
22.862	13.3546
22.88	13.3913
22.898	13.4218
22.916	13.4471
22.934	13.4643
22.952	13.473
22.97	13.4736
22.988	13.4635
23.006	13.4423
23.024	13.4103
23.042	13.3661
23.06	13.3091
23.078	13.24
23.096	13.1598
23.114	13.0677
23.132	12.9648
23.15	12.8534
23.168	12.7329
23.186	12.6043
23.204	12.4709
23.222	12.3316
23.24	12.1878
23.258	12.0435
23.276	11.8977
23.294	11.7516
23.312	11.6096
23.33	11.471
23.348	11.3364
23.366	11.2097
23.384	11.0906
23.402	10.9793
23.42	10.8783
23.438	10.7881
23.456	10.708
23.474	10.6393
23.492	10.5824
23.51	10.5366
23.528	10.5017
23.546	10.4782
23.564	10.4656
23.582	10.4619
23.6	10.4668
23.618	10.4808
23.636	10.5005
23.654	10.5247
23.672	10.5549
23.69	10.5872
23.708	10.6191
23.726	10.6528
23.744	10.6849
23.762	10.7125
23.78	10.738
23.798	10.7584
23.816	10.7705
23.834	10.7761
23.852	10.7737
23.87	10.7606
23.888	10.7369
23.906	10.7032
23.924	10.6587
23.942	10.6028
23.96	10.5363
23.978	10.4609
23.996	10.3763
24.014	10.2822
24.032	10.183
24.05	10.081
24.068	9.973430
24.086	9.865390
24.104	9.761537
24.122	9.658287
24.14	9.559567
24.158	9.471200
24.176	9.391770
24.194	9.321549
24.212	9.263911
24.23	9.219464
24.248	9.187140
24.266	9.168734
24.284	9.166137
24.302	9.179034
24.32	9.204163
24.338	9.239148
24.356	9.288090
24.374	9.344858
24.392	9.400890
24.41	9.460688
24.428	9.521407
24.446	9.569953
24.464	9.602592
24.482	9.625709
24.5	9.625665
24.518	9.591325
24.536	9.531546
24.554	9.438617
24.572	9.300739
24.59	9.119536
24.608	8.896425
24.626	8.625525
24.644	8.302757
24.662	7.930866
24.68	7.512461
24.698	7.049206
24.716	6.536915
24.734	5.982021
24.752	5.393718
24.77	4.768478
24.788	4.106464
24.806	3.424517
24.824	2.732481
24.842	2.016944
24.86	1.296115
24.878	0.591955
24.896	-0.104424
24.914	-0.790304
24.932	-1.444179
24.95	-2.055059
24.968	-2.635894
24.986	-3.173406
25.004	-3.653011
25.022	-4.079231
25.04	-4.452781
25.058	-4.767481
25.076	-5.019097
25.094	-5.210656
25.112	-5.344824
25.13	-5.423593
25.148	-5.440381
25.166	-5.402815
25.184	-5.324516
25.202	-5.208640
25.22	-5.045499
25.238	-4.855388
25.256	-4.659011
25.274	-4.443936
25.292	-4.215898
25.31	-3.997648
25.328	-3.801484
25.346	-3.611774
25.364	-3.444089
25.382	-3.316897
25.4	-3.228463
25.418	-3.174403
25.436	-3.162579
25.454	-3.200118
25.472	-3.285758
25.49	-3.414231
25.508	-3.580505
25.526	-3.786111
25.544	-4.032936
25.562	-4.310371
25.58	-4.608723
25.598	-4.937156
25.616	-5.289601
25.634	-5.651230
25.652	-6.014035
25.67	-6.389784
25.688	-6.766226
25.706	-7.128473
25.724	-7.477792
25.742	-7.819428
25.76	-8.139346
25.778	-8.424923
25.796	-8.687778
25.814	-8.921553
25.832	-9.109602
25.85	-9.241602
25.868	-9.330853
25.886	-9.367070
25.904	-9.336553
25.922	-9.238411
25.94	-9.080758
25.958	-8.849562
25.976	-8.530640
25.994	-8.126003
26.012	-7.639979
26.03	-7.069000
26.048	-6.408873
26.066	-5.653786
26.084	-4.814617
26.102	-3.905623
26.12	-2.932187
26.138	-1.875907
26.156	-0.762460
26.174	0.377400
26.192	1.540849
26.21	2.751508
26.228	3.967008
26.246	5.142951
26.264	6.288369
26.282	7.419572
26.3	8.490210
26.318	9.454988
26.336	10.3326
26.354	11.1281
26.372	11.8099
26.39	12.3486
26.408	12.7621
26.426	13.0494
26.444	13.1934
26.462	13.178
26.48	13.004
26.498	12.6839
26.516	12.23
26.534	11.6498
26.552	10.9288
26.57	10.0816
26.588	9.128025
26.606	8.079283
26.624	6.916918
26.642	5.657079
26.66	4.320602
26.678	2.919198
26.696	1.437023
26.714	-0.115791
26.732	-1.726285
26.75	-3.385267
26.768	-5.098904
26.786	-6.870362
26.804	-8.702166
26.822	-10.595
26.84	-12.546
26.858	-14.5576
26.876	-16.6328
26.894	-18.7739
26.912	-20.9794
26.93	-23.2469
26.948	-25.5742
26.966	-28.0828
26.984	-30.9556
27.002	-33.7309
27.02	-35.9071
27.028	-36.4863