File: Bakgrunnsmateriale/MATLAB/FTIR/ftir_data/LPE453/Mapping_121/LPE453_t98_cm-1.asc
PE IR       SPECTRUM    SPECTRUM    ASCII       PEDS        1.60
  -1
LPEB59~1.ASC
17/05/16
22:25:07.00
17/05/16
22:25:07.00
tln
$LPE453_t0098$<tbV0>[-10.4,7.8,8.0,0.0,27,1,0]
370
64

2002,4.07
MIRTGS : RIGHTBACK : INTERNAL 2
MIR : ON : INTERNAL 2
OPTKBR

0.200000
8
8.000000
FILLER
RATIO
SPECTRUM
UNLOCKED 256

DOUBLE
64
COMBINED
1
0
0

1.000000
RATIO

1
0
TRUE
51149
0
LEFT NOT FITTED RIGHT NOT FITTED 0
NONE
NONE
15600
12
4.427000
51148
TRUE
1 0 8 72 0 0 0 0

15798

#HDR
-1
-1
#GR
CM-1
%T
2.38419e-05
0.0
5000
-1.000000
4631
8
37.5853
-13.1976
#DATA
5000	0.151920
4996	0.207328
4992	0.393319
4988	0.517058
4984	0.409054
4980	0.093770
4976	-0.081825
4972	-0.025153
4968	0.212383
4964	0.540637
4960	0.400686
4956	-0.145196
4952	-0.402355
4948	-0.187277
4944	0.101828
4940	0.053882
4936	-0.002098
4932	0.131392
4928	0.049543
4924	-0.155735
4920	-0.207281
4916	-0.021100
4912	0.224637
4908	0.400543
4904	0.543260
4900	0.528335
4896	0.366711
4892	0.173163
4888	0.146293
4884	0.184202
4880	-0.062799
4876	-0.320291
4872	-0.298333
4868	-0.220298
4864	-0.253438
4860	-0.203323
4856	0.129032
4852	0.435209
4848	0.465083
4844	0.407981
4840	0.328731
4836	0.299215
4832	0.301027
4828	0.075364
4824	-0.157928
4820	-0.083279
4816	0.185441
4812	0.351405
4808	0.349712
4804	0.251412
4800	0.127696
4796	0.091862
4792	0.062465
4788	0.089645
4784	0.212693
4780	0.271320
4776	0.191855
4772	0.083446
4768	0.013566
4764	-0.059938
4760	0.050044
4756	0.297546
4752	0.348401
4748	0.283217
4744	0.243663
4740	0.360321
4736	0.396084
4732	0.047230
4728	-0.186300
4724	-0.221109
4720	-0.143098
4716	0.238585
4712	0.301289
4708	-0.249123
4704	-0.583481
4700	-0.087785
4696	0.499987
4692	0.091886
4688	-0.791740
4684	-1.104521
4680	-0.820636
4676	-0.114202
4672	0.391626
4668	-0.262355
4664	-1.071476
4660	-0.534152
4656	0.394272
4652	0.805425
4648	1.046037
4644	1.295542
4640	1.706385
4636	1.465201
4632	0.507164
4628	0.374245
4624	0.697064
4620	0.866317
4616	1.421856
4612	1.457405
4608	1.089882
4604	0.922036
4600	0.912880
4596	1.379179
4592	1.738643
4588	1.726031
4584	1.701283
4580	1.848053
4576	1.737427
4572	1.164436
4568	0.738763
4564	0.464034
4560	0.334000
4556	0.524449
4552	0.612688
4548	0.780057
4544	0.925755
4540	0.533533
4536	0.471568
4532	0.780868
4528	0.848865
4524	0.324463
4520	-0.458097
4516	-1.511931
4512	-0.315713
4508	1.773524
4504	0.733208
4500	-6.107664
4496	-13.1976
4492	-1.633930
4488	14.5981
4484	9.510517
4480	0.360441
4476	-0.270867
4472	-0.108504
4468	-0.022125
4464	-0.220799
4460	0.137686
4456	0.979113
4452	1.199507
4448	0.661349
4444	0.182557
4440	0.036120
4436	0.229787
4432	0.568270
4428	0.359177
4424	-0.113940
4420	-0.001764
4416	0.361967
4412	0.676131
4408	0.778937
4404	0.510501
4400	0.282621
4396	0.139951
4392	-0.014805
4388	0.135540
4384	0.460219
4380	0.500631
4376	0.276255
4372	0.080490
4368	0.080132
4364	0.260329
4360	0.457525
4356	0.585651
4352	0.654053
4348	0.575757
4344	0.394320
4340	0.212907
4336	0.152730
4332	0.231385
4328	0.243234
4324	0.230789
4320	0.330090
4316	0.370883
4312	0.123047
4308	-0.191068
4304	-0.276947
4300	-0.149869
4296	0.045704
4292	0.083923
4288	0.026488
4284	0.057053
4280	0.102114
4276	0.069117
4272	0.001621
4268	0.036048
4264	0.142216
4260	0.112032
4256	0.024199
4252	0.024557
4248	-0.031900
4244	-0.117182
4240	-0.120806
4236	-0.100326
4232	-0.080251
4228	-0.079703
4224	-0.070261
4220	-0.010085
4216	0.057888
4212	0.122475
4208	0.196361
4204	0.159716
4200	0.057864
4196	0.060033
4192	-0.021028
4188	-0.166630
4184	-0.156712
4180	-0.012016
4176	0.227451
4172	0.397944
4168	0.399160
4164	0.334882
4160	0.244092
4156	0.176644
4152	0.163173
4148	0.112366
4144	0.016689
4140	-0.028109
4136	-0.040936
4132	-0.028443
4128	0.028133
4124	0.050330
4120	0.031495
4116	0.021409
4112	-0.018262
4108	-0.036644
4104	0.016593
4100	0.023603
4096	0.067901
4092	0.151538
4088	0.095963
4084	0.039172
4080	0.096511
4076	0.194120
4072	0.273752
4068	0.258445
4064	0.217485
4060	0.191164
4056	0.133967
4052	0.098252
4048	0.054359
4044	-0.012302
4040	0.020575
4036	0.126910
4032	0.157690
4028	0.046730
4024	-0.045323
4020	0.000667
4016	0.016880
4012	0.036215
4008	0.153017
4004	0.195860
4000	0.038909
3996	-0.137495
3992	-0.171160
3988	-0.153303
3984	-0.086879
3980	0.047540
3976	0.101637
3972	0.107812
3968	0.244355
3964	0.295782
3960	0.161552
3956	0.149774
3952	0.234436
3948	0.179052
3944	0.019359
3940	-0.061559
3936	-0.021719
3932	0.052857
3928	0.110769
3924	0.109791
3920	0.105333
3916	0.169348
3912	0.154805
3908	0.011968
3904	-0.069952
3900	-0.049543
3896	-0.007414
3892	0.074672
3888	0.179338
3884	0.120329
3880	-0.046491
3876	-0.038504
3872	0.041222
3868	0.031495
3864	0.009560
3860	0.054287
3856	0.147652
3852	0.180196
3848	0.146961
3844	0.107979
3840	0.083637
3836	0.096058
3832	0.169968
3828	0.203180
3824	0.061273
3820	-0.084877
3816	-0.051426
3812	0.036907
3808	0.075006
3804	0.081801
3800	0.076007
3796	0.099706
3792	0.129055
3788	0.094389
3784	0.019931
3780	-0.015640
3776	0.024938
3772	0.050306
3768	-0.018191
3764	-0.072908
3760	-0.007271
3756	0.092339
3752	0.039267
3748	-0.050663
3744	0.047898
3740	0.132393
3736	0.078058
3732	0.085330
3728	0.145936
3724	0.108528
3720	-0.029397
3716	-0.088953
3712	-0.020575
3708	0.025439
3704	0.060820
3700	0.119543
3696	0.190138
3692	0.244808
3688	0.149273
3684	-0.008845
3680	-0.078535
3676	-0.072979
3672	0.014901
3668	0.106453
3664	0.105786
3660	0.062394
3656	0.115680
3652	0.207781
3648	0.179219
3644	0.100851
3640	0.117564
3636	0.204205
3632	0.207161
3628	0.135326
3624	0.082468
3620	0.076413
3616	0.137472
3612	0.133180
3608	0.010633
3604	-0.045561
3600	0.035142
3596	0.113868
3592	0.083732
3588	-0.027632
3584	-0.076508
3580	0.031113
3576	0.101542
3572	0.020170
3568	-0.039553
3564	-0.017213
3560	-0.001573
3556	0.022149
3552	0.039339
3548	-0.002861
3544	-0.027132
3540	0.014519
3536	0.080299
3532	0.119924
3528	0.108861
3524	0.080752
3520	0.050187
3516	-0.016355
3512	-0.051856
3508	-0.013947
3504	0.034117
3500	0.079274
3496	0.087189
3492	0.064301
3488	0.056052
3484	0.020098
3480	0.001740
3476	0.097417
3472	0.194096
3468	0.194621
3464	0.165939
3460	0.111150
3456	0.043010
3452	-0.001072
3448	-0.040531
3444	-0.037884
3440	0.004482
3436	0.019097
3432	0.020933
3428	0.051665
3424	0.073146
3420	0.043678
3416	0.027585
3412	0.047636
3408	0.022888
3404	-0.002121
3400	0.009679
3396	-0.004220
3392	0.033187
3388	0.083422
3384	0.024056
3380	-0.037121
3376	-0.044155
3372	-0.018882
3368	0.052809
3364	0.115871
3360	0.126004
3356	0.116968
3352	0.122022
3348	0.094032
3344	0.062704
3340	0.082826
3336	0.060033
3332	-0.031566
3328	-0.081825
3324	-0.039386
3320	0.007128
3316	-0.011110
3312	-0.052762
3308	-0.061607
3304	0.018811
3300	0.149869
3296	0.161671
3292	0.049161
3288	-0.032758
3284	-0.030875
3280	0.019502
3276	0.062704
3272	0.048303
3268	-0.002145
3264	-0.022840
3260	-0.022983
3256	0.007462
3252	0.048518
3248	0.022697
3244	0.028085
3240	0.113630
3236	0.147891
3232	0.105857
3228	0.076532
3224	0.040936
3220	0.011396
3216	0.055003
3212	0.055623
3208	0.016379
3204	0.028181
3200	0.006318
3196	-0.025773
3192	-0.001978
3188	0.002503
3184	-0.032901
3180	-0.022077
3176	0.043725
3172	0.075840
3168	0.077772
3164	0.091791
3160	0.071692
3156	0.036072
3152	0.021576
3148	0.000977
3144	0.012254
3140	0.030040
3136	0.003886
3132	0.033283
3128	0.125050
3124	0.172686
3120	0.202918
3116	0.194263
3112	0.098896
3108	0.042223
3104	0.022077
3100	-0.012993
3096	0.015330
3092	0.051021
3088	0.002884
3084	-0.046730
3080	-0.011539
3076	0.055480
3072	0.091600
3068	0.075340
3064	0.017309
3060	0.002455
3056	0.055646
3052	0.113201
3048	0.121283
3044	0.078940
3040	0.045442
3036	0.019192
3032	-0.007915
3028	0.002002
3024	0.043129
3020	0.071310
3016	0.063514
3012	0.029277
3008	0.014710
3004	0.056672
3000	0.056624
2996	-0.051665
2992	-0.176191
2988	-0.184321
2984	-0.051021
2980	0.063848
2976	0.113439
2972	0.140261
2968	0.102233
2964	0.060272
2960	0.086569
2956	0.118279
2952	0.093269
2948	0.043225
2944	-0.015282
2940	-0.080633
2936	-0.078392
2932	-0.021696
2928	0.012969
2924	-0.017166
2920	-0.018119
2916	0.074601
2912	0.141096
2908	0.190067
2904	0.206208
2900	0.132942
2896	0.062680
2892	0.038838
2888	0.033330
2884	0.026845
2880	-0.029015
2876	-0.099253
2872	-0.083041
2868	-0.037050
2864	-0.038194
2860	0.046849
2856	0.205564
2852	0.204896
2848	0.078034
2844	0.016593
2840	0.024223
2836	0.014519
2832	-0.004410
2828	-0.044131
2824	-0.069165
2820	-0.015330
2816	0.007462
2812	-0.013303
2808	0.011253
2804	0.029563
2800	0.016760
2796	-0.006008
2792	-0.052666
2788	-0.072288
2784	-0.039529
2780	-0.030255
2776	-0.038456
2772	0.030684
2768	0.114512
2764	0.131106
2760	0.106239
2756	0.051045
2752	0.027227
2748	0.090265
2744	0.160288
2740	0.158834
2736	0.122928
2732	0.094175
2728	0.085425
2724	0.080657
2720	0.044679
2716	-0.003170
2712	-0.004720
2708	0.013780
2704	-0.022816
2700	-0.075531
2696	-0.076127
2692	-0.034308
2688	0.001764
2684	0.019550
2680	0.041985
2676	0.072264
2672	0.099611
2668	0.143599
2664	0.177264
2660	0.143408
2656	0.082302
2652	0.083374
2648	0.145721
2644	0.196456
2640	0.190281
2636	0.104498
2632	0.007963
2628	-0.021743
2624	-0.010848
2620	0.021672
2616	0.044870
2612	0.025153
2608	0.003457
2604	0.001311
2600	-0.024938
2596	-0.058412
2592	-0.041031
2588	-0.006604
2584	0.038981
2580	0.100231
2576	0.111174
2572	0.068259
2568	0.030851
2564	-0.018811
2560	-0.090336
2556	-0.083088
2552	-0.010442
2548	0.042414
2544	0.101995
2540	0.126671
2536	0.072073
2532	0.045895
2528	0.092387
2524	0.079202
2520	-0.007390
2516	-0.004124
2512	0.075697
2508	0.057220
2504	-0.003457
2500	0.023221
2496	0.037908
2492	-0.009918
2488	-0.032162
2484	0.021481
2480	0.069618
2476	0.041842
2472	-0.001573
2468	-0.023770
2464	-0.041365
2460	-0.048494
2456	-0.027632
2452	0.016331
2448	0.075793
2444	0.107121
2440	0.112009
2436	0.139951
2432	0.170969
2428	0.198054
2424	0.293207
2420	0.372362
2416	0.329351
2412	0.175857
2408	-0.046849
2404	-0.168633
2400	-0.140094
2396	-0.065922
2392	0.000834
2388	0.044679
2384	0.089621
2380	0.127220
2376	0.132060
2372	0.132393
2368	0.138592
2364	0.149512
2360	0.178909
2356	0.241088
2352	0.282287
2348	0.226163
2344	0.164294
2340	0.167846
2336	0.171923
2332	0.185346
2328	0.259995
2324	0.381278
2320	0.489783
2316	0.567650
2312	0.636839
2308	0.696945
2304	0.759887
2300	0.851726
2296	0.932550
2292	0.964665
2288	0.996994
2284	1.063537
2280	1.155304
2276	1.244163
2272	1.341223
2268	1.471090
2264	1.603007
2260	1.738333
2256	1.886105
2252	2.038621
2248	2.221632
2244	2.419590
2240	2.598214
2236	2.772998
2232	2.968978
2228	3.200984
2224	3.445410
2220	3.672552
2216	3.911471
2212	4.212379
2208	4.592823
2204	4.969406
2200	5.243301
2196	5.509877
2192	5.861592
2188	6.198978
2184	6.509780
2180	6.875586
2176	7.299900
2172	7.783269
2168	8.243322
2164	8.653402
2160	9.132361
2156	9.691762
2152	10.2248
2148	10.6825
2144	11.1703
2140	11.6505
2136	12.0473
2132	12.4986
2128	13.0532
2124	13.6386
2120	14.2176
2116	14.8404
2112	15.4805
2108	16.0071
2104	16.4902
2100	16.9946
2096	17.4566
2092	17.9179
2088	18.3607
2084	18.7582
2080	19.2429
2076	19.8708
2072	20.4766
2068	20.9553
2064	21.4586
2060	22.0351
2056	22.5981
2052	23.1404
2048	23.6045
2044	24.0034
2040	24.4162
2036	24.8036
2032	25.1328
2028	25.4741
2024	25.8705
2020	26.3051
2016	26.7978
2012	27.2951
2008	27.7219
2004	28.1441
2000	28.5696
1996	28.899
1992	29.1553
1988	29.4253
1984	29.7098
1980	29.9635
1976	30.1378
1972	30.2701
1968	30.4488
1964	30.695
1960	30.9998
1956	31.3637
1952	31.7797
1948	32.1867
1944	32.515
1940	32.777
1936	33.0018
1932	33.1593
1928	33.2372
1924	33.3044
1920	33.358
1916	33.361
1912	33.358
1908	33.4118
1904	33.5852
1900	33.8789
1896	34.2153
1892	34.5119
1888	34.7641
1884	35.01
1880	35.2099
1876	35.3082
1872	35.3282
1868	35.311
1864	35.2532
1860	35.1467
1856	35.0465
1852	35.0372
1848	35.1503
1844	35.3532
1840	35.597
1836	35.8393
1832	36.0857
1828	36.337
1824	36.5133
1820	36.5896
1816	36.5999
1812	36.5211
1808	36.3614
1804	36.223
1800	36.1242
1796	36.0269
1792	35.9985
1788	36.0532
1784	36.1667
1780	36.3793
1776	36.6445
1772	36.8685
1768	37.0416
1764	37.1322
1760	37.0928
1756	37.0068
1752	36.9341
1748	36.7792
1744	36.532
1740	36.3293
1736	36.2551
1732	36.2871
1728	36.3809
1724	36.5571
1720	36.8343
1716	37.121
1712	37.2965
1708	37.3743
1704	37.4601
1700	37.518
1696	37.4402
1692	37.2756
1688	37.1034
1684	36.9078
1680	36.7204
1676	36.6093
1672	36.5714
1668	36.6138
1664	36.7519
1660	36.9528
1656	37.191
1652	37.4344
1648	37.576
1644	37.5692
1640	37.5438
1636	37.5198
1632	37.3631
1628	37.1015
1624	36.8411
1620	36.659
1616	36.5491
1612	36.515
1608	36.6112
1604	36.728
1600	36.8405
1596	37.0286
1592	37.2561
1588	37.4647
1584	37.5719
1580	37.5088
1576	37.3431
1572	37.2151
1568	37.1016
1564	36.887
1560	36.6064
1556	36.3927
1552	36.3673
1548	36.488
1544	36.6167
1540	36.7484
1536	36.9209
1532	37.1159
1528	37.2769
1524	37.354
1520	37.3581
1516	37.2971
1512	37.145
1508	36.9321
1504	36.71
1500	36.4336
1496	36.1704
1492	36.1417
1488	36.2847
1484	36.4526
1480	36.6436
1476	36.8474
1472	37.0478
1468	37.1877
1464	37.2253
1460	37.1746
1456	37.0188
1452	36.8146
1448	36.6641
1444	36.5457
1440	36.4237
1436	36.2622
1432	36.094
1428	36.0248
1424	36.0899
1420	36.2284
1416	36.3781
1412	36.5648
1408	36.8057
1404	37.035
1400	37.1486
1396	37.098
1392	36.9725
1388	36.8137
1384	36.5546
1380	36.2242
1376	35.9426
1372	35.8222
1368	35.8556
1364	35.8927
1360	35.9397
1356	36.1389
1352	36.4211
1348	36.6413
1344	36.7623
1340	36.8253
1336	36.8419
1332	36.7739
1328	36.6572
1324	36.4641
1320	36.1921
1316	35.9693
1312	35.8304
1308	35.7087
1304	35.6126
1300	35.6351
1296	35.8049
1292	36.0592
1288	36.298
1284	36.4511
1280	36.5437
1276	36.6138
1272	36.6346
1268	36.5439
1264	36.3274
1260	36.0826
1256	35.8336
1252	35.5861
1248	35.4344
1244	35.3996
1240	35.459
1236	35.5898
1232	35.7729
1228	35.9673
1224	36.1673
1220	36.3694
1216	36.4944
1212	36.5093
1208	36.4292
1204	36.2311
1200	35.9236
1196	35.6366
1192	35.435
1188	35.2657
1184	35.1503
1180	35.1336
1176	35.2444
1172	35.4844
1168	35.7012
1164	35.842
1160	36.0308
1156	36.1885
1152	36.2227
1148	36.2
1144	36.113
1140	35.9225
1136	35.629
1132	35.3262
1128	35.1171
1124	35.0343
1120	35.0266
1116	35.0236
1112	35.0733
1108	35.2697
1104	35.5781
1100	35.7762
1096	35.8698
1092	36.021
1088	36.1407
1084	36.1219
1080	35.8968
1076	35.5139
1072	35.1953
1068	34.9878
1064	34.8342
1060	34.7247
1056	34.6183
1052	34.5448
1048	34.6038
1044	34.8608
1040	35.2403
1036	35.5647
1032	35.7056
1028	35.6497
1024	35.5266
1020	35.4203
1016	35.2546
1012	34.9414
1008	34.6361
1004	34.4824
1000	34.3204
996	 34.168
992	 34.1825
988	 34.2974
984	 34.5285
980	 34.8748
976	 35.1047
972	 35.2251
968	 35.3203
964	 35.2938
960	 35.1217
956	 34.9018
952	 34.7021
948	 34.4757
944	 34.2271
940	 34.0003
936	 33.8375
932	 33.8031
928	 33.8359
924	 33.9013
920	 34.0847
916	 34.3194
912	 34.5079
908	 34.6783
904	 34.7965
900	 34.7849
896	 34.6478
892	 34.4276
888	 34.1738
884	 33.8917
880	 33.5744
876	 33.2837
872	 33.0675
868	 33.0545
864	 33.2602
860	 33.3905
856	 33.4555
852	 33.7795
848	 34.1656
844	 34.3032
840	 34.2628
836	 34.1874
832	 34.0743
828	 33.7268
824	 33.284
820	 32.9981
816	 32.78
812	 32.5998
808	 32.4408
804	 32.344
800	 32.4744
796	 32.7399
792	 32.9652
788	 33.1626
784	 33.3671
780	 33.515
776	 33.4762
772	 33.318
768	 33.1261
764	 32.9156
760	 32.6843
756	 32.3438
752	 32.0116
748	 31.8164
744	 31.6915
740	 31.7186
736	 31.9256
732	 32.2164
728	 32.4731
724	 32.5252
720	 32.5055
716	 32.5683
712	 32.6255
708	 32.5156
704	 32.2252
700	 31.9031
696	 31.5767
692	 31.2593
688	 31.0182
684	 30.8499
680	 30.8116
676	 30.9645
672	 31.0706
668	 31.0379
664	 31.0764
660	 31.2697
656	 31.5059
652	 31.6228
648	 31.5611
644	 31.2491
640	 30.8258
636	 30.6279
632	 30.4839
628	 30.1777
624	 29.8675
620	 29.633
616	 29.6037
612	 29.6957
608	 29.6153
604	 29.6189
600	 30.0013
596	 30.4598
592	 30.4643
588	 30.004
584	 29.7009
580	 29.6837
576	 29.5103
572	 29.247
568	 29.1094
564	 28.879
560	 28.5182
556	 28.2563
552	 28.0502
548	 27.9045
544	 28.1698
540	 28.5842
536	 28.7442
532	 28.9335
528	 29.1225
524	 29.1097
520	 28.8157
516	 28.3942
512	 28.1835
508	 28.03
504	 27.5674
500	 26.887
496	 26.2968
492	 26.1382
488	 26.5987
484	 26.9898
480	 27.0825
476	 27.3913
472	 27.6975
468	 27.5759
464	 27.333
460	 27.3205
456	 27.0059
452	 26.2339
448	 25.4772
444	 24.3684
440	 23.1417
436	 22.8443
432	 23.1623
428	 23.3616
424	 23.481
420	 23.7711
416	 24.1655
412	 23.2752
408	 21.6617
404	 20.2059
400	 17.1066
396	 15.4728
392	 18.5138
388	 24.3937
384	 30.185
380	 31.6063
376	 23.8886
372	 15.3838
370	 17.4504