File: Bakgrunnsmateriale/MATLAB/FTIR/ftir_data/LPE453/Mapping_121/LPE453_t70_cm-1.asc
PE IR       SPECTRUM    SPECTRUM    ASCII       PEDS        1.60
  -1
LPDA55~1.ASC
17/05/16
20:08:54.00
17/05/16
20:08:54.00
tln
$LPE453_t0070$<tbV0>[5.2,2.6,8.0,0.0,27,1,0]
370
64

2002,4.07
MIRTGS : RIGHTBACK : INTERNAL 2
MIR : ON : INTERNAL 2
OPTKBR

0.200000
8
8.000000
FILLER
RATIO
SPECTRUM
UNLOCKED 256

DOUBLE
64
COMBINED
1
0
0

1.000000
RATIO

1
0
TRUE
51149
0
LEFT NOT FITTED RIGHT NOT FITTED 0
NONE
NONE
15600
12
4.427000
51148
TRUE
1 0 8 72 0 0 0 0

15798

#HDR
-1
-1
#GR
CM-1
%T
2.38419e-05
0.0
5000
-1.000000
4631
8
28.9252
-36.4863
#DATA
5000	0.253367
4996	0.214505
4992	0.176644
4988	0.150537
4984	0.074791
4980	-0.116443
4976	-0.239634
4972	-0.216889
4968	-0.247502
4964	-0.265336
4960	-0.096416
4956	0.089097
4952	0.176239
4948	0.130248
4944	-0.058817
4940	-0.190234
4936	-0.108051
4932	0.154995
4928	0.376749
4924	0.349354
4920	0.281500
4916	0.325512
4912	0.358176
4908	0.288105
4904	0.115299
4900	-0.018715
4896	0.015258
4892	0.113463
4888	0.244164
4884	0.488519
4880	0.657796
4876	0.543427
4872	0.325345
4868	0.252294
4864	0.301170
4860	0.387811
4856	0.355792
4852	0.271487
4848	0.383138
4844	0.339913
4840	-0.035476
4836	-0.037670
4832	0.337696
4828	0.362610
4824	0.141572
4820	0.157570
4816	0.171995
4812	-0.064086
4808	-0.208449
4804	-0.139951
4800	-0.062131
4796	-0.019645
4792	-0.090599
4788	-0.328087
4784	-0.333952
4780	0.016951
4776	0.197410
4772	0.059175
4768	0.048756
4764	0.194501
4760	0.038027
4756	-0.305819
4752	-0.123095
4748	0.382614
4744	0.517630
4740	0.455188
4736	0.010704
4732	-0.152444
4728	0.822424
4724	1.175618
4720	0.279521
4716	-0.023651
4712	0.278210
4708	-0.058007
4704	-0.875592
4700	-1.299238
4696	-0.886607
4692	-0.409197
4688	0.220727
4684	1.765203
4680	2.460527
4676	1.410007
4672	0.546479
4668	0.497531
4664	0.044775
4660	-0.936293
4656	-1.431560
4652	-1.228237
4648	-0.469112
4644	0.423645
4640	0.822758
4636	1.125526
4632	1.431298
4628	1.059675
4624	0.530648
4620	0.524497
4616	0.839519
4612	0.987243
4608	0.840306
4604	0.722122
4600	0.789427
4596	0.773692
4592	0.736165
4588	0.718641
4584	0.642347
4580	0.740075
4576	0.823664
4572	0.446081
4568	0.065994
4564	-0.016188
4560	0.008487
4556	0.001740
4552	-0.147199
4548	0.066089
4544	0.452494
4540	0.221610
4536	-0.334262
4532	-0.362110
4528	0.020599
4524	0.712347
4520	1.342892
4516	0.920271
4512	-0.400757
4508	-0.947022
4504	-0.303697
4500	0.911617
4496	-1.039004
4492	-2.408623
4488	5.023837
4484	9.064626
4480	5.258512
4476	2.460837
4472	0.852274
4468	0.469088
4464	0.412464
4460	0.273180
4456	0.254368
4452	-0.143861
4448	-0.714945
4444	-0.774502
4440	-0.326848
4436	-0.136637
4432	-0.181198
4428	-0.101923
4424	0.065135
4420	0.481986
4416	0.696754
4412	0.448393
4408	0.344705
4404	0.213360
4400	-0.158905
4396	-0.338220
4392	-0.256180
4388	-0.124692
4384	-0.018858
4380	-0.041079
4376	-0.128722
4372	-0.159716
4368	-0.201582
4364	-0.069785
4360	0.039362
4356	-0.091028
4352	0.010728
4348	0.284051
4344	0.307655
4340	0.320792
4336	0.465106
4332	0.340580
4328	0.048065
4324	-0.219011
4320	-0.397229
4316	-0.233840
4312	-0.016665
4308	-0.015425
4304	0.049376
4300	0.285506
4296	0.433683
4292	0.327825
4288	0.131464
4284	0.037121
4280	0.042629
4276	0.109076
4272	0.143504
4268	0.147700
4264	0.210237
4260	0.288271
4256	0.282835
4252	0.229883
4248	0.297832
4244	0.288653
4240	0.185656
4236	0.339078
4232	0.440859
4228	0.279140
4224	0.193095
4220	0.190544
4216	0.210022
4212	0.344967
4208	0.486874
4204	0.557279
4200	0.582432
4196	0.487256
4192	0.410008
4188	0.428843
4184	0.306224
4180	0.185632
4176	0.200939
4172	0.139927
4168	0.026178
4164	0.019860
4160	0.044012
4156	0.026726
4152	0.055122
4148	0.095105
4144	0.101685
4140	0.112414
4136	0.101137
4132	-0.020217
4128	-0.112366
4124	-0.093293
4120	-0.072550
4116	-0.035619
4112	-0.020456
4108	0.062012
4104	0.255393
4100	0.285887
4096	0.149011
4092	0.032639
4088	0.021934
4084	0.077152
4080	0.087499
4076	0.109982
4072	0.179481
4068	0.134038
4064	0.020599
4060	0.107073
4056	0.321245
4052	0.358152
4048	0.173163
4044	0.042200
4040	0.079989
4036	0.095224
4032	-0.007629
4028	-0.107812
4024	-0.072574
4020	-0.026416
4016	-0.070667
4012	-0.053167
4008	0.064468
4004	0.191116
4000	0.259923
3996	0.296974
3992	0.304865
3988	0.166702
3984	-0.024580
3980	-0.108456
3976	-0.110459
3972	-0.090456
3968	0.024247
3964	0.184369
3960	0.214195
3956	0.175118
3952	0.070238
3948	-0.176072
3944	-0.353980
3940	-0.268816
3936	-0.077414
3932	0.004076
3928	0.014781
3924	0.081157
3920	0.153422
3916	0.141716
3912	0.059628
3908	-0.000977
3904	0.105953
3900	0.217986
3896	0.105094
3892	-0.024819
3888	-0.062155
3884	-0.070929
3880	0.012159
3876	0.138616
3872	0.149893
3868	0.080442
3864	0.042033
3860	-0.034499
3856	-0.088238
3852	-0.033235
3848	0.009751
3844	-0.005793
3840	-0.020170
3836	-0.027751
3832	-0.052046
3828	-0.009417
3824	0.087881
3820	0.155138
3816	0.200152
3812	0.213646
3808	0.148916
3804	0.039291
3800	0.048375
3796	0.118970
3792	0.125694
3788	0.119233
3784	0.081205
3780	0.013303
3776	0.003385
3772	0.033545
3768	0.033879
3764	0.078177
3760	0.191569
3756	0.201678
3752	0.072574
3748	-0.014233
3744	-0.066328
3740	-0.144910
3736	-0.093674
3732	0.103163
3728	0.156450
3724	0.058531
3720	-0.005483
3716	-0.005674
3712	0.087428
3708	0.168442
3704	0.124120
3700	0.058245
3696	0.063729
3692	0.046777
3688	-0.015473
3684	-0.019669
3680	-0.011301
3676	-0.043892
3672	-0.106739
3668	-0.179147
3664	-0.117063
3660	0.030636
3656	0.024247
3652	-0.059628
3648	-0.049781
3644	0.017309
3640	0.065541
3636	0.068283
3632	0.053191
3628	0.045847
3624	0.074195
3620	0.116705
3616	0.135350
3612	0.109195
3608	0.034141
3604	0.042152
3600	0.131821
3596	0.162982
3592	0.139880
3588	0.142097
3584	0.179934
3580	0.165772
3576	0.103807
3572	0.054001
3568	-0.027608
3564	-0.108408
3560	-0.145888
3556	-0.094604
3552	0.076913
3548	0.195693
3544	0.142216
3540	0.062966
3536	0.049948
3532	0.051283
3528	0.092458
3524	0.090479
3520	0.016474
3516	0.033092
3512	0.075888
3508	0.087285
3504	0.120234
3500	0.100731
3496	-0.004982
3492	-0.023746
3488	0.089240
3484	0.083446
3480	-0.026679
3476	-0.003027
3472	0.140833
3468	0.254797
3464	0.272941
3460	0.209236
3456	0.157237
3452	0.110268
3448	0.094413
3444	0.198173
3440	0.251340
3436	0.146985
3432	0.053644
3428	0.058555
3424	0.069165
3420	0.038194
3416	0.041604
3412	0.116896
3408	0.148487
3404	0.064420
3400	-0.029826
3396	-0.050044
3392	-0.052428
3388	-0.060534
3384	-0.017714
3380	0.072336
3376	0.155115
3372	0.152230
3368	0.086164
3364	0.029420
3360	-0.032544
3356	-0.046277
3352	0.068807
3348	0.181984
3344	0.134849
3340	0.052523
3336	0.045013
3332	0.021958
3328	-0.047230
3324	-0.067639
3320	0.058722
3316	0.222563
3312	0.235676
3308	0.159072
3304	0.097417
3300	0.055837
3296	0.021481
3292	0.032138
3288	0.075340
3284	0.058245
3280	0.029778
3276	0.030446
3272	0.016427
3268	-0.027608
3264	-0.067639
3260	-0.062966
3256	0.009489
3252	0.069880
3248	0.048184
3244	0.051593
3240	0.056719
3236	0.014948
3232	-0.021100
3228	-0.029492
3224	0.004506
3220	0.002670
3216	-0.050354
3212	-0.095677
3208	-0.032281
3204	0.190567
3200	0.298428
3196	0.203537
3192	0.153732
3188	0.140237
3184	0.066447
3180	0.031137
3176	0.066804
3172	0.093722
3168	0.088596
3164	0.083065
3160	0.117135
3156	0.119996
3152	0.039315
3148	-0.018239
3144	-0.060606
3140	-0.097370
3136	-0.046920
3132	-0.006771
3128	-0.013399
3124	-0.022220
3120	-0.115919
3116	-0.195765
3112	-0.114321
3108	0.016140
3104	0.068831
3100	0.064110
3096	0.040531
3092	-0.008463
3088	-0.044322
3084	0.012278
3080	0.111055
3076	0.142979
3072	0.120687
3068	0.073814
3064	0.022029
3060	-0.029349
3056	-0.099968
3052	-0.103020
3048	-0.020408
3044	-0.003385
3040	-0.045990
3036	-0.026130
3032	0.032830
3028	0.065803
3024	0.072097
3020	0.024342
3016	-0.045561
3012	-0.060272
3008	0.004482
3004	0.082302
3000	0.054788
2996	-0.013518
2992	-0.023198
2988	-0.013494
2984	0.017046
2980	0.073909
2976	0.104522
2972	0.150012
2968	0.194787
2964	0.155925
2960	0.066089
2956	0.008034
2952	0.011491
2948	0.027060
2944	0.049114
2940	0.089502
2936	0.090122
2932	0.053691
2928	0.085806
2924	0.161719
2920	0.168919
2916	0.129246
2912	0.075411
2908	0.023818
2904	-0.002431
2900	-0.031423
2896	-0.040173
2892	0.027799
2888	0.062608
2884	0.021052
2880	0.044393
2876	0.109863
2872	0.130939
2868	0.171494
2864	0.201654
2860	0.141263
2856	0.076723
2852	0.054240
2848	0.058245
2844	0.056290
2840	0.028562
2836	0.022530
2832	0.037813
2828	0.063657
2824	0.061821
2820	0.009250
2816	0.009918
2812	0.080585
2808	0.113129
2804	0.057601
2800	-0.002837
2796	-0.011801
2792	-0.006246
2788	0.001525
2784	0.018119
2780	0.019073
2776	-0.012159
2772	-0.029945
2768	-0.025796
2764	-0.009059
2760	0.040745
2756	0.092411
2752	0.049090
2748	0.004315
2744	0.013041
2740	-0.024938
2736	-0.039148
2732	0.029659
2728	0.084066
2724	0.093317
2720	0.036478
2716	-0.044584
2712	-0.057578
2708	-0.040173
2704	-0.051045
2700	-0.052618
2696	-0.091123
2692	-0.153517
2688	-0.092864
2684	0.009512
2680	0.021386
2676	0.054097
2672	0.121617
2668	0.097084
2664	0.027537
2660	-0.003337
2656	-0.041460
2652	-0.082635
2648	-0.079369
2644	-0.043964
2640	0.013709
2636	0.054264
2632	0.057172
2628	0.062513
2624	0.063610
2620	0.043654
2616	0.026130
2612	0.062632
2608	0.122785
2604	0.129842
2600	0.086855
2596	0.012397
2592	-0.040864
2588	-0.025296
2584	0.010538
2580	0.040364
2576	0.060462
2572	0.061035
2568	0.045442
2564	-0.029945
2560	-0.096917
2556	-0.057220
2552	0.006175
2548	0.033998
2544	0.054764
2540	0.061655
2536	0.041818
2532	0.047659
2528	0.077319
2524	0.052094
2520	-0.006484
2516	-0.022339
2512	0.029134
2508	0.107288
2504	0.132131
2500	0.101113
2496	0.114583
2492	0.168180
2488	0.164866
2484	0.127148
2480	0.099706
2476	0.079727
2472	0.060367
2468	0.030469
2464	0.017809
2460	0.032711
2456	0.042653
2452	0.004696
2448	-0.039625
2444	-0.033307
2440	-0.007104
2436	0.094509
2432	0.203132
2428	0.238299
2424	0.244474
2420	0.097107
2416	-0.103878
2412	-0.089645
2408	0.007891
2404	0.014400
2400	0.000095
2396	0.002264
2392	0.000286
2388	0.040555
2384	0.098133
2380	0.093364
2376	0.064945
2372	0.073313
2368	0.081133
2364	0.023579
2360	-0.002074
2356	0.051450
2352	0.064206
2348	0.047230
2344	0.068330
2340	0.060296
2336	-0.011491
2332	-0.048089
2328	-0.064444
2324	-0.107789
2320	-0.063657
2316	0.041222
2312	0.079131
2308	0.067138
2304	0.041270
2300	0.035691
2296	0.110340
2292	0.194025
2288	0.185012
2284	0.165891
2280	0.191497
2276	0.180220
2272	0.162839
2268	0.221967
2264	0.315022
2260	0.364804
2256	0.399518
2252	0.492668
2248	0.584530
2244	0.617074
2240	0.636792
2236	0.659108
2232	0.726437
2228	0.875711
2224	1.030516
2220	1.129007
2216	1.237630
2212	1.396632
2208	1.571846
2204	1.755785
2200	1.926231
2196	2.089095
2192	2.277326
2188	2.472043
2184	2.703022
2180	3.002023
2176	3.259444
2172	3.447580
2168	3.656482
2164	3.922057
2160	4.221510
2156	4.517674
2152	4.918646
2148	5.386805
2144	5.711412
2140	5.978369
2136	6.269884
2132	6.572866
2128	6.952142
2124	7.358121
2120	7.780694
2116	8.248424
2112	8.714222
2108	9.144711
2104	9.530043
2100	9.893131
2096	10.2773
2092	10.6926
2088	11.0691
2084	11.4605
2080	12.0261
2076	12.6204
2072	13.0754
2068	13.5099
2064	13.9026
2060	14.1784
2056	14.4981
2052	14.9542
2048	15.4201
2044	15.8164
2040	16.201
2036	16.5555
2032	16.91
2028	17.3295
2024	17.7313
2020	18.0932
2016	18.4566
2012	18.8313
2008	19.1609
2004	19.4431
2000	19.7553
1996	20.0715
1992	20.3944
1988	20.706
1984	20.9606
1980	21.2331
1976	21.5351
1972	21.8264
1968	22.1362
1964	22.4256
1960	22.6709
1956	22.9341
1952	23.1741
1948	23.3604
1944	23.5564
1940	23.776
1936	23.9952
1932	24.2247
1928	24.4488
1924	24.5913
1920	24.6953
1916	24.8636
1912	25.0752
1908	25.2481
1904	25.4044
1900	25.5883
1896	25.7343
1892	25.8392
1888	25.9631
1884	26.0983
1880	26.2454
1876	26.3996
1872	26.5332
1868	26.6432
1864	26.7555
1860	26.8763
1856	26.9437
1852	26.981
1848	27.0889
1844	27.2197
1840	27.291
1836	27.3549
1832	27.4222
1828	27.4596
1824	27.5248
1820	27.6412
1816	27.7474
1812	27.7991
1808	27.8249
1804	27.8509
1800	27.8684
1796	27.9111
1792	27.9928
1788	28.0692
1784	28.1103
1780	28.1338
1776	28.1842
1772	28.2593
1768	28.3261
1764	28.3665
1760	28.3644
1756	28.348
1752	28.3772
1748	28.4419
1744	28.4616
1740	28.4498
1736	28.4491
1732	28.4441
1728	28.4671
1724	28.5028
1720	28.5788
1716	28.7316
1712	28.8193
1708	28.7651
1704	28.6845
1700	28.6711
1696	28.6912
1692	28.7171
1688	28.7624
1684	28.7821
1680	28.7251
1676	28.6797
1672	28.6893
1668	28.6793
1664	28.7114
1660	28.8178
1656	28.9052
1652	28.9212
1648	28.8656
1644	28.8208
1640	28.8177
1636	28.8087
1632	28.8024
1628	28.8155
1624	28.8393
1620	28.8456
1616	28.808
1612	28.7654
1608	28.7494
1604	28.77
1600	28.8318
1596	28.826
1592	28.7865
1588	28.8176
1584	28.8301
1580	28.792
1576	28.77
1572	28.7551
1568	28.7514
1564	28.7923
1560	28.8244
1556	28.8072
1552	28.7803
1548	28.7627
1544	28.7663
1540	28.7966
1536	28.7842
1532	28.6988
1528	28.6127
1524	28.6181
1520	28.6544
1516	28.6349
1512	28.636
1508	28.6584
1504	28.6521
1500	28.5991
1496	28.5369
1492	28.6206
1488	28.7084
1484	28.6274
1480	28.5339
1476	28.4938
1472	28.4345
1468	28.3494
1464	28.328
1460	28.3669
1456	28.4067
1452	28.4611
1448	28.505
1444	28.4863
1440	28.4143
1436	28.3409
1432	28.2976
1428	28.296
1424	28.309
1420	28.287
1416	28.2437
1412	28.2099
1408	28.1937
1404	28.1575
1400	28.1453
1396	28.1883
1392	28.1835
1388	28.1542
1384	28.1443
1380	28.1602
1376	28.1659
1372	28.1091
1368	28.0812
1364	28.1701
1360	28.3216
1356	28.3821
1352	28.3223
1348	28.1952
1344	28.0653
1340	28.0168
1336	28.0061
1332	28.0123
1328	28.0206
1324	27.9771
1320	27.9546
1316	28.0037
1312	28.0238
1308	27.9727
1304	27.9339
1300	27.9109
1296	27.8451
1292	27.7305
1288	27.6261
1284	27.6126
1280	27.6702
1276	27.7359
1272	27.8013
1268	27.838
1264	27.813
1260	27.7762
1256	27.7481
1252	27.7186
1248	27.7045
1244	27.6205
1240	27.4907
1236	27.5122
1232	27.6342
1228	27.6396
1224	27.5359
1220	27.4992
1216	27.5399
1212	27.5274
1208	27.4323
1204	27.3603
1200	27.356
1196	27.3638
1192	27.3447
1188	27.2983
1184	27.2918
1180	27.3375
1176	27.3381
1172	27.2658
1168	27.1683
1164	27.1103
1160	27.0981
1156	27.0314
1152	26.9155
1148	26.8602
1144	26.885
1140	26.9665
1136	27.0978
1132	27.1904
1128	27.1602
1124	27.1026
1120	27.0664
1116	26.9751
1112	26.8324
1108	26.668
1104	26.5364
1100	26.5487
1096	26.6624
1092	26.7815
1088	26.875
1084	26.8876
1080	26.7694
1076	26.5406
1072	26.3842
1068	26.4034
1064	26.4899
1060	26.5158
1056	26.4383
1052	26.3299
1048	26.2863
1044	26.313
1040	26.3542
1036	26.3367
1032	26.2456
1028	26.1196
1024	26.0638
1020	26.144
1016	26.1064
1012	25.9051
1008	25.782
1004	25.6977
1000	25.6613
996	 25.7468
992	 25.8002
988	 25.7616
984	 25.7606
980	 25.7992
976	 25.7363
972	 25.6182
968	 25.5403
964	 25.4185
960	 25.2372
956	 25.1592
952	 25.2221
948	 25.2563
944	 25.2271
940	 25.1858
936	 25.12
932	 25.0877
928	 25.1336
924	 25.1171
920	 24.8851
916	 24.6535
912	 24.6779
908	 24.7732
904	 24.7512
900	 24.7123
896	 24.6406
892	 24.4461
888	 24.2852
884	 24.2654
880	 24.3096
876	 24.2836
872	 24.1746
868	 24.1635
864	 24.2073
860	 24.1864
856	 24.199
852	 24.1549
848	 23.9544
844	 23.7501
840	 23.6139
836	 23.5009
832	 23.4037
828	 23.4381
824	 23.5439
820	 23.5072
816	 23.4347
812	 23.4264
808	 23.3999
804	 23.3895
800	 23.3704
796	 23.2103
792	 22.9466
788	 22.7795
784	 22.7065
780	 22.5599
776	 22.4262
772	 22.4262
768	 22.4492
764	 22.3461
760	 22.2171
756	 22.1834
752	 22.0114
748	 21.6925
744	 21.5865
740	 21.7247
736	 21.7935
732	 21.5831
728	 21.3773
724	 21.4325
720	 21.5471
716	 21.6089
712	 21.5571
708	 21.3123
704	 21.0079
700	 20.8715
696	 20.8756
692	 20.7779
688	 20.6939
684	 20.656
680	 20.4598
676	 20.2562
672	 20.2057
668	 20.2697
664	 20.3189
660	 20.217
656	 20.002
652	 19.7884
648	 19.5254
644	 19.2779
640	 19.1954
636	 19.2077
632	 19.2467
628	 19.14
624	 18.8611
620	 18.669
616	 18.6513
612	 18.7679
608	 18.9366
604	 19.0588
600	 18.9493
596	 18.594
592	 18.3133
588	 18.2184
584	 18.2043
580	 18.2167
576	 18.1682
572	 17.8613
568	 17.366
564	 17.1634
560	 17.3132
556	 17.3953
552	 17.3394
548	 17.4087
544	 17.4177
540	 17.2146
536	 16.9822
532	 16.8477
528	 16.9212
524	 16.8865
520	 16.8237
516	 16.8218
512	 16.5604
508	 16.4792
504	 16.4673
500	 15.977
496	 15.4546
492	 15.1893
488	 15.1437
484	 15.1279
480	 14.8657
476	 14.7792
472	 14.9143
468	 14.7511
464	 14.2849
460	 13.5683
456	 12.8277
452	 12.6349
448	 12.7196
444	 12.7001
440	 13.0013
436	 13.4655
432	 12.8652
428	 11.22
424	 10.462
420	 10.7671
416	 10.147
412	 9.166049
408	 9.610819
404	 5.377817
400	 -3.551769
396	 -4.697108
392	 -3.603219
388	 -8.351993
384	 -6.651878
380	 9.343123
376	 8.689904
372	 -17.3061
370	 -36.4863