File: Bakgrunnsmateriale/MATLAB/FTIR/ftir_data/LPE453/Mapping_121/LPE453_t98.asc
PE IR       SPECTRUM    SPECTRUM    ASCII       PEDS        1.60
  -1
LPE7B9~1.ASC
17/05/16
22:25:07.00
17/05/16
22:25:33.00
tln
$LPE453_t0098$<tbV0>[-10.4,7.8,8.0,0.0,27,1,0]
27.028
64

2002,4.07
MIRTGS : RIGHTBACK : INTERNAL 2
MIR : ON : INTERNAL 2
OPTKBR

0.200000
8
8.000000
FILLER
RATIO
SPECTRUM
UNLOCKED 256

DOUBLE
64
COMBINED
1
0
0

0.002000
RATIO

1
0
TRUE
51149
0
LEFT NOT FITTED RIGHT NOT FITTED 0
NONE
NONE
15600
12
4.427000
51148
TRUE
1 0 8 72 0 0 0 0

15798

#HDR
-1
-1
#GR
µM
%T
2.38419e-05
0.0
2.000000
0.002000
12515
8
37.5861
-13.1265
#DATA
2.000000	 0.151920
2.018000	 -0.215100
2.036000	 0.244671
2.054000	 -0.224453
2.072000	 -0.052856
2.090000	 0.191436
2.108000	 0.244782
2.126000	 -0.573501
2.144000	 -1.061284
2.162000	 0.624951
2.180000	 1.710792
2.198000	 0.676485
2.216000	 -0.711192
2.234000	 -0.297466
2.252000	 0.037637
2.270000	 0.615627
2.288000	 0.055243
2.306000	 0.149713
2.324000	 -0.259948
2.342000	 0.001684
2.360000	 -0.106852
2.378000	 0.187751
2.396000	 0.350503
2.414000	 -0.008052
2.432000	 -0.020265
2.450000	 0.064057
2.468000	 0.097359
2.486000	 -0.037964
2.504000	 -0.171109
2.522000	 0.307469
2.540000	 -0.038312
2.558000	 0.061467
2.576000	 0.028243
2.594000	 0.163777
2.612000	 0.207868
2.630000	 0.078709
2.648000	 0.018635
2.666000	 0.005305
2.684000	 0.142630
2.702000	 0.105112
2.720000	 -0.077860
2.738000	 0.204174
2.756000	 0.143249
2.774000	 -0.046751
2.792000	 -0.025420
2.810000	 0.002916
2.828000	 0.079278
2.846000	 -0.047303
2.864000	 0.063024
2.882000	 0.202807
2.900000	 -0.038493
2.918000	 0.060757
2.936000	 0.003611
2.954000	 0.050430
2.972000	 0.108025
2.990000	 0.063356
3.008000	 -0.046981
3.026000	 -0.002384
3.044000	 -0.038456
3.062000	 -0.018060
3.080000	 0.013877
3.098000	 0.075930
3.116000	 0.023524
3.134000	 0.005389
3.152000	 0.074706
3.170000	 0.030039
3.188000	 0.008628
3.206000	 0.208270
3.224000	 -0.000975
3.242000	 -0.044727
3.260000	 0.068935
3.278000	 0.123226
3.296000	 0.003197
3.314000	 0.070484
3.332000	 0.068670
3.350000	 -0.092562
3.368000	 0.118697
3.386000	 0.107330
3.404000	 -0.090069
3.422000	 -0.030602
3.440000	 0.201563
3.458000	 0.038378
3.476000	 -0.089165
3.494000	 -0.016146
3.512000	 0.061394
3.530000	 0.000093
3.548000	 0.003335
3.566000	 0.029682
3.584000	 -0.069318
3.602000	 -0.039648
3.620000	 0.125396
3.638000	 0.073741
3.656000	 0.116271
3.674000	 0.065677
3.692000	 0.013600
3.710000	 -0.071543
3.728000	 0.026801
3.746000	 0.124598
3.764000	 0.091179
3.782000	 0.195713
3.800000	 0.001534
3.818000	 0.029169
3.836000	 0.002304
3.854000	 -0.058249
3.872000	 0.060551
3.890000	 0.054121
3.908000	 -0.099958
3.926000	 0.054104
3.944000	 0.064390
3.962000	 0.078810
3.980000	 0.067444
3.998000	 0.008812
4.016000	 -0.029936
4.034000	 0.068657
4.052000	 -0.024119
4.070000	 -0.034944
4.088000	 0.095520
4.106000	 0.145280
4.124000	 0.268962
4.141999	 0.276993
4.160000	 -0.169760
4.178000	 -0.021358
4.196000	 0.098904
4.214000	 0.131413
4.232000	 0.154686
4.250000	 0.280589
4.268000	 0.160816
4.286000	 0.176470
4.304000	 0.399083
4.322000	 0.607356
4.340000	 0.757077
4.358000	 0.947777
4.375999	 1.040125
4.394000	 1.247804
4.412000	 1.520159
4.430000	 1.836484
4.448000	 2.211662
4.466000	 2.635056
4.484000	 3.071987
4.502000	 3.603647
4.520000	 4.179342
4.538000	 5.000518
4.556000	 5.599533
4.574000	 6.330658
4.592000	 7.111944
4.609999	 8.113934
4.628000	 9.033026
4.646000	 10.177
4.664000	 11.1598
4.682000	 12.0634
4.700000	 13.1028
4.718000	 14.2854
4.736000	 15.5555
4.754000	 16.5544
4.772000	 17.5066
4.790000	 18.3929
4.808000	 19.2619
4.826000	 20.4619
4.843999	 21.4022
4.862000	 22.4917
4.880000	 23.4783
4.898000	 24.2444
4.916000	 24.9584
4.934000	 25.5927
4.952000	 26.3767
4.970000	 27.2867
4.988000	 28.0555
5.006000	 28.781
5.024000	 29.2566
5.042000	 29.7553
5.060000	 30.1279
5.077999	 30.3839
5.096000	 30.8158
5.114000	 31.4218
5.132000	 32.1338
5.150000	 32.6678
5.168000	 33.0502
5.186000	 33.2331
5.204000	 33.3424
5.222000	 33.3583
5.240000	 33.4019
5.258000	 33.7308
5.276000	 34.2656
5.294000	 34.7066
5.312000	 35.0931
5.330000	 35.306
5.348000	 35.3228
5.366000	 35.2441
5.384000	 35.074
5.402000	 35.0511
5.420000	 35.2958
5.438000	 35.664
5.456000	 36.0319
5.474000	 36.4004
5.492000	 36.5798
5.510000	 36.5886
5.528000	 36.4025
5.546000	 36.1998
5.564000	 36.0545
5.582000	 36.0021
5.600000	 36.1083
5.618000	 36.3797
5.636000	 36.7464
5.654000	 37.0168
5.672000	 37.1339
5.690000	 37.036
5.708000	 36.9323
5.726000	 36.6861
5.744000	 36.3668
5.762000	 36.2545
5.780000	 36.3243
5.798000	 36.5167
5.816000	 36.8806
5.834000	 37.2222
5.852000	 37.3605
5.870000	 37.4699
5.888000	 37.5038
5.906000	 37.3269
5.923999	 37.1056
5.942000	 36.8536
5.960000	 36.6502
5.978000	 36.5736
5.996000	 36.619
6.014000	 36.8081
6.032000	 37.0783
6.050000	 37.3843
6.068000	 37.5762
6.086000	 37.5601
6.104000	 37.542
6.122000	 37.4379
6.140000	 37.1474
6.158000	 36.8356
6.176000	 36.6322
6.194000	 36.5221
6.212000	 36.5562
6.230000	 36.6989
6.248000	 36.8225
6.266000	 37.0333
6.284000	 37.2933
6.302000	 37.5123
6.320000	 37.5656
6.338000	 37.4194
6.356000	 37.2498
6.374000	 37.1325
6.392000	 36.9169
6.410000	 36.6107
6.428000	 36.3832
6.446000	 36.3812
6.464000	 36.5213
6.482000	 36.6554
6.500000	 36.8098
6.518000	 37.0079
6.536000	 37.2055
6.554000	 37.3304
6.572000	 37.3635
6.590000	 37.3286
6.608000	 37.205
6.626000	 36.9982
6.644000	 36.7742
6.662000	 36.5133
6.680000	 36.2208
6.698000	 36.1247
6.716000	 36.2448
6.734000	 36.4089
6.752000	 36.5919
6.770000	 36.7904
6.788000	 36.9913
6.806000	 37.1532
6.824000	 37.2229
6.842000	 37.2052
6.860000	 37.0989
6.878000	 36.9094
6.896000	 36.736
6.914000	 36.6139
6.932000	 36.5044
6.950000	 36.3825
6.968000	 36.2226
6.986000	 36.0762
7.004000	 36.0252
7.022000	 36.0871
7.040000	 36.2117
7.058000	 36.3458
7.076000	 36.5008
7.094000	 36.7031
7.112000	 36.9237
7.130000	 37.0957
7.148000	 37.1496
7.166000	 37.0833
7.184000	 36.9719
7.202000	 36.8381
7.220000	 36.6328
7.238000	 36.3575
7.256000	 36.0815
7.274000	 35.8846
7.292000	 35.8204
7.310000	 35.8557
7.328000	 35.8899
7.346000	 35.9127
7.364000	 36.0207
7.382000	 36.2341
7.400000	 36.4633
7.418000	 36.6383
7.436000	 36.7445
7.454000	 36.8044
7.472000	 36.841
7.490000	 36.8338
7.508000	 36.7718
7.526000	 36.6818
7.544000	 36.5526
7.562000	 36.3585
7.580000	 36.1438
7.598000	 35.9752
7.616000	 35.8619
7.634000	 35.7679
7.652000	 35.6747
7.670000	 35.61
7.688000	 35.6193
7.706000	 35.7179
7.724000	 35.8849
7.742000	 36.0818
7.760000	 36.2637
7.778000	 36.3977
7.796000	 36.4846
7.814000	 36.5486
7.832000	 36.602
7.850000	 36.6344
7.868000	 36.6246
7.886000	 36.5468
7.904000	 36.3995
7.922000	 36.2221
7.940000	 36.0494
7.958000	 35.8725
7.976000	 35.6886
7.994000	 35.5338
8.012000	 35.4373
8.030000	 35.3996
8.048000	 35.4116
8.065999	 35.4647
8.084000	 35.5509
8.102000	 35.6648
8.120000	 35.7962
8.138000	 35.9287
8.155999	 36.0602
8.173999	 36.1994
8.192000	 36.3371
8.210000	 36.4452
8.228000	 36.5037
8.246000	 36.5138
8.263999	 36.4828
8.282000	 36.4094
8.300000	 36.2827
8.318000	 36.1014
8.336000	 35.8928
8.353999	 35.7016
8.372000	 35.5513
8.390000	 35.4303
8.408000	 35.3198
8.426000	 35.2226
8.443999	 35.1552
8.462000	 35.1277
8.480000	 35.1434
8.498000	 35.2121
8.516000	 35.3388
8.533999	 35.4984
8.552000	 35.642
8.570000	 35.7435
8.588000	 35.8265
8.606000	 35.9299
8.624000	 36.0533
8.641999	 36.1567
8.660000	 36.2103
8.678000	 36.2229
8.696000	 36.2161
8.714000	 36.1947
8.731999	 36.149
8.750000	 36.0701
8.768000	 35.9532
8.786000	 35.7981
8.804000	 35.6168
8.821999	 35.4348
8.840000	 35.2763
8.858000	 35.1544
8.876000	 35.075
8.894000	 35.0371
8.911999	 35.0276
8.930000	 35.0265
8.948000	 35.0237
8.966000	 35.0255
8.984000	 35.0485
9.001999	 35.1112
9.020000	 35.2263
9.038000	 35.3876
9.056000	 35.5606
9.074000	 35.6982
9.092000	 35.7798
9.109999	 35.8283
9.128000	 35.884
9.146000	 35.9641
9.164000	 36.0516
9.182000	 36.1194
9.199999	 36.1514
9.218000	 36.1403
9.236000	 36.0751
9.254000	 35.946
9.272000	 35.7617
9.289999	 35.5551
9.308000	 35.3652
9.326000	 35.2126
9.344000	 35.0935
9.362000	 34.9944
9.379999	 34.9082
9.398000	 34.836
9.416000	 34.777
9.434000	 34.7246
9.452000	 34.6716
9.469999	 34.6174
9.488000	 34.5708
9.506000	 34.5446
9.524000	 34.552
9.542000	 34.6039
9.560000	 34.7063
9.577999	 34.8557
9.596000	 35.0365
9.614000	 35.226
9.632000	 35.4022
9.650000	 35.5476
9.667999	 35.6497
9.686000	 35.7012
9.704000	 35.7029
9.722000	 35.6662
9.740000	 35.6095
9.757999	 35.55
9.776000	 35.4968
9.794000	 35.4483
9.812000	 35.395
9.830000	 35.323
9.847999	 35.219
9.866000	 35.0794
9.884000	 34.9181
9.902000	 34.7629
9.920000	 34.6397
9.937999	 34.5557
9.956000	 34.4956
9.974000	 34.4346
9.992000	 34.3583
10.01	34.2729
10.028	34.1995
10.046	34.1593
10.064	34.1575
10.082	34.1853
10.1	34.2294
10.118	34.2849
10.136	34.3598
10.154	34.4658
10.172	34.6044
10.19	34.7593
10.208	34.9042
10.226	35.0183
10.244	35.0979
10.262	35.1546
10.28	35.2034
10.298	35.2516
10.316	35.2954
10.334	35.324
10.352	35.3277
10.37	35.3019
10.388	35.2485
10.406	35.1732
10.424	35.0846
10.442	34.9921
10.46	34.903
10.478	34.8199
10.496	34.7394
10.514	34.656
10.532	34.5652
10.55	34.4675
10.568	34.3665
10.586	34.2664
10.604	34.1699
10.622	34.0781
10.64	33.9925
10.658	33.9168
10.676	33.857
10.694	33.8182
10.712	33.8019
10.73	33.8033
10.748	33.8145
10.766	33.8282
10.784	33.8427
10.802	33.8625
10.82	33.8953
10.838	33.9476
10.856	34.0201
10.874	34.107
10.892	34.199
10.91	34.2871
10.928	34.3668
10.946	34.4382
10.964	34.5046
10.982	34.5693
11	34.6332
11.018	34.6938
11.036	34.7462
11.054	34.7849
11.072	34.8058
11.09	34.8072
11.108	34.7897
11.126	34.7551
11.144	34.7054
11.162	34.643
11.18	34.5699
11.198	34.4887
11.216	34.402
11.234	34.3126
11.252	34.2215
11.27	34.1282
11.288	34.0311
11.306	33.9285
11.324	33.8202
11.342	33.7083
11.36	33.5966
11.378	33.4887
11.396	33.3867
11.414	33.2914
11.432	33.2039
11.45	33.1271
11.468	33.0672
11.486	33.032
11.504	33.0281
11.522	33.0575
11.54	33.1157
11.558	33.1912
11.576	33.2679
11.594	33.3313
11.612	33.3723
11.63	33.3921
11.648	33.4016
11.666	33.4188
11.684	33.4612
11.702	33.5388
11.72	33.6511
11.738	33.7866
11.756	33.9283
11.774	34.0583
11.792	34.1634
11.81	34.2378
11.828	34.2825
11.846	34.3021
11.864	34.303
11.882	34.2903
11.9	34.2692
11.918	34.2443
11.936	34.2193
11.954	34.1967
11.972	34.175
11.99	34.1486
12.008	34.1093
12.026	34.0482
12.044	33.9591
12.062	33.8425
12.08	33.7055
12.098	33.5605
12.116	33.4207
12.134	33.2962
12.152	33.1907
12.17	33.1024
12.188	33.0262
12.206	32.9565
12.224	32.8895
12.242	32.8247
12.26	32.7629
12.278	32.7055
12.296	32.6526
12.314	32.6032
12.332	32.5559
12.35	32.5089
12.368	32.4619
12.386	32.4169
12.404	32.3783
12.422	32.3522
12.44	32.3442
12.458	32.3585
12.476	32.3955
12.494	32.4522
12.512	32.5226
12.53	32.5999
12.548	32.678
12.566	32.7527
12.584	32.8221
12.602	32.8858
12.62	32.9452
12.638	33.0019
12.656	33.0572
12.674	33.1123
12.692	33.1678
12.71	33.2242
12.728	33.2815
12.746	33.3388
12.764	33.394
12.782	33.444
12.8	33.4848
12.818	33.5123
12.836	33.5243
12.854	33.5198
12.872	33.5006
12.89	33.4697
12.908	33.4311
12.926	33.3879
12.944	33.3424
12.962	33.2952
12.98	33.2461
12.998	33.1947
13.016	33.1409
13.034	33.0854
13.052	33.0293
13.07	32.9736
13.088	32.9187
13.106	32.8637
13.124	32.8066
13.142	32.7449
13.16	32.6757
13.178	32.5975
13.196	32.5104
13.214	32.4165
13.232	32.3197
13.25	32.2249
13.268	32.1364
13.286	32.0576
13.304	31.9898
13.322	31.9326
13.34	31.8837
13.358	31.8407
13.376	31.8014
13.394	31.7649
13.412	31.7319
13.43	31.7043
13.448	31.685
13.466	31.6767
13.484	31.6815
13.502	31.6999
13.52	31.7312
13.538	31.7734
13.556	31.8241
13.574	31.8813
13.592	31.9435
13.61	32.01
13.628	32.0803
13.646	32.1535
13.664	32.2279
13.682	32.3006
13.7	32.368
13.718	32.4264
13.736	32.4726
13.754	32.5048
13.772	32.5231
13.79	32.5293
13.808	32.5266
13.826	32.5191
13.844	32.5107
13.862	32.5049
13.88	32.5039
13.898	32.5087
13.916	32.5191
13.934	32.5342
13.952	32.5525
13.97	32.5722
13.988	32.5914
14.006	32.6081
14.024	32.6202
14.042	32.6255
14.06	32.6217
14.078	32.6072
14.096	32.5808
14.114	32.5425
14.132	32.4932
14.15	32.4346
14.168	32.3692
14.186	32.2993
14.204	32.2273
14.222	32.1547
14.24	32.0827
14.258	32.0115
14.276	31.941
14.294	31.8707
14.312	31.8
14.33	31.7287
14.348	31.6566
14.366	31.584
14.384	31.5115
14.402	31.44
14.42	31.3706
14.438	31.3043
14.456	31.2419
14.474	31.1839
14.492	31.1302
14.51	31.0806
14.528	31.0348
14.546	30.9923
14.564	30.9527
14.582	30.9159
14.6	30.8823
14.618	30.8527
14.636	30.8283
14.654	30.8109
14.672	30.8018
14.69	30.8025
14.708	30.8134
14.726	30.8343
14.744	30.8637
14.762	30.899
14.78	30.9372
14.798	30.9749
14.816	31.009
14.834	31.0368
14.852	31.0564
14.87	31.0677
14.888	31.071
14.906	31.0679
14.924	31.0604
14.942	31.0509
14.96	31.0419
14.978	31.0356
14.996	31.0336
15.014	31.0371
15.032	31.047
15.05	31.0638
15.068	31.0874
15.086	31.1175
15.104	31.1535
15.122	31.1945
15.14	31.2394
15.158	31.287
15.176	31.336
15.194	31.3848
15.212	31.4316
15.23	31.4752
15.248	31.5144
15.266	31.5482
15.284	31.5763
15.302	31.598
15.32	31.6136
15.338	31.623
15.356	31.626
15.374	31.6227
15.392	31.6125
15.41	31.5946
15.428	31.5684
15.446	31.5327
15.464	31.4872
15.482	31.4317
15.5	31.3663
15.518	31.2926
15.536	31.2128
15.554	31.1293
15.572	31.0452
15.59	30.9641
15.608	30.8891
15.626	30.8224
15.644	30.7659
15.662	30.7202
15.68	30.6843
15.698	30.6569
15.716	30.6356
15.734	30.6171
15.752	30.5988
15.77	30.578
15.788	30.5522
15.806	30.52
15.824	30.481
15.842	30.4351
15.86	30.3837
15.878	30.328
15.896	30.2692
15.914	30.2095
15.932	30.1499
15.95	30.0913
15.968	30.0348
15.986	29.9803
16.004	29.9278
16.022	29.8774
16.04	29.8288
16.058	29.7824
16.076	29.7385
16.094	29.6979
16.112	29.6619
16.13	29.6316
16.148	29.608
16.166	29.5923
16.184	29.5847
16.202	29.5854
16.22	29.5934
16.238	29.6074
16.256	29.6258
16.274	29.6457
16.292	29.6648
16.31	29.6811
16.328	29.6919
16.346	29.6964
16.364	29.6939
16.382	29.6844
16.4	29.6694
16.418	29.6499
16.436	29.6286
16.454	29.6081
16.472	29.5904
16.49	29.579
16.508	29.5757
16.526	29.5822
16.544	29.6001
16.562	29.6296
16.58	29.671
16.598	29.7235
16.616	29.786
16.634	29.8572
16.652	29.9347
16.67	30.0165
16.688	30.1007
16.706	30.1837
16.724	30.2638
16.742	30.338
16.76	30.4033
16.778	30.4584
16.796	30.5004
16.814	30.5278
16.832	30.5399
16.85	30.5354
16.868	30.515
16.886	30.479
16.904	30.4292
16.922	30.3675
16.94	30.2962
16.958	30.2194
16.976	30.1387
16.994	30.0589
17.012	29.9825
17.03	29.9116
17.048	29.8497
17.066	29.7973
17.084	29.7557
17.102	29.7247
17.12	29.7038
17.138	29.6915
17.156	29.6858
17.174	29.6853
17.192	29.6865
17.21	29.6881
17.228	29.687
17.246	29.6818
17.264	29.6712
17.282	29.6541
17.3	29.6307
17.318	29.6009
17.336	29.566
17.354	29.5265
17.372	29.4846
17.39	29.4411
17.408	29.3979
17.426	29.3564
17.444	29.3175
17.462	29.2823
17.48	29.2511
17.498	29.2241
17.516	29.2007
17.534	29.1806
17.552	29.1623
17.57	29.1453
17.588	29.1278
17.606	29.1089
17.624	29.0876
17.642	29.0627
17.66	29.034
17.678	29.0007
17.696	28.9629
17.714	28.9209
17.732	28.8751
17.75	28.8258
17.768	28.7745
17.786	28.7215
17.804	28.6685
17.822	28.6157
17.84	28.5648
17.858	28.516
17.876	28.4701
17.894	28.4272
17.912	28.3876
17.93	28.3513
17.948	28.3181
17.966	28.2874
17.984	28.2588
18.002	28.2313
18.02	28.2044
18.038	28.1772
18.056	28.1494
18.074	28.1206
18.092	28.0909
18.11	28.0603
18.128	28.0297
18.146	27.9997
18.164	27.9718
18.182	27.9469
18.2	27.9265
18.218	27.9121
18.236	27.9047
18.254	27.9059
18.272	27.9163
18.29	27.9361
18.308	27.9656
18.326	28.0039
18.344	28.0506
18.362	28.1036
18.38	28.162
18.398	28.2234
18.416	28.2862
18.434	28.3481
18.452	28.4075
18.47	28.4629
18.488	28.513
18.506	28.5571
18.524	28.5951
18.542	28.6267
18.56	28.6532
18.578	28.6745
18.596	28.6928
18.614	28.7084
18.632	28.7235
18.65	28.7382
18.668	28.7547
18.686	28.7728
18.704	28.7935
18.722	28.8166
18.74	28.842
18.758	28.8696
18.776	28.8985
18.794	28.9285
18.812	28.9584
18.83	28.988
18.848	29.0161
18.866	29.0426
18.884	29.0666
18.902	29.088
18.92	29.1063
18.938	29.1215
18.956	29.1334
18.974	29.1417
18.992	29.1465
19.01	29.1476
19.028	29.1448
19.046	29.138
19.064	29.127
19.082	29.1117
19.1	29.0919
19.118	29.0676
19.136	29.0385
19.154	29.0049
19.172	28.9668
19.19	28.9246
19.208	28.8786
19.226	28.8291
19.244	28.7775
19.262	28.7238
19.28	28.6697
19.298	28.6154
19.316	28.5625
19.334	28.5111
19.352	28.4628
19.37	28.4173
19.388	28.376
19.406	28.3386
19.424	28.3054
19.442	28.2765
19.46	28.2514
19.478	28.2304
19.496	28.2122
19.514	28.1967
19.532	28.183
19.55	28.1705
19.568	28.1582
19.586	28.1453
19.604	28.1312
19.622	28.1146
19.64	28.0954
19.658	28.0723
19.676	28.0454
19.694	28.0135
19.712	27.9769
19.73	27.9351
19.748	27.8879
19.766	27.8357
19.784	27.7784
19.802	27.7165
19.82	27.6503
19.838	27.5803
19.856	27.5076
19.874	27.4322
19.892	27.3554
19.91	27.2771
19.928	27.1986
19.946	27.1197
19.964	27.0414
19.982	26.9637
20	26.887
20.018	26.8117
20.036	26.7378
20.054	26.6659
20.072	26.596
20.09	26.529
20.108	26.4646
20.126	26.404
20.144	26.347
20.162	26.2949
20.18	26.2479
20.198	26.2068
20.216	26.1726
20.234	26.1453
20.252	26.1264
20.27	26.1156
20.288	26.1138
20.306	26.1209
20.324	26.1369
20.342	26.1618
20.36	26.1952
20.378	26.2356
20.396	26.2834
20.414	26.336
20.432	26.394
20.45	26.4544
20.468	26.5164
20.486	26.5791
20.504	26.6397
20.522	26.6989
20.54	26.7538
20.558	26.8046
20.576	26.8503
20.594	26.8902
20.612	26.9246
20.63	26.9531
20.648	26.976
20.666	26.9944
20.684	27.008
20.702	27.0186
20.72	27.0268
20.738	27.0331
20.756	27.0397
20.774	27.0462
20.792	27.0545
20.81	27.065
20.828	27.078
20.846	27.0946
20.864	27.1145
20.882	27.1383
20.9	27.166
20.918	27.1971
20.936	27.2314
20.954	27.2687
20.972	27.3077
20.99	27.3488
21.008	27.3904
21.026	27.432
21.044	27.4732
21.062	27.5125
21.08	27.5503
21.098	27.5851
21.116	27.6164
21.134	27.6441
21.152	27.6669
21.17	27.6852
21.188	27.6984
21.206	27.7063
21.224	27.7091
21.242	27.7068
21.26	27.6994
21.278	27.6876
21.296	27.6714
21.314	27.6514
21.332	27.6286
21.35	27.6026
21.368	27.5751
21.386	27.5464
21.404	27.5167
21.422	27.4878
21.44	27.459
21.458	27.4319
21.476	27.4071
21.494	27.3845
21.512	27.3651
21.53	27.3486
21.548	27.3353
21.566	27.3256
21.584	27.3191
21.602	27.3151
21.62	27.3139
21.638	27.3146
21.656	27.3162
21.674	27.3191
21.692	27.3213
21.71	27.3225
21.728	27.3223
21.746	27.3187
21.764	27.3122
21.782	27.3017
21.8	27.2858
21.818	27.2651
21.836	27.2387
21.854	27.2062
21.872	27.168
21.89	27.1239
21.908	27.0736
21.926	27.0182
21.944	26.9582
21.962	26.8935
21.98	26.8257
21.998	26.7546
22.016	26.681
22.034	26.6067
22.052	26.5312
22.07	26.4556
22.088	26.3809
22.106	26.3065
22.124	26.2335
22.142	26.1621
22.16	26.0921
22.178	26.0232
22.196	25.9557
22.214	25.8889
22.232	25.8221
22.25	25.7558
22.268	25.6884
22.286	25.6192
22.304	25.5486
22.322	25.4748
22.34	25.3975
22.358	25.3168
22.376	25.2314
22.394	25.1412
22.412	25.0465
22.43	24.9469
22.448	24.8421
22.466	24.7333
22.484	24.6206
22.502	24.5038
22.52	24.3851
22.538	24.2648
22.556	24.1429
22.574	24.0222
22.592	23.9025
22.61	23.7844
22.628	23.6707
22.646	23.5607
22.664	23.4555
22.682	23.3575
22.7	23.2658
22.718	23.1815
22.736	23.1064
22.754	23.0397
22.772	22.9818
22.79	22.9333
22.808	22.894
22.826	22.8633
22.844	22.8412
22.862	22.8279
22.88	22.8217
22.898	22.8223
22.916	22.83
22.934	22.8428
22.952	22.8604
22.97	22.883
22.988	22.908
23.006	22.9352
23.024	22.9648
23.042	22.9947
23.06	23.0246
23.078	23.0549
23.096	23.0841
23.114	23.1121
23.132	23.1392
23.15	23.1649
23.168	23.1893
23.186	23.2123
23.204	23.2336
23.222	23.2531
23.24	23.2711
23.258	23.2876
23.276	23.3027
23.294	23.3165
23.312	23.3294
23.33	23.3412
23.348	23.352
23.366	23.3625
23.384	23.3725
23.402	23.3821
23.42	23.3916
23.438	23.4008
23.456	23.4098
23.474	23.4189
23.492	23.4282
23.51	23.4376
23.528	23.4473
23.546	23.4574
23.564	23.4678
23.582	23.4791
23.6	23.4912
23.618	23.5041
23.636	23.5186
23.654	23.5352
23.672	23.5535
23.69	23.574
23.708	23.5972
23.726	23.6227
23.744	23.6506
23.762	23.6808
23.78	23.7135
23.798	23.7481
23.816	23.7842
23.834	23.8223
23.852	23.8616
23.87	23.9011
23.888	23.9418
23.906	23.9826
23.924	24.0208
23.942	24.0571
23.96	24.0912
23.978	24.1195
23.996	24.1412
24.014	24.1574
24.032	24.1653
24.05	24.163
24.068	24.1519
24.086	24.1306
24.104	24.0976
24.122	24.0533
24.14	23.998
24.158	23.9316
24.176	23.8534
24.194	23.7644
24.212	23.6661
24.23	23.5578
24.248	23.4397
24.266	23.3159
24.284	23.1884
24.302	23.0546
24.32	22.9187
24.338	22.7843
24.356	22.6488
24.374	22.5145
24.392	22.385
24.41	22.2602
24.428	22.1393
24.446	22.024
24.464	21.9151
24.482	21.8123
24.5	21.714
24.518	21.6191
24.536	21.5297
24.554	21.4427
24.572	21.3542
24.59	21.2659
24.608	21.177
24.626	21.0832
24.644	20.9828
24.662	20.8781
24.68	20.7655
24.698	20.6419
24.716	20.509
24.734	20.3659
24.752	20.2102
24.77	20.0411
24.788	19.8598
24.806	19.6669
24.824	19.4624
24.842	19.2452
24.86	19.0183
24.878	18.7849
24.896	18.5424
24.914	18.2926
24.932	18.0417
24.95	17.7925
24.968	17.5406
24.986	17.2925
25.004	17.0547
25.022	16.8233
25.04	16.6004
25.058	16.3933
25.076	16.205
25.094	16.0314
25.112	15.8768
25.13	15.7453
25.148	15.6348
25.166	15.5459
25.184	15.4818
25.202	15.4441
25.22	15.4308
25.238	15.4432
25.256	15.4825
25.274	15.5491
25.292	15.6418
25.31	15.7598
25.328	15.9029
25.346	16.0726
25.364	16.2653
25.382	16.4775
25.4	16.7102
25.418	16.9635
25.436	17.2341
25.454	17.5198
25.472	17.8224
25.49	18.1407
25.508	18.4724
25.526	18.8177
25.544	19.1775
25.562	19.5488
25.58	19.9289
25.598	20.3201
25.616	20.7211
25.634	21.1281
25.652	21.5391
25.67	21.9568
25.688	22.3787
25.706	22.802
25.724	23.227
25.742	23.6547
25.76	24.0821
25.778	24.5066
25.796	24.9296
25.814	25.3507
25.832	25.7687
25.85	26.1825
25.868	26.5938
25.886	27.0008
25.904	27.4016
25.922	27.7969
25.94	28.1878
25.958	28.5701
25.976	28.9396
25.994	29.2997
26.012	29.6495
26.03	29.982
26.048	30.2912
26.066	30.582
26.084	30.8525
26.102	31.0978
26.12	31.3149
26.138	31.5088
26.156	31.6752
26.174	31.8086
26.192	31.9077
26.21	31.9767
26.228	32.0107
26.246	32.0046
26.264	31.9589
26.282	31.8758
26.3	31.7517
26.318	31.5832
26.336	31.3708
26.354	31.116
26.372	30.8178
26.39	30.4753
26.408	30.0867
26.426	29.6547
26.444	29.1834
26.462	28.6757
26.48	28.1262
26.498	27.5397
26.516	26.9238
26.534	26.283
26.552	25.6072
26.57	24.9065
26.588	24.1948
26.606	23.4791
26.624	22.7443
26.642	22.0051
26.66	21.28
26.678	20.5771
26.696	19.8783
26.714	19.2009
26.732	18.5655
26.75	17.9808
26.768	17.429
26.786	16.925
26.804	16.4861
26.822	16.12
26.84	15.8115
26.858	15.5719
26.876	15.4145
26.894	15.3464
26.912	15.3577
26.93	15.4514
26.948	15.6316
26.966	15.9355
26.984	16.4117
27.002	16.9291
27.02	17.3456
27.028	17.4504