File: Bakgrunnsmateriale/MATLAB/FTIR/ftir_data/CMT801/Mapping_1/CMT801_t01-um.asc
PE IR       SPECTRUM    SPECTRUM    ASCII       PEDS        1.60
  -1
CMT801~2.ASC
17/06/01
09:36:16.00
17/06/01
09:36:57.00
tln
$CMT801_t0001$<tbV0>[0.0,-7.7,9.0,0.0,22,1,0]
27.028
64

2002,4.07
MIRTGS : RIGHTBACK : INTERNAL 2
MIR : ON : INTERNAL 2
OPTKBR

0.200000
8
8.000000
FILLER
RATIO
SPECTRUM
UNLOCKED 256

DOUBLE
64
COMBINED
1
0
0

0.002000
RATIO

1
0
TRUE
51149
0
LEFT NOT FITTED RIGHT NOT FITTED 0
NONE
NONE
15600
12
4.427000
51148
TRUE
1 0 8 72 0 0 0 0

15798

#HDR
-1
-1
#GR
µM
%T
2.38419e-05
0.0
1.282000
0.002000
12874
8
63.3337
-7.139003
#DATA
1.282000	 1.126790
1.300000	 -0.454858
1.318000	 3.091989
1.336000	 -0.868881
1.354000	 2.149217
1.372000	 0.487816
1.390000	 -0.818968
1.408000	 0.799267
1.426000	 1.023947
1.444000	 0.408244
1.462000	 0.629848
1.480000	 -0.582260
1.498000	 -0.657517
1.516000	 1.541520
1.534000	 0.979007
1.552000	 0.555999
1.570000	 -0.046063
1.588000	 1.754887
1.606000	 -0.104029
1.624000	 1.222422
1.642000	 0.400516
1.660000	 0.214222
1.678000	 0.274706
1.696000	 0.551142
1.714000	 0.972679
1.732000	 0.209038
1.750000	 0.255436
1.768000	 0.550021
1.786000	 -0.560205
1.804000	 0.426843
1.822000	 -0.027441
1.840000	 -0.180140
1.858000	 0.097696
1.876000	 0.737100
1.894000	 -0.234326
1.912000	 -0.711112
1.930000	 0.625847
1.948000	 0.319365
1.966000	 0.277182
1.984000	 0.288727
2.002000	 0.313604
2.020000	 0.393695
2.038000	 0.119611
2.056000	 0.273867
2.074000	 0.072795
2.092000	 0.126321
2.110000	 0.007354
2.128000	 0.154017
2.146000	 -1.515011
2.164000	 0.278231
2.182000	 -0.037889
2.200000	 -0.265329
2.218000	 0.193231
2.236000	 -0.172029
2.254000	 0.076806
2.272000	 0.077372
2.290000	 0.197061
2.308000	 -0.105303
2.326000	 0.306379
2.344000	 0.296815
2.362000	 0.159831
2.380000	 0.253445
2.398000	 0.592431
2.416000	 0.089387
2.434000	 -0.114867
2.452000	 -0.129374
2.470000	 0.315727
2.488000	 -0.056446
2.506000	 0.043141
2.524000	 -0.154774
2.542000	 -0.174556
2.560000	 -0.098738
2.578000	 0.048055
2.596000	 0.110870
2.614000	 0.243278
2.632000	 0.053130
2.650000	 0.157869
2.668000	 0.037741
2.686000	 0.021215
2.704000	 -0.044632
2.722000	 0.041927
2.740000	 0.247973
2.758000	 0.019349
2.776000	 -0.179160
2.794000	 0.532473
2.812000	 -0.531215
2.830000	 0.471312
2.848000	 0.699594
2.866000	 -0.406706
2.884000	 0.336044
2.902000	 -0.009082
2.920000	 0.045099
2.938000	 0.081264
2.956000	 0.018108
2.974000	 0.054192
2.992000	 0.110197
3.010000	 -0.022135
3.028000	 -0.047548
3.046000	 -0.099351
3.064000	 0.128512
3.082000	 0.081099
3.100000	 0.126058
3.118000	 0.048647
3.136000	 0.114660
3.154000	 0.137308
3.172000	 0.089718
3.190000	 0.156766
3.208000	 0.058894
3.226000	 -0.097160
3.244000	 0.073371
3.262000	 0.030023
3.280000	 0.012340
3.298000	 0.163834
3.316000	 0.026220
3.334000	 0.009677
3.352000	 0.088073
3.370000	 0.186450
3.388000	 -0.042276
3.406000	 -0.049808
3.424000	 0.045428
3.442000	 0.016322
3.460000	 0.035528
3.478000	 0.056611
3.496000	 -0.022290
3.514000	 0.037203
3.532000	 0.089576
3.550000	 -0.061329
3.568000	 -0.026772
3.586000	 0.042214
3.604000	 0.060983
3.622000	 -0.057953
3.640000	 0.003778
3.658000	 -0.052574
3.676000	 0.057946
3.694000	 0.061960
3.712000	 0.076743
3.730000	 0.095572
3.748000	 0.006559
3.766000	 0.038897
3.784000	 0.024912
3.802000	 0.047359
3.820000	 -0.007982
3.838000	 0.103431
3.856000	 -0.000711
3.874000	 0.049224
3.892000	 0.037109
3.910000	 0.024401
3.928000	 0.117864
3.946000	 0.034508
3.964000	 0.126637
3.982000	 0.095613
4.000000	 0.162100
4.018000	 0.052198
4.036000	 0.024144
4.054000	 0.028920
4.072000	 0.067622
4.090000	 0.175178
4.108000	 0.025877
4.125999	 -0.098692
4.144000	 -0.058734
4.162000	 -0.023694
4.180000	 0.086918
4.198000	 0.100194
4.216000	 0.083374
4.234000	 0.060092
4.252000	 0.075084
4.270000	 0.086112
4.288000	 -0.008680
4.306000	 0.081962
4.324000	 0.171383
4.342000	 0.146769
4.359999	 0.123384
4.378000	 0.189933
4.396000	 0.237687
4.414000	 0.130611
4.432000	 0.195740
4.450000	 0.194072
4.468000	 0.086355
4.486000	 0.277952
4.504000	 0.178299
4.522000	 0.169675
4.540000	 0.169126
4.558000	 0.104232
4.576000	 0.229863
4.594000	 0.189156
4.612000	 0.302824
4.630000	 0.228880
4.648000	 0.157196
4.666000	 0.134300
4.684000	 0.251529
4.702000	 0.289059
4.720000	 0.320903
4.738000	 0.275110
4.756000	 0.227612
4.774000	 0.386724
4.792000	 0.305617
4.810000	 0.106855
4.828000	 0.171612
4.846000	 0.352902
4.864000	 0.375130
4.882000	 0.426613
4.900000	 0.465403
4.918000	 0.396005
4.936000	 0.399577
4.954000	 0.500008
4.972000	 0.502087
4.990000	 0.634340
5.008000	 0.653897
5.026000	 0.615578
5.044000	 0.733420
5.062000	 0.759720
5.080000	 0.769319
5.098000	 0.815400
5.116000	 0.799937
5.134000	 0.825090
5.152000	 0.802118
5.170000	 0.892467
5.188000	 0.933888
5.206000	 0.998715
5.224000	 1.152487
5.242000	 1.170060
5.260000	 1.177011
5.278000	 1.248021
5.296000	 1.397409
5.314000	 1.431875
5.332000	 1.448222
5.350000	 1.565106
5.368000	 1.640401
5.386000	 1.722597
5.404000	 1.831754
5.422000	 1.916012
5.440000	 2.015600
5.458000	 2.097717
5.476000	 2.271295
5.494000	 2.380909
5.512000	 2.542766
5.530000	 2.620392
5.548000	 2.656776
5.566000	 2.884011
5.584000	 3.003133
5.602000	 3.146129
5.620000	 3.352143
5.638000	 3.541066
5.656000	 3.818537
5.674000	 4.101592
5.692000	 4.444422
5.710000	 4.639947
5.728000	 4.793149
5.746000	 4.991650
5.764000	 5.288363
5.782000	 5.724660
5.800000	 6.030716
5.818000	 6.304147
5.836000	 6.715065
5.854000	 7.042518
5.872000	 7.350295
5.890000	 7.795184
5.908000	 8.202020
5.926000	 8.590369
5.944000	 8.957260
5.962000	 9.370539
5.980000	 9.863012
5.998000	 10.3888
6.016000	 10.8942
6.034000	 11.4374
6.052000	 12.1026
6.070000	 12.7777
6.088000	 13.4476
6.106000	 14.2206
6.124000	 15.0161
6.142000	 15.8505
6.160000	 16.8485
6.178000	 17.8324
6.196000	 18.8819
6.214000	 20.0248
6.232000	 21.1144
6.250000	 22.1172
6.268000	 23.0962
6.286000	 24.0224
6.304000	 24.852
6.322000	 25.6208
6.340000	 26.4245
6.358000	 27.0678
6.376000	 27.4999
6.394000	 28.0143
6.412000	 28.6491
6.430000	 29.2011
6.448000	 29.6466
6.466000	 30.1297
6.484000	 30.8089
6.502000	 31.6011
6.520000	 32.3672
6.538000	 33.3281
6.556000	 34.5571
6.574000	 35.8634
6.592000	 37.1686
6.610000	 38.5589
6.628000	 40.093
6.646000	 41.6265
6.664000	 43.1275
6.682000	 44.7085
6.700000	 46.2696
6.718000	 47.576
6.736000	 48.5545
6.754000	 49.3181
6.772000	 49.8888
6.790000	 50.1752
6.808000	 50.2066
6.826000	 50.0304
6.844000	 49.6992
6.862000	 49.2238
6.880000	 48.5795
6.898000	 47.9024
6.916000	 47.2643
6.934000	 46.6598
6.952000	 46.1188
6.970000	 45.6301
6.988000	 45.2943
7.006000	 45.1892
7.024000	 45.2548
7.042000	 45.4379
7.060000	 45.7323
7.078000	 46.183
7.096000	 46.7988
7.114000	 47.5373
7.132000	 48.3902
7.150000	 49.3621
7.168000	 50.4348
7.186000	 51.5903
7.204000	 52.8463
7.222000	 54.1578
7.240000	 55.3986
7.258000	 56.5726
7.276000	 57.7003
7.294000	 58.6372
7.312000	 59.3084
7.330000	 59.7936
7.348000	 60.1374
7.366000	 60.3168
7.384000	 60.291
7.402000	 60.0217
7.420000	 59.5034
7.438000	 58.7795
7.456000	 57.9269
7.474000	 57.0216
7.492000	 56.1195
7.510000	 55.2231
7.528000	 54.2823
7.546000	 53.3072
7.564000	 52.3849
7.582000	 51.5529
7.600000	 50.8083
7.618000	 50.1924
7.636000	 49.7243
7.654000	 49.3662
7.672000	 49.1056
7.690000	 48.951
7.708000	 48.8808
7.726000	 48.8824
7.744000	 48.9737
7.762000	 49.1605
7.780000	 49.4393
7.798000	 49.8403
7.816000	 50.408
7.834000	 51.127
7.852000	 51.918
7.870000	 52.7341
7.888000	 53.6051
7.906000	 54.5549
7.924000	 55.5503
7.942000	 56.5373
7.960000	 57.4675
7.978000	 58.3118
7.996000	 59.092
8.013999	 59.8631
8.032000	 60.6324
8.050000	 61.3213
8.068000	 61.8145
8.086000	 62.0666
8.103999	 62.1662
8.122000	 62.2419
8.140000	 62.3042
8.158000	 62.245
8.176000	 61.9714
8.193999	 61.4931
8.212000	 60.8931
8.230000	 60.2442
8.248000	 59.5615
8.266000	 58.8399
8.283999	 58.1068
8.302000	 57.3709
8.320000	 56.5749
8.338000	 55.6762
8.356000	 54.7199
8.374000	 53.7954
8.391999	 52.9725
8.410000	 52.2969
8.428000	 51.7889
8.446000	 51.4006
8.464000	 51.026
8.481999	 50.6012
8.500000	 50.1538
8.518000	 49.7672
8.536000	 49.5264
8.554000	 49.4705
8.571999	 49.5533
8.590000	 49.6584
8.608000	 49.6908
8.626000	 49.691
8.644000	 49.7999
8.661999	 50.1024
8.680000	 50.5649
8.698000	 51.0994
8.716000	 51.6553
8.734000	 52.2349
8.751999	 52.8559
8.770000	 53.5357
8.788000	 54.2634
8.806000	 54.9843
8.824000	 55.6346
8.842000	 56.2097
8.859999	 56.7837
8.878000	 57.439
8.896000	 58.1899
8.914000	 58.9824
8.932000	 59.753
8.949999	 60.4535
8.968000	 61.0428
8.986000	 61.4966
9.004000	 61.8248
9.022000	 62.0808
9.039999	 62.3004
9.058000	 62.4755
9.076000	 62.5739
9.094000	 62.5871
9.112000	 62.5389
9.129999	 62.4411
9.148000	 62.2882
9.166000	 62.064
9.184000	 61.7676
9.202000	 61.3902
9.219999	 60.9118
9.238000	 60.3195
9.256000	 59.6375
9.274000	 58.9263
9.292000	 58.2358
9.310000	 57.5806
9.327999	 56.9448
9.346000	 56.3175
9.364000	 55.7
9.382000	 55.0973
9.400000	 54.505
9.418000	 53.9192
9.436000	 53.3495
9.454000	 52.8168
9.472000	 52.3307
9.490000	 51.8824
9.508000	 51.4578
9.526000	 51.0649
9.544000	 50.7268
9.561999	 50.4616
9.580000	 50.2559
9.598000	 50.0808
9.616000	 49.9095
9.634000	 49.7478
9.652000	 49.6208
9.670000	 49.563
9.688000	 49.5857
9.706000	 49.6865
9.724000	 49.8523
9.742000	 50.085
9.760000	 50.3873
9.778000	 50.7559
9.795999	 51.1578
9.814000	 51.5451
9.832000	 51.8808
9.850000	 52.1744
9.868000	 52.4748
9.886000	 52.8388
9.904000	 53.2924
9.922000	 53.8161
9.940000	 54.3616
9.958000	 54.8825
9.976000	 55.3668
9.994000	 55.8385
10.012	56.3405
10.03	56.9034
10.048	57.5226
10.066	58.1594
10.084	58.7628
10.102	59.3054
10.12	59.7932
10.138	60.2588
10.156	60.7258
10.174	61.1923
10.192	61.632
10.21	62.0112
10.228	62.3142
10.246	62.5416
10.264	62.7159
10.282	62.8521
10.3	62.9611
10.318	63.0371
10.336	63.0684
10.354	63.0452
10.372	62.9613
10.39	62.826
10.408	62.6475
10.426	62.4391
10.444	62.2034
10.462	61.9408
10.48	61.6504
10.498	61.3287
10.516	60.9737
10.534	60.5745
10.552	60.1232
10.57	59.6136
10.588	59.0515
10.606	58.4572
10.624	57.8564
10.642	57.2765
10.66	56.7333
10.678	56.2332
10.696	55.7748
10.714	55.3517
10.732	54.9548
10.75	54.5732
10.768	54.195
10.786	53.8142
10.804	53.4308
10.822	53.0505
10.84	52.6851
10.858	52.3416
10.876	52.0248
10.894	51.7358
10.912	51.4719
10.93	51.237
10.948	51.0337
10.966	50.8674
10.984	50.742
11.002	50.6487
11.02	50.5776
11.038	50.5117
11.056	50.437
11.074	50.3531
11.092	50.267
11.11	50.1994
11.128	50.1727
11.146	50.1981
11.164	50.2787
11.182	50.4005
11.2	50.5427
11.218	50.6917
11.236	50.839
11.254	50.9921
11.272	51.168
11.29	51.3812
11.308	51.6416
11.326	51.9445
11.344	52.2741
11.362	52.6125
11.38	52.9427
11.398	53.2599
11.416	53.5726
11.434	53.8949
11.452	54.2439
11.47	54.6308
11.488	55.0549
11.506	55.5057
11.524	55.9652
11.542	56.4145
11.56	56.8382
11.578	57.2297
11.596	57.5909
11.614	57.9295
11.632	58.2574
11.65	58.5853
11.668	58.921
11.686	59.2702
11.704	59.6344
11.722	60.011
11.74	60.3975
11.758	60.7877
11.776	61.1719
11.794	61.5418
11.812	61.8877
11.83	62.1991
11.848	62.4712
11.866	62.7007
11.884	62.8849
11.902	63.0282
11.92	63.1345
11.938	63.2061
11.956	63.2522
11.974	63.2793
11.992	63.2905
12.01	63.2913
12.028	63.2811
12.046	63.2535
12.064	63.2027
12.082	63.122
12.1	63.0049
12.118	62.8515
12.136	62.6675
12.154	62.458
12.172	62.2304
12.19	61.9899
12.208	61.7342
12.226	61.4584
12.244	61.1579
12.262	60.8275
12.28	60.4657
12.298	60.0785
12.316	59.6738
12.334	59.2609
12.352	58.8506
12.37	58.4517
12.388	58.0691
12.406	57.7054
12.424	57.3616
12.442	57.0358
12.46	56.726
12.478	56.43
12.496	56.1455
12.514	55.8692
12.532	55.5975
12.55	55.3268
12.568	55.054
12.586	54.7771
12.604	54.4963
12.622	54.2145
12.64	53.9351
12.658	53.6608
12.676	53.394
12.694	53.1367
12.712	52.8876
12.73	52.6457
12.748	52.4122
12.766	52.1874
12.784	51.9711
12.802	51.765
12.82	51.5717
12.838	51.3905
12.856	51.2219
12.874	51.0681
12.892	50.9317
12.91	50.8135
12.928	50.7165
12.946	50.6439
12.964	50.5957
12.982	50.5693
13	50.5619
13.018	50.5683
13.036	50.5813
13.054	50.5955
13.072	50.6101
13.09	50.6248
13.108	50.6423
13.126	50.6689
13.144	50.7124
13.162	50.7764
13.18	50.8629
13.198	50.9719
13.216	51.1011
13.234	51.2441
13.252	51.396
13.27	51.5545
13.288	51.7183
13.306	51.8867
13.324	52.0617
13.342	52.2463
13.36	52.4418
13.378	52.6468
13.396	52.8597
13.414	53.0777
13.432	53.2966
13.45	53.5123
13.468	53.7233
13.486	53.9307
13.504	54.1373
13.522	54.3478
13.54	54.5688
13.558	54.8066
13.576	55.065
13.594	55.3452
13.612	55.6452
13.63	55.96
13.648	56.2818
13.666	56.6018
13.684	56.9116
13.702	57.2053
13.72	57.4795
13.738	57.7348
13.756	57.9743
13.774	58.2043
13.792	58.4325
13.81	58.6662
13.828	58.9105
13.846	59.1681
13.864	59.4397
13.882	59.723
13.9	60.0126
13.918	60.302
13.936	60.585
13.954	60.8566
13.972	61.1119
13.99	61.3477
14.008	61.5637
14.026	61.762
14.044	61.9449
14.062	62.1139
14.08	62.2727
14.098	62.4238
14.116	62.5684
14.134	62.7052
14.152	62.833
14.17	62.9506
14.188	63.0557
14.206	63.1458
14.224	63.2174
14.242	63.2716
14.26	63.3087
14.278	63.3293
14.296	63.333
14.314	63.3207
14.332	63.2936
14.35	63.2507
14.368	63.1902
14.386	63.1093
14.404	63.0077
14.422	62.885
14.44	62.7414
14.458	62.5787
14.476	62.401
14.494	62.2146
14.512	62.0253
14.53	61.8376
14.548	61.6555
14.566	61.4821
14.584	61.3178
14.602	61.1605
14.62	61.0063
14.638	60.8512
14.656	60.6918
14.674	60.525
14.692	60.3482
14.71	60.1601
14.728	59.9611
14.746	59.7519
14.764	59.5328
14.782	59.3037
14.8	59.0648
14.818	58.8164
14.836	58.559
14.854	58.2934
14.872	58.0213
14.89	57.7465
14.908	57.4733
14.926	57.2065
14.944	56.9512
14.962	56.7114
14.98	56.4888
14.998	56.2832
15.016	56.0923
15.034	55.9111
15.052	55.7324
15.07	55.5498
15.088	55.3575
15.106	55.1514
15.124	54.9291
15.142	54.6922
15.16	54.4441
15.178	54.1901
15.196	53.9366
15.214	53.6917
15.232	53.4612
15.25	53.2488
15.268	53.0567
15.286	52.8857
15.304	52.7342
15.322	52.5992
15.34	52.4768
15.358	52.3633
15.376	52.255
15.394	52.1506
15.412	52.0486
15.43	51.948
15.448	51.8487
15.466	51.7514
15.484	51.6565
15.502	51.5644
15.52	51.4736
15.538	51.3828
15.556	51.2906
15.574	51.1959
15.592	51.0974
15.61	50.9935
15.628	50.8836
15.646	50.7678
15.664	50.6485
15.682	50.5282
15.7	50.4094
15.718	50.2945
15.736	50.1876
15.754	50.0921
15.772	50.0112
15.79	49.9479
15.808	49.9032
15.826	49.8777
15.844	49.8718
15.862	49.8857
15.88	49.918
15.898	49.967
15.916	50.0302
15.934	50.1056
15.952	50.1917
15.97	50.2874
15.988	50.3895
16.006	50.4958
16.024	50.6048
16.042	50.7145
16.06	50.8242
16.078	50.9326
16.096	51.0378
16.114	51.1379
16.132	51.2323
16.15	51.3202
16.168	51.4013
16.186	51.4748
16.204	51.5399
16.222	51.5966
16.24	51.6461
16.258	51.6895
16.276	51.7301
16.294	51.7709
16.312	51.8148
16.33	51.8673
16.348	51.9335
16.366	52.0172
16.384	52.1235
16.402	52.2541
16.42	52.4099
16.438	52.5908
16.456	52.7936
16.474	53.0157
16.492	53.2512
16.51	53.4932
16.528	53.7373
16.546	53.9765
16.564	54.2068
16.582	54.4257
16.6	54.6302
16.618	54.8212
16.636	54.9992
16.654	55.1673
16.672	55.3294
16.69	55.4884
16.708	55.6498
16.726	55.8162
16.744	55.9906
16.762	56.1755
16.78	56.3712
16.798	56.5779
16.816	56.7945
16.834	57.0198
16.852	57.2512
16.87	57.4862
16.888	57.7231
16.906	57.9581
16.924	58.1897
16.942	58.4164
16.96	58.6356
16.978	58.8465
16.996	59.0475
17.014	59.2373
17.032	59.4153
17.05	59.5808
17.068	59.7338
17.086	59.8739
17.104	60.0015
17.122	60.1169
17.14	60.221
17.158	60.3161
17.176	60.4031
17.194	60.4855
17.212	60.5647
17.23	60.6433
17.248	60.7242
17.266	60.8088
17.284	60.9007
17.302	61.0005
17.32	61.1098
17.338	61.2284
17.356	61.356
17.374	61.4917
17.392	61.6344
17.41	61.7827
17.428	61.9331
17.446	62.0843
17.464	62.2314
17.482	62.3731
17.5	62.5066
17.518	62.6298
17.536	62.7416
17.554	62.8394
17.572	62.9229
17.59	62.99
17.608	63.0415
17.626	63.0774
17.644	63.0987
17.662	63.1058
17.68	63.1
17.698	63.082
17.716	63.0526
17.734	63.0142
17.752	62.9684
17.77	62.9173
17.788	62.8617
17.806	62.8037
17.824	62.7437
17.842	62.6827
17.86	62.6217
17.878	62.5618
17.896	62.5029
17.914	62.445
17.932	62.387
17.95	62.3285
17.968	62.2679
17.986	62.2052
18.004	62.1397
18.022	62.0707
18.04	61.9979
18.058	61.9206
18.076	61.8386
18.094	61.7528
18.112	61.6636
18.13	61.5728
18.148	61.4813
18.166	61.3907
18.184	61.3018
18.202	61.2156
18.22	61.133
18.238	61.0546
18.256	60.9803
18.274	60.91
18.292	60.8423
18.31	60.7767
18.328	60.7103
18.346	60.6422
18.364	60.5698
18.382	60.4917
18.4	60.4054
18.418	60.3096
18.436	60.2029
18.454	60.0839
18.472	59.9518
18.49	59.807
18.508	59.6495
18.526	59.4806
18.544	59.3006
18.562	59.1118
18.58	58.9145
18.598	58.7116
18.616	58.5034
18.634	58.2933
18.652	58.0816
18.67	57.8709
18.688	57.6616
18.706	57.4559
18.724	57.2538
18.742	57.0565
18.76	56.8641
18.778	56.6774
18.796	56.4961
18.814	56.3203
18.832	56.1494
18.85	55.9832
18.868	55.8208
18.886	55.6617
18.904	55.5049
18.922	55.3496
18.94	55.195
18.958	55.0402
18.976	54.8847
18.994	54.7279
19.012	54.5699
19.03	54.4104
19.048	54.2504
19.066	54.0901
19.084	53.9314
19.102	53.7749
19.12	53.6228
19.138	53.477
19.156	53.3389
19.174	53.2109
19.192	53.0939
19.21	52.9903
19.228	52.9
19.246	52.8247
19.264	52.7637
19.282	52.7172
19.3	52.6843
19.318	52.663
19.336	52.6525
19.354	52.649
19.372	52.6523
19.39	52.6574
19.408	52.6646
19.426	52.669
19.444	52.6709
19.462	52.6659
19.48	52.6538
19.498	52.6325
19.516	52.6014
19.534	52.5604
19.552	52.5091
19.57	52.4487
19.588	52.3797
19.606	52.3033
19.624	52.2206
19.642	52.1325
19.66	52.0415
19.678	51.9476
19.696	51.8541
19.714	51.7608
19.732	51.6701
19.75	51.5818
19.768	51.4968
19.786	51.415
19.804	51.3364
19.822	51.261
19.84	51.1887
19.858	51.1194
19.876	51.0529
19.894	50.9888
19.912	50.9272
19.93	50.8673
19.948	50.8092
19.966	50.7534
19.984	50.6996
20.002	50.649
20.02	50.602
20.038	50.5589
20.056	50.5203
20.074	50.486
20.092	50.4562
20.11	50.4308
20.128	50.4091
20.146	50.3913
20.164	50.3764
20.182	50.3643
20.2	50.354
20.218	50.3443
20.236	50.3352
20.254	50.3252
20.272	50.3145
20.29	50.3023
20.308	50.2883
20.326	50.2734
20.344	50.2573
20.362	50.2409
20.38	50.2251
20.398	50.21
20.416	50.1982
20.434	50.1892
20.452	50.1859
20.47	50.1884
20.488	50.1982
20.506	50.2173
20.524	50.2452
20.542	50.2833
20.56	50.3313
20.578	50.3891
20.596	50.4571
20.614	50.5342
20.632	50.6197
20.65	50.7134
20.668	50.813
20.686	50.9191
20.704	51.0286
20.722	51.1407
20.74	51.2544
20.758	51.3671
20.776	51.4794
20.794	51.5886
20.812	51.6947
20.83	51.7971
20.848	51.8947
20.866	51.9878
20.884	52.0754
20.902	52.1574
20.92	52.2347
20.938	52.3072
20.956	52.3755
20.974	52.4413
20.992	52.5039
21.01	52.5664
21.028	52.629
21.046	52.6929
21.064	52.7607
21.082	52.8315
21.1	52.9091
21.118	52.9935
21.136	53.0859
21.154	53.1887
21.172	53.3011
21.19	53.4238
21.208	53.5575
21.226	53.7004
21.244	53.8516
21.262	54.0112
21.28	54.1741
21.298	54.3415
21.316	54.5093
21.334	54.6728
21.352	54.8337
21.37	54.9837
21.388	55.1231
21.406	55.249
21.424	55.3556
21.442	55.4449
21.46	55.5129
21.478	55.5581
21.496	55.5818
21.514	55.5837
21.532	55.5632
21.55	55.5246
21.568	55.4684
21.586	55.3959
21.604	55.3155
21.622	55.2244
21.64	55.1302
21.658	55.0391
21.676	54.9487
21.694	54.8699
21.712	54.8029
21.73	54.75
21.748	54.719
21.766	54.7075
21.784	54.7192
21.802	54.7567
21.82	54.8185
21.838	54.9044
21.856	55.0157
21.874	55.1492
21.892	55.3016
21.91	55.4748
21.928	55.6616
21.946	55.8602
21.964	56.0705
21.982	56.2836
22	56.5013
22.018	56.7196
22.036	56.9314
22.054	57.1395
22.072	57.3393
22.09	57.5277
22.108	57.7064
22.126	57.873
22.144	58.0267
22.162	58.1688
22.18	58.3
22.198	58.4195
22.216	58.5296
22.234	58.6319
22.252	58.7254
22.27	58.8139
22.288	58.8985
22.306	58.9789
22.324	59.0589
22.342	59.1383
22.36	59.2176
22.378	59.2991
22.396	59.3824
22.414	59.4674
22.432	59.5547
22.45	59.6443
22.468	59.7352
22.486	59.827
22.504	59.92
22.522	60.0124
22.54	60.1038
22.558	60.1943
22.576	60.282
22.594	60.367
22.612	60.4491
22.63	60.5271
22.648	60.6009
22.666	60.6709
22.684	60.7372
22.702	60.7995
22.72	60.8587
22.738	60.9159
22.756	60.9704
22.774	61.0234
22.792	61.0756
22.81	61.1267
22.828	61.1774
22.846	61.2281
22.864	61.2784
22.882	61.3297
22.9	61.3824
22.918	61.4361
22.936	61.4909
22.954	61.5473
22.972	61.6047
22.99	61.6617
23.008	61.7189
23.026	61.7753
23.044	61.8284
23.062	61.8785
23.08	61.9252
23.098	61.9666
23.116	62.0033
23.134	62.0346
23.152	62.0585
23.17	62.0755
23.188	62.0852
23.206	62.0863
23.224	62.0792
23.242	62.0636
23.26	62.0388
23.278	62.0045
23.296	61.9614
23.314	61.91
23.332	61.85
23.35	61.7819
23.368	61.7065
23.386	61.6235
23.404	61.5334
23.422	61.437
23.44	61.3342
23.458	61.2253
23.476	61.1113
23.494	60.992
23.512	60.8677
23.53	60.7401
23.548	60.6091
23.566	60.4749
23.584	60.3386
23.602	60.2007
23.62	60.0607
23.638	59.9196
23.656	59.7774
23.674	59.6338
23.692	59.4907
23.71	59.3484
23.728	59.2063
23.746	59.067
23.764	58.9323
23.782	58.8005
23.8	58.6743
23.818	58.5559
23.836	58.4438
23.854	58.3396
23.872	58.2452
23.89	58.1596
23.908	58.0838
23.926	58.0198
23.944	57.9675
23.962	57.9265
23.98	57.8978
23.998	57.8822
24.016	57.8789
24.034	57.886
24.052	57.9036
24.07	57.9326
24.088	57.9682
24.106	58.0072
24.124	58.0531
24.142	58.1005
24.16	58.1434
24.178	58.1862
24.196	58.2244
24.214	58.2495
24.232	58.2632
24.25	58.2653
24.268	58.2475
24.286	58.2071
24.304	58.1478
24.322	58.0627
24.34	57.9464
24.358	57.8031
24.376	57.6292
24.394	57.4195
24.412	57.175
24.43	56.8963
24.448	56.5817
24.466	56.2296
24.484	55.8414
24.502	55.4195
24.52	54.9647
24.538	54.4744
24.556	53.9547
24.574	53.4122
24.592	52.8414
24.61	52.2474
24.628	51.6418
24.646	51.0259
24.664	50.3954
24.682	49.7635
24.7	49.1402
24.718	48.5159
24.736	47.9003
24.754	47.3074
24.772	46.7342
24.79	46.18
24.808	45.6551
24.826	45.1655
24.844	44.7053
24.862	44.279
24.88	43.8917
24.898	43.5433
24.916	43.2314
24.934	42.9548
24.952	42.7145
24.97	42.5115
24.988	42.3385
25.006	42.1895
25.024	42.0712
25.042	41.977
25.06	41.8957
25.078	41.8259
25.096	41.7726
25.114	41.7235
25.132	41.6679
25.15	41.6138
25.168	41.5559
25.186	41.4837
25.204	41.3939
25.222	41.2918
25.24	41.1715
25.258	41.0272
25.276	40.8613
25.294	40.6739
25.312	40.4625
25.33	40.2253
25.348	39.9635
25.366	39.6786
25.384	39.3716
25.402	39.0416
25.42	38.6893
25.438	38.3169
25.456	37.9258
25.474	37.5145
25.492	37.0844
25.51	36.6375
25.528	36.1729
25.546	35.6907
25.564	35.1935
25.582	34.6838
25.6	34.1586
25.618	33.6206
25.636	33.0738
25.654	32.52
25.672	31.9562
25.69	31.3862
25.708	30.8139
25.726	30.2373
25.744	29.6564
25.762	29.0767
25.78	28.5023
25.798	27.9269
25.816	27.356
25.834	26.7987
25.852	26.2581
25.87	25.7265
25.888	25.2141
25.906	24.732
25.924	24.2787
25.942	23.8502
25.96	23.4573
25.978	23.1103
25.996	22.803
26.014	22.5364
26.032	22.3189
26.05	22.1568
26.068	22.0449
26.086	21.9844
26.104	21.9786
26.122	22.0301
26.14	22.138
26.158	22.2984
26.176	22.5077
26.194	22.7683
26.212	23.0816
26.23	23.4375
26.248	23.8258
26.266	24.2538
26.284	24.7205
26.302	25.2103
26.32	25.7087
26.338	26.2304
26.356	26.7684
26.374	27.3019
26.392	27.8138
26.41	28.3216
26.428	28.8165
26.446	29.28
26.464	29.6989
26.482	30.0886
26.5	30.4408
26.518	30.742
26.536	30.9832
26.554	31.1732
26.572	31.3105
26.59	31.3921
26.608	31.4146
26.626	31.3781
26.644	31.2889
26.662	31.1532
26.68	30.9699
26.698	30.732
26.716	30.4547
26.734	30.1542
26.752	29.8318
26.77	29.4741
26.788	29.1019
26.806	28.7372
26.824	28.3833
26.842	28.0237
26.86	27.6788
26.878	27.3701
26.896	27.1024
26.914	26.8595
26.932	26.6574
26.95	26.5131
26.968	26.4495
26.986	26.4659
27.004	26.5187
27.022	26.5634
27.028	26.5685