File: Bakgrunnsmateriale/MATLAB/FTIR/ftir_data/CMT801/Mapping_1/CMT801_t01_cm-1.asc
PE IR       SPECTRUM    SPECTRUM    ASCII       PEDS        1.60
  -1
CMT801~1.ASC
17/06/01
09:36:16.00
17/06/01
09:36:16.00
tln
$CMT801_t0001$<tbV0>[0.0,-7.7,9.0,0.0,22,1,0]
370
64

2002,4.07
MIRTGS : RIGHTBACK : INTERNAL 2
MIR : ON : INTERNAL 2
OPTKBR

0.200000
8
8.000000
FILLER
RATIO
SPECTRUM
UNLOCKED 256

DOUBLE
64
COMBINED
1
0
0

1.000000
RATIO

1
0
TRUE
51149
0
LEFT NOT FITTED RIGHT NOT FITTED 0
NONE
NONE
15600
12
4.427000
51148
TRUE
1 0 8 72 0 0 0 0

15798

#HDR
-1
-1
#GR
CM-1
%T
2.38419e-05
0.0
7800
-1.000000
7431
8
63.333
-11.3376
#DATA
7800	1.126790
7795	-4.021501
7790	0.464701
7785	7.477951
7780	12.8635
7775	10.897
7770	-5.753684
7765	-9.464478
7760	2.154541
7755	2.929568
7750	1.005315
7745	-4.202055
7740	-5.789542
7735	-1.699185
7730	3.685140
7725	5.549669
7720	2.561974
7715	2.663087
7710	-1.325631
7705	4.993891
7700	3.308248
7695	-3.959822
7690	2.050018
7685	1.154661
7680	6.181693
7675	4.614949
7670	2.423167
7665	5.728697
7660	-2.019500
7655	-1.291537
7650	3.348684
7645	-0.253224
7640	1.159739
7635	3.988289
7630	2.487826
7625	-0.396132
7620	-0.284624
7615	0.118303
7610	-1.996731
7605	-0.775861
7600	1.544189
7595	1.629161
7590	1.631140
7585	4.167366
7580	2.353286
7575	1.932072
7570	3.722763
7565	4.422950
7560	5.560922
7555	6.162524
7550	3.774046
7545	1.220512
7540	1.489901
7535	1.455807
7530	-1.135063
7525	0.345897
7520	1.909399
7515	2.330255
7510	1.890349
7505	1.728820
7500	2.103996
7495	-0.913190
7490	-1.376199
7485	-0.869154
7480	-0.366592
7475	-1.198959
7470	-3.760433
7465	-2.976202
7460	-0.582242
7455	2.189493
7450	1.311492
7445	2.298760
7440	3.212046
7435	3.484582
7430	2.960729
7425	2.003931
7420	0.317287
7415	-0.026082
7410	-0.171256
7405	0.225019
7400	0.309467
7395	-0.365877
7390	0.601053
7385	2.205181
7380	0.932598
7375	-0.001955
7370	0.860929
7365	1.732754
7360	1.742243
7355	1.747202
7350	2.271580
7345	2.004742
7340	1.250171
7335	-1.442360
7330	-2.135491
7325	0.402045
7320	0.564694
7315	-0.035500
7310	-0.963401
7305	-1.517081
7300	-1.070737
7295	0.936651
7290	1.293396
7285	-1.828837
7280	-2.072334
7275	-1.310634
7270	0.575876
7265	3.153443
7260	1.570248
7255	0.592756
7250	1.850152
7245	0.680398
7240	-0.509023
7235	0.008368
7230	2.030348
7225	2.310824
7220	0.862812
7215	0.317049
7210	1.111245
7205	1.470661
7200	-0.811052
7195	-1.032638
7190	0.197696
7185	1.232290
7180	2.044796
7175	0.910186
7170	1.222062
7165	1.898026
7160	0.577950
7155	-0.649237
7150	-0.624299
7145	-0.336122
7140	-0.177669
7135	-1.042413
7130	-1.787471
7125	0.263118
7120	1.272654
7115	1.220202
7110	0.090765
7105	-0.276160
7100	1.878857
7095	3.217697
7090	2.260637
7085	1.484990
7080	0.937700
7075	-0.075101
7070	0.291013
7065	1.769709
7060	1.181626
7055	-1.198887
7050	-1.511216
7045	-0.851035
7040	-0.294017
7035	1.217603
7030	0.991868
7025	0.050401
7020	1.231861
7015	1.699113
7010	0.594854
7005	2.934813
7000	2.918958
6995	-0.654172
6990	-0.198197
6985	0.346779
6980	-0.698733
6975	-0.639128
6970	0.808215
6965	2.337026
6960	2.880764
6955	2.237772
6950	1.020359
6945	0.007748
6940	0.486230
6935	0.708556
6930	0.426006
6925	0.424480
6920	0.823259
6915	0.327968
6910	-1.043462
6905	-1.852393
6900	-0.882458
6895	1.505851
6890	1.863026
6885	0.277566
6880	-0.174975
6875	-0.131869
6870	-0.594210
6865	-0.536632
6860	1.194477
6855	1.386523
6850	-0.212931
6845	0.050377
6840	0.629925
6835	0.183629
6830	0.021958
6825	0.499963
6820	-0.148105
6815	0.226712
6810	1.077365
6805	0.964689
6800	1.110744
6795	1.497387
6790	0.793147
6785	0.023961
6780	0.529193
6775	0.692248
6770	0.569391
6765	0.848722
6760	-0.239229
6755	-0.610637
6750	-0.554847
6745	0.494050
6740	0.751924
6735	-1.344275
6730	-1.539444
6725	0.671625
6720	1.183676
6715	0.302505
6710	0.581240
6705	-0.041460
6700	0.914812
6695	1.800560
6690	0.653147
6685	0.173020
6680	-0.806093
6675	-0.483012
6670	1.168298
6665	0.736284
6660	-0.807738
6655	-0.551724
6650	1.324272
6645	1.491308
6640	2.555990
6635	2.136135
6630	0.021409
6625	1.253342
6620	1.517033
6615	-0.831627
6610	-1.826167
6605	-0.521445
6600	1.572489
6595	1.296567
6590	0.587511
6585	0.633096
6580	0.285077
6575	-1.761746
6570	-1.557469
6565	-0.368237
6560	0.098633
6555	0.190639
6550	-0.058531
6545	-0.409603
6540	-0.447487
6535	0.340986
6530	-0.014257
6525	0.214433
6520	0.884056
6515	1.181197
6510	0.610351
6505	-0.964879
6500	-1.015067
6495	-0.522255
6490	-0.470042
6485	-0.291728
6480	-0.532031
6475	0.241494
6470	0.703716
6465	0.687623
6460	1.036787
6455	0.411677
6450	0.196790
6445	0.386881
6440	1.027488
6435	1.103878
6430	0.394630
6425	0.636029
6420	1.645374
6415	1.319050
6410	1.184606
6405	0.303053
6400	-0.677108
6395	-0.042104
6390	0.608921
6385	-0.492095
6380	-1.613974
6375	-0.956463
6370	-0.132989
6365	0.243496
6360	-0.452756
6355	-0.674962
6350	-0.461721
6345	-0.895929
6340	-0.859570
6335	-0.543308
6330	0.039768
6325	0.343751
6320	0.747871
6315	1.002860
6310	1.148891
6305	0.797915
6300	1.105237
6295	1.856708
6290	0.145030
6285	-0.037884
6280	1.192569
6275	-0.370287
6270	-1.366209
6265	-0.713586
6260	-0.681328
6255	0.027298
6250	1.578593
6245	1.245450
6240	-0.200057
6235	-0.419139
6230	-0.309014
6225	0.260996
6220	1.577091
6215	1.124954
6210	0.714492
6205	0.632476
6200	0.393533
6195	0.423932
6190	1.052212
6185	1.238465
6180	0.526380
6175	-0.052809
6170	0.187516
6165	0.773429
6160	1.161599
6155	1.182961
6150	0.787997
6145	0.352454
6140	-0.250005
6135	-0.033283
6130	1.203513
6125	0.987339
6120	-0.010180
6115	-0.441384
6110	0.162982
6105	0.195240
6100	0.205397
6095	0.678229
6090	0.389552
6085	-0.001001
6080	-0.273776
6075	-0.229859
6070	-0.007534
6065	0.346112
6060	0.455975
6055	0.453424
6050	0.304317
6045	0.202989
6040	-0.074839
6035	-0.839424
6030	-0.621771
6025	0.193238
6020	0.118184
6015	0.147056
6010	-0.335216
6005	-0.948500
6000	-0.519108
5995	0.269126
5990	0.586771
5985	0.331139
5980	0.505709
5975	0.589299
5970	0.467753
5965	0.508189
5960	0.315189
5955	-0.000762
5950	0.011920
5945	0.142478
5940	0.212740
5935	-0.256967
5930	-0.497364
5925	-0.500631
5920	-0.240921
5915	0.011920
5910	0.253915
5905	-0.016689
5900	-0.075173
5895	0.714254
5890	0.392723
5885	-0.733280
5880	-0.821137
5875	0.392174
5870	1.427984
5865	2.075910
5860	1.494479
5855	0.332045
5850	0.408816
5845	0.951838
5840	0.877523
5835	0.951385
5830	0.756812
5825	0.119304
5820	0.307464
5815	-0.142002
5810	-0.497603
5805	-0.208854
5800	-0.133848
5795	0.057196
5790	0.159144
5785	0.606203
5780	0.569462
5775	0.181841
5770	0.635218
5765	1.209092
5760	0.926470
5755	0.374579
5750	0.150680
5745	-0.052142
5740	-0.022339
5735	0.315237
5730	0.514554
5725	0.427889
5720	-0.118350
5715	0.155615
5710	0.660967
5705	0.401425
5700	0.266098
5695	0.428771
5690	0.155544
5685	-0.213193
5680	0.242972
5675	0.094652
5670	0.031423
5665	0.139093
5660	0.330233
5655	0.498580
5650	-0.116729
5645	-0.095415
5640	0.493359
5635	0.804305
5630	0.538134
5625	0.837159
5620	1.095247
5615	0.832772
5610	0.680446
5605	0.384593
5600	-0.452733
5595	-0.721669
5590	-0.076746
5585	0.620889
5580	1.011610
5575	1.024889
5570	0.592231
5565	0.055289
5560	-0.629115
5555	-0.554609
5550	0.133013
5545	0.464487
5540	0.254631
5535	0.177955
5530	0.562667
5525	0.428748
5520	0.438261
5515	0.095033
5510	-0.358843
5505	-0.129175
5500	0.140690
5495	0.309848
5490	0.094223
5485	-0.112438
5480	0.262045
5475	0.441551
5470	0.308084
5465	-0.055122
5460	0.096344
5455	-0.040268
5450	0.060033
5445	0.345993
5440	0.227522
5435	-0.172591
5430	0.107645
5425	0.616574
5420	0.439620
5415	0.078988
5410	0.318598
5405	0.320887
5400	0.007390
5395	-0.033712
5390	0.165081
5385	0.169992
5380	0.038385
5375	-0.149583
5370	-0.088810
5365	0.084877
5360	0.198149
5355	0.215244
5350	-0.002050
5345	0.225090
5340	0.474095
5335	0.555682
5330	0.753068
5325	0.689220
5320	0.452613
5315	0.282692
5310	-0.059700
5305	-0.395274
5300	-0.279378
5295	-0.115752
5290	-0.048041
5285	0.133275
5280	-0.229763
5275	0.094866
5270	0.229239
5265	0.282979
5260	0.476264
5255	-0.130295
5250	-0.454211
5245	-0.238204
5240	-0.327372
5235	-0.390577
5230	-0.725030
5225	-0.967049
5220	0.012087
5215	0.536990
5210	0.461888
5205	0.482392
5200	0.241160
5195	0.071597
5190	0.354123
5185	0.590634
5180	0.605487
5175	0.268912
5170	0.100469
5165	0.248241
5160	0.234532
5155	0.242996
5150	0.330305
5145	0.212192
5140	0.314879
5135	0.345873
5130	0.215601
5125	-0.085449
5120	-0.377726
5115	-0.205349
5110	0.328516
5105	0.462317
5100	0.118589
5095	0.060653
5090	0.161027
5085	0.269556
5080	-0.082945
5075	-0.130105
5070	0.154709
5065	0.116372
5060	0.010919
5055	0.170063
5050	0.339031
5045	0.240349
5040	0.297808
5035	0.350236
5030	0.196766
5025	0.062632
5020	-0.015687
5015	0.023913
5010	0.449943
5005	0.444507
5000	0.279903
4995	0.313472
4990	0.076198
4985	-0.005149
4980	-0.049209
4975	0.039339
4970	0.064563
4965	-0.103425
4960	-0.123810
4955	0.025415
4950	0.425362
4945	0.474953
4940	0.075244
4935	0.014877
4930	0.335144
4925	0.261330
4920	0.099778
4915	0.239348
4910	0.299167
4905	0.038790
4900	0.013852
4895	-0.030946
4890	-0.036549
4885	0.430130
4880	0.466084
4875	-0.047063
4870	0.238609
4865	0.355029
4860	0.003194
4855	0.072574
4850	0.273132
4845	0.432372
4840	0.268030
4835	0.030827
4830	0.350141
4825	0.418853
4820	-0.145125
4815	-0.430059
4810	0.110650
4805	0.478768
4800	0.465917
4795	0.129795
4790	-0.208616
4785	-0.100135
4780	0.129270
4775	0.037312
4770	-0.113964
4765	-0.233864
4760	-0.315427
4755	-0.170445
4750	0.059819
4745	0.339937
4740	0.069975
4735	-0.184702
4730	0.195145
4725	-0.169754
4720	-0.606083
4715	-0.450730
4710	-0.322794
4705	-0.067877
4700	-0.064039
4695	5.401968
4690	14.1789
4685	9.734487
4680	1.286125
4675	-0.922656
4670	-1.597666
4665	-2.431058
4660	-1.526761
4655	-1.586627
4650	-1.329755
4645	-0.937509
4640	-0.437879
4635	0.481152
4630	0.526738
4625	0.200867
4620	0.283336
4615	-0.031399
4610	0.074720
4605	0.519514
4600	0.576496
4595	0.491261
4590	0.047469
4585	-0.081586
4580	-0.001382
4575	0.045347
4570	0.121116
4565	0.049328
4560	-0.044584
4555	-0.020432
4550	-0.034093
4545	-0.277400
4540	-0.066018
4535	-0.038170
4530	-0.368738
4525	-0.095081
4520	0.380516
4515	0.184273
4510	0.125646
4505	0.315165
4500	0.198101
4495	0.016236
4490	0.035047
4485	0.168561
4480	0.098109
4475	-0.094985
4470	-0.173449
4465	0.006175
4460	0.156402
4455	0.068998
4450	-0.109958
4445	-0.100636
4440	-0.072765
4435	0.150108
4430	0.047659
4425	-0.272059
4420	-0.310158
4415	-0.051140
4410	0.141763
4405	0.176858
4400	0.001883
4395	-0.208401
4390	-0.027346
4385	0.188469
4380	0.075697
4375	0.030326
4370	0.169205
4365	0.174307
4360	-0.000810
4355	-0.068330
4350	-0.092816
4345	-0.003528
4340	0.106787
4335	-0.075697
4330	-0.039243
4325	0.174164
4320	0.124645
4315	0.033307
4310	0.283122
4305	0.403952
4300	0.339603
4295	0.048446
4290	-0.054550
4285	0.008654
4280	0.010657
4275	0.256967
4270	0.374031
4265	0.256443
4260	0.056743
4255	-0.149965
4250	-0.166511
4245	-0.032472
4240	0.058674
4235	0.167918
4230	0.062942
4225	0.076556
4220	0.297236
4215	0.225019
4210	0.109601
4205	0.212740
4200	0.261878
4195	0.061178
4190	-0.256061
4185	-0.011205
4180	0.277709
4175	0.616264
4170	0.587081
4165	0.291705
4160	-0.183176
4155	-0.215125
4150	-0.044107
4145	-0.011539
4140	0.061416
4135	0.183677
4130	0.158643
4125	0.145626
4120	0.044417
4115	-0.166797
4110	-0.176191
4105	0.080776
4100	0.176262
4095	-0.012779
4090	-0.058889
4085	-0.115251
4080	-0.170016
4075	0.000214
4070	0.143742
4065	0.132679
4060	-0.024318
4055	-0.031113
4050	0.253939
4045	0.345659
4040	0.151634
4035	-0.140976
4030	-0.152730
4025	0.026988
4020	-0.038027
4015	-0.066304
4010	0.051069
4005	0.013017
4000	-0.002455
3995	0.016045
3990	0.044751
3985	0.023436
3980	-0.002789
3975	0.085186
3970	0.076484
3965	-0.090932
3960	-0.164246
3955	-0.055003
3950	0.187349
3945	0.237345
3940	0.054240
3935	-0.166225
3930	-0.035643
3925	0.187373
3920	0.124764
3915	-0.038313
3910	-0.132417
3905	-0.073146
3900	-0.024056
3895	-0.079941
3890	-0.094223
3885	-0.101280
3880	0.008964
3875	0.141835
3870	0.086474
3865	0.117826
3860	0.171351
3855	0.153326
3850	0.101590
3845	0.183200
3840	0.066184
3835	-0.087237
3830	0.090026
3825	0.262856
3820	0.325751
3815	0.096893
3810	0.136232
3805	0.114631
3800	0.052952
3795	0.013136
3790	-0.025033
3785	0.011992
3780	0.048279
3775	0.155735
3770	0.084304
3765	0.001597
3760	0.019931
3755	-0.090289
3750	-0.014066
3745	0.045680
3740	-0.066995
3735	0.019741
3730	0.180554
3725	0.081920
3720	-0.052881
3715	-0.077295
3710	-0.000333
3705	-0.032806
3700	-0.069856
3695	0.028347
3690	0.063657
3685	0.038671
3680	0.125789
3675	0.078320
3670	-0.021195
3665	0.082492
3660	0.106739
3655	0.122904
3650	0.246524
3645	0.168037
3640	0.076866
3635	0.058484
3630	0.003480
3625	0.029730
3620	0.054574
3615	-0.026893
3610	-0.131964
3605	-0.159692
3600	-0.170683
3595	0.126409
3590	0.482702
3585	0.405073
3580	0.512576
3575	0.418353
3570	0.107192
3565	-0.028538
3560	-0.286340
3555	-0.555562
3550	-0.310134
3545	-0.204133
3540	-0.217461
3535	0.348424
3530	0.480365
3525	0.261592
3520	0.364470
3515	0.674557
3510	0.652337
3505	0.494790
3500	0.417995
3495	-0.139331
3490	-0.446820
3485	-0.053048
3480	0.202131
3475	0.478219
3470	0.624752
3465	-0.074028
3460	-0.388622
3455	-0.204658
3450	-0.224089
3445	0.053524
3440	0.289249
3435	0.353312
3430	0.188732
3425	0.042796
3420	0.189685
3415	0.257968
3410	0.022792
3405	0.039458
3400	0.105714
3395	0.042772
3390	0.152611
3385	0.081205
3380	-0.013923
3375	0.052642
3370	0.128364
3365	0.111937
3360	-0.027918
3355	-0.144743
3350	-0.077795
3345	0.042486
3340	0.146222
3335	0.089478
3330	-0.114512
3325	-0.121951
3320	0.059723
3315	0.122809
3310	0.046610
3305	-0.027132
3300	-0.055313
3295	-0.028491
3290	-0.000500
3285	-0.078654
3280	-0.045871
3275	0.188136
3270	0.235104
3265	0.135970
3260	0.128626
3255	0.099134
3250	0.129532
3245	0.086545
3240	0.081396
3235	0.220918
3230	0.252842
3225	0.096559
3220	-0.023651
3215	-0.031781
3210	0.024819
3205	0.058770
3200	0.097274
3195	0.104594
3190	0.108528
3185	0.117492
3180	0.056910
3175	0.055098
3170	0.142097
3165	0.076007
3160	0.009202
3155	0.042295
3150	0.149631
3145	0.167465
3140	0.104904
3135	0.153589
3130	0.143551
3125	0.002241
3120	0.045990
3115	0.046801
3110	0.068283
3105	0.000596
3100	-0.098252
3095	-0.001621
3090	0.019788
3085	0.060224
3080	0.027513
3075	-0.082063
3070	0.013899
3065	0.020790
3060	-0.073719
3055	-0.063705
3050	0.003433
3045	0.032281
3040	0.092792
3035	0.173425
3030	0.125646
3025	0.067925
3020	0.062298
3015	0.024390
3010	0.047159
3005	0.045633
3000	0.014424
2995	-0.025558
2990	0.010848
2985	0.085949
2980	0.076055
2975	0.130105
2970	0.206232
2965	0.139212
2960	0.034976
2955	-0.017023
2950	-0.052547
2945	-0.070500
2940	-0.097632
2935	-0.022840
2930	0.081157
2925	0.065231
2920	0.040984
2915	-0.008797
2910	0.004291
2905	0.015640
2900	0.008964
2895	0.022721
2890	0.036048
2885	0.033259
2880	0.020861
2875	0.056624
2870	-0.030422
2865	-0.082063
2860	-0.021147
2855	-0.081801
2850	-0.066041
2845	0.054478
2840	0.104784
2835	0.079727
2830	0.094676
2825	0.062441
2820	-0.015783
2815	-0.082421
2810	-0.096535
2805	-0.065684
2800	0.018906
2795	0.023770
2790	0.024247
2785	0.105237
2780	0.117659
2775	0.061607
2770	0.085926
2765	0.024771
2760	-0.063109
2755	-0.019168
2750	0.015473
2745	-0.009942
2740	-0.013828
2735	-0.048112
2730	0.000619
2725	0.110650
2720	0.050473
2715	-0.005674
2710	0.037622
2705	0.084805
2700	0.132441
2695	0.087523
2690	0.064611
2685	0.098800
2680	0.082087
2675	-0.008893
2670	-0.006604
2665	0.022554
2660	0.032925
2655	0.039768
2650	0.043654
2645	0.029635
2640	0.029087
2635	0.072646
2630	0.044035
2625	-0.042366
2620	-0.030112
2615	0.003218
2610	0.012969
2605	0.117325
2600	0.197815
2595	0.069355
2590	-0.095248
2585	-0.029063
2580	0.061583
2575	0.051760
2570	0.037264
2565	0.023484
2560	0.006866
2555	0.052809
2550	0.116086
2545	0.107312
2540	0.018811
2535	0.020718
2530	0.124716
2525	0.147557
2520	0.081133
2515	0.009322
2510	0.144028
2505	0.240826
2500	0.162100
2495	0.085401
2490	0.070261
2485	-0.018668
2480	-0.006723
2475	0.068974
2470	0.114560
2465	-0.025629
2460	-0.024914
2455	0.077581
2450	0.120472
2445	0.175166
2440	0.113463
2435	0.036215
2430	-0.046801
2425	-0.094127
2420	-0.094604
2415	-0.041007
2410	-0.152182
2405	-0.131678
2400	0.069642
2395	0.088620
2390	0.085568
2385	0.085902
2380	0.100421
2375	0.069284
2370	0.099658
2365	0.084543
2360	0.061297
2355	0.090456
2350	0.057625
2345	0.064563
2340	0.078892
2335	0.011348
2330	-0.010538
2325	0.025916
2320	0.136542
2315	0.175428
2310	0.176382
2305	0.165510
2300	0.127410
2295	0.126647
2290	0.117754
2285	0.172662
2280	0.268387
2275	0.241875
2270	0.145864
2265	0.131392
2260	0.156927
2255	0.206542
2250	0.213885
2245	0.162720
2240	0.085902
2235	0.140500
2230	0.266647
2225	0.260090
2220	0.175380
2215	0.155019
2210	0.182390
2205	0.203466
2200	0.117635
2195	0.095319
2190	0.162029
2185	0.231003
2180	0.191378
2175	0.212740
2170	0.294113
2165	0.281047
2160	0.229358
2155	0.218081
2150	0.130796
2145	0.119018
2140	0.174736
2135	0.251007
2130	0.259327
2125	0.306916
2120	0.316977
2115	0.331640
2110	0.263309
2105	0.209546
2100	0.277543
2095	0.384259
2090	0.344657
2085	0.291800
2080	0.152730
2075	0.020051
2070	0.236010
2065	0.347447
2060	0.377202
2055	0.370097
2050	0.400638
2045	0.456929
2040	0.466346
2035	0.428819
2030	0.344276
2025	0.427675
2020	0.513529
2015	0.457000
2010	0.535774
2005	0.630497
2000	0.639557
1995	0.653266
1990	0.615930
1985	0.679683
1980	0.767087
1975	0.756454
1970	0.754141
1965	0.809907
1960	0.806546
1955	0.798010
1950	0.827574
1945	0.808858
1940	0.809001
1935	0.881338
1930	0.927758
1925	0.944185
1920	1.017308
1915	1.138949
1910	1.177692
1905	1.166272
1900	1.182699
1895	1.241278
1890	1.358032
1885	1.439905
1880	1.417517
1875	1.458024
1870	1.555562
1865	1.611089
1860	1.676678
1855	1.753425
1850	1.837706
1845	1.904082
1840	1.992678
1835	2.051520
1830	2.152848
1825	2.301025
1820	2.383708
1815	2.517890
1810	2.621674
1805	2.614188
1800	2.745604
1795	2.933311
1790	3.015017
1785	3.149008
1780	3.332924
1775	3.486824
1770	3.721857
1765	3.962016
1760	4.254698
1755	4.528951
1750	4.672884
1745	4.819750
1740	5.005908
1735	5.281615
1730	5.686402
1725	5.992317
1720	6.230211
1715	6.593966
1710	6.951928
1705	7.211875
1700	7.603287
1695	8.020210
1690	8.401703
1685	8.768773
1680	9.138727
1675	9.585952
1670	10.0968
1665	10.6175
1660	11.1238
1655	11.7341
1650	12.4298
1645	13.1074
1640	13.8435
1635	14.6793
1630	15.5028
1625	16.501
1620	17.552
1615	18.6337
1610	19.8458
1605	21.0294
1600	22.1172
1595	23.1812
1590	24.1828
1585	25.0721
1580	25.938
1575	26.7898
1570	27.3479
1565	27.8771
1560	28.5884
1555	29.2243
1550	29.7348
1545	30.348
1540	31.2298
1535	32.1333
1530	33.2025
1525	34.6566
1520	36.2211
1515	37.819
1510	39.6171
1505	41.503
1500	43.3558
1495	45.3289
1490	47.1376
1485	48.4591
1480	49.4209
1475	50.0473
1470	50.22
1465	50.0313
1460	49.5775
1455	48.8495
1450	47.9551
1445	47.1112
1440	46.3396
1435	45.6636
1430	45.2427
1425	45.2154
1420	45.4413
1415	45.89
1410	46.6569
1405	47.6914
1400	48.9633
1395	50.4632
1390	52.1523
1385	54.0295
1380	55.8181
1375	57.5045
1370	58.8583
1365	59.6976
1360	60.2055
1355	60.3168
1350	59.8905
1345	58.9134
1340	57.5936
1335	56.1872
1330	54.7709
1325	53.2448
1320	51.832
1315	50.638
1310	49.7797
1305	49.2249
1300	48.9381
1295	48.8756
1290	49.0439
1285	49.4791
1280	50.2844
1275	51.5239
1270	52.9221
1265	54.508
1260	56.2402
1255	57.8596
1250	59.2622
1245	60.6378
1240	61.7388
1235	62.1367
1230	62.2758
1225	62.1898
1220	61.4077
1215	60.2275
1210	58.9024
1205	57.5059
1200	55.9182
1195	54.0849
1190	52.5262
1185	51.5477
1180	50.7833
1175	49.9116
1170	49.4704
1165	49.6277
1160	49.6868
1155	50.0182
1150	51.028
1145	52.2224
1140	53.6119
1135	55.158
1130	56.445
1125	57.8844
1120	59.6106
1115	61.0604
1110	61.9011
1105	62.404
1100	62.59
1095	62.4241
1090	61.9369
1085	61.0114
1080	59.509
1075	57.8564
1070	56.3246
1065	54.8441
1060	53.4125
1055	52.1606
1050	51.1102
1045	50.3719
1040	49.9153
1035	49.5793
1030	49.7077
1025	50.3158
1020	51.3327
1015	52.2101
1010	53.2108
1005	54.6628
1000	56.0003
995	 57.6021
990	 59.2772
985	 60.629
980	 61.8944
975	 62.6475
970	 63.0056
965	 63.0117
960	 62.5504
955	 61.7963
950	 60.7508
945	 59.2434
940	 57.3931
935	 55.7947
930	 54.5167
925	 53.286
920	 52.1346
915	 51.2497
910	 50.7132
905	 50.4643
900	 50.1965
895	 50.3371
890	 50.8386
885	 51.5115
880	 52.643
875	 53.7956
870	 55.2091
865	 56.8539
860	 58.1831
855	 59.4689
850	 60.9319
845	 62.2681
840	 63.0468
835	 63.2814
830	 63.2486
825	 62.8208
820	 61.9189
815	 60.6717
810	 58.9936
805	 57.3922
800	 56.0834
795	 54.8913
790	 53.6574
785	 52.5297
780	 51.5664
775	 50.8557
770	 50.5654
765	 50.61
760	 50.7599
755	 51.3364
750	 52.156
745	 53.1852
740	 54.2476
735	 55.5338
730	 57.1518
725	 58.4466
720	 59.8333
715	 61.2972
710	 62.3112
705	 63.0359
700	 63.333
695	 63.0965
690	 62.2276
685	 61.1905
680	 60.2041
675	 58.861
670	 57.2155
665	 55.8752
660	 54.5622
655	 53.0651
650	 52.2047
645	 51.5548
640	 50.9023
635	 50.1221
630	 49.9034
625	 50.4601
620	 51.2172
615	 51.6946
610	 52.1888
605	 53.7497
600	 55.2816
595	 56.6816
590	 58.5044
585	 59.9323
580	 60.6939
575	 61.6288
570	 62.7861
565	 63.0805
560	 62.6313
555	 62.0863
550	 61.3124
545	 60.6318
540	 59.5522
535	 57.6204
530	 55.8215
525	 54.2537
520	 52.8875
515	 52.6673
510	 52.2951
505	 51.3451
500	 50.6544
495	 50.3528
490	 50.2029
485	 50.5549
480	 51.8155
475	 52.7175
470	 54.1431
465	 55.5856
460	 54.7316
455	 56.2365
450	 58.566
445	 59.755
440	 60.8821
435	 61.657
430	 62.0454
425	 60.7443
420	 58.6107
415	 57.9856
410	 57.4663
405	 49.439
400	 42.2363
395	 40.4061
390	 32.9202
385	 23.1828
380	 25.5913
375	 31.1112
370	 26.5685