File: Bakgrunnsmateriale/MATLAB/FTIR/ftir_data/subBb/Mapping_121/C-4040-8_t99_cm-1.asc
PE IR       SPECTRUM    SPECTRUM    ASCII       PEDS        1.60
  -1
C-1EE0~1.ASC
17/03/27
22:37:33.00
17/03/27
22:37:33.00
tln
$C-4040-8_t0099$<tbV0>[-13.0,7.8,8.0,0.0,27,1,0]
370
64

2002,4.07
MIRTGS : RIGHTBACK : INTERNAL 2
MIR : ON : INTERNAL 2
OPTKBR

0.200000
8
8.000000
FILLER
RATIO
SPECTRUM
UNLOCKED 256

DOUBLE
64
COMBINED
1
0
0

1.000000
RATIO

1
0
TRUE
51149
0
LEFT NOT FITTED RIGHT NOT FITTED 0
NONE
NONE
15600
12
4.427000
51148
TRUE
1 0 8 72 0 0 0 0

15798

#HDR
-1
-1
#GR
CM-1
%T
2.38419e-05
0.0
5000
-1.000000
4631
8
174.468
49.0629
#DATA
5000	65.202
4996	65.1553
4992	64.8326
4988	64.5883
4984	64.5615
4980	64.6136
4976	64.7989
4972	64.6869
4968	64.4348
4964	64.8493
4960	65.2408
4956	65.0854
4952	64.8788
4948	64.8292
4944	64.6421
4940	64.1676
4936	63.9565
4932	64.0865
4928	64.2889
4924	64.6715
4920	65.0232
4916	65.2203
4912	65.2166
4908	64.7879
4904	64.2493
4900	64.2932
4896	64.8047
4892	65.115
4888	65.6089
4884	66.2596
4880	66.0349
4876	65.3864
4872	65.0512
4868	64.7368
4864	64.531
4860	64.6378
4856	64.6256
4852	64.5573
4848	64.738
4844	64.7791
4840	64.6611
4836	64.5286
4832	64.4928
4828	64.6755
4824	64.6757
4820	64.513
4816	64.5598
4812	64.6935
4808	64.8762
4804	65.1487
4800	65.322
4796	65.331
4792	65.2611
4788	65.2607
4784	65.2901
4780	65.1475
4776	64.9791
4772	65.0286
4768	65.1078
4764	65.0429
4760	65.0417
4756	65.1118
4752	65.0119
4748	64.8945
4744	64.93
4740	64.9344
4736	65.0569
4732	65.2951
4728	65.3291
4724	65.3238
4720	65.2434
4716	65.1131
4712	65.2966
4708	65.3801
4704	65.0695
4700	64.8891
4696	64.9455
4692	65.0236
4688	65.1214
4684	65.1725
4680	65.1449
4676	65.1433
4672	65.1574
4668	65.1503
4664	65.1257
4660	65.1371
4656	65.2528
4652	65.2273
4648	65.1558
4644	65.3225
4640	65.5218
4636	65.548
4632	65.4964
4628	65.488
4624	65.3184
4620	64.9659
4616	64.7113
4612	64.6616
4608	64.7726
4604	64.8029
4600	64.7897
4596	64.9451
4592	64.964
4588	64.8196
4584	64.8316
4580	64.8917
4576	64.7554
4572	64.5662
4568	64.5744
4564	64.7429
4560	64.8777
4556	64.7347
4552	64.6113
4548	64.6643
4544	64.36
4540	63.8508
4536	63.3732
4532	63.0619
4528	63.422
4524	64.1608
4520	64.525
4516	64.3555
4512	64.027
4508	63.8001
4504	63.53
4500	63.3574
4496	63.3728
4492	63.4442
4488	63.5787
4484	63.6392
4480	63.6144
4476	63.558
4472	63.4686
4468	63.4216
4464	63.3745
4460	63.3603
4456	63.479
4452	63.5091
4448	63.4337
4444	63.2932
4440	63.172
4436	63.201
4432	63.1489
4428	62.9278
4424	62.7208
4420	62.2753
4416	62.2114
4412	62.7172
4408	63.2025
4404	63.771
4400	63.3488
4396	64.6124
4392	75.8104
4388	115.038
4384	128.159
4380	87.4555
4376	66.5928
4372	65.2776
4368	65.1538
4364	64.2029
4360	64.0072
4356	64.0151
4352	63.8113
4348	63.8148
4344	63.8708
4340	63.4984
4336	63.3156
4332	63.5605
4328	63.9077
4324	64.1946
4320	64.0642
4316	63.6223
4312	63.3356
4308	63.2623
4304	63.3974
4300	63.6642
4296	63.7121
4292	63.5509
4288	63.5573
4284	63.711
4280	63.8572
4276	64.1119
4272	64.2709
4268	64.3023
4264	64.4453
4260	64.3067
4256	63.8863
4252	63.6813
4248	63.7774
4244	63.9845
4240	64.1277
4236	64.3872
4232	64.5848
4228	64.5159
4224	64.4668
4220	64.4598
4216	64.5199
4212	64.5226
4208	64.3923
4204	64.332
4200	64.2775
4196	64.3209
4192	64.4715
4188	64.3814
4184	64.4879
4180	65.1581
4176	65.2829
4172	64.5931
4168	64.3443
4164	64.8791
4160	65.2893
4156	65.1261
4152	64.9404
4148	65.0347
4144	65.0052
4140	64.8634
4136	64.9954
4132	65.0905
4128	65.0229
4124	65.0486
4120	65.0675
4116	65.0301
4112	64.9567
4108	65.0275
4104	65.2797
4100	65.3425
4096	65.1487
4092	64.8883
4088	64.8135
4084	65.0156
4080	65.3413
4076	65.4609
4072	65.2159
4068	65.0189
4064	65.0244
4060	65.0506
4056	65.1835
4052	65.2981
4048	65.0814
4044	64.9252
4040	65.1583
4036	65.4198
4032	65.4271
4028	65.326
4024	65.3831
4020	65.3869
4016	65.2082
4012	65.1733
4008	65.239
4004	65.1613
4000	65.0359
3996	64.9747
3992	64.9657
3988	65.0867
3984	65.3138
3980	65.3082
3976	65.0347
3972	64.9139
3968	65.0229
3964	65.0816
3960	64.9176
3956	64.6239
3952	64.5506
3948	64.7454
3944	64.9359
3940	65.0747
3936	65.0895
3932	64.9432
3928	64.8276
3924	64.8281
3920	64.8447
3916	64.8025
3912	64.7809
3908	64.8679
3904	64.9693
3900	64.9626
3896	64.8877
3892	64.8897
3888	64.9069
3884	64.8006
3880	64.7419
3876	64.8609
3872	64.9255
3868	64.838
3864	64.8248
3860	64.916
3856	64.9399
3852	64.9069
3848	64.9369
3844	64.9863
3840	64.9972
3836	64.8656
3832	64.4986
3828	64.2463
3824	64.3469
3820	64.5624
3816	64.711
3812	64.7716
3808	64.7462
3804	64.6967
3800	64.7397
3796	64.8377
3792	64.9564
3788	65.0924
3784	65.055
3780	64.8753
3776	64.8424
3772	65.0095
3768	65.1295
3764	65.0708
3760	65.0347
3756	65.0657
3752	65.0615
3748	65.1012
3744	65.0973
3740	65.0089
3736	65.0344
3732	65.1493
3728	65.2104
3724	65.1758
3720	65.1058
3716	65.1074
3712	65.141
3708	65.1243
3704	65.1225
3700	65.1695
3696	65.1669
3692	65.1673
3688	65.257
3684	65.2898
3680	65.1862
3676	65.1619
3672	65.3033
3668	65.3751
3664	65.3296
3660	65.2791
3656	65.241
3652	65.1711
3648	65.14
3644	65.195
3640	65.1538
3636	65.0716
3632	65.0792
3628	65.1192
3624	65.1762
3620	65.2005
3616	65.2218
3612	65.286
3608	65.2426
3604	65.0886
3600	65.075
3596	65.2267
3592	65.3342
3588	65.3346
3584	65.2645
3580	65.1536
3576	65.1166
3572	65.2423
3568	65.4037
3564	65.4192
3560	65.326
3556	65.2193
3552	65.1121
3548	65.0609
3544	65.1244
3540	65.1873
3536	65.0875
3532	64.9803
3528	65.0796
3524	65.2372
3520	65.1899
3516	65.0118
3512	64.965
3508	65.0904
3504	65.148
3500	64.9846
3496	64.8696
3492	64.9723
3488	65.0489
3484	64.9147
3480	64.7786
3476	64.8295
3472	64.9092
3468	64.8917
3464	64.8844
3460	64.9708
3456	64.9591
3452	64.8202
3448	64.8061
3444	64.9472
3440	65.1052
3436	65.1448
3432	65.126
3428	65.1726
3424	65.1318
3420	64.9675
3416	64.8798
3412	64.9028
3408	65.006
3404	65.0669
3400	65.0047
3396	64.9296
3392	64.8407
3388	64.7737
3384	64.768
3380	64.8222
3376	64.9485
3372	65.0286
3368	64.9726
3364	64.9164
3360	64.9382
3356	64.9559
3352	65.0377
3348	65.1083
3344	65.0477
3340	64.9911
3336	64.9873
3332	64.9953
3328	64.9784
3324	64.8928
3320	64.8043
3316	64.8135
3312	64.9242
3308	65.0367
3304	65.0765
3300	65.082
3296	65.0893
3292	65.1023
3288	65.1172
3284	65.123
3280	65.0985
3276	65.1112
3272	65.1786
3268	65.1636
3264	65.1018
3260	65.0784
3256	65.0781
3252	65.0716
3248	65.0327
3244	65.0699
3240	65.159
3236	65.121
3232	65.0006
3228	64.9241
3224	64.962
3220	65.073
3216	65.084
3212	65.0635
3208	65.1445
3204	65.1491
3200	65.0003
3196	64.9627
3192	65.088
3188	65.0759
3184	64.9755
3180	65.0085
3176	65.1433
3172	65.2529
3168	65.2515
3164	65.2457
3160	65.3054
3156	65.2763
3152	65.1278
3148	65.0312
3144	65.113
3140	65.2723
3136	65.2745
3132	65.1635
3128	65.1253
3124	65.1161
3120	65.0049
3116	64.9152
3112	65.0445
3108	65.3008
3104	65.4243
3100	65.3507
3096	65.2853
3092	65.258
3088	65.1683
3084	65.1003
3080	65.0908
3076	65.092
3072	65.0765
3068	65.011
3064	64.9308
3060	64.9153
3056	64.9981
3052	65.1294
3048	65.1778
3044	65.1163
3040	65.1166
3036	65.2091
3032	65.2035
3028	65.0776
3024	64.9894
3020	64.9734
3016	65.0386
3012	65.1595
3008	65.2336
3004	65.2553
3000	65.2049
2996	65.1397
2992	65.1403
2988	65.113
2984	65.0142
2980	64.9527
2976	64.9247
2972	64.8762
2968	64.898
2964	64.9366
2960	64.8875
2956	64.8627
2952	64.883
2948	64.8592
2944	64.8791
2940	64.9942
2936	65.0323
2932	64.9129
2928	64.7677
2924	64.664
2920	64.625
2916	64.7206
2912	64.8654
2908	64.9517
2904	64.9279
2900	64.818
2896	64.8018
2892	64.8898
2888	64.9281
2884	64.8861
2880	64.8812
2876	64.8901
2872	64.8373
2868	64.9256
2864	65.1121
2860	65.0702
2856	64.8771
2852	64.8263
2848	64.878
2844	64.9354
2840	65.038
2836	65.0767
2832	65.017
2828	65.0184
2824	65.0552
2820	65.0496
2816	65.0756
2812	65.1186
2808	65.144
2804	65.1355
2800	65.0758
2796	65.0814
2792	65.1509
2788	65.1322
2784	65.0765
2780	65.0715
2776	65.0692
2772	65.0963
2768	65.1848
2764	65.2366
2760	65.2144
2756	65.2107
2752	65.1955
2748	65.1221
2744	65.1287
2740	65.1883
2736	65.1155
2732	64.9773
2728	64.9482
2724	65.0455
2720	65.1543
2716	65.1675
2712	65.1625
2708	65.2355
2704	65.2588
2700	65.1483
2696	65.0643
2692	65.1119
2688	65.208
2684	65.2074
2680	65.1099
2676	65.0766
2672	65.121
2668	65.1772
2664	65.2051
2660	65.163
2656	65.0958
2652	65.0599
2648	65.0622
2644	65.0774
2640	65.06
2636	65.0348
2632	65.0708
2628	65.1521
2624	65.2214
2620	65.2626
2616	65.2564
2612	65.1841
2608	65.0696
2604	64.9702
2600	64.9616
2596	65.0142
2592	65.0473
2588	65.0995
2584	65.1803
2580	65.1772
2576	65.0995
2572	65.0482
2568	65.0305
2564	65.0489
2560	65.035
2556	64.9756
2552	64.9419
2548	65.014
2544	65.1315
2540	65.148
2536	65.1348
2532	65.0903
2528	64.989
2524	64.9848
2520	65.1084
2516	65.134
2512	64.9934
2508	64.956
2504	65.1295
2500	65.2566
2496	65.1552
2492	65.1006
2488	65.2138
2484	65.2627
2480	65.2828
2476	65.3048
2472	65.2205
2468	65.1328
2464	65.1699
2460	65.2256
2456	65.2053
2452	65.1751
2448	65.1618
2444	65.1719
2440	65.1873
2436	65.1642
2432	65.0806
2428	64.9768
2424	65.0135
2420	65.2718
2416	65.4686
2412	65.3454
2408	65.1961
2404	65.2271
2400	65.2362
2396	65.175
2392	65.1347
2388	65.0931
2384	65.1098
2380	65.1669
2376	65.0951
2372	65.0194
2368	65.07
2364	65.1434
2360	65.1895
2356	65.2072
2352	65.21
2348	65.224
2344	65.2181
2340	65.2205
2336	65.2673
2332	65.2636
2328	65.1942
2324	65.1795
2320	65.2832
2316	65.3897
2312	65.3493
2308	65.2186
2304	65.1827
2300	65.244
2296	65.2613
2292	65.2485
2288	65.2427
2284	65.2272
2280	65.283
2276	65.324
2272	65.2246
2268	65.1633
2264	65.2257
2260	65.3004
2256	65.2979
2252	65.2425
2248	65.2278
2244	65.1823
2240	65.0875
2236	65.0922
2232	65.158
2228	65.1506
2224	65.1253
2220	65.1344
2216	65.1383
2212	65.1416
2208	65.1719
2204	65.165
2200	65.0879
2196	65.0691
2192	65.1153
2188	65.1573
2184	65.2094
2180	65.2264
2176	65.2131
2172	65.2506
2168	65.2992
2164	65.3339
2160	65.3605
2156	65.383
2152	65.3869
2148	65.2901
2144	65.1373
2140	65.0597
2136	65.1642
2132	65.2911
2128	65.2494
2124	65.1726
2120	65.1567
2116	65.1798
2112	65.2812
2108	65.3182
2104	65.1855
2100	65.0782
2096	65.0508
2092	64.9669
2088	64.8437
2084	64.9249
2080	65.1922
2076	65.3632
2072	65.4481
2068	65.4898
2064	65.4243
2060	65.3275
2056	65.2136
2052	65.095
2048	65.1071
2044	65.197
2040	65.2043
2036	65.1669
2032	65.2079
2028	65.2143
2024	65.1426
2020	65.1703
2016	65.242
2012	65.2499
2008	65.2031
2004	65.165
2000	65.1775
1996	65.1592
1992	65.1357
1988	65.1796
1984	65.2399
1980	65.2793
1976	65.2995
1972	65.3273
1968	65.3545
1964	65.3348
1960	65.3007
1956	65.2797
1952	65.2351
1948	65.2064
1944	65.2289
1940	65.2442
1936	65.2452
1932	65.2719
1928	65.2835
1924	65.2374
1920	65.2066
1916	65.1815
1912	65.1079
1908	65.0894
1904	65.1377
1900	65.1401
1896	65.1137
1892	65.1039
1888	65.0987
1884	65.0926
1880	65.0946
1876	65.1047
1872	65.1097
1868	65.1425
1864	65.2204
1860	65.2607
1856	65.2425
1852	65.218
1848	65.2096
1844	65.2477
1840	65.2872
1836	65.2853
1832	65.2678
1828	65.2347
1824	65.2031
1820	65.1797
1816	65.1327
1812	65.1371
1808	65.2647
1804	65.3562
1800	65.306
1796	65.2424
1792	65.225
1788	65.2248
1784	65.2212
1780	65.1711
1776	65.1296
1772	65.1831
1768	65.2515
1764	65.2084
1760	65.1303
1756	65.1424
1752	65.1722
1748	65.1326
1744	65.0834
1740	65.0673
1736	65.015
1732	64.8995
1728	64.8248
1724	64.8414
1720	64.9252
1716	65.0953
1712	65.2746
1708	65.3369
1704	65.2308
1700	65.0997
1696	65.1324
1692	65.2244
1688	65.2213
1684	65.1671
1680	65.1391
1676	65.1561
1672	65.2419
1668	65.2894
1664	65.2376
1660	65.1876
1656	65.0971
1652	65.013
1648	65.045
1644	65.1334
1640	65.1842
1636	65.1651
1632	65.1109
1628	65.0608
1624	65.0855
1620	65.1323
1616	65.0914
1612	65.011
1608	64.9733
1604	64.9732
1600	64.9384
1596	64.9182
1592	64.9621
1588	65.0124
1584	65.0591
1580	65.0751
1576	64.9814
1572	64.8701
1568	64.8843
1564	64.8941
1560	64.8517
1556	64.8854
1552	64.9651
1548	65.0501
1544	65.0995
1540	65.0491
1536	64.9879
1532	64.9753
1528	64.9798
1524	65.0256
1520	65.1067
1516	65.1054
1512	65.0311
1508	65.0466
1504	65.1016
1500	65.1164
1496	65.1401
1492	65.0887
1488	65.0202
1484	65.0604
1480	65.1003
1476	65.0879
1472	65.0232
1468	64.9793
1464	65.0877
1460	65.1655
1456	64.9877
1452	64.8075
1448	64.9923
1444	65.2434
1440	65.1781
1436	65.0169
1432	64.9474
1428	64.9031
1424	64.8581
1420	64.8533
1416	64.8866
1412	64.9836
1408	65.1473
1404	65.2082
1400	65.1678
1396	65.1306
1392	65.0343
1388	64.9294
1384	64.905
1380	64.8569
1376	64.797
1372	64.8517
1368	64.897
1364	64.8927
1360	64.9522
1356	65.0054
1352	65.0023
1348	64.9998
1344	64.9928
1340	64.9195
1336	64.8107
1332	64.7978
1328	64.8793
1324	65
1320	65.0246
1316	64.8964
1312	64.8211
1308	64.8519
1304	64.9248
1300	64.9853
1296	65.0032
1292	64.9708
1288	64.8648
1284	64.8059
1280	64.8425
1276	64.8573
1272	64.8053
1268	64.7801
1264	64.8532
1260	64.9249
1256	64.9409
1252	64.9201
1248	64.9093
1244	64.9559
1240	64.9401
1236	64.867
1232	64.8227
1228	64.8255
1224	64.8732
1220	64.8711
1216	64.8579
1212	64.8687
1208	64.8319
1204	64.7578
1200	64.7521
1196	64.8496
1192	64.9121
1188	64.8778
1184	64.8353
1180	64.8664
1176	64.9082
1172	64.9418
1168	64.9556
1164	64.8566
1160	64.8028
1156	64.8372
1152	64.8087
1148	64.7686
1144	64.6884
1140	64.6439
1136	64.7626
1132	64.7577
1128	64.59
1124	64.6022
1120	64.7685
1116	64.7998
1112	64.6877
1108	64.669
1104	64.6617
1100	64.5811
1096	64.6017
1092	64.5107
1088	64.2952
1084	64.2612
1080	64.3599
1076	64.5077
1072	64.6641
1068	64.7326
1064	64.628
1060	64.4475
1056	64.4615
1052	64.6951
1048	64.881
1044	64.7766
1040	64.5116
1036	64.4037
1032	64.4525
1028	64.6101
1024	64.8997
1020	64.9295
1016	64.5854
1012	64.3163
1008	64.3504
1004	64.5761
1000	64.6142
996	 64.5667
992	 64.7043
988	 64.729
984	 64.5776
980	 64.4503
976	 64.38
972	 64.351
968	 64.4197
964	 64.5319
960	 64.5299
956	 64.4227
952	 64.3364
948	 64.3175
944	 64.4138
940	 64.4816
936	 64.2949
932	 64.162
928	 64.337
924	 64.6755
920	 64.9285
916	 64.8989
912	 64.7505
908	 64.5673
904	 64.2242
900	 63.9609
896	 64.117
892	 64.4866
888	 64.5909
884	 64.2832
880	 64.1044
876	 64.32
872	 64.5198
868	 64.5904
864	 64.5432
860	 64.4601
856	 64.429
852	 64.3269
848	 64.191
844	 64.1246
840	 64.08
836	 64.1782
832	 64.3975
828	 64.4375
824	 64.3233
820	 64.2941
816	 64.3827
812	 64.379
808	 64.2126
804	 64.0461
800	 64.0247
796	 64.0705
792	 63.948
788	 63.7211
784	 63.5673
780	 63.575
776	 63.6532
772	 63.7449
768	 63.9269
764	 64.0928
760	 64.2423
756	 64.1579
752	 63.6993
748	 63.5013
744	 63.663
740	 63.7577
736	 63.8413
732	 63.9206
728	 63.7993
724	 63.5281
720	 63.4188
716	 63.4878
712	 63.4767
708	 63.2046
704	 62.9273
700	 62.9992
696	 63.2696
692	 63.5033
688	 63.4887
684	 63.3263
680	 63.2774
676	 63.2501
672	 63.0973
668	 62.8825
664	 62.9437
660	 63.0626
656	 62.8076
652	 62.5735
648	 62.5669
644	 62.6247
640	 62.684
636	 62.6567
632	 62.635
628	 62.7271
624	 62.9782
620	 62.9858
616	 62.5379
612	 62.4254
608	 62.6536
604	 62.4418
600	 62.086
596	 62.1423
592	 62.3351
588	 62.3311
584	 62.3177
580	 62.4737
576	 62.7359
572	 62.8142
568	 62.5299
564	 62.3152
560	 62.4987
556	 62.8993
552	 62.8521
548	 62.2824
544	 61.9749
540	 62.0261
536	 62.0805
532	 61.6836
528	 60.944
524	 60.7296
520	 61.1555
516	 61.663
512	 62.1204
508	 62.2279
504	 61.6447
500	 61.1556
496	 61.0203
492	 60.8368
488	 61.0046
484	 61.1584
480	 60.7011
476	 60.3584
472	 60.3297
468	 60.1772
464	 59.8842
460	 59.7918
456	 60.4126
452	 60.4844
448	 59.378
444	 58.4826
440	 58.4097
436	 58.9553
432	 58.5833
428	 56.6753
424	 54.8695
420	 54.8462
416	 55.5664
412	 55.5723
408	 55.1115
404	 60.1052
400	 71.8809
396	 64.3663
392	 49.3768
388	 53.1312
384	 60.4883
380	 57.6014
376	 131.71
372	 167.013
370	 129.203