File: Bakgrunnsmateriale/MATLAB/FTIR/ftir_data/subBb/Mapping_121/C-4040-8_t62_cm-1.asc
PE IR       SPECTRUM    SPECTRUM    ASCII       PEDS        1.60
  -1
C-9C64~1.ASC
17/03/27
19:32:59.00
17/03/27
19:32:59.00
tln
$C-4040-8_t0062$<tbV0>[-2.6,0.0,8.0,0.0,27,1,0]
370
64

2002,4.07
MIRTGS : RIGHTBACK : INTERNAL 2
MIR : ON : INTERNAL 2
OPTKBR

0.200000
8
8.000000
FILLER
RATIO
SPECTRUM
UNLOCKED 256

DOUBLE
64
COMBINED
1
0
0

1.000000
RATIO

1
0
TRUE
51149
0
LEFT NOT FITTED RIGHT NOT FITTED 0
NONE
NONE
15600
12
4.427000
51148
TRUE
1 0 8 72 0 0 0 0

15798

#HDR
-1
-1
#GR
CM-1
%T
2.38419e-05
0.0
5000
-1.000000
4631
8
103.177
41.5972
#DATA
5000	64.9519
4996	64.5921
4992	64.1918
4988	64.5143
4984	65.0908
4980	65.1043
4976	64.959
4972	65.0009
4968	64.8573
4964	64.7399
4960	65.0288
4956	65.215
4952	65.1197
4948	64.9383
4944	64.9054
4940	65.2681
4936	65.3976
4932	65.0784
4928	65.0629
4924	65.2501
4920	65.1801
4916	65.153
4912	65.1475
4908	65.1073
4904	65.2623
4900	65.2471
4896	65.0942
4892	65.0834
4888	64.8165
4884	64.3473
4880	64.2857
4876	64.6369
4872	65.0561
4868	65.093
4864	64.9007
4860	65.0265
4856	65.0651
4852	65.1284
4848	65.4834
4844	65.3804
4840	64.9164
4836	64.8604
4832	65.0869
4828	65.1466
4824	65.2167
4820	65.3668
4816	65.2157
4812	64.9661
4808	64.9044
4804	64.8599
4800	64.8163
4796	64.7473
4792	64.6714
4788	64.76
4784	64.8592
4780	64.7631
4776	64.5868
4772	64.5599
4768	64.6469
4764	64.5024
4760	64.3315
4756	64.4843
4752	64.5612
4748	64.4333
4744	64.4019
4740	64.3398
4736	64.1575
4732	64.0533
4728	64.155
4724	64.4758
4720	64.6721
4716	64.5279
4712	64.4017
4708	64.4394
4704	64.5146
4700	64.6818
4696	64.8726
4692	64.8989
4688	64.7416
4684	64.5311
4680	64.3601
4676	64.2505
4672	64.2455
4668	64.2928
4664	64.4057
4660	64.5494
4656	64.4822
4652	64.2463
4648	64.2605
4644	64.5802
4640	64.8678
4636	64.99
4632	65.0322
4628	65.1631
4624	65.2238
4620	64.8991
4616	64.4613
4612	64.272
4608	64.2472
4604	64.2919
4600	64.5064
4596	64.6066
4592	64.4455
4588	64.5013
4584	64.7034
4580	64.6999
4576	64.7383
4572	64.8635
4568	64.8519
4564	64.8071
4560	64.7069
4556	64.5795
4552	64.6573
4548	64.9307
4544	65.1315
4540	65.0599
4536	64.9761
4532	65.0297
4528	64.9904
4524	65.0658
4520	65.4264
4516	65.7093
4512	65.8517
4508	65.8511
4504	65.6406
4500	65.4955
4496	65.4853
4492	65.456
4488	65.4006
4484	65.4924
4480	65.821
4476	65.9686
4472	65.9485
4468	66.0694
4464	66.1215
4460	66.2396
4456	66.4484
4452	66.3429
4448	65.9495
4444	65.7763
4440	66.0351
4436	66.4659
4432	66.7314
4428	66.6956
4424	66.4508
4420	66.0468
4416	65.8838
4412	66.1741
4408	66.6603
4404	67.223
4400	67.142
4396	66.4209
4392	65.9176
4388	65.3963
4384	64.6287
4380	63.8921
4376	62.5713
4372	55.7624
4368	45.4757
4364	41.5972
4360	45.001
4356	54.4062
4352	64.6393
4348	66.9508
4344	66.1708
4340	66.8046
4336	66.9983
4332	66.4965
4328	66.1452
4324	66.1996
4320	66.1886
4316	65.9388
4312	65.7907
4308	65.8988
4304	66.1643
4300	66.3514
4296	66.4608
4292	66.579
4288	66.5058
4284	66.4116
4280	66.3319
4276	66.0239
4272	65.736
4268	65.7821
4264	66.0483
4260	66.1576
4256	66.0197
4252	65.926
4248	65.7851
4244	65.5568
4240	65.5837
4236	65.7627
4232	65.7349
4228	65.5158
4224	65.4204
4220	65.5777
4216	65.7119
4212	65.3999
4208	64.9621
4204	64.9672
4200	65.0705
4196	65.0979
4192	65.4274
4188	65.6365
4184	65.2198
4180	64.752
4176	64.6799
4172	64.8952
4168	65.2519
4164	65.623
4160	65.8466
4156	65.6186
4152	65.1085
4148	64.9127
4144	65.1381
4140	65.3407
4136	65.1742
4132	64.8569
4128	64.8086
4124	64.9354
4120	64.9532
4116	64.8879
4112	64.8273
4108	64.8142
4104	64.9185
4100	64.9961
4096	64.8522
4092	64.6872
4088	64.7444
4084	64.8897
4080	64.9495
4076	65.0092
4072	65.0148
4068	64.8209
4064	64.6326
4060	64.6514
4056	64.8037
4052	64.9228
4048	64.8422
4044	64.6817
4040	64.6912
4036	64.8485
4032	64.8986
4028	64.7109
4024	64.692
4020	65.0071
4016	65.1191
4012	64.9421
4008	64.9188
4004	65.0002
4000	65.0559
3996	65.1449
3992	65.1037
3988	64.9211
3984	64.7741
3980	64.7248
3976	64.6855
3972	64.5931
3968	64.6504
3964	64.8949
3960	64.9947
3956	64.9334
3952	64.9327
3948	64.9912
3944	65.0154
3940	65.0667
3936	65.1597
3932	65.1318
3928	65.0169
3924	64.8907
3920	64.7678
3916	64.8343
3912	65.0156
3908	64.9999
3904	64.928
3900	65.1005
3896	65.2816
3892	65.2393
3888	65.2411
3884	65.3079
3880	65.31
3876	65.4576
3872	65.712
3868	65.7383
3864	65.4495
3860	65.1425
3856	65.1605
3852	65.3268
3848	65.3718
3844	65.3899
3840	65.4138
3836	65.3146
3832	65.0695
3828	64.9293
3824	65.0086
3820	65.0311
3816	64.9852
3812	65.0496
3808	65.1395
3804	65.1744
3800	65.1566
3796	65.2212
3792	65.4356
3788	65.6079
3784	65.5525
3780	65.3794
3776	65.3251
3772	65.3363
3768	65.2785
3764	65.2304
3760	65.1915
3756	65.1221
3752	65.0888
3748	65.0758
3744	65.1189
3740	65.1656
3736	65.1525
3732	65.2224
3728	65.2851
3724	65.185
3720	65.0523
3716	64.9641
3712	64.9777
3708	65.0814
3704	65.092
3700	65.0659
3696	65.1187
3692	65.1423
3688	65.2117
3684	65.3157
3680	65.231
3676	65.1284
3672	65.1798
3668	65.2372
3664	65.223
3660	65.2308
3656	65.323
3652	65.3398
3648	65.2161
3644	65.1127
3640	65.0597
3636	64.9765
3632	64.9072
3628	64.9544
3624	65.0445
3620	65.0305
3616	64.9237
3612	64.8158
3608	64.7318
3604	64.7494
3600	64.8791
3596	64.939
3592	64.935
3588	64.9459
3584	64.976
3580	65.0556
3576	65.0869
3572	65.0514
3568	65.0079
3564	64.9681
3560	64.909
3556	64.808
3552	64.79
3548	64.8432
3544	64.8988
3540	64.9662
3536	65.0155
3532	65.1013
3528	65.1941
3524	65.089
3520	64.8003
3516	64.7048
3512	64.9176
3508	65.1095
3504	65.1486
3500	65.1058
3496	64.9504
3492	64.8252
3488	64.8648
3484	64.9292
3480	65.0005
3476	65.1105
3472	65.216
3468	65.2892
3464	65.1808
3460	65.094
3456	65.1707
3452	65.1232
3448	65.0195
3444	65.0336
3440	65.1354
3436	65.2331
3432	65.2031
3428	65.1356
3424	65.1545
3420	65.1689
3416	65.0884
3412	64.9943
3408	65.0117
3404	65.1062
3400	65.191
3396	65.2204
3392	65.2076
3388	65.2066
3384	65.2187
3380	65.2075
3376	65.1417
3372	65.1088
3368	65.2138
3364	65.3628
3360	65.315
3356	65.1154
3352	65.0604
3348	65.1656
3344	65.2643
3340	65.3208
3336	65.3017
3332	65.213
3328	65.2268
3324	65.3141
3320	65.3441
3316	65.3142
3312	65.1849
3308	65.0249
3304	64.9448
3300	64.9935
3296	65.1569
3292	65.2756
3288	65.3083
3284	65.3349
3280	65.2948
3276	65.1999
3272	65.2544
3268	65.3885
3264	65.3568
3260	65.2666
3256	65.2544
3252	65.2405
3248	65.1976
3244	65.1048
3240	65.0017
3236	65.0561
3232	65.2238
3228	65.25
3224	65.1206
3220	65.1201
3216	65.2364
3212	65.2182
3208	65.0996
3204	65.0284
3200	65.0665
3196	65.1103
3192	65.1053
3188	65.1355
3184	65.1623
3180	65.1904
3176	65.2022
3172	65.1513
3168	65.0876
3164	65.0367
3160	65.0014
3156	64.9709
3152	64.9752
3148	65.0402
3144	65.0442
3140	64.9568
3136	65.0875
3132	65.3412
3128	65.3141
3124	65.1152
3120	65.0071
3116	65.1104
3112	65.2323
3108	65.1354
3104	65.0256
3100	65.0637
3096	65.1548
3092	65.2635
3088	65.2996
3084	65.1946
3080	65.0985
3076	65.093
3072	65.1255
3068	65.1527
3064	65.1971
3060	65.2182
3056	65.1407
3052	65.0588
3048	65.0148
3044	64.967
3040	65.0045
3036	65.1133
3032	65.1634
3028	65.1953
3024	65.2146
3020	65.1427
3016	65.0061
3012	64.9407
3008	65.0255
3004	65.1438
3000	65.1715
2996	65.1464
2992	65.1662
2988	65.2034
2984	65.2036
2980	65.1945
2976	65.198
2972	65.2222
2968	65.2644
2964	65.2817
2960	65.2246
2956	65.1267
2952	65.0673
2948	65.0831
2944	65.1121
2940	65.0412
2936	64.9273
2932	64.9421
2928	65.0321
2924	64.9795
2920	64.834
2916	64.804
2912	64.8818
2908	64.963
2904	64.9482
2900	64.8706
2896	64.8823
2892	64.971
2888	65.0467
2884	65.0485
2880	65.0085
2876	65.0687
2872	65.1917
2868	65.2449
2864	65.228
2860	65.0979
2856	64.9226
2852	64.9074
2848	65.0262
2844	65.1294
2840	65.168
2836	65.1283
2832	65.066
2828	65.0455
2824	65.0532
2820	65.1374
2816	65.2382
2812	65.2457
2808	65.2159
2804	65.1877
2800	65.1498
2796	65.1043
2792	65.1025
2788	65.1621
2784	65.192
2780	65.1885
2776	65.2024
2772	65.1943
2768	65.1886
2764	65.196
2760	65.1128
2756	65.0019
2752	64.9987
2748	65.0792
2744	65.1235
2740	65.0643
2736	65.0345
2732	65.1119
2728	65.1892
2724	65.1661
2720	65.0701
2716	65.0304
2712	65.0292
2708	65.0172
2704	65.0463
2700	65.0832
2696	65.0971
2692	65.1041
2688	65.0987
2684	65.1171
2680	65.1422
2676	65.0985
2672	65.0448
2668	65.0861
2664	65.1891
2660	65.2169
2656	65.1836
2652	65.2023
2648	65.2239
2644	65.2394
2640	65.27
2636	65.2357
2632	65.1691
2628	65.1665
2624	65.2336
2620	65.2729
2616	65.2616
2612	65.2772
2608	65.2555
2604	65.1723
2600	65.1131
2596	65.1101
2592	65.1313
2588	65.1344
2584	65.1519
2580	65.1718
2576	65.1247
2572	65.0618
2568	65.095
2564	65.1789
2560	65.2402
2556	65.2792
2552	65.2991
2548	65.31
2544	65.3037
2540	65.2546
2536	65.1798
2532	65.117
2528	65.0655
2524	65.072
2520	65.1174
2516	65.0789
2512	65.0174
2508	65.0299
2504	65.0728
2500	65.1617
2496	65.2486
2492	65.2746
2488	65.2702
2484	65.2553
2480	65.25
2476	65.2342
2472	65.1978
2468	65.1598
2464	65.1786
2460	65.2341
2456	65.2041
2452	65.1795
2448	65.2051
2444	65.1488
2440	65.0584
2436	65.0944
2432	65.277
2428	65.4712
2424	65.5504
2420	65.3774
2416	65.1474
2412	65.2685
2408	65.5427
2404	65.6022
2400	65.4527
2396	65.2812
2392	65.216
2388	65.1823
2384	65.1546
2380	65.1669
2376	65.1625
2372	65.1505
2368	65.1873
2364	65.2368
2360	65.2479
2356	65.1903
2352	65.1012
2348	65.0791
2344	65.1029
2340	65.1049
2336	65.0881
2332	65.104
2328	65.1272
2324	65.0753
2320	64.9772
2316	64.9191
2312	64.953
2308	65.0452
2304	65.1467
2300	65.231
2296	65.2598
2292	65.2668
2288	65.2687
2284	65.187
2280	65.0763
2276	65.0795
2272	65.1732
2268	65.2361
2264	65.2433
2260	65.2385
2256	65.2611
2252	65.3438
2248	65.4272
2244	65.401
2240	65.3021
2236	65.28
2232	65.3185
2228	65.3229
2224	65.279
2220	65.2414
2216	65.2379
2212	65.2114
2208	65.1505
2204	65.0797
2200	65.0591
2196	65.117
2192	65.1835
2188	65.1836
2184	65.103
2180	65.0861
2176	65.1747
2172	65.1988
2168	65.1293
2164	65.1252
2160	65.2228
2156	65.2174
2152	65.1173
2148	65.0299
2144	64.9778
2140	65.1255
2136	65.3359
2132	65.3713
2128	65.3034
2124	65.1767
2120	65.0742
2116	65.0503
2112	65.0759
2108	65.2031
2104	65.3458
2100	65.3817
2096	65.2938
2092	65.1827
2088	65.1179
2084	65.0039
2080	64.8908
2076	64.8791
2072	64.9593
2068	65.0601
2064	65.1116
2060	65.18
2056	65.1955
2052	65.1086
2048	65.0737
2044	65.1197
2040	65.1827
2036	65.1923
2032	65.189
2028	65.264
2024	65.308
2020	65.2275
2016	65.1523
2012	65.2058
2008	65.2958
2004	65.3163
2000	65.2662
1996	65.2086
1992	65.1958
1988	65.1799
1984	65.1794
1980	65.2146
1976	65.2704
1972	65.3441
1968	65.3389
1964	65.2541
1960	65.1969
1956	65.2232
1952	65.2836
1948	65.2795
1944	65.1966
1940	65.1542
1936	65.2289
1932	65.3068
1928	65.2848
1924	65.2118
1920	65.2035
1916	65.2591
1912	65.2691
1908	65.2037
1904	65.1339
1900	65.1189
1896	65.1546
1892	65.226
1888	65.2466
1884	65.1794
1880	65.168
1876	65.2252
1872	65.2129
1868	65.1667
1864	65.192
1860	65.2477
1856	65.2538
1852	65.2072
1848	65.165
1844	65.1732
1840	65.2023
1836	65.2123
1832	65.2356
1828	65.2582
1824	65.2271
1820	65.2125
1816	65.2283
1812	65.2405
1808	65.2647
1804	65.234
1800	65.1512
1796	65.1174
1792	65.1288
1788	65.0866
1784	64.979
1780	64.9503
1776	65.0419
1772	65.1206
1768	65.1048
1764	65.036
1760	65.0102
1756	65.0402
1752	65.054
1748	65.0547
1744	65.0501
1740	64.9861
1736	64.8978
1732	64.8267
1728	64.7714
1724	64.8247
1720	64.9529
1716	65.0114
1712	65.0409
1708	65.0984
1704	65.1522
1700	65.2148
1696	65.213
1692	65.0923
1688	65.0333
1684	65.1087
1680	65.1405
1676	65.0718
1672	65.0702
1668	65.1906
1664	65.2437
1660	65.1575
1656	65.1173
1652	65.1529
1648	65.1158
1644	65.0252
1640	64.9418
1636	64.8973
1632	64.9251
1628	65.0031
1624	65.123
1620	65.1736
1616	65.0994
1612	65.0533
1608	65.0364
1604	64.9756
1600	64.9261
1596	64.9233
1592	64.9316
1588	64.9519
1584	65.013
1580	65.0574
1576	65.0447
1572	65.0285
1568	64.9809
1564	64.8925
1560	64.8625
1556	64.9493
1552	65.0431
1548	65.0058
1544	64.9784
1540	65.0589
1536	65.075
1532	65.0146
1528	64.9571
1524	64.9095
1520	64.9722
1516	65.0907
1512	65.1249
1508	65.1314
1504	65.1311
1500	65.0637
1496	64.9436
1492	64.913
1488	65.0517
1484	65.1591
1480	65.0999
1476	65.0022
1472	64.9773
1468	64.9825
1464	64.9615
1460	64.8585
1456	64.698
1452	64.695
1448	64.8448
1444	64.9681
1440	65.0789
1436	65.1108
1432	65.0293
1428	64.9593
1424	64.9679
1420	65.0578
1416	65.1474
1412	65.1554
1408	65.1245
1404	65.0966
1400	65.0143
1396	64.9277
1392	64.9548
1388	65.0407
1384	65.0881
1380	65.0732
1376	65.0186
1372	64.9452
1368	64.9035
1364	64.9213
1360	64.9035
1356	64.8496
1352	64.8338
1348	64.8471
1344	64.8478
1340	64.8199
1336	64.8232
1332	64.8781
1328	64.9493
1324	64.9676
1320	64.933
1316	64.9598
1312	64.9981
1308	64.9783
1304	64.9899
1300	64.9861
1296	64.9181
1292	64.8551
1288	64.8453
1284	64.8928
1280	64.906
1276	64.8663
1272	64.8207
1268	64.841
1264	64.9851
1260	65.083
1256	65.0232
1252	64.9363
1248	64.9297
1244	64.9733
1240	64.9811
1236	64.9915
1232	65.0125
1228	64.974
1224	64.8859
1220	64.7558
1216	64.6574
1212	64.6876
1208	64.8315
1204	64.9352
1200	64.8705
1196	64.7775
1192	64.7781
1188	64.7547
1184	64.6956
1180	64.76
1176	64.8497
1172	64.8413
1168	64.8272
1164	64.8623
1160	64.867
1156	64.7983
1152	64.7844
1148	64.8992
1144	64.9327
1140	64.7961
1136	64.6953
1132	64.7089
1128	64.7715
1124	64.7514
1120	64.7039
1116	64.7334
1112	64.6181
1108	64.4253
1104	64.5373
1100	64.7196
1096	64.4717
1092	64.2317
1088	64.5288
1084	64.8234
1080	64.7297
1076	64.6635
1072	64.8167
1068	64.9916
1064	64.9563
1060	64.5466
1056	64.0586
1052	63.9781
1048	64.0982
1044	64.1881
1040	64.4248
1036	64.5191
1032	64.3804
1028	64.4016
1024	64.5023
1020	64.5145
1016	64.7261
1012	65.109
1008	65.2911
1004	65.3452
1000	65.3883
996	 65.1051
992	 64.5734
988	 64.2998
984	 64.4346
980	 64.7043
976	 64.7833
972	 64.605
968	 64.4249
964	 64.5411
960	 64.7564
956	 64.7344
952	 64.6429
948	 64.5755
944	 64.4182
940	 64.2531
936	 64.2463
932	 64.4214
928	 64.5578
924	 64.585
920	 64.639
916	 64.6741
912	 64.5603
908	 64.4837
904	 64.5597
900	 64.5445
896	 64.4008
892	 64.3084
888	 64.3586
884	 64.3976
880	 64.1976
876	 63.9916
872	 64.1027
868	 64.2584
864	 64.2749
860	 64.3429
856	 64.3868
852	 64.3155
848	 64.1956
844	 64.0219
840	 63.9509
836	 64.003
832	 64.0896
828	 64.2766
824	 64.201
820	 63.8221
816	 63.8369
812	 64.2464
808	 64.5275
804	 64.4843
800	 64.3669
796	 64.32
792	 64.1029
788	 63.8117
784	 63.7259
780	 63.7559
776	 63.8122
772	 63.9517
768	 64.0985
764	 64.097
760	 63.9067
756	 63.6489
752	 63.7633
748	 64.0915
744	 63.9696
740	 63.5613
736	 63.3265
732	 63.3353
728	 63.2735
724	 63.178
720	 63.3744
716	 63.5964
712	 63.5194
708	 63.299
704	 63.3503
700	 63.6558
696	 63.8465
692	 63.8421
688	 63.5999
684	 63.3156
680	 63.2315
676	 63.2343
672	 63.1273
668	 62.8389
664	 62.7663
660	 63.1748
656	 63.4933
652	 63.267
648	 62.8184
644	 62.5925
640	 62.5988
636	 62.3209
632	 62.0014
628	 62.2631
624	 62.6834
620	 62.9264
616	 63.031
612	 62.9315
608	 62.7422
604	 62.3494
600	 61.7353
596	 61.5577
592	 62.0284
588	 62.3955
584	 62.385
580	 62.4985
576	 62.4909
572	 62.1241
568	 61.9839
564	 62.1811
560	 62.341
556	 62.5048
552	 62.7667
548	 62.8252
544	 62.547
540	 62.0755
536	 61.7089
532	 61.6958
528	 61.872
524	 61.8352
520	 61.5381
516	 61.6234
512	 61.9636
508	 61.7082
504	 61.0667
500	 60.7518
496	 60.6745
492	 60.8266
488	 61.2377
484	 61.2056
480	 60.6532
476	 60.0659
472	 59.495
468	 58.9968
464	 58.489
460	 57.9444
456	 57.9467
452	 57.7945
448	 57.7632
444	 58.9157
440	 59.0785
436	 57.3123
432	 54.922
428	 53.932
424	 56.1697
420	 59.9166
416	 61.0959
412	 59.9896
408	 59.1111
404	 61.2008
400	 70.9544
396	 90.698
392	 103.177
388	 94.8488
384	 85.4615
380	 88.3156
376	 86.6412
372	 74.7366
370	 67.2722