File: Bakgrunnsmateriale/MATLAB/FTIR/ftir_data/subBb/Mapping_121/C-4040-8_t104.asc
PE IR       SPECTRUM    SPECTRUM    ASCII       PEDS        1.60
  -1
C-8CC6~1.ASC
17/03/27
23:01:15.00
17/03/27
23:01:41.00
tln
$C-4040-8_t0104$<tbV0>[2.6,10.4,8.0,0.0,27,1,0]
27.028
64

2002,4.07
MIRTGS : RIGHTBACK : INTERNAL 2
MIR : ON : INTERNAL 2
OPTKBR

0.200000
8
8.000000
FILLER
RATIO
SPECTRUM
UNLOCKED 256

DOUBLE
64
COMBINED
1
0
0

0.002000
RATIO

1
0
TRUE
51149
0
LEFT NOT FITTED RIGHT NOT FITTED 0
NONE
NONE
15600
12
4.427000
51148
TRUE
1 0 8 72 0 0 0 0

15798

#HDR
-1
-1
#GR
µM
%T
2.38419e-05
0.0
2.000000
0.002000
12515
8
201.36
53.3775
#DATA
2.000000	 65.2866
2.018000	 64.9563
2.036000	 65.3075
2.054000	 65.9953
2.072000	 65.0023
2.090000	 65.4648
2.108000	 65.1167
2.126000	 64.931
2.144000	 65.3391
2.162000	 65.2794
2.180000	 65.4499
2.198000	 65.4219
2.216000	 64.82
2.234000	 64.4212
2.252000	 64.4384
2.270000	 63.9141
2.288000	 65.0256
2.306000	 64.357
2.324000	 64.8415
2.342000	 64.8889
2.360000	 64.5201
2.378000	 64.7293
2.396000	 64.8512
2.414000	 65.2148
2.432000	 65.265
2.450000	 64.9931
2.468000	 64.988
2.486000	 65.4018
2.504000	 64.9186
2.522000	 65.4847
2.540000	 65.1353
2.558000	 65.4826
2.576000	 65.1231
2.594000	 65.1454
2.612000	 64.9842
2.630000	 65.1426
2.648000	 65.2564
2.666000	 65.2821
2.684000	 65.5808
2.702000	 65.1507
2.720000	 65.1045
2.738000	 64.9561
2.756000	 65.2929
2.774000	 65.1902
2.792000	 65.3479
2.810000	 65.425
2.828000	 65.1894
2.846000	 65.0488
2.864000	 65.313
2.882000	 65.2182
2.900000	 65.1358
2.918000	 65.3834
2.936000	 65.3662
2.954000	 65.0865
2.972000	 65.2873
2.990000	 65.2757
3.008000	 65.2009
3.026000	 65.1204
3.044000	 65.1597
3.062000	 65.2763
3.080000	 65.0269
3.098000	 65.0435
3.116000	 65.4336
3.134000	 64.9784
3.152000	 65.2601
3.170000	 65.3919
3.188000	 65.3993
3.206000	 65.129
3.224000	 65.3508
3.242000	 65.1884
3.260000	 65.212
3.278000	 65.2004
3.296000	 65.2543
3.314000	 65.2261
3.332000	 65.1857
3.350000	 65.2233
3.368000	 64.9243
3.386000	 65.1373
3.404000	 65.3241
3.422000	 64.6662
3.440000	 65.1137
3.458000	 65.1344
3.476000	 65.1877
3.494000	 65.3271
3.512000	 64.8791
3.530000	 65.2967
3.548000	 65.1293
3.566000	 65.2312
3.584000	 65.4958
3.602000	 65.3621
3.620000	 65.2588
3.638000	 65.2409
3.656000	 65.2435
3.674000	 65.4498
3.692000	 65.4107
3.710000	 65.3283
3.728000	 65.3139
3.746000	 65.2932
3.764000	 65.3133
3.782000	 65.2295
3.800000	 65.1302
3.818000	 65.3722
3.836000	 65.3411
3.854000	 65.3069
3.872000	 65.2709
3.890000	 65.3007
3.908000	 65.3012
3.926000	 65.384
3.944000	 65.3395
3.962000	 65.1937
3.980000	 65.4767
3.998000	 65.4619
4.016000	 65.3428
4.034000	 65.431
4.052000	 65.2568
4.070000	 65.4336
4.088000	 65.2736
4.106000	 65.1485
4.124000	 64.7934
4.141999	 65.1994
4.160000	 65.6932
4.178000	 65.3077
4.196000	 65.1704
4.214000	 65.184
4.232000	 65.3498
4.250000	 65.2223
4.268000	 65.248
4.286000	 65.3521
4.304000	 65.4344
4.322000	 65.3498
4.340000	 65.3142
4.358000	 65.3962
4.375999	 65.3612
4.394000	 65.337
4.412000	 65.2277
4.430000	 65.364
4.448000	 65.3445
4.466000	 65.2673
4.484000	 65.315
4.502000	 65.3437
4.520000	 65.3578
4.538000	 65.2408
4.556000	 65.3694
4.574000	 65.4158
4.592000	 65.4056
4.609999	 65.3918
4.628000	 65.4076
4.646000	 65.4931
4.664000	 65.2234
4.682000	 65.3929
4.700000	 65.4201
4.718000	 65.2759
4.736000	 65.4376
4.754000	 65.2743
4.772000	 65.3373
4.790000	 65.2411
4.808000	 65.3964
4.826000	 65.8504
4.843999	 65.6785
4.862000	 65.207
4.880000	 65.3278
4.898000	 65.3349
4.916000	 65.3049
4.934000	 65.2415
4.952000	 65.3063
4.970000	 65.3414
4.988000	 65.3584
5.006000	 65.2711
5.024000	 65.2859
5.042000	 65.3784
5.060000	 65.3333
5.077999	 65.3529
5.096000	 65.3276
5.114000	 65.285
5.132000	 65.2878
5.150000	 65.4103
5.168000	 65.4943
5.186000	 65.4719
5.204000	 65.3632
5.222000	 65.2828
5.240000	 65.2528
5.258000	 65.2704
5.276000	 65.3731
5.294000	 65.4527
5.312000	 65.3511
5.330000	 65.2413
5.348000	 65.3139
5.366000	 65.2336
5.384000	 65.2918
5.402000	 65.2938
5.420000	 65.3772
5.438000	 65.3744
5.456000	 65.3765
5.474000	 65.4334
5.492000	 65.3799
5.510000	 65.3198
5.528000	 65.3133
5.546000	 65.389
5.564000	 65.3184
5.582000	 65.2978
5.600000	 65.3336
5.618000	 65.3626
5.636000	 65.3838
5.654000	 65.3538
5.672000	 65.1644
5.690000	 64.9942
5.708000	 65.0739
5.726000	 65.1986
5.744000	 65.1828
5.762000	 64.9525
5.780000	 64.944
5.798000	 65.0403
5.816000	 65.0742
5.834000	 65.1512
5.852000	 65.2
5.870000	 65.2595
5.888000	 65.341
5.906000	 65.422
5.923999	 65.3631
5.942000	 65.2356
5.960000	 65.2579
5.978000	 65.3399
5.996000	 65.3825
6.014000	 65.3007
6.032000	 65.2246
6.050000	 65.2039
6.068000	 65.2305
6.086000	 65.1969
6.104000	 65.1801
6.122000	 65.1966
6.140000	 65.1528
6.158000	 65.1669
6.176000	 65.1422
6.194000	 65.1077
6.212000	 65.1691
6.230000	 65.1914
6.248000	 65.1925
6.266000	 65.1703
6.284000	 65.146
6.302000	 65.1879
6.320000	 65.2192
6.338000	 65.1144
6.356000	 64.9954
6.374000	 64.9924
6.392000	 64.9576
6.410000	 64.8807
6.428000	 64.9605
6.446000	 65.1445
6.464000	 65.2206
6.482000	 65.2211
6.500000	 65.2236
6.518000	 65.1609
6.536000	 65.0997
6.554000	 65.1276
6.572000	 65.15
6.590000	 65.1337
6.608000	 65.1604
6.626000	 65.237
6.644000	 65.2579
6.662000	 65.2154
6.680000	 65.1892
6.698000	 65.16
6.716000	 65.1113
6.734000	 65.0717
6.752000	 65.0547
6.770000	 65.0748
6.788000	 65.1247
6.806000	 65.1279
6.824000	 65.1001
6.842000	 65.1371
6.860000	 65.191
6.878000	 65.2398
6.896000	 65.3223
6.914000	 65.3989
6.932000	 65.4137
6.950000	 65.3228
6.968000	 65.1678
6.986000	 65.0497
7.004000	 65.0136
7.022000	 65.0322
7.040000	 65.0586
7.058000	 65.082
7.076000	 65.1224
7.094000	 65.1952
7.112000	 65.2303
7.130000	 65.17
7.148000	 65.1132
7.166000	 65.1119
7.184000	 65.0762
7.202000	 65.0096
7.220000	 64.9986
7.238000	 65.0189
7.256000	 65.001
7.274000	 64.9711
7.292000	 64.9864
7.310000	 65.027
7.328000	 65.0385
7.346000	 65.0416
7.364000	 65.0596
7.382000	 65.059
7.400000	 65.0744
7.418000	 65.1263
7.436000	 65.1189
7.454000	 65.0399
7.472000	 64.9906
7.490000	 64.9983
7.508000	 65.0442
7.526000	 65.1234
7.544000	 65.1984
7.562000	 65.2201
7.580000	 65.1557
7.598000	 65.0168
7.616000	 64.907
7.634000	 64.909
7.652000	 64.9699
7.670000	 65.0118
7.688000	 65.0475
7.706000	 65.1055
7.724000	 65.154
7.742000	 65.1423
7.760000	 65.0588
7.778000	 64.9522
7.796000	 64.9121
7.814000	 64.9813
7.832000	 65.0791
7.850000	 65.0785
7.868000	 64.9711
7.886000	 64.8841
7.904000	 64.9016
7.922000	 64.965
7.940000	 64.9881
7.958000	 64.9759
7.976000	 64.9757
7.994000	 64.9996
8.012000	 65.0375
8.030000	 65.0805
8.048000	 65.1155
8.065999	 65.1234
8.084000	 65.0931
8.102000	 65.0389
8.120000	 65.0105
8.138000	 65.041
8.155999	 65.0854
8.173999	 65.0656
8.192000	 64.9823
8.210000	 64.9051
8.228000	 64.867
8.246000	 64.8484
8.263999	 64.8503
8.282000	 64.8913
8.300000	 64.951
8.318000	 64.9895
8.336000	 65.0054
8.353999	 65.0204
8.372000	 65.034
8.390000	 65.038
8.408000	 65.0341
8.426000	 65.0228
8.443999	 65.0044
8.462000	 64.9874
8.480000	 64.9782
8.498000	 64.9816
8.516000	 65.0061
8.533999	 65.0473
8.552000	 65.0656
8.570000	 65.0236
8.588000	 64.9501
8.606000	 64.9194
8.624000	 64.9552
8.641999	 64.9986
8.660000	 64.9838
8.678000	 64.9172
8.696000	 64.8558
8.714000	 64.84
8.731999	 64.8682
8.750000	 64.9113
8.768000	 64.9308
8.786000	 64.8919
8.804000	 64.7889
8.821999	 64.6629
8.840000	 64.585
8.858000	 64.6056
8.876000	 64.717
8.894000	 64.865
8.911999	 64.9869
8.930000	 65.0454
8.948000	 65.0363
8.966000	 64.9814
8.984000	 64.9197
9.001999	 64.8861
9.020000	 64.8868
9.038000	 64.8936
9.056000	 64.8729
9.074000	 64.8152
9.092000	 64.7382
9.109999	 64.6686
9.128000	 64.6292
9.146000	 64.6356
9.164000	 64.6904
9.182000	 64.7758
9.199999	 64.8537
9.218000	 64.8888
9.236000	 64.873
9.254000	 64.8288
9.272000	 64.7876
9.289999	 64.7653
9.308000	 64.7566
9.326000	 64.7515
9.344000	 64.7522
9.362000	 64.7677
9.379999	 64.7948
9.398000	 64.8124
9.416000	 64.8
9.434000	 64.76
9.452000	 64.7197
9.469999	 64.7103
9.488000	 64.7458
9.506000	 64.8162
9.524000	 64.8962
9.542000	 64.9571
9.560000	 64.9757
9.577999	 64.9441
9.596000	 64.8745
9.614000	 64.7921
9.632000	 64.7218
9.650000	 64.6758
9.667999	 64.6539
9.686000	 64.6522
9.704000	 64.6667
9.722000	 64.6891
9.740000	 64.7041
9.757999	 64.6959
9.776000	 64.6603
9.794000	 64.6056
9.812000	 64.5438
9.830000	 64.487
9.847999	 64.449
9.866000	 64.4436
9.884000	 64.4765
9.902000	 64.5349
9.920000	 64.5876
9.937999	 64.6019
9.956000	 64.5644
9.974000	 64.4888
9.992000	 64.4059
10.01	64.3472
10.028	64.3327
10.046	64.3668
10.064	64.4383
10.082	64.524
10.1	64.5982
10.118	64.6439
10.136	64.6611
10.154	64.6639
10.172	64.6688
10.19	64.6822
10.208	64.6963
10.226	64.698
10.244	64.682
10.262	64.6589
10.28	64.6477
10.298	64.6617
10.316	64.6974
10.334	64.7345
10.352	64.7485
10.37	64.725
10.388	64.6689
10.406	64.5995
10.424	64.5394
10.442	64.5034
10.46	64.4974
10.478	64.52
10.496	64.5642
10.514	64.6187
10.532	64.6677
10.55	64.6986
10.568	64.7068
10.586	64.697
10.604	64.6768
10.622	64.651
10.64	64.6181
10.658	64.5777
10.676	64.5428
10.694	64.5387
10.712	64.5932
10.73	64.7154
10.748	64.8842
10.766	65.0497
10.784	65.1599
10.802	65.1827
10.82	65.1191
10.838	64.9987
10.856	64.8595
10.874	64.7329
10.892	64.6327
10.91	64.5609
10.928	64.5155
10.946	64.4935
10.964	64.4876
10.982	64.4829
11	64.4576
11.018	64.3926
11.036	64.2887
11.054	64.1728
11.072	64.0875
11.09	64.0748
11.108	64.1463
11.126	64.2742
11.144	64.4032
11.162	64.4708
11.18	64.4438
11.198	64.3327
11.216	64.1853
11.234	64.0626
11.252	64.0138
11.27	64.0531
11.288	64.1602
11.306	64.2967
11.324	64.4208
11.342	64.5036
11.36	64.5344
11.378	64.5176
11.396	64.4653
11.414	64.3932
11.432	64.3181
11.45	64.2557
11.468	64.221
11.486	64.224
11.504	64.2658
11.522	64.3372
11.54	64.4225
11.558	64.5019
11.576	64.5598
11.594	64.5898
11.612	64.5944
11.63	64.5828
11.648	64.5641
11.666	64.5453
11.684	64.5258
11.702	64.4993
11.72	64.4583
11.738	64.398
11.756	64.3194
11.774	64.2287
11.792	64.1347
11.81	64.0446
11.828	63.9622
11.846	63.8881
11.864	63.8214
11.882	63.7632
11.9	63.7187
11.918	63.6956
11.936	63.7018
11.954	63.7413
11.972	63.8124
11.99	63.906
12.008	64.0098
12.026	64.1121
12.044	64.2043
12.062	64.284
12.08	64.3546
12.098	64.422
12.116	64.4912
12.134	64.5634
12.152	64.6353
12.17	64.7006
12.188	64.7519
12.206	64.7831
12.224	64.7903
12.242	64.7707
12.26	64.7244
12.278	64.6533
12.296	64.5617
12.314	64.4576
12.332	64.3505
12.35	64.2492
12.368	64.1601
12.386	64.0864
12.404	64.0286
12.422	63.9854
12.44	63.9552
12.458	63.9372
12.476	63.9317
12.494	63.938
12.512	63.9532
12.53	63.9729
12.548	63.9902
12.566	63.9981
12.584	63.9919
12.602	63.9708
12.62	63.9382
12.638	63.9006
12.656	63.8663
12.674	63.8423
12.692	63.8335
12.71	63.8422
12.728	63.8692
12.746	63.9143
12.764	63.9756
12.782	64.0492
12.8	64.129
12.818	64.2067
12.836	64.272
12.854	64.3153
12.872	64.3297
12.89	64.3133
12.908	64.2701
12.926	64.209
12.944	64.142
12.962	64.0802
12.98	64.0314
12.998	63.9971
13.016	63.9733
13.034	63.952
13.052	63.9243
13.07	63.8847
13.088	63.8328
13.106	63.7751
13.124	63.7223
13.142	63.6878
13.16	63.6823
13.178	63.712
13.196	63.776
13.214	63.867
13.232	63.9733
13.25	64.081
13.268	64.1774
13.286	64.2521
13.304	64.2981
13.322	64.3122
13.34	64.294
13.358	64.245
13.376	64.1685
13.394	64.0694
13.412	63.9539
13.43	63.8295
13.448	63.7054
13.466	63.5909
13.484	63.4946
13.502	63.4228
13.52	63.3789
13.538	63.3629
13.556	63.3721
13.574	63.4017
13.592	63.4463
13.61	63.5003
13.628	63.5585
13.646	63.6158
13.664	63.6674
13.682	63.7081
13.7	63.7342
13.718	63.743
13.736	63.7344
13.754	63.7111
13.772	63.6776
13.79	63.6405
13.808	63.6061
13.826	63.5794
13.844	63.5628
13.862	63.5557
13.88	63.555
13.898	63.556
13.916	63.5533
13.934	63.5428
13.952	63.5225
13.97	63.4937
13.988	63.4602
14.006	63.427
14.024	63.3998
14.042	63.3831
14.06	63.3796
14.078	63.3895
14.096	63.411
14.114	63.4407
14.132	63.4742
14.15	63.507
14.168	63.5342
14.186	63.5517
14.204	63.5557
14.222	63.5437
14.24	63.5148
14.258	63.4698
14.276	63.411
14.294	63.3425
14.312	63.2691
14.33	63.1965
14.348	63.1303
14.366	63.0756
14.384	63.0362
14.402	63.0139
14.42	63.0087
14.438	63.019
14.456	63.0424
14.474	63.0755
14.492	63.115
14.51	63.1579
14.528	63.2015
14.546	63.2439
14.564	63.2834
14.582	63.3182
14.6	63.3471
14.618	63.3684
14.636	63.3808
14.654	63.3831
14.672	63.3752
14.69	63.3576
14.708	63.3315
14.726	63.2986
14.744	63.261
14.762	63.2208
14.78	63.18
14.798	63.1406
14.816	63.1044
14.834	63.073
14.852	63.0481
14.87	63.0309
14.888	63.023
14.906	63.0253
14.924	63.0388
14.942	63.0633
14.96	63.0977
14.978	63.1393
14.996	63.1849
15.014	63.2303
15.032	63.2698
15.05	63.2986
15.068	63.3133
15.086	63.3114
15.104	63.2924
15.122	63.258
15.14	63.2125
15.158	63.1608
15.176	63.1089
15.194	63.063
15.212	63.0294
15.23	63.0122
15.248	63.0139
15.266	63.0357
15.284	63.077
15.302	63.1345
15.32	63.2042
15.338	63.2816
15.356	63.361
15.374	63.4363
15.392	63.5026
15.41	63.5561
15.428	63.593
15.446	63.6114
15.464	63.6107
15.482	63.5915
15.5	63.5551
15.518	63.5046
15.536	63.4434
15.554	63.3746
15.572	63.3023
15.59	63.23
15.608	63.1603
15.626	63.0951
15.644	63.0357
15.662	62.9825
15.68	62.9353
15.698	62.8935
15.716	62.8566
15.734	62.824
15.752	62.7956
15.77	62.7715
15.788	62.7526
15.806	62.74
15.824	62.7346
15.842	62.7378
15.86	62.7503
15.878	62.7721
15.896	62.8031
15.914	62.8421
15.932	62.8869
15.95	62.9356
15.968	62.9852
15.986	63.0321
16.004	63.0736
16.022	63.1068
16.04	63.1288
16.058	63.1379
16.076	63.1328
16.094	63.113
16.112	63.0788
16.13	63.031
16.148	62.971
16.166	62.9011
16.184	62.8236
16.202	62.7409
16.22	62.6568
16.238	62.5739
16.256	62.4948
16.274	62.423
16.292	62.36
16.31	62.3073
16.328	62.2663
16.346	62.237
16.364	62.2194
16.382	62.2126
16.4	62.215
16.418	62.2253
16.436	62.2412
16.454	62.261
16.472	62.2832
16.49	62.306
16.508	62.3286
16.526	62.3503
16.544	62.3708
16.562	62.3902
16.58	62.4087
16.598	62.4264
16.616	62.4433
16.634	62.4593
16.652	62.474
16.67	62.4864
16.688	62.4959
16.706	62.5009
16.724	62.5003
16.742	62.493
16.76	62.4776
16.778	62.454
16.796	62.4216
16.814	62.3809
16.832	62.3325
16.85	62.2781
16.868	62.2196
16.886	62.1586
16.904	62.0987
16.922	62.0421
16.94	61.9914
16.958	61.95
16.976	61.9193
16.994	61.9023
17.012	61.8995
17.03	61.9117
17.048	61.938
17.066	61.9769
17.084	62.0266
17.102	62.0832
17.12	62.1449
17.138	62.2066
17.156	62.2655
17.174	62.3186
17.192	62.3622
17.21	62.3954
17.228	62.4163
17.246	62.4258
17.264	62.424
17.282	62.4138
17.3	62.3966
17.318	62.376
17.336	62.355
17.354	62.3356
17.372	62.3215
17.39	62.3136
17.408	62.3137
17.426	62.3213
17.444	62.3365
17.462	62.3569
17.48	62.3813
17.498	62.4067
17.516	62.431
17.534	62.4521
17.552	62.4671
17.57	62.4754
17.588	62.4755
17.606	62.4677
17.624	62.4517
17.642	62.4299
17.66	62.4029
17.678	62.3738
17.696	62.3437
17.714	62.3163
17.732	62.2934
17.75	62.2772
17.768	62.2701
17.786	62.273
17.804	62.2876
17.822	62.3138
17.84	62.3518
17.858	62.4008
17.876	62.46
17.894	62.5271
17.912	62.6012
17.93	62.6787
17.948	62.7588
17.966	62.8376
17.984	62.9139
18.002	62.9848
18.02	63.0485
18.038	63.1033
18.056	63.1474
18.074	63.1799
18.092	63.1994
18.11	63.2058
18.128	63.1981
18.146	63.1765
18.164	63.1411
18.182	63.0925
18.2	63.0309
18.218	62.9577
18.236	62.8734
18.254	62.7799
18.272	62.6776
18.29	62.5695
18.308	62.456
18.326	62.3403
18.344	62.2229
18.362	62.1075
18.38	61.9947
18.398	61.8876
18.416	61.7873
18.434	61.6958
18.452	61.6141
18.47	61.5435
18.488	61.484
18.506	61.4361
18.524	61.3992
18.542	61.3732
18.56	61.356
18.578	61.3475
18.596	61.3448
18.614	61.3478
18.632	61.3535
18.65	61.3617
18.668	61.3697
18.686	61.3776
18.704	61.3833
18.722	61.3868
18.74	61.387
18.758	61.3839
18.776	61.3767
18.794	61.3655
18.812	61.3501
18.83	61.3305
18.848	61.3062
18.866	61.2776
18.884	61.2448
18.902	61.2083
18.92	61.1683
18.938	61.1259
18.956	61.082
18.974	61.0376
18.992	60.9941
19.01	60.9528
19.028	60.9157
19.046	60.884
19.064	60.8597
19.082	60.8434
19.1	60.8371
19.118	60.8404
19.136	60.8543
19.154	60.8778
19.172	60.91
19.19	60.9498
19.208	60.9945
19.226	61.0429
19.244	61.0906
19.262	61.1372
19.28	61.1775
19.298	61.2117
19.316	61.2351
19.334	61.2479
19.352	61.2478
19.37	61.235
19.388	61.2101
19.406	61.1729
19.424	61.1274
19.442	61.0731
19.46	61.0157
19.478	60.9552
19.496	60.8971
19.514	60.8425
19.532	60.7953
19.55	60.7579
19.568	60.7314
19.586	60.7182
19.604	60.7177
19.622	60.7306
19.64	60.756
19.658	60.7914
19.676	60.8369
19.694	60.8874
19.712	60.9436
19.73	60.9994
19.748	61.0549
19.766	61.1054
19.784	61.1502
19.802	61.1868
19.82	61.2133
19.838	61.2297
19.856	61.2345
19.874	61.2285
19.892	61.2119
19.91	61.1849
19.928	61.15
19.946	61.1067
19.964	61.0582
19.982	61.0045
20	60.948
20.018	60.8896
20.036	60.8304
20.054	60.7725
20.072	60.7157
20.09	60.6622
20.108	60.6117
20.126	60.5659
20.144	60.5247
20.162	60.489
20.18	60.4591
20.198	60.4354
20.216	60.4185
20.234	60.4084
20.252	60.4059
20.27	60.4107
20.288	60.4232
20.306	60.4433
20.324	60.4708
20.342	60.5055
20.36	60.547
20.378	60.5943
20.396	60.6474
20.414	60.704
20.432	60.7647
20.45	60.8269
20.468	60.8897
20.486	60.9521
20.504	61.0113
20.522	61.068
20.54	61.1186
20.558	61.1638
20.576	61.2014
20.594	61.2305
20.612	61.2511
20.63	61.2619
20.648	61.2632
20.666	61.255
20.684	61.2371
20.702	61.2104
20.72	61.1754
20.738	61.1324
20.756	61.0836
20.774	61.0283
20.792	60.9694
20.81	60.907
20.828	60.8423
20.846	60.7776
20.864	60.7122
20.882	60.649
20.9	60.5877
20.918	60.5295
20.936	60.4754
20.954	60.4251
20.972	60.3797
20.99	60.3393
21.008	60.3034
21.026	60.2723
21.044	60.2455
21.062	60.222
21.08	60.2023
21.098	60.1841
21.116	60.1674
21.134	60.1513
21.152	60.1336
21.17	60.1149
21.188	60.093
21.206	60.0676
21.224	60.0382
21.242	60.0037
21.26	59.9643
21.278	59.9198
21.296	59.8699
21.314	59.8152
21.332	59.7565
21.35	59.6935
21.368	59.6281
21.386	59.5604
21.404	59.4913
21.422	59.4232
21.44	59.3554
21.458	59.2902
21.476	59.2284
21.494	59.1699
21.512	59.117
21.53	59.0691
21.548	59.0273
21.566	58.9927
21.584	58.9648
21.602	58.9443
21.62	58.9313
21.638	58.9253
21.656	58.9258
21.674	58.9331
21.692	58.9455
21.71	58.9629
21.728	58.9849
21.746	59.0094
21.764	59.0371
21.782	59.0663
21.8	59.0959
21.818	59.1264
21.836	59.1554
21.854	59.183
21.872	59.2089
21.89	59.2316
21.908	59.2516
21.926	59.2682
21.944	59.2808
21.962	59.2897
21.98	59.295
21.998	59.2963
22.016	59.2943
22.034	59.2898
22.052	59.2824
22.07	59.273
22.088	59.2624
22.106	59.2503
22.124	59.2377
22.142	59.2248
22.16	59.2116
22.178	59.1986
22.196	59.1858
22.214	59.1733
22.232	59.1615
22.25	59.1503
22.268	59.1392
22.286	59.1279
22.304	59.1166
22.322	59.1038
22.34	59.0895
22.358	59.0736
22.376	59.0546
22.394	59.0327
22.412	59.0076
22.43	58.9784
22.448	58.9451
22.466	58.9081
22.484	58.8674
22.502	58.8228
22.52	58.7758
22.538	58.7266
22.556	58.675
22.574	58.6235
22.592	58.5719
22.61	58.5206
22.628	58.4715
22.646	58.4243
22.664	58.3795
22.682	58.3385
22.7	58.3011
22.718	58.2669
22.736	58.2356
22.754	58.2079
22.772	58.1819
22.79	58.1564
22.808	58.1326
22.826	58.107
22.844	58.0779
22.862	58.0468
22.88	58.0087
22.898	57.9615
22.916	57.9068
22.934	57.84
22.952	57.7595
22.97	57.6667
22.988	57.5596
23.006	57.4367
23.024	57.2995
23.042	57.1498
23.06	56.9868
23.078	56.8116
23.096	56.6282
23.114	56.435
23.132	56.2342
23.15	56.0336
23.168	55.8308
23.186	55.6287
23.204	55.4377
23.222	55.2555
23.24	55.0845
23.258	54.9352
23.276	54.8065
23.294	54.6989
23.312	54.6188
23.33	54.566
23.348	54.5401
23.366	54.5441
23.384	54.5793
23.402	54.6436
23.42	54.7352
23.438	54.8553
23.456	55.0024
23.474	55.1716
23.492	55.3632
23.51	55.5769
23.528	55.8064
23.546	56.0511
23.564	56.3118
23.582	56.5811
23.6	56.857
23.618	57.1415
23.636	57.4277
23.654	57.7122
23.672	57.9982
23.69	58.2791
23.708	58.5504
23.726	58.816
23.744	59.0704
23.762	59.3088
23.78	59.5352
23.798	59.7446
23.816	59.9319
23.834	60.1002
23.852	60.2463
23.87	60.3647
23.888	60.4571
23.906	60.5228
23.924	60.5579
23.942	60.5618
23.96	60.5359
23.978	60.4791
23.996	60.3907
24.014	60.2713
24.032	60.1227
24.05	59.945
24.068	59.7369
24.086	59.5033
24.104	59.2481
24.122	58.9669
24.14	58.6663
24.158	58.3549
24.176	58.0275
24.194	57.6889
24.212	57.3514
24.23	57.0149
24.248	56.6772
24.266	56.3532
24.284	56.05
24.302	55.759
24.32	55.4941
24.338	55.2688
24.356	55.076
24.374	54.9194
24.392	54.8073
24.41	54.7383
24.428	54.7117
24.446	54.7332
24.464	54.8049
24.482	54.924
24.5	55.0932
24.518	55.3149
24.536	55.5869
24.554	55.9107
24.572	56.2886
24.59	56.7219
24.608	57.2083
24.626	57.7451
24.644	58.3317
24.662	58.9693
24.68	59.6539
24.698	60.3815
24.716	61.1508
24.734	61.9656
24.752	62.8303
24.77	63.7479
24.788	64.7152
24.806	65.7267
24.824	66.7808
24.842	67.8852
24.86	69.0237
24.878	70.1782
24.896	71.3626
24.914	72.5678
24.932	73.7616
24.95	74.933
24.968	76.106
24.986	77.2365
25.004	78.2784
25.022	79.2554
25.04	80.1579
25.058	80.9454
25.076	81.5987
25.094	82.1405
25.112	82.5533
25.13	82.8177
25.148	82.9334
25.166	82.9102
25.184	82.7561
25.202	82.4657
25.22	82.0298
25.238	81.4878
25.256	80.8791
25.274	80.1803
25.292	79.4026
25.31	78.5892
25.328	77.7635
25.346	76.8961
25.364	76.0171
25.382	75.1621
25.4	74.333
25.418	73.5179
25.436	72.7218
25.454	71.9519
25.472	71.2173
25.49	70.4953
25.508	69.7595
25.526	69.0042
25.544	68.2422
25.562	67.4579
25.58	66.6359
25.598	65.779
25.616	64.8914
25.634	63.9733
25.652	63.0176
25.67	62.0127
25.688	60.9922
25.706	59.9931
25.724	59.0028
25.742	58.0115
25.76	57.0774
25.778	56.255
25.796	55.5206
25.814	54.8728
25.832	54.3348
25.85	53.9236
25.868	53.6262
25.886	53.4431
25.904	53.3775
25.922	53.4517
25.94	53.6653
25.958	53.9579
25.976	54.2698
25.994	54.6274
26.012	55.0323
26.03	55.4303
26.048	55.7718
26.066	56.069
26.084	56.3392
26.102	56.5902
26.12	56.8163
26.138	56.9879
26.156	57.1625
26.174	57.4064
26.192	57.7057
26.21	57.9991
26.228	58.4389
26.246	59.1836
26.264	60.2089
26.282	61.4531
26.3	63.062
26.318	65.1785
26.336	67.7645
26.354	70.7871
26.372	74.3069
26.39	78.3827
26.408	83.0265
26.426	88.1899
26.444	93.8219
26.462	99.8961
26.48	106.546
26.498	113.624
26.516	120.912
26.534	128.268
26.552	135.92
26.57	143.685
26.588	151.3
26.606	158.622
26.624	165.918
26.642	172.956
26.66	179.435
26.678	185.251
26.696	190.745
26.714	195.527
26.732	199.139
26.75	201.069
26.768	201.298
26.786	200.668
26.804	200.052
26.822	200
26.84	200
26.858	200
26.876	200
26.894	200.03
26.912	200.128
26.93	200.186
26.948	200.089
26.966	199.707
26.984	199.024
27.002	198.259
27.02	197.64
27.028	197.486