File: Bakgrunnsmateriale/MATLAB/FTIR/ftir_data/subBb/Mapping_121/C-4040-8_t60.asc
PE IR       SPECTRUM    SPECTRUM    ASCII       PEDS        1.60
  -1
C-AD3A~1.ASC
17/03/27
19:23:46.00
17/03/27
19:24:12.00
tln
$C-4040-8_t0060$<tbV0>[2.6,0.0,8.0,0.0,27,1,0]
27.028
64

2002,4.07
MIRTGS : RIGHTBACK : INTERNAL 2
MIR : ON : INTERNAL 2
OPTKBR

0.200000
8
8.000000
FILLER
RATIO
SPECTRUM
UNLOCKED 256

DOUBLE
64
COMBINED
1
0
0

0.002000
RATIO

1
0
TRUE
51149
0
LEFT NOT FITTED RIGHT NOT FITTED 0
NONE
NONE
15600
12
4.427000
51148
TRUE
1 0 8 72 0 0 0 0

15798

#HDR
-1
-1
#GR
µM
%T
2.38419e-05
0.0
2.000000
0.002000
12515
8
93.5537
41.2796
#DATA
2.000000	 65.136
2.018000	 64.9114
2.036000	 64.8731
2.054000	 64.7568
2.072000	 64.4834
2.090000	 65.4724
2.108000	 64.5943
2.126000	 65.2787
2.144000	 64.3295
2.162000	 64.5252
2.180000	 65.086
2.198000	 64.5445
2.216000	 65.37
2.234000	 65.6966
2.252000	 65.6695
2.270000	 65.883
2.288000	 64.586
2.306000	 65.3824
2.324000	 65.4984
2.342000	 65.6409
2.360000	 65.0895
2.378000	 65.1357
2.396000	 65.4017
2.414000	 64.7936
2.432000	 64.9436
2.450000	 64.9484
2.468000	 64.9093
2.486000	 65.0239
2.504000	 64.9144
2.522000	 65.0423
2.540000	 65.049
2.558000	 64.9802
2.576000	 65.1285
2.594000	 65.0953
2.612000	 64.8788
2.630000	 65.1667
2.648000	 65.3484
2.666000	 65.0909
2.684000	 65.2286
2.702000	 64.9772
2.720000	 65.171
2.738000	 65.1985
2.756000	 64.9699
2.774000	 65.1114
2.792000	 65.1053
2.810000	 65.0312
2.828000	 64.8548
2.846000	 65.1858
2.864000	 65.2539
2.882000	 65.1543
2.900000	 65.0764
2.918000	 65.1773
2.936000	 65.2927
2.954000	 65.0841
2.972000	 65.1579
2.990000	 65.2286
3.008000	 65.3505
3.026000	 65.1796
3.044000	 65.2454
3.062000	 65.2481
3.080000	 65.1467
3.098000	 65.4474
3.116000	 65.3041
3.134000	 65.0861
3.152000	 65.4034
3.170000	 65.2016
3.188000	 64.8455
3.206000	 64.704
3.224000	 65.3251
3.242000	 65.2556
3.260000	 65.2452
3.278000	 65.3409
3.296000	 65.1178
3.314000	 65.1638
3.332000	 65.0957
3.350000	 65.1824
3.368000	 65.2545
3.386000	 65.0172
3.404000	 64.9675
3.422000	 64.986
3.440000	 65.1504
3.458000	 65.147
3.476000	 65.0419
3.494000	 65.1357
3.512000	 64.842
3.530000	 65.0315
3.548000	 65.0629
3.566000	 65.3003
3.584000	 65.2363
3.602000	 65.2113
3.620000	 65.2038
3.638000	 65.179
3.656000	 65.2292
3.674000	 65.1858
3.692000	 65.3002
3.710000	 65.1925
3.728000	 65.1379
3.746000	 65.0944
3.764000	 65.3202
3.782000	 65.2952
3.800000	 65.1387
3.818000	 65.4128
3.836000	 65.3441
3.854000	 65.3821
3.872000	 65.2091
3.890000	 65.2739
3.908000	 65.3253
3.926000	 65.2304
3.944000	 65.1878
3.962000	 65.2554
3.980000	 65.5323
3.998000	 65.1859
4.016000	 65.0793
4.034000	 65.371
4.052000	 65.0561
4.070000	 65.1218
4.088000	 65.3428
4.106000	 65.267
4.124000	 65.9359
4.141999	 64.8429
4.160000	 65.2719
4.178000	 65.3377
4.196000	 65.2696
4.214000	 65.2249
4.232000	 65.2888
4.250000	 65.1466
4.268000	 65.117
4.286000	 65.216
4.304000	 65.2591
4.322000	 65.053
4.340000	 65.3073
4.358000	 65.3135
4.375999	 65.2475
4.394000	 65.2456
4.412000	 65.2237
4.430000	 65.2706
4.448000	 65.3041
4.466000	 65.1704
4.484000	 65.2314
4.502000	 65.1708
4.520000	 65.2669
4.538000	 65.0871
4.556000	 65.2
4.574000	 65.3037
4.592000	 65.3354
4.609999	 65.426
4.628000	 65.2694
4.646000	 65.1319
4.664000	 65.2185
4.682000	 65.4022
4.700000	 65.4745
4.718000	 65.3482
4.736000	 65.2665
4.754000	 65.322
4.772000	 65.1819
4.790000	 65.2755
4.808000	 65.3059
4.826000	 65.2266
4.843999	 64.8293
4.862000	 65.036
4.880000	 65.0356
4.898000	 65.1611
4.916000	 65.232
4.934000	 65.4139
4.952000	 65.3032
4.970000	 65.1714
4.988000	 65.3005
5.006000	 65.2754
5.024000	 65.2181
5.042000	 65.1506
5.060000	 65.1714
5.077999	 65.2471
5.096000	 65.1145
5.114000	 65.215
5.132000	 65.1719
5.150000	 65.1853
5.168000	 65.2499
5.186000	 65.3255
5.204000	 65.2917
5.222000	 65.3633
5.240000	 65.2506
5.258000	 65.1186
5.276000	 65.202
5.294000	 65.2923
5.312000	 65.275
5.330000	 65.2342
5.348000	 65.1109
5.366000	 65.1653
5.384000	 65.1571
5.402000	 65.2456
5.420000	 65.3449
5.438000	 65.2788
5.456000	 65.29
5.474000	 65.2475
5.492000	 65.229
5.510000	 65.2906
5.528000	 65.3537
5.546000	 65.3263
5.564000	 65.1596
5.582000	 65.1787
5.600000	 65.259
5.618000	 65.2348
5.636000	 65.1838
5.654000	 65.1715
5.672000	 65.0624
5.690000	 65.0539
5.708000	 65.093
5.726000	 65.0508
5.744000	 64.9939
5.762000	 65.011
5.780000	 65.0653
5.798000	 64.9188
5.816000	 64.8406
5.834000	 64.9882
5.852000	 65.086
5.870000	 65.1919
5.888000	 65.213
5.906000	 65.1256
5.923999	 65.0839
5.942000	 65.2228
5.960000	 65.2851
5.978000	 65.2194
5.996000	 65.2493
6.014000	 65.2306
6.032000	 65.1496
6.050000	 65.1978
6.068000	 65.17
6.086000	 65.0994
6.104000	 65.1154
6.122000	 65.1537
6.140000	 65.1894
6.158000	 65.1696
6.176000	 65.0923
6.194000	 64.9929
6.212000	 65.0403
6.230000	 65.167
6.248000	 65.1711
6.266000	 65.0522
6.284000	 64.9589
6.302000	 65.0484
6.320000	 65.1272
6.338000	 65.135
6.356000	 65.1335
6.374000	 65.0752
6.392000	 64.9963
6.410000	 65.0297
6.428000	 65.1428
6.446000	 65.1458
6.464000	 65.0833
6.482000	 65.0199
6.500000	 64.96
6.518000	 64.9825
6.536000	 64.9677
6.554000	 64.8797
6.572000	 64.8702
6.590000	 64.9796
6.608000	 65.0324
6.626000	 65.0283
6.644000	 65.0746
6.662000	 65.0801
6.680000	 65.007
6.698000	 64.9938
6.716000	 65.0431
6.734000	 65.0682
6.752000	 65.1073
6.770000	 65.1367
6.788000	 65.1137
6.806000	 65.0948
6.824000	 65.1179
6.842000	 65.0596
6.860000	 64.8104
6.878000	 64.6121
6.896000	 64.6804
6.914000	 64.7787
6.932000	 64.82
6.950000	 64.9346
6.968000	 65.0156
6.986000	 65.0225
7.004000	 65.0794
7.022000	 65.1452
7.040000	 65.1278
7.058000	 65.0641
7.076000	 65.0072
7.094000	 64.9757
7.112000	 65.0076
7.130000	 65.0875
7.148000	 65.1315
7.166000	 65.1073
7.184000	 65.0386
7.202000	 64.9593
7.220000	 64.8988
7.238000	 64.852
7.256000	 64.8179
7.274000	 64.7988
7.292000	 64.7958
7.310000	 64.8255
7.328000	 64.8649
7.346000	 64.8901
7.364000	 64.9403
7.382000	 65.0217
7.400000	 65.0958
7.418000	 65.1445
7.436000	 65.1388
7.454000	 65.0591
7.472000	 64.9353
7.490000	 64.8306
7.508000	 64.8345
7.526000	 64.9543
7.544000	 65.0467
7.562000	 65.0093
7.580000	 64.9229
7.598000	 64.9066
7.616000	 64.959
7.634000	 64.9874
7.652000	 64.9597
7.670000	 64.9465
7.688000	 64.985
7.706000	 65.0145
7.724000	 64.9966
7.742000	 64.9761
7.760000	 64.9847
7.778000	 64.9963
7.796000	 64.9983
7.814000	 65.0181
7.832000	 65.0501
7.850000	 65.0429
7.868000	 64.9891
7.886000	 64.9489
7.904000	 64.9554
7.922000	 64.9645
7.940000	 64.9256
7.958000	 64.8512
7.976000	 64.7963
7.994000	 64.7989
8.012000	 64.8555
8.030000	 64.9348
8.048000	 64.999
8.065999	 65.0163
8.084000	 64.9778
8.102000	 64.9083
8.120000	 64.8535
8.138000	 64.8351
8.155999	 64.8353
8.173999	 64.8329
8.192000	 64.8336
8.210000	 64.8448
8.228000	 64.8567
8.246000	 64.8608
8.263999	 64.8556
8.282000	 64.8281
8.300000	 64.7749
8.318000	 64.7367
8.336000	 64.7582
8.353999	 64.8209
8.372000	 64.8604
8.390000	 64.8419
8.408000	 64.7897
8.426000	 64.7473
8.443999	 64.7349
8.462000	 64.7488
8.480000	 64.7742
8.498000	 64.7929
8.516000	 64.7964
8.533999	 64.7974
8.552000	 64.8209
8.570000	 64.8699
8.588000	 64.9148
8.606000	 64.9253
8.624000	 64.9042
8.641999	 64.8819
8.660000	 64.8873
8.678000	 64.9305
8.696000	 64.9964
8.714000	 65.0366
8.731999	 64.9918
8.750000	 64.8521
8.768000	 64.6881
8.786000	 64.5957
8.804000	 64.6167
8.821999	 64.7213
8.840000	 64.8542
8.858000	 64.9636
8.876000	 65.0057
8.894000	 64.9583
8.911999	 64.8531
8.930000	 64.7663
8.948000	 64.7603
8.966000	 64.8368
8.984000	 64.9487
9.001999	 65.0428
9.020000	 65.0769
9.038000	 65.0293
9.056000	 64.9218
9.074000	 64.8177
9.092000	 64.7716
9.109999	 64.7846
9.128000	 64.8178
9.146000	 64.8427
9.164000	 64.8653
9.182000	 64.9002
9.199999	 64.9411
9.218000	 64.9684
9.236000	 64.9727
9.254000	 64.9598
9.272000	 64.9378
9.289999	 64.9037
9.308000	 64.8467
9.326000	 64.7645
9.344000	 64.6772
9.362000	 64.6199
9.379999	 64.6149
9.398000	 64.6503
9.416000	 64.6877
9.434000	 64.696
9.452000	 64.6813
9.469999	 64.6782
9.488000	 64.7116
9.506000	 64.7634
9.524000	 64.7813
9.542000	 64.7228
9.560000	 64.5961
9.577999	 64.456
9.596000	 64.3655
9.614000	 64.3564
9.632000	 64.4176
9.650000	 64.5086
9.667999	 64.5839
9.686000	 64.618
9.704000	 64.6166
9.722000	 64.6055
9.740000	 64.6078
9.757999	 64.625
9.776000	 64.6391
9.794000	 64.6305
9.812000	 64.5995
9.830000	 64.574
9.847999	 64.5897
9.866000	 64.6581
9.884000	 64.7498
9.902000	 64.8113
9.920000	 64.8032
9.937999	 64.7316
9.956000	 64.6417
9.974000	 64.5805
9.992000	 64.5659
10.01	64.5822
10.028	64.6047
10.046	64.6251
10.064	64.6517
10.082	64.6903
10.1	64.7302
10.118	64.7476
10.136	64.7268
10.154	64.6744
10.172	64.6165
10.19	64.5818
10.208	64.5801
10.226	64.6001
10.244	64.6187
10.262	64.6181
10.28	64.5962
10.298	64.5648
10.316	64.5408
10.334	64.5346
10.352	64.5438
10.37	64.5555
10.388	64.5545
10.406	64.5319
10.424	64.4871
10.442	64.4286
10.46	64.3687
10.478	64.3204
10.496	64.2917
10.514	64.2831
10.532	64.2879
10.55	64.2953
10.568	64.2955
10.586	64.2834
10.604	64.2589
10.622	64.2253
10.64	64.1872
10.658	64.15
10.676	64.1208
10.694	64.1079
10.712	64.1192
10.73	64.1576
10.748	64.2179
10.766	64.2887
10.784	64.3573
10.802	64.4146
10.82	64.4578
10.838	64.4888
10.856	64.5106
10.874	64.5233
10.892	64.5234
10.91	64.5065
10.928	64.4724
10.946	64.4294
10.964	64.3927
10.982	64.3779
11	64.3907
11.018	64.4228
11.036	64.4563
11.054	64.4718
11.072	64.459
11.09	64.4207
11.108	64.3681
11.126	64.315
11.144	64.2693
11.162	64.2317
11.18	64.1997
11.198	64.1722
11.216	64.1523
11.234	64.1462
11.252	64.1594
11.27	64.193
11.288	64.2428
11.306	64.301
11.324	64.3554
11.342	64.3922
11.36	64.3995
11.378	64.3688
11.396	64.2997
11.414	64.2013
11.432	64.0905
11.45	63.9859
11.468	63.9044
11.486	63.8542
11.504	63.8353
11.522	63.8401
11.54	63.8596
11.558	63.8856
11.576	63.9122
11.594	63.9362
11.612	63.9545
11.63	63.9656
11.648	63.9707
11.666	63.9739
11.684	63.9824
11.702	64.0028
11.72	64.0392
11.738	64.0894
11.756	64.1455
11.774	64.1955
11.792	64.2282
11.81	64.2381
11.828	64.2272
11.846	64.2036
11.864	64.1783
11.882	64.16
11.9	64.1518
11.918	64.151
11.936	64.1504
11.954	64.1426
11.972	64.1229
11.99	64.092
12.008	64.0559
12.026	64.0235
12.044	64.0034
12.062	64.0001
12.08	64.0126
12.098	64.0352
12.116	64.0595
12.134	64.0774
12.152	64.0843
12.17	64.08
12.188	64.0677
12.206	64.0522
12.224	64.0375
12.242	64.0252
12.26	64.0144
12.278	64.0025
12.296	63.9871
12.314	63.9673
12.332	63.9448
12.35	63.9231
12.368	63.9063
12.386	63.8978
12.404	63.8991
12.422	63.9097
12.44	63.9279
12.458	63.9516
12.476	63.9794
12.494	64.0103
12.512	64.0431
12.53	64.0748
12.548	64.1001
12.566	64.1122
12.584	64.1043
12.602	64.0725
12.62	64.0177
12.638	63.9458
12.656	63.8669
12.674	63.792
12.692	63.731
12.71	63.6903
12.728	63.6718
12.746	63.6726
12.764	63.6865
12.782	63.7062
12.8	63.7252
12.818	63.7396
12.836	63.7485
12.854	63.7536
12.872	63.758
12.89	63.7649
12.908	63.7767
12.926	63.7935
12.944	63.8134
12.962	63.8327
12.98	63.8474
12.998	63.8545
13.016	63.8539
13.034	63.848
13.052	63.8418
13.07	63.8409
13.088	63.848
13.106	63.8623
13.124	63.8786
13.142	63.8892
13.16	63.887
13.178	63.8685
13.196	63.8359
13.214	63.7972
13.232	63.7644
13.25	63.7497
13.268	63.7613
13.286	63.8004
13.304	63.8599
13.322	63.9257
13.34	63.9806
13.358	64.0085
13.376	63.9999
13.394	63.9536
13.412	63.8779
13.43	63.7875
13.448	63.6999
13.466	63.6311
13.484	63.5918
13.502	63.5861
13.52	63.6109
13.538	63.6585
13.556	63.7178
13.574	63.777
13.592	63.826
13.61	63.8572
13.628	63.8666
13.646	63.8526
13.664	63.8163
13.682	63.7604
13.7	63.6888
13.718	63.6058
13.736	63.5163
13.754	63.4257
13.772	63.3391
13.79	63.2616
13.808	63.1972
13.826	63.1484
13.844	63.1163
13.862	63.1008
13.88	63.1005
13.898	63.1126
13.916	63.1337
13.934	63.1607
13.952	63.1906
13.97	63.2211
13.988	63.2505
14.006	63.2784
14.024	63.3052
14.042	63.3325
14.06	63.3622
14.078	63.3959
14.096	63.4347
14.114	63.4789
14.132	63.5278
14.15	63.58
14.168	63.6333
14.186	63.6853
14.204	63.7336
14.222	63.7759
14.24	63.811
14.258	63.8378
14.276	63.8559
14.294	63.865
14.312	63.864
14.33	63.8519
14.348	63.8265
14.366	63.7866
14.384	63.7304
14.402	63.6574
14.42	63.5683
14.438	63.4654
14.456	63.3529
14.474	63.2357
14.492	63.1196
14.51	63.0104
14.528	62.9131
14.546	62.8314
14.564	62.7673
14.582	62.7214
14.6	62.693
14.618	62.6801
14.636	62.6805
14.654	62.6919
14.672	62.7122
14.69	62.7391
14.708	62.771
14.726	62.8057
14.744	62.8415
14.762	62.8756
14.78	62.9053
14.798	62.9283
14.816	62.9427
14.834	62.9474
14.852	62.9423
14.87	62.9288
14.888	62.909
14.906	62.886
14.924	62.8635
14.942	62.8451
14.96	62.8341
14.978	62.8326
14.996	62.8422
15.014	62.8637
15.032	62.8966
15.05	62.9394
15.068	62.9898
15.086	63.0453
15.104	63.1031
15.122	63.1605
15.14	63.2147
15.158	63.2631
15.176	63.3036
15.194	63.3344
15.212	63.3544
15.23	63.3627
15.248	63.359
15.266	63.3429
15.284	63.315
15.302	63.276
15.32	63.227
15.338	63.1691
15.356	63.1034
15.374	63.0319
15.392	62.9561
15.41	62.8777
15.428	62.799
15.446	62.722
15.464	62.6487
15.482	62.5804
15.5	62.5183
15.518	62.4626
15.536	62.4128
15.554	62.3678
15.572	62.3258
15.59	62.2851
15.608	62.2444
15.626	62.2032
15.644	62.1618
15.662	62.122
15.68	62.0864
15.698	62.0582
15.716	62.0417
15.734	62.041
15.752	62.0585
15.77	62.0964
15.788	62.155
15.806	62.2323
15.824	62.3255
15.842	62.4299
15.86	62.538
15.878	62.6441
15.896	62.7424
15.914	62.8261
15.932	62.8916
15.95	62.9366
15.968	62.9598
15.986	62.9628
16.004	62.9481
16.022	62.919
16.04	62.8813
16.058	62.8393
16.076	62.7971
16.094	62.7598
16.112	62.7299
16.13	62.7091
16.148	62.6991
16.166	62.6991
16.184	62.7078
16.202	62.7234
16.22	62.7424
16.238	62.7625
16.256	62.781
16.274	62.7952
16.292	62.8038
16.31	62.806
16.328	62.8017
16.346	62.7921
16.364	62.7781
16.382	62.762
16.4	62.7454
16.418	62.7298
16.436	62.7163
16.454	62.7046
16.472	62.6946
16.49	62.6845
16.508	62.6723
16.526	62.6564
16.544	62.6337
16.562	62.6025
16.58	62.5614
16.598	62.5093
16.616	62.4473
16.634	62.3758
16.652	62.2984
16.67	62.218
16.688	62.1375
16.706	62.0625
16.724	61.9955
16.742	61.9402
16.76	61.899
16.778	61.8728
16.796	61.8622
16.814	61.8651
16.832	61.8805
16.85	61.9042
16.868	61.9331
16.886	61.9642
16.904	61.9927
16.922	62.0168
16.94	62.0338
16.958	62.0426
16.976	62.0428
16.994	62.035
17.012	62.0208
17.03	62.0009
17.048	61.978
17.066	61.9527
17.084	61.9265
17.102	61.8996
17.12	61.872
17.138	61.8425
17.156	61.8093
17.174	61.7713
17.192	61.7252
17.21	61.6704
17.228	61.6048
17.246	61.5283
17.264	61.4407
17.282	61.3444
17.3	61.241
17.318	61.1343
17.336	61.0292
17.354	60.9286
17.372	60.8398
17.39	60.765
17.408	60.71
17.426	60.6771
17.444	60.6683
17.462	60.6849
17.48	60.7262
17.498	60.7906
17.516	60.8747
17.534	60.9763
17.552	61.0887
17.57	61.2099
17.588	61.3324
17.606	61.4534
17.624	61.5678
17.642	61.6717
17.66	61.7633
17.678	61.8392
17.696	61.899
17.714	61.9422
17.732	61.9697
17.75	61.9824
17.768	61.9831
17.786	61.973
17.804	61.9564
17.822	61.9343
17.84	61.9107
17.858	61.8868
17.876	61.865
17.894	61.8467
17.912	61.8324
17.93	61.8228
17.948	61.818
17.966	61.8172
17.984	61.8198
18.002	61.8248
18.02	61.831
18.038	61.8374
18.056	61.843
18.074	61.8474
18.092	61.8498
18.11	61.8502
18.128	61.8488
18.146	61.846
18.164	61.8422
18.182	61.8383
18.2	61.8348
18.218	61.8329
18.236	61.8331
18.254	61.8365
18.272	61.8435
18.29	61.8548
18.308	61.8706
18.326	61.8908
18.344	61.9152
18.362	61.9432
18.38	61.9743
18.398	62.007
18.416	62.0404
18.434	62.0733
18.452	62.104
18.47	62.1312
18.488	62.1531
18.506	62.1689
18.524	62.1768
18.542	62.1762
18.56	62.1657
18.578	62.145
18.596	62.1139
18.614	62.0724
18.632	62.0219
18.65	61.9627
18.668	61.8978
18.686	61.8277
18.704	61.7563
18.722	61.6842
18.74	61.616
18.758	61.5524
18.776	61.4977
18.794	61.4525
18.812	61.4199
18.83	61.3998
18.848	61.3941
18.866	61.4017
18.884	61.4223
18.902	61.454
18.92	61.4949
18.938	61.5421
18.956	61.5921
18.974	61.6421
18.992	61.6873
19.01	61.7256
19.028	61.752
19.046	61.7654
19.064	61.762
19.082	61.7418
19.1	61.7026
19.118	61.6456
19.136	61.5711
19.154	61.4809
19.172	61.3781
19.19	61.2644
19.208	61.1451
19.226	61.0214
19.244	60.9
19.262	60.7811
19.28	60.671
19.298	60.5696
19.316	60.4817
19.334	60.4067
19.352	60.3464
19.37	60.3006
19.388	60.2681
19.406	60.249
19.424	60.2395
19.442	60.2399
19.46	60.2451
19.478	60.2549
19.496	60.2649
19.514	60.2743
19.532	60.2803
19.55	60.2811
19.568	60.2764
19.586	60.2647
19.604	60.2468
19.622	60.2225
19.64	60.1927
19.658	60.1595
19.676	60.123
19.694	60.0868
19.712	60.0505
19.73	60.0176
19.748	59.9882
19.766	59.9638
19.784	59.9452
19.802	59.932
19.82	59.9249
19.838	59.9227
19.856	59.9245
19.874	59.9297
19.892	59.9356
19.91	59.9424
19.928	59.9465
19.946	59.9483
19.964	59.9453
19.982	59.937
20	59.9229
20.018	59.9022
20.036	59.8754
20.054	59.8425
20.072	59.8038
20.09	59.7609
20.108	59.7137
20.126	59.6644
20.144	59.613
20.162	59.5616
20.18	59.511
20.198	59.4618
20.216	59.4159
20.234	59.3731
20.252	59.335
20.27	59.3015
20.288	59.2731
20.306	59.2499
20.324	59.2318
20.342	59.2188
20.36	59.2105
20.378	59.2063
20.396	59.2063
20.414	59.2096
20.432	59.2163
20.45	59.2256
20.468	59.2372
20.486	59.2511
20.504	59.2669
20.522	59.2848
20.54	59.3043
20.558	59.3254
20.576	59.3483
20.594	59.3732
20.612	59.4001
20.63	59.4295
20.648	59.4614
20.666	59.4963
20.684	59.5342
20.702	59.5753
20.72	59.6195
20.738	59.6668
20.756	59.7167
20.774	59.7693
20.792	59.8233
20.81	59.8787
20.828	59.9346
20.846	59.9895
20.864	60.0437
20.882	60.0949
20.9	60.1436
20.918	60.1882
20.936	60.2279
20.954	60.2627
20.972	60.2915
20.99	60.3143
21.008	60.3312
21.026	60.3419
21.044	60.3469
21.062	60.3474
21.08	60.3427
21.098	60.3353
21.116	60.3252
21.134	60.3134
21.152	60.3024
21.17	60.2914
21.188	60.2827
21.206	60.2767
21.224	60.2736
21.242	60.2742
21.26	60.2786
21.278	60.2857
21.296	60.296
21.314	60.3083
21.332	60.3204
21.35	60.3333
21.368	60.343
21.386	60.3493
21.404	60.3511
21.422	60.3448
21.44	60.3316
21.458	60.3086
21.476	60.2744
21.494	60.2298
21.512	60.1736
21.53	60.1054
21.548	60.0274
21.566	59.94
21.584	59.8435
21.602	59.7433
21.62	59.6381
21.638	59.5318
21.656	59.4298
21.674	59.3298
21.692	59.239
21.71	59.1588
21.728	59.0896
21.746	59.0376
21.764	59.0016
21.782	58.9832
21.8	58.9848
21.818	59.0053
21.836	59.0435
21.854	59.1005
21.872	59.1737
21.89	59.2583
21.908	59.357
21.926	59.4628
21.944	59.572
21.962	59.6861
21.98	59.7956
21.998	59.9008
22.016	59.9994
22.034	60.0836
22.052	60.1557
22.07	60.2122
22.088	60.2493
22.106	60.2688
22.124	60.2693
22.142	60.2497
22.16	60.2115
22.178	60.1577
22.196	60.0866
22.214	60.0023
22.232	59.9095
22.25	59.8054
22.268	59.6975
22.286	59.5895
22.304	59.4794
22.322	59.3755
22.34	59.2785
22.358	59.1887
22.376	59.1123
22.394	59.0485
22.412	58.9981
22.43	58.9635
22.448	58.9444
22.466	58.9397
22.484	58.9493
22.502	58.9736
22.52	59.0085
22.538	59.053
22.556	59.1075
22.574	59.1654
22.592	59.2272
22.61	59.2916
22.628	59.3515
22.646	59.4087
22.664	59.4606
22.682	59.5011
22.7	59.5323
22.718	59.5516
22.736	59.555
22.754	59.5441
22.772	59.5174
22.79	59.4726
22.808	59.4107
22.826	59.332
22.844	59.236
22.862	59.1228
22.88	58.9954
22.898	58.8544
22.916	58.6993
22.934	58.5349
22.952	58.3621
22.97	58.1804
22.988	57.9952
23.006	57.8068
23.024	57.6151
23.042	57.4251
23.06	57.2369
23.078	57.0505
23.096	56.8696
23.114	56.6943
23.132	56.5245
23.15	56.3625
23.168	56.2084
23.186	56.0619
23.204	55.9246
23.222	55.7965
23.24	55.6774
23.258	55.5678
23.276	55.4683
23.294	55.378
23.312	55.2956
23.33	55.2212
23.348	55.1546
23.366	55.0954
23.384	55.0426
23.402	54.9972
23.42	54.9611
23.438	54.934
23.456	54.916
23.474	54.9084
23.492	54.9119
23.51	54.9257
23.528	54.9487
23.546	54.9809
23.564	55.0223
23.582	55.0713
23.6	55.1275
23.618	55.1913
23.636	55.2603
23.654	55.3334
23.672	55.4118
23.69	55.4924
23.708	55.5732
23.726	55.6559
23.744	55.7378
23.762	55.8165
23.78	55.8943
23.798	55.9679
23.816	56.0337
23.834	56.0941
23.852	56.1465
23.87	56.1863
23.888	56.2136
23.906	56.2296
23.924	56.234
23.942	56.2255
23.96	56.2055
23.978	56.1777
23.996	56.1421
24.014	56.0977
24.032	56.0512
24.05	56.0067
24.068	55.9601
24.086	55.9175
24.104	55.8847
24.122	55.8586
24.14	55.8411
24.158	55.8354
24.176	55.8425
24.194	55.8602
24.212	55.887
24.23	55.9251
24.248	55.9734
24.266	56.0229
24.284	56.0698
24.302	56.1197
24.32	56.1615
24.338	56.1848
24.356	56.1966
24.374	56.191
24.392	56.1579
24.41	56.0984
24.428	56.0136
24.446	55.8982
24.464	55.7486
24.482	55.5674
24.5	55.3569
24.518	55.1183
24.536	54.8471
24.554	54.5515
24.572	54.242
24.59	53.915
24.608	53.5719
24.626	53.2231
24.644	52.8709
24.662	52.5089
24.68	52.1537
24.698	51.8205
24.716	51.5001
24.734	51.1981
24.752	50.9262
24.77	50.6801
24.788	50.4594
24.806	50.2839
24.824	50.1656
24.842	50.0887
24.86	50.073
24.878	50.1423
24.896	50.2853
24.914	50.5059
24.932	50.8307
24.95	51.2704
24.968	51.8067
24.986	52.4664
25.004	53.2784
25.022	54.236
25.04	55.3348
25.058	56.5818
25.076	57.9864
25.094	59.5472
25.112	61.2423
25.13	63.0518
25.148	65.005
25.166	67.0739
25.184	69.2026
25.202	71.3764
25.22	73.6347
25.238	75.9018
25.256	78.1004
25.274	80.2785
25.292	82.4139
25.31	84.4197
25.328	86.2492
25.346	87.9633
25.364	89.5012
25.382	90.7911
25.4	91.8434
25.418	92.6732
25.436	93.2429
25.454	93.5206
25.472	93.5197
25.49	93.2518
25.508	92.724
25.526	91.9253
25.544	90.8553
25.562	89.5562
25.58	88.0664
25.598	86.3454
25.616	84.4231
25.634	82.3677
25.652	80.2151
25.67	77.91
25.688	75.5141
25.706	73.1013
25.724	70.6674
25.742	68.1862
25.76	65.7237
25.778	63.34
25.796	60.9946
25.814	58.7023
25.832	56.5164
25.85	54.4723
25.868	52.5329
25.886	50.7191
25.904	49.0611
25.922	47.5679
25.94	46.2225
25.958	45.035
25.976	44.0163
25.994	43.1718
26.012	42.4923
26.03	41.9655
26.048	41.5824
26.066	41.3595
26.084	41.2806
26.102	41.319
26.12	41.4607
26.138	41.7325
26.156	42.1043
26.174	42.5393
26.192	43.032
26.21	43.6095
26.228	44.2271
26.246	44.8381
26.264	45.447
26.282	46.0722
26.3	46.6755
26.318	47.2196
26.336	47.7218
26.354	48.1846
26.372	48.5785
26.39	48.8756
26.408	49.0843
26.426	49.2119
26.444	49.2558
26.462	49.2128
26.48	49.0777
26.498	48.8602
26.516	48.5729
26.534	48.2207
26.552	47.7783
26.57	47.277
26.588	46.7575
26.606	46.2402
26.624	45.6798
26.642	45.1209
26.66	44.6192
26.678	44.2
26.696	43.8095
26.714	43.4973
26.732	43.3233
26.75	43.3136
26.768	43.4159
26.786	43.6727
26.804	44.1341
26.822	44.8262
26.84	45.7116
26.858	46.8057
26.876	48.1282
26.894	49.6961
26.912	51.5025
26.93	53.5277
26.948	55.7521
26.966	58.3233
26.984	61.4891
27.002	64.6474
27.02	67.1427
27.028	67.7962