File: Bakgrunnsmateriale/MATLAB/FTIR/ftir_data/subBb/Mapping_121/C-4040-8_t75.asc
PE IR       SPECTRUM    SPECTRUM    ASCII       PEDS        1.60
  -1
C-B14E~1.ASC
17/03/27
20:39:43.00
17/03/27
20:40:09.00
tln
$C-4040-8_t0075$<tbV0>[-7.8,2.6,8.0,0.0,27,1,0]
27.028
64

2002,4.07
MIRTGS : RIGHTBACK : INTERNAL 2
MIR : ON : INTERNAL 2
OPTKBR

0.200000
8
8.000000
FILLER
RATIO
SPECTRUM
UNLOCKED 256

DOUBLE
64
COMBINED
1
0
0

0.002000
RATIO

1
0
TRUE
51149
0
LEFT NOT FITTED RIGHT NOT FITTED 0
NONE
NONE
15600
12
4.427000
51148
TRUE
1 0 8 72 0 0 0 0

15798

#HDR
-1
-1
#GR
µM
%T
2.38419e-05
0.0
2.000000
0.002000
12515
8
79.4645
29.3774
#DATA
2.000000	 65.2743
2.018000	 66.1737
2.036000	 65.0039
2.054000	 65.1256
2.072000	 64.9788
2.090000	 64.6674
2.108000	 64.5531
2.126000	 65.0762
2.144000	 65.3966
2.162000	 65.0074
2.180000	 64.6633
2.198000	 65.1279
2.216000	 64.8054
2.234000	 64.7313
2.252000	 65.097
2.270000	 63.6806
2.288000	 67.0673
2.306000	 65.2922
2.324000	 64.9366
2.342000	 64.9146
2.360000	 64.9263
2.378000	 65.1982
2.396000	 64.8844
2.414000	 65.1181
2.432000	 65.1125
2.450000	 65.1581
2.468000	 64.9881
2.486000	 65.0751
2.504000	 64.9311
2.522000	 65.1624
2.540000	 64.8998
2.558000	 65.1348
2.576000	 65.1003
2.594000	 64.8164
2.612000	 65.163
2.630000	 65.0799
2.648000	 65.0143
2.666000	 65.2176
2.684000	 64.9639
2.702000	 65.0957
2.720000	 65.0671
2.738000	 65.1991
2.756000	 65.0339
2.774000	 65.1649
2.792000	 65.2031
2.810000	 65.0748
2.828000	 65.1684
2.846000	 65.403
2.864000	 65.2581
2.882000	 65.1243
2.900000	 65.0077
2.918000	 64.8943
2.936000	 65.1911
2.954000	 65.1419
2.972000	 65.0349
2.990000	 65.0163
3.008000	 65.1222
3.026000	 65.0964
3.044000	 65.045
3.062000	 65.1153
3.080000	 65.1126
3.098000	 65.1885
3.116000	 65.126
3.134000	 65.308
3.152000	 65.1848
3.170000	 65.1455
3.188000	 65.3242
3.206000	 64.8466
3.224000	 65.2817
3.242000	 64.9738
3.260000	 65.2172
3.278000	 65.0476
3.296000	 65.1508
3.314000	 65.1607
3.332000	 64.9071
3.350000	 64.9927
3.368000	 64.7622
3.386000	 64.9484
3.404000	 65.047
3.422000	 64.5976
3.440000	 65.0796
3.458000	 65.0233
3.476000	 64.8687
3.494000	 65.2729
3.512000	 64.865
3.530000	 64.9063
3.548000	 65.1902
3.566000	 65.1495
3.584000	 65.1869
3.602000	 65.3257
3.620000	 65.1845
3.638000	 65.2713
3.656000	 65.0756
3.674000	 65.0545
3.692000	 65.1568
3.710000	 65.2429
3.728000	 65.2015
3.746000	 65.1219
3.764000	 65.1113
3.782000	 65.0696
3.800000	 65.1838
3.818000	 65.1146
3.836000	 65.0429
3.854000	 65.1681
3.872000	 65.1253
3.890000	 65.194
3.908000	 65.2542
3.926000	 65.2272
3.944000	 65.3031
3.962000	 65.1361
3.980000	 65.4346
3.998000	 65.3422
4.016000	 65.1926
4.034000	 65.2658
4.052000	 65.2603
4.070000	 65.0896
4.088000	 65.2841
4.106000	 65.2423
4.124000	 64.7546
4.141999	 64.8382
4.160000	 65.0308
4.178000	 65.2016
4.196000	 65.2328
4.214000	 65.1999
4.232000	 65.1071
4.250000	 65.1597
4.268000	 65.2183
4.286000	 65.3346
4.304000	 65.2445
4.322000	 65.2788
4.340000	 65.3025
4.358000	 65.2525
4.375999	 65.2064
4.394000	 65.1745
4.412000	 65.1224
4.430000	 65.1741
4.448000	 65.265
4.466000	 65.2279
4.484000	 65.3448
4.502000	 65.3313
4.520000	 65.1683
4.538000	 65.0827
4.556000	 65.2292
4.574000	 65.2365
4.592000	 65.2174
4.609999	 65.1286
4.628000	 65.2227
4.646000	 65.3282
4.664000	 65.0429
4.682000	 65.0887
4.700000	 65.1479
4.718000	 65.2088
4.736000	 65.254
4.754000	 65.2922
4.772000	 65.2671
4.790000	 65.2255
4.808000	 65.3059
4.826000	 65.4054
4.843999	 65.1787
4.862000	 65.1662
4.880000	 65.2167
4.898000	 65.2995
4.916000	 65.2354
4.934000	 65.3
4.952000	 65.2678
4.970000	 65.3705
4.988000	 65.2095
5.006000	 65.0853
5.024000	 65.0839
5.042000	 65.1064
5.060000	 65.1404
5.077999	 65.2527
5.096000	 65.1832
5.114000	 65.1743
5.132000	 65.2218
5.150000	 65.1305
5.168000	 65.1949
5.186000	 65.2484
5.204000	 65.2776
5.222000	 65.225
5.240000	 65.1587
5.258000	 65.1673
5.276000	 65.211
5.294000	 65.23
5.312000	 65.1328
5.330000	 65.1004
5.348000	 65.0285
5.366000	 65.0441
5.384000	 65.1226
5.402000	 65.0715
5.420000	 65.1203
5.438000	 65.2311
5.456000	 65.2312
5.474000	 65.213
5.492000	 65.2327
5.510000	 65.2411
5.528000	 65.0901
5.546000	 65.025
5.564000	 65.1009
5.582000	 65.1426
5.600000	 65.173
5.618000	 65.1406
5.636000	 65.0287
5.654000	 65.0624
5.672000	 65.2603
5.690000	 65.3418
5.708000	 65.1872
5.726000	 65.0091
5.744000	 65.0152
5.762000	 65.0859
5.780000	 65.0695
5.798000	 65.1069
5.816000	 65.275
5.834000	 65.2721
5.852000	 65.0291
5.870000	 65.0074
5.888000	 65.1116
5.906000	 65.208
5.923999	 65.2209
5.942000	 65.1797
5.960000	 65.1481
5.978000	 65.1496
5.996000	 65.1103
6.014000	 65.087
6.032000	 65.0987
6.050000	 65.1217
6.068000	 65.1144
6.086000	 65.1
6.104000	 65.1135
6.122000	 65.168
6.140000	 65.1416
6.158000	 65.0599
6.176000	 65.0336
6.194000	 64.9649
6.212000	 64.929
6.230000	 65.0466
6.248000	 65.0735
6.266000	 64.9962
6.284000	 65.0193
6.302000	 65.0527
6.320000	 65.003
6.338000	 64.9458
6.356000	 64.9675
6.374000	 65.0186
6.392000	 64.9925
6.410000	 64.8992
6.428000	 64.8117
6.446000	 64.8125
6.464000	 64.8916
6.482000	 64.9597
6.500000	 65.0448
6.518000	 65.0633
6.536000	 65.0155
6.554000	 65.0532
6.572000	 65.1379
6.590000	 65.0897
6.608000	 64.9738
6.626000	 64.9519
6.644000	 65.0065
6.662000	 65.0303
6.680000	 64.9879
6.698000	 65.0207
6.716000	 65.0527
6.734000	 64.9609
6.752000	 64.9507
6.770000	 65.0299
6.788000	 65.0338
6.806000	 64.9901
6.824000	 64.9353
6.842000	 64.9348
6.860000	 64.9969
6.878000	 64.9347
6.896000	 64.7967
6.914000	 64.812
6.932000	 64.9515
6.950000	 65.0657
6.968000	 65.0707
6.986000	 65.0571
7.004000	 65.1125
7.022000	 65.1121
7.040000	 65.0196
7.058000	 64.955
7.076000	 64.9162
7.094000	 64.8579
7.112000	 64.8389
7.130000	 64.8857
7.148000	 64.9196
7.166000	 64.9201
7.184000	 64.9364
7.202000	 64.9573
7.220000	 64.9866
7.238000	 65.0514
7.256000	 65.1063
7.274000	 65.1092
7.292000	 65.082
7.310000	 65.073
7.328000	 65.1108
7.346000	 65.1605
7.364000	 65.1406
7.382000	 65.0269
7.400000	 64.9076
7.418000	 64.875
7.436000	 64.922
7.454000	 64.988
7.472000	 65.027
7.490000	 65.0275
7.508000	 65.0159
7.526000	 65.0215
7.544000	 65.0462
7.562000	 65.0612
7.580000	 65.0489
7.598000	 65.0305
7.616000	 64.9979
7.634000	 64.905
7.652000	 64.7981
7.670000	 64.7886
7.688000	 64.8765
7.706000	 64.9651
7.724000	 65.0053
7.742000	 65.0078
7.760000	 64.9945
7.778000	 64.9922
7.796000	 65.0105
7.814000	 65.0284
7.832000	 65.0185
7.850000	 64.9747
7.868000	 64.9287
7.886000	 64.9353
7.904000	 65.0112
7.922000	 65.0936
7.940000	 65.1003
7.958000	 65.0182
7.976000	 64.9088
7.994000	 64.8375
8.012000	 64.8147
8.030000	 64.8053
8.048000	 64.7887
8.065999	 64.7863
8.084000	 64.8209
8.102000	 64.8797
8.120000	 64.9307
8.138000	 64.958
8.155999	 64.9635
8.173999	 64.9441
8.192000	 64.8954
8.210000	 64.836
8.228000	 64.806
8.246000	 64.8214
8.263999	 64.8543
8.282000	 64.8679
8.300000	 64.8476
8.318000	 64.7951
8.336000	 64.7301
8.353999	 64.6895
8.372000	 64.6981
8.390000	 64.74
8.408000	 64.7804
8.426000	 64.8096
8.443999	 64.8447
8.462000	 64.8821
8.480000	 64.8856
8.498000	 64.8362
8.516000	 64.7665
8.533999	 64.7272
8.552000	 64.7328
8.570000	 64.7515
8.588000	 64.7466
8.606000	 64.7211
8.624000	 64.7149
8.641999	 64.751
8.660000	 64.7955
8.678000	 64.7874
8.696000	 64.7049
8.714000	 64.5895
8.731999	 64.5006
8.750000	 64.4656
8.768000	 64.478
8.786000	 64.5236
8.804000	 64.5895
8.821999	 64.6561
8.840000	 64.6976
8.858000	 64.7011
8.876000	 64.6793
8.894000	 64.6585
8.911999	 64.6595
8.930000	 64.6874
8.948000	 64.7306
8.966000	 64.7623
8.984000	 64.7589
9.001999	 64.7254
9.020000	 64.6965
9.038000	 64.7012
9.056000	 64.7275
9.074000	 64.7319
9.092000	 64.6904
9.109999	 64.6286
9.128000	 64.5959
9.146000	 64.6103
9.164000	 64.6396
9.182000	 64.6377
9.199999	 64.5937
9.218000	 64.5377
9.236000	 64.5037
9.254000	 64.4968
9.272000	 64.5006
9.289999	 64.5088
9.308000	 64.531
9.326000	 64.5704
9.344000	 64.6037
9.362000	 64.5984
9.379999	 64.5507
9.398000	 64.4979
9.416000	 64.4885
9.434000	 64.5393
9.452000	 64.6215
9.469999	 64.6834
9.488000	 64.6902
9.506000	 64.6527
9.524000	 64.6219
9.542000	 64.6477
9.560000	 64.7362
9.577999	 64.8418
9.596000	 64.9008
9.614000	 64.8746
9.632000	 64.7696
9.650000	 64.6281
9.667999	 64.5007
9.686000	 64.4206
9.704000	 64.3941
9.722000	 64.4073
9.740000	 64.4399
9.757999	 64.4753
9.776000	 64.5045
9.794000	 64.524
9.812000	 64.5328
9.830000	 64.5297
9.847999	 64.5153
9.866000	 64.4978
9.884000	 64.4939
9.902000	 64.5194
9.920000	 64.5751
9.937999	 64.6405
9.956000	 64.6865
9.974000	 64.6969
9.992000	 64.6792
10.01	64.6601
10.028	64.6638
10.046	64.6921
10.064	64.7248
10.082	64.7326
10.1	64.6947
10.118	64.6121
10.136	64.5071
10.154	64.4104
10.172	64.346
10.19	64.3198
10.208	64.3225
10.226	64.3432
10.244	64.3807
10.262	64.4448
10.28	64.5395
10.298	64.6469
10.316	64.7251
10.334	64.7365
10.352	64.678
10.37	64.588
10.388	64.524
10.406	64.5227
10.424	64.5827
10.442	64.672
10.46	64.7568
10.478	64.8214
10.496	64.8714
10.514	64.9174
10.532	64.9611
10.55	64.9943
10.568	65.0073
10.586	64.9924
10.604	64.9433
10.622	64.8529
10.64	64.7199
10.658	64.5551
10.676	64.3886
10.694	64.259
10.712	64.2001
10.73	64.2202
10.748	64.3001
10.766	64.3995
10.784	64.4779
10.802	64.5075
10.82	64.4811
10.838	64.408
10.856	64.3075
10.874	64.2048
10.892	64.1214
10.91	64.0717
10.928	64.0576
10.946	64.0691
10.964	64.0904
10.982	64.1066
11	64.1122
11.018	64.1117
11.036	64.1159
11.054	64.136
11.072	64.1774
11.09	64.2394
11.108	64.3183
11.126	64.4087
11.144	64.5049
11.162	64.5972
11.18	64.6736
11.198	64.7209
11.216	64.7305
11.234	64.7033
11.252	64.6515
11.27	64.5937
11.288	64.5484
11.306	64.525
11.324	64.5201
11.342	64.52
11.36	64.5105
11.378	64.4854
11.396	64.4505
11.414	64.4211
11.432	64.413
11.45	64.4327
11.468	64.474
11.486	64.5217
11.504	64.559
11.522	64.5748
11.54	64.5677
11.558	64.543
11.576	64.5079
11.594	64.4669
11.612	64.4204
11.63	64.3692
11.648	64.3174
11.666	64.2752
11.684	64.2556
11.702	64.2675
11.72	64.3109
11.738	64.3734
11.756	64.4356
11.774	64.4771
11.792	64.4867
11.81	64.4679
11.828	64.4356
11.846	64.4105
11.864	64.4083
11.882	64.4337
11.9	64.4802
11.918	64.5331
11.936	64.5772
11.954	64.6029
11.972	64.6084
11.99	64.6
12.008	64.5885
12.026	64.5841
12.044	64.5934
12.062	64.6145
12.08	64.6388
12.098	64.6542
12.116	64.6488
12.134	64.617
12.152	64.5611
12.17	64.4909
12.188	64.4203
12.206	64.3636
12.224	64.3298
12.242	64.3206
12.26	64.3306
12.278	64.3488
12.296	64.3625
12.314	64.3616
12.332	64.3423
12.35	64.3067
12.368	64.2624
12.386	64.2197
12.404	64.1878
12.422	64.1719
12.44	64.1715
12.458	64.1804
12.476	64.1893
12.494	64.1882
12.512	64.1705
12.53	64.1354
12.548	64.0884
12.566	64.039
12.584	63.9991
12.602	63.9792
12.62	63.9855
12.638	64.0189
12.656	64.0753
12.674	64.148
12.692	64.229
12.71	64.3114
12.728	64.3895
12.746	64.4596
12.764	64.5186
12.782	64.5633
12.8	64.5904
12.818	64.597
12.836	64.5818
12.854	64.5462
12.872	64.4946
12.89	64.4333
12.908	64.3693
12.926	64.3085
12.944	64.2548
12.962	64.2101
12.98	64.1743
12.998	64.1461
13.016	64.1239
13.034	64.1061
13.052	64.0911
13.07	64.0776
13.088	64.0645
13.106	64.051
13.124	64.0366
13.142	64.0217
13.16	64.0076
13.178	63.9961
13.196	63.9888
13.214	63.9862
13.232	63.9878
13.25	63.9912
13.268	63.9929
13.286	63.9897
13.304	63.9798
13.322	63.9635
13.34	63.943
13.358	63.9215
13.376	63.9023
13.394	63.8868
13.412	63.8743
13.43	63.8621
13.448	63.8463
13.466	63.8234
13.484	63.7917
13.502	63.7517
13.52	63.7067
13.538	63.6617
13.556	63.6219
13.574	63.5913
13.592	63.5715
13.61	63.561
13.628	63.5569
13.646	63.5549
13.664	63.5517
13.682	63.5459
13.7	63.538
13.718	63.5306
13.736	63.5271
13.754	63.5301
13.772	63.5409
13.79	63.5583
13.808	63.5788
13.826	63.5973
13.844	63.6083
13.862	63.6072
13.88	63.5911
13.898	63.5597
13.916	63.5151
13.934	63.4619
13.952	63.4056
13.97	63.3524
13.988	63.3078
14.006	63.2759
14.024	63.2588
14.042	63.2569
14.06	63.2686
14.078	63.2907
14.096	63.3193
14.114	63.3495
14.132	63.377
14.15	63.3979
14.168	63.4097
14.186	63.4113
14.204	63.403
14.222	63.387
14.24	63.3662
14.258	63.344
14.276	63.3239
14.294	63.3085
14.312	63.2995
14.33	63.2977
14.348	63.3023
14.366	63.3117
14.384	63.3233
14.402	63.3344
14.42	63.3426
14.438	63.346
14.456	63.3431
14.474	63.3337
14.492	63.3188
14.51	63.3001
14.528	63.28
14.546	63.2613
14.564	63.2466
14.582	63.2381
14.6	63.2375
14.618	63.2457
14.636	63.2616
14.654	63.283
14.672	63.3066
14.69	63.3286
14.708	63.345
14.726	63.3518
14.744	63.3464
14.762	63.3275
14.78	63.2959
14.798	63.254
14.816	63.2053
14.834	63.1543
14.852	63.1064
14.87	63.0653
14.888	63.0338
14.906	63.0131
14.924	63.0026
14.942	62.9998
14.96	63.0004
14.978	63.0002
14.996	62.995
15.014	62.981
15.032	62.9555
15.05	62.9183
15.068	62.8707
15.086	62.8156
15.104	62.7567
15.122	62.6989
15.14	62.647
15.158	62.6045
15.176	62.5746
15.194	62.5591
15.212	62.5584
15.23	62.5712
15.248	62.5959
15.266	62.6298
15.284	62.6697
15.302	62.7126
15.32	62.7562
15.338	62.7986
15.356	62.8384
15.374	62.8749
15.392	62.9077
15.41	62.9364
15.428	62.9609
15.446	62.9807
15.464	62.9953
15.482	63.0041
15.5	63.0063
15.518	63.0016
15.536	62.9899
15.554	62.9714
15.572	62.9469
15.59	62.9177
15.608	62.8849
15.626	62.8495
15.644	62.8127
15.662	62.7757
15.68	62.7392
15.698	62.7039
15.716	62.6704
15.734	62.6393
15.752	62.6113
15.77	62.5873
15.788	62.5687
15.806	62.5565
15.824	62.5518
15.842	62.5555
15.86	62.5679
15.878	62.5882
15.896	62.6153
15.914	62.6467
15.932	62.6792
15.95	62.71
15.968	62.7355
15.986	62.7524
16.004	62.7593
16.022	62.7548
16.04	62.739
16.058	62.7136
16.076	62.6801
16.094	62.6418
16.112	62.6017
16.13	62.5623
16.148	62.5261
16.166	62.4952
16.184	62.4705
16.202	62.4526
16.22	62.4414
16.238	62.4367
16.256	62.4379
16.274	62.4445
16.292	62.4562
16.31	62.4725
16.328	62.4934
16.346	62.5187
16.364	62.5483
16.382	62.5819
16.4	62.6184
16.418	62.657
16.436	62.696
16.454	62.7333
16.472	62.7677
16.49	62.7967
16.508	62.8187
16.526	62.8326
16.544	62.8373
16.562	62.8328
16.58	62.8193
16.598	62.7975
16.616	62.7684
16.634	62.733
16.652	62.6928
16.67	62.6492
16.688	62.6032
16.706	62.5568
16.724	62.5111
16.742	62.4677
16.76	62.4283
16.778	62.394
16.796	62.3667
16.814	62.3476
16.832	62.3376
16.85	62.3379
16.868	62.3482
16.886	62.3686
16.904	62.3978
16.922	62.4349
16.94	62.4783
16.958	62.5255
16.976	62.5754
16.994	62.6253
17.012	62.6736
17.03	62.7191
17.048	62.7603
17.066	62.797
17.084	62.8286
17.102	62.8558
17.12	62.8786
17.138	62.898
17.156	62.9145
17.174	62.9286
17.192	62.9409
17.21	62.9514
17.228	62.9602
17.246	62.9669
17.264	62.9715
17.282	62.9735
17.3	62.9729
17.318	62.9695
17.336	62.9638
17.354	62.9558
17.372	62.9466
17.39	62.9365
17.408	62.9265
17.426	62.9174
17.444	62.9096
17.462	62.9037
17.48	62.8996
17.498	62.8972
17.516	62.8956
17.534	62.8942
17.552	62.8914
17.57	62.8867
17.588	62.8781
17.606	62.8649
17.624	62.8457
17.642	62.82
17.66	62.7874
17.678	62.7482
17.696	62.7026
17.714	62.6519
17.732	62.5975
17.75	62.5406
17.768	62.484
17.786	62.4284
17.804	62.3768
17.822	62.3298
17.84	62.2896
17.858	62.2564
17.876	62.2313
17.894	62.2139
17.912	62.2042
17.93	62.2005
17.948	62.2024
17.966	62.2075
17.984	62.2148
18.002	62.2224
18.02	62.2287
18.038	62.2324
18.056	62.232
18.074	62.2269
18.092	62.2165
18.11	62.2008
18.128	62.1804
18.146	62.1557
18.164	62.1281
18.182	62.0986
18.2	62.0687
18.218	62.0399
18.236	62.0133
18.254	61.9904
18.272	61.9717
18.29	61.9584
18.308	61.9505
18.326	61.9481
18.344	61.9511
18.362	61.9589
18.38	61.971
18.398	61.9862
18.416	62.0037
18.434	62.0225
18.452	62.0414
18.47	62.0597
18.488	62.0763
18.506	62.0908
18.524	62.1026
18.542	62.1114
18.56	62.1172
18.578	62.12
18.596	62.1201
18.614	62.1175
18.632	62.1132
18.65	62.1071
18.668	62.1001
18.686	62.0922
18.704	62.0841
18.722	62.0757
18.74	62.0672
18.758	62.0584
18.776	62.0491
18.794	62.0389
18.812	62.0271
18.83	62.0134
18.848	61.9968
18.866	61.977
18.884	61.9532
18.902	61.9251
18.92	61.8921
18.938	61.8547
18.956	61.8125
18.974	61.7666
18.992	61.7176
19.01	61.6666
19.028	61.6153
19.046	61.5649
19.064	61.5175
19.082	61.4742
19.1	61.4377
19.118	61.4086
19.136	61.3891
19.154	61.3793
19.172	61.3804
19.19	61.3917
19.208	61.413
19.226	61.4434
19.244	61.4806
19.262	61.524
19.28	61.5697
19.298	61.6174
19.316	61.662
19.334	61.7037
19.352	61.7378
19.37	61.7646
19.388	61.781
19.406	61.7869
19.424	61.7818
19.442	61.7653
19.46	61.739
19.478	61.7025
19.496	61.6588
19.514	61.6081
19.532	61.5534
19.55	61.4961
19.568	61.438
19.586	61.3813
19.604	61.3268
19.622	61.2768
19.64	61.2311
19.658	61.191
19.676	61.1562
19.694	61.1264
19.712	61.1016
19.73	61.08
19.748	61.0618
19.766	61.0447
19.784	61.0285
19.802	61.0118
19.82	60.9938
19.838	60.9742
19.856	60.9519
19.874	60.9273
19.892	60.901
19.91	60.8729
19.928	60.8454
19.946	60.8181
19.964	60.794
19.982	60.7734
20	60.7583
20.018	60.7501
20.036	60.7493
20.054	60.7579
20.072	60.7755
20.09	60.8027
20.108	60.8397
20.126	60.8849
20.144	60.9389
20.162	60.999
20.18	61.0647
20.198	61.1342
20.216	61.2049
20.234	61.2768
20.252	61.3462
20.27	61.4136
20.288	61.4766
20.306	61.5349
20.324	61.5881
20.342	61.6355
20.36	61.6777
20.378	61.7152
20.396	61.7481
20.414	61.7781
20.432	61.805
20.45	61.8305
20.468	61.8554
20.486	61.88
20.504	61.9055
20.522	61.9315
20.54	61.9583
20.558	61.9862
20.576	62.0138
20.594	62.0409
20.612	62.0666
20.63	62.0888
20.648	62.1079
20.666	62.1207
20.684	62.1274
20.702	62.1268
20.72	62.1177
20.738	62.1005
20.756	62.0742
20.774	62.0387
20.792	61.9956
20.81	61.9446
20.828	61.8869
20.846	61.824
20.864	61.7557
20.882	61.6851
20.9	61.6119
20.918	61.5377
20.936	61.4638
20.954	61.39
20.972	61.3176
20.99	61.2465
21.008	61.1765
21.026	61.1077
21.044	61.0397
21.062	60.9712
21.08	60.9026
21.098	60.8326
21.116	60.7605
21.134	60.6865
21.152	60.6095
21.17	60.5299
21.188	60.4479
21.206	60.3632
21.224	60.2769
21.242	60.1906
21.26	60.1035
21.278	60.0194
21.296	59.9381
21.314	59.8612
21.332	59.7927
21.35	59.7311
21.368	59.6805
21.386	59.6416
21.404	59.6148
21.422	59.6028
21.44	59.605
21.458	59.6217
21.476	59.6536
21.494	59.6998
21.512	59.7582
21.53	59.8299
21.548	59.9113
21.566	60.0004
21.584	60.0975
21.602	60.1962
21.62	60.2975
21.638	60.3981
21.656	60.4927
21.674	60.5836
21.692	60.6647
21.71	60.7348
21.728	60.7939
21.746	60.8376
21.764	60.8669
21.782	60.8807
21.8	60.8774
21.818	60.8578
21.836	60.8224
21.854	60.7705
21.872	60.7036
21.89	60.6238
21.908	60.5299
21.926	60.4257
21.944	60.3133
21.962	60.1918
21.98	60.0663
21.998	59.9366
22.016	59.8039
22.034	59.6724
22.052	59.5407
22.07	59.4111
22.088	59.286
22.106	59.1642
22.124	59.0482
22.142	58.9383
22.16	58.8344
22.178	58.738
22.196	58.6488
22.214	58.5671
22.232	58.4932
22.25	58.4269
22.268	58.3688
22.286	58.319
22.304	58.2774
22.322	58.2449
22.34	58.2213
22.358	58.2069
22.376	58.2028
22.394	58.2087
22.412	58.2251
22.43	58.2531
22.448	58.2921
22.466	58.3425
22.484	58.4046
22.502	58.4784
22.52	58.5628
22.538	58.6579
22.556	58.7635
22.574	58.8767
22.592	58.9981
22.61	59.1266
22.628	59.2578
22.646	59.3934
22.664	59.5307
22.682	59.6643
22.7	59.7967
22.718	59.9242
22.736	60.0421
22.754	60.1528
22.772	60.253
22.79	60.3393
22.808	60.4135
22.826	60.4739
22.844	60.5188
22.862	60.549
22.88	60.566
22.898	60.5699
22.916	60.5605
22.934	60.5416
22.952	60.5135
22.97	60.476
22.988	60.4353
23.006	60.3921
23.024	60.3461
23.042	60.3022
23.06	60.2608
23.078	60.2216
23.096	60.1876
23.114	60.1598
23.132	60.1368
23.15	60.1176
23.168	60.1036
23.186	60.0928
23.204	60.0812
23.222	60.0705
23.24	60.0584
23.258	60.0381
23.276	60.0112
23.294	59.9759
23.312	59.9254
23.33	59.8604
23.348	59.7805
23.366	59.6807
23.384	59.5605
23.402	59.4209
23.42	59.261
23.438	59.0794
23.456	58.8778
23.474	58.6603
23.492	58.4251
23.51	58.1739
23.528	57.9148
23.546	57.6483
23.564	57.3735
23.582	57.1007
23.6	56.833
23.618	56.5671
23.636	56.3122
23.654	56.0727
23.672	55.8447
23.69	55.6349
23.708	55.4483
23.726	55.2814
23.744	55.1374
23.762	55.0197
23.78	54.9271
23.798	54.8587
23.816	54.8142
23.834	54.7953
23.852	54.7985
23.87	54.8193
23.888	54.86
23.906	54.9184
23.924	54.9885
23.942	55.0708
23.96	55.1656
23.978	55.2673
23.996	55.3744
24.014	55.4887
24.032	55.606
24.05	55.7232
24.068	55.8427
24.086	55.962
24.104	56.0785
24.122	56.1934
24.14	56.3061
24.158	56.4154
24.176	56.5214
24.194	56.6244
24.212	56.7241
24.23	56.8209
24.248	56.9146
24.266	57.0044
24.284	57.0898
24.302	57.1715
24.32	57.2482
24.338	57.319
24.356	57.3849
24.374	57.4446
24.392	57.4956
24.41	57.5386
24.428	57.5734
24.446	57.5983
24.464	57.6121
24.482	57.6158
24.5	57.6092
24.518	57.5918
24.536	57.5631
24.554	57.5246
24.572	57.478
24.59	57.4218
24.608	57.3571
24.626	57.2878
24.644	57.2149
24.662	57.1364
24.68	57.0567
24.698	56.9798
24.716	56.9016
24.734	56.8263
24.752	56.7607
24.77	56.7052
24.788	56.6579
24.806	56.623
24.824	56.6034
24.842	56.5975
24.86	56.6052
24.878	56.6271
24.896	56.6655
24.914	56.7178
24.932	56.7794
24.95	56.8486
24.968	56.9292
24.986	57.0138
25.004	57.0953
25.022	57.1799
25.04	57.2629
25.058	57.333
25.076	57.3864
25.094	57.4302
25.112	57.453
25.13	57.4434
25.148	57.4077
25.166	57.3433
25.184	57.2409
25.202	57.0951
25.22	56.9111
25.238	56.6875
25.256	56.4225
25.274	56.1163
25.292	55.7697
25.31	55.3828
25.328	54.9556
25.346	54.4882
25.364	53.9813
25.382	53.4361
25.4	52.8494
25.418	52.2237
25.436	51.5659
25.454	50.8805
25.472	50.1598
25.49	49.4132
25.508	48.6529
25.526	47.8804
25.544	47.0901
25.562	46.2926
25.58	45.4977
25.598	44.6996
25.616	43.9004
25.634	43.1083
25.652	42.3284
25.67	41.5549
25.688	40.7921
25.706	40.0454
25.724	39.3151
25.742	38.5989
25.76	37.9003
25.778	37.2225
25.796	36.5628
25.814	35.9224
25.832	35.3048
25.85	34.712
25.868	34.1403
25.886	33.5935
25.904	33.0759
25.922	32.5884
25.94	32.1281
25.958	31.6987
25.976	31.3038
25.994	30.9409
26.012	30.6103
26.03	30.3167
26.048	30.0645
26.066	29.8512
26.084	29.6766
26.102	29.5419
26.12	29.4478
26.138	29.3926
26.156	29.3778
26.174	29.4053
26.192	29.4764
26.21	29.5894
26.228	29.7442
26.246	29.9404
26.264	30.1774
26.282	30.4553
26.3	30.7745
26.318	31.1355
26.336	31.5374
26.354	31.9804
26.372	32.4654
26.39	32.9937
26.408	33.5652
26.426	34.1788
26.444	34.8338
26.462	35.5294
26.48	36.2674
26.498	37.0457
26.516	37.8614
26.534	38.7135
26.552	39.6073
26.57	40.5359
26.588	41.4904
26.606	42.468
26.624	43.482
26.642	44.5151
26.66	45.5464
26.678	46.5656
26.696	47.592
26.714	48.6091
26.732	49.5973
26.75	50.5495
26.768	51.4858
26.786	52.3847
26.804	53.2219
26.822	53.9829
26.84	54.6826
26.858	55.3213
26.876	55.8971
26.894	56.4034
26.912	56.8342
26.93	57.2107
26.948	57.5556
26.966	57.8904
26.984	58.2117
27.002	58.4934
27.02	58.7089
27.028	58.7693