File: Bakgrunnsmateriale/MATLAB/FTIR/ftir_data/subBb/Mapping_121/C-4040-8_t109.asc
PE IR       SPECTRUM    SPECTRUM    ASCII       PEDS        1.60
  -1
C-80E6~1.ASC
17/03/27
23:24:19.00
17/03/27
23:24:46.00
tln
$C-4040-8_t0109$<tbV0>[-10.4,10.4,8.0,0.0,27,1,0]
27.028
64

2002,4.07
MIRTGS : RIGHTBACK : INTERNAL 2
MIR : ON : INTERNAL 2
OPTKBR

0.200000
8
8.000000
FILLER
RATIO
SPECTRUM
UNLOCKED 256

DOUBLE
64
COMBINED
1
0
0

0.002000
RATIO

1
0
TRUE
51149
0
LEFT NOT FITTED RIGHT NOT FITTED 0
NONE
NONE
15600
12
4.427000
51148
TRUE
1 0 8 72 0 0 0 0

15798

#HDR
-1
-1
#GR
µM
%T
2.38419e-05
0.0
2.000000
0.002000
12515
8
177.474
31.6143
#DATA
2.000000	 65.0567
2.018000	 65.1041
2.036000	 65.3168
2.054000	 65.5831
2.072000	 65.0031
2.090000	 65.5987
2.108000	 65.1001
2.126000	 65.2672
2.144000	 65.1045
2.162000	 65.4451
2.180000	 65.4293
2.198000	 65.1285
2.216000	 65.1482
2.234000	 64.7889
2.252000	 63.8068
2.270000	 64.699
2.288000	 65.8755
2.306000	 64.5524
2.324000	 64.3987
2.342000	 64.956
2.360000	 64.8031
2.378000	 65.0215
2.396000	 65.2363
2.414000	 65.1332
2.432000	 65.139
2.450000	 65.1149
2.468000	 65.3142
2.486000	 65.5026
2.504000	 65.1977
2.522000	 65.2308
2.540000	 64.9661
2.558000	 65.3864
2.576000	 65.3021
2.594000	 65.082
2.612000	 64.7075
2.630000	 65.0263
2.648000	 65.2359
2.666000	 65.3198
2.684000	 65.3249
2.702000	 65.1046
2.720000	 65.1835
2.738000	 65.2196
2.756000	 65.2512
2.774000	 65.22
2.792000	 65.4023
2.810000	 65.3411
2.828000	 65.1487
2.846000	 65.6011
2.864000	 65.3285
2.882000	 65.2984
2.900000	 65.1509
2.918000	 65.1131
2.936000	 65.1152
2.954000	 64.9277
2.972000	 65.2773
2.990000	 65.2985
3.008000	 65.1588
3.026000	 65.0954
3.044000	 64.9493
3.062000	 65.2262
3.080000	 65.1577
3.098000	 65.1318
3.116000	 65.4384
3.134000	 65.0049
3.152000	 65.2751
3.170000	 65.3979
3.188000	 65.2246
3.206000	 65.2615
3.224000	 65.2691
3.242000	 65.0873
3.260000	 65.237
3.278000	 65.1283
3.296000	 65.3867
3.314000	 65.1099
3.332000	 65.297
3.350000	 64.9222
3.368000	 64.9994
3.386000	 65.1293
3.404000	 65.1855
3.422000	 64.6578
3.440000	 65.1135
3.458000	 65.1427
3.476000	 65.1243
3.494000	 65.517
3.512000	 65.2279
3.530000	 65.2917
3.548000	 65.1545
3.566000	 65.1969
3.584000	 65.45
3.602000	 65.1808
3.620000	 65.1866
3.638000	 65.3859
3.656000	 65.3077
3.674000	 65.4774
3.692000	 65.3077
3.710000	 65.3867
3.728000	 65.2487
3.746000	 65.3105
3.764000	 65.3651
3.782000	 65.1769
3.800000	 65.2006
3.818000	 65.1857
3.836000	 65.2592
3.854000	 65.309
3.872000	 65.2797
3.890000	 65.3255
3.908000	 65.2429
3.926000	 65.1791
3.944000	 65.2964
3.962000	 65.268
3.980000	 65.1323
3.998000	 65.3249
4.016000	 65.1951
4.034000	 65.4699
4.052000	 65.3282
4.070000	 65.1142
4.088000	 65.2957
4.106000	 65.0226
4.124000	 64.8598
4.141999	 65.1277
4.160000	 65.1977
4.178000	 65.3084
4.196000	 65.1905
4.214000	 65.2135
4.232000	 65.3041
4.250000	 65.3336
4.268000	 65.3452
4.286000	 65.2569
4.304000	 65.2207
4.322000	 65.2864
4.340000	 65.3225
4.358000	 65.3753
4.375999	 65.3954
4.394000	 65.3135
4.412000	 65.2695
4.430000	 65.3597
4.448000	 65.2739
4.466000	 65.1394
4.484000	 65.3751
4.502000	 65.4574
4.520000	 65.3379
4.538000	 65.359
4.556000	 65.2429
4.574000	 65.2855
4.592000	 65.3551
4.609999	 65.4383
4.628000	 65.4522
4.646000	 65.5294
4.664000	 65.359
4.682000	 65.3395
4.700000	 65.155
4.718000	 65.266
4.736000	 65.3612
4.754000	 65.3375
4.772000	 65.1992
4.790000	 65.2951
4.808000	 65.3431
4.826000	 65.6324
4.843999	 65.9056
4.862000	 65.2402
4.880000	 65.1788
4.898000	 65.4509
4.916000	 65.2423
4.934000	 65.2429
4.952000	 65.3665
4.970000	 65.2387
4.988000	 65.2677
5.006000	 65.36
5.024000	 65.2862
5.042000	 65.309
5.060000	 65.2704
5.077999	 65.4053
5.096000	 65.3342
5.114000	 65.1875
5.132000	 65.2176
5.150000	 65.31
5.168000	 65.3902
5.186000	 65.2463
5.204000	 65.1976
5.222000	 65.2103
5.240000	 65.1582
5.258000	 65.3414
5.276000	 65.2423
5.294000	 65.1712
5.312000	 65.1701
5.330000	 65.1862
5.348000	 65.2194
5.366000	 65.2833
5.384000	 65.3374
5.402000	 65.3988
5.420000	 65.2843
5.438000	 65.2779
5.456000	 65.3695
5.474000	 65.3964
5.492000	 65.3367
5.510000	 65.2549
5.528000	 65.1864
5.546000	 65.1989
5.564000	 65.2592
5.582000	 65.2757
5.600000	 65.121
5.618000	 65.2101
5.636000	 65.4121
5.654000	 65.4036
5.672000	 65.3133
5.690000	 65.1828
5.708000	 65.0166
5.726000	 65.0423
5.744000	 65.0382
5.762000	 65.0572
5.780000	 65.0962
5.798000	 64.8975
5.816000	 64.9216
5.834000	 65.204
5.852000	 65.1749
5.870000	 65.0351
5.888000	 65.1973
5.906000	 65.3276
5.923999	 65.29
5.942000	 65.2722
5.960000	 65.2085
5.978000	 65.1485
5.996000	 65.1556
6.014000	 65.2664
6.032000	 65.2845
6.050000	 65.1628
6.068000	 65.147
6.086000	 65.2068
6.104000	 65.238
6.122000	 65.2578
6.140000	 65.1869
6.158000	 65.1152
6.176000	 65.1424
6.194000	 65.1188
6.212000	 65.1384
6.230000	 65.1955
6.248000	 65.1021
6.266000	 65.0439
6.284000	 65.0347
6.302000	 65.0684
6.320000	 65.0946
6.338000	 64.967
6.356000	 64.8327
6.374000	 64.8447
6.392000	 64.891
6.410000	 64.9057
6.428000	 64.9681
6.446000	 65.0312
6.464000	 65.0839
6.482000	 65.122
6.500000	 65.1446
6.518000	 65.1545
6.536000	 65.1589
6.554000	 65.1269
6.572000	 65.0775
6.590000	 65.1139
6.608000	 65.1645
6.626000	 65.1993
6.644000	 65.2687
6.662000	 65.3335
6.680000	 65.3887
6.698000	 65.408
6.716000	 65.3089
6.734000	 65.2143
6.752000	 65.1818
6.770000	 65.109
6.788000	 65.0047
6.806000	 64.8986
6.824000	 64.93
6.842000	 65.1047
6.860000	 65.1507
6.878000	 65.0851
6.896000	 65.0432
6.914000	 65.0236
6.932000	 65.0067
6.950000	 64.9567
6.968000	 64.9493
6.986000	 64.9993
7.004000	 65.0548
7.022000	 65.1083
7.040000	 65.1196
7.058000	 65.123
7.076000	 65.1693
7.094000	 65.1849
7.112000	 65.1044
7.130000	 65.0119
7.148000	 65.0111
7.166000	 65.0628
7.184000	 65.1041
7.202000	 65.1476
7.220000	 65.1806
7.238000	 65.1481
7.256000	 65.0462
7.274000	 64.9674
7.292000	 64.9686
7.310000	 64.9882
7.328000	 64.9835
7.346000	 64.9887
7.364000	 65.003
7.382000	 65.006
7.400000	 65.0473
7.418000	 65.1502
7.436000	 65.2144
7.454000	 65.1585
7.472000	 65.0456
7.490000	 64.9918
7.508000	 65.0283
7.526000	 65.0936
7.544000	 65.1396
7.562000	 65.1756
7.580000	 65.1563
7.598000	 65.0158
7.616000	 64.8457
7.634000	 64.7847
7.652000	 64.814
7.670000	 64.8599
7.688000	 64.9334
7.706000	 65.0381
7.724000	 65.1142
7.742000	 65.1214
7.760000	 65.0816
7.778000	 65.0462
7.796000	 65.0507
7.814000	 65.0849
7.832000	 65.1071
7.850000	 65.0817
7.868000	 64.9938
7.886000	 64.8739
7.904000	 64.8036
7.922000	 64.8344
7.940000	 64.9157
7.958000	 64.9616
7.976000	 64.9576
7.994000	 64.9615
8.012000	 65.0104
8.030000	 65.0638
8.048000	 65.0562
8.065999	 64.9835
8.084000	 64.9031
8.102000	 64.8621
8.120000	 64.8642
8.138000	 64.8961
8.155999	 64.9382
8.173999	 64.9676
8.192000	 64.9761
8.210000	 64.9744
8.228000	 64.9655
8.246000	 64.9446
8.263999	 64.9167
8.282000	 64.8866
8.300000	 64.8448
8.318000	 64.7943
8.336000	 64.7641
8.353999	 64.765
8.372000	 64.7692
8.390000	 64.7615
8.408000	 64.7586
8.426000	 64.7713
8.443999	 64.7945
8.462000	 64.8298
8.480000	 64.8814
8.498000	 64.938
8.516000	 64.9797
8.533999	 65.0024
8.552000	 65.0175
8.570000	 65.037
8.588000	 65.0625
8.606000	 65.0808
8.624000	 65.0681
8.641999	 65.0094
8.660000	 64.9151
8.678000	 64.8146
8.696000	 64.7419
8.714000	 64.7264
8.731999	 64.7856
8.750000	 64.9042
8.768000	 65.0249
8.786000	 65.0771
8.804000	 65.0271
8.821999	 64.9003
8.840000	 64.7601
8.858000	 64.6653
8.876000	 64.6418
8.894000	 64.6786
8.911999	 64.7424
8.930000	 64.8013
8.948000	 64.8412
8.966000	 64.8656
8.984000	 64.8804
9.001999	 64.8806
9.020000	 64.8504
9.038000	 64.7736
9.056000	 64.6432
9.074000	 64.4729
9.092000	 64.2985
9.109999	 64.1623
9.128000	 64.0875
9.146000	 64.0668
9.164000	 64.076
9.182000	 64.1008
9.199999	 64.1422
9.218000	 64.2052
9.236000	 64.2883
9.254000	 64.3875
9.272000	 64.498
9.289999	 64.6083
9.308000	 64.6977
9.326000	 64.7481
9.344000	 64.7537
9.362000	 64.7234
9.379999	 64.6671
9.398000	 64.592
9.416000	 64.5059
9.434000	 64.4228
9.452000	 64.357
9.469999	 64.3177
9.488000	 64.3095
9.506000	 64.3327
9.524000	 64.3817
9.542000	 64.4432
9.560000	 64.4998
9.577999	 64.537
9.596000	 64.5518
9.614000	 64.5516
9.632000	 64.5481
9.650000	 64.5467
9.667999	 64.542
9.686000	 64.5214
9.704000	 64.4762
9.722000	 64.4125
9.740000	 64.3497
9.757999	 64.3031
9.776000	 64.269
9.794000	 64.2301
9.812000	 64.179
9.830000	 64.1348
9.847999	 64.1336
9.866000	 64.1994
9.884000	 64.3217
9.902000	 64.4582
9.920000	 64.5626
9.937999	 64.6136
9.956000	 64.6225
9.974000	 64.6152
9.992000	 64.6092
10.01	64.6026
10.028	64.5801
10.046	64.5335
10.064	64.472
10.082	64.4169
10.1	64.3841
10.118	64.3713
10.136	64.3663
10.154	64.363
10.172	64.3693
10.19	64.3986
10.208	64.4521
10.226	64.5144
10.244	64.5631
10.262	64.5889
10.28	64.6034
10.298	64.6266
10.316	64.6686
10.334	64.7171
10.352	64.7473
10.37	64.7387
10.388	64.6902
10.406	64.6183
10.424	64.5454
10.442	64.4874
10.46	64.4465
10.478	64.4164
10.496	64.3903
10.514	64.3666
10.532	64.3491
10.55	64.3434
10.568	64.352
10.586	64.3722
10.604	64.3984
10.622	64.4239
10.64	64.4435
10.658	64.4553
10.676	64.4615
10.694	64.4665
10.712	64.4747
10.73	64.4882
10.748	64.5072
10.766	64.5313
10.784	64.5615
10.802	64.5968
10.82	64.63
10.838	64.6459
10.856	64.6305
10.874	64.5787
10.892	64.5033
10.91	64.4336
10.928	64.4006
10.946	64.4233
10.964	64.495
10.982	64.5858
11	64.6593
11.018	64.6872
11.036	64.6639
11.054	64.6041
11.072	64.5328
11.09	64.474
11.108	64.4389
11.126	64.4238
11.144	64.4135
11.162	64.3878
11.18	64.334
11.198	64.2504
11.216	64.1465
11.234	64.039
11.252	63.9447
11.27	63.873
11.288	63.8263
11.306	63.8003
11.324	63.79
11.342	63.7932
11.36	63.8105
11.378	63.8435
11.396	63.8906
11.414	63.9458
11.432	64.0004
11.45	64.0479
11.468	64.0841
11.486	64.107
11.504	64.1161
11.522	64.1096
11.54	64.0846
11.558	64.0395
11.576	63.9767
11.594	63.9032
11.612	63.8301
11.63	63.7682
11.648	63.7225
11.666	63.6918
11.684	63.6693
11.702	63.6485
11.72	63.6274
11.738	63.611
11.756	63.6098
11.774	63.6359
11.792	63.6973
11.81	63.7925
11.828	63.91
11.846	64.0286
11.864	64.1245
11.882	64.1787
11.9	64.1816
11.918	64.1357
11.936	64.0535
11.954	63.9521
11.972	63.8481
11.99	63.7528
12.008	63.6683
12.026	63.5919
12.044	63.5209
12.062	63.4584
12.08	63.4147
12.098	63.4036
12.116	63.4358
12.134	63.5115
12.152	63.6178
12.17	63.7356
12.188	63.8451
12.206	63.9342
12.224	64.0007
12.242	64.0496
12.26	64.0876
12.278	64.1179
12.296	64.1388
12.314	64.1454
12.332	64.1334
12.35	64.1043
12.368	64.0661
12.386	64.0327
12.404	64.018
12.422	64.0305
12.44	64.0699
12.458	64.1273
12.476	64.1878
12.494	64.2362
12.512	64.2619
12.53	64.2613
12.548	64.2374
12.566	64.1978
12.584	64.1516
12.602	64.1069
12.62	64.0686
12.638	64.0391
12.656	64.0192
12.674	64.0082
12.692	64.0048
12.71	64.0072
12.728	64.0133
12.746	64.0197
12.764	64.0231
12.782	64.0205
12.8	64.0104
12.818	63.9925
12.836	63.9674
12.854	63.936
12.872	63.8987
12.89	63.8571
12.908	63.8134
12.926	63.7713
12.944	63.7352
12.962	63.7109
12.98	63.7034
12.998	63.7152
13.016	63.7441
13.034	63.784
13.052	63.8256
13.07	63.8584
13.088	63.8738
13.106	63.8679
13.124	63.8426
13.142	63.8053
13.16	63.766
13.178	63.7355
13.196	63.7218
13.214	63.7296
13.232	63.7597
13.25	63.8092
13.268	63.8731
13.286	63.944
13.304	64.0134
13.322	64.071
13.34	64.1068
13.358	64.1104
13.376	64.073
13.394	63.9898
13.412	63.8614
13.43	63.6953
13.448	63.5055
13.466	63.3114
13.484	63.1343
13.502	62.9936
13.52	62.9028
13.538	62.8672
13.556	62.8838
13.574	62.9423
13.592	63.0277
13.61	63.1236
13.628	63.2152
13.646	63.2907
13.664	63.3437
13.682	63.371
13.7	63.3747
13.718	63.3593
13.736	63.3317
13.754	63.2993
13.772	63.2686
13.79	63.245
13.808	63.2311
13.826	63.2281
13.844	63.2349
13.862	63.2494
13.88	63.2685
13.898	63.2892
13.916	63.309
13.934	63.3263
13.952	63.3403
13.97	63.351
13.988	63.3591
14.006	63.365
14.024	63.3685
14.042	63.3691
14.06	63.3665
14.078	63.3603
14.096	63.3504
14.114	63.3379
14.132	63.3245
14.15	63.3119
14.168	63.3011
14.186	63.2923
14.204	63.284
14.222	63.2737
14.24	63.2585
14.258	63.2361
14.276	63.2052
14.294	63.1662
14.312	63.121
14.33	63.0731
14.348	63.0273
14.366	62.988
14.384	62.9596
14.402	62.9447
14.42	62.944
14.438	62.9565
14.456	62.9798
14.474	63.0102
14.492	63.0441
14.51	63.0772
14.528	63.1062
14.546	63.1286
14.564	63.1428
14.582	63.148
14.6	63.1436
14.618	63.1299
14.636	63.1075
14.654	63.0776
14.672	63.0417
14.69	63.0017
14.708	62.9594
14.726	62.9167
14.744	62.875
14.762	62.8355
14.78	62.7991
14.798	62.7661
14.816	62.7369
14.834	62.7117
14.852	62.6907
14.87	62.6739
14.888	62.6609
14.906	62.6509
14.924	62.6427
14.942	62.6347
14.96	62.6248
14.978	62.611
14.996	62.591
15.014	62.5635
15.032	62.5273
15.05	62.4827
15.068	62.4307
15.086	62.3732
15.104	62.3126
15.122	62.2523
15.14	62.1951
15.158	62.1433
15.176	62.099
15.194	62.0633
15.212	62.0368
15.23	62.0197
15.248	62.0119
15.266	62.0131
15.284	62.0232
15.302	62.042
15.32	62.0686
15.338	62.1019
15.356	62.1408
15.374	62.1823
15.392	62.2242
15.41	62.2641
15.428	62.2996
15.446	62.3291
15.464	62.3526
15.482	62.3703
15.5	62.3838
15.518	62.396
15.536	62.4096
15.554	62.4271
15.572	62.4506
15.59	62.4813
15.608	62.5187
15.626	62.5616
15.644	62.6077
15.662	62.6534
15.68	62.6962
15.698	62.7335
15.716	62.7631
15.734	62.7849
15.752	62.7996
15.77	62.8089
15.788	62.8158
15.806	62.823
15.824	62.8325
15.842	62.8467
15.86	62.8666
15.878	62.8917
15.896	62.9216
15.914	62.9538
15.932	62.986
15.95	63.0162
15.968	63.0414
15.986	63.0598
16.004	63.0701
16.022	63.0711
16.04	63.0623
16.058	63.0439
16.076	63.0158
16.094	62.9788
16.112	62.9333
16.13	62.88
16.148	62.8194
16.166	62.7524
16.184	62.6798
16.202	62.6028
16.22	62.5232
16.238	62.4429
16.256	62.3635
16.274	62.2881
16.292	62.2188
16.31	62.1578
16.328	62.108
16.346	62.0708
16.364	62.0473
16.382	62.0391
16.4	62.0465
16.418	62.0696
16.436	62.108
16.454	62.1606
16.472	62.2262
16.49	62.3023
16.508	62.3858
16.526	62.4745
16.544	62.5634
16.562	62.6484
16.58	62.7262
16.598	62.7913
16.616	62.8409
16.634	62.8721
16.652	62.8825
16.67	62.872
16.688	62.8404
16.706	62.7902
16.724	62.7236
16.742	62.6439
16.76	62.5569
16.778	62.4657
16.796	62.3759
16.814	62.2919
16.832	62.2163
16.85	62.153
16.868	62.1028
16.886	62.0668
16.904	62.0444
16.922	62.034
16.94	62.0341
16.958	62.0408
16.976	62.0523
16.994	62.0651
17.012	62.0767
17.03	62.0855
17.048	62.0888
17.066	62.0862
17.084	62.0768
17.102	62.0614
17.12	62.0402
17.138	62.0151
17.156	61.9878
17.174	61.9596
17.192	61.9332
17.21	61.9096
17.228	61.8907
17.246	61.877
17.264	61.8691
17.282	61.8667
17.3	61.8693
17.318	61.8758
17.336	61.8844
17.354	61.8943
17.372	61.9033
17.39	61.9111
17.408	61.9165
17.426	61.9196
17.444	61.9202
17.462	61.9195
17.48	61.9177
17.498	61.9167
17.516	61.9175
17.534	61.9214
17.552	61.9293
17.57	61.9414
17.588	61.9583
17.606	61.9793
17.624	62.004
17.642	62.0311
17.66	62.0604
17.678	62.0897
17.696	62.119
17.714	62.1471
17.732	62.1742
17.75	62.2002
17.768	62.2262
17.786	62.2524
17.804	62.2811
17.822	62.3125
17.84	62.3483
17.858	62.3883
17.876	62.433
17.894	62.4806
17.912	62.5308
17.93	62.5798
17.948	62.6267
17.966	62.6663
17.984	62.6973
18.002	62.7154
18.02	62.7188
18.038	62.7054
18.056	62.6745
18.074	62.6257
18.092	62.5608
18.11	62.4804
18.128	62.3888
18.146	62.2876
18.164	62.1821
18.182	62.075
18.2	61.9709
18.218	61.8732
18.236	61.7847
18.254	61.7085
18.272	61.6454
18.29	61.597
18.308	61.5633
18.326	61.5432
18.344	61.5359
18.362	61.5387
18.38	61.5501
18.398	61.5665
18.416	61.5859
18.434	61.6051
18.452	61.6217
18.47	61.6337
18.488	61.6389
18.506	61.6359
18.524	61.6239
18.542	61.6026
18.56	61.5718
18.578	61.5316
18.596	61.4838
18.614	61.4286
18.632	61.3689
18.65	61.305
18.668	61.2406
18.686	61.176
18.704	61.1143
18.722	61.0558
18.74	61.0033
18.758	60.9568
18.776	60.9183
18.794	60.8874
18.812	60.8651
18.83	60.8508
18.848	60.8441
18.866	60.8445
18.884	60.8508
18.902	60.8627
18.92	60.8788
18.938	60.8986
18.956	60.921
18.974	60.9456
18.992	60.9716
19.01	60.9986
19.028	61.026
19.046	61.0535
19.064	61.0807
19.082	61.1072
19.1	61.1326
19.118	61.1566
19.136	61.1788
19.154	61.1988
19.172	61.2162
19.19	61.2308
19.208	61.2423
19.226	61.2507
19.244	61.2562
19.262	61.2588
19.28	61.2594
19.298	61.258
19.316	61.2563
19.334	61.2542
19.352	61.2535
19.37	61.2541
19.388	61.2585
19.406	61.2664
19.424	61.2792
19.442	61.2969
19.46	61.3197
19.478	61.3478
19.496	61.3796
19.514	61.4151
19.532	61.4519
19.55	61.4893
19.568	61.5249
19.586	61.5561
19.604	61.5819
19.622	61.5987
19.64	61.6065
19.658	61.6016
19.676	61.5845
19.694	61.5529
19.712	61.5072
19.73	61.4474
19.748	61.3732
19.766	61.2871
19.784	61.1889
19.802	61.0819
19.82	60.9676
19.838	60.8485
19.856	60.7282
19.874	60.6073
19.892	60.4918
19.91	60.3808
19.928	60.2802
19.946	60.1894
19.964	60.1123
19.982	60.0494
20	60.0019
20.018	59.9709
20.036	59.9555
20.054	59.956
20.072	59.9716
20.09	59.9999
20.108	60.0412
20.126	60.0908
20.144	60.149
20.162	60.2112
20.18	60.276
20.198	60.341
20.216	60.4022
20.234	60.4599
20.252	60.5096
20.27	60.552
20.288	60.5846
20.306	60.607
20.324	60.6193
20.342	60.6209
20.36	60.6128
20.378	60.5958
20.396	60.57
20.414	60.5382
20.432	60.4999
20.45	60.4581
20.468	60.4138
20.486	60.3679
20.504	60.323
20.522	60.2786
20.54	60.2369
20.558	60.1978
20.576	60.1617
20.594	60.1291
20.612	60.0994
20.63	60.0721
20.648	60.0474
20.666	60.0236
20.684	60.0008
20.702	59.9784
20.72	59.9556
20.738	59.9325
20.756	59.9084
20.774	59.8834
20.792	59.8574
20.81	59.8304
20.828	59.8028
20.846	59.7749
20.864	59.7466
20.882	59.7191
20.9	59.6921
20.918	59.6663
20.936	59.642
20.954	59.619
20.972	59.5975
20.99	59.5775
21.008	59.5582
21.026	59.5396
21.044	59.5211
21.062	59.5014
21.08	59.481
21.098	59.4579
21.116	59.4319
21.134	59.4026
21.152	59.3685
21.17	59.3302
21.188	59.2868
21.206	59.2379
21.224	59.1839
21.242	59.1253
21.26	59.0617
21.278	58.9952
21.296	58.9252
21.314	58.8534
21.332	58.7825
21.35	58.7113
21.368	58.644
21.386	58.5811
21.404	58.5237
21.422	58.4765
21.44	58.4378
21.458	58.4114
21.476	58.3989
21.494	58.3998
21.512	58.4172
21.53	58.4504
21.548	58.5001
21.566	58.5678
21.584	58.6525
21.602	58.7524
21.62	58.8686
21.638	58.9983
21.656	59.139
21.674	59.292
21.692	59.45
21.71	59.6127
21.728	59.7779
21.746	59.9364
21.764	60.0915
21.782	60.2355
21.8	60.3623
21.818	60.4747
21.836	60.5628
21.854	60.6264
21.872	60.6644
21.89	60.671
21.908	60.6477
21.926	60.5939
21.944	60.5077
21.962	60.3903
21.98	60.2463
21.998	60.0735
22.016	59.8766
22.034	59.6644
22.052	59.4326
22.07	59.1912
22.088	58.9474
22.106	58.6977
22.124	58.4549
22.142	58.221
22.16	57.9964
22.178	57.7914
22.196	57.6044
22.214	57.4378
22.232	57.2967
22.25	57.1795
22.268	57.0865
22.286	57.0189
22.304	56.9758
22.322	56.9538
22.34	56.9537
22.358	56.9735
22.376	57.0063
22.394	57.0546
22.412	57.1138
22.43	57.1767
22.448	57.2468
22.466	57.318
22.484	57.3854
22.502	57.4517
22.52	57.5118
22.538	57.5635
22.556	57.6083
22.574	57.6424
22.592	57.6652
22.61	57.6774
22.628	57.6777
22.646	57.6659
22.664	57.6426
22.682	57.6087
22.7	57.5634
22.718	57.5084
22.736	57.4456
22.754	57.3739
22.772	57.2954
22.79	57.2117
22.808	57.1216
22.826	57.0278
22.844	56.9318
22.862	56.8324
22.88	56.7323
22.898	56.6322
22.916	56.5316
22.934	56.433
22.952	56.3367
22.97	56.2427
22.988	56.1545
23.006	56.0725
23.024	55.9965
23.042	55.9306
23.06	55.8754
23.078	55.8302
23.096	55.7967
23.114	55.7748
23.132	55.7646
23.15	55.7675
23.168	55.7832
23.186	55.8118
23.204	55.855
23.222	55.9126
23.24	55.9845
23.258	56.0713
23.276	56.1732
23.294	56.2898
23.312	56.4207
23.33	56.5667
23.348	56.7268
23.366	56.8983
23.384	57.083
23.402	57.2789
23.42	57.4806
23.438	57.6894
23.456	57.9041
23.474	58.1179
23.492	58.3304
23.51	58.5423
23.528	58.7479
23.546	58.947
23.564	59.1403
23.582	59.3204
23.6	59.4855
23.618	59.6378
23.636	59.7696
23.654	59.8776
23.672	59.9651
23.69	60.0253
23.708	60.0534
23.726	60.0534
23.744	60.0206
23.762	59.9506
23.78	59.8455
23.798	59.7048
23.816	59.5271
23.834	59.3113
23.852	59.0607
23.87	58.7785
23.888	58.4619
23.906	58.1145
23.924	57.7437
23.942	57.3478
23.96	56.9278
23.978	56.4936
23.996	56.0472
24.014	55.5853
24.032	55.1194
24.05	54.656
24.068	54.1887
24.086	53.7274
24.104	53.2817
24.122	52.8468
24.14	52.4253
24.158	52.0227
24.176	51.6378
24.194	51.2704
24.212	50.923
24.23	50.597
24.248	50.291
24.266	50.0035
24.284	49.7332
24.302	49.4803
24.32	49.2465
24.338	49.033
24.356	48.8382
24.374	48.6642
24.392	48.5141
24.41	48.3835
24.428	48.2759
24.446	48.2022
24.464	48.1634
24.482	48.1539
24.5	48.1921
24.518	48.2924
24.536	48.4411
24.554	48.6524
24.572	48.9462
24.59	49.3176
24.608	49.7663
24.626	50.3077
24.644	50.9509
24.662	51.6885
24.68	52.5194
24.698	53.4441
24.716	54.4671
24.734	55.5794
24.752	56.7687
24.77	58.0455
24.788	59.406
24.806	60.8123
24.824	62.2437
24.842	63.7328
24.86	65.2313
24.878	66.6821
24.896	68.1144
24.914	69.5152
24.932	70.8152
24.95	71.9825
24.968	73.0615
24.986	73.9953
25.004	74.7231
25.022	75.2714
25.04	75.6338
25.058	75.7688
25.076	75.6539
25.094	75.3117
25.112	74.7351
25.13	73.9145
25.148	72.8361
25.166	71.5229
25.184	70.0085
25.202	68.2963
25.22	66.3603
25.238	64.2684
25.256	62.0892
25.274	59.7739
25.292	57.3503
25.31	54.9096
25.328	52.4982
25.346	50.0497
25.364	47.6411
25.382	45.3619
25.4	43.189
25.418	41.1128
25.436	39.2029
25.454	37.5133
25.472	36.0009
25.49	34.6852
25.508	33.6015
25.526	32.7622
25.544	32.1484
25.562	31.7645
25.58	31.6157
25.598	31.7117
25.616	32.0368
25.634	32.5675
25.652	33.2941
25.67	34.2386
25.688	35.3673
25.706	36.6405
25.724	38.0645
25.742	39.6508
25.76	41.3538
25.778	43.1318
25.796	45.0201
25.814	46.9991
25.832	49.0174
25.85	51.0425
25.868	53.1135
25.886	55.1998
25.904	57.2607
25.922	59.2925
25.94	61.3179
25.958	63.2969
25.976	65.1889
25.994	67.003
26.012	68.7477
26.03	70.4043
26.048	71.9554
26.066	73.4009
26.084	74.7533
26.102	76.0243
26.12	77.2162
26.138	78.309
26.156	79.3351
26.174	80.3327
26.192	81.3054
26.21	82.2241
26.228	83.1407
26.246	84.1097
26.264	85.1224
26.282	86.1581
26.3	87.2682
26.318	88.503
26.336	89.8446
26.354	91.2851
26.372	92.8548
26.39	94.582
26.408	96.4586
26.426	98.4762
26.444	100.636
26.462	102.941
26.48	105.413
26.498	108.021
26.516	110.726
26.534	113.502
26.552	116.393
26.57	119.361
26.588	122.349
26.606	125.324
26.624	128.339
26.642	131.353
26.66	134.318
26.678	137.205
26.696	140.055
26.714	142.843
26.732	145.535
26.75	148.109
26.768	150.587
26.786	152.968
26.804	155.252
26.822	157.435
26.84	159.511
26.858	161.498
26.876	163.413
26.894	165.26
26.912	167.019
26.93	168.718
26.948	170.388
26.966	172.116
26.984	173.985
27.002	175.739
27.02	177.105
27.028	177.474