File: Bakgrunnsmateriale/MATLAB/FTIR/ftir_data/subBb/Mapping_121/C-4040-8_t21_cm-1.asc
PE IR       SPECTRUM    SPECTRUM    ASCII       PEDS        1.60
  -1
C-9AE4~1.ASC
17/03/27
16:08:27.00
17/03/27
16:08:27.00
tln
$C-4040-8_t0021$<tbV0>[-10.4,-10.4,8.0,0.0,27,1,0]
370
64

2002,4.07
MIRTGS : RIGHTBACK : INTERNAL 2
MIR : ON : INTERNAL 2
OPTKBR

0.200000
8
8.000000
FILLER
RATIO
SPECTRUM
UNLOCKED 256

DOUBLE
64
COMBINED
1
0
0

1.000000
RATIO

1
0
TRUE
51149
0
LEFT NOT FITTED RIGHT NOT FITTED 0
NONE
NONE
15600
12
4.427000
51148
TRUE
1 0 8 72 0 0 0 0

15798

#HDR
-1
-1
#GR
CM-1
%T
2.38419e-05
0.0
5000
-1.000000
4631
8
75.7084
20.6542
#DATA
5000	63.9439
4996	63.5419
4992	63.8353
4988	64.2761
4984	64.0758
4980	63.6993
4976	63.614
4972	63.7325
4968	64.0833
4964	63.8209
4960	62.9548
4956	62.802
4952	63.0115
4948	62.6611
4944	62.013
4940	62.1649
4936	63.1857
4932	63.5776
4928	62.9868
4924	62.9354
4920	63.6359
4916	63.9799
4912	64.0998
4908	64.3887
4904	64.6801
4900	64.5994
4896	64.0904
4892	63.8282
4888	63.9355
4884	64.0877
4880	64.011
4876	63.8668
4872	64.158
4868	64.4822
4864	64.391
4860	64.1567
4856	64.0906
4852	64.1679
4848	64.2804
4844	64.3296
4840	64.2605
4836	64.1748
4832	64.0585
4828	64.0077
4824	63.8967
4820	63.6389
4816	63.5741
4812	63.6005
4808	63.5306
4804	63.435
4800	63.4156
4796	63.6424
4792	64.074
4788	64.3803
4784	64.2255
4780	63.9532
4776	64.0856
4772	64.1725
4768	63.8765
4764	63.7177
4760	63.8287
4756	63.9761
4752	64.1822
4748	64.3862
4744	64.3768
4740	64.1482
4736	63.8378
4732	63.5951
4728	63.5849
4724	63.8064
4720	64.0976
4716	64.3081
4712	64.3764
4708	64.3414
4704	64.2802
4700	64.1813
4696	64.0055
4692	63.8436
4688	63.9057
4684	64.0455
4680	64.1047
4676	64.2154
4672	64.2244
4668	64.114
4664	63.9959
4660	63.9196
4656	63.9256
4652	63.8619
4648	63.7422
4644	63.7766
4640	63.9596
4636	64.138
4632	64.2672
4628	64.3116
4624	64.304
4620	64.3624
4616	64.2375
4612	63.8893
4608	63.9032
4604	64.0644
4600	63.8948
4596	63.8027
4592	63.8239
4588	63.7758
4584	63.78
4580	63.8174
4576	63.7439
4572	63.4985
4568	63.5245
4564	63.8489
4560	63.9647
4556	63.8638
4552	63.5963
4548	63.4541
4544	63.4822
4540	63.4807
4536	63.5224
4532	63.3634
4528	63.3433
4524	63.5174
4520	63.4423
4516	63.2902
4512	63.2128
4508	63.4042
4504	63.7388
4500	63.595
4496	63.1237
4492	62.7345
4488	62.6403
4484	62.8142
4480	63.2836
4476	63.4925
4472	63.2741
4468	63.3814
4464	63.6839
4460	64.1597
4456	64.9477
4452	67.1797
4448	69.8245
4444	69.7745
4440	66.7485
4436	62.6203
4432	60.9277
4428	61.3939
4424	61.3716
4420	61.4557
4416	61.8514
4412	62.2659
4408	62.7874
4404	62.7563
4400	62.4111
4396	62.368
4392	62.6688
4388	63.4133
4384	63.5743
4380	64.4136
4376	68.7808
4372	73.3898
4368	74.0532
4364	70.9878
4360	66.9559
4356	64.5036
4352	63.7375
4348	63.9003
4344	64.0633
4340	63.6346
4336	63.0776
4332	62.8011
4328	62.6696
4324	62.7946
4320	63.0413
4316	62.8402
4312	62.557
4308	62.6479
4304	62.8692
4300	63.0331
4296	63.0543
4292	63.1095
4288	63.1216
4284	63.0069
4280	63.0579
4276	63.1554
4272	63.1392
4268	63.1279
4264	63.1266
4260	63.0272
4256	62.903
4252	62.8729
4248	62.8396
4244	62.8462
4240	62.9023
4236	62.8026
4232	62.6694
4228	62.6374
4224	62.6487
4220	62.7982
4216	63.033
4212	63.2063
4208	63.2668
4204	63.1634
4200	62.9318
4196	62.7313
4192	62.5563
4188	62.2485
4184	62.0248
4180	62.1833
4176	62.4817
4172	62.7988
4168	63.2014
4164	63.4115
4160	63.3917
4156	63.3769
4152	63.3165
4148	63.19
4144	63.2493
4140	63.445
4136	63.4826
4132	63.3894
4128	63.3292
4124	63.2834
4120	63.2478
4116	63.2528
4112	63.1156
4108	62.8954
4104	62.8786
4100	62.9909
4096	63.122
4092	63.3339
4088	63.53
4084	63.5256
4080	63.4407
4076	63.4794
4072	63.5653
4068	63.5329
4064	63.3495
4060	63.2262
4056	63.2421
4052	63.2415
4048	63.2005
4044	63.2429
4040	63.3884
4036	63.4829
4032	63.4848
4028	63.4421
4024	63.3889
4020	63.477
4016	63.6368
4012	63.606
4008	63.4791
4004	63.4552
4000	63.3906
3996	63.179
3992	63.069
3988	63.1425
3984	63.1986
3980	63.1425
3976	63.0398
3972	63.0228
3968	63.1289
3964	63.2569
3960	63.1714
3956	62.9344
3952	62.9301
3948	63.1225
3944	63.1747
3940	63.0547
3936	63.0064
3932	63.021
3928	63.0623
3924	63.1203
3920	62.999
3916	62.9159
3912	63.0432
3908	63.1451
3904	63.1966
3900	63.1469
3896	62.9566
3892	62.8524
3888	62.8596
3884	62.7954
3880	62.6704
3876	62.6928
3872	62.7514
3868	62.7443
3864	62.7975
3860	62.8976
3856	63.0972
3852	63.1429
3848	62.9879
3844	62.9777
3840	62.9904
3836	62.8294
3832	62.5952
3828	62.4033
3824	62.31
3820	62.4057
3816	62.5493
3812	62.6588
3808	62.817
3804	62.9796
3800	63.0424
3796	62.9451
3792	62.8317
3788	62.8114
3784	62.7354
3780	62.575
3776	62.5519
3772	62.6273
3768	62.634
3764	62.5878
3760	62.5523
3756	62.7089
3752	63.0008
3748	63.1385
3744	63.044
3740	62.906
3736	62.8838
3732	62.7705
3728	62.5853
3724	62.5812
3720	62.7049
3716	62.8399
3712	62.805
3708	62.5641
3704	62.4264
3700	62.3928
3696	62.3612
3692	62.4023
3688	62.4036
3684	62.3797
3680	62.4858
3676	62.6425
3672	62.5878
3668	62.3266
3664	62.1779
3660	62.227
3656	62.2996
3652	62.3938
3648	62.4631
3644	62.4118
3640	62.3853
3636	62.4627
3632	62.5206
3628	62.3868
3624	62.19
3620	62.1023
3616	62.0664
3612	62.0141
3608	61.8927
3604	61.8229
3600	61.8765
3596	62.009
3592	62.1776
3588	62.2172
3584	62.1211
3580	62.0722
3576	62.0042
3572	61.8657
3568	61.8062
3564	61.8633
3560	62.0101
3556	62.1067
3552	62.0537
3548	61.881
3544	61.6644
3540	61.5595
3536	61.5682
3532	61.632
3528	61.7122
3524	61.742
3520	61.7578
3516	61.7396
3512	61.6167
3508	61.5365
3504	61.6184
3500	61.7136
3496	61.6882
3492	61.643
3488	61.6631
3484	61.673
3480	61.566
3476	61.4455
3472	61.4582
3468	61.4829
3464	61.4483
3460	61.4539
3456	61.4904
3452	61.4614
3448	61.3822
3444	61.4011
3440	61.4718
3436	61.3948
3432	61.2431
3428	61.1483
3424	61.1481
3420	61.1465
3416	61.0726
3412	61.1675
3408	61.2804
3404	61.1795
3400	61.1534
3396	61.2047
3392	61.1446
3388	61.0881
3384	61.0725
3380	60.9882
3376	60.9095
3372	60.9375
3368	61.0225
3364	61.0505
3360	60.9954
3356	60.9121
3352	60.8269
3348	60.8127
3344	60.8552
3340	60.8688
3336	60.8224
3332	60.7579
3328	60.7356
3324	60.7526
3320	60.7529
3316	60.7349
3312	60.7397
3308	60.7612
3304	60.7591
3300	60.6962
3296	60.6052
3292	60.5686
3288	60.5399
3284	60.4825
3280	60.5252
3276	60.6549
3272	60.7235
3268	60.6822
3264	60.5336
3260	60.4059
3256	60.4161
3252	60.4657
3248	60.5042
3244	60.5055
3240	60.428
3236	60.3658
3232	60.3323
3228	60.3138
3224	60.3674
3220	60.397
3216	60.3742
3212	60.396
3208	60.377
3204	60.2514
3200	60.1332
3196	60.1142
3192	60.1618
3188	60.223
3184	60.2708
3180	60.22
3176	60.0417
3172	59.9222
3168	59.9935
3164	60.1073
3160	60.1364
3156	60.1123
3152	60.0875
3148	60.0703
3144	59.9839
3140	59.8341
3136	59.7601
3132	59.726
3128	59.7518
3124	59.9549
3120	60.1323
3116	60.1152
3112	59.9302
3108	59.6891
3104	59.5688
3100	59.545
3096	59.5245
3092	59.5444
3088	59.5604
3084	59.5215
3080	59.5461
3076	59.6494
3072	59.6817
3068	59.6551
3064	59.6447
3060	59.5842
3056	59.501
3052	59.4868
3048	59.4851
3044	59.4317
3040	59.3829
3036	59.3761
3032	59.3163
3028	59.2225
3024	59.2666
3020	59.3404
3016	59.2846
3012	59.214
3008	59.1202
3004	58.9484
3000	58.8876
2996	58.9755
2992	59.032
2988	59.0307
2984	58.9933
2980	58.922
2976	58.8425
2972	58.8198
2968	58.8317
2964	58.7718
2960	58.7058
2956	58.6494
2952	58.5852
2948	58.586
2944	58.6174
2940	58.6465
2936	58.713
2932	58.7038
2928	58.5546
2924	58.4137
2920	58.3351
2916	58.3108
2912	58.2979
2908	58.27
2904	58.3292
2900	58.3811
2896	58.3073
2892	58.27
2888	58.2654
2884	58.2434
2880	58.2105
2876	58.1457
2872	58.2101
2868	58.3432
2864	58.2817
2860	58.0545
2856	57.9311
2852	57.9494
2848	57.9965
2844	58.0842
2840	58.1632
2836	58.1703
2832	58.0983
2828	58.0202
2824	58.0271
2820	58.0551
2816	58.0308
2812	58.0019
2808	57.9429
2804	57.8499
2800	57.8044
2796	57.7695
2792	57.7385
2788	57.7604
2784	57.775
2780	57.725
2776	57.6127
2772	57.5432
2768	57.6308
2764	57.6995
2760	57.6391
2756	57.5985
2752	57.5979
2748	57.5944
2744	57.5874
2740	57.5513
2736	57.4824
2732	57.4338
2728	57.4215
2724	57.3857
2720	57.3179
2716	57.2608
2712	57.2135
2708	57.2166
2704	57.2712
2700	57.2743
2696	57.2249
2692	57.1702
2688	57.1237
2684	57.1149
2680	57.1092
2676	57.0316
2672	56.9158
2668	56.8303
2664	56.7995
2660	56.82
2656	56.8516
2652	56.8378
2648	56.7448
2644	56.6639
2640	56.6559
2636	56.6394
2632	56.613
2628	56.6293
2624	56.6124
2620	56.5193
2616	56.4725
2612	56.4936
2608	56.4513
2604	56.3714
2600	56.3183
2596	56.2963
2592	56.2879
2588	56.1892
2584	56.1018
2580	56.1084
2576	56.1153
2572	56.1243
2568	56.1165
2564	56.1023
2560	56.0911
2556	56.0447
2552	55.9448
2548	55.8578
2544	55.858
2540	55.8468
2536	55.7776
2532	55.714
2528	55.6903
2524	55.7192
2520	55.731
2516	55.7132
2512	55.7084
2508	55.7189
2504	55.7064
2500	55.5674
2496	55.3964
2492	55.3604
2488	55.36
2484	55.3065
2480	55.3
2476	55.353
2472	55.3848
2468	55.4
2464	55.4076
2460	55.3653
2456	55.2679
2452	55.2016
2448	55.1924
2444	55.1762
2440	55.1128
2436	54.9567
2432	54.8427
2428	54.8415
2424	54.8103
2420	54.8139
2416	54.8305
2412	54.7792
2408	54.7509
2404	54.7526
2400	54.7389
2396	54.6924
2392	54.6835
2388	54.7265
2384	54.6881
2380	54.5533
2376	54.4597
2372	54.4672
2368	54.4783
2364	54.4671
2360	54.4577
2356	54.3889
2352	54.2909
2348	54.2211
2344	54.1919
2340	54.2084
2336	54.2219
2332	54.2043
2328	54.159
2324	54.0991
2320	53.999
2316	53.8416
2312	53.7455
2308	53.7772
2304	53.8503
2300	53.8676
2296	53.8195
2292	53.7586
2288	53.692
2284	53.6006
2280	53.5614
2276	53.6017
2272	53.5996
2268	53.5505
2264	53.5041
2260	53.4391
2256	53.3851
2252	53.361
2248	53.2955
2244	53.1942
2240	53.1368
2236	53.1163
2232	53.1223
2228	53.1157
2224	53.0741
2220	53.0416
2216	52.9985
2212	52.9474
2208	52.9218
2204	52.921
2200	52.9167
2196	52.9134
2192	52.9025
2188	52.8138
2184	52.7256
2180	52.6909
2176	52.6334
2172	52.5519
2168	52.4765
2164	52.4243
2160	52.3815
2156	52.4001
2152	52.4696
2148	52.4263
2144	52.2953
2140	52.2221
2136	52.1718
2132	52.1249
2128	52.1296
2124	52.1141
2120	52.0921
2116	52.1041
2112	52.0605
2108	51.9672
2104	51.8949
2100	51.8488
2096	51.8354
2092	51.8671
2088	51.9083
2084	51.9174
2080	51.8569
2076	51.6936
2072	51.5104
2068	51.4689
2064	51.5259
2060	51.4855
2056	51.4069
2052	51.4501
2048	51.494
2044	51.4356
2040	51.3729
2036	51.3366
2032	51.2826
2028	51.2034
2024	51.1222
2020	51.041
2016	50.9799
2012	50.9961
2008	51.0503
2004	51.0131
2000	50.9339
1996	50.9409
1992	50.941
1988	50.8501
1984	50.7543
1980	50.7082
1976	50.6736
1972	50.6238
1968	50.6101
1964	50.6203
1960	50.5844
1956	50.5288
1952	50.4888
1948	50.4567
1944	50.4073
1940	50.3373
1936	50.2883
1932	50.2531
1928	50.238
1924	50.2567
1920	50.2442
1916	50.1839
1912	50.087
1908	49.9386
1904	49.8292
1900	49.8597
1896	49.9287
1892	49.9272
1888	49.9046
1884	49.8991
1880	49.8969
1876	49.841
1872	49.7166
1868	49.6033
1864	49.5368
1860	49.5336
1856	49.5651
1852	49.5198
1848	49.4009
1844	49.3225
1840	49.2769
1836	49.2499
1832	49.2659
1828	49.2348
1824	49.1702
1820	49.1444
1816	49.1191
1812	49.0708
1808	49.0268
1804	49.0188
1800	49.0266
1796	49.0233
1792	48.9924
1788	48.9495
1784	48.9087
1780	48.8389
1776	48.7972
1772	48.777
1768	48.717
1764	48.6728
1760	48.6251
1756	48.551
1752	48.5027
1748	48.4756
1744	48.4491
1740	48.4347
1736	48.4344
1732	48.3726
1728	48.2509
1724	48.2084
1720	48.3107
1716	48.3761
1712	48.2574
1708	48.1547
1704	48.2246
1700	48.255
1696	48.0615
1692	47.8627
1688	47.8644
1684	47.8803
1680	47.753
1676	47.676
1672	47.6983
1668	47.6573
1664	47.5779
1660	47.6198
1656	47.8173
1652	47.9039
1648	47.7617
1644	47.6001
1640	47.5295
1636	47.4723
1632	47.3362
1628	47.2081
1624	47.1637
1620	47.1416
1616	47.0396
1612	46.8442
1608	46.7516
1604	46.7621
1600	46.726
1596	46.7035
1592	46.6902
1588	46.6563
1584	46.644
1580	46.6886
1576	46.7181
1572	46.6265
1568	46.5271
1564	46.5978
1560	46.7159
1556	46.6229
1552	46.4204
1548	46.3258
1544	46.4134
1540	46.4452
1536	46.2406
1532	46.0456
1528	46.0114
1524	46.085
1520	46.1167
1516	46.0749
1512	46.111
1508	46.1756
1504	46.0648
1500	45.8686
1496	45.7607
1492	45.7397
1488	45.7148
1484	45.5939
1480	45.4893
1476	45.5053
1472	45.4981
1468	45.4434
1464	45.4497
1460	45.4788
1456	45.4606
1452	45.3312
1448	45.2326
1444	45.2873
1440	45.3234
1436	45.2083
1432	45.0447
1428	44.9803
1424	45.0083
1420	44.9979
1416	44.8204
1412	44.5995
1408	44.5194
1404	44.5453
1400	44.585
1396	44.5674
1392	44.5319
1388	44.5219
1384	44.4755
1380	44.453
1376	44.4771
1372	44.4049
1368	44.2466
1364	44.1626
1360	44.1693
1356	44.1953
1352	44.191
1348	44.1082
1344	43.9962
1340	43.89
1336	43.7813
1332	43.7256
1328	43.7543
1324	43.8253
1320	43.8273
1316	43.704
1312	43.562
1308	43.4968
1304	43.4639
1300	43.3923
1296	43.3403
1292	43.3532
1288	43.369
1284	43.3157
1280	43.2267
1276	43.1752
1272	43.1235
1268	43.0841
1264	43.0896
1260	43.0962
1256	43.0617
1252	42.9538
1248	42.8491
1244	42.8092
1240	42.7935
1236	42.7613
1232	42.689
1228	42.5738
1224	42.509
1220	42.518
1216	42.4849
1212	42.4282
1208	42.3749
1204	42.329
1200	42.3373
1196	42.3488
1192	42.2984
1188	42.1898
1184	42.0954
1180	42.0233
1176	41.972
1172	42.0047
1168	42.0702
1164	42.0323
1160	41.8885
1156	41.8187
1152	41.866
1148	41.8462
1144	41.6864
1140	41.5517
1136	41.5197
1132	41.5312
1128	41.534
1124	41.4711
1120	41.4268
1116	41.4707
1112	41.4763
1108	41.3497
1104	41.1664
1100	41.0813
1096	41.1318
1092	41.2064
1088	41.1673
1084	40.9421
1080	40.7156
1076	40.6467
1072	40.6724
1068	40.7045
1064	40.6719
1060	40.5798
1056	40.4758
1052	40.3943
1048	40.3476
1044	40.3695
1040	40.3819
1036	40.3538
1032	40.3585
1028	40.3382
1024	40.3415
1020	40.45
1016	40.4896
1012	40.3704
1008	40.1614
1004	39.9984
1000	40.0194
996	 40.0591
992	 39.98
988	 39.8105
984	 39.6559
980	 39.7005
976	 39.8394
972	 39.8594
968	 39.7906
964	 39.6034
960	 39.3272
956	 39.1911
952	 39.223
948	 39.309
944	 39.3333
940	 39.2462
936	 39.0599
932	 38.8459
928	 38.8936
924	 39.0647
920	 38.9165
916	 38.7158
912	 38.6219
908	 38.4289
904	 38.3349
900	 38.3384
896	 38.3381
892	 38.3811
888	 38.404
884	 38.4279
880	 38.4471
876	 38.3587
872	 38.1372
868	 37.9338
864	 37.9003
860	 37.9081
856	 37.7788
852	 37.6671
848	 37.6742
844	 37.6195
840	 37.4438
836	 37.2695
832	 37.2278
828	 37.3186
824	 37.3684
820	 37.3065
816	 37.1727
812	 37.1322
808	 37.1607
804	 36.9493
800	 36.7225
796	 36.6416
792	 36.5703
788	 36.5741
784	 36.5082
780	 36.3683
776	 36.3955
772	 36.4732
768	 36.4453
764	 36.3649
760	 36.2708
756	 36.1624
752	 36.0357
748	 36.0067
744	 36.1149
740	 36.0646
736	 35.7378
732	 35.4795
728	 35.3733
724	 35.2274
720	 35.0331
716	 34.8538
712	 34.8436
708	 34.8824
704	 34.7378
700	 34.5982
696	 34.4666
692	 34.1943
688	 34.0217
684	 33.9983
680	 33.9458
676	 33.9877
672	 34.1645
668	 34.2169
664	 34.1607
660	 34.1329
656	 34.0476
652	 33.9552
648	 33.8274
644	 33.6302
640	 33.4517
636	 33.2685
632	 33.1039
628	 33.072
624	 32.9118
620	 32.4738
616	 32.2031
612	 32.147
608	 32.22
604	 32.4428
600	 32.5208
596	 32.4986
592	 32.3837
588	 32.0611
584	 31.9093
580	 31.8847
576	 31.5867
572	 31.1718
568	 30.7973
564	 30.6868
560	 30.9275
556	 30.9375
552	 30.7144
548	 30.6989
544	 30.6533
540	 30.3988
536	 30.0956
532	 29.9918
528	 30.1347
524	 30.0513
520	 29.6309
516	 29.2236
512	 29.1925
508	 29.293
504	 29.2128
500	 29.4575
496	 29.6484
492	 29.0062
488	 28.0306
484	 27.7035
480	 28.1541
476	 28.6424
472	 28.1775
468	 26.862
464	 26.119
460	 26.198
456	 26.2398
452	 25.8464
448	 25.3257
444	 25.4423
440	 25.64
436	 25.5434
432	 26.1343
428	 26.9178
424	 27.1817
420	 27.1888
416	 27.3644
412	 27.5117
408	 25.2208
404	 21.1081
400	 23.0412
396	 32.3697
392	 38.6848
388	 51.2222
384	 73.3994
380	 67.1725
376	 43.6108
372	 33.1744
370	 31.8628