File: Bakgrunnsmateriale/MATLAB/FTIR/ftir_data/subBb/Mapping_121/C-4040-8_t101.asc
PE IR       SPECTRUM    SPECTRUM    ASCII       PEDS        1.60
  -1
C-80C6~1.ASC
17/03/27
22:47:24.00
17/03/27
22:47:50.00
tln
$C-4040-8_t0101$<tbV0>[10.4,10.4,8.0,0.0,27,1,0]
27.028
64

2002,4.07
MIRTGS : RIGHTBACK : INTERNAL 2
MIR : ON : INTERNAL 2
OPTKBR

0.200000
8
8.000000
FILLER
RATIO
SPECTRUM
UNLOCKED 256

DOUBLE
64
COMBINED
1
0
0

0.002000
RATIO

1
0
TRUE
51149
0
LEFT NOT FITTED RIGHT NOT FITTED 0
NONE
NONE
15600
12
4.427000
51148
TRUE
1 0 8 72 0 0 0 0

15798

#HDR
-1
-1
#GR
µM
%T
2.38419e-05
0.0
2.000000
0.002000
12515
8
200
41.6779
#DATA
2.000000	 65.4205
2.018000	 64.9238
2.036000	 65.0266
2.054000	 65.1702
2.072000	 65.1212
2.090000	 64.9916
2.108000	 64.9831
2.126000	 65.086
2.144000	 65.1524
2.162000	 65.2377
2.180000	 65.2149
2.198000	 65.3307
2.216000	 64.7789
2.234000	 64.6312
2.252000	 63.7266
2.270000	 65.9697
2.288000	 64.8451
2.306000	 64.0442
2.324000	 64.2763
2.342000	 64.5275
2.360000	 64.4832
2.378000	 64.5026
2.396000	 65.8778
2.414000	 65.2798
2.432000	 65.3695
2.450000	 65.1381
2.468000	 65.041
2.486000	 65.1405
2.504000	 65.1022
2.522000	 65.3292
2.540000	 65.1225
2.558000	 65.2106
2.576000	 64.7898
2.594000	 64.9979
2.612000	 65.0253
2.630000	 64.9066
2.648000	 65.0998
2.666000	 65.1493
2.684000	 65.3388
2.702000	 65.0742
2.720000	 64.9366
2.738000	 65.1317
2.756000	 65.1696
2.774000	 65.1071
2.792000	 65.0279
2.810000	 65.3335
2.828000	 65.0589
2.846000	 65.1024
2.864000	 65.2251
2.882000	 65.1852
2.900000	 65.0929
2.918000	 64.9589
2.936000	 65.2063
2.954000	 65.0134
2.972000	 65.0654
2.990000	 65.3122
3.008000	 65.1303
3.026000	 65.1006
3.044000	 64.9916
3.062000	 65.0816
3.080000	 65.285
3.098000	 65.1565
3.116000	 65.2034
3.134000	 64.9426
3.152000	 65.3393
3.170000	 65.3816
3.188000	 65.2721
3.206000	 65.0628
3.224000	 65.3332
3.242000	 64.9588
3.260000	 65.1813
3.278000	 65.0904
3.296000	 65.4298
3.314000	 65.1721
3.332000	 65.1489
3.350000	 65.2088
3.368000	 64.8958
3.386000	 64.9682
3.404000	 65.1471
3.422000	 64.7898
3.440000	 64.9554
3.458000	 65.004
3.476000	 65.1334
3.494000	 65.1004
3.512000	 64.7831
3.530000	 65.2229
3.548000	 65.0854
3.566000	 65.1394
3.584000	 65.249
3.602000	 65.2264
3.620000	 65.1073
3.638000	 65.322
3.656000	 65.1524
3.674000	 65.1243
3.692000	 65.1915
3.710000	 65.1148
3.728000	 65.2165
3.746000	 65.211
3.764000	 65.2536
3.782000	 65.1966
3.800000	 65.1193
3.818000	 65.1768
3.836000	 65.1206
3.854000	 65.2502
3.872000	 65.2661
3.890000	 65.2423
3.908000	 65.2172
3.926000	 65.1424
3.944000	 65.1347
3.962000	 65.2022
3.980000	 65.146
3.998000	 65.4098
4.016000	 65.4335
4.034000	 65.3376
4.052000	 65.2186
4.070000	 65.2069
4.088000	 65.004
4.106000	 65.162
4.124000	 64.7429
4.141999	 65.3537
4.160000	 65.3577
4.178000	 65.285
4.196000	 65.2822
4.214000	 65.1448
4.232000	 65.1926
4.250000	 65.2465
4.268000	 65.1773
4.286000	 65.1419
4.304000	 65.1748
4.322000	 65.2924
4.340000	 65.2147
4.358000	 65.2002
4.375999	 65.2642
4.394000	 65.2252
4.412000	 65.242
4.430000	 65.34
4.448000	 65.2374
4.466000	 65.0077
4.484000	 65.337
4.502000	 65.2888
4.520000	 65.0964
4.538000	 65.0791
4.556000	 65.2226
4.574000	 65.2901
4.592000	 65.2807
4.609999	 65.2531
4.628000	 65.4664
4.646000	 65.3636
4.664000	 65.0755
4.682000	 65.3043
4.700000	 65.1943
4.718000	 65.0996
4.736000	 65.4597
4.754000	 65.2805
4.772000	 65.2107
4.790000	 65.1259
4.808000	 65.3226
4.826000	 65.5676
4.843999	 65.6438
4.862000	 65.0006
4.880000	 65.0157
4.898000	 65.2949
4.916000	 65.1971
4.934000	 65.257
4.952000	 65.1783
4.970000	 65.1469
4.988000	 65.1986
5.006000	 65.177
5.024000	 65.1691
5.042000	 65.2016
5.060000	 65.1643
5.077999	 65.3419
5.096000	 65.3314
5.114000	 65.2723
5.132000	 65.1898
5.150000	 65.2246
5.168000	 65.395
5.186000	 65.3201
5.204000	 65.1933
5.222000	 65.1297
5.240000	 65.1488
5.258000	 65.2214
5.276000	 65.1713
5.294000	 65.2551
5.312000	 65.3044
5.330000	 65.2111
5.348000	 65.1883
5.366000	 65.263
5.384000	 65.2537
5.402000	 65.224
5.420000	 65.2844
5.438000	 65.3802
5.456000	 65.3033
5.474000	 65.2661
5.492000	 65.2219
5.510000	 65.2701
5.528000	 65.2108
5.546000	 65.1721
5.564000	 65.1425
5.582000	 65.1839
5.600000	 65.1655
5.618000	 65.1493
5.636000	 65.1518
5.654000	 65.1545
5.672000	 65.1462
5.690000	 65.0985
5.708000	 64.9481
5.726000	 64.9075
5.744000	 64.9202
5.762000	 64.762
5.780000	 64.7376
5.798000	 64.8477
5.816000	 64.9526
5.834000	 65.233
5.852000	 65.3449
5.870000	 65.2136
5.888000	 65.0794
5.906000	 65.1526
5.923999	 65.2241
5.942000	 65.1169
5.960000	 65.0503
5.978000	 65.1191
5.996000	 65.2125
6.014000	 65.1988
6.032000	 65.1162
6.050000	 65.0567
6.068000	 65.1222
6.086000	 65.1613
6.104000	 65.1344
6.122000	 65.1334
6.140000	 65.1477
6.158000	 65.1763
6.176000	 65.2281
6.194000	 65.1788
6.212000	 65.1334
6.230000	 65.0886
6.248000	 65.0168
6.266000	 64.9966
6.284000	 65.0166
6.302000	 65.0574
6.320000	 65.1137
6.338000	 65.0504
6.356000	 64.9516
6.374000	 64.9138
6.392000	 64.8944
6.410000	 64.9243
6.428000	 64.961
6.446000	 65.0663
6.464000	 65.1186
6.482000	 65.0548
6.500000	 65.0258
6.518000	 65.0178
6.536000	 64.9743
6.554000	 64.9377
6.572000	 65.0012
6.590000	 65.0233
6.608000	 64.9362
6.626000	 64.8955
6.644000	 65.0037
6.662000	 65.187
6.680000	 65.2484
6.698000	 65.1247
6.716000	 65.073
6.734000	 65.1595
6.752000	 65.1278
6.770000	 65.0612
6.788000	 65.1072
6.806000	 65.0474
6.824000	 64.8788
6.842000	 64.7888
6.860000	 64.8375
6.878000	 65.0053
6.896000	 65.1486
6.914000	 65.1529
6.932000	 65.0612
6.950000	 64.9866
6.968000	 64.9844
6.986000	 65.0122
7.004000	 65.0147
7.022000	 65.0048
7.040000	 65.0429
7.058000	 65.104
7.076000	 65.1305
7.094000	 65.1508
7.112000	 65.1822
7.130000	 65.1889
7.148000	 65.1707
7.166000	 65.1406
7.184000	 65.0939
7.202000	 65.0729
7.220000	 65.1172
7.238000	 65.1652
7.256000	 65.1507
7.274000	 65.0845
7.292000	 64.9741
7.310000	 64.8469
7.328000	 64.8074
7.346000	 64.8996
7.364000	 65.0157
7.382000	 65.0485
7.400000	 65.0192
7.418000	 65.0013
7.436000	 65.0012
7.454000	 64.9755
7.472000	 64.9214
7.490000	 64.8975
7.508000	 64.9311
7.526000	 64.9699
7.544000	 64.9825
7.562000	 64.9933
7.580000	 64.9758
7.598000	 64.8847
7.616000	 64.7767
7.634000	 64.7329
7.652000	 64.7641
7.670000	 64.8517
7.688000	 64.9644
7.706000	 65.0393
7.724000	 65.0313
7.742000	 64.9587
7.760000	 64.887
7.778000	 64.8848
7.796000	 64.9734
7.814000	 65.0978
7.832000	 65.1544
7.850000	 65.0921
7.868000	 64.9743
7.886000	 64.8892
7.904000	 64.84
7.922000	 64.8027
7.940000	 64.817
7.958000	 64.9155
7.976000	 65.0351
7.994000	 65.0877
8.012000	 65.0682
8.030000	 65.0339
8.048000	 65.0131
8.065999	 64.9905
8.084000	 64.9553
8.102000	 64.9171
8.120000	 64.8836
8.138000	 64.8545
8.155999	 64.8367
8.173999	 64.8454
8.192000	 64.8839
8.210000	 64.9316
8.228000	 64.9603
8.246000	 64.9598
8.263999	 64.9459
8.282000	 64.9425
8.300000	 64.9555
8.318000	 64.9739
8.336000	 64.9904
8.353999	 64.9953
8.372000	 64.9627
8.390000	 64.8817
8.408000	 64.7856
8.426000	 64.7318
8.443999	 64.75
8.462000	 64.8152
8.480000	 64.873
8.498000	 64.8904
8.516000	 64.878
8.533999	 64.8592
8.552000	 64.8365
8.570000	 64.8042
8.588000	 64.779
8.606000	 64.7861
8.624000	 64.8217
8.641999	 64.8559
8.660000	 64.8666
8.678000	 64.856
8.696000	 64.8289
8.714000	 64.7813
8.731999	 64.7154
8.750000	 64.654
8.768000	 64.6245
8.786000	 64.6314
8.804000	 64.6513
8.821999	 64.6603
8.840000	 64.6646
8.858000	 64.6904
8.876000	 64.7452
8.894000	 64.8045
8.911999	 64.8406
8.930000	 64.8555
8.948000	 64.8721
8.966000	 64.9047
8.984000	 64.9435
9.001999	 64.9646
9.020000	 64.94
9.038000	 64.8535
9.056000	 64.7219
9.074000	 64.6011
9.092000	 64.551
9.109999	 64.586
9.128000	 64.662
9.146000	 64.7162
9.164000	 64.7168
9.182000	 64.6746
9.199999	 64.6179
9.218000	 64.5725
9.236000	 64.5607
9.254000	 64.5993
9.272000	 64.6828
9.289999	 64.7733
9.308000	 64.821
9.326000	 64.8067
9.344000	 64.7577
9.362000	 64.7212
9.379999	 64.7188
9.398000	 64.7327
9.416000	 64.7315
9.434000	 64.7043
9.452000	 64.6672
9.469999	 64.6401
9.488000	 64.6298
9.506000	 64.6355
9.524000	 64.6604
9.542000	 64.708
9.560000	 64.7645
9.577999	 64.8011
9.596000	 64.7982
9.614000	 64.7646
9.632000	 64.7279
9.650000	 64.7032
9.667999	 64.68
9.686000	 64.6431
9.704000	 64.6045
9.722000	 64.6044
9.740000	 64.677
9.757999	 64.8119
9.776000	 64.9524
9.794000	 65.0323
9.812000	 65.0207
9.830000	 64.9353
9.847999	 64.8204
9.866000	 64.7161
9.884000	 64.6422
9.902000	 64.6007
9.920000	 64.5851
9.937999	 64.5873
9.956000	 64.6004
9.974000	 64.6185
9.992000	 64.6394
10.01	64.6625
10.028	64.6876
10.046	64.7154
10.064	64.7483
10.082	64.7894
10.1	64.8375
10.118	64.881
10.136	64.9006
10.154	64.8815
10.172	64.8229
10.19	64.7395
10.208	64.6518
10.226	64.574
10.244	64.5114
10.262	64.4688
10.28	64.4562
10.298	64.4856
10.316	64.5583
10.334	64.6547
10.352	64.7408
10.37	64.784
10.388	64.7736
10.406	64.7252
10.424	64.6704
10.442	64.6366
10.46	64.6333
10.478	64.6513
10.496	64.6721
10.514	64.6794
10.532	64.6654
10.55	64.6306
10.568	64.5801
10.586	64.5246
10.604	64.4782
10.622	64.4581
10.64	64.4773
10.658	64.5384
10.676	64.6315
10.694	64.7374
10.712	64.8332
10.73	64.904
10.748	64.9442
10.766	64.9615
10.784	64.9714
10.802	64.9909
10.82	65.0277
10.838	65.0758
10.856	65.1172
10.874	65.1295
10.892	65.1024
10.91	65.0448
10.928	64.9832
10.946	64.948
10.964	64.9512
10.982	64.9765
11	64.9832
11.018	64.9237
11.036	64.7743
11.054	64.5487
11.072	64.2936
11.09	64.0716
11.108	63.9277
11.126	63.8791
11.144	63.9129
11.162	63.9988
11.18	64.1072
11.198	64.2182
11.216	64.3224
11.234	64.4162
11.252	64.4955
11.27	64.5538
11.288	64.5825
11.306	64.5768
11.324	64.5352
11.342	64.4614
11.36	64.3643
11.378	64.2611
11.396	64.1732
11.414	64.1249
11.432	64.1329
11.45	64.1999
11.468	64.3113
11.486	64.4407
11.504	64.5585
11.522	64.6425
11.54	64.6851
11.558	64.6927
11.576	64.682
11.594	64.6695
11.612	64.6668
11.63	64.6773
11.648	64.6976
11.666	64.7207
11.684	64.7384
11.702	64.744
11.72	64.7331
11.738	64.7057
11.756	64.6661
11.774	64.6212
11.792	64.5787
11.81	64.5436
11.828	64.5169
11.846	64.4945
11.864	64.4701
11.882	64.4387
11.9	64.3993
11.918	64.3559
11.936	64.3155
11.954	64.2849
11.972	64.2678
11.99	64.2632
12.008	64.2683
12.026	64.2803
12.044	64.2981
12.062	64.3205
12.08	64.3449
12.098	64.3655
12.116	64.3744
12.134	64.3635
12.152	64.3288
12.17	64.2731
12.188	64.2059
12.206	64.1414
12.224	64.0938
12.242	64.0727
12.26	64.0803
12.278	64.1118
12.296	64.158
12.314	64.2087
12.332	64.2553
12.35	64.292
12.368	64.3149
12.386	64.3219
12.404	64.3125
12.422	64.2881
12.44	64.2531
12.458	64.2143
12.476	64.1795
12.494	64.1561
12.512	64.149
12.53	64.1587
12.548	64.181
12.566	64.2082
12.584	64.2301
12.602	64.2374
12.62	64.2237
12.638	64.1868
12.656	64.1295
12.674	64.058
12.692	63.9811
12.71	63.907
12.728	63.8429
12.746	63.7938
12.764	63.762
12.782	63.7477
12.8	63.7494
12.818	63.7653
12.836	63.7932
12.854	63.8321
12.872	63.88
12.89	63.9347
12.908	63.9921
12.926	64.0466
12.944	64.0922
12.962	64.1236
12.98	64.1372
12.998	64.1321
13.016	64.1102
13.034	64.0762
13.052	64.0362
13.07	63.996
13.088	63.9611
13.106	63.9362
13.124	63.9241
13.142	63.9263
13.16	63.9418
13.178	63.9681
13.196	64.0011
13.214	64.0359
13.232	64.0669
13.25	64.0895
13.268	64.1013
13.286	64.1034
13.304	64.0998
13.322	64.0971
13.34	64.1026
13.358	64.122
13.376	64.1572
13.394	64.2042
13.412	64.2535
13.43	64.2915
13.448	64.303
13.466	64.2746
13.484	64.1979
13.502	64.0713
13.52	63.9013
13.538	63.7017
13.556	63.4913
13.574	63.2918
13.592	63.1241
13.61	63.0051
13.628	62.9456
13.646	62.9486
13.664	63.01
13.682	63.1192
13.7	63.2622
13.718	63.4232
13.736	63.5877
13.754	63.7424
13.772	63.8778
13.79	63.9869
13.808	64.0659
13.826	64.1126
13.844	64.1264
13.862	64.108
13.88	64.0598
13.898	63.9863
13.916	63.8938
13.934	63.7902
13.952	63.6843
13.97	63.5854
13.988	63.5016
14.006	63.4386
14.024	63.3992
14.042	63.3822
14.06	63.3837
14.078	63.3979
14.096	63.4185
14.114	63.44
14.132	63.4587
14.15	63.4727
14.168	63.4814
14.186	63.4853
14.204	63.4854
14.222	63.4821
14.24	63.4745
14.258	63.4607
14.276	63.4382
14.294	63.4052
14.312	63.3608
14.33	63.3066
14.348	63.2458
14.366	63.1836
14.384	63.1271
14.402	63.0839
14.42	63.0605
14.438	63.0611
14.456	63.0871
14.474	63.137
14.492	63.2063
14.51	63.2876
14.528	63.3721
14.546	63.4515
14.564	63.5182
14.582	63.5668
14.6	63.5941
14.618	63.5999
14.636	63.5863
14.654	63.5568
14.672	63.5162
14.69	63.4692
14.708	63.4204
14.726	63.3736
14.744	63.3316
14.762	63.2958
14.78	63.2669
14.798	63.2446
14.816	63.2285
14.834	63.2173
14.852	63.2099
14.87	63.2053
14.888	63.2024
14.906	63.2004
14.924	63.1985
14.942	63.1961
14.96	63.192
14.978	63.1848
14.996	63.1731
15.014	63.1552
15.032	63.1292
15.05	63.0943
15.068	63.0504
15.086	62.9982
15.104	62.9397
15.122	62.8784
15.14	62.8184
15.158	62.7639
15.176	62.7189
15.194	62.6872
15.212	62.6711
15.23	62.6715
15.248	62.6881
15.266	62.7194
15.284	62.7623
15.302	62.8126
15.32	62.8665
15.338	62.9201
15.356	62.9696
15.374	63.0118
15.392	63.0449
15.41	63.0678
15.428	63.0801
15.446	63.0828
15.464	63.0774
15.482	63.0654
15.5	63.0494
15.518	63.0324
15.536	63.0168
15.554	63.005
15.572	62.9993
15.59	63.0014
15.608	63.0118
15.626	63.0306
15.644	63.0571
15.662	63.0894
15.68	63.1256
15.698	63.1636
15.716	63.2008
15.734	63.235
15.752	63.2652
15.77	63.2904
15.788	63.3101
15.806	63.3246
15.824	63.3344
15.842	63.3402
15.86	63.3432
15.878	63.344
15.896	63.3429
15.914	63.3401
15.932	63.3354
15.95	63.3283
15.968	63.3182
15.986	63.3045
16.004	63.2866
16.022	63.264
16.04	63.2368
16.058	63.2049
16.076	63.1686
16.094	63.1286
16.112	63.0858
16.13	63.0407
16.148	62.9941
16.166	62.9469
16.184	62.8997
16.202	62.8534
16.22	62.809
16.238	62.7673
16.256	62.729
16.274	62.6951
16.292	62.6665
16.31	62.6437
16.328	62.6279
16.346	62.6192
16.364	62.6179
16.382	62.6246
16.4	62.6391
16.418	62.6615
16.436	62.6915
16.454	62.7284
16.472	62.7716
16.49	62.8199
16.508	62.8718
16.526	62.9261
16.544	62.9803
16.562	63.0323
16.58	63.0805
16.598	63.1215
16.616	63.1536
16.634	63.1749
16.652	63.1834
16.67	63.1786
16.688	63.16
16.706	63.1283
16.724	63.0845
16.742	63.0298
16.76	62.9678
16.778	62.9002
16.796	62.8304
16.814	62.7616
16.832	62.6954
16.85	62.6347
16.868	62.5803
16.886	62.5333
16.904	62.4937
16.922	62.4611
16.94	62.4349
16.958	62.4134
16.976	62.3958
16.994	62.3805
17.012	62.3664
17.03	62.3527
17.048	62.3381
17.066	62.3222
17.084	62.3047
17.102	62.2855
17.12	62.2647
17.138	62.2426
17.156	62.2198
17.174	62.1967
17.192	62.1742
17.21	62.1528
17.228	62.1334
17.246	62.1169
17.264	62.1038
17.282	62.0954
17.3	62.0921
17.318	62.0948
17.336	62.1039
17.354	62.1199
17.372	62.1431
17.39	62.1737
17.408	62.2117
17.426	62.2566
17.444	62.3084
17.462	62.3656
17.48	62.4276
17.498	62.493
17.516	62.5603
17.534	62.6283
17.552	62.6944
17.57	62.7579
17.588	62.8158
17.606	62.8671
17.624	62.9095
17.642	62.9415
17.66	62.9622
17.678	62.9701
17.696	62.9654
17.714	62.9478
17.732	62.9187
17.75	62.8788
17.768	62.8311
17.786	62.7767
17.804	62.7205
17.822	62.6636
17.84	62.6107
17.858	62.5636
17.876	62.5252
17.894	62.4974
17.912	62.4812
17.93	62.477
17.948	62.4847
17.966	62.5029
17.984	62.5303
18.002	62.5645
18.02	62.603
18.038	62.6439
18.056	62.6833
18.074	62.7201
18.092	62.7507
18.11	62.7746
18.128	62.7894
18.146	62.7952
18.164	62.7909
18.182	62.7771
18.2	62.754
18.218	62.723
18.236	62.6845
18.254	62.6411
18.272	62.5931
18.29	62.5435
18.308	62.4925
18.326	62.443
18.344	62.3953
18.362	62.3519
18.38	62.313
18.398	62.28
18.416	62.2531
18.434	62.2333
18.452	62.2202
18.47	62.2139
18.488	62.2132
18.506	62.2182
18.524	62.2266
18.542	62.2381
18.56	62.2499
18.578	62.2617
18.596	62.2704
18.614	62.2759
18.632	62.2755
18.65	62.2692
18.668	62.2554
18.686	62.2343
18.704	62.2052
18.722	62.1686
18.74	62.125
18.758	62.0747
18.776	62.0192
18.794	61.9589
18.812	61.8954
18.83	61.8292
18.848	61.7616
18.866	61.6932
18.884	61.6249
18.902	61.5572
18.92	61.4907
18.938	61.4256
18.956	61.3625
18.974	61.3018
18.992	61.2439
19.01	61.1892
19.028	61.1381
19.046	61.0911
19.064	61.0486
19.082	61.0109
19.1	60.9787
19.118	60.9519
19.136	60.9313
19.154	60.9167
19.172	60.9083
19.19	60.9057
19.208	60.9089
19.226	60.9176
19.244	60.9308
19.262	60.9485
19.28	60.9694
19.298	60.9937
19.316	61.02
19.334	61.0483
19.352	61.0779
19.37	61.1089
19.388	61.141
19.406	61.1741
19.424	61.2086
19.442	61.2445
19.46	61.282
19.478	61.3213
19.496	61.3623
19.514	61.4051
19.532	61.4492
19.55	61.4947
19.568	61.5404
19.586	61.5857
19.604	61.6296
19.622	61.6702
19.64	61.7074
19.658	61.7381
19.676	61.7627
19.694	61.7784
19.712	61.7854
19.73	61.7823
19.748	61.7687
19.766	61.7451
19.784	61.7109
19.802	61.6679
19.82	61.6164
19.838	61.5584
19.856	61.4961
19.874	61.4302
19.892	61.3654
19.91	61.301
19.928	61.2422
19.946	61.1886
19.964	61.1441
19.982	61.1091
20	61.0852
20.018	61.0735
20.036	61.0738
20.054	61.0866
20.072	61.1115
20.09	61.147
20.108	61.1934
20.126	61.2474
20.144	61.3094
20.162	61.376
20.18	61.4461
20.198	61.5183
20.216	61.5894
20.234	61.66
20.252	61.7265
20.27	61.7897
20.288	61.8471
20.306	61.8986
20.324	61.9436
20.342	61.9814
20.36	62.0124
20.378	62.0363
20.396	62.0533
20.414	62.064
20.432	62.0683
20.45	62.0672
20.468	62.0609
20.486	62.05
20.504	62.0355
20.522	62.0173
20.54	61.9966
20.558	61.9734
20.576	61.9486
20.594	61.9226
20.612	61.8957
20.63	61.869
20.648	61.8424
20.666	61.8169
20.684	61.7923
20.702	61.7697
20.72	61.7497
20.738	61.7321
20.756	61.7179
20.774	61.7069
20.792	61.6993
20.81	61.6956
20.828	61.6953
20.846	61.6983
20.864	61.7045
20.882	61.713
20.9	61.724
20.918	61.7361
20.936	61.7487
20.954	61.7617
20.972	61.7728
20.99	61.7826
21.008	61.7892
21.026	61.7919
21.044	61.7906
21.062	61.7837
21.08	61.7715
21.098	61.7532
21.116	61.7284
21.134	61.6972
21.152	61.6594
21.17	61.615
21.188	61.5645
21.206	61.5077
21.224	61.4451
21.242	61.3777
21.26	61.3051
21.278	61.2282
21.296	61.1471
21.314	61.0621
21.332	60.9739
21.35	60.8822
21.368	60.7882
21.386	60.6918
21.404	60.5935
21.422	60.495
21.44	60.3955
21.458	60.2968
21.476	60.1993
21.494	60.1032
21.512	60.0111
21.53	59.9221
21.548	59.8383
21.566	59.7611
21.584	59.69
21.602	59.628
21.62	59.5747
21.638	59.5312
21.656	59.4992
21.674	59.4781
21.692	59.469
21.71	59.4723
21.728	59.4875
21.746	59.514
21.764	59.5523
21.782	59.6003
21.8	59.6571
21.818	59.7229
21.836	59.7938
21.854	59.8703
21.872	59.9506
21.89	60.0305
21.908	60.1118
21.926	60.1904
21.944	60.2634
21.962	60.3322
21.98	60.3923
21.998	60.4436
22.016	60.4858
22.034	60.5161
22.052	60.535
22.07	60.5425
22.088	60.5381
22.106	60.522
22.124	60.4962
22.142	60.4604
22.16	60.4156
22.178	60.3654
22.196	60.3084
22.214	60.2473
22.232	60.1858
22.25	60.1222
22.268	60.0596
22.286	60
22.304	59.9422
22.322	59.8883
22.34	59.8389
22.358	59.7934
22.376	59.751
22.394	59.7128
22.412	59.6769
22.43	59.641
22.448	59.6068
22.466	59.5704
22.484	59.5291
22.502	59.4846
22.52	59.4322
22.538	59.37
22.556	59.2992
22.574	59.2155
22.592	59.1183
22.61	59.0082
22.628	58.8837
22.646	58.7441
22.664	58.5908
22.682	58.4252
22.7	58.2454
22.718	58.0554
22.736	57.8593
22.754	57.6543
22.772	57.446
22.79	57.2389
22.808	57.0297
22.826	56.826
22.844	56.6324
22.862	56.4456
22.88	56.274
22.898	56.121
22.916	55.9839
22.934	55.8707
22.952	55.7836
22.97	55.7208
22.988	55.6865
23.006	55.6821
23.024	55.7061
23.042	55.7595
23.06	55.843
23.078	55.9555
23.096	56.0943
23.114	56.2611
23.132	56.4536
23.15	56.666
23.168	56.9003
23.186	57.1537
23.204	57.4176
23.222	57.6942
23.24	57.9808
23.258	58.2669
23.276	58.5548
23.294	58.8422
23.312	59.1192
23.33	59.3873
23.348	59.6452
23.366	59.884
23.384	60.1047
23.402	60.3068
23.42	60.4833
23.438	60.6339
23.456	60.7594
23.474	60.8567
23.492	60.9246
23.51	60.9646
23.528	60.977
23.546	60.9608
23.564	60.9169
23.582	60.8499
23.6	60.7602
23.618	60.6467
23.636	60.5173
23.654	60.3751
23.672	60.2167
23.69	60.0507
23.708	59.8827
23.726	59.7079
23.744	59.5337
23.762	59.3663
23.78	59.2008
23.798	59.0433
23.816	58.9009
23.834	58.7697
23.852	58.6532
23.87	58.5577
23.888	58.4824
23.906	58.4267
23.924	58.3926
23.942	58.3816
23.96	58.3919
23.978	58.4203
23.996	58.4672
24.014	58.5332
24.032	58.6117
24.05	58.6994
24.068	58.8006
24.086	58.9067
24.104	59.0101
24.122	59.1167
24.14	59.2198
24.158	59.3097
24.176	59.3904
24.194	59.4594
24.212	59.507
24.23	59.5324
24.248	59.538
24.266	59.5161
24.284	59.4623
24.302	59.3806
24.32	59.2674
24.338	59.1185
24.356	58.9357
24.374	58.719
24.392	58.4676
24.41	58.1803
24.428	57.8588
24.446	57.5061
24.464	57.1218
24.482	56.7043
24.5	56.2622
24.518	55.8019
24.536	55.317
24.554	54.8151
24.572	54.3068
24.59	53.7898
24.608	53.2641
24.626	52.7375
24.644	52.2132
24.662	51.6871
24.68	51.165
24.698	50.6517
24.716	50.1415
24.734	49.6406
24.752	49.1586
24.77	48.6963
24.788	48.2508
24.806	47.8274
24.824	47.4308
24.842	47.06
24.86	46.711
24.878	46.3801
24.896	46.0695
24.914	45.7778
24.932	45.4994
24.95	45.2319
24.968	44.9789
24.986	44.7346
25.004	44.4927
25.022	44.2544
25.04	44.0205
25.058	43.7896
25.076	43.5601
25.094	43.3322
25.112	43.1087
25.13	42.8916
25.148	42.6748
25.166	42.4647
25.184	42.2732
25.202	42.1034
25.22	41.9467
25.238	41.8192
25.256	41.7371
25.274	41.6891
25.292	41.6808
25.31	41.7326
25.328	41.8555
25.346	42.0352
25.364	42.2853
25.382	42.6215
25.4	43.0409
25.418	43.5403
25.436	44.1294
25.454	44.8163
25.472	45.5978
25.49	46.4702
25.508	47.4305
25.526	48.4828
25.544	49.6276
25.562	50.8486
25.58	52.1315
25.598	53.4932
25.616	54.9206
25.634	56.3848
25.652	57.8734
25.67	59.4149
25.688	60.9694
25.706	62.4903
25.724	63.9851
25.742	65.469
25.76	66.8894
25.778	68.1981
25.796	69.4287
25.814	70.5687
25.832	71.5745
25.85	72.4166
25.868	73.1251
25.886	73.6847
25.904	74.0728
25.922	74.2782
25.94	74.3137
25.958	74.1844
25.976	73.8947
25.994	73.4271
26.012	72.7944
26.03	72.0322
26.048	71.1696
26.066	70.171
26.084	69.0628
26.102	67.8931
26.12	66.6862
26.138	65.3926
26.156	64.0672
26.174	62.7784
26.192	61.546
26.21	60.324
26.228	59.1622
26.246	58.1139
26.264	57.1658
26.282	56.2988
26.3	55.5726
26.318	55.0454
26.336	54.6764
26.354	54.4705
26.372	54.4984
26.39	54.8246
26.408	55.3999
26.426	56.2364
26.444	57.3891
26.462	58.9022
26.48	60.7253
26.498	62.8832
26.516	65.4263
26.534	68.3967
26.552	71.7723
26.57	75.5377
26.588	79.6838
26.606	84.2189
26.624	89.1821
26.642	94.4982
26.66	100.08
26.678	105.899
26.696	112.054
26.714	118.423
26.732	124.863
26.75	131.332
26.768	137.977
26.786	144.622
26.804	151.069
26.822	157.232
26.84	163.279
26.858	169.077
26.876	174.472
26.894	179.404
26.912	184.016
26.93	188.182
26.948	191.753
26.966	194.608
26.984	196.799
27.002	198.437
27.02	199.631
27.028	200