File: Bakgrunnsmateriale/MATLAB/FTIR/ftir_data/subBb/Mapping_121/C-4040-8_t46.asc
PE IR       SPECTRUM    SPECTRUM    ASCII       PEDS        1.60
  -1
C-B532~1.ASC
17/03/27
18:18:32.00
17/03/27
18:18:58.00
tln
$C-4040-8_t0046$<tbV0>[10.4,-2.6,8.0,0.0,27,1,0]
27.028
64

2002,4.07
MIRTGS : RIGHTBACK : INTERNAL 2
MIR : ON : INTERNAL 2
OPTKBR

0.200000
8
8.000000
FILLER
RATIO
SPECTRUM
UNLOCKED 256

DOUBLE
64
COMBINED
1
0
0

0.002000
RATIO

1
0
TRUE
51149
0
LEFT NOT FITTED RIGHT NOT FITTED 0
NONE
NONE
15600
12
4.427000
51148
TRUE
1 0 8 72 0 0 0 0

15798

#HDR
-1
-1
#GR
µM
%T
2.38419e-05
0.0
2.000000
0.002000
12515
8
125.078
44.9934
#DATA
2.000000	 64.9106
2.018000	 64.2611
2.036000	 64.9358
2.054000	 64.8371
2.072000	 64.8729
2.090000	 65.0827
2.108000	 64.4382
2.126000	 64.8241
2.144000	 64.1959
2.162000	 64.8649
2.180000	 64.4141
2.198000	 64.7869
2.216000	 65.8282
2.234000	 65.4694
2.252000	 65.612
2.270000	 66.3087
2.288000	 64.3345
2.306000	 64.8179
2.324000	 66.1462
2.342000	 65.674
2.360000	 65.1294
2.378000	 64.9486
2.396000	 64.6942
2.414000	 65.3661
2.432000	 64.9749
2.450000	 64.995
2.468000	 64.9987
2.486000	 65.2562
2.504000	 64.9283
2.522000	 65.0507
2.540000	 65.2052
2.558000	 65.1478
2.576000	 65.0394
2.594000	 65.1096
2.612000	 64.8392
2.630000	 65.42
2.648000	 65.4341
2.666000	 65.3037
2.684000	 65.0869
2.702000	 65.1298
2.720000	 65.029
2.738000	 65.2148
2.756000	 64.9591
2.774000	 65.321
2.792000	 65.1842
2.810000	 65.334
2.828000	 65.0236
2.846000	 65.1946
2.864000	 64.9393
2.882000	 65.3465
2.900000	 65.1604
2.918000	 65.3543
2.936000	 65.2745
2.954000	 65.2832
2.972000	 65.5023
2.990000	 65.1663
3.008000	 65.3697
3.026000	 65.0824
3.044000	 65.2202
3.062000	 65.2443
3.080000	 65.043
3.098000	 65.1771
3.116000	 65.0019
3.134000	 65.0498
3.152000	 65.2424
3.170000	 65.3788
3.188000	 65.0903
3.206000	 64.9218
3.224000	 65.3027
3.242000	 65.4284
3.260000	 65.2955
3.278000	 65.3752
3.296000	 65.0966
3.314000	 65.3003
3.332000	 65.2212
3.350000	 65.2414
3.368000	 65.1315
3.386000	 65.1864
3.404000	 65.2074
3.422000	 64.9829
3.440000	 65.0857
3.458000	 65.0317
3.476000	 65.174
3.494000	 64.9934
3.512000	 65.1355
3.530000	 65.0349
3.548000	 65.3819
3.566000	 65.3938
3.584000	 65.2481
3.602000	 65.2445
3.620000	 65.3538
3.638000	 65.2608
3.656000	 65.2479
3.674000	 65.2653
3.692000	 65.223
3.710000	 65.2491
3.728000	 65.1658
3.746000	 65.4313
3.764000	 65.3676
3.782000	 65.2733
3.800000	 65.2337
3.818000	 65.2056
3.836000	 65.4053
3.854000	 65.3278
3.872000	 65.2994
3.890000	 65.3667
3.908000	 65.3683
3.926000	 65.372
3.944000	 65.3163
3.962000	 65.299
3.980000	 65.7046
3.998000	 65.4036
4.016000	 65.2029
4.034000	 65.3726
4.052000	 65.1837
4.070000	 65.2545
4.088000	 65.3433
4.106000	 65.5642
4.124000	 65.6449
4.141999	 65.2544
4.160000	 65.1272
4.178000	 65.2732
4.196000	 65.3251
4.214000	 65.2969
4.232000	 65.4113
4.250000	 65.3175
4.268000	 65.2939
4.286000	 65.4496
4.304000	 65.3856
4.322000	 65.2752
4.340000	 65.3673
4.358000	 65.324
4.375999	 65.2985
4.394000	 65.2532
4.412000	 65.364
4.430000	 65.4068
4.448000	 65.434
4.466000	 65.3654
4.484000	 65.49
4.502000	 65.3015
4.520000	 65.3734
4.538000	 65.2283
4.556000	 65.3361
4.574000	 65.4247
4.592000	 65.4041
4.609999	 65.3225
4.628000	 65.3968
4.646000	 65.2974
4.664000	 65.4411
4.682000	 65.499
4.700000	 65.4676
4.718000	 65.419
4.736000	 65.3248
4.754000	 65.2948
4.772000	 65.3951
4.790000	 65.4099
4.808000	 65.3472
4.826000	 65.4101
4.843999	 65.3652
4.862000	 65.5073
4.880000	 65.265
4.898000	 65.2113
4.916000	 65.2072
4.934000	 65.3499
4.952000	 65.3492
4.970000	 65.3343
4.988000	 65.3898
5.006000	 65.4075
5.024000	 65.4017
5.042000	 65.3521
5.060000	 65.3685
5.077999	 65.404
5.096000	 65.1767
5.114000	 65.1156
5.132000	 65.2783
5.150000	 65.4266
5.168000	 65.4064
5.186000	 65.3464
5.204000	 65.3192
5.222000	 65.3477
5.240000	 65.2953
5.258000	 65.3961
5.276000	 65.4224
5.294000	 65.3288
5.312000	 65.356
5.330000	 65.351
5.348000	 65.2298
5.366000	 65.3101
5.384000	 65.2611
5.402000	 65.2153
5.420000	 65.2943
5.438000	 65.3932
5.456000	 65.5214
5.474000	 65.4592
5.492000	 65.3708
5.510000	 65.3694
5.528000	 65.3038
5.546000	 65.3163
5.564000	 65.2713
5.582000	 65.2197
5.600000	 65.2316
5.618000	 65.2907
5.636000	 65.1788
5.654000	 65.1487
5.672000	 65.1057
5.690000	 65.1924
5.708000	 65.2108
5.726000	 65.162
5.744000	 65.0583
5.762000	 64.8859
5.780000	 64.9631
5.798000	 65.1036
5.816000	 65.201
5.834000	 65.2027
5.852000	 65.2563
5.870000	 65.395
5.888000	 65.4937
5.906000	 65.3637
5.923999	 65.2621
5.942000	 65.2886
5.960000	 65.2086
5.978000	 65.2693
5.996000	 65.5085
6.014000	 65.5438
6.032000	 65.3801
6.050000	 65.3284
6.068000	 65.2726
6.086000	 65.2525
6.104000	 65.2516
6.122000	 65.2588
6.140000	 65.244
6.158000	 65.1879
6.176000	 65.2908
6.194000	 65.3607
6.212000	 65.2726
6.230000	 65.257
6.248000	 65.2899
6.266000	 65.2329
6.284000	 65.1409
6.302000	 65.1222
6.320000	 65.1351
6.338000	 65.1484
6.356000	 65.2151
6.374000	 65.2971
6.392000	 65.2597
6.410000	 65.1685
6.428000	 65.1485
6.446000	 65.1211
6.464000	 65.1044
6.482000	 65.1888
6.500000	 65.2286
6.518000	 65.2068
6.536000	 65.2357
6.554000	 65.2593
6.572000	 65.2799
6.590000	 65.2873
6.608000	 65.2244
6.626000	 65.1528
6.644000	 65.1519
6.662000	 65.1799
6.680000	 65.1427
6.698000	 65.101
6.716000	 65.174
6.734000	 65.2801
6.752000	 65.318
6.770000	 65.2752
6.788000	 65.191
6.806000	 65.1525
6.824000	 65.1905
6.842000	 65.1538
6.860000	 64.9877
6.878000	 64.9718
6.896000	 65.191
6.914000	 65.2917
6.932000	 65.1716
6.950000	 65.0602
6.968000	 65.0325
6.986000	 65.038
7.004000	 65.0999
7.022000	 65.1893
7.040000	 65.1981
7.058000	 65.1303
7.076000	 65.1094
7.094000	 65.1421
7.112000	 65.1311
7.130000	 65.0718
7.148000	 65.021
7.166000	 65.0309
7.184000	 65.1053
7.202000	 65.1645
7.220000	 65.1742
7.238000	 65.1873
7.256000	 65.2272
7.274000	 65.2311
7.292000	 65.1545
7.310000	 65.0827
7.328000	 65.0784
7.346000	 65.0782
7.364000	 65.0747
7.382000	 65.1271
7.400000	 65.211
7.418000	 65.2719
7.436000	 65.2822
7.454000	 65.2247
7.472000	 65.125
7.490000	 65.0358
7.508000	 65.0001
7.526000	 65.0456
7.544000	 65.1256
7.562000	 65.1349
7.580000	 65.0676
7.598000	 65.0331
7.616000	 65.0763
7.634000	 65.1207
7.652000	 65.1131
7.670000	 65.0884
7.688000	 65.0777
7.706000	 65.0661
7.724000	 65.0483
7.742000	 65.0407
7.760000	 65.0432
7.778000	 65.0359
7.796000	 65.0141
7.814000	 65.0016
7.832000	 65.015
7.850000	 65.0314
7.868000	 65.0289
7.886000	 65.03
7.904000	 65.0571
7.922000	 65.073
7.940000	 65.034
7.958000	 64.9717
7.976000	 64.9487
7.994000	 64.9768
8.012000	 65.0307
8.030000	 65.0876
8.048000	 65.1166
8.065999	 65.0821
8.084000	 64.9912
8.102000	 64.9009
8.120000	 64.8676
8.138000	 64.894
8.155999	 64.9272
8.173999	 64.9197
8.192000	 64.889
8.210000	 64.8916
8.228000	 64.951
8.246000	 65.0405
8.263999	 65.1259
8.282000	 65.1865
8.300000	 65.2064
8.318000	 65.1792
8.336000	 65.1187
8.353999	 65.0487
8.372000	 64.9878
8.390000	 64.9488
8.408000	 64.9314
8.426000	 64.9156
8.443999	 64.8859
8.462000	 64.8527
8.480000	 64.8349
8.498000	 64.8274
8.516000	 64.8049
8.533999	 64.7588
8.552000	 64.726
8.570000	 64.7513
8.588000	 64.832
8.606000	 64.918
8.624000	 64.9685
8.641999	 64.9975
8.660000	 65.0655
8.678000	 65.2157
8.696000	 65.4078
8.714000	 65.5164
8.731999	 65.4267
8.750000	 65.1588
8.768000	 64.8663
8.786000	 64.7041
8.804000	 64.7096
8.821999	 64.8157
8.840000	 64.9333
8.858000	 65.0093
8.876000	 65.0335
8.894000	 65.0329
8.911999	 65.0474
8.930000	 65.0795
8.948000	 65.0767
8.966000	 64.9796
8.984000	 64.7893
9.001999	 64.5752
9.020000	 64.4302
9.038000	 64.4263
9.056000	 64.5827
9.074000	 64.8399
9.092000	 65.0637
9.109999	 65.1289
9.128000	 65.0299
9.146000	 64.8966
9.164000	 64.8747
9.182000	 64.9875
9.199999	 65.1298
9.218000	 65.1877
9.236000	 65.1419
9.254000	 65.0547
9.272000	 64.9795
9.289999	 64.9145
9.308000	 64.8402
9.326000	 64.7722
9.344000	 64.7566
9.362000	 64.8159
9.379999	 64.925
9.398000	 65.0293
9.416000	 65.0881
9.434000	 65.0941
9.452000	 65.0639
9.469999	 65.022
9.488000	 64.9857
9.506000	 64.9576
9.524000	 64.9258
9.542000	 64.8759
9.560000	 64.8072
9.577999	 64.7324
9.596000	 64.6633
9.614000	 64.6003
9.632000	 64.5381
9.650000	 64.4807
9.667999	 64.4437
9.686000	 64.4443
9.704000	 64.4861
9.722000	 64.5545
9.740000	 64.6262
9.757999	 64.6804
9.776000	 64.7052
9.794000	 64.7001
9.812000	 64.6792
9.830000	 64.6691
9.847999	 64.6968
9.866000	 64.7668
9.884000	 64.8494
9.902000	 64.8978
9.920000	 64.882
9.937999	 64.8161
9.956000	 64.7488
9.974000	 64.7233
9.992000	 64.747
10.01	64.7898
10.028	64.813
10.046	64.8005
10.064	64.7657
10.082	64.7334
10.1	64.722
10.118	64.7353
10.136	64.7689
10.154	64.8172
10.172	64.8712
10.19	64.9137
10.208	64.9209
10.226	64.8731
10.244	64.7672
10.262	64.623
10.28	64.4743
10.298	64.3562
10.316	64.2944
10.334	64.2971
10.352	64.356
10.37	64.4469
10.388	64.5372
10.406	64.5978
10.424	64.6147
10.442	64.5986
10.46	64.5777
10.478	64.5831
10.496	64.6289
10.514	64.7052
10.532	64.7829
10.55	64.8312
10.568	64.8327
10.586	64.7884
10.604	64.713
10.622	64.6268
10.64	64.5464
10.658	64.4838
10.676	64.4465
10.694	64.4369
10.712	64.4522
10.73	64.4841
10.748	64.5196
10.766	64.5458
10.784	64.5549
10.802	64.5473
10.82	64.5309
10.838	64.5179
10.856	64.5184
10.874	64.5363
10.892	64.5671
10.91	64.6
10.928	64.6235
10.946	64.6304
10.964	64.622
10.982	64.6063
11	64.5927
11.018	64.5873
11.036	64.5909
11.054	64.5998
11.072	64.6099
11.09	64.6166
11.108	64.6167
11.126	64.6078
11.144	64.5884
11.162	64.5589
11.18	64.5228
11.198	64.4867
11.216	64.4587
11.234	64.4446
11.252	64.4452
11.27	64.4558
11.288	64.4683
11.306	64.4743
11.324	64.4674
11.342	64.4457
11.36	64.4119
11.378	64.3744
11.396	64.3443
11.414	64.3331
11.432	64.3466
11.45	64.3827
11.468	64.4319
11.486	64.4817
11.504	64.5216
11.522	64.5465
11.54	64.5567
11.558	64.5562
11.576	64.549
11.594	64.5367
11.612	64.5191
11.63	64.4964
11.648	64.4714
11.666	64.4511
11.684	64.4442
11.702	64.4571
11.72	64.491
11.738	64.5402
11.756	64.5938
11.774	64.6384
11.792	64.6628
11.81	64.662
11.828	64.6376
11.846	64.5966
11.864	64.5494
11.882	64.5048
11.9	64.4683
11.918	64.4404
11.936	64.418
11.954	64.3966
11.972	64.3732
11.99	64.3484
12.008	64.3266
12.026	64.3146
12.044	64.3183
12.062	64.3385
12.08	64.3695
12.098	64.3999
12.116	64.4161
12.134	64.4071
12.152	64.3697
12.17	64.3091
12.188	64.2391
12.206	64.1768
12.224	64.1392
12.242	64.1374
12.26	64.1748
12.278	64.2455
12.296	64.3359
12.314	64.4281
12.332	64.5048
12.35	64.553
12.368	64.5664
12.386	64.5467
12.404	64.5024
12.422	64.4458
12.44	64.3896
12.458	64.344
12.476	64.3153
12.494	64.3048
12.512	64.3093
12.53	64.3216
12.548	64.3332
12.566	64.3364
12.584	64.3256
12.602	64.2988
12.62	64.2579
12.638	64.208
12.656	64.1562
12.674	64.1099
12.692	64.0751
12.71	64.0557
12.728	64.053
12.746	64.0654
12.764	64.0893
12.782	64.1199
12.8	64.1516
12.818	64.179
12.836	64.1968
12.854	64.2019
12.872	64.1924
12.89	64.17
12.908	64.1396
12.926	64.1089
12.944	64.0865
12.962	64.0797
12.98	64.0925
12.998	64.1239
13.016	64.1685
13.034	64.2171
13.052	64.2589
13.07	64.284
13.088	64.2848
13.106	64.257
13.124	64.1999
13.142	64.1162
13.16	64.0109
13.178	63.8914
13.196	63.7668
13.214	63.6476
13.232	63.5454
13.25	63.471
13.268	63.4331
13.286	63.4361
13.304	63.4782
13.322	63.5514
13.34	63.642
13.358	63.734
13.376	63.812
13.394	63.8651
13.412	63.8884
13.43	63.884
13.448	63.8595
13.466	63.8258
13.484	63.7939
13.502	63.7722
13.52	63.7644
13.538	63.7697
13.556	63.7832
13.574	63.798
13.592	63.8072
13.61	63.8061
13.628	63.7926
13.646	63.7669
13.664	63.7315
13.682	63.6896
13.7	63.6446
13.718	63.5991
13.736	63.5548
13.754	63.5131
13.772	63.4754
13.79	63.4427
13.808	63.4166
13.826	63.3988
13.844	63.3914
13.862	63.3962
13.88	63.4142
13.898	63.445
13.916	63.4865
13.934	63.5352
13.952	63.5863
13.97	63.6335
13.988	63.6706
14.006	63.6922
14.024	63.6951
14.042	63.6785
14.06	63.6452
14.078	63.6008
14.096	63.553
14.114	63.5108
14.132	63.4827
14.15	63.4754
14.168	63.4925
14.186	63.5337
14.204	63.5952
14.222	63.6695
14.24	63.7477
14.258	63.8206
14.276	63.8805
14.294	63.9222
14.312	63.9431
14.33	63.9434
14.348	63.9254
14.366	63.8929
14.384	63.8501
14.402	63.8003
14.42	63.7454
14.438	63.6864
14.456	63.6235
14.474	63.5566
14.492	63.4861
14.51	63.4137
14.528	63.3424
14.546	63.2761
14.564	63.2191
14.582	63.1752
14.6	63.1475
14.618	63.1374
14.636	63.1446
14.654	63.1672
14.672	63.202
14.69	63.2452
14.708	63.2926
14.726	63.3405
14.744	63.3861
14.762	63.4274
14.78	63.4635
14.798	63.494
14.816	63.519
14.834	63.5388
14.852	63.5538
14.87	63.5634
14.888	63.5673
14.906	63.5646
14.924	63.5543
14.942	63.5361
14.96	63.5098
14.978	63.476
14.996	63.4362
15.014	63.3922
15.032	63.3473
15.05	63.3048
15.068	63.2675
15.086	63.238
15.104	63.2183
15.122	63.2095
15.14	63.211
15.158	63.2209
15.176	63.2363
15.194	63.2535
15.212	63.2677
15.23	63.2752
15.248	63.2731
15.266	63.2589
15.284	63.2316
15.302	63.1919
15.32	63.1411
15.338	63.0812
15.356	63.015
15.374	62.9453
15.392	62.8746
15.41	62.8055
15.428	62.7403
15.446	62.6819
15.464	62.6323
15.482	62.5935
15.5	62.5677
15.518	62.5567
15.536	62.5617
15.554	62.5834
15.572	62.6215
15.59	62.6748
15.608	62.7412
15.626	62.8183
15.644	62.9028
15.662	62.9902
15.68	63.0774
15.698	63.161
15.716	63.2375
15.734	63.3048
15.752	63.3615
15.77	63.4067
15.788	63.4399
15.806	63.4612
15.824	63.4709
15.842	63.4695
15.86	63.4576
15.878	63.4361
15.896	63.4061
15.914	63.3691
15.932	63.3273
15.95	63.2823
15.968	63.2365
15.986	63.1927
16.004	63.1525
16.022	63.1178
16.04	63.0902
16.058	63.0701
16.076	63.0579
16.094	63.0533
16.112	63.0558
16.13	63.0647
16.148	63.0789
16.166	63.0971
16.184	63.1182
16.202	63.141
16.22	63.164
16.238	63.186
16.256	63.2056
16.274	63.2214
16.292	63.2326
16.31	63.2383
16.328	63.238
16.346	63.2318
16.364	63.2198
16.382	63.2029
16.4	63.1824
16.418	63.1593
16.436	63.1354
16.454	63.112
16.472	63.09
16.49	63.0705
16.508	63.0532
16.526	63.0382
16.544	63.0243
16.562	63.0103
16.58	62.9951
16.598	62.9769
16.616	62.9546
16.634	62.9276
16.652	62.8955
16.67	62.8591
16.688	62.8186
16.706	62.7762
16.724	62.7329
16.742	62.6901
16.76	62.6497
16.778	62.6122
16.796	62.5784
16.814	62.5477
16.832	62.5198
16.85	62.4933
16.868	62.4666
16.886	62.4386
16.904	62.4069
16.922	62.3709
16.94	62.3295
16.958	62.2829
16.976	62.2312
16.994	62.1757
17.012	62.1184
17.03	62.0606
17.048	62.0056
17.066	61.955
17.084	61.9113
17.102	61.8765
17.12	61.8514
17.138	61.8376
17.156	61.8347
17.174	61.8429
17.192	61.8611
17.21	61.8884
17.228	61.9233
17.246	61.9639
17.264	62.0092
17.282	62.0567
17.3	62.1056
17.318	62.1539
17.336	62.2009
17.354	62.2456
17.372	62.2871
17.39	62.3252
17.408	62.3592
17.426	62.3893
17.444	62.4152
17.462	62.4369
17.48	62.4544
17.498	62.468
17.516	62.4775
17.534	62.4828
17.552	62.4842
17.57	62.4815
17.588	62.4746
17.606	62.4634
17.624	62.4478
17.642	62.4279
17.66	62.4037
17.678	62.3755
17.696	62.3435
17.714	62.3087
17.732	62.2719
17.75	62.2336
17.768	62.1959
17.786	62.159
17.804	62.1255
17.822	62.0958
17.84	62.0719
17.858	62.0544
17.876	62.0443
17.894	62.042
17.912	62.0479
17.93	62.0612
17.948	62.0819
17.966	62.1084
17.984	62.1399
18.002	62.1746
18.02	62.2111
18.038	62.2479
18.056	62.2832
18.074	62.3163
18.092	62.3456
18.11	62.3709
18.128	62.3916
18.146	62.4077
18.164	62.4195
18.182	62.4272
18.2	62.4312
18.218	62.4318
18.236	62.4293
18.254	62.4239
18.272	62.4157
18.29	62.4041
18.308	62.3893
18.326	62.3701
18.344	62.3467
18.362	62.3183
18.38	62.2851
18.398	62.2467
18.416	62.2037
18.434	62.1564
18.452	62.1058
18.47	62.0524
18.488	61.9981
18.506	61.9434
18.524	61.8904
18.542	61.8394
18.56	61.7921
18.578	61.7486
18.596	61.7097
18.614	61.6756
18.632	61.6461
18.65	61.621
18.668	61.5997
18.686	61.5821
18.704	61.567
18.722	61.5544
18.74	61.5434
18.758	61.5341
18.776	61.5259
18.794	61.519
18.812	61.5132
18.83	61.5087
18.848	61.5058
18.866	61.5043
18.884	61.5044
18.902	61.5055
18.92	61.5074
18.938	61.5094
18.956	61.5106
18.974	61.51
18.992	61.5064
19.01	61.4991
19.028	61.4866
19.046	61.4686
19.064	61.4441
19.082	61.4134
19.1	61.3763
19.118	61.3336
19.136	61.2863
19.154	61.2352
19.172	61.1828
19.19	61.1296
19.208	61.0785
19.226	61.0298
19.244	60.9864
19.262	60.9481
19.28	60.9165
19.298	60.8914
19.316	60.8729
19.334	60.8606
19.352	60.8529
19.37	60.8498
19.388	60.8479
19.406	60.8475
19.424	60.8451
19.442	60.8407
19.46	60.8318
19.478	60.8179
19.496	60.7984
19.514	60.7729
19.532	60.7421
19.55	60.706
19.568	60.6662
19.586	60.6242
19.604	60.5813
19.622	60.5401
19.64	60.501
19.658	60.4678
19.676	60.44
19.694	60.4205
19.712	60.409
19.73	60.4065
19.748	60.4133
19.766	60.4282
19.784	60.4514
19.802	60.4808
19.82	60.5155
19.838	60.5541
19.856	60.594
19.874	60.6349
19.892	60.6737
19.91	60.7106
19.928	60.7431
19.946	60.7713
19.964	60.7946
19.982	60.8124
20	60.8256
20.018	60.8341
20.036	60.8388
20.054	60.8411
20.072	60.841
20.09	60.8408
20.108	60.84
20.126	60.8408
20.144	60.8432
20.162	60.8476
20.18	60.8548
20.198	60.864
20.216	60.8752
20.234	60.888
20.252	60.9006
20.27	60.9133
20.288	60.9235
20.306	60.9313
20.324	60.935
20.342	60.9331
20.36	60.9257
20.378	60.911
20.396	60.8893
20.414	60.8601
20.432	60.8229
20.45	60.7791
20.468	60.7285
20.486	60.6721
20.504	60.6116
20.522	60.5466
20.54	60.4798
20.558	60.4108
20.576	60.3414
20.594	60.2724
20.612	60.2041
20.63	60.1383
20.648	60.0744
20.666	60.0135
20.684	59.9558
20.702	59.9012
20.72	59.85
20.738	59.8019
20.756	59.7568
20.774	59.7148
20.792	59.6753
20.81	59.6382
20.828	59.6035
20.846	59.5709
20.864	59.5404
20.882	59.512
20.9	59.4857
20.918	59.4616
20.936	59.4398
20.954	59.4205
20.972	59.4037
20.99	59.3894
21.008	59.3779
21.026	59.3693
21.044	59.3635
21.062	59.3605
21.08	59.3604
21.098	59.3629
21.116	59.3683
21.134	59.3762
21.152	59.3865
21.17	59.399
21.188	59.4137
21.206	59.4304
21.224	59.4491
21.242	59.4694
21.26	59.4914
21.278	59.5148
21.296	59.5394
21.314	59.565
21.332	59.5911
21.35	59.618
21.368	59.6444
21.386	59.6703
21.404	59.6953
21.422	59.7185
21.44	59.7401
21.458	59.759
21.476	59.7746
21.494	59.7872
21.512	59.7961
21.53	59.8014
21.548	59.8035
21.566	59.8026
21.584	59.7987
21.602	59.794
21.62	59.7878
21.638	59.782
21.656	59.7792
21.674	59.7784
21.692	59.783
21.71	59.7937
21.728	59.8108
21.746	59.8373
21.764	59.8726
21.782	59.9172
21.8	59.972
21.818	60.0365
21.836	60.1094
21.854	60.1917
21.872	60.2812
21.89	60.3745
21.908	60.4735
21.926	60.5729
21.944	60.6699
21.962	60.7655
21.98	60.8529
21.998	60.9321
22.016	61.0016
22.034	61.0561
22.052	61.0972
22.07	61.1228
22.088	61.1306
22.106	61.1216
22.124	61.0966
22.142	61.0544
22.16	60.9968
22.178	60.9274
22.196	60.8445
22.214	60.7521
22.232	60.6551
22.25	60.5511
22.268	60.4462
22.286	60.3438
22.304	60.2421
22.322	60.1476
22.34	60.0612
22.358	59.9826
22.376	59.9156
22.394	59.86
22.412	59.8155
22.43	59.7826
22.448	59.7616
22.466	59.7506
22.484	59.7488
22.502	59.7567
22.52	59.7711
22.538	59.7907
22.556	59.8161
22.574	59.8435
22.592	59.8725
22.61	59.9031
22.628	59.9322
22.646	59.9604
22.664	59.9871
22.682	60.0102
22.7	60.0303
22.718	60.0471
22.736	60.0603
22.754	60.0696
22.772	60.0759
22.79	60.0793
22.808	60.0795
22.826	60.0781
22.844	60.0759
22.862	60.0725
22.88	60.0687
22.898	60.0651
22.916	60.0612
22.934	60.0583
22.952	60.0566
22.97	60.0558
22.988	60.0569
23.006	60.0599
23.024	60.0647
23.042	60.0724
23.06	60.0827
23.078	60.096
23.096	60.1134
23.114	60.1348
23.132	60.1605
23.15	60.1914
23.168	60.2273
23.186	60.2685
23.204	60.3164
23.222	60.3712
23.24	60.4324
23.258	60.5004
23.276	60.5759
23.294	60.6578
23.312	60.7436
23.33	60.8344
23.348	60.929
23.366	61.0239
23.384	61.1193
23.402	61.2151
23.42	61.3091
23.438	61.4018
23.456	61.4927
23.474	61.578
23.492	61.6585
23.51	61.7338
23.528	61.7984
23.546	61.851
23.564	61.8931
23.582	61.9211
23.6	61.933
23.618	61.9303
23.636	61.9135
23.654	61.8827
23.672	61.8378
23.69	61.7796
23.708	61.7086
23.726	61.6244
23.744	61.5279
23.762	61.4198
23.78	61.2995
23.798	61.1681
23.816	61.0266
23.834	60.8743
23.852	60.7123
23.87	60.5425
23.888	60.3637
23.906	60.1772
23.924	59.986
23.942	59.7889
23.96	59.5867
23.978	59.3841
23.996	59.1813
24.014	58.977
24.032	58.7784
24.05	58.5891
24.068	58.4048
24.086	58.2335
24.104	58.0828
24.122	57.9468
24.14	57.8319
24.158	57.7476
24.176	57.6903
24.194	57.662
24.212	57.6708
24.23	57.7182
24.248	57.8015
24.266	57.925
24.284	58.0919
24.302	58.3004
24.32	58.5486
24.338	58.8355
24.356	59.1638
24.374	59.5286
24.392	59.9227
24.41	60.3506
24.428	60.8089
24.446	61.2852
24.464	61.7773
24.482	62.2912
24.5	62.8087
24.518	63.3153
24.536	63.8232
24.554	64.3204
24.572	64.7893
24.59	65.235
24.608	65.6565
24.626	66.0387
24.644	66.3728
24.662	66.6665
24.68	66.9171
24.698	67.1216
24.716	67.2805
24.734	67.3956
24.752	67.4683
24.77	67.4916
24.788	67.4696
24.806	67.4225
24.824	67.3611
24.842	67.2675
24.86	67.1689
24.878	67.0979
24.896	67.0358
24.914	66.992
24.932	67.0098
24.95	67.1087
24.968	67.2604
24.986	67.5029
25.004	67.8764
25.022	68.3621
25.04	68.9658
25.058	69.7175
25.076	70.6328
25.094	71.6949
25.112	72.9123
25.13	74.2948
25.148	75.8498
25.166	77.5627
25.184	79.4142
25.202	81.4035
25.22	83.5466
25.238	85.7986
25.256	88.1147
25.274	90.5284
25.292	93.0198
25.31	95.5254
25.328	98.0137
25.346	100.531
25.364	103.023
25.382	105.422
25.4	107.747
25.418	110.005
25.436	112.142
25.454	114.118
25.472	115.965
25.49	117.667
25.508	119.196
25.526	120.541
25.544	121.718
25.562	122.721
25.58	123.542
25.598	124.176
25.616	124.634
25.634	124.93
25.652	125.071
25.67	125.039
25.688	124.863
25.706	124.574
25.724	124.167
25.742	123.633
25.76	123.011
25.778	122.336
25.796	121.579
25.814	120.756
25.832	119.913
25.85	119.078
25.868	118.218
25.886	117.358
25.904	116.532
25.922	115.747
25.94	114.985
25.958	114.269
25.976	113.624
25.994	113.051
26.012	112.54
26.03	112.091
26.048	111.707
26.066	111.399
26.084	111.151
26.102	110.944
26.12	110.77
26.138	110.653
26.156	110.562
26.174	110.457
26.192	110.334
26.21	110.22
26.228	110.069
26.246	109.83
26.264	109.51
26.282	109.128
26.3	108.641
26.318	108.006
26.336	107.237
26.354	106.341
26.372	105.299
26.39	104.093
26.408	102.722
26.426	101.198
26.444	99.5299
26.462	97.7226
26.48	95.7514
26.498	93.6444
26.516	91.4427
26.534	89.1721
26.552	86.7865
26.57	84.3263
26.588	81.8484
26.606	79.3845
26.624	76.8795
26.642	74.3793
26.66	71.9439
26.678	69.6053
26.696	67.3139
26.714	65.1029
26.732	63.0146
26.75	61.073
26.768	59.2491
26.786	57.5509
26.804	55.9901
26.822	54.5786
26.84	53.314
26.858	52.1789
26.876	51.1554
26.894	50.2431
26.912	49.466
26.93	48.7848
26.948	48.1564
26.966	47.5389
26.984	46.9375
27.002	46.4054
27.02	45.9975
27.028	45.8837