File: Bakgrunnsmateriale/MATLAB/FTIR/ftir_data/subBb/Mapping_121/C-4040-8_t26_cm-1.asc
PE IR       SPECTRUM    SPECTRUM    ASCII       PEDS        1.60
  -1
C-9A6E~1.ASC
17/03/27
16:38:40.00
17/03/27
16:38:40.00
tln
$C-4040-8_t0026$<tbV0>[5.2,-7.8,8.0,0.0,27,1,0]
370
64

2002,4.07
MIRTGS : RIGHTBACK : INTERNAL 2
MIR : ON : INTERNAL 2
OPTKBR

0.200000
8
8.000000
FILLER
RATIO
SPECTRUM
UNLOCKED 256

DOUBLE
64
COMBINED
1
0
0

1.000000
RATIO

1
0
TRUE
51149
0
LEFT NOT FITTED RIGHT NOT FITTED 0
NONE
NONE
15600
12
4.427000
51148
TRUE
1 0 8 72 0 0 0 0

15798

#HDR
-1
-1
#GR
CM-1
%T
2.38419e-05
0.0
5000
-1.000000
4631
8
74.5954
-5.959939
#DATA
5000	63.1969
4996	63.188
4992	63.1353
4988	63.2385
4984	63.2344
4980	63.1415
4976	63.3507
4972	63.5468
4968	63.4852
4964	63.4999
4960	63.6193
4956	63.7158
4952	63.6873
4948	63.3509
4944	63.0505
4940	63.2075
4936	63.4034
4932	63.3806
4928	63.394
4924	63.3845
4920	63.3573
4916	63.3923
4912	63.2927
4908	63.1636
4904	63.2771
4900	63.561
4896	63.6965
4892	63.4959
4888	63.2492
4884	63.1346
4880	62.9368
4876	62.7806
4872	62.8146
4868	63.0626
4864	63.5312
4860	63.6797
4856	63.4037
4852	63.2661
4848	63.3383
4844	63.39
4840	63.3146
4836	63.2775
4832	63.4109
4828	63.4917
4824	63.4257
4820	63.3342
4816	63.2125
4812	62.938
4808	62.6558
4804	62.6274
4800	62.6971
4796	62.7355
4792	62.8822
4788	62.9447
4784	62.9126
4780	62.8742
4776	62.7301
4772	62.7386
4768	62.8788
4764	62.8773
4760	62.9005
4756	63.0525
4752	63.0838
4748	63.0399
4744	63.0944
4740	63.1384
4736	63.1227
4732	63.0258
4728	62.9215
4724	63.0183
4720	63.1146
4716	63.0022
4712	62.9089
4708	62.9009
4704	62.8648
4700	62.7839
4696	62.767
4692	62.7654
4688	62.7096
4684	62.7013
4680	62.6999
4676	62.7755
4672	62.8588
4668	62.8947
4664	63.0369
4660	63.1451
4656	63.0797
4652	62.8086
4648	62.5097
4644	62.5473
4640	62.8143
4636	62.9088
4632	62.9331
4628	63.0474
4624	62.9127
4620	62.6427
4616	62.7067
4612	62.9463
4608	62.9903
4604	62.8665
4600	62.7782
4596	62.8343
4592	63.0408
4588	63.073
4584	62.7749
4580	62.6197
4576	62.8337
4572	62.986
4568	62.9005
4564	62.8477
4560	62.8507
4556	62.9176
4552	63.0594
4548	63.0804
4544	62.9784
4540	62.8806
4536	62.788
4532	62.7224
4528	62.9288
4524	63.3133
4520	63.3697
4516	63.1531
4512	62.9449
4508	62.7404
4504	62.7031
4500	62.9323
4496	63.2259
4492	63.3006
4488	63.3281
4484	63.4353
4480	63.319
4476	63.1365
4472	62.9544
4468	62.7567
4464	62.7896
4460	63.1381
4456	63.4016
4452	63.371
4448	63.2978
4444	63.1664
4440	63.146
4436	63.2817
4432	63.2548
4428	63.1783
4424	63.0779
4420	63.0501
4416	63.1378
4412	62.9459
4408	62.9341
4404	63.3757
4400	63.6425
4396	64.242
4392	64.1688
4388	62.8454
4384	60.2032
4380	53.5416
4376	48.4603
4372	54.0918
4368	67.3749
4364	74.5954
4360	70.1127
4356	65.46
4352	64.9594
4348	64.3271
4344	64.0567
4340	63.9251
4336	63.5524
4332	63.2814
4328	63.2262
4324	63.395
4320	63.402
4316	63.2603
4312	62.9369
4308	62.5144
4304	62.4684
4300	62.6799
4296	62.7022
4292	62.708
4288	62.9353
4284	63.0477
4280	63.0126
4276	62.9543
4272	62.8519
4268	62.9066
4264	62.9932
4260	62.8089
4256	62.5361
4252	62.4132
4248	62.4458
4244	62.564
4240	62.5814
4236	62.5182
4232	62.6214
4228	62.7702
4224	62.7771
4220	62.7583
4216	62.7068
4212	62.5824
4208	62.4962
4204	62.4154
4200	62.2412
4196	62.0853
4192	61.9942
4188	61.9659
4184	62.0347
4180	62.1391
4176	62.2525
4172	62.288
4168	62.2086
4164	61.9784
4160	61.7084
4156	61.6909
4152	61.9082
4148	62.1982
4144	62.3383
4140	62.2625
4136	62.1266
4132	61.9293
4128	61.7579
4124	61.8024
4120	61.9811
4116	62.0617
4112	61.9719
4108	61.8601
4104	61.8215
4100	61.7498
4096	61.7107
4092	61.7385
4088	61.6132
4084	61.4902
4080	61.4956
4076	61.5462
4072	61.6452
4068	61.7105
4064	61.8021
4060	61.8422
4056	61.7424
4052	61.659
4048	61.5875
4044	61.5772
4040	61.6385
4036	61.6262
4032	61.5648
4028	61.5345
4024	61.5689
4020	61.624
4016	61.6262
4012	61.4784
4008	61.2656
4004	61.2484
4000	61.398
3996	61.5769
3992	61.711
3988	61.6988
3984	61.6362
3980	61.741
3976	61.8563
3972	61.7426
3968	61.5482
3964	61.4216
3960	61.3871
3956	61.4289
3952	61.4224
3948	61.3573
3944	61.3493
3940	61.3362
3936	61.3207
3932	61.31
3928	61.2368
3924	61.2136
3920	61.191
3916	61.1248
3912	61.1279
3908	61.2078
3904	61.295
3900	61.3083
3896	61.3035
3892	61.3502
3888	61.3741
3884	61.3834
3880	61.4786
3876	61.549
3872	61.3576
3868	61.0936
3864	61.0978
3860	61.1965
3856	61.1712
3852	61.0634
3848	61.0013
3844	61.082
3840	61.1197
3836	61.0386
3832	61.0622
3828	61.2309
3824	61.3209
3820	61.2433
3816	61.1632
3812	61.0936
3808	60.9351
3804	60.8378
3800	60.9291
3796	61.0078
3792	60.9909
3788	60.9656
3784	60.9468
3780	60.9754
3776	60.9465
3772	60.7874
3768	60.6924
3764	60.7764
3760	60.8822
3756	60.8681
3752	60.8254
3748	60.8077
3744	60.8052
3740	60.7211
3736	60.527
3732	60.5372
3728	60.721
3724	60.7563
3720	60.6666
3716	60.5748
3712	60.5044
3708	60.4825
3704	60.5478
3700	60.5662
3696	60.4851
3692	60.5037
3688	60.5589
3684	60.5341
3680	60.4811
3676	60.3629
3672	60.2691
3668	60.2399
3664	60.2129
3660	60.2715
3656	60.3264
3652	60.3111
3648	60.3221
3644	60.2743
3640	60.1301
3636	60.0498
3632	60.0586
3628	60.0071
3624	59.9424
3620	59.9841
3616	60.0389
3612	60.0173
3608	59.981
3604	59.9727
3600	59.884
3596	59.7679
3592	59.7795
3588	59.8643
3584	59.9432
3580	59.8997
3576	59.7581
3572	59.7028
3568	59.7006
3564	59.6737
3560	59.7239
3556	59.8235
3552	59.7759
3548	59.6685
3544	59.6395
3540	59.6368
3536	59.6434
3532	59.6514
3528	59.649
3524	59.6074
3520	59.5403
3516	59.5407
3512	59.5466
3508	59.4777
3504	59.4175
3500	59.4104
3496	59.4177
3492	59.4105
3488	59.4204
3484	59.4008
3480	59.3133
3476	59.2658
3472	59.2539
3468	59.2354
3464	59.2505
3460	59.2785
3456	59.3129
3452	59.3669
3448	59.3794
3444	59.3056
3440	59.2064
3436	59.1494
3432	59.1134
3428	59.0874
3424	59.0607
3420	59.0559
3416	59.0274
3412	58.8618
3408	58.7508
3404	58.846
3400	58.9154
3396	58.8897
3392	58.8628
3388	58.8331
3384	58.878
3380	58.909
3376	58.807
3372	58.6855
3368	58.5937
3364	58.5174
3360	58.4546
3356	58.4876
3352	58.6023
3348	58.5851
3344	58.4685
3340	58.4264
3336	58.4879
3332	58.5474
3328	58.4815
3324	58.4004
3320	58.3306
3316	58.1928
3312	58.095
3308	58.1005
3304	58.1378
3300	58.1439
3296	58.0532
3292	57.9436
3288	57.9661
3284	58.0442
3280	58.0466
3276	58.0089
3272	57.9664
3268	57.9188
3264	57.8971
3260	57.8754
3256	57.8729
3252	57.9333
3248	57.927
3244	57.8501
3240	57.7969
3236	57.7388
3232	57.6692
3228	57.6235
3224	57.6438
3220	57.6059
3216	57.492
3212	57.4429
3208	57.3977
3204	57.3415
3200	57.3529
3196	57.3865
3192	57.4219
3188	57.4573
3184	57.431
3180	57.3667
3176	57.2915
3172	57.2249
3168	57.205
3164	57.1871
3160	57.0977
3156	56.9635
3152	56.8794
3148	56.885
3144	56.9638
3140	57.0165
3136	56.9439
3132	56.747
3128	56.5822
3124	56.5834
3120	56.6904
3116	56.8887
3112	57.0212
3108	56.8973
3104	56.7528
3100	56.7674
3096	56.8152
3092	56.7929
3088	56.7069
3084	56.5892
3080	56.485
3076	56.457
3072	56.5152
3068	56.5573
3064	56.4702
3060	56.3107
3056	56.2321
3052	56.2202
3048	56.2011
3044	56.2011
3040	56.2084
3036	56.1889
3032	56.1281
3028	56.0462
3024	55.9828
3020	55.9661
3016	55.9417
3012	55.907
3008	55.9229
3004	55.9149
3000	55.8797
2996	55.8337
2992	55.7596
2988	55.7233
2984	55.7324
2980	55.7195
2976	55.6228
2972	55.5191
2968	55.4555
2964	55.3299
2960	55.1908
2956	55.1599
2952	55.2116
2948	55.2797
2944	55.3097
2940	55.2313
2936	55.1197
2932	55.0504
2928	54.94
2924	54.8321
2920	54.8393
2916	54.904
2912	54.9482
2908	54.9546
2904	54.8923
2900	54.8225
2896	54.8156
2892	54.7782
2888	54.6942
2884	54.6539
2880	54.6642
2876	54.6943
2872	54.673
2868	54.6038
2864	54.5245
2860	54.4033
2856	54.2877
2852	54.2532
2848	54.3041
2844	54.3938
2840	54.4112
2836	54.3344
2832	54.3011
2828	54.2898
2824	54.248
2820	54.2582
2816	54.2684
2812	54.2118
2808	54.106
2804	53.9661
2800	53.8613
2796	53.8362
2792	53.82
2788	53.7734
2784	53.7132
2780	53.6596
2776	53.6202
2772	53.5667
2768	53.5291
2764	53.5396
2760	53.5745
2756	53.5712
2752	53.5007
2748	53.4238
2744	53.34
2740	53.2398
2736	53.1818
2732	53.1453
2728	53.0933
2724	53.1055
2720	53.1769
2716	53.1468
2712	53.016
2708	52.9459
2704	52.9226
2700	52.8663
2696	52.8347
2692	52.7983
2688	52.6934
2684	52.64
2680	52.6597
2676	52.6682
2672	52.6881
2668	52.6348
2664	52.4896
2660	52.3835
2656	52.3166
2652	52.2738
2648	52.2466
2644	52.2136
2640	52.1746
2636	52.1099
2632	52.0138
2628	51.9502
2624	51.9701
2620	51.9636
2616	51.8841
2612	51.7884
2608	51.6953
2604	51.6847
2600	51.7582
2596	51.801
2592	51.786
2588	51.735
2584	51.7043
2580	51.7303
2576	51.7022
2572	51.5661
2568	51.4308
2564	51.353
2560	51.3151
2556	51.3021
2552	51.2507
2548	51.1662
2544	51.1323
2540	51.1608
2536	51.1768
2532	51.0744
2528	50.9449
2524	50.9351
2520	50.883
2516	50.7154
2512	50.6653
2508	50.7588
2504	50.8047
2500	50.7144
2496	50.5526
2492	50.4464
2488	50.4627
2484	50.507
2480	50.4664
2476	50.3794
2472	50.3179
2468	50.309
2464	50.3284
2460	50.3355
2456	50.2976
2452	50.2046
2448	50.1179
2444	50.0652
2440	49.9737
2436	49.8787
2432	49.9078
2428	49.9576
2424	49.9141
2420	49.9023
2416	49.8355
2412	49.5952
2408	49.4334
2404	49.4741
2400	49.5172
2396	49.4678
2392	49.399
2388	49.3437
2384	49.2587
2380	49.1416
2376	49.0925
2372	49.1014
2368	49.1088
2364	49.1148
2360	49.0863
2356	49.0146
2352	48.9534
2348	48.9054
2344	48.8599
2340	48.8472
2336	48.8126
2332	48.7442
2328	48.6572
2324	48.5209
2320	48.4196
2316	48.4041
2312	48.3818
2308	48.3491
2304	48.317
2300	48.1946
2296	48.0555
2292	48.0268
2288	48.0838
2284	48.114
2280	48.0419
2276	47.925
2272	47.8419
2268	47.8194
2264	47.8313
2260	47.8186
2256	47.7445
2252	47.6351
2248	47.5255
2244	47.455
2240	47.4257
2236	47.3943
2232	47.3608
2228	47.3091
2224	47.2365
2220	47.1579
2216	47.0508
2212	46.9905
2208	47.0305
2204	47.0349
2200	46.9894
2196	46.986
2192	46.9764
2188	46.8764
2184	46.74
2180	46.7095
2176	46.7257
2172	46.6975
2168	46.6652
2164	46.6021
2160	46.4742
2156	46.3464
2152	46.3088
2148	46.3248
2144	46.2953
2140	46.203
2136	46.1394
2132	46.1656
2128	46.1689
2124	46.0731
2120	45.9337
2116	45.8327
2112	45.7947
2108	45.7603
2104	45.7177
2100	45.6736
2096	45.6275
2092	45.6035
2088	45.6119
2084	45.6109
2080	45.4997
2076	45.3424
2072	45.3279
2068	45.3719
2064	45.2759
2060	45.1694
2056	45.1161
2052	45.0265
2048	44.9655
2044	44.9445
2040	44.8964
2036	44.8285
2032	44.8141
2028	44.8027
2024	44.7
2020	44.577
2016	44.5344
2012	44.5579
2008	44.5678
2004	44.521
2000	44.4262
1996	44.344
1992	44.2804
1988	44.2019
1984	44.1683
1980	44.1384
1976	44.0506
1972	43.9747
1968	43.9207
1964	43.8654
1960	43.8082
1956	43.7201
1952	43.6351
1948	43.5705
1944	43.5301
1940	43.5768
1936	43.6111
1932	43.5163
1928	43.3923
1924	43.3435
1920	43.3367
1916	43.2776
1912	43.1422
1908	42.9988
1904	42.9294
1900	42.9543
1896	42.9917
1892	42.9524
1888	42.8711
1884	42.8077
1880	42.7564
1876	42.7063
1872	42.6553
1868	42.5978
1864	42.5419
1860	42.4868
1856	42.4111
1852	42.3431
1848	42.3109
1844	42.2891
1840	42.2414
1836	42.1494
1832	42.0726
1828	42.043
1824	41.9647
1820	41.8385
1816	41.7537
1812	41.7221
1808	41.6766
1804	41.6036
1800	41.6019
1796	41.634
1792	41.5971
1788	41.5197
1784	41.4382
1780	41.3692
1776	41.2993
1772	41.2421
1768	41.2357
1764	41.2081
1760	41.1157
1756	41.0224
1752	40.9538
1748	40.8931
1744	40.8635
1740	40.8244
1736	40.7228
1732	40.602
1728	40.4926
1724	40.4536
1720	40.5115
1716	40.5348
1712	40.4727
1708	40.4103
1704	40.346
1700	40.2665
1696	40.1701
1692	40.0894
1688	40.074
1684	40.0244
1680	39.9289
1676	39.9134
1672	39.9344
1668	39.9148
1664	39.8628
1660	39.7803
1656	39.6455
1652	39.5149
1648	39.5169
1644	39.5645
1640	39.5273
1636	39.4369
1632	39.3464
1628	39.2856
1624	39.2437
1620	39.2104
1616	39.1887
1612	39.1402
1608	39.0495
1604	38.9773
1600	38.9477
1596	38.9165
1592	38.8691
1588	38.8327
1584	38.793
1580	38.7161
1576	38.656
1572	38.6281
1568	38.5524
1564	38.4679
1560	38.4238
1556	38.3614
1552	38.2617
1548	38.147
1544	38.0771
1540	38.0846
1536	38.0656
1532	38.0088
1528	37.9866
1524	37.9435
1520	37.8463
1516	37.7651
1512	37.7324
1508	37.7167
1504	37.6977
1500	37.6426
1496	37.5693
1492	37.4805
1488	37.3588
1484	37.2966
1480	37.2777
1476	37.2509
1472	37.2385
1468	37.2369
1464	37.2105
1460	37.1437
1456	37.1076
1452	37.1157
1448	37.0917
1444	37.0241
1440	36.9256
1436	36.7987
1432	36.6103
1428	36.4346
1424	36.4268
1420	36.4982
1416	36.4886
1412	36.4028
1408	36.2967
1404	36.2124
1400	36.1586
1396	36.1734
1392	36.1995
1388	36.1337
1384	35.9933
1380	35.8349
1376	35.7447
1372	35.7415
1368	35.7745
1364	35.795
1360	35.7497
1356	35.6745
1352	35.5999
1348	35.5102
1344	35.4673
1340	35.4363
1336	35.3263
1332	35.1953
1328	35.1452
1324	35.1442
1320	35.0895
1316	34.9921
1312	34.9265
1308	34.9285
1304	34.9356
1300	34.8929
1296	34.8413
1292	34.8236
1288	34.8204
1284	34.7747
1280	34.6801
1276	34.5881
1272	34.5376
1268	34.4731
1264	34.3791
1260	34.3163
1256	34.3049
1252	34.3055
1248	34.2409
1244	34.1287
1240	34.0032
1236	33.8787
1232	33.8296
1228	33.8367
1224	33.8057
1220	33.7429
1216	33.7014
1212	33.7316
1208	33.7723
1204	33.7011
1200	33.5872
1196	33.517
1192	33.4286
1188	33.2796
1184	33.1305
1180	33.0847
1176	33.1242
1172	33.0798
1168	32.9899
1164	32.9905
1160	32.986
1156	32.9009
1152	32.7804
1148	32.7164
1144	32.7178
1140	32.6972
1136	32.678
1132	32.6591
1128	32.6038
1124	32.4934
1120	32.3438
1116	32.3001
1112	32.4255
1108	32.5047
1104	32.3349
1100	32.1152
1096	32.0712
1092	32.1083
1088	32.136
1084	32.118
1080	31.9221
1076	31.6412
1072	31.633
1068	31.8282
1064	31.9294
1060	31.9349
1056	31.8765
1052	31.702
1048	31.5002
1044	31.5257
1040	31.5919
1036	31.4155
1032	31.202
1028	31.0062
1024	30.8918
1020	31.0927
1016	31.2109
1012	30.9636
1008	30.802
1004	30.7443
1000	30.4315
996	 30.0869
992	 30.1459
988	 30.4832
984	 30.6984
980	 30.6483
976	 30.442
972	 30.2838
968	 30.1654
964	 30.0944
960	 30.1048
956	 29.9841
952	 29.7974
948	 29.7304
944	 29.714
940	 29.6471
936	 29.5519
932	 29.496
928	 29.3811
924	 29.2549
920	 29.2615
916	 29.2472
912	 29.1296
908	 29.009
904	 28.9804
900	 28.9949
896	 28.8879
892	 28.7376
888	 28.7097
884	 28.7579
880	 28.766
876	 28.7514
872	 28.6193
868	 28.3591
864	 28.2374
860	 28.1874
856	 28.0544
852	 27.9646
848	 27.9809
844	 28.0604
840	 28.0498
836	 27.8837
832	 27.7426
828	 27.5725
824	 27.3875
820	 27.3143
816	 27.1943
812	 27.1206
808	 27.1855
804	 27.1584
800	 26.9655
796	 26.8423
792	 26.9478
788	 26.9696
784	 26.663
780	 26.4432
776	 26.3761
772	 26.1952
768	 26.1729
764	 26.3434
760	 26.3585
756	 25.9812
752	 25.4252
748	 25.2978
744	 25.4912
740	 25.5102
736	 25.5065
732	 25.5784
728	 25.3818
724	 24.9565
720	 24.7858
716	 24.9019
712	 24.9475
708	 24.8975
704	 24.8345
700	 24.6933
696	 24.5075
692	 24.4729
688	 24.4426
684	 24.1248
680	 23.9235
676	 23.9487
672	 23.8639
668	 23.7747
664	 23.6888
660	 23.533
656	 23.3777
652	 23.1931
648	 22.9841
644	 22.7954
640	 22.5934
636	 22.2517
632	 22.0028
628	 22.1115
624	 22.3077
620	 22.4508
616	 22.5595
612	 22.4453
608	 22.1062
604	 21.8946
600	 21.8109
596	 21.6353
592	 21.498
588	 21.4088
584	 21.2713
580	 21.1557
576	 21.2118
572	 21.2015
568	 20.7869
564	 20.4327
560	 20.3019
556	 19.906
552	 19.4968
548	 19.4559
544	 19.4974
540	 19.4198
536	 19.3134
532	 19.0969
528	 18.8667
524	 19.0394
520	 19.2089
516	 18.8717
512	 18.5682
508	 18.4967
504	 18.3687
500	 18.0428
496	 17.5632
492	 17.4239
488	 17.4465
484	 17.1401
480	 16.9765
476	 16.9403
472	 16.6205
468	 16.3215
464	 16.2741
460	 16.5872
456	 16.8353
452	 16.6466
448	 15.8345
444	 14.5941
440	 14.6371
436	 16.0456
432	 16.7233
428	 15.6689
424	 14.5461
420	 15.4616
416	 17.3613
412	 16.6904
408	 14.6164
404	 13.9658
400	 12.0869
396	 11.8772
392	 22.0646
388	 32.0216
384	 32.9204
380	 36.9103
376	 35.1022
372	 7.330131
370	 -5.959939