File: Bakgrunnsmateriale/MATLAB/FTIR/ftir_data/subBb/Mapping_121/C-4040-8_t70.asc
PE IR       SPECTRUM    SPECTRUM    ASCII       PEDS        1.60
  -1
C-A14A~1.ASC
17/03/27
20:16:39.00
17/03/27
20:17:05.00
tln
$C-4040-8_t0070$<tbV0>[5.2,2.6,8.0,0.0,27,1,0]
27.028
64

2002,4.07
MIRTGS : RIGHTBACK : INTERNAL 2
MIR : ON : INTERNAL 2
OPTKBR

0.200000
8
8.000000
FILLER
RATIO
SPECTRUM
UNLOCKED 256

DOUBLE
64
COMBINED
1
0
0

0.002000
RATIO

1
0
TRUE
51149
0
LEFT NOT FITTED RIGHT NOT FITTED 0
NONE
NONE
15600
12
4.427000
51148
TRUE
1 0 8 72 0 0 0 0

15798

#HDR
-1
-1
#GR
µM
%T
2.38419e-05
0.0
2.000000
0.002000
12515
8
87.3601
28.6632
#DATA
2.000000	 65.1682
2.018000	 65.2406
2.036000	 64.5043
2.054000	 64.8545
2.072000	 64.6281
2.090000	 64.9609
2.108000	 65.3091
2.126000	 65.3324
2.144000	 64.7655
2.162000	 65.2408
2.180000	 65.0311
2.198000	 65.4148
2.216000	 64.836
2.234000	 64.3516
2.252000	 64.3503
2.270000	 63.4966
2.288000	 72.0679
2.306000	 65.148
2.324000	 64.4806
2.342000	 64.5975
2.360000	 64.9497
2.378000	 64.9742
2.396000	 65.5039
2.414000	 65.0021
2.432000	 65.1685
2.450000	 65.3014
2.468000	 65.3593
2.486000	 65.3702
2.504000	 65.42
2.522000	 65.2996
2.540000	 65.0806
2.558000	 65.3746
2.576000	 65.1491
2.594000	 64.9197
2.612000	 65.422
2.630000	 65.3074
2.648000	 65.2327
2.666000	 65.2506
2.684000	 65.2818
2.702000	 65.1342
2.720000	 65.3329
2.738000	 65.2898
2.756000	 65.1873
2.774000	 65.2008
2.792000	 65.3357
2.810000	 65.2492
2.828000	 65.4042
2.846000	 65.3171
2.864000	 65.3598
2.882000	 65.1141
2.900000	 65.304
2.918000	 64.8104
2.936000	 65.2656
2.954000	 65.3385
2.972000	 65.1931
2.990000	 65.5069
3.008000	 65.1944
3.026000	 65.4224
3.044000	 65.4076
3.062000	 65.2638
3.080000	 65.362
3.098000	 65.2301
3.116000	 65.1527
3.134000	 65.3902
3.152000	 65.3902
3.170000	 65.3282
3.188000	 65.2911
3.206000	 65.2476
3.224000	 65.3668
3.242000	 65.2467
3.260000	 65.3133
3.278000	 65.3407
3.296000	 65.314
3.314000	 65.2641
3.332000	 65.0756
3.350000	 65.242
3.368000	 64.9563
3.386000	 65.0012
3.404000	 65.0733
3.422000	 64.8968
3.440000	 65.0853
3.458000	 65.2219
3.476000	 65.2559
3.494000	 65.4254
3.512000	 65.2552
3.530000	 65.3676
3.548000	 65.5497
3.566000	 65.455
3.584000	 65.3034
3.602000	 65.3867
3.620000	 65.3703
3.638000	 65.4627
3.656000	 65.3631
3.674000	 65.3461
3.692000	 65.6088
3.710000	 65.3644
3.728000	 65.4364
3.746000	 65.3699
3.764000	 65.3673
3.782000	 65.2739
3.800000	 65.5301
3.818000	 65.5156
3.836000	 65.4291
3.854000	 65.3403
3.872000	 65.3483
3.890000	 65.3626
3.908000	 65.3631
3.926000	 65.2721
3.944000	 65.2879
3.962000	 65.3214
3.980000	 65.4202
3.998000	 65.3256
4.016000	 65.3808
4.034000	 65.3915
4.052000	 65.5189
4.070000	 65.5202
4.088000	 65.488
4.106000	 65.1795
4.124000	 65.0959
4.141999	 65.1708
4.160000	 65.4155
4.178000	 65.2374
4.196000	 65.336
4.214000	 65.2362
4.232000	 65.3977
4.250000	 65.5171
4.268000	 65.4316
4.286000	 65.3753
4.304000	 65.3685
4.322000	 65.6259
4.340000	 65.5024
4.358000	 65.4182
4.375999	 65.4004
4.394000	 65.4235
4.412000	 65.3167
4.430000	 65.4011
4.448000	 65.4072
4.466000	 65.4325
4.484000	 65.4162
4.502000	 65.3938
4.520000	 65.3877
4.538000	 65.2758
4.556000	 65.416
4.574000	 65.417
4.592000	 65.3945
4.609999	 65.3281
4.628000	 65.4353
4.646000	 65.3089
4.664000	 65.3612
4.682000	 65.3929
4.700000	 65.4179
4.718000	 65.3698
4.736000	 65.4274
4.754000	 65.4106
4.772000	 65.4762
4.790000	 65.4028
4.808000	 65.161
4.826000	 65.3647
4.843999	 65.3516
4.862000	 65.2028
4.880000	 65.3272
4.898000	 65.4114
4.916000	 65.4597
4.934000	 65.5446
4.952000	 65.4558
4.970000	 65.4535
4.988000	 65.3332
5.006000	 65.2722
5.024000	 65.3487
5.042000	 65.2937
5.060000	 65.1804
5.077999	 65.3284
5.096000	 65.4642
5.114000	 65.5018
5.132000	 65.3794
5.150000	 65.3109
5.168000	 65.4168
5.186000	 65.5703
5.204000	 65.4781
5.222000	 65.3553
5.240000	 65.3042
5.258000	 65.2313
5.276000	 65.3695
5.294000	 65.4118
5.312000	 65.3722
5.330000	 65.4151
5.348000	 65.4823
5.366000	 65.4605
5.384000	 65.4249
5.402000	 65.3645
5.420000	 65.417
5.438000	 65.4268
5.456000	 65.4502
5.474000	 65.528
5.492000	 65.5768
5.510000	 65.5086
5.528000	 65.3965
5.546000	 65.3419
5.564000	 65.4042
5.582000	 65.4082
5.600000	 65.4174
5.618000	 65.3965
5.636000	 65.4155
5.654000	 65.3001
5.672000	 65.2204
5.690000	 65.3774
5.708000	 65.3658
5.726000	 65.2645
5.744000	 65.2576
5.762000	 65.2233
5.780000	 65.1854
5.798000	 65.2123
5.816000	 65.1959
5.834000	 65.2525
5.852000	 65.2132
5.870000	 65.3757
5.888000	 65.384
5.906000	 65.3069
5.923999	 65.3049
5.942000	 65.3125
5.960000	 65.3839
5.978000	 65.4306
5.996000	 65.428
6.014000	 65.4688
6.032000	 65.4297
6.050000	 65.359
6.068000	 65.385
6.086000	 65.4083
6.104000	 65.3374
6.122000	 65.2685
6.140000	 65.2224
6.158000	 65.1662
6.176000	 65.1228
6.194000	 65.1001
6.212000	 65.13
6.230000	 65.1982
6.248000	 65.2541
6.266000	 65.1889
6.284000	 65.1369
6.302000	 65.1608
6.320000	 65.1809
6.338000	 65.1734
6.356000	 65.1002
6.374000	 65.0618
6.392000	 65.0977
6.410000	 65.0883
6.428000	 65.0654
6.446000	 65.0556
6.464000	 65.0743
6.482000	 65.1163
6.500000	 65.1194
6.518000	 65.123
6.536000	 65.143
6.554000	 65.1729
6.572000	 65.1697
6.590000	 65.1287
6.608000	 65.1062
6.626000	 65.1526
6.644000	 65.221
6.662000	 65.2689
6.680000	 65.305
6.698000	 65.3254
6.716000	 65.3472
6.734000	 65.3526
6.752000	 65.321
6.770000	 65.264
6.788000	 65.2154
6.806000	 65.1731
6.824000	 65.1226
6.842000	 65.156
6.860000	 65.2818
6.878000	 65.2914
6.896000	 65.0679
6.914000	 64.8144
6.932000	 64.784
6.950000	 64.9584
6.968000	 65.1313
6.986000	 65.2151
7.004000	 65.2401
7.022000	 65.2239
7.040000	 65.1907
7.058000	 65.1423
7.076000	 65.1211
7.094000	 65.1683
7.112000	 65.2078
7.130000	 65.2183
7.148000	 65.246
7.166000	 65.2406
7.184000	 65.1795
7.202000	 65.1368
7.220000	 65.1431
7.238000	 65.1754
7.256000	 65.2037
7.274000	 65.1886
7.292000	 65.1498
7.310000	 65.1444
7.328000	 65.1466
7.346000	 65.117
7.364000	 65.0879
7.382000	 65.0882
7.400000	 65.1173
7.418000	 65.1434
7.436000	 65.1301
7.454000	 65.11
7.472000	 65.1259
7.490000	 65.1521
7.508000	 65.1557
7.526000	 65.1268
7.544000	 65.0695
7.562000	 65.0067
7.580000	 64.9569
7.598000	 64.9401
7.616000	 64.9858
7.634000	 65.0707
7.652000	 65.1319
7.670000	 65.1522
7.688000	 65.1521
7.706000	 65.1465
7.724000	 65.1567
7.742000	 65.1923
7.760000	 65.225
7.778000	 65.2218
7.796000	 65.1823
7.814000	 65.1363
7.832000	 65.1124
7.850000	 65.1078
7.868000	 65.1105
7.886000	 65.1376
7.904000	 65.1843
7.922000	 65.1749
7.940000	 65.0665
7.958000	 64.9495
7.976000	 64.9365
7.994000	 65.0032
8.012000	 65.0375
8.030000	 64.9968
8.048000	 64.9382
8.065999	 64.9218
8.084000	 64.9416
8.102000	 64.9474
8.120000	 64.9096
8.138000	 64.8588
8.155999	 64.8552
8.173999	 64.9043
8.192000	 64.9486
8.210000	 64.9569
8.228000	 64.9624
8.246000	 64.9845
8.263999	 64.9948
8.282000	 64.9851
8.300000	 64.9856
8.318000	 64.9968
8.336000	 64.9918
8.353999	 64.9798
8.372000	 64.9917
8.390000	 65.0133
8.408000	 65.0022
8.426000	 64.9618
8.443999	 64.9416
8.462000	 64.9638
8.480000	 64.9964
8.498000	 65.0012
8.516000	 64.9707
8.533999	 64.9231
8.552000	 64.8907
8.570000	 64.8942
8.588000	 64.9128
8.606000	 64.9091
8.624000	 64.8829
8.641999	 64.8657
8.660000	 64.867
8.678000	 64.8592
8.696000	 64.8239
8.714000	 64.7842
8.731999	 64.7711
8.750000	 64.7856
8.768000	 64.8106
8.786000	 64.8404
8.804000	 64.8751
8.821999	 64.8959
8.840000	 64.8715
8.858000	 64.7984
8.876000	 64.7167
8.894000	 64.6774
8.911999	 64.6981
8.930000	 64.759
8.948000	 64.8338
8.966000	 64.9126
8.984000	 64.9962
9.001999	 65.0822
9.020000	 65.1611
9.038000	 65.2141
9.056000	 65.2049
9.074000	 65.0926
9.092000	 64.8698
9.109999	 64.5949
9.128000	 64.3695
9.146000	 64.265
9.164000	 64.2734
9.182000	 64.3346
9.199999	 64.4022
9.218000	 64.4739
9.236000	 64.561
9.254000	 64.6501
9.272000	 64.7094
9.289999	 64.7269
9.308000	 64.7239
9.326000	 64.7301
9.344000	 64.7494
9.362000	 64.7599
9.379999	 64.7402
9.398000	 64.698
9.416000	 64.6671
9.434000	 64.6791
9.452000	 64.7343
9.469999	 64.7976
9.488000	 64.8268
9.506000	 64.8133
9.524000	 64.7932
9.542000	 64.8087
9.560000	 64.8604
9.577999	 64.9061
9.596000	 64.9048
9.614000	 64.8518
9.632000	 64.7731
9.650000	 64.6966
9.667999	 64.6347
9.686000	 64.5872
9.704000	 64.5517
9.722000	 64.5252
9.740000	 64.4996
9.757999	 64.4668
9.776000	 64.4286
9.794000	 64.4008
9.812000	 64.4002
9.830000	 64.4278
9.847999	 64.4671
9.866000	 64.5018
9.884000	 64.5332
9.902000	 64.5787
9.920000	 64.6533
9.937999	 64.7487
9.956000	 64.8357
9.974000	 64.8858
9.992000	 64.8901
10.01	64.8633
10.028	64.8276
10.046	64.7947
10.064	64.757
10.082	64.6983
10.1	64.6068
10.118	64.4856
10.136	64.3518
10.154	64.2251
10.172	64.1193
10.19	64.0388
10.208	63.9813
10.226	63.9459
10.244	63.936
10.262	63.9613
10.28	64.0275
10.298	64.13
10.316	64.2514
10.334	64.3703
10.352	64.4742
10.37	64.5621
10.388	64.6377
10.406	64.6995
10.424	64.7385
10.442	64.7472
10.46	64.7293
10.478	64.7022
10.496	64.6877
10.514	64.6951
10.532	64.7156
10.55	64.7291
10.568	64.7193
10.586	64.6833
10.604	64.6314
10.622	64.5785
10.64	64.5355
10.658	64.5056
10.676	64.4852
10.694	64.4691
10.712	64.4545
10.73	64.445
10.748	64.4471
10.766	64.4651
10.784	64.4971
10.802	64.532
10.82	64.5558
10.838	64.5576
10.856	64.5379
10.874	64.5093
10.892	64.4899
10.91	64.4946
10.928	64.526
10.946	64.5753
10.964	64.6287
10.982	64.6742
11	64.7063
11.018	64.7261
11.036	64.7387
11.054	64.7503
11.072	64.7651
11.09	64.7845
11.108	64.8074
11.126	64.8297
11.144	64.8463
11.162	64.8512
11.18	64.84
11.198	64.8113
11.216	64.7676
11.234	64.7152
11.252	64.6624
11.27	64.6168
11.288	64.5834
11.306	64.5631
11.324	64.5517
11.342	64.5413
11.36	64.5239
11.378	64.4943
11.396	64.4532
11.414	64.4069
11.432	64.3661
11.45	64.3408
11.468	64.3372
11.486	64.3554
11.504	64.3891
11.522	64.4286
11.54	64.464
11.558	64.4875
11.576	64.496
11.594	64.4907
11.612	64.476
11.63	64.4569
11.648	64.437
11.666	64.4191
11.684	64.4038
11.702	64.3905
11.72	64.3785
11.738	64.3664
11.756	64.3533
11.774	64.3389
11.792	64.3241
11.81	64.3112
11.828	64.3036
11.846	64.3042
11.864	64.3138
11.882	64.3304
11.9	64.348
11.918	64.3588
11.936	64.3567
11.954	64.3403
11.972	64.3136
11.99	64.2845
12.008	64.2614
12.026	64.2499
12.044	64.2499
12.062	64.2573
12.08	64.2663
12.098	64.273
12.116	64.2777
12.134	64.2849
12.152	64.3005
12.17	64.3283
12.188	64.3672
12.206	64.4111
12.224	64.4512
12.242	64.4803
12.26	64.4957
12.278	64.4994
12.296	64.4958
12.314	64.4892
12.332	64.4809
12.35	64.4686
12.368	64.4471
12.386	64.4116
12.404	64.3592
12.422	64.2911
12.44	64.2121
12.458	64.1295
12.476	64.0517
12.494	63.9858
12.512	63.9364
12.53	63.9047
12.548	63.8896
12.566	63.8879
12.584	63.8962
12.602	63.9113
12.62	63.9308
12.638	63.9537
12.656	63.9803
12.674	64.0112
12.692	64.0466
12.71	64.0861
12.728	64.1276
12.746	64.1675
12.764	64.2011
12.782	64.2233
12.8	64.2298
12.818	64.2183
12.836	64.1885
12.854	64.1423
12.872	64.0842
12.89	64.0202
12.908	63.9564
12.926	63.8996
12.944	63.8555
12.962	63.8293
12.98	63.824
12.998	63.8405
13.016	63.8763
13.034	63.9258
13.052	63.9803
13.07	64.0292
13.088	64.0628
13.106	64.0741
13.124	64.0603
13.142	64.0236
13.16	63.971
13.178	63.912
13.196	63.8565
13.214	63.8122
13.232	63.7833
13.25	63.7701
13.268	63.77
13.286	63.7789
13.304	63.7932
13.322	63.8109
13.34	63.8321
13.358	63.8574
13.376	63.887
13.394	63.9187
13.412	63.948
13.43	63.9677
13.448	63.97
13.466	63.9483
13.484	63.8991
13.502	63.8238
13.52	63.7284
13.538	63.6226
13.556	63.5179
13.574	63.4247
13.592	63.3507
13.61	63.2985
13.628	63.2666
13.646	63.2494
13.664	63.2402
13.682	63.2324
13.7	63.2228
13.718	63.2114
13.736	63.2024
13.754	63.2023
13.772	63.2188
13.79	63.2572
13.808	63.3197
13.826	63.4038
13.844	63.5027
13.862	63.6061
13.88	63.702
13.898	63.7792
13.916	63.8288
13.934	63.8457
13.952	63.8291
13.97	63.7822
13.988	63.711
14.006	63.6232
14.024	63.5263
14.042	63.4272
14.06	63.3314
14.078	63.2427
14.096	63.1638
14.114	63.0972
14.132	63.0448
14.15	63.0087
14.168	62.9903
14.186	62.9904
14.204	63.0087
14.222	63.0434
14.24	63.0912
14.258	63.1476
14.276	63.2071
14.294	63.2642
14.312	63.3139
14.33	63.3523
14.348	63.3767
14.366	63.3859
14.384	63.3798
14.402	63.3595
14.42	63.3266
14.438	63.2831
14.456	63.2312
14.474	63.1737
14.492	63.1136
14.51	63.0543
14.528	62.9998
14.546	62.9538
14.564	62.9197
14.582	62.9004
14.6	62.8972
14.618	62.9104
14.636	62.938
14.654	62.9765
14.672	63.0216
14.69	63.0683
14.708	63.1116
14.726	63.1468
14.744	63.1699
14.762	63.1786
14.78	63.1722
14.798	63.1507
14.816	63.1155
14.834	63.0688
14.852	63.0133
14.87	62.9524
14.888	62.889
14.906	62.8263
14.924	62.7674
14.942	62.7154
14.96	62.6727
14.978	62.6415
14.996	62.623
15.014	62.618
15.032	62.6261
15.05	62.6456
15.068	62.674
15.086	62.7081
15.104	62.7446
15.122	62.7792
15.14	62.8089
15.158	62.8315
15.176	62.8457
15.194	62.8511
15.212	62.8488
15.23	62.8402
15.248	62.8271
15.266	62.811
15.284	62.7935
15.302	62.775
15.32	62.7556
15.338	62.7351
15.356	62.7126
15.374	62.6877
15.392	62.6599
15.41	62.6296
15.428	62.5975
15.446	62.5655
15.464	62.5353
15.482	62.5088
15.5	62.4882
15.518	62.4753
15.536	62.4711
15.554	62.4761
15.572	62.4901
15.59	62.5124
15.608	62.5419
15.626	62.5772
15.644	62.6171
15.662	62.6601
15.68	62.7051
15.698	62.751
15.716	62.7964
15.734	62.8399
15.752	62.8802
15.77	62.916
15.788	62.9456
15.806	62.9678
15.824	62.9813
15.842	62.9852
15.86	62.9791
15.878	62.9629
15.896	62.9369
15.914	62.902
15.932	62.8592
15.95	62.8096
15.968	62.7546
15.986	62.696
16.004	62.635
16.022	62.5731
16.04	62.5121
16.058	62.4534
16.076	62.3982
16.094	62.3482
16.112	62.3047
16.13	62.2685
16.148	62.2405
16.166	62.2212
16.184	62.2103
16.202	62.2073
16.22	62.2109
16.238	62.2195
16.256	62.2315
16.274	62.2448
16.292	62.2579
16.31	62.2695
16.328	62.2788
16.346	62.2862
16.364	62.2918
16.382	62.2973
16.4	62.3046
16.418	62.3148
16.436	62.3304
16.454	62.3525
16.472	62.3816
16.49	62.4183
16.508	62.4616
16.526	62.5106
16.544	62.5628
16.562	62.6154
16.58	62.6662
16.598	62.7113
16.616	62.7487
16.634	62.7764
16.652	62.7924
16.67	62.7964
16.688	62.7879
16.706	62.7683
16.724	62.7386
16.742	62.7007
16.76	62.6577
16.778	62.611
16.796	62.5637
16.814	62.5182
16.832	62.4758
16.85	62.4388
16.868	62.408
16.886	62.3844
16.904	62.3683
16.922	62.3596
16.94	62.3582
16.958	62.3632
16.976	62.3742
16.994	62.3901
17.012	62.4105
17.03	62.4347
17.048	62.4621
17.066	62.4927
17.084	62.526
17.102	62.5617
17.12	62.5993
17.138	62.6381
17.156	62.6769
17.174	62.7148
17.192	62.7495
17.21	62.7797
17.228	62.8027
17.246	62.8167
17.264	62.8202
17.282	62.811
17.3	62.789
17.318	62.7535
17.336	62.7055
17.354	62.6455
17.372	62.5767
17.39	62.5006
17.408	62.4209
17.426	62.3407
17.444	62.2622
17.462	62.1897
17.48	62.1241
17.498	62.0683
17.516	62.0229
17.534	61.9888
17.552	61.9654
17.57	61.9524
17.588	61.948
17.606	61.9512
17.624	61.9604
17.642	61.9737
17.66	61.9902
17.678	62.0079
17.696	62.0265
17.714	62.0446
17.732	62.0618
17.75	62.0777
17.768	62.0917
17.786	62.1037
17.804	62.113
17.822	62.1194
17.84	62.122
17.858	62.1207
17.876	62.1146
17.894	62.1035
17.912	62.0872
17.93	62.0654
17.948	62.0383
17.966	62.0067
17.984	61.9711
18.002	61.9331
18.02	61.8939
18.038	61.8546
18.056	61.8174
18.074	61.7829
18.092	61.7529
18.11	61.7278
18.128	61.7085
18.146	61.6949
18.164	61.687
18.182	61.684
18.2	61.6855
18.218	61.6899
18.236	61.6965
18.254	61.7034
18.272	61.7101
18.29	61.7151
18.308	61.7184
18.326	61.719
18.344	61.7172
18.362	61.7129
18.38	61.7062
18.398	61.6975
18.416	61.6872
18.434	61.6755
18.452	61.6627
18.47	61.649
18.488	61.6339
18.506	61.6175
18.524	61.599
18.542	61.5781
18.56	61.5539
18.578	61.5262
18.596	61.4944
18.614	61.4583
18.632	61.4182
18.65	61.3742
18.668	61.3272
18.686	61.2776
18.704	61.2272
18.722	61.1763
18.74	61.127
18.758	61.0795
18.776	61.0356
18.794	60.9953
18.812	60.9595
18.83	60.9276
18.848	60.8994
18.866	60.8741
18.884	60.8506
18.902	60.8281
18.92	60.805
18.938	60.7809
18.956	60.7544
18.974	60.7255
18.992	60.6935
19.01	60.6594
19.028	60.6239
19.046	60.5886
19.064	60.5555
19.082	60.5265
19.1	60.5048
19.118	60.4918
19.136	60.4913
19.154	60.5035
19.172	60.5317
19.19	60.5753
19.208	60.6353
19.226	60.7106
19.244	60.7998
19.262	60.9015
19.28	61.0112
19.298	61.1283
19.316	61.2453
19.334	61.3626
19.352	61.4716
19.37	61.5729
19.388	61.6595
19.406	61.7317
19.424	61.7854
19.442	61.8201
19.46	61.8357
19.478	61.8313
19.496	61.8098
19.514	61.7709
19.532	61.7187
19.55	61.6548
19.568	61.5826
19.586	61.5055
19.604	61.4253
19.622	61.3471
19.64	61.2709
19.658	61.201
19.676	61.1369
19.694	61.0812
19.712	61.0338
19.73	60.9941
19.748	60.9624
19.766	60.9363
19.784	60.9161
19.802	60.8989
19.82	60.8834
19.838	60.8681
19.856	60.8506
19.874	60.8309
19.892	60.8062
19.91	60.777
19.928	60.7421
19.946	60.7016
19.964	60.6564
19.982	60.606
20	60.5525
20.018	60.4964
20.036	60.4391
20.054	60.3828
20.072	60.3275
20.09	60.2767
20.108	60.2298
20.126	60.1898
20.144	60.1565
20.162	60.1316
20.18	60.1157
20.198	60.109
20.216	60.1126
20.234	60.126
20.252	60.1496
20.27	60.1833
20.288	60.2264
20.306	60.2792
20.324	60.3405
20.342	60.4099
20.36	60.4868
20.378	60.5696
20.396	60.6583
20.414	60.7501
20.432	60.8454
20.45	60.9413
20.468	61.0371
20.486	61.1316
20.504	61.2214
20.522	61.3072
20.54	61.3847
20.558	61.4546
20.576	61.5138
20.594	61.561
20.612	61.5958
20.63	61.616
20.648	61.6219
20.666	61.6126
20.684	61.5876
20.702	61.5479
20.72	61.4935
20.738	61.4253
20.756	61.3454
20.774	61.2531
20.792	61.1526
20.81	61.0439
20.828	60.9294
20.846	60.8123
20.864	60.692
20.882	60.5734
20.9	60.4559
20.918	60.3422
20.936	60.2344
20.954	60.1322
20.972	60.0384
20.99	59.9525
21.008	59.8755
21.026	59.8083
21.044	59.7502
21.062	59.7016
21.08	59.6625
21.098	59.632
21.116	59.6101
21.134	59.5962
21.152	59.5893
21.17	59.5896
21.188	59.5958
21.206	59.6076
21.224	59.6248
21.242	59.6463
21.26	59.6724
21.278	59.7019
21.296	59.7345
21.314	59.7699
21.332	59.8071
21.35	59.8463
21.368	59.8863
21.386	59.9267
21.404	59.9676
21.422	60.0081
21.44	60.0485
21.458	60.0877
21.476	60.1251
21.494	60.161
21.512	60.1946
21.53	60.2258
21.548	60.2554
21.566	60.2836
21.584	60.3105
21.602	60.3378
21.62	60.3652
21.638	60.3939
21.656	60.4259
21.674	60.4604
21.692	60.4994
21.71	60.5433
21.728	60.5921
21.746	60.6473
21.764	60.7089
21.782	60.7762
21.8	60.8494
21.818	60.9283
21.836	61.0104
21.854	61.0964
21.872	61.1844
21.89	61.2707
21.908	61.357
21.926	61.4392
21.944	61.5148
21.962	61.5849
21.98	61.6447
21.998	61.6939
22.016	61.7322
22.034	61.7566
22.052	61.7678
22.07	61.7654
22.088	61.7487
22.106	61.7179
22.124	61.6748
22.142	61.619
22.16	61.5516
22.178	61.4763
22.196	61.3916
22.214	61.3008
22.232	61.2078
22.25	61.1108
22.268	61.0142
22.286	60.9205
22.304	60.8284
22.322	60.7417
22.34	60.661
22.358	60.5862
22.376	60.5194
22.394	60.4605
22.412	60.4092
22.43	60.3658
22.448	60.3307
22.466	60.3021
22.484	60.2792
22.502	60.2628
22.52	60.2494
22.538	60.238
22.556	60.2292
22.574	60.2189
22.592	60.2072
22.61	60.1937
22.628	60.1745
22.646	60.1506
22.664	60.1203
22.682	60.0799
22.7	60.0308
22.718	59.9709
22.736	59.8973
22.754	59.8114
22.772	59.7116
22.79	59.5958
22.808	59.4649
22.826	59.3189
22.844	59.157
22.862	58.9796
22.88	58.7883
22.898	58.5832
22.916	58.3642
22.934	58.1357
22.952	57.8982
22.97	57.6515
22.988	57.402
23.006	57.1498
23.024	56.8951
23.042	56.6458
23.06	56.4014
23.078	56.1626
23.096	55.9372
23.114	55.7247
23.132	55.5255
23.15	55.3462
23.168	55.1867
23.186	55.0467
23.204	54.9289
23.222	54.8338
23.24	54.7606
23.258	54.7094
23.276	54.6812
23.294	54.6745
23.312	54.687
23.33	54.7196
23.348	54.7709
23.366	54.8369
23.384	54.9189
23.402	55.0153
23.42	55.1202
23.438	55.234
23.456	55.3564
23.474	55.4826
23.492	55.6119
23.51	55.745
23.528	55.8793
23.546	56.014
23.564	56.1497
23.582	56.2849
23.6	56.4191
23.618	56.5528
23.636	56.6841
23.654	56.8121
23.672	56.9373
23.69	57.0595
23.708	57.1781
23.726	57.2932
23.744	57.4052
23.762	57.5144
23.78	57.6207
23.798	57.724
23.816	57.8245
23.834	57.9223
23.852	58.0171
23.87	58.1086
23.888	58.1966
23.906	58.2814
23.924	58.3635
23.942	58.4424
23.96	58.5185
23.978	58.5931
23.996	58.6658
24.014	58.7364
24.032	58.8081
24.05	58.8827
24.068	58.9579
24.086	59.0379
24.104	59.1261
24.122	59.2201
24.14	59.3222
24.158	59.4361
24.176	59.5611
24.194	59.697
24.212	59.8453
24.23	60.0064
24.248	60.1796
24.266	60.3654
24.284	60.5649
24.302	60.7782
24.32	61.0024
24.338	61.2353
24.356	61.4803
24.374	61.7325
24.392	61.9847
24.41	62.2403
24.428	62.4974
24.446	62.7454
24.464	62.9814
24.482	63.2104
24.5	63.422
24.518	63.6074
24.536	63.7737
24.554	63.9146
24.572	64.0208
24.59	64.0933
24.608	64.1334
24.626	64.1372
24.644	64.102
24.662	64.03
24.68	63.9216
24.698	63.7765
24.716	63.5916
24.734	63.3726
24.752	63.127
24.77	62.854
24.788	62.5526
24.806	62.2309
24.824	61.8942
24.842	61.5369
24.86	61.1653
24.878	60.7874
24.896	60.4021
24.914	60.0085
24.932	59.6093
24.95	59.2068
24.968	58.8001
24.986	58.3876
25.004	57.9684
25.022	57.5458
25.04	57.1163
25.058	56.6735
25.076	56.2155
25.094	55.7466
25.112	55.259
25.13	54.7452
25.148	54.2096
25.166	53.6502
25.184	53.06
25.202	52.4348
25.22	51.7782
25.238	51.0902
25.256	50.3704
25.274	49.6179
25.292	48.8341
25.31	48.0213
25.328	47.1803
25.346	46.3089
25.364	45.4115
25.382	44.4929
25.4	43.5482
25.418	42.5799
25.436	41.6001
25.454	40.6167
25.472	39.6175
25.49	38.6159
25.508	37.6306
25.526	36.6609
25.544	35.6985
25.562	34.766
25.58	33.8844
25.598	33.0372
25.616	32.2327
25.634	31.4953
25.652	30.8381
25.67	30.2416
25.688	29.7248
25.706	29.3106
25.724	28.999
25.742	28.7806
25.76	28.6721
25.778	28.6889
25.796	28.8231
25.814	29.0745
25.832	29.4509
25.85	29.9588
25.868	30.5959
25.886	31.3561
25.904	32.2336
25.922	33.2334
25.94	34.3586
25.958	35.5861
25.976	36.8932
25.994	38.2976
26.012	39.7936
26.03	41.3449
26.048	42.9218
26.066	44.5581
26.084	46.2309
26.102	47.8962
26.12	49.5283
26.138	51.1651
26.156	52.7744
26.174	54.3142
26.192	55.7721
26.21	57.1763
26.228	58.4979
26.246	59.706
26.264	60.7994
26.282	61.7922
26.3	62.6698
26.318	63.4176
26.336	64.0355
26.354	64.5303
26.372	64.9042
26.39	65.1582
26.408	65.283
26.426	65.2886
26.444	65.192
26.462	65.0061
26.48	64.7087
26.498	64.3185
26.516	63.8655
26.534	63.3703
26.552	62.804
26.57	62.1876
26.588	61.5527
26.606	60.9188
26.624	60.2603
26.642	59.5928
26.66	58.9384
26.678	58.3089
26.696	57.6866
26.714	57.083
26.732	56.5126
26.75	55.9845
26.768	55.4892
26.786	55.0277
26.804	54.602
26.822	54.2124
26.84	53.8559
26.858	53.5364
26.876	53.2585
26.894	53.0228
26.912	52.8237
26.93	52.6684
26.948	52.5647
26.966	52.5294
26.984	52.5743
27.002	52.6557
27.02	52.7266
27.028	52.7415