File: Bakgrunnsmateriale/MATLAB/FTIR/ftir_data/subBb/Mapping_121/C-4040-8_t119.asc
PE IR       SPECTRUM    SPECTRUM    ASCII       PEDS        1.60
  -1
C-80E8~1.ASC
17/03/28
00:31:10.00
17/03/28
00:31:36.00
tln
$C-4040-8_t0119$<tbV0>[-7.8,13.0,8.0,0.0,27,1,0]
27.028
64

2002,4.07
MIRTGS : RIGHTBACK : INTERNAL 2
MIR : ON : INTERNAL 2
OPTKBR

0.200000
8
8.000000
FILLER
RATIO
SPECTRUM
UNLOCKED 256

DOUBLE
64
COMBINED
1
0
0

0.002000
RATIO

1
0
TRUE
51149
0
LEFT NOT FITTED RIGHT NOT FITTED 0
NONE
NONE
15600
12
4.427000
51148
TRUE
1 0 8 72 0 0 0 0

15798

#HDR
-1
-1
#GR
µM
%T
2.38419e-05
0.0
2.000000
0.002000
12515
8
72.9892
26.0724
#DATA
2.000000	 64.6321
2.018000	 65.1208
2.036000	 64.8736
2.054000	 64.6226
2.072000	 64.4286
2.090000	 64.6351
2.108000	 65.109
2.126000	 64.9599
2.144000	 64.8858
2.162000	 64.7718
2.180000	 64.8666
2.198000	 65.2039
2.216000	 64.9011
2.234000	 65.1856
2.252000	 65.1541
2.270000	 64.2652
2.288000	 66.9025
2.306000	 65.4739
2.324000	 65.5126
2.342000	 65.1448
2.360000	 65.17
2.378000	 65.1317
2.396000	 65.0939
2.414000	 64.7531
2.432000	 64.7866
2.450000	 65.0521
2.468000	 64.7025
2.486000	 64.7965
2.504000	 64.9661
2.522000	 64.8813
2.540000	 65.282
2.558000	 64.9554
2.576000	 65.0705
2.594000	 64.987
2.612000	 65.0346
2.630000	 65.1526
2.648000	 65.0418
2.666000	 65.0354
2.684000	 65.1905
2.702000	 65.1675
2.720000	 65.0419
2.738000	 65.0451
2.756000	 65.1893
2.774000	 64.955
2.792000	 64.8506
2.810000	 65.0411
2.828000	 65.0466
2.846000	 64.9736
2.864000	 65.0437
2.882000	 65.1462
2.900000	 65.0336
2.918000	 65.1443
2.936000	 65.2092
2.954000	 65.0396
2.972000	 65.1615
2.990000	 65.0285
3.008000	 64.8672
3.026000	 64.8761
3.044000	 65.1292
3.062000	 64.9581
3.080000	 64.997
3.098000	 65.202
3.116000	 65.0578
3.134000	 64.9719
3.152000	 65.0263
3.170000	 64.887
3.188000	 64.7089
3.206000	 65.4032
3.224000	 65.1889
3.242000	 65.1397
3.260000	 65.0469
3.278000	 65.0862
3.296000	 65.056
3.314000	 65.1392
3.332000	 65.3113
3.350000	 65.087
3.368000	 65.0997
3.386000	 64.9174
3.404000	 64.6378
3.422000	 64.7664
3.440000	 64.9752
3.458000	 64.8858
3.476000	 65.0474
3.494000	 65.025
3.512000	 64.8479
3.530000	 65.1038
3.548000	 64.9037
3.566000	 65.0767
3.584000	 65.0469
3.602000	 65.0869
3.620000	 65.0777
3.638000	 64.9267
3.656000	 64.9817
3.674000	 65.0118
3.692000	 65.0141
3.710000	 65.0087
3.728000	 65.1074
3.746000	 65.0704
3.764000	 65.0273
3.782000	 65.055
3.800000	 64.9736
3.818000	 65.0796
3.836000	 65.1026
3.854000	 65.1111
3.872000	 65.112
3.890000	 65.0884
3.908000	 65.1302
3.926000	 65.3002
3.944000	 65.1151
3.962000	 65.2254
3.980000	 65.0902
3.998000	 65.2444
4.016000	 65.1883
4.034000	 65.2934
4.052000	 65.1597
4.070000	 65.1396
4.088000	 65.0941
4.106000	 65.218
4.124000	 65.1805
4.141999	 65.6096
4.160000	 65.0414
4.178000	 65.124
4.196000	 65.1212
4.214000	 65.2344
4.232000	 65.2704
4.250000	 65.1583
4.268000	 65.1485
4.286000	 65.1328
4.304000	 65.1964
4.322000	 65.0904
4.340000	 65.2334
4.358000	 65.0966
4.375999	 65.1477
4.394000	 64.9545
4.412000	 65.1857
4.430000	 65.1131
4.448000	 65.1185
4.466000	 65.074
4.484000	 64.9438
4.502000	 64.9879
4.520000	 65.1439
4.538000	 65.2451
4.556000	 65.1816
4.574000	 65.1824
4.592000	 65.117
4.609999	 65.1401
4.628000	 65.3229
4.646000	 65.1851
4.664000	 65.3285
4.682000	 65.0158
4.700000	 65.0458
4.718000	 65.0698
4.736000	 65.2037
4.754000	 65.2311
4.772000	 65.1134
4.790000	 65.0663
4.808000	 64.5359
4.826000	 65.2162
4.843999	 65.8232
4.862000	 65.1573
4.880000	 64.9442
4.898000	 65.0671
4.916000	 65.153
4.934000	 65.2041
4.952000	 65.2069
4.970000	 65.2027
4.988000	 65.1174
5.006000	 64.9538
5.024000	 65.0366
5.042000	 65.2258
5.060000	 65.2565
5.077999	 65.0553
5.096000	 65.0837
5.114000	 65.1392
5.132000	 65.0474
5.150000	 65.0402
5.168000	 65.0384
5.186000	 65.0038
5.204000	 65.0722
5.222000	 65.1296
5.240000	 65.1263
5.258000	 65.056
5.276000	 65.099
5.294000	 65.0711
5.312000	 65.1031
5.330000	 65.1825
5.348000	 64.9758
5.366000	 64.807
5.384000	 64.9533
5.402000	 65.0571
5.420000	 64.9995
5.438000	 64.894
5.456000	 65.0056
5.474000	 65.0666
5.492000	 65.1273
5.510000	 64.9064
5.528000	 64.763
5.546000	 64.9872
5.564000	 65.0291
5.582000	 64.8525
5.600000	 64.8662
5.618000	 64.981
5.636000	 65.0558
5.654000	 65.0281
5.672000	 65.0287
5.690000	 64.9467
5.708000	 64.9681
5.726000	 64.9965
5.744000	 64.935
5.762000	 64.7522
5.780000	 64.5627
5.798000	 64.8021
5.816000	 65.0705
5.834000	 65.046
5.852000	 64.9594
5.870000	 64.9553
5.888000	 64.999
5.906000	 65.0381
5.923999	 64.9617
5.942000	 64.89
5.960000	 64.9918
5.978000	 64.9336
5.996000	 64.8168
6.014000	 64.8575
6.032000	 64.9116
6.050000	 64.9234
6.068000	 64.8972
6.086000	 64.8509
6.104000	 64.9598
6.122000	 64.9706
6.140000	 64.8727
6.158000	 64.845
6.176000	 64.8171
6.194000	 64.8421
6.212000	 64.903
6.230000	 64.8682
6.248000	 64.8505
6.266000	 64.8596
6.284000	 64.859
6.302000	 64.8552
6.320000	 64.8439
6.338000	 64.8616
6.356000	 64.8724
6.374000	 64.8437
6.392000	 64.8275
6.410000	 64.8709
6.428000	 64.8577
6.446000	 64.8039
6.464000	 64.8248
6.482000	 64.8932
6.500000	 64.8928
6.518000	 64.8669
6.536000	 64.8972
6.554000	 64.9092
6.572000	 64.8841
6.590000	 64.8438
6.608000	 64.8739
6.626000	 64.9134
6.644000	 64.9137
6.662000	 64.9448
6.680000	 64.9677
6.698000	 64.995
6.716000	 65.017
6.734000	 64.9987
6.752000	 65.0181
6.770000	 65.0489
6.788000	 65.0151
6.806000	 64.9944
6.824000	 64.9838
6.842000	 64.8505
6.860000	 64.7107
6.878000	 64.7806
6.896000	 64.9585
6.914000	 65.0239
6.932000	 64.9364
6.950000	 64.7983
6.968000	 64.7866
6.986000	 64.8917
7.004000	 64.9225
7.022000	 64.8708
7.040000	 64.8408
7.058000	 64.8072
7.076000	 64.7524
7.094000	 64.7351
7.112000	 64.733
7.130000	 64.6736
7.148000	 64.6113
7.166000	 64.6552
7.184000	 64.777
7.202000	 64.8655
7.220000	 64.8648
7.238000	 64.7744
7.256000	 64.6397
7.274000	 64.5691
7.292000	 64.6409
7.310000	 64.7787
7.328000	 64.8669
7.346000	 64.8928
7.364000	 64.8629
7.382000	 64.7973
7.400000	 64.7692
7.418000	 64.761
7.436000	 64.7204
7.454000	 64.7068
7.472000	 64.7632
7.490000	 64.8507
7.508000	 64.9361
7.526000	 64.96
7.544000	 64.8947
7.562000	 64.837
7.580000	 64.8418
7.598000	 64.831
7.616000	 64.7773
7.634000	 64.7343
7.652000	 64.7039
7.670000	 64.6696
7.688000	 64.6703
7.706000	 64.7173
7.724000	 64.7424
7.742000	 64.6962
7.760000	 64.6255
7.778000	 64.6126
7.796000	 64.6721
7.814000	 64.7318
7.832000	 64.7089
7.850000	 64.6124
7.868000	 64.5451
7.886000	 64.5818
7.904000	 64.6927
7.922000	 64.8028
7.940000	 64.8634
7.958000	 64.8577
7.976000	 64.8024
7.994000	 64.7381
8.012000	 64.6852
8.030000	 64.6442
8.048000	 64.6232
8.065999	 64.623
8.084000	 64.6198
8.102000	 64.6039
8.120000	 64.5988
8.138000	 64.6174
8.155999	 64.6372
8.173999	 64.6298
8.192000	 64.5986
8.210000	 64.5791
8.228000	 64.5996
8.246000	 64.6476
8.263999	 64.6864
8.282000	 64.7027
8.300000	 64.7176
8.318000	 64.7417
8.336000	 64.7463
8.353999	 64.6938
8.372000	 64.5946
8.390000	 64.522
8.408000	 64.5477
8.426000	 64.6602
8.443999	 64.7665
8.462000	 64.7801
8.480000	 64.7016
8.498000	 64.6044
8.516000	 64.5518
8.533999	 64.5509
8.552000	 64.5729
8.570000	 64.5908
8.588000	 64.5895
8.606000	 64.5605
8.624000	 64.5084
8.641999	 64.4564
8.660000	 64.4323
8.678000	 64.4483
8.696000	 64.4998
8.714000	 64.5712
8.731999	 64.6411
8.750000	 64.6852
8.768000	 64.6934
8.786000	 64.6769
8.804000	 64.6531
8.821999	 64.6257
8.840000	 64.5864
8.858000	 64.5366
8.876000	 64.4929
8.894000	 64.4734
8.911999	 64.4821
8.930000	 64.5093
8.948000	 64.5419
8.966000	 64.5696
8.984000	 64.5884
9.001999	 64.6077
9.020000	 64.6524
9.038000	 64.734
9.056000	 64.8102
9.074000	 64.8008
9.092000	 64.6654
9.109999	 64.4649
9.128000	 64.3253
9.146000	 64.3276
9.164000	 64.4374
9.182000	 64.5441
9.199999	 64.5591
9.218000	 64.4737
9.236000	 64.3471
9.254000	 64.257
9.272000	 64.2493
9.289999	 64.3193
9.308000	 64.4206
9.326000	 64.4976
9.344000	 64.5171
9.362000	 64.4799
9.379999	 64.4085
9.398000	 64.3323
9.416000	 64.2766
9.434000	 64.2548
9.452000	 64.258
9.469999	 64.2641
9.488000	 64.2635
9.506000	 64.2722
9.524000	 64.3167
9.542000	 64.4006
9.560000	 64.4912
9.577999	 64.5457
9.596000	 64.5503
9.614000	 64.528
9.632000	 64.5106
9.650000	 64.5091
9.667999	 64.5083
9.686000	 64.4832
9.704000	 64.4223
9.722000	 64.3399
9.740000	 64.2687
9.757999	 64.2336
9.776000	 64.2325
9.794000	 64.2404
9.812000	 64.2342
9.830000	 64.216
9.847999	 64.2096
9.866000	 64.2348
9.884000	 64.2846
9.902000	 64.3289
9.920000	 64.3403
9.937999	 64.314
9.956000	 64.2668
9.974000	 64.2215
9.992000	 64.1961
10.01	64.2017
10.028	64.2418
10.046	64.3122
10.064	64.3984
10.082	64.4795
10.1	64.5363
10.118	64.5597
10.136	64.5509
10.154	64.5146
10.172	64.4546
10.19	64.3754
10.208	64.2876
10.226	64.2086
10.244	64.1577
10.262	64.1478
10.28	64.1771
10.298	64.229
10.316	64.2769
10.334	64.2994
10.352	64.2906
10.37	64.2622
10.388	64.236
10.406	64.229
10.424	64.2461
10.442	64.2782
10.46	64.3106
10.478	64.3327
10.496	64.3424
10.514	64.3437
10.532	64.3407
10.55	64.3301
10.568	64.3036
10.586	64.2521
10.604	64.1752
10.622	64.0855
10.64	64.0062
10.658	63.9616
10.676	63.9673
10.694	64.0223
10.712	64.1087
10.73	64.1996
10.748	64.2683
10.766	64.2992
10.784	64.291
10.802	64.2558
10.82	64.2106
10.838	64.1725
10.856	64.1534
10.874	64.1591
10.892	64.1883
10.91	64.2342
10.928	64.2869
10.946	64.3375
10.964	64.3821
10.982	64.4205
11	64.4528
11.018	64.4752
11.036	64.4776
11.054	64.4468
11.072	64.3764
11.09	64.2756
11.108	64.1668
11.126	64.0789
11.144	64.0299
11.162	64.0186
11.18	64.0265
11.198	64.0276
11.216	64.0044
11.234	63.9546
11.252	63.8904
11.27	63.829
11.288	63.7856
11.306	63.7664
11.324	63.7705
11.342	63.7932
11.36	63.8288
11.378	63.8668
11.396	63.8919
11.414	63.8851
11.432	63.8315
11.45	63.7298
11.468	63.597
11.486	63.4637
11.504	63.365
11.522	63.3268
11.54	63.354
11.558	63.43
11.576	63.5228
11.594	63.6003
11.612	63.6387
11.63	63.633
11.648	63.5966
11.666	63.5529
11.684	63.5252
11.702	63.5267
11.72	63.5587
11.738	63.6076
11.756	63.6543
11.774	63.6814
11.792	63.6802
11.81	63.6546
11.828	63.6194
11.846	63.5949
11.864	63.5978
11.882	63.6343
11.9	63.6979
11.918	63.7691
11.936	63.8211
11.954	63.8279
11.972	63.7716
11.99	63.651
12.008	63.4841
12.026	63.3053
12.044	63.1578
12.062	63.0836
12.08	63.1107
12.098	63.2459
12.116	63.4732
12.134	63.757
12.152	64.0527
12.17	64.3199
12.188	64.528
12.206	64.6615
12.224	64.7176
12.242	64.7005
12.26	64.6168
12.278	64.4747
12.296	64.2843
12.314	64.0624
12.332	63.8306
12.35	63.6132
12.368	63.4317
12.386	63.3006
12.404	63.2235
12.422	63.1948
12.44	63.2017
12.458	63.2297
12.476	63.266
12.494	63.3025
12.512	63.3357
12.53	63.3654
12.548	63.3917
12.566	63.4138
12.584	63.4302
12.602	63.439
12.62	63.4392
12.638	63.432
12.656	63.4217
12.674	63.4136
12.692	63.412
12.71	63.4199
12.728	63.4371
12.746	63.4609
12.764	63.4856
12.782	63.5046
12.8	63.5129
12.818	63.5087
12.836	63.4931
12.854	63.471
12.872	63.4505
12.89	63.4399
12.908	63.4446
12.926	63.466
12.944	63.5008
12.962	63.5407
12.98	63.5742
12.998	63.5895
13.016	63.5775
13.034	63.535
13.052	63.4645
13.07	63.3746
13.088	63.2778
13.106	63.1874
13.124	63.1145
13.142	63.0661
13.16	63.0442
13.178	63.0467
13.196	63.0679
13.214	63.1017
13.232	63.1426
13.25	63.1879
13.268	63.2363
13.286	63.2898
13.304	63.3509
13.322	63.4219
13.34	63.5028
13.358	63.5909
13.376	63.6805
13.394	63.764
13.412	63.8333
13.43	63.8817
13.448	63.9059
13.466	63.906
13.484	63.8853
13.502	63.8496
13.52	63.8047
13.538	63.7559
13.556	63.7056
13.574	63.6538
13.592	63.5985
13.61	63.5368
13.628	63.4664
13.646	63.3869
13.664	63.3004
13.682	63.2121
13.7	63.1286
13.718	63.0571
13.736	63.0033
13.754	62.9707
13.772	62.9593
13.79	62.9666
13.808	62.9871
13.826	63.0137
13.844	63.039
13.862	63.0558
13.88	63.058
13.898	63.0418
13.916	63.0056
13.934	62.9506
13.952	62.8805
13.97	62.8011
13.988	62.7188
14.006	62.6409
14.024	62.5738
14.042	62.5223
14.06	62.4884
14.078	62.4721
14.096	62.4711
14.114	62.4818
14.132	62.5001
14.15	62.5217
14.168	62.5431
14.186	62.5623
14.204	62.5781
14.222	62.591
14.24	62.6014
14.258	62.6104
14.276	62.6188
14.294	62.6273
14.312	62.6366
14.33	62.6471
14.348	62.6594
14.366	62.6747
14.384	62.6942
14.402	62.7185
14.42	62.7473
14.438	62.7794
14.456	62.812
14.474	62.841
14.492	62.8619
14.51	62.869
14.528	62.8578
14.546	62.8255
14.564	62.7717
14.582	62.6985
14.6	62.6105
14.618	62.5145
14.636	62.4189
14.654	62.3316
14.672	62.2591
14.69	62.2061
14.708	62.1752
14.726	62.1664
14.744	62.1774
14.762	62.2039
14.78	62.2416
14.798	62.2863
14.816	62.3344
14.834	62.3836
14.852	62.4327
14.87	62.4814
14.888	62.5303
14.906	62.5796
14.924	62.6293
14.942	62.6786
14.96	62.725
14.978	62.7654
14.996	62.7963
15.014	62.8134
15.032	62.813
15.05	62.7924
15.068	62.7504
15.086	62.6876
15.104	62.6058
15.122	62.509
15.14	62.4025
15.158	62.292
15.176	62.183
15.194	62.0812
15.212	61.992
15.23	61.9182
15.248	61.8619
15.266	61.8235
15.284	61.8023
15.302	61.7959
15.32	61.8017
15.338	61.8165
15.356	61.8365
15.374	61.8581
15.392	61.8789
15.41	61.8969
15.428	61.9106
15.446	61.9197
15.464	61.9246
15.482	61.9256
15.5	61.9238
15.518	61.9205
15.536	61.9165
15.554	61.9123
15.572	61.908
15.59	61.9032
15.608	61.8971
15.626	61.8892
15.644	61.8781
15.662	61.8631
15.68	61.8436
15.698	61.8192
15.716	61.7896
15.734	61.7556
15.752	61.7179
15.77	61.6777
15.788	61.6372
15.806	61.5984
15.824	61.5634
15.842	61.5346
15.86	61.5143
15.878	61.5039
15.896	61.5044
15.914	61.5161
15.932	61.5381
15.95	61.5693
15.968	61.6078
15.986	61.6505
16.004	61.6948
16.022	61.7382
16.04	61.7772
16.058	61.81
16.076	61.8351
16.094	61.8514
16.112	61.8588
16.13	61.8577
16.148	61.8486
16.166	61.8331
16.184	61.8122
16.202	61.7869
16.22	61.7587
16.238	61.7284
16.256	61.6967
16.274	61.6648
16.292	61.6339
16.31	61.6047
16.328	61.5791
16.346	61.5585
16.364	61.544
16.382	61.5373
16.4	61.5389
16.418	61.5492
16.436	61.5676
16.454	61.5923
16.472	61.6219
16.49	61.6531
16.508	61.6829
16.526	61.709
16.544	61.7277
16.562	61.7373
16.58	61.7365
16.598	61.7245
16.616	61.7023
16.634	61.6705
16.652	61.632
16.67	61.5889
16.688	61.5436
16.706	61.4995
16.724	61.4577
16.742	61.4203
16.76	61.3877
16.778	61.3602
16.796	61.3373
16.814	61.318
16.832	61.3017
16.85	61.2868
16.868	61.2729
16.886	61.2593
16.904	61.2457
16.922	61.2321
16.94	61.2185
16.958	61.2055
16.976	61.1933
16.994	61.182
17.012	61.1716
17.03	61.162
17.048	61.1526
17.066	61.143
17.084	61.1326
17.102	61.1207
17.12	61.1071
17.138	61.0911
17.156	61.0729
17.174	61.0522
17.192	61.0296
17.21	61.0053
17.228	60.9799
17.246	60.9542
17.264	60.9287
17.282	60.9044
17.3	60.8816
17.318	60.861
17.336	60.8428
17.354	60.8271
17.372	60.8139
17.39	60.8029
17.408	60.7938
17.426	60.7862
17.444	60.78
17.462	60.7746
17.48	60.7699
17.498	60.7654
17.516	60.7612
17.534	60.7571
17.552	60.7529
17.57	60.7488
17.588	60.7447
17.606	60.7409
17.624	60.7373
17.642	60.7342
17.66	60.7317
17.678	60.73
17.696	60.7293
17.714	60.7298
17.732	60.7313
17.75	60.7339
17.768	60.7375
17.786	60.742
17.804	60.7471
17.822	60.7528
17.84	60.7587
17.858	60.7648
17.876	60.7709
17.894	60.7769
17.912	60.7826
17.93	60.7879
17.948	60.7927
17.966	60.7964
17.984	60.7986
18.002	60.7987
18.02	60.7958
18.038	60.7894
18.056	60.7785
18.074	60.7627
18.092	60.7415
18.11	60.7151
18.128	60.6839
18.146	60.6486
18.164	60.6108
18.182	60.5719
18.2	60.5337
18.218	60.4988
18.236	60.4688
18.254	60.4468
18.272	60.4337
18.29	60.4318
18.308	60.4413
18.326	60.4627
18.344	60.4954
18.362	60.5381
18.38	60.5895
18.398	60.6467
18.416	60.7072
18.434	60.7682
18.452	60.8264
18.47	60.8793
18.488	60.924
18.506	60.959
18.524	60.9825
18.542	60.9937
18.56	60.9927
18.578	60.9793
18.596	60.9555
18.614	60.9215
18.632	60.8806
18.65	60.8331
18.668	60.7828
18.686	60.7302
18.704	60.6786
18.722	60.6283
18.74	60.5818
18.758	60.5391
18.776	60.5016
18.794	60.4692
18.812	60.4423
18.83	60.4207
18.848	60.4044
18.866	60.3929
18.884	60.3859
18.902	60.3831
18.92	60.384
18.938	60.3881
18.956	60.3948
18.974	60.4035
18.992	60.4134
19.01	60.4236
19.028	60.4329
19.046	60.4403
19.064	60.4441
19.082	60.4434
19.1	60.436
19.118	60.4214
19.136	60.3976
19.154	60.3644
19.172	60.3204
19.19	60.266
19.208	60.2008
19.226	60.1258
19.244	60.0426
19.262	59.9518
19.28	59.8572
19.298	59.7589
19.316	59.6616
19.334	59.5651
19.352	59.4744
19.37	59.389
19.388	59.3125
19.406	59.2448
19.424	59.1876
19.442	59.1411
19.46	59.1046
19.478	59.0782
19.496	59.06
19.514	59.05
19.532	59.0455
19.55	59.0455
19.568	59.0486
19.586	59.053
19.604	59.0584
19.622	59.0633
19.64	59.068
19.658	59.0721
19.676	59.0759
19.694	59.0801
19.712	59.0848
19.73	59.0916
19.748	59.1006
19.766	59.113
19.784	59.1294
19.802	59.1498
19.82	59.1749
19.838	59.2039
19.856	59.2364
19.874	59.2717
19.892	59.3076
19.91	59.3443
19.928	59.3782
19.946	59.4097
19.964	59.4356
19.982	59.4554
20	59.4678
20.018	59.4716
20.036	59.4671
20.054	59.4539
20.072	59.4323
20.09	59.4043
20.108	59.3694
20.126	59.3317
20.144	59.2907
20.162	59.2506
20.18	59.2127
20.198	59.1788
20.216	59.1526
20.234	59.1336
20.252	59.1256
20.27	59.1279
20.288	59.1423
20.306	59.1692
20.324	59.2077
20.342	59.2583
20.36	59.3198
20.378	59.3901
20.396	59.4697
20.414	59.5542
20.432	59.6443
20.45	59.7364
20.468	59.8292
20.486	59.9215
20.504	60.0097
20.522	60.0946
20.54	60.1725
20.558	60.244
20.576	60.3071
20.594	60.3609
20.612	60.4054
20.63	60.4395
20.648	60.4634
20.666	60.4767
20.684	60.4794
20.702	60.4718
20.72	60.4541
20.738	60.4266
20.756	60.39
20.774	60.3442
20.792	60.2907
20.81	60.2292
20.828	60.161
20.846	60.0871
20.864	60.0075
20.882	59.9249
20.9	59.8389
20.918	59.7514
20.936	59.6638
20.954	59.576
20.972	59.4912
20.99	59.4085
21.008	59.3299
21.026	59.2563
21.044	59.1875
21.062	59.1253
21.08	59.0691
21.098	59.0195
21.116	58.9767
21.134	58.9404
21.152	58.9103
21.17	58.8866
21.188	58.8686
21.206	58.8562
21.224	58.8494
21.242	58.8476
21.26	58.851
21.278	58.8595
21.296	58.8731
21.314	58.8919
21.332	58.9164
21.35	58.9462
21.368	58.9821
21.386	59.0241
21.404	59.0722
21.422	59.1268
21.44	59.1877
21.458	59.2544
21.476	59.3267
21.494	59.4043
21.512	59.485
21.53	59.5697
21.548	59.6559
21.566	59.7419
21.584	59.8282
21.602	59.9102
21.62	59.9888
21.638	60.0617
21.656	60.1256
21.674	60.182
21.692	60.2271
21.71	60.26
21.728	60.2808
21.746	60.2877
21.764	60.281
21.782	60.2604
21.8	60.2254
21.818	60.1763
21.836	60.1147
21.854	60.0404
21.872	59.9543
21.89	59.8587
21.908	59.7526
21.926	59.6387
21.944	59.5186
21.962	59.3916
21.98	59.2612
21.998	59.1271
22.016	58.9902
22.034	58.8532
22.052	58.715
22.07	58.5778
22.088	58.4428
22.106	58.3095
22.124	58.1799
22.142	58.0544
22.16	57.9331
22.178	57.8183
22.196	57.7092
22.214	57.6072
22.232	57.5142
22.25	57.4293
22.268	57.3542
22.286	57.29
22.304	57.236
22.322	57.1936
22.34	57.1631
22.358	57.1441
22.376	57.137
22.394	57.1421
22.412	57.1586
22.43	57.1857
22.448	57.2242
22.466	57.2719
22.484	57.3276
22.502	57.3921
22.52	57.4619
22.538	57.536
22.556	57.6148
22.574	57.6946
22.592	57.7753
22.61	57.8567
22.628	57.9354
22.646	58.0121
22.664	58.0859
22.682	58.1541
22.7	58.2177
22.718	58.2756
22.736	58.3261
22.754	58.3699
22.772	58.4063
22.79	58.4346
22.808	58.4552
22.826	58.4679
22.844	58.4725
22.862	58.4692
22.88	58.4582
22.898	58.4394
22.916	58.4129
22.934	58.3793
22.952	58.3385
22.97	58.2906
22.988	58.2366
23.006	58.1767
23.024	58.1108
23.042	58.0405
23.06	57.9659
23.078	57.887
23.096	57.8048
23.114	57.7191
23.132	57.6302
23.15	57.5402
23.168	57.4482
23.186	57.3552
23.204	57.2646
23.222	57.1755
23.24	57.0888
23.258	57.0085
23.276	56.9336
23.294	56.8651
23.312	56.8068
23.33	56.7584
23.348	56.7201
23.366	56.6947
23.384	56.6829
23.402	56.6836
23.42	56.697
23.438	56.7237
23.456	56.7629
23.474	56.8134
23.492	56.8754
23.51	56.9486
23.528	57.0314
23.546	57.1241
23.564	57.2267
23.582	57.3356
23.6	57.4505
23.618	57.5721
23.636	57.6953
23.654	57.8174
23.672	57.9408
23.69	58.0614
23.708	58.1765
23.726	58.2879
23.744	58.394
23.762	58.493
23.78	58.5855
23.798	58.6719
23.816	58.752
23.834	58.8252
23.852	58.8928
23.87	58.9566
23.888	59.0143
23.906	59.0687
23.924	59.1252
23.942	59.1825
23.96	59.2411
23.978	59.308
23.996	59.3851
24.014	59.4697
24.032	59.5679
24.05	59.6833
24.068	59.8131
24.086	59.9595
24.104	60.125
24.122	60.3102
24.14	60.5118
24.158	60.7268
24.176	60.9584
24.194	61.2031
24.212	61.4526
24.23	61.708
24.248	61.9701
24.266	62.2274
24.284	62.4739
24.302	62.7159
24.32	62.9447
24.338	63.152
24.356	63.3425
24.374	63.5132
24.392	63.6577
24.41	63.7746
24.428	63.8668
24.446	63.9362
24.464	63.9811
24.482	64.0005
24.5	64.0046
24.518	64.001
24.536	63.9805
24.554	63.9551
24.572	63.9408
24.59	63.9299
24.608	63.9265
24.626	63.9513
24.644	64.0137
24.662	64.1027
24.68	64.231
24.698	64.4108
24.716	64.6357
24.734	64.908
24.752	65.2341
24.77	65.6202
24.788	66.0608
24.806	66.5437
24.824	67.0636
24.842	67.6333
24.86	68.2297
24.878	68.8262
24.896	69.4401
24.914	70.0614
24.932	70.6495
24.95	71.1865
24.968	71.6995
24.986	72.15
25.004	72.4975
25.022	72.7629
25.04	72.9379
25.058	72.9874
25.076	72.8944
25.094	72.6786
25.112	72.3262
25.13	71.822
25.148	71.1656
25.166	70.3653
25.184	69.4278
25.202	68.3499
25.22	67.1247
25.238	65.7809
25.256	64.3471
25.274	62.8014
25.292	61.1576
25.31	59.457
25.328	57.7204
25.346	55.9172
25.364	54.0848
25.382	52.2664
25.4	50.4501
25.418	48.6323
25.436	46.8489
25.454	45.1273
25.472	43.444
25.49	41.8126
25.508	40.256
25.526	38.7799
25.544	37.3731
25.562	36.0453
25.58	34.8059
25.598	33.6528
25.616	32.5832
25.634	31.5973
25.652	30.6954
25.67	29.8775
25.688	29.1416
25.706	28.4857
25.724	27.9092
25.742	27.4124
25.76	26.9945
25.778	26.6546
25.796	26.3913
25.814	26.2058
25.832	26.0995
25.85	26.0733
25.868	26.1246
25.886	26.2556
25.904	26.4693
25.922	26.7677
25.94	27.149
25.958	27.6095
25.976	28.1454
25.994	28.7616
26.012	29.4551
26.03	30.2154
26.048	31.0346
26.066	31.9259
26.084	32.8774
26.102	33.8692
26.12	34.8907
26.138	35.9612
26.156	37.0604
26.174	38.1627
26.192	39.2634
26.21	40.3811
26.228	41.4882
26.246	42.5554
26.264	43.5864
26.282	44.5926
26.3	45.5489
26.318	46.4304
26.336	47.2475
26.354	48.0031
26.372	48.6798
26.39	49.2615
26.408	49.7554
26.426	50.1638
26.444	50.4818
26.462	50.7043
26.48	50.8283
26.498	50.8624
26.516	50.8164
26.534	50.6961
26.552	50.488
26.57	50.2064
26.588	49.871
26.606	49.4921
26.624	49.0503
26.642	48.5634
26.66	48.0547
26.678	47.5353
26.696	46.9845
26.714	46.4201
26.732	45.8638
26.75	45.3252
26.768	44.7865
26.786	44.2616
26.804	43.7677
26.822	43.3131
26.84	42.8854
26.858	42.4907
26.876	42.1368
26.894	41.8291
26.912	41.5638
26.93	41.3377
26.948	41.1481
26.966	40.9956
26.984	40.8853
27.002	40.8079
27.02	40.7526
27.028	40.7348