File: Bakgrunnsmateriale/MATLAB/FTIR/ftir_data/subBb/Mapping_121/C-4040-8_t98.asc
PE IR       SPECTRUM    SPECTRUM    ASCII       PEDS        1.60
  -1
C-C94A~1.ASC
17/03/27
22:32:57.00
17/03/27
22:33:23.00
tln
$C-4040-8_t0098$<tbV0>[-10.4,7.8,8.0,0.0,27,1,0]
27.028
64

2002,4.07
MIRTGS : RIGHTBACK : INTERNAL 2
MIR : ON : INTERNAL 2
OPTKBR

0.200000
8
8.000000
FILLER
RATIO
SPECTRUM
UNLOCKED 256

DOUBLE
64
COMBINED
1
0
0

0.002000
RATIO

1
0
TRUE
51149
0
LEFT NOT FITTED RIGHT NOT FITTED 0
NONE
NONE
15600
12
4.427000
51148
TRUE
1 0 8 72 0 0 0 0

15798

#HDR
-1
-1
#GR
µM
%T
2.38419e-05
0.0
2.000000
0.002000
12515
8
176.403
47.8408
#DATA
2.000000	 65.0917
2.018000	 65.1415
2.036000	 65.1147
2.054000	 65.571
2.072000	 64.678
2.090000	 65.4384
2.108000	 65.1568
2.126000	 65.4096
2.144000	 65.3453
2.162000	 65.4802
2.180000	 65.5286
2.198000	 64.676
2.216000	 64.0785
2.234000	 63.4318
2.252000	 63.7412
2.270000	 62.7921
2.288000	 63.1479
2.306000	 63.0125
2.324000	 63.697
2.342000	 64.108
2.360000	 64.3901
2.378000	 64.5648
2.396000	 64.517
2.414000	 65.0257
2.432000	 65.2451
2.450000	 65.4187
2.468000	 65.0683
2.486000	 65.3676
2.504000	 65.2075
2.522000	 64.967
2.540000	 64.8683
2.558000	 65.3117
2.576000	 64.6381
2.594000	 65.055
2.612000	 64.6713
2.630000	 64.8816
2.648000	 65.0587
2.666000	 65.1756
2.684000	 65.293
2.702000	 65.2553
2.720000	 65.099
2.738000	 64.9683
2.756000	 65.0689
2.774000	 65.0809
2.792000	 65.2591
2.810000	 65.3789
2.828000	 65.1128
2.846000	 65.1402
2.864000	 65.364
2.882000	 65.5278
2.900000	 64.7599
2.918000	 64.9733
2.936000	 65.2594
2.954000	 64.9458
2.972000	 64.9773
2.990000	 65.1129
3.008000	 65.0296
3.026000	 64.9721
3.044000	 64.935
3.062000	 65.155
3.080000	 65.144
3.098000	 65.139
3.116000	 65.4559
3.134000	 65.342
3.152000	 65.2581
3.170000	 65.2784
3.188000	 65.17
3.206000	 64.9849
3.224000	 65.4541
3.242000	 65.146
3.260000	 65.0933
3.278000	 65.0132
3.296000	 65.2057
3.314000	 65.1823
3.332000	 65.226
3.350000	 65.1017
3.368000	 65.2267
3.386000	 65.1183
3.404000	 64.9399
3.422000	 64.5118
3.440000	 65.094
3.458000	 64.9759
3.476000	 64.9488
3.494000	 64.9344
3.512000	 64.9785
3.530000	 65.091
3.548000	 65.1617
3.566000	 65.1958
3.584000	 65.2825
3.602000	 65.1542
3.620000	 65.2054
3.638000	 65.1831
3.656000	 65.2763
3.674000	 65.1252
3.692000	 65.2259
3.710000	 65.3278
3.728000	 65.173
3.746000	 65.4607
3.764000	 65.2803
3.782000	 65.1186
3.800000	 65.142
3.818000	 65.2542
3.836000	 65.1842
3.854000	 65.1221
3.872000	 65.3224
3.890000	 65.1732
3.908000	 65.1865
3.926000	 65.2263
3.944000	 65.157
3.962000	 64.9922
3.980000	 65.2253
3.998000	 65.0682
4.016000	 65.2301
4.034000	 65.3419
4.052000	 65.1678
4.070000	 65.3157
4.088000	 65.1497
4.106000	 64.8208
4.124000	 64.4169
4.141999	 64.8827
4.160000	 65.2184
4.178000	 65.2638
4.196000	 65.1777
4.214000	 65.2177
4.232000	 65.1703
4.250000	 65.2732
4.268000	 65.1974
4.286000	 65.2442
4.304000	 65.2829
4.322000	 65.2296
4.340000	 65.1551
4.358000	 65.2562
4.375999	 65.2163
4.394000	 65.2737
4.412000	 65.2488
4.430000	 65.2388
4.448000	 65.2008
4.466000	 65.1715
4.484000	 65.162
4.502000	 65.2822
4.520000	 65.2232
4.538000	 65.2886
4.556000	 65.1789
4.574000	 65.2251
4.592000	 65.1754
4.609999	 65.2447
4.628000	 65.3499
4.646000	 65.5606
4.664000	 65.4455
4.682000	 65.3425
4.700000	 65.2608
4.718000	 65.1594
4.736000	 65.4728
4.754000	 65.2896
4.772000	 65.0865
4.790000	 64.9891
4.808000	 64.9912
4.826000	 65.2256
4.843999	 65.1933
4.862000	 64.905
4.880000	 65.2929
4.898000	 65.2135
4.916000	 65.1944
4.934000	 65.3295
4.952000	 65.246
4.970000	 65.2525
4.988000	 65.2845
5.006000	 65.2779
5.024000	 65.2178
5.042000	 65.2366
5.060000	 65.2621
5.077999	 65.4058
5.096000	 65.3229
5.114000	 65.201
5.132000	 65.2258
5.150000	 65.2502
5.168000	 65.3372
5.186000	 65.3089
5.204000	 65.3141
5.222000	 65.165
5.240000	 65.0538
5.258000	 65.1378
5.276000	 65.3205
5.294000	 65.3237
5.312000	 65.2992
5.330000	 65.2077
5.348000	 65.1595
5.366000	 65.2309
5.384000	 65.2953
5.402000	 65.3047
5.420000	 65.3456
5.438000	 65.3958
5.456000	 65.4313
5.474000	 65.3432
5.492000	 65.1994
5.510000	 65.2261
5.528000	 65.2183
5.546000	 65.2931
5.564000	 65.2372
5.582000	 65.2238
5.600000	 65.2715
5.618000	 65.2742
5.636000	 65.1956
5.654000	 65.2756
5.672000	 65.2897
5.690000	 65.2321
5.708000	 65.131
5.726000	 65.1105
5.744000	 65.0756
5.762000	 64.9581
5.780000	 64.9976
5.798000	 64.9642
5.816000	 64.8831
5.834000	 65.0155
5.852000	 65.1894
5.870000	 65.2137
5.888000	 65.1186
5.906000	 65.1459
5.923999	 65.1384
5.942000	 65.0576
5.960000	 65.0909
5.978000	 65.2296
5.996000	 65.2764
6.014000	 65.2709
6.032000	 65.2501
6.050000	 65.179
6.068000	 65.1618
6.086000	 65.0994
6.104000	 64.9839
6.122000	 64.9379
6.140000	 64.9823
6.158000	 65.0515
6.176000	 65.1345
6.194000	 65.1495
6.212000	 65.1401
6.230000	 65.1183
6.248000	 65.119
6.266000	 65.1226
6.284000	 65.1209
6.302000	 65.0864
6.320000	 65.1154
6.338000	 65.136
6.356000	 65.044
6.374000	 65.008
6.392000	 64.9678
6.410000	 64.8615
6.428000	 64.9083
6.446000	 65.0325
6.464000	 65.0792
6.482000	 65.0569
6.500000	 65.0203
6.518000	 65.0269
6.536000	 65.0593
6.554000	 65.0902
6.572000	 65.1465
6.590000	 65.1929
6.608000	 65.1222
6.626000	 65.0687
6.644000	 65.1343
6.662000	 65.1792
6.680000	 65.1472
6.698000	 65.0454
6.716000	 64.9475
6.734000	 64.935
6.752000	 64.9586
6.770000	 64.9654
6.788000	 64.9755
6.806000	 64.9935
6.824000	 65.0722
6.842000	 65.2046
6.860000	 65.1544
6.878000	 64.9234
6.896000	 64.8258
6.914000	 64.9122
6.932000	 64.9442
6.950000	 64.8775
6.968000	 64.8722
6.986000	 64.8925
7.004000	 64.8968
7.022000	 64.9654
7.040000	 65.0155
7.058000	 64.9869
7.076000	 64.9514
7.094000	 64.9258
7.112000	 64.9099
7.130000	 64.9298
7.148000	 64.97
7.166000	 64.9694
7.184000	 64.9167
7.202000	 64.8854
7.220000	 64.906
7.238000	 64.938
7.256000	 64.963
7.274000	 64.9738
7.292000	 64.9586
7.310000	 64.9391
7.328000	 64.9411
7.346000	 64.9518
7.364000	 64.9518
7.382000	 64.9472
7.400000	 64.9533
7.418000	 64.9728
7.436000	 64.9784
7.454000	 64.9316
7.472000	 64.8665
7.490000	 64.872
7.508000	 64.952
7.526000	 65.034
7.544000	 65.0758
7.562000	 65.0667
7.580000	 64.9775
7.598000	 64.8221
7.616000	 64.7095
7.634000	 64.7238
7.652000	 64.8265
7.670000	 64.9384
7.688000	 65.0369
7.706000	 65.1323
7.724000	 65.2035
7.742000	 65.1934
7.760000	 65.0849
7.778000	 64.9499
7.796000	 64.8786
7.814000	 64.8889
7.832000	 64.9275
7.850000	 64.9325
7.868000	 64.8974
7.886000	 64.8874
7.904000	 64.9454
7.922000	 65.0109
7.940000	 65.0094
7.958000	 64.9669
7.976000	 64.9427
7.994000	 64.9271
8.012000	 64.8846
8.030000	 64.8224
8.048000	 64.7703
8.065999	 64.7464
8.084000	 64.7561
8.102000	 64.7892
8.120000	 64.8244
8.138000	 64.8499
8.155999	 64.8648
8.173999	 64.8652
8.192000	 64.8567
8.210000	 64.8639
8.228000	 64.8985
8.246000	 64.9298
8.263999	 64.9241
8.282000	 64.8951
8.300000	 64.8862
8.318000	 64.9141
8.336000	 64.9562
8.353999	 64.9775
8.372000	 64.9561
8.390000	 64.9019
8.408000	 64.8509
8.426000	 64.8378
8.443999	 64.869
8.462000	 64.9177
8.480000	 64.9434
8.498000	 64.9276
8.516000	 64.8859
8.533999	 64.8459
8.552000	 64.8122
8.570000	 64.7702
8.588000	 64.7176
8.606000	 64.6765
8.624000	 64.6622
8.641999	 64.6599
8.660000	 64.6439
8.678000	 64.6132
8.696000	 64.5951
8.714000	 64.621
8.731999	 64.703
8.750000	 64.8215
8.768000	 64.9256
8.786000	 64.9568
8.804000	 64.8958
8.821999	 64.7813
8.840000	 64.6773
8.858000	 64.6203
8.876000	 64.6098
8.894000	 64.6379
8.911999	 64.7039
8.930000	 64.7977
8.948000	 64.8927
8.966000	 64.9692
8.984000	 65.0238
9.001999	 65.0465
9.020000	 65.0063
9.038000	 64.879
9.056000	 64.6886
9.074000	 64.5067
9.092000	 64.4009
9.109999	 64.3901
9.128000	 64.4427
9.146000	 64.5068
9.164000	 64.5435
9.182000	 64.5485
9.199999	 64.5416
9.218000	 64.5424
9.236000	 64.5583
9.254000	 64.5901
9.272000	 64.6352
9.289999	 64.6836
9.308000	 64.7191
9.326000	 64.7328
9.344000	 64.7289
9.362000	 64.7165
9.379999	 64.6929
9.398000	 64.6484
9.416000	 64.589
9.434000	 64.542
9.452000	 64.5359
9.469999	 64.574
9.488000	 64.6352
9.506000	 64.6974
9.524000	 64.7557
9.542000	 64.8177
9.560000	 64.8844
9.577999	 64.9399
9.596000	 64.9616
9.614000	 64.9386
9.632000	 64.8814
9.650000	 64.8149
9.667999	 64.7631
9.686000	 64.735
9.704000	 64.7229
9.722000	 64.7108
9.740000	 64.6859
9.757999	 64.643
9.776000	 64.5808
9.794000	 64.4982
9.812000	 64.3935
9.830000	 64.2717
9.847999	 64.1501
9.866000	 64.0575
9.884000	 64.022
9.902000	 64.0545
9.920000	 64.1396
9.937999	 64.2402
9.956000	 64.3161
9.974000	 64.3459
9.992000	 64.3356
10.01	64.3121
10.028	64.3038
10.046	64.3261
10.064	64.3772
10.082	64.4458
10.1	64.5185
10.118	64.5845
10.136	64.6379
10.154	64.6781
10.172	64.708
10.19	64.7314
10.208	64.751
10.226	64.7676
10.244	64.7815
10.262	64.7959
10.28	64.8147
10.298	64.8394
10.316	64.8652
10.334	64.8826
10.352	64.8837
10.37	64.8653
10.388	64.8306
10.406	64.7868
10.424	64.7435
10.442	64.7115
10.46	64.7003
10.478	64.7146
10.496	64.7509
10.514	64.7978
10.532	64.8404
10.55	64.8669
10.568	64.8707
10.586	64.8483
10.604	64.7961
10.622	64.7078
10.64	64.5819
10.658	64.4305
10.676	64.2858
10.694	64.1891
10.712	64.1766
10.73	64.2566
10.748	64.4043
10.766	64.5719
10.784	64.7157
10.802	64.8118
10.82	64.861
10.838	64.8771
10.856	64.8657
10.874	64.8166
10.892	64.7143
10.91	64.5574
10.928	64.3749
10.946	64.2247
10.964	64.166
10.982	64.2294
11	64.3919
11.018	64.5826
11.036	64.7171
11.054	64.732
11.072	64.6208
11.09	64.4346
11.108	64.2514
11.126	64.147
11.144	64.154
11.162	64.2561
11.18	64.4041
11.198	64.5386
11.216	64.6183
11.234	64.6298
11.252	64.5843
11.27	64.5045
11.288	64.4129
11.306	64.3242
11.324	64.2453
11.342	64.1785
11.36	64.1257
11.378	64.089
11.396	64.0697
11.414	64.0669
11.432	64.0784
11.45	64.1009
11.468	64.1305
11.486	64.1641
11.504	64.1988
11.522	64.2318
11.54	64.2613
11.558	64.287
11.576	64.3116
11.594	64.3393
11.612	64.3749
11.63	64.4223
11.648	64.4818
11.666	64.5484
11.684	64.612
11.702	64.6604
11.72	64.6821
11.738	64.6714
11.756	64.6314
11.774	64.5733
11.792	64.5129
11.81	64.4646
11.828	64.4368
11.846	64.4292
11.864	64.4328
11.882	64.4362
11.9	64.43
11.918	64.4123
11.936	64.3891
11.954	64.3727
11.972	64.3754
11.99	64.4026
12.008	64.4496
12.026	64.501
12.044	64.5343
12.062	64.5276
12.08	64.468
12.098	64.3562
12.116	64.2086
12.134	64.054
12.152	63.9249
12.17	63.8479
12.188	63.8378
12.206	63.8927
12.224	63.9952
12.242	64.1195
12.26	64.239
12.278	64.3312
12.296	64.3826
12.314	64.3893
12.332	64.3556
12.35	64.2894
12.368	64.2012
12.386	64.1013
12.404	63.9992
12.422	63.9032
12.44	63.8214
12.458	63.7611
12.476	63.7283
12.494	63.7265
12.512	63.7548
12.53	63.8074
12.548	63.8739
12.566	63.9416
12.584	63.9985
12.602	64.0362
12.62	64.0513
12.638	64.0459
12.656	64.0255
12.674	63.997
12.692	63.9669
12.71	63.941
12.728	63.9229
12.746	63.915
12.764	63.9178
12.782	63.9309
12.8	63.9523
12.818	63.9792
12.836	64.0076
12.854	64.0344
12.872	64.0577
12.89	64.077
12.908	64.0933
12.926	64.1086
12.944	64.1245
12.962	64.1415
12.98	64.1583
12.998	64.1709
13.016	64.1741
13.034	64.1633
13.052	64.1358
13.07	64.0916
13.088	64.0345
13.106	63.9716
13.124	63.9109
13.142	63.8596
13.16	63.8227
13.178	63.8019
13.196	63.7954
13.214	63.7993
13.232	63.8088
13.25	63.8205
13.268	63.8328
13.286	63.8461
13.304	63.8612
13.322	63.8784
13.34	63.8962
13.358	63.9101
13.376	63.9131
13.394	63.8966
13.412	63.853
13.43	63.7766
13.448	63.6664
13.466	63.526
13.484	63.3639
13.502	63.1917
13.52	63.0223
13.538	62.8675
13.556	62.7369
13.574	62.636
13.592	62.5667
13.61	62.5272
13.628	62.5133
13.646	62.5191
13.664	62.5395
13.682	62.5695
13.7	62.6073
13.718	62.652
13.736	62.7055
13.754	62.7696
13.772	62.8462
13.79	62.9347
13.808	63.0323
13.826	63.1336
13.844	63.2314
13.862	63.3179
13.88	63.3866
13.898	63.4333
13.916	63.4573
13.934	63.4609
13.952	63.4491
13.97	63.4286
13.988	63.4062
14.006	63.3874
14.024	63.375
14.042	63.3697
14.06	63.37
14.078	63.3733
14.096	63.3768
14.114	63.3791
14.132	63.3802
14.15	63.3816
14.168	63.3856
14.186	63.395
14.204	63.4116
14.222	63.4363
14.24	63.4686
14.258	63.5067
14.276	63.5477
14.294	63.5886
14.312	63.6266
14.33	63.6599
14.348	63.6872
14.366	63.7084
14.384	63.7236
14.402	63.7342
14.42	63.741
14.438	63.7447
14.456	63.7453
14.474	63.7427
14.492	63.7362
14.51	63.7249
14.528	63.7078
14.546	63.6843
14.564	63.6544
14.582	63.6185
14.6	63.5778
14.618	63.5336
14.636	63.488
14.654	63.4425
14.672	63.3985
14.69	63.3571
14.708	63.3188
14.726	63.2833
14.744	63.2497
14.762	63.2165
14.78	63.182
14.798	63.1447
14.816	63.1035
14.834	63.0576
14.852	63.0074
14.87	62.9538
14.888	62.8982
14.906	62.8421
14.924	62.7871
14.942	62.7348
14.96	62.6864
14.978	62.6427
14.996	62.604
15.014	62.5702
15.032	62.5411
15.05	62.5163
15.068	62.4957
15.086	62.4794
15.104	62.4676
15.122	62.4609
15.14	62.4601
15.158	62.4658
15.176	62.4786
15.194	62.499
15.212	62.5265
15.23	62.5603
15.248	62.5988
15.266	62.6401
15.284	62.6816
15.302	62.7205
15.32	62.7542
15.338	62.7802
15.356	62.7967
15.374	62.8027
15.392	62.7991
15.41	62.7872
15.428	62.7697
15.446	62.7512
15.464	62.7359
15.482	62.728
15.5	62.7317
15.518	62.7502
15.536	62.7839
15.554	62.8325
15.572	62.8941
15.59	62.964
15.608	63.0372
15.626	63.1087
15.644	63.1727
15.662	63.224
15.68	63.2601
15.698	63.279
15.716	63.28
15.734	63.2649
15.752	63.2359
15.77	63.196
15.788	63.1498
15.806	63.1009
15.824	63.0522
15.842	63.0068
15.86	62.967
15.878	62.9333
15.896	62.9066
15.914	62.8864
15.932	62.8721
15.95	62.863
15.968	62.8578
15.986	62.8554
16.004	62.8548
16.022	62.8553
16.04	62.8553
16.058	62.8543
16.076	62.8516
16.094	62.8467
16.112	62.8397
16.13	62.8307
16.148	62.8198
16.166	62.8082
16.184	62.7969
16.202	62.7872
16.22	62.7812
16.238	62.7802
16.256	62.7854
16.274	62.7978
16.292	62.8176
16.31	62.8447
16.328	62.8777
16.346	62.9147
16.364	62.9539
16.382	62.9917
16.4	63.025
16.418	63.0513
16.436	63.0669
16.454	63.0698
16.472	63.0587
16.49	63.0325
16.508	62.9924
16.526	62.9392
16.544	62.876
16.562	62.806
16.58	62.7321
16.598	62.6592
16.616	62.5905
16.634	62.5286
16.652	62.4776
16.67	62.4382
16.688	62.412
16.706	62.3989
16.724	62.3981
16.742	62.4081
16.76	62.426
16.778	62.4498
16.796	62.4758
16.814	62.4999
16.832	62.5197
16.85	62.5308
16.868	62.5306
16.886	62.517
16.904	62.4881
16.922	62.4442
16.94	62.3847
16.958	62.3126
16.976	62.2295
16.994	62.1397
17.012	62.0477
17.03	61.9564
17.048	61.8723
17.066	61.7977
17.084	61.7367
17.102	61.6918
17.12	61.6641
17.138	61.6544
17.156	61.6613
17.174	61.6839
17.192	61.7186
17.21	61.7636
17.228	61.8147
17.246	61.8689
17.264	61.9239
17.282	61.9762
17.3	62.0247
17.318	62.0676
17.336	62.1043
17.354	62.1345
17.372	62.1585
17.39	62.1767
17.408	62.1899
17.426	62.1988
17.444	62.2037
17.462	62.2051
17.48	62.2033
17.498	62.1984
17.516	62.1907
17.534	62.1802
17.552	62.1674
17.57	62.1527
17.588	62.1371
17.606	62.1212
17.624	62.1061
17.642	62.0932
17.66	62.0833
17.678	62.0782
17.696	62.0781
17.714	62.0846
17.732	62.0981
17.75	62.119
17.768	62.1475
17.786	62.1835
17.804	62.2258
17.822	62.274
17.84	62.3265
17.858	62.382
17.876	62.4394
17.894	62.4965
17.912	62.5527
17.93	62.606
17.948	62.656
17.966	62.7013
17.984	62.742
18.002	62.7776
18.02	62.8082
18.038	62.834
18.056	62.8555
18.074	62.8731
18.092	62.8873
18.11	62.8982
18.128	62.9058
18.146	62.9099
18.164	62.91
18.182	62.9055
18.2	62.8955
18.218	62.8788
18.236	62.8549
18.254	62.8226
18.272	62.7815
18.29	62.7313
18.308	62.6721
18.326	62.605
18.344	62.5303
18.362	62.4507
18.38	62.3672
18.398	62.2827
18.416	62.1992
18.434	62.1195
18.452	62.0454
18.47	61.9788
18.488	61.9212
18.506	61.8734
18.524	61.8351
18.542	61.8065
18.56	61.7854
18.578	61.7714
18.596	61.7607
18.614	61.7531
18.632	61.744
18.65	61.7332
18.668	61.7172
18.686	61.6959
18.704	61.6672
18.722	61.6315
18.74	61.5888
18.758	61.5401
18.776	61.4872
18.794	61.4314
18.812	61.3755
18.83	61.3208
18.848	61.2702
18.866	61.2243
18.884	61.1856
18.902	61.154
18.92	61.1306
18.938	61.1144
18.956	61.1052
18.974	61.1014
18.992	61.1014
19.01	61.1038
19.028	61.1063
19.046	61.108
19.064	61.1068
19.082	61.1026
19.1	61.094
19.118	61.0815
19.136	61.0653
19.154	61.0463
19.172	61.026
19.19	61.0053
19.208	60.9869
19.226	60.9711
19.244	60.9611
19.262	60.9566
19.28	60.96
19.298	60.9709
19.316	60.9897
19.334	61.0161
19.352	61.0485
19.37	61.087
19.388	61.1285
19.406	61.173
19.424	61.217
19.442	61.2603
19.46	61.2997
19.478	61.3351
19.496	61.3645
19.514	61.387
19.532	61.4024
19.55	61.4102
19.568	61.4109
19.586	61.4047
19.604	61.3921
19.622	61.3741
19.64	61.351
19.658	61.3244
19.676	61.2942
19.694	61.2621
19.712	61.2278
19.73	61.1926
19.748	61.1565
19.766	61.12
19.784	61.0832
19.802	61.0464
19.82	61.0097
19.838	60.9733
19.856	60.9378
19.874	60.9031
19.892	60.8699
19.91	60.8381
19.928	60.8085
19.946	60.7811
19.964	60.7564
19.982	60.7346
20	60.7157
20.018	60.7001
20.036	60.6875
20.054	60.6775
20.072	60.6702
20.09	60.6644
20.108	60.6604
20.126	60.6568
20.144	60.6535
20.162	60.6497
20.18	60.6449
20.198	60.639
20.216	60.6316
20.234	60.6229
20.252	60.6133
20.27	60.6026
20.288	60.5924
20.306	60.5824
20.324	60.5742
20.342	60.5684
20.36	60.5656
20.378	60.5676
20.396	60.5742
20.414	60.5865
20.432	60.6046
20.45	60.6282
20.468	60.6576
20.486	60.6916
20.504	60.729
20.522	60.7697
20.54	60.8106
20.558	60.8521
20.576	60.8911
20.594	60.9264
20.612	60.9573
20.63	60.9803
20.648	60.9963
20.666	61.0029
20.684	60.9999
20.702	60.9876
20.72	60.9655
20.738	60.9345
20.756	60.8962
20.774	60.8502
20.792	60.8002
20.81	60.7461
20.828	60.6901
20.846	60.6355
20.864	60.5815
20.882	60.5323
20.9	60.4875
20.918	60.4488
20.936	60.4179
20.954	60.3943
20.972	60.3788
20.99	60.3716
21.008	60.3715
21.026	60.3787
21.044	60.3924
21.062	60.4105
21.08	60.4336
21.098	60.4592
21.116	60.4867
21.134	60.5155
21.152	60.5435
21.17	60.5713
21.188	60.5974
21.206	60.6214
21.224	60.6436
21.242	60.6635
21.26	60.6812
21.278	60.6971
21.296	60.7112
21.314	60.7235
21.332	60.7347
21.35	60.7446
21.368	60.7536
21.386	60.7618
21.404	60.7692
21.422	60.7756
21.44	60.781
21.458	60.7846
21.476	60.786
21.494	60.785
21.512	60.7795
21.53	60.77
21.548	60.7554
21.566	60.7346
21.584	60.7081
21.602	60.6743
21.62	60.6332
21.638	60.5847
21.656	60.5282
21.674	60.464
21.692	60.3922
21.71	60.3127
21.728	60.2259
21.746	60.1331
21.764	60.0335
21.782	59.9289
21.8	59.8203
21.818	59.7073
21.836	59.5922
21.854	59.475
21.872	59.3565
21.89	59.2393
21.908	59.1225
21.926	59.0081
21.944	58.8975
21.962	58.7902
21.98	58.6888
21.998	58.5933
22.016	58.5044
22.034	58.4243
22.052	58.3521
22.07	58.2892
22.088	58.2367
22.106	58.194
22.124	58.1619
22.142	58.1408
22.16	58.1304
22.178	58.13
22.196	58.1404
22.214	58.16
22.232	58.1877
22.25	58.2242
22.268	58.2669
22.286	58.3144
22.304	58.3674
22.322	58.4219
22.34	58.4777
22.358	58.5342
22.376	58.5874
22.394	58.6383
22.412	58.6852
22.43	58.7248
22.448	58.7586
22.466	58.7846
22.484	58.8008
22.502	58.8084
22.52	58.8058
22.538	58.7921
22.556	58.7679
22.574	58.7329
22.592	58.6871
22.61	58.6307
22.628	58.5644
22.646	58.4882
22.664	58.4023
22.682	58.3073
22.7	58.2032
22.718	58.0901
22.736	57.9683
22.754	57.8378
22.772	57.699
22.79	57.5523
22.808	57.3974
22.826	57.2353
22.844	57.0667
22.862	56.8911
22.88	56.7093
22.898	56.5214
22.916	56.3271
22.934	56.1285
22.952	55.9251
22.97	55.7174
22.988	55.5098
23.006	55.3022
23.024	55.0949
23.042	54.8942
23.06	54.7003
23.078	54.5132
23.096	54.3379
23.114	54.1736
23.132	54.0212
23.15	53.8854
23.168	53.7652
23.186	53.6616
23.204	53.5796
23.222	53.5189
23.24	53.4793
23.258	53.4633
23.276	53.4717
23.294	53.5029
23.312	53.5556
23.33	53.6313
23.348	53.7278
23.366	53.8404
23.384	53.9713
23.402	54.1179
23.42	54.2709
23.438	54.4313
23.456	54.5983
23.474	54.7629
23.492	54.9242
23.51	55.0833
23.528	55.2344
23.546	55.3759
23.564	55.5095
23.582	55.6311
23.6	55.7394
23.618	55.8356
23.636	55.918
23.654	55.9853
23.672	56.0383
23.69	56.0777
23.708	56.1038
23.726	56.1159
23.744	56.1162
23.762	56.1065
23.78	56.085
23.798	56.0547
23.816	56.0188
23.834	55.9752
23.852	55.9263
23.87	55.8762
23.888	55.8228
23.906	55.768
23.924	55.717
23.942	55.6689
23.96	55.624
23.978	55.5874
23.996	55.5604
24.014	55.5412
24.032	55.5347
24.05	55.5436
24.068	55.5653
24.086	55.6034
24.104	55.6622
24.122	55.7402
24.14	55.8368
24.158	55.9522
24.176	56.0868
24.194	56.2398
24.212	56.4098
24.23	56.5969
24.248	56.8013
24.266	57.0207
24.284	57.2531
24.302	57.4992
24.32	57.7604
24.338	58.0383
24.356	58.3321
24.374	58.6419
24.392	58.9674
24.41	59.3063
24.428	59.6609
24.446	60.0369
24.464	60.4341
24.482	60.8492
24.5	61.2954
24.518	61.7827
24.536	62.301
24.554	62.8612
24.572	63.4782
24.59	64.1475
24.608	64.8697
24.626	65.6585
24.644	66.5217
24.662	67.4528
24.68	68.452
24.698	69.5206
24.716	70.6609
24.734	71.8675
24.752	73.1337
24.77	74.4689
24.788	75.8688
24.806	77.3026
24.824	78.7533
24.842	80.2475
24.86	81.7459
24.878	83.2019
24.896	84.6422
24.914	86.0534
24.932	87.3731
24.95	88.5745
24.968	89.6995
24.986	90.6878
25.004	91.4757
25.022	92.0919
25.04	92.5285
25.058	92.7393
25.076	92.6992
25.094	92.4332
25.112	91.9336
25.13	91.1904
25.148	90.1902
25.166	88.9556
25.184	87.5194
25.202	85.8839
25.22	84.0234
25.238	82.007
25.256	79.9041
25.274	77.6677
25.292	75.3233
25.31	72.959
25.328	70.6199
25.346	68.2427
25.364	65.8991
25.382	63.6725
25.4	61.547
25.418	59.5095
25.436	57.613
25.454	55.9002
25.472	54.3443
25.49	52.9483
25.508	51.7247
25.526	50.681
25.544	49.8099
25.562	49.1025
25.58	48.5509
25.598	48.1671
25.616	47.9396
25.634	47.8461
25.652	47.8729
25.67	48.0353
25.688	48.3197
25.706	48.7097
25.724	49.2021
25.742	49.8034
25.76	50.5075
25.778	51.3092
25.796	52.2168
25.814	53.2225
25.832	54.3114
25.85	55.4733
25.868	56.7183
25.886	58.0394
25.904	59.4273
25.922	60.8877
25.94	62.4261
25.958	64.0135
25.976	65.6206
25.994	67.256
26.012	68.9235
26.03	70.605
26.048	72.2828
26.066	73.9541
26.084	75.6336
26.102	77.3367
26.12	79.069
26.138	80.8096
26.156	82.5867
26.174	84.4339
26.192	86.3481
26.21	88.2999
26.228	90.354
26.246	92.5778
26.264	94.9708
26.282	97.5037
26.3	100.216
26.318	103.145
26.336	106.301
26.354	109.659
26.372	113.203
26.39	116.92
26.408	120.859
26.426	124.976
26.444	129.189
26.462	133.44
26.48	137.844
26.498	142.303
26.516	146.662
26.534	150.817
26.552	154.918
26.57	158.859
26.588	162.478
26.606	165.675
26.624	168.585
26.642	171.129
26.66	173.193
26.678	174.711
26.696	175.76
26.714	176.318
26.732	176.351
26.75	175.815
26.768	174.706
26.786	173.107
26.804	171.101
26.822	168.708
26.84	165.838
26.858	162.613
26.876	159.167
26.894	155.545
26.912	151.621
26.93	147.527
26.948	143.413
26.966	139.191
26.984	134.497
27.002	130.021
27.02	126.522
27.028	125.585