File: Bakgrunnsmateriale/MATLAB/FTIR/ftir_data/subBb/Mapping_121/C-4040-8_t10.asc
PE IR       SPECTRUM    SPECTRUM    ASCII       PEDS        1.60
  -1
C-A92A~1.ASC
17/03/27
15:17:06.00
17/03/27
15:17:32.00
tln
$C-4040-8_t0010$<tbV0>[-10.4,-13.0,8.0,0.0,27,1,0]
27.028
64

2002,4.07
MIRTGS : RIGHTBACK : INTERNAL 2
MIR : ON : INTERNAL 2
OPTKBR

0.200000
8
8.000000
FILLER
RATIO
SPECTRUM
UNLOCKED 256

DOUBLE
64
COMBINED
1
0
0

0.002000
RATIO

1
0
TRUE
51149
0
LEFT NOT FITTED RIGHT NOT FITTED 0
NONE
NONE
15600
12
4.427000
51148
TRUE
1 0 8 72 0 0 0 0

15798

#HDR
-1
-1
#GR
µM
%T
2.38419e-05
0.0
2.000000
0.002000
12515
8
80.5006
23.4116
#DATA
2.000000	 63.8163
2.018000	 62.8415
2.036000	 64.525
2.054000	 63.7401
2.072000	 64.131
2.090000	 64.4075
2.108000	 64.3744
2.126000	 64.0118
2.144000	 64.0071
2.162000	 64.0711
2.180000	 63.6059
2.198000	 63.4766
2.216000	 63.4872
2.234000	 63.7722
2.252000	 66.4957
2.270000	 60.5723
2.288000	 64.5563
2.306000	 63.1076
2.324000	 62.8448
2.342000	 63.0485
2.360000	 63.1156
2.378000	 63.5561
2.396000	 62.4185
2.414000	 62.9552
2.432000	 63.8782
2.450000	 63.4903
2.468000	 63.2817
2.486000	 63.4111
2.504000	 63.6413
2.522000	 63.291
2.540000	 63.2166
2.558000	 63.2141
2.576000	 62.9997
2.594000	 63.2443
2.612000	 62.9042
2.630000	 63.1311
2.648000	 62.7075
2.666000	 63.1618
2.684000	 62.7329
2.702000	 62.5687
2.720000	 62.8655
2.738000	 62.8527
2.756000	 62.4093
2.774000	 62.1171
2.792000	 62.3877
2.810000	 62.2598
2.828000	 61.8895
2.846000	 61.802
2.864000	 62.0791
2.882000	 61.8973
2.900000	 61.9171
2.918000	 61.4402
2.936000	 61.3989
2.954000	 61.2529
2.972000	 61.1912
2.990000	 61.3703
3.008000	 61.1896
3.026000	 60.9711
3.044000	 60.9747
3.062000	 60.8933
3.080000	 60.5715
3.098000	 60.6037
3.116000	 60.7759
3.134000	 60.5399
3.152000	 60.386
3.170000	 60.4112
3.188000	 60.3654
3.206000	 60.284
3.224000	 60.1664
3.242000	 59.9249
3.260000	 59.9242
3.278000	 59.8022
3.296000	 59.7326
3.314000	 59.8024
3.332000	 59.6001
3.350000	 59.5026
3.368000	 59.3003
3.386000	 59.1198
3.404000	 59.0992
3.422000	 59.0019
3.440000	 58.8405
3.458000	 58.9097
3.476000	 58.6939
3.494000	 58.6558
3.512000	 58.613
3.530000	 58.6384
3.548000	 58.6278
3.566000	 58.3508
3.584000	 58.3223
3.602000	 58.1788
3.620000	 58.1009
3.638000	 58.1171
3.656000	 57.9656
3.674000	 57.7519
3.692000	 57.6395
3.710000	 57.779
3.728000	 57.6101
3.746000	 57.5832
3.764000	 57.4219
3.782000	 57.2858
3.800000	 57.2344
3.818000	 57.1149
3.836000	 56.9504
3.854000	 56.9334
3.872000	 56.772
3.890000	 56.7704
3.908000	 56.6036
3.926000	 56.6527
3.944000	 56.3911
3.962000	 56.4551
3.980000	 56.3473
3.998000	 56.0687
4.016000	 56.2382
4.034000	 55.9058
4.052000	 56.0292
4.070000	 55.6792
4.088000	 55.8381
4.106000	 55.8249
4.124000	 55.4153
4.141999	 55.3573
4.160000	 55.4373
4.178000	 55.3393
4.196000	 55.2968
4.214000	 55.1929
4.232000	 55.2222
4.250000	 55.1304
4.268000	 54.9466
4.286000	 55.0581
4.304000	 54.8274
4.322000	 54.6007
4.340000	 54.744
4.358000	 54.4668
4.375999	 54.5101
4.394000	 54.4151
4.412000	 54.298
4.430000	 54.2632
4.448000	 54.2214
4.466000	 54.1132
4.484000	 54.099
4.502000	 53.9792
4.520000	 53.9111
4.538000	 53.7284
4.556000	 53.7374
4.574000	 53.5757
4.592000	 53.4921
4.609999	 53.4972
4.628000	 53.5136
4.646000	 53.3493
4.664000	 53.3062
4.682000	 53.2594
4.700000	 53.1476
4.718000	 53.1191
4.736000	 52.9599
4.754000	 52.9939
4.772000	 52.9269
4.790000	 52.654
4.808000	 52.665
4.826000	 52.5082
4.843999	 52.4359
4.862000	 52.4084
4.880000	 52.3143
4.898000	 52.3206
4.916000	 52.2808
4.934000	 52.1189
4.952000	 51.9768
4.970000	 51.9442
4.988000	 52.0035
5.006000	 51.9817
5.024000	 51.8571
5.042000	 51.7753
5.060000	 51.6631
5.077999	 51.5712
5.096000	 51.4875
5.114000	 51.4574
5.132000	 51.4993
5.150000	 51.3527
5.168000	 51.3482
5.186000	 51.3017
5.204000	 51.1939
5.222000	 51.1022
5.240000	 51.0448
5.258000	 50.9364
5.276000	 50.9839
5.294000	 50.9233
5.312000	 50.8557
5.330000	 50.7998
5.348000	 50.6535
5.366000	 50.6371
5.384000	 50.6018
5.402000	 50.5568
5.420000	 50.527
5.438000	 50.3812
5.456000	 50.3423
5.474000	 50.3518
5.492000	 50.2071
5.510000	 50.2105
5.528000	 50.1528
5.546000	 50.0956
5.564000	 50.1421
5.582000	 50.1485
5.600000	 49.9866
5.618000	 49.8552
5.636000	 49.918
5.654000	 49.9006
5.672000	 49.7607
5.690000	 49.7102
5.708000	 49.6004
5.726000	 49.4703
5.744000	 49.4415
5.762000	 49.4364
5.780000	 49.3604
5.798000	 49.2328
5.816000	 49.245
5.834000	 49.2502
5.852000	 49.1467
5.870000	 49.269
5.888000	 49.3809
5.906000	 49.1842
5.923999	 49.0301
5.942000	 48.9893
5.960000	 48.8758
5.978000	 48.9247
5.996000	 48.8577
6.014000	 48.7406
6.032000	 48.8655
6.050000	 49.0058
6.068000	 48.8619
6.086000	 48.6169
6.104000	 48.4961
6.122000	 48.423
6.140000	 48.3302
6.158000	 48.318
6.176000	 48.2795
6.194000	 48.1765
6.212000	 48.0772
6.230000	 47.9677
6.248000	 47.8238
6.266000	 47.7779
6.284000	 47.7914
6.302000	 47.8139
6.320000	 47.9082
6.338000	 47.9665
6.356000	 47.8595
6.374000	 47.7121
6.392000	 47.8012
6.410000	 48.0164
6.428000	 47.887
6.446000	 47.5996
6.464000	 47.5153
6.482000	 47.6772
6.500000	 47.6489
6.518000	 47.3632
6.536000	 47.2802
6.554000	 47.4176
6.572000	 47.5027
6.590000	 47.4073
6.608000	 47.3112
6.626000	 47.3459
6.644000	 47.3357
6.662000	 47.205
6.680000	 47.0181
6.698000	 46.8718
6.716000	 46.8633
6.734000	 46.8262
6.752000	 46.751
6.770000	 46.7623
6.788000	 46.7734
6.806000	 46.7038
6.824000	 46.7007
6.842000	 46.8018
6.860000	 46.8112
6.878000	 46.6523
6.896000	 46.4997
6.914000	 46.4448
6.932000	 46.3941
6.950000	 46.3315
6.968000	 46.2896
6.986000	 46.2346
7.004000	 46.1433
7.022000	 46.0939
7.040000	 46.1109
7.058000	 46.0844
7.076000	 45.9905
7.094000	 45.8828
7.112000	 45.8295
7.130000	 45.909
7.148000	 46.0112
7.166000	 45.987
7.184000	 45.8966
7.202000	 45.8048
7.220000	 45.7
7.238000	 45.6063
7.256000	 45.5578
7.274000	 45.5422
7.292000	 45.5126
7.310000	 45.4744
7.328000	 45.471
7.346000	 45.4797
7.364000	 45.4696
7.382000	 45.4601
7.400000	 45.4406
7.418000	 45.3782
7.436000	 45.2771
7.454000	 45.1803
7.472000	 45.1231
7.490000	 45.0975
7.508000	 45.0998
7.526000	 45.1381
7.544000	 45.1657
7.562000	 45.151
7.580000	 45.1173
7.598000	 45.0462
7.616000	 44.9357
7.634000	 44.8784
7.652000	 44.9098
7.670000	 44.9358
7.688000	 44.9104
7.706000	 44.8908
7.724000	 44.8908
7.742000	 44.8553
7.760000	 44.7682
7.778000	 44.6652
7.796000	 44.5724
7.814000	 44.4949
7.832000	 44.4368
7.850000	 44.4033
7.868000	 44.4014
7.886000	 44.43
7.904000	 44.4522
7.922000	 44.4257
7.940000	 44.3628
7.958000	 44.311
7.976000	 44.298
7.994000	 44.3228
8.012000	 44.3563
8.030000	 44.3455
8.048000	 44.277
8.065999	 44.209
8.084000	 44.1926
8.102000	 44.2015
8.120000	 44.1824
8.138000	 44.1351
8.155999	 44.1008
8.173999	 44.0886
8.192000	 44.0568
8.210000	 43.9806
8.228000	 43.9058
8.246000	 43.8952
8.263999	 43.9426
8.282000	 43.9827
8.300000	 43.9688
8.318000	 43.9019
8.336000	 43.803
8.353999	 43.6965
8.372000	 43.6143
8.390000	 43.5742
8.408000	 43.5606
8.426000	 43.5424
8.443999	 43.507
8.462000	 43.4646
8.480000	 43.4314
8.498000	 43.4161
8.516000	 43.4124
8.533999	 43.402
8.552000	 43.3776
8.570000	 43.3557
8.588000	 43.3544
8.606000	 43.3653
8.624000	 43.3619
8.641999	 43.3349
8.660000	 43.2981
8.678000	 43.2613
8.696000	 43.2168
8.714000	 43.1585
8.731999	 43.0978
8.750000	 43.0484
8.768000	 43.0042
8.786000	 42.9489
8.804000	 42.8881
8.821999	 42.8529
8.840000	 42.8675
8.858000	 42.9163
8.876000	 42.9563
8.894000	 42.958
8.911999	 42.9283
8.930000	 42.8913
8.948000	 42.863
8.966000	 42.8507
8.984000	 42.8619
9.001999	 42.8966
9.020000	 42.9321
9.038000	 42.9333
9.056000	 42.8909
9.074000	 42.8307
9.092000	 42.785
9.109999	 42.7616
9.128000	 42.7468
9.146000	 42.727
9.164000	 42.6989
9.182000	 42.6647
9.199999	 42.624
9.218000	 42.5724
9.236000	 42.5048
9.254000	 42.4193
9.272000	 42.328
9.289999	 42.259
9.308000	 42.2371
9.326000	 42.2574
9.344000	 42.2867
9.362000	 42.2921
9.379999	 42.2668
9.398000	 42.2278
9.416000	 42.1938
9.434000	 42.1671
9.452000	 42.1384
9.469999	 42.1053
9.488000	 42.0801
9.506000	 42.079
9.524000	 42.1053
9.542000	 42.1452
9.560000	 42.1778
9.577999	 42.1866
9.596000	 42.1625
9.614000	 42.1022
9.632000	 42.0107
9.650000	 41.9113
9.667999	 41.8432
9.686000	 41.8387
9.704000	 41.8963
9.722000	 41.9798
9.740000	 42.0433
9.757999	 42.0632
9.776000	 42.0475
9.794000	 42.0178
9.812000	 41.9853
9.830000	 41.944
9.847999	 41.8859
9.866000	 41.8156
9.884000	 41.75
9.902000	 41.7056
9.920000	 41.6861
9.937999	 41.68
9.956000	 41.6709
9.974000	 41.6486
9.992000	 41.6147
10.01	41.5778
10.028	41.544
10.046	41.5124
10.064	41.479
10.082	41.4422
10.1	41.4074
10.118	41.385
10.136	41.3839
10.154	41.4052
10.172	41.4391
10.19	41.4667
10.208	41.4674
10.226	41.4273
10.244	41.3483
10.262	41.2509
10.28	41.1654
10.298	41.117
10.316	41.1119
10.334	41.1348
10.352	41.1602
10.37	41.1643
10.388	41.135
10.406	41.072
10.424	40.9833
10.442	40.8813
10.46	40.7811
10.478	40.6997
10.496	40.6498
10.514	40.6358
10.532	40.6483
10.55	40.6673
10.568	40.6704
10.586	40.6418
10.604	40.5798
10.622	40.4963
10.64	40.4136
10.658	40.3541
10.676	40.332
10.694	40.3476
10.712	40.3867
10.73	40.426
10.748	40.4415
10.766	40.4165
10.784	40.3471
10.802	40.2463
10.82	40.1373
10.838	40.0491
10.856	40.0004
10.874	39.9923
10.892	40.0063
10.91	40.0105
10.928	39.9761
10.946	39.8912
10.964	39.7712
10.982	39.6538
11	39.5819
11.018	39.5888
11.036	39.6802
11.054	39.8329
11.072	40.0055
11.09	40.1501
11.108	40.2338
11.126	40.2459
11.144	40.2001
11.162	40.1249
11.18	40.045
11.198	39.9716
11.216	39.9004
11.234	39.8192
11.252	39.7209
11.27	39.6142
11.288	39.5239
11.306	39.478
11.324	39.4958
11.342	39.5768
11.36	39.7004
11.378	39.8361
11.396	39.9581
11.414	40.0512
11.432	40.111
11.45	40.1376
11.468	40.1319
11.486	40.0951
11.504	40.0311
11.522	39.9505
11.54	39.8691
11.558	39.8048
11.576	39.7705
11.594	39.7686
11.612	39.791
11.63	39.8224
11.648	39.8478
11.666	39.8558
11.684	39.8426
11.702	39.81
11.72	39.7629
11.738	39.7068
11.756	39.6464
11.774	39.5854
11.792	39.5269
11.81	39.4723
11.828	39.4214
11.846	39.3732
11.864	39.3273
11.882	39.2837
11.9	39.244
11.918	39.2108
11.936	39.1856
11.954	39.1677
11.972	39.1523
11.99	39.1316
12.008	39.0964
12.026	39.0399
12.044	38.9611
12.062	38.8675
12.08	38.7729
12.098	38.693
12.116	38.6395
12.134	38.6159
12.152	38.616
12.17	38.628
12.188	38.6399
12.206	38.6447
12.224	38.6419
12.242	38.6359
12.26	38.6317
12.278	38.6331
12.296	38.64
12.314	38.6499
12.332	38.6596
12.35	38.6671
12.368	38.6724
12.386	38.6773
12.404	38.6831
12.422	38.6891
12.44	38.6914
12.458	38.6843
12.476	38.6622
12.494	38.6227
12.512	38.5683
12.53	38.5073
12.548	38.4515
12.566	38.413
12.584	38.4008
12.602	38.4176
12.62	38.4589
12.638	38.5136
12.656	38.5672
12.674	38.6054
12.692	38.6177
12.71	38.5997
12.728	38.5547
12.746	38.4913
12.764	38.4218
12.782	38.3576
12.8	38.3074
12.818	38.2742
12.836	38.2555
12.854	38.2445
12.872	38.2325
12.89	38.2123
12.908	38.18
12.926	38.1372
12.944	38.0893
12.962	38.0449
12.98	38.0125
12.998	37.9976
13.016	38.0011
13.034	38.0188
13.052	38.0427
13.07	38.063
13.088	38.0701
13.106	38.0577
13.124	38.0239
13.142	37.972
13.16	37.9096
13.178	37.8464
13.196	37.7924
13.214	37.7548
13.232	37.7373
13.25	37.7389
13.268	37.755
13.286	37.7785
13.304	37.8021
13.322	37.8194
13.34	37.8266
13.358	37.8218
13.376	37.8047
13.394	37.776
13.412	37.7364
13.43	37.686
13.448	37.6252
13.466	37.5547
13.484	37.4766
13.502	37.3954
13.52	37.3171
13.538	37.2493
13.556	37.1992
13.574	37.1722
13.592	37.17
13.61	37.1904
13.628	37.2274
13.646	37.2721
13.664	37.3153
13.682	37.3484
13.7	37.3658
13.718	37.365
13.736	37.3473
13.754	37.3165
13.772	37.2777
13.79	37.2363
13.808	37.1962
13.826	37.1596
13.844	37.1269
13.862	37.0978
13.88	37.071
13.898	37.0453
13.916	37.0202
13.934	36.9961
13.952	36.9736
13.97	36.9534
13.988	36.9359
14.006	36.9207
14.024	36.9069
14.042	36.8931
14.06	36.8778
14.078	36.8601
14.096	36.8402
14.114	36.819
14.132	36.7988
14.15	36.782
14.168	36.7714
14.186	36.7691
14.204	36.7761
14.222	36.7919
14.24	36.8148
14.258	36.8418
14.276	36.8691
14.294	36.8925
14.312	36.9083
14.33	36.9138
14.348	36.907
14.366	36.8875
14.384	36.8562
14.402	36.8149
14.42	36.7664
14.438	36.7136
14.456	36.6595
14.474	36.6067
14.492	36.5569
14.51	36.5107
14.528	36.4682
14.546	36.4283
14.564	36.3897
14.582	36.3513
14.6	36.3118
14.618	36.2704
14.636	36.2273
14.654	36.1832
14.672	36.1395
14.69	36.0976
14.708	36.059
14.726	36.0248
14.744	35.9958
14.762	35.9714
14.78	35.9504
14.798	35.9311
14.816	35.9116
14.834	35.8901
14.852	35.8648
14.87	35.8355
14.888	35.8026
14.906	35.7675
14.924	35.7327
14.942	35.7011
14.96	35.6759
14.978	35.6594
14.996	35.6533
15.014	35.658
15.032	35.6727
15.05	35.6948
15.068	35.7209
15.086	35.7472
15.104	35.7697
15.122	35.7843
15.14	35.7885
15.158	35.7808
15.176	35.7608
15.194	35.7296
15.212	35.6894
15.23	35.6433
15.248	35.5941
15.266	35.5445
15.284	35.4972
15.302	35.4538
15.32	35.4149
15.338	35.3805
15.356	35.35
15.374	35.3223
15.392	35.2964
15.41	35.2718
15.428	35.2479
15.446	35.2252
15.464	35.2043
15.482	35.1862
15.5	35.172
15.518	35.1628
15.536	35.1589
15.554	35.1602
15.572	35.166
15.59	35.1746
15.608	35.1839
15.626	35.192
15.644	35.1964
15.662	35.1949
15.68	35.1864
15.698	35.1699
15.716	35.1454
15.734	35.1139
15.752	35.0766
15.77	35.0349
15.788	34.9914
15.806	34.9482
15.824	34.9069
15.842	34.8692
15.86	34.8359
15.878	34.8073
15.896	34.7832
15.914	34.7628
15.932	34.7448
15.95	34.7284
15.968	34.7122
15.986	34.6951
16.004	34.6765
16.022	34.6559
16.04	34.6337
16.058	34.6104
16.076	34.5864
16.094	34.5622
16.112	34.5384
16.13	34.5152
16.148	34.4927
16.166	34.471
16.184	34.4498
16.202	34.4289
16.22	34.4081
16.238	34.3874
16.256	34.3667
16.274	34.3465
16.292	34.3272
16.31	34.3091
16.328	34.2927
16.346	34.278
16.364	34.265
16.382	34.2528
16.4	34.2401
16.418	34.2257
16.436	34.2072
16.454	34.1828
16.472	34.1512
16.49	34.1104
16.508	34.0605
16.526	34.0014
16.544	33.9345
16.562	33.8621
16.58	33.7857
16.598	33.7097
16.616	33.6369
16.634	33.5701
16.652	33.5129
16.67	33.4667
16.688	33.4332
16.706	33.4134
16.724	33.4069
16.742	33.4137
16.76	33.4321
16.778	33.461
16.796	33.4984
16.814	33.5419
16.832	33.5902
16.85	33.6401
16.868	33.69
16.886	33.7379
16.904	33.7814
16.922	33.819
16.94	33.8491
16.958	33.8701
16.976	33.8815
16.994	33.8825
17.012	33.8734
17.03	33.8544
17.048	33.8271
17.066	33.7927
17.084	33.7529
17.102	33.7107
17.12	33.6675
17.138	33.6261
17.156	33.5877
17.174	33.5537
17.192	33.5247
17.21	33.5003
17.228	33.48
17.246	33.4617
17.264	33.4445
17.282	33.425
17.3	33.4022
17.318	33.3733
17.336	33.3368
17.354	33.2917
17.372	33.2371
17.39	33.1731
17.408	33.1004
17.426	33.0205
17.444	32.9345
17.462	32.8459
17.48	32.7561
17.498	32.6686
17.516	32.5857
17.534	32.5094
17.552	32.4429
17.57	32.3868
17.588	32.3433
17.606	32.3121
17.624	32.2939
17.642	32.2874
17.66	32.2924
17.678	32.3059
17.696	32.3272
17.714	32.3532
17.732	32.3824
17.75	32.4125
17.768	32.4415
17.786	32.4686
17.804	32.4915
17.822	32.5101
17.84	32.5235
17.858	32.5318
17.876	32.5347
17.894	32.5327
17.912	32.5258
17.93	32.5145
17.948	32.4989
17.966	32.4793
17.984	32.4553
18.002	32.427
18.02	32.3939
18.038	32.3557
18.056	32.312
18.074	32.2626
18.092	32.2077
18.11	32.1472
18.128	32.0823
18.146	32.0136
18.164	31.9428
18.182	31.8713
18.2	31.8012
18.218	31.7347
18.236	31.6734
18.254	31.6203
18.272	31.5761
18.29	31.5433
18.308	31.522
18.326	31.5132
18.344	31.5165
18.362	31.5312
18.38	31.5562
18.398	31.5893
18.416	31.6288
18.434	31.6722
18.452	31.717
18.47	31.7611
18.488	31.8014
18.506	31.8365
18.524	31.8639
18.542	31.8831
18.56	31.8929
18.578	31.893
18.596	31.8842
18.614	31.8667
18.632	31.8425
18.65	31.812
18.668	31.7784
18.686	31.7421
18.704	31.7067
18.722	31.6724
18.74	31.6424
18.758	31.6169
18.776	31.5983
18.794	31.5863
18.812	31.582
18.83	31.5847
18.848	31.5945
18.866	31.6101
18.884	31.63
18.902	31.6528
18.92	31.6762
18.938	31.6986
18.956	31.717
18.974	31.73
18.992	31.7349
19.01	31.7306
19.028	31.7148
19.046	31.6875
19.064	31.6473
19.082	31.5948
19.1	31.53
19.118	31.4542
19.136	31.3689
19.154	31.2755
19.172	31.177
19.19	31.0745
19.208	30.9723
19.226	30.8709
19.244	30.7751
19.262	30.6849
19.28	30.6047
19.298	30.5343
19.316	30.4769
19.334	30.4321
19.352	30.4017
19.37	30.3853
19.388	30.3829
19.406	30.3946
19.424	30.4184
19.442	30.4547
19.46	30.5004
19.478	30.5555
19.496	30.6166
19.514	30.6832
19.532	30.7521
19.55	30.8218
19.568	30.8905
19.586	30.9559
19.604	31.017
19.622	31.0711
19.64	31.1182
19.658	31.1561
19.676	31.185
19.694	31.2038
19.712	31.2125
19.73	31.2117
19.748	31.2011
19.766	31.1826
19.784	31.1561
19.802	31.1239
19.82	31.0868
19.838	31.0462
19.856	31.0044
19.874	30.9614
19.892	30.9199
19.91	30.8797
19.928	30.8428
19.946	30.8093
19.964	30.7793
19.982	30.7533
20	30.7304
20.018	30.7105
20.036	30.6927
20.054	30.6755
20.072	30.6587
20.09	30.6401
20.108	30.6199
20.126	30.596
20.144	30.5682
20.162	30.5357
20.18	30.4977
20.198	30.455
20.216	30.4074
20.234	30.3553
20.252	30.3009
20.27	30.2436
20.288	30.1867
20.306	30.1299
20.324	30.0759
20.342	30.0262
20.36	29.9813
20.378	29.9439
20.396	29.9133
20.414	29.8917
20.432	29.8792
20.45	29.8757
20.468	29.8817
20.486	29.8965
20.504	29.9194
20.522	29.9505
20.54	29.9878
20.558	30.0316
20.576	30.0799
20.594	30.1321
20.612	30.1876
20.63	30.2448
20.648	30.3041
20.666	30.3635
20.684	30.4232
20.702	30.4823
20.72	30.5403
20.738	30.5971
20.756	30.6513
20.774	30.7033
20.792	30.7515
20.81	30.7959
20.828	30.8354
20.846	30.8684
20.864	30.8953
20.882	30.9135
20.9	30.9236
20.918	30.9238
20.936	30.9128
20.954	30.891
20.972	30.8566
20.99	30.8099
21.008	30.7508
21.026	30.6788
21.044	30.5949
21.062	30.5004
21.08	30.3948
21.098	30.2812
21.116	30.1599
21.134	30.0324
21.152	29.9026
21.17	29.7693
21.188	29.6369
21.206	29.5058
21.224	29.3772
21.242	29.2541
21.26	29.1356
21.278	29.0237
21.296	28.9189
21.314	28.8208
21.332	28.7299
21.35	28.6461
21.368	28.5684
21.386	28.4968
21.404	28.4307
21.422	28.3687
21.44	28.3113
21.458	28.2571
21.476	28.2056
21.494	28.1569
21.512	28.1106
21.53	28.0665
21.548	28.0249
21.566	27.9858
21.584	27.9492
21.602	27.9163
21.62	27.887
21.638	27.8617
21.656	27.8412
21.674	27.8252
21.692	27.8144
21.71	27.8092
21.728	27.8092
21.746	27.8141
21.764	27.8244
21.782	27.839
21.8	27.8574
21.818	27.8798
21.836	27.904
21.854	27.9304
21.872	27.9579
21.89	27.9844
21.908	28.0106
21.926	28.0349
21.944	28.0559
21.962	28.0742
21.98	28.088
21.998	28.0971
22.016	28.1014
22.034	28.1002
22.052	28.0936
22.07	28.0817
22.088	28.0643
22.106	28.0414
22.124	28.0137
22.142	27.9811
22.16	27.9438
22.178	27.9028
22.196	27.8577
22.214	27.8091
22.232	27.7579
22.25	27.7036
22.268	27.6472
22.286	27.5891
22.304	27.5291
22.322	27.4681
22.34	27.4063
22.358	27.3438
22.376	27.2814
22.394	27.2188
22.412	27.1565
22.43	27.095
22.448	27.034
22.466	26.9742
22.484	26.916
22.502	26.8591
22.52	26.8044
22.538	26.7522
22.556	26.7024
22.574	26.6555
22.592	26.6116
22.61	26.5708
22.628	26.5335
22.646	26.4997
22.664	26.4693
22.682	26.4421
22.7	26.4183
22.718	26.3976
22.736	26.3796
22.754	26.3645
22.772	26.352
22.79	26.3419
22.808	26.3343
22.826	26.329
22.844	26.326
22.862	26.3254
22.88	26.3267
22.898	26.3297
22.916	26.3345
22.934	26.3406
22.952	26.3479
22.97	26.3565
22.988	26.3659
23.006	26.3762
23.024	26.3873
23.042	26.3989
23.06	26.411
23.078	26.4236
23.096	26.4358
23.114	26.4478
23.132	26.4594
23.15	26.4701
23.168	26.4799
23.186	26.4887
23.204	26.4959
23.222	26.5013
23.24	26.5053
23.258	26.5075
23.276	26.508
23.294	26.5068
23.312	26.5042
23.33	26.4998
23.348	26.4941
23.366	26.4881
23.384	26.4812
23.402	26.4741
23.42	26.4682
23.438	26.4633
23.456	26.4596
23.474	26.4589
23.492	26.4611
23.51	26.4661
23.528	26.4755
23.546	26.4901
23.564	26.5092
23.582	26.5331
23.6	26.5621
23.618	26.5961
23.636	26.6342
23.654	26.6765
23.672	26.7236
23.69	26.772
23.708	26.8198
23.726	26.8694
23.744	26.9155
23.762	26.9539
23.78	26.9881
23.798	27.0134
23.816	27.0246
23.834	27.0242
23.852	27.0103
23.87	26.9787
23.888	26.9305
23.906	26.8654
23.924	26.7808
23.942	26.6757
23.96	26.5516
23.978	26.4086
23.996	26.2454
24.014	26.0623
24.032	25.8655
24.05	25.6579
24.068	25.435
24.086	25.2067
24.104	24.9816
24.122	24.7525
24.14	24.5276
24.158	24.3187
24.176	24.121
24.194	23.9375
24.212	23.7794
24.23	23.6486
24.248	23.5419
24.266	23.4653
24.284	23.4229
24.302	23.4119
24.32	23.4327
24.338	23.4864
24.356	23.5738
24.374	23.6921
24.392	23.8379
24.41	24.0138
24.428	24.2175
24.446	24.4416
24.464	24.6839
24.482	24.9478
24.5	25.2255
24.518	25.5104
24.536	25.8083
24.554	26.113
24.572	26.4156
24.59	26.7194
24.608	27.023
24.626	27.3169
24.644	27.5971
24.662	27.8686
24.68	28.1248
24.698	28.3596
24.716	28.5771
24.734	28.7745
24.752	28.9464
24.77	29.0914
24.788	29.2118
24.806	29.3067
24.824	29.3748
24.842	29.415
24.86	29.4317
24.878	29.4297
24.896	29.4058
24.914	29.362
24.932	29.3057
24.95	29.2399
24.968	29.1595
24.986	29.073
25.004	28.9895
25.022	28.9053
25.04	28.8214
25.058	28.7438
25.076	28.6764
25.094	28.6162
25.112	28.5626
25.13	28.5151
25.148	28.4752
25.166	28.4412
25.184	28.4104
25.202	28.3822
25.22	28.3591
25.238	28.3355
25.256	28.306
25.274	28.2688
25.292	28.2278
25.31	28.1866
25.328	28.1451
25.346	28.0978
25.364	28.0573
25.382	28.0375
25.4	28.028
25.418	28.0324
25.436	28.0757
25.454	28.1752
25.472	28.3089
25.49	28.4974
25.508	28.7696
25.526	29.1297
25.544	29.5634
25.562	30.0928
25.58	30.739
25.598	31.4948
25.616	32.3574
25.634	33.3329
25.652	34.429
25.67	35.6476
25.688	36.9718
25.706	38.3833
25.724	39.8928
25.742	41.5032
25.76	43.1732
25.778	44.8663
25.796	46.6204
25.814	48.4111
25.832	50.1807
25.85	51.8952
25.868	53.6041
25.886	55.2612
25.904	56.8073
25.922	58.2316
25.94	59.5674
25.958	60.772
25.976	61.802
25.994	62.6666
26.012	63.3761
26.03	63.9124
26.048	64.2586
26.066	64.4143
26.084	64.3931
26.102	64.208
26.12	63.8623
26.138	63.3357
26.156	62.6613
26.174	61.8781
26.192	60.9891
26.21	59.9648
26.228	58.8608
26.246	57.7355
26.264	56.5788
26.282	55.3693
26.3	54.1647
26.318	53.0214
26.336	51.9159
26.354	50.8425
26.372	49.8419
26.39	48.9516
26.408	48.153
26.426	47.4438
26.444	46.8397
26.462	46.3558
26.48	45.9918
26.498	45.7356
26.516	45.5758
26.534	45.5065
26.552	45.5467
26.57	45.6743
26.588	45.8602
26.606	46.0882
26.624	46.3871
26.642	46.7316
26.66	47.0895
26.678	47.4441
26.696	47.8231
26.714	48.2054
26.732	48.5647
26.75	48.8858
26.768	49.1861
26.786	49.4611
26.804	49.7043
26.822	49.91
26.84	50.0808
26.858	50.222
26.876	50.3388
26.894	50.4309
26.912	50.4911
26.93	50.5316
26.948	50.5661
26.966	50.6034
26.984	50.636
27.002	50.6624
27.02	50.6821
27.028	50.6879