File: Bakgrunnsmateriale/MATLAB/FTIR/ftir_data/subBb/Mapping_121/C-4040-8_t82.asc
PE IR       SPECTRUM    SPECTRUM    ASCII       PEDS        1.60
  -1
C-A542~1.ASC
17/03/27
21:12:38.00
17/03/27
21:13:04.00
tln
$C-4040-8_t0082$<tbV0>[2.6,5.2,8.0,0.0,27,1,0]
27.028
64

2002,4.07
MIRTGS : RIGHTBACK : INTERNAL 2
MIR : ON : INTERNAL 2
OPTKBR

0.200000
8
8.000000
FILLER
RATIO
SPECTRUM
UNLOCKED 256

DOUBLE
64
COMBINED
1
0
0

0.002000
RATIO

1
0
TRUE
51149
0
LEFT NOT FITTED RIGHT NOT FITTED 0
NONE
NONE
15600
12
4.427000
51148
TRUE
1 0 8 72 0 0 0 0

15798

#HDR
-1
-1
#GR
µM
%T
2.38419e-05
0.0
2.000000
0.002000
12515
8
91.2511
51.0507
#DATA
2.000000	 64.9535
2.018000	 65.4785
2.036000	 64.801
2.054000	 65.1471
2.072000	 65.461
2.090000	 65.523
2.108000	 65.5679
2.126000	 65.3503
2.144000	 65.3613
2.162000	 65.2255
2.180000	 64.8896
2.198000	 64.9231
2.216000	 64.4462
2.234000	 64.4082
2.252000	 64.5315
2.270000	 63.9523
2.288000	 68.8058
2.306000	 64.9968
2.324000	 64.7855
2.342000	 64.7511
2.360000	 65.2267
2.378000	 65.2751
2.396000	 64.1248
2.414000	 65.0816
2.432000	 64.9346
2.450000	 65.2804
2.468000	 65.2779
2.486000	 65.108
2.504000	 65.2477
2.522000	 65.1918
2.540000	 65.1249
2.558000	 65.4978
2.576000	 65.2436
2.594000	 64.9387
2.612000	 65.1894
2.630000	 65.1681
2.648000	 64.9534
2.666000	 65.3927
2.684000	 65.297
2.702000	 64.9701
2.720000	 65.2976
2.738000	 65.3409
2.756000	 65.1327
2.774000	 65.1865
2.792000	 64.9595
2.810000	 65.3045
2.828000	 65.1553
2.846000	 65.1409
2.864000	 65.2459
2.882000	 65.3247
2.900000	 65.2726
2.918000	 64.9942
2.936000	 64.827
2.954000	 65.3955
2.972000	 65.3038
2.990000	 65.12
3.008000	 65.1121
3.026000	 65.2658
3.044000	 65.1635
3.062000	 65.1849
3.080000	 65.1798
3.098000	 65.1282
3.116000	 65.3606
3.134000	 65.3425
3.152000	 65.128
3.170000	 65.2736
3.188000	 65.5683
3.206000	 65.2148
3.224000	 65.1138
3.242000	 65.1927
3.260000	 65.4578
3.278000	 65.3401
3.296000	 65.1807
3.314000	 65.0783
3.332000	 65.046
3.350000	 65.2362
3.368000	 65.1122
3.386000	 65.0767
3.404000	 65.115
3.422000	 64.788
3.440000	 64.9954
3.458000	 65.2885
3.476000	 65.0681
3.494000	 65.3543
3.512000	 64.9915
3.530000	 65.2309
3.548000	 65.3397
3.566000	 65.3486
3.584000	 65.3374
3.602000	 65.3182
3.620000	 65.3559
3.638000	 65.3289
3.656000	 65.2887
3.674000	 65.458
3.692000	 65.5132
3.710000	 65.2157
3.728000	 65.4571
3.746000	 65.3824
3.764000	 65.3298
3.782000	 65.3489
3.800000	 65.3368
3.818000	 65.3414
3.836000	 65.2245
3.854000	 65.2504
3.872000	 65.3254
3.890000	 65.3128
3.908000	 65.3009
3.926000	 65.3361
3.944000	 65.2216
3.962000	 65.3091
3.980000	 65.4338
3.998000	 65.3329
4.016000	 65.3542
4.034000	 65.3044
4.052000	 65.3092
4.070000	 65.3308
4.088000	 65.3717
4.106000	 65.4525
4.124000	 65.417
4.141999	 64.8727
4.160000	 65.5236
4.178000	 65.3139
4.196000	 65.4206
4.214000	 65.2479
4.232000	 65.3182
4.250000	 65.2745
4.268000	 65.3693
4.286000	 65.3705
4.304000	 65.3015
4.322000	 65.3743
4.340000	 65.3237
4.358000	 65.297
4.375999	 65.4
4.394000	 65.3347
4.412000	 65.3066
4.430000	 65.3007
4.448000	 65.3552
4.466000	 65.4507
4.484000	 65.4986
4.502000	 65.5425
4.520000	 65.429
4.538000	 65.272
4.556000	 65.3252
4.574000	 65.3149
4.592000	 65.2796
4.609999	 65.3939
4.628000	 65.1155
4.646000	 65.2953
4.664000	 65.287
4.682000	 65.1905
4.700000	 65.3815
4.718000	 65.3899
4.736000	 65.449
4.754000	 65.4918
4.772000	 65.4433
4.790000	 65.4308
4.808000	 65.6697
4.826000	 65.49
4.843999	 65.1957
4.862000	 65.6591
4.880000	 65.5972
4.898000	 65.4947
4.916000	 65.2712
4.934000	 65.2986
4.952000	 65.3366
4.970000	 65.5278
4.988000	 65.4783
5.006000	 65.3718
5.024000	 65.2453
5.042000	 65.2291
5.060000	 65.3365
5.077999	 65.375
5.096000	 65.355
5.114000	 65.411
5.132000	 65.3685
5.150000	 65.3044
5.168000	 65.2472
5.186000	 65.3954
5.204000	 65.4947
5.222000	 65.3925
5.240000	 65.408
5.258000	 65.4109
5.276000	 65.4185
5.294000	 65.407
5.312000	 65.2529
5.330000	 65.4239
5.348000	 65.5053
5.366000	 65.4648
5.384000	 65.4048
5.402000	 65.3551
5.420000	 65.3426
5.438000	 65.3703
5.456000	 65.3594
5.474000	 65.4775
5.492000	 65.5919
5.510000	 65.5873
5.528000	 65.3873
5.546000	 65.3126
5.564000	 65.2973
5.582000	 65.1535
5.600000	 65.2304
5.618000	 65.3587
5.636000	 65.2905
5.654000	 65.3568
5.672000	 65.4173
5.690000	 65.3295
5.708000	 65.3244
5.726000	 65.2677
5.744000	 65.2304
5.762000	 65.204
5.780000	 65.1761
5.798000	 65.1678
5.816000	 65.1573
5.834000	 65.4668
5.852000	 65.4735
5.870000	 65.243
5.888000	 65.3053
5.906000	 65.4258
5.923999	 65.3796
5.942000	 65.3368
5.960000	 65.3336
5.978000	 65.3558
5.996000	 65.3756
6.014000	 65.4124
6.032000	 65.4402
6.050000	 65.4888
6.068000	 65.3912
6.086000	 65.2435
6.104000	 65.1299
6.122000	 65.1657
6.140000	 65.1597
6.158000	 65.1226
6.176000	 65.2574
6.194000	 65.3038
6.212000	 65.2329
6.230000	 65.1093
6.248000	 65.0785
6.266000	 65.1025
6.284000	 65.1648
6.302000	 65.1811
6.320000	 65.0614
6.338000	 65.0381
6.356000	 65.1128
6.374000	 65.1691
6.392000	 65.2033
6.410000	 65.0928
6.428000	 64.9806
6.446000	 65.0854
6.464000	 65.1314
6.482000	 65.0933
6.500000	 65.1372
6.518000	 65.1669
6.536000	 65.1469
6.554000	 65.2021
6.572000	 65.3241
6.590000	 65.2929
6.608000	 65.1668
6.626000	 65.1249
6.644000	 65.1411
6.662000	 65.1887
6.680000	 65.193
6.698000	 65.1774
6.716000	 65.1948
6.734000	 65.1905
6.752000	 65.1977
6.770000	 65.2321
6.788000	 65.2378
6.806000	 65.2246
6.824000	 65.2456
6.842000	 65.2075
6.860000	 65.0546
6.878000	 64.8763
6.896000	 64.8299
6.914000	 65.0137
6.932000	 65.2483
6.950000	 65.3959
6.968000	 65.4499
6.986000	 65.3924
7.004000	 65.3007
7.022000	 65.2519
7.040000	 65.2814
7.058000	 65.3503
7.076000	 65.3255
7.094000	 65.2127
7.112000	 65.1162
7.130000	 65.0558
7.148000	 65.0691
7.166000	 65.1473
7.184000	 65.157
7.202000	 65.0927
7.220000	 65.0736
7.238000	 65.0976
7.256000	 65.1174
7.274000	 65.1406
7.292000	 65.1295
7.310000	 65.0532
7.328000	 65.0067
7.346000	 65.063
7.364000	 65.1226
7.382000	 65.0833
7.400000	 65.0043
7.418000	 64.9858
7.436000	 65.0608
7.454000	 65.207
7.472000	 65.3429
7.490000	 65.3707
7.508000	 65.2926
7.526000	 65.2166
7.544000	 65.2022
7.562000	 65.1909
7.580000	 65.1316
7.598000	 65.0602
7.616000	 65.024
7.634000	 65.0412
7.652000	 65.1087
7.670000	 65.1881
7.688000	 65.2259
7.706000	 65.2223
7.724000	 65.2304
7.742000	 65.2673
7.760000	 65.2828
7.778000	 65.2518
7.796000	 65.2231
7.814000	 65.2207
7.832000	 65.1934
7.850000	 65.1211
7.868000	 65.0662
7.886000	 65.0736
7.904000	 65.1165
7.922000	 65.1514
7.940000	 65.1535
7.958000	 65.1194
7.976000	 65.0793
7.994000	 65.0706
8.012000	 65.0865
8.030000	 65.0933
8.048000	 65.0847
8.065999	 65.0809
8.084000	 65.0906
8.102000	 65.0965
8.120000	 65.0779
8.138000	 65.0371
8.155999	 65.001
8.173999	 64.9849
8.192000	 64.9754
8.210000	 64.9678
8.228000	 64.9952
8.246000	 65.0808
8.263999	 65.1831
8.282000	 65.2248
8.300000	 65.1809
8.318000	 65.0969
8.336000	 65.0324
8.353999	 65.0065
8.372000	 65.0009
8.390000	 64.9878
8.408000	 64.958
8.426000	 64.9324
8.443999	 64.9421
8.462000	 64.9841
8.480000	 65.0111
8.498000	 64.9769
8.516000	 64.8835
8.533999	 64.7784
8.552000	 64.7176
8.570000	 64.7351
8.588000	 64.8226
8.606000	 64.9358
8.624000	 65.0311
8.641999	 65.0994
8.660000	 65.1482
8.678000	 65.1673
8.696000	 65.1354
8.714000	 65.0619
8.731999	 64.9913
8.750000	 64.9571
8.768000	 64.9512
8.786000	 64.9482
8.804000	 64.9465
8.821999	 64.9712
8.840000	 65.039
8.858000	 65.1267
8.876000	 65.1787
8.894000	 65.1503
8.911999	 65.0516
8.930000	 64.9433
8.948000	 64.88
8.966000	 64.8596
8.984000	 64.8375
9.001999	 64.7959
9.020000	 64.7759
9.038000	 64.8301
9.056000	 64.9472
9.074000	 65.0451
9.092000	 65.0442
9.109999	 64.9446
9.128000	 64.8196
9.146000	 64.7417
9.164000	 64.7212
9.182000	 64.7204
9.199999	 64.7142
9.218000	 64.7209
9.236000	 64.7727
9.254000	 64.8677
9.272000	 64.9602
9.289999	 64.9984
9.308000	 64.9633
9.326000	 64.8765
9.344000	 64.7807
9.362000	 64.7116
9.379999	 64.6818
9.398000	 64.6816
9.416000	 64.6901
9.434000	 64.6878
9.452000	 64.6655
9.469999	 64.6314
9.488000	 64.6112
9.506000	 64.6312
9.524000	 64.6963
9.542000	 64.78
9.560000	 64.8431
9.577999	 64.866
9.596000	 64.8662
9.614000	 64.8744
9.632000	 64.9003
9.650000	 64.9211
9.667999	 64.9058
9.686000	 64.8417
9.704000	 64.7408
9.722000	 64.6271
9.740000	 64.5191
9.757999	 64.4248
9.776000	 64.3495
9.794000	 64.3057
9.812000	 64.3111
9.830000	 64.3768
9.847999	 64.493
9.866000	 64.6278
9.884000	 64.7422
9.902000	 64.8106
9.920000	 64.8321
9.937999	 64.8213
9.956000	 64.7886
9.974000	 64.7345
9.992000	 64.6607
10.01	64.5853
10.028	64.5376
10.046	64.5393
10.064	64.5872
10.082	64.6559
10.1	64.7171
10.118	64.7628
10.136	64.8068
10.154	64.8628
10.172	64.9236
10.19	64.9555
10.208	64.925
10.226	64.8319
10.244	64.7191
10.262	64.6523
10.28	64.6712
10.298	64.7573
10.316	64.8395
10.334	64.8493
10.352	64.7734
10.37	64.6678
10.388	64.6217
10.406	64.6915
10.424	64.8661
10.442	65.0705
10.46	65.2164
10.478	65.2446
10.496	65.1551
10.514	64.9937
10.532	64.8289
10.55	64.7198
10.568	64.7025
10.586	64.7797
10.604	64.9231
10.622	65.081
10.64	65.1981
10.658	65.2377
10.676	65.1968
10.694	65.1059
10.712	65.013
10.73	64.9553
10.748	64.9465
10.766	64.9717
10.784	65.0044
10.802	65.0215
10.82	65.0153
10.838	64.9885
10.856	64.9444
10.874	64.8818
10.892	64.7963
10.91	64.6883
10.928	64.5714
10.946	64.4719
10.964	64.4167
10.982	64.4235
11	64.4923
11.018	64.6056
11.036	64.7368
11.054	64.8582
11.072	64.9503
11.09	65.0012
11.108	65.0093
11.126	64.9812
11.144	64.9289
11.162	64.8694
11.18	64.8187
11.198	64.7889
11.216	64.7839
11.234	64.7999
11.252	64.8267
11.27	64.8527
11.288	64.8653
11.306	64.8564
11.324	64.8224
11.342	64.7657
11.36	64.6958
11.378	64.6276
11.396	64.5769
11.414	64.5565
11.432	64.5708
11.45	64.6129
11.468	64.6658
11.486	64.7103
11.504	64.7301
11.522	64.7173
11.54	64.6743
11.558	64.6116
11.576	64.5442
11.594	64.4847
11.612	64.4429
11.63	64.4226
11.648	64.4231
11.666	64.4401
11.684	64.4687
11.702	64.504
11.72	64.5417
11.738	64.5788
11.756	64.6139
11.774	64.6464
11.792	64.6758
11.81	64.7022
11.828	64.7258
11.846	64.7469
11.864	64.7656
11.882	64.7814
11.9	64.7925
11.918	64.7965
11.936	64.7905
11.954	64.7732
11.972	64.7453
11.99	64.7102
12.008	64.6729
12.026	64.6381
12.044	64.6092
12.062	64.5861
12.08	64.5662
12.098	64.5458
12.116	64.5231
12.134	64.5006
12.152	64.4832
12.17	64.4764
12.188	64.4836
12.206	64.503
12.224	64.5288
12.242	64.5535
12.26	64.5709
12.278	64.5785
12.296	64.5779
12.314	64.5743
12.332	64.5732
12.35	64.5788
12.368	64.5925
12.386	64.6122
12.404	64.6325
12.422	64.6461
12.44	64.6465
12.458	64.628
12.476	64.5871
12.494	64.5241
12.512	64.4428
12.53	64.3508
12.548	64.2585
12.566	64.1773
12.584	64.1175
12.602	64.0861
12.62	64.0847
12.638	64.1093
12.656	64.1512
12.674	64.1991
12.692	64.2422
12.71	64.2725
12.728	64.2863
12.746	64.2845
12.764	64.2724
12.782	64.2575
12.8	64.2478
12.818	64.249
12.836	64.2643
12.854	64.2929
12.872	64.3316
12.89	64.3748
12.908	64.4164
12.926	64.4506
12.944	64.4731
12.962	64.4819
12.98	64.4774
12.998	64.462
13.016	64.4391
13.034	64.4126
13.052	64.3868
13.07	64.3653
13.088	64.3516
13.106	64.3481
13.124	64.3569
13.142	64.3788
13.16	64.4131
13.178	64.4568
13.196	64.5051
13.214	64.5513
13.232	64.5882
13.25	64.6089
13.268	64.6083
13.286	64.5836
13.304	64.5351
13.322	64.4655
13.34	64.3799
13.358	64.2837
13.376	64.1817
13.394	64.0778
13.412	63.9745
13.43	63.8736
13.448	63.7769
13.466	63.6862
13.484	63.6043
13.502	63.5352
13.52	63.4829
13.538	63.4504
13.556	63.4392
13.574	63.4489
13.592	63.4769
13.61	63.5181
13.628	63.5662
13.646	63.6143
13.664	63.6569
13.682	63.6896
13.7	63.711
13.718	63.7223
13.736	63.7275
13.754	63.7321
13.772	63.7422
13.79	63.7634
13.808	63.7993
13.826	63.8511
13.844	63.9172
13.862	63.9935
13.88	64.0739
13.898	64.1514
13.916	64.2191
13.934	64.2707
13.952	64.3016
13.97	64.309
13.988	64.2921
14.006	64.2515
14.024	64.1891
14.042	64.1079
14.06	64.0124
14.078	63.9076
14.096	63.7992
14.114	63.6935
14.132	63.5971
14.15	63.5167
14.168	63.4577
14.186	63.4242
14.204	63.4179
14.222	63.4381
14.24	63.4811
14.258	63.5415
14.276	63.612
14.294	63.6852
14.312	63.7539
14.33	63.8123
14.348	63.8559
14.366	63.8824
14.384	63.8912
14.402	63.8831
14.42	63.8597
14.438	63.8228
14.456	63.7744
14.474	63.7167
14.492	63.6525
14.51	63.5852
14.528	63.5184
14.546	63.4564
14.564	63.4038
14.582	63.3647
14.6	63.3423
14.618	63.3385
14.636	63.3528
14.654	63.3825
14.672	63.4229
14.69	63.4687
14.708	63.5141
14.726	63.5532
14.744	63.582
14.762	63.5989
14.78	63.605
14.798	63.6032
14.816	63.5981
14.834	63.5951
14.852	63.6
14.87	63.6157
14.888	63.6433
14.906	63.6815
14.924	63.7263
14.942	63.7713
14.96	63.8085
14.978	63.8314
14.996	63.8347
15.014	63.8143
15.032	63.7694
15.05	63.7023
15.068	63.6176
15.086	63.5212
15.104	63.4203
15.122	63.323
15.14	63.2358
15.158	63.1636
15.176	63.1098
15.194	63.0766
15.212	63.0642
15.23	63.0711
15.248	63.0955
15.266	63.1344
15.284	63.1839
15.302	63.24
15.32	63.2989
15.338	63.3566
15.356	63.409
15.374	63.4515
15.392	63.481
15.41	63.4947
15.428	63.4907
15.446	63.4681
15.464	63.4278
15.482	63.3714
15.5	63.3011
15.518	63.2212
15.536	63.1353
15.554	63.0471
15.572	62.9605
15.59	62.8796
15.608	62.8068
15.626	62.7442
15.644	62.6936
15.662	62.6563
15.68	62.6327
15.698	62.6235
15.716	62.6286
15.734	62.6478
15.752	62.6803
15.77	62.7249
15.788	62.7795
15.806	62.8411
15.824	62.9069
15.842	62.9734
15.86	63.0359
15.878	63.0911
15.896	63.1355
15.914	63.165
15.932	63.1783
15.95	63.1742
15.968	63.1526
15.986	63.1149
16.004	63.0631
16.022	62.9993
16.04	62.9276
16.058	62.8511
16.076	62.7726
16.094	62.6959
16.112	62.6237
16.13	62.5581
16.148	62.5013
16.166	62.4551
16.184	62.42
16.202	62.3969
16.22	62.3859
16.238	62.3863
16.256	62.3976
16.274	62.4182
16.292	62.4458
16.31	62.4787
16.328	62.5135
16.346	62.5474
16.364	62.5781
16.382	62.6027
16.4	62.6198
16.418	62.6283
16.436	62.6283
16.454	62.6211
16.472	62.6077
16.49	62.5915
16.508	62.5752
16.526	62.5609
16.544	62.5524
16.562	62.5512
16.58	62.5586
16.598	62.5753
16.616	62.6003
16.634	62.6328
16.652	62.6699
16.67	62.7094
16.688	62.7489
16.706	62.7853
16.724	62.8175
16.742	62.844
16.76	62.8645
16.778	62.8793
16.796	62.8895
16.814	62.8973
16.832	62.904
16.85	62.9127
16.868	62.9249
16.886	62.9422
16.904	62.9657
16.922	62.9954
16.94	63.0314
16.958	63.0716
16.976	63.1151
16.994	63.1592
17.012	63.2015
17.03	63.2399
17.048	63.2709
17.066	63.2933
17.084	63.3046
17.102	63.304
17.12	63.291
17.138	63.2657
17.156	63.2296
17.174	63.1835
17.192	63.1309
17.21	63.0733
17.228	63.0145
17.246	62.9578
17.264	62.9054
17.282	62.8616
17.3	62.8278
17.318	62.8068
17.336	62.7992
17.354	62.8057
17.372	62.826
17.39	62.859
17.408	62.903
17.426	62.9551
17.444	63.0136
17.462	63.0734
17.48	63.1329
17.498	63.1875
17.516	63.2348
17.534	63.2724
17.552	63.2974
17.57	63.3092
17.588	63.3064
17.606	63.2895
17.624	63.2587
17.642	63.2161
17.66	63.1624
17.678	63.1012
17.696	63.0336
17.714	62.9633
17.732	62.8925
17.75	62.8235
17.768	62.7594
17.786	62.7012
17.804	62.6516
17.822	62.611
17.84	62.5809
17.858	62.5613
17.876	62.5525
17.894	62.5538
17.912	62.5651
17.93	62.5846
17.948	62.612
17.966	62.645
17.984	62.6829
18.002	62.7234
18.02	62.7648
18.038	62.8058
18.056	62.8438
18.074	62.8779
18.092	62.9054
18.11	62.926
18.128	62.9375
18.146	62.9398
18.164	62.9315
18.182	62.9128
18.2	62.8833
18.218	62.8439
18.236	62.7945
18.254	62.7369
18.272	62.6715
18.29	62.601
18.308	62.5259
18.326	62.4493
18.344	62.3719
18.362	62.2969
18.38	62.225
18.398	62.1589
18.416	62.0992
18.434	62.0476
18.452	62.0047
18.47	61.9711
18.488	61.9466
18.506	61.9313
18.524	61.924
18.542	61.9246
18.56	61.9309
18.578	61.9426
18.596	61.9573
18.614	61.975
18.632	61.9934
18.65	62.0124
18.668	62.0309
18.686	62.0488
18.704	62.0659
18.722	62.0822
18.74	62.0984
18.758	62.1146
18.776	62.1319
18.794	62.1502
18.812	62.1707
18.83	62.1931
18.848	62.218
18.866	62.2449
18.884	62.2735
18.902	62.3029
18.92	62.3321
18.938	62.3599
18.956	62.3846
18.974	62.4053
18.992	62.4202
19.01	62.4287
19.028	62.429
19.046	62.4212
19.064	62.4044
19.082	62.379
19.1	62.3452
19.118	62.304
19.136	62.2566
19.154	62.2039
19.172	62.1483
19.19	62.0905
19.208	62.0335
19.226	61.9775
19.244	61.9253
19.262	61.877
19.28	61.8346
19.298	61.7981
19.316	61.7688
19.334	61.7463
19.352	61.7311
19.37	61.7229
19.388	61.7212
19.406	61.7262
19.424	61.7366
19.442	61.7526
19.46	61.7726
19.478	61.7966
19.496	61.8234
19.514	61.8525
19.532	61.8829
19.55	61.9141
19.568	61.9453
19.586	61.9758
19.604	62.0051
19.622	62.032
19.64	62.0566
19.658	62.0778
19.676	62.0956
19.694	62.1089
19.712	62.1179
19.73	62.1223
19.748	62.1219
19.766	62.1171
19.784	62.1078
19.802	62.0949
19.82	62.0787
19.838	62.06
19.856	62.0397
19.874	62.0182
19.892	61.9975
19.91	61.9774
19.928	61.9604
19.946	61.9464
19.964	61.9372
19.982	61.933
20	61.9344
20.018	61.9421
20.036	61.9555
20.054	61.9748
20.072	61.9996
20.09	62.0285
20.108	62.0617
20.126	62.0962
20.144	62.1326
20.162	62.1677
20.18	62.2007
20.198	62.2303
20.216	62.2539
20.234	62.2718
20.252	62.2814
20.27	62.2831
20.288	62.2757
20.306	62.2589
20.324	62.2333
20.342	62.1989
20.36	62.1565
20.378	62.108
20.396	62.053
20.414	61.9953
20.432	61.9342
20.45	61.8733
20.468	61.8136
20.486	61.7564
20.504	61.7048
20.522	61.6582
20.54	61.6192
20.558	61.5879
20.576	61.5648
20.594	61.5504
20.612	61.5444
20.63	61.5466
20.648	61.5572
20.666	61.5739
20.684	61.5974
20.702	61.6251
20.72	61.656
20.738	61.6895
20.756	61.7221
20.774	61.7546
20.792	61.7839
20.81	61.8098
20.828	61.8311
20.846	61.8456
20.864	61.854
20.882	61.8543
20.9	61.8466
20.918	61.8304
20.936	61.8051
20.954	61.7708
20.972	61.7276
20.99	61.6752
21.008	61.6144
21.026	61.5454
21.044	61.4687
21.062	61.3857
21.08	61.2961
21.098	61.2021
21.116	61.1038
21.134	61.0022
21.152	60.8995
21.17	60.795
21.188	60.6914
21.206	60.5891
21.224	60.489
21.242	60.3934
21.26	60.3015
21.278	60.2156
21.296	60.1359
21.314	60.0625
21.332	59.9968
21.35	59.9383
21.368	59.8871
21.386	59.8434
21.404	59.8068
21.422	59.7767
21.44	59.7535
21.458	59.7352
21.476	59.7211
21.494	59.7112
21.512	59.7033
21.53	59.6978
21.548	59.6937
21.566	59.6896
21.584	59.6861
21.602	59.6832
21.62	59.6807
21.638	59.679
21.656	59.6781
21.674	59.6778
21.692	59.6803
21.71	59.6856
21.728	59.6946
21.746	59.7104
21.764	59.7317
21.782	59.7616
21.8	59.8022
21.818	59.8526
21.836	59.9155
21.854	59.9914
21.872	60.08
21.89	60.1822
21.908	60.2983
21.926	60.4266
21.944	60.5669
21.962	60.7193
21.98	60.8789
21.998	61.0468
22.016	61.2205
22.034	61.3946
22.052	61.5718
22.07	61.7459
22.088	61.9126
22.106	62.0741
22.124	62.2227
22.142	62.3573
22.16	62.4778
22.178	62.5776
22.196	62.6578
22.214	62.717
22.232	62.7523
22.25	62.7647
22.268	62.754
22.286	62.7193
22.304	62.6612
22.322	62.5823
22.34	62.4818
22.358	62.3614
22.376	62.226
22.394	62.0737
22.412	61.9083
22.43	61.7352
22.448	61.5515
22.466	61.3633
22.484	61.1751
22.502	60.9842
22.52	60.7971
22.538	60.6163
22.556	60.4404
22.574	60.2745
22.592	60.1194
22.61	59.9747
22.628	59.8424
22.646	59.7228
22.664	59.6152
22.682	59.5192
22.7	59.436
22.718	59.3628
22.736	59.2969
22.754	59.2403
22.772	59.1888
22.79	59.1391
22.808	59.0936
22.826	59.0466
22.844	58.9951
22.862	58.9414
22.88	58.8789
22.898	58.8047
22.916	58.7211
22.934	58.6225
22.952	58.5074
22.97	58.3771
22.988	58.2286
23.006	58.0607
23.024	57.8747
23.042	57.6718
23.06	57.4509
23.078	57.2135
23.096	56.9637
23.114	56.6997
23.132	56.424
23.15	56.1444
23.168	55.8591
23.186	55.5705
23.204	55.2874
23.222	55.0076
23.24	54.7337
23.258	54.476
23.276	54.2326
23.294	54.0051
23.312	53.8023
23.33	53.623
23.348	53.4678
23.366	53.3437
23.384	53.2507
23.402	53.1881
23.42	53.1588
23.438	53.1634
23.456	53.2008
23.474	53.2706
23.492	53.3739
23.51	53.5094
23.528	53.6732
23.546	53.8653
23.564	54.0859
23.582	54.3285
23.6	54.5917
23.618	54.8771
23.636	55.1778
23.654	55.4911
23.672	55.8202
23.69	56.1558
23.708	56.4924
23.726	56.8355
23.744	57.1749
23.762	57.5017
23.78	57.8229
23.798	58.1295
23.816	58.4111
23.834	58.6735
23.852	58.9113
23.87	59.1147
23.888	59.2872
23.906	59.4264
23.924	59.5238
23.942	59.5791
23.96	59.5938
23.978	59.5632
23.996	59.4846
24.014	59.3604
24.032	59.1919
24.05	58.979
24.068	58.7198
24.086	58.4221
24.104	58.0923
24.122	57.723
24.14	57.3251
24.158	56.913
24.176	56.4785
24.194	56.0288
24.212	55.5837
24.23	55.1436
24.248	54.7047
24.266	54.2866
24.284	53.8997
24.302	53.5331
24.32	53.2015
24.338	52.9188
24.356	52.6758
24.374	52.4796
24.392	52.3428
24.41	52.2652
24.428	52.2441
24.446	52.2835
24.464	52.3868
24.482	52.5519
24.5	52.7745
24.518	53.0521
24.536	53.3909
24.554	53.7798
24.572	54.205
24.59	54.6747
24.608	55.1834
24.626	55.7089
24.644	56.2438
24.662	56.8003
24.68	57.3552
24.698	57.888
24.716	58.4145
24.734	58.9216
24.752	59.3854
24.77	59.8043
24.788	60.1853
24.806	60.5133
24.824	60.7774
24.842	60.9852
24.86	61.1344
24.878	61.2208
24.896	61.2398
24.914	61.1976
24.932	61.1042
24.95	60.9619
24.968	60.7628
24.986	60.5254
25.004	60.2689
25.022	59.9786
25.04	59.6648
25.058	59.3548
25.076	59.0586
25.094	58.76
25.112	58.4824
25.13	58.2497
25.148	58.0484
25.166	57.8843
25.184	57.779
25.202	57.7427
25.22	57.763
25.238	57.8497
25.256	58.0135
25.274	58.2512
25.292	58.5615
25.31	58.9488
25.328	59.4164
25.346	59.9624
25.364	60.584
25.382	61.2787
25.4	62.0496
25.418	62.8945
25.436	63.8049
25.454	64.7753
25.472	65.8142
25.49	66.9113
25.508	68.0529
25.526	69.2395
25.544	70.477
25.562	71.7472
25.58	73.0334
25.598	74.3503
25.616	75.6888
25.634	77.026
25.652	78.3507
25.67	79.6835
25.688	80.9992
25.706	82.2676
25.724	83.4935
25.742	84.6869
25.76	85.8142
25.778	86.845
25.796	87.8032
25.814	88.6782
25.832	89.4373
25.85	90.06
25.868	90.5714
25.886	90.9538
25.904	91.183
25.922	91.2511
25.94	91.1724
25.958	90.9394
25.976	90.5446
25.994	89.9825
26.012	89.2614
26.03	88.3929
26.048	87.3857
26.066	86.222
26.084	84.9199
26.102	83.5084
26.12	82.0022
26.138	80.3711
26.156	78.65
26.174	76.8818
26.192	75.0733
26.21	73.1933
26.228	71.2916
26.246	69.4205
26.264	67.5719
26.282	65.7257
26.3	63.9319
26.318	62.2391
26.336	60.6268
26.354	59.09
26.372	57.6636
26.39	56.3799
26.408	55.2207
26.426	54.1858
26.444	53.2918
26.462	52.5531
26.48	51.9611
26.498	51.5139
26.516	51.214
26.534	51.0655
26.552	51.0743
26.57	51.2262
26.588	51.5042
26.606	51.9015
26.624	52.4401
26.642	53.0929
26.66	53.8269
26.678	54.6278
26.696	55.5276
26.714	56.4941
26.732	57.4885
26.75	58.496
26.768	59.552
26.786	60.6214
26.804	61.6634
26.822	62.6592
26.84	63.6411
26.858	64.5873
26.876	65.472
26.894	66.2804
26.912	67.0301
26.93	67.7174
26.948	68.337
26.966	68.8922
26.984	69.3968
27.002	69.8256
27.02	70.1508
27.028	70.2437