File: Bakgrunnsmateriale/MATLAB/FTIR/ftir_data/subBb/Mapping_121/C-4040-8_t43_cm-1.asc
PE IR       SPECTRUM    SPECTRUM    ASCII       PEDS        1.60
  -1
C-9BE1~1.ASC
17/03/27
17:57:44.00
17/03/27
17:57:44.00
tln
$C-4040-8_t0043$<tbV0>[-10.4,-5.2,8.0,0.0,27,1,0]
370
64

2002,4.07
MIRTGS : RIGHTBACK : INTERNAL 2
MIR : ON : INTERNAL 2
OPTKBR

0.200000
8
8.000000
FILLER
RATIO
SPECTRUM
UNLOCKED 256

DOUBLE
64
COMBINED
1
0
0

1.000000
RATIO

1
0
TRUE
51149
0
LEFT NOT FITTED RIGHT NOT FITTED 0
NONE
NONE
15600
12
4.427000
51148
TRUE
1 0 8 72 0 0 0 0

15798

#HDR
-1
-1
#GR
CM-1
%T
2.38419e-05
0.0
5000
-1.000000
4631
8
76.0872
41.0396
#DATA
5000	64.6763
4996	64.7057
4992	64.6941
4988	64.5427
4984	64.1686
4980	63.7967
4976	63.9345
4972	64.2449
4968	64.4926
4964	64.6633
4960	64.5245
4956	64.2864
4952	64.2302
4948	64.3363
4944	64.4353
4940	64.4915
4936	64.5446
4932	64.5435
4928	64.5222
4924	64.4732
4920	64.3888
4916	64.4049
4912	64.3463
4908	64.1464
4904	64.1644
4900	64.5944
4896	65.0409
4892	65.0929
4888	64.9295
4884	64.7628
4880	64.7786
4876	64.9312
4872	64.9474
4868	65.0156
4864	65.1699
4860	65.0373
4856	64.6642
4852	64.2908
4848	64.2233
4844	64.4726
4840	64.6411
4836	64.7172
4832	64.8465
4828	65.0342
4824	65.1386
4820	65.1483
4816	65.1543
4812	65.0657
4808	64.9481
4804	64.9272
4800	64.9574
4796	64.9516
4792	64.7802
4788	64.6313
4784	64.7174
4780	64.6433
4776	64.4784
4772	64.7073
4768	65.0941
4764	65.2037
4760	65.053
4756	64.9055
4752	64.8605
4748	64.9173
4744	65.0345
4740	65.0347
4736	65.0478
4732	65.1002
4728	64.9488
4724	64.8994
4720	65.0599
4716	65.0888
4712	65.011
4708	64.9491
4704	64.9108
4700	64.9551
4696	64.9944
4692	64.8528
4688	64.729
4684	64.8222
4680	64.9132
4676	64.8402
4672	64.7501
4668	64.711
4664	64.6907
4660	64.8333
4656	64.9682
4652	64.7597
4648	64.6027
4644	64.7163
4640	64.7392
4636	64.7751
4632	64.9336
4628	64.9261
4624	64.7498
4620	64.6294
4616	64.7168
4612	64.987
4608	65.1328
4604	65.1315
4600	65.1011
4596	65.0238
4592	64.994
4588	64.9811
4584	64.9841
4580	64.9225
4576	64.8834
4572	65.0282
4568	65.1362
4564	65.0875
4560	65.0164
4556	65.1683
4552	65.3766
4548	65.3039
4544	65.0076
4540	64.6784
4536	64.7358
4532	65.2138
4528	65.2915
4524	65.0776
4520	65.2559
4516	65.3006
4512	65.0051
4508	64.6964
4504	64.508
4500	64.6165
4496	64.7274
4492	64.617
4488	64.6168
4484	64.7626
4480	64.7317
4476	64.6555
4472	64.7342
4468	64.7527
4464	64.6567
4460	64.6881
4456	64.9273
4452	65.0376
4448	64.96
4444	64.9012
4440	64.9342
4436	64.9767
4432	64.7947
4428	64.718
4424	64.9661
4420	65.0621
4416	64.8569
4412	64.6453
4408	64.7277
4404	65.1701
4400	65.4926
4396	65.7008
4392	65.7496
4388	66.285
4384	65.7392
4380	64.2708
4376	65.9347
4372	66.8824
4368	65.7607
4364	69.169
4360	75.6021
4356	72.0501
4352	59.7296
4348	55.4591
4344	59.6909
4340	64.212
4336	65.7669
4332	65.4443
4328	65.549
4324	65.547
4320	65.2757
4316	65.157
4312	65.1983
4308	65.2639
4304	65.3488
4300	65.3711
4296	65.3262
4292	65.2177
4288	65.0369
4284	64.9099
4280	65.0054
4276	65.2184
4272	65.1308
4268	64.8777
4264	64.9145
4260	64.9579
4256	64.9422
4252	65.0661
4248	65.0503
4244	64.8958
4240	64.9123
4236	65.0143
4232	65.1428
4228	65.2678
4224	65.154
4220	65.0861
4216	65.1312
4212	64.9815
4208	64.9697
4204	65.0847
4200	64.9338
4196	64.7453
4192	64.7405
4188	65.0094
4184	65.26
4180	65.0658
4176	64.9841
4172	65.264
4168	65.4932
4164	65.5012
4160	65.1047
4156	64.6636
4152	64.8194
4148	65.3204
4144	65.5581
4140	65.4311
4136	65.245
4132	65.0842
4128	64.8712
4124	64.8603
4120	65.0788
4116	65.2281
4112	65.1591
4108	64.9579
4104	64.8739
4100	64.9048
4096	64.9342
4092	64.9719
4088	65.0078
4084	65.1597
4080	65.2878
4076	65.1486
4072	64.8959
4068	64.8495
4064	65.0428
4060	65.0714
4056	64.9154
4052	64.9122
4048	64.9087
4044	64.8101
4040	64.7807
4036	64.7445
4032	64.8206
4028	65.0363
4024	65.1161
4020	65.1457
4016	65.2977
4012	65.3551
4008	65.1793
4004	65.0782
4000	65.0787
3996	64.9287
3992	64.8182
3988	64.9463
3984	65.097
3980	65.1667
3976	65.2065
3972	65.1852
3968	65.0725
3964	64.8875
3960	64.8127
3956	64.8922
3952	64.9163
3948	64.8648
3944	64.9299
3940	65.0203
3936	64.9626
3932	64.8899
3928	64.9548
3924	65.1479
3920	65.2482
3916	65.1806
3912	65.119
3908	65.1381
3904	65.1857
3900	65.0784
3896	64.9125
3892	65.0087
3888	65.213
3884	65.3235
3880	65.4164
3876	65.3613
3872	65.0897
3868	64.8853
3864	64.8363
3860	64.9117
3856	65.1676
3852	65.3011
3848	65.195
3844	65.1541
3840	65.1271
3836	64.9664
3832	64.8813
3828	65.0622
3824	65.2944
3820	65.3946
3816	65.4136
3812	65.3123
3808	65.1867
3804	65.1291
3800	65.1031
3796	65.0771
3792	65.0013
3788	64.9077
3784	64.9022
3780	65.0248
3776	65.0835
3772	65.0171
3768	65.0364
3764	65.1842
3760	65.2926
3756	65.2716
3752	65.2349
3748	65.2074
3744	65.1578
3740	65.1788
3736	65.221
3732	65.2328
3728	65.2569
3724	65.2318
3720	65.2021
3716	65.2713
3712	65.3123
3708	65.1922
3704	65.1102
3700	65.1814
3696	65.1838
3692	65.1133
3688	65.1056
3684	65.1322
3680	65.1255
3676	65.0529
3672	65.009
3668	65.0242
3664	65.052
3660	65.1267
3656	65.1627
3652	65.1286
3648	65.2001
3644	65.2974
3640	65.252
3636	65.2141
3632	65.2285
3628	65.192
3624	65.127
3620	65.1531
3616	65.2649
3612	65.2193
3608	65.0879
3604	65.0916
3600	65.1216
3596	65.1196
3592	65.1152
3588	65.1669
3584	65.274
3580	65.265
3576	65.1608
3572	65.071
3568	64.9881
3564	64.9202
3560	64.9088
3556	65.0172
3552	65.1181
3548	65.1057
3544	65.0651
3540	65.0485
3536	65.0307
3532	64.993
3528	64.9951
3524	64.995
3520	65.0356
3516	65.1976
3512	65.2212
3508	65.101
3504	65.1227
3500	65.2764
3496	65.3767
3492	65.309
3488	65.2007
3484	65.2152
3480	65.2805
3476	65.3046
3472	65.3156
3468	65.3352
3464	65.243
3460	65.0667
3456	65.0422
3452	65.1488
3448	65.1856
3444	65.2719
3440	65.4385
3436	65.4054
3432	65.265
3428	65.1808
3424	65.1152
3420	65.1072
3416	65.093
3412	65.0418
3408	64.994
3404	64.9516
3400	64.9186
3396	64.941
3392	65.0288
3388	65.0937
3384	65.1198
3380	65.1284
3376	65.1163
3372	65.08
3368	65.0709
3364	65.0563
3360	65.0123
3356	65.1027
3352	65.2221
3348	65.1531
3344	65.0941
3340	65.1575
3336	65.1342
3332	65.0366
3328	65.0206
3324	65.1084
3320	65.2169
3316	65.2667
3312	65.2217
3308	65.1673
3304	65.2014
3300	65.2906
3296	65.3446
3292	65.2998
3288	65.2298
3284	65.1214
3280	64.9974
3276	65.0309
3272	65.1829
3268	65.3045
3264	65.2684
3260	65.1633
3256	65.1453
3252	65.1662
3248	65.2049
3244	65.2927
3240	65.35
3236	65.2697
3232	65.1118
3228	64.9071
3224	64.711
3220	64.6851
3216	64.8461
3212	65.0306
3208	65.045
3204	65.0222
3200	65.204
3196	65.3885
3192	65.3245
3188	65.1494
3184	65.1057
3180	65.2319
3176	65.2863
3172	65.1494
3168	65.0302
3164	65.0163
3160	65.0014
3156	64.971
3152	64.9929
3148	65.0157
3144	65.0058
3140	65.095
3136	65.2714
3132	65.2887
3128	65.1131
3124	65.0219
3120	65.1734
3116	65.5295
3112	65.7773
3108	65.6035
3104	65.2608
3100	65.0327
3096	65.0041
3092	65.1319
3088	65.1397
3084	65.0605
3080	65.1009
3076	65.1695
3072	65.1988
3068	65.2481
3064	65.2614
3060	65.1855
3056	65.089
3052	65.0405
3048	65.0923
3044	65.2193
3040	65.3484
3036	65.4594
3032	65.4447
3028	65.2969
3024	65.1682
3020	65.1018
3016	65.1233
3012	65.1936
3008	65.1489
3004	65.017
3000	64.9997
2996	65.0576
2992	65.0649
2988	65.0991
2984	65.145
2980	65.1262
2976	65.1303
2972	65.2143
2968	65.2237
2964	65.1105
2960	65.0785
2956	65.1173
2952	65.0936
2948	65.1018
2944	65.1257
2940	65.0588
2936	65.0084
2932	64.9353
2928	64.7657
2924	64.6946
2920	64.77
2916	64.7973
2912	64.8383
2908	65.0104
2904	65.1023
2900	65.1435
2896	65.1948
2892	65.1586
2888	65.1685
2884	65.183
2880	65.1287
2876	65.1466
2872	65.1973
2868	65.2139
2864	65.1443
2860	64.9603
2856	64.8638
2852	64.9863
2848	65.1514
2844	65.2735
2840	65.3811
2836	65.3025
2832	65.1238
2828	65.0657
2824	65.1084
2820	65.214
2816	65.2915
2812	65.3062
2808	65.3659
2804	65.3947
2800	65.2789
2796	65.2119
2792	65.3273
2788	65.4533
2784	65.4175
2780	65.289
2776	65.2099
2772	65.1792
2768	65.1869
2764	65.2118
2760	65.2797
2756	65.4013
2752	65.4593
2748	65.46
2744	65.4515
2740	65.402
2736	65.339
2732	65.3041
2728	65.2719
2724	65.2423
2720	65.2389
2716	65.2153
2712	65.2075
2708	65.2392
2704	65.2149
2700	65.1831
2696	65.2207
2692	65.2406
2688	65.1942
2684	65.1989
2680	65.261
2676	65.237
2672	65.1899
2668	65.1868
2664	65.1748
2660	65.1753
2656	65.1692
2652	65.1318
2648	65.1212
2644	65.1203
2640	65.0958
2636	65.1232
2632	65.1833
2628	65.1985
2624	65.2226
2620	65.2434
2616	65.2521
2612	65.2698
2608	65.2779
2604	65.3163
2600	65.3193
2596	65.2644
2592	65.2568
2588	65.2843
2584	65.254
2580	65.1831
2576	65.2045
2572	65.3358
2568	65.3735
2564	65.2707
2560	65.1861
2556	65.1845
2552	65.2119
2548	65.267
2544	65.3063
2540	65.2754
2536	65.2375
2532	65.2787
2528	65.4023
2524	65.4758
2520	65.414
2516	65.2735
2512	65.1572
2508	65.2193
2504	65.3968
2500	65.4007
2496	65.1723
2492	65.0246
2488	65.1454
2484	65.2758
2480	65.2629
2476	65.1907
2472	65.0827
2468	65.0146
2464	65.0605
2460	65.1701
2456	65.2766
2452	65.3152
2448	65.2719
2444	65.2382
2440	65.1208
2436	64.9233
2432	64.9045
2428	64.9016
2424	64.828
2420	65.1092
2416	65.4505
2412	65.2802
2408	65.0253
2404	65.1098
2400	65.2988
2396	65.3563
2392	65.3558
2388	65.3782
2384	65.3484
2380	65.2709
2376	65.2426
2372	65.2785
2368	65.3455
2364	65.3984
2360	65.3468
2356	65.1895
2352	65.1158
2348	65.1923
2344	65.2438
2340	65.2547
2336	65.2737
2332	65.2647
2328	65.2303
2324	65.1921
2320	65.2273
2316	65.3265
2312	65.3768
2308	65.353
2304	65.3134
2300	65.2902
2296	65.2713
2292	65.2716
2288	65.3259
2284	65.3628
2280	65.3113
2276	65.2582
2272	65.2389
2268	65.2542
2264	65.2882
2260	65.2533
2256	65.201
2252	65.1944
2248	65.2199
2244	65.2701
2240	65.2978
2236	65.3157
2232	65.3389
2228	65.2883
2224	65.1682
2220	65.1193
2216	65.1622
2212	65.1747
2208	65.2028
2204	65.3028
2200	65.3424
2196	65.3165
2192	65.3353
2188	65.399
2184	65.4509
2180	65.4331
2176	65.3741
2172	65.3143
2168	65.2236
2164	65.2003
2160	65.2878
2156	65.3175
2152	65.2401
2148	65.2338
2144	65.2825
2140	65.2679
2136	65.3421
2132	65.4416
2128	65.3844
2124	65.3232
2120	65.3218
2116	65.3044
2112	65.2877
2108	65.2764
2104	65.2491
2100	65.2042
2096	65.1981
2092	65.2918
2088	65.4135
2084	65.4356
2080	65.3042
2076	65.1363
2072	65.1134
2068	65.2538
2064	65.3733
2060	65.3522
2056	65.243
2052	65.095
2048	65.0523
2044	65.1512
2040	65.2334
2036	65.2727
2032	65.353
2028	65.4208
2024	65.3853
2020	65.3388
2016	65.3398
2012	65.3292
2008	65.3094
2004	65.3321
2000	65.3831
1996	65.409
1992	65.3811
1988	65.3295
1984	65.3137
1980	65.2978
1976	65.2566
1972	65.233
1968	65.2331
1964	65.2785
1960	65.3382
1956	65.3364
1952	65.2741
1948	65.208
1944	65.1634
1940	65.1403
1936	65.1856
1932	65.287
1928	65.3378
1924	65.3165
1920	65.3007
1916	65.317
1912	65.3181
1908	65.2869
1904	65.2614
1900	65.2693
1896	65.3033
1892	65.2846
1888	65.1954
1884	65.1723
1880	65.2228
1876	65.2352
1872	65.2315
1868	65.2211
1864	65.2238
1860	65.2587
1856	65.2436
1852	65.2096
1848	65.2472
1844	65.3126
1840	65.3387
1836	65.3559
1832	65.3426
1828	65.298
1824	65.2897
1820	65.2952
1816	65.273
1812	65.247
1808	65.1989
1804	65.1629
1800	65.2179
1796	65.2486
1792	65.2444
1788	65.2993
1784	65.3079
1780	65.2882
1776	65.2992
1772	65.2705
1768	65.2223
1764	65.2236
1760	65.245
1756	65.2368
1752	65.2385
1748	65.2138
1744	65.155
1740	65.1571
1736	65.1273
1732	65.0308
1728	64.993
1724	64.9856
1720	65.0165
1716	65.0789
1712	65.1387
1708	65.2776
1704	65.372
1700	65.3053
1696	65.1881
1692	65.1705
1688	65.2588
1684	65.2647
1680	65.1774
1676	65.1269
1672	65.1209
1668	65.1503
1664	65.1616
1660	65.1422
1656	65.1532
1652	65.1677
1648	65.158
1644	65.1664
1640	65.1862
1636	65.1881
1632	65.1877
1628	65.1707
1624	65.1333
1620	65.0955
1616	65.0662
1612	65.0796
1608	65.0961
1604	65.0133
1600	64.9733
1596	65.1025
1592	65.1974
1588	65.1548
1584	65.1105
1580	65.0939
1576	65.0663
1572	65.0789
1568	65.1069
1564	65.0845
1560	65.0674
1556	65.0878
1552	65.0978
1548	65.1121
1544	65.1109
1540	65.0742
1536	65.0967
1532	65.1734
1528	65.2313
1524	65.264
1520	65.2647
1516	65.2644
1512	65.3099
1508	65.3487
1504	65.2974
1500	65.1954
1496	65.1855
1492	65.254
1488	65.2967
1484	65.3106
1480	65.2297
1476	65.0488
1472	64.9096
1468	64.9026
1464	65.0121
1460	65.1565
1456	65.1081
1452	64.9815
1448	65.1087
1444	65.2229
1440	65.1496
1436	65.1186
1432	65.0852
1428	65.0232
1424	65.0642
1420	65.133
1416	65.2218
1412	65.2693
1408	65.1364
1404	65.0188
1400	65.06
1396	65.1603
1392	65.2045
1388	65.1442
1384	65.077
1380	65.1128
1376	65.1723
1372	65.1064
1368	65.0043
1364	65.0066
1360	65.0708
1356	65.1238
1352	65.0758
1348	64.9337
1344	64.8834
1340	65.0042
1336	65.0802
1332	64.9913
1328	64.9668
1324	65.0464
1320	65.1021
1316	65.1464
1312	65.1701
1308	65.1598
1304	65.1101
1300	65.0361
1296	65.0011
1292	65.0221
1288	65.0012
1284	64.9458
1280	64.9603
1276	64.9661
1272	64.9058
1268	64.9248
1264	65.0259
1260	65.0732
1256	65.0277
1252	64.9738
1248	64.9987
1244	65.0298
1240	65.035
1236	65.0597
1232	65.1105
1228	65.1074
1224	65.03
1220	65.054
1216	65.1455
1212	65.1115
1208	64.969
1204	64.9238
1200	65.0385
1196	65.1237
1192	65.0538
1188	64.8448
1184	64.6511
1180	64.6443
1176	64.7205
1172	64.733
1168	64.711
1164	64.6674
1160	64.5609
1156	64.5696
1152	64.7626
1148	64.8002
1144	64.7951
1140	64.99
1136	65.0833
1132	64.9964
1128	64.9063
1124	64.762
1120	64.6121
1116	64.6115
1112	64.5858
1108	64.614
1104	64.8439
1100	65.0204
1096	65.078
1092	65.0276
1088	64.9651
1084	64.9607
1080	64.8745
1076	64.7734
1072	64.7232
1068	64.6351
1064	64.6762
1060	64.8139
1056	64.8453
1052	64.9469
1048	65.1057
1044	65.066
1040	64.8402
1036	64.6577
1032	64.6379
1028	64.6781
1024	64.8293
1020	65.0686
1016	65.0125
1012	64.6449
1008	64.3447
1004	64.2672
1000	64.2915
996	 64.1989
992	 64.2229
988	 64.5926
984	 64.7173
980	 64.4276
976	 64.3939
972	 64.6282
968	 64.6407
964	 64.5048
960	 64.4991
956	 64.6514
952	 64.7972
948	 64.7455
944	 64.6355
940	 64.5164
936	 64.3925
932	 64.4303
928	 64.4779
924	 64.4497
920	 64.4796
916	 64.5555
912	 64.5826
908	 64.5973
904	 64.648
900	 64.613
896	 64.5453
892	 64.628
888	 64.7074
884	 64.5618
880	 64.4582
876	 64.5998
872	 64.5562
868	 64.3255
864	 64.3104
860	 64.3662
856	 64.3378
852	 64.4068
848	 64.5218
844	 64.5034
840	 64.4468
836	 64.4605
832	 64.4707
828	 64.3624
824	 64.1835
820	 64.0532
816	 64.0366
812	 64.1063
808	 64.1013
804	 64.0504
800	 64.0884
796	 64.1746
792	 64.2879
788	 64.4042
784	 64.4762
780	 64.4771
776	 64.2784
772	 63.9655
768	 63.8949
764	 64.0651
760	 64.0649
756	 63.8787
752	 63.8592
748	 64.1804
744	 64.6522
740	 64.8257
736	 64.6238
732	 64.1915
728	 63.7847
724	 63.5948
720	 63.4904
716	 63.5612
712	 63.7316
708	 63.7797
704	 63.7479
700	 63.6806
696	 63.5785
692	 63.3381
688	 63.1278
684	 63.1532
680	 63.1779
676	 63.1921
672	 63.4231
668	 63.6349
664	 63.3561
660	 62.9936
656	 63.0095
652	 63.034
648	 63.1014
644	 63.2323
640	 63.0182
636	 62.6453
632	 62.3737
628	 62.2887
624	 62.497
620	 62.6611
616	 62.6321
612	 62.662
608	 62.9551
604	 63.4158
600	 63.3855
596	 62.8703
592	 62.5538
588	 62.4861
584	 62.4905
580	 62.5384
576	 62.5244
572	 62.5071
568	 62.4945
564	 62.2303
560	 62.0378
556	 62.1533
552	 62.2558
548	 62.1493
544	 62.1121
540	 62.2794
536	 62.1329
532	 61.9049
528	 61.8716
524	 61.6816
520	 61.6499
516	 61.9591
512	 62.3691
508	 62.4887
504	 62.1993
500	 61.8741
496	 61.435
492	 60.8945
488	 60.5728
484	 60.9946
480	 61.6549
476	 61.2211
472	 59.9543
468	 59.3047
464	 59.5426
460	 59.6892
456	 59.4748
452	 59.3988
448	 59.732
444	 60.2642
440	 60.6015
436	 60.1427
432	 59.014
428	 58.6124
424	 58.881
420	 57.9935
416	 56.9488
412	 58.0698
408	 63.4664
404	 66.985
400	 64.377
396	 67.8478
392	 74.6825
388	 67.108
384	 57.8251
380	 62.1702
376	 56.7158
372	 41.495
370	 42.9446