File: Bakgrunnsmateriale/MATLAB/FTIR/ftir_data/subBb/Mapping_121/C-4040-8_t94.asc
PE IR       SPECTRUM    SPECTRUM    ASCII       PEDS        1.60
  -1
C-B94A~1.ASC
17/03/27
22:14:29.00
17/03/27
22:14:55.00
tln
$C-4040-8_t0094$<tbV0>[0.0,7.8,8.0,0.0,27,1,0]
27.028
64

2002,4.07
MIRTGS : RIGHTBACK : INTERNAL 2
MIR : ON : INTERNAL 2
OPTKBR

0.200000
8
8.000000
FILLER
RATIO
SPECTRUM
UNLOCKED 256

DOUBLE
64
COMBINED
1
0
0

0.002000
RATIO

1
0
TRUE
51149
0
LEFT NOT FITTED RIGHT NOT FITTED 0
NONE
NONE
15600
12
4.427000
51148
TRUE
1 0 8 72 0 0 0 0

15798

#HDR
-1
-1
#GR
µM
%T
2.38419e-05
0.0
2.000000
0.002000
12515
8
201.465
27.3086
#DATA
2.000000	 65.3836
2.018000	 65.859
2.036000	 65.4819
2.054000	 65.6644
2.072000	 65.2308
2.090000	 65.2953
2.108000	 64.8586
2.126000	 64.7666
2.144000	 64.8384
2.162000	 65.4538
2.180000	 65.5665
2.198000	 65.8828
2.216000	 65.0514
2.234000	 65.8536
2.252000	 65.7322
2.270000	 68.0911
2.288000	 66.4666
2.306000	 65.4428
2.324000	 65.7559
2.342000	 65.8188
2.360000	 65.4211
2.378000	 65.1474
2.396000	 65.4591
2.414000	 65.1591
2.432000	 64.9014
2.450000	 64.874
2.468000	 64.9866
2.486000	 65.3833
2.504000	 65.0336
2.522000	 65.0804
2.540000	 65.2289
2.558000	 65.3776
2.576000	 65.4358
2.594000	 65.1377
2.612000	 65.052
2.630000	 65.2773
2.648000	 65.2999
2.666000	 65.3038
2.684000	 65.5078
2.702000	 65.3429
2.720000	 65.1928
2.738000	 65.1778
2.756000	 65.0792
2.774000	 65.1576
2.792000	 65.2652
2.810000	 65.2677
2.828000	 65.1336
2.846000	 65.281
2.864000	 65.1814
2.882000	 65.4196
2.900000	 65.0744
2.918000	 65.171
2.936000	 65.3226
2.954000	 65.2822
2.972000	 65.279
2.990000	 65.396
3.008000	 65.2912
3.026000	 65.2628
3.044000	 65.1142
3.062000	 65.1673
3.080000	 65.1803
3.098000	 65.1094
3.116000	 65.4529
3.134000	 65.2155
3.152000	 65.2792
3.170000	 65.4465
3.188000	 65.3529
3.206000	 65.2631
3.224000	 65.4383
3.242000	 65.169
3.260000	 65.3237
3.278000	 65.3244
3.296000	 65.4482
3.314000	 65.4168
3.332000	 65.351
3.350000	 65.1498
3.368000	 65.0782
3.386000	 65.1413
3.404000	 65.2932
3.422000	 64.8039
3.440000	 65.2612
3.458000	 65.1635
3.476000	 65.1821
3.494000	 65.3378
3.512000	 65.0989
3.530000	 65.3049
3.548000	 65.2773
3.566000	 65.2638
3.584000	 65.2883
3.602000	 65.3846
3.620000	 65.2137
3.638000	 65.4128
3.656000	 65.1549
3.674000	 65.3165
3.692000	 65.3776
3.710000	 65.3382
3.728000	 65.3043
3.746000	 65.3777
3.764000	 65.2383
3.782000	 65.3415
3.800000	 65.3468
3.818000	 65.286
3.836000	 65.3641
3.854000	 65.2926
3.872000	 65.312
3.890000	 65.2615
3.908000	 65.333
3.926000	 65.3781
3.944000	 65.2922
3.962000	 65.2278
3.980000	 65.4497
3.998000	 65.2474
4.016000	 65.5018
4.034000	 65.3951
4.052000	 65.3471
4.070000	 65.2573
4.088000	 65.1826
4.106000	 65.317
4.124000	 65.3978
4.141999	 65.1627
4.160000	 65.1388
4.178000	 65.3609
4.196000	 65.2263
4.214000	 65.3123
4.232000	 65.2928
4.250000	 65.2712
4.268000	 65.3346
4.286000	 65.2716
4.304000	 65.2953
4.322000	 65.4653
4.340000	 65.2722
4.358000	 65.3765
4.375999	 65.3821
4.394000	 65.3598
4.412000	 65.274
4.430000	 65.271
4.448000	 65.3608
4.466000	 65.2597
4.484000	 65.2933
4.502000	 65.4125
4.520000	 65.3418
4.538000	 65.3169
4.556000	 65.3058
4.574000	 65.3632
4.592000	 65.3527
4.609999	 65.4464
4.628000	 65.4291
4.646000	 65.3876
4.664000	 65.333
4.682000	 65.5422
4.700000	 65.383
4.718000	 65.2534
4.736000	 65.3584
4.754000	 65.2891
4.772000	 65.1579
4.790000	 65.1775
4.808000	 65.5239
4.826000	 65.7067
4.843999	 65.4811
4.862000	 65.2707
4.880000	 65.3078
4.898000	 65.3598
4.916000	 65.3186
4.934000	 65.299
4.952000	 65.335
4.970000	 65.3886
4.988000	 65.309
5.006000	 65.3293
5.024000	 65.3488
5.042000	 65.2254
5.060000	 65.3209
5.077999	 65.4917
5.096000	 65.4705
5.114000	 65.3073
5.132000	 65.3225
5.150000	 65.3741
5.168000	 65.4404
5.186000	 65.2668
5.204000	 65.3748
5.222000	 65.2511
5.240000	 65.1684
5.258000	 65.3949
5.276000	 65.4231
5.294000	 65.3589
5.312000	 65.4196
5.330000	 65.3632
5.348000	 65.3995
5.366000	 65.3274
5.384000	 65.3654
5.402000	 65.3166
5.420000	 65.3899
5.438000	 65.3737
5.456000	 65.402
5.474000	 65.4328
5.492000	 65.3667
5.510000	 65.3766
5.528000	 65.3846
5.546000	 65.3906
5.564000	 65.2631
5.582000	 65.2515
5.600000	 65.346
5.618000	 65.3769
5.636000	 65.2999
5.654000	 65.3059
5.672000	 65.2978
5.690000	 65.1952
5.708000	 65.0968
5.726000	 65.2027
5.744000	 65.2399
5.762000	 65.0964
5.780000	 65.0826
5.798000	 65.0995
5.816000	 64.9862
5.834000	 65.1013
5.852000	 65.2797
5.870000	 65.3994
5.888000	 65.3292
5.906000	 65.1411
5.923999	 65.0696
5.942000	 65.1139
5.960000	 65.2156
5.978000	 65.2273
5.996000	 65.1897
6.014000	 65.2091
6.032000	 65.2289
6.050000	 65.2364
6.068000	 65.3377
6.086000	 65.3749
6.104000	 65.3829
6.122000	 65.3484
6.140000	 65.2401
6.158000	 65.1997
6.176000	 65.2297
6.194000	 65.149
6.212000	 65.0803
6.230000	 65.1415
6.248000	 65.169
6.266000	 65.1248
6.284000	 65.1514
6.302000	 65.1707
6.320000	 65.1841
6.338000	 65.1822
6.356000	 65.0253
6.374000	 64.9709
6.392000	 65.027
6.410000	 65.0609
6.428000	 65.1317
6.446000	 65.2429
6.464000	 65.272
6.482000	 65.157
6.500000	 65.0708
6.518000	 65.0849
6.536000	 65.127
6.554000	 65.1917
6.572000	 65.2672
6.590000	 65.2646
6.608000	 65.2167
6.626000	 65.2829
6.644000	 65.4024
6.662000	 65.4222
6.680000	 65.3855
6.698000	 65.3302
6.716000	 65.2665
6.734000	 65.2331
6.752000	 65.1965
6.770000	 65.1515
6.788000	 65.1122
6.806000	 65.0903
6.824000	 65.1458
6.842000	 65.2607
6.860000	 65.2764
6.878000	 65.1526
6.896000	 65.0831
6.914000	 65.1819
6.932000	 65.361
6.950000	 65.4263
6.968000	 65.268
6.986000	 65.0672
7.004000	 65.0087
7.022000	 65.0549
7.040000	 65.1108
7.058000	 65.1446
7.076000	 65.1722
7.094000	 65.2211
7.112000	 65.2682
7.130000	 65.2585
7.148000	 65.2238
7.166000	 65.2057
7.184000	 65.1484
7.202000	 65.0664
7.220000	 65.0705
7.238000	 65.1311
7.256000	 65.1118
7.274000	 65.0415
7.292000	 65.0298
7.310000	 65.0671
7.328000	 65.132
7.346000	 65.2228
7.364000	 65.2721
7.382000	 65.256
7.400000	 65.2415
7.418000	 65.2618
7.436000	 65.2791
7.454000	 65.2365
7.472000	 65.1298
7.490000	 65.0442
7.508000	 65.0503
7.526000	 65.1138
7.544000	 65.1609
7.562000	 65.1606
7.580000	 65.1083
7.598000	 65.0079
7.616000	 64.9067
7.634000	 64.8842
7.652000	 64.9594
7.670000	 65.0679
7.688000	 65.1526
7.706000	 65.2085
7.724000	 65.2302
7.742000	 65.1948
7.760000	 65.1183
7.778000	 65.0595
7.796000	 65.0508
7.814000	 65.0826
7.832000	 65.1273
7.850000	 65.1335
7.868000	 65.0619
7.886000	 64.9674
7.904000	 64.9542
7.922000	 65.0396
7.940000	 65.1381
7.958000	 65.1679
7.976000	 65.1182
7.994000	 65.0354
8.012000	 64.9783
8.030000	 64.977
8.048000	 65.0238
8.065999	 65.0866
8.084000	 65.1211
8.102000	 65.1026
8.120000	 65.0614
8.138000	 65.0465
8.155999	 65.0527
8.173999	 65.0323
8.192000	 64.9814
8.210000	 64.9471
8.228000	 64.9503
8.246000	 64.9638
8.263999	 64.9734
8.282000	 65.0008
8.300000	 65.0523
8.318000	 65.099
8.336000	 65.1181
8.353999	 65.1112
8.372000	 65.0844
8.390000	 65.0466
8.408000	 65.0068
8.426000	 64.9663
8.443999	 64.9336
8.462000	 64.9327
8.480000	 64.973
8.498000	 65.0298
8.516000	 65.0691
8.533999	 65.0761
8.552000	 65.0485
8.570000	 64.9912
8.588000	 64.9347
8.606000	 64.9236
8.624000	 64.9623
8.641999	 64.9953
8.660000	 64.9668
8.678000	 64.8914
8.696000	 64.8398
8.714000	 64.8591
8.731999	 64.9285
8.750000	 64.9883
8.768000	 65.0005
8.786000	 64.9704
8.804000	 64.9246
8.821999	 64.8828
8.840000	 64.8582
8.858000	 64.8622
8.876000	 64.8963
8.894000	 64.9414
8.911999	 64.9657
8.930000	 64.9552
8.948000	 64.9295
8.966000	 64.9251
8.984000	 64.9574
9.001999	 64.9984
9.020000	 64.9947
9.038000	 64.9135
9.056000	 64.7797
9.074000	 64.6622
9.092000	 64.6174
9.109999	 64.6437
9.128000	 64.6924
9.146000	 64.7215
9.164000	 64.7329
9.182000	 64.7566
9.199999	 64.8073
9.218000	 64.8685
9.236000	 64.9105
9.254000	 64.9179
9.272000	 64.8933
9.289999	 64.8467
9.308000	 64.7922
9.326000	 64.7524
9.344000	 64.7505
9.362000	 64.7914
9.379999	 64.8491
9.398000	 64.8782
9.416000	 64.8442
9.434000	 64.7531
9.452000	 64.6526
9.469999	 64.6004
9.488000	 64.6233
9.506000	 64.6972
9.524000	 64.7664
9.542000	 64.7859
9.560000	 64.7491
9.577999	 64.6791
9.596000	 64.6008
9.614000	 64.5332
9.632000	 64.4974
9.650000	 64.5146
9.667999	 64.5887
9.686000	 64.6972
9.704000	 64.8011
9.722000	 64.8656
9.740000	 64.8793
9.757999	 64.8585
9.776000	 64.8354
9.794000	 64.8346
9.812000	 64.8536
9.830000	 64.863
9.847999	 64.8298
9.866000	 64.7481
9.884000	 64.6496
9.902000	 64.5821
9.920000	 64.5722
9.937999	 64.6068
9.956000	 64.6503
9.974000	 64.6776
9.992000	 64.6908
10.01	64.7077
10.028	64.7388
10.046	64.7731
10.064	64.7921
10.082	64.7892
10.1	64.7756
10.118	64.7673
10.136	64.7672
10.154	64.7618
10.172	64.7337
10.19	64.6784
10.208	64.6136
10.226	64.5664
10.244	64.5576
10.262	64.588
10.28	64.6411
10.298	64.6968
10.316	64.7416
10.334	64.7725
10.352	64.7905
10.37	64.7919
10.388	64.7674
10.406	64.7139
10.424	64.6447
10.442	64.592
10.46	64.5846
10.478	64.6286
10.496	64.6992
10.514	64.7581
10.532	64.7758
10.55	64.7504
10.568	64.6991
10.586	64.6395
10.604	64.5722
10.622	64.4848
10.64	64.3716
10.658	64.2487
10.676	64.1535
10.694	64.1212
10.712	64.1686
10.73	64.2877
10.748	64.4543
10.766	64.6407
10.784	64.8254
10.802	64.9902
10.82	65.1177
10.838	65.189
10.856	65.1913
10.874	65.1259
10.892	65.0127
10.91	64.8873
10.928	64.787
10.946	64.7415
10.964	64.7592
10.982	64.825
11	64.9028
11.018	64.9483
11.036	64.9312
11.054	64.8481
11.072	64.7256
11.09	64.6096
11.108	64.5386
11.126	64.5312
11.144	64.5794
11.162	64.6546
11.18	64.7271
11.198	64.7764
11.216	64.7975
11.234	64.7948
11.252	64.7751
11.27	64.7422
11.288	64.6981
11.306	64.6484
11.324	64.6042
11.342	64.5796
11.36	64.5849
11.378	64.6206
11.396	64.6742
11.414	64.7238
11.432	64.7464
11.45	64.729
11.468	64.6717
11.486	64.5884
11.504	64.5007
11.522	64.4318
11.54	64.3967
11.558	64.4012
11.576	64.4403
11.594	64.5015
11.612	64.569
11.63	64.6293
11.648	64.6754
11.666	64.7058
11.684	64.7232
11.702	64.7308
11.72	64.7307
11.738	64.7232
11.756	64.7084
11.774	64.6879
11.792	64.6651
11.81	64.6449
11.828	64.6311
11.846	64.6247
11.864	64.6225
11.882	64.6194
11.9	64.611
11.918	64.5967
11.936	64.5803
11.954	64.568
11.972	64.5655
11.99	64.5745
12.008	64.5916
12.026	64.6084
12.044	64.6149
12.062	64.602
12.08	64.5659
12.098	64.5085
12.116	64.4376
12.134	64.3648
12.152	64.3022
12.17	64.259
12.188	64.2395
12.206	64.2421
12.224	64.2604
12.242	64.2851
12.26	64.3071
12.278	64.3191
12.296	64.3174
12.314	64.3021
12.332	64.2759
12.35	64.2416
12.368	64.202
12.386	64.1589
12.404	64.1134
12.422	64.068
12.44	64.0269
12.458	63.9959
12.476	63.9817
12.494	63.9896
12.512	64.0214
12.53	64.0738
12.548	64.1386
12.566	64.2041
12.584	64.2573
12.602	64.2869
12.62	64.2865
12.638	64.255
12.656	64.1969
12.674	64.121
12.692	64.0384
12.71	63.9598
12.728	63.8949
12.746	63.8499
12.764	63.828
12.782	63.8283
12.8	63.8474
12.818	63.8803
12.836	63.9215
12.854	63.9661
12.872	64.0105
12.89	64.0524
12.908	64.0897
12.926	64.1207
12.944	64.1429
12.962	64.1541
12.98	64.1519
12.998	64.1351
13.016	64.1041
13.034	64.0615
13.052	64.0119
13.07	63.9616
13.088	63.9171
13.106	63.8841
13.124	63.8664
13.142	63.8648
13.16	63.8775
13.178	63.9009
13.196	63.93
13.214	63.9606
13.232	63.9899
13.25	64.0171
13.268	64.0434
13.286	64.0707
13.304	64.1007
13.322	64.1334
13.34	64.1663
13.358	64.1946
13.376	64.2118
13.394	64.2108
13.412	64.1859
13.43	64.1349
13.448	64.0596
13.466	63.9662
13.484	63.8643
13.502	63.7654
13.52	63.6807
13.538	63.6191
13.556	63.5855
13.574	63.5803
13.592	63.5996
13.61	63.6359
13.628	63.6798
13.646	63.7214
13.664	63.7527
13.682	63.7678
13.7	63.7647
13.718	63.745
13.736	63.7132
13.754	63.6757
13.772	63.6391
13.79	63.6089
13.808	63.5886
13.826	63.5789
13.844	63.578
13.862	63.5825
13.88	63.588
13.898	63.5904
13.916	63.5868
13.934	63.5759
13.952	63.5579
13.97	63.5341
13.988	63.5068
14.006	63.4784
14.024	63.4509
14.042	63.4258
14.06	63.404
14.078	63.3859
14.096	63.3721
14.114	63.3632
14.132	63.36
14.15	63.3626
14.168	63.3709
14.186	63.3838
14.204	63.3989
14.222	63.4135
14.24	63.4246
14.258	63.4301
14.276	63.429
14.294	63.4215
14.312	63.4094
14.33	63.3963
14.348	63.3862
14.366	63.3832
14.384	63.3908
14.402	63.4107
14.42	63.4426
14.438	63.4846
14.456	63.5331
14.474	63.5838
14.492	63.6318
14.51	63.672
14.528	63.7011
14.546	63.7167
14.564	63.7179
14.582	63.705
14.6	63.6795
14.618	63.6437
14.636	63.6011
14.654	63.5548
14.672	63.5084
14.69	63.4648
14.708	63.4263
14.726	63.3945
14.744	63.3696
14.762	63.3506
14.78	63.3354
14.798	63.3215
14.816	63.3059
14.834	63.286
14.852	63.2592
14.87	63.2248
14.888	63.1833
14.906	63.1363
14.924	63.0867
14.942	63.0382
14.96	62.9944
14.978	62.9585
14.996	62.9326
15.014	62.9178
15.032	62.9136
15.05	62.9182
15.068	62.9295
15.086	62.9453
15.104	62.9632
15.122	62.9813
15.14	62.9989
15.158	63.016
15.176	63.033
15.194	63.0509
15.212	63.0706
15.23	63.0924
15.248	63.1162
15.266	63.1416
15.284	63.1673
15.302	63.1917
15.32	63.2133
15.338	63.2309
15.356	63.2427
15.374	63.2486
15.392	63.2486
15.41	63.2433
15.428	63.2335
15.446	63.2205
15.464	63.2055
15.482	63.1894
15.5	63.1729
15.518	63.156
15.536	63.1384
15.554	63.1197
15.572	63.0991
15.59	63.0759
15.608	63.0497
15.626	63.0202
15.644	62.9875
15.662	62.9523
15.68	62.9152
15.698	62.8772
15.716	62.8393
15.734	62.8026
15.752	62.7683
15.77	62.7372
15.788	62.7107
15.806	62.6901
15.824	62.6763
15.842	62.6706
15.86	62.6742
15.878	62.6877
15.896	62.7116
15.914	62.7456
15.932	62.7887
15.95	62.8392
15.968	62.8948
15.986	62.9515
16.004	63.0063
16.022	63.0555
16.04	63.0948
16.058	63.1216
16.076	63.1342
16.094	63.1313
16.112	63.114
16.13	63.0836
16.148	63.0429
16.166	62.9959
16.184	62.9456
16.202	62.8954
16.22	62.8489
16.238	62.8077
16.256	62.7731
16.274	62.7455
16.292	62.7241
16.31	62.7082
16.328	62.6958
16.346	62.6858
16.364	62.6771
16.382	62.6683
16.4	62.6592
16.418	62.6496
16.436	62.6396
16.454	62.6297
16.472	62.6206
16.49	62.6128
16.508	62.6069
16.526	62.6033
16.544	62.6024
16.562	62.6043
16.58	62.6091
16.598	62.617
16.616	62.6278
16.634	62.6415
16.652	62.6583
16.67	62.6778
16.688	62.7
16.706	62.7243
16.724	62.7501
16.742	62.7764
16.76	62.8016
16.778	62.8245
16.796	62.8434
16.814	62.8566
16.832	62.8633
16.85	62.8622
16.868	62.8534
16.886	62.8366
16.904	62.813
16.922	62.7837
16.94	62.7502
16.958	62.7152
16.976	62.68
16.994	62.6473
17.012	62.6188
17.03	62.5958
17.048	62.5793
17.066	62.5695
17.084	62.5666
17.102	62.5695
17.12	62.5778
17.138	62.5898
17.156	62.6044
17.174	62.6205
17.192	62.6364
17.21	62.6516
17.228	62.665
17.246	62.6764
17.264	62.6855
17.282	62.6927
17.3	62.6982
17.318	62.7025
17.336	62.706
17.354	62.7088
17.372	62.7115
17.39	62.714
17.408	62.7165
17.426	62.7186
17.444	62.7202
17.462	62.7205
17.48	62.7193
17.498	62.7158
17.516	62.71
17.534	62.7014
17.552	62.6898
17.57	62.6751
17.588	62.6574
17.606	62.637
17.624	62.614
17.642	62.5895
17.66	62.5638
17.678	62.5381
17.696	62.5128
17.714	62.4894
17.732	62.4688
17.75	62.452
17.768	62.4404
17.786	62.4344
17.804	62.4356
17.822	62.4439
17.84	62.4598
17.858	62.4828
17.876	62.5126
17.894	62.5475
17.912	62.5868
17.93	62.6276
17.948	62.6692
17.966	62.708
17.984	62.7431
18.002	62.7718
18.02	62.793
18.038	62.8051
18.056	62.8074
18.074	62.7994
18.092	62.7815
18.11	62.7538
18.128	62.7177
18.146	62.674
18.164	62.6246
18.182	62.5704
18.2	62.5131
18.218	62.4539
18.236	62.3937
18.254	62.3336
18.272	62.2739
18.29	62.2151
18.308	62.1574
18.326	62.1006
18.344	62.0449
18.362	61.99
18.38	61.9359
18.398	61.8826
18.416	61.8303
18.434	61.779
18.452	61.7296
18.47	61.6823
18.488	61.6379
18.506	61.5965
18.524	61.5593
18.542	61.5267
18.56	61.4991
18.578	61.4767
18.596	61.4602
18.614	61.4496
18.632	61.4451
18.65	61.4467
18.668	61.4543
18.686	61.4679
18.704	61.4872
18.722	61.5118
18.74	61.5406
18.758	61.5732
18.776	61.608
18.794	61.6442
18.812	61.6795
18.83	61.713
18.848	61.7421
18.866	61.7659
18.884	61.7819
18.902	61.7893
18.92	61.7859
18.938	61.7717
18.956	61.7455
18.974	61.708
18.992	61.6592
19.01	61.6007
19.028	61.534
19.046	61.461
19.064	61.3844
19.082	61.3063
19.1	61.2303
19.118	61.1577
19.136	61.0926
19.154	61.0356
19.172	60.9901
19.19	60.956
19.208	60.9356
19.226	60.9282
19.244	60.9341
19.262	60.9527
19.28	60.9822
19.298	61.0222
19.316	61.0695
19.334	61.124
19.352	61.1818
19.37	61.243
19.388	61.304
19.406	61.3648
19.424	61.4227
19.442	61.4775
19.46	61.5279
19.478	61.5736
19.496	61.614
19.514	61.649
19.532	61.6786
19.55	61.7025
19.568	61.721
19.586	61.7342
19.604	61.7423
19.622	61.7454
19.64	61.7436
19.658	61.7375
19.676	61.7271
19.694	61.7132
19.712	61.6956
19.73	61.6757
19.748	61.6534
19.766	61.6305
19.784	61.6072
19.802	61.5853
19.82	61.5658
19.838	61.5497
19.856	61.5391
19.874	61.5341
19.892	61.5367
19.91	61.5467
19.928	61.5653
19.946	61.5925
19.964	61.6276
19.982	61.6709
20	61.7203
20.018	61.7754
20.036	61.8343
20.054	61.8942
20.072	61.9548
20.09	62.0114
20.108	62.0647
20.126	62.1099
20.144	62.1472
20.162	62.1738
20.18	62.1885
20.198	62.1912
20.216	62.1805
20.234	62.1571
20.252	62.1217
20.27	62.074
20.288	62.0172
20.306	61.9509
20.324	61.8782
20.342	61.8009
20.36	61.7199
20.378	61.6393
20.396	61.5584
20.414	61.4806
20.432	61.4058
20.45	61.3357
20.468	61.2713
20.486	61.212
20.504	61.1582
20.522	61.1096
20.54	61.0646
20.558	61.0239
20.576	60.9848
20.594	60.9468
20.612	60.909
20.63	60.8692
20.648	60.8278
20.666	60.7827
20.684	60.734
20.702	60.6813
20.72	60.624
20.738	60.5626
20.756	60.4981
20.774	60.43
20.792	60.3604
20.81	60.2891
20.828	60.2177
20.846	60.1484
20.864	60.0807
20.882	60.0178
20.9	59.9592
20.918	59.9066
20.936	59.8616
20.954	59.8238
20.972	59.7944
20.99	59.7734
21.008	59.7605
21.026	59.7561
21.044	59.7595
21.062	59.7693
21.08	59.786
21.098	59.8073
21.116	59.8329
21.134	59.8618
21.152	59.8917
21.17	59.9231
21.188	59.9535
21.206	59.9825
21.224	60.0094
21.242	60.0323
21.26	60.0519
21.278	60.0665
21.296	60.0759
21.314	60.0801
21.332	60.0781
21.35	60.0703
21.368	60.0566
21.386	60.0368
21.404	60.0115
21.422	59.9813
21.44	59.946
21.458	59.9066
21.476	59.863
21.494	59.8157
21.512	59.7662
21.53	59.7137
21.548	59.6601
21.566	59.6063
21.584	59.5521
21.602	59.5002
21.62	59.45
21.638	59.4032
21.656	59.3618
21.674	59.3251
21.692	59.2954
21.71	59.2732
21.728	59.2585
21.746	59.2533
21.764	59.2573
21.782	59.2705
21.8	59.2933
21.818	59.3254
21.836	59.3659
21.854	59.4154
21.872	59.4723
21.89	59.5344
21.908	59.6029
21.926	59.6743
21.944	59.7464
21.962	59.8201
21.98	59.8905
21.998	59.9579
22.016	60.0209
22.034	60.0754
22.052	60.1225
22.07	60.1604
22.088	60.1873
22.106	60.2039
22.124	60.2101
22.142	60.205
22.16	60.1897
22.178	60.1664
22.196	60.1339
22.214	60.0948
22.232	60.0525
22.25	60.0051
22.268	59.9572
22.286	59.9112
22.304	59.866
22.322	59.8262
22.34	59.7927
22.358	59.7652
22.376	59.7469
22.394	59.7376
22.412	59.737
22.43	59.7456
22.448	59.7641
22.466	59.7898
22.484	59.8216
22.502	59.8604
22.52	59.9012
22.538	59.9424
22.556	59.9849
22.574	60.0221
22.592	60.0541
22.61	60.0803
22.628	60.0949
22.646	60.0989
22.664	60.091
22.682	60.0667
22.7	60.0272
22.718	59.9718
22.736	59.8987
22.754	59.8082
22.772	59.7014
22.79	59.5784
22.808	59.4385
22.826	59.2855
22.844	59.1212
22.862	58.944
22.88	58.7602
22.898	58.5718
22.916	58.3772
22.934	58.1843
22.952	57.9947
22.97	57.8073
22.988	57.6295
23.006	57.4623
23.024	57.305
23.042	57.1636
23.06	57.0386
23.078	56.9294
23.096	56.839
23.114	56.768
23.132	56.7155
23.15	56.6815
23.168	56.6666
23.186	56.6698
23.204	56.6886
23.222	56.7243
23.24	56.7751
23.258	56.8365
23.276	56.9099
23.294	56.9935
23.312	57.0813
23.33	57.1747
23.348	57.2723
23.366	57.3679
23.384	57.4623
23.402	57.5548
23.42	57.6402
23.438	57.7185
23.456	57.79
23.474	57.8507
23.492	57.9002
23.51	57.939
23.528	57.965
23.546	57.9774
23.564	57.9769
23.582	57.9632
23.6	57.9356
23.618	57.8947
23.636	57.841
23.654	57.7744
23.672	57.6945
23.69	57.604
23.708	57.504
23.726	57.3931
23.744	57.2748
23.762	57.1521
23.78	57.0221
23.798	56.8895
23.816	56.7592
23.834	56.6278
23.852	56.4993
23.87	56.3798
23.888	56.2661
23.906	56.1612
23.924	56.0731
23.942	56.0008
23.96	55.9443
23.978	55.911
23.996	55.9035
24.014	55.9189
24.032	55.9612
24.05	56.0333
24.068	56.1338
24.086	56.2615
24.104	56.4162
24.122	56.6
24.14	56.8084
24.158	57.036
24.176	57.2871
24.194	57.5573
24.212	57.8361
24.23	58.1237
24.248	58.4219
24.266	58.7187
24.284	59.0082
24.302	59.297
24.32	59.575
24.338	59.8329
24.356	60.0787
24.374	60.304
24.392	60.4956
24.41	60.6554
24.428	60.7844
24.446	60.8743
24.464	60.9201
24.482	60.9255
24.5	60.8928
24.518	60.8224
24.536	60.71
24.554	60.5644
24.572	60.3967
24.59	60.2024
24.608	59.9838
24.626	59.7539
24.644	59.5169
24.662	59.2652
24.68	59.0144
24.698	58.7778
24.716	58.5411
24.734	58.3192
24.752	58.1366
24.77	57.9945
24.788	57.8861
24.806	57.8269
24.824	57.8287
24.842	57.8847
24.86	57.9944
24.878	58.1589
24.896	58.3842
24.914	58.6635
24.932	58.9832
24.95	59.3408
24.968	59.7484
24.986	60.1768
25.004	60.5958
25.022	61.0218
25.04	61.4469
25.058	61.8424
25.076	62.1944
25.094	62.5189
25.112	62.8029
25.13	63.0322
25.148	63.208
25.166	63.3353
25.184	63.4161
25.202	63.4459
25.22	63.4207
25.238	63.3622
25.256	63.2927
25.274	63.2012
25.292	63.0914
25.31	62.9826
25.328	62.8865
25.346	62.7917
25.364	62.7053
25.382	62.6362
25.4	62.593
25.418	62.5664
25.436	62.5409
25.454	62.5081
25.472	62.4896
25.49	62.4564
25.508	62.3705
25.526	62.2252
25.544	62.0388
25.562	61.7858
25.58	61.4418
25.598	61.0143
25.616	60.5069
25.634	59.9137
25.652	59.2253
25.67	58.4373
25.688	57.5733
25.706	56.6593
25.724	55.6829
25.742	54.6389
25.76	53.5771
25.778	52.5436
25.796	51.5094
25.814	50.4839
25.832	49.504
25.85	48.5925
25.868	47.7196
25.886	46.9096
25.904	46.1948
25.922	45.5929
25.94	45.087
25.958	44.6657
25.976	44.3182
25.994	44.0478
26.012	43.8552
26.03	43.7332
26.048	43.6732
26.066	43.664
26.084	43.724
26.102	43.878
26.12	44.1342
26.138	44.458
26.156	44.8963
26.174	45.5054
26.192	46.2809
26.21	47.1738
26.228	48.289
26.246	49.7359
26.264	51.5014
26.282	53.5409
26.3	55.9458
26.318	58.8056
26.336	62.099
26.354	65.8024
26.372	69.9474
26.39	74.5661
26.408	79.681
26.426	85.2481
26.444	91.21
26.462	97.5309
26.48	104.324
26.498	111.474
26.516	118.806
26.534	126.207
26.552	133.866
26.57	141.628
26.588	149.268
26.606	156.67
26.624	164.075
26.642	171.258
26.66	177.934
26.678	184.033
26.696	189.927
26.714	195.127
26.732	199.068
26.75	201.151
26.768	201.398
26.786	200.719
26.804	200.056
26.822	200
26.84	200
26.858	200
26.876	200
26.894	200.098
26.912	200.417
26.93	200.606
26.948	200.291
26.966	199.045
26.984	196.824
27.002	194.335
27.02	192.319
27.028	191.82