File: Bakgrunnsmateriale/MATLAB/FTIR/ftir_data/subBb/Mapping_121/C-4040-8_t68.asc
PE IR       SPECTRUM    SPECTRUM    ASCII       PEDS        1.60
  -1
C-CD3A~1.ASC
17/03/27
20:07:25.00
17/03/27
20:07:51.00
tln
$C-4040-8_t0068$<tbV0>[10.4,2.6,8.0,0.0,27,1,0]
27.028
64

2002,4.07
MIRTGS : RIGHTBACK : INTERNAL 2
MIR : ON : INTERNAL 2
OPTKBR

0.200000
8
8.000000
FILLER
RATIO
SPECTRUM
UNLOCKED 256

DOUBLE
64
COMBINED
1
0
0

0.002000
RATIO

1
0
TRUE
51149
0
LEFT NOT FITTED RIGHT NOT FITTED 0
NONE
NONE
15600
12
4.427000
51148
TRUE
1 0 8 72 0 0 0 0

15798

#HDR
-1
-1
#GR
µM
%T
2.38419e-05
0.0
2.000000
0.002000
12515
8
93.6775
25.1875
#DATA
2.000000	 65.355
2.018000	 64.9
2.036000	 65.0836
2.054000	 64.7662
2.072000	 65.0012
2.090000	 64.9091
2.108000	 65.0733
2.126000	 65.1509
2.144000	 65.586
2.162000	 65.6905
2.180000	 64.8352
2.198000	 64.7086
2.216000	 64.3635
2.234000	 63.5679
2.252000	 64.2533
2.270000	 63.0465
2.288000	 82.1017
2.306000	 64.8375
2.324000	 64.5754
2.342000	 64.4379
2.360000	 64.4603
2.378000	 64.8855
2.396000	 64.8327
2.414000	 65.4692
2.432000	 64.9893
2.450000	 65.3414
2.468000	 65.0308
2.486000	 65.3893
2.504000	 65.2408
2.522000	 65.138
2.540000	 65.0103
2.558000	 65.0601
2.576000	 65.0374
2.594000	 64.9022
2.612000	 65.362
2.630000	 65.1313
2.648000	 65.1323
2.666000	 65.2583
2.684000	 65.1283
2.702000	 65.0143
2.720000	 65.2439
2.738000	 65.4162
2.756000	 65.219
2.774000	 65.0884
2.792000	 65.3398
2.810000	 65.2808
2.828000	 65.1365
2.846000	 65.2467
2.864000	 65.2515
2.882000	 65.2173
2.900000	 65.0206
2.918000	 64.976
2.936000	 65.1287
2.954000	 65.3109
2.972000	 65.1302
2.990000	 64.9216
3.008000	 65.1511
3.026000	 65.2352
3.044000	 65.1448
3.062000	 65.251
3.080000	 65.2451
3.098000	 65.1581
3.116000	 65.1042
3.134000	 65.3116
3.152000	 65.0819
3.170000	 65.3445
3.188000	 65.1342
3.206000	 64.9781
3.224000	 65.1475
3.242000	 65.2631
3.260000	 65.1982
3.278000	 65.2439
3.296000	 65.0843
3.314000	 65.1114
3.332000	 65.1409
3.350000	 65.0062
3.368000	 64.9708
3.386000	 65.0045
3.404000	 65.0177
3.422000	 64.858
3.440000	 65.1528
3.458000	 65.1058
3.476000	 64.9853
3.494000	 65.1394
3.512000	 65.1651
3.530000	 65.2097
3.548000	 65.2714
3.566000	 65.3138
3.584000	 65.3096
3.602000	 65.4334
3.620000	 65.3454
3.638000	 65.3752
3.656000	 65.2937
3.674000	 65.1909
3.692000	 65.4129
3.710000	 65.4582
3.728000	 65.2353
3.746000	 65.3672
3.764000	 65.3436
3.782000	 65.2851
3.800000	 65.4173
3.818000	 65.3555
3.836000	 65.2916
3.854000	 65.2937
3.872000	 65.2154
3.890000	 65.1646
3.908000	 65.4056
3.926000	 65.211
3.944000	 65.2399
3.962000	 65.3736
3.980000	 65.213
3.998000	 65.3062
4.016000	 65.1266
4.034000	 65.4136
4.052000	 65.3085
4.070000	 65.3103
4.088000	 65.4407
4.106000	 65.5036
4.124000	 65.2054
4.141999	 65.383
4.160000	 65.4248
4.178000	 65.2665
4.196000	 65.3444
4.214000	 65.3591
4.232000	 65.3349
4.250000	 65.3045
4.268000	 65.3403
4.286000	 65.2676
4.304000	 65.1954
4.322000	 65.3618
4.340000	 65.3325
4.358000	 65.2598
4.375999	 65.3768
4.394000	 65.3474
4.412000	 65.2391
4.430000	 65.3428
4.448000	 65.4448
4.466000	 65.3388
4.484000	 65.3715
4.502000	 65.289
4.520000	 65.296
4.538000	 65.2436
4.556000	 65.2727
4.574000	 65.3272
4.592000	 65.4081
4.609999	 65.3064
4.628000	 65.4535
4.646000	 65.3781
4.664000	 65.3962
4.682000	 65.2904
4.700000	 65.3066
4.718000	 65.3152
4.736000	 65.2867
4.754000	 65.3071
4.772000	 65.3321
4.790000	 65.3175
4.808000	 65.4654
4.826000	 65.4798
4.843999	 65.3971
4.862000	 65.1171
4.880000	 65.4753
4.898000	 65.4588
4.916000	 65.3684
4.934000	 65.3452
4.952000	 65.3436
4.970000	 65.3995
4.988000	 65.2419
5.006000	 65.225
5.024000	 65.3013
5.042000	 65.2531
5.060000	 65.3087
5.077999	 65.4753
5.096000	 65.4185
5.114000	 65.4103
5.132000	 65.3869
5.150000	 65.3721
5.168000	 65.3528
5.186000	 65.3997
5.204000	 65.3728
5.222000	 65.3265
5.240000	 65.2449
5.258000	 65.2231
5.276000	 65.3476
5.294000	 65.3779
5.312000	 65.3544
5.330000	 65.3566
5.348000	 65.3448
5.366000	 65.3532
5.384000	 65.333
5.402000	 65.2355
5.420000	 65.1666
5.438000	 65.2789
5.456000	 65.3607
5.474000	 65.3805
5.492000	 65.4185
5.510000	 65.4402
5.528000	 65.338
5.546000	 65.2549
5.564000	 65.3051
5.582000	 65.3306
5.600000	 65.3587
5.618000	 65.3702
5.636000	 65.3443
5.654000	 65.336
5.672000	 65.3998
5.690000	 65.4374
5.708000	 65.1966
5.726000	 65.0455
5.744000	 65.0988
5.762000	 65.2206
5.780000	 65.3004
5.798000	 65.2267
5.816000	 65.1665
5.834000	 65.3086
5.852000	 65.2113
5.870000	 65.1314
5.888000	 65.2061
5.906000	 65.2333
5.923999	 65.2273
5.942000	 65.2324
5.960000	 65.2534
5.978000	 65.2467
5.996000	 65.2662
6.014000	 65.2736
6.032000	 65.2243
6.050000	 65.26
6.068000	 65.2841
6.086000	 65.2264
6.104000	 65.1083
6.122000	 65.1002
6.140000	 65.0865
6.158000	 65.0191
6.176000	 65.0072
6.194000	 65.0436
6.212000	 65.037
6.230000	 65.0349
6.248000	 65.1193
6.266000	 65.1585
6.284000	 65.1081
6.302000	 65.0659
6.320000	 65.1097
6.338000	 65.1148
6.356000	 65.0109
6.374000	 64.9869
6.392000	 65.0387
6.410000	 65.0232
6.428000	 65.0074
6.446000	 65.0222
6.464000	 65.0391
6.482000	 64.9882
6.500000	 64.9157
6.518000	 64.9554
6.536000	 65.0756
6.554000	 65.1526
6.572000	 65.1085
6.590000	 65.0233
6.608000	 65.0501
6.626000	 65.1791
6.644000	 65.2106
6.662000	 65.1426
6.680000	 65.1402
6.698000	 65.221
6.716000	 65.2336
6.734000	 65.1261
6.752000	 65.059
6.770000	 65.0705
6.788000	 65.0231
6.806000	 64.9625
6.824000	 65.0212
6.842000	 65.1397
6.860000	 65.1661
6.878000	 65.0093
6.896000	 64.8148
6.914000	 64.8372
6.932000	 65.0311
6.950000	 65.234
6.968000	 65.3418
6.986000	 65.3064
7.004000	 65.1979
7.022000	 65.1029
7.040000	 65.0806
7.058000	 65.1334
7.076000	 65.2011
7.094000	 65.2392
7.112000	 65.2042
7.130000	 65.138
7.148000	 65.1483
7.166000	 65.1591
7.184000	 65.0614
7.202000	 64.9837
7.220000	 65.0375
7.238000	 65.1264
7.256000	 65.1797
7.274000	 65.206
7.292000	 65.1782
7.310000	 65.102
7.328000	 65.0635
7.346000	 65.1169
7.364000	 65.1753
7.382000	 65.1228
7.400000	 65.0281
7.418000	 65.0254
7.436000	 65.0878
7.454000	 65.141
7.472000	 65.1769
7.490000	 65.1814
7.508000	 65.1627
7.526000	 65.1586
7.544000	 65.1523
7.562000	 65.115
7.580000	 65.065
7.598000	 65.0226
7.616000	 64.9868
7.634000	 64.9414
7.652000	 64.8842
7.670000	 64.8642
7.688000	 64.9199
7.706000	 64.9931
7.724000	 64.9994
7.742000	 64.9404
7.760000	 64.8817
7.778000	 64.8642
7.796000	 64.8842
7.814000	 64.9284
7.832000	 64.9714
7.850000	 64.971
7.868000	 64.9161
7.886000	 64.8587
7.904000	 64.8528
7.922000	 64.8808
7.940000	 64.8924
7.958000	 64.8936
7.976000	 64.9257
7.994000	 64.9743
8.012000	 64.9744
8.030000	 64.9121
8.048000	 64.8531
8.065999	 64.8536
8.084000	 64.8935
8.102000	 64.9174
8.120000	 64.9076
8.138000	 64.878
8.155999	 64.8272
8.173999	 64.7466
8.192000	 64.6688
8.210000	 64.655
8.228000	 64.7296
8.246000	 64.8595
8.263999	 64.9962
8.282000	 65.0973
8.300000	 65.1229
8.318000	 65.0527
8.336000	 64.9205
8.353999	 64.8018
8.372000	 64.7547
8.390000	 64.7751
8.408000	 64.8147
8.426000	 64.8287
8.443999	 64.8022
8.462000	 64.7441
8.480000	 64.6725
8.498000	 64.6098
8.516000	 64.5698
8.533999	 64.5499
8.552000	 64.5429
8.570000	 64.5481
8.588000	 64.569
8.606000	 64.6097
8.624000	 64.6668
8.641999	 64.7191
8.660000	 64.7366
8.678000	 64.7114
8.696000	 64.6728
8.714000	 64.6575
8.731999	 64.6771
8.750000	 64.7211
8.768000	 64.7748
8.786000	 64.8163
8.804000	 64.82
8.821999	 64.7792
8.840000	 64.7127
8.858000	 64.6483
8.876000	 64.6016
8.894000	 64.5782
8.911999	 64.584
8.930000	 64.6207
8.948000	 64.6709
8.966000	 64.698
8.984000	 64.6662
9.001999	 64.5723
9.020000	 64.467
9.038000	 64.4302
9.056000	 64.5027
9.074000	 64.6396
9.092000	 64.7406
9.109999	 64.7331
9.128000	 64.6281
9.146000	 64.4966
9.164000	 64.4027
9.182000	 64.3631
9.199999	 64.3605
9.218000	 64.3767
9.236000	 64.4097
9.254000	 64.463
9.272000	 64.5297
9.289999	 64.5931
9.308000	 64.6417
9.326000	 64.6799
9.344000	 64.717
9.362000	 64.7493
9.379999	 64.7596
9.398000	 64.7365
9.416000	 64.6904
9.434000	 64.6447
9.452000	 64.6087
9.469999	 64.5689
9.488000	 64.511
9.506000	 64.4509
9.524000	 64.4338
9.542000	 64.4931
9.560000	 64.6125
9.577999	 64.7357
9.596000	 64.8143
9.614000	 64.8398
9.632000	 64.8335
9.650000	 64.8149
9.667999	 64.7853
9.686000	 64.7321
9.704000	 64.6456
9.722000	 64.5251
9.740000	 64.3785
9.757999	 64.2237
9.776000	 64.089
9.794000	 64.0096
9.812000	 64.0099
9.830000	 64.0827
9.847999	 64.1882
9.866000	 64.2808
9.884000	 64.3415
9.902000	 64.3871
9.920000	 64.452
9.937999	 64.5574
9.956000	 64.6944
9.974000	 64.8281
9.992000	 64.9171
10.01	64.9353
10.028	64.8857
10.046	64.8015
10.064	64.7257
10.082	64.6894
10.1	64.6935
10.118	64.715
10.136	64.7345
10.154	64.7532
10.172	64.7848
10.19	64.8297
10.208	64.8589
10.226	64.8344
10.244	64.7402
10.262	64.6029
10.28	64.4742
10.298	64.3975
10.316	64.382
10.334	64.4109
10.352	64.4711
10.37	64.5658
10.388	64.7032
10.406	64.8701
10.424	65.0253
10.442	65.1181
10.46	65.1231
10.478	65.0572
10.496	64.975
10.514	64.9334
10.532	64.9629
10.55	65.0468
10.568	65.136
10.586	65.1723
10.604	65.1213
10.622	64.9838
10.64	64.7957
10.658	64.6057
10.676	64.4537
10.694	64.3519
10.712	64.2884
10.73	64.2456
10.748	64.214
10.766	64.1997
10.784	64.2152
10.802	64.2678
10.82	64.3534
10.838	64.456
10.856	64.5572
10.874	64.6418
10.892	64.7022
10.91	64.7344
10.928	64.7355
10.946	64.7041
10.964	64.643
10.982	64.5619
11	64.4754
11.018	64.3997
11.036	64.3458
11.054	64.3181
11.072	64.3144
11.09	64.3288
11.108	64.3556
11.126	64.3908
11.144	64.4322
11.162	64.4769
11.18	64.52
11.198	64.5555
11.216	64.5779
11.234	64.5866
11.252	64.5867
11.27	64.5871
11.288	64.5989
11.306	64.628
11.324	64.6716
11.342	64.7186
11.36	64.7541
11.378	64.7638
11.396	64.7425
11.414	64.6953
11.432	64.6349
11.45	64.5756
11.468	64.5277
11.486	64.4927
11.504	64.4654
11.522	64.4369
11.54	64.4009
11.558	64.3554
11.576	64.3038
11.594	64.2507
11.612	64.1998
11.63	64.1523
11.648	64.1079
11.666	64.0677
11.684	64.0364
11.702	64.0212
11.72	64.0292
11.738	64.0619
11.756	64.113
11.774	64.1688
11.792	64.2134
11.81	64.2356
11.828	64.2335
11.846	64.2145
11.864	64.1929
11.882	64.1825
11.9	64.192
11.918	64.2223
11.936	64.2662
11.954	64.313
11.972	64.3515
11.99	64.3751
12.008	64.3822
12.026	64.3753
12.044	64.3591
12.062	64.338
12.08	64.3146
12.098	64.2903
12.116	64.2659
12.134	64.2427
12.152	64.223
12.17	64.2091
12.188	64.2025
12.206	64.2032
12.224	64.2089
12.242	64.2155
12.26	64.2188
12.278	64.2159
12.296	64.2071
12.314	64.1951
12.332	64.1842
12.35	64.1783
12.368	64.1795
12.386	64.1866
12.404	64.1962
12.422	64.2038
12.44	64.2049
12.458	64.1962
12.476	64.1765
12.494	64.1462
12.512	64.1075
12.53	64.0639
12.548	64.0204
12.566	63.9831
12.584	63.9589
12.602	63.9545
12.62	63.9749
12.638	64.022
12.656	64.0922
12.674	64.1771
12.692	64.2636
12.71	64.3374
12.728	64.3846
12.746	64.3952
12.764	64.3653
12.782	64.2978
12.8	64.2013
12.818	64.0882
12.836	63.9728
12.854	63.8682
12.872	63.784
12.89	63.7248
12.908	63.6899
12.926	63.6743
12.944	63.6712
12.962	63.6743
12.98	63.6802
12.998	63.6887
13.016	63.7025
13.034	63.7257
13.052	63.7609
13.07	63.8076
13.088	63.8615
13.106	63.9147
13.124	63.9583
13.142	63.9838
13.16	63.986
13.178	63.9632
13.196	63.9184
13.214	63.8568
13.232	63.7844
13.25	63.7065
13.268	63.6261
13.286	63.5453
13.304	63.4656
13.322	63.39
13.34	63.3232
13.358	63.2713
13.376	63.2407
13.394	63.2366
13.412	63.2606
13.43	63.3098
13.448	63.3769
13.466	63.4508
13.484	63.5194
13.502	63.572
13.52	63.6017
13.538	63.6066
13.556	63.5897
13.574	63.5586
13.592	63.523
13.61	63.4924
13.628	63.474
13.646	63.4717
13.664	63.4857
13.682	63.5129
13.7	63.5479
13.718	63.585
13.736	63.6186
13.754	63.645
13.772	63.6625
13.79	63.6709
13.808	63.6716
13.826	63.6668
13.844	63.6585
13.862	63.6477
13.88	63.6341
13.898	63.6168
13.916	63.5944
13.934	63.5656
13.952	63.5295
13.97	63.4861
13.988	63.4365
14.006	63.3825
14.024	63.3269
14.042	63.2724
14.06	63.2214
14.078	63.1763
14.096	63.1387
14.114	63.1098
14.132	63.09
14.15	63.0795
14.168	63.0777
14.186	63.084
14.204	63.0968
14.222	63.1143
14.24	63.1339
14.258	63.1535
14.276	63.171
14.294	63.1851
14.312	63.1957
14.33	63.2038
14.348	63.2113
14.366	63.221
14.384	63.2345
14.402	63.2532
14.42	63.2758
14.438	63.2997
14.456	63.3206
14.474	63.3336
14.492	63.3337
14.51	63.3177
14.528	63.2846
14.546	63.2366
14.564	63.1781
14.582	63.1156
14.6	63.0561
14.618	63.0068
14.636	62.9729
14.654	62.9564
14.672	62.9563
14.69	62.9691
14.708	62.9894
14.726	63.0109
14.744	63.027
14.762	63.0334
14.78	63.0287
14.798	63.0133
14.816	62.9896
14.834	62.9617
14.852	62.9345
14.87	62.9117
14.888	62.8954
14.906	62.886
14.924	62.8822
14.942	62.8803
14.96	62.8757
14.978	62.8644
14.996	62.843
15.014	62.809
15.032	62.7624
15.05	62.7051
15.068	62.6407
15.086	62.5734
15.104	62.5081
15.122	62.45
15.14	62.4023
15.158	62.3671
15.176	62.345
15.194	62.3354
15.212	62.336
15.23	62.344
15.248	62.3567
15.266	62.3717
15.284	62.3867
15.302	62.4007
15.32	62.4136
15.338	62.4257
15.356	62.4382
15.374	62.4525
15.392	62.4695
15.41	62.4898
15.428	62.5136
15.446	62.5404
15.464	62.5688
15.482	62.5974
15.5	62.6243
15.518	62.647
15.536	62.6638
15.554	62.6737
15.572	62.6758
15.59	62.6706
15.608	62.6589
15.626	62.6422
15.644	62.6225
15.662	62.6027
15.68	62.585
15.698	62.5714
15.716	62.5637
15.734	62.5627
15.752	62.5683
15.77	62.5801
15.788	62.5964
15.806	62.6151
15.824	62.6342
15.842	62.6512
15.86	62.6636
15.878	62.6697
15.896	62.668
15.914	62.6571
15.932	62.6364
15.95	62.6057
15.968	62.5653
15.986	62.516
16.004	62.4587
16.022	62.3947
16.04	62.3259
16.058	62.2541
16.076	62.1815
16.094	62.1106
16.112	62.0446
16.13	61.9857
16.148	61.937
16.166	61.9016
16.184	61.8809
16.202	61.8767
16.22	61.8899
16.238	61.9196
16.256	61.965
16.274	62.0228
16.292	62.0896
16.31	62.1622
16.328	62.2347
16.346	62.3029
16.364	62.3631
16.382	62.4105
16.4	62.4431
16.418	62.4597
16.436	62.4596
16.454	62.4447
16.472	62.416
16.49	62.3776
16.508	62.3328
16.526	62.2844
16.544	62.2369
16.562	62.1923
16.58	62.1524
16.598	62.1189
16.616	62.0914
16.634	62.0699
16.652	62.0526
16.67	62.0381
16.688	62.0249
16.706	62.0111
16.724	61.9963
16.742	61.9796
16.76	61.9616
16.778	61.943
16.796	61.925
16.814	61.9096
16.832	61.8978
16.85	61.8917
16.868	61.8919
16.886	61.8992
16.904	61.9134
16.922	61.9338
16.94	61.9593
16.958	61.9874
16.976	62.017
16.994	62.0454
17.012	62.0707
17.03	62.0918
17.048	62.107
17.066	62.1163
17.084	62.1191
17.102	62.1163
17.12	62.1082
17.138	62.0962
17.156	62.0809
17.174	62.0632
17.192	62.0436
17.21	62.0221
17.228	61.9982
17.246	61.971
17.264	61.9397
17.282	61.9025
17.3	61.8585
17.318	61.8062
17.336	61.7452
17.354	61.6749
17.372	61.596
17.39	61.5093
17.408	61.4167
17.426	61.321
17.444	61.2238
17.462	61.1301
17.48	61.0414
17.498	60.9623
17.516	60.8949
17.534	60.8415
17.552	60.8042
17.57	60.7833
17.588	60.7793
17.606	60.791
17.624	60.8173
17.642	60.8551
17.66	60.9031
17.678	60.9564
17.696	61.0137
17.714	61.0704
17.732	61.1249
17.75	61.1744
17.768	61.217
17.786	61.2518
17.804	61.2777
17.822	61.2949
17.84	61.3036
17.858	61.3047
17.876	61.2991
17.894	61.2884
17.912	61.2733
17.93	61.2558
17.948	61.2361
17.966	61.2159
17.984	61.1953
18.002	61.1753
18.02	61.1557
18.038	61.1369
18.056	61.1186
18.074	61.1008
18.092	61.083
18.11	61.0653
18.128	61.0474
18.146	61.0292
18.164	61.0106
18.182	60.9918
18.2	60.9727
18.218	60.9534
18.236	60.934
18.254	60.9146
18.272	60.8952
18.29	60.876
18.308	60.8571
18.326	60.8388
18.344	60.8213
18.362	60.8047
18.38	60.7894
18.398	60.7756
18.416	60.7638
18.434	60.7545
18.452	60.7482
18.47	60.7452
18.488	60.7456
18.506	60.7496
18.524	60.7566
18.542	60.7667
18.56	60.7785
18.578	60.7921
18.596	60.8055
18.614	60.8186
18.632	60.8293
18.65	60.8373
18.668	60.8407
18.686	60.8395
18.704	60.8323
18.722	60.8191
18.74	60.7995
18.758	60.7739
18.776	60.743
18.794	60.7072
18.812	60.6679
18.83	60.6255
18.848	60.5816
18.866	60.5367
18.884	60.4921
18.902	60.4481
18.92	60.4058
18.938	60.365
18.956	60.3263
18.974	60.2891
18.992	60.2535
19.01	60.2189
19.028	60.1847
19.046	60.1507
19.064	60.1162
19.082	60.0812
19.1	60.0453
19.118	60.0091
19.136	59.9726
19.154	59.9366
19.172	59.9019
19.19	59.869
19.208	59.8395
19.226	59.8136
19.244	59.7932
19.262	59.7781
19.28	59.77
19.298	59.7686
19.316	59.7747
19.334	59.788
19.352	59.808
19.37	59.8347
19.388	59.8665
19.406	59.9035
19.424	59.9432
19.442	59.9857
19.46	60.0284
19.478	60.0712
19.496	60.112
19.514	60.1501
19.532	60.1844
19.55	60.214
19.568	60.2385
19.586	60.257
19.604	60.2697
19.622	60.2761
19.64	60.2765
19.658	60.2707
19.676	60.2591
19.694	60.242
19.712	60.2196
19.73	60.1923
19.748	60.16
19.766	60.123
19.784	60.0814
19.802	60.0351
19.82	59.9841
19.838	59.9285
19.856	59.8683
19.874	59.8038
19.892	59.7354
19.91	59.6631
19.928	59.5885
19.946	59.5113
19.964	59.4341
19.982	59.3566
20	59.2813
20.018	59.2094
20.036	59.1421
20.054	59.0821
20.072	59.0292
20.09	58.9869
20.108	58.9546
20.126	58.9346
20.144	58.927
20.162	58.932
20.18	58.9503
20.198	58.9809
20.216	59.0232
20.234	59.0768
20.252	59.1388
20.27	59.2098
20.288	59.2855
20.306	59.3661
20.324	59.4482
20.342	59.5296
20.36	59.6097
20.378	59.6842
20.396	59.7541
20.414	59.8157
20.432	59.8691
20.45	59.9128
20.468	59.9458
20.486	59.9683
20.504	59.9797
20.522	59.9803
20.54	59.971
20.558	59.9515
20.576	59.9239
20.594	59.8886
20.612	59.8467
20.63	59.8006
20.648	59.7498
20.666	59.6979
20.684	59.6444
20.702	59.5919
20.72	59.5421
20.738	59.4949
20.756	59.4531
20.774	59.4161
20.792	59.3859
20.81	59.3631
20.828	59.3474
20.846	59.3395
20.864	59.3391
20.882	59.3453
20.9	59.3587
20.918	59.3772
20.936	59.4
20.954	59.4265
20.972	59.4535
20.99	59.4818
21.008	59.508
21.026	59.531
21.044	59.5502
21.062	59.5624
21.08	59.5683
21.098	59.566
21.116	59.5547
21.134	59.5348
21.152	59.5057
21.17	59.4675
21.188	59.4215
21.206	59.3676
21.224	59.307
21.242	59.2421
21.26	59.1721
21.278	59.1008
21.296	59.0285
21.314	58.9565
21.332	58.8883
21.35	58.8228
21.368	58.7627
21.386	58.7089
21.404	58.6611
21.422	58.6207
21.44	58.5873
21.458	58.5605
21.476	58.5406
21.494	58.5268
21.512	58.5171
21.53	58.5123
21.548	58.5099
21.566	58.5084
21.584	58.5083
21.602	58.506
21.62	58.5021
21.638	58.4951
21.656	58.4827
21.674	58.4658
21.692	58.443
21.71	58.4137
21.728	58.3785
21.746	58.3375
21.764	58.2903
21.782	58.2387
21.8	58.1834
21.818	58.1243
21.836	58.0639
21.854	58.0019
21.872	57.9395
21.89	57.8794
21.908	57.8206
21.926	57.7652
21.944	57.715
21.962	57.6692
21.98	57.6296
21.998	57.5967
22.016	57.57
22.034	57.5499
22.052	57.5368
22.07	57.5295
22.088	57.5275
22.106	57.5312
22.124	57.5383
22.142	57.5491
22.16	57.5628
22.178	57.577
22.196	57.5923
22.214	57.6072
22.232	57.6196
22.25	57.6305
22.268	57.6382
22.286	57.6417
22.304	57.6415
22.322	57.6371
22.34	57.6279
22.358	57.6146
22.376	57.5976
22.394	57.5765
22.412	57.5523
22.43	57.5263
22.448	57.4976
22.466	57.4685
22.484	57.4409
22.502	57.4135
22.52	57.3898
22.538	57.3708
22.556	57.356
22.574	57.3485
22.592	57.3487
22.61	57.3564
22.628	57.3736
22.646	57.4003
22.664	57.4363
22.682	57.482
22.7	57.5377
22.718	57.6022
22.736	57.6741
22.754	57.7545
22.772	57.8408
22.79	57.9311
22.808	58.0268
22.826	58.1238
22.844	58.2198
22.862	58.3165
22.88	58.4093
22.898	58.4965
22.916	58.5792
22.934	58.6529
22.952	58.7161
22.97	58.77
22.988	58.8112
23.006	58.8393
23.024	58.8548
23.042	58.8557
23.06	58.8414
23.078	58.8127
23.096	58.7695
23.114	58.7115
23.132	58.6392
23.15	58.5537
23.168	58.4545
23.186	58.3424
23.204	58.2192
23.222	58.0843
23.24	57.9387
23.258	57.7845
23.276	57.6211
23.294	57.4494
23.312	57.2722
23.33	57.089
23.348	56.9003
23.366	56.7092
23.384	56.515
23.402	56.3184
23.42	56.1228
23.438	55.9281
23.456	55.7344
23.474	55.5447
23.492	55.3592
23.51	55.1777
23.528	55.0029
23.546	54.8353
23.564	54.6743
23.582	54.5218
23.6	54.3785
23.618	54.2435
23.636	54.1182
23.654	54.0032
23.672	53.8981
23.69	53.8022
23.708	53.7155
23.726	53.6384
23.744	53.569
23.762	53.5061
23.78	53.4515
23.798	53.4017
23.816	53.3533
23.834	53.3091
23.852	53.2656
23.87	53.2179
23.888	53.1674
23.906	53.1133
23.924	53.0516
23.942	52.9819
23.96	52.9051
23.978	52.82
23.996	52.7257
24.014	52.6229
24.032	52.5121
24.05	52.3935
24.068	52.2662
24.086	52.1329
24.104	51.9958
24.122	51.8522
24.14	51.706
24.158	51.5627
24.176	51.4193
24.194	51.2782
24.212	51.1458
24.23	51.0225
24.248	50.9069
24.266	50.8048
24.284	50.7197
24.302	50.6485
24.32	50.594
24.338	50.5596
24.356	50.5445
24.374	50.5476
24.392	50.5686
24.41	50.6093
24.428	50.6677
24.446	50.7392
24.464	50.8227
24.482	50.9202
24.5	51.0263
24.518	51.1367
24.536	51.256
24.554	51.3787
24.572	51.4974
24.59	51.6156
24.608	51.7315
24.626	51.8354
24.644	51.9231
24.662	51.9998
24.68	52.0587
24.698	52.093
24.716	52.1068
24.734	52.0979
24.752	52.0618
24.77	51.9965
24.788	51.9044
24.806	51.7871
24.824	51.6449
24.842	51.4752
24.86	51.284
24.878	51.0779
24.896	50.8518
24.914	50.6091
24.932	50.3621
24.95	50.1158
24.968	49.8616
24.986	49.6135
25.004	49.3864
25.022	49.1724
25.04	48.9749
25.058	48.8076
25.076	48.6764
25.094	48.5735
25.112	48.5069
25.13	48.4849
25.148	48.5068
25.166	48.5696
25.184	48.6725
25.202	48.8174
25.22	49.0063
25.238	49.2286
25.256	49.4738
25.274	49.7515
25.292	50.0552
25.31	50.3668
25.328	50.6776
25.346	51.0013
25.364	51.3207
25.382	51.6158
25.4	51.8941
25.418	52.1561
25.436	52.381
25.454	52.5539
25.472	52.6894
25.49	52.7773
25.508	52.8017
25.526	52.7604
25.544	52.6612
25.562	52.4924
25.58	52.2429
25.598	51.917
25.616	51.5158
25.634	51.0353
25.652	50.4721
25.67	49.8274
25.688	49.1051
25.706	48.309
25.724	47.4348
25.742	46.4828
25.76	45.4678
25.778	44.4027
25.796	43.2719
25.814	42.0869
25.832	40.8725
25.85	39.6421
25.868	38.3714
25.886	37.0878
25.904	35.8253
25.922	34.5859
25.94	33.3504
25.958	32.1554
25.976	31.038
25.994	29.9798
26.012	28.9806
26.03	28.0763
26.048	27.2975
26.066	26.618
26.084	26.0489
26.102	25.6177
26.12	25.3425
26.138	25.2035
26.156	25.2095
26.174	25.3739
26.192	25.7051
26.21	26.1954
26.228	26.8389
26.246	27.6299
26.264	28.576
26.282	29.6764
26.3	30.9088
26.318	32.2516
26.336	33.7251
26.354	35.3221
26.372	37.005
26.39	38.7399
26.408	40.559
26.426	42.4476
26.444	44.3629
26.462	46.2706
26.48	48.2061
26.498	50.1516
26.516	52.0704
26.534	53.9367
26.552	55.7817
26.57	57.5875
26.588	59.3254
26.606	60.9776
26.624	62.5681
26.642	64.0829
26.66	65.5025
26.678	66.8155
26.696	68.0368
26.714	69.1601
26.732	70.1764
26.75	71.0784
26.768	71.8703
26.786	72.5582
26.804	73.1484
26.822	73.6436
26.84	74.0396
26.858	74.3405
26.876	74.5508
26.894	74.6732
26.912	74.7048
26.93	74.6476
26.948	74.5042
26.966	74.2434
26.984	73.8157
27.002	73.3445
27.02	72.9641
27.028	72.8691