File: Bakgrunnsmateriale/MATLAB/FTIR/ftir_data/subBb/Mapping_121/C-4040-8_t108.asc
PE IR       SPECTRUM    SPECTRUM    ASCII       PEDS        1.60
  -1
C-8CD6~1.ASC
17/03/27
23:19:42.00
17/03/27
23:20:09.00
tln
$C-4040-8_t0108$<tbV0>[-7.8,10.4,8.0,0.0,27,1,0]
27.028
64

2002,4.07
MIRTGS : RIGHTBACK : INTERNAL 2
MIR : ON : INTERNAL 2
OPTKBR

0.200000
8
8.000000
FILLER
RATIO
SPECTRUM
UNLOCKED 256

DOUBLE
64
COMBINED
1
0
0

0.002000
RATIO

1
0
TRUE
51149
0
LEFT NOT FITTED RIGHT NOT FITTED 0
NONE
NONE
15600
12
4.427000
51148
TRUE
1 0 8 72 0 0 0 0

15798

#HDR
-1
-1
#GR
µM
%T
2.38419e-05
0.0
2.000000
0.002000
12515
8
124.189
16.8927
#DATA
2.000000	 65.1404
2.018000	 65.1775
2.036000	 65.2172
2.054000	 65.7655
2.072000	 64.9768
2.090000	 65.3148
2.108000	 65.0448
2.126000	 64.9925
2.144000	 65.2817
2.162000	 65.427
2.180000	 65.1656
2.198000	 65.3383
2.216000	 64.4141
2.234000	 64.9869
2.252000	 64.1306
2.270000	 62.0809
2.288000	 64.4966
2.306000	 64.4607
2.324000	 64.3089
2.342000	 64.7885
2.360000	 64.6592
2.378000	 64.3898
2.396000	 65.2851
2.414000	 65.2882
2.432000	 65.1205
2.450000	 65.2649
2.468000	 64.9879
2.486000	 65.4441
2.504000	 65.0424
2.522000	 65.2568
2.540000	 65.1463
2.558000	 64.9482
2.576000	 65.0575
2.594000	 64.9539
2.612000	 64.7292
2.630000	 64.7113
2.648000	 65.1217
2.666000	 65.315
2.684000	 65.4881
2.702000	 65.1958
2.720000	 65.0614
2.738000	 65.1906
2.756000	 65.0922
2.774000	 65.1378
2.792000	 65.1015
2.810000	 65.1341
2.828000	 65.2198
2.846000	 65.2411
2.864000	 65.22
2.882000	 65.2214
2.900000	 64.9815
2.918000	 65.2497
2.936000	 65.0994
2.954000	 65.0103
2.972000	 65.1243
2.990000	 65.4168
3.008000	 65.1126
3.026000	 65.0565
3.044000	 64.9354
3.062000	 65.2306
3.080000	 65.0756
3.098000	 65.3485
3.116000	 65.3567
3.134000	 64.9632
3.152000	 65.3785
3.170000	 65.1699
3.188000	 65.3309
3.206000	 65.1217
3.224000	 65.3827
3.242000	 65.3643
3.260000	 65.15
3.278000	 65.1257
3.296000	 65.2929
3.314000	 65.1067
3.332000	 65.2111
3.350000	 64.9988
3.368000	 65.0992
3.386000	 64.9699
3.404000	 64.99
3.422000	 64.8452
3.440000	 64.8939
3.458000	 64.9658
3.476000	 65.1223
3.494000	 65.2258
3.512000	 64.8519
3.530000	 65.0511
3.548000	 64.9658
3.566000	 65.1708
3.584000	 65.2113
3.602000	 65.2436
3.620000	 65.1793
3.638000	 65.2908
3.656000	 65.222
3.674000	 65.4122
3.692000	 65.2699
3.710000	 65.28
3.728000	 65.2056
3.746000	 65.3338
3.764000	 65.2098
3.782000	 65.2141
3.800000	 65.1146
3.818000	 65.2203
3.836000	 65.3031
3.854000	 65.2103
3.872000	 65.3333
3.890000	 65.2385
3.908000	 65.2511
3.926000	 65.3862
3.944000	 65.2294
3.962000	 65.1647
3.980000	 65.1181
3.998000	 65.3078
4.016000	 65.4186
4.034000	 65.34
4.052000	 65.1355
4.070000	 65.1613
4.088000	 65.1854
4.106000	 65.0202
4.124000	 64.7889
4.141999	 65.1448
4.160000	 65.2652
4.178000	 65.3537
4.196000	 65.1731
4.214000	 65.2162
4.232000	 65.1355
4.250000	 65.2283
4.268000	 65.1759
4.286000	 65.2625
4.304000	 65.2525
4.322000	 65.3395
4.340000	 65.2095
4.358000	 65.267
4.375999	 65.3563
4.394000	 65.2686
4.412000	 65.2632
4.430000	 65.3377
4.448000	 65.2004
4.466000	 65.2073
4.484000	 65.2261
4.502000	 65.1676
4.520000	 65.0882
4.538000	 65.1307
4.556000	 65.1442
4.574000	 65.2722
4.592000	 65.1866
4.609999	 65.2826
4.628000	 65.4878
4.646000	 65.7025
4.664000	 65.4233
4.682000	 65.318
4.700000	 65.2253
4.718000	 65.2533
4.736000	 65.5221
4.754000	 65.2786
4.772000	 65.1793
4.790000	 65.254
4.808000	 65.3832
4.826000	 66.0326
4.843999	 65.8097
4.862000	 65.0227
4.880000	 65.0051
4.898000	 65.2557
4.916000	 65.214
4.934000	 65.2188
4.952000	 65.256
4.970000	 65.2786
4.988000	 65.2383
5.006000	 65.2071
5.024000	 65.2541
5.042000	 65.2348
5.060000	 65.2538
5.077999	 65.3216
5.096000	 65.2198
5.114000	 65.2179
5.132000	 65.2218
5.150000	 65.3068
5.168000	 65.3263
5.186000	 65.2936
5.204000	 65.1986
5.222000	 65.2212
5.240000	 65.2175
5.258000	 65.3725
5.276000	 65.3264
5.294000	 65.2608
5.312000	 65.2924
5.330000	 65.1763
5.348000	 65.1226
5.366000	 65.1304
5.384000	 65.1931
5.402000	 65.2427
5.420000	 65.2247
5.438000	 65.2632
5.456000	 65.2859
5.474000	 65.3139
5.492000	 65.3238
5.510000	 65.2224
5.528000	 65.1247
5.546000	 65.1035
5.564000	 65.1818
5.582000	 65.1268
5.600000	 65.0825
5.618000	 65.2118
5.636000	 65.2383
5.654000	 65.2825
5.672000	 65.2847
5.690000	 65.1826
5.708000	 65.0761
5.726000	 65.032
5.744000	 64.9891
5.762000	 64.9738
5.780000	 64.9959
5.798000	 64.9292
5.816000	 64.9377
5.834000	 65.103
5.852000	 65.1719
5.870000	 65.0554
5.888000	 65.1188
5.906000	 65.2378
5.923999	 65.2535
5.942000	 65.2346
5.960000	 65.1049
5.978000	 65.0721
5.996000	 65.2023
6.014000	 65.262
6.032000	 65.1672
6.050000	 65.0752
6.068000	 65.0599
6.086000	 65.1182
6.104000	 65.1821
6.122000	 65.1059
6.140000	 65.0501
6.158000	 65.0886
6.176000	 65.1078
6.194000	 65.0849
6.212000	 65.0436
6.230000	 64.9774
6.248000	 64.9657
6.266000	 64.9663
6.284000	 64.9219
6.302000	 64.9605
6.320000	 65.1295
6.338000	 65.0895
6.356000	 64.9139
6.374000	 64.926
6.392000	 64.9596
6.410000	 64.9484
6.428000	 65.0157
6.446000	 65.161
6.464000	 65.1724
6.482000	 65.0735
6.500000	 65.0269
6.518000	 65.0214
6.536000	 65.0221
6.554000	 65.0349
6.572000	 65.071
6.590000	 65.1322
6.608000	 65.1774
6.626000	 65.1794
6.644000	 65.1437
6.662000	 65.128
6.680000	 65.1539
6.698000	 65.1197
6.716000	 65.0845
6.734000	 65.1126
6.752000	 65.0716
6.770000	 64.9876
6.788000	 64.9741
6.806000	 64.9875
6.824000	 65.0344
6.842000	 65.1448
6.860000	 65.2066
6.878000	 65.1643
6.896000	 65.116
6.914000	 65.095
6.932000	 65.0268
6.950000	 64.9279
6.968000	 64.9022
6.986000	 64.9625
7.004000	 65.0381
7.022000	 65.0646
7.040000	 65.0163
7.058000	 64.9815
7.076000	 65.0445
7.094000	 65.1419
7.112000	 65.1629
7.130000	 65.1021
7.148000	 65.0312
7.166000	 64.9648
7.184000	 64.8872
7.202000	 64.8307
7.220000	 64.8217
7.238000	 64.8459
7.256000	 64.874
7.274000	 64.897
7.292000	 64.9248
7.310000	 64.9399
7.328000	 64.9253
7.346000	 64.9111
7.364000	 64.9145
7.382000	 64.9342
7.400000	 64.9976
7.418000	 65.0828
7.436000	 65.107
7.454000	 65.0438
7.472000	 64.9546
7.490000	 64.9211
7.508000	 64.9546
7.526000	 64.9838
7.544000	 64.9831
7.562000	 64.9902
7.580000	 64.9709
7.598000	 64.867
7.616000	 64.7406
7.634000	 64.6888
7.652000	 64.7177
7.670000	 64.7906
7.688000	 64.8736
7.706000	 64.9217
7.724000	 64.9232
7.742000	 64.9177
7.760000	 64.9298
7.778000	 64.9521
7.796000	 64.9886
7.814000	 65.0347
7.832000	 65.0357
7.850000	 64.9493
7.868000	 64.8281
7.886000	 64.7727
7.904000	 64.8196
7.922000	 64.9037
7.940000	 64.9394
7.958000	 64.9155
7.976000	 64.8751
7.994000	 64.8449
8.012000	 64.8295
8.030000	 64.8285
8.048000	 64.817
8.065999	 64.7687
8.084000	 64.7185
8.102000	 64.724
8.120000	 64.7738
8.138000	 64.8026
8.155999	 64.7819
8.173999	 64.7354
8.192000	 64.6908
8.210000	 64.6639
8.228000	 64.6694
8.246000	 64.714
8.263999	 64.7862
8.282000	 64.8595
8.300000	 64.9036
8.318000	 64.9018
8.336000	 64.8658
8.353999	 64.8164
8.372000	 64.7539
8.390000	 64.6702
8.408000	 64.5742
8.426000	 64.4975
8.443999	 64.4804
8.462000	 64.5412
8.480000	 64.6482
8.498000	 64.7388
8.516000	 64.7742
8.533999	 64.7602
8.552000	 64.7167
8.570000	 64.6524
8.588000	 64.5845
8.606000	 64.5528
8.624000	 64.5805
8.641999	 64.6353
8.660000	 64.6607
8.678000	 64.6388
8.696000	 64.5957
8.714000	 64.5618
8.731999	 64.5482
8.750000	 64.5555
8.768000	 64.5793
8.786000	 64.6046
8.804000	 64.6089
8.821999	 64.5821
8.840000	 64.542
8.858000	 64.5234
8.876000	 64.5518
8.894000	 64.6235
8.911999	 64.7021
8.930000	 64.7398
8.948000	 64.7089
8.966000	 64.6253
8.984000	 64.537
9.001999	 64.4815
9.020000	 64.454
9.038000	 64.427
9.056000	 64.3996
9.074000	 64.41
9.092000	 64.4888
9.109999	 64.6073
9.128000	 64.6892
9.146000	 64.6799
9.164000	 64.596
9.182000	 64.5042
9.199999	 64.4572
9.218000	 64.4582
9.236000	 64.4788
9.254000	 64.4934
9.272000	 64.4932
9.289999	 64.478
9.308000	 64.4534
9.326000	 64.4329
9.344000	 64.432
9.362000	 64.4525
9.379999	 64.4801
9.398000	 64.4989
9.416000	 64.5086
9.434000	 64.5188
9.452000	 64.5337
9.469999	 64.5493
9.488000	 64.5674
9.506000	 64.6012
9.524000	 64.6588
9.542000	 64.7244
9.560000	 64.7624
9.577999	 64.7429
9.596000	 64.6649
9.614000	 64.5554
9.632000	 64.4494
9.650000	 64.3689
9.667999	 64.3185
9.686000	 64.2908
9.704000	 64.2758
9.722000	 64.269
9.740000	 64.2723
9.757999	 64.2919
9.776000	 64.3288
9.794000	 64.372
9.812000	 64.4009
9.830000	 64.397
9.847999	 64.3584
9.866000	 64.3047
9.884000	 64.2665
9.902000	 64.2646
9.920000	 64.2964
9.937999	 64.3391
9.956000	 64.3665
9.974000	 64.3664
9.992000	 64.3435
10.01	64.3134
10.028	64.292
10.046	64.2908
10.064	64.3155
10.082	64.3648
10.1	64.4284
10.118	64.4868
10.136	64.5196
10.154	64.5171
10.172	64.4838
10.19	64.4346
10.208	64.385
10.226	64.3439
10.244	64.315
10.262	64.3015
10.28	64.3068
10.298	64.3327
10.316	64.3734
10.334	64.415
10.352	64.4424
10.37	64.4468
10.388	64.4316
10.406	64.4095
10.424	64.3946
10.442	64.3955
10.46	64.4111
10.478	64.4321
10.496	64.447
10.514	64.4468
10.532	64.4285
10.55	64.3945
10.568	64.3501
10.586	64.3024
10.604	64.2578
10.622	64.2199
10.64	64.1901
10.658	64.1689
10.676	64.1625
10.694	64.1837
10.712	64.2472
10.73	64.3598
10.748	64.5122
10.766	64.679
10.784	64.8304
10.802	64.9431
10.82	65.0082
10.838	65.0296
10.856	65.0128
10.874	64.958
10.892	64.8609
10.91	64.7221
10.928	64.5562
10.946	64.3923
10.964	64.2624
10.982	64.189
11	64.1741
11.018	64.2003
11.036	64.2418
11.054	64.2765
11.072	64.2986
11.09	64.3197
11.108	64.3587
11.126	64.4289
11.144	64.5271
11.162	64.6306
11.18	64.7107
11.198	64.7442
11.216	64.7243
11.234	64.6615
11.252	64.577
11.27	64.4904
11.288	64.4137
11.306	64.3487
11.324	64.2918
11.342	64.2398
11.36	64.1948
11.378	64.1643
11.396	64.1567
11.414	64.1768
11.432	64.2217
11.45	64.2814
11.468	64.3403
11.486	64.3834
11.504	64.4
11.522	64.3874
11.54	64.3518
11.558	64.3059
11.576	64.2659
11.594	64.2451
11.612	64.2506
11.63	64.2789
11.648	64.317
11.666	64.347
11.684	64.3513
11.702	64.3214
11.72	64.2603
11.738	64.185
11.756	64.1189
11.774	64.0848
11.792	64.0976
11.81	64.1572
11.828	64.2489
11.846	64.3471
11.864	64.4232
11.882	64.4562
11.9	64.4374
11.918	64.3737
11.936	64.2857
11.954	64.1998
11.972	64.1435
11.99	64.1353
12.008	64.1811
12.026	64.2727
12.044	64.3893
12.062	64.5007
12.08	64.5752
12.098	64.5877
12.116	64.5252
12.134	64.3923
12.152	64.2093
12.17	64.0051
12.188	63.8101
12.206	63.6485
12.224	63.5343
12.242	63.4704
12.26	63.452
12.278	63.4686
12.296	63.5069
12.314	63.5519
12.332	63.5895
12.35	63.6086
12.368	63.6029
12.386	63.5717
12.404	63.5213
12.422	63.4631
12.44	63.4106
12.458	63.376
12.476	63.3671
12.494	63.3849
12.512	63.4238
12.53	63.4738
12.548	63.5235
12.566	63.5639
12.584	63.5896
12.602	63.6007
12.62	63.6012
12.638	63.5975
12.656	63.5954
12.674	63.5996
12.692	63.6129
12.71	63.6351
12.728	63.6641
12.746	63.6968
12.764	63.7292
12.782	63.7572
12.8	63.7762
12.818	63.7822
12.836	63.7726
12.854	63.7471
12.872	63.7078
12.89	63.6593
12.908	63.6082
12.926	63.5615
12.944	63.5253
12.962	63.5039
12.98	63.4982
12.998	63.5059
13.016	63.5219
13.034	63.5394
13.052	63.5516
13.07	63.5532
13.088	63.5419
13.106	63.5185
13.124	63.487
13.142	63.4523
13.16	63.419
13.178	63.3897
13.196	63.3642
13.214	63.34
13.232	63.3127
13.25	63.2782
13.268	63.2346
13.286	63.1826
13.304	63.1261
13.322	63.0708
13.34	63.0225
13.358	62.9845
13.376	62.9568
13.394	62.9352
13.412	62.9126
13.43	62.8814
13.448	62.8359
13.466	62.7742
13.484	62.6997
13.502	62.62
13.52	62.5454
13.538	62.4867
13.556	62.4529
13.574	62.4491
13.592	62.476
13.61	62.5301
13.628	62.6048
13.646	62.6921
13.664	62.7843
13.682	62.875
13.7	62.9603
13.718	63.038
13.736	63.1076
13.754	63.1694
13.772	63.2232
13.79	63.2684
13.808	63.3033
13.826	63.3264
13.844	63.3361
13.862	63.3317
13.88	63.3134
13.898	63.2833
13.916	63.2448
13.934	63.2018
13.952	63.1588
13.97	63.1199
13.988	63.0885
14.006	63.0665
14.024	63.0547
14.042	63.0524
14.06	63.0578
14.078	63.0689
14.096	63.083
14.114	63.0978
14.132	63.1111
14.15	63.1208
14.168	63.1251
14.186	63.1227
14.204	63.112
14.222	63.0923
14.24	63.0635
14.258	63.0268
14.276	62.9837
14.294	62.9364
14.312	62.8885
14.33	62.8437
14.348	62.8062
14.366	62.7794
14.384	62.7659
14.402	62.7673
14.42	62.7838
14.438	62.8139
14.456	62.8549
14.474	62.9031
14.492	62.9542
14.51	63.0031
14.528	63.0455
14.546	63.0774
14.564	63.096
14.582	63.0997
14.6	63.0882
14.618	63.0628
14.636	63.0265
14.654	62.983
14.672	62.9367
14.69	62.8918
14.708	62.8521
14.726	62.8203
14.744	62.7972
14.762	62.7821
14.78	62.773
14.798	62.7667
14.816	62.7598
14.834	62.7486
14.852	62.7303
14.87	62.7036
14.888	62.6683
14.906	62.6255
14.924	62.5769
14.942	62.5257
14.96	62.4744
14.978	62.4254
14.996	62.3804
15.014	62.3404
15.032	62.3058
15.05	62.2764
15.068	62.2521
15.086	62.2332
15.104	62.2198
15.122	62.2126
15.14	62.2123
15.158	62.2191
15.176	62.2332
15.194	62.2538
15.212	62.2794
15.23	62.3077
15.248	62.3368
15.266	62.3645
15.284	62.3888
15.302	62.4091
15.32	62.4254
15.338	62.4381
15.356	62.4485
15.374	62.4588
15.392	62.4706
15.41	62.4852
15.428	62.5037
15.446	62.5258
15.464	62.5507
15.482	62.577
15.5	62.6025
15.518	62.6244
15.536	62.6402
15.554	62.6481
15.572	62.6466
15.59	62.6346
15.608	62.6122
15.626	62.5801
15.644	62.5391
15.662	62.4911
15.68	62.4379
15.698	62.3812
15.716	62.3233
15.734	62.266
15.752	62.2108
15.77	62.1593
15.788	62.1129
15.806	62.0725
15.824	62.0388
15.842	62.0126
15.86	61.994
15.878	61.9834
15.896	61.9807
15.914	61.9862
15.932	61.9994
15.95	62.0198
15.968	62.0465
15.986	62.078
16.004	62.1127
16.022	62.1491
16.04	62.1842
16.058	62.2159
16.076	62.2424
16.094	62.2614
16.112	62.272
16.13	62.2737
16.148	62.2665
16.166	62.2518
16.184	62.2314
16.202	62.2073
16.22	62.1827
16.238	62.1597
16.256	62.1405
16.274	62.1266
16.292	62.1179
16.31	62.1141
16.328	62.1131
16.346	62.1122
16.364	62.1095
16.382	62.101
16.4	62.0845
16.418	62.0582
16.436	62.0207
16.454	61.973
16.472	61.9157
16.49	61.8517
16.508	61.7838
16.526	61.7144
16.544	61.6475
16.562	61.5856
16.58	61.5305
16.598	61.4842
16.616	61.4468
16.634	61.4184
16.652	61.398
16.67	61.3845
16.688	61.377
16.706	61.3739
16.724	61.3745
16.742	61.3781
16.76	61.3841
16.778	61.3922
16.796	61.4023
16.814	61.4139
16.832	61.4267
16.85	61.4402
16.868	61.4529
16.886	61.4637
16.904	61.4709
16.922	61.4736
16.94	61.4705
16.958	61.4612
16.976	61.4461
16.994	61.4258
17.012	61.4025
17.03	61.3775
17.048	61.3545
17.066	61.3356
17.084	61.3238
17.102	61.322
17.12	61.3312
17.138	61.3533
17.156	61.3877
17.174	61.4342
17.192	61.4902
17.21	61.5543
17.228	61.6229
17.246	61.693
17.264	61.7624
17.282	61.8274
17.3	61.8869
17.318	61.9387
17.336	61.9825
17.354	62.0176
17.372	62.045
17.39	62.0651
17.408	62.0791
17.426	62.0883
17.444	62.0936
17.462	62.0958
17.48	62.0951
17.498	62.092
17.516	62.0858
17.534	62.0762
17.552	62.0622
17.57	62.0437
17.588	62.0194
17.606	61.9893
17.624	61.9529
17.642	61.9105
17.66	61.8624
17.678	61.8097
17.696	61.7532
17.714	61.695
17.732	61.6367
17.75	61.58
17.768	61.5276
17.786	61.4807
17.804	61.4421
17.822	61.4123
17.84	61.3936
17.858	61.3859
17.876	61.3901
17.894	61.4056
17.912	61.4323
17.93	61.4684
17.948	61.5132
17.966	61.5635
17.984	61.6182
18.002	61.674
18.02	61.7285
18.038	61.7794
18.056	61.8231
18.074	61.8583
18.092	61.8815
18.11	61.8924
18.128	61.8884
18.146	61.8696
18.164	61.8351
18.182	61.7857
18.2	61.7216
18.218	61.6448
18.236	61.5561
18.254	61.4591
18.272	61.3544
18.29	61.2468
18.308	61.1369
18.326	61.0295
18.344	60.9252
18.362	60.8282
18.38	60.7392
18.398	60.6609
18.416	60.5939
18.434	60.5399
18.452	60.4985
18.47	60.4704
18.488	60.4542
18.506	60.4495
18.524	60.4541
18.542	60.4677
18.56	60.4865
18.578	60.5103
18.596	60.5357
18.614	60.5626
18.632	60.5881
18.65	60.6122
18.668	60.6336
18.686	60.6524
18.704	60.6684
18.722	60.6817
18.74	60.6934
18.758	60.7036
18.776	60.7137
18.794	60.7237
18.812	60.7346
18.83	60.7465
18.848	60.7597
18.866	60.7736
18.884	60.7878
18.902	60.8014
18.92	60.813
18.938	60.8216
18.956	60.8255
18.974	60.8239
18.992	60.8152
19.01	60.7988
19.028	60.7735
19.046	60.7394
19.064	60.6961
19.082	60.6443
19.1	60.5847
19.118	60.5186
19.136	60.448
19.154	60.3743
19.172	60.3007
19.19	60.228
19.208	60.1605
19.226	60.0987
19.244	60.0466
19.262	60.0043
19.28	59.9754
19.298	59.9593
19.316	59.9583
19.334	59.9718
19.352	59.9997
19.37	60.0419
19.388	60.0964
19.406	60.1632
19.424	60.2385
19.442	60.3225
19.46	60.4102
19.478	60.5016
19.496	60.5919
19.514	60.6801
19.532	60.7627
19.55	60.8376
19.568	60.9033
19.586	60.9569
19.604	60.9985
19.622	61.0256
19.64	61.0388
19.658	61.0375
19.676	61.0218
19.694	60.993
19.712	60.9508
19.73	60.8982
19.748	60.835
19.766	60.7647
19.784	60.6877
19.802	60.6073
19.82	60.5251
19.838	60.4428
19.856	60.3636
19.874	60.2877
19.892	60.219
19.91	60.1572
19.928	60.106
19.946	60.065
19.964	60.0367
19.982	60.0213
20	60.0194
20.018	60.0317
20.036	60.0576
20.054	60.0972
20.072	60.1498
20.09	60.214
20.108	60.2899
20.126	60.3738
20.144	60.4663
20.162	60.5633
20.18	60.6639
20.198	60.7659
20.216	60.8658
20.234	60.9639
20.252	61.0558
20.27	61.1421
20.288	61.2197
20.306	61.2882
20.324	61.3468
20.342	61.3943
20.36	61.4314
20.378	61.458
20.396	61.4743
20.414	61.4819
20.432	61.4804
20.45	61.4724
20.468	61.4586
20.486	61.4401
20.504	61.419
20.522	61.3949
20.54	61.3699
20.558	61.344
20.576	61.3175
20.594	61.2908
20.612	61.2634
20.63	61.2355
20.648	61.207
20.666	61.1766
20.684	61.1444
20.702	61.1096
20.72	61.0717
20.738	61.0307
20.756	60.9856
20.774	60.9366
20.792	60.884
20.81	60.8276
20.828	60.7681
20.846	60.7061
20.864	60.6415
20.882	60.5764
20.9	60.5105
20.918	60.4449
20.936	60.3805
20.954	60.3172
20.972	60.2558
20.99	60.1964
21.008	60.1385
21.026	60.0826
21.044	60.028
21.062	59.974
21.08	59.921
21.098	59.8671
21.116	59.8123
21.134	59.756
21.152	59.6965
21.17	59.6341
21.188	59.5677
21.206	59.4968
21.224	59.4217
21.242	59.3418
21.26	59.2573
21.278	59.1686
21.296	59.0754
21.314	58.9784
21.332	58.8784
21.35	58.7751
21.368	58.6701
21.386	58.5633
21.404	58.4555
21.422	58.3487
21.44	58.2422
21.458	58.1374
21.476	58.0344
21.494	57.9336
21.512	57.8367
21.53	57.743
21.548	57.6542
21.566	57.571
21.584	57.4934
21.602	57.4244
21.62	57.3634
21.638	57.3119
21.656	57.2721
21.674	57.243
21.692	57.2274
21.71	57.226
21.728	57.2387
21.746	57.2679
21.764	57.3133
21.782	57.3749
21.8	57.4535
21.818	57.5487
21.836	57.6585
21.854	57.7839
21.872	57.9225
21.89	58.0704
21.908	58.2296
21.926	58.3941
21.944	58.5606
21.962	58.7305
21.98	58.8944
21.998	59.0531
22.016	59.2039
22.034	59.3389
22.052	59.4611
22.07	59.565
22.088	59.6462
22.106	59.707
22.124	59.7428
22.142	59.7524
22.16	59.7368
22.178	59.6953
22.196	59.6267
22.214	59.5339
22.232	59.4192
22.25	59.281
22.268	59.1248
22.286	58.9529
22.304	58.7642
22.322	58.5665
22.34	58.36
22.358	58.1458
22.376	57.9312
22.394	57.7145
22.412	57.4985
22.43	57.2886
22.448	57.0827
22.466	56.8834
22.484	56.6933
22.502	56.5112
22.52	56.3381
22.538	56.1748
22.556	56.0207
22.574	55.8748
22.592	55.7375
22.61	55.6081
22.628	55.4842
22.646	55.3666
22.664	55.2541
22.682	55.1442
22.7	55.0378
22.718	54.9339
22.736	54.8308
22.754	54.7293
22.772	54.6282
22.79	54.5262
22.808	54.4238
22.826	54.3206
22.844	54.2161
22.862	54.1104
22.88	54.0049
22.898	53.8996
22.916	53.7944
22.934	53.6919
22.952	53.5928
22.97	53.4966
22.988	53.4042
23.006	53.3157
23.024	53.231
23.042	53.1509
23.06	53.0754
23.078	53.0045
23.096	52.9392
23.114	52.8795
23.132	52.8254
23.15	52.778
23.168	52.7377
23.186	52.7038
23.204	52.675
23.222	52.6511
23.24	52.6324
23.258	52.6183
23.276	52.6083
23.294	52.6032
23.312	52.6038
23.33	52.6096
23.348	52.6212
23.366	52.6405
23.384	52.6674
23.402	52.7019
23.42	52.7461
23.438	52.7997
23.456	52.8629
23.474	52.9371
23.492	53.0227
23.51	53.1192
23.528	53.2269
23.546	53.3466
23.564	53.4776
23.582	53.618
23.6	53.7678
23.618	53.9275
23.636	54.0926
23.654	54.2618
23.672	54.437
23.69	54.6122
23.708	54.7839
23.726	54.9556
23.744	55.121
23.762	55.2746
23.78	55.4203
23.798	55.5537
23.816	55.6694
23.834	55.7699
23.852	55.8534
23.87	55.9167
23.888	55.9603
23.906	55.9843
23.924	55.9875
23.942	55.9695
23.96	55.9309
23.978	55.8721
23.996	55.7923
24.014	55.6917
24.032	55.5746
24.05	55.4434
24.068	55.2956
24.086	55.1357
24.104	54.9684
24.122	54.7911
24.14	54.6057
24.158	54.4152
24.176	54.2204
24.194	54.0195
24.212	53.8109
24.23	53.5948
24.248	53.3715
24.266	53.1381
24.284	52.8941
24.302	52.6418
24.32	52.3749
24.338	52.0882
24.356	51.787
24.374	51.4652
24.392	51.1131
24.41	50.7343
24.428	50.3274
24.446	49.8814
24.464	49.3911
24.482	48.862
24.5	48.2896
24.518	47.6699
24.536	47.005
24.554	46.295
24.572	45.5393
24.59	44.7371
24.608	43.8899
24.626	42.9998
24.644	42.0666
24.662	41.0886
24.68	40.0737
24.698	39.0287
24.716	37.9464
24.734	36.8347
24.752	35.7066
24.77	34.5589
24.788	33.3906
24.806	32.2198
24.824	31.0576
24.842	29.891
24.86	28.7353
24.878	27.6095
24.896	26.5052
24.914	25.4252
24.932	24.3897
24.95	23.4079
24.968	22.4666
24.986	21.5827
25.004	20.7741
25.022	20.0336
25.04	19.3622
25.058	18.7707
25.076	18.2664
25.094	17.8436
25.112	17.4997
25.13	17.2327
25.148	17.0472
25.166	16.9377
25.184	16.8943
25.202	16.9149
25.22	17.0063
25.238	17.1531
25.256	17.3397
25.274	17.5743
25.292	17.8534
25.31	18.162
25.328	18.4914
25.346	18.8516
25.364	19.2332
25.382	19.6245
25.4	20.0254
25.418	20.4392
25.436	20.8638
25.454	21.2965
25.472	21.7355
25.49	22.1863
25.508	22.6551
25.526	23.1413
25.544	23.6418
25.562	24.1659
25.58	24.7221
25.598	25.3041
25.616	25.9148
25.634	26.5629
25.652	27.2541
25.67	27.9826
25.688	28.7513
25.706	29.5645
25.724	30.4236
25.742	31.3263
25.76	32.2715
25.778	33.2587
25.796	34.2904
25.814	35.3637
25.832	36.4735
25.85	37.617
25.868	38.7982
25.886	40.0129
25.904	41.2556
25.922	42.5272
25.94	43.8305
25.958	45.1563
25.976	46.4955
25.994	47.851
26.012	49.2238
26.03	50.6075
26.048	51.9957
26.066	53.3878
26.084	54.7885
26.102	56.203
26.12	57.6336
26.138	59.0744
26.156	60.5321
26.174	62.015
26.192	63.5242
26.21	65.0533
26.228	66.6122
26.246	68.2109
26.264	69.8515
26.282	71.5288
26.3	73.2439
26.318	74.9978
26.336	76.8001
26.354	78.6432
26.372	80.5092
26.39	82.3826
26.408	84.2823
26.426	86.1977
26.444	88.102
26.462	89.9753
26.48	91.8501
26.498	93.7019
26.516	95.489
26.534	97.181
26.552	98.8105
26.57	100.363
26.588	101.811
26.606	103.136
26.624	104.351
26.642	105.461
26.66	106.47
26.678	107.374
26.696	108.16
26.714	108.856
26.732	109.492
26.75	110.074
26.768	110.564
26.786	111.016
26.804	111.494
26.822	112.022
26.84	112.544
26.858	113.111
26.876	113.777
26.894	114.57
26.912	115.447
26.93	116.432
26.948	117.554
26.966	118.927
26.984	120.671
27.002	122.431
27.02	123.826
27.028	124.189