File: Bakgrunnsmateriale/MATLAB/FTIR/ftir_data/subBb/Mapping_121/C-4040-8_t33.asc
PE IR       SPECTRUM    SPECTRUM    ASCII       PEDS        1.60
  -1
C-A136~1.ASC
17/03/27
17:10:59.00
17/03/27
17:11:25.00
tln
$C-4040-8_t0033$<tbV0>[-13.0,-7.8,8.0,0.0,27,1,0]
27.028
64

2002,4.07
MIRTGS : RIGHTBACK : INTERNAL 2
MIR : ON : INTERNAL 2
OPTKBR

0.200000
8
8.000000
FILLER
RATIO
SPECTRUM
UNLOCKED 256

DOUBLE
64
COMBINED
1
0
0

0.002000
RATIO

1
0
TRUE
51149
0
LEFT NOT FITTED RIGHT NOT FITTED 0
NONE
NONE
15600
12
4.427000
51148
TRUE
1 0 8 72 0 0 0 0

15798

#HDR
-1
-1
#GR
µM
%T
2.38419e-05
0.0
2.000000
0.002000
12515
8
89.6919
33.0258
#DATA
2.000000	 64.6348
2.018000	 64.5039
2.036000	 65.5511
2.054000	 65.1351
2.072000	 65.2438
2.090000	 64.6554
2.108000	 64.9464
2.126000	 64.972
2.144000	 64.757
2.162000	 64.9018
2.180000	 64.8051
2.198000	 64.9685
2.216000	 65.2159
2.234000	 65.0823
2.252000	 64.8231
2.270000	 64.9207
2.288000	 69.3434
2.306000	 64.7008
2.324000	 65.2544
2.342000	 65.3319
2.360000	 65.0789
2.378000	 64.7537
2.396000	 65.2876
2.414000	 65.1625
2.432000	 64.7947
2.450000	 65.2178
2.468000	 64.7955
2.486000	 65.0523
2.504000	 65.0871
2.522000	 65.1672
2.540000	 64.9771
2.558000	 65.1216
2.576000	 65.3519
2.594000	 65.3294
2.612000	 64.889
2.630000	 65.2513
2.648000	 65.0267
2.666000	 65.2511
2.684000	 65.2168
2.702000	 65.3317
2.720000	 65.0948
2.738000	 65.0835
2.756000	 65.0504
2.774000	 65.0434
2.792000	 65.1011
2.810000	 65.0067
2.828000	 65.198
2.846000	 65.0814
2.864000	 64.985
2.882000	 65.0268
2.900000	 65.1365
2.918000	 65.2538
2.936000	 65.1327
2.954000	 65.0516
2.972000	 65.0898
2.990000	 65.1444
3.008000	 65.2185
3.026000	 64.9569
3.044000	 65.2707
3.062000	 65.1558
3.080000	 65.3668
3.098000	 65.1311
3.116000	 65.1966
3.134000	 65.3264
3.152000	 65.2539
3.170000	 65.091
3.188000	 64.9808
3.206000	 65.0631
3.224000	 65.2614
3.242000	 65.2279
3.260000	 65.1903
3.278000	 65.2317
3.296000	 65.3012
3.314000	 65.0655
3.332000	 65.2249
3.350000	 65.0938
3.368000	 65.3922
3.386000	 65.0379
3.404000	 64.9266
3.422000	 64.773
3.440000	 64.9989
3.458000	 65.1416
3.476000	 65.1274
3.494000	 64.9664
3.512000	 64.9848
3.530000	 65.1053
3.548000	 65.2687
3.566000	 65.128
3.584000	 65.3018
3.602000	 65.3316
3.620000	 65.1432
3.638000	 65.2907
3.656000	 65.12
3.674000	 65.0718
3.692000	 65.2317
3.710000	 65.2977
3.728000	 65.2364
3.746000	 65.3036
3.764000	 65.1751
3.782000	 65.185
3.800000	 65.2288
3.818000	 65.1861
3.836000	 65.3182
3.854000	 65.2834
3.872000	 65.2305
3.890000	 65.1531
3.908000	 65.1916
3.926000	 65.3253
3.944000	 65.2969
3.962000	 65.4642
3.980000	 65.2808
3.998000	 65.2794
4.016000	 65.1848
4.034000	 65.3514
4.052000	 65.2389
4.070000	 65.274
4.088000	 65.3681
4.106000	 65.1952
4.124000	 65.2088
4.141999	 65.5236
4.160000	 65.2995
4.178000	 65.2984
4.196000	 65.4127
4.214000	 65.3496
4.232000	 65.2978
4.250000	 65.2347
4.268000	 65.2479
4.286000	 65.3689
4.304000	 65.3093
4.322000	 65.3211
4.340000	 65.3691
4.358000	 65.3
4.375999	 65.3878
4.394000	 65.3372
4.412000	 65.3202
4.430000	 65.3791
4.448000	 65.3895
4.466000	 65.3156
4.484000	 65.3721
4.502000	 65.3224
4.520000	 65.4169
4.538000	 65.4306
4.556000	 65.4277
4.574000	 65.3952
4.592000	 65.456
4.609999	 65.3222
4.628000	 65.2284
4.646000	 65.1484
4.664000	 65.3704
4.682000	 65.3575
4.700000	 65.3813
4.718000	 65.3723
4.736000	 65.387
4.754000	 65.3664
4.772000	 65.44
4.790000	 65.5303
4.808000	 65.4417
4.826000	 65.2361
4.843999	 65.459
4.862000	 65.659
4.880000	 65.3819
4.898000	 65.2583
4.916000	 65.2667
4.934000	 65.3677
4.952000	 65.492
4.970000	 65.405
4.988000	 65.4181
5.006000	 65.4163
5.024000	 65.4729
5.042000	 65.3695
5.060000	 65.3572
5.077999	 65.2647
5.096000	 65.358
5.114000	 65.3914
5.132000	 65.2229
5.150000	 65.2242
5.168000	 65.3078
5.186000	 65.397
5.204000	 65.3597
5.222000	 65.2679
5.240000	 65.3377
5.258000	 65.3082
5.276000	 65.3471
5.294000	 65.3004
5.312000	 65.3193
5.330000	 65.2812
5.348000	 65.2896
5.366000	 65.3805
5.384000	 65.389
5.402000	 65.3065
5.420000	 65.2575
5.438000	 65.3224
5.456000	 65.3767
5.474000	 65.3588
5.492000	 65.3415
5.510000	 65.2734
5.528000	 65.2129
5.546000	 65.2424
5.564000	 65.2937
5.582000	 65.3373
5.600000	 65.3095
5.618000	 65.2273
5.636000	 65.2936
5.654000	 65.3589
5.672000	 65.3908
5.690000	 65.3642
5.708000	 65.3616
5.726000	 65.2524
5.744000	 65.1862
5.762000	 65.1357
5.780000	 64.9769
5.798000	 65.0115
5.816000	 65.0827
5.834000	 65.1476
5.852000	 65.2074
5.870000	 65.2309
5.888000	 65.1682
5.906000	 65.1373
5.923999	 65.1946
5.942000	 65.236
5.960000	 65.3011
5.978000	 65.2599
5.996000	 65.1747
6.014000	 65.2199
6.032000	 65.2168
6.050000	 65.1607
6.068000	 65.1733
6.086000	 65.2157
6.104000	 65.3042
6.122000	 65.2691
6.140000	 65.1183
6.158000	 65.0691
6.176000	 65.0836
6.194000	 65.1381
6.212000	 65.2239
6.230000	 65.2446
6.248000	 65.209
6.266000	 65.2222
6.284000	 65.2185
6.302000	 65.1637
6.320000	 65.1026
6.338000	 65.0559
6.356000	 65.028
6.374000	 65.0347
6.392000	 65.0771
6.410000	 65.1361
6.428000	 65.1256
6.446000	 65.1225
6.464000	 65.1226
6.482000	 65.0799
6.500000	 65.0717
6.518000	 65.0887
6.536000	 65.1201
6.554000	 65.183
6.572000	 65.2011
6.590000	 65.1352
6.608000	 65.1083
6.626000	 65.1361
6.644000	 65.1389
6.662000	 65.1366
6.680000	 65.1406
6.698000	 65.1365
6.716000	 65.1804
6.734000	 65.2394
6.752000	 65.1781
6.770000	 65.0439
6.788000	 64.9856
6.806000	 65.0192
6.824000	 65.074
6.842000	 65.0983
6.860000	 65.1155
6.878000	 65.1416
6.896000	 65.1687
6.914000	 65.2074
6.932000	 65.2079
6.950000	 65.1761
6.968000	 65.189
6.986000	 65.1836
7.004000	 65.1141
7.022000	 65.1017
7.040000	 65.1609
7.058000	 65.1987
7.076000	 65.1992
7.094000	 65.1335
7.112000	 65.0106
7.130000	 64.9634
7.148000	 65.0165
7.166000	 65.052
7.184000	 65.0423
7.202000	 65.0207
7.220000	 64.9788
7.238000	 64.9521
7.256000	 64.991
7.274000	 65.0309
7.292000	 65.0035
7.310000	 64.9669
7.328000	 64.9948
7.346000	 65.0678
7.364000	 65.1297
7.382000	 65.1512
7.400000	 65.1329
7.418000	 65.1078
7.436000	 65.121
7.454000	 65.1925
7.472000	 65.2862
7.490000	 65.3138
7.508000	 65.2325
7.526000	 65.1181
7.544000	 65.0611
7.562000	 65.0757
7.580000	 65.1242
7.598000	 65.1575
7.616000	 65.1599
7.634000	 65.155
7.652000	 65.138
7.670000	 65.0858
7.688000	 65.0238
7.706000	 64.9996
7.724000	 65.0288
7.742000	 65.08
7.760000	 65.1064
7.778000	 65.0978
7.796000	 65.0845
7.814000	 65.0909
7.832000	 65.1134
7.850000	 65.1446
7.868000	 65.1816
7.886000	 65.213
7.904000	 65.221
7.922000	 65.1976
7.940000	 65.1559
7.958000	 65.1287
7.976000	 65.1424
7.994000	 65.1807
8.012000	 65.1937
8.030000	 65.1486
8.048000	 65.0666
8.065999	 64.9973
8.084000	 64.9697
8.102000	 64.9745
8.120000	 64.9846
8.138000	 64.9856
8.155999	 64.9937
8.173999	 65.0375
8.192000	 65.1131
8.210000	 65.1713
8.228000	 65.1697
8.246000	 65.1216
8.263999	 65.0708
8.282000	 65.0372
8.300000	 65.0169
8.318000	 65.015
8.336000	 65.0409
8.353999	 65.0742
8.372000	 65.071
8.390000	 65.0077
8.408000	 64.9083
8.426000	 64.8263
8.443999	 64.8075
8.462000	 64.8614
8.480000	 64.9555
8.498000	 65.0354
8.516000	 65.0655
8.533999	 65.0524
8.552000	 65.0266
8.570000	 65.0045
8.588000	 64.9743
8.606000	 64.9224
8.624000	 64.8676
8.641999	 64.853
8.660000	 64.8982
8.678000	 64.9755
8.696000	 65.04
8.714000	 65.0713
8.731999	 65.0691
8.750000	 65.0337
8.768000	 64.9696
8.786000	 64.9085
8.804000	 64.8957
8.821999	 64.9466
8.840000	 65.0203
8.858000	 65.0609
8.876000	 65.0566
8.894000	 65.0392
8.911999	 65.0318
8.930000	 65.0181
8.948000	 64.9646
8.966000	 64.8629
8.984000	 64.7624
9.001999	 64.7467
9.020000	 64.8619
9.038000	 65.058
9.056000	 65.2104
9.074000	 65.2122
9.092000	 65.0528
9.109999	 64.8188
9.128000	 64.6347
9.146000	 64.6053
9.164000	 64.7672
9.182000	 65.0569
9.199999	 65.3289
9.218000	 65.4462
9.236000	 65.3752
9.254000	 65.2068
9.272000	 65.0789
9.289999	 65.0735
9.308000	 65.1677
9.326000	 65.2666
9.344000	 65.2769
9.362000	 65.1668
9.379999	 64.9811
9.398000	 64.8059
9.416000	 64.6993
9.434000	 64.6545
9.452000	 64.6158
9.469999	 64.5389
9.488000	 64.4371
9.506000	 64.3702
9.524000	 64.3923
9.542000	 64.5007
9.560000	 64.639
9.577999	 64.7483
9.596000	 64.8153
9.614000	 64.8736
9.632000	 64.961
9.650000	 65.0766
9.667999	 65.1793
9.686000	 65.2217
9.704000	 65.1896
9.722000	 65.1142
9.740000	 65.0502
9.757999	 65.0395
9.776000	 65.085
9.794000	 65.1478
9.812000	 65.1714
9.830000	 65.1178
9.847999	 64.9894
9.866000	 64.826
9.884000	 64.6768
9.902000	 64.5742
9.920000	 64.5227
9.937999	 64.5069
9.956000	 64.5099
9.974000	 64.521
9.992000	 64.5348
10.01	64.5478
10.028	64.5615
10.046	64.5853
10.064	64.6325
10.082	64.7114
10.1	64.8179
10.118	64.9347
10.136	65.0373
10.154	65.1038
10.172	65.122
10.19	65.0938
10.208	65.0356
10.226	64.9699
10.244	64.9184
10.262	64.8906
10.28	64.8803
10.298	64.8724
10.316	64.8513
10.334	64.811
10.352	64.7552
10.37	64.6941
10.388	64.6391
10.406	64.6005
10.424	64.5889
10.442	64.6114
10.46	64.6677
10.478	64.7459
10.496	64.8239
10.514	64.8806
10.532	64.9049
10.55	64.8983
10.568	64.8704
10.586	64.8314
10.604	64.7864
10.622	64.7392
10.64	64.6964
10.658	64.6685
10.676	64.6643
10.694	64.6828
10.712	64.7107
10.73	64.7291
10.748	64.7245
10.766	64.6982
10.784	64.6656
10.802	64.6496
10.82	64.6683
10.838	64.728
10.856	64.8213
10.874	64.9291
10.892	65.0278
10.91	65.094
10.928	65.1118
10.946	65.0772
10.964	65.0009
10.982	64.9055
11	64.8146
11.018	64.7457
11.036	64.7013
11.054	64.6713
11.072	64.6414
11.09	64.6016
11.108	64.553
11.126	64.5066
11.144	64.4763
11.162	64.4711
11.18	64.4908
11.198	64.5263
11.216	64.5657
11.234	64.5995
11.252	64.6225
11.27	64.634
11.288	64.6358
11.306	64.6295
11.324	64.6169
11.342	64.6003
11.36	64.5835
11.378	64.5709
11.396	64.5653
11.414	64.5676
11.432	64.5762
11.45	64.5893
11.468	64.6069
11.486	64.6322
11.504	64.6691
11.522	64.7196
11.54	64.7802
11.558	64.8425
11.576	64.895
11.594	64.9289
11.612	64.9409
11.63	64.9352
11.648	64.9198
11.666	64.9031
11.684	64.89
11.702	64.8805
11.72	64.8707
11.738	64.8562
11.756	64.8342
11.774	64.8051
11.792	64.7712
11.81	64.7342
11.828	64.6946
11.846	64.6522
11.864	64.6077
11.882	64.5645
11.9	64.529
11.918	64.5088
11.936	64.5094
11.954	64.5309
11.972	64.5668
11.99	64.6043
12.008	64.6281
12.026	64.626
12.044	64.5927
12.062	64.5344
12.08	64.4669
12.098	64.4094
12.116	64.3781
12.134	64.3781
12.152	64.4024
12.17	64.4352
12.188	64.4581
12.206	64.4575
12.224	64.4293
12.242	64.379
12.26	64.3173
12.278	64.2578
12.296	64.2108
12.314	64.1824
12.332	64.1734
12.35	64.1802
12.368	64.1967
12.386	64.2165
12.404	64.2346
12.422	64.2476
12.44	64.2535
12.458	64.2521
12.476	64.2439
12.494	64.2311
12.512	64.2168
12.53	64.2056
12.548	64.2027
12.566	64.2128
12.584	64.2385
12.602	64.2793
12.62	64.3307
12.638	64.3858
12.656	64.4364
12.674	64.4755
12.692	64.4989
12.71	64.5072
12.728	64.5042
12.746	64.4964
12.764	64.4895
12.782	64.4869
12.8	64.488
12.818	64.489
12.836	64.4839
12.854	64.4669
12.872	64.435
12.89	64.3889
12.908	64.3329
12.926	64.274
12.944	64.2197
12.962	64.1765
12.98	64.1484
12.998	64.136
13.016	64.138
13.034	64.1514
13.052	64.1728
13.07	64.199
13.088	64.2267
13.106	64.2524
13.124	64.2718
13.142	64.2806
13.16	64.2746
13.178	64.251
13.196	64.2096
13.214	64.1531
13.232	64.0873
13.25	64.0202
13.268	63.9603
13.286	63.9151
13.304	63.8896
13.322	63.8855
13.34	63.9009
13.358	63.9311
13.376	63.97
13.394	64.0109
13.412	64.0485
13.43	64.0792
13.448	64.1013
13.466	64.1148
13.484	64.121
13.502	64.1213
13.52	64.1169
13.538	64.1091
13.556	64.099
13.574	64.0876
13.592	64.0758
13.61	64.0649
13.628	64.056
13.646	64.0497
13.664	64.046
13.682	64.0439
13.7	64.0421
13.718	64.0387
13.736	64.0327
13.754	64.0238
13.772	64.0131
13.79	64.003
13.808	63.9967
13.826	63.9976
13.844	64.0075
13.862	64.0265
13.88	64.052
13.898	64.0794
13.916	64.103
13.934	64.1175
13.952	64.1189
13.97	64.1056
13.988	64.0792
14.006	64.0437
14.024	64.0054
14.042	63.9709
14.06	63.9457
14.078	63.9337
14.096	63.9361
14.114	63.9519
14.132	63.9777
14.15	64.0091
14.168	64.041
14.186	64.0684
14.204	64.0874
14.222	64.0955
14.24	64.0914
14.258	64.0753
14.276	64.0487
14.294	64.0137
14.312	63.9732
14.33	63.9305
14.348	63.8886
14.366	63.851
14.384	63.8199
14.402	63.7969
14.42	63.7824
14.438	63.7754
14.456	63.7742
14.474	63.7764
14.492	63.7797
14.51	63.7817
14.528	63.7807
14.546	63.7762
14.564	63.7682
14.582	63.7575
14.6	63.7451
14.618	63.7318
14.636	63.7185
14.654	63.7052
14.672	63.6915
14.69	63.6767
14.708	63.66
14.726	63.6407
14.744	63.6189
14.762	63.5954
14.78	63.572
14.798	63.551
14.816	63.5349
14.834	63.5264
14.852	63.5275
14.87	63.5385
14.888	63.5591
14.906	63.5874
14.924	63.6206
14.942	63.6544
14.96	63.6844
14.978	63.7067
14.996	63.7181
15.014	63.7162
15.032	63.7003
15.05	63.6718
15.068	63.6333
15.086	63.5882
15.104	63.5405
15.122	63.4948
15.14	63.4547
15.158	63.422
15.176	63.3978
15.194	63.3819
15.212	63.3725
15.23	63.3674
15.248	63.3646
15.266	63.3622
15.284	63.3593
15.302	63.3564
15.32	63.3547
15.338	63.356
15.356	63.3626
15.374	63.3767
15.392	63.399
15.41	63.4293
15.428	63.4662
15.446	63.5058
15.464	63.5435
15.482	63.575
15.5	63.595
15.518	63.5991
15.536	63.5853
15.554	63.553
15.572	63.5031
15.59	63.44
15.608	63.3687
15.626	63.2941
15.644	63.2226
15.662	63.1603
15.68	63.1106
15.698	63.0761
15.716	63.0582
15.734	63.0556
15.752	63.0661
15.77	63.0871
15.788	63.1139
15.806	63.1431
15.824	63.1719
15.842	63.1976
15.86	63.219
15.878	63.2361
15.896	63.2495
15.914	63.2609
15.932	63.2724
15.95	63.2854
15.968	63.3018
15.986	63.3224
16.004	63.3472
16.022	63.3755
16.04	63.4057
16.058	63.4356
16.076	63.4631
16.094	63.4855
16.112	63.5007
16.13	63.5076
16.148	63.5052
16.166	63.494
16.184	63.475
16.202	63.4498
16.22	63.4216
16.238	63.3928
16.256	63.3658
16.274	63.3436
16.292	63.3271
16.31	63.3174
16.328	63.3143
16.346	63.3167
16.364	63.3236
16.382	63.3325
16.4	63.3416
16.418	63.3493
16.436	63.3538
16.454	63.3547
16.472	63.3516
16.49	63.3451
16.508	63.336
16.526	63.325
16.544	63.3135
16.562	63.3022
16.58	63.2915
16.598	63.2819
16.616	63.2733
16.634	63.2652
16.652	63.2568
16.67	63.2472
16.688	63.2356
16.706	63.2209
16.724	63.203
16.742	63.1813
16.76	63.1564
16.778	63.1283
16.796	63.098
16.814	63.0664
16.832	63.0342
16.85	63.0028
16.868	62.9728
16.886	62.9449
16.904	62.9202
16.922	62.8989
16.94	62.8816
16.958	62.8692
16.976	62.8617
16.994	62.86
17.012	62.8643
17.03	62.8753
17.048	62.8932
17.066	62.9184
17.084	62.9511
17.102	62.9909
17.12	63.0376
17.138	63.0903
17.156	63.1479
17.174	63.2093
17.192	63.2721
17.21	63.3353
17.228	63.3962
17.246	63.4526
17.264	63.5028
17.282	63.5437
17.3	63.574
17.318	63.5914
17.336	63.5949
17.354	63.5836
17.372	63.5575
17.39	63.5171
17.408	63.4635
17.426	63.3993
17.444	63.326
17.462	63.248
17.48	63.1669
17.498	63.0874
17.516	63.0119
17.534	62.943
17.552	62.8838
17.57	62.835
17.588	62.7984
17.606	62.7738
17.624	62.7614
17.642	62.7596
17.66	62.768
17.678	62.7834
17.696	62.805
17.714	62.8297
17.732	62.856
17.75	62.882
17.768	62.9061
17.786	62.9276
17.804	62.9452
17.822	62.9588
17.84	62.9687
17.858	62.9751
17.876	62.9785
17.894	62.9801
17.912	62.9804
17.93	62.9809
17.948	62.9818
17.966	62.9846
17.984	62.9894
18.002	62.9968
18.02	63.0068
18.038	63.0195
18.056	63.0346
18.074	63.0518
18.092	63.0702
18.11	63.0896
18.128	63.1086
18.146	63.127
18.164	63.1436
18.182	63.1579
18.2	63.169
18.218	63.1767
18.236	63.1807
18.254	63.1811
18.272	63.1779
18.29	63.1719
18.308	63.1631
18.326	63.1523
18.344	63.1397
18.362	63.1263
18.38	63.1121
18.398	63.0975
18.416	63.0825
18.434	63.0673
18.452	63.0512
18.47	63.034
18.488	63.0148
18.506	62.9931
18.524	62.9678
18.542	62.9387
18.56	62.905
18.578	62.8664
18.596	62.8231
18.614	62.7752
18.632	62.7239
18.65	62.6694
18.668	62.6141
18.686	62.5583
18.704	62.5052
18.722	62.4552
18.74	62.4113
18.758	62.374
18.776	62.3459
18.794	62.3269
18.812	62.3187
18.83	62.3207
18.848	62.3331
18.866	62.3551
18.884	62.3857
18.902	62.4238
18.92	62.4676
18.938	62.5159
18.956	62.5663
18.974	62.6177
18.992	62.6679
19.01	62.7157
19.028	62.759
19.046	62.7971
19.064	62.8284
19.082	62.8524
19.1	62.8678
19.118	62.8748
19.136	62.8726
19.154	62.8616
19.172	62.8417
19.19	62.8133
19.208	62.777
19.226	62.7334
19.244	62.6839
19.262	62.6288
19.28	62.5702
19.298	62.5082
19.316	62.4452
19.334	62.3813
19.352	62.3187
19.37	62.2574
19.388	62.1994
19.406	62.1448
19.424	62.0947
19.442	62.0492
19.46	62.0088
19.478	61.9735
19.496	61.943
19.514	61.9174
19.532	61.8959
19.55	61.8783
19.568	61.864
19.586	61.8524
19.604	61.8431
19.622	61.8352
19.64	61.8287
19.658	61.8227
19.676	61.8175
19.694	61.8124
19.712	61.8076
19.73	61.8029
19.748	61.7983
19.766	61.7936
19.784	61.7888
19.802	61.7837
19.82	61.7784
19.838	61.7726
19.856	61.766
19.874	61.7586
19.892	61.75
19.91	61.7403
19.928	61.7293
19.946	61.7169
19.964	61.7034
19.982	61.6888
20	61.6737
20.018	61.6582
20.036	61.6429
20.054	61.6287
20.072	61.6156
20.09	61.6051
20.108	61.5969
20.126	61.5924
20.144	61.5916
20.162	61.595
20.18	61.6031
20.198	61.6158
20.216	61.6332
20.234	61.6552
20.252	61.6813
20.27	61.7116
20.288	61.7447
20.306	61.7809
20.324	61.8187
20.342	61.8575
20.36	61.8968
20.378	61.935
20.396	61.9724
20.414	62.0071
20.432	62.0394
20.45	62.0682
20.468	62.093
20.486	62.1138
20.504	62.1303
20.522	62.1425
20.54	62.1508
20.558	62.1549
20.576	62.1559
20.594	62.1541
20.612	62.1499
20.63	62.1448
20.648	62.1385
20.666	62.1329
20.684	62.1279
20.702	62.1244
20.72	62.1234
20.738	62.1248
20.756	62.1292
20.774	62.1367
20.792	62.1473
20.81	62.1611
20.828	62.1777
20.846	62.1963
20.864	62.2171
20.882	62.2386
20.9	62.2611
20.918	62.2832
20.936	62.3039
20.954	62.3232
20.972	62.3393
20.99	62.3524
21.008	62.3616
21.026	62.3661
21.044	62.3662
21.062	62.3611
21.08	62.3511
21.098	62.3366
21.116	62.3174
21.134	62.2942
21.152	62.2681
21.17	62.2386
21.188	62.2081
21.206	62.1765
21.224	62.1446
21.242	62.1146
21.26	62.0857
21.278	62.06
21.296	62.038
21.314	62.0198
21.332	62.0068
21.35	61.9986
21.368	61.9956
21.386	61.9981
21.404	62.0055
21.422	62.0174
21.44	62.0339
21.458	62.0535
21.476	62.0759
21.494	62.1007
21.512	62.1257
21.53	62.1515
21.548	62.1762
21.566	62.1985
21.584	62.2187
21.602	62.2348
21.62	62.2468
21.638	62.2542
21.656	62.256
21.674	62.2524
21.692	62.2435
21.71	62.229
21.728	62.2093
21.746	62.1856
21.764	62.1575
21.782	62.1265
21.8	62.0936
21.818	62.0585
21.836	62.0234
21.854	61.9885
21.872	61.954
21.89	61.9216
21.908	61.8908
21.926	61.8622
21.944	61.8365
21.962	61.8135
21.98	61.7925
21.998	61.774
22.016	61.7572
22.034	61.7406
22.052	61.725
22.07	61.7086
22.088	61.6903
22.106	61.6707
22.124	61.6481
22.142	61.6221
22.16	61.593
22.178	61.56
22.196	61.5229
22.214	61.4823
22.232	61.4385
22.25	61.3911
22.268	61.3417
22.286	61.2911
22.304	61.2388
22.322	61.1877
22.34	61.1379
22.358	61.0897
22.376	61.0456
22.394	61.0052
22.412	60.969
22.43	60.9386
22.448	60.9134
22.466	60.8937
22.484	60.8801
22.502	60.8724
22.52	60.87
22.538	60.8732
22.556	60.8818
22.574	60.8937
22.592	60.9093
22.61	60.9279
22.628	60.9471
22.646	60.967
22.664	60.9874
22.682	61.0069
22.7	61.0256
22.718	61.0436
22.736	61.0607
22.754	61.0769
22.772	61.0924
22.79	61.1075
22.808	61.122
22.826	61.1366
22.844	61.1515
22.862	61.1664
22.88	61.1828
22.898	61.2014
22.916	61.2217
22.934	61.2445
22.952	61.2704
22.97	61.2991
22.988	61.3292
23.006	61.3614
23.024	61.395
23.042	61.4275
23.06	61.459
23.078	61.4893
23.096	61.5156
23.114	61.5384
23.132	61.5571
23.15	61.5687
23.168	61.5736
23.186	61.5714
23.204	61.5594
23.222	61.538
23.24	61.507
23.258	61.465
23.276	61.4116
23.294	61.3476
23.312	61.2733
23.33	61.1882
23.348	61.0932
23.366	60.9902
23.384	60.8785
23.402	60.759
23.42	60.6348
23.438	60.5056
23.456	60.3717
23.474	60.2368
23.492	60.1011
23.51	59.9643
23.528	59.8294
23.546	59.6968
23.564	59.5659
23.582	59.4395
23.6	59.318
23.618	59.2008
23.636	59.0908
23.654	58.9899
23.672	58.8969
23.69	58.8117
23.708	58.7349
23.726	58.667
23.744	58.6048
23.762	58.5459
23.78	58.4922
23.798	58.4408
23.816	58.3881
23.834	58.3362
23.852	58.2831
23.87	58.2255
23.888	58.1653
23.906	58.1006
23.924	58.0262
23.942	57.943
23.96	57.8508
23.978	57.7436
23.996	57.6198
24.014	57.4816
24.032	57.3244
24.05	57.1452
24.068	56.9465
24.086	56.7258
24.104	56.4804
24.122	56.2116
24.14	55.9191
24.158	55.6018
24.176	55.2594
24.194	54.8928
24.212	54.503
24.23	54.0887
24.248	53.6507
24.266	53.1937
24.284	52.7196
24.302	52.2259
24.32	51.7179
24.338	51.2006
24.356	50.6706
24.374	50.1313
24.392	49.5882
24.41	49.0402
24.428	48.4874
24.446	47.9347
24.464	47.3843
24.482	46.8342
24.5	46.286
24.518	45.7416
24.536	45.1996
24.554	44.6611
24.572	44.1273
24.59	43.5969
24.608	43.0708
24.626	42.5531
24.644	42.0451
24.662	41.5444
24.68	41.0553
24.698	40.5814
24.716	40.1203
24.734	39.6736
24.752	39.2447
24.77	38.8333
24.788	38.4386
24.806	38.0639
24.824	37.7118
24.842	37.381
24.86	37.0709
24.878	36.7808
24.896	36.51
24.914	36.2592
24.932	36.0297
24.95	35.8232
24.968	35.6396
24.986	35.4752
25.004	35.3259
25.022	35.1891
25.04	35.0692
25.058	34.9718
25.076	34.8971
25.094	34.8404
25.112	34.8142
25.13	34.8305
25.148	34.8765
25.166	34.9621
25.184	35.1096
25.202	35.3267
25.22	35.5983
25.238	35.947
25.256	36.3965
25.274	36.9349
25.292	37.5652
25.31	38.3073
25.328	39.1735
25.346	40.1518
25.364	41.2472
25.382	42.4668
25.4	43.817
25.418	45.29
25.436	46.872
25.454	48.5558
25.472	50.3603
25.49	52.2585
25.508	54.2162
25.526	56.2346
25.544	58.329
25.562	60.454
25.58	62.5677
25.598	64.7019
25.616	66.8401
25.634	68.9344
25.652	70.9572
25.67	72.9443
25.688	74.8643
25.706	76.6778
25.724	78.383
25.742	79.9958
25.76	81.493
25.778	82.8525
25.796	84.0803
25.814	85.1821
25.832	86.1562
25.85	86.9991
25.868	87.707
25.886	88.2932
25.904	88.7729
25.922	89.1432
25.94	89.3956
25.958	89.559
25.976	89.662
25.994	89.691
26.012	89.6463
26.03	89.5562
26.048	89.4451
26.066	89.2944
26.084	89.1115
26.102	88.916
26.12	88.7221
26.138	88.5195
26.156	88.3082
26.174	88.0904
26.192	87.8701
26.21	87.6476
26.228	87.4138
26.246	87.1593
26.264	86.8912
26.282	86.6115
26.3	86.2991
26.318	85.9337
26.336	85.5268
26.354	85.0785
26.372	84.5688
26.39	83.9793
26.408	83.3238
26.426	82.599
26.444	81.7895
26.462	80.8811
26.48	79.8773
26.498	78.7853
26.516	77.6107
26.534	76.3559
26.552	75.0115
26.57	73.5893
26.588	72.1051
26.606	70.5671
26.624	68.9592
26.642	67.2969
26.66	65.5998
26.678	63.8763
26.696	62.1072
26.714	60.3119
26.732	58.5136
26.75	56.722
26.768	54.9166
26.786	53.1159
26.804	51.3416
26.822	49.6027
26.84	47.8809
26.858	46.1911
26.876	44.5505
26.894	42.9672
26.912	41.4272
26.93	39.9392
26.948	38.5139
26.966	37.1136
26.984	35.6657
27.002	34.3364
27.02	33.3071
27.028	33.0258