File: Bakgrunnsmateriale/MATLAB/FTIR/ftir_data/subBb/Mapping_121/C-4040-8_t62.asc
PE IR       SPECTRUM    SPECTRUM    ASCII       PEDS        1.60
  -1
C-AD32~1.ASC
17/03/27
19:32:59.00
17/03/27
19:33:26.00
tln
$C-4040-8_t0062$<tbV0>[-2.6,0.0,8.0,0.0,27,1,0]
27.028
64

2002,4.07
MIRTGS : RIGHTBACK : INTERNAL 2
MIR : ON : INTERNAL 2
OPTKBR

0.200000
8
8.000000
FILLER
RATIO
SPECTRUM
UNLOCKED 256

DOUBLE
64
COMBINED
1
0
0

0.002000
RATIO

1
0
TRUE
51149
0
LEFT NOT FITTED RIGHT NOT FITTED 0
NONE
NONE
15600
12
4.427000
51148
TRUE
1 0 8 72 0 0 0 0

15798

#HDR
-1
-1
#GR
µM
%T
2.38419e-05
0.0
2.000000
0.002000
12515
8
103.178
41.8769
#DATA
2.000000	 64.9519
2.018000	 65.2127
2.036000	 65.1393
2.054000	 65.1171
2.072000	 65.1546
2.090000	 64.8544
2.108000	 64.4018
2.126000	 64.524
2.144000	 64.3987
2.162000	 65.2393
2.180000	 64.5499
2.198000	 64.8119
2.216000	 65.8346
2.234000	 65.9691
2.252000	 65.9863
2.270000	 67.0615
2.288000	 52.0886
2.306000	 67.0247
2.324000	 66.2308
2.342000	 65.7165
2.360000	 65.7146
2.378000	 64.9259
2.396000	 64.7824
2.414000	 65.2446
2.432000	 64.8253
2.450000	 64.9328
2.468000	 64.9238
2.486000	 64.7909
2.504000	 65.1449
2.522000	 64.8278
2.540000	 65.142
2.558000	 65.0299
2.576000	 65.308
2.594000	 65.2025
2.612000	 64.9321
2.630000	 65.1688
2.648000	 65.3242
2.666000	 65.0836
2.684000	 65.2451
2.702000	 65.0645
2.720000	 65.132
2.738000	 65.3447
2.756000	 64.9439
2.774000	 64.7315
2.792000	 65.0206
2.810000	 64.8769
2.828000	 65.0145
2.846000	 64.8072
2.864000	 64.8229
2.882000	 65.2708
2.900000	 65.0233
2.918000	 65.1328
2.936000	 65.056
2.954000	 65.2152
2.972000	 65.3439
2.990000	 65.255
3.008000	 65.306
3.026000	 64.9508
3.044000	 65.3291
3.062000	 65.3937
3.080000	 65.1759
3.098000	 65.2475
3.116000	 65.1372
3.134000	 65.11
3.152000	 65.1609
3.170000	 64.9652
3.188000	 65.0393
3.206000	 65.0118
3.224000	 65.0338
3.242000	 65.2116
3.260000	 65.1568
3.278000	 65.0432
3.296000	 65.147
3.314000	 65.0576
3.332000	 65.1737
3.350000	 65.2062
3.368000	 65.2524
3.386000	 65.0792
3.404000	 64.9691
3.422000	 64.913
3.440000	 64.971
3.458000	 64.9747
3.476000	 65.0447
3.494000	 65.1814
3.512000	 65.0457
3.530000	 65.0761
3.548000	 65.1826
3.566000	 65.1898
3.584000	 65.1266
3.602000	 65.2017
3.620000	 65.1765
3.638000	 65.0624
3.656000	 65.043
3.674000	 65.1142
3.692000	 65.0173
3.710000	 65.0987
3.728000	 65.1317
3.746000	 65.0575
3.764000	 65.1875
3.782000	 65.2386
3.800000	 65.1648
3.818000	 65.2717
3.836000	 65.235
3.854000	 65.1174
3.872000	 65.1622
3.890000	 65.0607
3.908000	 65.2536
3.926000	 65.3109
3.944000	 65.1711
3.962000	 65.0723
3.980000	 65.0216
3.998000	 65.1292
4.016000	 65.2748
4.034000	 65.2481
4.052000	 65.1594
4.070000	 65.2184
4.088000	 65.1927
4.106000	 65.1127
4.124000	 65.5511
4.141999	 65.1512
4.160000	 65.5995
4.178000	 65.23
4.196000	 65.1549
4.214000	 65.1499
4.232000	 65.2447
4.250000	 65.1188
4.268000	 65.1066
4.286000	 65.0947
4.304000	 65.062
4.322000	 64.927
4.340000	 65.143
4.358000	 65.2612
4.375999	 65.2211
4.394000	 65.0824
4.412000	 65.2429
4.430000	 65.2475
4.448000	 65.425
4.466000	 65.288
4.484000	 65.3275
4.502000	 65.2483
4.520000	 65.2158
4.538000	 65.0743
4.556000	 65.1379
4.574000	 65.1532
4.592000	 65.1342
4.609999	 65.1516
4.628000	 65.2058
4.646000	 65.1266
4.664000	 64.9772
4.682000	 65.3409
4.700000	 65.2947
4.718000	 65.0685
4.736000	 65.0862
4.754000	 65.3575
4.772000	 65.2798
4.790000	 65.1116
4.808000	 64.8886
4.826000	 64.9563
4.843999	 65.1067
4.862000	 65.2031
4.880000	 65.0733
4.898000	 65.1595
4.916000	 65.1838
4.934000	 65.2894
4.952000	 65.2106
4.970000	 65.2041
4.988000	 65.3187
5.006000	 65.2266
5.024000	 65.1917
5.042000	 65.1836
5.060000	 65.2653
5.077999	 65.3532
5.096000	 65.2215
5.114000	 65.2323
5.132000	 65.286
5.150000	 65.1584
5.168000	 65.2548
5.186000	 65.2891
5.204000	 65.1948
5.222000	 65.2695
5.240000	 65.2119
5.258000	 65.1187
5.276000	 65.1644
5.294000	 65.252
5.312000	 65.1617
5.330000	 65.2235
5.348000	 65.1832
5.366000	 65.1981
5.384000	 65.2592
5.402000	 65.1957
5.420000	 65.1667
5.438000	 65.2067
5.456000	 65.2282
5.474000	 65.2535
5.492000	 65.2111
5.510000	 65.2311
5.528000	 65.2604
5.546000	 65.2162
5.564000	 65.1201
5.582000	 65.1284
5.600000	 65.0253
5.618000	 64.9503
5.636000	 65.0847
5.654000	 65.1134
5.672000	 65.023
5.690000	 65.0276
5.708000	 65.054
5.726000	 65.0567
5.744000	 65.0066
5.762000	 64.8886
5.780000	 64.7941
5.798000	 64.8048
5.816000	 64.9678
5.834000	 65.0221
5.852000	 65.0863
5.870000	 65.1584
5.888000	 65.2299
5.906000	 65.1323
5.923999	 65.033
5.942000	 65.1291
5.960000	 65.1075
5.978000	 65.058
5.996000	 65.1973
6.014000	 65.2262
6.032000	 65.12
6.050000	 65.1473
6.068000	 65.1156
6.086000	 65.0056
6.104000	 64.9145
6.122000	 64.9081
6.140000	 64.9867
6.158000	 65.1257
6.176000	 65.1646
6.194000	 65.0724
6.212000	 65.0479
6.230000	 64.9955
6.248000	 64.9295
6.266000	 64.9234
6.284000	 64.933
6.302000	 64.9665
6.320000	 65.0395
6.338000	 65.0542
6.356000	 65.0337
6.374000	 64.9969
6.392000	 64.9017
6.410000	 64.862
6.428000	 64.9588
6.446000	 65.0458
6.464000	 64.9891
6.482000	 64.9982
6.500000	 65.0803
6.518000	 65.0498
6.536000	 64.9862
6.554000	 64.9241
6.572000	 64.9306
6.590000	 65.0539
6.608000	 65.1219
6.626000	 65.1279
6.644000	 65.1359
6.662000	 65.0893
6.680000	 64.9729
6.698000	 64.9028
6.716000	 65.0099
6.734000	 65.1479
6.752000	 65.1269
6.770000	 65.0231
6.788000	 64.9782
6.806000	 64.9817
6.824000	 64.975
6.842000	 64.9118
6.860000	 64.762
6.878000	 64.6666
6.896000	 64.761
6.914000	 64.9011
6.932000	 65.0081
6.950000	 65.102
6.968000	 65.0992
6.986000	 65.016
7.004000	 64.9573
7.022000	 64.9666
7.040000	 65.0454
7.058000	 65.1345
7.076000	 65.1611
7.094000	 65.1364
7.112000	 65.1135
7.130000	 65.0745
7.148000	 64.9867
7.166000	 64.9241
7.184000	 64.9551
7.202000	 65.0307
7.220000	 65.082
7.238000	 65.0856
7.256000	 65.0515
7.274000	 64.9967
7.292000	 64.9344
7.310000	 64.9035
7.328000	 64.9181
7.346000	 64.9172
7.364000	 64.8742
7.382000	 64.8391
7.400000	 64.8349
7.418000	 64.8469
7.436000	 64.8508
7.454000	 64.8311
7.472000	 64.8142
7.490000	 64.8318
7.508000	 64.8796
7.526000	 64.9378
7.544000	 64.9709
7.562000	 64.9535
7.580000	 64.9314
7.598000	 64.9579
7.616000	 64.9951
7.634000	 64.9897
7.652000	 64.9765
7.670000	 64.9912
7.688000	 64.9926
7.706000	 64.9505
7.724000	 64.8935
7.742000	 64.8516
7.760000	 64.8418
7.778000	 64.871
7.796000	 64.9049
7.814000	 64.9045
7.832000	 64.8761
7.850000	 64.8404
7.868000	 64.8149
7.886000	 64.8394
7.904000	 64.9361
7.922000	 65.0455
7.940000	 65.0827
7.958000	 65.038
7.976000	 64.968
7.994000	 64.9253
8.012000	 64.9287
8.030000	 64.9601
8.048000	 64.9813
8.065999	 64.9808
8.084000	 64.9851
8.102000	 65.0046
8.120000	 65.0114
8.138000	 64.9865
8.155999	 64.9373
8.173999	 64.8684
8.192000	 64.78
8.210000	 64.6955
8.228000	 64.6524
8.246000	 64.6717
8.263999	 64.7493
8.282000	 64.8534
8.300000	 64.927
8.318000	 64.9244
8.336000	 64.8591
8.353999	 64.7925
8.372000	 64.7696
8.390000	 64.7784
8.408000	 64.7729
8.426000	 64.7326
8.443999	 64.6967
8.462000	 64.7157
8.480000	 64.7819
8.498000	 64.8402
8.516000	 64.8556
8.533999	 64.8396
8.552000	 64.8258
8.570000	 64.8339
8.588000	 64.8581
8.606000	 64.8749
8.624000	 64.8619
8.641999	 64.8201
8.660000	 64.7797
8.678000	 64.7797
8.696000	 64.8351
8.714000	 64.9114
8.731999	 64.9451
8.750000	 64.9038
8.768000	 64.8159
8.786000	 64.7356
8.804000	 64.6938
8.821999	 64.6925
8.840000	 64.721
8.858000	 64.7599
8.876000	 64.7781
8.894000	 64.7572
8.911999	 64.7186
8.930000	 64.7043
8.948000	 64.7234
8.966000	 64.7305
8.984000	 64.6723
9.001999	 64.5525
9.020000	 64.4426
9.038000	 64.4257
9.056000	 64.5223
9.074000	 64.6602
9.092000	 64.7189
9.109999	 64.6256
9.128000	 64.4256
9.146000	 64.2591
9.164000	 64.2508
9.182000	 64.4126
9.199999	 64.639
9.218000	 64.7974
9.236000	 64.8239
9.254000	 64.7553
9.272000	 64.6781
9.289999	 64.6585
9.308000	 64.7087
9.326000	 64.8031
9.344000	 64.9063
9.362000	 64.9874
9.379999	 65.016
9.398000	 64.9593
9.416000	 64.7969
9.434000	 64.5461
9.452000	 64.2703
9.469999	 64.0559
9.488000	 63.9613
9.506000	 63.9789
9.524000	 64.0452
9.542000	 64.0982
9.560000	 64.1319
9.577999	 64.1857
9.596000	 64.2881
9.614000	 64.4157
9.632000	 64.509
9.650000	 64.5234
9.667999	 64.4671
9.686000	 64.3928
9.704000	 64.3588
9.722000	 64.3845
9.740000	 64.4436
9.757999	 64.4921
9.776000	 64.5069
9.794000	 64.506
9.812000	 64.5327
9.830000	 64.6232
9.847999	 64.779
9.866000	 64.9646
9.884000	 65.1296
9.902000	 65.2385
9.920000	 65.2899
9.937999	 65.3122
9.956000	 65.3375
9.974000	 65.3735
9.992000	 65.3947
10.01	65.3588
10.028	65.2357
10.046	65.0319
10.064	64.7878
10.082	64.5578
10.1	64.3887
10.118	64.3055
10.136	64.3093
10.154	64.3829
10.172	64.4979
10.19	64.6215
10.208	64.7233
10.226	64.7818
10.244	64.786
10.262	64.7378
10.28	64.6508
10.298	64.5484
10.316	64.4623
10.334	64.4218
10.352	64.4435
10.37	64.522
10.388	64.6271
10.406	64.7204
10.424	64.7704
10.442	64.7702
10.46	64.735
10.478	64.6905
10.496	64.6549
10.514	64.6309
10.532	64.6075
10.55	64.5719
10.568	64.5178
10.586	64.4484
10.604	64.373
10.622	64.3028
10.64	64.249
10.658	64.2227
10.676	64.2314
10.694	64.2752
10.712	64.3446
10.73	64.423
10.748	64.4925
10.766	64.5411
10.784	64.5669
10.802	64.5774
10.82	64.5837
10.838	64.5961
10.856	64.6181
10.874	64.6459
10.892	64.6699
10.91	64.6776
10.928	64.6604
10.946	64.6185
10.964	64.5631
10.982	64.513
11	64.4851
11.018	64.487
11.036	64.5127
11.054	64.5467
11.072	64.5714
11.09	64.574
11.108	64.5508
11.126	64.5069
11.144	64.4521
11.162	64.3971
11.18	64.3503
11.198	64.3189
11.216	64.3072
11.234	64.3161
11.252	64.3417
11.27	64.3747
11.288	64.4003
11.306	64.4038
11.324	64.3739
11.342	64.3088
11.36	64.2174
11.378	64.1196
11.396	64.0382
11.414	63.9934
11.432	63.9945
11.45	64.0368
11.468	64.1031
11.486	64.1729
11.504	64.228
11.522	64.2599
11.54	64.2711
11.558	64.2722
11.576	64.2757
11.594	64.2897
11.612	64.3153
11.63	64.3464
11.648	64.3733
11.666	64.3877
11.684	64.3859
11.702	64.3698
11.72	64.3442
11.738	64.3139
11.756	64.2806
11.774	64.2426
11.792	64.1969
11.81	64.1428
11.828	64.0843
11.846	64.0285
11.864	63.9841
11.882	63.9575
11.9	63.9501
11.918	63.9582
11.936	63.9751
11.954	63.9945
11.972	64.014
11.99	64.0354
12.008	64.0648
12.026	64.1077
12.044	64.1654
12.062	64.2294
12.08	64.283
12.098	64.3064
12.116	64.2838
12.134	64.2112
12.152	64.1002
12.17	63.9731
12.188	63.8584
12.206	63.7807
12.224	63.7551
12.242	63.7848
12.26	63.8632
12.278	63.9762
12.296	64.1067
12.314	64.2376
12.332	64.3547
12.35	64.4474
12.368	64.5098
12.386	64.5397
12.404	64.54
12.422	64.5168
12.44	64.4794
12.458	64.4376
12.476	64.4004
12.494	64.3734
12.512	64.3575
12.53	64.3482
12.548	64.3369
12.566	64.3148
12.584	64.2744
12.602	64.213
12.62	64.1334
12.638	64.0433
12.656	63.9527
12.674	63.8715
12.692	63.8066
12.71	63.7616
12.728	63.736
12.746	63.7263
12.764	63.7274
12.782	63.7347
12.8	63.7443
12.818	63.7545
12.836	63.765
12.854	63.7778
12.872	63.7944
12.89	63.817
12.908	63.847
12.926	63.8844
12.944	63.9277
12.962	63.9741
12.98	64.0196
12.998	64.0601
13.016	64.0918
13.034	64.1123
13.052	64.1203
13.07	64.1157
13.088	64.0984
13.106	64.0681
13.124	64.0242
13.142	63.967
13.16	63.8982
13.178	63.8225
13.196	63.7476
13.214	63.6835
13.232	63.6411
13.25	63.6291
13.268	63.6526
13.286	63.7102
13.304	63.794
13.322	63.8908
13.34	63.9847
13.358	64.0599
13.376	64.1044
13.394	64.1118
13.412	64.0819
13.43	64.0196
13.448	63.9331
13.466	63.8321
13.484	63.7259
13.502	63.6228
13.52	63.5291
13.538	63.4499
13.556	63.3882
13.574	63.3455
13.592	63.3216
13.61	63.3138
13.628	63.3179
13.646	63.3275
13.664	63.3361
13.682	63.3375
13.7	63.3278
13.718	63.3058
13.736	63.274
13.754	63.2377
13.772	63.2046
13.79	63.1822
13.808	63.1766
13.826	63.1911
13.844	63.2258
13.862	63.2776
13.88	63.341
13.898	63.409
13.916	63.4744
13.934	63.531
13.952	63.574
13.97	63.6001
13.988	63.6077
14.006	63.5967
14.024	63.5689
14.042	63.5271
14.06	63.4759
14.078	63.4203
14.096	63.3663
14.114	63.3199
14.132	63.287
14.15	63.2719
14.168	63.2773
14.186	63.3036
14.204	63.3487
14.222	63.4085
14.24	63.4774
14.258	63.5498
14.276	63.6202
14.294	63.6842
14.312	63.7392
14.33	63.7841
14.348	63.8189
14.366	63.8444
14.384	63.8613
14.402	63.8696
14.42	63.8686
14.438	63.8572
14.456	63.8343
14.474	63.799
14.492	63.7514
14.51	63.6927
14.528	63.6264
14.546	63.5564
14.564	63.487
14.582	63.4225
14.6	63.3661
14.618	63.3198
14.636	63.2844
14.654	63.2593
14.672	63.2433
14.69	63.2346
14.708	63.2313
14.726	63.2316
14.744	63.2335
14.762	63.2356
14.78	63.236
14.798	63.2329
14.816	63.2247
14.834	63.2097
14.852	63.1859
14.87	63.1525
14.888	63.1092
14.906	63.0568
14.924	62.9973
14.942	62.934
14.96	62.8716
14.978	62.8152
14.996	62.7701
15.014	62.7415
15.032	62.7333
15.05	62.7478
15.068	62.7854
15.086	62.8446
15.104	62.9225
15.122	63.0136
15.14	63.1115
15.158	63.2096
15.176	63.3012
15.194	63.3799
15.212	63.4402
15.23	63.4791
15.248	63.4946
15.266	63.4863
15.284	63.4557
15.302	63.4063
15.32	63.3414
15.338	63.2644
15.356	63.1795
15.374	63.0908
15.392	63.0019
15.41	62.9156
15.428	62.8354
15.446	62.7638
15.464	62.703
15.482	62.6548
15.5	62.6201
15.518	62.599
15.536	62.5897
15.554	62.5899
15.572	62.5959
15.59	62.6023
15.608	62.6045
15.626	62.5981
15.644	62.5789
15.662	62.5441
15.68	62.4937
15.698	62.4289
15.716	62.3531
15.734	62.2724
15.752	62.1923
15.77	62.1189
15.788	62.0597
15.806	62.0194
15.824	62.0009
15.842	62.0063
15.86	62.0341
15.878	62.0815
15.896	62.1455
15.914	62.2205
15.932	62.3015
15.95	62.3846
15.968	62.4654
15.986	62.5409
16.004	62.6099
16.022	62.6717
16.04	62.7265
16.058	62.7754
16.076	62.8192
16.094	62.8591
16.112	62.8953
16.13	62.9281
16.148	62.9578
16.166	62.9834
16.184	63.0045
16.202	63.0201
16.22	63.0289
16.238	63.0309
16.256	63.0259
16.274	63.0144
16.292	62.9972
16.31	62.9752
16.328	62.9497
16.346	62.9219
16.364	62.8929
16.382	62.8634
16.4	62.8328
16.418	62.801
16.436	62.7663
16.454	62.7271
16.472	62.682
16.49	62.6287
16.508	62.5662
16.526	62.4938
16.544	62.4111
16.562	62.3195
16.58	62.2199
16.598	62.1157
16.616	62.01
16.634	61.9057
16.652	61.8081
16.67	61.7201
16.688	61.6451
16.706	61.5873
16.724	61.5481
16.742	61.5299
16.76	61.5329
16.778	61.5567
16.796	61.6
16.814	61.6598
16.832	61.734
16.85	61.818
16.868	61.9075
16.886	61.9992
16.904	62.0871
16.922	62.169
16.94	62.2408
16.958	62.3004
16.976	62.3471
16.994	62.3799
17.012	62.4002
17.03	62.409
17.048	62.4097
17.066	62.4045
17.084	62.3964
17.102	62.3894
17.12	62.3852
17.138	62.3867
17.156	62.3943
17.174	62.4087
17.192	62.4286
17.21	62.4529
17.228	62.4793
17.246	62.5046
17.264	62.5272
17.282	62.5426
17.3	62.5497
17.318	62.546
17.336	62.531
17.354	62.5043
17.372	62.467
17.39	62.42
17.408	62.3659
17.426	62.3075
17.444	62.2466
17.462	62.1874
17.48	62.1313
17.498	62.0819
17.516	62.0405
17.534	62.0086
17.552	61.9871
17.57	61.9762
17.588	61.9755
17.606	61.9842
17.624	62.0012
17.642	62.0245
17.66	62.0534
17.678	62.0849
17.696	62.1183
17.714	62.1515
17.732	62.1837
17.75	62.2137
17.768	62.2412
17.786	62.2659
17.804	62.2879
17.822	62.3073
17.84	62.3251
17.858	62.3418
17.876	62.3585
17.894	62.3762
17.912	62.3955
17.93	62.4175
17.948	62.4424
17.966	62.4706
17.984	62.5019
18.002	62.5362
18.02	62.5727
18.038	62.611
18.056	62.6494
18.074	62.6876
18.092	62.7234
18.11	62.7568
18.128	62.7856
18.146	62.8096
18.164	62.8277
18.182	62.8396
18.2	62.8448
18.218	62.8432
18.236	62.8347
18.254	62.8196
18.272	62.7978
18.29	62.7701
18.308	62.7365
18.326	62.6979
18.344	62.6542
18.362	62.6062
18.38	62.554
18.398	62.4983
18.416	62.4393
18.434	62.3778
18.452	62.3144
18.47	62.2497
18.488	62.1847
18.506	62.1198
18.524	62.0564
18.542	61.995
18.56	61.9369
18.578	61.8824
18.596	61.8329
18.614	61.7886
18.632	61.7507
18.65	61.719
18.668	61.6943
18.686	61.6764
18.704	61.665
18.722	61.66
18.74	61.6607
18.758	61.6669
18.776	61.6778
18.794	61.693
18.812	61.7115
18.83	61.7329
18.848	61.7561
18.866	61.7805
18.884	61.8049
18.902	61.8288
18.92	61.8509
18.938	61.8706
18.956	61.8866
18.974	61.8983
18.992	61.9043
19.01	61.9044
19.028	61.8978
19.046	61.8846
19.064	61.8645
19.082	61.8384
19.1	61.8066
19.118	61.7704
19.136	61.7312
19.154	61.6901
19.172	61.6496
19.19	61.6103
19.208	61.5753
19.226	61.5449
19.244	61.5219
19.262	61.5061
19.28	61.4997
19.298	61.5022
19.316	61.5142
19.334	61.5354
19.352	61.5644
19.37	61.6012
19.388	61.643
19.406	61.69
19.424	61.738
19.442	61.7872
19.46	61.8336
19.478	61.8769
19.496	61.9139
19.514	61.9436
19.532	61.9642
19.55	61.9744
19.568	61.9741
19.586	61.9619
19.604	61.9386
19.622	61.904
19.64	61.8589
19.658	61.8048
19.676	61.7419
19.694	61.6733
19.712	61.5987
19.73	61.5218
19.748	61.4425
19.766	61.3639
19.784	61.2867
19.802	61.2125
19.82	61.1428
19.838	61.0778
19.856	61.0189
19.874	60.9659
19.892	60.9192
19.91	60.8786
19.928	60.8436
19.946	60.8144
19.964	60.7895
19.982	60.7691
20	60.7518
20.018	60.7371
20.036	60.7246
20.054	60.7134
20.072	60.7036
20.09	60.6949
20.108	60.6874
20.126	60.6814
20.144	60.6768
20.162	60.6744
20.18	60.6744
20.198	60.6774
20.216	60.6842
20.234	60.6949
20.252	60.7107
20.27	60.7314
20.288	60.7571
20.306	60.7883
20.324	60.824
20.342	60.8642
20.36	60.9081
20.378	60.9544
20.396	61.0031
20.414	61.0515
20.432	61.0999
20.45	61.1458
20.468	61.1883
20.486	61.2268
20.504	61.2586
20.522	61.2843
20.54	61.3021
20.558	61.3119
20.576	61.3133
20.594	61.3057
20.612	61.2895
20.63	61.2654
20.648	61.2332
20.666	61.1945
20.684	61.149
20.702	61.0984
20.72	61.0437
20.738	60.9852
20.756	60.9249
20.774	60.8623
20.792	60.799
20.81	60.7355
20.828	60.6719
20.846	60.6089
20.864	60.5464
20.882	60.4846
20.9	60.4236
20.918	60.3632
20.936	60.3032
20.954	60.2436
20.972	60.1845
20.99	60.1257
21.008	60.0672
21.026	60.0089
21.044	59.9507
21.062	59.8925
21.08	59.8343
21.098	59.7762
21.116	59.7181
21.134	59.6603
21.152	59.603
21.17	59.5461
21.188	59.4902
21.206	59.4352
21.224	59.3813
21.242	59.3287
21.26	59.2774
21.278	59.2275
21.296	59.179
21.314	59.1318
21.332	59.0855
21.35	59.0404
21.368	58.9956
21.386	58.9511
21.404	58.9065
21.422	58.8613
21.44	58.8156
21.458	58.7684
21.476	58.7193
21.494	58.6683
21.512	58.6149
21.53	58.5589
21.548	58.5011
21.566	58.4417
21.584	58.3807
21.602	58.3203
21.62	58.2598
21.638	58.2007
21.656	58.1451
21.674	58.092
21.692	58.0439
21.71	58.0012
21.728	57.9639
21.746	57.9338
21.764	57.9106
21.782	57.8942
21.8	57.8849
21.818	57.8825
21.836	57.8848
21.854	57.8924
21.872	57.9037
21.89	57.9161
21.908	57.9308
21.926	57.9444
21.944	57.9547
21.962	57.9628
21.98	57.9657
21.998	57.9631
22.016	57.9551
22.034	57.9408
22.052	57.9198
22.07	57.8941
22.088	57.8641
22.106	57.8296
22.124	57.7942
22.142	57.7579
22.16	57.7216
22.178	57.6907
22.196	57.6634
22.214	57.643
22.232	57.6337
22.25	57.6337
22.268	57.6459
22.286	57.6724
22.304	57.7121
22.322	57.7651
22.34	57.8325
22.358	57.9126
22.376	58.0027
22.394	58.1045
22.412	58.2145
22.43	58.3277
22.448	58.447
22.466	58.5666
22.484	58.6822
22.502	58.7962
22.52	58.902
22.538	58.9967
22.556	59.0821
22.574	59.1527
22.592	59.2079
22.61	59.248
22.628	59.2705
22.646	59.2751
22.664	59.2624
22.682	59.232
22.7	59.1835
22.718	59.1182
22.736	59.0372
22.754	58.9397
22.772	58.8278
22.79	58.7031
22.808	58.5647
22.826	58.415
22.844	58.2557
22.862	58.0857
22.88	57.9076
22.898	57.7226
22.916	57.5298
22.934	57.332
22.952	57.1295
22.97	56.9222
22.988	56.7131
23.006	56.5024
23.024	56.2902
23.042	56.0802
23.06	55.8724
23.078	55.667
23.096	55.4673
23.114	55.2724
23.132	55.0833
23.15	54.9041
23.168	54.7339
23.186	54.5737
23.204	54.4283
23.222	54.2965
23.24	54.1795
23.258	54.0825
23.276	54.0051
23.294	53.9473
23.312	53.9114
23.33	53.8971
23.348	53.9044
23.366	53.9355
23.384	53.9901
23.402	54.0681
23.42	54.1709
23.438	54.299
23.456	54.4515
23.474	54.6274
23.492	54.8279
23.51	55.0518
23.528	55.2938
23.546	55.5537
23.564	55.8321
23.582	56.1222
23.6	56.4223
23.618	56.7345
23.636	57.0514
23.654	57.3702
23.672	57.6938
23.69	58.015
23.708	58.329
23.726	58.6399
23.744	58.9413
23.762	59.2274
23.78	59.5024
23.798	59.7617
23.816	59.9999
23.834	60.2197
23.852	60.419
23.87	60.5937
23.888	60.7443
23.906	60.8714
23.924	60.9744
23.942	61.0522
23.96	61.1061
23.978	61.1385
23.996	61.1491
24.014	61.1376
24.032	61.1092
24.05	61.0667
24.068	61.0069
24.086	60.9357
24.104	60.8583
24.122	60.7714
24.14	60.6783
24.158	60.5841
24.176	60.4874
24.194	60.3888
24.212	60.2923
24.23	60.1989
24.248	60.1073
24.266	60.018
24.284	59.9314
24.302	59.8473
24.32	59.7655
24.338	59.6859
24.356	59.6082
24.374	59.533
24.392	59.461
24.41	59.3907
24.428	59.3233
24.446	59.2627
24.464	59.2093
24.482	59.161
24.5	59.1242
24.518	59.1032
24.536	59.0927
24.554	59.0994
24.572	59.1327
24.59	59.1902
24.608	59.272
24.626	59.385
24.644	59.5312
24.662	59.7066
24.68	59.9188
24.698	60.1749
24.716	60.4728
24.734	60.8112
24.752	61.1903
24.77	61.6091
24.788	62.0677
24.806	62.569
24.824	63.1141
24.842	63.7003
24.86	64.3313
24.878	65.0113
24.896	65.7378
24.914	66.5117
24.932	67.3384
24.95	68.2201
24.968	69.1528
24.986	70.142
25.004	71.1938
25.022	72.3082
25.04	73.4822
25.058	74.7137
25.076	76.0042
25.094	77.3559
25.112	78.7572
25.13	80.1975
25.148	81.6911
25.166	83.2247
25.184	84.7715
25.202	86.3247
25.22	87.9037
25.238	89.4705
25.256	90.986
25.274	92.4724
25.292	93.9209
25.31	95.2919
25.328	96.5634
25.346	97.762
25.364	98.864
25.382	99.8411
25.4	100.696
25.418	101.436
25.436	102.049
25.454	102.525
25.472	102.865
25.49	103.078
25.508	103.173
25.526	103.145
25.544	102.992
25.562	102.734
25.58	102.392
25.598	101.946
25.616	101.409
25.634	100.811
25.652	100.167
25.67	99.4558
25.688	98.6985
25.706	97.9209
25.724	97.123
25.742	96.2951
25.76	95.4575
25.778	94.6283
25.796	93.7941
25.814	92.9609
25.832	92.1472
25.85	91.365
25.868	90.6004
25.886	89.8632
25.904	89.1665
25.922	88.5107
25.94	87.888
25.958	87.3139
25.976	86.8042
25.994	86.3541
26.012	85.9609
26.03	85.6339
26.048	85.3813
26.066	85.2007
26.084	85.089
26.102	85.0446
26.12	85.0687
26.138	85.1667
26.156	85.3271
26.174	85.5365
26.192	85.7964
26.21	86.1183
26.228	86.4749
26.246	86.8382
26.264	87.2144
26.282	87.6136
26.3	88.0044
26.318	88.3561
26.336	88.6832
26.354	88.9876
26.372	89.2441
26.39	89.4295
26.408	89.5575
26.426	89.6274
26.444	89.6254
26.462	89.5388
26.48	89.37
26.498	89.1262
26.516	88.8137
26.534	88.4353
26.552	87.9814
26.57	87.4634
26.588	86.8965
26.606	86.2881
26.624	85.6218
26.642	84.9142
26.66	84.1867
26.678	83.4507
26.696	82.6896
26.714	81.9142
26.732	81.138
26.75	80.3698
26.768	79.602
26.786	78.8335
26.804	78.0644
26.822	77.2979
26.84	76.5381
26.858	75.7733
26.876	74.9909
26.894	74.1881
26.912	73.3784
26.93	72.5451
26.948	71.6697
26.966	70.6868
26.984	69.5293
27.002	68.3976
27.02	67.5077
27.028	67.2722