File: Bakgrunnsmateriale/MATLAB/FTIR/ftir_data/subBb/Mapping_121/C-4040-8_t90.asc
PE IR       SPECTRUM    SPECTRUM    ASCII       PEDS        1.60
  -1
C-A94A~1.ASC
17/03/27
21:56:01.00
17/03/27
21:56:27.00
tln
$C-4040-8_t0090$<tbV0>[10.4,7.8,8.0,0.0,27,1,0]
27.028
64

2002,4.07
MIRTGS : RIGHTBACK : INTERNAL 2
MIR : ON : INTERNAL 2
OPTKBR

0.200000
8
8.000000
FILLER
RATIO
SPECTRUM
UNLOCKED 256

DOUBLE
64
COMBINED
1
0
0

0.002000
RATIO

1
0
TRUE
51149
0
LEFT NOT FITTED RIGHT NOT FITTED 0
NONE
NONE
15600
12
4.427000
51148
TRUE
1 0 8 72 0 0 0 0

15798

#HDR
-1
-1
#GR
µM
%T
2.38419e-05
0.0
2.000000
0.002000
12515
8
163.401
53.4166
#DATA
2.000000	 65.1561
2.018000	 64.7571
2.036000	 65.3528
2.054000	 64.7399
2.072000	 64.9918
2.090000	 65.5504
2.108000	 64.8678
2.126000	 65.4632
2.144000	 65.2276
2.162000	 65.3589
2.180000	 65.5475
2.198000	 65.0112
2.216000	 64.4201
2.234000	 64.1084
2.252000	 62.9023
2.270000	 63.0889
2.288000	 64.4725
2.306000	 63.498
2.324000	 63.3562
2.342000	 64.4294
2.360000	 64.3711
2.378000	 64.7671
2.396000	 64.3007
2.414000	 65.3726
2.432000	 65.4579
2.450000	 65.5206
2.468000	 65.5358
2.486000	 65.6168
2.504000	 65.4102
2.522000	 65.2385
2.540000	 65.1065
2.558000	 65.1193
2.576000	 65.2074
2.594000	 65.178
2.612000	 64.7958
2.630000	 64.9701
2.648000	 65.2926
2.666000	 65.1273
2.684000	 65.4538
2.702000	 65.2584
2.720000	 65.2839
2.738000	 65.2507
2.756000	 65.3626
2.774000	 65.1699
2.792000	 65.5084
2.810000	 65.4772
2.828000	 65.307
2.846000	 65.3067
2.864000	 65.2786
2.882000	 65.2797
2.900000	 65.3465
2.918000	 65.4988
2.936000	 65.2978
2.954000	 65.0957
2.972000	 65.0008
2.990000	 65.2655
3.008000	 65.2644
3.026000	 65.1765
3.044000	 65.2842
3.062000	 65.3093
3.080000	 65.3548
3.098000	 65.347
3.116000	 65.3384
3.134000	 65.4267
3.152000	 65.6812
3.170000	 65.5324
3.188000	 65.7403
3.206000	 65.277
3.224000	 65.6082
3.242000	 65.3612
3.260000	 65.2539
3.278000	 65.2472
3.296000	 65.3759
3.314000	 65.3723
3.332000	 65.389
3.350000	 65.2717
3.368000	 65.219
3.386000	 65.1051
3.404000	 65.176
3.422000	 64.9222
3.440000	 65.157
3.458000	 65.1486
3.476000	 65.3029
3.494000	 65.3235
3.512000	 64.9118
3.530000	 65.3839
3.548000	 65.2341
3.566000	 65.3364
3.584000	 65.5054
3.602000	 65.3386
3.620000	 65.297
3.638000	 65.4459
3.656000	 65.4499
3.674000	 65.4403
3.692000	 65.3927
3.710000	 65.3209
3.728000	 65.2645
3.746000	 65.5356
3.764000	 65.4294
3.782000	 65.3531
3.800000	 65.3324
3.818000	 65.3132
3.836000	 65.3055
3.854000	 65.3242
3.872000	 65.4245
3.890000	 65.4373
3.908000	 65.2818
3.926000	 65.3501
3.944000	 65.2467
3.962000	 65.2493
3.980000	 65.2037
3.998000	 65.1978
4.016000	 65.3418
4.034000	 65.5292
4.052000	 65.3967
4.070000	 65.3322
4.088000	 65.2735
4.106000	 65.2669
4.124000	 64.8403
4.141999	 65.1249
4.160000	 65.4309
4.178000	 65.3896
4.196000	 65.2937
4.214000	 65.3387
4.232000	 65.4711
4.250000	 65.3304
4.268000	 65.3102
4.286000	 65.3599
4.304000	 65.3969
4.322000	 65.4134
4.340000	 65.3186
4.358000	 65.4793
4.375999	 65.5209
4.394000	 65.4694
4.412000	 65.4332
4.430000	 65.387
4.448000	 65.4383
4.466000	 65.3392
4.484000	 65.3977
4.502000	 65.3975
4.520000	 65.3354
4.538000	 65.4225
4.556000	 65.3832
4.574000	 65.5
4.592000	 65.3178
4.609999	 65.4928
4.628000	 65.4714
4.646000	 65.5414
4.664000	 65.1574
4.682000	 65.3681
4.700000	 65.3602
4.718000	 65.3229
4.736000	 65.6002
4.754000	 65.3826
4.772000	 65.3367
4.790000	 65.2311
4.808000	 65.0839
4.826000	 65.9655
4.843999	 65.5169
4.862000	 65.112
4.880000	 65.1838
4.898000	 65.4539
4.916000	 65.4141
4.934000	 65.4131
4.952000	 65.2865
4.970000	 65.4356
4.988000	 65.3273
5.006000	 65.3158
5.024000	 65.3289
5.042000	 65.3012
5.060000	 65.2823
5.077999	 65.5158
5.096000	 65.4373
5.114000	 65.3533
5.132000	 65.2992
5.150000	 65.4075
5.168000	 65.3499
5.186000	 65.3039
5.204000	 65.4077
5.222000	 65.3265
5.240000	 65.3247
5.258000	 65.3998
5.276000	 65.4329
5.294000	 65.4525
5.312000	 65.4406
5.330000	 65.3664
5.348000	 65.3124
5.366000	 65.3097
5.384000	 65.3676
5.402000	 65.3812
5.420000	 65.4763
5.438000	 65.4603
5.456000	 65.485
5.474000	 65.4697
5.492000	 65.4819
5.510000	 65.4625
5.528000	 65.435
5.546000	 65.455
5.564000	 65.4156
5.582000	 65.27
5.600000	 65.2357
5.618000	 65.3364
5.636000	 65.3545
5.654000	 65.3881
5.672000	 65.3561
5.690000	 65.269
5.708000	 65.2518
5.726000	 65.3067
5.744000	 65.2929
5.762000	 65.1492
5.780000	 65.0379
5.798000	 65.1138
5.816000	 65.2919
5.834000	 65.4299
5.852000	 65.4367
5.870000	 65.2568
5.888000	 65.173
5.906000	 65.3111
5.923999	 65.3796
5.942000	 65.3466
5.960000	 65.2565
5.978000	 65.3047
5.996000	 65.4918
6.014000	 65.4535
6.032000	 65.3313
6.050000	 65.2852
6.068000	 65.2503
6.086000	 65.2617
6.104000	 65.2569
6.122000	 65.1929
6.140000	 65.1508
6.158000	 65.212
6.176000	 65.3201
6.194000	 65.2933
6.212000	 65.202
6.230000	 65.2074
6.248000	 65.2648
6.266000	 65.2863
6.284000	 65.2672
6.302000	 65.2668
6.320000	 65.3633
6.338000	 65.3486
6.356000	 65.1721
6.374000	 65.0865
6.392000	 65.1256
6.410000	 65.1747
6.428000	 65.1281
6.446000	 65.1196
6.464000	 65.2
6.482000	 65.3054
6.500000	 65.2656
6.518000	 65.1817
6.536000	 65.2123
6.554000	 65.2061
6.572000	 65.2065
6.590000	 65.2543
6.608000	 65.2023
6.626000	 65.1136
6.644000	 65.1879
6.662000	 65.3221
6.680000	 65.3328
6.698000	 65.2185
6.716000	 65.1635
6.734000	 65.2262
6.752000	 65.2433
6.770000	 65.2038
6.788000	 65.1975
6.806000	 65.2277
6.824000	 65.2657
6.842000	 65.2411
6.860000	 65.1715
6.878000	 65.1955
6.896000	 65.2815
6.914000	 65.3046
6.932000	 65.2964
6.950000	 65.2458
6.968000	 65.1437
6.986000	 65.1344
7.004000	 65.2359
7.022000	 65.3074
7.040000	 65.309
7.058000	 65.2971
7.076000	 65.321
7.094000	 65.3691
7.112000	 65.3705
7.130000	 65.3257
7.148000	 65.2974
7.166000	 65.2646
7.184000	 65.1952
7.202000	 65.1494
7.220000	 65.1621
7.238000	 65.1885
7.256000	 65.1822
7.274000	 65.1174
7.292000	 65.0482
7.310000	 65.0596
7.328000	 65.1265
7.346000	 65.1847
7.364000	 65.2161
7.382000	 65.2017
7.400000	 65.1612
7.418000	 65.1443
7.436000	 65.1432
7.454000	 65.1183
7.472000	 65.0804
7.490000	 65.0762
7.508000	 65.1195
7.526000	 65.1761
7.544000	 65.2165
7.562000	 65.235
7.580000	 65.2102
7.598000	 65.1221
7.616000	 65.0149
7.634000	 64.9634
7.652000	 64.9824
7.670000	 65.0339
7.688000	 65.0985
7.706000	 65.1685
7.724000	 65.2079
7.742000	 65.1918
7.760000	 65.1489
7.778000	 65.1052
7.796000	 65.0486
7.814000	 64.9963
7.832000	 64.9902
7.850000	 65.0029
7.868000	 64.9721
7.886000	 64.9201
7.904000	 64.9194
7.922000	 64.979
7.940000	 65.0459
7.958000	 65.0715
7.976000	 65.0427
7.994000	 64.9954
8.012000	 64.9866
8.030000	 65.0157
8.048000	 65.0285
8.065999	 65.004
8.084000	 64.9744
8.102000	 64.9709
8.120000	 64.9962
8.138000	 65.0357
8.155999	 65.0662
8.173999	 65.0796
8.192000	 65.0953
8.210000	 65.1252
8.228000	 65.1524
8.246000	 65.1556
8.263999	 65.1325
8.282000	 65.0968
8.300000	 65.0664
8.318000	 65.0536
8.336000	 65.0544
8.353999	 65.0526
8.372000	 65.0401
8.390000	 65.0262
8.408000	 65.0177
8.426000	 65.0107
8.443999	 65.0049
8.462000	 65.0082
8.480000	 65.02
8.498000	 65.0332
8.516000	 65.0431
8.533999	 65.0455
8.552000	 65.0339
8.570000	 65.0055
8.588000	 64.9706
8.606000	 64.9519
8.624000	 64.9622
8.641999	 64.983
8.660000	 64.9813
8.678000	 64.9492
8.696000	 64.9128
8.714000	 64.8984
8.731999	 64.9039
8.750000	 64.9137
8.768000	 64.9232
8.786000	 64.9346
8.804000	 64.9385
8.821999	 64.9203
8.840000	 64.8791
8.858000	 64.8382
8.876000	 64.8286
8.894000	 64.869
8.911999	 64.951
8.930000	 65.0384
8.948000	 65.0799
8.966000	 65.0404
8.984000	 64.9313
9.001999	 64.8101
9.020000	 64.7444
9.038000	 64.7664
9.056000	 64.8484
9.074000	 64.9225
9.092000	 64.9244
9.109999	 64.8295
9.128000	 64.6633
9.146000	 64.487
9.164000	 64.3654
9.182000	 64.3367
9.199999	 64.3978
9.218000	 64.5167
9.236000	 64.6536
9.254000	 64.7755
9.272000	 64.8582
9.289999	 64.8887
9.308000	 64.8717
9.326000	 64.834
9.344000	 64.8099
9.362000	 64.8144
9.379999	 64.8344
9.398000	 64.8468
9.416000	 64.8465
9.434000	 64.8552
9.452000	 64.8968
9.469999	 64.9691
9.488000	 65.0403
9.506000	 65.0824
9.524000	 65.0989
9.542000	 65.115
9.560000	 65.1399
9.577999	 65.1509
9.596000	 65.1177
9.614000	 65.0376
9.632000	 64.9451
9.650000	 64.889
9.667999	 64.8978
9.686000	 64.964
9.704000	 65.0532
9.722000	 65.1235
9.740000	 65.1422
9.757999	 65.0952
9.776000	 64.9892
9.794000	 64.8507
9.812000	 64.7177
9.830000	 64.6248
9.847999	 64.5884
9.866000	 64.5991
9.884000	 64.6276
9.902000	 64.6428
9.920000	 64.6313
9.937999	 64.6055
9.956000	 64.5949
9.974000	 64.6235
9.992000	 64.6921
10.01	64.7766
10.028	64.8414
10.046	64.8615
10.064	64.835
10.082	64.7808
10.1	64.7271
10.118	64.698
10.136	64.7025
10.154	64.7351
10.172	64.7793
10.19	64.8144
10.208	64.8283
10.226	64.8233
10.244	64.8146
10.262	64.8208
10.28	64.8505
10.298	64.8996
10.316	64.9526
10.334	64.9922
10.352	65.0055
10.37	64.9839
10.388	64.926
10.406	64.8394
10.424	64.7458
10.442	64.6802
10.46	64.6752
10.478	64.7448
10.496	64.8713
10.514	65.0147
10.532	65.1266
10.55	65.1762
10.568	65.1546
10.586	65.0718
10.604	64.9429
10.622	64.7816
10.64	64.5979
10.658	64.4063
10.676	64.2329
10.694	64.1074
10.712	64.0531
10.73	64.0736
10.748	64.1502
10.766	64.2485
10.784	64.3358
10.802	64.3902
10.82	64.405
10.838	64.383
10.856	64.3314
10.874	64.2604
10.892	64.1864
10.91	64.1354
10.928	64.1341
10.946	64.1975
10.964	64.3136
10.982	64.4414
11	64.5258
11.018	64.5213
11.036	64.4189
11.054	64.251
11.072	64.0775
11.09	63.9627
11.108	63.942
11.126	64.0147
11.144	64.1489
11.162	64.2965
11.18	64.4173
11.198	64.4878
11.216	64.5029
11.234	64.4714
11.252	64.4097
11.27	64.3341
11.288	64.261
11.306	64.2043
11.324	64.1745
11.342	64.1763
11.36	64.2065
11.378	64.2547
11.396	64.3077
11.414	64.3519
11.432	64.3802
11.45	64.3935
11.468	64.3984
11.486	64.4033
11.504	64.4156
11.522	64.439
11.54	64.4725
11.558	64.512
11.576	64.5527
11.594	64.5912
11.612	64.6249
11.63	64.653
11.648	64.6749
11.666	64.6897
11.684	64.694
11.702	64.6828
11.72	64.6514
11.738	64.5975
11.756	64.5237
11.774	64.4389
11.792	64.3569
11.81	64.2918
11.828	64.2538
11.846	64.2468
11.864	64.2665
11.882	64.3029
11.9	64.3442
11.918	64.3815
11.936	64.4108
11.954	64.4329
11.972	64.4508
11.99	64.4661
12.008	64.4769
12.026	64.4782
12.044	64.4643
12.062	64.4339
12.08	64.3926
12.098	64.3515
12.116	64.3242
12.134	64.3204
12.152	64.3414
12.17	64.3808
12.188	64.4258
12.206	64.4626
12.224	64.4806
12.242	64.4764
12.26	64.4529
12.278	64.4188
12.296	64.3851
12.314	64.3617
12.332	64.3537
12.35	64.3608
12.368	64.3772
12.386	64.3942
12.404	64.4028
12.422	64.3971
12.44	64.3764
12.458	64.3455
12.476	64.3131
12.494	64.2887
12.512	64.2784
12.53	64.2821
12.548	64.2927
12.566	64.2988
12.584	64.2871
12.602	64.2477
12.62	64.1777
12.638	64.0823
12.656	63.9731
12.674	63.8643
12.692	63.7692
12.71	63.6967
12.728	63.6501
12.746	63.6274
12.764	63.6242
12.782	63.6363
12.8	63.6607
12.818	63.6964
12.836	63.7422
12.854	63.7962
12.872	63.853
12.89	63.9061
12.908	63.9481
12.926	63.9737
12.944	63.9811
12.962	63.9743
12.98	63.9619
12.998	63.9542
13.016	63.9607
13.034	63.987
13.052	64.0331
13.07	64.0936
13.088	64.1603
13.106	64.2235
13.124	64.2757
13.142	64.3115
13.16	64.3282
13.178	64.3254
13.196	64.3042
13.214	64.2675
13.232	64.2191
13.25	64.1641
13.268	64.1097
13.286	64.0623
13.304	64.027
13.322	64.005
13.34	63.9937
13.358	63.9856
13.376	63.9706
13.394	63.9379
13.412	63.879
13.43	63.7916
13.448	63.6798
13.466	63.5543
13.484	63.4291
13.502	63.3186
13.52	63.2336
13.538	63.1789
13.556	63.1523
13.574	63.1467
13.592	63.1525
13.61	63.1604
13.628	63.1646
13.646	63.1635
13.664	63.1607
13.682	63.1615
13.7	63.1737
13.718	63.2034
13.736	63.2546
13.754	63.327
13.772	63.4162
13.79	63.5146
13.808	63.6122
13.826	63.6995
13.844	63.7678
13.862	63.8106
13.88	63.8244
13.898	63.8092
13.916	63.768
13.934	63.7062
13.952	63.6306
13.97	63.5487
13.988	63.468
14.006	63.3942
14.024	63.3313
14.042	63.281
14.06	63.2435
14.078	63.2176
14.096	63.2016
14.114	63.1938
14.132	63.193
14.15	63.1983
14.168	63.2084
14.186	63.2222
14.204	63.2371
14.222	63.2507
14.24	63.2599
14.258	63.2625
14.276	63.2569
14.294	63.2429
14.312	63.2222
14.33	63.1982
14.348	63.1754
14.366	63.1592
14.384	63.1543
14.402	63.1639
14.42	63.1889
14.438	63.2276
14.456	63.2762
14.474	63.3295
14.492	63.3814
14.51	63.426
14.528	63.4586
14.546	63.4764
14.564	63.4786
14.582	63.466
14.6	63.441
14.618	63.4071
14.636	63.3683
14.654	63.3279
14.672	63.2886
14.69	63.2526
14.708	63.2211
14.726	63.1945
14.744	63.1721
14.762	63.1531
14.78	63.1366
14.798	63.1217
14.816	63.1083
14.834	63.0965
14.852	63.0867
14.87	63.0799
14.888	63.077
14.906	63.0789
14.924	63.0863
14.942	63.0992
14.96	63.1166
14.978	63.1367
14.996	63.1572
15.014	63.1752
15.032	63.1869
15.05	63.1896
15.068	63.1813
15.086	63.1615
15.104	63.1304
15.122	63.0902
15.14	63.0447
15.158	62.9979
15.176	62.9542
15.194	62.9182
15.212	62.8938
15.23	62.8834
15.248	62.8878
15.266	62.9068
15.284	62.9385
15.302	62.9791
15.32	63.0244
15.338	63.0697
15.356	63.1091
15.374	63.1372
15.392	63.1506
15.41	63.1469
15.428	63.1245
15.446	63.0847
15.464	63.0302
15.482	62.9648
15.5	62.8931
15.518	62.8214
15.536	62.7543
15.554	62.6956
15.572	62.6484
15.59	62.614
15.608	62.5916
15.626	62.5797
15.644	62.5754
15.662	62.5744
15.68	62.5734
15.698	62.5692
15.716	62.5588
15.734	62.5412
15.752	62.5166
15.77	62.486
15.788	62.4519
15.806	62.4174
15.824	62.3848
15.842	62.3573
15.86	62.3376
15.878	62.3269
15.896	62.326
15.914	62.3349
15.932	62.3524
15.95	62.3774
15.968	62.4079
15.986	62.4413
16.004	62.476
16.022	62.5101
16.04	62.5414
16.058	62.569
16.076	62.5919
16.094	62.6093
16.112	62.6209
16.13	62.6264
16.148	62.6257
16.166	62.6184
16.184	62.6043
16.202	62.5829
16.22	62.5538
16.238	62.5167
16.256	62.4715
16.274	62.4186
16.292	62.3593
16.31	62.2947
16.328	62.2283
16.346	62.1633
16.364	62.1027
16.382	62.052
16.4	62.0149
16.418	61.9946
16.436	61.9951
16.454	62.0177
16.472	62.0629
16.49	62.13
16.508	62.2153
16.526	62.3161
16.544	62.4257
16.562	62.538
16.58	62.6482
16.598	62.7478
16.616	62.8327
16.634	62.899
16.652	62.9427
16.67	62.9638
16.688	62.9617
16.706	62.9393
16.724	62.8993
16.742	62.8453
16.76	62.7834
16.778	62.7166
16.796	62.65
16.814	62.5873
16.832	62.5307
16.85	62.4824
16.868	62.4427
16.886	62.4118
16.904	62.3881
16.922	62.37
16.94	62.356
16.958	62.3432
16.976	62.3305
16.994	62.3155
17.012	62.2975
17.03	62.2759
17.048	62.2509
17.066	62.2234
17.084	62.1944
17.102	62.1662
17.12	62.1398
17.138	62.1181
17.156	62.1023
17.174	62.0936
17.192	62.0933
17.21	62.1013
17.228	62.1179
17.246	62.1415
17.264	62.1717
17.282	62.2053
17.3	62.2411
17.318	62.2759
17.336	62.3071
17.354	62.3329
17.372	62.3503
17.39	62.3586
17.408	62.3563
17.426	62.3433
17.444	62.3192
17.462	62.2854
17.48	62.2428
17.498	62.1938
17.516	62.1409
17.534	62.086
17.552	62.033
17.57	61.983
17.588	61.9393
17.606	61.9024
17.624	61.8741
17.642	61.8541
17.66	61.8425
17.678	61.8376
17.696	61.8388
17.714	61.8434
17.732	61.85
17.75	61.8565
17.768	61.8609
17.786	61.8624
17.804	61.8596
17.822	61.8526
17.84	61.8418
17.858	61.8282
17.876	61.8128
17.894	61.7983
17.912	61.7859
17.93	61.7787
17.948	61.7774
17.966	61.7849
17.984	61.8015
18.002	61.8286
18.02	61.8655
18.038	61.9122
18.056	61.9662
18.074	62.0272
18.092	62.0902
18.11	62.1545
18.128	62.2142
18.146	62.2682
18.164	62.3111
18.182	62.3413
18.2	62.3557
18.218	62.3528
18.236	62.3311
18.254	62.2912
18.272	62.2327
18.29	62.159
18.308	62.0705
18.326	61.9727
18.344	61.8668
18.362	61.7599
18.38	61.6536
18.398	61.5542
18.416	61.4638
18.434	61.3871
18.452	61.3256
18.47	61.2814
18.488	61.2543
18.506	61.245
18.524	61.2504
18.542	61.2702
18.56	61.2986
18.578	61.3353
18.596	61.373
18.614	61.4114
18.632	61.4439
18.65	61.4705
18.668	61.4866
18.686	61.4924
18.704	61.4863
18.722	61.4688
18.74	61.4412
18.758	61.4043
18.776	61.3609
18.794	61.3121
18.812	61.2617
18.83	61.2104
18.848	61.1615
18.866	61.1154
18.884	61.0746
18.902	61.039
18.92	61.0097
18.938	60.9863
18.956	60.9691
18.974	60.9574
18.992	60.9508
19.01	60.9488
19.028	60.9508
19.046	60.9565
19.064	60.9653
19.082	60.9771
19.1	60.9914
19.118	61.0085
19.136	61.0281
19.154	61.0502
19.172	61.0749
19.19	61.1021
19.208	61.1316
19.226	61.1632
19.244	61.1959
19.262	61.2296
19.28	61.2627
19.298	61.295
19.316	61.3245
19.334	61.3512
19.352	61.3729
19.37	61.3895
19.388	61.3998
19.406	61.4037
19.424	61.4004
19.442	61.3897
19.46	61.372
19.478	61.3469
19.496	61.3154
19.514	61.2774
19.532	61.234
19.55	61.1859
19.568	61.134
19.586	61.0794
19.604	61.0226
19.622	60.965
19.64	60.9067
19.658	60.8495
19.676	60.793
19.694	60.739
19.712	60.6871
19.73	60.6386
19.748	60.5936
19.766	60.5531
19.784	60.5171
19.802	60.4864
19.82	60.4614
19.838	60.4423
19.856	60.4298
19.874	60.4236
19.892	60.4246
19.91	60.4325
19.928	60.4476
19.946	60.4699
19.964	60.4988
19.982	60.5344
20	60.5756
20.018	60.622
20.036	60.6723
20.054	60.7248
20.072	60.7791
20.09	60.8319
20.108	60.8836
20.126	60.9301
20.144	60.9716
20.162	61.0052
20.18	61.0297
20.198	61.0443
20.216	61.047
20.234	61.0383
20.252	61.0176
20.27	60.9849
20.288	60.9421
20.306	60.8886
20.324	60.8276
20.342	60.7604
20.36	60.6883
20.378	60.6162
20.396	60.5433
20.414	60.4754
20.432	60.4119
20.45	60.3568
20.468	60.3122
20.486	60.2782
20.504	60.2576
20.522	60.2497
20.54	60.2549
20.558	60.2736
20.576	60.3034
20.594	60.3441
20.612	60.394
20.63	60.4493
20.648	60.5107
20.666	60.5725
20.684	60.6352
20.702	60.6952
20.72	60.7499
20.738	60.7994
20.756	60.84
20.774	60.8725
20.792	60.8952
20.81	60.9077
20.828	60.9105
20.846	60.904
20.864	60.8881
20.882	60.8651
20.9	60.8346
20.918	60.7988
20.936	60.7592
20.954	60.7158
20.972	60.6717
20.99	60.6261
21.008	60.581
21.026	60.5374
21.044	60.4949
21.062	60.4548
21.08	60.4168
21.098	60.3809
21.116	60.3474
21.134	60.3158
21.152	60.2856
21.17	60.2572
21.188	60.2295
21.206	60.2026
21.224	60.1762
21.242	60.15
21.26	60.1242
21.278	60.0984
21.296	60.0726
21.314	60.047
21.332	60.0217
21.35	59.9968
21.368	59.973
21.386	59.9504
21.404	59.9293
21.422	59.911
21.44	59.8952
21.458	59.8827
21.476	59.874
21.494	59.8691
21.512	59.8687
21.53	59.8727
21.548	59.8815
21.566	59.8956
21.584	59.9147
21.602	59.9389
21.62	59.9682
21.638	60.0024
21.656	60.0414
21.674	60.0852
21.692	60.1324
21.71	60.1832
21.728	60.237
21.746	60.2917
21.764	60.3482
21.782	60.4043
21.8	60.4584
21.818	60.5111
21.836	60.5589
21.854	60.6021
21.872	60.6397
21.89	60.6688
21.908	60.6903
21.926	60.7024
21.944	60.7036
21.962	60.6946
21.98	60.6744
21.998	60.6425
22.016	60.5998
22.034	60.5469
22.052	60.483
22.07	60.4105
22.088	60.3307
22.106	60.2429
22.124	60.1514
22.142	60.0564
22.16	59.9585
22.178	59.8629
22.196	59.7679
22.214	59.6764
22.232	59.5921
22.25	59.5133
22.268	59.4429
22.286	59.3828
22.304	59.3319
22.322	59.2916
22.34	59.2627
22.358	59.2442
22.376	59.235
22.394	59.2362
22.412	59.2455
22.43	59.2603
22.448	59.2824
22.466	59.3076
22.484	59.3331
22.502	59.3606
22.52	59.3853
22.538	59.4051
22.556	59.4213
22.574	59.4289
22.592	59.4274
22.61	59.4171
22.628	59.395
22.646	59.3612
22.664	59.3158
22.682	59.2583
22.7	59.1882
22.718	59.1072
22.736	59.0168
22.754	58.9157
22.772	58.8072
22.79	58.6939
22.808	58.5738
22.826	58.4518
22.844	58.3305
22.862	58.2079
22.88	58.0895
22.898	57.9773
22.916	57.8698
22.934	57.7714
22.952	57.6835
22.97	57.605
22.988	57.5391
23.006	57.4866
23.024	57.4467
23.042	57.4199
23.06	57.4073
23.078	57.4076
23.096	57.4184
23.114	57.4407
23.132	57.4733
23.15	57.5121
23.168	57.558
23.186	57.6099
23.204	57.6632
23.222	57.7185
23.24	57.7752
23.258	57.8294
23.276	57.8814
23.294	57.931
23.312	57.9757
23.33	58.0153
23.348	58.0503
23.366	58.0805
23.384	58.1054
23.402	58.1255
23.42	58.1416
23.438	58.1529
23.456	58.1601
23.474	58.1659
23.492	58.1699
23.51	58.1723
23.528	58.1767
23.546	58.1838
23.564	58.1927
23.582	58.2066
23.6	58.2264
23.618	58.2512
23.636	58.2825
23.654	58.3215
23.672	58.3677
23.69	58.4197
23.708	58.4771
23.726	58.5411
23.744	58.6078
23.762	58.674
23.78	58.7425
23.798	58.8092
23.816	58.8696
23.834	58.9262
23.852	58.9766
23.87	59.0162
23.888	59.0463
23.906	59.0663
23.924	59.0731
23.942	59.0663
23.96	59.0469
23.978	59.014
23.996	58.9668
24.014	58.9059
24.032	58.8333
24.05	58.7499
24.068	58.6541
24.086	58.5498
24.104	58.4401
24.122	58.3227
24.14	58.2002
24.158	58.0763
24.176	57.9494
24.194	57.8207
24.212	57.6937
24.23	57.5696
24.248	57.4471
24.266	57.3271
24.284	57.2101
24.302	57.0954
24.32	56.9841
24.338	56.877
24.356	56.7731
24.374	56.6736
24.392	56.58
24.41	56.4908
24.428	56.4073
24.446	56.3331
24.464	56.2682
24.482	56.2105
24.5	56.1683
24.518	56.148
24.536	56.1438
24.554	56.1615
24.572	56.2097
24.59	56.2873
24.608	56.3932
24.626	56.5317
24.644	56.7058
24.662	56.9134
24.68	57.1527
24.698	57.4221
24.716	57.723
24.734	58.0537
24.752	58.4111
24.77	58.7992
24.788	59.2162
24.806	59.6496
24.824	60.0928
24.842	60.5579
24.86	61.0258
24.878	61.4743
24.896	61.9141
24.914	62.3409
24.932	62.7289
24.95	63.0668
24.968	63.3715
24.986	63.6197
25.004	63.7864
25.022	63.8798
25.04	63.9004
25.058	63.8364
25.076	63.6787
25.094	63.4327
25.112	63.1064
25.13	62.7066
25.148	62.22
25.166	61.6605
25.184	61.0545
25.202	60.4086
25.22	59.7042
25.238	58.9781
25.256	58.268
25.274	57.5514
25.292	56.8383
25.31	56.1693
25.328	55.567
25.346	55.0037
25.364	54.5052
25.382	54.1024
25.4	53.7915
25.418	53.5656
25.436	53.439
25.454	53.4243
25.472	53.5177
25.49	53.7121
25.508	54.0009
25.526	54.388
25.544	54.8753
25.562	55.4435
25.58	56.0751
25.598	56.7873
25.616	57.5681
25.634	58.3888
25.652	59.2342
25.67	60.1274
25.688	61.0432
25.706	61.951
25.724	62.8529
25.742	63.7597
25.76	64.6437
25.778	65.4798
25.796	66.2877
25.814	67.0584
25.832	67.7645
25.85	68.3882
25.868	68.9491
25.886	69.4352
25.904	69.8297
25.922	70.1308
25.94	70.3486
25.958	70.4674
25.976	70.4716
25.994	70.3588
26.012	70.1373
26.03	69.8119
26.048	69.3854
26.066	68.8444
26.084	68.2047
26.102	67.4904
26.12	66.7105
26.138	65.8331
26.156	64.9024
26.174	63.9714
26.192	63.0465
26.21	62.0872
26.228	61.1618
26.246	60.3419
26.264	59.6106
26.282	58.942
26.3	58.4154
26.318	58.1082
26.336	57.9761
26.354	58.0186
26.372	58.3126
26.39	58.9286
26.408	59.8248
26.426	61.0025
26.444	62.5011
26.462	64.3555
26.48	66.5487
26.498	69.0717
26.516	71.9243
26.534	75.1149
26.552	78.6732
26.57	82.5453
26.588	86.6656
26.606	91.0066
26.624	95.6528
26.642	100.505
26.66	105.442
26.678	110.413
26.696	115.543
26.714	120.702
26.732	125.733
26.75	130.577
26.768	135.377
26.786	139.994
26.804	144.268
26.822	148.129
26.84	151.709
26.858	154.912
26.876	157.622
26.894	159.777
26.912	161.464
26.93	162.651
26.948	163.299
26.966	163.245
26.984	162.312
27.002	161.022
27.02	159.936
27.028	159.689