File: Bakgrunnsmateriale/MATLAB/FTIR/ftir_data/subBb/Mapping_121/C-4040-8_e124.asc
PE IR       SPECTRUM    SPECTRUM    ASCII       PEDS        1.60
  -1
C-7CC3~1.ASC
17/03/27
18:08:11.00
17/03/27
18:08:37.00
tln
$C-4040-8_e0124$<ebV0>[-23.3,12.1,10.0,0.0,27,1,0]
27.028
64

2002,4.07
MIRTGS : RIGHTBACK : INTERNAL 2
MIR : ON : INTERNAL 2
OPTKBR

0.200000
8
8.000000
FILLER
SINGLE
SPECTRUM
UNLOCKED 256

DOUBLE

COMBINED
1
0
0

0.002000
BACKG

1
0
TRUE
51149
0
LEFT NOT FITTED RIGHT NOT FITTED 0
NONE
NONE
15600
12
4.427000
51148
TRUE
1 0 8 72 0 0 0 0

15798

#HDR
-1
-1
#GR
µM
EGY
2.38419e-05
0.0
2.000000
0.002000
12515
8
2.460766
0.007486
#DATA
2.000000	 0.766897
2.018000	 0.784644
2.036000	 0.801599
2.054000	 0.824329
2.072000	 0.848261
2.090000	 0.871357
2.108000	 0.897983
2.126000	 0.902163
2.144000	 0.912709
2.162000	 0.922322
2.180000	 0.946463
2.198000	 0.976907
2.216000	 0.988977
2.234000	 1.001361
2.252000	 1.004886
2.270000	 1.001771
2.288000	 1.000278
2.306000	 1.065115
2.324000	 1.112139
2.342000	 1.141044
2.360000	 1.172773
2.378000	 1.189208
2.396000	 1.208370
2.414000	 1.220067
2.432000	 1.251704
2.450000	 1.284270
2.468000	 1.326868
2.486000	 1.363517
2.504000	 1.391045
2.522000	 1.409379
2.540000	 1.416562
2.558000	 1.424462
2.576000	 1.436654
2.594000	 1.444122
2.612000	 1.489897
2.630000	 1.507761
2.648000	 1.541231
2.666000	 1.544689
2.684000	 1.566381
2.702000	 1.577105
2.720000	 1.563823
2.738000	 1.565918
2.756000	 1.575586
2.774000	 1.590052
2.792000	 1.601814
2.810000	 1.616396
2.828000	 1.624293
2.846000	 1.629731
2.864000	 1.624216
2.882000	 1.606326
2.900000	 1.594314
2.918000	 1.583337
2.936000	 1.592019
2.954000	 1.604981
2.972000	 1.625100
2.990000	 1.657973
3.008000	 1.684304
3.026000	 1.716900
3.044000	 1.744448
3.062000	 1.759474
3.080000	 1.776767
3.098000	 1.781843
3.116000	 1.790131
3.134000	 1.795500
3.152000	 1.793870
3.170000	 1.806701
3.188000	 1.827072
3.206000	 1.852835
3.224000	 1.871760
3.242000	 1.905574
3.260000	 1.931514
3.278000	 1.957711
3.296000	 1.978091
3.314000	 1.959796
3.332000	 2.024309
3.350000	 2.026875
3.368000	 1.964384
3.386000	 1.918636
3.404000	 1.828145
3.422000	 1.780038
3.440000	 1.929029
3.458000	 1.986945
3.476000	 2.003094
3.494000	 1.908913
3.512000	 2.011016
3.530000	 2.103861
3.548000	 2.142780
3.566000	 2.173611
3.584000	 2.199476
3.602000	 2.225023
3.620000	 2.241461
3.638000	 2.251823
3.656000	 2.256025
3.674000	 2.256185
3.692000	 2.249960
3.710000	 2.244910
3.728000	 2.237782
3.746000	 2.226476
3.764000	 2.217467
3.782000	 2.215939
3.800000	 2.216531
3.818000	 2.217558
3.836000	 2.219938
3.854000	 2.226353
3.872000	 2.241343
3.890000	 2.261224
3.908000	 2.274875
3.926000	 2.288252
3.944000	 2.305204
3.962000	 2.318482
3.980000	 2.320152
3.998000	 2.328933
4.016000	 2.330107
4.034000	 2.321548
4.052000	 2.317002
4.070000	 2.304866
4.088000	 2.292066
4.106000	 2.281883
4.124000	 2.264320
4.141999	 2.265234
4.160000	 2.252113
4.178000	 2.248425
4.196000	 2.246880
4.214000	 2.240334
4.232000	 2.233948
4.250000	 2.252419
4.268000	 2.264587
4.286000	 2.275103
4.304000	 2.295602
4.322000	 2.318398
4.340000	 2.330276
4.358000	 2.345400
4.375999	 2.358014
4.394000	 2.369740
4.412000	 2.375044
4.430000	 2.378625
4.448000	 2.377044
4.466000	 2.381229
4.484000	 2.376999
4.502000	 2.376072
4.520000	 2.369430
4.538000	 2.365325
4.556000	 2.357257
4.574000	 2.348734
4.592000	 2.343034
4.609999	 2.339004
4.628000	 2.332001
4.646000	 2.332695
4.664000	 2.334267
4.682000	 2.333550
4.700000	 2.334744
4.718000	 2.336944
4.736000	 2.340097
4.754000	 2.339114
4.772000	 2.338563
4.790000	 2.339945
4.808000	 2.347498
4.826000	 2.361148
4.843999	 2.379383
4.862000	 2.392572
4.880000	 2.408685
4.898000	 2.423439
4.916000	 2.432475
4.934000	 2.440220
4.952000	 2.450288
4.970000	 2.455732
4.988000	 2.456903
5.006000	 2.460507
5.024000	 2.457036
5.042000	 2.451818
5.060000	 2.445976
5.077999	 2.439891
5.096000	 2.438751
5.114000	 2.431691
5.132000	 2.423295
5.150000	 2.417588
5.168000	 2.412206
5.186000	 2.405486
5.204000	 2.397576
5.222000	 2.389695
5.240000	 2.384170
5.258000	 2.378362
5.276000	 2.371127
5.294000	 2.370097
5.312000	 2.374911
5.330000	 2.376382
5.348000	 2.379577
5.366000	 2.385589
5.384000	 2.392629
5.402000	 2.396642
5.420000	 2.396119
5.438000	 2.404550
5.456000	 2.406839
5.474000	 2.410166
5.492000	 2.421339
5.510000	 2.427176
5.528000	 2.431140
5.546000	 2.432448
5.564000	 2.432132
5.582000	 2.430069
5.600000	 2.432610
5.618000	 2.429929
5.636000	 2.418407
5.654000	 2.413586
5.672000	 2.416389
5.690000	 2.406861
5.708000	 2.387464
5.726000	 2.370937
5.744000	 2.350905
5.762000	 2.328422
5.780000	 2.325639
5.798000	 2.326059
5.816000	 2.310107
5.834000	 2.304241
5.852000	 2.297728
5.870000	 2.271648
5.888000	 2.252055
5.906000	 2.258043
5.923999	 2.252692
5.942000	 2.238948
5.960000	 2.237614
5.978000	 2.228860
5.996000	 2.217685
6.014000	 2.208987
6.032000	 2.192264
6.050000	 2.166642
6.068000	 2.163037
6.086000	 2.163660
6.104000	 2.150905
6.122000	 2.139152
6.140000	 2.128817
6.158000	 2.105465
6.176000	 2.069109
6.194000	 2.023488
6.212000	 1.983479
6.230000	 1.973556
6.248000	 1.992260
6.266000	 2.011544
6.284000	 2.019651
6.302000	 2.015655
6.320000	 2.002683
6.338000	 1.986557
6.356000	 1.979440
6.374000	 1.976562
6.392000	 1.959090
6.410000	 1.934126
6.428000	 1.935607
6.446000	 1.954186
6.464000	 1.958884
6.482000	 1.962304
6.500000	 2.000079
6.518000	 2.059863
6.536000	 2.100854
6.554000	 2.114970
6.572000	 2.113668
6.590000	 2.107878
6.608000	 2.098611
6.626000	 2.076868
6.644000	 2.022225
6.662000	 1.894385
6.680000	 1.730684
6.698000	 1.673587
6.716000	 1.759042
6.734000	 1.877723
6.752000	 1.949786
6.770000	 1.973911
6.788000	 1.976449
6.806000	 1.970144
6.824000	 1.949484
6.842000	 1.907335
6.860000	 1.843822
6.878000	 1.783867
6.896000	 1.770459
6.914000	 1.807614
6.932000	 1.847571
6.950000	 1.862411
6.968000	 1.867191
6.986000	 1.871715
7.004000	 1.871279
7.022000	 1.864976
7.040000	 1.856463
7.058000	 1.846537
7.076000	 1.826464
7.094000	 1.787741
7.112000	 1.743595
7.130000	 1.723372
7.148000	 1.737840
7.166000	 1.767680
7.184000	 1.787354
7.202000	 1.788178
7.220000	 1.783520
7.238000	 1.789081
7.256000	 1.801195
7.274000	 1.809874
7.292000	 1.814365
7.310000	 1.816322
7.328000	 1.816291
7.346000	 1.816276
7.364000	 1.816218
7.382000	 1.815239
7.400000	 1.814291
7.418000	 1.813850
7.436000	 1.813538
7.454000	 1.815112
7.472000	 1.821042
7.490000	 1.830398
7.508000	 1.839218
7.526000	 1.844726
7.544000	 1.847789
7.562000	 1.850687
7.580000	 1.853602
7.598000	 1.855005
7.616000	 1.854592
7.634000	 1.854011
7.652000	 1.854248
7.670000	 1.854416
7.688000	 1.854205
7.706000	 1.854254
7.724000	 1.854663
7.742000	 1.854799
7.760000	 1.853985
7.778000	 1.852213
7.796000	 1.849511
7.814000	 1.844788
7.832000	 1.835815
7.850000	 1.820074
7.868000	 1.795406
7.886000	 1.762789
7.904000	 1.730826
7.922000	 1.714215
7.940000	 1.722026
7.958000	 1.748969
7.976000	 1.780771
7.994000	 1.805913
8.012000	 1.821034
8.030000	 1.828512
8.048000	 1.831807
8.065999	 1.833389
8.084000	 1.833963
8.102000	 1.833290
8.120000	 1.830687
8.138000	 1.825925
8.155999	 1.819492
8.173999	 1.811817
8.192000	 1.802392
8.210000	 1.790299
8.228000	 1.776198
8.246000	 1.762715
8.263999	 1.752258
8.282000	 1.745894
8.300000	 1.743387
8.318000	 1.743508
8.336000	 1.744459
8.353999	 1.744472
8.372000	 1.742538
8.390000	 1.738795
8.408000	 1.733950
8.426000	 1.728678
8.443999	 1.722792
8.462000	 1.715927
8.480000	 1.708374
8.498000	 1.700757
8.516000	 1.693033
8.533999	 1.684125
8.552000	 1.673316
8.570000	 1.660877
8.588000	 1.647760
8.606000	 1.635167
8.624000	 1.624409
8.641999	 1.616377
8.660000	 1.611002
8.678000	 1.607050
8.696000	 1.602970
8.714000	 1.598387
8.731999	 1.594015
8.750000	 1.590570
8.768000	 1.587586
8.786000	 1.583449
8.804000	 1.576852
8.821999	 1.567368
8.840000	 1.555951
8.858000	 1.543932
8.876000	 1.532304
8.894000	 1.521008
8.911999	 1.509187
8.930000	 1.496450
8.948000	 1.483474
8.966000	 1.471600
8.984000	 1.461695
9.001999	 1.453775
9.020000	 1.447320
9.038000	 1.441718
9.056000	 1.436480
9.074000	 1.431589
9.092000	 1.427942
9.109999	 1.426662
9.128000	 1.427959
9.146000	 1.430057
9.164000	 1.430828
9.182000	 1.429346
9.199999	 1.426568
9.218000	 1.424164
9.236000	 1.423032
9.254000	 1.423258
9.272000	 1.424436
9.289999	 1.426646
9.308000	 1.429747
9.326000	 1.433323
9.344000	 1.436439
9.362000	 1.438159
9.379999	 1.437944
9.398000	 1.435324
9.416000	 1.429223
9.434000	 1.417341
9.452000	 1.397163
9.469999	 1.368715
9.488000	 1.336995
9.506000	 1.311368
9.524000	 1.300698
9.542000	 1.307929
9.560000	 1.328218
9.577999	 1.352044
9.596000	 1.371096
9.614000	 1.381884
9.632000	 1.385710
9.650000	 1.385441
9.667999	 1.383424
9.686000	 1.380556
9.704000	 1.376928
9.722000	 1.372756
9.740000	 1.368562
9.757999	 1.364991
9.776000	 1.362909
9.794000	 1.362622
9.812000	 1.364130
9.830000	 1.366896
9.847999	 1.370188
9.866000	 1.373560
9.884000	 1.377112
9.902000	 1.381192
9.920000	 1.385900
9.937999	 1.390627
9.956000	 1.394452
9.974000	 1.396530
9.992000	 1.396946
10.01	1.396394
10.028	1.395755
10.046	1.395379
10.064	1.394936
10.082	1.393872
10.1	1.391900
10.118	1.389238
10.136	1.386208
10.154	1.383237
10.172	1.380266
10.19	1.377182
10.208	1.373746
10.226	1.369989
10.244	1.365997
10.262	1.361905
10.28	1.357803
10.298	1.353499
10.316	1.348802
10.334	1.343540
10.352	1.337636
10.37	1.331209
10.388	1.324535
10.406	1.317891
10.424	1.311495
10.442	1.305411
10.46	1.299580
10.478	1.293951
10.496	1.288567
10.514	1.283524
10.532	1.278970
10.55	1.275020
10.568	1.271592
10.586	1.268669
10.604	1.266043
10.622	1.263449
10.64	1.260672
10.658	1.257585
10.676	1.254106
10.694	1.250264
10.712	1.246246
10.73	1.242120
10.748	1.238036
10.766	1.234165
10.784	1.230495
10.802	1.227027
10.82	1.223652
10.838	1.220266
10.856	1.216662
10.874	1.212688
10.892	1.208205
10.91	1.203207
10.928	1.197780
10.946	1.192065
10.964	1.186303
10.982	1.180627
11	1.175196
11.018	1.170296
11.036	1.166006
11.054	1.162484
11.072	1.159760
11.09	1.157740
11.108	1.156131
11.126	1.154720
11.144	1.153154
11.162	1.151159
11.18	1.148470
11.198	1.144816
11.216	1.139892
11.234	1.133392
11.252	1.125167
11.27	1.115132
11.288	1.103505
11.306	1.090715
11.324	1.077450
11.342	1.064577
11.36	1.052916
11.378	1.043265
11.396	1.036307
11.414	1.032393
11.432	1.031669
11.45	1.033936
11.468	1.038754
11.486	1.045545
11.504	1.053419
11.522	1.061576
11.54	1.069412
11.558	1.076296
11.576	1.081934
11.594	1.086225
11.612	1.089195
11.63	1.091023
11.648	1.091927
11.666	1.091987
11.684	1.091343
11.702	1.090124
11.72	1.088406
11.738	1.086338
11.756	1.084055
11.774	1.081789
11.792	1.079589
11.81	1.077533
11.828	1.075526
11.846	1.073346
11.864	1.070573
11.882	1.066812
11.9	1.061565
11.918	1.054463
11.936	1.044972
11.954	1.032781
11.972	1.017543
11.99	0.999163
12.008	0.977785
12.026	0.953966
12.044	0.928887
12.062	0.904065
12.08	0.881554
12.098	0.863223
12.116	0.850696
12.134	0.845007
12.152	0.846242
12.17	0.853618
12.188	0.865641
12.206	0.880327
12.224	0.895675
12.242	0.909989
12.26	0.922170
12.278	0.931609
12.296	0.938222
12.314	0.942502
12.332	0.944910
12.35	0.946035
12.368	0.946344
12.386	0.946228
12.404	0.945897
12.422	0.945434
12.44	0.944997
12.458	0.944686
12.476	0.944536
12.494	0.944720
12.512	0.945319
12.53	0.946396
12.548	0.948029
12.566	0.950247
12.584	0.953047
12.602	0.956324
12.62	0.959881
12.638	0.963584
12.656	0.967232
12.674	0.970649
12.692	0.973592
12.71	0.976045
12.728	0.977951
12.746	0.979297
12.764	0.980136
12.782	0.980559
12.8	0.980603
12.818	0.980341
12.836	0.979792
12.854	0.979040
12.872	0.978067
12.89	0.976939
12.908	0.975733
12.926	0.974449
12.944	0.973165
12.962	0.971960
12.98	0.970840
12.998	0.969838
13.016	0.968910
13.034	0.968041
13.052	0.967182
13.07	0.966352
13.088	0.965475
13.106	0.964672
13.124	0.963951
13.142	0.963409
13.16	0.962953
13.178	0.962668
13.196	0.962384
13.214	0.961954
13.232	0.961244
13.25	0.960044
13.268	0.958351
13.286	0.956116
13.304	0.953452
13.322	0.950603
13.34	0.947784
13.358	0.945195
13.376	0.943011
13.394	0.941296
13.412	0.939986
13.43	0.938954
13.448	0.938015
13.466	0.936993
13.484	0.935768
13.502	0.934258
13.52	0.932428
13.538	0.930314
13.556	0.927987
13.574	0.925563
13.592	0.923112
13.61	0.920645
13.628	0.918179
13.646	0.915788
13.664	0.913416
13.682	0.911026
13.7	0.908622
13.718	0.906247
13.736	0.903832
13.754	0.901402
13.772	0.898980
13.79	0.896523
13.808	0.894035
13.826	0.891458
13.844	0.888768
13.862	0.885928
13.88	0.882924
13.898	0.879770
13.916	0.876508
13.934	0.873179
13.952	0.869830
13.97	0.866576
13.988	0.863481
14.006	0.860556
14.024	0.857779
14.042	0.855130
14.06	0.852577
14.078	0.850053
14.096	0.847452
14.114	0.844704
14.132	0.841755
14.15	0.838586
14.168	0.835200
14.186	0.831560
14.204	0.827786
14.222	0.823865
14.24	0.819879
14.258	0.815797
14.276	0.811618
14.294	0.807301
14.312	0.802795
14.33	0.798059
14.348	0.793010
14.366	0.787566
14.384	0.781731
14.402	0.775566
14.42	0.769172
14.438	0.762669
14.456	0.756256
14.474	0.750209
14.492	0.744744
14.51	0.740078
14.528	0.736381
14.546	0.733709
14.564	0.732052
14.582	0.731338
14.6	0.731426
14.618	0.732139
14.636	0.733148
14.654	0.734274
14.672	0.735320
14.69	0.736111
14.708	0.736526
14.726	0.736542
14.744	0.736101
14.762	0.735304
14.78	0.734183
14.798	0.732798
14.816	0.731243
14.834	0.729583
14.852	0.727892
14.87	0.726196
14.888	0.724530
14.906	0.722913
14.924	0.721312
14.942	0.719770
14.96	0.718221
14.978	0.716681
14.996	0.715139
15.014	0.713514
15.032	0.711802
15.05	0.709993
15.068	0.708064
15.086	0.706007
15.104	0.703837
15.122	0.701531
15.14	0.699147
15.158	0.696696
15.176	0.694186
15.194	0.691671
15.212	0.689167
15.23	0.686745
15.248	0.684436
15.266	0.682232
15.284	0.680112
15.302	0.678120
15.32	0.676253
15.338	0.674503
15.356	0.672894
15.374	0.671333
15.392	0.669818
15.41	0.668339
15.428	0.666859
15.446	0.665391
15.464	0.663883
15.482	0.662303
15.5	0.660645
15.518	0.658895
15.536	0.657064
15.554	0.655160
15.572	0.653179
15.59	0.651135
15.608	0.649043
15.626	0.646927
15.644	0.644820
15.662	0.642718
15.68	0.640619
15.698	0.638528
15.716	0.636490
15.734	0.634463
15.752	0.632433
15.77	0.630394
15.788	0.628349
15.806	0.626286
15.824	0.624206
15.842	0.622138
15.86	0.620047
15.878	0.617952
15.896	0.615880
15.914	0.613791
15.932	0.611730
15.95	0.609710
15.968	0.607702
15.986	0.605726
16.004	0.603759
16.022	0.601765
16.04	0.599783
16.058	0.597784
16.076	0.595751
16.094	0.593679
16.112	0.591541
16.13	0.589320
16.148	0.586999
16.166	0.584572
16.184	0.582034
16.202	0.579378
16.22	0.576582
16.238	0.573647
16.256	0.570571
16.274	0.567380
16.292	0.564087
16.31	0.560705
16.328	0.557234
16.346	0.553722
16.364	0.550203
16.382	0.546730
16.4	0.543362
16.418	0.540140
16.436	0.537099
16.454	0.534298
16.472	0.531778
16.49	0.529581
16.508	0.527716
16.526	0.526189
16.544	0.525025
16.562	0.524198
16.58	0.523689
16.598	0.523438
16.616	0.523411
16.634	0.523575
16.652	0.523847
16.67	0.524173
16.688	0.524486
16.706	0.524780
16.724	0.525011
16.742	0.525100
16.76	0.525043
16.778	0.524838
16.796	0.524485
16.814	0.524000
16.832	0.523393
16.85	0.522665
16.868	0.521854
16.886	0.520992
16.904	0.520110
16.922	0.519225
16.94	0.518366
16.958	0.517536
16.976	0.516736
16.994	0.515965
17.012	0.515230
17.03	0.514538
17.048	0.513843
17.066	0.513152
17.084	0.512476
17.102	0.511795
17.12	0.511105
17.138	0.510403
17.156	0.509707
17.174	0.509040
17.192	0.508362
17.21	0.507679
17.228	0.507029
17.246	0.506413
17.264	0.505831
17.282	0.505308
17.3	0.504831
17.318	0.504352
17.336	0.503894
17.354	0.503468
17.372	0.503045
17.39	0.502618
17.408	0.502174
17.426	0.501705
17.444	0.501203
17.462	0.500653
17.48	0.500052
17.498	0.499393
17.516	0.498677
17.534	0.497906
17.552	0.497078
17.57	0.496196
17.588	0.495266
17.606	0.494293
17.624	0.493276
17.642	0.492245
17.66	0.491214
17.678	0.490167
17.696	0.489107
17.714	0.488051
17.732	0.487001
17.75	0.485961
17.768	0.484937
17.786	0.483931
17.804	0.482946
17.822	0.481975
17.84	0.480995
17.858	0.480008
17.876	0.479014
17.894	0.478021
17.912	0.477031
17.93	0.476036
17.948	0.475034
17.966	0.474036
17.984	0.473040
18.002	0.472045
18.02	0.471053
18.038	0.470059
18.056	0.469080
18.074	0.468120
18.092	0.467168
18.11	0.466225
18.128	0.465301
18.146	0.464391
18.164	0.463480
18.182	0.462570
18.2	0.461662
18.218	0.460756
18.236	0.459850
18.254	0.458951
18.272	0.458060
18.29	0.457192
18.308	0.456349
18.326	0.455513
18.344	0.454684
18.362	0.453864
18.38	0.453053
18.398	0.452252
18.416	0.451454
18.434	0.450653
18.452	0.449835
18.47	0.448991
18.488	0.448113
18.506	0.447196
18.524	0.446236
18.542	0.445231
18.56	0.444182
18.578	0.443088
18.596	0.441958
18.614	0.440791
18.632	0.439587
18.65	0.438346
18.668	0.437088
18.686	0.435816
18.704	0.434557
18.722	0.433309
18.74	0.432068
18.758	0.430836
18.776	0.429624
18.794	0.428423
18.812	0.427224
18.83	0.426023
18.848	0.424807
18.866	0.423585
18.884	0.422372
18.902	0.421155
18.92	0.419915
18.938	0.418664
18.956	0.417407
18.974	0.416155
18.992	0.414927
19.01	0.413724
19.028	0.412556
19.046	0.411420
19.064	0.410311
19.082	0.409240
19.1	0.408224
19.118	0.407253
19.136	0.406316
19.154	0.405414
19.172	0.404555
19.19	0.403725
19.208	0.402900
19.226	0.402077
19.244	0.401230
19.262	0.400358
19.28	0.399438
19.298	0.398474
19.316	0.397470
19.334	0.396424
19.352	0.395314
19.37	0.394142
19.388	0.392937
19.406	0.391699
19.424	0.390414
19.442	0.389073
19.46	0.387716
19.478	0.386350
19.496	0.384971
19.514	0.383571
19.532	0.382175
19.55	0.380798
19.568	0.379434
19.586	0.378083
19.604	0.376745
19.622	0.375431
19.64	0.374132
19.658	0.372831
19.676	0.371531
19.694	0.370248
19.712	0.368982
19.73	0.367703
19.748	0.366407
19.766	0.365098
19.784	0.363780
19.802	0.362442
19.82	0.361078
19.838	0.359693
19.856	0.358291
19.874	0.356872
19.892	0.355443
19.91	0.354003
19.928	0.352543
19.946	0.351062
19.964	0.349581
19.982	0.348111
20	0.346636
20.018	0.345148
20.036	0.343658
20.054	0.342182
20.072	0.340713
20.09	0.339238
20.108	0.337759
20.126	0.336289
20.144	0.334832
20.162	0.333370
20.18	0.331888
20.198	0.330399
20.216	0.328913
20.234	0.327424
20.252	0.325917
20.27	0.324390
20.288	0.322857
20.306	0.321320
20.324	0.319775
20.342	0.318215
20.36	0.316646
20.378	0.315077
20.396	0.313507
20.414	0.311939
20.432	0.310372
20.45	0.308814
20.468	0.307269
20.486	0.305737
20.504	0.304221
20.522	0.302719
20.54	0.301244
20.558	0.299796
20.576	0.298367
20.594	0.296948
20.612	0.295546
20.63	0.294173
20.648	0.292826
20.666	0.291489
20.684	0.290163
20.702	0.288842
20.72	0.287522
20.738	0.286204
20.756	0.284888
20.774	0.283575
20.792	0.282262
20.81	0.280945
20.828	0.279626
20.846	0.278306
20.864	0.276984
20.882	0.275660
20.9	0.274331
20.918	0.273005
20.936	0.271691
20.954	0.270382
20.972	0.269069
20.99	0.267751
21.008	0.266438
21.026	0.265133
21.044	0.263834
21.062	0.262542
21.08	0.261255
21.098	0.259975
21.116	0.258703
21.134	0.257435
21.152	0.256164
21.17	0.254890
21.188	0.253614
21.206	0.252339
21.224	0.251060
21.242	0.249770
21.26	0.248470
21.278	0.247161
21.296	0.245840
21.314	0.244513
21.332	0.243187
21.35	0.241861
21.368	0.240528
21.386	0.239181
21.404	0.237827
21.422	0.236478
21.44	0.235132
21.458	0.233789
21.476	0.232448
21.494	0.231109
21.512	0.229772
21.53	0.228437
21.548	0.227105
21.566	0.225784
21.584	0.224470
21.602	0.223146
21.62	0.221811
21.638	0.220467
21.656	0.219118
21.674	0.217763
21.692	0.216386
21.71	0.214976
21.728	0.213541
21.746	0.212090
21.764	0.210623
21.782	0.209135
21.8	0.207617
21.818	0.206072
21.836	0.204513
21.854	0.202934
21.872	0.201347
21.89	0.199774
21.908	0.198208
21.926	0.196661
21.944	0.195143
21.962	0.193650
21.98	0.192199
21.998	0.190788
22.016	0.189423
22.034	0.188120
22.052	0.186876
22.07	0.185691
22.088	0.184570
22.106	0.183511
22.124	0.182503
22.142	0.181545
22.16	0.180636
22.178	0.179765
22.196	0.178941
22.214	0.178147
22.232	0.177366
22.25	0.176605
22.268	0.175848
22.286	0.175086
22.304	0.174324
22.322	0.173543
22.34	0.172737
22.358	0.171911
22.376	0.171057
22.394	0.170175
22.412	0.169267
22.43	0.168333
22.448	0.167375
22.466	0.166388
22.484	0.165370
22.502	0.164321
22.52	0.163252
22.538	0.162167
22.556	0.161065
22.574	0.159963
22.592	0.158870
22.61	0.157777
22.628	0.156687
22.646	0.155597
22.664	0.154510
22.682	0.153427
22.7	0.152349
22.718	0.151277
22.736	0.150213
22.754	0.149157
22.772	0.148108
22.79	0.147068
22.808	0.146036
22.826	0.145008
22.844	0.143980
22.862	0.142952
22.88	0.141927
22.898	0.140905
22.916	0.139886
22.934	0.138861
22.952	0.137826
22.97	0.136785
22.988	0.135737
23.006	0.134681
23.024	0.133619
23.042	0.132553
23.06	0.131486
23.078	0.130415
23.096	0.129334
23.114	0.128242
23.132	0.127142
23.15	0.126032
23.168	0.124911
23.186	0.123782
23.204	0.122650
23.222	0.121518
23.24	0.120382
23.258	0.119236
23.276	0.118077
23.294	0.116910
23.312	0.115743
23.33	0.114580
23.348	0.113415
23.366	0.112243
23.384	0.111065
23.402	0.109880
23.42	0.108689
23.438	0.107490
23.456	0.106285
23.474	0.105082
23.492	0.103883
23.51	0.102686
23.528	0.101492
23.546	0.100303
23.564	0.099117
23.582	0.097940
23.6	0.096772
23.618	0.095613
23.636	0.094468
23.654	0.093342
23.672	0.092231
23.69	0.091141
23.708	0.090072
23.726	0.089024
23.744	0.087999
23.762	0.087002
23.78	0.086030
23.798	0.085085
23.816	0.084169
23.834	0.083283
23.852	0.082423
23.87	0.081585
23.888	0.080767
23.906	0.079972
23.924	0.079203
23.942	0.078463
23.96	0.077749
23.978	0.077047
23.996	0.076352
24.014	0.075668
24.032	0.074989
24.05	0.074307
24.068	0.073627
24.086	0.072946
24.104	0.072260
24.122	0.071578
24.14	0.070886
24.158	0.070171
24.176	0.069433
24.194	0.068675
24.212	0.067900
24.23	0.067108
24.248	0.066299
24.266	0.065476
24.284	0.064643
24.302	0.063799
24.32	0.062942
24.338	0.062072
24.356	0.061184
24.374	0.060288
24.392	0.059399
24.41	0.058516
24.428	0.057637
24.446	0.056764
24.464	0.055893
24.482	0.055024
24.5	0.054170
24.518	0.053341
24.536	0.052533
24.554	0.051747
24.572	0.050987
24.59	0.050250
24.608	0.049537
24.626	0.048852
24.644	0.048200
24.662	0.047578
24.68	0.046979
24.698	0.046398
24.716	0.045838
24.734	0.045296
24.752	0.044765
24.77	0.044245
24.788	0.043739
24.806	0.043234
24.824	0.042723
24.842	0.042213
24.86	0.041699
24.878	0.041176
24.896	0.040650
24.914	0.040116
24.932	0.039565
24.95	0.038989
24.968	0.038392
24.986	0.037778
25.004	0.037147
25.022	0.036497
25.04	0.035832
25.058	0.035153
25.076	0.034462
25.094	0.033756
25.112	0.033041
25.13	0.032320
25.148	0.031587
25.166	0.030849
25.184	0.030118
25.202	0.029400
25.22	0.028689
25.238	0.027990
25.256	0.027312
25.274	0.026650
25.292	0.026006
25.31	0.025389
25.328	0.024806
25.346	0.024250
25.364	0.023725
25.382	0.023235
25.4	0.022782
25.418	0.022362
25.436	0.021977
25.454	0.021625
25.472	0.021308
25.49	0.021024
25.508	0.020771
25.526	0.020552
25.544	0.020368
25.562	0.020208
25.58	0.020062
25.598	0.019935
25.616	0.019826
25.634	0.019729
25.652	0.019641
25.67	0.019569
25.688	0.019503
25.706	0.019434
25.724	0.019361
25.742	0.019287
25.76	0.019208
25.778	0.019120
25.796	0.019029
25.814	0.018931
25.832	0.018818
25.85	0.018686
25.868	0.018539
25.886	0.018376
25.904	0.018196
25.922	0.017998
25.94	0.017782
25.958	0.017551
25.976	0.017305
25.994	0.017043
26.012	0.016766
26.03	0.016477
26.048	0.016177
26.066	0.015863
26.084	0.015538
26.102	0.015208
26.12	0.014876
26.138	0.014539
26.156	0.014198
26.174	0.013856
26.192	0.013513
26.21	0.013165
26.228	0.012819
26.246	0.012482
26.264	0.012152
26.282	0.011827
26.3	0.011514
26.318	0.011218
26.336	0.010938
26.354	0.010673
26.372	0.010424
26.39	0.010192
26.408	0.009976
26.426	0.009776
26.444	0.009593
26.462	0.009426
26.48	0.009274
26.498	0.009139
26.516	0.009019
26.534	0.008916
26.552	0.008832
26.57	0.008763
26.588	0.008703
26.606	0.008647
26.624	0.008599
26.642	0.008559
26.66	0.008523
26.678	0.008492
26.696	0.008469
26.714	0.008449
26.732	0.008425
26.75	0.008395
26.768	0.008360
26.786	0.008323
26.804	0.008285
26.822	0.008247
26.84	0.008209
26.858	0.008168
26.876	0.008122
26.894	0.008068
26.912	0.008008
26.93	0.007941
26.948	0.007869
26.966	0.007787
26.984	0.007686
27.002	0.007586
27.02	0.007507
27.028	0.007486