File: Bakgrunnsmateriale/MATLAB/FTIR/ftir_data/subBb/Mapping_121/C-4040-8_t32_cm-1.asc
PE IR       SPECTRUM    SPECTRUM    ASCII       PEDS        1.60
  -1
C-1B64~1.ASC
17/03/27
17:06:22.00
17/03/27
17:06:22.00
tln
$C-4040-8_t0032$<tbV0>[-10.4,-7.8,8.0,0.0,27,1,0]
370
64

2002,4.07
MIRTGS : RIGHTBACK : INTERNAL 2
MIR : ON : INTERNAL 2
OPTKBR

0.200000
8
8.000000
FILLER
RATIO
SPECTRUM
UNLOCKED 256

DOUBLE
64
COMBINED
1
0
0

1.000000
RATIO

1
0
TRUE
51149
0
LEFT NOT FITTED RIGHT NOT FITTED 0
NONE
NONE
15600
12
4.427000
51148
TRUE
1 0 8 72 0 0 0 0

15798

#HDR
-1
-1
#GR
CM-1
%T
2.38419e-05
0.0
5000
-1.000000
4631
8
91.395
45.2042
#DATA
5000	64.6104
4996	64.4496
4992	64.3548
4988	64.302
4984	64.1473
4980	64.2312
4976	64.6664
4972	64.9371
4968	64.9996
4964	65.148
4960	65.1579
4956	65.0067
4952	65.0169
4948	65.0338
4944	64.9181
4940	64.9398
4936	64.8805
4932	64.5694
4928	64.4363
4924	64.47
4920	64.4951
4916	64.6079
4912	64.7084
4908	64.7563
4904	64.8571
4900	65.0829
4896	65.0862
4892	64.6759
4888	64.4125
4884	64.4234
4880	64.5469
4876	64.7137
4872	64.681
4868	64.5679
4864	64.6096
4860	64.6478
4856	64.5538
4852	64.621
4848	64.8731
4844	64.9592
4840	64.8419
4836	64.6296
4832	64.4961
4828	64.6816
4824	65.0526
4820	65.1065
4816	64.7095
4812	64.4122
4808	64.4797
4804	64.6777
4800	64.7703
4796	64.6529
4792	64.5056
4788	64.475
4784	64.5036
4780	64.5064
4776	64.4929
4772	64.5112
4768	64.5407
4764	64.65
4760	64.8232
4756	64.8512
4752	64.8312
4748	64.9438
4744	64.9823
4740	64.7701
4736	64.5183
4732	64.4755
4728	64.5791
4724	64.705
4720	64.7878
4716	64.7352
4712	64.5686
4708	64.4571
4704	64.4955
4700	64.5813
4696	64.6609
4692	64.6996
4688	64.5954
4684	64.4955
4680	64.5175
4676	64.502
4672	64.4812
4668	64.5525
4664	64.6641
4660	64.8035
4656	64.854
4652	64.675
4648	64.6019
4644	64.8343
4640	64.9914
4636	64.9548
4632	64.944
4628	64.9885
4624	64.9745
4620	64.8962
4616	64.8227
4612	64.7719
4608	64.6808
4604	64.6265
4600	64.7224
4596	64.7556
4592	64.6471
4588	64.6032
4584	64.5963
4580	64.4896
4576	64.3946
4572	64.5115
4568	64.7288
4564	64.8031
4560	64.7684
4556	64.7539
4552	64.7647
4548	64.8265
4544	64.8077
4540	64.4865
4536	64.2756
4532	64.6534
4528	65.1199
4524	65.0806
4520	64.7777
4516	64.5854
4512	64.5916
4508	64.6776
4504	64.7072
4500	64.6731
4496	64.6596
4492	64.616
4488	64.5278
4484	64.5284
4480	64.5528
4476	64.4216
4472	64.1596
4468	64.0936
4464	64.2472
4460	64.4052
4456	64.5202
4452	64.4592
4448	64.2839
4444	64.0679
4440	63.9551
4436	64.1209
4432	64.2312
4428	64.1481
4424	64.0944
4420	64.1174
4416	64.2059
4412	64.1792
4408	64.1007
4404	64.2211
4400	64.2086
4396	64.4573
4392	64.7267
4388	65.3543
4384	64.8902
4380	63.1644
4376	64.4993
4372	66.0182
4368	65.819
4364	68.6677
4360	75.2678
4356	76.0755
4352	67.3663
4348	62.2294
4344	63.7369
4340	64.8549
4336	64.7211
4332	64.4254
4328	64.5231
4324	64.9653
4320	65.2487
4316	65.2486
4312	65.0074
4308	64.6685
4304	64.5312
4300	64.4851
4296	64.4072
4292	64.3626
4288	64.3097
4284	64.3455
4280	64.5617
4276	64.852
4272	64.8726
4268	64.553
4264	64.2645
4260	64.1357
4256	64.1127
4252	64.1562
4248	64.2742
4244	64.3689
4240	64.3994
4236	64.4422
4232	64.4935
4228	64.4829
4224	64.4091
4220	64.4099
4216	64.3878
4212	64.3594
4208	64.5103
4204	64.6972
4200	64.5468
4196	64.1114
4192	63.8995
4188	63.7946
4184	63.7217
4180	64.0579
4176	64.5439
4172	64.6942
4168	64.6723
4164	64.7148
4160	64.5348
4156	64.2997
4152	64.4418
4148	64.6784
4144	64.7717
4140	64.8018
4136	64.7836
4132	64.7508
4128	64.6385
4124	64.5505
4120	64.5095
4116	64.443
4112	64.448
4108	64.5035
4104	64.5043
4100	64.4934
4096	64.6124
4092	64.7166
4088	64.6718
4084	64.6145
4080	64.5806
4076	64.6566
4072	64.7542
4068	64.6777
4064	64.6265
4060	64.5483
4056	64.3443
4052	64.2928
4048	64.4101
4044	64.5568
4040	64.6347
4036	64.6238
4032	64.656
4028	64.6372
4024	64.4761
4020	64.4204
4016	64.571
4012	64.6337
4008	64.4986
4004	64.4662
4000	64.6568
3996	64.8775
3992	64.9527
3988	64.8659
3984	64.7341
3980	64.6598
3976	64.6572
3972	64.7105
3968	64.8082
3964	64.8875
3960	64.8179
3956	64.5922
3952	64.3861
3948	64.3069
3944	64.3849
3940	64.5145
3936	64.504
3932	64.4613
3928	64.5075
3924	64.562
3920	64.5475
3916	64.408
3912	64.272
3908	64.2668
3904	64.3648
3900	64.4921
3896	64.5448
3892	64.5273
3888	64.6028
3884	64.7806
3880	64.8441
3876	64.7072
3872	64.5004
3868	64.4207
3864	64.4687
3860	64.5262
3856	64.6261
3852	64.668
3848	64.5311
3844	64.4701
3840	64.5202
3836	64.5172
3832	64.4681
3828	64.4102
3824	64.4927
3820	64.628
3816	64.6193
3812	64.6438
3808	64.7508
3804	64.7154
3800	64.5435
3796	64.386
3792	64.3483
3788	64.3911
3784	64.4088
3780	64.443
3776	64.4424
3772	64.4149
3768	64.463
3764	64.5264
3760	64.5679
3756	64.5747
3752	64.5607
3748	64.538
3744	64.4923
3740	64.4463
3736	64.4646
3732	64.602
3728	64.7361
3724	64.7526
3720	64.6236
3716	64.4746
3712	64.4489
3708	64.4576
3704	64.4435
3700	64.4663
3696	64.4697
3692	64.4571
3688	64.5213
3684	64.5121
3680	64.4276
3676	64.4125
3672	64.427
3668	64.4049
3664	64.3791
3660	64.446
3656	64.5348
3652	64.618
3648	64.6942
3644	64.6743
3640	64.5951
3636	64.4986
3632	64.4243
3628	64.4681
3624	64.5761
3620	64.5643
3616	64.5211
3612	64.5085
3608	64.423
3604	64.352
3600	64.3437
3596	64.3642
3592	64.3551
3588	64.298
3584	64.2808
3580	64.324
3576	64.4162
3572	64.4851
3568	64.4035
3564	64.2856
3560	64.3724
3556	64.628
3552	64.6961
3548	64.4847
3544	64.3119
3540	64.3015
3536	64.3251
3532	64.3087
3528	64.2878
3524	64.2803
3520	64.3202
3516	64.4083
3512	64.4021
3508	64.339
3504	64.3623
3500	64.4359
3496	64.4274
3492	64.3765
3488	64.3973
3484	64.4414
3480	64.4076
3476	64.3219
3472	64.2742
3468	64.2596
3464	64.2645
3460	64.2448
3456	64.2588
3452	64.3875
3448	64.4186
3444	64.2951
3440	64.2457
3436	64.2849
3432	64.2983
3428	64.2615
3424	64.1759
3420	64.1401
3416	64.152
3412	64.133
3408	64.1195
3404	64.1013
3400	64.1386
3396	64.2449
3392	64.2286
3388	64.1249
3384	64.0919
3380	64.0728
3376	64.0674
3372	64.0977
3368	64.1002
3364	64.0435
3360	64.0005
3356	64.09
3352	64.1796
3348	64.1634
3344	64.2369
3340	64.3022
3336	64.1957
3332	64.0813
3328	64.0542
3324	64.2019
3320	64.3527
3316	64.2449
3312	64.0913
3308	64.0873
3304	64.0744
3300	64.0772
3296	64.2258
3292	64.3287
3288	64.287
3284	64.1349
3280	64.0045
3276	64.0453
3272	64.1451
3268	64.2346
3264	64.2561
3260	64.148
3256	64.0131
3252	63.9396
3248	63.9652
3244	64.1405
3240	64.2863
3236	64.2224
3232	64.1179
3228	64.1036
3224	64.1289
3220	64.0526
3216	63.884
3212	63.8582
3208	63.9941
3204	64.0819
3200	64.0651
3196	64.025
3192	64.0121
3188	64.032
3184	64.097
3180	64.1826
3176	64.1623
3172	64.0298
3168	63.9379
3164	63.9908
3160	64.0792
3156	64.0223
3152	63.932
3148	63.909
3144	63.8689
3140	63.8661
3136	63.9173
3132	64.0085
3128	64.1125
3124	64.0834
3120	64.0202
3116	64.079
3112	64.0911
3108	63.9824
3104	63.9191
3100	63.9644
3096	64.0699
3092	64.1177
3088	64.042
3084	63.9475
3080	63.9088
3076	63.8941
3072	63.8883
3068	63.8034
3064	63.71
3060	63.7584
3056	63.8098
3052	63.8342
3048	63.8386
3044	63.7485
3040	63.6792
3036	63.7329
3032	63.831
3028	63.8383
3024	63.7541
3020	63.7392
3016	63.8312
3012	63.9003
3008	63.8952
3004	63.8422
3000	63.8063
2996	63.791
2992	63.7924
2988	63.8511
2984	63.8723
2980	63.8478
2976	63.8867
2972	63.929
2968	63.8285
2964	63.5951
2960	63.4694
2956	63.5443
2952	63.601
2948	63.5984
2944	63.5967
2940	63.5551
2936	63.5184
2932	63.4571
2928	63.3812
2924	63.3948
2920	63.4307
2916	63.4429
2912	63.4574
2908	63.4696
2904	63.4762
2900	63.53
2896	63.6566
2892	63.7099
2888	63.7133
2884	63.7193
2880	63.6481
2876	63.6131
2872	63.6182
2868	63.5034
2864	63.3533
2860	63.3462
2856	63.4282
2852	63.4774
2848	63.4712
2844	63.4728
2840	63.5547
2836	63.626
2832	63.5932
2828	63.5524
2824	63.5915
2820	63.6544
2816	63.6691
2812	63.6262
2808	63.5828
2804	63.5614
2800	63.5209
2796	63.55
2792	63.6334
2788	63.6113
2784	63.5276
2780	63.4685
2776	63.4539
2772	63.4766
2768	63.4891
2764	63.5075
2760	63.55
2756	63.59
2752	63.5934
2748	63.5932
2744	63.6202
2740	63.5753
2736	63.4381
2732	63.341
2728	63.3723
2724	63.4547
2720	63.4706
2716	63.4053
2712	63.3205
2708	63.276
2704	63.2724
2700	63.3093
2696	63.3826
2692	63.4004
2688	63.3292
2684	63.324
2680	63.4007
2676	63.4408
2672	63.4517
2668	63.4274
2664	63.3395
2660	63.2155
2656	63.1291
2652	63.1161
2648	63.1487
2644	63.1993
2640	63.2277
2636	63.2132
2632	63.1777
2628	63.1742
2624	63.1678
2620	63.1397
2616	63.2015
2612	63.2544
2608	63.2115
2604	63.2142
2600	63.2525
2596	63.24
2592	63.1998
2588	63.176
2584	63.1904
2580	63.1946
2576	63.1417
2572	63.1068
2568	63.1286
2564	63.176
2560	63.1946
2556	63.193
2552	63.2015
2548	63.2008
2544	63.1779
2540	63.1822
2536	63.1958
2532	63.1361
2528	63.0824
2524	63.1251
2520	63.1103
2516	62.998
2512	62.9436
2508	62.9845
2504	63.0644
2500	63.0661
2496	62.9448
2492	62.852
2488	62.8838
2484	62.947
2480	62.9688
2476	62.9146
2472	62.8538
2468	62.9123
2464	62.9631
2460	62.9217
2456	62.9005
2452	62.9062
2448	62.9317
2444	62.9776
2440	63.009
2436	63.0747
2432	63.0867
2428	62.834
2424	62.5751
2420	62.8077
2416	63.1671
2412	63.0863
2408	62.8585
2404	62.779
2400	62.7715
2396	62.7941
2392	62.8368
2388	62.8664
2384	62.8507
2380	62.827
2376	62.8212
2372	62.8206
2368	62.8237
2364	62.8087
2360	62.8067
2356	62.8141
2352	62.7703
2348	62.6829
2344	62.6252
2340	62.6728
2336	62.7544
2332	62.7501
2328	62.7022
2324	62.7136
2320	62.7433
2316	62.7334
2312	62.7282
2308	62.7463
2304	62.7584
2300	62.7005
2296	62.5942
2292	62.56
2288	62.6031
2284	62.6167
2280	62.5939
2276	62.5983
2272	62.5945
2268	62.5413
2264	62.4784
2260	62.4853
2256	62.5627
2252	62.5905
2248	62.5252
2244	62.4784
2240	62.506
2236	62.5774
2232	62.6034
2228	62.4737
2224	62.3199
2220	62.2958
2216	62.3382
2212	62.3909
2208	62.4577
2204	62.5307
2200	62.5631
2196	62.5611
2192	62.5275
2188	62.4668
2184	62.5035
2180	62.5716
2176	62.5258
2172	62.4758
2168	62.4753
2164	62.4096
2160	62.2502
2156	62.1447
2152	62.2121
2148	62.3182
2144	62.2951
2140	62.1868
2136	62.1383
2132	62.2313
2128	62.3372
2124	62.3569
2120	62.3344
2116	62.2462
2112	62.1353
2108	62.0964
2104	62.1245
2100	62.133
2096	62.1227
2092	62.1596
2088	62.2319
2084	62.3557
2080	62.3867
2076	62.1721
2072	61.9549
2068	61.9957
2064	62.1374
2060	62.1774
2056	62.1063
2052	61.9425
2048	61.8573
2044	61.9412
2040	62.0309
2036	62.0279
2032	62.0139
2028	62.0418
2024	62.0313
2020	61.985
2016	61.9717
2012	61.9677
2008	61.9925
2004	62.0499
2000	62.0555
1996	62.0382
1992	62.0311
1988	62.0126
1984	61.9872
1980	61.9501
1976	61.9251
1972	61.9178
1968	61.8974
1964	61.8949
1960	61.9116
1956	61.8857
1952	61.8918
1948	61.9273
1944	61.8842
1940	61.8157
1936	61.8305
1932	61.8913
1928	61.8811
1924	61.8459
1920	61.8207
1916	61.7904
1912	61.8148
1908	61.8307
1904	61.7594
1900	61.672
1896	61.645
1892	61.6466
1888	61.6477
1884	61.6841
1880	61.7172
1876	61.6978
1872	61.6832
1868	61.6856
1864	61.6628
1860	61.6163
1856	61.5705
1852	61.5654
1848	61.5777
1844	61.5884
1840	61.6086
1836	61.6143
1832	61.5959
1828	61.5563
1824	61.5264
1820	61.525
1816	61.4974
1812	61.4267
1808	61.376
1804	61.3902
1800	61.4272
1796	61.4204
1792	61.4245
1788	61.464
1784	61.4285
1780	61.33
1776	61.2604
1772	61.2593
1768	61.3439
1764	61.4221
1760	61.4289
1756	61.4154
1752	61.3914
1748	61.3609
1744	61.3333
1740	61.2701
1736	61.1936
1732	61.1526
1728	61.1387
1724	61.0794
1720	60.9985
1716	61.0736
1712	61.2143
1708	61.2428
1704	61.2649
1700	61.3156
1696	61.2932
1692	61.225
1688	61.1986
1684	61.2
1680	61.1623
1676	61.0973
1672	61.0861
1668	61.1324
1664	61.1653
1660	61.1598
1656	61.1069
1652	61.0364
1648	61.0353
1644	61.1029
1640	61.1547
1636	61.1561
1632	61.1288
1628	61.0724
1624	60.9934
1620	60.9518
1616	60.9764
1612	60.9946
1608	60.9783
1604	60.9901
1600	61.0318
1596	61.0566
1592	61.0565
1588	61.0797
1584	61.0883
1580	60.9884
1576	60.8425
1572	60.782
1568	60.7482
1564	60.6983
1560	60.6678
1556	60.6308
1552	60.6249
1548	60.6137
1544	60.5717
1540	60.582
1536	60.627
1532	60.6827
1528	60.7446
1524	60.7367
1520	60.6467
1516	60.5714
1512	60.571
1508	60.6064
1504	60.6274
1500	60.6014
1496	60.5381
1492	60.4744
1488	60.4901
1484	60.5877
1480	60.6063
1476	60.529
1472	60.4994
1468	60.5289
1464	60.5262
1460	60.4667
1456	60.4241
1452	60.4901
1448	60.5891
1444	60.5768
1440	60.5273
1436	60.5397
1432	60.5023
1428	60.3984
1424	60.2995
1420	60.2364
1416	60.29
1412	60.3755
1408	60.3564
1404	60.2876
1400	60.3052
1396	60.4098
1392	60.4233
1388	60.3274
1384	60.2421
1380	60.1819
1376	60.1533
1372	60.1445
1368	60.1276
1364	60.1643
1360	60.2677
1356	60.3338
1352	60.3194
1348	60.2431
1344	60.1373
1340	60.1108
1336	60.1595
1332	60.1271
1328	60.0396
1324	60.007
1320	60.0529
1316	60.1522
1312	60.1796
1308	60.1312
1304	60.075
1300	59.9881
1296	59.9089
1292	59.8779
1288	59.8433
1284	59.8277
1280	59.8518
1276	59.8624
1272	59.8612
1268	59.8419
1264	59.8695
1260	59.948
1256	59.9267
1252	59.8506
1248	59.8231
1244	59.7883
1240	59.7538
1236	59.7691
1232	59.7739
1228	59.729
1224	59.6662
1220	59.6295
1216	59.5964
1212	59.5982
1208	59.6381
1204	59.6239
1200	59.6401
1196	59.6912
1192	59.716
1188	59.6738
1184	59.5716
1180	59.5626
1176	59.6051
1172	59.543
1168	59.4256
1164	59.4131
1160	59.4574
1156	59.5015
1152	59.5771
1148	59.6358
1144	59.702
1140	59.6479
1136	59.4531
1132	59.3932
1128	59.5026
1124	59.5114
1120	59.2215
1116	58.9228
1112	59.0113
1108	59.282
1104	59.4708
1100	59.6672
1096	59.7556
1092	59.5038
1088	59.1119
1084	58.9332
1080	59.1015
1076	59.4786
1072	59.5209
1068	59.1271
1064	58.9179
1060	58.9592
1056	58.9594
1052	59.1269
1048	59.2669
1044	59.0095
1040	58.8405
1036	59.0152
1032	59.1957
1028	59.1399
1024	58.9462
1020	58.9209
1016	59.042
1012	59.0356
1008	58.8851
1004	58.6734
1000	58.5601
996	 58.5803
992	 58.6886
988	 58.961
984	 59.1336
980	 58.9826
976	 58.8022
972	 58.6917
968	 58.5174
964	 58.4119
960	 58.3996
956	 58.4774
952	 58.7293
948	 58.8692
944	 58.726
940	 58.4795
936	 58.3181
932	 58.3364
928	 58.3975
924	 58.4403
920	 58.5487
916	 58.6605
912	 58.6576
908	 58.5348
904	 58.4368
900	 58.4064
896	 58.428
892	 58.4258
888	 58.3163
884	 58.2845
880	 58.3402
876	 58.4255
872	 58.5025
868	 58.4204
864	 58.2612
860	 58.1101
856	 58.0836
852	 58.1994
848	 58.2282
844	 58.0855
840	 58.008
836	 58.1251
832	 58.173
828	 58.0361
824	 57.911
820	 57.7908
816	 57.6058
812	 57.5836
808	 57.7476
804	 57.778
800	 57.7125
796	 57.7875
792	 57.8399
788	 57.7552
784	 57.6655
780	 57.6234
776	 57.5794
772	 57.4671
768	 57.2688
764	 57.1414
760	 57.0961
756	 56.9976
752	 57.0961
748	 57.2752
744	 57.1347
740	 56.9147
736	 56.8573
732	 56.8555
728	 56.8011
724	 56.7643
720	 56.793
716	 56.8128
712	 56.9157
708	 57.0909
704	 57.143
700	 56.9786
696	 56.6838
692	 56.5042
688	 56.4789
684	 56.4257
680	 56.3054
676	 56.1125
672	 56.0052
668	 56.1855
664	 56.3457
660	 56.2409
656	 56.0668
652	 55.9131
648	 55.8415
644	 55.6984
640	 55.4786
636	 55.7522
632	 56.1942
628	 56.0567
624	 55.7461
620	 55.6109
616	 55.494
612	 55.4673
608	 55.5027
604	 55.6917
600	 55.8496
596	 55.6074
592	 55.4067
588	 55.4633
584	 55.384
580	 55.2775
576	 55.5063
572	 55.6771
568	 55.484
564	 55.1702
560	 54.8155
556	 54.5396
552	 54.6198
548	 54.8544
544	 54.9305
540	 54.8273
536	 54.5532
532	 54.4297
528	 54.5785
524	 54.6187
520	 54.3597
516	 54.1013
512	 54.1629
508	 54.2165
504	 54.1516
500	 54.1954
496	 53.9573
492	 53.5571
488	 53.5473
484	 53.5833
480	 53.3689
476	 53.1839
472	 53.0419
468	 52.8664
464	 52.6286
460	 52.2557
456	 51.9245
452	 51.8961
448	 51.8815
444	 51.9526
440	 52.1499
436	 51.763
432	 51.1443
428	 50.5246
424	 49.4907
420	 48.3972
416	 48.7895
412	 49.5602
408	 48.8502
404	 49.2011
400	 52.1131
396	 60.6894
392	 77.0032
388	 90.5176
384	 86.8264
380	 72.8489
376	 61.5694
372	 49.0581
370	 45.2042