File: Bakgrunnsmateriale/MATLAB/FTIR/ftir_data/subBb/Mapping_121/C-4040-8_t25_cm-1.asc
PE IR       SPECTRUM    SPECTRUM    ASCII       PEDS        1.60
  -1
C-9AEE~1.ASC
17/03/27
16:34:03.00
17/03/27
16:34:03.00
tln
$C-4040-8_t0025$<tbV0>[7.8,-7.8,8.0,0.0,27,1,0]
370
64

2002,4.07
MIRTGS : RIGHTBACK : INTERNAL 2
MIR : ON : INTERNAL 2
OPTKBR

0.200000
8
8.000000
FILLER
RATIO
SPECTRUM
UNLOCKED 256

DOUBLE
64
COMBINED
1
0
0

1.000000
RATIO

1
0
TRUE
51149
0
LEFT NOT FITTED RIGHT NOT FITTED 0
NONE
NONE
15600
12
4.427000
51148
TRUE
1 0 8 72 0 0 0 0

15798

#HDR
-1
-1
#GR
CM-1
%T
2.38419e-05
0.0
5000
-1.000000
4631
8
71.8786
2.845668
#DATA
5000	62.5867
4996	62.1408
4992	62.0343
4988	62.2293
4984	62.1202
4980	61.9295
4976	61.9905
4972	62.2698
4968	62.6762
4964	62.8493
4960	62.798
4956	62.699
4952	62.6169
4948	62.4702
4944	62.3805
4940	62.6237
4936	62.7156
4932	62.3658
4928	62.0585
4924	62.0997
4920	62.2955
4916	62.4306
4912	62.4937
4908	62.5976
4904	62.9748
4900	63.5002
4896	63.6331
4892	63.3685
4888	63.0726
4884	62.8445
4880	62.6925
4876	62.6211
4872	62.7228
4868	63.0998
4864	63.3991
4860	63.1408
4856	62.5887
4852	62.2427
4848	62.2573
4844	62.3962
4840	62.257
4836	62.0136
4832	62.0931
4828	62.4423
4824	62.8464
4820	63.0902
4816	62.9642
4812	62.6492
4808	62.4411
4804	62.3806
4800	62.4436
4796	62.5788
4792	62.6592
4788	62.5779
4784	62.4287
4780	62.3404
4776	62.2404
4772	62.2282
4768	62.464
4764	62.5967
4760	62.4369
4756	62.3368
4752	62.29
4748	62.1959
4744	62.1691
4740	62.1415
4736	62.1026
4732	62.1613
4728	62.2943
4724	62.3242
4720	62.3071
4716	62.3693
4712	62.2878
4708	62.1488
4704	62.2701
4700	62.4267
4696	62.3137
4692	62.0409
4688	61.8931
4684	61.9536
4680	61.953
4676	61.7906
4672	61.86
4668	62.2685
4664	62.6378
4660	62.6532
4656	62.3138
4652	62.0463
4648	62.1508
4644	62.3562
4640	62.4241
4636	62.4607
4632	62.3738
4628	62.1268
4624	61.9731
4620	61.9728
4616	61.9731
4612	62.0193
4608	62.2016
4604	62.3771
4600	62.4827
4596	62.475
4592	62.3901
4588	62.2092
4584	61.9027
4580	61.7426
4576	61.9399
4572	62.2777
4568	62.3807
4564	62.3273
4560	62.2231
4556	62.1335
4552	62.3036
4548	62.5708
4544	62.6173
4540	62.489
4536	62.3647
4532	62.2309
4528	62.0216
4524	61.8924
4520	62.1633
4516	62.4926
4512	62.3369
4508	62.0653
4504	62.1051
4500	62.3761
4496	62.6622
4492	62.6362
4488	62.3783
4484	62.454
4480	62.7735
4476	62.687
4472	62.1067
4468	61.6712
4464	61.7894
4460	62.1477
4456	62.483
4452	62.7281
4448	62.7846
4444	62.6992
4440	62.5989
4436	62.6379
4432	62.6442
4428	62.4725
4424	62.3257
4420	62.3473
4416	62.2434
4412	61.9022
4408	61.802
4404	62.2655
4400	62.7825
4396	62.6677
4392	61.9316
4388	61.7062
4384	58.3307
4380	48.4572
4376	45.5762
4372	54.8384
4368	64.212
4364	70.8427
4360	70.5231
4356	65.1416
4352	63.0302
4348	62.7593
4344	62.684
4340	62.793
4336	62.64
4332	62.2641
4328	62.1685
4324	62.2983
4320	62.3618
4316	62.4588
4312	62.3434
4308	62.0218
4304	61.8975
4300	62.0267
4296	62.1977
4292	62.187
4288	62.0532
4284	61.8893
4280	61.8394
4276	61.947
4272	61.8712
4268	61.6986
4264	61.7286
4260	61.7055
4256	61.5815
4252	61.6541
4248	61.831
4244	61.8145
4240	61.7184
4236	61.7177
4232	61.6611
4228	61.5571
4224	61.471
4220	61.4686
4216	61.5404
4212	61.5115
4208	61.366
4204	61.1915
4200	61.0531
4196	61.0131
4192	61.0682
4188	61.0586
4184	60.9817
4180	61.0174
4176	61.2679
4172	61.6935
4168	62.0617
4164	62.0879
4160	61.6215
4156	61.0409
4152	60.946
4148	61.2737
4144	61.5282
4140	61.569
4136	61.4241
4132	61.1166
4128	60.8661
4124	60.7883
4120	60.7556
4116	60.8301
4112	60.9613
4108	60.8957
4104	60.7317
4100	60.7101
4096	60.8467
4092	60.9123
4088	60.7306
4084	60.5675
4080	60.5979
4076	60.6534
4072	60.6619
4068	60.6316
4064	60.6602
4060	60.7034
4056	60.5403
4052	60.3311
4048	60.3574
4044	60.5447
4040	60.6117
4036	60.5643
4032	60.6425
4028	60.7014
4024	60.6472
4020	60.6934
4016	60.8333
4012	60.7753
4008	60.4507
4004	60.2797
4000	60.3816
3996	60.4717
3992	60.5597
3988	60.6895
3984	60.737
3980	60.7351
3976	60.792
3972	60.901
3968	60.8363
3964	60.5167
3960	60.2776
3956	60.2101
3952	60.0891
3948	60.0435
3944	60.2711
3940	60.5176
3936	60.4711
3932	60.2558
3928	60.2033
3924	60.2739
3920	60.3212
3916	60.2559
3912	60.0819
3908	60.0684
3904	60.2387
3900	60.3428
3896	60.3359
3892	60.3638
3888	60.3966
3884	60.429
3880	60.4509
3876	60.2966
3872	60.1555
3868	60.1808
3864	60.1937
3860	60.2141
3856	60.298
3852	60.2683
3848	60.1372
3844	60.1459
3840	60.2242
3836	60.2002
3832	60.1541
3828	60.1936
3824	60.2456
3820	60.1397
3816	59.9522
3812	59.8545
3808	59.8171
3804	59.838
3800	59.8659
3796	59.8449
3792	59.8733
3788	59.894
3784	59.8203
3780	59.722
3776	59.6473
3772	59.622
3768	59.7171
3764	59.8383
3760	59.8538
3756	59.8485
3752	59.8161
3748	59.6904
3744	59.5686
3740	59.498
3736	59.4652
3732	59.53
3728	59.614
3724	59.5476
3720	59.4349
3716	59.4445
3712	59.4399
3708	59.3292
3704	59.253
3700	59.2856
3696	59.3363
3692	59.2956
3688	59.2282
3684	59.2508
3680	59.2769
3676	59.1551
3672	58.9951
3668	58.9866
3664	59.0027
3660	58.9725
3656	58.992
3652	58.9936
3648	58.9397
3644	58.8551
3640	58.8175
3636	58.9057
3632	58.955
3628	58.8534
3624	58.8125
3620	58.8887
3616	58.8745
3612	58.7249
3608	58.576
3604	58.5549
3600	58.6539
3596	58.7605
3592	58.8097
3588	58.8727
3584	58.9095
3580	58.7334
3576	58.4881
3572	58.3834
3568	58.3326
3564	58.2969
3560	58.3974
3556	58.5998
3552	58.5865
3548	58.3627
3544	58.2135
3540	58.171
3536	58.173
3532	58.1807
3528	58.2127
3524	58.2192
3520	58.1507
3516	58.1003
3512	58.072
3508	57.9822
3504	57.9381
3500	58.0642
3496	58.1515
3492	58.0414
3488	57.8827
3484	57.7994
3480	57.7736
3476	57.7646
3472	57.7474
3468	57.7855
3464	57.86
3460	57.891
3456	57.9262
3452	57.9606
3448	57.9119
3444	57.7838
3440	57.7185
3436	57.7628
3432	57.8691
3428	57.8613
3424	57.6221
3420	57.395
3416	57.3073
3412	57.2542
3408	57.2108
3404	57.2568
3400	57.3529
3396	57.3551
3392	57.2608
3388	57.2389
3384	57.299
3380	57.2626
3376	57.2056
3372	57.2283
3368	57.2105
3364	57.109
3360	57.0511
3356	57.0786
3352	57.0156
3348	56.9263
3344	57.0121
3340	57.085
3336	56.9353
3332	56.7466
3328	56.711
3324	56.7869
3320	56.8093
3316	56.6926
3312	56.5711
3308	56.6447
3304	56.7587
3300	56.7022
3296	56.6038
3292	56.5231
3288	56.485
3284	56.4994
3280	56.4751
3276	56.394
3272	56.3206
3268	56.301
3264	56.2876
3260	56.2566
3256	56.2307
3252	56.2282
3248	56.2169
3244	56.1978
3240	56.2077
3236	56.1904
3232	56.0368
3228	55.84
3224	55.8012
3220	55.8044
3216	55.7194
3212	55.6535
3208	55.6618
3204	55.7231
3200	55.8285
3196	55.8386
3192	55.6956
3188	55.6182
3184	55.6447
3180	55.6644
3176	55.613
3172	55.4555
3168	55.3409
3164	55.365
3160	55.3793
3156	55.3003
3152	55.2645
3148	55.3409
3144	55.4129
3140	55.3922
3136	55.2941
3132	55.1449
3128	55.0879
3124	55.1843
3120	55.2556
3116	55.2885
3112	55.2797
3108	55.1238
3104	54.9165
3100	54.822
3096	54.8675
3092	54.9334
3088	54.9346
3084	54.9214
3080	54.8912
3076	54.7371
3072	54.5574
3068	54.5193
3064	54.5602
3060	54.5674
3056	54.5277
3052	54.4771
3048	54.4329
3044	54.4198
3040	54.4206
3036	54.3919
3032	54.3509
3028	54.2905
3024	54.1969
3020	54.164
3016	54.2216
3012	54.2398
3008	54.1594
3004	54.0778
3000	54.0328
2996	53.9518
2992	53.8422
2988	53.7718
2984	53.747
2980	53.7166
2976	53.6654
2972	53.654
2968	53.6338
2964	53.5166
2960	53.4389
2956	53.4663
2952	53.4839
2948	53.4859
2944	53.4459
2940	53.3066
2936	53.184
2932	53.1444
2928	53.0479
2924	52.8685
2920	52.7941
2916	52.8747
2912	52.9775
2908	53.047
2904	53.042
2900	52.9314
2896	52.8302
2892	52.7906
2888	52.7748
2884	52.773
2880	52.7498
2876	52.705
2872	52.6036
2868	52.4976
2864	52.4249
2860	52.2999
2856	52.2207
2852	52.2365
2848	52.2835
2844	52.3633
2840	52.3688
2836	52.253
2832	52.1643
2828	52.1604
2824	52.1776
2820	52.1719
2816	52.106
2812	52.0471
2808	52.0729
2804	52.0475
2800	51.8871
2796	51.7371
2792	51.7095
2788	51.7333
2784	51.6951
2780	51.6006
2776	51.525
2772	51.5055
2768	51.5049
2764	51.4771
2760	51.4113
2756	51.3453
2752	51.3063
2748	51.2765
2744	51.2315
2740	51.1456
2736	51.04
2732	50.9894
2728	51.0243
2724	51.0537
2720	51.0003
2716	50.8991
2712	50.8307
2708	50.8145
2704	50.7868
2700	50.7567
2696	50.7463
2692	50.7105
2688	50.6163
2684	50.4946
2680	50.4338
2676	50.434
2672	50.4347
2668	50.4017
2664	50.3322
2660	50.2414
2656	50.1765
2652	50.1674
2648	50.0948
2644	49.9804
2640	49.9925
2636	50.0527
2632	49.9925
2628	49.8518
2624	49.7327
2620	49.6622
2616	49.6517
2612	49.66
2608	49.5981
2604	49.5056
2600	49.4716
2596	49.4355
2592	49.3686
2588	49.2949
2584	49.2123
2580	49.1628
2576	49.1818
2572	49.2203
2568	49.1889
2564	49.123
2560	49.0743
2556	49.0347
2552	49.018
2548	48.9863
2544	48.9187
2540	48.8628
2536	48.7941
2532	48.7038
2528	48.6583
2524	48.6654
2520	48.6451
2516	48.5882
2512	48.4917
2508	48.3461
2504	48.2777
2500	48.2716
2496	48.2187
2492	48.1521
2488	48.0757
2484	47.9846
2480	47.929
2476	47.887
2472	47.8687
2468	47.9125
2464	47.9511
2460	47.917
2456	47.7708
2452	47.5667
2448	47.4909
2444	47.5299
2440	47.4465
2436	47.3184
2432	47.4367
2428	47.6759
2424	47.7607
2420	47.6921
2416	47.5062
2412	47.2342
2408	47.0087
2404	46.9341
2400	46.9568
2396	46.9357
2392	46.8802
2388	46.8731
2384	46.8677
2380	46.8061
2376	46.733
2372	46.7081
2368	46.6538
2364	46.4813
2360	46.2447
2356	46.0881
2352	46.1062
2348	46.2031
2344	46.2588
2340	46.2371
2336	46.1582
2332	46.0812
2328	46.0286
2324	45.995
2320	45.9485
2316	45.8877
2312	45.8436
2308	45.8055
2304	45.7366
2300	45.6272
2296	45.5263
2292	45.4795
2288	45.4926
2284	45.4865
2280	45.4112
2276	45.3
2272	45.1984
2268	45.1486
2264	45.1062
2260	45.0747
2256	45.1009
2252	45.1044
2248	44.9973
2244	44.8671
2240	44.809
2236	44.7762
2232	44.7614
2228	44.7272
2224	44.6641
2220	44.6658
2216	44.6545
2212	44.5741
2208	44.5231
2204	44.5047
2200	44.4566
2196	44.3983
2192	44.3368
2188	44.2327
2184	44.1235
2180	44.0372
2176	43.9247
2172	43.8464
2168	43.8605
2164	43.8855
2160	43.879
2156	43.8277
2152	43.7444
2148	43.609
2144	43.473
2140	43.4561
2136	43.4486
2132	43.3884
2128	43.3333
2124	43.2961
2120	43.2752
2116	43.2067
2112	43.1118
2108	43.0538
2104	43.0133
2100	42.9849
2096	42.9694
2092	42.9237
2088	42.8311
2084	42.7444
2080	42.7157
2076	42.6654
2072	42.5335
2068	42.5027
2064	42.5789
2060	42.558
2056	42.4165
2052	42.2969
2048	42.2498
2044	42.1933
2040	42.1363
2036	42.1234
2032	42.1387
2028	42.1007
2024	42.0262
2020	42.0039
2016	41.9691
2012	41.8639
2008	41.7226
2004	41.6186
2000	41.5884
1996	41.6188
1992	41.6423
1988	41.5585
1984	41.3971
1980	41.2523
1976	41.2158
1972	41.2195
1968	41.1743
1964	41.1262
1960	41.0289
1956	40.9031
1952	40.8542
1948	40.8383
1944	40.7771
1940	40.7167
1936	40.7153
1932	40.7211
1928	40.6599
1924	40.5759
1920	40.5331
1916	40.4729
1912	40.3705
1908	40.2696
1904	40.1913
1900	40.1237
1896	40.0636
1892	40.0205
1888	39.9751
1884	39.9229
1880	39.8826
1876	39.839
1872	39.8034
1868	39.8116
1864	39.7848
1860	39.6852
1856	39.5876
1852	39.5151
1848	39.4551
1844	39.4072
1840	39.3697
1836	39.3378
1832	39.2953
1828	39.1851
1824	39.0355
1820	38.956
1816	38.9278
1812	38.9286
1808	38.9257
1804	38.8586
1800	38.8099
1796	38.7862
1792	38.7136
1788	38.6567
1784	38.6129
1780	38.5308
1776	38.4795
1772	38.4639
1768	38.4293
1764	38.3852
1760	38.3075
1756	38.1936
1752	38.102
1748	38.054
1744	38.0464
1740	37.973
1736	37.802
1732	37.7179
1728	37.7147
1724	37.6502
1720	37.5262
1716	37.4147
1712	37.3717
1708	37.3578
1704	37.361
1700	37.3847
1696	37.3371
1692	37.2207
1688	37.1351
1684	37.1061
1680	37.1103
1676	37.1144
1672	37.0606
1668	36.9723
1664	36.9274
1660	36.9175
1656	36.8519
1652	36.6978
1648	36.6092
1644	36.6217
1640	36.6155
1636	36.6195
1632	36.6428
1628	36.5865
1624	36.437
1620	36.3162
1616	36.2748
1612	36.242
1608	36.1947
1604	36.1203
1600	36.0375
1596	35.9872
1592	35.9405
1588	35.9066
1584	35.9045
1580	35.8654
1576	35.7588
1572	35.6751
1568	35.6522
1564	35.5911
1560	35.4992
1556	35.4637
1552	35.4213
1548	35.3523
1544	35.2838
1540	35.1867
1536	35.1095
1532	35.0731
1528	35.0253
1524	34.9388
1520	34.8624
1516	34.8197
1512	34.821
1508	34.8855
1504	34.889
1500	34.7825
1496	34.6737
1492	34.5782
1488	34.4822
1484	34.4181
1480	34.3951
1476	34.3498
1472	34.2135
1468	34.0724
1464	34.028
1460	34.0682
1456	34.0953
1452	34.0449
1448	33.9847
1444	33.951
1440	33.8954
1436	33.7886
1432	33.663
1428	33.5833
1424	33.5386
1420	33.5413
1416	33.5768
1412	33.5596
1408	33.4791
1404	33.3562
1400	33.2431
1396	33.1652
1392	33.1475
1388	33.1781
1384	33.1631
1380	33.0838
1376	32.9828
1372	32.8743
1368	32.7674
1364	32.6998
1360	32.6815
1356	32.6735
1352	32.663
1348	32.6201
1344	32.5603
1340	32.544
1336	32.485
1332	32.3676
1328	32.307
1324	32.2911
1320	32.2182
1316	32.1316
1312	32.1231
1308	32.1031
1304	32.0394
1300	31.9651
1296	31.8894
1292	31.8739
1288	31.8393
1284	31.7081
1280	31.643
1276	31.673
1272	31.6435
1268	31.5804
1264	31.5673
1260	31.6065
1256	31.6128
1252	31.4847
1248	31.3123
1244	31.22
1240	31.1871
1236	31.1458
1232	31.0757
1228	31.0359
1224	31.0345
1220	30.9942
1216	30.8707
1212	30.7616
1208	30.7232
1204	30.6394
1200	30.5212
1196	30.5082
1192	30.5672
1188	30.5429
1184	30.4618
1180	30.4182
1176	30.3846
1172	30.3447
1168	30.2973
1164	30.2225
1160	30.1414
1156	30.0979
1152	30.0788
1148	30.0269
1144	29.9557
1140	29.9295
1136	29.9545
1132	29.9253
1128	29.8171
1124	29.7142
1120	29.5741
1116	29.4046
1112	29.2402
1108	29.1077
1104	29.1723
1100	29.3159
1096	29.2689
1092	29.1411
1088	29.0967
1084	29.0682
1080	29.0202
1076	28.8912
1072	28.7632
1068	28.7594
1064	28.7011
1060	28.5224
1056	28.4044
1052	28.5897
1048	28.7258
1044	28.4917
1040	28.37
1036	28.3751
1032	28.3433
1028	28.422
1024	28.5586
1020	28.4677
1016	28.0737
1012	27.723
1008	27.6511
1004	27.8493
1000	28.0245
996	 27.9599
992	 27.9137
988	 27.928
984	 27.9242
980	 27.9545
976	 27.8172
972	 27.5996
968	 27.6176
964	 27.5328
960	 27.1753
956	 27.0182
952	 27.3169
948	 27.6839
944	 27.5515
940	 27.1645
936	 26.9621
932	 26.8724
928	 26.7806
924	 26.6635
920	 26.5383
916	 26.439
912	 26.3268
908	 26.1762
904	 26.0623
900	 26.0566
896	 26.1775
892	 26.2085
888	 26.0961
884	 26.0664
880	 26.1122
876	 26.0886
872	 25.9423
868	 25.786
864	 25.7343
860	 25.6941
856	 25.5675
852	 25.404
848	 25.2763
844	 25.1297
840	 24.9526
836	 24.9516
832	 24.9706
828	 24.8052
824	 24.7116
820	 24.6611
816	 24.4858
812	 24.3598
808	 24.3968
804	 24.3758
800	 24.2525
796	 24.2089
792	 24.1655
788	 24.1484
784	 24.1657
780	 24.0395
776	 23.8256
772	 23.6825
768	 23.6671
764	 23.6834
760	 23.5692
756	 23.3809
752	 23.3146
748	 23.2692
744	 23.1584
740	 23.0489
736	 22.9298
732	 22.9534
728	 23.0274
724	 23.0493
720	 23.0605
716	 22.8116
712	 22.4671
708	 22.3504
704	 22.2916
700	 22.2643
696	 22.2455
692	 22.1428
688	 22.0615
684	 21.9458
680	 21.7028
676	 21.4348
672	 21.3071
668	 21.3198
664	 21.3494
660	 21.2488
656	 20.947
652	 20.5859
648	 20.4405
644	 20.5318
640	 20.5707
636	 20.5623
632	 20.6257
628	 20.5306
624	 20.1387
620	 19.7186
616	 19.5513
612	 19.5109
608	 19.3561
604	 19.2536
600	 19.2511
596	 19.2078
592	 19.2958
588	 19.2843
584	 19.0018
580	 18.7474
576	 18.3735
572	 17.9766
568	 17.8297
564	 17.7618
560	 17.6611
556	 17.4303
552	 17.2478
548	 17.4083
544	 17.7278
540	 17.6244
536	 17.116
532	 16.7911
528	 16.6471
524	 16.5409
520	 16.5769
516	 16.6876
512	 16.5743
508	 16.2528
504	 16.0904
500	 16.1121
496	 15.8909
492	 15.5411
488	 15.2984
484	 14.9003
480	 14.5482
476	 14.3158
472	 14.2743
468	 14.662
464	 15.0537
460	 14.8724
456	 14.2304
452	 13.8113
448	 13.5104
444	 12.7815
440	 12.2937
436	 12.6665
432	 13.0518
428	 13.3499
424	 13.8585
420	 14.3384
416	 15.5373
412	 16.4075
408	 13.5802
404	 6.655335
400	 3.008866
396	 6.965637
392	 19.5358
388	 38.1236
384	 40.3787
380	 24.8042
376	 15.6597
372	 8.913278
370	 2.845668