File: Bakgrunnsmateriale/MATLAB/FTIR/ftir_data/subBb/Mapping_121/C-4040-8_t85.asc
PE IR       SPECTRUM    SPECTRUM    ASCII       PEDS        1.60
  -1
C-B54E~1.ASC
17/03/27
21:26:29.00
17/03/27
21:26:55.00
tln
$C-4040-8_t0085$<tbV0>[-5.2,5.2,8.0,0.0,27,1,0]
27.028
64

2002,4.07
MIRTGS : RIGHTBACK : INTERNAL 2
MIR : ON : INTERNAL 2
OPTKBR

0.200000
8
8.000000
FILLER
RATIO
SPECTRUM
UNLOCKED 256

DOUBLE
64
COMBINED
1
0
0

0.002000
RATIO

1
0
TRUE
51149
0
LEFT NOT FITTED RIGHT NOT FITTED 0
NONE
NONE
15600
12
4.427000
51148
TRUE
1 0 8 72 0 0 0 0

15798

#HDR
-1
-1
#GR
µM
%T
2.38419e-05
0.0
2.000000
0.002000
12515
8
73.0757
7.047163
#DATA
2.000000	 65.412
2.018000	 65.6271
2.036000	 65.8831
2.054000	 65.2065
2.072000	 64.8529
2.090000	 64.6404
2.108000	 64.7412
2.126000	 64.5194
2.144000	 64.7377
2.162000	 65.0949
2.180000	 65.1997
2.198000	 65.5357
2.216000	 65.5017
2.234000	 65.7006
2.252000	 65.908
2.270000	 65.7613
2.288000	 71.6206
2.306000	 66.4878
2.324000	 66.3531
2.342000	 65.3602
2.360000	 65.6386
2.378000	 65.2706
2.396000	 64.5004
2.414000	 65.3918
2.432000	 64.5251
2.450000	 64.8671
2.468000	 64.8283
2.486000	 65.1433
2.504000	 65.2346
2.522000	 65.0552
2.540000	 65.1961
2.558000	 65.3443
2.576000	 65.1744
2.594000	 65.0933
2.612000	 65.2119
2.630000	 65.1369
2.648000	 65.17
2.666000	 65.1638
2.684000	 65.1809
2.702000	 65.2464
2.720000	 65.1941
2.738000	 65.0089
2.756000	 65.2274
2.774000	 65.0112
2.792000	 65.2666
2.810000	 65.1983
2.828000	 65.1438
2.846000	 65.2375
2.864000	 65.2014
2.882000	 65.5269
2.900000	 65.2973
2.918000	 65.2577
2.936000	 65.1873
2.954000	 65.4951
2.972000	 65.2634
2.990000	 65.1438
3.008000	 65.2723
3.026000	 65.273
3.044000	 65.2249
3.062000	 65.4145
3.080000	 65.2838
3.098000	 65.0973
3.116000	 65.1686
3.134000	 65.1136
3.152000	 64.843
3.170000	 65.2184
3.188000	 65.4759
3.206000	 65.3342
3.224000	 65.0945
3.242000	 65.3328
3.260000	 65.247
3.278000	 65.4009
3.296000	 65.3013
3.314000	 65.135
3.332000	 65.1197
3.350000	 65.178
3.368000	 64.9272
3.386000	 64.9858
3.404000	 65.1378
3.422000	 64.9582
3.440000	 65.0661
3.458000	 65.1326
3.476000	 65.2286
3.494000	 65.3501
3.512000	 65.0506
3.530000	 65.0641
3.548000	 65.3394
3.566000	 65.3601
3.584000	 65.227
3.602000	 65.3192
3.620000	 65.2222
3.638000	 65.2356
3.656000	 65.2209
3.674000	 65.3142
3.692000	 65.4607
3.710000	 65.4023
3.728000	 65.4356
3.746000	 65.3697
3.764000	 65.2015
3.782000	 65.2367
3.800000	 65.34
3.818000	 65.2373
3.836000	 65.3087
3.854000	 65.1751
3.872000	 65.2764
3.890000	 65.2487
3.908000	 65.3496
3.926000	 65.235
3.944000	 65.2622
3.962000	 65.4115
3.980000	 65.1221
3.998000	 65.1905
4.016000	 65.2707
4.034000	 65.4544
4.052000	 65.3433
4.070000	 65.3824
4.088000	 65.3497
4.106000	 65.2866
4.124000	 65.2105
4.141999	 65.0568
4.160000	 65.3192
4.178000	 65.3568
4.196000	 65.5435
4.214000	 65.3648
4.232000	 65.3158
4.250000	 65.5038
4.268000	 65.4159
4.286000	 65.4034
4.304000	 65.3717
4.322000	 65.4467
4.340000	 65.4379
4.358000	 65.306
4.375999	 65.3611
4.394000	 65.3888
4.412000	 65.3179
4.430000	 65.3105
4.448000	 65.4013
4.466000	 65.3346
4.484000	 65.4085
4.502000	 65.4243
4.520000	 65.4598
4.538000	 65.2819
4.556000	 65.2782
4.574000	 65.2653
4.592000	 65.3981
4.609999	 65.3425
4.628000	 65.4111
4.646000	 65.2008
4.664000	 65.0565
4.682000	 65.1535
4.700000	 65.3233
4.718000	 65.4215
4.736000	 65.3708
4.754000	 65.3639
4.772000	 65.4695
4.790000	 65.3111
4.808000	 65.4228
4.826000	 65.2839
4.843999	 65.4064
4.862000	 65.3439
4.880000	 65.2566
4.898000	 65.3643
4.916000	 65.3833
4.934000	 65.3569
4.952000	 65.1264
4.970000	 65.3815
4.988000	 65.3564
5.006000	 65.3454
5.024000	 65.392
5.042000	 65.354
5.060000	 65.3861
5.077999	 65.458
5.096000	 65.3959
5.114000	 65.4227
5.132000	 65.4453
5.150000	 65.3968
5.168000	 65.2934
5.186000	 65.3174
5.204000	 65.3454
5.222000	 65.3951
5.240000	 65.3317
5.258000	 65.317
5.276000	 65.3297
5.294000	 65.3688
5.312000	 65.3774
5.330000	 65.3443
5.348000	 65.4101
5.366000	 65.304
5.384000	 65.2962
5.402000	 65.2243
5.420000	 65.2786
5.438000	 65.442
5.456000	 65.2984
5.474000	 65.3463
5.492000	 65.3915
5.510000	 65.4114
5.528000	 65.3174
5.546000	 65.3058
5.564000	 65.2968
5.582000	 65.3284
5.600000	 65.4055
5.618000	 65.3663
5.636000	 65.262
5.654000	 65.1831
5.672000	 65.2335
5.690000	 65.3849
5.708000	 65.3628
5.726000	 65.22
5.744000	 65.1521
5.762000	 65.2481
5.780000	 65.3867
5.798000	 65.2595
5.816000	 65.2167
5.834000	 65.3364
5.852000	 65.2419
5.870000	 65.2133
5.888000	 65.1751
5.906000	 65.1642
5.923999	 65.2683
5.942000	 65.2653
5.960000	 65.231
5.978000	 65.2922
5.996000	 65.3563
6.014000	 65.2999
6.032000	 65.2018
6.050000	 65.2568
6.068000	 65.3437
6.086000	 65.3714
6.104000	 65.3223
6.122000	 65.3085
6.140000	 65.3116
6.158000	 65.2215
6.176000	 65.162
6.194000	 65.1603
6.212000	 65.1423
6.230000	 65.1073
6.248000	 65.095
6.266000	 65.0867
6.284000	 65.1075
6.302000	 65.0918
6.320000	 65.0096
6.338000	 64.9968
6.356000	 65.0094
6.374000	 65.0181
6.392000	 65.0616
6.410000	 65.0416
6.428000	 64.942
6.446000	 64.8946
6.464000	 64.9797
6.482000	 65.21
6.500000	 65.3289
6.518000	 65.2253
6.536000	 65.1362
6.554000	 65.1508
6.572000	 65.1637
6.590000	 65.167
6.608000	 65.1796
6.626000	 65.1279
6.644000	 65.0709
6.662000	 65.0949
6.680000	 65.1195
6.698000	 65.0546
6.716000	 64.982
6.734000	 65.0257
6.752000	 65.1577
6.770000	 65.2431
6.788000	 65.2189
6.806000	 65.1645
6.824000	 65.123
6.842000	 65.0384
6.860000	 64.9094
6.878000	 64.7288
6.896000	 64.5527
6.914000	 64.6214
6.932000	 64.9278
6.950000	 65.1388
6.968000	 65.107
6.986000	 65.0089
7.004000	 64.9658
7.022000	 64.9404
7.040000	 64.9584
7.058000	 65.0711
7.076000	 65.185
7.094000	 65.205
7.112000	 65.1506
7.130000	 65.0657
7.148000	 65.0065
7.166000	 65.0014
7.184000	 65.0203
7.202000	 65.0423
7.220000	 65.0614
7.238000	 65.086
7.256000	 65.1047
7.274000	 65.0659
7.292000	 64.9993
7.310000	 64.9773
7.328000	 64.9894
7.346000	 65.0094
7.364000	 65.02
7.382000	 65.0062
7.400000	 65.0186
7.418000	 65.0712
7.436000	 65.0904
7.454000	 65.0588
7.472000	 65.028
7.490000	 65.0172
7.508000	 65.0151
7.526000	 65.014
7.544000	 65.0185
7.562000	 65.0379
7.580000	 65.0577
7.598000	 65.0567
7.616000	 65.0464
7.634000	 65.049
7.652000	 65.0765
7.670000	 65.1285
7.688000	 65.1714
7.706000	 65.1788
7.724000	 65.1979
7.742000	 65.2555
7.760000	 65.2812
7.778000	 65.2353
7.796000	 65.1859
7.814000	 65.1858
7.832000	 65.2042
7.850000	 65.2042
7.868000	 65.1931
7.886000	 65.2031
7.904000	 65.2453
7.922000	 65.2853
7.940000	 65.2887
7.958000	 65.2747
7.976000	 65.2714
7.994000	 65.2487
8.012000	 65.1724
8.030000	 65.0887
8.048000	 65.0704
8.065999	 65.1169
8.084000	 65.1712
8.102000	 65.1903
8.120000	 65.1547
8.138000	 65.0654
8.155999	 64.9703
8.173999	 64.9297
8.192000	 64.9429
8.210000	 64.9602
8.228000	 64.9515
8.246000	 64.9369
8.263999	 64.9573
8.282000	 65.0324
8.300000	 65.1239
8.318000	 65.1513
8.336000	 65.0719
8.353999	 64.9403
8.372000	 64.8573
8.390000	 64.8673
8.408000	 64.9344
8.426000	 64.9993
8.443999	 65.0327
8.462000	 65.0328
8.480000	 65.0068
8.498000	 64.9663
8.516000	 64.9268
8.533999	 64.8999
8.552000	 64.8867
8.570000	 64.8829
8.588000	 64.8859
8.606000	 64.8913
8.624000	 64.8913
8.641999	 64.8775
8.660000	 64.8486
8.678000	 64.8107
8.696000	 64.7786
8.714000	 64.7742
8.731999	 64.8164
8.750000	 64.901
8.768000	 64.9927
8.786000	 65.0455
8.804000	 65.0365
8.821999	 64.9804
8.840000	 64.9131
8.858000	 64.8656
8.876000	 64.8482
8.894000	 64.852
8.911999	 64.8609
8.930000	 64.8657
8.948000	 64.8704
8.966000	 64.8798
8.984000	 64.8864
9.001999	 64.8765
9.020000	 64.85
9.038000	 64.8274
9.056000	 64.8248
9.074000	 64.8232
9.092000	 64.7788
9.109999	 64.6778
9.128000	 64.5691
9.146000	 64.5229
9.164000	 64.5597
9.182000	 64.6352
9.199999	 64.6964
9.218000	 64.736
9.236000	 64.7847
9.254000	 64.8628
9.272000	 64.9552
9.289999	 65.0328
9.308000	 65.0775
9.326000	 65.0882
9.344000	 65.0688
9.362000	 65.0236
9.379999	 64.9596
9.398000	 64.8917
9.416000	 64.84
9.434000	 64.8199
9.452000	 64.8312
9.469999	 64.8591
9.488000	 64.8864
9.506000	 64.9103
9.524000	 64.9482
9.542000	 65.0171
9.560000	 65.1089
9.577999	 65.1887
9.596000	 65.2163
9.614000	 65.1723
9.632000	 65.0678
9.650000	 64.9383
9.667999	 64.8257
9.686000	 64.7523
9.704000	 64.7101
9.722000	 64.6719
9.740000	 64.6199
9.757999	 64.5681
9.776000	 64.5552
9.794000	 64.6102
9.812000	 64.7188
9.830000	 64.8237
9.847999	 64.8606
9.866000	 64.8016
9.884000	 64.6717
9.902000	 64.5332
9.920000	 64.4504
9.937999	 64.4535
9.956000	 64.526
9.974000	 64.622
9.992000	 64.6948
10.01	64.7232
10.028	64.7192
10.046	64.7149
10.064	64.7387
10.082	64.7963
10.1	64.8668
10.118	64.9159
10.136	64.9185
10.154	64.8733
10.172	64.8031
10.19	64.7449
10.208	64.7273
10.226	64.7565
10.244	64.8185
10.262	64.8874
10.28	64.9401
10.298	64.9587
10.316	64.9301
10.334	64.8512
10.352	64.7356
10.37	64.6146
10.388	64.5268
10.406	64.4978
10.424	64.5268
10.442	64.5863
10.46	64.6438
10.478	64.6804
10.496	64.7037
10.514	64.7372
10.532	64.8014
10.55	64.8961
10.568	64.9996
10.586	65.0789
10.604	65.1095
10.622	65.084
10.64	65.0153
10.658	64.9288
10.676	64.855
10.694	64.8192
10.712	64.8382
10.73	64.9129
10.748	65.0263
10.766	65.1411
10.784	65.2129
10.802	65.2034
10.82	65.1008
10.838	64.9248
10.856	64.7154
10.874	64.5184
10.892	64.3643
10.91	64.2664
10.928	64.2222
10.946	64.2215
10.964	64.2527
10.982	64.3015
11	64.3515
11.018	64.3833
11.036	64.3817
11.054	64.3421
11.072	64.2758
11.09	64.208
11.108	64.1654
11.126	64.1661
11.144	64.2104
11.162	64.2796
11.18	64.3459
11.198	64.3827
11.216	64.3775
11.234	64.3359
11.252	64.2788
11.27	64.23
11.288	64.2066
11.306	64.2122
11.324	64.2386
11.342	64.2733
11.36	64.3075
11.378	64.3393
11.396	64.3713
11.414	64.4051
11.432	64.4373
11.45	64.4598
11.468	64.465
11.486	64.4526
11.504	64.4331
11.522	64.4236
11.54	64.4384
11.558	64.4811
11.576	64.541
11.594	64.5978
11.612	64.6291
11.63	64.6208
11.648	64.5733
11.666	64.5006
11.684	64.4246
11.702	64.3643
11.72	64.3307
11.738	64.3221
11.756	64.3274
11.774	64.332
11.792	64.3254
11.81	64.3061
11.828	64.2803
11.846	64.2585
11.864	64.2493
11.882	64.2552
11.9	64.2727
11.918	64.2937
11.936	64.3104
11.954	64.3191
11.972	64.3221
11.99	64.3261
12.008	64.339
12.026	64.3658
12.044	64.4058
12.062	64.4506
12.08	64.488
12.098	64.5054
12.116	64.4951
12.134	64.4581
12.152	64.4054
12.17	64.3527
12.188	64.3164
12.206	64.3081
12.224	64.3303
12.242	64.3765
12.26	64.4337
12.278	64.4855
12.296	64.5174
12.314	64.5202
12.332	64.4929
12.35	64.4414
12.368	64.3774
12.386	64.3147
12.404	64.2653
12.422	64.2358
12.44	64.2266
12.458	64.2331
12.476	64.2481
12.494	64.2642
12.512	64.2768
12.53	64.2841
12.548	64.2871
12.566	64.2883
12.584	64.2894
12.602	64.2907
12.62	64.2905
12.638	64.2857
12.656	64.2725
12.674	64.2482
12.692	64.2128
12.71	64.1696
12.728	64.1245
12.746	64.0848
12.764	64.0573
12.782	64.0458
12.8	64.0499
12.818	64.065
12.836	64.084
12.854	64.0993
12.872	64.1043
12.89	64.0956
12.908	64.074
12.926	64.0439
12.944	64.0128
12.962	63.9898
12.98	63.9833
12.998	63.9996
13.016	64.0408
13.034	64.104
13.052	64.1818
13.07	64.2629
13.088	64.334
13.106	64.3826
13.124	64.3997
13.142	64.3815
13.16	64.3307
13.178	64.2556
13.196	64.1685
13.214	64.0819
13.232	64.005
13.25	63.9417
13.268	63.8906
13.286	63.8458
13.304	63.7995
13.322	63.7452
13.34	63.6802
13.358	63.6062
13.376	63.5292
13.394	63.4574
13.412	63.3994
13.43	63.3618
13.448	63.3482
13.466	63.358
13.484	63.3872
13.502	63.4297
13.52	63.4784
13.538	63.5268
13.556	63.5696
13.574	63.6035
13.592	63.6273
13.61	63.6413
13.628	63.6474
13.646	63.6476
13.664	63.6448
13.682	63.6423
13.7	63.6432
13.718	63.65
13.736	63.6644
13.754	63.6871
13.772	63.7177
13.79	63.7545
13.808	63.795
13.826	63.8361
13.844	63.8749
13.862	63.9083
13.88	63.9339
13.898	63.9498
13.916	63.955
13.934	63.9491
13.952	63.9326
13.97	63.9058
13.988	63.8699
14.006	63.8257
14.024	63.7747
14.042	63.7187
14.06	63.6607
14.078	63.6047
14.096	63.5564
14.114	63.5219
14.132	63.5072
14.15	63.5174
14.168	63.5558
14.186	63.6226
14.204	63.7143
14.222	63.8234
14.24	63.9402
14.258	64.0536
14.276	64.1525
14.294	64.228
14.312	64.2739
14.33	64.2879
14.348	64.2715
14.366	64.2301
14.384	64.1712
14.402	64.1031
14.42	64.0328
14.438	63.9656
14.456	63.9048
14.474	63.8511
14.492	63.8035
14.51	63.7597
14.528	63.7174
14.546	63.675
14.564	63.6323
14.582	63.5902
14.6	63.5508
14.618	63.5167
14.636	63.4903
14.654	63.4729
14.672	63.4644
14.69	63.4634
14.708	63.4669
14.726	63.4708
14.744	63.4702
14.762	63.4609
14.78	63.4401
14.798	63.4067
14.816	63.3608
14.834	63.3051
14.852	63.2438
14.87	63.1823
14.888	63.1265
14.906	63.0815
14.924	63.0521
14.942	63.0412
14.96	63.0489
14.978	63.0733
14.996	63.1114
15.014	63.158
15.032	63.2066
15.05	63.2506
15.068	63.2846
15.086	63.3043
15.104	63.3069
15.122	63.2918
15.14	63.2609
15.158	63.2172
15.176	63.1646
15.194	63.1081
15.212	63.0533
15.23	63.0044
15.248	62.9647
15.266	62.9365
15.284	62.9214
15.302	62.9187
15.32	62.9273
15.338	62.9455
15.356	62.9707
15.374	63.0003
15.392	63.0316
15.41	63.0626
15.428	63.091
15.446	63.1146
15.464	63.1322
15.482	63.1424
15.5	63.1441
15.518	63.136
15.536	63.1175
15.554	63.0882
15.572	63.0484
15.59	62.9992
15.608	62.9421
15.626	62.8789
15.644	62.8124
15.662	62.7464
15.68	62.6842
15.698	62.629
15.716	62.5844
15.734	62.5527
15.752	62.5351
15.77	62.5322
15.788	62.5431
15.806	62.5656
15.824	62.597
15.842	62.6339
15.86	62.6713
15.878	62.7058
15.896	62.734
15.914	62.7522
15.932	62.7587
15.95	62.7523
15.968	62.7328
15.986	62.701
16.004	62.6587
16.022	62.6077
16.04	62.551
16.058	62.4917
16.076	62.4324
16.094	62.3769
16.112	62.3285
16.13	62.2895
16.148	62.263
16.166	62.2514
16.184	62.2559
16.202	62.2778
16.22	62.317
16.238	62.3723
16.256	62.4426
16.274	62.5243
16.292	62.6143
16.31	62.7096
16.328	62.8051
16.346	62.8974
16.364	62.9835
16.382	63.0595
16.4	63.1237
16.418	63.175
16.436	63.2127
16.454	63.238
16.472	63.2516
16.49	63.2558
16.508	63.2526
16.526	63.2436
16.544	63.2314
16.562	63.2168
16.58	63.2008
16.598	63.1838
16.616	63.1654
16.634	63.1453
16.652	63.1223
16.67	63.0959
16.688	63.0653
16.706	63.0305
16.724	62.9919
16.742	62.9502
16.76	62.9074
16.778	62.8649
16.796	62.8253
16.814	62.7908
16.832	62.763
16.85	62.7441
16.868	62.7344
16.886	62.7348
16.904	62.7439
16.922	62.7604
16.94	62.7821
16.958	62.8051
16.976	62.8276
16.994	62.8454
17.012	62.8562
17.03	62.8584
17.048	62.8505
17.066	62.8328
17.084	62.8059
17.102	62.7724
17.12	62.7339
17.138	62.6942
17.156	62.6556
17.174	62.6205
17.192	62.5914
17.21	62.5686
17.228	62.5529
17.246	62.5428
17.264	62.5378
17.282	62.5345
17.3	62.5316
17.318	62.5257
17.336	62.5147
17.354	62.497
17.372	62.4709
17.39	62.4364
17.408	62.3938
17.426	62.3445
17.444	62.2894
17.462	62.2318
17.48	62.173
17.498	62.1164
17.516	62.0639
17.534	62.0178
17.552	61.9797
17.57	61.9504
17.588	61.9308
17.606	61.9209
17.624	61.9208
17.642	61.9297
17.66	61.9473
17.678	61.9721
17.696	62.0037
17.714	62.0407
17.732	62.0823
17.75	62.1275
17.768	62.1754
17.786	62.2255
17.804	62.2763
17.822	62.3274
17.84	62.3779
17.858	62.4272
17.876	62.4747
17.894	62.52
17.912	62.5629
17.93	62.6037
17.948	62.6423
17.966	62.6795
17.984	62.7157
18.002	62.7519
18.02	62.7887
18.038	62.8266
18.056	62.8663
18.074	62.908
18.092	62.9511
18.11	62.9955
18.128	63.0393
18.146	63.0817
18.164	63.1201
18.182	63.1531
18.2	63.1784
18.218	63.1935
18.236	63.1971
18.254	63.1867
18.272	63.1618
18.29	63.1218
18.308	63.0666
18.326	62.9975
18.344	62.9151
18.362	62.8225
18.38	62.7209
18.398	62.6138
18.416	62.5031
18.434	62.3919
18.452	62.2824
18.47	62.1764
18.488	62.0757
18.506	61.981
18.524	61.893
18.542	61.812
18.56	61.7373
18.578	61.6687
18.596	61.6051
18.614	61.5466
18.632	61.4921
18.65	61.4415
18.668	61.3951
18.686	61.353
18.704	61.3159
18.722	61.2843
18.74	61.2597
18.758	61.2426
18.776	61.2345
18.794	61.2356
18.812	61.247
18.83	61.268
18.848	61.2982
18.866	61.3365
18.884	61.3814
18.902	61.4316
18.92	61.4845
18.938	61.5385
18.956	61.5909
18.974	61.6401
18.992	61.6833
19.01	61.7203
19.028	61.749
19.046	61.7703
19.064	61.7838
19.082	61.7907
19.1	61.7923
19.118	61.7898
19.136	61.7858
19.154	61.7812
19.172	61.7789
19.19	61.7792
19.208	61.7845
19.226	61.7943
19.244	61.8098
19.262	61.8303
19.28	61.8547
19.298	61.8827
19.316	61.9111
19.334	61.94
19.352	61.965
19.37	61.9863
19.388	62.0004
19.406	62.0076
19.424	62.0057
19.442	61.9944
19.46	61.9735
19.478	61.9425
19.496	61.9029
19.514	61.8544
19.532	61.7995
19.55	61.7389
19.568	61.6747
19.586	61.6091
19.604	61.5428
19.622	61.4789
19.64	61.4174
19.658	61.3608
19.676	61.3089
19.694	61.2635
19.712	61.2244
19.73	61.1914
19.748	61.1646
19.766	61.1424
19.784	61.125
19.802	61.1101
19.82	61.0966
19.838	61.0832
19.856	61.0674
19.874	61.0491
19.892	61.025
19.91	60.9954
19.928	60.9577
19.946	60.9123
19.964	60.8577
19.982	60.7937
20	60.7207
20.018	60.6382
20.036	60.5474
20.054	60.4492
20.072	60.3441
20.09	60.2352
20.108	60.1222
20.126	60.0092
20.144	59.8958
20.162	59.7858
20.18	59.6804
20.198	59.5814
20.216	59.4922
20.234	59.4125
20.252	59.3469
20.27	59.2945
20.288	59.2584
20.306	59.2386
20.324	59.2362
20.342	59.2523
20.36	59.2864
20.378	59.3389
20.396	59.4095
20.414	59.4969
20.432	59.6015
20.45	59.7203
20.468	59.8529
20.486	59.9972
20.504	60.1496
20.522	60.3105
20.54	60.4738
20.558	60.6404
20.576	60.8049
20.594	60.9654
20.612	61.1205
20.63	61.2644
20.648	61.3984
20.666	61.5173
20.684	61.621
20.702	61.7077
20.72	61.7751
20.738	61.824
20.756	61.8531
20.774	61.8625
20.792	61.8542
20.81	61.8278
20.828	61.7854
20.846	61.7295
20.864	61.6597
20.882	61.5814
20.9	61.4938
20.918	61.4006
20.936	61.3043
20.954	61.2049
20.972	61.1072
20.99	61.0105
21.008	60.917
21.026	60.8281
21.044	60.7434
21.062	60.6641
21.08	60.5903
21.098	60.521
21.116	60.4565
21.134	60.3961
21.152	60.3384
21.17	60.284
21.188	60.2307
21.206	60.1784
21.224	60.1265
21.242	60.0736
21.26	60.02
21.278	59.9653
21.296	59.9091
21.314	59.8518
21.332	59.794
21.35	59.7354
21.368	59.6775
21.386	59.6202
21.404	59.564
21.422	59.5104
21.44	59.4591
21.458	59.4109
21.476	59.3665
21.494	59.3255
21.512	59.2882
21.53	59.255
21.548	59.2249
21.566	59.1973
21.584	59.1725
21.602	59.1486
21.62	59.1261
21.638	59.1036
21.656	59.0793
21.674	59.0539
21.692	59.0259
21.71	58.9949
21.728	58.9611
21.746	58.9242
21.764	58.8838
21.782	58.8415
21.8	58.7979
21.818	58.7527
21.836	58.7089
21.854	58.666
21.872	58.6253
21.89	58.5903
21.908	58.5595
21.926	58.5359
21.944	58.5215
21.962	58.5154
21.98	58.5198
21.998	58.5355
22.016	58.5615
22.034	58.5979
22.052	58.6451
22.07	58.7009
22.088	58.7642
22.106	58.8357
22.124	58.911
22.142	58.9901
22.16	59.0722
22.178	59.1522
22.196	59.2315
22.214	59.3074
22.232	59.3762
22.25	59.4394
22.268	59.4944
22.286	59.5393
22.304	59.5751
22.322	59.6008
22.34	59.6155
22.358	59.6204
22.376	59.6171
22.394	59.6044
22.412	59.5847
22.43	59.5613
22.448	59.5322
22.466	59.5016
22.484	59.4724
22.502	59.4428
22.52	59.4173
22.538	59.3976
22.556	59.3825
22.574	59.3757
22.592	59.3778
22.61	59.3881
22.628	59.4079
22.646	59.4375
22.664	59.476
22.682	59.5221
22.7	59.5771
22.718	59.6382
22.736	59.7027
22.754	59.7726
22.772	59.8436
22.79	59.9126
22.808	59.9818
22.826	60.0464
22.844	60.1036
22.862	60.1553
22.88	60.1976
22.898	60.2288
22.916	60.25
22.934	60.2594
22.952	60.2556
22.97	60.2396
22.988	60.2122
23.006	60.1728
23.024	60.1221
23.042	60.0626
23.06	59.9938
23.078	59.9164
23.096	59.8342
23.114	59.747
23.132	59.6551
23.15	59.562
23.168	59.4674
23.186	59.3716
23.204	59.2772
23.222	59.1842
23.24	59.0923
23.258	59.002
23.276	58.9134
23.294	58.8262
23.312	58.7399
23.33	58.6552
23.348	58.5712
23.366	58.4857
23.384	58.3997
23.402	58.3121
23.42	58.2189
23.438	58.1198
23.456	58.0152
23.474	57.9029
23.492	57.7815
23.51	57.6524
23.528	57.5167
23.546	57.3739
23.564	57.2243
23.582	57.0716
23.6	56.9166
23.618	56.7583
23.636	56.6013
23.654	56.4473
23.672	56.294
23.69	56.1482
23.708	56.0137
23.726	55.8867
23.744	55.7738
23.762	55.6809
23.78	55.6041
23.798	55.5471
23.816	55.5145
23.834	55.5049
23.852	55.518
23.87	55.5548
23.888	55.6163
23.906	55.7005
23.924	55.8044
23.942	55.9298
23.96	56.0751
23.978	56.2337
23.996	56.4049
24.014	56.5908
24.032	56.7815
24.05	56.9717
24.068	57.1672
24.086	57.3584
24.104	57.5364
24.122	57.7076
24.14	57.8655
24.158	58.0005
24.176	58.1152
24.194	58.209
24.212	58.2754
24.23	58.3131
24.248	58.3243
24.266	58.3066
24.284	58.2579
24.302	58.1787
24.32	58.0726
24.338	57.9418
24.356	57.782
24.374	57.6001
24.392	57.4056
24.41	57.1945
24.428	56.969
24.446	56.7421
24.464	56.5174
24.482	56.2886
24.5	56.0693
24.518	55.8707
24.536	55.6849
24.554	55.5177
24.572	55.3785
24.59	55.2661
24.608	55.1794
24.626	55.1229
24.644	55.1009
24.662	55.1114
24.68	55.1489
24.698	55.2088
24.716	55.2967
24.734	55.4058
24.752	55.5256
24.77	55.6604
24.788	55.8101
24.806	55.9548
24.824	56.0822
24.842	56.2077
24.86	56.3123
24.878	56.3731
24.896	56.4003
24.914	56.3904
24.932	56.3195
24.95	56.1754
24.968	55.9728
24.986	55.6967
25.004	55.3309
25.022	54.881
25.04	54.3475
25.058	53.7228
25.076	53.0011
25.094	52.1861
25.112	51.283
25.13	50.296
25.148	49.217
25.166	48.0549
25.184	46.826
25.202	45.5343
25.22	44.1685
25.238	42.7522
25.256	41.3097
25.274	39.8255
25.292	38.3074
25.31	36.7839
25.328	35.2697
25.346	33.7445
25.364	32.2309
25.382	30.7552
25.4	29.3109
25.418	27.8949
25.436	26.5269
25.454	25.222
25.472	23.9679
25.49	22.7705
25.508	21.64
25.526	20.579
25.544	19.5822
25.562	18.6538
25.58	17.7984
25.598	17.0153
25.616	16.3023
25.634	15.6587
25.652	15.084
25.67	14.5791
25.688	14.1415
25.706	13.7688
25.724	13.4617
25.742	13.2206
25.76	13.0404
25.778	12.9169
25.796	12.8576
25.814	12.8557
25.832	12.8978
25.85	12.9767
25.868	13.105
25.886	13.2684
25.904	13.4489
25.922	13.6467
25.94	13.8717
25.958	14.1013
25.976	14.3127
25.994	14.5157
26.012	14.7112
26.03	14.8797
26.048	15.0045
26.066	15.0997
26.084	15.1591
26.102	15.1674
26.12	15.1136
26.138	15.0063
26.156	14.8454
26.174	14.6288
26.192	14.3517
26.21	14.0135
26.228	13.627
26.246	13.2056
26.264	12.7411
26.282	12.2307
26.3	11.7005
26.318	11.1758
26.336	10.6411
26.354	10.0977
26.372	9.573090
26.39	9.092199
26.408	8.633355
26.426	8.204589
26.444	7.832697
26.462	7.539539
26.48	7.303455
26.498	7.133904
26.516	7.051631
26.534	7.072441
26.552	7.182182
26.57	7.383985
26.588	7.685588
26.606	8.094192
26.624	8.608605
26.642	9.220454
26.66	9.921202
26.678	10.7096
26.696	11.5978
26.714	12.5666
26.732	13.5943
26.75	14.6735
26.768	15.8253
26.786	17.0258
26.804	18.2473
26.822	19.481
26.84	20.7526
26.858	22.0344
26.876	23.2948
26.894	24.5213
26.912	25.7417
26.93	26.9319
26.948	28.0643
26.966	29.1529
26.984	30.2623
27.002	31.2735
27.02	32.0549
27.028	32.2693