File: Bakgrunnsmateriale/MATLAB/FTIR/ftir_data/subBb/Mapping_121/C-4040-8_t79.asc
PE IR       SPECTRUM    SPECTRUM    ASCII       PEDS        1.60
  -1
C-C14E~1.ASC
17/03/27
20:58:48.00
17/03/27
20:59:14.00
tln
$C-4040-8_t0079$<tbV0>[10.4,5.2,8.0,0.0,27,1,0]
27.028
64

2002,4.07
MIRTGS : RIGHTBACK : INTERNAL 2
MIR : ON : INTERNAL 2
OPTKBR

0.200000
8
8.000000
FILLER
RATIO
SPECTRUM
UNLOCKED 256

DOUBLE
64
COMBINED
1
0
0

0.002000
RATIO

1
0
TRUE
51149
0
LEFT NOT FITTED RIGHT NOT FITTED 0
NONE
NONE
15600
12
4.427000
51148
TRUE
1 0 8 72 0 0 0 0

15798

#HDR
-1
-1
#GR
µM
%T
2.38419e-05
0.0
2.000000
0.002000
12515
8
101.75
43.0727
#DATA
2.000000	 65.1883
2.018000	 65.4389
2.036000	 64.7167
2.054000	 65.1871
2.072000	 64.9153
2.090000	 64.6408
2.108000	 65.4741
2.126000	 64.9402
2.144000	 65.1704
2.162000	 65.2925
2.180000	 65.0065
2.198000	 64.784
2.216000	 64.9756
2.234000	 63.992
2.252000	 63.9017
2.270000	 63.1007
2.288000	 65.2793
2.306000	 64.7992
2.324000	 64.6812
2.342000	 65.0314
2.360000	 64.8172
2.378000	 64.8472
2.396000	 65.2939
2.414000	 65.1304
2.432000	 64.953
2.450000	 65.1408
2.468000	 65.0944
2.486000	 65.2743
2.504000	 65.0031
2.522000	 65.0088
2.540000	 65.1178
2.558000	 65.119
2.576000	 65.0769
2.594000	 64.809
2.612000	 64.7646
2.630000	 65.0351
2.648000	 65.0289
2.666000	 65.0877
2.684000	 65.128
2.702000	 64.9583
2.720000	 65.1073
2.738000	 65.3167
2.756000	 65.222
2.774000	 65.0497
2.792000	 65.2141
2.810000	 65.0206
2.828000	 65.232
2.846000	 65.1731
2.864000	 65.3152
2.882000	 65.6279
2.900000	 65.3408
2.918000	 64.8656
2.936000	 65.1122
2.954000	 65.2843
2.972000	 65.2999
2.990000	 64.8782
3.008000	 65.1328
3.026000	 65.1091
3.044000	 65.1661
3.062000	 65.3079
3.080000	 65.1179
3.098000	 65.0639
3.116000	 65.0411
3.134000	 65.0305
3.152000	 65.1046
3.170000	 65.183
3.188000	 65.4207
3.206000	 65.311
3.224000	 64.9849
3.242000	 65.1006
3.260000	 65.4275
3.278000	 65.1598
3.296000	 65.3793
3.314000	 65.0643
3.332000	 65.009
3.350000	 65.1095
3.368000	 64.9994
3.386000	 65.0271
3.404000	 64.988
3.422000	 64.7769
3.440000	 65.0213
3.458000	 65.2258
3.476000	 64.9588
3.494000	 65.1841
3.512000	 65.0071
3.530000	 65.2453
3.548000	 65.3148
3.566000	 65.1771
3.584000	 65.1746
3.602000	 65.2819
3.620000	 65.1273
3.638000	 65.221
3.656000	 65.2616
3.674000	 65.3589
3.692000	 65.2856
3.710000	 65.3472
3.728000	 65.185
3.746000	 65.2709
3.764000	 65.1719
3.782000	 65.198
3.800000	 65.3374
3.818000	 65.1154
3.836000	 65.2652
3.854000	 65.1524
3.872000	 65.3231
3.890000	 65.1481
3.908000	 65.295
3.926000	 65.2851
3.944000	 65.2289
3.962000	 65.1218
3.980000	 65.3697
3.998000	 65.2684
4.016000	 65.3003
4.034000	 65.404
4.052000	 65.0975
4.070000	 65.3496
4.088000	 65.3796
4.106000	 65.2469
4.124000	 64.9705
4.141999	 64.8259
4.160000	 65.4649
4.178000	 65.2282
4.196000	 65.1358
4.214000	 65.2227
4.232000	 65.3872
4.250000	 65.4192
4.268000	 65.3522
4.286000	 65.3404
4.304000	 65.2584
4.322000	 65.3449
4.340000	 65.3032
4.358000	 65.2706
4.375999	 65.3428
4.394000	 65.2035
4.412000	 65.1476
4.430000	 65.2162
4.448000	 65.3416
4.466000	 65.3777
4.484000	 65.4067
4.502000	 65.452
4.520000	 65.3642
4.538000	 65.2527
4.556000	 65.3437
4.574000	 65.2666
4.592000	 65.3405
4.609999	 65.0794
4.628000	 65.1438
4.646000	 65.091
4.664000	 65.1096
4.682000	 65.0381
4.700000	 65.2833
4.718000	 65.3327
4.736000	 65.296
4.754000	 65.2734
4.772000	 65.3443
4.790000	 65.3497
4.808000	 65.7858
4.826000	 65.8421
4.843999	 65.3737
4.862000	 65.1058
4.880000	 65.3189
4.898000	 65.3359
4.916000	 65.2927
4.934000	 65.3078
4.952000	 65.396
4.970000	 65.3497
4.988000	 65.1919
5.006000	 65.1362
5.024000	 65.3288
5.042000	 65.3108
5.060000	 65.2111
5.077999	 65.3348
5.096000	 65.4171
5.114000	 65.4304
5.132000	 65.3394
5.150000	 65.2857
5.168000	 65.4293
5.186000	 65.4292
5.204000	 65.3428
5.222000	 65.254
5.240000	 65.2953
5.258000	 65.3176
5.276000	 65.4284
5.294000	 65.4055
5.312000	 65.2457
5.330000	 65.3088
5.348000	 65.3563
5.366000	 65.253
5.384000	 65.1815
5.402000	 65.1428
5.420000	 65.203
5.438000	 65.259
5.456000	 65.2673
5.474000	 65.2897
5.492000	 65.3612
5.510000	 65.4543
5.528000	 65.4036
5.546000	 65.3381
5.564000	 65.2108
5.582000	 65.2172
5.600000	 65.3741
5.618000	 65.3187
5.636000	 65.2064
5.654000	 65.2003
5.672000	 65.2023
5.690000	 65.2764
5.708000	 65.1531
5.726000	 65.0886
5.744000	 65.1079
5.762000	 65.1493
5.780000	 65.2128
5.798000	 65.1774
5.816000	 65.1166
5.834000	 65.1666
5.852000	 65.0279
5.870000	 65.0822
5.888000	 65.2295
5.906000	 65.3642
5.923999	 65.4375
5.942000	 65.4623
5.960000	 65.3767
5.978000	 65.3488
5.996000	 65.3471
6.014000	 65.225
6.032000	 65.1975
6.050000	 65.1982
6.068000	 65.1626
6.086000	 65.1989
6.104000	 65.1997
6.122000	 65.1314
6.140000	 65.0494
6.158000	 65.0353
6.176000	 64.9918
6.194000	 64.9515
6.212000	 65.0223
6.230000	 65.0993
6.248000	 65.0625
6.266000	 65.002
6.284000	 65.0782
6.302000	 65.1758
6.320000	 65.1712
6.338000	 65.0824
6.356000	 64.9533
6.374000	 64.9544
6.392000	 65.0557
6.410000	 65.1069
6.428000	 65.0515
6.446000	 65.0078
6.464000	 65.0335
6.482000	 65.1028
6.500000	 65.1245
6.518000	 65.0412
6.536000	 64.9924
6.554000	 65.0156
6.572000	 65.013
6.590000	 64.9614
6.608000	 64.8991
6.626000	 64.905
6.644000	 64.9992
6.662000	 65.1043
6.680000	 65.1777
6.698000	 65.2206
6.716000	 65.1945
6.734000	 65.1367
6.752000	 65.1346
6.770000	 65.2132
6.788000	 65.2677
6.806000	 65.1903
6.824000	 65.0618
6.842000	 64.994
6.860000	 64.9851
6.878000	 64.9261
6.896000	 64.8013
6.914000	 64.8111
6.932000	 64.9749
6.950000	 65.0877
6.968000	 65.0789
6.986000	 65.0289
7.004000	 64.9828
7.022000	 64.9772
7.040000	 65.0156
7.058000	 65.0337
7.076000	 65.0398
7.094000	 65.0798
7.112000	 65.1013
7.130000	 65.08
7.148000	 65.0907
7.166000	 65.1265
7.184000	 65.1106
7.202000	 65.0676
7.220000	 65.0598
7.238000	 65.1
7.256000	 65.17
7.274000	 65.1933
7.292000	 65.1223
7.310000	 65.0354
7.328000	 65.0109
7.346000	 65.0257
7.364000	 65.0264
7.382000	 65.0014
7.400000	 64.9739
7.418000	 64.9585
7.436000	 64.9697
7.454000	 65.0334
7.472000	 65.1207
7.490000	 65.1579
7.508000	 65.1457
7.526000	 65.1511
7.544000	 65.194
7.562000	 65.2264
7.580000	 65.1994
7.598000	 65.1139
7.616000	 65.0235
7.634000	 64.9823
7.652000	 65.004
7.670000	 65.0801
7.688000	 65.1788
7.706000	 65.2273
7.724000	 65.1821
7.742000	 65.0936
7.760000	 65.036
7.778000	 65.027
7.796000	 65.0489
7.814000	 65.0721
7.832000	 65.0649
7.850000	 65.032
7.868000	 65.0143
7.886000	 65.0223
7.904000	 65.0249
7.922000	 65.0025
7.940000	 64.9655
7.958000	 64.9283
7.976000	 64.8883
7.994000	 64.8383
8.012000	 64.7979
8.030000	 64.814
8.048000	 64.8992
8.065999	 65.0056
8.084000	 65.0793
8.102000	 65.1006
8.120000	 65.0769
8.138000	 65.0394
8.155999	 65.0317
8.173999	 65.0562
8.192000	 65.0639
8.210000	 65.0326
8.228000	 65.0079
8.246000	 65.0323
8.263999	 65.0838
8.282000	 65.1159
8.300000	 65.1113
8.318000	 65.0698
8.336000	 64.995
8.353999	 64.91
8.372000	 64.8579
8.390000	 64.8589
8.408000	 64.8825
8.426000	 64.881
8.443999	 64.851
8.462000	 64.8302
8.480000	 64.8359
8.498000	 64.8399
8.516000	 64.8136
8.533999	 64.7766
8.552000	 64.7747
8.570000	 64.8186
8.588000	 64.8672
8.606000	 64.8773
8.624000	 64.8503
8.641999	 64.8128
8.660000	 64.775
8.678000	 64.73
8.696000	 64.6899
8.714000	 64.6914
8.731999	 64.7596
8.750000	 64.878
8.768000	 65.0007
8.786000	 65.0836
8.804000	 65.1051
8.821999	 65.0709
8.840000	 65.0094
8.858000	 64.9523
8.876000	 64.912
8.894000	 64.878
8.911999	 64.8382
8.930000	 64.8012
8.948000	 64.787
8.966000	 64.8021
8.984000	 64.8312
9.001999	 64.8563
9.020000	 64.8693
9.038000	 64.8661
9.056000	 64.8368
9.074000	 64.7708
9.092000	 64.6721
9.109999	 64.5649
9.128000	 64.4793
9.146000	 64.431
9.164000	 64.4172
9.182000	 64.4325
9.199999	 64.4834
9.218000	 64.5828
9.236000	 64.7239
9.254000	 64.8663
9.272000	 64.9575
9.289999	 64.9711
9.308000	 64.9188
9.326000	 64.8322
9.344000	 64.7393
9.362000	 64.66
9.379999	 64.6143
9.398000	 64.6202
9.416000	 64.6774
9.434000	 64.7557
9.452000	 64.8097
9.469999	 64.811
9.488000	 64.7704
9.506000	 64.7293
9.524000	 64.7268
9.542000	 64.768
9.560000	 64.8226
9.577999	 64.8513
9.596000	 64.8363
9.614000	 64.784
9.632000	 64.7105
9.650000	 64.6308
9.667999	 64.559
9.686000	 64.5055
9.704000	 64.4687
9.722000	 64.4309
9.740000	 64.367
9.757999	 64.2659
9.776000	 64.1447
9.794000	 64.044
9.812000	 64.0052
9.830000	 64.0457
9.847999	 64.1502
9.866000	 64.2821
9.884000	 64.4033
9.902000	 64.4922
9.920000	 64.5493
9.937999	 64.5889
9.956000	 64.6241
9.974000	 64.6602
9.992000	 64.6964
10.01	64.7327
10.028	64.7709
10.046	64.8111
10.064	64.8468
10.082	64.8643
10.1	64.8474
10.118	64.7891
10.136	64.6989
10.154	64.6004
10.172	64.5224
10.19	64.4867
10.208	64.498
10.226	64.5457
10.244	64.6126
10.262	64.6834
10.28	64.7466
10.298	64.7884
10.316	64.7901
10.334	64.7399
10.352	64.6476
10.37	64.5466
10.388	64.4783
10.406	64.4676
10.424	64.5117
10.442	64.5867
10.46	64.6705
10.478	64.7568
10.496	64.8543
10.514	64.9678
10.532	65.0832
10.55	65.1681
10.568	65.1877
10.586	65.1217
10.604	64.9751
10.622	64.7767
10.64	64.5723
10.658	64.4094
10.676	64.3266
10.694	64.339
10.712	64.4365
10.73	64.5875
10.748	64.752
10.766	64.8952
10.784	64.998
10.802	65.0582
10.82	65.0845
10.838	65.088
10.856	65.0768
10.874	65.0553
10.892	65.0248
10.91	64.985
10.928	64.9348
10.946	64.8741
10.964	64.8058
10.982	64.7371
11	64.6793
11.018	64.6463
11.036	64.6472
11.054	64.6815
11.072	64.7382
11.09	64.7971
11.108	64.8383
11.126	64.8469
11.144	64.8206
11.162	64.7678
11.18	64.704
11.198	64.647
11.216	64.6079
11.234	64.5877
11.252	64.5776
11.27	64.5652
11.288	64.5411
11.306	64.5042
11.324	64.4635
11.342	64.4333
11.36	64.4272
11.378	64.4535
11.396	64.5115
11.414	64.5917
11.432	64.6781
11.45	64.7538
11.468	64.803
11.486	64.8173
11.504	64.7958
11.522	64.7456
11.54	64.6778
11.558	64.6057
11.576	64.5393
11.594	64.4833
11.612	64.4382
11.63	64.4017
11.648	64.3721
11.666	64.3503
11.684	64.34
11.702	64.3451
11.72	64.3672
11.738	64.4029
11.756	64.4443
11.774	64.4806
11.792	64.5017
11.81	64.5019
11.828	64.4816
11.846	64.4467
11.864	64.4065
11.882	64.3688
11.9	64.3397
11.918	64.321
11.936	64.3121
11.954	64.3117
11.972	64.3196
11.99	64.3365
12.008	64.3627
12.026	64.3969
12.044	64.4359
12.062	64.4747
12.08	64.5082
12.098	64.5332
12.116	64.5486
12.134	64.5559
12.152	64.5576
12.17	64.5552
12.188	64.549
12.206	64.5375
12.224	64.5198
12.242	64.4962
12.26	64.4689
12.278	64.4408
12.296	64.4147
12.314	64.3912
12.332	64.3692
12.35	64.3466
12.368	64.3223
12.386	64.2971
12.404	64.2737
12.422	64.2555
12.44	64.2447
12.458	64.241
12.476	64.2418
12.494	64.2429
12.512	64.2408
12.53	64.2346
12.548	64.2266
12.566	64.2214
12.584	64.2232
12.602	64.2334
12.62	64.2494
12.638	64.2651
12.656	64.2726
12.674	64.2659
12.692	64.2423
12.71	64.2043
12.728	64.1577
12.746	64.1104
12.764	64.0695
12.782	64.0395
12.8	64.0215
12.818	64.0135
12.836	64.0124
12.854	64.0152
12.872	64.0205
12.89	64.0279
12.908	64.0371
12.926	64.0481
12.944	64.0598
12.962	64.0708
12.98	64.0794
12.998	64.085
13.016	64.0874
13.034	64.0875
13.052	64.0862
13.07	64.0844
13.088	64.0817
13.106	64.0767
13.124	64.0677
13.142	64.0522
13.16	64.028
13.178	63.9924
13.196	63.9437
13.214	63.881
13.232	63.8038
13.25	63.7134
13.268	63.6128
13.286	63.5084
13.304	63.4088
13.322	63.3247
13.34	63.2665
13.358	63.2423
13.376	63.2553
13.394	63.3022
13.412	63.3736
13.43	63.4562
13.448	63.5352
13.466	63.5976
13.484	63.6352
13.502	63.6457
13.52	63.6334
13.538	63.6065
13.556	63.5756
13.574	63.551
13.592	63.5404
13.61	63.5471
13.628	63.5704
13.646	63.6064
13.664	63.6491
13.682	63.6929
13.7	63.7333
13.718	63.7673
13.736	63.7939
13.754	63.8136
13.772	63.8275
13.79	63.8359
13.808	63.8387
13.826	63.8359
13.844	63.8266
13.862	63.81
13.88	63.7856
13.898	63.7538
13.916	63.7162
13.934	63.6744
13.952	63.6304
13.97	63.5856
13.988	63.5408
14.006	63.4955
14.024	63.4486
14.042	63.3982
14.06	63.3424
14.078	63.2807
14.096	63.2143
14.114	63.1457
14.132	63.0793
14.15	63.0198
14.168	62.9724
14.186	62.9413
14.204	62.9288
14.222	62.9355
14.24	62.9598
14.258	62.9993
14.276	63.05
14.294	63.1081
14.312	63.1705
14.33	63.2347
14.348	63.2993
14.366	63.3634
14.384	63.4262
14.402	63.4868
14.42	63.5433
14.438	63.5935
14.456	63.6345
14.474	63.6633
14.492	63.677
14.51	63.6739
14.528	63.6544
14.546	63.6201
14.564	63.5738
14.582	63.5194
14.6	63.4615
14.618	63.4045
14.636	63.3525
14.654	63.3074
14.672	63.27
14.69	63.2397
14.708	63.2143
14.726	63.1903
14.744	63.1635
14.762	63.1299
14.78	63.0866
14.798	63.0321
14.816	62.9664
14.834	62.8915
14.852	62.8112
14.87	62.7306
14.888	62.6546
14.906	62.5878
14.924	62.5342
14.942	62.496
14.96	62.4732
14.978	62.4646
14.996	62.4679
15.014	62.4802
15.032	62.4978
15.05	62.5183
15.068	62.5404
15.086	62.564
15.104	62.5897
15.122	62.619
15.14	62.6531
15.158	62.6927
15.176	62.7376
15.194	62.7867
15.212	62.8367
15.23	62.8843
15.248	62.9262
15.266	62.9591
15.284	62.9807
15.302	62.9902
15.32	62.9884
15.338	62.9768
15.356	62.9585
15.374	62.9371
15.392	62.9161
15.41	62.8984
15.428	62.8866
15.446	62.8823
15.464	62.8858
15.482	62.8966
15.5	62.9137
15.518	62.935
15.536	62.9583
15.554	62.9817
15.572	63.0032
15.59	63.0208
15.608	63.033
15.626	63.0386
15.644	63.0363
15.662	63.0258
15.68	63.0072
15.698	62.9808
15.716	62.9476
15.734	62.9092
15.752	62.8676
15.77	62.8247
15.788	62.7832
15.806	62.7453
15.824	62.7124
15.842	62.6858
15.86	62.6656
15.878	62.6511
15.896	62.6416
15.914	62.635
15.932	62.6291
15.95	62.6221
15.968	62.6118
15.986	62.5963
16.004	62.5749
16.022	62.5469
16.04	62.5124
16.058	62.4725
16.076	62.4282
16.094	62.381
16.112	62.3331
16.13	62.286
16.148	62.2416
16.166	62.202
16.184	62.1683
16.202	62.1416
16.22	62.1232
16.238	62.1137
16.256	62.1133
16.274	62.1222
16.292	62.1398
16.31	62.1656
16.328	62.1983
16.346	62.2361
16.364	62.2778
16.382	62.3205
16.4	62.3623
16.418	62.4015
16.436	62.4353
16.454	62.4621
16.472	62.4809
16.49	62.4903
16.508	62.4899
16.526	62.4798
16.544	62.4604
16.562	62.4329
16.58	62.3981
16.598	62.3579
16.616	62.3136
16.634	62.2666
16.652	62.219
16.67	62.1722
16.688	62.1275
16.706	62.0869
16.724	62.0515
16.742	62.0225
16.76	62.0012
16.778	61.9883
16.796	61.9847
16.814	61.99
16.832	62.0042
16.85	62.0262
16.868	62.0548
16.886	62.0886
16.904	62.1252
16.922	62.1633
16.94	62.2007
16.958	62.2356
16.976	62.2671
16.994	62.2938
17.012	62.3155
17.03	62.3319
17.048	62.3432
17.066	62.3498
17.084	62.3521
17.102	62.3508
17.12	62.346
17.138	62.3382
17.156	62.3272
17.174	62.3132
17.192	62.2958
17.21	62.2749
17.228	62.2504
17.246	62.2225
17.264	62.1912
17.282	62.1578
17.3	62.1227
17.318	62.0875
17.336	62.0539
17.354	62.0228
17.372	61.9964
17.39	61.9753
17.408	61.961
17.426	61.9535
17.444	61.9531
17.462	61.9593
17.48	61.9718
17.498	61.9892
17.516	62.0105
17.534	62.0348
17.552	62.0608
17.57	62.088
17.588	62.1153
17.606	62.1425
17.624	62.1688
17.642	62.1941
17.66	62.218
17.678	62.2399
17.696	62.2597
17.714	62.2764
17.732	62.2897
17.75	62.2988
17.768	62.3028
17.786	62.3014
17.804	62.2934
17.822	62.2788
17.84	62.2569
17.858	62.2283
17.876	62.1933
17.894	62.1533
17.912	62.1087
17.93	62.0622
17.948	62.0142
17.966	61.968
17.984	61.9244
18.002	61.8863
18.02	61.8548
18.038	61.8316
18.056	61.8175
18.074	61.8132
18.092	61.8187
18.11	61.8338
18.128	61.8574
18.146	61.8887
18.164	61.926
18.182	61.9678
18.2	62.0124
18.218	62.0578
18.236	62.1029
18.254	62.1455
18.272	62.1852
18.29	62.2201
18.308	62.2502
18.326	62.2748
18.344	62.294
18.362	62.3079
18.38	62.3169
18.398	62.3215
18.416	62.3224
18.434	62.3205
18.452	62.3162
18.47	62.3101
18.488	62.3024
18.506	62.2935
18.524	62.2828
18.542	62.2702
18.56	62.2551
18.578	62.2374
18.596	62.2157
18.614	62.1899
18.632	62.1588
18.65	62.1223
18.668	62.0792
18.686	62.0298
18.704	61.9738
18.722	61.9114
18.74	61.8429
18.758	61.7688
18.776	61.6901
18.794	61.6074
18.812	61.5221
18.83	61.4347
18.848	61.3468
18.866	61.259
18.884	61.1728
18.902	61.0886
18.92	61.0077
18.938	60.9306
18.956	60.8581
18.974	60.7908
18.992	60.7292
19.01	60.6736
19.028	60.6244
19.046	60.5816
19.064	60.5456
19.082	60.516
19.1	60.4928
19.118	60.4759
19.136	60.4649
19.154	60.4594
19.172	60.4584
19.19	60.4615
19.208	60.4676
19.226	60.4762
19.244	60.4856
19.262	60.4956
19.28	60.5047
19.298	60.513
19.316	60.5191
19.334	60.5234
19.352	60.5256
19.37	60.5258
19.388	60.525
19.406	60.523
19.424	60.5218
19.442	60.5213
19.46	60.5237
19.478	60.5293
19.496	60.5395
19.514	60.5549
19.532	60.576
19.55	60.6033
19.568	60.6363
19.586	60.6748
19.604	60.7178
19.622	60.764
19.64	60.813
19.658	60.8615
19.676	60.9097
19.694	60.9537
19.712	60.994
19.73	61.0269
19.748	61.0525
19.766	61.069
19.784	61.0755
19.802	61.0723
19.82	61.0588
19.838	61.036
19.856	61.0047
19.874	60.9657
19.892	60.9221
19.91	60.8736
19.928	60.8251
19.946	60.7758
19.964	60.7306
19.982	60.6897
20	60.6558
20.018	60.6308
20.036	60.615
20.054	60.6104
20.072	60.6164
20.09	60.6333
20.108	60.661
20.126	60.6977
20.144	60.7439
20.162	60.7967
20.18	60.8555
20.198	60.9188
20.216	60.9842
20.234	61.0519
20.252	61.1186
20.27	61.1849
20.288	61.249
20.306	61.3108
20.324	61.3699
20.342	61.4258
20.36	61.4788
20.378	61.5289
20.396	61.576
20.414	61.6201
20.432	61.6615
20.45	61.6998
20.468	61.7352
20.486	61.7673
20.504	61.7952
20.522	61.819
20.54	61.8369
20.558	61.8493
20.576	61.8544
20.594	61.8514
20.612	61.84
20.63	61.8189
20.648	61.7884
20.666	61.7478
20.684	61.6967
20.702	61.6364
20.72	61.567
20.738	61.4891
20.756	61.405
20.774	61.3141
20.792	61.2199
20.81	61.1227
20.828	61.0241
20.846	60.9271
20.864	60.831
20.882	60.7394
20.9	60.6519
20.918	60.57
20.936	60.4949
20.954	60.426
20.972	60.364
20.99	60.3089
21.008	60.2597
21.026	60.2165
21.044	60.1788
21.062	60.1451
21.08	60.116
21.098	60.0896
21.116	60.0658
21.134	60.0442
21.152	60.0236
21.17	60.0042
21.188	59.9857
21.206	59.9677
21.224	59.9506
21.242	59.9349
21.26	59.9203
21.278	59.9075
21.296	59.8966
21.314	59.8876
21.332	59.8814
21.35	59.8777
21.368	59.8771
21.386	59.8798
21.404	59.8859
21.422	59.8962
21.44	59.9104
21.458	59.9286
21.476	59.9508
21.494	59.977
21.512	60.0068
21.53	60.0402
21.548	60.0774
21.566	60.1185
21.584	60.1634
21.602	60.2121
21.62	60.2646
21.638	60.3208
21.656	60.3804
21.674	60.4436
21.692	60.5092
21.71	60.5772
21.728	60.6473
21.746	60.718
21.764	60.7902
21.782	60.8619
21.8	60.9319
21.818	61.0006
21.836	61.0646
21.854	61.1243
21.872	61.1784
21.89	61.2236
21.908	61.2611
21.926	61.2886
21.944	61.3047
21.962	61.3101
21.98	61.303
21.998	61.2831
22.016	61.2509
22.034	61.2066
22.052	61.1498
22.07	61.0823
22.088	61.0049
22.106	60.9172
22.124	60.8227
22.142	60.7213
22.16	60.614
22.178	60.505
22.196	60.3929
22.214	60.2804
22.232	60.1714
22.25	60.0643
22.268	59.9618
22.286	59.8659
22.304	59.7755
22.322	59.6921
22.34	59.6162
22.358	59.5473
22.376	59.4848
22.394	59.4293
22.412	59.3797
22.43	59.3342
22.448	59.2942
22.466	59.2565
22.484	59.2191
22.502	59.1834
22.52	59.1452
22.538	59.103
22.556	59.0575
22.574	59.0049
22.592	58.9446
22.61	58.8768
22.628	58.7986
22.646	58.7104
22.664	58.6119
22.682	58.5018
22.7	58.3802
22.718	58.2476
22.736	58.1041
22.754	57.9492
22.772	57.7848
22.79	57.6123
22.808	57.4306
22.826	57.2427
22.844	57.0504
22.862	56.8523
22.88	56.6521
22.898	56.4511
22.916	56.2484
22.934	56.0471
22.952	55.8479
22.97	55.6504
22.988	55.4567
23.006	55.2674
23.024	55.0822
23.042	54.9018
23.06	54.7269
23.078	54.5569
23.096	54.3913
23.114	54.2302
23.132	54.0733
23.15	53.9197
23.168	53.7695
23.186	53.6225
23.204	53.478
23.222	53.3355
23.24	53.1957
23.258	53.0587
23.276	52.9249
23.294	52.7939
23.312	52.6656
23.33	52.539
23.348	52.4153
23.366	52.2971
23.384	52.1831
23.402	52.0746
23.42	51.9763
23.438	51.887
23.456	51.8076
23.474	51.7442
23.492	51.697
23.51	51.6655
23.528	51.6542
23.546	51.6636
23.564	51.6929
23.582	51.746
23.6	51.8243
23.618	51.9263
23.636	52.054
23.654	52.2089
23.672	52.3901
23.69	52.596
23.708	52.8262
23.726	53.0822
23.744	53.3585
23.762	53.651
23.78	53.9635
23.798	54.2898
23.816	54.6228
23.834	54.9671
23.852	55.3174
23.87	55.6653
23.888	56.0142
23.906	56.3613
23.924	56.6976
23.942	57.0235
23.96	57.3397
23.978	57.6389
23.996	57.9186
24.014	58.1816
24.032	58.4244
24.05	58.6445
24.068	58.8434
24.086	59.0215
24.104	59.1787
24.122	59.3133
24.14	59.4292
24.158	59.5311
24.176	59.6161
24.194	59.6868
24.212	59.7504
24.23	59.8076
24.248	59.8568
24.266	59.9033
24.284	59.9504
24.302	59.9953
24.32	60.0405
24.338	60.0884
24.356	60.1383
24.374	60.1899
24.392	60.2441
24.41	60.3011
24.428	60.3605
24.446	60.4213
24.464	60.4841
24.482	60.5494
24.5	60.6129
24.518	60.671
24.536	60.7256
24.554	60.776
24.572	60.8206
24.59	60.8585
24.608	60.8909
24.626	60.9202
24.644	60.9455
24.662	60.965
24.68	60.9873
24.698	61.02
24.716	61.0555
24.734	61.1015
24.752	61.1708
24.77	61.2611
24.788	61.3704
24.806	61.5154
24.824	61.7066
24.842	61.9325
24.86	62.205
24.878	62.5393
24.896	62.9311
24.914	63.38
24.932	63.8959
24.95	64.4854
24.968	65.1436
24.986	65.8696
25.004	66.6632
25.022	67.529
25.04	68.461
25.058	69.4488
25.076	70.4912
25.094	71.5955
25.112	72.7421
25.13	73.912
25.148	75.1189
25.166	76.3541
25.184	77.5938
25.202	78.8288
25.22	80.0737
25.238	81.3091
25.256	82.5145
25.274	83.6992
25.292	84.8611
25.31	85.9842
25.328	87.0592
25.346	88.0962
25.364	89.088
25.382	90.0257
25.4	90.9076
25.418	91.7381
25.436	92.5191
25.454	93.2513
25.472	93.9301
25.49	94.5635
25.508	95.1609
25.526	95.7228
25.544	96.2449
25.562	96.7381
25.58	97.2131
25.598	97.6651
25.616	98.0948
25.634	98.5081
25.652	98.91
25.67	99.2991
25.688	99.6714
25.706	100.023
25.724	100.36
25.742	100.681
25.76	100.971
25.778	101.215
25.796	101.429
25.814	101.604
25.832	101.715
25.85	101.749
25.868	101.728
25.886	101.631
25.904	101.432
25.922	101.127
25.94	100.731
25.958	100.224
25.976	99.5868
25.994	98.823
26.012	97.9379
26.03	96.9241
26.048	95.774
26.066	94.4848
26.084	93.0663
26.102	91.5301
26.12	89.8799
26.138	88.0998
26.156	86.214
26.174	84.2514
26.192	82.2141
26.21	80.08
26.228	77.891
26.246	75.6912
26.264	73.4713
26.282	71.2154
26.3	68.9711
26.318	66.7846
26.336	64.6318
26.354	62.5113
26.372	60.4655
26.39	58.5328
26.408	56.6884
26.426	54.9357
26.444	53.3007
26.462	51.8064
26.48	50.4416
26.498	49.2017
26.516	48.0876
26.534	47.1024
26.552	46.2524
26.57	45.5243
26.588	44.9018
26.606	44.3776
26.624	43.9706
26.642	43.6594
26.66	43.4178
26.678	43.2332
26.696	43.1294
26.714	43.0848
26.732	43.0736
26.75	43.086
26.768	43.1468
26.786	43.2301
26.804	43.3061
26.822	43.3571
26.84	43.4019
26.858	43.4386
26.876	43.4631
26.894	43.4679
26.912	43.4486
26.93	43.4244
26.948	43.4158
26.966	43.441
26.984	43.4955
27.002	43.5589
27.02	43.6107
27.028	43.6233