File: Bakgrunnsmateriale/MATLAB/FTIR/ftir_data/subBb/Mapping_121/C-4040-8_t119_cm-1.asc
PE IR       SPECTRUM    SPECTRUM    ASCII       PEDS        1.60
  -1
C-4E09~1.ASC
17/03/28
00:31:10.00
17/03/28
00:31:10.00
tln
$C-4040-8_t0119$<tbV0>[-7.8,13.0,8.0,0.0,27,1,0]
370
64

2002,4.07
MIRTGS : RIGHTBACK : INTERNAL 2
MIR : ON : INTERNAL 2
OPTKBR

0.200000
8
8.000000
FILLER
RATIO
SPECTRUM
UNLOCKED 256

DOUBLE
64
COMBINED
1
0
0

1.000000
RATIO

1
0
TRUE
51149
0
LEFT NOT FITTED RIGHT NOT FITTED 0
NONE
NONE
15600
12
4.427000
51148
TRUE
1 0 8 72 0 0 0 0

15798

#HDR
-1
-1
#GR
CM-1
%T
2.38419e-05
0.0
5000
-1.000000
4631
8
72.9755
26.0785
#DATA
5000	64.6321
4996	64.5765
4992	64.4667
4988	64.7275
4984	65.3532
4980	65.6767
4976	65.4769
4972	65.0091
4968	64.766
4964	64.9372
4960	65.1975
4956	65.1748
4952	64.6107
4948	64.2213
4944	64.5391
4940	64.8031
4936	64.7684
4932	64.8276
4928	64.9113
4924	64.7874
4920	64.6542
4916	64.7466
4912	64.8617
4908	65.0462
4904	65.3867
4900	65.8861
4896	66.368
4892	66.3114
4888	65.6356
4884	64.7287
4880	64.3053
4876	64.4488
4872	64.5936
4868	64.6326
4864	64.8414
4860	65.1286
4856	65.1184
4852	64.9786
4848	64.9572
4844	64.8363
4840	64.6642
4836	64.6121
4832	64.4044
4828	64.3264
4824	64.5901
4820	64.6448
4816	64.5242
4812	64.6007
4808	64.7758
4804	64.9164
4800	64.9427
4796	64.7257
4792	64.5178
4788	64.5909
4784	64.6231
4780	64.5257
4776	64.6504
4772	64.8376
4768	64.891
4764	64.8942
4760	64.7844
4756	64.5919
4752	64.5612
4748	64.8032
4744	65.1
4740	65.1663
4736	64.8979
4732	64.5875
4728	64.5705
4724	64.7488
4720	65.0194
4716	65.2174
4712	65.2517
4708	65.2384
4704	64.9874
4700	64.7681
4696	64.7324
4692	64.4775
4688	64.4681
4684	64.6483
4680	64.4676
4676	64.322
4672	64.4462
4668	64.676
4664	64.8941
4660	65.0094
4656	64.9462
4652	64.7698
4648	64.6194
4644	64.5706
4640	64.5068
4636	64.4852
4632	64.6855
4628	64.8232
4624	64.7037
4620	64.3689
4616	64.1194
4612	64.3562
4608	64.7775
4604	64.9656
4600	64.9999
4596	64.9654
4592	64.8817
4588	64.8477
4584	65.0617
4580	65.4371
4576	65.5148
4572	65.1994
4568	64.9497
4564	65.0775
4560	65.2993
4556	65.4135
4552	65.3136
4548	65.1631
4544	65.2337
4540	65.4583
4536	65.5206
4532	65.088
4528	64.7151
4524	64.6764
4520	64.7332
4516	64.8605
4512	64.9061
4508	65.0172
4504	65.1225
4500	65.0902
4496	65.2666
4492	65.4601
4488	65.2645
4484	64.9869
4480	65.0602
4476	65.188
4472	65.2247
4468	65.4876
4464	65.797
4460	66.045
4456	66.2186
4452	66.1282
4448	65.8211
4444	65.4396
4440	65.1351
4436	65.0607
4432	64.654
4428	64.5881
4424	65.6245
4420	66.9028
4416	67.1815
4412	67.0567
4408	66.0302
4404	63.0032
4400	55.2338
4396	45.8634
4392	49.0635
4388	59.3455
4384	63.2132
4380	64.7639
4376	66.5357
4372	66.7941
4368	67.0331
4364	66.6669
4360	66.2747
4356	66.177
4352	66.0945
4348	65.9554
4344	65.7059
4340	65.4931
4336	65.4755
4332	65.4352
4328	65.415
4324	65.4707
4320	65.4253
4316	65.43
4312	65.4583
4308	65.4344
4304	65.5117
4300	65.39
4296	65.0847
4292	65.0043
4288	65.2222
4284	65.4747
4280	65.5342
4276	65.454
4272	65.2563
4268	65.077
4264	65
4260	64.9312
4256	64.9957
4252	65.2327
4248	65.3062
4244	65.15
4240	65.1072
4236	65.2034
4232	65.2839
4228	65.3111
4224	65.2499
4220	65.273
4216	65.4745
4212	65.5501
4208	65.3441
4204	65.0446
4200	64.8564
4196	64.9136
4192	64.9801
4188	64.5684
4184	64.1171
4180	64.469
4176	65.067
4172	64.9565
4168	64.4739
4164	64.4385
4160	64.8337
4156	64.9653
4152	64.8542
4148	64.8554
4144	64.794
4140	64.7304
4136	64.8514
4132	64.9601
4128	64.995
4124	65.0831
4120	65.0675
4116	64.8922
4112	64.7869
4108	64.8548
4104	64.9436
4100	64.9233
4096	64.957
4092	65.0774
4088	65.115
4084	65.0766
4080	65.0514
4076	65.1756
4072	65.398
4068	65.4221
4064	65.2318
4060	65.0087
4056	64.8206
4052	64.7046
4048	64.6931
4044	64.7497
4040	64.8389
4036	64.9625
4032	64.9568
4028	64.7955
4024	64.7606
4020	64.871
4016	64.9124
4012	64.8875
4008	64.9812
4004	65.1439
4000	65.1156
3996	64.9767
3992	65.0034
3988	65.1401
3984	65.1228
3980	65.039
3976	65.0489
3972	64.9604
3968	64.8562
3964	64.9055
3960	65.0264
3956	65.1862
3952	65.2536
3948	65.2604
3944	65.3186
3940	65.3321
3936	65.2527
3932	65.097
3928	65.0354
3924	65.1514
3920	65.1831
3916	65.0309
3912	64.8937
3908	65.0368
3904	65.2836
3900	65.2044
3896	65.1077
3892	65.244
3888	65.2789
3884	65.1536
3880	64.9841
3876	64.8809
3872	64.9663
3868	65.0014
3864	64.8693
3860	64.8309
3856	64.952
3852	65.0744
3848	65.1212
3844	65.1375
3840	65.0458
3836	64.9263
3832	64.9925
3828	65.0301
3824	64.9626
3820	64.9509
3816	64.9653
3812	64.9981
3808	65.0459
3804	65.123
3800	65.169
3796	65.1768
3792	65.309
3788	65.5103
3784	65.47
3780	65.1871
3776	65.0378
3772	65.0621
3768	65.0933
3764	65.175
3760	65.2188
3756	65.1332
3752	65.0401
3748	65.0847
3744	65.1934
3740	65.1538
3736	65.1125
3732	65.2245
3728	65.251
3724	65.137
3720	65.082
3716	65.0591
3712	65.0639
3708	65.1227
3704	65.1401
3700	65.1842
3696	65.2434
3692	65.223
3688	65.1477
3684	65.0657
3680	65.0404
3676	65.0404
3672	65.0126
3668	64.9889
3664	64.9892
3660	65.0519
3656	65.1134
3652	65.0345
3648	64.8846
3644	64.8587
3640	65.0559
3636	65.2487
3632	65.2279
3628	65.188
3624	65.155
3620	65.0503
3616	64.9682
3612	64.9476
3608	64.9858
3604	64.9307
3600	64.8433
3596	64.8877
3592	64.928
3588	64.8823
3584	64.8133
3580	64.9187
3576	65.0356
3572	64.9081
3568	64.7909
3564	64.8493
3560	65.0011
3556	65.0873
3552	65.1045
3548	65.0936
3544	65.0183
3540	65.0015
3536	65.0469
3532	64.9959
3528	64.8959
3524	64.9775
3520	65.1259
3516	65.0645
3512	64.9228
3508	64.9127
3504	64.995
3500	65.1083
3496	65.1405
3492	65.0513
3488	65.0228
3484	65.0045
3480	64.8575
3476	64.8111
3472	65.0216
3468	65.1971
3464	65.1036
3460	64.9165
3456	64.8653
3452	64.9239
3448	65.0436
3444	65.1803
3440	65.2221
3436	65.1798
3432	65.1382
3428	65.1443
3424	65.106
3420	64.9887
3416	64.9444
3412	65.0268
3408	65.1607
3404	65.2285
3400	65.1857
3396	65.0691
3392	64.9637
3388	64.9856
3384	65.0603
3380	65.1121
3376	65.1528
3372	65.1839
3368	65.2159
3364	65.1361
3360	64.9861
3356	64.8963
3352	64.8519
3348	64.909
3344	65.0438
3340	65.102
3336	64.9997
3332	64.8601
3328	64.8505
3324	64.8652
3320	64.8512
3316	64.9693
3312	65.0681
3308	64.9593
3304	64.8731
3300	64.93
3296	65.011
3292	65.0903
3288	65.141
3284	65.1144
3280	65.0381
3276	64.9672
3272	64.9493
3268	64.9446
3264	64.9992
3260	65.1698
3256	65.279
3252	65.224
3248	65.0625
3244	64.8671
3240	64.8515
3236	64.9839
3232	65.0741
3228	65.1983
3224	65.2756
3220	65.2155
3216	65.1348
3212	65.1011
3208	65.0222
3204	64.8977
3200	64.918
3196	65.0058
3192	64.9868
3188	64.9501
3184	64.9451
3180	64.9831
3176	65.0588
3172	65.0083
3168	64.8746
3164	64.863
3160	64.9041
3156	64.892
3152	64.8929
3148	64.9204
3144	64.9151
3140	64.842
3136	64.6761
3132	64.6593
3128	65.0039
3124	65.3347
3120	65.4075
3116	65.361
3112	65.2681
3108	65.1899
3104	65.1756
3100	65.201
3096	65.2287
3092	65.2663
3088	65.2345
3084	65.1274
3080	65.0843
3076	65.0708
3072	65.0483
3068	65.0477
3064	65.0262
3060	64.996
3056	65.0106
3052	65.0694
3048	65.0992
3044	65.0838
3040	65.0661
3036	65.0557
3032	65.0626
3028	65.1122
3024	65.1946
3020	65.1936
3016	65.1011
3012	65.0474
3008	65.1384
3004	65.2806
3000	65.3117
2996	65.3235
2992	65.3074
2988	65.1873
2984	65.0545
2980	64.9877
2976	65.0692
2972	65.158
2968	65.0528
2964	64.871
2960	64.7953
2956	64.8563
2952	64.9373
2948	64.9253
2944	64.809
2940	64.6572
2936	64.6784
2932	64.8643
2928	64.9184
2924	64.8101
2920	64.7324
2916	64.7193
2912	64.7865
2908	64.9417
2904	65.0179
2900	64.9758
2896	64.9218
2892	64.8868
2888	64.878
2884	64.9116
2880	64.9831
2876	65.064
2872	65.1133
2868	65.0981
2864	65.0568
2860	64.9695
2856	64.8295
2852	64.7863
2848	64.8374
2844	64.9185
2840	65.0208
2836	65.0823
2832	65.1076
2828	65.0944
2824	65.0063
2820	64.9163
2816	64.9135
2812	64.9806
2808	65.0497
2804	65.077
2800	65.0625
2796	65.0216
2792	65.0159
2788	65.1031
2784	65.1765
2780	65.1543
2776	65.0817
2772	64.9956
2768	64.9802
2764	65.0492
2760	65.1069
2756	65.0934
2752	64.9918
2748	64.9235
2744	64.9618
2740	64.9816
2736	64.9791
2732	64.9983
2728	65.0142
2724	65.0162
2720	65.0118
2716	65.0369
2712	65.0443
2708	65.0105
2704	65.0299
2700	65.0755
2696	65.0243
2692	64.9231
2688	64.9316
2684	65.0539
2680	65.1678
2676	65.166
2672	65.0841
2668	65.081
2664	65.0933
2660	65.035
2656	65.0334
2652	65.0572
2648	65.0374
2644	65.0561
2640	65.0964
2636	65.0789
2632	64.9846
2628	64.9187
2624	64.9717
2620	65.0646
2616	65.1132
2612	65.1065
2608	65.0981
2604	65.1192
2600	65.1195
2596	65.1106
2592	65.1047
2588	65.0771
2584	65.0997
2580	65.1102
2576	65.0614
2572	65.0745
2568	65.1028
2564	65.0974
2560	65.1183
2556	65.1776
2552	65.2863
2548	65.3144
2544	65.234
2540	65.1943
2536	65.1303
2532	65.0121
2528	65.0689
2524	65.225
2520	65.1788
2516	65.0921
2512	65.0897
2508	65.0745
2504	65.1387
2500	65.2936
2496	65.3665
2492	65.2549
2488	65.1602
2484	65.2302
2480	65.2943
2476	65.2638
2472	65.2144
2468	65.1612
2464	65.0892
2460	65.1004
2456	65.1432
2452	65.1094
2448	65.0968
2444	65.0756
2440	65.0651
2436	65.1963
2432	65.308
2428	65.2713
2424	65.1625
2420	65.2397
2416	65.533
2412	65.6028
2408	65.3648
2404	65.0512
2400	64.9358
2396	65.0625
2392	65.1302
2388	65.0998
2384	65.113
2380	65.1558
2376	65.1957
2372	65.2483
2368	65.2855
2364	65.2829
2360	65.2021
2356	65.1191
2352	65.1825
2348	65.2336
2344	65.1667
2340	65.1103
2336	65.098
2332	65.1579
2328	65.2302
2324	65.2065
2320	65.1344
2316	65.0965
2312	65.0903
2308	65.1327
2304	65.2366
2300	65.2354
2296	65.1187
2292	65.106
2288	65.16
2284	65.1276
2280	65.0271
2276	64.9549
2272	65.0135
2268	65.1475
2264	65.2177
2260	65.1707
2256	65.094
2252	65.0949
2248	65.1194
2244	65.1297
2240	65.0924
2236	64.9983
2232	64.9513
2228	64.9304
2224	64.9258
2220	65.0286
2216	65.1286
2212	65.1452
2208	65.1931
2204	65.2447
2200	65.2123
2196	65.1797
2192	65.1981
2188	65.1978
2184	65.1591
2180	65.1344
2176	65.0952
2172	65.0686
2168	65.1919
2164	65.3418
2160	65.2994
2156	65.1657
2152	65.1965
2148	65.3266
2144	65.3267
2140	65.1786
2136	65.0198
2132	64.9938
2128	65.043
2124	65.0557
2120	65.0669
2116	65.1067
2112	65.1914
2108	65.256
2104	65.2354
2100	65.203
2096	65.1246
2092	65.062
2088	65.071
2084	64.8722
2080	64.5424
2076	64.6241
2072	65.2356
2068	65.8008
2064	65.7964
2060	65.4038
2056	65.1219
2052	65.0053
2048	64.9324
2044	64.9949
2040	65.1049
2036	65.1412
2032	65.1741
2028	65.2046
2024	65.192
2020	65.2007
2016	65.2366
2012	65.2015
2008	65.1433
2004	65.1082
2000	65.0195
1996	64.9276
1992	64.9804
1988	65.1259
1984	65.2163
1980	65.2653
1976	65.2513
1972	65.127
1968	65.042
1964	65.0643
1960	65.1093
1956	65.1389
1952	65.1074
1948	65.0403
1944	65.0302
1940	65.045
1936	65.0418
1932	65.0209
1928	65.0042
1924	65.0423
1920	65.0863
1916	65.1185
1912	65.154
1908	65.1195
1904	65.0594
1900	65.0684
1896	65.0972
1892	65.0932
1888	65.0644
1884	65.0754
1880	65.1621
1876	65.1802
1872	65.0637
1868	64.901
1864	64.8078
1860	64.8698
1856	64.9911
1852	65.0534
1848	65.0454
1844	64.9775
1840	64.9001
1836	64.9276
1832	65.0227
1828	65.059
1824	65.1009
1820	65.1198
1816	64.9683
1812	64.7793
1808	64.7851
1804	64.9494
1800	65.0616
1796	64.9895
1792	64.8625
1788	64.8392
1784	64.8962
1780	64.9809
1776	65.0467
1772	65.0494
1768	65.0262
1764	65.0307
1760	64.9923
1756	64.9326
1752	64.967
1748	65.0031
1744	64.9742
1740	64.917
1736	64.7763
1732	64.5931
1728	64.6066
1724	64.8533
1720	65.0568
1716	65.0752
1712	65.0079
1708	64.9517
1704	64.9522
1700	64.9861
1696	65.019
1692	65.0366
1688	64.9604
1684	64.885
1680	64.9493
1676	64.9979
1672	64.9094
1668	64.8187
1664	64.8378
1660	64.8974
1656	64.9158
1652	64.925
1648	64.8974
1644	64.8482
1640	64.9131
1636	64.9926
1632	64.9393
1628	64.8648
1624	64.8453
1620	64.8221
1616	64.8221
1612	64.8829
1608	64.8983
1604	64.8577
1600	64.8517
1596	64.8596
1592	64.8589
1588	64.8577
1584	64.8464
1580	64.8494
1576	64.8701
1572	64.8675
1568	64.8364
1564	64.83
1560	64.8714
1556	64.8617
1552	64.8087
1548	64.8125
1544	64.8755
1540	64.9038
1536	64.8706
1532	64.8801
1528	64.9077
1524	64.9033
1520	64.8658
1516	64.8446
1512	64.8923
1508	64.9137
1504	64.9191
1500	64.9532
1496	64.9722
1492	65.004
1488	65.0142
1484	64.9976
1480	65.0301
1476	65.045
1472	65.0027
1468	64.9971
1464	64.9508
1460	64.7782
1456	64.714
1452	64.8734
1448	65.0157
1444	64.9837
1440	64.835
1436	64.7732
1432	64.8763
1428	64.9243
1424	64.8695
1420	64.8382
1416	64.7945
1412	64.7406
1408	64.7379
1404	64.7055
1400	64.6215
1396	64.6413
1392	64.7763
1388	64.8714
1384	64.846
1380	64.7119
1376	64.5797
1372	64.6181
1368	64.7783
1364	64.8757
1360	64.8885
1356	64.8235
1352	64.7706
1348	64.7604
1344	64.7109
1340	64.7272
1336	64.8255
1332	64.9343
1328	64.9511
1324	64.858
1320	64.8384
1316	64.8293
1312	64.7601
1308	64.716
1304	64.6715
1300	64.679
1296	64.7393
1292	64.7044
1288	64.6156
1284	64.6405
1280	64.7293
1276	64.6861
1272	64.5587
1268	64.5839
1264	64.7416
1260	64.8567
1256	64.8488
1252	64.7613
1248	64.6831
1244	64.631
1240	64.6228
1236	64.6147
1232	64.5979
1228	64.6247
1224	64.6343
1220	64.5907
1216	64.5909
1212	64.6603
1208	64.7003
1204	64.7247
1200	64.7486
1196	64.6566
1192	64.5233
1188	64.6011
1184	64.7733
1180	64.7312
1176	64.5824
1172	64.5497
1168	64.5841
1164	64.5867
1160	64.5189
1156	64.4403
1152	64.4537
1148	64.558
1144	64.6681
1140	64.6912
1136	64.6547
1132	64.6014
1128	64.517
1124	64.473
1120	64.5068
1116	64.5623
1112	64.5964
1108	64.6731
1104	64.8147
1100	64.6765
1096	64.3445
1092	64.3916
1088	64.5657
1084	64.4241
1080	64.2454
1076	64.3394
1072	64.5037
1068	64.4756
1064	64.3304
1060	64.2549
1056	64.2641
1052	64.2719
1048	64.4005
1044	64.5466
1040	64.5262
1036	64.5094
1032	64.473
1028	64.3148
1024	64.2301
1020	64.2393
1016	64.2087
1012	64.2771
1008	64.3399
1004	64.2554
1000	64.1944
996	 64.2866
992	 64.4741
988	 64.5604
984	 64.4887
980	 64.3066
976	 64.1546
972	 64.199
968	 64.2977
964	 64.2564
960	 64.2366
956	 64.311
952	 64.3436
948	 64.3315
944	 64.224
940	 64.0125
936	 63.9856
932	 64.1978
928	 64.299
924	 64.2046
920	 64.1553
916	 64.2545
912	 64.3842
908	 64.4706
904	 64.4206
900	 64.1495
896	 64.0186
892	 64.0141
888	 63.8573
884	 63.7653
880	 63.8366
876	 63.8825
872	 63.5979
868	 63.3273
864	 63.5132
860	 63.6355
856	 63.5267
852	 63.605
848	 63.6798
844	 63.5935
840	 63.7168
836	 63.8123
832	 63.3711
828	 63.0996
824	 63.7885
820	 64.5902
816	 64.6468
812	 64.0462
808	 63.3648
804	 63.1995
800	 63.314
796	 63.4103
792	 63.4374
788	 63.4118
784	 63.4737
780	 63.5072
776	 63.4408
772	 63.5216
768	 63.5692
764	 63.2725
760	 63.0455
756	 63.132
752	 63.329
748	 63.6459
744	 63.8994
740	 63.8215
736	 63.6146
732	 63.3141
728	 63.0027
724	 62.9928
720	 63.0526
716	 62.8169
712	 62.5155
708	 62.4917
704	 62.5785
700	 62.6233
696	 62.6765
692	 62.8029
688	 62.8481
684	 62.5045
680	 62.1777
676	 62.2733
672	 62.5111
668	 62.7486
664	 62.7712
660	 62.3318
656	 61.8731
652	 61.8159
648	 61.9131
644	 61.9183
640	 61.8897
636	 61.7764
632	 61.5655
628	 61.5265
624	 61.7464
620	 61.8579
616	 61.7356
612	 61.5648
608	 61.5825
604	 61.7354
600	 61.597
596	 61.3595
592	 61.2549
588	 61.1745
584	 61.1043
580	 60.9608
576	 60.8216
572	 60.7692
568	 60.7409
564	 60.7311
560	 60.7645
556	 60.7987
552	 60.7054
548	 60.4529
544	 60.5966
540	 60.9767
536	 60.8147
532	 60.4644
528	 60.3885
524	 60.4429
520	 60.1047
516	 59.3459
512	 59.0456
508	 59.078
504	 59.2095
500	 59.4678
496	 59.252
492	 59.2107
488	 59.9503
484	 60.4742
480	 60.1398
476	 59.3282
472	 58.8699
468	 58.981
464	 59.6735
460	 60.2868
456	 59.6138
452	 58.1807
448	 57.1947
444	 57.4719
440	 58.3025
436	 58.3756
432	 57.5495
428	 56.6963
424	 57.3535
420	 58.7239
416	 59.6075
412	 62.308
408	 64.0042
404	 65.2435
400	 72.4298
396	 64.6306
392	 40.0716
388	 26.7378
384	 30.7391
380	 46.3267
376	 49.7149
372	 42.0341
370	 40.7348