File: Bakgrunnsmateriale/MATLAB/FTIR/ftir_data/subBb/Mapping_121/C-4040-8_t96.asc
PE IR       SPECTRUM    SPECTRUM    ASCII       PEDS        1.60
  -1
C-B942~1.ASC
17/03/27
22:23:43.00
17/03/27
22:24:09.00
tln
$C-4040-8_t0096$<tbV0>[-5.2,7.8,8.0,0.0,27,1,0]
27.028
64

2002,4.07
MIRTGS : RIGHTBACK : INTERNAL 2
MIR : ON : INTERNAL 2
OPTKBR

0.200000
8
8.000000
FILLER
RATIO
SPECTRUM
UNLOCKED 256

DOUBLE
64
COMBINED
1
0
0

0.002000
RATIO

1
0
TRUE
51149
0
LEFT NOT FITTED RIGHT NOT FITTED 0
NONE
NONE
15600
12
4.427000
51148
TRUE
1 0 8 72 0 0 0 0

15798

#HDR
-1
-1
#GR
µM
%T
2.38419e-05
0.0
2.000000
0.002000
12515
8
115.538
48.9121
#DATA
2.000000	 65.5339
2.018000	 65.4213
2.036000	 64.8875
2.054000	 65.076
2.072000	 64.7698
2.090000	 65.0069
2.108000	 64.9683
2.126000	 65.2524
2.144000	 65.3137
2.162000	 65.5205
2.180000	 65.3948
2.198000	 65.7869
2.216000	 65.6379
2.234000	 65.1953
2.252000	 64.2079
2.270000	 65.9239
2.288000	 63.9096
2.306000	 64.7584
2.324000	 64.7049
2.342000	 65.1274
2.360000	 64.9327
2.378000	 65.0414
2.396000	 64.193
2.414000	 65.0927
2.432000	 65.3454
2.450000	 65.0949
2.468000	 64.9826
2.486000	 65.4882
2.504000	 65.1777
2.522000	 65.3208
2.540000	 65.0633
2.558000	 65.2705
2.576000	 65.0263
2.594000	 64.9894
2.612000	 64.7664
2.630000	 64.881
2.648000	 65.307
2.666000	 65.2254
2.684000	 65.35
2.702000	 65.2523
2.720000	 65.1592
2.738000	 65.0169
2.756000	 65.2556
2.774000	 65.2126
2.792000	 65.4369
2.810000	 65.1468
2.828000	 65.0418
2.846000	 65.33
2.864000	 65.1231
2.882000	 65.2757
2.900000	 65.1204
2.918000	 65.2416
2.936000	 65.1741
2.954000	 65.3771
2.972000	 65.1349
2.990000	 65.3901
3.008000	 65.2699
3.026000	 65.244
3.044000	 64.9011
3.062000	 65.369
3.080000	 64.9884
3.098000	 65.2339
3.116000	 65.3509
3.134000	 64.9301
3.152000	 65.3624
3.170000	 65.3054
3.188000	 65.3023
3.206000	 64.9832
3.224000	 65.4059
3.242000	 65.2454
3.260000	 65.2887
3.278000	 65.1857
3.296000	 65.1478
3.314000	 65.364
3.332000	 65.2246
3.350000	 65.1499
3.368000	 65.2413
3.386000	 65.1641
3.404000	 65.1278
3.422000	 64.9111
3.440000	 64.9841
3.458000	 65.1817
3.476000	 65.2743
3.494000	 65.191
3.512000	 64.7973
3.530000	 65.3085
3.548000	 65.107
3.566000	 65.1361
3.584000	 65.416
3.602000	 65.3599
3.620000	 65.1998
3.638000	 65.3502
3.656000	 65.2135
3.674000	 65.3312
3.692000	 65.3611
3.710000	 65.2764
3.728000	 65.3095
3.746000	 65.4021
3.764000	 65.2052
3.782000	 65.3668
3.800000	 65.2237
3.818000	 65.2888
3.836000	 65.2107
3.854000	 65.2231
3.872000	 65.1876
3.890000	 65.2235
3.908000	 65.2715
3.926000	 65.3323
3.944000	 65.2761
3.962000	 65.2018
3.980000	 65.3131
3.998000	 65.3432
4.016000	 65.3868
4.034000	 65.4376
4.052000	 65.1298
4.070000	 65.26
4.088000	 65.3744
4.106000	 65.2337
4.124000	 64.9402
4.141999	 65.5749
4.160000	 65.2489
4.178000	 65.2952
4.196000	 65.3056
4.214000	 65.1979
4.232000	 65.3312
4.250000	 65.2996
4.268000	 65.2609
4.286000	 65.2859
4.304000	 65.346
4.322000	 65.4923
4.340000	 65.2884
4.358000	 65.2861
4.375999	 65.3421
4.394000	 65.3939
4.412000	 65.2504
4.430000	 65.2103
4.448000	 65.2748
4.466000	 65.181
4.484000	 65.2528
4.502000	 65.2735
4.520000	 65.3115
4.538000	 65.2857
4.556000	 65.3005
4.574000	 65.2868
4.592000	 65.267
4.609999	 65.3616
4.628000	 65.2678
4.646000	 65.4069
4.664000	 65.5135
4.682000	 65.5058
4.700000	 65.3381
4.718000	 65.3125
4.736000	 65.4536
4.754000	 65.3712
4.772000	 65.3003
4.790000	 65.171
4.808000	 64.9394
4.826000	 65.3824
4.843999	 65.6589
4.862000	 65.059
4.880000	 65.0487
4.898000	 65.2412
4.916000	 65.2873
4.934000	 65.1945
4.952000	 65.3358
4.970000	 65.3229
4.988000	 65.3733
5.006000	 65.3748
5.024000	 65.3547
5.042000	 65.3587
5.060000	 65.2293
5.077999	 65.3833
5.096000	 65.3368
5.114000	 65.2579
5.132000	 65.3084
5.150000	 65.3975
5.168000	 65.4395
5.186000	 65.4271
5.204000	 65.3765
5.222000	 65.3267
5.240000	 65.2068
5.258000	 65.3185
5.276000	 65.3619
5.294000	 65.4025
5.312000	 65.4047
5.330000	 65.3368
5.348000	 65.2663
5.366000	 65.3282
5.384000	 65.3684
5.402000	 65.3347
5.420000	 65.3978
5.438000	 65.4777
5.456000	 65.4487
5.474000	 65.491
5.492000	 65.4717
5.510000	 65.3126
5.528000	 65.3118
5.546000	 65.3413
5.564000	 65.1877
5.582000	 65.2191
5.600000	 65.2996
5.618000	 65.2463
5.636000	 65.2984
5.654000	 65.3383
5.672000	 65.3909
5.690000	 65.2854
5.708000	 65.1411
5.726000	 65.0982
5.744000	 65.11
5.762000	 65.0387
5.780000	 64.9553
5.798000	 64.9239
5.816000	 64.9686
5.834000	 65.1886
5.852000	 65.3509
5.870000	 65.3519
5.888000	 65.2977
5.906000	 65.287
5.923999	 65.2796
5.942000	 65.2228
5.960000	 65.2083
5.978000	 65.3074
5.996000	 65.286
6.014000	 65.2226
6.032000	 65.2102
6.050000	 65.1708
6.068000	 65.1854
6.086000	 65.2776
6.104000	 65.3635
6.122000	 65.3288
6.140000	 65.2347
6.158000	 65.1621
6.176000	 65.146
6.194000	 65.0899
6.212000	 65.0513
6.230000	 65.0758
6.248000	 65.08
6.266000	 65.0996
6.284000	 65.1447
6.302000	 65.1542
6.320000	 65.1642
6.338000	 65.1716
6.356000	 65.0794
6.374000	 65.01
6.392000	 64.9834
6.410000	 64.9462
6.428000	 64.9202
6.446000	 64.9699
6.464000	 65.0265
6.482000	 65.1165
6.500000	 65.2204
6.518000	 65.1912
6.536000	 65.1398
6.554000	 65.1524
6.572000	 65.1848
6.590000	 65.2348
6.608000	 65.2519
6.626000	 65.1767
6.644000	 65.1445
6.662000	 65.204
6.680000	 65.2248
6.698000	 65.134
6.716000	 64.9851
6.734000	 64.9272
6.752000	 65.0035
6.770000	 65.0923
6.788000	 65.1291
6.806000	 65.145
6.824000	 65.1955
6.842000	 65.2467
6.860000	 65.1904
6.878000	 65.0712
6.896000	 65.0541
6.914000	 65.2135
6.932000	 65.3769
6.950000	 65.3854
6.968000	 65.3096
6.986000	 65.2201
7.004000	 65.1498
7.022000	 65.0974
7.040000	 65.0322
7.058000	 65.0151
7.076000	 65.0877
7.094000	 65.1977
7.112000	 65.2573
7.130000	 65.2328
7.148000	 65.1835
7.166000	 65.1425
7.184000	 65.0978
7.202000	 65.072
7.220000	 65.0671
7.238000	 65.0336
7.256000	 64.9575
7.274000	 64.8946
7.292000	 64.8864
7.310000	 64.9162
7.328000	 64.9413
7.346000	 64.9649
7.364000	 65.0332
7.382000	 65.1447
7.400000	 65.2498
7.418000	 65.291
7.436000	 65.2132
7.454000	 65.0482
7.472000	 64.9209
7.490000	 64.8971
7.508000	 64.9339
7.526000	 64.9831
7.544000	 65.0407
7.562000	 65.0804
7.580000	 65.0409
7.598000	 64.9345
7.616000	 64.8669
7.634000	 64.8956
7.652000	 64.9827
7.670000	 65.0692
7.688000	 65.106
7.706000	 65.0797
7.724000	 65.0417
7.742000	 65.0323
7.760000	 65.0335
7.778000	 65.0445
7.796000	 65.0948
7.814000	 65.1644
7.832000	 65.1887
7.850000	 65.1215
7.868000	 64.9631
7.886000	 64.7877
7.904000	 64.7177
7.922000	 64.7942
7.940000	 64.9255
7.958000	 65.0089
7.976000	 65.0242
7.994000	 64.998
8.012000	 64.9619
8.030000	 64.9425
8.048000	 64.9463
8.065999	 64.9562
8.084000	 64.958
8.102000	 64.9523
8.120000	 64.9449
8.138000	 64.9472
8.155999	 64.9744
8.173999	 65.0252
8.192000	 65.0699
8.210000	 65.0776
8.228000	 65.0533
8.246000	 65.0342
8.263999	 65.0432
8.282000	 65.0649
8.300000	 65.0739
8.318000	 65.0687
8.336000	 65.0615
8.353999	 65.0452
8.372000	 65.0031
8.390000	 64.9489
8.408000	 64.9151
8.426000	 64.9093
8.443999	 64.9132
8.462000	 64.9105
8.480000	 64.894
8.498000	 64.8632
8.516000	 64.8296
8.533999	 64.8131
8.552000	 64.8163
8.570000	 64.8148
8.588000	 64.7882
8.606000	 64.7519
8.624000	 64.7418
8.641999	 64.7715
8.660000	 64.8132
8.678000	 64.8273
8.696000	 64.7995
8.714000	 64.7536
8.731999	 64.7299
8.750000	 64.7508
8.768000	 64.8028
8.786000	 64.8463
8.804000	 64.8469
8.821999	 64.8007
8.840000	 64.7394
8.858000	 64.707
8.876000	 64.7248
8.894000	 64.7735
8.911999	 64.8078
8.930000	 64.7985
8.948000	 64.7592
8.966000	 64.7341
8.984000	 64.7565
9.001999	 64.8147
9.020000	 64.8597
9.038000	 64.8422
9.056000	 64.7489
9.074000	 64.6043
9.092000	 64.4476
9.109999	 64.3178
9.128000	 64.2505
9.146000	 64.2693
9.164000	 64.3667
9.182000	 64.4994
9.199999	 64.609
9.218000	 64.6575
9.236000	 64.6477
9.254000	 64.6146
9.272000	 64.5971
9.289999	 64.6148
9.308000	 64.6621
9.326000	 64.7202
9.344000	 64.7715
9.362000	 64.8046
9.379999	 64.8109
9.398000	 64.7859
9.416000	 64.7361
9.434000	 64.6863
9.452000	 64.67
9.469999	 64.7079
9.488000	 64.7928
9.506000	 64.8914
9.524000	 64.9646
9.542000	 64.9888
9.560000	 64.964
9.577999	 64.9079
9.596000	 64.8451
9.614000	 64.8009
9.632000	 64.7941
9.650000	 64.8265
9.667999	 64.878
9.686000	 64.9187
9.704000	 64.9315
9.722000	 64.9215
9.740000	 64.9045
9.757999	 64.8846
9.776000	 64.8439
9.794000	 64.758
9.812000	 64.6226
9.830000	 64.4673
9.847999	 64.3415
9.866000	 64.2856
9.884000	 64.3077
9.902000	 64.3797
9.920000	 64.4544
9.937999	 64.4959
9.956000	 64.5008
9.974000	 64.493
9.992000	 64.5027
10.01	64.5429
10.028	64.6013
10.046	64.6543
10.064	64.6874
10.082	64.703
10.1	64.7114
10.118	64.7189
10.136	64.726
10.154	64.7353
10.172	64.7523
10.19	64.7751
10.208	64.7872
10.226	64.7645
10.244	64.6938
10.262	64.5934
10.28	64.506
10.298	64.4702
10.316	64.4916
10.334	64.5369
10.352	64.5612
10.37	64.5359
10.388	64.4694
10.406	64.3949
10.424	64.3491
10.442	64.3514
10.46	64.3954
10.478	64.4572
10.496	64.5116
10.514	64.5442
10.532	64.5561
10.55	64.5603
10.568	64.5674
10.586	64.5713
10.604	64.5469
10.622	64.4628
10.64	64.3056
10.658	64.098
10.676	63.9003
10.694	63.7783
10.712	63.7788
10.73	63.9054
10.748	64.1238
10.766	64.3806
10.784	64.6299
10.802	64.8402
10.82	64.9934
10.838	65.0732
10.856	65.0651
10.874	64.9651
10.892	64.7935
10.91	64.5981
10.928	64.4404
10.946	64.3732
10.964	64.4109
10.982	64.5228
11	64.6458
11.018	64.7112
11.036	64.6811
11.054	64.5612
11.072	64.3966
11.09	64.2505
11.108	64.1689
11.126	64.1693
11.144	64.238
11.162	64.3418
11.18	64.4519
11.198	64.5528
11.216	64.6426
11.234	64.7253
11.252	64.7996
11.27	64.8552
11.288	64.8754
11.306	64.8503
11.324	64.7844
11.342	64.6984
11.36	64.6212
11.378	64.5797
11.396	64.5833
11.414	64.6226
11.432	64.6757
11.45	64.7193
11.468	64.7366
11.486	64.7245
11.504	64.6905
11.522	64.6484
11.54	64.6107
11.558	64.5852
11.576	64.5739
11.594	64.5741
11.612	64.5805
11.63	64.5889
11.648	64.5973
11.666	64.6047
11.684	64.6112
11.702	64.6163
11.72	64.6173
11.738	64.6097
11.756	64.5886
11.774	64.5501
11.792	64.493
11.81	64.4192
11.828	64.3343
11.846	64.2457
11.864	64.1605
11.882	64.0852
11.9	64.0262
11.918	63.9893
11.936	63.9787
11.954	63.9951
11.972	64.0343
11.99	64.0865
12.008	64.1374
12.026	64.1718
12.044	64.1769
12.062	64.1476
12.08	64.0885
12.098	64.0118
12.116	63.9347
12.134	63.8734
12.152	63.8391
12.17	63.8346
12.188	63.8564
12.206	63.8955
12.224	63.9412
12.242	63.9837
12.26	64.0161
12.278	64.0353
12.296	64.042
12.314	64.04
12.332	64.0342
12.35	64.0274
12.368	64.0201
12.386	64.0112
12.404	63.9987
12.422	63.9821
12.44	63.9631
12.458	63.946
12.476	63.9366
12.494	63.94
12.512	63.9585
12.53	63.9909
12.548	64.0328
12.566	64.0778
12.584	64.119
12.602	64.1507
12.62	64.1697
12.638	64.1746
12.656	64.1655
12.674	64.1435
12.692	64.1111
12.71	64.0725
12.728	64.0338
12.746	64.0024
12.764	63.9847
12.782	63.9843
12.8	64
12.818	64.0262
12.836	64.0534
12.854	64.072
12.872	64.0748
12.89	64.0594
12.908	64.029
12.926	63.991
12.944	63.9546
12.962	63.928
12.98	63.9154
12.998	63.9158
13.016	63.9237
13.034	63.9322
13.052	63.9348
13.07	63.9282
13.088	63.9135
13.106	63.8957
13.124	63.8816
13.142	63.878
13.16	63.8889
13.178	63.9154
13.196	63.9542
13.214	64.0002
13.232	64.0476
13.25	64.0923
13.268	64.1327
13.286	64.1698
13.304	64.2069
13.322	64.2468
13.34	64.2908
13.358	64.3366
13.376	64.3779
13.394	64.4052
13.412	64.4081
13.43	64.3777
13.448	64.3091
13.466	64.2034
13.484	64.0682
13.502	63.9162
13.52	63.7635
13.538	63.6265
13.556	63.519
13.574	63.4496
13.592	63.4207
13.61	63.4284
13.628	63.4633
13.646	63.5131
13.664	63.5649
13.682	63.607
13.7	63.6316
13.718	63.6353
13.736	63.6197
13.754	63.5895
13.772	63.5512
13.79	63.512
13.808	63.4769
13.826	63.4489
13.844	63.4279
13.862	63.4117
13.88	63.3966
13.898	63.3786
13.916	63.355
13.934	63.3245
13.952	63.288
13.97	63.2482
13.988	63.2088
14.006	63.174
14.024	63.1472
14.042	63.1307
14.06	63.125
14.078	63.1288
14.096	63.1391
14.114	63.1527
14.132	63.1658
14.15	63.1751
14.168	63.1776
14.186	63.1715
14.204	63.1557
14.222	63.1308
14.24	63.098
14.258	63.0601
14.276	63.0199
14.294	62.9809
14.312	62.9466
14.33	62.9203
14.348	62.9051
14.366	62.9025
14.384	62.9133
14.402	62.9364
14.42	62.97
14.438	63.0112
14.456	63.0568
14.474	63.1039
14.492	63.1498
14.51	63.1928
14.528	63.2322
14.546	63.2682
14.564	63.3017
14.582	63.3337
14.6	63.365
14.618	63.3964
14.636	63.4275
14.654	63.4571
14.672	63.4837
14.69	63.5055
14.708	63.5207
14.726	63.5274
14.744	63.5239
14.762	63.5095
14.78	63.484
14.798	63.4476
14.816	63.4011
14.834	63.3456
14.852	63.2829
14.87	63.2151
14.888	63.1445
14.906	63.0739
14.924	63.006
14.942	62.9442
14.96	62.8911
14.978	62.8488
14.996	62.8185
15.014	62.8007
15.032	62.7946
15.05	62.7979
15.068	62.808
15.086	62.8217
15.104	62.8357
15.122	62.8466
15.14	62.8525
15.158	62.8525
15.176	62.8469
15.194	62.837
15.212	62.8253
15.23	62.8145
15.248	62.8075
15.266	62.8064
15.284	62.8135
15.302	62.8288
15.32	62.8519
15.338	62.8815
15.356	62.9151
15.374	62.9496
15.392	62.9821
15.41	63.0103
15.428	63.0317
15.446	63.0449
15.464	63.0493
15.482	63.0447
15.5	63.0318
15.518	63.0118
15.536	62.9863
15.554	62.9569
15.572	62.9254
15.59	62.8938
15.608	62.8635
15.626	62.8358
15.644	62.8119
15.662	62.7932
15.68	62.7803
15.698	62.7736
15.716	62.7733
15.734	62.7789
15.752	62.7899
15.77	62.8055
15.788	62.8243
15.806	62.8452
15.824	62.8671
15.842	62.8887
15.86	62.9093
15.878	62.9285
15.896	62.9463
15.914	62.9628
15.932	62.9787
15.95	62.9945
15.968	63.0104
15.986	63.0265
16.004	63.0419
16.022	63.0558
16.04	63.0662
16.058	63.0709
16.076	63.0681
16.094	63.0553
16.112	63.0309
16.13	62.994
16.148	62.9443
16.166	62.8831
16.184	62.8123
16.202	62.7344
16.22	62.6544
16.238	62.5757
16.256	62.502
16.274	62.4386
16.292	62.3878
16.31	62.3521
16.328	62.3333
16.346	62.331
16.364	62.3446
16.382	62.3718
16.4	62.4095
16.418	62.4551
16.436	62.5039
16.454	62.5526
16.472	62.5988
16.49	62.6388
16.508	62.6714
16.526	62.6955
16.544	62.7109
16.562	62.7183
16.58	62.7186
16.598	62.7138
16.616	62.7056
16.634	62.6955
16.652	62.6859
16.67	62.6778
16.688	62.6719
16.706	62.6691
16.724	62.6692
16.742	62.6717
16.76	62.6755
16.778	62.6799
16.796	62.683
16.814	62.6834
16.832	62.6801
16.85	62.6713
16.868	62.6565
16.886	62.6347
16.904	62.606
16.922	62.5707
16.94	62.5294
16.958	62.4842
16.976	62.4361
16.994	62.3877
17.012	62.3411
17.03	62.2981
17.048	62.2614
17.066	62.2321
17.084	62.2119
17.102	62.2015
17.12	62.2013
17.138	62.2113
17.156	62.2303
17.174	62.2579
17.192	62.2919
17.21	62.3312
17.228	62.3737
17.246	62.4176
17.264	62.4616
17.282	62.5035
17.3	62.5426
17.318	62.5772
17.336	62.6065
17.354	62.6299
17.372	62.6471
17.39	62.6582
17.408	62.6635
17.426	62.6635
17.444	62.6588
17.462	62.65
17.48	62.6374
17.498	62.6221
17.516	62.6042
17.534	62.584
17.552	62.5617
17.57	62.5374
17.588	62.5111
17.606	62.4825
17.624	62.4516
17.642	62.4181
17.66	62.3822
17.678	62.3439
17.696	62.3035
17.714	62.2616
17.732	62.2192
17.75	62.1768
17.768	62.1362
17.786	62.0979
17.804	62.0639
17.822	62.0345
17.84	62.0116
17.858	61.9954
17.876	61.9869
17.894	61.986
17.912	61.9929
17.93	62.0068
17.948	62.0273
17.966	62.0528
17.984	62.0824
18.002	62.1145
18.02	62.1474
18.038	62.1798
18.056	62.2092
18.074	62.2351
18.092	62.2548
18.11	62.268
18.128	62.2727
18.146	62.2687
18.164	62.2549
18.182	62.2312
18.2	62.1972
18.218	62.1539
18.236	62.1011
18.254	62.041
18.272	61.9738
18.29	61.9026
18.308	61.8278
18.326	61.7532
18.344	61.6795
18.362	61.6103
18.38	61.5463
18.398	61.4905
18.416	61.4436
18.434	61.4074
18.452	61.3823
18.47	61.3689
18.488	61.3662
18.506	61.3744
18.524	61.3912
18.542	61.4162
18.56	61.4463
18.578	61.481
18.596	61.5168
18.614	61.5535
18.632	61.5875
18.65	61.6187
18.668	61.6446
18.686	61.6652
18.704	61.6791
18.722	61.6866
18.74	61.6873
18.758	61.6817
18.776	61.6703
18.794	61.6533
18.812	61.6318
18.83	61.606
18.848	61.5768
18.866	61.5442
18.884	61.5088
18.902	61.4707
18.92	61.4299
18.938	61.3867
18.956	61.3409
18.974	61.2927
18.992	61.2423
19.01	61.1902
19.028	61.1366
19.046	61.0823
19.064	61.0283
19.082	60.9752
19.1	60.9246
19.118	60.8771
19.136	60.8346
19.154	60.7976
19.172	60.768
19.19	60.7458
19.208	60.7328
19.226	60.7286
19.244	60.7339
19.262	60.7483
19.28	60.7716
19.298	60.8035
19.316	60.8428
19.334	60.8893
19.352	60.9415
19.37	60.9994
19.388	61.0612
19.406	61.1269
19.424	61.1951
19.442	61.2658
19.46	61.3381
19.478	61.4119
19.496	61.4864
19.514	61.5614
19.532	61.6362
19.55	61.7107
19.568	61.7838
19.586	61.8545
19.604	61.9222
19.622	61.9849
19.64	62.0423
19.658	62.0913
19.676	62.1322
19.694	62.1615
19.712	62.1797
19.73	62.1842
19.748	62.1748
19.766	62.151
19.784	62.1123
19.802	62.06
19.82	61.994
19.838	61.9165
19.856	61.8297
19.874	61.7346
19.892	61.6363
19.91	61.5343
19.928	61.4357
19.946	61.3395
19.964	61.2518
19.982	61.1731
20	61.1062
20.018	61.0533
20.036	61.0143
20.054	60.9912
20.072	60.9831
20.09	60.9892
20.108	61.0096
20.126	61.0406
20.144	61.0827
20.162	61.1313
20.18	61.1853
20.198	61.242
20.216	61.2973
20.234	61.3515
20.252	61.3994
20.27	61.4418
20.288	61.4752
20.306	61.4992
20.324	61.5132
20.342	61.5161
20.36	61.5086
20.378	61.4911
20.396	61.4635
20.414	61.4282
20.432	61.3849
20.45	61.336
20.468	61.2824
20.486	61.2249
20.504	61.166
20.522	61.1053
20.54	61.0452
20.558	60.9855
20.576	60.9273
20.594	60.8713
20.612	60.8173
20.63	60.7661
20.648	60.7175
20.666	60.6716
20.684	60.6284
20.702	60.588
20.72	60.5506
20.738	60.5161
20.756	60.4847
20.774	60.4563
20.792	60.4314
20.81	60.41
20.828	60.3921
20.846	60.378
20.864	60.3676
20.882	60.3607
20.9	60.3575
20.918	60.3573
20.936	60.3597
20.954	60.3645
20.972	60.3697
20.99	60.376
21.008	60.3812
21.026	60.3848
21.044	60.3864
21.062	60.3836
21.08	60.3773
21.098	60.3657
21.116	60.3483
21.134	60.3254
21.152	60.2961
21.17	60.2606
21.188	60.2195
21.206	60.1726
21.224	60.1207
21.242	60.065
21.26	60.005
21.278	59.9429
21.296	59.8789
21.314	59.8136
21.332	59.749
21.35	59.6846
21.368	59.6216
21.386	59.5605
21.404	59.5012
21.422	59.4443
21.44	59.3898
21.458	59.3373
21.476	59.2868
21.494	59.2382
21.512	59.1906
21.53	59.1443
21.548	59.0987
21.566	59.053
21.584	59.0077
21.602	58.9622
21.62	58.9164
21.638	58.8707
21.656	58.8252
21.674	58.7797
21.692	58.7356
21.71	58.693
21.728	58.6522
21.746	58.6149
21.764	58.5805
21.782	58.5505
21.8	58.5258
21.818	58.5061
21.836	58.493
21.854	58.4866
21.872	58.4868
21.89	58.4943
21.908	58.5092
21.926	58.5302
21.944	58.557
21.962	58.5896
21.98	58.6254
21.998	58.6649
22.016	58.7067
22.034	58.7479
22.052	58.7897
22.07	58.8294
22.088	58.8652
22.106	58.898
22.124	58.9253
22.142	58.9465
22.16	58.962
22.178	58.9703
22.196	58.9715
22.214	58.9658
22.232	58.9533
22.25	58.9338
22.268	58.9083
22.286	58.8774
22.304	58.8408
22.322	58.8006
22.34	58.7568
22.358	58.7097
22.376	58.661
22.394	58.6105
22.412	58.5585
22.43	58.506
22.448	58.4525
22.466	58.3989
22.484	58.346
22.502	58.2933
22.52	58.242
22.538	58.1925
22.556	58.1446
22.574	58.0995
22.592	58.0572
22.61	58.0178
22.628	57.9823
22.646	57.9504
22.664	57.9224
22.682	57.8991
22.7	57.8802
22.718	57.866
22.736	57.857
22.754	57.8533
22.772	57.8541
22.79	57.8589
22.808	57.8682
22.826	57.8809
22.844	57.8967
22.862	57.9157
22.88	57.9373
22.898	57.9607
22.916	57.9863
22.934	58.0141
22.952	58.044
22.97	58.0759
22.988	58.1106
23.006	58.1475
23.024	58.1871
23.042	58.2309
23.06	58.2788
23.078	58.3309
23.096	58.3887
23.114	58.452
23.132	58.521
23.15	58.5971
23.168	58.6799
23.186	58.7698
23.204	58.868
23.222	58.9749
23.24	59.0898
23.258	59.2124
23.276	59.3437
23.294	59.4823
23.312	59.6253
23.33	59.7739
23.348	59.9268
23.366	60.079
23.384	60.2315
23.402	60.3836
23.42	60.5301
23.438	60.6719
23.456	60.8084
23.474	60.9341
23.492	61.0486
23.51	61.1525
23.528	61.2413
23.546	61.3143
23.564	61.3725
23.582	61.4121
23.6	61.4317
23.618	61.4328
23.636	61.4136
23.654	61.3731
23.672	61.3122
23.69	61.2303
23.708	61.1267
23.726	61.0018
23.744	60.8561
23.762	60.6896
23.78	60.5019
23.798	60.2948
23.816	60.0702
23.834	59.8265
23.852	59.5663
23.87	59.2938
23.888	59.0072
23.906	58.7083
23.924	58.4016
23.942	58.0866
23.96	57.7634
23.978	57.4363
23.996	57.1064
24.014	56.7722
24.032	56.4382
24.05	56.1069
24.068	55.7759
24.086	55.4485
24.104	55.1281
24.122	54.8125
24.14	54.5036
24.158	54.2038
24.176	53.9126
24.194	53.6301
24.212	53.3573
24.23	53.0947
24.248	52.8417
24.266	52.5987
24.284	52.3661
24.302	52.1435
24.32	51.931
24.338	51.729
24.356	51.5391
24.374	51.358
24.392	51.1812
24.41	51.0092
24.428	50.8425
24.446	50.6785
24.464	50.5165
24.482	50.3573
24.5	50.1998
24.518	50.0422
24.536	49.883
24.554	49.7265
24.572	49.5781
24.59	49.4336
24.608	49.2958
24.626	49.1754
24.644	49.0752
24.662	48.9889
24.68	48.9305
24.698	48.9123
24.716	48.9231
24.734	48.9731
24.752	49.0799
24.77	49.2445
24.788	49.4618
24.806	49.7421
24.824	50.0937
24.842	50.5123
24.86	50.996
24.878	51.5439
24.896	52.1628
24.914	52.8457
24.932	53.5766
24.95	54.3521
24.968	55.1853
24.986	56.0459
25.004	56.9033
25.022	57.7767
25.04	58.655
25.058	59.5031
25.076	60.3071
25.094	61.0877
25.112	61.8186
25.13	62.4725
25.148	63.0595
25.166	63.5797
25.184	64.0202
25.202	64.3717
25.22	64.6395
25.238	64.8316
25.256	64.9552
25.274	64.9991
25.292	64.9731
25.31	64.9
25.328	64.7893
25.346	64.6229
25.364	64.4276
25.382	64.2341
25.4	64.0335
25.418	63.8235
25.436	63.631
25.454	63.4761
25.472	63.3425
25.49	63.2386
25.508	63.1791
25.526	63.168
25.544	63.198
25.562	63.2746
25.58	63.4037
25.598	63.5859
25.616	63.8173
25.634	64.0937
25.652	64.413
25.67	64.7782
25.688	65.1854
25.706	65.6299
25.724	66.112
25.742	66.6332
25.76	67.1886
25.778	67.7744
25.796	68.3982
25.814	69.0531
25.832	69.7257
25.85	70.4078
25.868	71.1104
25.886	71.8235
25.904	72.5345
25.922	73.2436
25.94	73.9583
25.958	74.6612
25.976	75.3346
25.994	75.9824
26.012	76.6083
26.03	77.2042
26.048	77.762
26.066	78.2764
26.084	78.7596
26.102	79.2261
26.12	79.6824
26.138	80.1111
26.156	80.534
26.174	80.9778
26.192	81.4431
26.21	81.9084
26.228	82.4155
26.246	83.0083
26.264	83.6853
26.282	84.428
26.3	85.2646
26.318	86.2228
26.336	87.3041
26.354	88.4954
26.372	89.7926
26.39	91.1929
26.408	92.7192
26.426	94.3491
26.444	96.0434
26.462	97.7741
26.48	99.5969
26.498	101.464
26.516	103.299
26.534	105.051
26.552	106.794
26.57	108.475
26.588	110.013
26.606	111.358
26.624	112.578
26.642	113.632
26.66	114.465
26.678	115.043
26.696	115.404
26.714	115.538
26.732	115.426
26.75	115.048
26.768	114.401
26.786	113.525
26.804	112.46
26.822	111.216
26.84	109.749
26.858	108.117
26.876	106.386
26.894	104.577
26.912	102.631
26.93	100.609
26.948	98.5828
26.966	96.5104
26.984	94.2161
27.002	92.0325
27.02	90.3266
27.028	89.869