File: Bakgrunnsmateriale/MATLAB/FTIR/ftir_data/subBb/Mapping_121/C-4040-8_t83.asc
PE IR       SPECTRUM    SPECTRUM    ASCII       PEDS        1.60
  -1
C-A546~1.ASC
17/03/27
21:17:15.00
17/03/27
21:17:41.00
tln
$C-4040-8_t0083$<tbV0>[0.0,5.2,8.0,0.0,27,1,0]
27.028
64

2002,4.07
MIRTGS : RIGHTBACK : INTERNAL 2
MIR : ON : INTERNAL 2
OPTKBR

0.200000
8
8.000000
FILLER
RATIO
SPECTRUM
UNLOCKED 256

DOUBLE
64
COMBINED
1
0
0

0.002000
RATIO

1
0
TRUE
51149
0
LEFT NOT FITTED RIGHT NOT FITTED 0
NONE
NONE
15600
12
4.427000
51148
TRUE
1 0 8 72 0 0 0 0

15798

#HDR
-1
-1
#GR
µM
%T
2.38419e-05
0.0
2.000000
0.002000
12515
8
98.9237
39.404
#DATA
2.000000	 65.1747
2.018000	 66.2726
2.036000	 65.0467
2.054000	 65.2431
2.072000	 65.3996
2.090000	 65.5458
2.108000	 65.5112
2.126000	 65.2932
2.144000	 65.2025
2.162000	 65.3723
2.180000	 65.4159
2.198000	 65.215
2.216000	 65.0094
2.234000	 64.371
2.252000	 64.591
2.270000	 64.0053
2.288000	 71.6097
2.306000	 65.1162
2.324000	 64.9008
2.342000	 64.9876
2.360000	 64.5994
2.378000	 64.8636
2.396000	 65.2925
2.414000	 65.4183
2.432000	 65.1736
2.450000	 65.2222
2.468000	 65.17
2.486000	 65.2664
2.504000	 65.3037
2.522000	 65.1341
2.540000	 65.0877
2.558000	 65.4775
2.576000	 65.1116
2.594000	 65.1333
2.612000	 65.1429
2.630000	 65.2493
2.648000	 65.167
2.666000	 65.246
2.684000	 65.0348
2.702000	 65.2825
2.720000	 65.228
2.738000	 65.2757
2.756000	 65.3277
2.774000	 65.1308
2.792000	 65.2607
2.810000	 65.3096
2.828000	 65.4154
2.846000	 65.3208
2.864000	 65.1316
2.882000	 65.3389
2.900000	 65.4458
2.918000	 65.0329
2.936000	 65.3347
2.954000	 65.4425
2.972000	 65.1677
2.990000	 65.2673
3.008000	 65.2035
3.026000	 65.3308
3.044000	 65.3844
3.062000	 65.2155
3.080000	 65.1964
3.098000	 65.3858
3.116000	 65.3703
3.134000	 65.3146
3.152000	 65.0785
3.170000	 65.3434
3.188000	 65.3086
3.206000	 65.1144
3.224000	 65.2201
3.242000	 65.1609
3.260000	 65.3042
3.278000	 65.3404
3.296000	 65.298
3.314000	 65.2753
3.332000	 65.0989
3.350000	 65.1847
3.368000	 65.0933
3.386000	 65.2023
3.404000	 65.0632
3.422000	 65.0298
3.440000	 65.1829
3.458000	 65.2325
3.476000	 65.0555
3.494000	 65.4694
3.512000	 65.1764
3.530000	 65.2289
3.548000	 65.337
3.566000	 65.2674
3.584000	 65.2624
3.602000	 65.4528
3.620000	 65.294
3.638000	 65.3737
3.656000	 65.3106
3.674000	 65.4165
3.692000	 65.3929
3.710000	 65.2465
3.728000	 65.3597
3.746000	 65.413
3.764000	 65.2251
3.782000	 65.4688
3.800000	 65.3152
3.818000	 65.2869
3.836000	 65.2902
3.854000	 65.2137
3.872000	 65.3048
3.890000	 65.2393
3.908000	 65.4557
3.926000	 65.2325
3.944000	 65.3123
3.962000	 65.2517
3.980000	 65.64
3.998000	 65.1276
4.016000	 65.5147
4.034000	 65.4347
4.052000	 65.3978
4.070000	 65.5104
4.088000	 65.4752
4.106000	 65.2001
4.124000	 65.6432
4.141999	 65.3767
4.160000	 65.3155
4.178000	 65.5519
4.196000	 65.4021
4.214000	 65.3771
4.232000	 65.3257
4.250000	 65.4211
4.268000	 65.3765
4.286000	 65.2995
4.304000	 65.1442
4.322000	 65.4529
4.340000	 65.3636
4.358000	 65.4445
4.375999	 65.4008
4.394000	 65.3248
4.412000	 65.2453
4.430000	 65.3559
4.448000	 65.3983
4.466000	 65.3951
4.484000	 65.464
4.502000	 65.4619
4.520000	 65.3583
4.538000	 65.327
4.556000	 65.453
4.574000	 65.3318
4.592000	 65.414
4.609999	 65.2455
4.628000	 65.372
4.646000	 65.4208
4.664000	 65.0853
4.682000	 65.1819
4.700000	 65.4903
4.718000	 65.461
4.736000	 65.283
4.754000	 65.366
4.772000	 65.5423
4.790000	 65.4597
4.808000	 65.5271
4.826000	 65.4859
4.843999	 65.7055
4.862000	 65.1628
4.880000	 65.2757
4.898000	 65.4214
4.916000	 65.3415
4.934000	 65.5161
4.952000	 65.4906
4.970000	 65.3834
4.988000	 65.3021
5.006000	 65.2923
5.024000	 65.4132
5.042000	 65.3137
5.060000	 65.2456
5.077999	 65.3482
5.096000	 65.2141
5.114000	 65.3189
5.132000	 65.3229
5.150000	 65.3103
5.168000	 65.2914
5.186000	 65.4337
5.204000	 65.434
5.222000	 65.3138
5.240000	 65.3498
5.258000	 65.3145
5.276000	 65.2836
5.294000	 65.273
5.312000	 65.352
5.330000	 65.4876
5.348000	 65.4373
5.366000	 65.4318
5.384000	 65.4015
5.402000	 65.3413
5.420000	 65.3726
5.438000	 65.3607
5.456000	 65.3747
5.474000	 65.3777
5.492000	 65.411
5.510000	 65.4771
5.528000	 65.3917
5.546000	 65.405
5.564000	 65.4699
5.582000	 65.3416
5.600000	 65.3456
5.618000	 65.3783
5.636000	 65.2768
5.654000	 65.2995
5.672000	 65.3171
5.690000	 65.3601
5.708000	 65.2964
5.726000	 65.1836
5.744000	 65.1463
5.762000	 65.1413
5.780000	 65.1917
5.798000	 65.1697
5.816000	 65.1243
5.834000	 65.1848
5.852000	 64.9286
5.870000	 65.1731
5.888000	 65.4212
5.906000	 65.3509
5.923999	 65.3321
5.942000	 65.3318
5.960000	 65.3008
5.978000	 65.3312
5.996000	 65.4532
6.014000	 65.4819
6.032000	 65.4198
6.050000	 65.3933
6.068000	 65.3659
6.086000	 65.2847
6.104000	 65.2314
6.122000	 65.2901
6.140000	 65.3177
6.158000	 65.2586
6.176000	 65.27
6.194000	 65.2075
6.212000	 65.034
6.230000	 65.0694
6.248000	 65.2007
6.266000	 65.2001
6.284000	 65.1912
6.302000	 65.2184
6.320000	 65.1846
6.338000	 65.0848
6.356000	 65.0419
6.374000	 65.0615
6.392000	 65.0686
6.410000	 65.0926
6.428000	 65.1439
6.446000	 65.1254
6.464000	 65.1031
6.482000	 65.1014
6.500000	 65.0864
6.518000	 65.1411
6.536000	 65.2132
6.554000	 65.256
6.572000	 65.2262
6.590000	 65.1129
6.608000	 65.1195
6.626000	 65.2688
6.644000	 65.3159
6.662000	 65.1973
6.680000	 65.0785
6.698000	 65.0715
6.716000	 65.1328
6.734000	 65.1576
6.752000	 65.178
6.770000	 65.2122
6.788000	 65.186
6.806000	 65.1242
6.824000	 65.1117
6.842000	 65.229
6.860000	 65.3573
6.878000	 65.2821
6.896000	 65.113
6.914000	 65.0279
6.932000	 65.0877
6.950000	 65.3071
6.968000	 65.4144
6.986000	 65.279
7.004000	 65.1742
7.022000	 65.2013
7.040000	 65.2477
7.058000	 65.2857
7.076000	 65.2967
7.094000	 65.2589
7.112000	 65.2031
7.130000	 65.1617
7.148000	 65.1606
7.166000	 65.1855
7.184000	 65.1932
7.202000	 65.1837
7.220000	 65.1804
7.238000	 65.2085
7.256000	 65.2669
7.274000	 65.2944
7.292000	 65.2404
7.310000	 65.1258
7.328000	 65.0385
7.346000	 65.0464
7.364000	 65.0738
7.382000	 65.0267
7.400000	 64.9752
7.418000	 65.0139
7.436000	 65.1136
7.454000	 65.2045
7.472000	 65.2362
7.490000	 65.1939
7.508000	 65.1184
7.526000	 65.0523
7.544000	 65.0206
7.562000	 65.044
7.580000	 65.0897
7.598000	 65.0966
7.616000	 65.0735
7.634000	 65.0664
7.652000	 65.0775
7.670000	 65.0918
7.688000	 65.1044
7.706000	 65.1048
7.724000	 65.097
7.742000	 65.1079
7.760000	 65.1516
7.778000	 65.218
7.796000	 65.2807
7.814000	 65.296
7.832000	 65.2393
7.850000	 65.1466
7.868000	 65.0796
7.886000	 65.0621
7.904000	 65.0632
7.922000	 65.0383
7.940000	 64.9824
7.958000	 64.9423
7.976000	 64.9617
7.994000	 65.0267
8.012000	 65.0761
8.030000	 65.0583
8.048000	 64.9875
8.065999	 64.9387
8.084000	 64.9673
8.102000	 65.0412
8.120000	 65.0742
8.138000	 65.0253
8.155999	 64.9437
8.173999	 64.9093
8.192000	 64.9456
8.210000	 65.0126
8.228000	 65.0701
8.246000	 65.113
8.263999	 65.1498
8.282000	 65.1768
8.300000	 65.1739
8.318000	 65.1256
8.336000	 65.0567
8.353999	 65.028
8.372000	 65.0724
8.390000	 65.1431
8.408000	 65.1652
8.426000	 65.1174
8.443999	 65.037
8.462000	 64.9646
8.480000	 64.9098
8.498000	 64.8667
8.516000	 64.8425
8.533999	 64.8627
8.552000	 64.945
8.570000	 65.0602
8.588000	 65.1419
8.606000	 65.1496
8.624000	 65.1126
8.641999	 65.0843
8.660000	 65.0722
8.678000	 65.0361
8.696000	 64.9488
8.714000	 64.8361
8.731999	 64.7474
8.750000	 64.7099
8.768000	 64.7181
8.786000	 64.7592
8.804000	 64.8313
8.821999	 64.932
8.840000	 65.0363
8.858000	 65.0988
8.876000	 65.0893
8.894000	 65.027
8.911999	 64.9687
8.930000	 64.9478
8.948000	 64.9389
8.966000	 64.8856
8.984000	 64.7706
9.001999	 64.646
9.020000	 64.5931
9.038000	 64.6546
9.056000	 64.8001
9.074000	 64.9444
9.092000	 65.0058
9.109999	 64.9654
9.128000	 64.8838
9.146000	 64.8483
9.164000	 64.8927
9.182000	 64.9695
9.199999	 65.0051
9.218000	 64.9733
9.236000	 64.9088
9.254000	 64.8552
9.272000	 64.817
9.289999	 64.7727
9.308000	 64.7151
9.326000	 64.6679
9.344000	 64.6579
9.362000	 64.6812
9.379999	 64.7083
9.398000	 64.7171
9.416000	 64.7154
9.434000	 64.7273
9.452000	 64.7597
9.469999	 64.7865
9.488000	 64.7714
9.506000	 64.7125
9.524000	 64.6603
9.542000	 64.6782
9.560000	 64.785
9.577999	 64.9373
9.596000	 65.0676
9.614000	 65.1319
9.632000	 65.1268
9.650000	 65.0743
9.667999	 65.0018
9.686000	 64.9337
9.704000	 64.8894
9.722000	 64.8757
9.740000	 64.8782
9.757999	 64.8677
9.776000	 64.8228
9.794000	 64.7518
9.812000	 64.6895
9.830000	 64.6653
9.847999	 64.6752
9.866000	 64.6863
9.884000	 64.6676
9.902000	 64.6166
9.920000	 64.5599
9.937999	 64.5302
9.956000	 64.5432
9.974000	 64.5921
9.992000	 64.6566
10.01	64.7197
10.028	64.7757
10.046	64.8261
10.064	64.8695
10.082	64.896
10.1	64.8917
10.118	64.8517
10.136	64.7883
10.154	64.7281
10.172	64.6981
10.19	64.71
10.208	64.7569
10.226	64.8222
10.244	64.8912
10.262	64.9524
10.28	64.9957
10.298	65.0072
10.316	64.9724
10.334	64.8882
10.352	64.7696
10.37	64.6471
10.388	64.5536
10.406	64.5084
10.424	64.5177
10.442	64.5766
10.46	64.6752
10.478	64.8007
10.496	64.9386
10.514	65.0756
10.532	65.2015
10.55	65.3088
10.568	65.3916
10.586	65.4436
10.604	65.4607
10.622	65.441
10.64	65.3879
10.658	65.3082
10.676	65.2075
10.694	65.0884
10.712	64.9545
10.73	64.8153
10.748	64.6903
10.766	64.6045
10.784	64.5776
10.802	64.616
10.82	64.7107
10.838	64.8353
10.856	64.9557
10.874	65.0344
10.892	65.045
10.91	64.9802
10.928	64.856
10.946	64.709
10.964	64.5814
10.982	64.5083
11	64.5022
11.018	64.5527
11.036	64.6344
11.054	64.7185
11.072	64.7849
11.09	64.8215
11.108	64.8236
11.126	64.7899
11.144	64.7229
11.162	64.6311
11.18	64.5285
11.198	64.4332
11.216	64.3629
11.234	64.3311
11.252	64.343
11.27	64.3927
11.288	64.4646
11.306	64.539
11.324	64.5972
11.342	64.6279
11.36	64.6303
11.378	64.6104
11.396	64.5764
11.414	64.5355
11.432	64.49
11.45	64.4397
11.468	64.3865
11.486	64.3369
11.504	64.3022
11.522	64.2931
11.54	64.3134
11.558	64.3568
11.576	64.4075
11.594	64.4489
11.612	64.468
11.63	64.4613
11.648	64.4347
11.666	64.4006
11.684	64.3737
11.702	64.3658
11.72	64.3841
11.738	64.431
11.756	64.5046
11.774	64.5991
11.792	64.706
11.81	64.8157
11.828	64.9175
11.846	65.0003
11.864	65.0551
11.882	65.0765
11.9	65.0636
11.918	65.0196
11.936	64.9522
11.954	64.8716
11.972	64.79
11.99	64.7188
12.008	64.6667
12.026	64.6383
12.044	64.6326
12.062	64.6431
12.08	64.66
12.098	64.6721
12.116	64.6708
12.134	64.6537
12.152	64.6246
12.17	64.5922
12.188	64.5672
12.206	64.5582
12.224	64.5688
12.242	64.5961
12.26	64.6323
12.278	64.6646
12.296	64.679
12.314	64.6639
12.332	64.6135
12.35	64.5297
12.368	64.4229
12.386	64.3093
12.404	64.2065
12.422	64.1283
12.44	64.0812
12.458	64.0633
12.476	64.0654
12.494	64.0743
12.512	64.0785
12.53	64.0719
12.548	64.0554
12.566	64.0355
12.584	64.0229
12.602	64.0277
12.62	64.0565
12.638	64.1108
12.656	64.1865
12.674	64.2765
12.692	64.3718
12.71	64.4634
12.728	64.5432
12.746	64.6047
12.764	64.6429
12.782	64.655
12.8	64.6403
12.818	64.6006
12.836	64.5403
12.854	64.4658
12.872	64.3861
12.89	64.3097
12.908	64.2445
12.926	64.1955
12.944	64.1647
12.962	64.1508
12.98	64.1497
12.998	64.1555
13.016	64.1626
13.034	64.1661
13.052	64.163
13.07	64.1522
13.088	64.1339
13.106	64.1096
13.124	64.081
13.142	64.0496
13.16	64.0166
13.178	63.9829
13.196	63.949
13.214	63.9164
13.232	63.8869
13.25	63.8637
13.268	63.8498
13.286	63.8486
13.304	63.8623
13.322	63.8915
13.34	63.9343
13.358	63.9861
13.376	64.0405
13.394	64.0898
13.412	64.1267
13.43	64.1454
13.448	64.1431
13.466	64.1204
13.484	64.081
13.502	64.0316
13.52	63.98
13.538	63.934
13.556	63.8998
13.574	63.8815
13.592	63.8803
13.61	63.895
13.628	63.9226
13.646	63.9588
13.664	63.9993
13.682	64.0405
13.7	64.0793
13.718	64.1132
13.736	64.1401
13.754	64.1587
13.772	64.1672
13.79	64.1641
13.808	64.1479
13.826	64.1178
13.844	64.0743
13.862	64.0193
13.88	63.9562
13.898	63.8892
13.916	63.8228
13.934	63.7612
13.952	63.7069
13.97	63.661
13.988	63.6229
14.006	63.5905
14.024	63.5614
14.042	63.5334
14.06	63.5052
14.078	63.4768
14.096	63.4495
14.114	63.4255
14.132	63.4077
14.15	63.3991
14.168	63.4018
14.186	63.4178
14.204	63.4476
14.222	63.4906
14.24	63.545
14.258	63.6079
14.276	63.6754
14.294	63.7429
14.312	63.8049
14.33	63.8561
14.348	63.8913
14.366	63.9064
14.384	63.8992
14.402	63.8702
14.42	63.8221
14.438	63.7603
14.456	63.6917
14.474	63.6236
14.492	63.5634
14.51	63.5168
14.528	63.487
14.546	63.4742
14.564	63.4763
14.582	63.489
14.6	63.5073
14.618	63.5258
14.636	63.5396
14.654	63.5457
14.672	63.543
14.69	63.532
14.708	63.5146
14.726	63.4935
14.744	63.4721
14.762	63.453
14.78	63.4381
14.798	63.4285
14.816	63.4247
14.834	63.4265
14.852	63.4331
14.87	63.4439
14.888	63.4581
14.906	63.4754
14.924	63.4952
14.942	63.5166
14.96	63.5386
14.978	63.56
14.996	63.5794
15.014	63.5951
15.032	63.6052
15.05	63.6079
15.068	63.6019
15.086	63.5867
15.104	63.5622
15.122	63.5296
15.14	63.4909
15.158	63.4487
15.176	63.4055
15.194	63.3646
15.212	63.3293
15.23	63.3014
15.248	63.2823
15.266	63.2726
15.284	63.2719
15.302	63.2787
15.32	63.291
15.338	63.3069
15.356	63.3241
15.374	63.3401
15.392	63.3536
15.41	63.3634
15.428	63.3689
15.446	63.3703
15.464	63.3678
15.482	63.362
15.5	63.3533
15.518	63.3424
15.536	63.3291
15.554	63.3137
15.572	63.2959
15.59	63.2758
15.608	63.2533
15.626	63.2287
15.644	63.2024
15.662	63.1754
15.68	63.1488
15.698	63.1233
15.716	63.1003
15.734	63.0806
15.752	63.0646
15.77	63.0528
15.788	63.0447
15.806	63.0395
15.824	63.0365
15.842	63.0346
15.86	63.033
15.878	63.0314
15.896	63.0294
15.914	63.0276
15.932	63.0266
15.95	63.0272
15.968	63.0301
15.986	63.0355
16.004	63.0431
16.022	63.0525
16.04	63.0618
16.058	63.0694
16.076	63.0739
16.094	63.0732
16.112	63.0663
16.13	63.0528
16.148	63.0327
16.166	63.0078
16.184	62.9796
16.202	62.9502
16.22	62.9229
16.238	62.8995
16.256	62.882
16.274	62.872
16.292	62.8697
16.31	62.875
16.328	62.887
16.346	62.9045
16.364	62.9262
16.382	62.9509
16.4	62.9778
16.418	63.0069
16.436	63.0381
16.454	63.0722
16.472	63.1097
16.49	63.1511
16.508	63.1959
16.526	63.2436
16.544	63.2922
16.562	63.3389
16.58	63.3817
16.598	63.4164
16.616	63.4405
16.634	63.4519
16.652	63.4488
16.67	63.4316
16.688	63.4004
16.706	63.3588
16.724	63.3094
16.742	63.2557
16.76	63.2031
16.778	63.1541
16.796	63.1132
16.814	63.0828
16.832	63.0643
16.85	63.0587
16.868	63.0649
16.886	63.0821
16.904	63.107
16.922	63.1377
16.94	63.1716
16.958	63.2054
16.976	63.238
16.994	63.2668
17.012	63.2912
17.03	63.3107
17.048	63.3254
17.066	63.3356
17.084	63.342
17.102	63.3454
17.12	63.3461
17.138	63.3449
17.156	63.3419
17.174	63.3373
17.192	63.331
17.21	63.3228
17.228	63.3127
17.246	63.3005
17.264	63.2862
17.282	63.2702
17.3	63.2527
17.318	63.2344
17.336	63.2159
17.354	63.1978
17.372	63.1815
17.39	63.1672
17.408	63.1556
17.426	63.147
17.444	63.1417
17.462	63.1391
17.48	63.1387
17.498	63.1397
17.516	63.1406
17.534	63.1404
17.552	63.1366
17.57	63.1287
17.588	63.114
17.606	63.0917
17.624	63.0602
17.642	63.019
17.66	62.9674
17.678	62.9056
17.696	62.8339
17.714	62.7537
17.732	62.6667
17.75	62.5745
17.768	62.4805
17.786	62.3859
17.804	62.2952
17.822	62.2093
17.84	62.1319
17.858	62.0641
17.876	62.0077
17.894	61.9632
17.912	61.9312
17.93	61.9106
17.948	61.901
17.966	61.9004
17.984	61.9077
18.002	61.9205
18.02	61.9372
18.038	61.9564
18.056	61.9762
18.074	61.9959
18.092	62.0145
18.11	62.0319
18.128	62.0481
18.146	62.0635
18.164	62.0788
18.182	62.0944
18.2	62.1111
18.218	62.1293
18.236	62.1495
18.254	62.1712
18.272	62.1947
18.29	62.2188
18.308	62.2434
18.326	62.2666
18.344	62.2882
18.362	62.3064
18.38	62.3208
18.398	62.3298
18.416	62.3333
18.434	62.3308
18.452	62.322
18.47	62.3068
18.488	62.2854
18.506	62.2581
18.524	62.2252
18.542	62.187
18.56	62.1441
18.578	62.0967
18.596	62.0458
18.614	61.9915
18.632	61.9348
18.65	61.8759
18.668	61.8163
18.686	61.7561
18.704	61.6973
18.722	61.6402
18.74	61.5868
18.758	61.5376
18.776	61.4945
18.794	61.4577
18.812	61.4288
18.83	61.4079
18.848	61.3957
18.866	61.3918
18.884	61.3963
18.902	61.4083
18.92	61.427
18.938	61.4513
18.956	61.4798
18.974	61.5113
18.992	61.544
19.01	61.5771
19.028	61.6091
19.046	61.6395
19.064	61.6673
19.082	61.6923
19.1	61.7143
19.118	61.7333
19.136	61.7495
19.154	61.7631
19.172	61.7744
19.19	61.7836
19.208	61.791
19.226	61.7964
19.244	61.7997
19.262	61.8006
19.28	61.7986
19.298	61.7937
19.316	61.7846
19.334	61.7717
19.352	61.754
19.37	61.7317
19.388	61.7053
19.406	61.6745
19.424	61.6411
19.442	61.6047
19.46	61.5678
19.478	61.5303
19.496	61.4944
19.514	61.4606
19.532	61.4306
19.55	61.4054
19.568	61.3854
19.586	61.3717
19.604	61.364
19.622	61.3628
19.64	61.3675
19.658	61.3769
19.676	61.391
19.694	61.4072
19.712	61.4257
19.73	61.4433
19.748	61.46
19.766	61.4731
19.784	61.4822
19.802	61.4856
19.82	61.4822
19.838	61.4719
19.856	61.4535
19.874	61.4274
19.892	61.3936
19.91	61.3523
19.928	61.3049
19.946	61.2512
19.964	61.1935
19.982	61.1318
20	61.0679
20.018	61.0027
20.036	60.937
20.054	60.8727
20.072	60.8095
20.09	60.7495
20.108	60.6924
20.126	60.6392
20.144	60.5899
20.162	60.5448
20.18	60.504
20.198	60.4677
20.216	60.4359
20.234	60.4087
20.252	60.3868
20.27	60.37
20.288	60.359
20.306	60.3535
20.324	60.3544
20.342	60.3621
20.36	60.3769
20.378	60.4001
20.396	60.4314
20.414	60.4723
20.432	60.5227
20.45	60.5831
20.468	60.6541
20.486	60.7351
20.504	60.8258
20.522	60.9262
20.54	61.0335
20.558	61.1486
20.576	61.2675
20.594	61.3893
20.612	61.512
20.63	61.6313
20.648	61.7481
20.666	61.8559
20.684	61.9554
20.702	62.0427
20.72	62.1149
20.738	62.1724
20.756	62.2109
20.774	62.2313
20.792	62.2323
20.81	62.2133
20.828	62.1755
20.846	62.1191
20.864	62.0445
20.882	61.9552
20.9	61.8504
20.918	61.734
20.936	61.6082
20.954	61.4733
20.972	61.3351
20.99	61.1922
21.008	61.0493
21.026	60.9079
21.044	60.7686
21.062	60.6353
21.08	60.507
21.098	60.3858
21.116	60.2725
21.134	60.1668
21.152	60.0694
21.17	59.9802
21.188	59.8979
21.206	59.8228
21.224	59.7536
21.242	59.6886
21.26	59.6285
21.278	59.5699
21.296	59.5126
21.314	59.4559
21.332	59.397
21.35	59.3368
21.368	59.2731
21.386	59.2049
21.404	59.1327
21.422	59.0557
21.44	58.9739
21.458	58.8878
21.476	58.7967
21.494	58.7016
21.512	58.6046
21.53	58.5048
21.548	58.4052
21.566	58.3077
21.584	58.2117
21.602	58.1229
21.62	58.0404
21.638	57.9668
21.656	57.9062
21.674	57.8569
21.692	57.8232
21.71	57.8061
21.728	57.8053
21.746	57.8234
21.764	57.8601
21.782	57.9148
21.8	57.9878
21.818	58.0788
21.836	58.1839
21.854	58.3041
21.872	58.4366
21.89	58.576
21.908	58.7247
21.926	58.8765
21.944	59.0277
21.962	59.1798
21.98	59.325
21.998	59.4635
22.016	59.5934
22.034	59.7088
22.052	59.8115
22.07	59.8988
22.088	59.9679
22.106	60.0201
22.124	60.0545
22.142	60.0699
22.16	60.0678
22.178	60.05
22.196	60.0152
22.214	59.9664
22.232	59.907
22.25	59.8351
22.268	59.7558
22.286	59.6716
22.304	59.5814
22.322	59.4908
22.34	59.4003
22.358	59.3104
22.376	59.2259
22.394	59.146
22.412	59.072
22.43	59.0069
22.448	58.9497
22.466	58.901
22.484	58.8614
22.502	58.8309
22.52	58.8077
22.538	58.7917
22.556	58.7829
22.574	58.7777
22.592	58.7765
22.61	58.7783
22.628	58.779
22.646	58.7796
22.664	58.7782
22.682	58.7706
22.7	58.7583
22.718	58.7392
22.736	58.7102
22.754	58.6726
22.772	58.6253
22.79	58.5667
22.808	58.4975
22.826	58.4184
22.844	58.3294
22.862	58.2304
22.88	58.1237
22.898	58.0098
22.916	57.8885
22.934	57.7634
22.952	57.6351
22.97	57.5033
22.988	57.373
23.006	57.2448
23.024	57.1184
23.042	56.998
23.06	56.884
23.078	56.776
23.096	56.6765
23.114	56.5861
23.132	56.504
23.15	56.4304
23.168	56.3664
23.186	56.3104
23.204	56.2593
23.222	56.2139
23.24	56.1732
23.258	56.133
23.276	56.0939
23.294	56.0555
23.312	56.0148
23.33	55.972
23.348	55.9272
23.366	55.8792
23.384	55.8279
23.402	55.7735
23.42	55.716
23.438	55.6542
23.456	55.5894
23.474	55.5243
23.492	55.4583
23.51	55.392
23.528	55.3302
23.546	55.2732
23.564	55.2203
23.582	55.1775
23.6	55.1464
23.618	55.1252
23.636	55.1187
23.654	55.1294
23.672	55.1553
23.69	55.1984
23.708	55.2608
23.726	55.3417
23.744	55.4397
23.762	55.5541
23.78	55.6866
23.798	55.8331
23.816	55.9897
23.834	56.1597
23.852	56.3384
23.87	56.5188
23.888	56.7045
23.906	56.8921
23.924	57.0729
23.942	57.2476
23.96	57.4166
23.978	57.5721
23.996	57.7114
24.014	57.8376
24.032	57.9459
24.05	58.033
24.068	58.1008
24.086	58.1495
24.104	58.1788
24.122	58.1873
24.14	58.1783
24.158	58.1553
24.176	58.1149
24.194	58.0607
24.212	58.0006
24.23	57.9342
24.248	57.8603
24.266	57.7888
24.284	57.7246
24.302	57.6621
24.32	57.6101
24.338	57.5769
24.356	57.556
24.374	57.5537
24.392	57.5803
24.41	57.6351
24.428	57.7165
24.446	57.8289
24.464	57.9741
24.482	58.15
24.5	58.3586
24.518	58.6029
24.536	58.8853
24.554	59.198
24.572	59.5324
24.59	59.8964
24.608	60.2839
24.626	60.6748
24.644	61.0637
24.662	61.4624
24.68	61.8442
24.698	62.1854
24.716	62.5054
24.734	62.7874
24.752	63.0012
24.77	63.1472
24.788	63.2328
24.806	63.2339
24.824	63.1337
24.842	62.9457
24.86	62.6621
24.878	62.2713
24.896	61.7703
24.914	61.1662
24.932	60.4657
24.95	59.6679
24.968	58.7657
24.986	57.7826
25.004	56.7418
25.022	55.6232
25.04	54.4424
25.058	53.2378
25.076	52.0218
25.094	50.7707
25.112	49.5245
25.13	48.3232
25.148	47.143
25.166	45.9954
25.184	44.919
25.202	43.9313
25.22	43.0095
25.238	42.1754
25.256	41.4528
25.274	40.8349
25.292	40.3192
25.31	39.9153
25.328	39.6311
25.346	39.4629
25.364	39.4041
25.382	39.4485
25.4	39.6028
25.418	39.8629
25.436	40.2118
25.454	40.6382
25.472	41.157
25.49	41.7521
25.508	42.4008
25.526	43.1026
25.544	43.8673
25.562	44.6697
25.58	45.4863
25.598	46.3333
25.616	47.2031
25.634	48.0717
25.652	48.9256
25.67	49.7832
25.688	50.627
25.706	51.4358
25.724	52.2095
25.742	52.9564
25.76	53.6607
25.778	54.3079
25.796	54.9067
25.814	55.4551
25.832	55.9429
25.85	56.3625
25.868	56.7197
25.886	57.0144
25.904	57.2453
25.922	57.4117
25.94	57.5145
25.958	57.555
25.976	57.5344
25.994	57.4474
26.012	57.2981
26.03	57.097
26.048	56.8524
26.066	56.5502
26.084	56.2029
26.102	55.8315
26.12	55.4466
26.138	55.0266
26.156	54.5954
26.174	54.1826
26.192	53.7935
26.21	53.4064
26.228	53.0538
26.246	52.7698
26.264	52.55
26.282	52.3809
26.3	52.2921
26.318	52.3127
26.336	52.4288
26.354	52.638
26.372	52.9639
26.39	53.4287
26.408	54.0238
26.426	54.7447
26.444	55.5955
26.462	56.5819
26.48	57.7144
26.498	58.9745
26.516	60.3379
26.534	61.7902
26.552	63.3623
26.57	65.0239
26.588	66.7336
26.606	68.4679
26.624	70.2664
26.642	72.0965
26.66	73.9161
26.678	75.7055
26.696	77.5047
26.714	79.2775
26.732	80.9807
26.75	82.594
26.768	84.1535
26.786	85.6328
26.804	86.9999
26.822	88.241
26.84	89.3824
26.858	90.4057
26.876	91.2889
26.894	92.0225
26.912	92.6254
26.93	93.085
26.948	93.3861
26.966	93.4831
26.984	93.3335
27.002	93.0726
27.02	92.846
27.028	92.7982