File: Bakgrunnsmateriale/MATLAB/FTIR/ftir_data/subBb/Mapping_121/C-4040-8_t111_cm-1.asc
PE IR       SPECTRUM    SPECTRUM    ASCII       PEDS        1.60
  -1
C-4609~1.ASC
17/03/27
23:39:47.00
17/03/27
23:39:47.00
tln
$C-4040-8_t0111$<tbV0>[13.0,13.0,8.0,0.0,27,1,0]
370
64

2002,4.07
MIRTGS : RIGHTBACK : INTERNAL 2
MIR : ON : INTERNAL 2
OPTKBR

0.200000
8
8.000000
FILLER
RATIO
SPECTRUM
UNLOCKED 256

DOUBLE
64
COMBINED
1
0
0

1.000000
RATIO

1
0
TRUE
51149
0
LEFT NOT FITTED RIGHT NOT FITTED 0
NONE
NONE
15600
12
4.427000
51148
TRUE
1 0 8 72 0 0 0 0

15798

#HDR
-1
-1
#GR
CM-1
%T
2.38419e-05
0.0
5000
-1.000000
4631
8
117.435
51.9626
#DATA
5000	62.6936
4996	62.5762
4992	62.6097
4988	63.0464
4984	63.4952
4980	63.2213
4976	62.4634
4972	61.9861
4968	62.0356
4964	62.3527
4960	62.3255
4956	62.093
4952	62.2104
4948	62.5272
4944	62.6216
4940	62.52
4936	62.6548
4932	62.9875
4928	63.1729
4924	63.1547
4920	63.1037
4916	63.1335
4912	62.9643
4908	62.6196
4904	62.7302
4900	63.5204
4896	63.9531
4892	63.6227
4888	63.1828
4884	62.665
4880	62.3968
4876	62.4056
4872	62.3909
4868	62.5923
4864	62.8301
4860	62.8196
4856	62.8062
4852	62.8607
4848	62.7432
4844	62.5876
4840	62.6883
4836	62.919
4832	62.7362
4828	62.3702
4824	62.4289
4820	62.5914
4816	62.5715
4812	62.6325
4808	62.8327
4804	63.0548
4800	63.2552
4796	63.2263
4792	63.0404
4788	62.9257
4784	62.8638
4780	62.9656
4776	63.2499
4772	63.3788
4768	63.1887
4764	62.9751
4760	62.8193
4756	62.6446
4752	62.6458
4748	62.8079
4744	62.8804
4740	62.8597
4736	62.8305
4732	62.8309
4728	62.966
4724	63.1582
4720	63.3313
4716	63.3665
4712	63.0967
4708	62.958
4704	63.157
4700	63.2826
4696	63.1729
4692	62.968
4688	62.808
4684	62.8707
4680	63.2152
4676	63.3538
4672	63.1315
4668	62.9983
4664	63.0729
4660	63.1701
4656	63.122
4652	63.0134
4648	63.0595
4644	63.2544
4640	63.1477
4636	62.6984
4632	62.5955
4628	62.8613
4624	63.0918
4620	63.1418
4616	62.9788
4612	62.8293
4608	62.9923
4604	63.2943
4600	63.2273
4596	62.9307
4592	62.9159
4588	63.0602
4584	63.1207
4580	63.1575
4576	63.1837
4572	63.1621
4568	63.0115
4564	62.926
4560	62.9881
4556	62.8979
4552	62.7649
4548	62.991
4544	63.3804
4540	63.4434
4536	63.2942
4532	63.2271
4528	63
4524	62.3918
4520	62.0774
4516	62.3141
4512	62.3963
4508	62.3415
4504	62.4052
4500	62.5374
4496	62.8571
4492	63.0059
4488	62.6569
4484	62.359
4480	62.5651
4476	62.7151
4472	62.4444
4468	62.328
4464	62.5087
4460	62.6783
4456	62.8097
4452	62.9169
4448	62.9751
4444	62.7985
4440	62.3721
4436	62.2925
4432	62.5707
4428	62.4857
4424	62.4503
4420	63.2658
4416	64.4808
4412	66.3328
4408	69.8113
4404	74.3405
4400	74.7061
4396	68.0318
4392	61.4632
4388	59.3935
4384	61.1335
4380	63.5118
4376	63.8644
4372	63.1385
4368	62.8726
4364	63.0904
4360	63.3997
4356	63.5858
4352	63.5644
4348	63.3035
4344	63.0663
4340	63.0419
4336	63.1526
4332	63.2573
4328	63.253
4324	63.2223
4320	63.2652
4316	63.1947
4312	63.089
4308	63.2384
4304	63.3459
4300	63.074
4296	62.8623
4292	62.8846
4288	63.0122
4284	63.1808
4280	63.1795
4276	62.9438
4272	62.5685
4268	62.3313
4264	62.4274
4260	62.6272
4256	62.7034
4252	62.786
4248	62.9658
4244	62.8505
4240	62.5515
4236	62.5132
4232	62.6008
4228	62.7377
4224	62.824
4220	62.8651
4216	63.0266
4212	63.1333
4208	62.9998
4204	62.8258
4200	62.9745
4196	63.2282
4192	62.8862
4188	62.0637
4184	61.6005
4180	61.7374
4176	62.2442
4172	62.7902
4168	63.0265
4164	62.9524
4160	62.9859
4156	63.1841
4152	63.1963
4148	63.0128
4144	62.8582
4140	62.8695
4136	63.006
4132	63.1273
4128	63.1879
4124	63.2483
4120	63.3262
4116	63.3288
4112	63.1894
4108	63.034
4104	62.9682
4100	62.9256
4096	63.0174
4092	63.2649
4088	63.3441
4084	63.3824
4080	63.4565
4076	63.3435
4072	63.2557
4068	63.3308
4064	63.3051
4060	63.2015
4056	63.1858
4052	63.1879
4048	63.1827
4044	63.0724
4040	62.9367
4036	62.9344
4032	62.9771
4028	62.9449
4024	62.8715
4020	62.8986
4016	63.0321
4012	63.1091
4008	63.0509
4004	63.0337
4000	63.0646
3996	62.9659
3992	62.8771
3988	62.9655
3984	63.0811
3980	63.1112
3976	63.036
3972	62.8873
3968	62.8597
3964	63.0239
3960	63.1817
3956	63.1862
3952	63.1549
3948	63.109
3944	62.9051
3940	62.7617
3936	62.8702
3932	62.9219
3928	62.9045
3924	63.1164
3920	63.2834
3916	63.1535
3912	63.0214
3908	62.9776
3904	62.9279
3900	62.8549
3896	62.9161
3892	63.2838
3888	63.6238
3884	63.5057
3880	63.1551
3876	62.9857
3872	62.9933
3868	63.0236
3864	62.9688
3860	62.9052
3856	62.9729
3852	63.1268
3848	63.2636
3844	63.3186
3840	63.2349
3836	63.0517
3832	62.8716
3828	62.7756
3824	62.8157
3820	63.0374
3816	63.3646
3812	63.3571
3808	63.0272
3804	62.9247
3800	63.0275
3796	63.1284
3792	63.2138
3788	63.2225
3784	63.178
3780	63.1926
3776	63.2353
3772	63.1498
3768	63.0471
3764	63.0572
3760	63.0823
3756	63.0578
3752	63.0149
3748	63.0509
3744	63.1283
3740	63.1314
3736	63.0965
3732	63.0816
3728	63.1117
3724	63.0824
3720	62.9649
3716	62.9401
3712	63.0903
3708	63.2108
3704	63.1331
3700	63.1039
3696	63.1918
3692	63.2011
3688	63.1364
3684	63.1063
3680	63.1551
3676	63.1894
3672	63.1922
3668	63.1925
3664	63.1175
3660	63.029
3656	63.063
3652	63.1443
3648	63.1018
3644	63.0891
3640	63.2062
3636	63.1797
3632	63.0555
3628	63.0388
3624	63.0856
3620	63.1515
3616	63.1195
3612	63.0244
3608	63.0924
3604	63.2371
3600	63.2293
3596	63.1513
3592	63.1906
3588	63.2006
3584	62.9942
3580	62.8417
3576	62.8374
3572	62.7295
3568	62.7015
3564	62.9301
3560	63.2093
3556	63.4533
3552	63.518
3548	63.2869
3544	63.1593
3540	63.1619
3536	62.991
3532	62.9264
3528	63.1125
3524	63.2988
3520	63.3002
3516	63.1864
3512	63.0934
3508	63.044
3504	63.0251
3500	63.0735
3496	63.1401
3492	63.0037
3488	62.759
3484	62.7966
3480	63.1176
3476	63.2574
3472	63.1691
3468	63.1755
3464	63.2056
3460	63.0673
3456	62.8648
3452	62.8465
3448	63.0545
3444	63.2589
3440	63.2945
3436	63.1901
3432	63.0312
3428	62.9598
3424	62.9509
3420	62.8951
3416	62.8536
3412	62.9791
3408	63.2277
3404	63.289
3400	63.1537
3396	63.1317
3392	63.2452
3388	63.317
3384	63.2771
3380	63.2245
3376	63.2225
3372	63.1921
3368	63.1528
3364	63.0989
3360	63.0126
3356	63.0206
3352	63.1771
3348	63.3004
3344	63.3454
3340	63.3771
3336	63.3214
3332	63.2786
3328	63.2782
3324	63.2663
3320	63.2788
3316	63.2949
3312	63.2567
3308	63.1245
3304	63.0574
3300	63.1009
3296	63.1197
3292	63.1169
3288	63.1134
3284	63.0949
3280	63.0692
3276	63.065
3272	63.0954
3268	63.1429
3264	63.2016
3260	63.3034
3256	63.3583
3252	63.2613
3248	63.1183
3244	62.986
3240	62.937
3236	62.9848
3232	62.9933
3228	62.9616
3224	62.9417
3220	62.9546
3216	62.9748
3212	62.9999
3208	63.0539
3204	63.0917
3200	63.0505
3196	63.0081
3192	63.1084
3188	63.315
3184	63.3229
3180	63.1851
3176	63.2217
3172	63.1821
3168	63.0646
3164	63.2191
3160	63.4216
3156	63.3881
3152	63.2755
3148	63.2567
3144	63.2943
3140	63.3734
3136	63.4079
3132	63.4145
3128	63.4953
3124	63.3823
3120	63.1854
3116	63.2043
3112	63.287
3108	63.3999
3104	63.495
3100	63.4463
3096	63.3577
3092	63.3042
3088	63.273
3084	63.2849
3080	63.2861
3076	63.2504
3072	63.2848
3068	63.3823
3064	63.44
3060	63.3847
3056	63.1552
3052	62.9851
3048	63.0847
3044	63.2943
3040	63.3994
3036	63.2885
3032	63.1137
3028	63.0461
3024	63.0864
3020	63.1503
3016	63.14
3012	63.1228
3008	63.1379
3004	63.1437
3000	63.1066
2996	63.05
2992	63.0422
2988	63.0333
2984	62.9694
2980	62.9081
2976	62.8822
2972	62.8923
2968	62.91
2964	62.8641
2960	62.8356
2956	62.9465
2952	63.0327
2948	62.9807
2944	62.9293
2940	62.9296
2936	62.9544
2932	62.9331
2928	62.8743
2924	62.8407
2920	62.7621
2916	62.6704
2912	62.7065
2908	62.8679
2904	62.9417
2900	62.9137
2896	62.9554
2892	63.0048
2888	63.0147
2884	63.0366
2880	63.1071
2876	63.1929
2872	63.191
2868	63.1018
2864	62.9993
2860	62.9157
2856	62.879
2852	62.9809
2848	63.144
2844	63.2126
2840	63.1971
2836	63.1905
2832	63.2473
2828	63.2755
2824	63.1838
2820	63.1107
2816	63.2118
2812	63.3147
2808	63.2636
2804	63.2187
2800	63.2595
2796	63.2832
2792	63.2588
2788	63.249
2784	63.2662
2780	63.2455
2776	63.2123
2772	63.2059
2768	63.2005
2764	63.1792
2760	63.1508
2756	63.2131
2752	63.2797
2748	63.2205
2744	63.1515
2740	63.1174
2736	63.1122
2732	63.1217
2728	63.1088
2724	63.1357
2720	63.1822
2716	63.1583
2712	63.1217
2708	63.1559
2704	63.2306
2700	63.2498
2696	63.1635
2692	63.0829
2688	63.1323
2684	63.2286
2680	63.2722
2676	63.2732
2672	63.2736
2668	63.3102
2664	63.2736
2660	63.1604
2656	63.1682
2652	63.2428
2648	63.2565
2644	63.2656
2640	63.2498
2636	63.2075
2632	63.205
2628	63.219
2624	63.2306
2620	63.278
2616	63.314
2612	63.2956
2608	63.3121
2604	63.3885
2600	63.4803
2596	63.5587
2592	63.5717
2588	63.4984
2584	63.4247
2580	63.4137
2576	63.3863
2572	63.3071
2568	63.2915
2564	63.3325
2560	63.3783
2556	63.4529
2552	63.5212
2548	63.5121
2544	63.4454
2540	63.4113
2536	63.3456
2532	63.1979
2528	63.1597
2524	63.3403
2520	63.47
2516	63.378
2512	63.306
2508	63.2896
2504	63.1652
2500	63.0005
2496	62.9352
2492	63.074
2488	63.3334
2484	63.4214
2480	63.3438
2476	63.2972
2472	63.2871
2468	63.2925
2464	63.3147
2460	63.396
2456	63.439
2452	63.3599
2448	63.2497
2444	63.1941
2440	63.2726
2436	63.3952
2432	63.4014
2428	63.2611
2424	63.0444
2420	62.9663
2416	63.1642
2412	63.3808
2408	63.3195
2404	63.103
2400	63.0888
2396	63.2954
2392	63.4129
2388	63.401
2384	63.3928
2380	63.4181
2376	63.5092
2372	63.5971
2368	63.5798
2364	63.5349
2360	63.4987
2356	63.4549
2352	63.4579
2348	63.4708
2344	63.4679
2340	63.4815
2336	63.4863
2332	63.4485
2328	63.382
2324	63.3155
2320	63.2912
2316	63.3416
2312	63.4019
2308	63.4343
2304	63.4704
2300	63.4939
2296	63.4891
2292	63.4732
2288	63.4056
2284	63.2888
2280	63.2428
2276	63.2892
2272	63.3243
2268	63.3357
2264	63.326
2260	63.2475
2256	63.1943
2252	63.2069
2248	63.2217
2244	63.2391
2240	63.192
2236	63.0876
2232	63.0813
2228	63.1525
2224	63.1356
2220	63.1104
2216	63.1967
2212	63.2973
2208	63.3431
2204	63.3595
2200	63.3669
2196	63.3969
2192	63.473
2188	63.4481
2184	63.3072
2180	63.2709
2176	63.3281
2172	63.3428
2168	63.3304
2164	63.3878
2160	63.4928
2156	63.4999
2152	63.3748
2148	63.241
2144	63.2761
2140	63.4478
2136	63.4838
2132	63.3743
2128	63.295
2124	63.2917
2120	63.3643
2116	63.3999
2112	63.4345
2108	63.5727
2104	63.6545
2100	63.6132
2096	63.535
2092	63.4558
2088	63.3923
2084	63.3881
2080	63.4315
2076	63.541
2072	63.892
2068	64.2318
2064	64.1484
2060	63.7286
2056	63.2092
2052	62.9391
2048	63.0825
2044	63.2939
2040	63.3325
2036	63.3323
2032	63.3642
2028	63.3525
2024	63.3337
2020	63.3594
2016	63.3676
2012	63.3196
2008	63.2747
2004	63.2688
2000	63.2796
1996	63.292
1992	63.3144
1988	63.3873
1984	63.4564
1980	63.4212
1976	63.3517
1972	63.3092
1968	63.2803
1964	63.286
1960	63.2782
1956	63.2655
1952	63.2754
1948	63.2688
1944	63.2464
1940	63.2627
1936	63.3208
1932	63.337
1928	63.3304
1924	63.3263
1920	63.3147
1916	63.3698
1912	63.4602
1908	63.501
1904	63.4944
1900	63.4442
1896	63.4109
1892	63.4324
1888	63.4564
1884	63.4614
1880	63.4925
1876	63.494
1872	63.4187
1868	63.3569
1864	63.3116
1860	63.3001
1856	63.368
1852	63.4515
1848	63.4319
1844	63.3436
1840	63.3422
1836	63.4096
1832	63.4354
1828	63.4249
1824	63.3999
1820	63.3414
1816	63.3066
1812	63.3473
1808	63.3973
1804	63.4066
1800	63.4474
1796	63.4461
1792	63.3238
1788	63.2707
1784	63.3494
1780	63.4077
1776	63.4266
1772	63.4281
1768	63.387
1764	63.3661
1760	63.3364
1756	63.2794
1752	63.2571
1748	63.203
1744	63.0682
1740	62.9621
1736	62.9726
1732	63.0386
1728	63.0672
1724	62.9616
1720	62.9137
1716	63.1521
1712	63.3704
1708	63.4272
1704	63.4156
1700	63.3662
1696	63.3979
1692	63.4174
1688	63.3653
1684	63.3251
1680	63.2947
1676	63.2401
1672	63.2082
1668	63.2821
1664	63.3273
1660	63.2482
1656	63.1647
1652	63.1729
1648	63.2067
1644	63.1706
1640	63.161
1636	63.2512
1632	63.3209
1628	63.3423
1624	63.3764
1620	63.3702
1616	63.3357
1612	63.347
1608	63.3465
1604	63.3281
1600	63.3476
1596	63.3344
1592	63.2497
1588	63.1876
1584	63.2305
1580	63.2915
1576	63.2214
1572	63.1446
1568	63.178
1564	63.2013
1560	63.228
1556	63.273
1552	63.2496
1548	63.2197
1544	63.2499
1540	63.2334
1536	63.2185
1532	63.3217
1528	63.3786
1524	63.2949
1520	63.1816
1516	63.1426
1512	63.1941
1508	63.2528
1504	63.2776
1500	63.2802
1496	63.2657
1492	63.2867
1488	63.2959
1484	63.205
1480	63.1127
1476	63.0709
1472	63.0413
1468	63.0575
1464	63.075
1460	63.1022
1456	63.1628
1452	63.0543
1448	62.9
1444	62.9944
1440	63.172
1436	63.2667
1432	63.3637
1428	63.4361
1424	63.3774
1420	63.2601
1416	63.1618
1412	63.1363
1408	63.2988
1404	63.456
1400	63.4006
1396	63.3612
1392	63.381
1388	63.3207
1384	63.2116
1380	63.1093
1376	63.1647
1372	63.3236
1368	63.332
1364	63.262
1360	63.2962
1356	63.4034
1352	63.4678
1348	63.4094
1344	63.2402
1340	63.1385
1336	63.2292
1332	63.3524
1328	63.3385
1324	63.2696
1320	63.2533
1316	63.2348
1312	63.2099
1308	63.1825
1304	63.107
1300	63.0561
1296	63.0348
1292	63.0226
1288	63.032
1284	63.0645
1280	63.1221
1276	63.0932
1272	62.9652
1268	62.8614
1264	62.8421
1260	62.8978
1256	62.9799
1252	63.0386
1248	62.9795
1244	62.7571
1240	62.5372
1236	62.5166
1232	62.6564
1228	62.7379
1224	62.7318
1220	62.8131
1216	62.892
1212	62.8213
1208	62.7493
1204	62.7724
1200	62.8272
1196	62.8533
1192	62.8671
1188	62.9265
1184	62.9519
1180	62.8639
1176	62.7872
1172	62.8109
1168	62.8247
1164	62.7614
1160	62.6575
1156	62.5614
1152	62.5704
1148	62.7087
1144	62.8695
1140	62.9685
1136	62.974
1132	62.8963
1128	62.7674
1124	62.68
1120	62.6788
1116	62.7572
1112	62.964
1108	63.1864
1104	63.1813
1100	62.8182
1096	62.5063
1092	62.5436
1088	62.6151
1084	62.6325
1080	62.5767
1076	62.4974
1072	62.5521
1068	62.6054
1064	62.5148
1060	62.447
1056	62.5395
1052	62.5914
1048	62.5199
1044	62.4672
1040	62.4871
1036	62.4964
1032	62.3795
1028	62.2833
1024	62.4491
1020	62.6676
1016	62.4835
1012	62.2
1008	62.305
1004	62.5169
1000	62.5317
996	 62.4282
992	 62.3996
988	 62.5488
984	 62.7012
980	 62.5784
976	 62.3543
972	 62.3757
968	 62.5125
964	 62.4815
960	 62.3783
956	 62.3834
952	 62.4654
948	 62.5431
944	 62.5047
940	 62.407
936	 62.3612
932	 62.3574
928	 62.3628
924	 62.343
920	 62.3698
916	 62.5195
912	 62.6916
908	 62.7157
904	 62.4274
900	 61.9779
896	 61.8758
892	 61.9661
888	 61.8781
884	 61.847
880	 62.0539
876	 62.2854
872	 62.3924
868	 62.4614
864	 62.3684
860	 62.0567
856	 61.7614
852	 61.9298
848	 62.3821
844	 62.6085
840	 62.8732
836	 63.0869
832	 62.7983
828	 62.3152
824	 62.1088
820	 62.0763
816	 62.1147
812	 62.1963
808	 62.0934
804	 61.9109
800	 61.9862
796	 62.133
792	 61.9691
788	 61.8616
784	 62.1129
780	 62.2267
776	 62.0717
772	 61.9758
768	 61.9157
764	 61.8001
760	 61.8379
756	 62.0327
752	 62.1617
748	 62.3117
744	 62.4262
740	 62.3312
736	 62.1264
732	 61.8849
728	 61.724
724	 61.7548
720	 61.7858
716	 61.6243
712	 61.448
708	 61.5104
704	 61.7328
700	 61.7533
696	 61.6872
692	 61.782
688	 61.5585
684	 61.0899
680	 60.9407
676	 61.0688
672	 61.3901
668	 61.6625
664	 61.5651
660	 61.3625
656	 61.3573
652	 61.4514
648	 61.2627
644	 60.9271
640	 61.0632
636	 61.3035
632	 61.0746
628	 60.9315
624	 61.1825
620	 61.377
616	 61.2159
612	 60.9417
608	 61.1072
604	 61.4394
600	 61.2791
596	 60.8213
592	 60.5252
588	 60.5233
584	 60.8324
580	 61.1486
576	 61.1993
572	 61.3549
568	 61.4611
564	 61.0934
560	 60.7282
556	 60.6303
552	 60.7985
548	 61.0517
544	 61.137
540	 61.0613
536	 60.7683
532	 60.475
528	 60.5866
524	 61.0409
520	 60.8885
516	 60.3149
512	 60.1188
508	 59.9595
504	 59.8547
500	 59.8965
496	 60.2227
492	 60.649
488	 60.404
484	 59.7888
480	 59.3902
476	 59.2608
472	 59.9049
468	 60.8417
464	 61.4702
460	 61.8408
456	 61.3956
452	 60.2232
448	 58.892
444	 58.277
440	 58.182
436	 58.1901
432	 58.7399
428	 59.4357
424	 59.8605
420	 60.0913
416	 59.5746
412	 61.9851
408	 70.9728
404	 74.1417
400	 71.429
396	 73.4669
392	 71.0401
388	 65.0477
384	 54.2771
380	 59.364
376	 101.244
372	 115.112
370	 102.047