File: Bakgrunnsmateriale/MATLAB/FTIR/ftir_data/subBb/Mapping_121/C-4040-8_t116_cm-1.asc
PE IR       SPECTRUM    SPECTRUM    ASCII       PEDS        1.60
  -1
C-4B09~1.ASC
17/03/28
00:17:19.00
17/03/28
00:17:19.00
tln
$C-4040-8_t0116$<tbV0>[0.0,13.0,8.0,0.0,27,1,0]
370
64

2002,4.07
MIRTGS : RIGHTBACK : INTERNAL 2
MIR : ON : INTERNAL 2
OPTKBR

0.200000
8
8.000000
FILLER
RATIO
SPECTRUM
UNLOCKED 256

DOUBLE
64
COMBINED
1
0
0

1.000000
RATIO

1
0
TRUE
51149
0
LEFT NOT FITTED RIGHT NOT FITTED 0
NONE
NONE
15600
12
4.427000
51148
TRUE
1 0 8 72 0 0 0 0

15798

#HDR
-1
-1
#GR
CM-1
%T
2.38419e-05
0.0
5000
-1.000000
4631
8
88.4038
32.7728
#DATA
5000	64.556
4996	64.3159
4992	64.3084
4988	64.6409
4984	65.1882
4980	65.5217
4976	65.1506
4972	64.5622
4968	64.5011
4964	64.7868
4960	64.8777
4956	64.7983
4952	64.5028
4948	63.9572
4944	63.7123
4940	64.0692
4936	64.6247
4932	64.8879
4928	64.9634
4924	65.0639
4920	65.171
4916	65.1791
4912	65.005
4908	64.7823
4904	64.8791
4900	65.6183
4896	66.0511
4892	65.5765
4888	65.064
4884	64.5566
4880	64.0708
4876	64.2803
4872	64.6154
4868	64.4319
4864	64.5867
4860	64.9964
4856	65.0734
4852	65.0869
4848	64.8544
4844	64.4717
4840	64.3902
4836	64.6505
4832	64.9167
4828	64.9697
4824	64.9235
4820	64.8764
4816	64.8119
4812	64.5638
4808	64.4927
4804	64.7861
4800	64.8276
4796	64.6544
4792	64.6822
4788	64.8533
4784	64.9432
4780	64.8536
4776	64.8815
4772	65.0067
4768	64.9379
4764	64.8676
4760	64.8379
4756	64.7283
4752	64.7322
4748	65.0347
4744	65.2611
4740	65.1755
4736	65.0823
4732	64.9166
4728	64.7083
4724	64.6471
4720	64.6919
4716	64.8815
4712	65.0766
4708	65.0747
4704	64.9912
4700	64.9541
4696	64.7735
4692	64.5139
4688	64.51
4684	64.7462
4680	65.0249
4676	65.1283
4672	64.9791
4668	64.8371
4664	64.9387
4660	65.0931
4656	65.0377
4652	64.8667
4648	64.7205
4644	64.6954
4640	64.7209
4636	64.687
4632	64.7911
4628	64.9428
4624	64.872
4620	64.7066
4616	64.5746
4612	64.6285
4608	64.9224
4604	65.0284
4600	64.8685
4596	64.799
4592	64.805
4588	64.7494
4584	64.8113
4580	65.0399
4576	65.2508
4572	65.303
4568	65.2152
4564	65.2607
4560	65.3754
4556	65.2665
4552	65.0534
4548	65.2788
4544	65.6847
4540	65.2431
4536	64.3893
4532	64.1153
4528	64.3041
4524	64.525
4520	64.5514
4516	64.5782
4512	64.8581
4508	65.1449
4504	65.1901
4500	65.094
4496	65.0777
4492	65.0521
4488	64.8321
4484	64.6639
4480	64.7348
4476	64.7228
4472	64.4869
4468	64.5506
4464	65.1649
4460	65.717
4456	65.6154
4452	65.1337
4448	64.7461
4444	64.7122
4440	64.9432
4436	65.3334
4432	65.557
4428	65.4685
4424	65.4026
4420	65.4011
4416	64.6854
4412	65.2253
4408	68.0399
4404	72.2332
4400	70.7704
4396	59.3434
4392	54.8989
4388	59.8775
4384	62.7127
4380	64.7445
4376	67.1263
4372	67.3997
4368	66.922
4364	66.2284
4360	65.6238
4356	64.9984
4352	64.6419
4348	64.702
4344	65.002
4340	65.2364
4336	65.1387
4332	65.0221
4328	65.1038
4324	65.2034
4320	65.252
4316	65.0478
4312	64.7268
4308	64.6773
4304	64.7533
4300	64.8226
4296	65.0077
4292	65.0973
4288	65.0512
4284	65.1572
4280	65.2114
4276	65.1649
4272	65.1446
4268	64.8857
4264	64.6959
4260	64.7604
4256	64.6667
4252	64.6879
4248	64.9104
4244	64.7809
4240	64.5958
4236	64.7917
4232	64.984
4228	65.0028
4224	64.916
4220	64.9009
4216	65.1842
4212	65.3415
4208	65.2258
4204	65.2491
4200	65.3571
4196	65.4301
4192	65.2192
4188	64.6092
4184	64.6373
4180	65.233
4176	65.2881
4172	64.9407
4168	64.5982
4164	64.3251
4160	64.341
4156	64.6431
4152	64.8122
4148	64.8281
4144	64.9387
4140	64.9766
4136	64.9277
4132	65.0441
4128	65.2095
4124	65.1008
4120	64.7922
4116	64.6084
4112	64.7141
4108	64.8831
4104	64.7802
4100	64.6636
4096	64.8262
4092	64.9862
4088	64.8615
4084	64.7398
4080	64.973
4076	65.2655
4072	65.2705
4068	65.1171
4064	65.0315
4060	64.9573
4056	64.8919
4052	65.0692
4048	65.3067
4044	65.272
4040	65.1155
4036	65.0038
4032	64.9352
4028	65.0071
4024	65.1821
4020	65.2275
4016	65.0825
4012	64.956
4008	65.005
4004	65.0672
4000	65.0069
3996	64.9719
3992	65.006
3988	65.0424
3984	65.0563
3980	65.0425
3976	64.9981
3972	64.899
3968	64.8979
3964	65.0049
3960	65.0477
3956	65.0851
3952	65.124
3948	65.0799
3944	64.9766
3940	64.9482
3936	65.0329
3932	65.0565
3928	65.0885
3924	65.1955
3920	65.1881
3916	65.0698
3912	65.0056
3908	65.1302
3904	65.2878
3900	65.2215
3896	65.1886
3892	65.4077
3888	65.5141
3884	65.2809
3880	64.9932
3876	64.9204
3872	64.9802
3868	64.9845
3864	64.9495
3860	64.9565
3856	64.9389
3852	64.8647
3848	64.9319
3844	65.1005
3840	64.9878
3836	64.7402
3832	64.6854
3828	64.6735
3824	64.6812
3820	64.8096
3816	64.9604
3812	65.0213
3808	64.9557
3804	64.8788
3800	64.9077
3796	65.0235
3792	65.0769
3788	65.0235
3784	65.0851
3780	65.2026
3776	65.1732
3772	65.0865
3768	65.0622
3764	65.101
3760	65.1857
3756	65.2778
3752	65.2654
3748	65.1734
3744	65.1162
3740	65.1137
3736	65.1936
3732	65.227
3728	65.1122
3724	65.0438
3720	65.0999
3716	65.1293
3712	65.0733
3708	65.0186
3704	65.0032
3700	65.0311
3696	65.0895
3692	65.1377
3688	65.204
3684	65.229
3680	65.1364
3676	65.1202
3672	65.2422
3668	65.3291
3664	65.285
3660	65.082
3656	65.0245
3652	65.2089
3648	65.2797
3644	65.2176
3640	65.2014
3636	65.2632
3632	65.2886
3628	65.1903
3624	65.1392
3620	65.2187
3616	65.1948
3612	65.0524
3608	65.0661
3604	65.2246
3600	65.291
3596	65.1748
3592	65.0107
3588	64.9494
3584	64.9598
3580	65.0171
3576	65.1072
3572	65.075
3568	64.9095
3564	64.8753
3560	65.1191
3556	65.411
3552	65.3786
3548	65.0147
3544	64.8615
3540	65.0325
3536	65.0913
3532	65.0441
3528	65.045
3524	65.1358
3520	65.1793
3516	65.0339
3512	64.9438
3508	65.0156
3504	65.1302
3500	65.2278
3496	65.184
3492	65.0227
3488	65.0067
3484	65.1546
3480	65.2274
3476	65.1134
3472	65.029
3468	65.1926
3464	65.3404
3460	65.1942
3456	65.0118
3452	65.016
3448	64.9927
3444	64.9044
3440	64.9854
3436	65.1429
3432	65.129
3428	65.0555
3424	65.0489
3420	65.0103
3416	64.9447
3412	64.9685
3408	65.0984
3404	65.1163
3400	64.9384
3396	64.8257
3392	64.9037
3388	65.081
3384	65.1631
3380	65.1316
3376	65.1606
3372	65.2011
3368	65.2085
3364	65.1597
3360	65.0321
3356	64.9786
3352	65.0187
3348	65.08
3344	65.1907
3340	65.2831
3336	65.2251
3332	65.1351
3328	65.0968
3324	64.9981
3320	64.9535
3316	65.0406
3312	65.052
3308	64.942
3304	64.8952
3300	64.9585
3296	65.0469
3292	65.0961
3288	65.0938
3284	65.0617
3280	65.0062
3276	64.9623
3272	64.9913
3268	65.0743
3264	65.136
3260	65.1395
3256	65.1117
3252	65.0914
3248	65.0275
3244	64.9096
3240	64.9017
3236	65.036
3232	65.0867
3228	64.9961
3224	64.9534
3220	65.0553
3216	65.1773
3212	65.0877
3208	64.9439
3204	65.1056
3200	65.2388
3196	65.076
3192	65.0041
3188	65.0871
3184	65.1461
3180	65.2463
3176	65.3087
3172	65.1776
3168	65.0196
3164	65.0268
3160	65.0604
3156	65.0806
3152	65.1629
3148	65.143
3144	64.9921
3140	64.8429
3136	64.8026
3132	64.8696
3128	64.9363
3124	65.0478
3120	65.193
3116	65.3163
3112	65.4085
3108	65.3957
3104	65.3097
3100	65.1771
3096	65.0413
3092	64.9875
3088	65.0327
3084	65.1226
3080	65.1335
3076	65.1321
3072	65.1682
3068	65.1416
3064	65.0988
3060	65.1093
3056	65.1313
3052	65.1076
3048	65.0908
3044	65.1669
3040	65.2572
3036	65.2528
3032	65.1367
3028	65.0407
3024	65.1247
3020	65.2353
3016	65.1957
3012	65.1256
3008	65.1715
3004	65.3032
3000	65.3167
2996	65.2343
2992	65.224
2988	65.2037
2984	65.1265
2980	65.0422
2976	64.9901
2972	64.9415
2968	64.8958
2964	64.8798
2960	64.8411
2956	64.9035
2952	65.0958
2948	65.1192
2944	64.9664
2940	64.8909
2936	64.9008
2932	64.9227
2928	64.919
2924	64.8267
2920	64.7346
2916	64.7459
2912	64.8605
2908	64.986
2904	65.0207
2900	65.0449
2896	65.0374
2892	64.9516
2888	64.9703
2884	65.0943
2880	65.1042
2876	65.0124
2872	65.0474
2868	65.1515
2864	65.0892
2860	64.987
2856	65.0146
2852	65.0905
2848	65.1585
2844	65.177
2840	65.1031
2836	65.0166
2832	65.0306
2828	65.0893
2824	65.0745
2820	65.0619
2816	65.1301
2812	65.1779
2808	65.1624
2804	65.1422
2800	65.1481
2796	65.1635
2792	65.1477
2788	65.1241
2784	65.0998
2780	65.0274
2776	64.9757
2772	65.0403
2768	65.1642
2764	65.2352
2760	65.2091
2756	65.1657
2752	65.1471
2748	65.1046
2744	65.072
2740	65.0807
2736	65.1252
2732	65.1811
2728	65.1661
2724	65.0801
2720	65.0677
2716	65.1436
2712	65.1781
2708	65.1868
2704	65.259
2700	65.3461
2696	65.316
2692	65.1878
2688	65.1011
2684	65.0817
2680	65.0908
2676	65.1426
2672	65.2187
2668	65.2742
2664	65.2696
2660	65.2129
2656	65.1896
2652	65.1923
2648	65.1645
2644	65.1281
2640	65.1191
2636	65.1367
2632	65.0906
2628	64.9993
2624	65.019
2620	65.114
2616	65.1484
2612	65.1356
2608	65.1485
2604	65.1555
2600	65.1242
2596	65.1019
2592	65.0965
2588	65.0882
2584	65.0936
2580	65.1163
2576	65.1382
2572	65.1476
2568	65.1527
2564	65.1711
2560	65.209
2556	65.2461
2552	65.2601
2548	65.2546
2544	65.2528
2540	65.2823
2536	65.3051
2532	65.2294
2528	65.1789
2524	65.2353
2520	65.2278
2516	65.1855
2512	65.1628
2508	65.0783
2504	65.0374
2500	65.0382
2496	64.9815
2492	64.9631
2488	65.0187
2484	65.1263
2480	65.2188
2476	65.1752
2472	65.0775
2468	65.0973
2464	65.1812
2460	65.2135
2456	65.1537
2452	65.1068
2448	65.1499
2444	65.1408
2440	65.1579
2436	65.2377
2432	65.1639
2428	65.0451
2424	64.9717
2420	65.0093
2416	65.3675
2412	65.6407
2408	65.4235
2404	65.1069
2400	65.0738
2396	65.2213
2392	65.3315
2388	65.3213
2384	65.2396
2380	65.1762
2376	65.1295
2372	65.1355
2368	65.1902
2364	65.1933
2360	65.1639
2356	65.1433
2352	65.1593
2348	65.221
2344	65.2621
2340	65.217
2336	65.1963
2332	65.2431
2328	65.1968
2324	65.0951
2320	65.0692
2316	65.1133
2312	65.1634
2308	65.1992
2304	65.2507
2300	65.2555
2296	65.184
2292	65.1521
2288	65.139
2284	65.0844
2280	65.0841
2276	65.1543
2272	65.2241
2268	65.3007
2264	65.3781
2260	65.2953
2256	65.1164
2252	65.1517
2248	65.3051
2244	65.3048
2240	65.2049
2236	65.1249
2232	65.0866
2228	65.0806
2224	65.1157
2220	65.2095
2216	65.2803
2212	65.3202
2208	65.3664
2204	65.3626
2200	65.319
2196	65.2923
2192	65.2629
2188	65.219
2184	65.2009
2180	65.2266
2176	65.2806
2172	65.3145
2168	65.271
2164	65.2087
2160	65.2561
2156	65.3561
2152	65.366
2148	65.3646
2144	65.3753
2140	65.3319
2136	65.3302
2132	65.3073
2128	65.263
2124	65.2616
2120	65.2379
2116	65.2068
2112	65.2007
2108	65.2278
2104	65.2696
2100	65.2805
2096	65.2619
2092	65.2811
2088	65.2547
2084	65.0651
2080	64.9757
2076	65.186
2072	65.3897
2068	65.4957
2064	65.5521
2060	65.3017
2056	64.9966
2052	65.0012
2048	65.1309
2044	65.2149
2040	65.2902
2036	65.3567
2032	65.3414
2028	65.2728
2024	65.2377
2020	65.25
2016	65.2507
2012	65.2381
2008	65.25
2004	65.2383
2000	65.1457
1996	65.0369
1992	65.0515
1988	65.1759
1984	65.2712
1980	65.277
1976	65.2214
1972	65.1526
1968	65.135
1964	65.1865
1960	65.2612
1956	65.3052
1952	65.2717
1948	65.2123
1944	65.1702
1940	65.126
1936	65.097
1932	65.0424
1928	65.0191
1924	65.115
1920	65.2229
1916	65.289
1912	65.3452
1908	65.3643
1904	65.3199
1900	65.2418
1896	65.1881
1892	65.1892
1888	65.2358
1884	65.2895
1880	65.3515
1876	65.3707
1872	65.2838
1868	65.1704
1864	65.0984
1860	65.0807
1856	65.1135
1852	65.1772
1848	65.2092
1844	65.1546
1840	65.0728
1836	65.0784
1832	65.1664
1828	65.1888
1824	65.1394
1820	65.1494
1816	65.1548
1812	65.0722
1808	65.0085
1804	65.0436
1800	65.1303
1796	65.159
1792	65.1258
1788	65.0946
1784	65.0854
1780	65.1243
1776	65.1602
1772	65.1437
1768	65.1081
1764	65.069
1760	65.0845
1756	65.1895
1752	65.2369
1748	65.1396
1744	65.003
1740	64.8941
1736	64.8254
1732	64.8201
1728	64.9488
1724	65.1424
1720	65.2161
1716	65.2463
1712	65.2555
1708	65.1849
1704	65.1149
1700	65.0918
1696	65.1371
1692	65.1489
1688	65.068
1684	65.0276
1680	65.0712
1676	65.1412
1672	65.1479
1668	65.0502
1664	64.987
1660	65.0103
1656	65.0708
1652	65.165
1648	65.1951
1644	65.1101
1640	65.0019
1636	65.0078
1632	65.0929
1628	65.0821
1624	65.0277
1620	65.0584
1616	65.0919
1612	65.0659
1608	65.0166
1604	64.9718
1600	65.0097
1596	65.049
1592	65.0248
1588	65.0515
1584	65.0398
1580	64.9098
1576	64.8395
1572	64.899
1568	64.9348
1564	64.8352
1560	64.749
1556	64.8013
1552	64.8868
1548	64.9564
1544	64.9565
1540	64.9775
1536	65.1484
1532	65.2152
1528	65.0738
1524	64.959
1520	64.9251
1516	64.9299
1512	65.0229
1508	65.1245
1504	65.1294
1500	65.1072
1496	65.1806
1492	65.2604
1488	65.2206
1484	65.1742
1480	65.1279
1476	65.0387
1472	65.0015
1468	65.0315
1464	65.0607
1460	65.1093
1456	65.1015
1452	64.9363
1448	64.8156
1444	64.8937
1440	64.9992
1436	64.9945
1432	64.9102
1428	64.8326
1424	64.8313
1420	64.8802
1416	64.9117
1412	64.8505
1408	64.7889
1404	64.8766
1400	64.9212
1396	64.873
1392	64.9149
1388	64.9187
1384	64.8479
1380	64.8736
1376	64.9469
1372	64.9548
1368	64.8956
1364	64.8607
1360	64.8767
1356	64.8928
1352	64.9395
1348	64.9877
1344	64.9753
1340	64.8865
1336	64.7995
1332	64.843
1328	64.8561
1324	64.792
1320	64.9049
1316	65.0714
1312	65.0549
1308	64.952
1304	64.8995
1300	64.8758
1296	64.7417
1292	64.5556
1288	64.5442
1284	64.6814
1280	64.8228
1276	64.9256
1272	64.9417
1268	64.8549
1264	64.7116
1260	64.633
1256	64.6785
1252	64.759
1248	64.8076
1244	64.7909
1240	64.7363
1236	64.7131
1232	64.7608
1228	64.8565
1224	64.9249
1220	64.9328
1216	64.9214
1212	64.9128
1208	64.876
1204	64.8127
1200	64.7745
1196	64.7822
1192	64.7989
1188	64.8992
1184	65.026
1180	64.9576
1176	64.775
1172	64.6744
1168	64.6484
1164	64.6374
1160	64.6092
1156	64.5743
1152	64.6397
1148	64.7873
1144	64.8453
1140	64.7548
1136	64.6977
1132	64.8066
1128	64.8564
1124	64.7731
1120	64.7506
1116	64.8483
1112	64.9199
1108	64.8832
1104	64.9846
1100	65.0842
1096	64.8667
1092	64.7103
1088	64.8625
1084	65.0165
1080	64.9643
1076	64.8652
1072	64.9073
1068	64.9501
1064	64.7856
1060	64.5635
1056	64.5459
1052	64.6697
1048	64.7627
1044	64.7407
1040	64.6662
1036	64.6525
1032	64.5959
1028	64.4733
1024	64.4946
1020	64.7037
1016	64.8567
1012	64.7536
1008	64.6061
1004	64.5608
1000	64.5184
996	 64.5786
992	 64.7012
988	 64.6987
984	 64.6168
980	 64.5913
976	 64.5632
972	 64.481
968	 64.5221
964	 64.5977
960	 64.491
956	 64.4087
952	 64.4663
948	 64.4821
944	 64.4181
940	 64.3866
936	 64.5327
932	 64.7027
928	 64.6433
924	 64.4677
920	 64.3491
916	 64.3061
912	 64.2999
908	 64.4418
904	 64.6693
900	 64.6167
896	 64.4325
892	 64.2065
888	 63.8729
884	 63.8222
880	 64.0829
876	 64.202
872	 64.0855
868	 64.0027
864	 63.898
860	 63.6081
856	 63.5486
852	 63.9395
848	 64.1137
844	 64.1026
840	 64.2812
836	 64.347
832	 64.2841
828	 63.9272
824	 63.4336
820	 63.4568
816	 63.7074
812	 63.7902
808	 63.7675
804	 63.8188
800	 63.9866
796	 64.1729
792	 64.3757
788	 64.3308
784	 64.1526
780	 64.2346
776	 64.3152
772	 64.0955
768	 63.8276
764	 63.7053
760	 63.6094
756	 63.3708
752	 63.2109
748	 63.4821
744	 63.8999
740	 64.0868
736	 63.8268
732	 63.3194
728	 63.1611
724	 63.2679
720	 63.3538
716	 63.4372
712	 63.3142
708	 63.1202
704	 63.1543
700	 63.3001
696	 63.3096
692	 63.2358
688	 63.2095
684	 62.9484
680	 62.6014
676	 62.5695
672	 62.8041
668	 63.0295
664	 62.9249
660	 62.6695
656	 62.589
652	 62.4822
648	 62.2466
644	 62.0836
640	 62.1898
636	 62.5064
632	 62.6491
628	 62.5948
624	 62.5965
620	 62.4919
616	 62.173
612	 62.1024
608	 62.4373
604	 62.4887
600	 62.1315
596	 62.1265
592	 62.3147
588	 62.111
584	 61.7339
580	 61.5661
576	 61.7865
572	 62.1103
568	 62.0061
564	 61.635
560	 61.3661
556	 61.3002
552	 61.5393
548	 61.7917
544	 62.07
540	 62.2226
536	 61.8047
532	 61.2383
528	 60.8798
524	 60.7872
520	 60.747
516	 60.536
512	 60.0688
508	 59.3184
504	 59.2149
500	 59.6899
496	 59.7714
492	 59.7125
488	 59.5327
484	 58.9889
480	 58.7221
476	 59.2462
472	 59.9859
468	 60.4103
464	 60.676
460	 60.6405
456	 59.9634
452	 58.7891
448	 57.6637
444	 57.1052
440	 58.0626
436	 60.1116
432	 60.3806
428	 59.0543
424	 57.8753
420	 56.9314
416	 55.0308
412	 54.4765
408	 64.4169
404	 79.0615
400	 81.0942
396	 61.2952
392	 35.0917
388	 43.7169
384	 81.4815
380	 80.0691
376	 51.7543
372	 58.0372
370	 68.5313