File: Bakgrunnsmateriale/MATLAB/FTIR/ftir_data/subBb/Mapping_121/C-4040-8_t04_cm-1.asc
PE IR       SPECTRUM    SPECTRUM    ASCII       PEDS        1.60
  -1
C-996F~1.ASC
17/03/27
14:49:25.00
17/03/27
14:49:25.00
tln
$C-4040-8_t0004$<tbV0>[5.2,-13.0,8.0,0.0,27,1,0]
370
64

2002,4.07
MIRTGS : RIGHTBACK : INTERNAL 2
MIR : ON : INTERNAL 2
OPTKBR

0.200000
8
8.000000
FILLER
RATIO
SPECTRUM
UNLOCKED 256

DOUBLE
64
COMBINED
1
0
0

1.000000
RATIO

1
0
TRUE
51149
0
LEFT NOT FITTED RIGHT NOT FITTED 0
NONE
NONE
15600
12
4.427000
51148
TRUE
1 0 8 72 0 0 0 0

15798

#HDR
-1
-1
#GR
CM-1
%T
2.38419e-05
0.0
5000
-1.000000
4631
8
69.9467
-0.073742
#DATA
5000	63.5407
4996	63.4502
4992	63.8667
4988	63.8968
4984	63.1537
4980	62.6961
4976	62.7146
4972	62.817
4968	62.9625
4964	62.5948
4960	62.1802
4956	62.7195
4952	63.3184
4948	62.9372
4944	61.9158
4940	61.7473
4936	62.608
4932	63.1289
4928	62.9414
4924	62.8841
4920	63.3767
4916	63.8094
4912	64.004
4908	64.0781
4904	64.1479
4900	64.1192
4896	63.8472
4892	63.6755
4888	63.5059
4884	63.2887
4880	63.3951
4876	63.5924
4872	63.317
4868	62.9581
4864	63.0855
4860	63.3446
4856	63.5303
4852	63.6047
4848	63.5573
4844	63.5755
4840	63.6736
4836	63.7987
4832	63.6698
4828	63.2375
4824	62.9054
4820	62.8212
4816	62.9001
4812	63.0279
4808	63.1032
4804	63.146
4800	63.0187
4796	62.9759
4792	63.3483
4788	63.7086
4784	63.6682
4780	63.4871
4776	63.4513
4772	63.4312
4768	63.3657
4764	63.2265
4760	63.112
4756	63.2017
4752	63.3331
4748	63.3508
4744	63.3031
4740	63.2951
4736	63.2041
4732	63.011
4728	62.958
4724	62.9517
4720	62.964
4716	63.1723
4712	63.4173
4708	63.5456
4704	63.5897
4700	63.4747
4696	63.2273
4692	63.1784
4688	63.4359
4684	63.5768
4680	63.4282
4676	63.2048
4672	63.0757
4668	63.0853
4664	63.1341
4660	63.2317
4656	63.3264
4652	63.2474
4648	63.0893
4644	62.9904
4640	63.069
4636	63.2406
4632	63.3363
4628	63.4741
4624	63.4881
4620	63.3685
4616	63.2895
4612	63.2434
4608	63.3581
4604	63.4625
4600	63.4527
4596	63.5271
4592	63.551
4588	63.4464
4584	63.2674
4580	63.2459
4576	63.4619
4572	63.523
4568	63.397
4564	63.2322
4560	63.0847
4556	62.9474
4552	62.7249
4548	62.7254
4544	63.0025
4540	63.1982
4536	63.2415
4532	63.0166
4528	62.8361
4524	63.1327
4520	63.4972
4516	63.3371
4512	63.1233
4508	63.3559
4504	63.6868
4500	63.7238
4496	63.38
4492	62.9446
4488	63.0153
4484	63.2901
4480	63.5737
4476	63.5086
4472	63.1047
4468	63.3275
4464	63.9276
4460	64.3955
4456	65.0905
4452	67.3762
4448	69.7582
4444	69.1948
4440	65.806
4436	61.7961
4432	60.2665
4428	60.7495
4424	60.4306
4420	59.8623
4416	57.9644
4412	59.8381
4408	65.8713
4404	64.9449
4400	64.3436
4396	67.0528
4392	65.8905
4388	64.7096
4384	64.4673
4380	64.3697
4376	64.3931
4372	63.9843
4368	63.8969
4364	63.8024
4360	63.5396
4356	63.4953
4352	63.4264
4348	63.3954
4344	63.4118
4340	63.3887
4336	63.471
4332	63.328
4328	63.0383
4324	63.1145
4320	63.2371
4316	63.0873
4312	63.0354
4308	63.0966
4304	63.1051
4300	63.0822
4296	63.0272
4292	62.9486
4288	62.789
4284	62.735
4280	62.8598
4276	62.9568
4272	63.0254
4268	62.962
4264	62.8472
4260	62.8778
4256	62.8642
4252	62.7888
4248	62.7847
4244	62.7106
4240	62.5941
4236	62.6616
4232	62.8308
4228	62.8942
4224	62.9066
4220	62.9277
4216	62.8901
4212	62.8386
4208	62.836
4204	62.8054
4200	62.77
4196	62.9208
4192	63.0716
4188	62.9651
4184	62.6417
4180	62.2169
4176	61.9885
4172	62.0754
4168	62.457
4164	62.8047
4160	62.6534
4156	62.3518
4152	62.3297
4148	62.4845
4144	62.6512
4140	62.7592
4136	62.7716
4132	62.8101
4128	62.867
4124	62.7345
4120	62.5448
4116	62.5221
4112	62.6088
4108	62.6793
4104	62.6849
4100	62.6035
4096	62.5665
4092	62.6887
4088	62.7556
4084	62.7337
4080	62.7281
4076	62.6047
4072	62.4051
4068	62.3696
4064	62.4878
4060	62.6569
4056	62.8142
4052	62.6962
4048	62.3995
4044	62.3724
4040	62.549
4036	62.6771
4032	62.7515
4028	62.706
4024	62.6033
4020	62.5806
4016	62.5914
4012	62.668
4008	62.7552
4004	62.7205
4000	62.7128
3996	62.741
3992	62.6525
3988	62.5576
3984	62.4418
3980	62.2422
3976	62.1505
3972	62.2536
3968	62.4893
3964	62.6481
3960	62.5036
3956	62.3142
3952	62.3783
3948	62.5313
3944	62.579
3940	62.5048
3936	62.4295
3932	62.5121
3928	62.6597
3924	62.614
3920	62.3852
3916	62.303
3912	62.3989
3908	62.4546
3904	62.5429
3900	62.6404
3896	62.6393
3892	62.5698
3888	62.4399
3884	62.2414
3880	62.1069
3876	62.3139
3872	62.6009
3868	62.4898
3864	62.2467
3860	62.2409
3856	62.3804
3852	62.4188
3848	62.3535
3844	62.3926
3840	62.4798
3836	62.4192
3832	62.2417
3828	62.0327
3824	61.8764
3820	61.9835
3816	62.1694
3812	62.2467
3808	62.3525
3804	62.395
3800	62.3392
3796	62.2797
3792	62.2071
3788	62.1427
3784	62.078
3780	61.943
3776	61.8671
3772	62.0274
3768	62.2134
3764	62.1816
3760	62.0501
3756	62.0118
3752	62.1022
3748	62.234
3744	62.2938
3740	62.2509
3736	62.1119
3732	61.8407
3728	61.6594
3724	61.7125
3720	61.7926
3716	61.9206
3712	62.0353
3708	62.0289
3704	62.0452
3700	61.9692
3696	61.8248
3692	61.8795
3688	61.9989
3684	61.9893
3680	61.9588
3676	61.9856
3672	61.9434
3668	61.7836
3664	61.705
3660	61.7448
3656	61.765
3652	61.8215
3648	61.8106
3644	61.5807
3640	61.3571
3636	61.3805
3632	61.5716
3628	61.6144
3624	61.5033
3620	61.4553
3616	61.4807
3612	61.4745
3608	61.3415
3604	61.2171
3600	61.2405
3596	61.3498
3592	61.5098
3588	61.5974
3584	61.5453
3580	61.4817
3576	61.4232
3572	61.3715
3568	61.3403
3564	61.2724
3560	61.2241
3556	61.2806
3552	61.3335
3548	61.2872
3544	61.2303
3540	61.2216
3536	61.2918
3532	61.341
3528	61.2216
3524	61.1043
3520	61.0878
3516	61.017
3512	60.9196
3508	60.9473
3504	61.0824
3500	61.1058
3496	60.9502
3492	60.8702
3488	60.9651
3484	61.1002
3480	61.1345
3476	61.0517
3472	61.0025
3468	60.9957
3464	60.9271
3460	60.8213
3456	60.8205
3452	60.8997
3448	60.8883
3444	60.79
3440	60.7483
3436	60.7992
3432	60.7441
3428	60.5696
3424	60.5068
3420	60.5454
3416	60.5896
3412	60.6502
3408	60.6374
3404	60.532
3400	60.4453
3396	60.3961
3392	60.4038
3388	60.4696
3384	60.5113
3380	60.5521
3376	60.5644
3372	60.4343
3368	60.3397
3364	60.3462
3360	60.2939
3356	60.2716
3352	60.3071
3348	60.3026
3344	60.2694
3340	60.2442
3336	60.2639
3332	60.2691
3328	60.1799
3324	60.0747
3320	60.0745
3316	60.122
3312	60.1013
3308	60.0451
3304	60.0525
3300	60.0963
3296	60.0693
3292	59.9983
3288	59.9224
3284	59.8812
3280	59.9571
3276	60.0395
3272	60.0032
3268	59.9303
3264	59.8657
3260	59.803
3256	59.763
3252	59.7692
3248	59.7809
3244	59.6891
3240	59.595
3236	59.6635
3232	59.7577
3228	59.7367
3224	59.7161
3220	59.7501
3216	59.7791
3212	59.8281
3208	59.8059
3204	59.6292
3200	59.5104
3196	59.5651
3192	59.6826
3188	59.6829
3184	59.5398
3180	59.4269
3176	59.3443
3172	59.2567
3168	59.261
3164	59.3353
3160	59.3681
3156	59.3401
3152	59.337
3148	59.3722
3144	59.3659
3140	59.3537
3136	59.3146
3132	59.1949
3128	59.1485
3124	59.2009
3120	59.2455
3116	59.265
3112	59.1813
3108	59.0694
3104	59.1135
3100	59.1968
3096	59.1018
3092	58.9222
3088	58.851
3084	58.855
3080	58.8866
3076	58.9447
3072	58.9891
3068	59.0115
3064	58.9863
3060	58.9361
3056	58.9169
3052	58.8931
3048	58.8437
3044	58.8336
3040	58.8439
3036	58.7781
3032	58.7415
3028	58.7936
3024	58.7932
3020	58.7291
3016	58.6265
3012	58.5271
3008	58.538
3004	58.5861
3000	58.5699
2996	58.5166
2992	58.4478
2988	58.3973
2984	58.3664
2980	58.3216
2976	58.2882
2972	58.2793
2968	58.2131
2964	58.0972
2960	58.0741
2956	58.1001
2952	58.0662
2948	58.0011
2944	57.9691
2940	57.9878
2936	58.0217
2932	58.0415
2928	58.0047
2924	57.8928
2920	57.7789
2916	57.7363
2912	57.6903
2908	57.6175
2904	57.6376
2900	57.7312
2896	57.7684
2892	57.7021
2888	57.6176
2884	57.628
2880	57.6437
2876	57.6113
2872	57.63
2868	57.5845
2864	57.4464
2860	57.3938
2856	57.4314
2852	57.3756
2848	57.2684
2844	57.37
2840	57.5483
2836	57.5243
2832	57.3597
2828	57.2808
2824	57.3299
2820	57.3571
2816	57.3249
2812	57.2819
2808	57.2494
2804	57.2243
2800	57.1756
2796	57.0438
2792	56.9889
2788	57.1069
2784	57.1384
2780	57.0376
2776	56.9673
2772	56.9322
2768	56.9192
2764	56.9025
2760	56.8477
2756	56.8093
2752	56.8486
2748	56.9129
2744	56.8842
2740	56.7771
2736	56.7115
2732	56.6918
2728	56.6712
2724	56.6798
2720	56.671
2716	56.5762
2712	56.4944
2708	56.4808
2704	56.4652
2700	56.4182
2696	56.3934
2692	56.4318
2688	56.4563
2684	56.4017
2680	56.2631
2676	56.1298
2672	56.1629
2668	56.2682
2664	56.2373
2660	56.114
2656	56.0266
2652	55.9757
2648	55.9421
2644	55.9279
2640	55.8781
2636	55.8486
2632	55.9129
2628	55.942
2624	55.8601
2620	55.7182
2616	55.6173
2612	55.6509
2608	55.729
2604	55.7244
2600	55.6188
2596	55.5462
2592	55.5639
2588	55.5157
2584	55.4517
2580	55.4341
2576	55.3847
2572	55.3662
2568	55.364
2564	55.3299
2560	55.3184
2556	55.2917
2552	55.259
2548	55.2751
2544	55.2277
2540	55.1327
2536	55.126
2532	55.1295
2528	55.095
2524	55.0628
2520	55.0008
2516	54.9274
2512	54.9197
2508	54.993
2504	54.9895
2500	54.8155
2496	54.6399
2492	54.6217
2488	54.6669
2484	54.6592
2480	54.7048
2476	54.7613
2472	54.6924
2468	54.5986
2464	54.5649
2460	54.5551
2456	54.5261
2452	54.5135
2448	54.5361
2444	54.5463
2440	54.5675
2436	54.5341
2432	54.4816
2428	54.4562
2424	54.2471
2420	54.027
2416	54.0233
2412	54.0731
2408	54.0759
2404	53.9691
2400	53.8162
2396	53.7731
2392	53.8265
2388	53.8713
2384	53.9004
2380	53.9349
2376	53.8939
2372	53.8173
2368	53.7926
2364	53.7682
2360	53.7055
2356	53.6348
2352	53.553
2348	53.4184
2344	53.3179
2340	53.3671
2336	53.449
2332	53.4314
2328	53.3517
2324	53.2812
2320	53.2914
2316	53.3329
2312	53.2822
2308	53.2158
2304	53.2048
2300	53.1778
2296	53.1116
2292	53.0082
2288	52.9448
2284	52.9492
2280	52.9351
2276	52.9087
2272	52.9069
2268	52.9132
2264	52.8824
2260	52.7937
2256	52.6994
2252	52.6747
2248	52.6887
2244	52.6218
2240	52.5103
2236	52.4857
2232	52.4945
2228	52.4496
2224	52.3902
2220	52.3263
2216	52.2666
2212	52.246
2208	52.241
2204	52.2234
2200	52.1848
2196	52.1221
2192	52.0577
2188	52.0133
2184	51.968
2180	51.9549
2176	51.9773
2172	51.9526
2168	51.9448
2164	51.9941
2160	52.0026
2156	51.886
2152	51.6948
2148	51.5857
2144	51.5819
2140	51.6436
2136	51.6489
2132	51.5382
2128	51.4234
2124	51.3266
2120	51.3185
2116	51.4108
2112	51.4352
2108	51.3929
2104	51.3344
2100	51.231
2096	51.1521
2092	51.1461
2088	51.1566
2084	51.1637
2080	51.1739
2076	51.0806
2072	50.8349
2068	50.6481
2064	50.6755
2060	50.7967
2056	50.79
2052	50.6638
2048	50.6179
2044	50.6172
2040	50.5953
2036	50.619
2032	50.6538
2028	50.5952
2024	50.4406
2020	50.3122
2016	50.2868
2012	50.3418
2008	50.3839
2004	50.3341
2000	50.3131
1996	50.353
1992	50.2689
1988	50.135
1984	50.0621
1980	50.0091
1976	50.0038
1972	49.993
1968	49.9486
1964	49.9145
1960	49.8635
1956	49.7973
1952	49.7523
1948	49.7225
1944	49.6979
1940	49.6629
1936	49.6001
1932	49.5287
1928	49.4866
1924	49.5008
1920	49.4958
1916	49.4263
1912	49.3642
1908	49.3014
1904	49.2224
1900	49.2045
1896	49.2362
1892	49.2157
1888	49.1192
1884	49.0234
1880	48.9897
1876	48.9824
1872	48.9527
1868	48.8796
1864	48.7968
1860	48.7447
1856	48.6987
1852	48.684
1848	48.7095
1844	48.7099
1840	48.638
1836	48.545
1832	48.5353
1828	48.5069
1824	48.4149
1820	48.4027
1816	48.4123
1812	48.3339
1808	48.2289
1804	48.2059
1800	48.2248
1796	48.2063
1792	48.1614
1788	48.1078
1784	48.0725
1780	48.0515
1776	48.06
1772	48.0501
1768	47.9497
1764	47.8755
1760	47.8819
1756	47.8388
1752	47.7163
1748	47.6243
1744	47.6366
1740	47.6818
1736	47.6616
1732	47.5969
1728	47.5273
1724	47.4503
1720	47.4001
1716	47.3543
1712	47.2922
1708	47.2809
1704	47.3305
1700	47.4085
1696	47.3694
1692	47.2208
1688	47.1852
1684	47.1793
1680	47.046
1676	46.9603
1672	47.0043
1668	46.9795
1664	46.8417
1660	46.8256
1656	46.9969
1652	47.0345
1648	46.8524
1644	46.6674
1640	46.5614
1636	46.5379
1632	46.4994
1628	46.4443
1624	46.4674
1620	46.476
1616	46.3681
1612	46.23
1608	46.211
1604	46.2506
1600	46.1899
1596	46.0789
1592	46.0419
1588	46.0608
1584	45.9935
1580	45.8532
1576	45.8156
1572	45.8426
1568	45.815
1564	45.8337
1560	45.9021
1556	45.8255
1552	45.6863
1548	45.656
1544	45.7
1540	45.674
1536	45.541
1532	45.4381
1528	45.4297
1524	45.4593
1520	45.4139
1516	45.3069
1512	45.3196
1508	45.4399
1504	45.3922
1500	45.1938
1496	45.0632
1492	44.9736
1488	44.8705
1484	44.7838
1480	44.73
1476	44.7102
1472	44.6707
1468	44.5896
1464	44.5528
1460	44.6552
1456	44.7951
1452	44.7731
1448	44.6274
1444	44.4807
1440	44.4178
1436	44.4057
1432	44.2755
1428	44.1572
1424	44.243
1420	44.3103
1416	44.1939
1412	44.0217
1408	43.9369
1404	44.0099
1400	44.0544
1396	43.9663
1392	43.893
1388	43.8439
1384	43.7422
1380	43.631
1376	43.6248
1372	43.6501
1368	43.5958
1364	43.5706
1360	43.577
1356	43.4972
1352	43.3752
1348	43.2847
1344	43.2164
1340	43.1528
1336	43.1155
1332	43.1231
1328	43.1395
1324	43.129
1320	43.0954
1316	43.029
1312	42.9511
1308	42.9311
1304	42.9478
1300	42.905
1296	42.8091
1292	42.756
1288	42.7324
1284	42.6059
1280	42.4139
1276	42.3386
1272	42.3681
1268	42.3943
1264	42.3977
1260	42.3724
1256	42.3232
1252	42.2716
1248	42.2104
1244	42.0976
1240	42.0334
1236	42.131
1232	42.2239
1228	42.1721
1224	42.032
1220	41.8828
1216	41.7544
1212	41.6458
1208	41.6309
1204	41.6894
1200	41.664
1196	41.5808
1192	41.5331
1188	41.4809
1184	41.4073
1180	41.3333
1176	41.2941
1172	41.2793
1168	41.2454
1164	41.2348
1160	41.2312
1156	41.1401
1152	41.0148
1148	40.9663
1144	40.9604
1140	40.9729
1136	41.0285
1132	41.0542
1128	40.9631
1124	40.8224
1120	40.7324
1116	40.628
1112	40.4842
1108	40.4817
1104	40.576
1100	40.494
1096	40.329
1092	40.3129
1088	40.3191
1084	40.1989
1080	40.0869
1076	40.1031
1072	40.1512
1068	40.1135
1064	40.0359
1060	39.9726
1056	39.9245
1052	39.8926
1048	39.9221
1044	40.0002
1040	39.9531
1036	39.7376
1032	39.5896
1028	39.6155
1024	39.6659
1020	39.6824
1016	39.6683
1012	39.6004
1008	39.4007
1004	39.1949
1000	39.1976
996	 39.2268
992	 39.1935
988	 39.2367
984	 39.3045
980	 39.2186
976	 38.959
972	 38.7221
968	 38.6782
964	 38.7673
960	 38.7995
956	 38.7773
952	 38.7423
948	 38.684
944	 38.6513
940	 38.5787
936	 38.3805
932	 38.1495
928	 38.0326
924	 38.0277
920	 38.1458
916	 38.2918
912	 38.2251
908	 38.011
904	 37.8909
900	 37.8357
896	 37.7904
892	 37.8959
888	 37.964
884	 37.8132
880	 37.7167
876	 37.7014
872	 37.5321
868	 37.2502
864	 37.1178
860	 37.2454
856	 37.3516
852	 37.2223
848	 36.9196
844	 36.7567
840	 36.9282
836	 37.0062
832	 36.8052
828	 36.5467
824	 36.1967
820	 36.132
816	 36.5141
812	 36.6796
808	 36.5764
804	 36.4051
800	 36.2086
796	 36.1709
792	 36.064
788	 35.8443
784	 35.7996
780	 35.8511
776	 35.8066
772	 35.6023
768	 35.3389
764	 34.9835
760	 34.8289
756	 35.2901
752	 35.7681
748	 35.8937
744	 35.9421
740	 35.5919
736	 34.7862
732	 34.3556
728	 34.5584
724	 34.7563
720	 34.8158
716	 34.9686
712	 34.9284
708	 34.4074
704	 33.6962
700	 33.4377
696	 33.7304
692	 33.9032
688	 33.5851
684	 33.2358
680	 33.2796
676	 33.4814
672	 33.4993
668	 33.4415
664	 33.4361
660	 33.4465
656	 33.4257
652	 33.2198
648	 32.8583
644	 32.4856
640	 32.2044
636	 32.1373
632	 32.305
628	 32.5307
624	 32.4918
620	 32.3204
616	 32.3011
612	 32.175
608	 31.7371
604	 31.3782
600	 31.2826
596	 31.2562
592	 31.1984
588	 30.9711
584	 30.6725
580	 30.5817
576	 30.758
572	 30.795
568	 30.5176
564	 30.4086
560	 30.5255
556	 30.2502
552	 29.5284
548	 29.2352
544	 29.4662
540	 29.4978
536	 29.3931
532	 29.3613
528	 29.0663
524	 28.5007
520	 28.2071
516	 28.2365
512	 28.1064
508	 27.7385
504	 27.3869
500	 27.3301
496	 27.5041
492	 27.3545
488	 26.8371
484	 26.5871
480	 26.773
476	 27.0749
472	 26.8179
468	 25.5895
464	 24.2542
460	 23.9135
456	 25.0259
452	 26.3211
448	 26.4225
444	 26.2875
440	 26.2292
436	 25.7363
432	 24.9488
428	 23.9032
424	 24.1202
420	 25.8542
416	 27.5077
412	 29.5089
408	 28.6253
404	 20.7449
400	 8.796620
396	 3.682613
392	 10.821
388	 23.2785
384	 26.9653
380	 28.559
376	 28.5837
372	 11.9173
370	 -0.073742