File: Bakgrunnsmateriale/MATLAB/FTIR/ftir_data/subBb/Mapping_121/C-4040-8_t61.asc
PE IR       SPECTRUM    SPECTRUM    ASCII       PEDS        1.60
  -1
C-AD3E~1.ASC
17/03/27
19:28:22.00
17/03/27
19:28:49.00
tln
$C-4040-8_t0061$<tbV0>[0.0,0.0,8.0,0.0,27,1,0]
27.028
64

2002,4.07
MIRTGS : RIGHTBACK : INTERNAL 2
MIR : ON : INTERNAL 2
OPTKBR

0.200000
8
8.000000
FILLER
RATIO
SPECTRUM
UNLOCKED 256

DOUBLE
64
COMBINED
1
0
0

0.002000
RATIO

1
0
TRUE
51149
0
LEFT NOT FITTED RIGHT NOT FITTED 0
NONE
NONE
15600
12
4.427000
51148
TRUE
1 0 8 72 0 0 0 0

15798

#HDR
-1
-1
#GR
µM
%T
2.38419e-05
0.0
2.000000
0.002000
12515
8
122.252
38.7729
#DATA
2.000000	 64.952
2.018000	 65.0606
2.036000	 64.9166
2.054000	 65.092
2.072000	 65.1852
2.090000	 65.4961
2.108000	 64.3702
2.126000	 65.2263
2.144000	 64.2996
2.162000	 64.4611
2.180000	 64.896
2.198000	 64.6849
2.216000	 65.8519
2.234000	 65.9121
2.252000	 66.1972
2.270000	 67.0144
2.288000	 63.4229
2.306000	 66.5485
2.324000	 66.1179
2.342000	 66.0207
2.360000	 65.5785
2.378000	 65.6095
2.396000	 64.8692
2.414000	 65.2531
2.432000	 64.7972
2.450000	 65.0764
2.468000	 64.9093
2.486000	 64.8885
2.504000	 64.7965
2.522000	 64.9579
2.540000	 64.991
2.558000	 65.0757
2.576000	 65.2706
2.594000	 65.4249
2.612000	 65.0179
2.630000	 65.4333
2.648000	 65.3715
2.666000	 65.473
2.684000	 65.4046
2.702000	 65.0722
2.720000	 65.1492
2.738000	 65.1582
2.756000	 64.9352
2.774000	 64.9455
2.792000	 65.2015
2.810000	 65.0186
2.828000	 65.1068
2.846000	 65.0099
2.864000	 64.8942
2.882000	 65.2242
2.900000	 65.0893
2.918000	 65.452
2.936000	 65.0922
2.954000	 65.4228
2.972000	 65.3481
2.990000	 65.1541
3.008000	 65.2696
3.026000	 65.2153
3.044000	 65.0692
3.062000	 65.3862
3.080000	 65.1512
3.098000	 65.1602
3.116000	 64.9569
3.134000	 64.8488
3.152000	 65.3103
3.170000	 65.0999
3.188000	 65.2055
3.206000	 65.0234
3.224000	 65.5153
3.242000	 65.3455
3.260000	 65.188
3.278000	 65.3759
3.296000	 65.1012
3.314000	 65.2496
3.332000	 65.1587
3.350000	 65.2547
3.368000	 65.1304
3.386000	 65.2096
3.404000	 65.135
3.422000	 64.9437
3.440000	 65.263
3.458000	 65.0198
3.476000	 65.2619
3.494000	 65.1903
3.512000	 65.0158
3.530000	 65.0161
3.548000	 65.3228
3.566000	 65.3198
3.584000	 65.1186
3.602000	 65.2142
3.620000	 65.1714
3.638000	 65.3469
3.656000	 65.3569
3.674000	 65.2439
3.692000	 65.292
3.710000	 65.3227
3.728000	 65.1636
3.746000	 65.0933
3.764000	 65.3037
3.782000	 65.19
3.800000	 65.2913
3.818000	 65.2626
3.836000	 65.2985
3.854000	 65.363
3.872000	 65.3225
3.890000	 65.3081
3.908000	 65.3629
3.926000	 65.3704
3.944000	 65.2165
3.962000	 65.1792
3.980000	 65.2728
3.998000	 65.3968
4.016000	 65.2633
4.034000	 65.3264
4.052000	 65.1709
4.070000	 65.2491
4.088000	 65.3271
4.106000	 65.476
4.124000	 65.651
4.141999	 65.347
4.160000	 65.1451
4.178000	 65.289
4.196000	 65.145
4.214000	 65.2921
4.232000	 65.3424
4.250000	 65.2596
4.268000	 65.3304
4.286000	 65.1836
4.304000	 65.2371
4.322000	 65.2068
4.340000	 65.3789
4.358000	 65.3211
4.375999	 65.3063
4.394000	 65.219
4.412000	 65.2848
4.430000	 65.3185
4.448000	 65.3871
4.466000	 65.3697
4.484000	 65.4034
4.502000	 65.3559
4.520000	 65.2902
4.538000	 65.1507
4.556000	 65.2201
4.574000	 65.289
4.592000	 65.2432
4.609999	 65.2796
4.628000	 65.4555
4.646000	 65.5102
4.664000	 65.3876
4.682000	 65.5114
4.700000	 65.3507
4.718000	 65.2858
4.736000	 65.356
4.754000	 65.335
4.772000	 65.3813
4.790000	 65.3341
4.808000	 64.931
4.826000	 64.9629
4.843999	 65.1677
4.862000	 65.4793
4.880000	 65.2442
4.898000	 65.2762
4.916000	 65.3125
4.934000	 65.4048
4.952000	 65.2158
4.970000	 65.2935
4.988000	 65.3438
5.006000	 65.2988
5.024000	 65.4075
5.042000	 65.398
5.060000	 65.3647
5.077999	 65.3394
5.096000	 65.3058
5.114000	 65.3434
5.132000	 65.3899
5.150000	 65.4386
5.168000	 65.4557
5.186000	 65.4282
5.204000	 65.4086
5.222000	 65.4131
5.240000	 65.35
5.258000	 65.3159
5.276000	 65.4047
5.294000	 65.348
5.312000	 65.2736
5.330000	 65.3448
5.348000	 65.322
5.366000	 65.4285
5.384000	 65.3268
5.402000	 65.2535
5.420000	 65.2625
5.438000	 65.3744
5.456000	 65.4518
5.474000	 65.4315
5.492000	 65.4063
5.510000	 65.4226
5.528000	 65.373
5.546000	 65.3786
5.564000	 65.3709
5.582000	 65.3643
5.600000	 65.2973
5.618000	 65.2508
5.636000	 65.3738
5.654000	 65.3947
5.672000	 65.2043
5.690000	 65.1838
5.708000	 65.2363
5.726000	 65.1401
5.744000	 65.0499
5.762000	 65.035
5.780000	 65.0462
5.798000	 64.9687
5.816000	 64.9755
5.834000	 65.1468
5.852000	 65.2288
5.870000	 65.3354
5.888000	 65.3262
5.906000	 65.2893
5.923999	 65.325
5.942000	 65.2964
5.960000	 65.2134
5.978000	 65.134
5.996000	 65.2231
6.014000	 65.2974
6.032000	 65.1923
6.050000	 65.2097
6.068000	 65.1841
6.086000	 65.2246
6.104000	 65.3892
6.122000	 65.393
6.140000	 65.3144
6.158000	 65.2556
6.176000	 65.2142
6.194000	 65.1596
6.212000	 65.1088
6.230000	 65.0754
6.248000	 65.0444
6.266000	 65.0492
6.284000	 65.0757
6.302000	 65.1609
6.320000	 65.2591
6.338000	 65.3195
6.356000	 65.3314
6.374000	 65.2724
6.392000	 65.1525
6.410000	 65.0798
6.428000	 65.1583
6.446000	 65.2178
6.464000	 65.0905
6.482000	 65.0403
6.500000	 65.0754
6.518000	 65.0888
6.536000	 65.0949
6.554000	 65.0399
6.572000	 65.0186
6.590000	 65.0981
6.608000	 65.1439
6.626000	 65.1296
6.644000	 65.1668
6.662000	 65.1704
6.680000	 64.9866
6.698000	 64.8345
6.716000	 64.9951
6.734000	 65.2011
6.752000	 65.2176
6.770000	 65.1691
6.788000	 65.1597
6.806000	 65.2059
6.824000	 65.255
6.842000	 65.1926
6.860000	 65.0445
6.878000	 64.9694
6.896000	 65.0301
6.914000	 65.09
6.932000	 65.123
6.950000	 65.1826
6.968000	 65.1949
6.986000	 65.174
7.004000	 65.201
7.022000	 65.2249
7.040000	 65.1864
7.058000	 65.1499
7.076000	 65.1516
7.094000	 65.1273
7.112000	 65.0959
7.130000	 65.1291
7.148000	 65.1846
7.166000	 65.2145
7.184000	 65.2406
7.202000	 65.2649
7.220000	 65.2631
7.238000	 65.2123
7.256000	 65.1209
7.274000	 65.0612
7.292000	 65.1039
7.310000	 65.1852
7.328000	 65.1822
7.346000	 65.1277
7.364000	 65.1293
7.382000	 65.1454
7.400000	 65.1018
7.418000	 65.0679
7.436000	 65.1023
7.454000	 65.1347
7.472000	 65.1063
7.490000	 65.0457
7.508000	 65.0014
7.526000	 64.9995
7.544000	 65.021
7.562000	 65.01
7.580000	 64.9657
7.598000	 64.9559
7.616000	 64.9957
7.634000	 65.0172
7.652000	 64.9857
7.670000	 64.9596
7.688000	 64.9952
7.706000	 65.0555
7.724000	 65.0708
7.742000	 65.035
7.760000	 64.9869
7.778000	 64.9494
7.796000	 64.9319
7.814000	 64.9482
7.832000	 64.9913
7.850000	 65.0223
7.868000	 65.0119
7.886000	 64.9814
7.904000	 64.9884
7.922000	 65.0508
7.940000	 65.1029
7.958000	 65.0715
7.976000	 64.9794
7.994000	 64.9197
8.012000	 64.9411
8.030000	 65.0101
8.048000	 65.0666
8.065999	 65.0736
8.084000	 65.0333
8.102000	 64.9847
8.120000	 64.9779
8.138000	 65.0265
8.155999	 65.094
8.173999	 65.1365
8.192000	 65.1423
8.210000	 65.1178
8.228000	 65.0701
8.246000	 65.0258
8.263999	 65.024
8.282000	 65.0599
8.300000	 65.0813
8.318000	 65.0688
8.336000	 65.0654
8.353999	 65.1016
8.372000	 65.1412
8.390000	 65.1317
8.408000	 65.0766
8.426000	 65.0252
8.443999	 65.0067
8.462000	 64.9999
8.480000	 64.9717
8.498000	 64.9247
8.516000	 64.8958
8.533999	 64.9103
8.552000	 64.9486
8.570000	 64.9658
8.588000	 64.9402
8.606000	 64.8916
8.624000	 64.8542
8.641999	 64.8448
8.660000	 64.8627
8.678000	 64.9059
8.696000	 64.9717
8.714000	 65.0414
8.731999	 65.0759
8.750000	 65.0313
8.768000	 64.891
8.786000	 64.6921
8.804000	 64.5238
8.821999	 64.4744
8.840000	 64.5545
8.858000	 64.6803
8.876000	 64.7486
8.894000	 64.7333
8.911999	 64.6932
8.930000	 64.6891
8.948000	 64.7122
8.966000	 64.7037
8.984000	 64.6403
9.001999	 64.5802
9.020000	 64.6248
9.038000	 64.8366
9.056000	 65.1794
9.074000	 65.5117
9.092000	 65.6538
9.109999	 65.5173
9.128000	 65.1955
9.146000	 64.9106
9.164000	 64.8354
9.182000	 64.9512
9.199999	 65.0882
9.218000	 65.0913
9.236000	 64.9422
9.254000	 64.7345
9.272000	 64.5648
9.289999	 64.4631
9.308000	 64.408
9.326000	 64.3716
9.344000	 64.3439
9.362000	 64.3255
9.379999	 64.3278
9.398000	 64.368
9.416000	 64.4556
9.434000	 64.5771
9.452000	 64.6949
9.469999	 64.7672
9.488000	 64.7682
9.506000	 64.7001
9.524000	 64.5922
9.542000	 64.4879
9.560000	 64.4267
9.577999	 64.4262
9.596000	 64.4753
9.614000	 64.5407
9.632000	 64.5875
9.650000	 64.5983
9.667999	 64.5776
9.686000	 64.5422
9.704000	 64.5106
9.722000	 64.4934
9.740000	 64.4917
9.757999	 64.4976
9.776000	 64.4949
9.794000	 64.4693
9.812000	 64.4237
9.830000	 64.3869
9.847999	 64.4
9.866000	 64.4837
9.884000	 64.614
9.902000	 64.7346
9.920000	 64.8004
9.937999	 64.8189
9.956000	 64.8477
9.974000	 64.9412
9.992000	 65.0994
10.01	65.2604
10.028	65.3449
10.046	65.3184
10.064	65.2122
10.082	65.0929
10.1	65.0147
10.118	64.9892
10.136	64.9942
10.154	65.0036
10.172	65.0054
10.19	64.9985
10.208	64.9784
10.226	64.9342
10.244	64.8558
10.262	64.7479
10.28	64.6309
10.298	64.5309
10.316	64.4665
10.334	64.4403
10.352	64.4445
10.37	64.4674
10.388	64.4998
10.406	64.5365
10.424	64.5728
10.442	64.606
10.46	64.6347
10.478	64.6591
10.496	64.6797
10.514	64.6941
10.532	64.6972
10.55	64.6835
10.568	64.6518
10.586	64.6074
10.604	64.5612
10.622	64.5268
10.64	64.5145
10.658	64.5291
10.676	64.5673
10.694	64.6183
10.712	64.6678
10.73	64.7045
10.748	64.7221
10.766	64.7218
10.784	64.7102
10.802	64.6951
10.82	64.6821
10.838	64.6738
10.856	64.6698
10.874	64.668
10.892	64.6649
10.91	64.6558
10.928	64.6367
10.946	64.6072
10.964	64.572
10.982	64.5386
11	64.5116
11.018	64.4879
11.036	64.4588
11.054	64.4153
11.072	64.3564
11.09	64.2918
11.108	64.238
11.126	64.2122
11.144	64.2219
11.162	64.2615
11.18	64.3163
11.198	64.3694
11.216	64.4104
11.234	64.4386
11.252	64.4605
11.27	64.4825
11.288	64.5049
11.306	64.5199
11.324	64.5138
11.342	64.475
11.36	64.4024
11.378	64.3098
11.396	64.2211
11.414	64.1642
11.432	64.1577
11.45	64.2039
11.468	64.2888
11.486	64.3905
11.504	64.4877
11.522	64.5668
11.54	64.6246
11.558	64.6642
11.576	64.6905
11.594	64.7057
11.612	64.7082
11.63	64.6947
11.648	64.6638
11.666	64.6188
11.684	64.5683
11.702	64.5235
11.72	64.4951
11.738	64.4892
11.756	64.506
11.774	64.5399
11.792	64.5825
11.81	64.6261
11.828	64.6653
11.846	64.6961
11.864	64.7159
11.882	64.7226
11.9	64.7138
11.918	64.6876
11.936	64.6435
11.954	64.5848
11.972	64.5182
11.99	64.4527
12.008	64.3991
12.026	64.3658
12.044	64.357
12.062	64.3699
12.08	64.3955
12.098	64.4209
12.116	64.4335
12.134	64.4264
12.152	64.4005
12.17	64.3646
12.188	64.3328
12.206	64.3194
12.224	64.3344
12.242	64.3795
12.26	64.4487
12.278	64.5291
12.296	64.6041
12.314	64.6585
12.332	64.6817
12.35	64.6699
12.368	64.6255
12.386	64.5571
12.404	64.4754
12.422	64.3913
12.44	64.3143
12.458	64.2505
12.476	64.2034
12.494	64.1734
12.512	64.1586
12.53	64.1548
12.548	64.1566
12.566	64.1579
12.584	64.1545
12.602	64.1443
12.62	64.1284
12.638	64.1101
12.656	64.0946
12.674	64.0866
12.692	64.0889
12.71	64.1029
12.728	64.128
12.746	64.1613
12.764	64.1995
12.782	64.2392
12.8	64.2778
12.818	64.3135
12.836	64.3454
12.854	64.3733
12.872	64.3971
12.89	64.4158
12.908	64.4282
12.926	64.432
12.944	64.4242
12.962	64.4025
12.98	64.3658
12.998	64.3151
13.016	64.2543
13.034	64.1891
13.052	64.1266
13.07	64.0727
13.088	64.0298
13.106	63.9961
13.124	63.9656
13.142	63.9308
13.16	63.8842
13.178	63.8232
13.196	63.7505
13.214	63.6754
13.232	63.6111
13.25	63.5706
13.268	63.5634
13.286	63.5911
13.304	63.6461
13.322	63.7125
13.34	63.7699
13.358	63.7975
13.376	63.78
13.394	63.7111
13.412	63.5947
13.43	63.4439
13.448	63.2771
13.466	63.1144
13.484	62.973
13.502	62.8643
13.52	62.7932
13.538	62.7586
13.556	62.7556
13.574	62.7775
13.592	62.8181
13.61	62.8734
13.628	62.9412
13.646	63.02
13.664	63.1082
13.682	63.2025
13.7	63.2981
13.718	63.388
13.736	63.4649
13.754	63.5223
13.772	63.5565
13.79	63.5672
13.808	63.5577
13.826	63.5351
13.844	63.5077
13.862	63.4835
13.88	63.4689
13.898	63.4672
13.916	63.4784
13.934	63.5
13.952	63.5278
13.97	63.5568
13.988	63.5833
14.006	63.6049
14.024	63.6218
14.042	63.6364
14.06	63.6525
14.078	63.6745
14.096	63.7059
14.114	63.7493
14.132	63.8053
14.15	63.8722
14.168	63.9463
14.186	64.0221
14.204	64.0932
14.222	64.1525
14.24	64.1949
14.258	64.2171
14.276	64.2177
14.294	64.1979
14.312	64.1608
14.33	64.1113
14.348	64.0549
14.366	63.9973
14.384	63.9429
14.402	63.8945
14.42	63.8528
14.438	63.8172
14.456	63.7856
14.474	63.755
14.492	63.7224
14.51	63.6852
14.528	63.6422
14.546	63.5933
14.564	63.5395
14.582	63.4827
14.6	63.4249
14.618	63.3687
14.636	63.3165
14.654	63.2702
14.672	63.2312
14.69	63.2
14.708	63.1767
14.726	63.1608
14.744	63.1512
14.762	63.1461
14.78	63.1436
14.798	63.1418
14.816	63.1389
14.834	63.1333
14.852	63.1236
14.87	63.1094
14.888	63.0904
14.906	63.0676
14.924	63.0424
14.942	63.0169
14.96	62.9937
14.978	62.9757
14.996	62.9654
15.014	62.9653
15.032	62.9774
15.05	63.002
15.068	63.0386
15.086	63.0856
15.104	63.1405
15.122	63.1991
15.14	63.2572
15.158	63.3107
15.176	63.3556
15.194	63.3885
15.212	63.4069
15.23	63.4102
15.248	63.3982
15.266	63.3718
15.284	63.3333
15.302	63.2855
15.32	63.2311
15.338	63.1722
15.356	63.111
15.374	63.0494
15.392	62.9888
15.41	62.9305
15.428	62.8758
15.446	62.8265
15.464	62.7844
15.482	62.751
15.5	62.7281
15.518	62.717
15.536	62.7178
15.554	62.7299
15.572	62.7518
15.59	62.7801
15.608	62.8114
15.626	62.8425
15.644	62.8692
15.662	62.8877
15.68	62.8957
15.698	62.8917
15.716	62.8748
15.734	62.8461
15.752	62.8073
15.77	62.7603
15.788	62.7093
15.806	62.658
15.824	62.6097
15.842	62.5683
15.86	62.5372
15.878	62.5183
15.896	62.5136
15.914	62.5243
15.932	62.5499
15.95	62.5894
15.968	62.641
15.986	62.7012
16.004	62.7668
16.022	62.8346
16.04	62.8995
16.058	62.9585
16.076	63.0087
16.094	63.0473
16.112	63.073
16.13	63.0856
16.148	63.0856
16.166	63.0747
16.184	63.0545
16.202	63.0266
16.22	62.9931
16.238	62.9553
16.256	62.9142
16.274	62.8708
16.292	62.8254
16.31	62.7782
16.328	62.7295
16.346	62.68
16.364	62.63
16.382	62.5806
16.4	62.5324
16.418	62.4862
16.436	62.4425
16.454	62.4015
16.472	62.3631
16.49	62.3264
16.508	62.2903
16.526	62.2538
16.544	62.2149
16.562	62.1723
16.58	62.1252
16.598	62.0723
16.616	62.0141
16.634	61.9507
16.652	61.8843
16.67	61.8171
16.688	61.7515
16.706	61.6919
16.724	61.6405
16.742	61.6009
16.76	61.576
16.778	61.5669
16.796	61.5753
16.814	61.6005
16.832	61.6421
16.85	61.6976
16.868	61.764
16.886	61.8389
16.904	61.917
16.922	61.9957
16.94	62.0713
16.958	62.1403
16.976	62.2013
16.994	62.2516
17.012	62.291
17.03	62.319
17.048	62.3365
17.066	62.3444
17.084	62.344
17.102	62.3374
17.12	62.3257
17.138	62.311
17.156	62.2938
17.174	62.275
17.192	62.255
17.21	62.2339
17.228	62.2116
17.246	62.1881
17.264	62.1632
17.282	62.1372
17.3	62.1104
17.318	62.0838
17.336	62.0587
17.354	62.0361
17.372	62.0183
17.39	62.0063
17.408	62.0021
17.426	62.0066
17.444	62.0207
17.462	62.0445
17.48	62.0774
17.498	62.1185
17.516	62.1656
17.534	62.2175
17.552	62.2701
17.57	62.3225
17.588	62.3704
17.606	62.4124
17.624	62.4457
17.642	62.4689
17.66	62.4811
17.678	62.4817
17.696	62.4712
17.714	62.4506
17.732	62.4217
17.75	62.386
17.768	62.3467
17.786	62.3049
17.804	62.2643
17.822	62.2256
17.84	62.1913
17.858	62.1622
17.876	62.1395
17.894	62.1232
17.912	62.1133
17.93	62.1087
17.948	62.1089
17.966	62.1119
17.984	62.1172
18.002	62.1229
18.02	62.128
18.038	62.1316
18.056	62.1325
18.074	62.1303
18.092	62.1245
18.11	62.115
18.128	62.1022
18.146	62.0862
18.164	62.0674
18.182	62.0463
18.2	62.0231
18.218	61.9983
18.236	61.9719
18.254	61.944
18.272	61.9148
18.29	61.8842
18.308	61.8523
18.326	61.8195
18.344	61.786
18.362	61.7524
18.38	61.7191
18.398	61.6873
18.416	61.6576
18.434	61.6313
18.452	61.6094
18.47	61.5925
18.488	61.5815
18.506	61.5766
18.524	61.5775
18.542	61.5842
18.56	61.5947
18.578	61.609
18.596	61.6237
18.614	61.6387
18.632	61.6501
18.65	61.6578
18.668	61.6584
18.686	61.6518
18.704	61.6358
18.722	61.6108
18.74	61.5759
18.758	61.532
18.776	61.4801
18.794	61.421
18.812	61.357
18.83	61.2891
18.848	61.2201
18.866	61.1509
18.884	61.0838
18.902	61.0194
18.92	60.9592
18.938	60.903
18.956	60.8516
18.974	60.8042
18.992	60.7605
19.01	60.7198
19.028	60.6813
19.046	60.6447
19.064	60.6091
19.082	60.5749
19.1	60.5417
19.118	60.5103
19.136	60.4815
19.154	60.4559
19.172	60.4353
19.19	60.4201
19.208	60.4128
19.226	60.4133
19.244	60.4234
19.262	60.443
19.28	60.4727
19.298	60.5121
19.316	60.5604
19.334	60.6173
19.352	60.6797
19.37	60.748
19.388	60.8177
19.406	60.8892
19.424	60.9577
19.442	61.0232
19.46	61.0817
19.478	61.1327
19.496	61.1739
19.514	61.2044
19.532	61.2235
19.55	61.2304
19.568	61.2259
19.586	61.2101
19.604	61.1844
19.622	61.1506
19.64	61.1093
19.658	61.0643
19.676	61.0154
19.694	60.9672
19.712	60.9194
19.73	60.8757
19.748	60.836
19.766	60.8021
19.784	60.775
19.802	60.754
19.82	60.7396
19.838	60.7307
19.856	60.7262
19.874	60.7255
19.892	60.7255
19.91	60.7264
19.928	60.7242
19.946	60.7193
19.964	60.7087
19.982	60.6922
20	60.6689
20.018	60.6381
20.036	60.6005
20.054	60.5563
20.072	60.506
20.09	60.452
20.108	60.3938
20.126	60.3358
20.144	60.2775
20.162	60.2226
20.18	60.1725
20.198	60.1284
20.216	60.0929
20.234	60.0655
20.252	60.0478
20.27	60.0397
20.288	60.0403
20.306	60.0501
20.324	60.0666
20.342	60.089
20.36	60.1161
20.378	60.1445
20.396	60.1748
20.414	60.2026
20.432	60.2283
20.45	60.2494
20.468	60.2645
20.486	60.2736
20.504	60.2749
20.522	60.2689
20.54	60.2557
20.558	60.2349
20.576	60.2082
20.594	60.1759
20.612	60.1387
20.63	60.0985
20.648	60.0548
20.666	60.0102
20.684	59.9644
20.702	59.9189
20.72	59.8748
20.738	59.8318
20.756	59.7913
20.774	59.7529
20.792	59.7165
20.81	59.6822
20.828	59.6496
20.846	59.618
20.864	59.5878
20.882	59.5582
20.9	59.529
20.918	59.5005
20.936	59.4725
20.954	59.445
20.972	59.4189
20.99	59.3935
21.008	59.3709
21.026	59.3511
21.044	59.335
21.062	59.325
21.08	59.3201
21.098	59.3236
21.116	59.3359
21.134	59.3577
21.152	59.3914
21.17	59.4364
21.188	59.4943
21.206	59.5656
21.224	59.6496
21.242	59.7465
21.26	59.8562
21.278	59.9763
21.296	60.1075
21.314	60.2475
21.332	60.3928
21.35	60.5447
21.368	60.6971
21.386	60.8494
21.404	60.9997
21.422	61.1412
21.44	61.2762
21.458	61.3987
21.476	61.5063
21.494	61.5992
21.512	61.6723
21.53	61.7263
21.548	61.7601
21.566	61.772
21.584	61.7629
21.602	61.7339
21.62	61.6838
21.638	61.6156
21.656	61.5324
21.674	61.4329
21.692	61.323
21.71	61.2032
21.728	61.0749
21.746	60.9447
21.764	60.8111
21.782	60.6775
21.8	60.5473
21.818	60.4191
21.836	60.2962
21.854	60.1796
21.872	60.0685
21.89	59.963
21.908	59.8637
21.926	59.7683
21.944	59.6763
21.962	59.5877
21.98	59.4986
21.998	59.4091
22.016	59.3182
22.034	59.2226
22.052	59.1233
22.07	59.0188
22.088	58.9075
22.106	58.7902
22.124	58.6667
22.142	58.5362
22.16	58.3999
22.178	58.2606
22.196	58.1167
22.214	57.9717
22.232	57.8294
22.25	57.6877
22.268	57.552
22.286	57.4256
22.304	57.3066
22.322	57.2009
22.34	57.109
22.358	57.031
22.376	56.9714
22.394	56.9295
22.412	56.9059
22.43	56.9025
22.448	56.919
22.466	56.9543
22.484	57.0083
22.502	57.0814
22.52	57.17
22.538	57.2732
22.556	57.3912
22.574	57.5189
22.592	57.6564
22.61	57.8029
22.628	57.9523
22.646	58.1062
22.664	58.2621
22.682	58.4142
22.7	58.5649
22.718	58.7106
22.736	58.8468
22.754	58.9759
22.772	59.0942
22.79	59.1985
22.808	59.2906
22.826	59.3678
22.844	59.428
22.862	59.4725
22.88	59.5005
22.898	59.511
22.916	59.5048
22.934	59.4828
22.952	59.4449
22.97	59.3914
22.988	59.3241
23.006	59.2428
23.024	59.1481
23.042	59.043
23.06	58.9273
23.078	58.8016
23.096	58.6702
23.114	58.5325
23.132	58.3894
23.15	58.2461
23.168	58.1014
23.186	57.9567
23.204	57.8175
23.222	57.6827
23.24	57.5535
23.258	57.4353
23.276	57.3278
23.294	57.231
23.312	57.1479
23.33	57.0778
23.348	57.0214
23.366	56.9813
23.384	56.9568
23.402	56.9486
23.42	56.9602
23.438	56.9916
23.456	57.0424
23.474	57.1147
23.492	57.2099
23.51	57.3264
23.528	57.4624
23.546	57.6177
23.564	57.7925
23.582	57.9848
23.6	58.194
23.618	58.4205
23.636	58.6632
23.654	58.9221
23.672	59.1975
23.69	59.4866
23.708	59.7877
23.726	60.103
23.744	60.4274
23.762	60.757
23.78	61.0951
23.798	61.437
23.816	61.7776
23.834	62.1202
23.852	62.4613
23.87	62.795
23.888	63.1224
23.906	63.4434
23.924	63.7554
23.942	64.0578
23.96	64.3514
23.978	64.6365
23.996	64.9122
24.014	65.1787
24.032	65.4393
24.05	65.696
24.068	65.9468
24.086	66.1946
24.104	66.4421
24.122	66.6885
24.14	66.9336
24.158	67.1778
24.176	67.4233
24.194	67.6672
24.212	67.9047
24.23	68.1376
24.248	68.3658
24.266	68.5792
24.284	68.7734
24.302	68.9547
24.32	69.1113
24.338	69.2321
24.356	69.3251
24.374	69.3833
24.392	69.395
24.41	69.3617
24.428	69.2846
24.446	69.1569
24.464	68.9742
24.482	68.7399
24.5	68.4561
24.518	68.1233
24.536	67.737
24.554	67.3066
24.572	66.8439
24.59	66.3425
24.608	65.8065
24.626	65.2533
24.644	64.6873
24.662	64.0984
24.68	63.5106
24.698	62.946
24.716	62.3904
24.734	61.8532
24.752	61.3533
24.77	60.8865
24.788	60.4505
24.806	60.0705
24.824	59.7621
24.842	59.5071
24.86	59.3258
24.878	59.2433
24.896	59.2481
24.914	59.3439
24.932	59.5574
24.95	59.9012
24.968	60.3576
24.986	60.9476
25.004	61.6938
25.022	62.5885
25.04	63.6307
25.058	64.8302
25.076	66.195
25.094	67.7207
25.112	69.3972
25.13	71.2159
25.148	73.1929
25.166	75.311
25.184	77.5372
25.202	79.8643
25.22	82.3158
25.238	84.8412
25.256	87.389
25.274	89.9932
25.292	92.6362
25.31	95.2557
25.328	97.8196
25.346	100.373
25.364	102.865
25.382	105.238
25.4	107.505
25.418	109.675
25.436	111.701
25.454	113.548
25.472	115.245
25.49	116.779
25.508	118.125
25.526	119.279
25.544	120.252
25.562	121.037
25.58	121.627
25.598	122.018
25.616	122.219
25.634	122.239
25.652	122.081
25.67	121.736
25.688	121.221
25.706	120.559
25.724	119.743
25.742	118.768
25.76	117.667
25.778	116.468
25.796	115.141
25.814	113.706
25.832	112.214
25.85	110.691
25.868	109.096
25.886	107.471
25.904	105.868
25.922	104.292
25.94	102.711
25.958	101.185
25.976	99.7751
25.994	98.4583
26.012	97.2289
26.03	96.1312
26.048	95.2041
26.066	94.4221
26.084	93.7896
26.102	93.3278
26.12	93.0549
26.138	92.9654
26.156	93.0432
26.174	93.2724
26.192	93.6609
26.21	94.2247
26.228	94.9113
26.246	95.6664
26.264	96.5087
26.282	97.4554
26.3	98.4304
26.318	99.3601
26.336	100.288
26.354	101.212
26.372	102.055
26.39	102.745
26.408	103.334
26.426	103.81
26.444	104.117
26.462	104.21
26.48	104.12
26.498	103.845
26.516	103.363
26.534	102.656
26.552	101.722
26.57	100.585
26.588	99.2668
26.606	97.7748
26.624	96.0721
26.642	94.2093
26.66	92.247
26.678	90.2095
26.696	88.0336
26.714	85.7878
26.732	83.5531
26.75	81.3627
26.768	79.1443
26.786	76.9641
26.804	74.8992
26.822	72.9832
26.84	71.1528
26.858	69.4548
26.876	67.9442
26.894	66.6507
26.912	65.5346
26.93	64.609
26.948	63.892
26.966	63.4275
26.984	63.2513
27.002	63.2401
27.02	63.2613
27.028	63.2499