File: Bakgrunnsmateriale/MATLAB/FTIR/ftir_data/subBb/Mapping_121/C-4040-8_t63.asc
PE IR       SPECTRUM    SPECTRUM    ASCII       PEDS        1.60
  -1
C-AD36~1.ASC
17/03/27
19:37:36.00
17/03/27
19:38:02.00
tln
$C-4040-8_t0063$<tbV0>[-5.2,0.0,8.0,0.0,27,1,0]
27.028
64

2002,4.07
MIRTGS : RIGHTBACK : INTERNAL 2
MIR : ON : INTERNAL 2
OPTKBR

0.200000
8
8.000000
FILLER
RATIO
SPECTRUM
UNLOCKED 256

DOUBLE
64
COMBINED
1
0
0

0.002000
RATIO

1
0
TRUE
51149
0
LEFT NOT FITTED RIGHT NOT FITTED 0
NONE
NONE
15600
12
4.427000
51148
TRUE
1 0 8 72 0 0 0 0

15798

#HDR
-1
-1
#GR
µM
%T
2.38419e-05
0.0
2.000000
0.002000
12515
8
106.044
50.1484
#DATA
2.000000	 64.9925
2.018000	 65.5064
2.036000	 64.762
2.054000	 64.832
2.072000	 65.0211
2.090000	 65.0672
2.108000	 64.4287
2.126000	 64.7403
2.144000	 64.4413
2.162000	 64.552
2.180000	 65.072
2.198000	 65.0253
2.216000	 65.2716
2.234000	 65.9838
2.252000	 66.1507
2.270000	 66.2044
2.288000	 50.1484
2.306000	 67.0127
2.324000	 65.8949
2.342000	 66.0611
2.360000	 65.4978
2.378000	 65.2507
2.396000	 63.9521
2.414000	 64.9874
2.432000	 64.7791
2.450000	 64.7186
2.468000	 64.6658
2.486000	 64.7602
2.504000	 65.0167
2.522000	 64.9236
2.540000	 65.14
2.558000	 64.9756
2.576000	 65.2876
2.594000	 65.2521
2.612000	 65.0345
2.630000	 65.2424
2.648000	 65.1482
2.666000	 65.0913
2.684000	 65.0574
2.702000	 64.9942
2.720000	 64.9128
2.738000	 65.1165
2.756000	 65.1746
2.774000	 64.9873
2.792000	 65.1724
2.810000	 64.884
2.828000	 65.0028
2.846000	 64.9834
2.864000	 64.8864
2.882000	 65.4251
2.900000	 65.2482
2.918000	 65.2432
2.936000	 65.2433
2.954000	 65.2185
2.972000	 65.3416
2.990000	 65.0687
3.008000	 65.1881
3.026000	 65.0482
3.044000	 65.0844
3.062000	 65.2167
3.080000	 65.0979
3.098000	 65.1163
3.116000	 65.1068
3.134000	 65.0751
3.152000	 65.3386
3.170000	 65.0904
3.188000	 64.8757
3.206000	 64.9342
3.224000	 65.243
3.242000	 65.258
3.260000	 65.2816
3.278000	 65.1736
3.296000	 65.2047
3.314000	 65.2091
3.332000	 65.0446
3.350000	 65.0596
3.368000	 65.0704
3.386000	 65.1995
3.404000	 65.1194
3.422000	 64.9678
3.440000	 65.118
3.458000	 64.9862
3.476000	 65.1169
3.494000	 65.1472
3.512000	 64.9736
3.530000	 65.076
3.548000	 65.1012
3.566000	 65.2151
3.584000	 65.1454
3.602000	 65.202
3.620000	 65.0685
3.638000	 65.1328
3.656000	 65.2079
3.674000	 65.0942
3.692000	 65.1439
3.710000	 65.0847
3.728000	 65.1069
3.746000	 65.2205
3.764000	 65.2971
3.782000	 65.1201
3.800000	 65.2399
3.818000	 65.2247
3.836000	 65.263
3.854000	 65.2046
3.872000	 65.2153
3.890000	 65.1464
3.908000	 65.3171
3.926000	 65.3378
3.944000	 65.1605
3.962000	 65.1666
3.980000	 65.3181
3.998000	 65.2428
4.016000	 65.0766
4.034000	 65.1972
4.052000	 65.2905
4.070000	 65.2962
4.088000	 65.4562
4.106000	 65.2564
4.124000	 65.3834
4.141999	 64.9878
4.160000	 65.5384
4.178000	 65.4035
4.196000	 65.2996
4.214000	 65.2616
4.232000	 65.337
4.250000	 65.3037
4.268000	 65.2075
4.286000	 65.2503
4.304000	 65.0651
4.322000	 65.0974
4.340000	 65.3469
4.358000	 65.2772
4.375999	 65.2324
4.394000	 65.2124
4.412000	 65.193
4.430000	 65.2692
4.448000	 65.4381
4.466000	 65.3807
4.484000	 65.502
4.502000	 65.1871
4.520000	 65.2699
4.538000	 65.1451
4.556000	 65.2325
4.574000	 65.201
4.592000	 65.1462
4.609999	 65.226
4.628000	 65.3313
4.646000	 65.2906
4.664000	 65.2448
4.682000	 65.2631
4.700000	 65.2648
4.718000	 65.2358
4.736000	 65.3124
4.754000	 65.3399
4.772000	 65.2662
4.790000	 65.1608
4.808000	 65.2661
4.826000	 65.1984
4.843999	 65.1424
4.862000	 65.2005
4.880000	 65.2403
4.898000	 65.1617
4.916000	 65.3561
4.934000	 65.3939
4.952000	 65.1179
4.970000	 65.1896
4.988000	 65.3335
5.006000	 65.2395
5.024000	 65.3446
5.042000	 65.2805
5.060000	 65.2587
5.077999	 65.2736
5.096000	 65.181
5.114000	 65.2154
5.132000	 65.2648
5.150000	 65.2335
5.168000	 65.2814
5.186000	 65.2812
5.204000	 65.1666
5.222000	 65.2248
5.240000	 65.189
5.258000	 65.183
5.276000	 65.3437
5.294000	 65.3863
5.312000	 65.3386
5.330000	 65.262
5.348000	 65.1842
5.366000	 65.1956
5.384000	 65.2377
5.402000	 65.2496
5.420000	 65.2057
5.438000	 65.2252
5.456000	 65.2518
5.474000	 65.335
5.492000	 65.2706
5.510000	 65.276
5.528000	 65.2875
5.546000	 65.2851
5.564000	 65.2032
5.582000	 65.2257
5.600000	 65.2906
5.618000	 65.2579
5.636000	 65.1972
5.654000	 65.275
5.672000	 65.1366
5.690000	 65.1108
5.708000	 65.1566
5.726000	 65.0825
5.744000	 64.9785
5.762000	 64.9284
5.780000	 64.9647
5.798000	 65.0303
5.816000	 65.1196
5.834000	 65.0611
5.852000	 65.0634
5.870000	 65.1024
5.888000	 65.1411
5.906000	 65.1071
5.923999	 65.0289
5.942000	 65.0708
5.960000	 65.2118
5.978000	 65.2903
5.996000	 65.2865
6.014000	 65.2067
6.032000	 65.1433
6.050000	 65.206
6.068000	 65.2047
6.086000	 65.1295
6.104000	 65.1174
6.122000	 65.1196
6.140000	 65.1105
6.158000	 65.1543
6.176000	 65.1815
6.194000	 65.0918
6.212000	 65.0032
6.230000	 65.0152
6.248000	 65.0823
6.266000	 65.0693
6.284000	 65.0073
6.302000	 65.0132
6.320000	 65.0828
6.338000	 65.2228
6.356000	 65.2558
6.374000	 65.1276
6.392000	 65.0642
6.410000	 65.1199
6.428000	 65.1417
6.446000	 65.0803
6.464000	 65.0727
6.482000	 65.168
6.500000	 65.1605
6.518000	 65.0488
6.536000	 65.0388
6.554000	 65.048
6.572000	 65.0298
6.590000	 65.0405
6.608000	 64.999
6.626000	 64.9355
6.644000	 64.9621
6.662000	 65.0593
6.680000	 65.1353
6.698000	 65.1438
6.716000	 65.1035
6.734000	 65.0257
6.752000	 64.9654
6.770000	 64.9861
6.788000	 65.0257
6.806000	 65.0413
6.824000	 65.0422
6.842000	 64.944
6.860000	 64.7726
6.878000	 64.7295
6.896000	 64.8442
6.914000	 64.9136
6.932000	 64.8973
6.950000	 64.9463
6.968000	 65.0481
6.986000	 65.0784
7.004000	 65.0815
7.022000	 65.1137
7.040000	 65.1183
7.058000	 65.1001
7.076000	 65.0731
7.094000	 64.994
7.112000	 64.9483
7.130000	 65.0338
7.148000	 65.1438
7.166000	 65.1888
7.184000	 65.2164
7.202000	 65.2286
7.220000	 65.1966
7.238000	 65.1595
7.256000	 65.1572
7.274000	 65.1473
7.292000	 65.0939
7.310000	 65.0201
7.328000	 64.9456
7.346000	 64.9005
7.364000	 64.9252
7.382000	 64.9738
7.400000	 64.9716
7.418000	 64.9566
7.436000	 64.9905
7.454000	 65.0299
7.472000	 65.0262
7.490000	 65.0284
7.508000	 65.0862
7.526000	 65.1551
7.544000	 65.1609
7.562000	 65.0884
7.580000	 64.9986
7.598000	 64.9727
7.616000	 65.0175
7.634000	 65.0577
7.652000	 65.0396
7.670000	 64.9817
7.688000	 64.9302
7.706000	 64.9114
7.724000	 64.9241
7.742000	 64.956
7.760000	 64.9923
7.778000	 65.0021
7.796000	 64.958
7.814000	 64.8997
7.832000	 64.9009
7.850000	 64.9524
7.868000	 64.9823
7.886000	 64.9814
7.904000	 65.0001
7.922000	 65.0324
7.940000	 65.022
7.958000	 64.9722
7.976000	 64.9481
7.994000	 64.9883
8.012000	 65.0715
8.030000	 65.139
8.048000	 65.1387
8.065999	 65.0755
8.084000	 65.0059
8.102000	 64.9626
8.120000	 64.9248
8.138000	 64.8744
8.155999	 64.8256
8.173999	 64.8014
8.192000	 64.8126
8.210000	 64.8513
8.228000	 64.8847
8.246000	 64.8864
8.263999	 64.8729
8.282000	 64.8709
8.300000	 64.8657
8.318000	 64.8307
8.336000	 64.7859
8.353999	 64.784
8.372000	 64.8363
8.390000	 64.8889
8.408000	 64.8821
8.426000	 64.8176
8.443999	 64.7553
8.462000	 64.7505
8.480000	 64.8015
8.498000	 64.8619
8.516000	 64.8848
8.533999	 64.8512
8.552000	 64.7816
8.570000	 64.727
8.588000	 64.7331
8.606000	 64.8006
8.624000	 64.8832
8.641999	 64.9316
8.660000	 64.9393
8.678000	 64.9425
8.696000	 64.9776
8.714000	 65.0327
8.731999	 65.045
8.750000	 64.9586
8.768000	 64.7869
8.786000	 64.6155
8.804000	 64.5444
8.821999	 64.6129
8.840000	 64.7697
8.858000	 64.909
8.876000	 64.9549
8.894000	 64.9195
8.911999	 64.877
8.930000	 64.8774
8.948000	 64.9053
8.966000	 64.9135
8.984000	 64.8767
9.001999	 64.7974
9.020000	 64.6845
9.038000	 64.557
9.056000	 64.4591
9.074000	 64.4299
9.092000	 64.4524
9.109999	 64.4694
9.128000	 64.463
9.146000	 64.4981
9.164000	 64.6628
9.182000	 64.9722
9.199999	 65.3357
9.218000	 65.6167
9.236000	 65.713
9.254000	 65.6004
9.272000	 65.3341
9.289999	 65.0226
9.308000	 64.778
9.326000	 64.6658
9.344000	 64.6807
9.362000	 64.7672
9.379999	 64.8609
9.398000	 64.9155
9.416000	 64.9107
9.434000	 64.8473
9.452000	 64.7437
9.469999	 64.6279
9.488000	 64.5213
9.506000	 64.4319
9.524000	 64.3651
9.542000	 64.332
9.560000	 64.3475
9.577999	 64.4127
9.596000	 64.5059
9.614000	 64.5913
9.632000	 64.6441
9.650000	 64.6705
9.667999	 64.7003
9.686000	 64.7603
9.704000	 64.8496
9.722000	 64.9347
9.740000	 64.9744
9.757999	 64.9495
9.776000	 64.8767
9.794000	 64.7931
9.812000	 64.7285
9.830000	 64.692
9.847999	 64.6787
9.866000	 64.6824
9.884000	 64.6994
9.902000	 64.7223
9.920000	 64.7378
9.937999	 64.7357
9.956000	 64.7223
9.974000	 64.7169
9.992000	 64.7362
10.01	64.7791
10.028	64.8279
10.046	64.8621
10.064	64.8728
10.082	64.8632
10.1	64.8432
10.118	64.8228
10.136	64.8109
10.154	64.8153
10.172	64.8393
10.19	64.8745
10.208	64.9017
10.226	64.902
10.244	64.8686
10.262	64.8101
10.28	64.7427
10.298	64.6787
10.316	64.6211
10.334	64.565
10.352	64.5047
10.37	64.4402
10.388	64.377
10.406	64.3228
10.424	64.2831
10.442	64.2597
10.46	64.2498
10.478	64.2473
10.496	64.2476
10.514	64.2518
10.532	64.2658
10.55	64.295
10.568	64.3381
10.586	64.3864
10.604	64.4296
10.622	64.4636
10.64	64.4943
10.658	64.5339
10.676	64.5919
10.694	64.6661
10.712	64.7416
10.73	64.7968
10.748	64.8135
10.766	64.7844
10.784	64.7142
10.802	64.6187
10.82	64.5181
10.838	64.4333
10.856	64.3786
10.874	64.3594
10.892	64.3703
10.91	64.3983
10.928	64.4284
10.946	64.4504
10.964	64.464
10.982	64.477
11	64.4994
11.018	64.5366
11.036	64.5843
11.054	64.6297
11.072	64.657
11.09	64.6527
11.108	64.6122
11.126	64.5413
11.144	64.4542
11.162	64.3704
11.18	64.3056
11.198	64.2686
11.216	64.2598
11.234	64.273
11.252	64.2999
11.27	64.3346
11.288	64.3746
11.306	64.4193
11.324	64.4681
11.342	64.5179
11.36	64.5625
11.378	64.5935
11.396	64.6051
11.414	64.5969
11.432	64.5755
11.45	64.5521
11.468	64.5396
11.486	64.5457
11.504	64.5704
11.522	64.6053
11.54	64.6381
11.558	64.6573
11.576	64.6581
11.594	64.644
11.612	64.6251
11.63	64.6121
11.648	64.6112
11.666	64.6218
11.684	64.6374
11.702	64.6506
11.72	64.6562
11.738	64.6542
11.756	64.6479
11.774	64.6421
11.792	64.6396
11.81	64.64
11.828	64.6393
11.846	64.6316
11.864	64.6113
11.882	64.5756
11.9	64.5242
11.918	64.4597
11.936	64.3858
11.954	64.3076
11.972	64.2312
11.99	64.1634
12.008	64.1124
12.026	64.0861
12.044	64.0902
12.062	64.1265
12.08	64.1901
12.098	64.2694
12.116	64.3481
12.134	64.4093
12.152	64.4401
12.17	64.4371
12.188	64.4069
12.206	64.3646
12.224	64.3278
12.242	64.31
12.26	64.3166
12.278	64.343
12.296	64.3768
12.314	64.4033
12.332	64.412
12.35	64.3989
12.368	64.3677
12.386	64.3281
12.404	64.2901
12.422	64.2598
12.44	64.2376
12.458	64.2178
12.476	64.1907
12.494	64.147
12.512	64.0816
12.53	63.9955
12.548	63.8954
12.566	63.7911
12.584	63.6945
12.602	63.6157
12.62	63.5614
12.638	63.5342
12.656	63.5334
12.674	63.5552
12.692	63.5947
12.71	63.6467
12.728	63.7061
12.746	63.7682
12.764	63.829
12.782	63.8856
12.8	63.9363
12.818	63.9805
12.836	64.0188
12.854	64.0523
12.872	64.0826
12.89	64.1101
12.908	64.1336
12.926	64.1506
12.944	64.1582
12.962	64.1532
12.98	64.133
12.998	64.0976
13.016	64.0498
13.034	63.9939
13.052	63.9355
13.07	63.8798
13.088	63.83
13.106	63.7866
13.124	63.7475
13.142	63.7085
13.16	63.6658
13.178	63.6174
13.196	63.5634
13.214	63.5077
13.232	63.4564
13.25	63.4172
13.268	63.3962
13.286	63.398
13.304	63.4245
13.322	63.4748
13.34	63.5451
13.358	63.6309
13.376	63.7271
13.394	63.8299
13.412	63.936
13.43	64.0433
13.448	64.1495
13.466	64.2517
13.484	64.3453
13.502	64.4236
13.52	64.4789
13.538	64.5034
13.556	64.4909
13.574	64.4382
13.592	64.3468
13.61	64.223
13.628	64.0774
13.646	63.9229
13.664	63.7728
13.682	63.6392
13.7	63.53
13.718	63.4487
13.736	63.3944
13.754	63.3622
13.772	63.3465
13.79	63.3412
13.808	63.3432
13.826	63.351
13.844	63.366
13.862	63.3908
13.88	63.4278
13.898	63.4773
13.916	63.5369
13.934	63.6017
13.952	63.6646
13.97	63.7176
13.988	63.7534
14.006	63.7672
14.024	63.7578
14.042	63.7281
14.06	63.6839
14.078	63.6329
14.096	63.5831
14.114	63.541
14.132	63.5111
14.15	63.4947
14.168	63.4908
14.186	63.4965
14.204	63.5082
14.222	63.5223
14.24	63.5364
14.258	63.5498
14.276	63.5628
14.294	63.5767
14.312	63.5929
14.33	63.612
14.348	63.6337
14.366	63.6565
14.384	63.6776
14.402	63.6936
14.42	63.7013
14.438	63.698
14.456	63.6822
14.474	63.6537
14.492	63.6136
14.51	63.5646
14.528	63.5106
14.546	63.4551
14.564	63.4019
14.582	63.3538
14.6	63.3134
14.618	63.2824
14.636	63.2617
14.654	63.2517
14.672	63.252
14.69	63.2615
14.708	63.2784
14.726	63.3002
14.744	63.3233
14.762	63.3437
14.78	63.3577
14.798	63.3618
14.816	63.3535
14.834	63.3312
14.852	63.2951
14.87	63.2468
14.888	63.1891
14.906	63.1252
14.924	63.0588
14.942	62.9933
14.96	62.9316
14.978	62.8756
14.996	62.827
15.014	62.787
15.032	62.7567
15.05	62.7376
15.068	62.7311
15.086	62.7386
15.104	62.7619
15.122	62.8021
15.14	62.859
15.158	62.9306
15.176	63.014
15.194	63.1043
15.212	63.1945
15.23	63.2779
15.248	63.3487
15.266	63.4013
15.284	63.4321
15.302	63.4402
15.32	63.4272
15.338	63.3959
15.356	63.3507
15.374	63.2981
15.392	63.2428
15.41	63.1892
15.428	63.1411
15.446	63.1004
15.464	63.0671
15.482	63.0406
15.5	63.0193
15.518	63.0006
15.536	62.9827
15.554	62.9643
15.572	62.9445
15.59	62.9242
15.608	62.9053
15.626	62.8903
15.644	62.8822
15.662	62.8844
15.68	62.8987
15.698	62.9267
15.716	62.9686
15.734	63.0228
15.752	63.0867
15.77	63.1572
15.788	63.2288
15.806	63.2971
15.824	63.3581
15.842	63.4078
15.86	63.4431
15.878	63.4633
15.896	63.468
15.914	63.4592
15.932	63.4395
15.95	63.4116
15.968	63.379
15.986	63.3458
16.004	63.3143
16.022	63.287
16.04	63.266
16.058	63.2517
16.076	63.2443
16.094	63.244
16.112	63.2498
16.13	63.261
16.148	63.2771
16.166	63.2966
16.184	63.3181
16.202	63.3402
16.22	63.36
16.238	63.3753
16.256	63.3837
16.274	63.3818
16.292	63.3675
16.31	63.3388
16.328	63.2942
16.346	63.2342
16.364	63.1592
16.382	63.0721
16.4	62.9766
16.418	62.876
16.436	62.7761
16.454	62.6811
16.472	62.5943
16.49	62.5199
16.508	62.4587
16.526	62.4117
16.544	62.3776
16.562	62.3537
16.58	62.338
16.598	62.3257
16.616	62.3142
16.634	62.3012
16.652	62.2839
16.67	62.2625
16.688	62.2367
16.706	62.2087
16.724	62.1804
16.742	62.1546
16.76	62.1349
16.778	62.1227
16.796	62.1208
16.814	62.1295
16.832	62.1489
16.85	62.1777
16.868	62.2137
16.886	62.2551
16.904	62.2974
16.922	62.3386
16.94	62.3757
16.958	62.4059
16.976	62.4284
16.994	62.4419
17.012	62.447
17.03	62.4436
17.048	62.4336
17.066	62.4178
17.084	62.3977
17.102	62.3746
17.12	62.3491
17.138	62.3221
17.156	62.2935
17.174	62.2634
17.192	62.2311
17.21	62.1966
17.228	62.1594
17.246	62.1195
17.264	62.077
17.282	62.0327
17.3	61.9875
17.318	61.9428
17.336	61.9007
17.354	61.8624
17.372	61.8308
17.39	61.8067
17.408	61.792
17.426	61.7875
17.444	61.7937
17.462	61.8104
17.48	61.8369
17.498	61.8718
17.516	61.9129
17.534	61.9588
17.552	62.0056
17.57	62.0522
17.588	62.0949
17.606	62.1324
17.624	62.1621
17.642	62.1827
17.66	62.1937
17.678	62.1946
17.696	62.1856
17.714	62.1682
17.732	62.1438
17.75	62.1142
17.768	62.0825
17.786	62.0498
17.804	62.0198
17.822	61.9934
17.84	61.9728
17.858	61.9584
17.876	61.9512
17.894	61.9501
17.912	61.9548
17.93	61.9626
17.948	61.9729
17.966	61.982
17.984	61.9891
18.002	61.9911
18.02	61.9874
18.038	61.9762
18.056	61.9576
18.074	61.9313
18.092	61.8988
18.11	61.8605
18.128	61.8194
18.146	61.7764
18.164	61.7347
18.182	61.6955
18.2	61.6611
18.218	61.6329
18.236	61.6117
18.254	61.5984
18.272	61.5931
18.29	61.5952
18.308	61.6046
18.326	61.6197
18.344	61.6402
18.362	61.6645
18.38	61.6922
18.398	61.7219
18.416	61.7534
18.434	61.7862
18.452	61.8201
18.47	61.8549
18.488	61.8903
18.506	61.9264
18.524	61.9624
18.542	61.9984
18.56	62.033
18.578	62.066
18.596	62.0954
18.614	62.1209
18.632	62.14
18.65	62.1526
18.668	62.1564
18.686	62.1514
18.704	62.1366
18.722	62.1121
18.74	62.0781
18.758	62.0352
18.776	61.9848
18.794	61.9279
18.812	61.8667
18.83	61.8025
18.848	61.7382
18.866	61.6745
18.884	61.6141
18.902	61.5573
18.92	61.5058
18.938	61.4593
18.956	61.4185
18.974	61.3825
18.992	61.351
19.01	61.3228
19.028	61.2966
19.046	61.2714
19.064	61.2454
19.082	61.2182
19.1	61.1881
19.118	61.1553
19.136	61.1191
19.154	61.0799
19.172	61.0379
19.19	60.994
19.208	60.9495
19.226	60.905
19.244	60.8626
19.262	60.8225
19.28	60.7875
19.298	60.7573
19.316	60.7342
19.334	60.7178
19.352	60.7096
19.37	60.7094
19.388	60.7169
19.406	60.7321
19.424	60.7539
19.442	60.7822
19.46	60.8155
19.478	60.8539
19.496	60.896
19.514	60.9415
19.532	60.9892
19.55	61.0385
19.568	61.0889
19.586	61.1395
19.604	61.1902
19.622	61.2405
19.64	61.2903
19.658	61.3393
19.676	61.3873
19.694	61.4339
19.712	61.4791
19.73	61.5225
19.748	61.5639
19.766	61.6031
19.784	61.6399
19.802	61.6741
19.82	61.7056
19.838	61.7342
19.856	61.7597
19.874	61.7822
19.892	61.8016
19.91	61.8181
19.928	61.8318
19.946	61.8428
19.964	61.8518
19.982	61.8588
20	61.8646
20.018	61.8697
20.036	61.8748
20.054	61.8808
20.072	61.8879
20.09	61.8975
20.108	61.9094
20.126	61.9254
20.144	61.9454
20.162	61.9702
20.18	62.0003
20.198	62.0357
20.216	62.0767
20.234	62.1231
20.252	62.1735
20.27	62.2283
20.288	62.2848
20.306	62.3437
20.324	62.4016
20.342	62.457
20.36	62.5086
20.378	62.5523
20.396	62.5888
20.414	62.6127
20.432	62.6246
20.45	62.6213
20.468	62.6009
20.486	62.5636
20.504	62.5071
20.522	62.432
20.54	62.3389
20.558	62.2272
20.576	62.1001
20.594	61.9579
20.612	61.803
20.63	61.6403
20.648	61.4688
20.666	61.2962
20.684	61.1215
20.702	60.9504
20.72	60.7869
20.738	60.6308
20.756	60.4886
20.774	60.359
20.792	60.2453
20.81	60.1485
20.828	60.0681
20.846	60.005
20.864	59.9587
20.882	59.927
20.9	59.9107
20.918	59.9065
20.936	59.9125
20.954	59.9284
20.972	59.949
20.99	59.9754
21.008	60.0037
21.026	60.0324
21.044	60.0614
21.062	60.0878
21.08	60.1122
21.098	60.1339
21.116	60.1524
21.134	60.1684
21.152	60.1825
21.17	60.1943
21.188	60.2061
21.206	60.2178
21.224	60.2301
21.242	60.2448
21.26	60.2612
21.278	60.2804
21.296	60.3029
21.314	60.328
21.332	60.3553
21.35	60.3853
21.368	60.4153
21.386	60.4455
21.404	60.4746
21.422	60.4993
21.44	60.5208
21.458	60.5359
21.476	60.5431
21.494	60.5428
21.512	60.5321
21.53	60.5113
21.548	60.4804
21.566	60.4387
21.584	60.3867
21.602	60.326
21.62	60.2558
21.638	60.1784
21.656	60.0965
21.674	60.0088
21.692	59.9198
21.71	59.8298
21.728	59.7398
21.746	59.654
21.764	59.5716
21.782	59.4943
21.8	59.424
21.818	59.36
21.836	59.3029
21.854	59.2534
21.872	59.2103
21.89	59.1721
21.908	59.1397
21.926	59.11
21.944	59.0813
21.962	59.0543
21.98	59.0243
21.998	58.9916
22.016	58.9552
22.034	58.9117
22.052	58.8621
22.07	58.8053
22.088	58.7402
22.106	58.6672
22.124	58.5874
22.142	58.4999
22.16	58.4061
22.178	58.3094
22.196	58.2082
22.214	58.106
22.232	58.0069
22.25	57.9088
22.268	57.8166
22.286	57.7331
22.304	57.6569
22.322	57.5923
22.34	57.54
22.358	57.4998
22.376	57.4739
22.394	57.4624
22.412	57.4645
22.43	57.4801
22.448	57.5095
22.466	57.551
22.484	57.6033
22.502	57.6673
22.52	57.7398
22.538	57.8196
22.556	57.9074
22.574	58.0001
22.592	58.0974
22.61	58.1993
22.628	58.3031
22.646	58.4094
22.664	58.5174
22.682	58.6247
22.7	58.7323
22.718	58.8388
22.736	58.9422
22.754	59.0435
22.772	59.1409
22.79	59.2326
22.808	59.3199
22.826	59.4002
22.844	59.4718
22.862	59.5359
22.88	59.5897
22.898	59.6319
22.916	59.6635
22.934	59.6815
22.952	59.6851
22.97	59.6751
22.988	59.649
23.006	59.6064
23.024	59.5477
23.042	59.4722
23.06	59.3792
23.078	59.2696
23.096	59.1455
23.114	59.0058
23.132	58.852
23.15	58.6882
23.168	58.5132
23.186	58.3286
23.204	58.1404
23.222	57.9467
23.24	57.7497
23.258	57.5564
23.276	57.3656
23.294	57.1785
23.312	57.0016
23.33	56.8337
23.348	56.6758
23.366	56.5341
23.384	56.4076
23.402	56.297
23.42	56.2084
23.438	56.1421
23.456	56.0973
23.474	56.0768
23.492	56.0822
23.51	56.1116
23.528	56.1631
23.546	56.2372
23.564	56.3334
23.582	56.4473
23.6	56.5778
23.618	56.7261
23.636	56.887
23.654	57.0586
23.672	57.2433
23.69	57.4336
23.708	57.6252
23.726	57.8224
23.744	58.0172
23.762	58.2031
23.78	58.3848
23.798	58.5565
23.816	58.711
23.834	58.8519
23.852	58.9764
23.87	59.0792
23.888	59.1605
23.906	59.2214
23.924	59.2619
23.942	59.28
23.96	59.2776
23.978	59.2599
23.996	59.2268
24.014	59.1769
24.032	59.1202
24.05	59.0621
24.068	58.9965
24.086	58.934
24.104	58.8841
24.122	58.8399
24.14	58.8085
24.158	58.8006
24.176	58.8139
24.194	58.8484
24.212	58.9101
24.23	59.0011
24.248	59.119
24.266	59.2628
24.284	59.434
24.302	59.6341
24.32	59.8544
24.338	60.0878
24.356	60.3425
24.374	60.608
24.392	60.8692
24.41	61.1323
24.428	61.394
24.446	61.6353
24.464	61.8497
24.482	62.0463
24.5	62.2096
24.518	62.3265
24.536	62.4059
24.554	62.4418
24.572	62.4239
24.59	62.3541
24.608	62.2332
24.626	62.0555
24.644	61.8156
24.662	61.516
24.68	61.1639
24.698	60.765
24.716	60.3123
24.734	59.8144
24.752	59.2845
24.77	58.7158
24.788	58.1095
24.806	57.4937
24.824	56.8851
24.842	56.2615
24.86	55.6523
24.878	55.0929
24.896	54.5658
24.914	54.0784
24.932	53.6721
24.95	53.3662
24.968	53.1341
24.986	53.0093
25.004	53.0278
25.022	53.1745
25.04	53.4523
25.058	53.8845
25.076	54.4844
25.094	55.2397
25.112	56.1511
25.13	57.2214
25.148	58.4606
25.166	59.8538
25.184	61.3777
25.202	63.029
25.22	64.8251
25.238	66.7229
25.256	68.6788
25.274	70.7238
25.292	72.8404
25.31	74.9703
25.328	77.0843
25.346	79.2248
25.364	81.3421
25.382	83.3786
25.4	85.3505
25.418	87.263
25.436	89.0679
25.454	90.7287
25.472	92.2769
25.49	93.6951
25.508	94.9536
25.526	96.0443
25.544	96.9821
25.562	97.7579
25.58	98.3624
25.598	98.7925
25.616	99.0577
25.634	99.1689
25.652	99.1303
25.67	98.9309
25.688	98.5895
25.706	98.1274
25.724	97.5397
25.742	96.8208
25.76	96.0003
25.778	95.1047
25.796	94.1084
25.814	93.0277
25.832	91.9018
25.85	90.7535
25.868	89.5491
25.886	88.3215
25.904	87.1123
25.922	85.9263
25.94	84.74
25.958	83.5929
25.976	82.5248
25.994	81.5198
26.012	80.5747
26.03	79.7217
26.048	78.9882
26.066	78.3521
26.084	77.8216
26.102	77.4185
26.12	77.1582
26.138	77.0272
26.156	77.0273
26.174	77.1634
26.192	77.4403
26.21	77.8558
26.228	78.4012
26.246	79.0679
26.264	79.8645
26.282	80.7912
26.3	81.8224
26.318	82.9334
26.336	84.145
26.354	85.4512
26.372	86.8134
26.39	88.1968
26.408	89.6347
26.426	91.1121
26.444	92.5852
26.462	94.0192
26.48	95.4554
26.498	96.8694
26.516	98.2156
26.534	99.4607
26.552	100.642
26.57	101.741
26.588	102.726
26.606	103.576
26.624	104.312
26.642	104.928
26.66	105.414
26.678	105.757
26.696	105.964
26.714	106.042
26.732	106.004
26.75	105.848
26.768	105.557
26.786	105.162
26.804	104.696
26.822	104.171
26.84	103.556
26.858	102.884
26.876	102.19
26.894	101.492
26.912	100.758
26.93	100.012
26.948	99.2819
26.966	98.5592
26.984	97.7873
27.002	97.0657
27.02	96.5043
27.028	96.3523