File: Bakgrunnsmateriale/MATLAB/FTIR/ftir_data/subBb/Mapping_121/C-4040-8_t114.asc
PE IR       SPECTRUM    SPECTRUM    ASCII       PEDS        1.60
  -1
C-8CC8~1.ASC
17/03/27
23:53:38.00
17/03/27
23:54:04.00
tln
$C-4040-8_t0114$<tbV0>[5.2,13.0,8.0,0.0,27,1,0]
27.028
64

2002,4.07
MIRTGS : RIGHTBACK : INTERNAL 2
MIR : ON : INTERNAL 2
OPTKBR

0.200000
8
8.000000
FILLER
RATIO
SPECTRUM
UNLOCKED 256

DOUBLE
64
COMBINED
1
0
0

0.002000
RATIO

1
0
TRUE
51149
0
LEFT NOT FITTED RIGHT NOT FITTED 0
NONE
NONE
15600
12
4.427000
51148
TRUE
1 0 8 72 0 0 0 0

15798

#HDR
-1
-1
#GR
µM
%T
2.38419e-05
0.0
2.000000
0.002000
12515
8
96.9612
39.6262
#DATA
2.000000	 64.6216
2.018000	 65.6263
2.036000	 65.0613
2.054000	 64.6578
2.072000	 64.5697
2.090000	 64.7442
2.108000	 64.8047
2.126000	 64.5159
2.144000	 64.8476
2.162000	 65.0119
2.180000	 65.2955
2.198000	 65.4362
2.216000	 66.049
2.234000	 66.3966
2.252000	 66.3535
2.270000	 59.0402
2.288000	 67.9232
2.306000	 66.1938
2.324000	 66.3344
2.342000	 65.8204
2.360000	 65.2956
2.378000	 65.4527
2.396000	 65.392
2.414000	 65.0475
2.432000	 64.7998
2.450000	 64.8545
2.468000	 64.9076
2.486000	 64.8256
2.504000	 65.1937
2.522000	 64.9863
2.540000	 64.9657
2.558000	 64.9685
2.576000	 65.4897
2.594000	 65.145
2.612000	 65.3767
2.630000	 65.2883
2.648000	 65.1366
2.666000	 65.1272
2.684000	 65.1598
2.702000	 65.2093
2.720000	 65.1812
2.738000	 65.1697
2.756000	 65.3163
2.774000	 65.211
2.792000	 65.1177
2.810000	 65.1452
2.828000	 65.2247
2.846000	 65.0257
2.864000	 65.1877
2.882000	 65.1451
2.900000	 65.0889
2.918000	 65.0803
2.936000	 65.1687
2.954000	 65.1128
2.972000	 65.248
2.990000	 65.1893
3.008000	 64.9754
3.026000	 65.0839
3.044000	 65.1273
3.062000	 65.1656
3.080000	 65.1662
3.098000	 65.2402
3.116000	 65.1574
3.134000	 65.1123
3.152000	 65.0837
3.170000	 65.1845
3.188000	 65.2988
3.206000	 65.4132
3.224000	 65.3545
3.242000	 65.3996
3.260000	 65.1621
3.278000	 65.1845
3.296000	 65.3666
3.314000	 65.2396
3.332000	 65.2281
3.350000	 65.0855
3.368000	 65.2746
3.386000	 65.0542
3.404000	 64.976
3.422000	 64.8954
3.440000	 64.9025
3.458000	 65.1712
3.476000	 65.1074
3.494000	 64.8549
3.512000	 65.0903
3.530000	 65.3017
3.548000	 65.0384
3.566000	 65.2372
3.584000	 65.0712
3.602000	 65.109
3.620000	 65.3059
3.638000	 65.1611
3.656000	 65.1605
3.674000	 65.1316
3.692000	 65.2002
3.710000	 65.387
3.728000	 65.2304
3.746000	 65.1304
3.764000	 65.15
3.782000	 65.2334
3.800000	 65.128
3.818000	 65.1173
3.836000	 65.2821
3.854000	 65.2094
3.872000	 65.1775
3.890000	 65.1317
3.908000	 65.3241
3.926000	 65.2936
3.944000	 65.3458
3.962000	 65.2452
3.980000	 65.2605
3.998000	 65.1489
4.016000	 64.9885
4.034000	 65.2554
4.052000	 65.3297
4.070000	 65.3268
4.088000	 65.3251
4.106000	 65.3997
4.124000	 64.8783
4.141999	 65.3476
4.160000	 65.4801
4.178000	 65.1223
4.196000	 65.2212
4.214000	 65.1274
4.232000	 65.3506
4.250000	 65.1529
4.268000	 65.3031
4.286000	 65.3265
4.304000	 65.2931
4.322000	 65.3027
4.340000	 65.2645
4.358000	 65.4007
4.375999	 65.2426
4.394000	 65.2412
4.412000	 65.3129
4.430000	 65.2674
4.448000	 65.2983
4.466000	 65.2518
4.484000	 65.2084
4.502000	 65.2669
4.520000	 65.3785
4.538000	 65.3923
4.556000	 65.3377
4.574000	 65.3428
4.592000	 65.4467
4.609999	 65.3301
4.628000	 65.2604
4.646000	 65.2242
4.664000	 65.2301
4.682000	 65.1066
4.700000	 65.312
4.718000	 65.4298
4.736000	 65.417
4.754000	 65.4212
4.772000	 65.3798
4.790000	 65.3262
4.808000	 64.9746
4.826000	 65.3389
4.843999	 65.5272
4.862000	 65.0618
4.880000	 65.1014
4.898000	 65.3198
4.916000	 65.3456
4.934000	 65.4093
4.952000	 65.2955
4.970000	 65.3245
4.988000	 65.2456
5.006000	 65.0886
5.024000	 65.1298
5.042000	 65.2205
5.060000	 65.3211
5.077999	 65.1273
5.096000	 65.2027
5.114000	 65.2193
5.132000	 65.2289
5.150000	 65.2653
5.168000	 65.2759
5.186000	 65.2257
5.204000	 65.2589
5.222000	 65.3784
5.240000	 65.3753
5.258000	 65.2368
5.276000	 65.2391
5.294000	 65.3394
5.312000	 65.2859
5.330000	 65.115
5.348000	 65.0789
5.366000	 65.2422
5.384000	 65.2885
5.402000	 65.362
5.420000	 65.2703
5.438000	 65.2124
5.456000	 65.2973
5.474000	 65.2404
5.492000	 65.2099
5.510000	 65.1727
5.528000	 65.1359
5.546000	 65.1252
5.564000	 65.3012
5.582000	 65.1833
5.600000	 65.1726
5.618000	 65.2192
5.636000	 65.2269
5.654000	 65.1933
5.672000	 65.1013
5.690000	 65.097
5.708000	 65.1628
5.726000	 65.1207
5.744000	 64.9514
5.762000	 64.8315
5.780000	 64.8444
5.798000	 64.9517
5.816000	 65.0248
5.834000	 65.2567
5.852000	 65.2666
5.870000	 65.1207
5.888000	 65.1881
5.906000	 65.2512
5.923999	 65.173
5.942000	 65.1486
5.960000	 65.274
5.978000	 65.2493
5.996000	 65.1098
6.014000	 65.1227
6.032000	 65.1352
6.050000	 65.0916
6.068000	 65.0948
6.086000	 65.1072
6.104000	 65.1721
6.122000	 65.1304
6.140000	 65.1328
6.158000	 65.2445
6.176000	 65.2295
6.194000	 65.1372
6.212000	 65.041
6.230000	 64.9423
6.248000	 64.9816
6.266000	 65.0971
6.284000	 65.1322
6.302000	 65.1226
6.320000	 65.1235
6.338000	 65.1035
6.356000	 65.0531
6.374000	 65.0302
6.392000	 65.0627
6.410000	 65.1421
6.428000	 65.1031
6.446000	 65.0759
6.464000	 65.1255
6.482000	 65.156
6.500000	 65.2326
6.518000	 65.3119
6.536000	 65.2897
6.554000	 65.1724
6.572000	 65.0702
6.590000	 65.0144
6.608000	 65.0134
6.626000	 65.0532
6.644000	 65.1303
6.662000	 65.2146
6.680000	 65.2135
6.698000	 65.1306
6.716000	 65.0921
6.734000	 65.1296
6.752000	 65.1816
6.770000	 65.2068
6.788000	 65.1666
6.806000	 65.11
6.824000	 65.0531
6.842000	 64.9873
6.860000	 65.0883
6.878000	 65.2378
6.896000	 65.0998
6.914000	 64.893
6.932000	 64.8486
6.950000	 64.8456
6.968000	 64.8985
6.986000	 65.0178
7.004000	 65.0628
7.022000	 65.0448
7.040000	 65.0293
7.058000	 64.9538
7.076000	 64.8807
7.094000	 64.9638
7.112000	 65.0763
7.130000	 65.0443
7.148000	 65.0048
7.166000	 65.0586
7.184000	 65.0853
7.202000	 65.0412
7.220000	 64.9744
7.238000	 64.9124
7.256000	 64.8681
7.274000	 64.8246
7.292000	 64.7988
7.310000	 64.8599
7.328000	 64.9837
7.346000	 65.0614
7.364000	 65.0673
7.382000	 65.0683
7.400000	 65.0869
7.418000	 65.0631
7.436000	 64.9935
7.454000	 64.9685
7.472000	 65.0029
7.490000	 65.0237
7.508000	 65.0259
7.526000	 65.0371
7.544000	 65.0511
7.562000	 65.0773
7.580000	 65.1257
7.598000	 65.1467
7.616000	 65.0912
7.634000	 65.0016
7.652000	 64.9594
7.670000	 64.965
7.688000	 64.9507
7.706000	 64.8936
7.724000	 64.8286
7.742000	 64.7903
7.760000	 64.8036
7.778000	 64.8718
7.796000	 64.9502
7.814000	 64.9862
7.832000	 64.9618
7.850000	 64.8998
7.868000	 64.8545
7.886000	 64.8641
7.904000	 64.9079
7.922000	 64.9415
7.940000	 64.9534
7.958000	 64.9625
7.976000	 64.9902
7.994000	 65.0243
8.012000	 65.0141
8.030000	 64.9422
8.048000	 64.8668
8.065999	 64.8487
8.084000	 64.8798
8.102000	 64.9064
8.120000	 64.8907
8.138000	 64.8431
8.155999	 64.8247
8.173999	 64.888
8.192000	 65.0034
8.210000	 65.083
8.228000	 65.0698
8.246000	 64.9898
8.263999	 64.9095
8.282000	 64.8626
8.300000	 64.8295
8.318000	 64.7889
8.336000	 64.7665
8.353999	 64.7964
8.372000	 64.8666
8.390000	 64.941
8.408000	 65.0151
8.426000	 65.0964
8.443999	 65.1523
8.462000	 65.1272
8.480000	 65.0183
8.498000	 64.8879
8.516000	 64.8021
8.533999	 64.7864
8.552000	 64.8342
8.570000	 64.9192
8.588000	 64.9906
8.606000	 64.9938
8.624000	 64.9182
8.641999	 64.8122
8.660000	 64.7395
8.678000	 64.7198
8.696000	 64.7243
8.714000	 64.729
8.731999	 64.7586
8.750000	 64.8595
8.768000	 65.0239
8.786000	 65.1634
8.804000	 65.1874
8.821999	 65.0966
8.840000	 64.9738
8.858000	 64.8919
8.876000	 64.856
8.894000	 64.8357
8.911999	 64.8198
8.930000	 64.8167
8.948000	 64.8264
8.966000	 64.8378
8.984000	 64.845
9.001999	 64.8536
9.020000	 64.8713
9.038000	 64.8937
9.056000	 64.8992
9.074000	 64.8629
9.092000	 64.783
9.109999	 64.6938
9.128000	 64.6447
9.146000	 64.6586
9.164000	 64.7165
9.182000	 64.7887
9.199999	 64.862
9.218000	 64.9315
9.236000	 64.9834
9.254000	 65.003
9.272000	 64.9966
9.289999	 64.9911
9.308000	 65.0053
9.326000	 65.0275
9.344000	 65.0275
9.362000	 64.9881
9.379999	 64.9144
9.398000	 64.8232
9.416000	 64.729
9.434000	 64.6482
9.452000	 64.6027
9.469999	 64.6118
9.488000	 64.674
9.506000	 64.7559
9.524000	 64.8093
9.542000	 64.807
9.560000	 64.7648
9.577999	 64.7245
9.596000	 64.7194
9.614000	 64.751
9.632000	 64.7968
9.650000	 64.8306
9.667999	 64.837
9.686000	 64.8155
9.704000	 64.7787
9.722000	 64.7458
9.740000	 64.731
9.757999	 64.7304
9.776000	 64.7195
9.794000	 64.6721
9.812000	 64.5874
9.830000	 64.5043
9.847999	 64.4793
9.866000	 64.5393
9.884000	 64.6537
9.902000	 64.7518
9.920000	 64.7744
9.937999	 64.7168
9.956000	 64.6247
9.974000	 64.5539
9.992000	 64.5319
10.01	64.5522
10.028	64.5935
10.046	64.6419
10.064	64.6923
10.082	64.7372
10.1	64.7617
10.118	64.7506
10.136	64.7013
10.154	64.6274
10.172	64.552
10.19	64.4962
10.208	64.4704
10.226	64.4754
10.244	64.5037
10.262	64.543
10.28	64.5797
10.298	64.6036
10.316	64.6129
10.334	64.6141
10.352	64.6162
10.37	64.6236
10.388	64.633
10.406	64.6379
10.424	64.6349
10.442	64.6278
10.46	64.6243
10.478	64.6306
10.496	64.6464
10.514	64.6666
10.532	64.6847
10.55	64.6941
10.568	64.6885
10.586	64.6626
10.604	64.6168
10.622	64.5599
10.64	64.5101
10.658	64.4884
10.676	64.51
10.694	64.5741
10.712	64.6631
10.73	64.7503
10.748	64.8106
10.766	64.8312
10.784	64.8147
10.802	64.7765
10.82	64.7351
10.838	64.7066
10.856	64.6996
10.874	64.7152
10.892	64.7481
10.91	64.7901
10.928	64.8324
10.946	64.8678
10.964	64.8928
10.982	64.907
11	64.91
11.018	64.9008
11.036	64.8782
11.054	64.8422
11.072	64.797
11.09	64.752
11.108	64.7167
11.126	64.6955
11.144	64.6846
11.162	64.6702
11.18	64.6372
11.198	64.5768
11.216	64.4936
11.234	64.4066
11.252	64.343
11.27	64.3259
11.288	64.3683
11.306	64.4659
11.324	64.5987
11.342	64.738
11.36	64.8557
11.378	64.9286
11.396	64.9453
11.414	64.9057
11.432	64.8188
11.45	64.7009
11.468	64.5723
11.486	64.4511
11.504	64.3508
11.522	64.2776
11.54	64.2293
11.558	64.1963
11.576	64.1668
11.594	64.1332
11.612	64.0919
11.63	64.0473
11.648	64.0087
11.666	63.986
11.684	63.9855
11.702	64.0084
11.72	64.051
11.738	64.1073
11.756	64.1727
11.774	64.2446
11.792	64.3223
11.81	64.4044
11.828	64.4854
11.846	64.5539
11.864	64.5941
11.882	64.5892
11.9	64.5257
11.918	64.3983
11.936	64.2135
11.954	63.9879
11.972	63.7469
11.99	63.5202
12.008	63.3339
12.026	63.2081
12.044	63.1541
12.062	63.1742
12.08	63.2622
12.098	63.4056
12.116	63.5874
12.134	63.7871
12.152	63.983
12.17	64.1546
12.188	64.2841
12.206	64.3585
12.224	64.3713
12.242	64.3231
12.26	64.2219
12.278	64.0819
12.296	63.9216
12.314	63.7614
12.332	63.6211
12.35	63.5167
12.368	63.459
12.386	63.4523
12.404	63.4934
12.422	63.5736
12.44	63.6804
12.458	63.8002
12.476	63.9189
12.494	64.025
12.512	64.1098
12.53	64.1677
12.548	64.1963
12.566	64.1959
12.584	64.1717
12.602	64.1334
12.62	64.0934
12.638	64.0657
12.656	64.0637
12.674	64.0959
12.692	64.1639
12.71	64.2616
12.728	64.3759
12.746	64.4894
12.764	64.5836
12.782	64.6432
12.8	64.6597
12.818	64.6329
12.836	64.5697
12.854	64.4826
12.872	64.3871
12.89	64.2983
12.908	64.2285
12.926	64.1845
12.944	64.1668
12.962	64.1695
12.98	64.182
12.998	64.1907
13.016	64.1831
13.034	64.1508
13.052	64.0913
13.07	64.0086
13.088	63.9121
13.106	63.8153
13.124	63.731
13.142	63.6699
13.16	63.6385
13.178	63.639
13.196	63.6689
13.214	63.7232
13.232	63.7955
13.25	63.8794
13.268	63.9687
13.286	64.0572
13.304	64.1385
13.322	64.2062
13.34	64.2538
13.358	64.2769
13.376	64.2738
13.394	64.2473
13.412	64.2037
13.43	64.1521
13.448	64.1025
13.466	64.063
13.484	64.0386
13.502	64.0293
13.52	64.0308
13.538	64.0353
13.556	64.0342
13.574	64.0198
13.592	63.988
13.61	63.9385
13.628	63.8761
13.646	63.8081
13.664	63.7441
13.682	63.6932
13.7	63.6628
13.718	63.6572
13.736	63.677
13.754	63.7196
13.772	63.7794
13.79	63.8489
13.808	63.9199
13.826	63.9838
13.844	64.0332
13.862	64.0623
13.88	64.0676
13.898	64.0476
13.916	64.0036
13.934	63.9384
13.952	63.8568
13.97	63.7645
13.988	63.6681
14.006	63.5743
14.024	63.4897
14.042	63.4201
14.06	63.3697
14.078	63.3413
14.096	63.3354
14.114	63.3502
14.132	63.3824
14.15	63.4271
14.168	63.4786
14.186	63.531
14.204	63.5784
14.222	63.6161
14.24	63.6403
14.258	63.6491
14.276	63.6423
14.294	63.6215
14.312	63.5901
14.33	63.5524
14.348	63.5138
14.366	63.4804
14.384	63.4575
14.402	63.4497
14.42	63.4591
14.438	63.4856
14.456	63.5266
14.474	63.5772
14.492	63.6308
14.51	63.6795
14.528	63.7157
14.546	63.7341
14.564	63.7316
14.582	63.7082
14.6	63.6668
14.618	63.6127
14.636	63.5527
14.654	63.4929
14.672	63.4382
14.69	63.3918
14.708	63.3552
14.726	63.3285
14.744	63.3101
14.762	63.2985
14.78	63.2923
14.798	63.2913
14.816	63.2956
14.834	63.3065
14.852	63.3248
14.87	63.3512
14.888	63.3851
14.906	63.4253
14.924	63.4691
14.942	63.5125
14.96	63.551
14.978	63.5802
14.996	63.5961
15.014	63.5957
15.032	63.5778
15.05	63.543
15.068	63.4935
15.086	63.4325
15.104	63.3643
15.122	63.2943
15.14	63.2276
15.158	63.1684
15.176	63.1204
15.194	63.0866
15.212	63.0684
15.23	63.0656
15.248	63.0769
15.266	63.1002
15.284	63.1315
15.302	63.1661
15.32	63.1995
15.338	63.2274
15.356	63.2455
15.374	63.2504
15.392	63.2408
15.41	63.2164
15.428	63.1779
15.446	63.1287
15.464	63.0727
15.482	63.0144
15.5	62.959
15.518	62.9127
15.536	62.88
15.554	62.8641
15.572	62.8677
15.59	62.8915
15.608	62.934
15.626	62.9929
15.644	63.0643
15.662	63.1425
15.68	63.2225
15.698	63.2997
15.716	63.3689
15.734	63.4269
15.752	63.4719
15.77	63.5028
15.788	63.5202
15.806	63.5258
15.824	63.5214
15.842	63.5096
15.86	63.4933
15.878	63.4742
15.896	63.454
15.914	63.4338
15.932	63.4138
15.95	63.3941
15.968	63.3744
15.986	63.354
16.004	63.3324
16.022	63.3093
16.04	63.2845
16.058	63.2584
16.076	63.2317
16.094	63.2052
16.112	63.18
16.13	63.1568
16.148	63.1364
16.166	63.119
16.184	63.1044
16.202	63.092
16.22	63.0806
16.238	63.0689
16.256	63.0557
16.274	63.0396
16.292	63.02
16.31	62.9965
16.328	62.9696
16.346	62.9405
16.364	62.9101
16.382	62.881
16.4	62.8553
16.418	62.8347
16.436	62.8216
16.454	62.8167
16.472	62.8206
16.49	62.8328
16.508	62.8519
16.526	62.8764
16.544	62.9034
16.562	62.9302
16.58	62.9548
16.598	62.9744
16.616	62.9884
16.634	62.9961
16.652	62.998
16.67	62.9954
16.688	62.9897
16.706	62.9831
16.724	62.9769
16.742	62.9727
16.76	62.9716
16.778	62.9736
16.796	62.9789
16.814	62.9866
16.832	62.9964
16.85	63.0066
16.868	63.0167
16.886	63.0265
16.904	63.0348
16.922	63.0413
16.94	63.0458
16.958	63.0474
16.976	63.0457
16.994	63.0399
17.012	63.029
17.03	63.0125
17.048	62.9885
17.066	62.9566
17.084	62.9157
17.102	62.8655
17.12	62.8059
17.138	62.7377
17.156	62.6625
17.174	62.5814
17.192	62.4981
17.21	62.414
17.228	62.3329
17.246	62.2574
17.264	62.1892
17.282	62.131
17.3	62.0831
17.318	62.0468
17.336	62.0213
17.354	62.0064
17.372	62.0002
17.39	62.0019
17.408	62.0092
17.426	62.0208
17.444	62.0354
17.462	62.0517
17.48	62.0692
17.498	62.0868
17.516	62.1045
17.534	62.1221
17.552	62.1392
17.57	62.1557
17.588	62.1715
17.606	62.1866
17.624	62.2009
17.642	62.2145
17.66	62.2274
17.678	62.2399
17.696	62.2521
17.714	62.2644
17.732	62.277
17.75	62.2907
17.768	62.3057
17.786	62.322
17.804	62.3398
17.822	62.3588
17.84	62.3783
17.858	62.3974
17.876	62.4153
17.894	62.4302
17.912	62.4414
17.93	62.4465
17.948	62.4451
17.966	62.4355
17.984	62.4179
18.002	62.3916
18.02	62.3581
18.038	62.3177
18.056	62.2736
18.074	62.2267
18.092	62.1816
18.11	62.1394
18.128	62.1052
18.146	62.08
18.164	62.0679
18.182	62.0698
18.2	62.0879
18.218	62.1222
18.236	62.1733
18.254	62.2391
18.272	62.3196
18.29	62.4107
18.308	62.512
18.326	62.6178
18.344	62.7273
18.362	62.8351
18.38	62.9398
18.398	63.0366
18.416	63.1241
18.434	63.1994
18.452	63.2608
18.47	63.3068
18.488	63.3368
18.506	63.3502
18.524	63.3475
18.542	63.3284
18.56	63.2947
18.578	63.2467
18.596	63.1865
18.614	63.1144
18.632	63.0332
18.65	62.9433
18.668	62.8472
18.686	62.7453
18.704	62.6406
18.722	62.5332
18.74	62.4257
18.758	62.3183
18.776	62.2135
18.794	62.1114
18.812	62.014
18.83	61.9216
18.848	61.8358
18.866	61.7568
18.884	61.6859
18.902	61.6231
18.92	61.5692
18.938	61.524
18.956	61.4878
18.974	61.4601
18.992	61.4407
19.01	61.4289
19.028	61.424
19.046	61.4251
19.064	61.4311
19.082	61.4412
19.1	61.454
19.118	61.4688
19.136	61.4841
19.154	61.4994
19.172	61.5133
19.19	61.5257
19.208	61.5355
19.226	61.5428
19.244	61.547
19.262	61.548
19.28	61.5459
19.298	61.5407
19.316	61.5328
19.334	61.5222
19.352	61.5097
19.37	61.4952
19.388	61.4796
19.406	61.4627
19.424	61.4453
19.442	61.4275
19.46	61.4096
19.478	61.3918
19.496	61.3745
19.514	61.3577
19.532	61.3416
19.55	61.3262
19.568	61.3117
19.586	61.2982
19.604	61.2859
19.622	61.2754
19.64	61.2667
19.658	61.2606
19.676	61.257
19.694	61.2566
19.712	61.2592
19.73	61.2652
19.748	61.2747
19.766	61.2874
19.784	61.3033
19.802	61.3218
19.82	61.3427
19.838	61.3655
19.856	61.3894
19.874	61.4143
19.892	61.439
19.91	61.4636
19.928	61.4868
19.946	61.5087
19.964	61.5286
19.982	61.5464
20	61.5623
20.018	61.5763
20.036	61.5886
20.054	61.5992
20.072	61.6083
20.09	61.616
20.108	61.6223
20.126	61.6271
20.144	61.6305
20.162	61.6322
20.18	61.6321
20.198	61.6298
20.216	61.6245
20.234	61.6163
20.252	61.6039
20.27	61.5876
20.288	61.5669
20.306	61.5414
20.324	61.5116
20.342	61.4772
20.36	61.439
20.378	61.3984
20.396	61.3552
20.414	61.3121
20.432	61.2686
20.45	61.2273
20.468	61.189
20.486	61.1543
20.504	61.1251
20.522	61.1008
20.54	61.0829
20.558	61.0715
20.576	61.0657
20.594	61.0656
20.612	61.07
20.63	61.0763
20.648	61.0851
20.666	61.0917
20.684	61.0967
20.702	61.0969
20.72	61.0898
20.738	61.0757
20.756	61.0512
20.774	61.017
20.792	60.972
20.81	60.9153
20.828	60.8486
20.846	60.773
20.864	60.6884
20.882	60.6
20.9	60.5065
20.918	60.4131
20.936	60.3231
20.954	60.2364
20.972	60.16
20.99	60.0924
21.008	60.0381
21.026	59.9993
21.044	59.9755
21.062	59.9692
21.08	59.9801
21.098	60.007
21.116	60.0507
21.134	60.1091
21.152	60.1791
21.17	60.2618
21.188	60.3516
21.206	60.4485
21.224	60.5502
21.242	60.6521
21.26	60.7556
21.278	60.8567
21.296	60.9546
21.314	61.0493
21.332	61.1387
21.35	61.2234
21.368	61.303
21.386	61.3775
21.404	61.4472
21.422	61.5123
21.44	61.5728
21.458	61.6291
21.476	61.6815
21.494	61.7296
21.512	61.7724
21.53	61.8107
21.548	61.8422
21.566	61.8658
21.584	61.8817
21.602	61.8854
21.62	61.8776
21.638	61.8562
21.656	61.8181
21.674	61.7646
21.692	61.6928
21.71	61.6014
21.728	61.4914
21.746	61.3623
21.764	61.2135
21.782	61.0476
21.8	60.8653
21.818	60.6664
21.836	60.4573
21.854	60.2372
21.872	60.0091
21.89	59.7801
21.908	59.5473
21.926	59.3175
21.944	59.0952
21.962	58.8783
21.98	58.6743
21.998	58.4834
22.016	58.3061
22.034	58.1466
22.052	58.0038
22.07	57.8782
22.088	57.7712
22.106	57.682
22.124	57.609
22.142	57.5524
22.16	57.5113
22.178	57.4823
22.196	57.4666
22.214	57.4619
22.232	57.465
22.25	57.4774
22.268	57.4961
22.286	57.5197
22.304	57.5488
22.322	57.5813
22.34	57.6165
22.358	57.6549
22.376	57.6958
22.394	57.7389
22.412	57.7847
22.43	57.8335
22.448	57.885
22.466	57.9401
22.484	57.9995
22.502	58.0629
22.52	58.131
22.538	58.2044
22.556	58.2828
22.574	58.3665
22.592	58.4559
22.61	58.5505
22.628	58.6496
22.646	58.7538
22.664	58.862
22.682	58.9725
22.7	59.0864
22.718	59.2018
22.736	59.3163
22.754	59.4315
22.772	59.5448
22.79	59.6539
22.808	59.7603
22.826	59.8614
22.844	59.9553
22.862	60.0433
22.88	60.1239
22.898	60.1962
22.916	60.2608
22.934	60.3174
22.952	60.3655
22.97	60.4055
22.988	60.4386
23.006	60.4649
23.024	60.4844
23.042	60.4988
23.06	60.508
23.078	60.5121
23.096	60.513
23.114	60.5109
23.132	60.5056
23.15	60.498
23.168	60.4883
23.186	60.4762
23.204	60.4612
23.222	60.4439
23.24	60.4238
23.258	60.3994
23.276	60.371
23.294	60.3385
23.312	60.3008
23.33	60.258
23.348	60.2102
23.366	60.1566
23.384	60.0974
23.402	60.0326
23.42	59.9617
23.438	59.884
23.456	59.8003
23.474	59.7125
23.492	59.6198
23.51	59.5229
23.528	59.4261
23.546	59.3296
23.564	59.2329
23.582	59.1418
23.6	59.0579
23.618	58.9792
23.636	58.9117
23.654	58.8583
23.672	58.8164
23.69	58.7901
23.708	58.7822
23.726	58.7909
23.744	58.8171
23.762	58.8618
23.78	58.9253
23.798	59.0057
23.816	59.1016
23.834	59.2148
23.852	59.3424
23.87	59.48
23.888	59.6301
23.906	59.7901
23.924	59.9536
23.942	60.1218
23.96	60.2942
23.978	60.4638
23.996	60.6283
24.014	60.7902
24.032	60.9451
24.05	61.0898
24.068	61.2267
24.086	61.354
24.104	61.4699
24.122	61.5759
24.14	61.6705
24.158	61.7517
24.176	61.8201
24.194	61.8755
24.212	61.9167
24.23	61.9434
24.248	61.956
24.266	61.9544
24.284	61.9379
24.302	61.9068
24.32	61.8621
24.338	61.8045
24.356	61.7326
24.374	61.6487
24.392	61.5562
24.41	61.4537
24.428	61.3421
24.446	61.2252
24.464	61.1035
24.482	60.9751
24.5	60.8469
24.518	60.7246
24.536	60.6044
24.554	60.489
24.572	60.3828
24.59	60.2854
24.608	60.1962
24.626	60.1166
24.644	60.0486
24.662	59.992
24.68	59.942
24.698	59.8946
24.716	59.8548
24.734	59.8169
24.752	59.772
24.77	59.7225
24.788	59.6692
24.806	59.5991
24.824	59.5039
24.842	59.3934
24.86	59.2564
24.878	59.0791
24.896	58.8657
24.914	58.6161
24.932	58.3201
24.95	57.9716
24.968	57.576
24.986	57.1315
25.004	56.6352
25.022	56.0843
25.04	55.4837
25.058	54.8403
25.076	54.1545
25.094	53.4214
25.112	52.6553
25.13	51.8703
25.148	51.0539
25.166	50.2155
25.184	49.3772
25.202	48.5471
25.22	47.7107
25.238	46.8896
25.256	46.1061
25.274	45.3473
25.292	44.6184
25.31	43.9425
25.328	43.3321
25.346	42.7712
25.364	42.2749
25.382	41.861
25.4	41.5267
25.418	41.2682
25.436	41.0953
25.454	41.0163
25.472	41.0267
25.49	41.125
25.508	41.3112
25.526	41.5866
25.544	41.9505
25.562	42.3982
25.58	42.925
25.598	43.5359
25.616	44.2266
25.634	44.9884
25.652	45.8171
25.67	46.7198
25.688	47.687
25.706	48.7074
25.724	49.7826
25.742	50.9159
25.76	52.0942
25.778	53.3056
25.796	54.5605
25.814	55.8528
25.832	57.1669
25.85	58.4937
25.868	59.8465
25.886	61.2124
25.904	62.5747
25.922	63.9326
25.94	65.2957
25.958	66.6449
25.976	67.9609
25.994	69.2527
26.012	70.5209
26.03	71.7477
26.048	72.918
26.066	74.0449
26.084	75.1227
26.102	76.1374
26.12	77.08
26.138	77.96
26.156	78.7736
26.174	79.5143
26.192	80.1777
26.21	80.7671
26.228	81.287
26.246	81.7421
26.264	82.1283
26.282	82.4451
26.3	82.7055
26.318	82.9217
26.336	83.0846
26.354	83.1962
26.372	83.2739
26.39	83.3331
26.408	83.3596
26.426	83.3596
26.444	83.3518
26.462	83.3514
26.48	83.3424
26.498	83.3331
26.516	83.3399
26.534	83.3748
26.552	83.4244
26.57	83.4954
26.588	83.5994
26.606	83.7431
26.624	83.9167
26.642	84.1264
26.66	84.3808
26.678	84.6858
26.696	85.0366
26.714	85.4318
26.732	85.8706
26.75	86.3538
26.768	86.8832
26.786	87.4539
26.804	88.0601
26.822	88.7025
26.84	89.3892
26.858	90.1054
26.876	90.8354
26.894	91.5742
26.912	92.338
26.93	93.1085
26.948	93.8653
26.966	94.6239
26.984	95.4396
27.002	96.2047
27.02	96.8002
27.028	96.9612