File: Bakgrunnsmateriale/MATLAB/FTIR/ftir_data/subBb/Mapping_121/C-4040-8_t08_cm-1.asc
PE IR       SPECTRUM    SPECTRUM    ASCII       PEDS        1.60
  -1
C-9965~1.ASC
17/03/27
15:07:52.00
17/03/27
15:07:52.00
tln
$C-4040-8_t0008$<tbV0>[-5.2,-13.0,8.0,0.0,27,1,0]
370
64

2002,4.07
MIRTGS : RIGHTBACK : INTERNAL 2
MIR : ON : INTERNAL 2
OPTKBR

0.200000
8
8.000000
FILLER
RATIO
SPECTRUM
UNLOCKED 256

DOUBLE
64
COMBINED
1
0
0

1.000000
RATIO

1
0
TRUE
51149
0
LEFT NOT FITTED RIGHT NOT FITTED 0
NONE
NONE
15600
12
4.427000
51148
TRUE
1 0 8 72 0 0 0 0

15798

#HDR
-1
-1
#GR
CM-1
%T
2.38419e-05
0.0
5000
-1.000000
4631
8
92.212
25.6097
#DATA
5000	63.8279
4996	63.6077
4992	64.0153
4988	64.3301
4984	64.0867
4980	63.872
4976	63.726
4972	63.7646
4968	64.0755
4964	63.8214
4960	63.352
4956	63.5597
4952	63.9061
4948	63.5628
4944	62.4931
4940	62.1873
4936	63.2074
4932	63.9054
4928	63.6811
4924	63.5849
4920	63.9505
4916	64.2823
4912	64.6338
4908	64.8932
4904	64.7186
4900	64.3525
4896	64.1836
4892	64.3598
4888	64.3076
4884	63.8584
4880	63.7536
4876	64.2975
4872	64.674
4868	64.3572
4864	64.1112
4860	64.0514
4856	64.029
4852	64.3152
4848	64.6354
4844	64.6613
4840	64.5262
4836	64.4937
4832	64.4376
4828	64.3106
4824	64.2006
4820	64.0475
4816	63.964
4812	64.1617
4808	64.5337
4804	64.6401
4800	64.4513
4796	64.264
4792	64.2693
4788	64.5407
4784	64.7536
4780	64.6304
4776	64.4699
4772	64.57
4768	64.6625
4764	64.5456
4760	64.4156
4756	64.418
4752	64.5188
4748	64.6279
4744	64.6631
4740	64.6267
4736	64.4645
4732	64.2556
4728	64.212
4724	64.2166
4720	64.2292
4716	64.2466
4712	64.3056
4708	64.5157
4704	64.5776
4700	64.434
4696	64.3344
4692	64.4276
4688	64.6255
4684	64.6257
4680	64.6324
4676	64.8128
4672	64.7051
4668	64.3677
4664	64.2345
4660	64.3408
4656	64.5951
4652	64.5958
4648	64.1747
4644	63.9051
4640	64.0449
4636	64.3028
4632	64.4813
4628	64.4418
4624	64.2596
4620	64.1922
4616	64.2505
4612	64.2676
4608	64.1824
4604	64.1259
4600	64.1525
4596	64.2124
4592	64.1221
4588	63.8956
4584	63.8021
4580	63.8557
4576	63.9434
4572	63.9198
4568	63.818
4564	63.7755
4560	63.8544
4556	63.9904
4552	63.8173
4548	63.4776
4544	63.2678
4540	63.0579
4536	62.9086
4532	62.7366
4528	62.7299
4524	63.2415
4520	63.6889
4516	63.5749
4512	63.4021
4508	63.5844
4504	63.7056
4500	63.4458
4496	63.2937
4492	63.166
4488	62.8928
4484	62.7973
4480	63.1287
4476	63.176
4472	62.8695
4468	63.1128
4464	63.4537
4460	63.8914
4456	64.8245
4452	67.2188
4448	69.7245
4444	69.1989
4440	65.9042
4436	62.0817
4432	60.7583
4428	61.3481
4424	61.2133
4420	60.6283
4416	60.5563
4412	60.6812
4408	60.6598
4404	61.2453
4400	62.4711
4396	63.8744
4392	74.2269
4388	90.1995
4384	88.3473
4380	73.7771
4376	66.4244
4372	65.0629
4368	64.6044
4364	64.4433
4360	64.5529
4356	64.4323
4352	63.8432
4348	63.3414
4344	63.1693
4340	63.2175
4336	63.3839
4332	63.4873
4328	63.2667
4324	62.9926
4320	63.0861
4316	63.146
4312	63.0498
4308	63.0654
4304	63.0089
4300	63.0528
4296	63.4284
4292	63.6045
4288	63.4017
4284	63.4058
4280	63.4716
4276	63.3636
4272	63.3522
4268	63.3178
4264	63.2432
4260	63.3111
4256	63.4456
4252	63.5132
4248	63.4794
4244	63.4664
4240	63.5885
4236	63.7008
4232	63.7522
4228	63.7344
4224	63.6244
4220	63.5873
4216	63.6001
4212	63.6579
4208	63.8061
4204	63.8829
4200	63.9135
4196	63.8766
4192	63.6204
4188	63.424
4184	63.3123
4180	63.1508
4176	63.1698
4172	63.2127
4168	63.3583
4164	63.7677
4160	64.006
4156	63.9761
4152	63.8609
4148	63.7527
4144	63.7875
4140	63.9059
4136	64.0293
4132	64.1744
4128	64.1854
4124	64.0351
4120	63.925
4116	63.9112
4112	63.9625
4108	64.0947
4104	64.2109
4100	64.1516
4096	64.0541
4092	64.1707
4088	64.3112
4084	64.2333
4080	64.0304
4076	63.8352
4072	63.8068
4068	63.9664
4064	64.0897
4060	64.1304
4056	64.179
4052	64.1484
4048	64.0537
4044	64.0638
4040	64.168
4036	64.2083
4032	64.1011
4028	63.9542
4024	63.9611
4020	64.1397
4016	64.2243
4012	64.1727
4008	64.1554
4004	64.0728
4000	64.0486
3996	64.235
3992	64.3251
3988	64.2759
3984	64.2257
3980	64.0541
3976	63.8478
3972	63.7904
3968	63.8443
3964	63.9028
3960	63.8878
3956	63.9425
3952	64.07
3948	64.0988
3944	64.0034
3940	63.7759
3936	63.6302
3932	63.7056
3928	63.8776
3924	64.0069
3920	64.0165
3916	63.9448
3912	63.8948
3908	63.9505
3904	64.0204
3900	64.0274
3896	64.0553
3892	64.1555
3888	64.1526
3884	63.9751
3880	63.8839
3876	63.9475
3872	63.9713
3868	63.9288
3864	63.948
3860	64.0302
3856	64.145
3852	64.1022
3848	63.8874
3844	63.8275
3840	63.9625
3836	64.0304
3832	63.8802
3828	63.699
3824	63.5725
3820	63.5491
3816	63.6245
3812	63.7336
3808	63.9272
3804	64.0386
3800	63.9327
3796	63.7468
3792	63.679
3788	63.597
3784	63.4243
3780	63.4377
3776	63.586
3772	63.7241
3768	63.8693
3764	63.9101
3760	63.8621
3756	63.9076
3752	63.9797
3748	63.9361
3744	63.8962
3740	63.9315
3736	63.9759
3732	63.8955
3728	63.7196
3724	63.7096
3720	63.83
3716	63.9466
3712	64.0067
3708	63.959
3704	63.9288
3700	63.905
3696	63.871
3692	63.912
3688	63.9124
3684	63.8364
3680	63.8566
3676	63.9486
3672	63.9028
3668	63.721
3664	63.6318
3660	63.6616
3656	63.6697
3652	63.7918
3648	63.9169
3644	63.7604
3640	63.582
3636	63.6164
3632	63.7681
3628	63.8027
3624	63.7063
3620	63.6793
3616	63.6778
3612	63.6493
3608	63.5426
3604	63.3934
3600	63.4133
3596	63.6154
3592	63.8188
3588	63.8766
3584	63.7704
3580	63.6372
3576	63.5772
3572	63.5616
3568	63.5627
3564	63.5994
3560	63.6364
3556	63.5063
3552	63.307
3548	63.362
3544	63.5411
3540	63.5603
3536	63.5152
3532	63.4905
3528	63.4322
3524	63.4063
3520	63.4163
3516	63.404
3512	63.33
3508	63.2278
3504	63.2428
3500	63.3343
3496	63.4468
3492	63.5828
3488	63.5402
3484	63.4145
3480	63.3856
3476	63.2633
3472	63.0861
3468	63.0892
3464	63.2853
3460	63.5286
3456	63.5394
3452	63.3416
3448	63.2962
3444	63.3877
3440	63.3617
3436	63.2552
3432	63.1895
3428	63.1449
3424	63.0775
3420	63.0085
3416	62.9832
3412	63.0145
3408	63.0507
3404	63.0478
3400	63.0552
3396	63.0354
3392	63.0236
3388	63.1098
3384	63.2
3380	63.237
3376	63.1946
3372	63.0959
3368	63.028
3364	62.9755
3360	62.9429
3356	62.9505
3352	62.9328
3348	62.9001
3344	62.865
3340	62.8305
3336	62.8732
3332	62.9776
3328	63.027
3324	62.9851
3320	62.9578
3316	62.9945
3312	62.9944
3308	62.9227
3304	62.8682
3300	62.8728
3296	62.8653
3292	62.7901
3288	62.6892
3284	62.6884
3280	62.805
3276	62.8541
3272	62.7963
3268	62.7195
3264	62.6704
3260	62.7225
3256	62.779
3252	62.7774
3248	62.7721
3244	62.7327
3240	62.7366
3236	62.8211
3232	62.8524
3228	62.8103
3224	62.8263
3220	62.8624
3216	62.8382
3212	62.8563
3208	62.8948
3204	62.8716
3200	62.8124
3196	62.7271
3192	62.6615
3188	62.6608
3184	62.6928
3180	62.7141
3176	62.6068
3172	62.4134
3168	62.3727
3164	62.5643
3160	62.807
3156	62.8558
3152	62.7711
3148	62.6615
3144	62.4927
3140	62.402
3136	62.4453
3132	62.4587
3128	62.4823
3124	62.5841
3120	62.5594
3116	62.4699
3112	62.5955
3108	62.7575
3104	62.7092
3100	62.5957
3096	62.5144
3092	62.4389
3088	62.4001
3084	62.4058
3080	62.4759
3076	62.5743
3072	62.5918
3068	62.5323
3064	62.4934
3060	62.4834
3056	62.4493
3052	62.4556
3048	62.5402
3044	62.5452
3040	62.4403
3036	62.3736
3032	62.3225
3028	62.2892
3024	62.3853
3020	62.4784
3016	62.4135
3012	62.3332
3008	62.3436
3004	62.3913
3000	62.4232
2996	62.3598
2992	62.2326
2988	62.1634
2984	62.1325
2980	62.0913
2976	61.9753
2972	61.7986
2968	61.8025
2964	61.9521
2960	61.9768
2956	61.8865
2952	61.8241
2948	61.8727
2944	62.0107
2940	62.0862
2936	62.0463
2932	61.9848
2928	61.8949
2924	61.811
2920	61.8286
2916	61.8747
2912	61.8302
2908	61.8012
2904	61.8702
2900	61.9025
2896	61.8523
2892	61.8178
2888	61.8447
2884	61.9174
2880	61.9276
2876	61.8729
2872	61.8981
2868	61.9907
2864	61.9514
2860	61.7737
2856	61.7279
2852	61.8007
2848	61.8153
2844	61.8691
2840	61.9488
2836	61.9125
2832	61.8294
2828	61.7972
2824	61.8555
2820	61.9503
2816	61.9438
2812	61.9136
2808	61.9536
2804	61.9494
2800	61.8639
2796	61.7351
2792	61.6276
2788	61.6181
2784	61.6876
2780	61.7676
2776	61.782
2772	61.7529
2768	61.7279
2764	61.6972
2760	61.6934
2756	61.7193
2752	61.7395
2748	61.7388
2744	61.7336
2740	61.7737
2736	61.7542
2732	61.6158
2728	61.5372
2724	61.5606
2720	61.5983
2716	61.5948
2712	61.5278
2708	61.4894
2704	61.4941
2700	61.5277
2696	61.6266
2692	61.6354
2688	61.4987
2684	61.3745
2680	61.3202
2676	61.3371
2672	61.3617
2668	61.2842
2664	61.1924
2660	61.1914
2656	61.2186
2652	61.2349
2648	61.239
2644	61.2106
2640	61.1768
2636	61.148
2632	61.1295
2628	61.1768
2624	61.218
2620	61.1788
2616	61.1643
2612	61.2117
2608	61.1845
2604	61.0874
2600	61.0346
2596	61.0194
2592	61.0152
2588	61.0149
2584	61.0493
2580	61.059
2576	60.9571
2572	60.866
2568	60.8708
2564	60.9148
2560	60.9568
2556	60.9447
2552	60.8725
2548	60.8389
2544	60.8552
2540	60.843
2536	60.8017
2532	60.8318
2528	60.9283
2524	60.9411
2520	60.8768
2516	60.8292
2512	60.7631
2508	60.6957
2504	60.6893
2500	60.6583
2496	60.644
2492	60.7072
2488	60.6611
2484	60.5118
2480	60.5061
2476	60.6341
2472	60.6902
2468	60.6371
2464	60.6227
2460	60.6863
2456	60.6337
2452	60.517
2448	60.5394
2444	60.5624
2440	60.5158
2436	60.5259
2432	60.523
2428	60.4079
2424	60.2862
2420	60.2967
2416	60.3665
2412	60.4035
2408	60.4223
2404	60.3712
2400	60.2851
2396	60.2832
2392	60.3603
2388	60.4143
2384	60.39
2380	60.3764
2376	60.4142
2372	60.4327
2368	60.4359
2364	60.4092
2360	60.3089
2356	60.1891
2352	60.1224
2348	60.0867
2344	60.0561
2340	60.0883
2336	60.1722
2332	60.1789
2328	60.0877
2324	60.0485
2320	60.1101
2316	60.1715
2312	60.1203
2308	60.0318
2304	60.0554
2300	60.0402
2296	59.9192
2292	59.8674
2288	59.8855
2284	59.8882
2280	59.9235
2276	59.9925
2272	60.0199
2268	59.9894
2264	59.9281
2260	59.8823
2256	59.8517
2252	59.8604
2248	59.8773
2244	59.8244
2240	59.793
2236	59.8016
2232	59.7294
2228	59.6077
2224	59.5554
2220	59.5987
2216	59.6967
2212	59.774
2208	59.7551
2204	59.6601
2200	59.5714
2196	59.5169
2192	59.4642
2188	59.3912
2184	59.3502
2180	59.3866
2176	59.4266
2172	59.4425
2168	59.4748
2164	59.477
2160	59.4399
2156	59.4136
2152	59.4395
2148	59.4719
2144	59.4001
2140	59.3177
2136	59.295
2132	59.2634
2128	59.2237
2124	59.1423
2120	59.088
2116	59.1202
2112	59.128
2108	59.1204
2104	59.1381
2100	59.1079
2096	59.0578
2092	59.079
2088	59.1154
2084	59.0659
2080	58.9128
2076	58.7873
2072	58.8297
2068	58.9476
2064	59.0411
2060	59.0793
2056	58.9752
2052	58.8705
2048	58.9019
2044	58.9175
2040	58.8754
2036	58.8323
2032	58.7752
2028	58.6966
2024	58.6951
2020	58.7637
2016	58.7874
2012	58.7969
2008	58.7719
2004	58.6836
2000	58.6418
1996	58.6866
1992	58.6653
1988	58.562
1984	58.524
1980	58.5241
1976	58.5076
1972	58.5075
1968	58.4952
1964	58.4591
1960	58.465
1956	58.4508
1952	58.4068
1948	58.4477
1944	58.4902
1940	58.4278
1936	58.3401
1932	58.3328
1928	58.3562
1924	58.3599
1920	58.3656
1916	58.3538
1912	58.3267
1908	58.2633
1904	58.1731
1900	58.1599
1896	58.2243
1892	58.2206
1888	58.1373
1884	58.1061
1880	58.1225
1876	58.0813
1872	58.0316
1868	58.0676
1864	58.1204
1860	58.1243
1856	58.0585
1852	57.9669
1848	57.9677
1844	57.9694
1840	57.8548
1836	57.7803
1832	57.8532
1828	57.9225
1824	57.8929
1820	57.843
1816	57.796
1812	57.753
1808	57.7257
1804	57.7232
1800	57.7455
1796	57.7609
1792	57.7385
1788	57.7127
1784	57.7368
1780	57.7424
1776	57.7156
1772	57.7107
1768	57.7129
1764	57.753
1760	57.7904
1756	57.6824
1752	57.5166
1748	57.4412
1744	57.4309
1740	57.4498
1736	57.4516
1732	57.4086
1728	57.3796
1724	57.4034
1720	57.4992
1716	57.5472
1712	57.4153
1708	57.3144
1704	57.3914
1700	57.4791
1696	57.4083
1692	57.2846
1688	57.3
1684	57.3308
1680	57.2742
1676	57.2903
1672	57.3308
1668	57.2701
1664	57.1876
1660	57.2135
1656	57.416
1652	57.5258
1648	57.3385
1644	57.0855
1640	56.9793
1636	56.9743
1632	56.899
1628	56.8253
1624	56.8366
1620	56.816
1616	56.7603
1612	56.7152
1608	56.7075
1604	56.6902
1600	56.6306
1596	56.5968
1592	56.5818
1588	56.5821
1584	56.59
1580	56.6232
1576	56.6491
1572	56.6118
1568	56.596
1564	56.7357
1560	56.9493
1556	56.8634
1552	56.5485
1548	56.4341
1544	56.622
1540	56.7384
1536	56.5344
1532	56.3117
1528	56.3101
1524	56.4322
1520	56.4635
1516	56.3936
1512	56.3839
1508	56.3909
1504	56.2931
1500	56.1446
1496	56.0112
1492	55.9842
1488	56.0172
1484	55.9977
1480	56.0369
1476	56.1419
1472	56.112
1468	55.9767
1464	55.9862
1460	56.0102
1456	55.8545
1452	55.7818
1448	55.8066
1444	55.6797
1440	55.5728
1436	55.6113
1432	55.6772
1428	55.7014
1424	55.7424
1420	55.8003
1416	55.7157
1412	55.5447
1408	55.4695
1404	55.4827
1400	55.4619
1396	55.4127
1392	55.422
1388	55.4126
1384	55.3237
1380	55.2786
1376	55.3113
1372	55.3283
1368	55.3186
1364	55.3392
1360	55.356
1356	55.3352
1352	55.3139
1348	55.2759
1344	55.1806
1340	55.0587
1336	55.0052
1332	55.0564
1328	55.151
1324	55.1918
1320	55.1853
1316	55.1145
1312	54.9355
1308	54.8147
1304	54.8281
1300	54.8739
1296	54.8964
1292	54.8737
1288	54.8394
1284	54.7893
1280	54.6546
1276	54.5445
1272	54.6023
1268	54.719
1264	54.7425
1260	54.6905
1256	54.6206
1252	54.555
1248	54.5464
1244	54.581
1240	54.5451
1236	54.488
1232	54.5189
1228	54.5665
1224	54.5899
1220	54.5678
1216	54.4702
1212	54.3875
1208	54.3847
1204	54.3992
1200	54.3642
1196	54.2902
1192	54.2273
1188	54.2018
1184	54.2051
1180	54.206
1176	54.1689
1172	54.1319
1168	54.1459
1164	54.1336
1160	54.0478
1156	53.9865
1152	54.0114
1148	54.047
1144	54.0213
1140	53.95
1136	53.8789
1132	53.8976
1128	53.9552
1124	53.9344
1120	53.8847
1116	53.831
1112	53.8034
1108	53.8004
1104	53.7659
1100	53.7121
1096	53.6024
1092	53.5201
1088	53.5257
1084	53.4353
1080	53.3303
1076	53.4438
1072	53.6038
1068	53.6036
1064	53.5269
1060	53.4698
1056	53.4049
1052	53.3803
1048	53.5121
1044	53.6159
1040	53.5701
1036	53.4565
1032	53.344
1028	53.3056
1024	53.2724
1020	53.1735
1016	53.0125
1012	53.0206
1008	53.2093
1004	53.2857
1000	53.2527
996	 53.15
992	 53.0571
988	 53.0402
984	 52.999
980	 52.9137
976	 52.8738
972	 52.9351
968	 53.0159
964	 53.0387
960	 53.0379
956	 52.9871
952	 52.7832
948	 52.6125
944	 52.6206
940	 52.5799
936	 52.4906
932	 52.3776
928	 52.2303
924	 52.3571
920	 52.7556
916	 52.839
912	 52.2484
908	 51.6104
904	 51.6107
900	 51.8002
896	 51.6185
892	 51.501
888	 51.7468
884	 51.9432
880	 51.9023
876	 51.9295
872	 52.181
868	 52.3017
864	 52.1682
860	 51.8649
856	 51.5924
852	 51.6635
848	 51.7624
844	 51.6272
840	 51.6044
836	 51.7409
832	 51.7483
828	 51.7354
824	 51.782
820	 51.6744
816	 51.4385
812	 51.2671
808	 51.317
804	 51.3558
800	 51.174
796	 50.9881
792	 50.9682
788	 50.9534
784	 50.8506
780	 50.8174
776	 50.8694
772	 50.9402
768	 51.0078
764	 51.0684
760	 51.0093
756	 50.9358
752	 50.855
748	 50.6787
744	 50.7568
740	 50.9611
736	 50.9599
732	 50.782
728	 50.5889
724	 50.4615
720	 50.2597
716	 50.1554
712	 50.2298
708	 50.1443
704	 49.9212
700	 49.8881
696	 49.9781
692	 49.9641
688	 49.9397
684	 49.9388
680	 49.8129
676	 49.72
672	 49.8772
668	 49.9364
664	 49.56
660	 49.1718
656	 49.1159
652	 49.1717
648	 49.2646
644	 49.363
640	 49.3016
636	 49.1311
632	 49.019
628	 49.0496
624	 49.0284
620	 48.7975
616	 48.7006
612	 48.7628
608	 48.6207
604	 48.7257
600	 49.1041
596	 49.1328
592	 49.0574
588	 48.943
584	 48.7201
580	 48.6331
576	 48.723
572	 48.6836
568	 48.1665
564	 47.7221
560	 47.6896
556	 47.5323
552	 47.2705
548	 47.2812
544	 47.4637
540	 47.4242
536	 47.0967
532	 46.9817
528	 46.8822
524	 46.3007
520	 45.8554
516	 46.0101
512	 46.258
508	 46.128
504	 46.0876
500	 46.9799
496	 47.7653
492	 46.9702
488	 45.9735
484	 46.0384
480	 46.2965
476	 46.1642
472	 45.3264
468	 44.1874
464	 43.7466
460	 44.0245
456	 44.7165
452	 44.8892
448	 44.9717
444	 45.7987
440	 45.367
436	 44.2065
432	 44.6766
428	 45.3962
424	 45.0269
420	 44.3848
416	 44.1612
412	 45.0397
408	 46.5848
404	 48.1245
400	 42.7925
396	 30.5634
392	 25.6951
388	 38.9381
384	 57.286
380	 53.667
376	 48.8819
372	 46.6544
370	 33.2792