File: Bakgrunnsmateriale/MATLAB/FTIR/ftir_data/subBb/Mapping_121/C-4040-8_t94_cm-1.asc
PE IR       SPECTRUM    SPECTRUM    ASCII       PEDS        1.60
  -1
C-1E6F~1.ASC
17/03/27
22:14:29.00
17/03/27
22:14:29.00
tln
$C-4040-8_t0094$<tbV0>[0.0,7.8,8.0,0.0,27,1,0]
370
64

2002,4.07
MIRTGS : RIGHTBACK : INTERNAL 2
MIR : ON : INTERNAL 2
OPTKBR

0.200000
8
8.000000
FILLER
RATIO
SPECTRUM
UNLOCKED 256

DOUBLE
64
COMBINED
1
0
0

1.000000
RATIO

1
0
TRUE
51149
0
LEFT NOT FITTED RIGHT NOT FITTED 0
NONE
NONE
15600
12
4.427000
51148
TRUE
1 0 8 72 0 0 0 0

15798

#HDR
-1
-1
#GR
CM-1
%T
2.38419e-05
0.0
5000
-1.000000
4631
8
200
25.9969
#DATA
5000	65.3836
4996	65.1406
4992	65.1032
4988	65.3168
4984	65.5397
4980	65.3141
4976	64.6013
4972	64.4901
4968	65.1753
4964	65.6076
4960	65.7534
4956	65.8667
4952	65.6947
4948	65.52
4944	65.3774
4940	65.1493
4936	65.1563
4932	65.1756
4928	64.9951
4924	65.1184
4920	65.524
4916	65.6473
4912	65.4986
4908	65.352
4904	65.2392
4900	65.2699
4896	65.2585
4892	65.0345
4888	65.1145
4884	65.3002
4880	65.3915
4876	65.8437
4872	66.0042
4868	65.6056
4864	65.3811
4860	65.3301
4856	65.135
4852	65.1683
4848	65.3239
4844	65.0063
4840	64.709
4836	64.8186
4832	64.9621
4828	65.1393
4824	65.314
4820	65.4166
4816	65.6017
4812	65.5195
4808	65.0272
4804	64.652
4800	64.8461
4796	65.2611
4792	65.3225
4788	65.2707
4784	65.2925
4780	65.1712
4776	65.0638
4772	65.0513
4768	64.9572
4764	64.9009
4760	64.9333
4756	64.9408
4752	64.9882
4748	64.9932
4744	64.8661
4740	64.6316
4736	64.3518
4732	64.2726
4728	64.4675
4724	64.8084
4720	64.9384
4716	64.9068
4712	65.0257
4708	65.0025
4704	64.783
4700	64.6698
4696	64.7331
4692	64.8641
4688	64.9601
4684	64.9747
4680	64.8614
4676	64.7087
4672	64.7021
4668	64.7938
4664	64.8415
4660	65.0292
4656	65.3815
4652	65.5583
4648	65.4647
4644	65.1575
4640	64.9905
4636	65.1718
4632	65.344
4628	65.435
4624	65.4391
4620	65.359
4616	65.2823
4612	64.9936
4608	64.6421
4604	64.6697
4600	64.9219
4596	65.1483
4592	65.402
4588	65.5563
4584	65.5524
4580	65.4275
4576	65.2661
4572	65.1774
4568	65.0854
4564	65.1617
4560	65.5766
4556	65.9151
4552	65.9438
4548	65.8085
4544	65.4723
4540	65.1099
4536	64.9433
4532	65.0484
4528	65.4316
4524	65.8524
4520	65.9338
4516	65.4288
4512	65.0376
4508	65.2689
4504	65.3561
4500	65.2735
4496	65.4326
4492	65.6363
4488	65.8444
4484	66.0923
4480	66.1442
4476	65.8264
4472	65.5634
4468	65.673
4464	65.819
4460	65.8032
4456	65.8391
4452	65.9995
4448	65.9909
4444	65.7694
4440	65.7438
4436	65.8316
4432	65.7445
4428	65.5696
4424	65.2953
4420	65.3007
4416	66.1246
4412	66.9538
4408	67.6835
4404	68.1657
4400	68.7062
4396	68.3856
4392	68.6696
4388	53.5493
4384	27.4195
4380	38.2294
4376	62.1249
4372	66.805
4368	66.0083
4364	66.3327
4360	66.6165
4356	66.3164
4352	66.0215
4348	66.0042
4344	65.8413
4340	65.6595
4336	65.4068
4332	65.3081
4328	65.6199
4324	66.0336
4320	66.1889
4316	65.9884
4312	65.7878
4308	65.8049
4304	65.7795
4300	65.7271
4296	65.832
4292	65.7909
4288	65.4886
4284	65.306
4280	65.3403
4276	65.5525
4272	65.7666
4268	65.8253
4264	65.7155
4260	65.5624
4256	65.5668
4252	65.4212
4248	65.1372
4244	65.2077
4240	65.3992
4236	65.4053
4232	65.2689
4228	65.064
4224	65.0687
4220	65.2807
4216	65.37
4212	65.2897
4208	65.2375
4204	65.0655
4200	64.7225
4196	64.5806
4192	64.5121
4188	64.6326
4184	65.1053
4180	65.3391
4176	65.432
4172	65.4003
4168	65.0662
4164	64.9855
4160	65.1802
4156	65.2582
4152	65.1497
4148	65.0977
4144	65.1532
4140	65.1303
4136	64.9766
4132	64.7428
4128	64.6357
4124	64.6458
4120	64.6928
4116	64.8419
4112	64.9024
4108	64.888
4104	65.0119
4100	65.1268
4096	65.0327
4092	64.8066
4088	64.7546
4084	64.8542
4080	64.8655
4076	64.8412
4072	64.8831
4068	64.9149
4064	64.8388
4060	64.7889
4056	64.852
4052	64.982
4048	65.0682
4044	65.0475
4040	65.1028
4036	65.1949
4032	65.2083
4028	65.2827
4024	65.3733
4020	65.365
4016	65.2264
4012	64.9929
4008	64.8957
4004	64.9687
4000	65.0141
3996	65.0276
3992	65.0357
3988	65.0858
3984	65.2129
3980	65.172
3976	64.9588
3972	64.9132
3968	65.0301
3964	65.0838
3960	65.0626
3956	65.1031
3952	65.2037
3948	65.178
3944	65.1145
3940	65.1708
3936	65.241
3932	65.2269
3928	65.1367
3924	65.0965
3920	65.1562
3916	65.2885
3912	65.398
3908	65.3429
3904	65.256
3900	65.3274
3896	65.3867
3892	65.2811
3888	65.2539
3884	65.3821
3880	65.4674
3876	65.5142
3872	65.5625
3868	65.5173
3864	65.3108
3860	65.1475
3856	65.1382
3852	65.1158
3848	65.1008
3844	65.1166
3840	65.1027
3836	65.0946
3832	65.0742
3828	65.054
3824	65.1488
3820	65.2852
3816	65.268
3812	65.0928
3808	65.0229
3804	65.1898
3800	65.3547
3796	65.345
3792	65.2328
3788	65.222
3784	65.2748
3780	65.2434
3776	65.3152
3772	65.4224
3768	65.3452
3764	65.2676
3760	65.3195
3756	65.3526
3752	65.3061
3748	65.3503
3744	65.4278
3740	65.3766
3736	65.3572
3732	65.4538
3728	65.5334
3724	65.444
3720	65.2748
3716	65.2402
3712	65.2576
3708	65.2445
3704	65.2776
3700	65.3688
3696	65.4813
3692	65.5073
3688	65.3777
3684	65.1989
3680	65.115
3676	65.2108
3672	65.3301
3668	65.2948
3664	65.2394
3660	65.2357
3656	65.2158
3652	65.1756
3648	65.2142
3644	65.3869
3640	65.4054
3636	65.157
3632	64.9935
3628	65.101
3624	65.2886
3620	65.2915
3616	65.1389
3612	65.03
3608	65.0704
3604	65.1762
3600	65.1684
3596	65.1096
3592	65.1887
3588	65.302
3584	65.2929
3580	65.2497
3576	65.2334
3572	65.2432
3568	65.1977
3564	65.1219
3560	65.2154
3556	65.3301
3552	65.2138
3548	65.0146
3544	64.9524
3540	65.0335
3536	65.1348
3532	65.1669
3528	65.1882
3524	65.2693
3520	65.3146
3516	65.2731
3512	65.3196
3508	65.4011
3504	65.2193
3500	64.928
3496	64.9405
3492	65.1629
3488	65.2673
3484	65.1546
3480	64.9864
3476	65.0413
3472	65.2972
3468	65.4727
3464	65.4151
3460	65.2993
3456	65.288
3452	65.2027
3448	65.0696
3444	65.1019
3440	65.2227
3436	65.3748
3432	65.4098
3428	65.2157
3424	65.1319
3420	65.2318
3416	65.3018
3412	65.3356
3408	65.3448
3404	65.2833
3400	65.2113
3396	65.2048
3392	65.2171
3388	65.2529
3384	65.282
3380	65.186
3376	65.0713
3372	65.1799
3368	65.3366
3364	65.2467
3360	65.0783
3356	65.0516
3352	65.1837
3348	65.3521
3344	65.3938
3340	65.3459
3336	65.2884
3332	65.2529
3328	65.2944
3324	65.2823
3320	65.175
3316	65.1395
3312	65.1664
3308	65.2165
3304	65.2663
3300	65.2204
3296	65.1397
3292	65.0812
3288	65.0475
3284	65.1643
3280	65.3283
3276	65.3478
3272	65.2889
3268	65.2019
3264	65.1592
3260	65.1674
3256	65.1277
3252	65.1142
3248	65.1614
3244	65.2131
3240	65.1785
3236	65.067
3232	65.0486
3228	65.1075
3224	65.2117
3220	65.3754
3216	65.4448
3212	65.4617
3208	65.4206
3204	65.1979
3200	65.0244
3196	65.0474
3192	65.1762
3188	65.2765
3184	65.2679
3180	65.2374
3176	65.2785
3172	65.2678
3168	65.1572
3164	65.2189
3160	65.4505
3156	65.4984
3152	65.3143
3148	65.194
3144	65.2853
3140	65.3912
3136	65.3402
3132	65.3913
3128	65.5041
3124	65.3558
3120	65.2566
3116	65.2948
3112	65.285
3108	65.3702
3104	65.4664
3100	65.381
3096	65.2563
3092	65.2442
3088	65.2256
3084	65.1643
3080	65.2025
3076	65.3068
3072	65.3538
3068	65.3308
3064	65.2653
3060	65.233
3056	65.2573
3052	65.3053
3048	65.3538
3044	65.365
3040	65.4064
3036	65.4629
3032	65.4029
3028	65.3092
3024	65.3203
3020	65.3908
3016	65.4175
3012	65.37
3008	65.3182
3004	65.3335
3000	65.35
2996	65.3269
2992	65.3309
2988	65.2655
2984	65.1158
2980	65.1154
2976	65.1744
2972	65.1043
2968	65.0918
2964	65.1927
2960	65.2226
2956	65.1737
2952	65.1314
2948	65.1464
2944	65.2205
2940	65.2889
2936	65.2696
2932	65.1213
2928	64.9174
2924	64.8097
2920	64.8137
2916	64.8612
2912	65.0201
2908	65.2305
2904	65.258
2900	65.1284
2896	65.0887
2892	65.161
2888	65.1777
2884	65.1378
2880	65.1566
2876	65.1811
2872	65.1269
2868	65.109
2864	65.257
2860	65.3677
2856	65.2402
2852	65.1162
2848	65.1034
2844	65.0533
2840	65.0879
2836	65.2526
2832	65.2987
2828	65.2357
2824	65.2475
2820	65.2857
2816	65.2421
2812	65.2249
2808	65.2763
2804	65.2602
2800	65.2095
2796	65.2192
2792	65.2683
2788	65.305
2784	65.3273
2780	65.3618
2776	65.3851
2772	65.3748
2768	65.317
2764	65.2279
2760	65.2408
2756	65.3677
2752	65.4419
2748	65.3953
2744	65.2619
2740	65.1537
2736	65.1475
2732	65.1987
2728	65.2531
2724	65.2894
2720	65.3473
2716	65.4063
2712	65.4109
2708	65.3696
2704	65.3023
2700	65.2794
2696	65.3304
2692	65.3453
2688	65.2809
2684	65.28
2680	65.3317
2676	65.311
2672	65.3212
2668	65.4125
2664	65.4171
2660	65.3071
2656	65.2309
2652	65.2382
2648	65.3009
2644	65.3413
2640	65.2833
2636	65.2426
2632	65.3346
2628	65.3894
2624	65.2965
2620	65.2718
2616	65.3559
2612	65.3897
2608	65.3715
2604	65.3367
2600	65.277
2596	65.2711
2592	65.3502
2588	65.377
2584	65.33
2580	65.2834
2576	65.267
2572	65.2654
2568	65.2576
2564	65.2894
2560	65.3276
2556	65.3351
2552	65.3188
2548	65.356
2544	65.4559
2540	65.4351
2536	65.31
2532	65.1566
2528	65.0674
2524	65.2264
2520	65.4509
2516	65.5114
2512	65.4297
2508	65.2206
2504	65.1149
2500	65.3418
2496	65.5631
2492	65.5465
2488	65.4498
2484	65.357
2480	65.3719
2476	65.4551
2472	65.4514
2468	65.3499
2464	65.2215
2460	65.1969
2456	65.2764
2452	65.2739
2448	65.195
2444	65.2055
2440	65.3028
2436	65.3214
2432	65.3165
2428	65.4109
2424	65.3648
2420	65.1295
2416	65.0944
2412	65.2416
2408	65.176
2404	65.134
2400	65.3507
2396	65.4304
2392	65.3129
2388	65.235
2384	65.2216
2380	65.2709
2376	65.3221
2372	65.3036
2368	65.2884
2364	65.2949
2360	65.2821
2356	65.2793
2352	65.2654
2348	65.2604
2344	65.3209
2340	65.3424
2336	65.3015
2332	65.2572
2328	65.2133
2324	65.276
2320	65.4059
2316	65.459
2312	65.4603
2308	65.3828
2304	65.2693
2300	65.2583
2296	65.3439
2292	65.4165
2288	65.4044
2284	65.377
2280	65.3723
2276	65.3608
2272	65.3255
2268	65.2832
2264	65.2648
2260	65.2597
2256	65.2823
2252	65.3263
2248	65.3618
2244	65.3426
2240	65.271
2236	65.2512
2232	65.2793
2228	65.3165
2224	65.384
2220	65.4129
2216	65.3785
2212	65.339
2208	65.3314
2204	65.3209
2200	65.2689
2196	65.2837
2192	65.3651
2188	65.3754
2184	65.3557
2180	65.3617
2176	65.3461
2172	65.3849
2168	65.4686
2164	65.4824
2160	65.415
2156	65.3876
2152	65.3827
2148	65.297
2144	65.3356
2140	65.484
2136	65.5425
2132	65.4853
2128	65.39
2124	65.3176
2120	65.2578
2116	65.2569
2112	65.3449
2108	65.4059
2104	65.3085
2100	65.1827
2096	65.1582
2092	65.1443
2088	65.1689
2084	65.3445
2080	65.52
2076	65.612
2072	65.7084
2068	65.6609
2064	65.4612
2060	65.3285
2056	65.2595
2052	65.2507
2048	65.3358
2044	65.3774
2040	65.3428
2036	65.3213
2032	65.3142
2028	65.301
2024	65.3037
2020	65.3299
2016	65.3654
2012	65.3886
2008	65.3559
2004	65.3008
2000	65.3027
1996	65.3494
1992	65.3672
1988	65.2955
1984	65.2269
1980	65.2549
1976	65.327
1972	65.429
1968	65.5093
1964	65.5011
1960	65.4099
1956	65.3145
1952	65.3035
1948	65.3245
1944	65.3438
1940	65.4069
1936	65.4498
1932	65.3622
1928	65.2648
1924	65.3238
1920	65.3811
1916	65.2872
1912	65.1675
1908	65.1767
1904	65.3176
1900	65.4373
1896	65.4324
1892	65.3697
1888	65.3663
1884	65.4147
1880	65.3995
1876	65.3631
1872	65.3942
1868	65.3811
1864	65.3287
1860	65.351
1856	65.3594
1852	65.3195
1848	65.3427
1844	65.3995
1840	65.3838
1836	65.3678
1832	65.4132
1828	65.4378
1824	65.4033
1820	65.3615
1816	65.37
1812	65.3843
1808	65.3869
1804	65.3964
1800	65.3318
1796	65.2422
1792	65.2453
1788	65.3057
1784	65.3715
1780	65.3769
1776	65.3182
1772	65.2935
1768	65.3082
1764	65.3043
1760	65.256
1756	65.1555
1752	65.0967
1748	65.1613
1744	65.2485
1740	65.2211
1736	65.1081
1732	65.0646
1728	65.1084
1724	65.0853
1720	64.992
1716	65.033
1712	65.1793
1708	65.3028
1704	65.3945
1700	65.3769
1696	65.2389
1692	65.1116
1688	65.0696
1684	65.0962
1680	65.1757
1676	65.2339
1672	65.2209
1668	65.1905
1664	65.1992
1660	65.2282
1656	65.2235
1652	65.25
1648	65.3375
1644	65.3744
1640	65.3785
1636	65.3793
1632	65.3184
1628	65.2269
1624	65.1993
1620	65.2294
1616	65.1868
1612	65.0958
1608	65.0941
1604	65.1585
1600	65.165
1596	65.1252
1592	65.1442
1588	65.1716
1584	65.1716
1580	65.2007
1576	65.1301
1572	64.9872
1568	64.9809
1564	65.0311
1560	65.0615
1556	65.1248
1552	65.2271
1548	65.2804
1544	65.1973
1540	65.0884
1536	65.0715
1532	65.1058
1528	65.1531
1524	65.2272
1520	65.279
1516	65.2442
1512	65.2218
1508	65.322
1504	65.4191
1500	65.4144
1496	65.3741
1492	65.3133
1488	65.2557
1484	65.2257
1480	65.1843
1476	65.1401
1472	65.1015
1468	65.0976
1464	65.1878
1460	65.2879
1456	65.2287
1452	65.0982
1448	65.1199
1444	65.295
1440	65.4302
1436	65.3192
1432	65.0906
1428	65.0081
1424	65.0565
1420	65.1163
1416	65.1503
1412	65.1861
1408	65.2469
1404	65.2701
1400	65.2318
1396	65.2092
1392	65.1488
1388	65.0598
1384	65.0899
1380	65.1356
1376	65.0643
1372	65.0266
1368	65.067
1364	65.1483
1360	65.2507
1356	65.2668
1352	65.2415
1348	65.2625
1344	65.2759
1340	65.1893
1336	65.0599
1332	65.0491
1328	65.128
1324	65.167
1320	65.1255
1316	65.003
1312	64.8875
1308	64.9229
1304	65.0606
1300	65.1683
1296	65.2266
1292	65.2018
1288	65.1018
1284	65.0485
1280	65.0789
1276	65.1356
1272	65.095
1268	64.9658
1264	64.9807
1260	65.1227
1256	65.1631
1252	65.0664
1248	64.9769
1244	64.9948
1240	65.0819
1236	65.1201
1232	65.0676
1228	65.0483
1224	65.0407
1220	64.9688
1216	64.9472
1212	64.9662
1208	64.9925
1204	65.0692
1200	65.117
1196	65.1025
1192	65.0482
1188	64.9853
1184	64.9315
1180	64.9573
1176	65.0446
1172	65.0769
1168	65.0203
1164	64.9287
1160	64.9535
1156	64.9905
1152	64.881
1148	64.8506
1144	64.9639
1140	64.9967
1136	64.9276
1132	64.8638
1128	64.8729
1124	64.9472
1120	64.957
1116	64.9224
1112	64.9795
1108	64.9791
1104	64.7648
1100	64.6178
1096	64.6827
1092	64.7291
1088	64.7795
1084	64.8887
1080	64.9136
1076	64.8356
1072	64.7496
1068	64.7954
1064	64.8782
1060	64.7533
1056	64.6007
1052	64.6959
1048	64.7859
1044	64.6768
1040	64.529
1036	64.5217
1032	64.7217
1028	64.8751
1024	64.8471
1020	64.844
1016	64.8456
1012	64.6627
1008	64.5728
1004	64.6585
1000	64.6968
996	 64.7628
992	 64.79
988	 64.7669
984	 64.752
980	 64.6271
976	 64.5591
972	 64.6668
968	 64.7676
964	 64.7894
960	 64.6731
956	 64.5849
952	 64.7299
948	 64.7537
944	 64.6139
940	 64.3831
936	 64.1302
932	 64.2845
928	 64.7433
924	 65.1313
920	 65.1475
916	 64.8431
912	 64.7616
908	 64.9415
904	 64.7964
900	 64.5326
896	 64.6492
892	 64.7941
888	 64.7597
884	 64.6318
880	 64.5898
876	 64.7269
872	 64.6722
868	 64.4356
864	 64.4348
860	 64.623
856	 64.7219
852	 64.7238
848	 64.6646
844	 64.6243
840	 64.6077
836	 64.5655
832	 64.6028
828	 64.5728
824	 64.3575
820	 64.2381
816	 64.3017
812	 64.3006
808	 64.1826
804	 64.0314
800	 63.9975
796	 64.1932
792	 64.279
788	 64.0458
784	 63.8359
780	 63.8857
776	 64.0448
772	 64.1503
768	 64.0937
764	 63.9149
760	 63.8754
756	 63.9828
752	 64.0902
748	 64.207
744	 64.0921
740	 63.7088
736	 63.5922
732	 63.7489
728	 63.7127
724	 63.5854
720	 63.5898
716	 63.539
712	 63.422
708	 63.3606
704	 63.3994
700	 63.4257
696	 63.3835
692	 63.519
688	 63.7088
684	 63.6396
680	 63.4304
676	 63.3256
672	 63.2004
668	 62.9731
664	 62.924
660	 63.0098
656	 63.1107
652	 63.2304
648	 63.2308
644	 63.1464
640	 63.0219
636	 62.8243
632	 62.6769
628	 62.7674
624	 63.0643
620	 63.0855
616	 62.8167
612	 62.689
608	 62.6333
604	 62.6034
600	 62.674
596	 62.8251
592	 62.8297
588	 62.6265
584	 62.5796
580	 62.6737
576	 62.7099
572	 62.7189
568	 62.6374
564	 62.4703
560	 62.4815
556	 62.7459
552	 62.7429
548	 62.353
544	 61.9289
540	 61.5701
536	 61.4488
532	 61.65
528	 61.7701
524	 61.298
520	 60.9284
516	 61.2765
512	 61.6775
508	 61.7206
504	 61.5475
500	 61.7203
496	 62.173
492	 61.8733
488	 61.194
484	 60.7953
480	 60.1971
476	 59.7603
472	 59.951
468	 60.057
464	 59.6491
460	 59.2542
456	 59.6893
452	 60.2101
448	 59.8274
444	 59.9067
440	 59.9364
436	 58.1656
432	 56.6841
428	 57.3601
424	 57.9597
420	 56.8059
416	 55.9837
412	 58.8129
408	 60.8596
404	 58.1326
400	 60.5039
396	 63.3066
392	 62.3545
388	 52.8163
384	 43.6883
380	 58.4279
376	 152.462
372	 200
370	 191.82