File: Bakgrunnsmateriale/MATLAB/FTIR/ftir_data/subBb/Mapping_121/C-4040-8_t89.asc
PE IR       SPECTRUM    SPECTRUM    ASCII       PEDS        1.60
  -1
C-C54E~1.ASC
17/03/27
21:51:24.00
17/03/27
21:51:51.00
tln
$C-4040-8_t0089$<tbV0>[13.0,7.8,8.0,0.0,27,1,0]
27.028
64

2002,4.07
MIRTGS : RIGHTBACK : INTERNAL 2
MIR : ON : INTERNAL 2
OPTKBR

0.200000
8
8.000000
FILLER
RATIO
SPECTRUM
UNLOCKED 256

DOUBLE
64
COMBINED
1
0
0

0.002000
RATIO

1
0
TRUE
51149
0
LEFT NOT FITTED RIGHT NOT FITTED 0
NONE
NONE
15600
12
4.427000
51148
TRUE
1 0 8 72 0 0 0 0

15798

#HDR
-1
-1
#GR
µM
%T
2.38419e-05
0.0
2.000000
0.002000
12515
8
173.319
24.173
#DATA
2.000000	 64.8829
2.018000	 65.6491
2.036000	 64.9356
2.054000	 65.5089
2.072000	 64.8468
2.090000	 65.2448
2.108000	 65.3664
2.126000	 65.1767
2.144000	 65.7048
2.162000	 65.3837
2.180000	 64.9559
2.198000	 64.8235
2.216000	 64.6332
2.234000	 64.1109
2.252000	 64.0864
2.270000	 63.8704
2.288000	 64.5204
2.306000	 64.1074
2.324000	 64.2705
2.342000	 64.6246
2.360000	 64.3451
2.378000	 65.0525
2.396000	 64.912
2.414000	 65.3673
2.432000	 65.1146
2.450000	 65.072
2.468000	 64.9835
2.486000	 65.3607
2.504000	 65.0554
2.522000	 65.2974
2.540000	 65.0541
2.558000	 64.9792
2.576000	 65.0904
2.594000	 65.0534
2.612000	 64.8687
2.630000	 64.9645
2.648000	 65.0218
2.666000	 65.3694
2.684000	 65.4557
2.702000	 65.2629
2.720000	 65.1122
2.738000	 65.0071
2.756000	 65.2045
2.774000	 65.2457
2.792000	 65.3082
2.810000	 65.6003
2.828000	 65.1445
2.846000	 65.0061
2.864000	 65.3109
2.882000	 65.3049
2.900000	 64.8818
2.918000	 65.2216
2.936000	 65.287
2.954000	 65.1654
2.972000	 65.1635
2.990000	 65.2294
3.008000	 65.2115
3.026000	 65.0713
3.044000	 65.1573
3.062000	 65.2789
3.080000	 65.196
3.098000	 65.02
3.116000	 65.0959
3.134000	 64.9957
3.152000	 65.3037
3.170000	 65.329
3.188000	 65.1381
3.206000	 65.057
3.224000	 65.4067
3.242000	 65.2253
3.260000	 65.1921
3.278000	 65.2392
3.296000	 65.1289
3.314000	 65.0951
3.332000	 65.0561
3.350000	 64.9266
3.368000	 65.0396
3.386000	 64.9801
3.404000	 65.2317
3.422000	 64.8531
3.440000	 65.1871
3.458000	 65.2099
3.476000	 65.1855
3.494000	 65.2455
3.512000	 64.9939
3.530000	 65.206
3.548000	 65.1677
3.566000	 65.2209
3.584000	 65.4012
3.602000	 65.1572
3.620000	 65.1664
3.638000	 65.3553
3.656000	 65.2178
3.674000	 65.1977
3.692000	 65.2206
3.710000	 65.0967
3.728000	 65.1221
3.746000	 65.3383
3.764000	 65.102
3.782000	 65.2457
3.800000	 65.1602
3.818000	 65.2129
3.836000	 65.2277
3.854000	 65.2068
3.872000	 65.2605
3.890000	 65.2621
3.908000	 65.3732
3.926000	 65.2959
3.944000	 65.1761
3.962000	 65.2227
3.980000	 65.1705
3.998000	 65.3622
4.016000	 65.2942
4.034000	 65.2629
4.052000	 65.2312
4.070000	 65.1312
4.088000	 65.0727
4.106000	 65.3652
4.124000	 65.1999
4.141999	 65.0099
4.160000	 65.2797
4.178000	 65.199
4.196000	 65.3365
4.214000	 65.3488
4.232000	 65.3278
4.250000	 65.26
4.268000	 65.2199
4.286000	 65.3247
4.304000	 65.4087
4.322000	 65.3882
4.340000	 65.1635
4.358000	 65.2513
4.375999	 65.3444
4.394000	 65.3314
4.412000	 65.3605
4.430000	 65.5101
4.448000	 65.3035
4.466000	 65.179
4.484000	 65.2471
4.502000	 65.3755
4.520000	 65.284
4.538000	 65.2477
4.556000	 65.2505
4.574000	 65.3033
4.592000	 65.4074
4.609999	 65.3947
4.628000	 65.4739
4.646000	 65.5457
4.664000	 65.4049
4.682000	 65.5028
4.700000	 65.3991
4.718000	 65.2973
4.736000	 65.5149
4.754000	 65.345
4.772000	 65.3895
4.790000	 65.4169
4.808000	 65.4507
4.826000	 65.8964
4.843999	 65.7502
4.862000	 65.1466
4.880000	 65.157
4.898000	 65.278
4.916000	 65.2218
4.934000	 65.189
4.952000	 65.3419
4.970000	 65.4468
4.988000	 65.377
5.006000	 65.3715
5.024000	 65.4888
5.042000	 65.5355
5.060000	 65.4658
5.077999	 65.4793
5.096000	 65.3666
5.114000	 65.2078
5.132000	 65.2079
5.150000	 65.3012
5.168000	 65.4033
5.186000	 65.2658
5.204000	 65.2862
5.222000	 65.2529
5.240000	 65.1807
5.258000	 65.1498
5.276000	 65.2575
5.294000	 65.2766
5.312000	 65.347
5.330000	 65.3857
5.348000	 65.3439
5.366000	 65.3346
5.384000	 65.3091
5.402000	 65.3139
5.420000	 65.3227
5.438000	 65.3143
5.456000	 65.3208
5.474000	 65.3959
5.492000	 65.3407
5.510000	 65.3036
5.528000	 65.3581
5.546000	 65.2828
5.564000	 65.2291
5.582000	 65.2269
5.600000	 65.286
5.618000	 65.298
5.636000	 65.2379
5.654000	 65.2865
5.672000	 65.1402
5.690000	 64.9975
5.708000	 65.0351
5.726000	 65.184
5.744000	 65.0586
5.762000	 64.8544
5.780000	 64.7637
5.798000	 64.9654
5.816000	 65.2224
5.834000	 65.1696
5.852000	 65.2087
5.870000	 65.2014
5.888000	 65.2264
5.906000	 65.2362
5.923999	 65.1701
5.942000	 65.1834
5.960000	 65.2151
5.978000	 65.2245
5.996000	 65.3084
6.014000	 65.2721
6.032000	 65.1559
6.050000	 65.1571
6.068000	 65.2255
6.086000	 65.2731
6.104000	 65.2383
6.122000	 65.2258
6.140000	 65.2173
6.158000	 65.1938
6.176000	 65.2123
6.194000	 65.122
6.212000	 65.0104
6.230000	 65.0732
6.248000	 65.1231
6.266000	 65.0949
6.284000	 65.1142
6.302000	 65.136
6.320000	 65.0904
6.338000	 64.9782
6.356000	 64.9085
6.374000	 64.9495
6.392000	 64.9572
6.410000	 64.9337
6.428000	 64.9753
6.446000	 65.1057
6.464000	 65.17
6.482000	 65.1476
6.500000	 65.1808
6.518000	 65.2112
6.536000	 65.1492
6.554000	 65.0469
6.572000	 65.0455
6.590000	 65.0453
6.608000	 64.9693
6.626000	 64.9484
6.644000	 65.058
6.662000	 65.1683
6.680000	 65.1771
6.698000	 65.1237
6.716000	 65.0451
6.734000	 65.0818
6.752000	 65.154
6.770000	 65.1779
6.788000	 65.2004
6.806000	 65.1697
6.824000	 65.1546
6.842000	 65.1908
6.860000	 65.2212
6.878000	 65.2847
6.896000	 65.3014
6.914000	 65.2263
6.932000	 65.1867
6.950000	 65.1375
6.968000	 65.0161
6.986000	 64.9533
7.004000	 65.0239
7.022000	 65.1224
7.040000	 65.135
7.058000	 65.1012
7.076000	 65.1115
7.094000	 65.1512
7.112000	 65.1462
7.130000	 65.1297
7.148000	 65.1813
7.166000	 65.2379
7.184000	 65.2064
7.202000	 65.1355
7.220000	 65.1072
7.238000	 65.1188
7.256000	 65.1245
7.274000	 65.0994
7.292000	 65.0572
7.310000	 65.0524
7.328000	 65.1234
7.346000	 65.2221
7.364000	 65.2601
7.382000	 65.2212
7.400000	 65.1678
7.418000	 65.1279
7.436000	 65.062
7.454000	 64.9737
7.472000	 64.9261
7.490000	 64.9309
7.508000	 64.9466
7.526000	 64.9653
7.544000	 65.0078
7.562000	 65.0515
7.580000	 65.0371
7.598000	 64.9678
7.616000	 64.918
7.634000	 64.9228
7.652000	 64.9568
7.670000	 64.9954
7.688000	 65.0131
7.706000	 64.9931
7.724000	 64.9738
7.742000	 64.9906
7.760000	 65.0138
7.778000	 65.0161
7.796000	 65.0228
7.814000	 65.0514
7.832000	 65.0669
7.850000	 65.017
7.868000	 64.8997
7.886000	 64.788
7.904000	 64.7495
7.922000	 64.7778
7.940000	 64.8384
7.958000	 64.9115
7.976000	 64.9661
7.994000	 64.9777
8.012000	 64.971
8.030000	 64.9679
8.048000	 64.9511
8.065999	 64.9212
8.084000	 64.9135
8.102000	 64.9397
8.120000	 64.9721
8.138000	 64.9869
8.155999	 64.9823
8.173999	 64.9814
8.192000	 65.0136
8.210000	 65.0675
8.228000	 65.0854
8.246000	 65.0356
8.263999	 64.9532
8.282000	 64.8883
8.300000	 64.8574
8.318000	 64.8612
8.336000	 64.8973
8.353999	 64.9426
8.372000	 64.9635
8.390000	 64.955
8.408000	 64.9351
8.426000	 64.9122
8.443999	 64.8908
8.462000	 64.8823
8.480000	 64.8867
8.498000	 64.8937
8.516000	 64.9052
8.533999	 64.9367
8.552000	 64.9846
8.570000	 65.0202
8.588000	 65.0223
8.606000	 64.9942
8.624000	 64.9422
8.641999	 64.8612
8.660000	 64.7571
8.678000	 64.6703
8.696000	 64.6578
8.714000	 64.7391
8.731999	 64.871
8.750000	 64.9799
8.768000	 65.0222
8.786000	 65.0078
8.804000	 64.972
8.821999	 64.935
8.840000	 64.8952
8.858000	 64.8539
8.876000	 64.8342
8.894000	 64.8689
8.911999	 64.9671
8.930000	 65.0927
8.948000	 65.1865
8.966000	 65.2143
8.984000	 65.1968
9.001999	 65.1846
9.020000	 65.2019
9.038000	 65.2184
9.056000	 65.1788
9.074000	 65.0612
9.092000	 64.9012
9.109999	 64.7602
9.128000	 64.6748
9.146000	 64.636
9.164000	 64.6122
9.182000	 64.5843
9.199999	 64.5513
9.218000	 64.5163
9.236000	 64.4789
9.254000	 64.4484
9.272000	 64.4449
9.289999	 64.4798
9.308000	 64.5393
9.326000	 64.5941
9.344000	 64.6299
9.362000	 64.6606
9.379999	 64.7047
9.398000	 64.7586
9.416000	 64.7973
9.434000	 64.8067
9.452000	 64.8078
9.469999	 64.846
9.488000	 64.9526
9.506000	 65.1089
9.524000	 65.2479
9.542000	 65.3015
9.560000	 65.2499
9.577999	 65.1298
9.596000	 64.9992
9.614000	 64.9005
9.632000	 64.8455
9.650000	 64.8208
9.667999	 64.8067
9.686000	 64.7972
9.704000	 64.806
9.722000	 64.8488
9.740000	 64.9186
9.757999	 64.9764
9.776000	 64.9715
9.794000	 64.8769
9.812000	 64.7087
9.830000	 64.5141
9.847999	 64.3392
9.866000	 64.2091
9.884000	 64.1313
9.902000	 64.1079
9.920000	 64.1379
9.937999	 64.2122
9.956000	 64.3086
9.974000	 64.3994
9.992000	 64.4667
10.01	64.512
10.028	64.5523
10.046	64.604
10.064	64.6702
10.082	64.7402
10.1	64.8006
10.118	64.8453
10.136	64.8781
10.154	64.9058
10.172	64.9292
10.19	64.9395
10.208	64.9276
10.226	64.8919
10.244	64.8434
10.262	64.8013
10.28	64.7811
10.298	64.7876
10.316	64.8122
10.334	64.8392
10.352	64.8538
10.37	64.8445
10.388	64.8082
10.406	64.7497
10.424	64.6829
10.442	64.6295
10.46	64.6093
10.478	64.631
10.496	64.6853
10.514	64.749
10.532	64.7957
10.55	64.8135
10.568	64.807
10.586	64.7901
10.604	64.7689
10.622	64.7339
10.64	64.6656
10.658	64.5516
10.676	64.4038
10.694	64.259
10.712	64.1692
10.73	64.1728
10.748	64.2786
10.766	64.4575
10.784	64.6574
10.802	64.8189
10.82	64.9013
10.838	64.8884
10.856	64.7894
10.874	64.6309
10.892	64.4416
10.91	64.2457
10.928	64.061
10.946	63.9055
10.964	63.7998
10.982	63.7663
11	63.8173
11.018	63.9471
11.036	64.126
11.054	64.3053
11.072	64.4373
11.09	64.4868
11.108	64.4481
11.126	64.3441
11.144	64.2153
11.162	64.1098
11.18	64.0662
11.198	64.1067
11.216	64.2292
11.234	64.4074
11.252	64.5962
11.27	64.7519
11.288	64.843
11.306	64.8659
11.324	64.8435
11.342	64.812
11.36	64.803
11.378	64.8313
11.396	64.8896
11.414	64.9561
11.432	65.0096
11.45	65.0398
11.468	65.0486
11.486	65.0451
11.504	65.035
11.522	65.0179
11.54	64.989
11.558	64.9445
11.576	64.8849
11.594	64.8152
11.612	64.7442
11.63	64.6806
11.648	64.6303
11.666	64.5946
11.684	64.5723
11.702	64.5603
11.72	64.5544
11.738	64.5512
11.756	64.5482
11.774	64.5441
11.792	64.5381
11.81	64.5306
11.828	64.5207
11.846	64.5061
11.864	64.4818
11.882	64.443
11.9	64.3878
11.918	64.3197
11.936	64.2482
11.954	64.1853
11.972	64.1423
11.99	64.1263
12.008	64.1376
12.026	64.1708
12.044	64.2163
12.062	64.2632
12.08	64.3018
12.098	64.3254
12.116	64.3303
12.134	64.3157
12.152	64.284
12.17	64.2404
12.188	64.1933
12.206	64.1522
12.224	64.1249
12.242	64.1159
12.26	64.1238
12.278	64.143
12.296	64.1655
12.314	64.1841
12.332	64.1951
12.35	64.1977
12.368	64.1943
12.386	64.1887
12.404	64.185
12.422	64.1862
12.44	64.1941
12.458	64.2081
12.476	64.2254
12.494	64.2415
12.512	64.2504
12.53	64.2457
12.548	64.2216
12.566	64.1749
12.584	64.1058
12.602	64.0185
12.62	63.9211
12.638	63.823
12.656	63.7336
12.674	63.6597
12.692	63.6052
12.71	63.5711
12.728	63.5555
12.746	63.5553
12.764	63.5658
12.782	63.5817
12.8	63.5964
12.818	63.6044
12.836	63.6015
12.854	63.5871
12.872	63.5638
12.89	63.5377
12.908	63.5174
12.926	63.5115
12.944	63.526
12.962	63.5638
12.98	63.6229
12.998	63.6973
13.016	63.7782
13.034	63.8568
13.052	63.9263
13.07	63.983
13.088	64.0269
13.106	64.0613
13.124	64.091
13.142	64.1203
13.16	64.152
13.178	64.1862
13.196	64.2211
13.214	64.2531
13.232	64.2786
13.25	64.2945
13.268	64.2996
13.286	64.2943
13.304	64.2798
13.322	64.2577
13.34	64.2291
13.358	64.1935
13.376	64.1493
13.394	64.094
13.412	64.0257
13.43	63.9438
13.448	63.8501
13.466	63.7488
13.484	63.646
13.502	63.5484
13.52	63.4623
13.538	63.3918
13.556	63.3391
13.574	63.3041
13.592	63.2849
13.61	63.2781
13.628	63.2801
13.646	63.287
13.664	63.2962
13.682	63.3052
13.7	63.3132
13.718	63.3205
13.736	63.3285
13.754	63.3392
13.772	63.3549
13.79	63.3776
13.808	63.4087
13.826	63.4479
13.844	63.4936
13.862	63.5432
13.88	63.5932
13.898	63.6405
13.916	63.6822
13.934	63.7169
13.952	63.7441
13.97	63.7652
13.988	63.7824
14.006	63.7979
14.024	63.8127
14.042	63.827
14.06	63.8397
14.078	63.8487
14.096	63.8516
14.114	63.8468
14.132	63.8336
14.15	63.8126
14.168	63.7855
14.186	63.7545
14.204	63.7224
14.222	63.691
14.24	63.6617
14.258	63.634
14.276	63.6066
14.294	63.5771
14.312	63.5431
14.33	63.5026
14.348	63.4543
14.366	63.3983
14.384	63.3366
14.402	63.2733
14.42	63.2135
14.438	63.1626
14.456	63.1259
14.474	63.1078
14.492	63.1112
14.51	63.137
14.528	63.1831
14.546	63.2453
14.564	63.3183
14.582	63.3956
14.6	63.4703
14.618	63.5362
14.636	63.5877
14.654	63.6218
14.672	63.6372
14.69	63.6346
14.708	63.6158
14.726	63.5841
14.744	63.5429
14.762	63.4961
14.78	63.4466
14.798	63.3966
14.816	63.3479
14.834	63.3008
14.852	63.2554
14.87	63.211
14.888	63.1664
14.906	63.1206
14.924	63.0723
14.942	63.0209
14.96	62.9665
14.978	62.9101
14.996	62.8532
15.014	62.7981
15.032	62.7478
15.05	62.7053
15.068	62.6729
15.086	62.6522
15.104	62.6441
15.122	62.6485
15.14	62.6637
15.158	62.6878
15.176	62.7183
15.194	62.7525
15.212	62.7879
15.23	62.8231
15.248	62.8574
15.266	62.8907
15.284	62.9234
15.302	62.9563
15.32	62.99
15.338	63.0248
15.356	63.0601
15.374	63.0947
15.392	63.1265
15.41	63.1534
15.428	63.173
15.446	63.1828
15.464	63.1817
15.482	63.1693
15.5	63.1458
15.518	63.1128
15.536	63.0723
15.554	63.0268
15.572	62.9792
15.59	62.9329
15.608	62.8898
15.626	62.8516
15.644	62.8199
15.662	62.7955
15.68	62.7785
15.698	62.7688
15.716	62.7662
15.734	62.7699
15.752	62.7791
15.77	62.7933
15.788	62.8113
15.806	62.8324
15.824	62.8558
15.842	62.8805
15.86	62.9054
15.878	62.9299
15.896	62.9533
15.914	62.9746
15.932	62.9936
15.95	63.01
15.968	63.0233
15.986	63.0336
16.004	63.0407
16.022	63.0446
16.04	63.0445
16.058	63.0399
16.076	63.0304
16.094	63.015
16.112	62.9938
16.13	62.9669
16.148	62.9342
16.166	62.8978
16.184	62.8596
16.202	62.8219
16.22	62.7891
16.238	62.7641
16.256	62.75
16.274	62.7502
16.292	62.7653
16.31	62.7962
16.328	62.841
16.346	62.8964
16.364	62.9594
16.382	63.0235
16.4	63.0833
16.418	63.1346
16.436	63.1714
16.454	63.1915
16.472	63.1935
16.49	63.1777
16.508	63.1474
16.526	63.1051
16.544	63.0576
16.562	63.01
16.58	62.9665
16.598	62.9334
16.616	62.9125
16.634	62.9055
16.652	62.9117
16.67	62.9282
16.688	62.9522
16.706	62.9773
16.724	63.0001
16.742	63.0154
16.76	63.0188
16.778	63.0087
16.796	62.9827
16.814	62.9423
16.832	62.8882
16.85	62.8242
16.868	62.7537
16.886	62.6795
16.904	62.6074
16.922	62.5397
16.94	62.48
16.958	62.4308
16.976	62.393
16.994	62.3678
17.012	62.3541
17.03	62.3517
17.048	62.3581
17.066	62.3721
17.084	62.3915
17.102	62.4138
17.12	62.4381
17.138	62.4624
17.156	62.4865
17.174	62.5097
17.192	62.5323
17.21	62.5546
17.228	62.577
17.246	62.6002
17.264	62.6246
17.282	62.6505
17.3	62.6777
17.318	62.7058
17.336	62.7336
17.354	62.7604
17.372	62.7837
17.39	62.8026
17.408	62.8147
17.426	62.8186
17.444	62.8133
17.462	62.7974
17.48	62.7708
17.498	62.7337
17.516	62.687
17.534	62.6314
17.552	62.5699
17.57	62.5033
17.588	62.4354
17.606	62.3674
17.624	62.3015
17.642	62.2395
17.66	62.1823
17.678	62.1312
17.696	62.0861
17.714	62.0475
17.732	62.0151
17.75	61.9887
17.768	61.968
17.786	61.9526
17.804	61.9426
17.822	61.9377
17.84	61.9379
17.858	61.9428
17.876	61.9523
17.894	61.9655
17.912	61.9823
17.93	62.0008
17.948	62.0205
17.966	62.0393
17.984	62.0566
18.002	62.0703
18.02	62.0795
18.038	62.083
18.056	62.08
18.074	62.0699
18.092	62.0528
18.11	62.0289
18.128	61.9994
18.146	61.9649
18.164	61.9272
18.182	61.8875
18.2	61.8472
18.218	61.808
18.236	61.7706
18.254	61.7365
18.272	61.7061
18.29	61.6802
18.308	61.6588
18.326	61.6419
18.344	61.6296
18.362	61.6218
18.38	61.6184
18.398	61.6194
18.416	61.6249
18.434	61.635
18.452	61.65
18.47	61.6702
18.488	61.6955
18.506	61.7261
18.524	61.7618
18.542	61.8027
18.56	61.8476
18.578	61.8965
18.596	61.9474
18.614	62.0002
18.632	62.0527
18.65	62.1045
18.668	62.1531
18.686	62.1984
18.704	62.2383
18.722	62.2727
18.74	62.2996
18.758	62.3191
18.776	62.3299
18.794	62.3318
18.812	62.3239
18.83	62.3062
18.848	62.2784
18.866	62.2404
18.884	62.1921
18.902	62.134
18.92	62.0662
18.938	61.9895
18.956	61.9047
18.974	61.813
18.992	61.7161
19.01	61.6155
19.028	61.5133
19.046	61.411
19.064	61.3114
19.082	61.2158
19.1	61.1272
19.118	61.0464
19.136	60.9762
19.154	60.9166
19.172	60.8696
19.19	60.8346
19.208	60.8121
19.226	60.8013
19.244	60.801
19.262	60.8104
19.28	60.8266
19.298	60.8494
19.316	60.8748
19.334	60.903
19.352	60.9299
19.37	60.9559
19.388	60.9777
19.406	60.9955
19.424	61.0077
19.442	61.0141
19.46	61.0148
19.478	61.0094
19.496	60.9992
19.514	60.9842
19.532	60.9655
19.55	60.9433
19.568	60.9185
19.586	60.8919
19.604	60.8637
19.622	60.8347
19.64	60.8049
19.658	60.7746
19.676	60.7439
19.694	60.7126
19.712	60.6806
19.73	60.648
19.748	60.6147
19.766	60.5811
19.784	60.547
19.802	60.5133
19.82	60.4803
19.838	60.4486
19.856	60.4194
19.874	60.3928
19.892	60.371
19.91	60.3538
19.928	60.3436
19.946	60.3403
19.964	60.3457
19.982	60.3599
20	60.3835
20.018	60.4168
20.036	60.4595
20.054	60.5114
20.072	60.5721
20.09	60.6399
20.108	60.7152
20.126	60.7948
20.144	60.8793
20.162	60.9654
20.18	61.0524
20.198	61.1387
20.216	61.2219
20.234	61.3021
20.252	61.3759
20.27	61.444
20.288	61.5041
20.306	61.5562
20.324	61.5995
20.342	61.633
20.36	61.657
20.378	61.6707
20.396	61.6743
20.414	61.6676
20.432	61.6504
20.45	61.6233
20.468	61.5864
20.486	61.5399
20.504	61.4846
20.522	61.4204
20.54	61.3489
20.558	61.2696
20.576	61.1844
20.594	61.0935
20.612	60.998
20.63	60.9002
20.648	60.7997
20.666	60.6997
20.684	60.5998
20.702	60.5021
20.72	60.4081
20.738	60.3179
20.756	60.2336
20.774	60.1547
20.792	60.0829
20.81	60.0186
20.828	59.9616
20.846	59.9121
20.864	59.8702
20.882	59.8344
20.9	59.8053
20.918	59.781
20.936	59.7604
20.954	59.7435
20.972	59.7272
20.99	59.7122
21.008	59.6959
21.026	59.6773
21.044	59.6561
21.062	59.6299
21.08	59.5992
21.098	59.5626
21.116	59.5195
21.134	59.47
21.152	59.4135
21.17	59.3502
21.188	59.2805
21.206	59.2042
21.224	59.1222
21.242	59.0357
21.26	58.9442
21.278	58.8498
21.296	58.7525
21.314	58.6531
21.332	58.5538
21.35	58.4538
21.368	58.3555
21.386	58.2594
21.404	58.1659
21.422	58.0776
21.44	57.9937
21.458	57.916
21.476	57.8451
21.494	57.781
21.512	57.7253
21.53	57.6778
21.548	57.6387
21.566	57.6086
21.584	57.5872
21.602	57.5748
21.62	57.5716
21.638	57.5769
21.656	57.5899
21.674	57.6109
21.692	57.6391
21.71	57.6743
21.728	57.7162
21.746	57.7639
21.764	57.8174
21.782	57.8765
21.8	57.941
21.818	58.0109
21.836	58.0859
21.854	58.1659
21.872	58.2509
21.89	58.341
21.908	58.4362
21.926	58.5364
21.944	58.6417
21.962	58.752
21.98	58.8665
21.998	58.9855
22.016	59.1082
22.034	59.2329
22.052	59.3608
22.07	59.4892
22.088	59.6165
22.106	59.7436
22.124	59.8664
22.142	59.9846
22.16	60.0978
22.178	60.2014
22.196	60.2967
22.214	60.3817
22.232	60.4534
22.25	60.5132
22.268	60.5592
22.286	60.5897
22.304	60.6058
22.322	60.6068
22.34	60.5922
22.358	60.5628
22.376	60.5202
22.394	60.4634
22.412	60.3947
22.43	60.317
22.448	60.2286
22.466	60.1331
22.484	60.0332
22.502	59.9272
22.52	59.8191
22.538	59.7107
22.556	59.6009
22.574	59.4934
22.592	59.3884
22.61	59.286
22.628	59.1884
22.646	59.0954
22.664	59.0073
22.682	58.925
22.7	58.8483
22.718	58.7772
22.736	58.7117
22.754	58.6518
22.772	58.5975
22.79	58.5485
22.808	58.5049
22.826	58.4665
22.844	58.433
22.862	58.4045
22.88	58.381
22.898	58.3625
22.916	58.3488
22.934	58.3398
22.952	58.3357
22.97	58.3363
22.988	58.3409
23.006	58.3496
23.024	58.3623
23.042	58.3775
23.06	58.3954
23.078	58.4159
23.096	58.437
23.114	58.4593
23.132	58.4821
23.15	58.5032
23.168	58.5233
23.186	58.5415
23.204	58.5545
23.222	58.5628
23.24	58.566
23.258	58.5611
23.276	58.5483
23.294	58.5275
23.312	58.4974
23.33	58.4577
23.348	58.4089
23.366	58.3508
23.384	58.2832
23.402	58.2066
23.42	58.1214
23.438	58.0271
23.456	57.9244
23.474	57.8161
23.492	57.7018
23.51	57.5817
23.528	57.4606
23.546	57.3388
23.564	57.2157
23.582	57.0966
23.6	56.9831
23.618	56.8736
23.636	56.7728
23.654	56.683
23.672	56.6021
23.69	56.5338
23.708	56.4805
23.726	56.4404
23.744	56.4154
23.762	56.4073
23.78	56.4156
23.798	56.4395
23.816	56.4786
23.834	56.5341
23.852	56.6036
23.87	56.6837
23.888	56.7761
23.906	56.879
23.924	56.9884
23.942	57.1046
23.96	57.2276
23.978	57.3533
23.996	57.4806
24.014	57.6109
24.032	57.7405
24.05	57.867
24.068	57.9925
24.086	58.1142
24.104	58.2296
24.122	58.3402
24.14	58.4447
24.158	58.5409
24.176	58.6294
24.194	58.7099
24.212	58.7811
24.23	58.8426
24.248	58.8951
24.266	58.9371
24.284	58.9681
24.302	58.9887
24.32	58.9982
24.338	58.9955
24.356	58.9804
24.374	58.954
24.392	58.9172
24.41	58.8698
24.428	58.812
24.446	58.744
24.464	58.6657
24.482	58.5768
24.5	58.4796
24.518	58.3761
24.536	58.2654
24.554	58.1477
24.572	58.0233
24.59	57.8939
24.608	57.7579
24.626	57.6115
24.644	57.4539
24.662	57.2875
24.68	57.1067
24.698	56.9065
24.716	56.6885
24.734	56.4533
24.752	56.2002
24.77	55.9292
24.788	55.6406
24.806	55.3336
24.824	55.0081
24.842	54.6662
24.86	54.3037
24.878	53.9155
24.896	53.5017
24.914	53.0638
24.932	52.6014
24.95	52.1125
24.968	51.5961
24.986	51.0594
25.004	50.5098
25.022	49.941
25.04	49.3578
25.058	48.7719
25.076	48.1867
25.094	47.5944
25.112	47.0097
25.13	46.4472
25.148	45.8996
25.166	45.3694
25.184	44.8678
25.202	44.4009
25.22	43.9628
25.238	43.5556
25.256	43.1818
25.274	42.8433
25.292	42.5369
25.31	42.2582
25.328	42.0063
25.346	41.7858
25.364	41.5871
25.382	41.3995
25.4	41.2267
25.418	41.069
25.436	40.9158
25.454	40.7593
25.472	40.6062
25.49	40.4523
25.508	40.2908
25.526	40.121
25.544	39.9461
25.562	39.7599
25.58	39.556
25.598	39.3375
25.616	39.1041
25.634	38.8524
25.652	38.5811
25.67	38.294
25.688	37.9858
25.706	37.6503
25.724	37.2878
25.742	36.9007
25.76	36.4841
25.778	36.0331
25.796	35.5439
25.814	35.0234
25.832	34.481
25.85	33.9212
25.868	33.3336
25.886	32.7316
25.904	32.1313
25.922	31.5318
25.94	30.9238
25.958	30.3304
25.976	29.7746
25.994	29.2462
26.012	28.7443
26.03	28.289
26.048	27.9
26.066	27.5768
26.084	27.3066
26.102	27.0775
26.12	26.8824
26.138	26.7319
26.156	26.6161
26.174	26.5223
26.192	26.4561
26.21	26.4307
26.228	26.407
26.246	26.3446
26.264	26.2342
26.282	26.0956
26.3	25.9264
26.318	25.7236
26.336	25.4548
26.354	25.1448
26.372	24.8527
26.39	24.6301
26.408	24.4055
26.426	24.2222
26.444	24.1814
26.462	24.3595
26.48	24.6345
26.498	25.0961
26.516	25.8972
26.534	27.1483
26.552	28.7245
26.57	30.6874
26.588	33.1405
26.606	36.1596
26.624	39.6837
26.642	43.7068
26.66	48.2352
26.678	53.2967
26.696	58.9248
26.714	65.0186
26.732	71.4676
26.75	78.259
26.768	85.5335
26.786	93.0757
26.804	100.646
26.822	108.162
26.84	115.847
26.858	123.47
26.876	130.768
26.894	137.634
26.912	144.293
26.93	150.563
26.948	156.227
26.966	161.208
26.984	165.729
27.002	169.572
27.02	172.487
27.028	173.319