File: Bakgrunnsmateriale/MATLAB/FTIR/ftir_data/subBb/Mapping_121/C-4040-8_t112.asc
PE IR       SPECTRUM    SPECTRUM    ASCII       PEDS        1.60
  -1
C-84C8~1.ASC
17/03/27
23:44:24.00
17/03/27
23:44:50.00
tln
$C-4040-8_t0112$<tbV0>[10.4,13.0,8.0,0.0,27,1,0]
27.028
64

2002,4.07
MIRTGS : RIGHTBACK : INTERNAL 2
MIR : ON : INTERNAL 2
OPTKBR

0.200000
8
8.000000
FILLER
RATIO
SPECTRUM
UNLOCKED 256

DOUBLE
64
COMBINED
1
0
0

0.002000
RATIO

1
0
TRUE
51149
0
LEFT NOT FITTED RIGHT NOT FITTED 0
NONE
NONE
15600
12
4.427000
51148
TRUE
1 0 8 72 0 0 0 0

15798

#HDR
-1
-1
#GR
µM
%T
2.38419e-05
0.0
2.000000
0.002000
12515
8
68.0955
22.5007
#DATA
2.000000	 64.68
2.018000	 64.9615
2.036000	 65.0462
2.054000	 64.9659
2.072000	 64.4569
2.090000	 64.7994
2.108000	 64.8989
2.126000	 64.6817
2.144000	 64.7343
2.162000	 64.7805
2.180000	 64.7095
2.198000	 65.613
2.216000	 65.4934
2.234000	 65.4996
2.252000	 65.1421
2.270000	 62.2472
2.288000	 67.8613
2.306000	 65.2472
2.324000	 65.2804
2.342000	 64.862
2.360000	 64.9265
2.378000	 64.8367
2.396000	 64.1957
2.414000	 64.9707
2.432000	 64.3977
2.450000	 64.7975
2.468000	 64.9003
2.486000	 64.7903
2.504000	 64.9425
2.522000	 65.1041
2.540000	 64.9774
2.558000	 64.9047
2.576000	 65.0163
2.594000	 65.0064
2.612000	 65.129
2.630000	 64.8955
2.648000	 64.9998
2.666000	 64.8527
2.684000	 64.9432
2.702000	 64.9009
2.720000	 64.9294
2.738000	 64.8147
2.756000	 65.0539
2.774000	 64.985
2.792000	 64.9714
2.810000	 65.0973
2.828000	 64.7932
2.846000	 64.9951
2.864000	 64.9952
2.882000	 65.1395
2.900000	 64.8303
2.918000	 65.0379
2.936000	 64.8426
2.954000	 65.0789
2.972000	 65.1482
2.990000	 64.8497
3.008000	 65.1664
3.026000	 64.772
3.044000	 65.1162
3.062000	 64.938
3.080000	 64.8805
3.098000	 64.7213
3.116000	 64.695
3.134000	 65.0756
3.152000	 64.904
3.170000	 64.9358
3.188000	 65.0401
3.206000	 64.874
3.224000	 65.0924
3.242000	 65.081
3.260000	 65.0434
3.278000	 65.0242
3.296000	 65.1754
3.314000	 64.9836
3.332000	 65.1944
3.350000	 64.999
3.368000	 65.0943
3.386000	 64.9737
3.404000	 64.9948
3.422000	 64.6582
3.440000	 64.6874
3.458000	 64.8876
3.476000	 65.0713
3.494000	 64.9575
3.512000	 64.9393
3.530000	 64.9467
3.548000	 65.0354
3.566000	 64.9688
3.584000	 64.958
3.602000	 64.923
3.620000	 65.0356
3.638000	 64.9683
3.656000	 64.907
3.674000	 65.022
3.692000	 65.0244
3.710000	 65.0394
3.728000	 65.1239
3.746000	 65.1278
3.764000	 64.9169
3.782000	 65.157
3.800000	 64.9729
3.818000	 65.0928
3.836000	 65.1463
3.854000	 65.0327
3.872000	 64.9484
3.890000	 64.9298
3.908000	 65.1229
3.926000	 65.1389
3.944000	 65.1229
3.962000	 65.0744
3.980000	 65.089
3.998000	 65.0341
4.016000	 64.8719
4.034000	 65.1626
4.052000	 65.0804
4.070000	 65.1109
4.088000	 65.0519
4.106000	 65.1762
4.124000	 65.1608
4.141999	 65.363
4.160000	 65.0789
4.178000	 65.0017
4.196000	 65.1387
4.214000	 65.0165
4.232000	 64.9467
4.250000	 65.0017
4.268000	 65.2039
4.286000	 65.2366
4.304000	 65.0155
4.322000	 65.0478
4.340000	 65.1785
4.358000	 65.0666
4.375999	 65.0142
4.394000	 65.1633
4.412000	 65.1961
4.430000	 65.0855
4.448000	 65.0824
4.466000	 65.0521
4.484000	 65.0769
4.502000	 65.0589
4.520000	 65.0903
4.538000	 65.1931
4.556000	 65.1787
4.574000	 65.1197
4.592000	 65.0747
4.609999	 65.0091
4.628000	 65.0916
4.646000	 65.0457
4.664000	 65.0987
4.682000	 65.0907
4.700000	 65.0534
4.718000	 65.0999
4.736000	 65.2164
4.754000	 65.1466
4.772000	 65.1764
4.790000	 64.9006
4.808000	 64.4609
4.826000	 64.7884
4.843999	 65.4401
4.862000	 65.1518
4.880000	 65.1431
4.898000	 65.0079
4.916000	 65.0266
4.934000	 65.1046
4.952000	 65.0911
4.970000	 65.0791
4.988000	 65.1285
5.006000	 64.9749
5.024000	 65.0218
5.042000	 65.0324
5.060000	 65.1155
5.077999	 65.0816
5.096000	 65.095
5.114000	 65.0766
5.132000	 65.0886
5.150000	 64.9838
5.168000	 64.9072
5.186000	 65.1079
5.204000	 65.1827
5.222000	 65.2465
5.240000	 65.1605
5.258000	 65.0533
5.276000	 64.9957
5.294000	 64.921
5.312000	 65.0356
5.330000	 65.1235
5.348000	 65.0709
5.366000	 64.9687
5.384000	 64.951
5.402000	 65.0947
5.420000	 65.0909
5.438000	 65.0681
5.456000	 65.1383
5.474000	 65.1675
5.492000	 65.0963
5.510000	 65.0385
5.528000	 64.9689
5.546000	 64.9619
5.564000	 65.0862
5.582000	 65.0509
5.600000	 65.0121
5.618000	 65.0262
5.636000	 64.9898
5.654000	 64.9869
5.672000	 64.9685
5.690000	 65.0264
5.708000	 65.0456
5.726000	 64.9946
5.744000	 64.8455
5.762000	 64.705
5.780000	 64.7118
5.798000	 65.0038
5.816000	 65.2221
5.834000	 65.2233
5.852000	 65.1078
5.870000	 65.0231
5.888000	 64.9383
5.906000	 64.9484
5.923999	 64.9193
5.942000	 64.9564
5.960000	 64.9837
5.978000	 64.94
5.996000	 64.9509
6.014000	 64.829
6.032000	 64.7242
6.050000	 64.8407
6.068000	 64.863
6.086000	 64.8305
6.104000	 64.9838
6.122000	 65.028
6.140000	 64.8909
6.158000	 64.8392
6.176000	 64.7953
6.194000	 64.7729
6.212000	 64.7909
6.230000	 64.7521
6.248000	 64.824
6.266000	 64.935
6.284000	 64.9495
6.302000	 64.9425
6.320000	 64.929
6.338000	 64.9106
6.356000	 64.8146
6.374000	 64.7513
6.392000	 64.8309
6.410000	 64.8812
6.428000	 64.8658
6.446000	 64.8198
6.464000	 64.7998
6.482000	 64.8257
6.500000	 64.8004
6.518000	 64.8465
6.536000	 64.9644
6.554000	 64.9182
6.572000	 64.7629
6.590000	 64.7023
6.608000	 64.7541
6.626000	 64.8354
6.644000	 64.8843
6.662000	 64.8763
6.680000	 64.814
6.698000	 64.759
6.716000	 64.7526
6.734000	 64.8051
6.752000	 64.9091
6.770000	 64.9715
6.788000	 64.9648
6.806000	 64.9427
6.824000	 64.9094
6.842000	 64.8961
6.860000	 64.8782
6.878000	 64.7768
6.896000	 64.662
6.914000	 64.5933
6.932000	 64.5625
6.950000	 64.6178
6.968000	 64.7356
6.986000	 64.823
7.004000	 64.8916
7.022000	 64.9659
7.040000	 64.9519
7.058000	 64.8056
7.076000	 64.67
7.094000	 64.7069
7.112000	 64.8644
7.130000	 64.9404
7.148000	 64.8839
7.166000	 64.8214
7.184000	 64.7825
7.202000	 64.7057
7.220000	 64.6327
7.238000	 64.6326
7.256000	 64.6942
7.274000	 64.7604
7.292000	 64.7688
7.310000	 64.7609
7.328000	 64.8105
7.346000	 64.8645
7.364000	 64.8745
7.382000	 64.8619
7.400000	 64.8096
7.418000	 64.7386
7.436000	 64.7335
7.454000	 64.796
7.472000	 64.8515
7.490000	 64.8623
7.508000	 64.8414
7.526000	 64.8255
7.544000	 64.8394
7.562000	 64.8626
7.580000	 64.865
7.598000	 64.8537
7.616000	 64.8467
7.634000	 64.8259
7.652000	 64.7663
7.670000	 64.6992
7.688000	 64.6949
7.706000	 64.7527
7.724000	 64.7671
7.742000	 64.6792
7.760000	 64.5855
7.778000	 64.6001
7.796000	 64.6989
7.814000	 64.786
7.832000	 64.8073
7.850000	 64.7572
7.868000	 64.6678
7.886000	 64.5965
7.904000	 64.5788
7.922000	 64.6069
7.940000	 64.6527
7.958000	 64.6843
7.976000	 64.69
7.994000	 64.6827
8.012000	 64.6652
8.030000	 64.6341
8.048000	 64.6093
8.065999	 64.6094
8.084000	 64.6204
8.102000	 64.6357
8.120000	 64.6744
8.138000	 64.7251
8.155999	 64.7424
8.173999	 64.7196
8.192000	 64.7118
8.210000	 64.7563
8.228000	 64.816
8.246000	 64.8394
8.263999	 64.8366
8.282000	 64.8499
8.300000	 64.8709
8.318000	 64.8555
8.336000	 64.8047
8.353999	 64.7575
8.372000	 64.7218
8.390000	 64.683
8.408000	 64.6502
8.426000	 64.6364
8.443999	 64.6227
8.462000	 64.5936
8.480000	 64.5758
8.498000	 64.5971
8.516000	 64.6399
8.533999	 64.6723
8.552000	 64.6924
8.570000	 64.7181
8.588000	 64.7517
8.606000	 64.7758
8.624000	 64.7754
8.641999	 64.7529
8.660000	 64.7264
8.678000	 64.7086
8.696000	 64.6867
8.714000	 64.6423
8.731999	 64.5913
8.750000	 64.5807
8.768000	 64.6299
8.786000	 64.7015
8.804000	 64.7415
8.821999	 64.7368
8.840000	 64.7103
8.858000	 64.6796
8.876000	 64.6454
8.894000	 64.6172
8.911999	 64.6159
8.930000	 64.6411
8.948000	 64.6592
8.966000	 64.6401
8.984000	 64.6
9.001999	 64.5886
9.020000	 64.642
9.038000	 64.7511
9.056000	 64.8668
9.074000	 64.9265
9.092000	 64.8851
9.109999	 64.7475
9.128000	 64.582
9.146000	 64.4873
9.164000	 64.5194
9.182000	 64.6454
9.199999	 64.7725
9.218000	 64.8313
9.236000	 64.8267
9.254000	 64.8134
9.272000	 64.8264
9.289999	 64.8499
9.308000	 64.8451
9.326000	 64.7959
9.344000	 64.7178
9.362000	 64.6283
9.379999	 64.5272
9.398000	 64.4109
9.416000	 64.2986
9.434000	 64.2325
9.452000	 64.2483
9.469999	 64.3476
9.488000	 64.5023
9.506000	 64.675
9.524000	 64.8385
9.542000	 64.973
9.560000	 65.0601
9.577999	 65.0861
9.596000	 65.0525
9.614000	 64.9781
9.632000	 64.888
9.650000	 64.7973
9.667999	 64.7043
9.686000	 64.5981
9.704000	 64.4732
9.722000	 64.3457
9.740000	 64.253
9.757999	 64.2359
9.776000	 64.309
9.794000	 64.442
9.812000	 64.5711
9.830000	 64.642
9.847999	 64.6483
9.866000	 64.6269
9.884000	 64.6212
9.902000	 64.642
9.920000	 64.6614
9.937999	 64.6418
9.956000	 64.5701
9.974000	 64.4704
9.992000	 64.3863
10.01	64.3556
10.028	64.3917
10.046	64.4812
10.064	64.5921
10.082	64.6891
10.1	64.7504
10.118	64.7764
10.136	64.7845
10.154	64.7942
10.172	64.8141
10.19	64.8392
10.208	64.8588
10.226	64.866
10.244	64.8607
10.262	64.8466
10.28	64.8266
10.298	64.8031
10.316	64.7811
10.334	64.7672
10.352	64.7634
10.37	64.7633
10.388	64.7541
10.406	64.7255
10.424	64.6772
10.442	64.6212
10.46	64.5733
10.478	64.5445
10.496	64.5351
10.514	64.5389
10.532	64.5493
10.55	64.5631
10.568	64.5788
10.586	64.5917
10.604	64.5946
10.622	64.5806
10.64	64.5502
10.658	64.5141
10.676	64.4907
10.694	64.4949
10.712	64.5313
10.73	64.5898
10.748	64.6514
10.766	64.6971
10.784	64.7182
10.802	64.7178
10.82	64.7072
10.838	64.7
10.856	64.7028
10.874	64.7138
10.892	64.7258
10.91	64.7313
10.928	64.7283
10.946	64.723
10.964	64.7255
10.982	64.7434
11	64.7746
11.018	64.8057
11.036	64.8166
11.054	64.7891
11.072	64.7193
11.09	64.6223
11.108	64.5268
11.126	64.466
11.144	64.4592
11.162	64.5059
11.18	64.5874
11.198	64.6735
11.216	64.7353
11.234	64.755
11.252	64.7275
11.27	64.6599
11.288	64.5693
11.306	64.4764
11.324	64.4035
11.342	64.3674
11.36	64.3749
11.378	64.4182
11.396	64.4774
11.414	64.5282
11.432	64.5551
11.45	64.5591
11.468	64.5557
11.486	64.5626
11.504	64.5886
11.522	64.6247
11.54	64.6479
11.558	64.6306
11.576	64.5554
11.594	64.4252
11.612	64.2635
11.63	64.1079
11.648	63.9944
11.666	63.9479
11.684	63.9724
11.702	64.0531
11.72	64.1632
11.738	64.2723
11.756	64.3585
11.774	64.4125
11.792	64.4392
11.81	64.4532
11.828	64.4703
11.846	64.5017
11.864	64.547
11.882	64.5946
11.9	64.6266
11.918	64.6252
11.936	64.5808
11.954	64.4955
11.972	64.383
11.99	64.2647
12.008	64.1635
12.026	64.0981
12.044	64.0802
12.062	64.1127
12.08	64.1918
12.098	64.309
12.116	64.4524
12.134	64.6078
12.152	64.759
12.17	64.8912
12.188	64.9913
12.206	65.05
12.224	65.0642
12.242	65.0372
12.26	64.9779
12.278	64.8989
12.296	64.8141
12.314	64.7356
12.332	64.6706
12.35	64.6213
12.368	64.5842
12.386	64.5527
12.404	64.5197
12.422	64.4805
12.44	64.4335
12.458	64.3805
12.476	64.3254
12.494	64.2721
12.512	64.2234
12.53	64.1806
12.548	64.1439
12.566	64.1129
12.584	64.0889
12.602	64.0753
12.62	64.0752
12.638	64.0896
12.656	64.1163
12.674	64.1482
12.692	64.1756
12.71	64.1885
12.728	64.1802
12.746	64.15
12.764	64.1023
12.782	64.0457
12.8	63.9906
12.818	63.9461
12.836	63.9168
12.854	63.9026
12.872	63.9008
12.89	63.9059
12.908	63.9118
12.926	63.9133
12.944	63.9065
12.962	63.8878
12.98	63.8539
12.998	63.8023
13.016	63.7329
13.034	63.6492
13.052	63.5584
13.07	63.4712
13.088	63.3983
13.106	63.3483
13.124	63.3246
13.142	63.3251
13.16	63.3433
13.178	63.371
13.196	63.4004
13.214	63.4275
13.232	63.4525
13.25	63.4805
13.268	63.518
13.286	63.572
13.304	63.6463
13.322	63.7408
13.34	63.8511
13.358	63.9693
13.376	64.0863
13.394	64.1929
13.412	64.2817
13.43	64.3468
13.448	64.3844
13.466	64.3924
13.484	64.3706
13.502	64.321
13.52	64.2477
13.538	64.1574
13.556	64.0581
13.574	63.9583
13.592	63.8651
13.61	63.7838
13.628	63.717
13.646	63.665
13.664	63.6265
13.682	63.5994
13.7	63.5823
13.718	63.575
13.736	63.5783
13.754	63.5937
13.772	63.6219
13.79	63.6619
13.808	63.7107
13.826	63.7621
13.844	63.8089
13.862	63.844
13.88	63.8623
13.898	63.8618
13.916	63.8441
13.934	63.8145
13.952	63.781
13.97	63.7518
13.988	63.7341
14.006	63.7324
14.024	63.7481
14.042	63.7781
14.06	63.8162
14.078	63.8543
14.096	63.8833
14.114	63.8959
14.132	63.8869
14.15	63.8545
14.168	63.8006
14.186	63.7302
14.204	63.6509
14.222	63.5717
14.24	63.5007
14.258	63.4438
14.276	63.4046
14.294	63.3839
14.312	63.3798
14.33	63.3885
14.348	63.4049
14.366	63.4236
14.384	63.4402
14.402	63.4519
14.42	63.4577
14.438	63.4578
14.456	63.453
14.474	63.4444
14.492	63.4329
14.51	63.4181
14.528	63.399
14.546	63.3738
14.564	63.3409
14.582	63.2993
14.6	63.2489
14.618	63.1911
14.636	63.1285
14.654	63.065
14.672	63.0044
14.69	62.9509
14.708	62.9081
14.726	62.8788
14.744	62.8653
14.762	62.8678
14.78	62.8859
14.798	62.9181
14.816	62.9622
14.834	63.0154
14.852	63.0743
14.87	63.1354
14.888	63.1953
14.906	63.2507
14.924	63.2988
14.942	63.3372
14.96	63.3649
14.978	63.3815
14.996	63.3875
15.014	63.3841
15.032	63.374
15.05	63.3601
15.068	63.3452
15.086	63.3316
15.104	63.3213
15.122	63.3156
15.14	63.3148
15.158	63.3185
15.176	63.3256
15.194	63.3351
15.212	63.3452
15.23	63.3547
15.248	63.3626
15.266	63.3681
15.284	63.3708
15.302	63.3706
15.32	63.3672
15.338	63.3605
15.356	63.3503
15.374	63.3359
15.392	63.3171
15.41	63.2933
15.428	63.2642
15.446	63.2302
15.464	63.192
15.482	63.1509
15.5	63.109
15.518	63.0699
15.536	63.0374
15.554	63.0149
15.572	63.0058
15.59	63.0134
15.608	63.0391
15.626	63.0834
15.644	63.1454
15.662	63.2215
15.68	63.3076
15.698	63.3987
15.716	63.488
15.734	63.5688
15.752	63.6363
15.77	63.6857
15.788	63.7132
15.806	63.7185
15.824	63.7019
15.842	63.6655
15.86	63.6145
15.878	63.5535
15.896	63.4876
15.914	63.4234
15.932	63.3659
15.95	63.3186
15.968	63.2848
15.986	63.2657
16.004	63.2604
16.022	63.2675
16.04	63.2837
16.058	63.3049
16.076	63.3276
16.094	63.3464
16.112	63.3576
16.13	63.3585
16.148	63.3459
16.166	63.3193
16.184	63.2788
16.202	63.2251
16.22	63.1617
16.238	63.0918
16.256	63.0184
16.274	62.9473
16.292	62.8825
16.31	62.8272
16.328	62.786
16.346	62.7605
16.364	62.7521
16.382	62.7609
16.4	62.7847
16.418	62.822
16.436	62.8681
16.454	62.9186
16.472	62.9701
16.49	63.0168
16.508	63.0553
16.526	63.0833
16.544	63.0979
16.562	63.0996
16.58	63.0883
16.598	63.0663
16.616	63.0364
16.634	63.0008
16.652	62.9644
16.67	62.9297
16.688	62.8995
16.706	62.8768
16.724	62.8622
16.742	62.8568
16.76	62.86
16.778	62.871
16.796	62.888
16.814	62.9089
16.832	62.932
16.85	62.9543
16.868	62.9741
16.886	62.99
16.904	63.0001
16.922	63.0042
16.94	63.0016
16.958	62.9927
16.976	62.9777
16.994	62.9574
17.012	62.9329
17.03	62.9048
17.048	62.8744
17.066	62.8424
17.084	62.8097
17.102	62.7773
17.12	62.7456
17.138	62.7153
17.156	62.6868
17.174	62.6603
17.192	62.6364
17.21	62.6153
17.228	62.5975
17.246	62.5836
17.264	62.5739
17.282	62.5695
17.3	62.5704
17.318	62.5776
17.336	62.5912
17.354	62.6114
17.372	62.638
17.39	62.6705
17.408	62.7081
17.426	62.7492
17.444	62.7931
17.462	62.837
17.48	62.8799
17.498	62.9189
17.516	62.9524
17.534	62.9789
17.552	62.9965
17.57	63.0047
17.588	63.0025
17.606	62.9905
17.624	62.969
17.642	62.9396
17.66	62.9031
17.678	62.8624
17.696	62.8183
17.714	62.774
17.732	62.7306
17.75	62.6902
17.768	62.6546
17.786	62.6243
17.804	62.6005
17.822	62.5831
17.84	62.5722
17.858	62.5678
17.876	62.5695
17.894	62.5767
17.912	62.5891
17.93	62.6056
17.948	62.626
17.966	62.6491
17.984	62.6744
18.002	62.7009
18.02	62.7276
18.038	62.7539
18.056	62.7783
18.074	62.8004
18.092	62.8189
18.11	62.8337
18.128	62.8441
18.146	62.8504
18.164	62.8529
18.182	62.8523
18.2	62.8495
18.218	62.8464
18.236	62.8438
18.254	62.844
18.272	62.8474
18.29	62.8566
18.308	62.8717
18.326	62.8937
18.344	62.9223
18.362	62.957
18.38	62.9968
18.398	63.0393
18.416	63.0825
18.434	63.1238
18.452	63.1601
18.47	63.189
18.488	63.2074
18.506	63.2139
18.524	63.2063
18.542	63.1839
18.56	63.1465
18.578	63.094
18.596	63.0283
18.614	62.9496
18.632	62.8618
18.65	62.7655
18.668	62.6653
18.686	62.5617
18.704	62.4593
18.722	62.3584
18.74	62.2628
18.758	62.1727
18.776	62.0906
18.794	62.0164
18.812	61.9514
18.83	61.8952
18.848	61.8482
18.866	61.8097
18.884	61.7793
18.902	61.7562
18.92	61.7396
18.938	61.7288
18.956	61.7227
18.974	61.7208
18.992	61.7221
19.01	61.7264
19.028	61.7329
19.046	61.7417
19.064	61.7526
19.082	61.7657
19.1	61.7812
19.118	61.7995
19.136	61.821
19.154	61.8461
19.172	61.8754
19.19	61.9089
19.208	61.9469
19.226	61.9893
19.244	62.036
19.262	62.0867
19.28	62.1399
19.298	62.1954
19.316	62.2506
19.334	62.3053
19.352	62.3555
19.37	62.4013
19.388	62.4385
19.406	62.4671
19.424	62.4832
19.442	62.4868
19.46	62.4758
19.478	62.4498
19.496	62.4086
19.514	62.3519
19.532	62.2815
19.55	62.1978
19.568	62.1032
19.586	61.9998
19.604	61.8894
19.622	61.776
19.64	61.6601
19.658	61.5468
19.676	61.4358
19.694	61.3316
19.712	61.2337
19.73	61.1452
19.748	61.0659
19.766	60.9967
19.784	60.9379
19.802	60.8889
19.82	60.8497
19.838	60.8193
19.856	60.7968
19.874	60.782
19.892	60.7729
19.91	60.7697
19.928	60.7704
19.946	60.7751
19.964	60.7826
19.982	60.7927
20	60.8054
20.018	60.8203
20.036	60.8377
20.054	60.8578
20.072	60.8804
20.09	60.9063
20.108	60.9352
20.126	60.9677
20.144	61.0039
20.162	61.0438
20.18	61.0879
20.198	61.1356
20.216	61.1869
20.234	61.2417
20.252	61.2987
20.27	61.3583
20.288	61.4189
20.306	61.4808
20.324	61.5426
20.342	61.6033
20.36	61.6627
20.378	61.7191
20.396	61.7726
20.414	61.8212
20.432	61.8651
20.45	61.9028
20.468	61.9337
20.486	61.9574
20.504	61.9727
20.522	61.9798
20.54	61.9785
20.558	61.9686
20.576	61.9506
20.594	61.9244
20.612	61.8904
20.63	61.8496
20.648	61.8019
20.666	61.7486
20.684	61.6897
20.702	61.6264
20.72	61.5598
20.738	61.4899
20.756	61.4187
20.774	61.3457
20.792	61.2727
20.81	61.1997
20.828	61.1275
20.846	61.0577
20.864	60.9899
20.882	60.9263
20.9	60.8665
20.918	60.8123
20.936	60.765
20.954	60.7245
20.972	60.6933
20.99	60.6708
21.008	60.659
21.026	60.6586
21.044	60.6695
21.062	60.6931
21.08	60.7291
21.098	60.7776
21.116	60.8389
21.134	60.9122
21.152	60.9966
21.17	61.0923
21.188	61.1972
21.206	61.3113
21.224	61.4333
21.242	61.5608
21.26	61.6945
21.278	61.8314
21.296	61.9712
21.314	62.113
21.332	62.2542
21.35	62.3955
21.368	62.5348
21.386	62.6716
21.404	62.8055
21.422	62.9343
21.44	63.0587
21.458	63.1771
21.476	63.2892
21.494	63.3947
21.512	63.4912
21.53	63.5795
21.548	63.6579
21.566	63.7252
21.584	63.7818
21.602	63.8245
21.62	63.8538
21.638	63.8685
21.656	63.8666
21.674	63.8491
21.692	63.8139
21.71	63.7603
21.728	63.6889
21.746	63.5994
21.764	63.4915
21.782	63.3667
21.8	63.225
21.818	63.0667
21.836	62.896
21.854	62.7122
21.872	62.5176
21.89	62.3169
21.908	62.108
21.926	61.8964
21.944	61.6851
21.962	61.4729
21.98	61.2661
21.998	61.0646
22.016	60.8697
22.034	60.6861
22.052	60.5122
22.07	60.3503
22.088	60.2027
22.106	60.0682
22.124	59.9481
22.142	59.8431
22.16	59.7523
22.178	59.6755
22.196	59.613
22.214	59.5635
22.232	59.5254
22.25	59.4997
22.268	59.4838
22.286	59.4764
22.304	59.4782
22.322	59.486
22.34	59.4997
22.358	59.5188
22.376	59.5407
22.394	59.5659
22.412	59.5935
22.43	59.6216
22.448	59.6508
22.466	59.6804
22.484	59.7095
22.502	59.7385
22.52	59.767
22.538	59.7948
22.556	59.8221
22.574	59.8491
22.592	59.8759
22.61	59.9025
22.628	59.9293
22.646	59.9564
22.664	59.9838
22.682	60.0118
22.7	60.0404
22.718	60.0694
22.736	60.0987
22.754	60.1286
22.772	60.1579
22.79	60.186
22.808	60.2134
22.826	60.2384
22.844	60.2599
22.862	60.2786
22.88	60.2933
22.898	60.3034
22.916	60.3093
22.934	60.3107
22.952	60.3074
22.97	60.2996
22.988	60.2867
23.006	60.2684
23.024	60.2452
23.042	60.2178
23.06	60.1856
23.078	60.1493
23.096	60.1121
23.114	60.0734
23.132	60.034
23.15	59.9972
23.168	59.9627
23.186	59.931
23.204	59.9056
23.222	59.8865
23.24	59.8736
23.258	59.8689
23.276	59.8728
23.294	59.8846
23.312	59.9037
23.33	59.9308
23.348	59.965
23.366	60.0033
23.384	60.0465
23.402	60.0938
23.42	60.1417
23.438	60.191
23.456	60.2409
23.474	60.2869
23.492	60.3292
23.51	60.3679
23.528	60.3983
23.546	60.4194
23.564	60.4323
23.582	60.4343
23.6	60.4241
23.618	60.4027
23.636	60.3701
23.654	60.3255
23.672	60.2689
23.69	60.2031
23.708	60.1294
23.726	60.046
23.744	59.9576
23.762	59.868
23.78	59.774
23.798	59.6803
23.816	59.5924
23.834	59.5072
23.852	59.4276
23.87	59.3587
23.888	59.2986
23.906	59.2486
23.924	59.2134
23.942	59.193
23.96	59.1868
23.978	59.1972
23.996	59.2259
24.014	59.2716
24.032	59.3329
24.05	59.4098
24.068	59.5036
24.086	59.6093
24.104	59.7221
24.122	59.8457
24.14	59.9759
24.158	60.1067
24.176	60.2416
24.194	60.3777
24.212	60.5063
24.23	60.6271
24.248	60.742
24.266	60.8429
24.284	60.9261
24.302	60.9965
24.32	61.0461
24.338	61.0677
24.356	61.068
24.374	61.0398
24.392	60.9716
24.41	60.8665
24.428	60.724
24.446	60.5344
24.464	60.2942
24.482	60.0079
24.5	59.6699
24.518	59.2745
24.536	58.8229
24.554	58.3184
24.572	57.7634
24.59	57.1536
24.608	56.4933
24.626	55.7935
24.644	55.0555
24.662	54.2728
24.68	53.466
24.698	52.6534
24.716	51.8177
24.734	50.976
24.752	50.1568
24.77	49.3565
24.788	48.5703
24.806	47.8299
24.824	47.1557
24.842	46.5259
24.86	45.963
24.878	45.4949
24.896	45.1143
24.914	44.82
24.932	44.6301
24.95	44.5559
24.968	44.5879
24.986	44.7275
25.004	44.9773
25.022	45.3434
25.04	45.8164
25.058	46.3821
25.076	47.0388
25.094	47.7963
25.112	48.6277
25.13	49.5072
25.148	50.4557
25.166	51.4583
25.184	52.4779
25.202	53.5008
25.22	54.5507
25.238	55.593
25.256	56.592
25.274	57.5665
25.292	58.5098
25.31	59.3888
25.328	60.1847
25.346	60.9197
25.364	61.5747
25.382	62.127
25.4	62.5804
25.418	62.9396
25.436	63.1914
25.454	63.3253
25.472	63.3481
25.49	63.2599
25.508	63.0588
25.526	62.743
25.544	62.3144
25.562	61.7766
25.58	61.133
25.598	60.3786
25.616	59.5185
25.634	58.5626
25.652	57.5154
25.67	56.3684
25.688	55.1338
25.706	53.8257
25.724	52.4399
25.742	50.9731
25.76	49.4469
25.778	47.8805
25.796	46.2547
25.814	44.5819
25.832	42.8917
25.85	41.2003
25.868	39.4797
25.886	37.7602
25.904	36.0801
25.922	34.4405
25.94	32.8195
25.958	31.2615
25.976	29.811
25.994	28.4457
26.012	27.1653
26.03	26.0135
26.048	25.0275
26.066	24.1734
26.084	23.4671
26.102	22.9453
26.12	22.6327
26.138	22.5037
26.156	22.5681
26.174	22.8412
26.192	23.3345
26.21	24.0395
26.228	24.9446
26.246	26.0377
26.264	27.3335
26.282	28.8314
26.3	30.4897
26.318	32.2677
26.336	34.2014
26.354	36.2799
26.372	38.4369
26.39	40.6132
26.408	42.8667
26.426	45.1707
26.444	47.4488
26.462	49.64
26.48	51.814
26.498	53.9316
26.516	55.9171
26.534	57.7159
26.552	59.3897
26.57	60.9076
26.588	62.2177
26.606	63.2846
26.624	64.1453
26.642	64.7893
26.66	65.1981
26.678	65.3548
26.696	65.2641
26.714	64.946
26.732	64.4211
26.75	63.6896
26.768	62.7236
26.786	61.5716
26.804	60.2878
26.822	58.8878
26.84	57.3188
26.858	55.6435
26.876	53.932
26.894	52.2111
26.912	50.4173
26.93	48.6099
26.948	46.8572
26.966	45.1437
26.984	43.3405
27.002	41.6674
27.02	40.3685
27.028	40.0154