File: Bakgrunnsmateriale/MATLAB/FTIR/ftir_data/subBb/Mapping_121/C-4040-8_t117_cm-1.asc
PE IR       SPECTRUM    SPECTRUM    ASCII       PEDS        1.60
  -1
C-4C09~1.ASC
17/03/28
00:21:56.00
17/03/28
00:21:56.00
tln
$C-4040-8_t0117$<tbV0>[-2.6,13.0,8.0,0.0,27,1,0]
370
64

2002,4.07
MIRTGS : RIGHTBACK : INTERNAL 2
MIR : ON : INTERNAL 2
OPTKBR

0.200000
8
8.000000
FILLER
RATIO
SPECTRUM
UNLOCKED 256

DOUBLE
64
COMBINED
1
0
0

1.000000
RATIO

1
0
TRUE
51149
0
LEFT NOT FITTED RIGHT NOT FITTED 0
NONE
NONE
15600
12
4.427000
51148
TRUE
1 0 8 72 0 0 0 0

15798

#HDR
-1
-1
#GR
CM-1
%T
2.38419e-05
0.0
5000
-1.000000
4631
8
89.6954
22.7828
#DATA
5000	64.5975
4996	64.8303
4992	64.9129
4988	64.8641
4984	65.0164
4980	65.1816
4976	65.3441
4972	65.6568
4968	65.7763
4964	65.4615
4960	64.9019
4956	64.4098
4952	64.1492
4948	64.1705
4944	64.3226
4940	64.7122
4936	65.2261
4932	65.2864
4928	64.9604
4924	64.6169
4920	64.6158
4916	64.9759
4912	65.0928
4908	64.897
4904	64.7817
4900	64.8801
4896	64.8635
4892	64.5967
4888	64.1768
4884	63.7583
4880	63.9234
4876	64.1737
4872	64.0788
4868	64.327
4864	64.746
4860	64.8633
4856	64.8735
4852	65.05
4848	65.1361
4844	64.8036
4840	64.6087
4836	64.6935
4832	64.5735
4828	64.4229
4824	64.4637
4820	64.675
4816	64.9707
4812	65.1598
4808	65.0466
4804	64.769
4800	64.7223
4796	64.8786
4792	64.9798
4788	65.0811
4784	65.3058
4780	65.381
4776	65.131
4772	64.967
4768	64.9877
4764	64.8895
4760	64.7006
4756	64.6949
4752	64.9154
4748	65.0474
4744	65.0432
4740	65.1145
4736	65.1228
4732	64.9045
4728	64.7802
4724	64.9489
4720	65.2077
4716	65.3309
4712	65.2864
4708	65.2016
4704	65.169
4700	65.1808
4696	64.899
4692	64.457
4688	64.5039
4684	64.838
4680	65.0107
4676	64.9181
4672	64.7379
4668	64.8225
4664	65.0993
4660	65.2187
4656	65.0497
4652	64.8075
4648	64.8429
4644	65.1673
4640	65.1489
4636	64.8351
4632	64.7338
4628	64.6824
4624	64.6389
4620	64.4914
4616	64.4582
4612	64.9781
4608	65.3867
4604	65.2015
4600	64.9258
4596	64.8215
4592	64.8696
4588	65.0338
4584	65.2003
4580	65.4743
4576	65.6616
4572	65.4688
4568	65.1259
4564	64.8999
4560	64.911
4556	64.9822
4552	64.8878
4548	65.0367
4544	65.2053
4540	64.8672
4536	64.7408
4532	65.0268
4528	65.155
4524	65.09
4520	65.0302
4516	64.9545
4512	64.8961
4508	64.9418
4504	64.8501
4500	64.7758
4496	65.0636
4492	65.3013
4488	65.1682
4484	65.0123
4480	65.1066
4476	65.0832
4472	64.9308
4468	65.1573
4464	65.4009
4460	65.4422
4456	65.3946
4452	65.3665
4448	65.7073
4444	65.9398
4440	65.9116
4436	65.9545
4432	65.8841
4428	65.6451
4424	65.3894
4420	65.6403
4416	66.3199
4412	66.7394
4408	65.2931
4404	64.4315
4400	63.318
4396	59.8425
4392	60.818
4388	62.7695
4384	62.3796
4380	64.2004
4376	66.1901
4372	66.6503
4368	66.7411
4364	66.6768
4360	66.2238
4356	65.6229
4352	65.4117
4348	65.1841
4344	64.8706
4340	64.5442
4336	64.4037
4332	64.7815
4328	65.1559
4324	64.9779
4320	64.7635
4316	64.8969
4312	64.9361
4308	64.7889
4304	64.8452
4300	65.1161
4296	65.3039
4292	65.2948
4288	65.2849
4284	65.2231
4280	64.9005
4276	64.6551
4272	64.7814
4268	65.112
4264	65.3723
4260	65.3782
4256	65.211
4252	65.0452
4248	64.9585
4244	64.8974
4240	64.8784
4236	64.8457
4232	64.7693
4228	64.9286
4224	65.2046
4220	65.2875
4216	65.2594
4212	65.1692
4208	64.9295
4204	64.8195
4200	65.1072
4196	65.1268
4192	64.5342
4188	64.035
4184	64.3061
4180	65.2397
4176	65.733
4172	65.5762
4168	65.4016
4164	65.1266
4160	64.8279
4156	64.7075
4152	64.7289
4148	64.7884
4144	64.7584
4140	64.7057
4136	64.8244
4132	65.0075
4128	65.1004
4124	65.1269
4120	64.9849
4116	64.819
4112	64.7994
4108	64.8224
4104	64.8418
4100	64.9004
4096	65.0352
4092	65.1817
4088	65.232
4084	65.1923
4080	65.2208
4076	65.3918
4072	65.3902
4068	65.0853
4064	64.9168
4060	65.0704
4056	65.2015
4052	65.2286
4048	65.2697
4044	65.1451
4040	64.9638
4036	65.0393
4032	65.2193
4028	65.2296
4024	65.1495
4020	65.1663
4016	65.163
4012	64.9657
4008	64.819
4004	65.0279
4000	65.2973
3996	65.3031
3992	65.1814
3988	65.1084
3984	65.1273
3980	65.211
3976	65.2566
3972	65.1557
3968	65.098
3964	65.1855
3960	65.1894
3956	65.1316
3952	65.2356
3948	65.3883
3944	65.2212
3940	64.872
3936	64.8664
3932	65.0708
3928	65.1397
3924	65.1712
3920	65.1895
3916	65.1721
3912	65.1926
3908	65.1532
3904	65.0402
3900	64.939
3896	64.9227
3892	65.1598
3888	65.356
3884	65.2361
3880	65.1333
3876	65.1705
3872	65.2236
3868	65.2728
3864	65.3321
3860	65.4162
3856	65.3599
3852	65.1959
3848	65.2086
3844	65.2765
3840	65.095
3836	64.8178
3832	64.7645
3828	64.8221
3824	64.8132
3820	64.7833
3816	64.9063
3812	65.1079
3808	65.1726
3804	65.1725
3800	65.1087
3796	65.1071
3792	65.2805
3788	65.4402
3784	65.4782
3780	65.382
3776	65.2662
3772	65.2521
3768	65.2962
3764	65.3179
3760	65.2791
3756	65.2281
3752	65.2507
3748	65.2343
3744	65.0947
3740	65.072
3736	65.1867
3732	65.2554
3728	65.2219
3724	65.1037
3720	65.0879
3716	65.1021
3712	65.0329
3708	65.011
3704	65.0118
3700	65.0653
3696	65.1944
3692	65.2912
3688	65.2872
3684	65.1604
3680	65.0179
3676	65.0768
3672	65.2487
3668	65.2714
3664	65.1929
3660	65.1331
3656	65.1284
3652	65.1481
3648	65.1049
3644	65.0695
3640	65.1741
3636	65.3089
3632	65.3364
3628	65.2927
3624	65.1722
3620	65.0304
3616	64.9916
3612	65.071
3608	65.2687
3604	65.4693
3600	65.4431
3596	65.2651
3592	65.204
3588	65.1751
3584	65.0598
3580	65.0866
3576	65.2783
3572	65.3513
3568	65.1705
3564	64.9418
3560	65.0428
3556	65.424
3552	65.5358
3548	65.3197
3544	65.2452
3540	65.2699
3536	65.2704
3532	65.2686
3528	65.2171
3524	65.2924
3520	65.381
3516	65.281
3512	65.1552
3508	65.1708
3504	65.2614
3500	65.2337
3496	65.0853
3492	64.9983
3488	65.0151
3484	64.9942
3480	65.047
3476	65.3007
3472	65.5142
3468	65.4951
3464	65.3929
3460	65.3712
3456	65.2745
3452	65.1112
3448	65.1075
3444	65.1771
3440	65.1207
3436	64.983
3432	64.9355
3428	65.0536
3424	65.2045
3420	65.2401
3416	65.1872
3412	65.1685
3408	65.2221
3404	65.2538
3400	65.2197
3396	65.1839
3392	65.2215
3388	65.3036
3384	65.263
3380	65.077
3376	64.8906
3372	64.8347
3368	64.941
3364	65.0709
3360	65.0975
3356	65.0353
3352	65.0046
3348	65.0213
3344	65.0406
3340	65.0532
3336	65.0673
3332	65.1434
3328	65.1855
3324	65.1155
3320	65.0503
3316	65.0863
3312	65.1998
3308	65.2594
3304	65.2469
3300	65.2103
3296	65.1547
3292	65.2239
3288	65.3616
3284	65.3025
3280	65.0966
3276	64.9583
3272	64.9727
3268	65.0647
3264	65.1679
3260	65.323
3256	65.3989
3252	65.3469
3248	65.2849
3244	65.1759
3240	65.1016
3236	65.1359
3232	65.1601
3228	65.1251
3224	65.0983
3220	65.1839
3216	65.327
3212	65.3071
3208	65.1474
3204	65.1036
3200	65.1654
3196	65.1459
3192	65.116
3188	65.1724
3184	65.2156
3180	65.2064
3176	65.1404
3172	65.0019
3168	64.8073
3164	64.7409
3160	64.9197
3156	65.1104
3152	65.141
3148	65.1038
3144	65.1393
3140	65.1495
3136	65.0318
3132	65.0256
3128	65.2049
3124	65.1754
3120	64.9789
3116	65.1118
3112	65.3389
3108	65.3286
3104	65.3578
3100	65.4145
3096	65.3413
3092	65.2947
3088	65.3141
3084	65.3384
3080	65.3372
3076	65.2952
3072	65.2809
3068	65.2901
3064	65.2961
3060	65.2724
3056	65.1874
3052	65.1517
3048	65.1776
3044	65.1998
3040	65.2529
3036	65.2912
3032	65.2696
3028	65.1734
3024	65.0386
3020	65.0149
3016	65.1407
3012	65.2756
3008	65.3192
3004	65.3263
3000	65.3446
2996	65.3429
2992	65.2861
2988	65.2112
2984	65.1607
2980	65.0906
2976	65.0633
2972	65.1327
2968	65.133
2964	65.035
2960	65.01
2956	65.0811
2952	65.1778
2948	65.1868
2944	65.017
2940	64.8684
2936	64.9454
2932	65.0299
2928	64.9443
2924	64.7939
2920	64.6481
2916	64.602
2912	64.7482
2908	64.9633
2904	65.0472
2900	65.0894
2896	65.1659
2892	65.1572
2888	65.1273
2884	65.147
2880	65.1485
2876	65.129
2872	65.138
2868	65.0713
2864	64.8856
2860	64.7612
2856	64.7705
2852	64.9044
2848	65.0959
2844	65.2381
2840	65.2242
2836	65.0887
2832	65.0563
2828	65.1336
2824	65.206
2820	65.2214
2816	65.1787
2812	65.14
2808	65.1455
2804	65.2182
2800	65.2608
2796	65.1768
2792	65.0946
2788	65.0795
2784	65.0863
2780	65.1118
2776	65.1368
2772	65.2242
2768	65.3119
2764	65.2744
2760	65.258
2756	65.2769
2752	65.1809
2748	65.0832
2744	65.1016
2740	65.1541
2736	65.2112
2732	65.2444
2728	65.1907
2724	65.1765
2720	65.2558
2716	65.2799
2712	65.2668
2708	65.2758
2704	65.2837
2700	65.2931
2696	65.262
2692	65.1962
2688	65.1871
2684	65.2154
2680	65.2285
2676	65.1992
2672	65.141
2668	65.1381
2664	65.1305
2660	65.0968
2656	65.1018
2652	65.1017
2648	65.1464
2644	65.2582
2640	65.2405
2636	65.1015
2632	65.0521
2628	65.0339
2624	65.0076
2620	65.0682
2616	65.1425
2612	65.1653
2608	65.1296
2604	65.1061
2600	65.1753
2596	65.2487
2592	65.2241
2588	65.1283
2584	65.0767
2580	65.0803
2576	65.1124
2572	65.1603
2568	65.1794
2564	65.1606
2560	65.178
2556	65.2775
2552	65.3477
2548	65.3093
2544	65.2859
2540	65.3637
2536	65.368
2532	65.2573
2528	65.2739
2524	65.3845
2520	65.4367
2516	65.448
2512	65.337
2508	65.206
2504	65.2365
2500	65.3241
2496	65.3048
2492	65.1758
2488	65.1273
2484	65.2103
2480	65.2641
2476	65.2368
2472	65.2097
2468	65.2518
2464	65.2649
2460	65.1775
2456	65.098
2452	65.1338
2448	65.2499
2444	65.2454
2440	65.1403
2436	65.16
2432	65.2038
2428	65.085
2424	64.9994
2420	65.269
2416	65.6464
2412	65.6438
2408	65.4131
2404	65.2682
2400	65.2152
2396	65.2534
2392	65.3733
2388	65.424
2384	65.3496
2380	65.2438
2376	65.1786
2372	65.2019
2368	65.2573
2364	65.2606
2360	65.2099
2356	65.1998
2352	65.2754
2348	65.333
2344	65.3337
2340	65.3314
2336	65.3669
2332	65.4022
2328	65.3604
2324	65.2913
2320	65.2498
2316	65.2205
2312	65.2272
2308	65.279
2304	65.3412
2300	65.3655
2296	65.3294
2292	65.3113
2288	65.3383
2284	65.3101
2280	65.2493
2276	65.2397
2272	65.2923
2268	65.3893
2264	65.4277
2260	65.34
2256	65.2817
2252	65.345
2248	65.3533
2244	65.2528
2240	65.1935
2236	65.2142
2232	65.2819
2228	65.3472
2224	65.3339
2220	65.2911
2216	65.3019
2212	65.3498
2208	65.3994
2204	65.413
2200	65.3584
2196	65.3134
2192	65.3178
2188	65.299
2184	65.2354
2180	65.1927
2176	65.2005
2172	65.2814
2168	65.4217
2164	65.4424
2160	65.3018
2156	65.1509
2152	65.1608
2148	65.2915
2144	65.3152
2140	65.2193
2136	65.1829
2132	65.2549
2128	65.3035
2124	65.2827
2120	65.2912
2116	65.318
2112	65.3148
2108	65.2891
2104	65.2722
2100	65.2937
2096	65.2973
2092	65.232
2088	65.0772
2084	64.9404
2080	64.898
2076	64.986
2072	65.464
2068	66.1138
2064	66.2154
2060	65.6871
2056	65.1747
2052	65.06
2048	65.1359
2044	65.1937
2040	65.2142
2036	65.239
2032	65.2753
2028	65.2587
2024	65.234
2020	65.2619
2016	65.3057
2012	65.3226
2008	65.2928
2004	65.2124
2000	65.0864
1996	65.0148
1992	65.1014
1988	65.2398
1984	65.2906
1980	65.2812
1976	65.2795
1972	65.2598
1968	65.2369
1964	65.2578
1960	65.2939
1956	65.3142
1952	65.3076
1948	65.3012
1944	65.2642
1940	65.153
1936	65.095
1932	65.1295
1928	65.1583
1924	65.1799
1920	65.22
1916	65.2524
1912	65.2811
1908	65.3223
1904	65.2888
1900	65.1865
1896	65.1589
1892	65.2227
1888	65.2585
1884	65.2167
1880	65.1847
1876	65.1774
1872	65.1533
1868	65.1329
1864	65.127
1860	65.1682
1856	65.231
1852	65.2194
1848	65.1793
1844	65.1975
1840	65.1714
1836	65.1249
1832	65.1704
1828	65.2163
1824	65.23
1820	65.1945
1816	65.0902
1812	65.0727
1808	65.1344
1804	65.1883
1800	65.2718
1796	65.2781
1792	65.1692
1788	65.1331
1784	65.2397
1780	65.2572
1776	65.1497
1772	65.1483
1768	65.1766
1764	65.1296
1760	65.0688
1756	65.0259
1752	65.073
1748	65.1066
1744	65.0196
1740	64.9082
1736	64.8025
1732	64.82
1728	65.0233
1724	65.1544
1720	65.0486
1716	64.942
1712	64.9798
1708	64.9787
1704	64.9467
1700	65.0691
1696	65.2247
1692	65.1919
1688	65.0674
1684	65.0389
1680	65.1032
1676	65.1786
1672	65.2391
1668	65.2163
1664	65.1375
1660	65.1088
1656	65.1006
1652	65.0842
1648	65.0754
1644	65.0383
1640	64.9894
1636	64.9984
1632	65.0012
1628	64.9575
1624	64.9527
1620	64.9821
1616	64.9376
1612	64.9153
1608	64.9797
1604	65.0247
1600	65.1011
1596	65.142
1592	65.0374
1588	64.9441
1584	64.9614
1580	64.9964
1576	64.977
1572	64.9617
1568	64.9583
1564	64.918
1560	64.9184
1556	64.9678
1552	65.0112
1548	65.0156
1544	64.9204
1540	64.862
1536	64.9928
1532	65.1805
1528	65.2257
1524	65.1453
1520	65.0688
1516	65.0297
1512	65.0688
1508	65.1747
1504	65.2548
1500	65.2462
1496	65.1422
1492	65.1336
1488	65.2138
1484	65.1623
1480	65.0857
1476	65.062
1472	65.0747
1468	65.0856
1464	65.0112
1460	65.0247
1456	65.1185
1452	65.083
1448	64.981
1444	64.9247
1440	64.9995
1436	65.1988
1432	65.3273
1428	65.171
1424	64.8887
1420	64.7702
1416	64.7957
1412	64.8881
1408	64.9586
1404	64.9596
1400	64.9488
1396	64.9324
1392	64.949
1388	64.9746
1384	64.9215
1380	64.8665
1376	64.8543
1372	64.8551
1368	64.9261
1364	65.0114
1360	64.9941
1356	64.9442
1352	64.9317
1348	64.9065
1344	64.9004
1340	64.9594
1336	65.0026
1332	65.0385
1328	65.0565
1324	64.9994
1320	65.0115
1316	65.0553
1312	65.0281
1308	64.9813
1304	64.8934
1300	64.8434
1296	64.8582
1292	64.8615
1288	64.879
1284	64.8998
1280	64.8928
1276	64.8583
1272	64.8181
1268	64.7946
1264	64.7525
1260	64.7617
1256	64.8236
1252	64.8371
1248	64.8128
1244	64.8019
1240	64.8231
1236	64.8153
1232	64.7988
1228	64.8607
1224	64.9773
1220	64.9754
1216	64.8259
1212	64.7171
1208	64.7108
1204	64.7493
1200	64.7835
1196	64.8046
1192	64.7977
1188	64.7942
1184	64.8161
1180	64.7986
1176	64.7558
1172	64.7503
1168	64.8075
1164	64.839
1160	64.7431
1156	64.6287
1152	64.5854
1148	64.5894
1144	64.6605
1140	64.7366
1136	64.7897
1132	64.8146
1128	64.7163
1124	64.6209
1120	64.6396
1116	64.7191
1112	64.909
1108	65.2125
1104	65.4697
1100	65.39
1096	65.0209
1092	64.8092
1088	64.825
1084	64.8223
1080	64.7528
1076	64.7737
1072	64.8396
1068	64.8101
1064	64.6909
1060	64.5439
1056	64.5922
1052	64.8804
1048	65.0214
1044	64.7911
1040	64.5622
1036	64.5805
1032	64.5634
1028	64.2557
1024	63.9439
1020	64.1374
1016	64.6465
1012	64.8954
1008	64.8198
1004	64.6837
1000	64.5389
996	 64.4458
992	 64.5877
988	 64.7403
984	 64.6816
980	 64.5174
976	 64.3409
972	 64.1782
968	 64.1934
964	 64.4619
960	 64.6157
956	 64.5746
952	 64.5772
948	 64.5397
944	 64.4038
940	 64.2964
936	 64.3574
932	 64.481
928	 64.4827
924	 64.5168
920	 64.6214
916	 64.6313
912	 64.532
908	 64.5008
904	 64.4471
900	 64.1385
896	 63.9712
892	 64.0484
888	 64.014
884	 63.9475
880	 64.0381
876	 64.189
872	 64.2198
868	 64.2579
864	 64.2176
860	 63.9465
856	 63.8633
852	 64.1067
848	 64.2249
844	 64.1253
840	 64.1666
836	 64.3004
832	 64.04
828	 63.3658
824	 63.0919
820	 63.8087
816	 64.5879
812	 64.7337
808	 64.7365
804	 64.3193
800	 63.7236
796	 63.9697
792	 64.2593
788	 63.9339
784	 63.761
780	 63.8789
776	 63.8654
772	 63.7982
768	 63.8133
764	 63.6922
760	 63.5513
756	 63.8477
752	 64.4144
748	 64.5812
744	 64.2354
740	 63.8898
736	 63.7429
732	 63.4202
728	 63.1172
724	 63.3114
720	 63.487
716	 63.2727
712	 63.1113
708	 63.1167
704	 63.0498
700	 63.0081
696	 63.0348
692	 62.9502
688	 62.9199
684	 63.0068
680	 63.0451
676	 62.9976
672	 62.8839
668	 62.7489
664	 62.4644
660	 62.1966
656	 62.2227
652	 62.4673
648	 62.742
644	 62.6246
640	 62.4043
636	 62.673
632	 63.0255
628	 62.9963
624	 62.7514
620	 62.5243
616	 62.3204
612	 62.2501
608	 62.2328
604	 62.1068
600	 61.9585
596	 61.9123
592	 61.8869
588	 61.5786
584	 61.1079
580	 61.0998
576	 61.732
572	 62.2156
568	 61.9749
564	 61.5476
560	 61.5198
556	 61.6718
552	 61.7804
548	 61.7812
544	 61.7338
540	 61.6419
536	 61.3598
532	 61.0314
528	 60.7687
524	 60.6119
520	 60.8922
516	 61.3958
512	 60.8549
508	 59.7465
504	 59.5581
500	 59.8252
496	 60.0539
492	 60.2018
488	 59.9328
484	 59.6923
480	 59.4455
476	 59.2798
472	 59.7358
468	 59.9546
464	 59.9287
460	 59.9679
456	 59.1377
452	 58.1649
448	 57.8497
444	 58.3718
440	 59.2999
436	 59.5038
432	 59.2373
428	 59.4954
424	 59.5641
420	 57.7638
416	 55.6948
412	 57.5213
408	 61.5231
404	 60.8178
400	 55.2732
396	 46.1535
392	 35.3389
388	 24.9992
384	 25.8665
380	 50.1559
376	 82.331
372	 86.2565
370	 73.6132