File: Bakgrunnsmateriale/MATLAB/FTIR/ftir_data/subBb/Mapping_121/C-4040-8_t39_cm-1.asc
PE IR       SPECTRUM    SPECTRUM    ASCII       PEDS        1.60
  -1
C-1BE0~1.ASC
17/03/27
17:39:17.00
17/03/27
17:39:17.00
tln
$C-4040-8_t0039$<tbV0>[0.0,-5.2,8.0,0.0,27,1,0]
370
64

2002,4.07
MIRTGS : RIGHTBACK : INTERNAL 2
MIR : ON : INTERNAL 2
OPTKBR

0.200000
8
8.000000
FILLER
RATIO
SPECTRUM
UNLOCKED 256

DOUBLE
64
COMBINED
1
0
0

1.000000
RATIO

1
0
TRUE
51149
0
LEFT NOT FITTED RIGHT NOT FITTED 0
NONE
NONE
15600
12
4.427000
51148
TRUE
1 0 8 72 0 0 0 0

15798

#HDR
-1
-1
#GR
CM-1
%T
2.38419e-05
0.0
5000
-1.000000
4631
8
70.5494
9.985065
#DATA
5000	63.7665
4996	63.6597
4992	63.7885
4988	63.7383
4984	63.376
4980	63.3395
4976	63.6704
4972	63.8437
4968	63.7217
4964	63.5816
4960	63.7496
4956	63.9011
4952	63.7314
4948	63.4389
4944	63.2954
4940	63.4547
4936	63.4383
4932	63.1217
4928	63.0422
4924	63.2837
4920	63.671
4916	64.0601
4912	64.1213
4908	63.7622
4904	63.3686
4900	63.4504
4896	63.7284
4892	63.6656
4888	63.6363
4884	63.6371
4880	63.485
4876	63.4522
4872	63.3581
4868	63.4267
4864	63.8714
4860	64.0206
4856	63.6707
4852	63.2314
4848	63.2225
4844	63.5392
4840	63.5345
4836	63.3892
4832	63.4238
4828	63.549
4824	63.6703
4820	63.7031
4816	63.6404
4812	63.4743
4808	63.2995
4804	63.1954
4800	63.176
4796	63.2755
4792	63.4655
4788	63.5851
4784	63.557
4780	63.4852
4776	63.4981
4772	63.5396
4768	63.5154
4764	63.5143
4760	63.4632
4756	63.3549
4752	63.3293
4748	63.4841
4744	63.7788
4740	63.7716
4736	63.4366
4732	63.2316
4728	63.2367
4724	63.381
4720	63.5607
4716	63.503
4712	63.32
4708	63.417
4704	63.5184
4700	63.421
4696	63.4581
4692	63.5559
4688	63.5173
4684	63.3776
4680	63.2982
4676	63.3152
4672	63.3731
4668	63.518
4664	63.6181
4660	63.6637
4656	63.7208
4652	63.5741
4648	63.3502
4644	63.4517
4640	63.7364
4636	63.8291
4632	63.7648
4628	63.6822
4624	63.6061
4620	63.5643
4616	63.5163
4612	63.4007
4608	63.228
4604	63.1538
4600	63.3526
4596	63.6313
4592	63.6756
4588	63.4389
4584	63.2405
4580	63.2874
4576	63.4363
4572	63.5545
4568	63.5357
4564	63.4546
4560	63.3394
4556	63.2021
4552	63.1779
4548	63.1647
4544	63.2182
4540	63.3795
4536	63.2576
4532	62.9632
4528	63.0009
4524	63.2755
4520	63.3945
4516	63.3401
4512	63.3493
4508	63.3491
4504	63.103
4500	62.7668
4496	62.6298
4492	62.626
4488	62.7463
4484	63.0019
4480	63.0916
4476	62.9835
4472	62.8446
4468	62.7765
4464	62.8193
4460	62.9097
4456	62.9688
4452	62.8557
4448	62.6484
4444	62.5305
4440	62.6908
4436	63.1014
4432	63.2897
4428	63.2622
4424	63.4134
4420	63.5686
4416	63.3439
4412	62.7536
4408	62.4703
4404	62.7696
4400	63.0876
4396	63.2811
4392	63.1521
4388	63.489
4384	63.1321
4380	62.1414
4376	64.5502
4372	66.1824
4368	64.6809
4364	63.5146
4360	63.5535
4356	67.0122
4352	70.4251
4348	69.3087
4344	67.0096
4340	66.3645
4336	65.3217
4332	63.5039
4328	62.9308
4324	63.312
4320	63.4129
4316	63.2719
4312	63.0754
4308	62.8392
4304	62.818
4300	62.8281
4296	62.7025
4292	62.6881
4288	62.7445
4284	62.6494
4280	62.5545
4276	62.6752
4272	62.9007
4268	62.9812
4264	62.9518
4260	62.8967
4256	62.769
4252	62.779
4248	62.9005
4244	62.8247
4240	62.6669
4236	62.6461
4232	62.7759
4228	62.8687
4224	62.763
4220	62.6397
4216	62.486
4212	62.3006
4208	62.4501
4204	62.7274
4200	62.5339
4196	62.1418
4192	62.0523
4188	62.0566
4184	61.9443
4180	62.1128
4176	62.6965
4172	63.0603
4168	63.0719
4164	63.0531
4160	62.841
4156	62.517
4152	62.6199
4148	62.9703
4144	62.8649
4140	62.5483
4136	62.5441
4132	62.5545
4128	62.4736
4124	62.4756
4120	62.3329
4116	62.2059
4112	62.3928
4108	62.5461
4104	62.4751
4100	62.4117
4096	62.4137
4092	62.392
4088	62.2942
4084	62.2667
4080	62.3334
4076	62.4041
4072	62.5621
4068	62.7364
4064	62.6777
4060	62.382
4056	62.2273
4052	62.3298
4048	62.4644
4044	62.514
4040	62.4094
4036	62.2387
4032	62.2291
4028	62.325
4024	62.3126
4020	62.2146
4016	62.1548
4012	62.1347
4008	62.1286
4004	62.185
4000	62.233
3996	62.2096
3992	62.2431
3988	62.2667
3984	62.1691
3980	62.2137
3976	62.4063
3972	62.4692
3968	62.4769
3964	62.4216
3960	62.1216
3956	61.8243
3952	61.8568
3948	62.0351
3944	62.1451
3940	62.1988
3936	62.1304
3932	61.9396
3928	61.8239
3924	61.8786
3920	62.0084
3916	62.0807
3912	62.0382
3908	62.0325
3904	62.1035
3900	62.0272
3896	61.849
3892	61.8668
3888	62.0574
3884	62.2226
3880	62.2896
3876	62.1685
3872	61.8694
3868	61.6389
3864	61.6933
3860	61.766
3856	61.635
3852	61.6011
3848	61.7013
3844	61.7685
3840	61.7966
3836	61.7016
3832	61.5572
3828	61.6325
3824	61.8218
3820	61.7818
3816	61.6127
3812	61.512
3808	61.4866
3804	61.5693
3800	61.6751
3796	61.7068
3792	61.673
3788	61.5227
3784	61.3341
3780	61.2946
3776	61.3773
3772	61.45
3768	61.5178
3764	61.6171
3760	61.6401
3756	61.6054
3752	61.5948
3748	61.553
3744	61.538
3740	61.557
3736	61.5568
3732	61.5716
3728	61.566
3724	61.4999
3720	61.4149
3716	61.4049
3712	61.4518
3708	61.4617
3704	61.439
3700	61.3745
3696	61.2328
3692	61.1035
3688	61.0894
3684	61.1303
3680	61.1073
3676	61.0639
3672	61.0895
3668	61.1278
3664	61.1121
3660	61.0726
3656	61.0625
3652	61.0756
3648	61.1275
3644	61.1805
3640	61.1387
3636	61.0549
3632	61.0117
3628	61.0295
3624	61.0747
3620	61.1223
3616	61.1424
3612	61.0689
3608	60.9735
3604	60.8751
3600	60.7718
3596	60.7569
3592	60.8079
3588	60.8562
3584	60.8399
3580	60.789
3576	60.8366
3572	60.915
3568	60.8456
3564	60.6542
3560	60.5824
3556	60.7497
3552	60.8402
3548	60.7152
3544	60.5953
3540	60.5884
3536	60.6556
3532	60.6759
3528	60.6472
3524	60.5878
3520	60.5361
3516	60.5792
3512	60.5964
3508	60.5189
3504	60.5467
3500	60.6689
3496	60.5681
3492	60.3214
3488	60.2481
3484	60.2823
3480	60.1747
3476	60.0372
3472	60.1024
3468	60.254
3464	60.306
3460	60.3185
3456	60.3819
3452	60.4342
3448	60.333
3444	60.1372
3440	60.0942
3436	60.1569
3432	60.1565
3428	60.0698
3424	59.9526
3420	59.9216
3416	59.9246
3412	59.913
3408	59.9456
3404	59.9685
3400	59.9432
3396	59.9034
3392	59.8824
3388	59.8526
3384	59.7909
3380	59.6853
3376	59.5815
3372	59.6106
3368	59.7238
3364	59.7246
3360	59.6753
3356	59.7651
3352	59.7679
3348	59.5586
3344	59.4567
3340	59.5032
3336	59.4429
3332	59.284
3328	59.2184
3324	59.2798
3320	59.3511
3316	59.3663
3312	59.3456
3308	59.3894
3304	59.5164
3300	59.4997
3296	59.2834
3292	59.1442
3288	59.172
3284	59.2076
3280	59.1751
3276	59.1677
3272	59.1764
3268	59.1285
3264	59.1189
3260	59.133
3256	59.063
3252	58.9674
3248	58.86
3244	58.7348
3240	58.699
3236	58.7481
3232	58.7466
3228	58.6789
3224	58.6504
3220	58.644
3216	58.6052
3212	58.6205
3208	58.6668
3204	58.6049
3200	58.5552
3196	58.6204
3192	58.6758
3188	58.6293
3184	58.5924
3180	58.5917
3176	58.4745
3172	58.36
3168	58.3751
3164	58.4102
3160	58.3484
3156	58.2384
3152	58.2221
3148	58.226
3144	58.1256
3140	58.0681
3136	58.0807
3132	57.9753
3128	57.8707
3124	58.0046
3120	58.2588
3116	58.4202
3112	58.4584
3108	58.3028
3104	58.0812
3100	58.051
3096	58.0633
3092	57.9868
3088	57.9291
3084	57.8491
3080	57.7409
3076	57.6979
3072	57.6874
3068	57.6457
3064	57.6434
3060	57.7063
3056	57.7157
3052	57.6253
3048	57.5231
3044	57.5238
3040	57.5466
3036	57.4515
3032	57.3827
3028	57.4122
3024	57.3538
3020	57.2577
3016	57.2694
3012	57.2798
3008	57.194
3004	57.0936
3000	57.0703
2996	57.0867
2992	57.0899
2988	57.0882
2984	57.1028
2980	57.1226
2976	57.071
2972	57.0093
2968	56.9581
2964	56.808
2960	56.6789
2956	56.6478
2952	56.6614
2948	56.7036
2944	56.6968
2940	56.5957
2936	56.4733
2932	56.376
2928	56.2762
2924	56.1495
2920	56.0253
2916	55.9757
2912	55.9921
2908	56.0267
2904	56.0906
2900	56.1993
2896	56.2599
2892	56.1951
2888	56.1362
2884	56.1302
2880	56.0948
2876	56.0886
2872	56.0845
2868	56.013
2864	55.9895
2860	55.9487
2856	55.7569
2852	55.6039
2848	55.6621
2844	55.8054
2840	55.8416
2836	55.7879
2832	55.7282
2828	55.6818
2824	55.6577
2820	55.6607
2816	55.6412
2812	55.5838
2808	55.5702
2804	55.5505
2800	55.4725
2796	55.4082
2792	55.3699
2788	55.3496
2784	55.3625
2780	55.3577
2776	55.3083
2772	55.2634
2768	55.2613
2764	55.2414
2760	55.1741
2756	55.1187
2752	55.0685
2748	55.0322
2744	55.0175
2740	54.9322
2736	54.8224
2732	54.8026
2728	54.8129
2724	54.7761
2720	54.7122
2716	54.6845
2712	54.6922
2708	54.631
2704	54.5562
2700	54.5683
2696	54.5696
2692	54.4787
2688	54.3808
2684	54.3976
2680	54.4163
2676	54.3053
2672	54.234
2668	54.2965
2664	54.342
2660	54.2607
2656	54.1652
2652	54.1293
2648	54.0789
2644	54.0469
2640	54.0402
2636	54.0324
2632	54.0241
2628	53.9767
2624	53.8695
2620	53.7609
2616	53.7294
2612	53.7027
2608	53.6367
2604	53.6021
2600	53.6031
2596	53.5916
2592	53.5409
2588	53.481
2584	53.4373
2580	53.3783
2576	53.3361
2572	53.3294
2568	53.2813
2564	53.2257
2560	53.1948
2556	53.1802
2552	53.1744
2548	53.1773
2544	53.1769
2540	53.1234
2536	53.017
2532	52.8934
2528	52.8498
2524	52.9569
2520	53.0171
2516	52.8978
2512	52.7652
2508	52.6327
2504	52.5065
2500	52.4786
2496	52.3999
2492	52.3081
2488	52.3713
2484	52.4138
2480	52.3517
2476	52.284
2472	52.2587
2468	52.2989
2464	52.2744
2460	52.1219
2456	51.9974
2452	51.9862
2448	52.0469
2444	52.0649
2440	51.9458
2436	51.7799
2432	51.628
2428	51.4954
2424	51.5367
2420	51.7782
2416	51.8978
2412	51.7237
2408	51.5516
2404	51.5503
2400	51.6299
2396	51.7004
2392	51.6301
2388	51.4451
2384	51.3341
2380	51.3155
2376	51.2787
2372	51.2221
2368	51.1933
2364	51.2009
2360	51.1891
2356	51.1196
2352	51.0673
2348	51.0049
2344	50.9055
2340	50.8672
2336	50.8316
2332	50.7528
2328	50.7087
2324	50.6594
2320	50.5983
2316	50.577
2312	50.5489
2308	50.4853
2304	50.3893
2300	50.2733
2296	50.2143
2292	50.2216
2288	50.2261
2284	50.1934
2280	50.1184
2276	50.0417
2272	49.9562
2268	49.8697
2264	49.8498
2260	49.8185
2256	49.7603
2252	49.8018
2248	49.835
2244	49.7623
2240	49.7332
2236	49.7127
2232	49.5862
2228	49.4485
2224	49.4246
2220	49.4785
2216	49.4801
2212	49.4625
2208	49.4661
2204	49.3885
2200	49.2497
2196	49.2056
2192	49.2528
2188	49.2227
2184	49.1222
2180	49.0696
2176	49.0314
2172	48.9849
2168	48.9465
2164	48.9035
2160	48.8879
2156	48.8958
2152	48.8888
2148	48.8144
2144	48.6995
2140	48.6511
2136	48.6382
2132	48.5896
2128	48.4733
2124	48.3315
2120	48.2677
2116	48.2558
2112	48.2131
2108	48.1784
2104	48.1537
2100	48.0428
2096	47.9413
2092	47.9735
2088	48.0389
2084	48.0566
2080	48.0416
2076	47.9738
2072	47.8312
2068	47.659
2064	47.5248
2060	47.443
2056	47.4107
2052	47.4264
2048	47.4299
2044	47.3942
2040	47.3108
2036	47.2242
2032	47.1966
2028	47.1873
2024	47.1801
2020	47.1296
2016	47.0433
2012	47.0128
2008	47.0065
2004	46.9714
2000	46.937
1996	46.9044
1992	46.8229
1988	46.721
1984	46.6554
1980	46.5955
1976	46.5322
1972	46.4327
1968	46.279
1964	46.2433
1960	46.3433
1956	46.3664
1952	46.2854
1948	46.2011
1944	46.1535
1940	46.1069
1936	46.0482
1932	46.017
1928	45.9958
1924	45.9458
1920	45.8495
1916	45.7412
1912	45.6923
1908	45.6985
1904	45.6644
1900	45.5682
1896	45.5018
1892	45.5005
1888	45.4947
1884	45.4458
1880	45.3861
1876	45.358
1872	45.3548
1868	45.3177
1864	45.258
1860	45.1902
1856	45.0979
1852	45.0241
1848	44.9959
1844	45.0321
1840	45.0603
1836	45.0062
1832	44.9312
1828	44.838
1824	44.6876
1820	44.5457
1816	44.5251
1812	44.5387
1808	44.4664
1804	44.4141
1800	44.4006
1796	44.3268
1792	44.2482
1788	44.2569
1784	44.2303
1780	44.0902
1776	44.0024
1772	44.0012
1768	43.9589
1764	43.8685
1760	43.8186
1756	43.8003
1752	43.7183
1748	43.6272
1744	43.5963
1740	43.5435
1736	43.4194
1732	43.302
1728	43.2771
1724	43.3022
1720	43.3058
1716	43.2974
1712	43.2932
1708	43.2765
1704	43.2337
1700	43.1435
1696	43.0443
1692	43.0008
1688	42.9597
1684	42.8612
1680	42.8063
1676	42.808
1672	42.7336
1668	42.6417
1664	42.6144
1660	42.5993
1656	42.5498
1652	42.4591
1648	42.4085
1644	42.4137
1640	42.4098
1636	42.3813
1632	42.305
1628	42.2048
1624	42.1161
1620	42.0065
1616	41.918
1612	41.9538
1608	41.9946
1604	41.8775
1600	41.7059
1596	41.6205
1592	41.6191
1588	41.6271
1584	41.6013
1580	41.5374
1576	41.4357
1572	41.3511
1568	41.3293
1564	41.328
1560	41.3058
1556	41.2585
1552	41.1803
1548	41.0943
1544	41.0302
1540	40.9975
1536	40.9538
1532	40.8956
1528	40.8714
1524	40.79
1520	40.6516
1516	40.6088
1512	40.6484
1508	40.6615
1504	40.6078
1500	40.5292
1496	40.4917
1492	40.4907
1488	40.4729
1484	40.3977
1480	40.2533
1476	40.1006
1472	39.9891
1468	39.9146
1464	39.9222
1460	40.0271
1456	40.1213
1452	40.0434
1448	39.8305
1444	39.7126
1440	39.7317
1436	39.7601
1432	39.6633
1428	39.4954
1424	39.4641
1420	39.5145
1416	39.4784
1412	39.3767
1408	39.2936
1404	39.2416
1400	39.1875
1396	39.1515
1392	39.1289
1388	39.0747
1384	38.9882
1380	38.9015
1376	38.8321
1372	38.7306
1368	38.6386
1364	38.6802
1360	38.7789
1356	38.7587
1352	38.6359
1348	38.5477
1344	38.4965
1340	38.4405
1336	38.4288
1332	38.4547
1328	38.443
1324	38.3288
1320	38.1427
1316	38.0245
1312	38.0095
1308	38.0051
1304	37.9509
1300	37.8631
1296	37.8323
1292	37.8648
1288	37.8288
1284	37.7423
1280	37.6976
1276	37.6706
1272	37.6343
1268	37.5788
1264	37.5144
1260	37.4525
1256	37.3726
1252	37.2488
1248	37.1379
1244	37.1562
1240	37.1891
1236	37.1484
1232	37.1179
1228	37.086
1224	37.0203
1220	36.9057
1216	36.7967
1212	36.6639
1208	36.4817
1204	36.4476
1200	36.5563
1196	36.6439
1192	36.6722
1188	36.5966
1184	36.4551
1180	36.3544
1176	36.2902
1172	36.2457
1168	36.1913
1164	36.1001
1160	36.028
1156	36.0139
1152	35.9722
1148	35.8304
1144	35.7581
1140	35.7746
1136	35.6501
1132	35.5743
1128	35.7467
1124	35.8622
1120	35.657
1116	35.2701
1112	35.1326
1108	35.4712
1104	35.8065
1100	35.6294
1096	35.3001
1092	35.2647
1088	35.286
1084	35.1404
1080	34.9339
1076	34.7128
1072	34.5499
1068	34.4932
1064	34.5679
1060	34.6951
1056	34.6596
1052	34.5534
1048	34.4616
1044	34.3881
1040	34.3803
1036	34.4154
1032	34.4339
1028	34.3309
1024	34.3088
1020	34.3967
1016	34.1726
1012	33.7298
1008	33.5121
1004	33.4807
1000	33.5731
996	 33.7115
992	 33.6806
988	 33.6312
984	 33.6453
980	 33.5966
976	 33.5213
972	 33.478
968	 33.396
964	 33.219
960	 33.0291
956	 32.9776
952	 33.0948
948	 33.143
944	 33.0295
940	 32.8754
936	 32.7836
932	 32.8181
928	 32.8573
924	 32.7882
920	 32.6043
916	 32.405
912	 32.3396
908	 32.3869
904	 32.3807
900	 32.2575
896	 32.1609
892	 32.1196
888	 32.0662
884	 32.04
880	 32.0125
876	 31.8617
872	 31.651
868	 31.6135
864	 31.7275
860	 31.7466
856	 31.5991
852	 31.4208
848	 31.2704
844	 31.1249
840	 31.0194
836	 31.0466
832	 31.1395
828	 30.9887
824	 30.7051
820	 30.6799
816	 30.7359
812	 30.6859
808	 30.6816
804	 30.6077
800	 30.4325
796	 30.3738
792	 30.3091
788	 30.2298
784	 30.1878
780	 30.0595
776	 29.8706
772	 29.7168
768	 29.6272
764	 29.6213
760	 29.6299
756	 29.4966
752	 29.3346
748	 29.3564
744	 29.4404
740	 29.2559
736	 28.9864
732	 28.828
728	 28.6055
724	 28.4633
720	 28.4209
716	 28.3195
712	 28.1784
708	 28.1547
704	 28.2983
700	 28.2383
696	 27.8579
692	 27.5645
688	 27.4922
684	 27.4165
680	 27.2384
676	 27.0944
672	 27.1105
668	 27.1076
664	 27.0064
660	 26.8482
656	 26.5937
652	 26.4535
648	 26.439
644	 26.3684
640	 26.3174
636	 26.3842
632	 26.3205
628	 26.157
624	 26.2024
620	 26.0941
616	 25.6642
612	 25.3652
608	 25.4454
604	 25.7043
600	 25.7668
596	 25.4612
592	 25.0154
588	 24.921
584	 25.0535
580	 25.0195
576	 24.8086
572	 24.4673
568	 24.1577
564	 23.9502
560	 23.9235
556	 24.1164
552	 24.1097
548	 23.7173
544	 23.3342
540	 23.2267
536	 23.2378
532	 22.9249
528	 22.2811
524	 21.9124
520	 22.0124
516	 22.086
512	 21.9326
508	 21.8149
504	 21.7684
500	 21.6074
496	 21.4065
492	 21.6252
488	 21.9638
484	 21.4531
480	 20.5698
476	 20.2637
472	 20.1112
468	 19.6419
464	 19.1994
460	 19.0351
456	 18.6853
452	 18.2245
448	 18.3085
444	 18.6244
440	 18.3794
436	 17.4183
432	 16.7785
428	 16.2915
424	 15.4357
420	 15.6413
416	 15.5843
412	 14.3672
408	 15.1195
404	 18.135
400	 20.8576
396	 21.2585
392	 14.8445
388	 9.985065
384	 14.9789
380	 20.5835
376	 38.8985
372	 55.8498
370	 52.3703