File: Bakgrunnsmateriale/MATLAB/FTIR/ftir_data/subBb/Mapping_121/C-4040-8_t68_cm-1.asc
PE IR       SPECTRUM    SPECTRUM    ASCII       PEDS        1.60
  -1
C-9C65~1.ASC
17/03/27
20:07:25.00
17/03/27
20:07:25.00
tln
$C-4040-8_t0068$<tbV0>[10.4,2.6,8.0,0.0,27,1,0]
370
64

2002,4.07
MIRTGS : RIGHTBACK : INTERNAL 2
MIR : ON : INTERNAL 2
OPTKBR

0.200000
8
8.000000
FILLER
RATIO
SPECTRUM
UNLOCKED 256

DOUBLE
64
COMBINED
1
0
0

1.000000
RATIO

1
0
TRUE
51149
0
LEFT NOT FITTED RIGHT NOT FITTED 0
NONE
NONE
15600
12
4.427000
51148
TRUE
1 0 8 72 0 0 0 0

15798

#HDR
-1
-1
#GR
CM-1
%T
2.38419e-05
0.0
5000
-1.000000
4631
8
94.3375
25.4335
#DATA
5000	65.355
4996	65.1508
4992	65.0666
4988	65.0251
4984	64.9666
4980	65.2299
4976	65.6212
4972	65.5368
4968	64.9265
4964	64.5464
4960	64.6771
4956	64.8756
4952	65.053
4948	65.2183
4944	65.122
4940	64.7336
4936	64.4293
4932	64.4421
4928	64.5596
4924	64.5951
4920	64.662
4916	64.8742
4912	65.0768
4908	64.9873
4904	64.7692
4900	64.6915
4896	64.4174
4892	63.9417
4888	63.9538
4884	64.4831
4880	64.9014
4876	64.9857
4872	64.7993
4868	64.7823
4864	64.8658
4860	64.7467
4856	64.778
4852	64.7558
4848	64.6004
4844	64.553
4840	64.6541
4836	65.0437
4832	65.3262
4828	65.1423
4824	64.8706
4820	64.8489
4816	64.8069
4812	64.6749
4808	64.7863
4804	64.9521
4800	64.9369
4796	64.8529
4792	64.7873
4788	64.813
4784	64.9322
4780	65.0471
4776	65.164
4772	65.3385
4768	65.3248
4764	65.1196
4760	65.2206
4756	65.3909
4752	65.1742
4748	65.0198
4744	65.0723
4740	65.037
4736	65.036
4732	65.1524
4728	65.2345
4724	65.2774
4720	65.4004
4716	65.4134
4712	65.2406
4708	65.1696
4704	65.1542
4700	65.1258
4696	65.1914
4692	65.3925
4688	65.6461
4684	65.6786
4680	65.574
4676	65.4508
4672	65.3764
4668	65.5385
4664	65.5805
4660	65.4001
4656	65.5005
4652	65.8201
4648	65.6573
4644	65.2221
4640	65.2557
4636	65.4918
4632	65.5837
4628	65.6533
4624	65.6859
4620	65.5286
4616	65.2894
4612	65.1973
4608	65.1458
4604	64.9004
4600	64.6201
4596	64.705
4592	64.9384
4588	64.878
4584	64.6974
4580	64.7889
4576	65.1759
4572	65.3268
4568	65.1093
4564	64.9975
4560	64.991
4556	64.8713
4552	64.7543
4548	64.6832
4544	64.7102
4540	64.8488
4536	64.6454
4532	64.4394
4528	65.0015
4524	65.3744
4520	64.8849
4516	64.4251
4512	64.3728
4508	64.4668
4504	64.5035
4500	64.4811
4496	64.4792
4492	64.5358
4488	64.6259
4484	64.3519
4480	63.7193
4476	63.5827
4472	63.9557
4468	64.1619
4464	64.1979
4460	64.1383
4456	64.0967
4452	64.1336
4448	64.0627
4444	64.0819
4440	64.2741
4436	64.2269
4432	63.9589
4428	63.9419
4424	63.9298
4420	64.0785
4416	64.1465
4412	63.6621
4408	63.1273
4404	63.0152
4400	62.955
4396	62.7025
4392	61.4055
4388	62.6607
4384	80.387
4380	94.3375
4376	91.2822
4372	85.8036
4368	73.8967
4364	66.5672
4360	65.1791
4356	64.4511
4352	64.1981
4348	64.0413
4344	64.3555
4340	64.7439
4336	64.8382
4332	64.7383
4328	64.721
4324	64.7301
4320	64.4853
4316	64.3715
4312	64.4098
4308	64.451
4304	64.5737
4300	64.4896
4296	64.419
4292	64.4509
4288	64.3776
4284	64.493
4280	64.6791
4276	64.5894
4272	64.4718
4268	64.4037
4264	64.3659
4260	64.4909
4256	64.6777
4252	64.7341
4248	64.5887
4244	64.4274
4240	64.3987
4236	64.5135
4232	64.7235
4228	64.8154
4224	64.7308
4220	64.6775
4216	64.7638
4212	64.8368
4208	64.8349
4204	64.9168
4200	64.8654
4196	64.5845
4192	64.6108
4188	64.9629
4184	65.1355
4180	64.7699
4176	64.5661
4172	65.0773
4168	65.3005
4164	64.973
4160	64.7675
4156	64.8276
4152	64.9755
4148	65.194
4144	65.4361
4140	65.4121
4136	65.1784
4132	65.136
4128	65.2584
4124	65.2651
4120	65.1391
4116	65.0121
4112	64.9871
4108	65.1253
4104	65.3205
4100	65.3368
4096	65.2568
4092	65.2253
4088	65.2487
4084	65.321
4080	65.3327
4076	65.2351
4072	65.0965
4068	65.0949
4064	65.2165
4060	65.2276
4056	65.1305
4052	65.0333
4048	65.0116
4044	65.1273
4040	65.2875
4036	65.2942
4032	65.2
4028	65.234
4024	65.3481
4020	65.4747
4016	65.648
4012	65.6738
4008	65.4351
4004	65.1913
4000	65.1384
3996	65.1807
3992	65.2942
3988	65.3733
3984	65.3068
3980	65.2303
3976	65.0942
3972	64.9445
3968	65.0004
3964	65.1968
3960	65.381
3956	65.4021
3952	65.2908
3948	65.2541
3944	65.2266
3940	65.0941
3936	65.0031
3932	65.0854
3928	65.1843
3924	65.1966
3920	65.29
3916	65.3735
3912	65.2139
3908	65.0082
3904	64.9648
3900	64.9826
3896	64.9515
3892	64.9824
3888	65.1344
3884	65.12
3880	64.9672
3876	64.9798
3872	65.1671
3868	65.4222
3864	65.4795
3860	65.1676
3856	64.9083
3852	64.9821
3848	65.0874
3844	65.1234
3840	65.1616
3836	65.226
3832	65.3736
3828	65.34
3824	65.1057
3820	65.1007
3816	65.142
3812	65.0299
3808	65.0344
3804	65.1166
3800	65.1135
3796	64.9743
3792	64.866
3788	64.9628
3784	65.112
3780	65.1466
3776	65.133
3772	65.1687
3768	65.2141
3764	65.2688
3760	65.3177
3756	65.3121
3752	65.2699
3748	65.231
3744	65.1806
3740	65.0608
3736	64.936
3732	64.9579
3728	65.0817
3724	65.1435
3720	65.149
3716	65.2175
3712	65.3331
3708	65.3498
3704	65.2023
3700	64.9611
3696	64.8988
3692	65.0386
3688	65.1432
3684	65.2383
3680	65.2862
3676	65.2379
3672	65.2252
3668	65.2473
3664	65.3159
3660	65.4742
3656	65.5319
3652	65.4047
3648	65.327
3644	65.4277
3640	65.4872
3636	65.364
3632	65.2228
3628	65.2282
3624	65.3625
3620	65.4706
3616	65.4762
3612	65.3763
3608	65.2013
3604	65.0669
3600	65.034
3596	65.0697
3592	65.135
3588	65.1915
3584	65.2613
3580	65.4096
3576	65.5448
3572	65.5401
3568	65.45
3564	65.3605
3560	65.2931
3556	65.2786
3552	65.287
3548	65.181
3544	65.0416
3540	65.051
3536	65.1378
3532	65.1839
3528	65.2198
3524	65.2858
3520	65.3694
3516	65.3522
3512	65.1536
3508	65.0818
3504	65.2305
3500	65.3209
3496	65.2939
3492	65.2534
3488	65.2549
3484	65.2765
3480	65.2791
3476	65.2893
3472	65.257
3468	65.205
3464	65.289
3460	65.3441
3456	65.2928
3452	65.1979
3448	65.0085
3444	64.967
3440	65.1523
3436	65.2459
3432	65.1113
3428	64.9747
3424	65.0911
3420	65.3884
3416	65.5341
3412	65.4214
3408	65.2338
3404	65.0233
3400	64.9121
3396	65.0172
3392	65.2262
3388	65.348
3384	65.2716
3380	65.1558
3376	65.1217
3372	65.1057
3368	65.0966
3364	65.1448
3360	65.2307
3356	65.1962
3352	65.0298
3348	64.9243
3344	64.925
3340	64.9753
3336	65.0654
3332	65.1371
3328	65.1339
3324	65.1575
3320	65.1959
3316	65.1419
3312	65.095
3308	65.138
3304	65.258
3300	65.34
3296	65.2828
3292	65.1556
3288	65.1037
3284	65.1723
3280	65.2617
3276	65.2651
3272	65.196
3268	65.2066
3264	65.2875
3260	65.3378
3256	65.3831
3252	65.3743
3248	65.2771
3244	65.1966
3240	65.2099
3236	65.3011
3232	65.3172
3228	65.1642
3224	64.9156
3220	64.7539
3216	64.8493
3212	65.0365
3208	65.1227
3204	65.2
3200	65.3255
3196	65.4015
3192	65.3457
3188	65.2431
3184	65.2264
3180	65.1752
3176	65.0664
3172	65.0931
3168	65.1519
3164	65.2085
3160	65.3216
3156	65.3528
3152	65.3307
3148	65.3462
3144	65.3975
3140	65.3066
3136	65.1034
3132	65.0698
3128	65.0434
3124	64.8937
3120	64.9348
3116	65.1296
3112	65.0864
3108	64.9725
3104	65.0723
3100	65.1826
3096	65.2213
3092	65.2701
3088	65.3003
3084	65.2519
3080	65.163
3076	65.1707
3072	65.2303
3068	65.2069
3064	65.1362
3060	65.1066
3056	65.1538
3052	65.2353
3048	65.2195
3044	65.1525
3040	65.1057
3036	65.0727
3032	65.1047
3028	65.1003
3024	65.0808
3020	65.1075
3016	65.1102
3012	65.1242
3008	65.1368
3004	65.1338
3000	65.1451
2996	65.1402
2992	65.0675
2988	64.982
2984	65.0372
2980	65.1668
2976	65.1477
2972	65.0154
2968	64.9709
2964	64.9792
2960	64.9238
2956	64.9289
2952	65.0504
2948	65.1674
2944	65.2148
2940	65.1164
2936	64.9565
2932	64.9064
2928	64.9076
2924	64.8823
2920	64.8324
2916	64.886
2912	65.0328
2908	65.1357
2904	65.1813
2900	65.1609
2896	65.1297
2892	65.1068
2888	65.0999
2884	65.1478
2880	65.1026
2876	64.959
2872	64.9686
2868	65.1185
2864	65.1717
2860	65.0827
2856	64.9918
2852	65.0304
2848	65.1504
2844	65.2011
2840	65.1986
2836	65.2164
2832	65.2011
2828	65.1572
2824	65.182
2820	65.2518
2816	65.2898
2812	65.2876
2808	65.2764
2804	65.3178
2800	65.3618
2796	65.3342
2792	65.3033
2788	65.3334
2784	65.3947
2780	65.4327
2776	65.4323
2772	65.3883
2768	65.3176
2764	65.3187
2760	65.3902
2756	65.414
2752	65.3897
2748	65.3741
2744	65.3721
2740	65.3464
2736	65.3032
2732	65.2346
2728	65.1299
2724	65.1221
2720	65.2722
2716	65.4161
2712	65.4324
2708	65.4124
2704	65.4403
2700	65.4929
2696	65.4719
2692	65.3543
2688	65.2846
2684	65.2549
2680	65.2161
2676	65.262
2672	65.3405
2668	65.3752
2664	65.3699
2660	65.3522
2656	65.3396
2652	65.3048
2648	65.2905
2644	65.2851
2640	65.3163
2636	65.4045
2632	65.4214
2628	65.3763
2624	65.3764
2620	65.3668
2616	65.3029
2612	65.2904
2608	65.2987
2604	65.2668
2600	65.2629
2596	65.2856
2592	65.3051
2588	65.2732
2584	65.2181
2580	65.2261
2576	65.2052
2572	65.1622
2568	65.2003
2564	65.2966
2560	65.389
2556	65.419
2552	65.3629
2548	65.2388
2544	65.1419
2540	65.1491
2536	65.2277
2532	65.3301
2528	65.4029
2524	65.374
2520	65.2667
2516	65.2037
2512	65.2166
2508	65.2378
2504	65.2753
2500	65.3087
2496	65.2309
2492	65.122
2488	65.1844
2484	65.3552
2480	65.4205
2476	65.3744
2472	65.3359
2468	65.3093
2464	65.2656
2460	65.2601
2456	65.3347
2452	65.4253
2448	65.4474
2444	65.438
2440	65.4758
2436	65.5072
2432	65.4125
2428	65.2384
2424	65.2205
2420	65.3344
2416	65.3688
2412	65.4306
2408	65.5017
2404	65.4292
2400	65.3269
2396	65.2727
2392	65.2725
2388	65.2946
2384	65.3284
2380	65.4331
2376	65.4513
2372	65.3263
2368	65.2933
2364	65.3352
2360	65.3083
2356	65.2903
2352	65.3067
2348	65.299
2344	65.3274
2340	65.3566
2336	65.3012
2332	65.2617
2328	65.2352
2324	65.1956
2320	65.2381
2316	65.3275
2312	65.375
2308	65.3673
2304	65.3312
2300	65.3043
2296	65.2752
2292	65.2383
2288	65.2912
2284	65.4078
2280	65.4309
2276	65.3516
2272	65.2601
2268	65.2274
2264	65.279
2260	65.329
2256	65.3531
2252	65.4105
2248	65.4448
2244	65.4086
2240	65.3486
2236	65.3233
2232	65.3514
2228	65.385
2224	65.3486
2220	65.2647
2216	65.2404
2212	65.3034
2208	65.3329
2204	65.2522
2200	65.2115
2196	65.2606
2192	65.2871
2188	65.3041
2184	65.3701
2180	65.4209
2176	65.3862
2172	65.3391
2168	65.2929
2164	65.3234
2160	65.4817
2156	65.4932
2152	65.3689
2148	65.3573
2144	65.3965
2140	65.3667
2136	65.2927
2132	65.2751
2128	65.3054
2124	65.3015
2120	65.3115
2116	65.3346
2112	65.2944
2108	65.2572
2104	65.2991
2100	65.3451
2096	65.3349
2092	65.3146
2088	65.3155
2084	65.3762
2080	65.4637
2076	65.4714
2072	65.4809
2068	65.5068
2064	65.3755
2060	65.159
2056	65.1348
2052	65.3386
2048	65.5061
2044	65.499
2040	65.4314
2036	65.3813
2032	65.3617
2028	65.3527
2024	65.3264
2020	65.3361
2016	65.3937
2012	65.3987
2008	65.3158
2004	65.2276
2000	65.2023
1996	65.2503
1992	65.2995
1988	65.2864
1984	65.2555
1980	65.2596
1976	65.3146
1972	65.4187
1968	65.4842
1964	65.4428
1960	65.4025
1956	65.4095
1952	65.4041
1948	65.3841
1944	65.3721
1940	65.3704
1936	65.3547
1932	65.366
1928	65.401
1924	65.3923
1920	65.3607
1916	65.3348
1912	65.2926
1908	65.2406
1904	65.2178
1900	65.2422
1896	65.3321
1892	65.3955
1888	65.3686
1884	65.3519
1880	65.3583
1876	65.3564
1872	65.3482
1868	65.3463
1864	65.3534
1860	65.3424
1856	65.3251
1852	65.2572
1848	65.1679
1844	65.1802
1840	65.2579
1836	65.327
1832	65.3658
1828	65.3773
1824	65.3943
1820	65.4253
1816	65.4442
1812	65.4035
1808	65.3169
1804	65.259
1800	65.2682
1796	65.3214
1792	65.3327
1788	65.3324
1784	65.3787
1780	65.3703
1776	65.3413
1772	65.3489
1768	65.3341
1764	65.3767
1760	65.4579
1756	65.3904
1752	65.2
1748	65.0626
1744	65.0543
1740	65.1163
1736	65.2082
1732	65.2902
1728	65.2864
1724	65.2102
1720	65.161
1716	65.2583
1712	65.3099
1708	65.1823
1704	65.1281
1700	65.1843
1696	65.2259
1692	65.2326
1688	65.2273
1684	65.2299
1680	65.2443
1676	65.2554
1672	65.2453
1668	65.2643
1664	65.2817
1660	65.2409
1656	65.2279
1652	65.2695
1648	65.2841
1644	65.2444
1640	65.1462
1636	65.0884
1632	65.1074
1628	65.0767
1624	65.02
1620	65.0046
1616	65.031
1612	65.0496
1608	65.0255
1604	65.051
1600	65.1283
1596	65.1587
1592	65.1182
1588	65.0687
1584	65.087
1580	65.1285
1576	65.0787
1572	64.9877
1568	64.9976
1564	65.0405
1560	65.0227
1556	65.0072
1552	65.0188
1548	65.0385
1544	65.012
1540	64.9334
1536	64.9233
1532	65.0154
1528	65.1252
1524	65.1477
1520	65.0716
1516	65.0145
1512	65.0888
1508	65.2053
1504	65.1946
1500	65.1309
1496	65.1569
1492	65.2367
1488	65.2143
1484	65.0987
1480	65.0598
1476	65.0665
1472	64.9978
1468	64.9674
1464	65.0657
1460	65.1695
1456	65.1168
1452	64.8962
1448	64.796
1444	64.9497
1440	65.1772
1436	65.3295
1432	65.3192
1428	65.2054
1424	65.1011
1420	65.0841
1416	65.1497
1412	65.2194
1408	65.2334
1404	65.1605
1400	65.1377
1396	65.1642
1392	65.062
1388	64.9839
1384	65.0666
1380	65.1551
1376	65.2004
1372	65.1887
1368	65.1022
1364	65.067
1360	65.1474
1356	65.1582
1352	65.042
1348	65.0264
1344	65.1029
1340	65.1608
1336	65.1839
1332	65.1631
1328	65.159
1324	65.1374
1320	65.0765
1316	65.0209
1312	64.9738
1308	64.9049
1304	64.8631
1300	64.9398
1296	65.0072
1292	64.9484
1288	64.874
1284	64.8718
1280	64.9243
1276	64.9772
1272	64.9395
1268	64.8579
1264	64.8635
1260	64.8923
1256	64.897
1252	64.9583
1248	64.9727
1244	64.8786
1240	64.8513
1236	64.9063
1232	64.9111
1228	64.866
1224	64.7666
1220	64.6569
1216	64.7048
1212	64.8973
1208	65.0807
1204	65.1108
1200	64.9412
1196	64.7731
1192	64.7736
1188	64.827
1184	64.7972
1180	64.6941
1176	64.5952
1172	64.5511
1168	64.5441
1164	64.5745
1160	64.6558
1156	64.7331
1152	64.7058
1148	64.6576
1144	64.6976
1140	64.7859
1136	64.8212
1132	64.7362
1128	64.6271
1124	64.5771
1120	64.6169
1116	64.6948
1112	64.6261
1108	64.4458
1104	64.516
1100	64.7372
1096	64.6559
1092	64.4301
1088	64.3585
1084	64.3873
1080	64.4818
1076	64.6044
1072	64.6847
1068	64.7509
1064	64.7355
1060	64.6448
1056	64.5698
1052	64.4516
1048	64.493
1044	64.7388
1040	64.8401
1036	64.8116
1032	64.7163
1028	64.4814
1024	64.1621
1020	63.9994
1016	64.1556
1012	64.3345
1008	64.455
1004	64.7271
1000	64.9345
996	 64.83
992	 64.6905
988	 64.7192
984	 64.766
980	 64.856
976	 64.7271
972	 64.4317
968	 64.4028
964	 64.5887
960	 64.9668
956	 65.1226
952	 64.9479
948	 65.0391
944	 65.1633
940	 64.8141
936	 64.4039
932	 64.2464
928	 64.2038
924	 64.3671
920	 64.623
916	 64.7387
912	 64.6393
908	 64.418
904	 64.3138
900	 64.3611
896	 64.4737
892	 64.5729
888	 64.5861
884	 64.6417
880	 64.7584
876	 64.6905
872	 64.5279
868	 64.4392
864	 64.3094
860	 64.1576
856	 64.0388
852	 64.0598
848	 64.2142
844	 64.2116
840	 64.1981
836	 64.331
832	 64.3792
828	 64.3182
824	 64.2404
820	 64.202
816	 64.2184
812	 64.1943
808	 64.1821
804	 64.2052
800	 64.1341
796	 63.9889
792	 63.9882
788	 64.2561
784	 64.3852
780	 64.072
776	 63.734
772	 63.6724
768	 63.7077
764	 63.8645
760	 63.9871
756	 63.8031
752	 63.4925
748	 63.2496
744	 63.3489
740	 63.594
736	 63.5327
732	 63.4826
728	 63.619
724	 63.6709
720	 63.6261
716	 63.4951
712	 63.2638
708	 63.0973
704	 63.0972
700	 63.1791
696	 63.2221
692	 63.3154
688	 63.2679
684	 63.0025
680	 62.987
676	 63.0186
672	 62.9008
668	 62.8706
664	 62.669
660	 62.3782
656	 62.3536
652	 62.4253
648	 62.5195
644	 62.6571
640	 62.6432
636	 62.5624
632	 62.633
628	 62.6473
624	 62.3812
620	 61.9886
616	 61.9112
612	 62.2806
608	 62.4519
604	 62.2059
600	 62.0407
596	 61.9424
592	 61.903
588	 62.0639
584	 62.1063
580	 61.9784
576	 61.6448
572	 61.0299
568	 60.7907
564	 61.1206
560	 61.3048
556	 61.1935
552	 61.0594
548	 60.9208
544	 60.7875
540	 60.7542
536	 60.8391
532	 60.701
528	 60.362
524	 60.0773
520	 59.8077
516	 59.8515
512	 60.183
508	 60.2512
504	 59.9179
500	 59.2813
496	 58.9315
492	 59.4536
488	 59.9732
484	 59.7119
480	 59.3442
476	 59.5086
472	 59.4258
468	 58.7642
464	 58.5094
460	 58.3539
456	 57.7542
452	 57.5383
448	 57.6373
444	 57.3869
440	 57.6382
436	 58.6595
432	 58.5631
428	 56.7253
424	 54.4981
420	 53.3705
416	 52.4706
412	 50.7756
408	 51.0856
404	 52.0604
400	 49.4349
396	 49.4248
392	 52.7995
388	 44.6921
384	 27.5577
380	 32.081
376	 60.0452
372	 74.5995
370	 72.8691