File: Bakgrunnsmateriale/MATLAB/FTIR/ftir_data/subBb/Mapping_121/C-4040-8_t103_cm-1.asc
PE IR       SPECTRUM    SPECTRUM    ASCII       PEDS        1.60
  -1
C-488C~1.ASC
17/03/27
22:56:38.00
17/03/27
22:56:38.00
tln
$C-4040-8_t0103$<tbV0>[5.2,10.4,8.0,0.0,27,1,0]
370
64

2002,4.07
MIRTGS : RIGHTBACK : INTERNAL 2
MIR : ON : INTERNAL 2
OPTKBR

0.200000
8
8.000000
FILLER
RATIO
SPECTRUM
UNLOCKED 256

DOUBLE
64
COMBINED
1
0
0

1.000000
RATIO

1
0
TRUE
51149
0
LEFT NOT FITTED RIGHT NOT FITTED 0
NONE
NONE
15600
12
4.427000
51148
TRUE
1 0 8 72 0 0 0 0

15798

#HDR
-1
-1
#GR
CM-1
%T
2.38419e-05
0.0
5000
-1.000000
4631
8
140.701
2.498269
#DATA
5000	64.6749
4996	65.0354
4992	65.1718
4988	65.1706
4984	64.9411
4980	64.4728
4976	64.3706
4972	64.598
4968	64.5763
4964	64.6205
4960	65.2181
4956	65.5935
4952	65.3739
4948	65.349
4944	65.2005
4940	64.6463
4936	64.2599
4932	64.1188
4928	64.2937
4924	64.6974
4920	64.8745
4916	64.9263
4912	64.9789
4908	64.9026
4904	64.777
4900	64.5973
4896	64.59
4892	64.799
4888	65.2393
4884	65.7994
4880	66.0037
4876	66.1317
4872	66.0677
4868	65.5666
4864	65.1213
4860	64.9751
4856	64.9107
4852	64.8932
4848	65.1722
4844	65.2886
4840	64.9758
4836	64.8378
4832	64.9795
4828	65.1536
4824	65.2756
4820	65.2385
4816	65.1456
4812	65.1402
4808	65.2471
4804	65.3132
4800	65.2584
4796	65.2689
4792	65.2292
4788	65.1922
4784	65.4038
4780	65.5143
4776	65.4282
4772	65.4714
4768	65.5469
4764	65.4554
4760	65.4563
4756	65.6287
4752	65.5476
4748	65.3256
4744	65.2946
4740	65.3273
4736	65.3825
4732	65.4821
4728	65.5768
4724	65.6122
4720	65.4976
4716	65.4673
4712	65.6934
4708	65.74
4704	65.3957
4700	65.1329
4696	65.223
4692	65.434
4688	65.6136
4684	65.7087
4680	65.6068
4676	65.4918
4672	65.5446
4668	65.6102
4664	65.544
4660	65.3641
4656	65.3597
4652	65.5598
4648	65.6581
4644	65.5767
4640	65.4335
4636	65.4435
4632	65.6651
4628	65.8316
4624	65.5923
4620	65.2666
4616	65.3264
4612	65.404
4608	65.2487
4604	65.1667
4600	65.2635
4596	65.319
4592	65.3072
4588	65.4101
4584	65.5782
4580	65.6731
4576	65.6352
4572	65.4012
4568	64.9975
4564	64.782
4560	65.0109
4556	65.2242
4552	65.1246
4548	64.842
4544	64.3435
4540	63.9737
4536	64.0814
4532	64.38
4528	64.5707
4524	64.6169
4520	64.4385
4516	64.1421
4512	64.0723
4508	63.9634
4504	63.6306
4500	63.702
4496	64.0912
4492	64.2832
4488	64.1504
4484	63.9406
4480	63.9418
4476	63.8783
4472	63.7765
4468	63.6966
4464	63.5624
4460	63.6233
4456	63.8389
4452	64.0441
4448	64.0974
4444	63.7534
4440	63.3264
4436	63.1566
4432	63.401
4428	63.4863
4424	63.4832
4420	63.4495
4416	63.0548
4412	62.3502
4408	62.1857
4404	62.5957
4400	62.4978
4396	64.3793
4392	75.0419
4388	119.591
4384	136.444
4380	89.5154
4376	65.3455
4372	63.8831
4368	64.0464
4364	63.6981
4360	64.3179
4356	64.5343
4352	63.926
4348	63.7619
4344	63.881
4340	63.6259
4336	63.4491
4332	63.6776
4328	64.1808
4324	64.7387
4320	64.6013
4316	63.9422
4312	63.5659
4308	63.515
4304	63.7223
4300	63.9026
4296	63.8288
4292	63.8138
4288	63.8878
4284	63.9527
4280	64.15
4276	64.2994
4272	64.2514
4268	64.4938
4264	64.8693
4260	64.8442
4256	64.5501
4252	64.164
4248	64.0053
4244	64.1801
4240	64.4038
4236	64.5937
4232	64.5589
4228	64.2298
4224	64.0624
4220	64.2758
4216	64.559
4212	64.6423
4208	64.4748
4204	64.2519
4200	64.1547
4196	64.1347
4192	64.0728
4188	64.1657
4184	64.483
4180	64.71
4176	65.0622
4172	65.1057
4168	64.5301
4164	64.5004
4160	65.0544
4156	65.3634
4152	65.4667
4148	65.534
4144	65.4414
4140	65.2573
4136	65.2407
4132	65.2694
4128	65.2715
4124	65.4128
4120	65.4692
4116	65.379
4112	65.3768
4108	65.4622
4104	65.5417
4100	65.5779
4096	65.5667
4092	65.4914
4088	65.4982
4084	65.6432
4080	65.6106
4076	65.3617
4072	65.2416
4068	65.259
4064	65.2829
4060	65.4255
4056	65.5625
4052	65.5249
4048	65.4903
4044	65.5738
4040	65.6648
4036	65.626
4032	65.5313
4028	65.6068
4024	65.7664
4020	65.7464
4016	65.564
4012	65.4422
4008	65.4069
4004	65.3466
4000	65.3168
3996	65.326
3992	65.3028
3988	65.2927
3984	65.3391
3980	65.3922
3976	65.4089
3972	65.4479
3968	65.5232
3964	65.5027
3960	65.3925
3956	65.2878
3952	65.2145
3948	65.1971
3944	65.2203
3940	65.258
3936	65.245
3932	65.1517
3928	65.0688
3924	65.0905
3920	65.1925
3916	65.2297
3912	65.1832
3908	65.1723
3904	65.1947
3900	65.145
3896	65.1428
3892	65.3008
3888	65.4326
3884	65.4555
3880	65.2761
3876	65.0691
3872	65.1694
3868	65.3572
3864	65.4093
3860	65.3976
3856	65.2919
3852	65.1283
3848	65.148
3844	65.2632
3840	65.3003
3836	65.2557
3832	65.0687
3828	64.8548
3824	64.858
3820	65.0117
3816	65.0813
3812	65.1032
3808	65.0975
3804	65.0009
3800	64.9679
3796	65.1114
3792	65.2601
3788	65.3138
3784	65.3555
3780	65.3514
3776	65.3406
3772	65.3835
3768	65.3159
3764	65.169
3760	65.1564
3756	65.2759
3752	65.3558
3748	65.3588
3744	65.3032
3740	65.19
3736	65.1891
3732	65.2935
3728	65.3581
3724	65.4269
3720	65.435
3716	65.2717
3712	65.1568
3708	65.2313
3704	65.315
3700	65.32
3696	65.3793
3692	65.5207
3688	65.5465
3684	65.4821
3680	65.4282
3676	65.3844
3672	65.4519
3668	65.5204
3664	65.4486
3660	65.3615
3656	65.3537
3652	65.3209
3648	65.247
3644	65.3034
3640	65.3853
3636	65.3937
3632	65.4486
3628	65.5839
3624	65.695
3620	65.6418
3616	65.5528
3612	65.4344
3608	65.2938
3604	65.3175
3600	65.3579
3596	65.3655
3592	65.4858
3588	65.6106
3584	65.5918
3580	65.4659
3576	65.3718
3572	65.4328
3568	65.6214
3564	65.7935
3560	65.8391
3556	65.6499
3552	65.3912
3548	65.2936
3544	65.1967
3540	65.094
3536	65.2111
3532	65.4861
3528	65.6663
3524	65.7122
3520	65.6095
3516	65.4607
3512	65.4963
3508	65.5376
3504	65.4361
3500	65.3535
3496	65.3879
3492	65.4995
3488	65.5179
3484	65.3431
3480	65.2249
3476	65.2983
3472	65.4137
3468	65.3689
3464	65.0804
3460	64.9785
3456	65.2127
3452	65.3204
3448	65.247
3444	65.2155
3440	65.2502
3436	65.2997
3432	65.3493
3428	65.3542
3424	65.2549
3420	65.2302
3416	65.3748
3412	65.4849
3408	65.4269
3404	65.2472
3400	65.1185
3396	65.1467
3392	65.2468
3388	65.314
3384	65.2941
3380	65.2304
3376	65.1976
3372	65.1905
3368	65.1916
3364	65.1546
3360	65.045
3356	65.0403
3352	65.249
3348	65.4508
3344	65.4178
3340	65.176
3336	65.0122
3332	65.0993
3328	65.2672
3324	65.2694
3320	65.1711
3316	65.2336
3312	65.3186
3308	65.2474
3304	65.2128
3300	65.2383
3296	65.2288
3292	65.2107
3288	65.2051
3284	65.2192
3280	65.1976
3276	65.2426
3272	65.3683
3268	65.3788
3264	65.3645
3260	65.4142
3256	65.4456
3252	65.4016
3248	65.3014
3244	65.1969
3240	65.1021
3236	65.0659
3232	65.0905
3228	65.1819
3224	65.3336
3220	65.4547
3216	65.514
3212	65.4729
3208	65.2922
3204	65.221
3200	65.3082
3196	65.2265
3192	65.0936
3188	65.1399
3184	65.2878
3180	65.462
3176	65.5608
3172	65.5334
3168	65.4484
3164	65.4092
3160	65.442
3156	65.4267
3152	65.3142
3148	65.2241
3144	65.2799
3140	65.4333
3136	65.5565
3132	65.6788
3128	65.655
3124	65.4464
3120	65.4649
3116	65.5537
3112	65.4723
3108	65.5248
3104	65.6382
3100	65.6252
3096	65.5073
3092	65.3838
3088	65.3882
3084	65.3668
3080	65.2461
3076	65.2399
3072	65.3111
3068	65.296
3064	65.2508
3060	65.2433
3056	65.2735
3052	65.3185
3048	65.3655
3044	65.3762
3040	65.3206
3036	65.2388
3032	65.2001
3028	65.2476
3024	65.271
3020	65.2356
3016	65.2575
3012	65.3197
3008	65.348
3004	65.3934
3000	65.4331
2996	65.3893
2992	65.3495
2988	65.287
2984	65.2079
2980	65.2443
2976	65.3013
2972	65.3328
2968	65.3512
2964	65.2897
2960	65.2476
2956	65.2686
2952	65.2759
2948	65.2425
2944	65.1439
2940	65.0621
2936	65.08
2932	65.0758
2928	64.9667
2924	64.8805
2920	64.9077
2916	64.9863
2912	65.0545
2908	65.1707
2904	65.2717
2900	65.2474
2896	65.2211
2892	65.2728
2888	65.3325
2884	65.3452
2880	65.3307
2876	65.3172
2872	65.2951
2868	65.2954
2864	65.3593
2860	65.3562
2856	65.2297
2852	65.1329
2848	65.0663
2844	65.0599
2840	65.2277
2836	65.4105
2832	65.4162
2828	65.3407
2824	65.3232
2820	65.3217
2816	65.308
2812	65.335
2808	65.3553
2804	65.3256
2800	65.3244
2796	65.4219
2792	65.5246
2788	65.5026
2784	65.4173
2780	65.3685
2776	65.3584
2772	65.4116
2768	65.4995
2764	65.4766
2760	65.3564
2756	65.2779
2752	65.2773
2748	65.3119
2744	65.3368
2740	65.3685
2736	65.4308
2732	65.4675
2728	65.4664
2724	65.4833
2720	65.4829
2716	65.4527
2712	65.4626
2708	65.4982
2704	65.4856
2700	65.4783
2696	65.5141
2692	65.4961
2688	65.4389
2684	65.4257
2680	65.4079
2676	65.3527
2672	65.3507
2668	65.4242
2664	65.4697
2660	65.4604
2656	65.4269
2652	65.3763
2648	65.3483
2644	65.3052
2640	65.2248
2636	65.2445
2632	65.3556
2628	65.3792
2624	65.3608
2620	65.3903
2616	65.4153
2612	65.4417
2608	65.4284
2604	65.3415
2600	65.2795
2596	65.2731
2592	65.2846
2588	65.3355
2584	65.431
2580	65.4755
2576	65.4402
2572	65.384
2568	65.3388
2564	65.3355
2560	65.3536
2556	65.4117
2552	65.4583
2548	65.4633
2544	65.5073
2540	65.5306
2536	65.462
2532	65.3524
2528	65.2934
2524	65.2615
2520	65.2756
2516	65.444
2512	65.52
2508	65.3709
2504	65.3054
2500	65.4666
2496	65.6567
2492	65.6299
2488	65.4648
2484	65.3902
2480	65.4373
2476	65.4964
2472	65.4669
2468	65.3305
2464	65.2388
2460	65.3103
2456	65.3953
2452	65.3815
2448	65.3423
2444	65.3063
2440	65.2283
2436	65.1964
2432	65.1596
2428	65.0493
2424	65.2003
2420	65.5693
2416	65.685
2412	65.5361
2408	65.4036
2404	65.4613
2400	65.5507
2396	65.4346
2392	65.2952
2388	65.2321
2384	65.205
2380	65.287
2376	65.3808
2372	65.3733
2368	65.3672
2364	65.4087
2360	65.3832
2356	65.3557
2352	65.3807
2348	65.403
2344	65.4362
2340	65.4597
2336	65.4505
2332	65.4029
2328	65.3888
2324	65.4676
2320	65.522
2316	65.4817
2312	65.4288
2308	65.4023
2304	65.3883
2300	65.3772
2296	65.3967
2292	65.4554
2288	65.4904
2284	65.4936
2280	65.5041
2276	65.4746
2272	65.3985
2268	65.4019
2264	65.4349
2260	65.3681
2256	65.2993
2252	65.3513
2248	65.4132
2244	65.3644
2240	65.307
2236	65.3463
2232	65.4516
2228	65.4965
2224	65.4813
2220	65.4896
2216	65.4704
2212	65.4255
2208	65.3888
2204	65.3249
2200	65.3037
2196	65.3768
2192	65.4463
2188	65.4607
2184	65.4467
2180	65.4183
2176	65.3516
2172	65.3041
2168	65.3689
2164	65.4689
2160	65.4807
2156	65.4299
2152	65.3747
2148	65.3147
2144	65.3125
2140	65.4065
2136	65.4847
2132	65.4721
2128	65.4125
2124	65.34
2120	65.324
2116	65.3798
2112	65.515
2108	65.6664
2104	65.6074
2100	65.4359
2096	65.3949
2092	65.3927
2088	65.2922
2084	65.2244
2080	65.3161
2076	65.4233
2072	65.479
2068	65.5676
2064	65.5043
2060	65.2239
2056	65.0466
2052	65.0986
2048	65.2721
2044	65.3955
2040	65.3749
2036	65.3167
2032	65.3356
2028	65.4217
2024	65.5222
2020	65.5753
2016	65.5208
2012	65.4846
2008	65.5052
2004	65.4738
2000	65.4352
1996	65.408
1992	65.3548
1988	65.3882
1984	65.5045
1980	65.5347
1976	65.4926
1972	65.4499
1968	65.4151
1964	65.397
1960	65.3996
1956	65.4086
1952	65.4053
1948	65.4208
1944	65.4811
1940	65.5609
1936	65.6053
1932	65.5856
1928	65.5246
1924	65.4727
1920	65.4559
1916	65.4107
1912	65.3154
1908	65.2799
1904	65.369
1900	65.4986
1896	65.5529
1892	65.5032
1888	65.4412
1884	65.4163
1880	65.3779
1876	65.3608
1872	65.3829
1868	65.3655
1864	65.3331
1860	65.3376
1856	65.3355
1852	65.3398
1848	65.4216
1844	65.5151
1840	65.4639
1836	65.3815
1832	65.4222
1828	65.4648
1824	65.4549
1820	65.4495
1816	65.4546
1812	65.4606
1808	65.4529
1804	65.4152
1800	65.3487
1796	65.2892
1792	65.2759
1788	65.3207
1784	65.3742
1780	65.3784
1776	65.373
1772	65.4041
1768	65.4365
1764	65.4202
1760	65.3834
1756	65.3861
1752	65.4072
1748	65.383
1744	65.3091
1740	65.196
1736	65.0551
1732	65.0335
1728	65.1442
1724	65.2096
1720	65.2657
1716	65.3876
1712	65.4796
1708	65.455
1704	65.3624
1700	65.3607
1696	65.4095
1692	65.3676
1688	65.3378
1684	65.3507
1680	65.3043
1676	65.2558
1672	65.3075
1668	65.3528
1664	65.3067
1660	65.2724
1656	65.2735
1652	65.2742
1648	65.2606
1644	65.2481
1640	65.2461
1636	65.2814
1632	65.3486
1628	65.321
1624	65.2656
1620	65.2864
1616	65.2739
1612	65.2256
1608	65.2469
1604	65.3224
1600	65.3315
1596	65.244
1592	65.192
1588	65.2482
1584	65.3414
1580	65.3136
1576	65.1355
1572	65.0315
1568	65.1059
1564	65.2013
1560	65.1737
1556	65.0801
1552	65.1026
1548	65.1984
1544	65.2503
1540	65.2642
1536	65.2649
1532	65.2405
1528	65.1592
1524	65.1157
1520	65.1509
1516	65.1568
1512	65.1084
1508	65.1128
1504	65.2134
1500	65.2928
1496	65.2643
1492	65.1895
1488	65.1857
1484	65.2646
1480	65.3136
1476	65.3059
1472	65.2853
1468	65.2425
1464	65.2243
1460	65.2033
1456	65.1498
1452	65.082
1448	65.0891
1444	65.2146
1440	65.2248
1436	65.1472
1432	65.1383
1428	65.184
1424	65.228
1420	65.2321
1416	65.2684
1412	65.2991
1408	65.3222
1404	65.3149
1400	65.2855
1396	65.3492
1392	65.3518
1388	65.3153
1384	65.3646
1380	65.3222
1376	65.1806
1372	65.1083
1368	65.1048
1364	65.0721
1360	65.0267
1356	65.0608
1352	65.1475
1348	65.2084
1344	65.1598
1340	65.0594
1336	65.0359
1332	65.0907
1328	65.2173
1324	65.2978
1320	65.216
1316	65.0445
1312	64.9373
1308	64.9659
1304	65.0293
1300	65.077
1296	65.1543
1292	65.2281
1288	65.197
1284	65.0839
1280	65.0594
1276	65.1094
1272	65.0643
1268	64.9965
1264	65.0358
1260	65.0968
1256	65.1604
1252	65.1812
1248	65.1148
1244	65.128
1240	65.1743
1236	65.1277
1232	65.0815
1228	65.089
1224	65.0744
1220	65.0217
1216	65.0405
1212	65.0911
1208	65.0619
1204	65.0086
1200	65.016
1196	65.0719
1192	65.047
1188	64.9297
1184	64.8985
1180	65.0276
1176	65.1116
1172	65.0277
1168	64.9452
1164	64.9519
1160	65.0245
1156	65.0463
1152	64.986
1148	64.9461
1144	64.847
1140	64.7864
1136	64.8505
1132	64.847
1128	64.8468
1124	64.9963
1120	65.1598
1116	65.1461
1112	65.0705
1108	65.0621
1104	64.9323
1100	64.8056
1096	64.7632
1092	64.6025
1088	64.5641
1084	64.698
1080	64.7144
1076	64.6458
1072	64.708
1068	64.8594
1064	64.841
1060	64.7568
1056	64.7223
1052	64.6992
1048	64.859
1044	65.0073
1040	64.9077
1036	64.7813
1032	64.8004
1028	64.9658
1024	65.1113
1020	64.9027
1016	64.4325
1012	64.1917
1008	64.2578
1004	64.4138
1000	64.5476
996	 64.6307
992	 64.6509
988	 64.6328
984	 64.6051
980	 64.5412
976	 64.5255
972	 64.6716
968	 64.7999
964	 64.7921
960	 64.7548
956	 64.7276
952	 64.7202
948	 64.6405
944	 64.4549
940	 64.2997
936	 64.1738
932	 64.3356
928	 64.9158
924	 65.4087
920	 65.5902
916	 65.3087
912	 64.8194
908	 64.8158
904	 64.7262
900	 64.154
896	 63.9163
892	 64.2127
888	 64.6007
884	 64.5992
880	 64.3527
876	 64.3744
872	 64.5569
868	 64.83
864	 65.0511
860	 65.077
856	 65.0432
852	 64.8553
848	 64.4753
844	 64.1883
840	 64.1484
836	 64.2171
832	 64.2362
828	 64.1965
824	 64.1398
820	 64.0166
816	 64.0448
812	 64.1707
808	 64.1154
804	 64.0872
800	 64.2603
796	 64.4238
792	 64.35
788	 64.1651
784	 63.9673
780	 63.8375
776	 63.9594
772	 64.1507
768	 64.1484
764	 63.9837
760	 63.9151
756	 64.1822
752	 64.4734
748	 64.5269
744	 64.3356
740	 63.9385
736	 63.7789
732	 63.8926
728	 63.7955
724	 63.457
720	 63.3262
716	 63.2903
712	 63.1843
708	 63.2761
704	 63.449
700	 63.5359
696	 63.4704
692	 63.307
688	 63.2699
684	 63.3321
680	 63.3681
676	 63.4592
672	 63.4362
668	 63.1189
664	 62.8495
660	 62.8196
656	 63.0218
652	 63.2766
648	 63.2991
644	 63.1961
640	 63.1253
636	 63.015
632	 62.9483
628	 63.1212
624	 63.3023
620	 63.0965
616	 62.6
612	 62.3667
608	 62.4928
604	 62.5919
600	 62.6364
596	 62.6494
592	 62.5461
588	 62.5054
584	 62.7043
580	 62.8326
576	 62.8534
572	 62.8388
568	 62.5015
564	 62.157
560	 62.0965
556	 62.1844
552	 62.0637
548	 61.7406
544	 61.8389
540	 62.2497
536	 62.1964
532	 61.6107
528	 61.1961
524	 61.3113
520	 61.4177
516	 61.1766
512	 60.846
508	 60.5325
504	 60.6123
500	 61.1035
496	 61.3568
492	 61.3707
488	 61.6848
484	 61.7667
480	 60.7028
476	 59.6182
472	 59.5717
468	 59.4931
464	 58.9002
460	 58.6807
456	 58.9692
452	 58.997
448	 58.5823
444	 58.2233
440	 57.637
436	 56.4318
432	 55.6649
428	 56.2659
424	 58.3593
420	 60.9273
416	 61.5132
412	 59.6543
408	 58.706
404	 64.3337
400	 68.9413
396	 55.0369
392	 47.5176
388	 56.107
384	 42.516
380	 7.515931
376	 10.8855
372	 21.0298
370	 11.2208