File: Bakgrunnsmateriale/MATLAB/FTIR/ftir_data/subBb/Mapping_121/C-4040-8_t101_cm-1.asc
PE IR       SPECTRUM    SPECTRUM    ASCII       PEDS        1.60
  -1
C-468C~1.ASC
17/03/27
22:47:24.00
17/03/27
22:47:24.00
tln
$C-4040-8_t0101$<tbV0>[10.4,10.4,8.0,0.0,27,1,0]
370
64

2002,4.07
MIRTGS : RIGHTBACK : INTERNAL 2
MIR : ON : INTERNAL 2
OPTKBR

0.200000
8
8.000000
FILLER
RATIO
SPECTRUM
UNLOCKED 256

DOUBLE
64
COMBINED
1
0
0

1.000000
RATIO

1
0
TRUE
51149
0
LEFT NOT FITTED RIGHT NOT FITTED 0
NONE
NONE
15600
12
4.427000
51148
TRUE
1 0 8 72 0 0 0 0

15798

#HDR
-1
-1
#GR
CM-1
%T
2.38419e-05
0.0
5000
-1.000000
4631
8
200
41.7492
#DATA
5000	65.4205
4996	65.1886
4992	64.8401
4988	64.5421
4984	64.3212
4980	64.2786
4976	64.5111
4972	64.7875
4968	65.3376
4964	65.8586
4960	65.6725
4956	65.0182
4952	64.6123
4948	64.7691
4944	64.7411
4940	64.2605
4936	64.1444
4932	64.5023
4928	64.7559
4924	64.8346
4920	65.0654
4916	65.2517
4912	65.0607
4908	64.7574
4904	64.7452
4900	64.9911
4896	65.0236
4892	64.8029
4888	64.9393
4884	65.3199
4880	65.3092
4876	64.9575
4872	64.8918
4868	65.2146
4864	65.3128
4860	65.057
4856	64.8009
4852	64.9128
4848	65.1979
4844	65.0001
4840	64.5174
4836	64.3655
4832	64.5717
4828	64.9703
4824	65.2274
4820	65.2102
4816	65.144
4812	65.1111
4808	65.1614
4804	65.2548
4800	65.3747
4796	65.521
4792	65.433
4788	65.1317
4784	64.9849
4780	65.0276
4776	65.0103
4772	64.865
4768	64.8587
4764	64.976
4760	65.0583
4756	65.1687
4752	65.2608
4748	65.1692
4744	64.9879
4740	64.9407
4736	64.8705
4732	64.7532
4728	64.742
4724	64.8176
4720	64.8349
4716	64.819
4712	64.985
4708	65.0665
4704	65.0747
4700	65.2996
4696	65.3459
4692	65.0104
4688	64.7955
4684	64.9601
4680	65.06
4676	64.9155
4672	64.9703
4668	65.1694
4664	65.1473
4660	65.0352
4656	65.0016
4652	65.0133
4648	65.0119
4644	64.9643
4640	64.8669
4636	64.7514
4632	64.8802
4628	65.2166
4624	65.1556
4620	64.8417
4616	64.8551
4612	64.9012
4608	64.715
4604	64.6754
4600	64.93
4596	65.1751
4592	65.2466
4588	65.2256
4584	65.1676
4580	65.1743
4576	65.2622
4572	65.1677
4568	64.9906
4564	65.081
4560	65.2501
4556	65.2725
4552	65.2936
4548	65.3199
4544	64.8867
4540	63.9044
4536	63.4215
4532	63.9145
4528	64.5459
4524	64.9603
4520	65.2692
4516	65.1111
4512	64.7346
4508	64.6446
4504	64.5463
4500	64.3196
4496	64.1592
4492	64.129
4488	64.3953
4484	64.7903
4480	64.8706
4476	64.6103
4472	64.4201
4468	64.4853
4464	64.5226
4460	64.4015
4456	64.1751
4452	63.7375
4448	63.5522
4444	63.6816
4440	63.7303
4436	63.8963
4432	64.239
4428	64.0588
4424	63.5614
4420	63.9013
4416	64.9513
4412	66.0223
4408	66.409
4404	65.6628
4400	63.9794
4396	62.6195
4392	65.1532
4388	90.5537
4384	108.187
4380	85.1459
4376	67.4872
4372	64.7538
4368	64.9147
4364	64.6701
4360	64.6304
4356	64.7392
4352	64.4854
4348	64.338
4344	64.2441
4340	64.0335
4336	64.0686
4332	64.3239
4328	64.5679
4324	64.8442
4320	64.87
4316	64.5851
4312	64.2296
4308	64.0727
4304	64.2154
4300	64.4293
4296	64.538
4292	64.4309
4288	64.2351
4284	64.1057
4280	64.0708
4276	64.2879
4272	64.4779
4268	64.6055
4264	64.9469
4260	65.2005
4256	64.968
4252	64.4151
4248	64.2129
4244	64.3846
4240	64.454
4236	64.5228
4232	64.7267
4228	64.9222
4224	65.0775
4220	65.1166
4216	64.9485
4212	64.7039
4208	64.5507
4204	64.4795
4200	64.3485
4196	64.2595
4192	64.2848
4188	64.1582
4184	64.1767
4180	65.0218
4176	65.9184
4172	65.6079
4168	64.8336
4164	64.6677
4160	64.8656
4156	65.0401
4152	65.0648
4148	65.0836
4144	65.2302
4140	65.3108
4136	65.2235
4132	65.0871
4128	65.1202
4124	65.2834
4120	65.2847
4116	65.2396
4112	65.3623
4108	65.5089
4104	65.4371
4100	65.2174
4096	65.1083
4092	65.0722
4088	65.0702
4084	65.1261
4080	65.1256
4076	65.0542
4072	64.9903
4068	64.9477
4064	64.9751
4060	65.0378
4056	65.001
4052	65.0364
4048	65.2023
4044	65.2766
4040	65.2604
4036	65.2471
4032	65.2377
4028	65.231
4024	65.1851
4020	65.0382
4016	64.9141
4012	64.9364
4008	65.079
4004	65.2555
4000	65.3276
3996	65.2133
3992	65.0439
3988	65.0372
3984	65.1284
3980	65.0849
3976	64.9674
3972	64.9762
3968	65.174
3964	65.3508
3960	65.1713
3956	64.9153
3952	65.0594
3948	65.2625
3944	65.1753
3940	65.1009
3936	65.1303
3932	65.1042
3928	64.9186
3924	64.6894
3920	64.7288
3916	65.0069
3912	65.2245
3908	65.151
3904	64.877
3900	64.7608
3896	64.8172
3892	64.7636
3888	64.6803
3884	64.7483
3880	64.8123
3876	64.8499
3872	64.9211
3868	65.0615
3864	65.2865
3860	65.3398
3856	65.084
3852	64.7588
3848	64.7137
3844	64.9226
3840	65.0831
3836	65.1107
3832	65.0977
3828	65.0104
3824	64.9297
3820	65.0411
3816	65.1333
3812	65.0308
3808	64.9269
3804	64.9024
3800	64.9326
3796	65.0455
3792	65.1491
3788	65.1305
3784	65.0373
3780	64.9943
3776	65.1194
3772	65.2525
3768	65.1847
3764	65.0027
3760	64.881
3756	64.9574
3752	65.1177
3748	65.2096
3744	65.2612
3740	65.25
3736	65.2452
3732	65.3579
3728	65.4053
3724	65.2541
3720	65.0855
3716	65.0227
3712	64.9863
3708	65.0022
3704	65.0765
3700	65.0584
3696	64.9786
3692	64.973
3688	65.0279
3684	65.0539
3680	65.0059
3676	64.9306
3672	64.9536
3668	65.0859
3664	65.1802
3660	65.1404
3656	65.0983
3652	65.1349
3648	65.1692
3644	65.231
3640	65.2612
3636	65.201
3632	65.1485
3628	65.1798
3624	65.3296
3620	65.3896
3616	65.2532
3612	65.1522
3608	65.1297
3604	65.1005
3600	65.0991
3596	65.1773
3592	65.2794
3588	65.2369
3584	65.0807
3580	65.0214
3576	65.067
3572	65.1546
3568	65.2517
3564	65.258
3560	65.2942
3556	65.4106
3552	65.3035
3548	64.9406
3544	64.7513
3540	64.9206
3536	65.0591
3532	64.9918
3528	65.0323
3524	65.1719
3520	65.1767
3516	65.1152
3512	65.0971
3508	65.0413
3504	64.939
3500	64.918
3496	65.0332
3492	65.2135
3488	65.203
3484	64.9859
3480	64.9424
3476	65.0711
3472	65.1761
3468	65.1461
3464	64.9618
3460	64.9144
3456	65.0253
3452	65.074
3448	65.0957
3444	65.1361
3440	65.1144
3436	65.0718
3432	65.0382
3428	64.9731
3424	64.9429
3420	65.0163
3416	65.209
3412	65.3513
3408	65.2783
3404	65.1512
3400	65.0928
3396	64.9984
3392	64.9208
3388	64.9686
3384	65.0283
3380	65.0908
3376	65.1475
3372	65.0901
3368	65.0345
3364	65.0738
3360	65.0615
3356	65.0402
3352	65.2035
3348	65.3762
3344	65.2876
3340	65.0489
3336	64.9815
3332	65.1231
3328	65.1978
3324	65.1173
3320	65.0131
3316	64.9493
3312	64.9534
3308	65.0298
3304	65.1092
3300	65.0839
3296	64.9882
3292	64.9297
3288	64.9338
3284	65.0246
3280	65.1277
3276	65.169
3272	65.1607
3268	65.1166
3264	65.0472
3260	64.9974
3256	65.0773
3252	65.2307
3248	65.2905
3244	65.2438
3240	65.1277
3236	65.0307
3232	65.0789
3228	65.1556
3224	65.1592
3220	65.1564
3216	65.1572
3212	65.197
3208	65.1876
3204	65.0779
3200	64.9036
3196	64.7678
3192	64.8829
3188	65.0473
3184	65.1317
3180	65.2748
3176	65.3676
3172	65.3258
3168	65.2045
3164	65.171
3160	65.3035
3156	65.3919
3152	65.317
3148	65.1958
3144	65.2402
3140	65.3596
3136	65.2343
3132	65.1535
3128	65.313
3124	65.306
3120	65.1049
3116	64.9554
3112	64.9978
3108	65.2373
3104	65.3888
3100	65.2401
3096	65.0527
3092	65.0145
3088	64.986
3084	64.9578
3080	64.9827
3076	65.0771
3072	65.1877
3068	65.1896
3064	65.114
3060	65.0963
3056	65.1258
3052	65.1026
3048	65.0919
3044	65.1955
3040	65.3692
3036	65.4494
3032	65.3904
3028	65.3098
3024	65.2324
3020	65.1772
3016	65.1747
3012	65.1512
3008	65.0751
3004	65.0797
3000	65.1831
2996	65.2924
2992	65.3766
2988	65.331
2984	65.1593
2980	65.0245
2976	64.9815
2972	64.9369
2968	64.8867
2964	64.9046
2960	64.9591
2956	64.9729
2952	64.9713
2948	65.0128
2944	65.0806
2940	65.1447
2936	65.1206
2932	65.0017
2928	64.8994
2924	64.817
2920	64.7704
2916	64.7637
2912	64.7894
2908	64.9174
2904	65.0128
2900	64.9548
2896	64.9439
2892	65.0028
2888	64.9935
2884	64.9635
2880	65.0259
2876	65.1611
2872	65.2152
2868	65.1653
2864	65.111
2860	65.0986
2856	65.0815
2852	64.9793
2848	64.8058
2844	64.7558
2840	64.9765
2836	65.2125
2832	65.2039
2828	65.1092
2824	65.0943
2820	65.0946
2816	65.0663
2812	65.0651
2808	65.1151
2804	65.1391
2800	65.1352
2796	65.1878
2792	65.2424
2788	65.2507
2784	65.2672
2780	65.2758
2776	65.2215
2772	65.1242
2768	65.0534
2764	65.075
2760	65.164
2756	65.2399
2752	65.3052
2748	65.3146
2744	65.2136
2740	65.1376
2736	65.1496
2732	65.1492
2728	65.1452
2724	65.1437
2720	65.1028
2716	65.0867
2712	65.1338
2708	65.1985
2704	65.1907
2700	65.1093
2696	65.1059
2692	65.173
2688	65.1991
2684	65.2127
2680	65.2056
2676	65.1496
2672	65.1485
2668	65.264
2664	65.3698
2660	65.3367
2656	65.2351
2652	65.1614
2648	65.1564
2644	65.1973
2640	65.1804
2636	65.1194
2632	65.1152
2628	65.1667
2624	65.1992
2620	65.1855
2616	65.1319
2612	65.0946
2608	65.1103
2604	65.1514
2600	65.1976
2596	65.24
2592	65.2601
2588	65.2535
2584	65.2582
2580	65.2888
2576	65.312
2572	65.2652
2568	65.2169
2564	65.2331
2560	65.223
2556	65.216
2552	65.2101
2548	65.1552
2544	65.1081
2540	65.1001
2536	65.1315
2532	65.1328
2528	65.1363
2524	65.2019
2520	65.2255
2516	65.1819
2512	65.1427
2508	65.1624
2504	65.2981
2500	65.4429
2496	65.4671
2492	65.4621
2488	65.3648
2484	65.2306
2480	65.3013
2476	65.3906
2472	65.3207
2468	65.2199
2464	65.2083
2460	65.2393
2456	65.1847
2452	65.0903
2448	65.025
2444	64.9894
2440	65.0135
2436	65.1397
2432	65.2351
2428	64.9869
2424	64.7267
2420	64.994
2416	65.3249
2412	65.3317
2408	65.3283
2404	65.3579
2400	65.3282
2396	65.2979
2392	65.277
2388	65.2635
2384	65.2792
2380	65.2715
2376	65.1996
2372	65.1322
2368	65.1327
2364	65.1819
2360	65.2119
2356	65.2343
2352	65.2472
2348	65.2356
2344	65.1928
2340	65.136
2336	65.1304
2332	65.1449
2328	65.152
2324	65.1714
2320	65.2009
2316	65.2605
2312	65.2992
2308	65.2499
2304	65.2146
2300	65.2177
2296	65.1995
2292	65.2212
2288	65.2565
2284	65.267
2280	65.2693
2276	65.2273
2272	65.201
2268	65.2288
2264	65.2679
2260	65.3183
2256	65.3431
2252	65.3198
2248	65.2311
2244	65.0864
2240	65.0042
2236	65.0922
2232	65.2765
2228	65.3656
2224	65.3321
2220	65.2671
2216	65.1753
2212	65.0913
2208	65.0805
2204	65.0802
2200	65.0896
2196	65.1876
2192	65.2901
2188	65.293
2184	65.3064
2180	65.3251
2176	65.2356
2172	65.2023
2168	65.2825
2164	65.3898
2160	65.4786
2156	65.4822
2152	65.343
2148	65.115
2144	65.0773
2140	65.2124
2136	65.3022
2132	65.3133
2128	65.2071
2124	65.081
2120	65.0889
2116	65.2405
2112	65.4424
2108	65.4635
2104	65.3001
2100	65.2074
2096	65.2113
2092	65.1708
2088	65.1239
2084	65.2242
2080	65.322
2076	65.3386
2072	65.5766
2068	65.8047
2064	65.6082
2060	65.2343
2056	64.9613
2052	64.9047
2048	65.0809
2044	65.2615
2040	65.2883
2036	65.2232
2032	65.1901
2028	65.2413
2024	65.2575
2020	65.1892
2016	65.1417
2012	65.1473
2008	65.1803
2004	65.199
2000	65.184
1996	65.1761
1992	65.1716
1988	65.1744
1984	65.2003
1980	65.1813
1976	65.1667
1972	65.2619
1968	65.3651
1964	65.3574
1960	65.2979
1956	65.2743
1952	65.2438
1948	65.1825
1944	65.1807
1940	65.2737
1936	65.3801
1932	65.3946
1928	65.3133
1924	65.2231
1920	65.1812
1916	65.143
1912	65.1064
1908	65.1572
1904	65.2241
1900	65.2014
1896	65.17
1892	65.2066
1888	65.2686
1884	65.3053
1880	65.2788
1876	65.2085
1872	65.1809
1868	65.2037
1864	65.2576
1860	65.2788
1856	65.2386
1852	65.2224
1848	65.2406
1844	65.3063
1840	65.3775
1836	65.3491
1832	65.2961
1828	65.2762
1824	65.2339
1820	65.2271
1816	65.2668
1812	65.2498
1808	65.2011
1804	65.1775
1800	65.1496
1796	65.1482
1792	65.1813
1788	65.1794
1784	65.157
1780	65.1493
1776	65.1504
1772	65.1536
1768	65.1541
1764	65.1483
1760	65.1321
1756	65.0651
1752	64.9499
1748	64.9004
1744	64.9267
1740	64.9043
1736	64.7782
1732	64.7094
1728	64.7903
1724	64.8547
1720	64.9294
1716	65.1309
1712	65.3122
1708	65.337
1704	65.2289
1700	65.1013
1696	65.0917
1692	65.1815
1688	65.2238
1684	65.1459
1680	65.0591
1676	65.0639
1672	65.1366
1668	65.2102
1664	65.2116
1660	65.1568
1656	65.0829
1652	65.0607
1648	65.122
1644	65.1617
1640	65.1451
1636	65.1279
1632	65.1394
1628	65.1486
1624	65.1751
1620	65.2252
1616	65.2021
1612	65.1488
1608	65.1216
1604	65.0707
1600	65.011
1596	64.9964
1592	65.0135
1588	65.0416
1584	65.0997
1580	65.0988
1576	65.0036
1572	64.9369
1568	64.9077
1564	64.8954
1560	64.9248
1556	64.9569
1552	65.0477
1548	65.1214
1544	65.0748
1540	65.03
1536	65.023
1532	65.0008
1528	64.9472
1524	64.9554
1520	65.0257
1516	64.9989
1512	64.9103
1508	64.9114
1504	65.0538
1500	65.2225
1496	65.2289
1492	65.0939
1488	65.0907
1484	65.1686
1480	65.1008
1476	65.0686
1472	65.1093
1468	64.9927
1464	64.831
1460	64.7907
1456	64.9047
1452	65.0911
1448	65.1685
1444	65.0998
1440	65.0022
1436	64.9796
1432	65.0087
1428	65.0156
1424	65.005
1420	65.051
1416	65.1135
1412	65.1356
1408	65.1659
1404	65.1903
1400	65.1771
1396	65.1462
1392	65.0942
1388	65.0756
1384	65.1358
1380	65.1667
1376	65.1135
1372	64.9981
1368	64.8472
1364	64.8161
1360	64.9497
1356	65.0466
1352	65.0259
1348	65.0012
1344	64.9986
1340	64.9501
1336	64.8978
1332	64.9299
1328	64.9745
1324	64.9875
1320	64.9861
1316	64.8797
1312	64.7533
1308	64.7448
1304	64.844
1300	64.9883
1296	65.0454
1292	64.9684
1288	64.8787
1284	64.9255
1280	65.0887
1276	65.1483
1272	65.0154
1268	64.8877
1264	64.8225
1260	64.8074
1256	64.9425
1252	65.0784
1248	65.0666
1244	65.0227
1240	64.9929
1236	64.9409
1232	64.8891
1228	64.8474
1224	64.8406
1220	64.8968
1216	64.9561
1212	64.9563
1208	64.9417
1204	64.9612
1200	64.9882
1196	64.9882
1192	64.8857
1188	64.7488
1184	64.7556
1180	64.8592
1176	64.8885
1172	64.8609
1168	64.82
1164	64.7775
1160	64.8144
1156	64.8642
1152	64.8531
1148	64.7914
1144	64.6813
1140	64.6234
1136	64.6502
1132	64.6621
1128	64.7099
1124	64.812
1120	64.8546
1116	64.8933
1112	64.9578
1108	64.9212
1104	64.707
1100	64.5514
1096	64.6454
1092	64.7228
1088	64.6457
1084	64.5626
1080	64.6202
1076	64.7878
1072	64.8014
1068	64.7199
1064	64.7329
1060	64.7043
1056	64.6404
1052	64.6352
1048	64.708
1044	64.8017
1040	64.7616
1036	64.7003
1032	64.6338
1028	64.6186
1024	64.8751
1020	65.0371
1016	64.8558
1012	64.6507
1008	64.5849
1004	64.6043
1000	64.6495
996	 64.706
992	 64.786
988	 64.8872
984	 64.8578
980	 64.6703
976	 64.5059
972	 64.4636
968	 64.6361
964	 64.7861
960	 64.6914
956	 64.6334
952	 64.6779
948	 64.6342
944	 64.5039
940	 64.4736
936	 64.677
932	 64.9028
928	 64.9666
924	 65.0339
920	 65.1301
916	 65.0194
912	 64.9521
908	 64.9481
904	 64.4361
900	 63.9124
896	 63.9917
892	 64.293
888	 64.5286
884	 64.5664
880	 64.3435
876	 64.1232
872	 64.3106
868	 64.6379
864	 64.6834
860	 64.6755
856	 64.7372
852	 64.7074
848	 64.5777
844	 64.4915
840	 64.388
836	 64.2759
832	 64.275
828	 64.3413
824	 64.3609
820	 64.1793
816	 64.0754
812	 64.2122
808	 64.3201
804	 64.2577
800	 64.1517
796	 64.2035
792	 64.2135
788	 63.988
784	 63.7755
780	 63.7685
776	 63.9241
772	 64.1106
768	 64.1021
764	 63.9595
760	 63.9394
756	 64.0599
752	 64.1013
748	 64.1417
744	 64.3027
740	 63.9668
736	 63.1665
732	 62.9971
728	 63.59
724	 64.0796
720	 64.0264
716	 63.6036
712	 63.3812
708	 63.4513
704	 63.4854
700	 63.4218
696	 63.1777
692	 63.0771
688	 63.4035
684	 63.5994
680	 63.426
676	 63.2503
672	 63.2034
668	 63.1885
664	 63.0705
660	 62.7825
656	 62.683
652	 62.9185
648	 63.0816
644	 63.0234
640	 63.0294
636	 63.215
632	 63.3338
628	 63.3379
624	 63.2589
620	 63.0432
616	 62.7768
612	 62.6213
608	 62.714
604	 63.0163
600	 63.1806
596	 62.8982
592	 62.5195
588	 62.3705
584	 62.2607
580	 62.1208
576	 62.1282
572	 62.4365
568	 62.8661
564	 62.9215
560	 62.5656
556	 62.533
552	 62.7805
548	 62.6556
544	 62.3084
540	 62.2237
536	 62.265
532	 61.9487
528	 61.4207
524	 61.0071
520	 60.9206
516	 61.1263
512	 61.4474
508	 61.7717
504	 61.5475
500	 61.0852
496	 61.3733
492	 61.9463
488	 62.0458
484	 61.8236
480	 61.6958
476	 61.7893
472	 61.5691
468	 60.7907
464	 59.8219
460	 59.5025
456	 60.2062
452	 60.4964
448	 59.8899
444	 59.4239
440	 57.9553
436	 55.861
432	 56.6433
428	 59.8648
424	 60.8372
420	 58.9504
416	 58.6416
412	 59.5018
408	 56.0142
404	 49.1462
400	 44.5464
396	 41.7492
392	 47.554
388	 67.86
384	 71.4857
380	 55.0985
376	 81.5825
372	 176.077
370	 200