File: Bakgrunnsmateriale/MATLAB/FTIR/ftir_data/subBb/Mapping_121/C-4040-8_t35.asc
PE IR       SPECTRUM    SPECTRUM    ASCII       PEDS        1.60
  -1
C-B13E~1.ASC
17/03/27
17:20:50.00
17/03/27
17:21:16.00
tln
$C-4040-8_t0035$<tbV0>[10.4,-5.2,8.0,0.0,27,1,0]
27.028
64

2002,4.07
MIRTGS : RIGHTBACK : INTERNAL 2
MIR : ON : INTERNAL 2
OPTKBR

0.200000
8
8.000000
FILLER
RATIO
SPECTRUM
UNLOCKED 256

DOUBLE
64
COMBINED
1
0
0

0.002000
RATIO

1
0
TRUE
51149
0
LEFT NOT FITTED RIGHT NOT FITTED 0
NONE
NONE
15600
12
4.427000
51148
TRUE
1 0 8 72 0 0 0 0

15798

#HDR
-1
-1
#GR
µM
%T
2.38419e-05
0.0
2.000000
0.002000
12515
8
100.971
49.9882
#DATA
2.000000	 64.96
2.018000	 64.6765
2.036000	 65.0456
2.054000	 65.3564
2.072000	 64.8549
2.090000	 64.8452
2.108000	 65.0941
2.126000	 64.7673
2.144000	 65.1456
2.162000	 64.7915
2.180000	 64.8087
2.198000	 65.2852
2.216000	 65.3567
2.234000	 65.3055
2.252000	 65.6216
2.270000	 65.1978
2.288000	 69.0879
2.306000	 65.3698
2.324000	 65.3009
2.342000	 65.4581
2.360000	 64.9534
2.378000	 65.0998
2.396000	 65.1311
2.414000	 65.3286
2.432000	 64.8109
2.450000	 65.0157
2.468000	 65.1104
2.486000	 65.1394
2.504000	 65.1508
2.522000	 65.266
2.540000	 64.8676
2.558000	 64.9677
2.576000	 65.2583
2.594000	 65.2747
2.612000	 65.0738
2.630000	 65.1455
2.648000	 64.9479
2.666000	 65.3561
2.684000	 65.3775
2.702000	 65.4144
2.720000	 65.0784
2.738000	 65.2444
2.756000	 65.2286
2.774000	 65.1502
2.792000	 65.2898
2.810000	 65.1287
2.828000	 65.0618
2.846000	 65.2839
2.864000	 65.2695
2.882000	 65.0732
2.900000	 65.4164
2.918000	 65.1433
2.936000	 65.1316
2.954000	 65.1099
2.972000	 64.9772
2.990000	 65.1514
3.008000	 64.9307
3.026000	 65.3961
3.044000	 65.3534
3.062000	 65.2131
3.080000	 65.3194
3.098000	 65.1786
3.116000	 65.0438
3.134000	 65.1376
3.152000	 65.1967
3.170000	 65.1583
3.188000	 65.303
3.206000	 65.3519
3.224000	 65.2654
3.242000	 65.2326
3.260000	 65.2831
3.278000	 65.0777
3.296000	 65.392
3.314000	 65.3304
3.332000	 65.0832
3.350000	 65.1287
3.368000	 65.3857
3.386000	 65.1954
3.404000	 65.1477
3.422000	 64.9
3.440000	 64.9802
3.458000	 65.2568
3.476000	 65.1881
3.494000	 65.1549
3.512000	 64.9623
3.530000	 65.2068
3.548000	 65.4234
3.566000	 65.2917
3.584000	 65.366
3.602000	 65.3214
3.620000	 65.3331
3.638000	 65.2213
3.656000	 65.3532
3.674000	 65.3107
3.692000	 65.2102
3.710000	 65.3816
3.728000	 65.3282
3.746000	 65.4317
3.764000	 65.2687
3.782000	 65.3977
3.800000	 65.3471
3.818000	 65.3091
3.836000	 65.3209
3.854000	 65.2401
3.872000	 65.279
3.890000	 65.3488
3.908000	 65.3313
3.926000	 65.4349
3.944000	 65.4233
3.962000	 65.3502
3.980000	 65.2263
3.998000	 65.2638
4.016000	 65.3557
4.034000	 65.3634
4.052000	 65.4148
4.070000	 65.3141
4.088000	 65.458
4.106000	 65.2477
4.124000	 65.3285
4.141999	 65.3955
4.160000	 65.0647
4.178000	 65.4013
4.196000	 65.4022
4.214000	 65.283
4.232000	 65.3652
4.250000	 65.3272
4.268000	 65.4293
4.286000	 65.4158
4.304000	 65.3935
4.322000	 65.3827
4.340000	 65.4685
4.358000	 65.3816
4.375999	 65.3348
4.394000	 65.3516
4.412000	 65.315
4.430000	 65.4038
4.448000	 65.4707
4.466000	 65.318
4.484000	 65.3421
4.502000	 65.2873
4.520000	 65.3699
4.538000	 65.4532
4.556000	 65.4217
4.574000	 65.4189
4.592000	 65.3555
4.609999	 65.3198
4.628000	 65.3634
4.646000	 65.3996
4.664000	 65.3447
4.682000	 65.4626
4.700000	 65.4116
4.718000	 65.3607
4.736000	 65.3874
4.754000	 65.4711
4.772000	 65.416
4.790000	 65.514
4.808000	 65.5963
4.826000	 65.3966
4.843999	 65.2224
4.862000	 65.5701
4.880000	 65.5238
4.898000	 65.3215
4.916000	 65.3313
4.934000	 65.4069
4.952000	 65.4441
4.970000	 65.5001
4.988000	 65.4861
5.006000	 65.4297
5.024000	 65.4354
5.042000	 65.4698
5.060000	 65.4013
5.077999	 65.3708
5.096000	 65.4698
5.114000	 65.4881
5.132000	 65.4253
5.150000	 65.3651
5.168000	 65.4307
5.186000	 65.4608
5.204000	 65.4882
5.222000	 65.4268
5.240000	 65.3793
5.258000	 65.2875
5.276000	 65.3996
5.294000	 65.4152
5.312000	 65.3432
5.330000	 65.3856
5.348000	 65.3908
5.366000	 65.4269
5.384000	 65.4616
5.402000	 65.4251
5.420000	 65.4203
5.438000	 65.4475
5.456000	 65.3917
5.474000	 65.3723
5.492000	 65.3969
5.510000	 65.3712
5.528000	 65.3898
5.546000	 65.36
5.564000	 65.3821
5.582000	 65.3424
5.600000	 65.337
5.618000	 65.2954
5.636000	 65.3521
5.654000	 65.4334
5.672000	 65.411
5.690000	 65.3977
5.708000	 65.383
5.726000	 65.3601
5.744000	 65.2339
5.762000	 65.1955
5.780000	 65.1746
5.798000	 65.114
5.816000	 65.2522
5.834000	 65.3981
5.852000	 65.3957
5.870000	 65.3973
5.888000	 65.4397
5.906000	 65.3939
5.923999	 65.4113
5.942000	 65.4422
5.960000	 65.4023
5.978000	 65.3451
5.996000	 65.345
6.014000	 65.4094
6.032000	 65.394
6.050000	 65.4331
6.068000	 65.4745
6.086000	 65.4109
6.104000	 65.3804
6.122000	 65.3962
6.140000	 65.4059
6.158000	 65.4527
6.176000	 65.4315
6.194000	 65.3808
6.212000	 65.3675
6.230000	 65.3536
6.248000	 65.3335
6.266000	 65.3861
6.284000	 65.4363
6.302000	 65.4136
6.320000	 65.3893
6.338000	 65.3699
6.356000	 65.3041
6.374000	 65.215
6.392000	 65.2241
6.410000	 65.3504
6.428000	 65.43
6.446000	 65.3842
6.464000	 65.3232
6.482000	 65.3454
6.500000	 65.3493
6.518000	 65.3052
6.536000	 65.2932
6.554000	 65.2996
6.572000	 65.2258
6.590000	 65.1733
6.608000	 65.2025
6.626000	 65.1833
6.644000	 65.1396
6.662000	 65.1889
6.680000	 65.3187
6.698000	 65.3483
6.716000	 65.2514
6.734000	 65.2127
6.752000	 65.213
6.770000	 65.2473
6.788000	 65.3241
6.806000	 65.3217
6.824000	 65.2263
6.842000	 65.1538
6.860000	 65.2335
6.878000	 65.4203
6.896000	 65.5097
6.914000	 65.4905
6.932000	 65.4206
6.950000	 65.2782
6.968000	 65.1586
6.986000	 65.1462
7.004000	 65.1745
7.022000	 65.1625
7.040000	 65.1352
7.058000	 65.1812
7.076000	 65.2698
7.094000	 65.2764
7.112000	 65.1937
7.130000	 65.1284
7.148000	 65.1129
7.166000	 65.0927
7.184000	 65.0891
7.202000	 65.1602
7.220000	 65.2395
7.238000	 65.2387
7.256000	 65.181
7.274000	 65.0913
7.292000	 64.9797
7.310000	 64.9261
7.328000	 64.981
7.346000	 65.0893
7.364000	 65.1867
7.382000	 65.2393
7.400000	 65.2287
7.418000	 65.1859
7.436000	 65.157
7.454000	 65.1645
7.472000	 65.21
7.490000	 65.2452
7.508000	 65.2195
7.526000	 65.1693
7.544000	 65.1432
7.562000	 65.1367
7.580000	 65.1454
7.598000	 65.1538
7.616000	 65.1362
7.634000	 65.1314
7.652000	 65.1697
7.670000	 65.1805
7.688000	 65.1198
7.706000	 65.0624
7.724000	 65.0684
7.742000	 65.1017
7.760000	 65.1233
7.778000	 65.1495
7.796000	 65.2045
7.814000	 65.2623
7.832000	 65.2611
7.850000	 65.1926
7.868000	 65.1384
7.886000	 65.1598
7.904000	 65.2128
7.922000	 65.2299
7.940000	 65.2189
7.958000	 65.2348
7.976000	 65.2855
7.994000	 65.3152
8.012000	 65.2761
8.030000	 65.1901
8.048000	 65.1221
8.065999	 65.1098
8.084000	 65.1393
8.102000	 65.1742
8.120000	 65.1897
8.138000	 65.1846
8.155999	 65.1814
8.173999	 65.2007
8.192000	 65.2294
8.210000	 65.2306
8.228000	 65.1896
8.246000	 65.1289
8.263999	 65.0798
8.282000	 65.058
8.300000	 65.0696
8.318000	 65.1075
8.336000	 65.1389
8.353999	 65.1304
8.372000	 65.0834
8.390000	 65.0249
8.408000	 64.9791
8.426000	 64.9647
8.443999	 64.9974
8.462000	 65.0662
8.480000	 65.1296
8.498000	 65.1549
8.516000	 65.1502
8.533999	 65.1403
8.552000	 65.1301
8.570000	 65.1035
8.588000	 65.0482
8.606000	 64.9746
8.624000	 64.9196
8.641999	 64.9263
8.660000	 64.9982
8.678000	 65.0849
8.696000	 65.1341
8.714000	 65.1407
8.731999	 65.1343
8.750000	 65.1406
8.768000	 65.1633
8.786000	 65.1844
8.804000	 65.163
8.821999	 65.0549
8.840000	 64.8582
8.858000	 64.6476
8.876000	 64.5324
8.894000	 64.5631
8.911999	 64.6883
8.930000	 64.8165
8.948000	 64.9009
8.966000	 64.9567
8.984000	 65.0165
9.001999	 65.09
9.020000	 65.158
9.038000	 65.1868
9.056000	 65.1488
9.074000	 65.0537
9.092000	 64.9595
9.109999	 64.9334
9.128000	 64.9943
9.146000	 65.1034
9.164000	 65.2074
9.182000	 65.2728
9.199999	 65.2815
9.218000	 65.2215
9.236000	 65.1008
9.254000	 64.9659
9.272000	 64.8817
9.289999	 64.8782
9.308000	 64.9234
9.326000	 64.959
9.344000	 64.9603
9.362000	 64.9509
9.379999	 64.9605
9.398000	 64.9827
9.416000	 64.9848
9.434000	 64.9554
9.452000	 64.9255
9.469999	 64.9329
9.488000	 64.9761
9.506000	 65.0166
9.524000	 65.0272
9.542000	 65.022
9.560000	 65.0366
9.577999	 65.0887
9.596000	 65.1639
9.614000	 65.2339
9.632000	 65.2809
9.650000	 65.302
9.667999	 65.2945
9.686000	 65.2441
9.704000	 65.1369
9.722000	 64.9816
9.740000	 64.8191
9.757999	 64.7031
9.776000	 64.6682
9.794000	 64.7071
9.812000	 64.7798
9.830000	 64.8484
9.847999	 64.8994
9.866000	 64.9361
9.884000	 64.9543
9.902000	 64.9386
9.920000	 64.882
9.937999	 64.8009
9.956000	 64.728
9.974000	 64.6869
9.992000	 64.677
10.01	64.6811
10.028	64.6857
10.046	64.6981
10.064	64.738
10.082	64.8177
10.1	64.9263
10.118	65.0282
10.136	65.0801
10.154	65.0533
10.172	64.9512
10.19	64.8127
10.208	64.692
10.226	64.6281
10.244	64.6283
10.262	64.668
10.28	64.7137
10.298	64.7419
10.316	64.7447
10.334	64.7244
10.352	64.6846
10.37	64.6291
10.388	64.57
10.406	64.5302
10.424	64.5369
10.442	64.6023
10.46	64.7133
10.478	64.8345
10.496	64.9269
10.514	64.9689
10.532	64.9646
10.55	64.9335
10.568	64.8945
10.586	64.8534
10.604	64.8047
10.622	64.7431
10.64	64.6755
10.658	64.6194
10.676	64.5951
10.694	64.6103
10.712	64.6542
10.73	64.7011
10.748	64.7246
10.766	64.7117
10.784	64.6686
10.802	64.6178
10.82	64.5835
10.838	64.5817
10.856	64.6124
10.874	64.6621
10.892	64.712
10.91	64.7466
10.928	64.7599
10.946	64.7546
10.964	64.7398
10.982	64.7259
11	64.7209
11.018	64.729
11.036	64.7495
11.054	64.7782
11.072	64.8084
11.09	64.8317
11.108	64.8408
11.126	64.8308
11.144	64.8013
11.162	64.7569
11.18	64.7056
11.198	64.658
11.216	64.6239
11.234	64.61
11.252	64.6176
11.27	64.6429
11.288	64.677
11.306	64.7085
11.324	64.7259
11.342	64.7215
11.36	64.6937
11.378	64.6481
11.396	64.5953
11.414	64.5477
11.432	64.5147
11.45	64.4994
11.468	64.499
11.486	64.5081
11.504	64.5213
11.522	64.5364
11.54	64.554
11.558	64.5757
11.576	64.601
11.594	64.6267
11.612	64.6476
11.63	64.6598
11.648	64.6631
11.666	64.6623
11.684	64.6651
11.702	64.6781
11.72	64.7038
11.738	64.7389
11.756	64.7753
11.774	64.8029
11.792	64.8142
11.81	64.8066
11.828	64.7824
11.846	64.7466
11.864	64.7051
11.882	64.6626
11.9	64.6224
11.918	64.5861
11.936	64.5548
11.954	64.5284
11.972	64.5056
11.99	64.4849
12.008	64.4656
12.026	64.4488
12.044	64.438
12.062	64.4381
12.08	64.4535
12.098	64.485
12.116	64.5272
12.134	64.5688
12.152	64.5956
12.17	64.5962
12.188	64.566
12.206	64.5096
12.224	64.4398
12.242	64.3725
12.26	64.3204
12.278	64.2911
12.296	64.2852
12.314	64.298
12.332	64.3222
12.35	64.3502
12.368	64.3756
12.386	64.394
12.404	64.4031
12.422	64.4021
12.44	64.3917
12.458	64.3737
12.476	64.3508
12.494	64.3264
12.512	64.3043
12.53	64.2874
12.548	64.277
12.566	64.2728
12.584	64.2727
12.602	64.2737
12.62	64.2726
12.638	64.2667
12.656	64.255
12.674	64.2379
12.692	64.2168
12.71	64.1941
12.728	64.173
12.746	64.1563
12.764	64.1464
12.782	64.1451
12.8	64.1526
12.818	64.1679
12.836	64.1892
12.854	64.2142
12.872	64.2406
12.89	64.2665
12.908	64.291
12.926	64.3141
12.944	64.3366
12.962	64.359
12.98	64.3809
12.998	64.4007
13.016	64.4157
13.034	64.4223
13.052	64.4177
13.07	64.4004
13.088	64.3706
13.106	64.3304
13.124	64.2832
13.142	64.2325
13.16	64.1805
13.178	64.127
13.196	64.07
13.214	64.0059
13.232	63.9318
13.25	63.8471
13.268	63.7543
13.286	63.661
13.304	63.5779
13.322	63.5177
13.34	63.4914
13.358	63.5058
13.376	63.5611
13.394	63.6501
13.412	63.759
13.43	63.8706
13.448	63.9673
13.466	64.0349
13.484	64.0656
13.502	64.0594
13.52	64.0239
13.538	63.9721
13.556	63.9193
13.574	63.8798
13.592	63.8634
13.61	63.8747
13.628	63.9114
13.646	63.9653
13.664	64.0245
13.682	64.0764
13.7	64.1099
13.718	64.1177
13.736	64.0976
13.754	64.052
13.772	63.9879
13.79	63.9146
13.808	63.842
13.826	63.7789
13.844	63.7314
13.862	63.7022
13.88	63.6908
13.898	63.6939
13.916	63.7064
13.934	63.7225
13.952	63.7368
13.97	63.7451
13.988	63.7452
14.006	63.7377
14.024	63.7254
14.042	63.7128
14.06	63.7048
14.078	63.707
14.096	63.7237
14.114	63.7575
14.132	63.8084
14.15	63.8736
14.168	63.9473
14.186	64.0215
14.204	64.087
14.222	64.134
14.24	64.1546
14.258	64.1432
14.276	64.098
14.294	64.0206
14.312	63.9159
14.33	63.7918
14.348	63.6579
14.366	63.5246
14.384	63.4022
14.402	63.2989
14.42	63.2204
14.438	63.1704
14.456	63.1497
14.474	63.1563
14.492	63.1861
14.51	63.2327
14.528	63.2889
14.546	63.3477
14.564	63.4026
14.582	63.4484
14.6	63.4813
14.618	63.499
14.636	63.5013
14.654	63.4896
14.672	63.4667
14.69	63.4354
14.708	63.3993
14.726	63.3622
14.744	63.3271
14.762	63.2968
14.78	63.2731
14.798	63.2567
14.816	63.2478
14.834	63.2457
14.852	63.2486
14.87	63.2545
14.888	63.2613
14.906	63.267
14.924	63.2702
14.942	63.2695
14.96	63.2649
14.978	63.2567
14.996	63.2459
15.014	63.234
15.032	63.2234
15.05	63.2161
15.068	63.214
15.086	63.2183
15.104	63.2299
15.122	63.2488
15.14	63.2737
15.158	63.3029
15.176	63.3339
15.194	63.3635
15.212	63.3886
15.23	63.4067
15.248	63.4163
15.266	63.4164
15.284	63.4073
15.302	63.3906
15.32	63.3684
15.338	63.343
15.356	63.317
15.374	63.293
15.392	63.2722
15.41	63.2551
15.428	63.2416
15.446	63.23
15.464	63.2188
15.482	63.2064
15.5	63.1911
15.518	63.1722
15.536	63.1499
15.554	63.1252
15.572	63.0997
15.59	63.0761
15.608	63.0566
15.626	63.0427
15.644	63.0361
15.662	63.0368
15.68	63.0439
15.698	63.0561
15.716	63.0711
15.734	63.0863
15.752	63.1
15.77	63.1102
15.788	63.1159
15.806	63.1171
15.824	63.1144
15.842	63.1088
15.86	63.1023
15.878	63.0966
15.896	63.093
15.914	63.0933
15.932	63.0979
15.95	63.1068
15.968	63.1197
15.986	63.1355
16.004	63.1529
16.022	63.1708
16.04	63.1877
16.058	63.2024
16.076	63.2143
16.094	63.2224
16.112	63.2264
16.13	63.2261
16.148	63.2214
16.166	63.2126
16.184	63.1997
16.202	63.1833
16.22	63.1637
16.238	63.1416
16.256	63.1176
16.274	63.0926
16.292	63.0671
16.31	63.0419
16.328	63.0177
16.346	62.9949
16.364	62.9741
16.382	62.9557
16.4	62.9398
16.418	62.9266
16.436	62.9163
16.454	62.9089
16.472	62.9043
16.49	62.9022
16.508	62.902
16.526	62.9033
16.544	62.9048
16.562	62.906
16.58	62.9061
16.598	62.9043
16.616	62.9004
16.634	62.8941
16.652	62.8857
16.67	62.8757
16.688	62.8647
16.706	62.8538
16.724	62.8435
16.742	62.8349
16.76	62.8287
16.778	62.8251
16.796	62.8247
16.814	62.827
16.832	62.8319
16.85	62.8384
16.868	62.8459
16.886	62.8537
16.904	62.8604
16.922	62.8654
16.94	62.8679
16.958	62.8672
16.976	62.863
16.994	62.855
17.012	62.8434
17.03	62.8282
17.048	62.8104
17.066	62.7905
17.084	62.7698
17.102	62.7495
17.12	62.7305
17.138	62.7148
17.156	62.7036
17.174	62.6981
17.192	62.7001
17.21	62.7103
17.228	62.7299
17.246	62.7587
17.264	62.7969
17.282	62.8431
17.3	62.8965
17.318	62.9549
17.336	63.0157
17.354	63.0773
17.372	63.1357
17.39	63.1898
17.408	63.2363
17.426	63.2742
17.444	63.302
17.462	63.3193
17.48	63.3265
17.498	63.3245
17.516	63.3152
17.534	63.2999
17.552	63.2823
17.57	63.2632
17.588	63.2461
17.606	63.232
17.624	63.2231
17.642	63.2196
17.66	63.2219
17.678	63.2294
17.696	63.2414
17.714	63.2556
17.732	63.2702
17.75	63.2833
17.768	63.2917
17.786	63.2943
17.804	63.288
17.822	63.2725
17.84	63.2461
17.858	63.2094
17.876	63.1623
17.894	63.1069
17.912	63.0437
17.93	62.9766
17.948	62.9062
17.966	62.8372
17.984	62.7706
18.002	62.7103
18.02	62.6577
18.038	62.6149
18.056	62.5831
18.074	62.5631
18.092	62.5547
18.11	62.5579
18.128	62.571
18.146	62.5933
18.164	62.6221
18.182	62.6558
18.2	62.692
18.218	62.7277
18.236	62.7614
18.254	62.7899
18.272	62.8123
18.29	62.8257
18.308	62.8299
18.326	62.8232
18.344	62.8058
18.362	62.7778
18.38	62.74
18.398	62.6937
18.416	62.6405
18.434	62.5823
18.452	62.5213
18.47	62.4593
18.488	62.3991
18.506	62.3418
18.524	62.2898
18.542	62.2438
18.56	62.2053
18.578	62.1746
18.596	62.1516
18.614	62.1362
18.632	62.1271
18.65	62.1241
18.668	62.125
18.686	62.1293
18.704	62.1346
18.722	62.1407
18.74	62.1452
18.758	62.1481
18.776	62.1476
18.794	62.1437
18.812	62.1358
18.83	62.1242
18.848	62.1086
18.866	62.0897
18.884	62.0679
18.902	62.0436
18.92	62.0176
18.938	61.9903
18.956	61.9625
18.974	61.9345
18.992	61.9072
19.01	61.8807
19.028	61.8556
19.046	61.8321
19.064	61.8104
19.082	61.7908
19.1	61.7734
19.118	61.7583
19.136	61.7457
19.154	61.7355
19.172	61.7275
19.19	61.7217
19.208	61.7178
19.226	61.7156
19.244	61.7143
19.262	61.7139
19.28	61.7136
19.298	61.7135
19.316	61.713
19.334	61.712
19.352	61.7107
19.37	61.7089
19.388	61.7073
19.406	61.7057
19.424	61.7051
19.442	61.7054
19.46	61.7075
19.478	61.7115
19.496	61.7177
19.514	61.7265
19.532	61.7377
19.55	61.7514
19.568	61.7672
19.586	61.7847
19.604	61.8035
19.622	61.8227
19.64	61.8421
19.658	61.8605
19.676	61.878
19.694	61.8935
19.712	61.907
19.73	61.9182
19.748	61.9269
19.766	61.9337
19.784	61.9384
19.802	61.9419
19.82	61.9445
19.838	61.9469
19.856	61.95
19.874	61.9541
19.892	61.9607
19.91	61.9695
19.928	61.9818
19.946	61.9975
19.964	62.0169
19.982	62.0403
20	62.067
20.018	62.0972
20.036	62.13
20.054	62.1642
20.072	62.1998
20.09	62.2341
20.108	62.2677
20.126	62.2977
20.144	62.3244
20.162	62.3458
20.18	62.3612
20.198	62.3701
20.216	62.3713
20.234	62.3652
20.252	62.3512
20.27	62.3293
20.288	62.3007
20.306	62.2649
20.324	62.2236
20.342	62.1774
20.36	62.1272
20.378	62.0753
20.396	62.0213
20.414	61.9683
20.432	61.916
20.45	61.8663
20.468	61.8202
20.486	61.7779
20.504	61.7409
20.522	61.7087
20.54	61.6825
20.558	61.6622
20.576	61.6474
20.594	61.6383
20.612	61.6343
20.63	61.6346
20.648	61.6394
20.666	61.6468
20.684	61.657
20.702	61.6684
20.72	61.6802
20.738	61.6923
20.756	61.7025
20.774	61.7114
20.792	61.7172
20.81	61.7197
20.828	61.7183
20.846	61.7122
20.864	61.7018
20.882	61.6865
20.9	61.6663
20.918	61.6418
20.936	61.6132
20.954	61.5807
20.972	61.5454
20.99	61.507
21.008	61.4675
21.026	61.4274
21.044	61.3873
21.062	61.3499
21.08	61.3143
21.098	61.2833
21.116	61.2574
21.134	61.2371
21.152	61.2244
21.17	61.2187
21.188	61.2213
21.206	61.2325
21.224	61.2521
21.242	61.2801
21.26	61.3166
21.278	61.3599
21.296	61.4105
21.314	61.467
21.332	61.5269
21.35	61.5912
21.368	61.6563
21.386	61.7216
21.404	61.7863
21.422	61.8464
21.44	61.9033
21.458	61.9536
21.476	61.9961
21.494	62.0309
21.512	62.0551
21.53	62.0692
21.548	62.0724
21.566	62.0637
21.584	62.0435
21.602	62.012
21.62	61.9687
21.638	61.9148
21.656	61.851
21.674	61.7771
21.692	61.6954
21.71	61.6062
21.728	61.5103
21.746	61.411
21.764	61.3073
21.782	61.2018
21.8	61.0969
21.818	60.9915
21.836	60.8891
21.854	60.7898
21.872	60.6942
21.89	60.6047
21.908	60.5202
21.926	60.4426
21.944	60.3729
21.962	60.3107
21.98	60.2563
21.998	60.2101
22.016	60.1715
22.034	60.1401
22.052	60.1165
22.07	60.0987
22.088	60.0856
22.106	60.078
22.124	60.0725
22.142	60.069
22.16	60.067
22.178	60.0627
22.196	60.0574
22.214	60.0489
22.232	60.0342
22.25	60.0147
22.268	59.9884
22.286	59.954
22.304	59.9121
22.322	59.8624
22.34	59.8043
22.358	59.7384
22.376	59.6661
22.394	59.5866
22.412	59.5016
22.43	59.4134
22.448	59.3205
22.466	59.2261
22.484	59.1326
22.502	59.0386
22.52	58.948
22.538	58.8623
22.556	58.7807
22.574	58.7062
22.592	58.6395
22.61	58.5801
22.628	58.5297
22.646	58.4883
22.664	58.4556
22.682	58.4319
22.7	58.4176
22.718	58.4115
22.736	58.4128
22.754	58.4221
22.772	58.4378
22.79	58.459
22.808	58.4865
22.826	58.5178
22.844	58.5517
22.862	58.589
22.88	58.6271
22.898	58.665
22.916	58.7035
22.934	58.739
22.952	58.7709
22.97	58.7996
22.988	58.8215
23.006	58.8365
23.024	58.8446
23.042	58.842
23.06	58.829
23.078	58.8053
23.096	58.7678
23.114	58.7166
23.132	58.6517
23.15	58.5712
23.168	58.4748
23.186	58.363
23.204	58.2355
23.222	58.0914
23.24	57.932
23.258	57.7593
23.276	57.572
23.294	57.3717
23.312	57.1622
23.33	56.942
23.348	56.7128
23.366	56.4808
23.384	56.2441
23.402	56.0048
23.42	55.7706
23.438	55.5411
23.456	55.3165
23.474	55.1045
23.492	54.9056
23.51	54.7189
23.528	54.5492
23.546	54.3981
23.564	54.2639
23.582	54.1491
23.6	54.0547
23.618	53.9798
23.636	53.9249
23.654	53.8913
23.672	53.8789
23.69	53.883
23.708	53.9014
23.726	53.9375
23.744	53.9824
23.762	54.0289
23.78	54.0828
23.798	54.1362
23.816	54.1801
23.834	54.2193
23.852	54.2494
23.87	54.2625
23.888	54.2607
23.906	54.2429
23.924	54.2037
23.942	54.1421
23.96	54.0598
23.978	53.9559
23.996	53.8294
24.014	53.6808
24.032	53.5128
24.05	53.3262
24.068	53.119
24.086	52.8967
24.104	52.664
24.122	52.4152
24.14	52.1585
24.158	51.9044
24.176	51.6478
24.194	51.3926
24.212	51.1516
24.23	50.9256
24.248	50.7117
24.266	50.5209
24.284	50.3596
24.302	50.2221
24.32	50.1135
24.338	50.0392
24.356	49.9983
24.374	49.9887
24.392	50.0089
24.41	50.0619
24.428	50.1448
24.446	50.2499
24.464	50.3762
24.482	50.5275
24.5	50.6909
24.518	50.8562
24.536	51.0321
24.554	51.2097
24.572	51.3762
24.59	51.5338
24.608	51.6832
24.626	51.8157
24.644	51.9266
24.662	52.02
24.68	52.0943
24.698	52.1472
24.716	52.1772
24.734	52.1885
24.752	52.1862
24.77	52.1679
24.788	52.1339
24.806	52.0945
24.824	52.0564
24.842	52.0133
24.86	51.9711
24.878	51.9373
24.896	51.908
24.914	51.8849
24.932	51.8778
24.95	51.8925
24.968	51.9243
24.986	51.9744
25.004	52.0442
25.022	52.1293
25.04	52.2342
25.058	52.3675
25.076	52.531
25.094	52.7187
25.112	52.9429
25.13	53.2155
25.148	53.5241
25.166	53.878
25.184	54.2986
25.202	54.7922
25.22	55.344
25.238	55.9786
25.256	56.7218
25.274	57.5632
25.292	58.5034
25.31	59.5589
25.328	60.7416
25.346	62.0433
25.364	63.4611
25.382	64.9929
25.4	66.6506
25.418	68.4248
25.436	70.289
25.454	72.2269
25.472	74.2685
25.49	76.3766
25.508	78.5022
25.526	80.6485
25.544	82.8373
25.562	85.0015
25.58	87.0791
25.598	89.1186
25.616	91.0949
25.634	92.9351
25.652	94.5971
25.67	96.1345
25.688	97.5028
25.706	98.6462
25.724	99.5599
25.742	100.268
25.76	100.743
25.778	100.957
25.796	100.916
25.814	100.63
25.832	100.103
25.85	99.3327
25.868	98.3051
25.886	97.0523
25.904	95.611
25.922	93.9792
25.94	92.1368
25.958	90.1383
25.976	88.0382
25.994	85.8029
26.012	83.4388
26.03	81.014
26.048	78.5854
26.066	76.0935
26.084	73.5752
26.102	71.1041
26.12	68.7249
26.138	66.3772
26.156	64.1073
26.174	61.9766
26.192	60.0018
26.21	58.1404
26.228	56.4396
26.246	54.9497
26.264	53.6754
26.282	52.5929
26.3	51.719
26.318	51.0706
26.336	50.657
26.354	50.463
26.372	50.4687
26.39	50.6572
26.408	51.0603
26.426	51.6533
26.444	52.3862
26.462	53.2209
26.48	54.2165
26.498	55.3278
26.516	56.4788
26.534	57.617
26.552	58.8114
26.57	60.0166
26.588	61.1632
26.606	62.2077
26.624	63.2066
26.642	64.1273
26.66	64.9237
26.678	65.5664
26.696	66.0854
26.714	66.4761
26.732	66.729
26.75	66.8299
26.768	66.7736
26.786	66.5928
26.804	66.3222
26.822	65.9705
26.84	65.502
26.858	64.962
26.876	64.4009
26.894	63.8398
26.912	63.2362
26.93	62.6246
26.948	62.0453
26.966	61.5102
26.984	60.9732
27.002	60.487
27.02	60.1119
27.028	60.0086