File: Bakgrunnsmateriale/MATLAB/FTIR/ftir_data/subBb/Mapping_121/C-4040-8_t67_cm-1.asc
PE IR       SPECTRUM    SPECTRUM    ASCII       PEDS        1.60
  -1
C-9CEF~1.ASC
17/03/27
20:02:48.00
17/03/27
20:02:48.00
tln
$C-4040-8_t0067$<tbV0>[13.0,2.6,8.0,0.0,27,1,0]
370
64

2002,4.07
MIRTGS : RIGHTBACK : INTERNAL 2
MIR : ON : INTERNAL 2
OPTKBR

0.200000
8
8.000000
FILLER
RATIO
SPECTRUM
UNLOCKED 256

DOUBLE
64
COMBINED
1
0
0

1.000000
RATIO

1
0
TRUE
51149
0
LEFT NOT FITTED RIGHT NOT FITTED 0
NONE
NONE
15600
12
4.427000
51148
TRUE
1 0 8 72 0 0 0 0

15798

#HDR
-1
-1
#GR
CM-1
%T
2.38419e-05
0.0
5000
-1.000000
4631
8
66.8074
34.8902
#DATA
5000	64.984
4996	65.1314
4992	65.134
4988	64.9975
4984	65.0484
4980	65.2184
4976	65.2282
4972	65.0743
4968	64.6324
4964	64.3016
4960	64.5768
4956	65.1005
4952	65.3318
4948	65.4097
4944	65.4395
4940	65.2736
4936	65.121
4932	65.1479
4928	65.3098
4924	65.4123
4920	65.3706
4916	65.221
4912	65.0985
4908	65.0287
4904	64.9485
4900	64.9342
4896	64.8481
4892	64.8889
4888	65.0965
4884	65.3561
4880	65.4855
4876	65.1549
4872	64.8416
4868	64.6232
4864	64.4429
4860	64.7286
4856	65.1995
4852	65.3043
4848	65.2023
4844	65.0705
4840	64.8943
4836	64.9803
4832	65.1085
4828	64.8785
4824	64.7086
4820	64.8697
4816	64.9695
4812	64.9318
4808	65.0173
4804	65.0555
4800	64.8024
4796	64.4914
4792	64.2876
4788	64.2592
4784	64.5407
4780	64.7071
4776	64.4794
4772	64.3112
4768	64.3826
4764	64.5372
4760	64.6984
4756	64.7959
4752	64.9255
4748	64.9962
4744	64.8174
4740	64.6892
4736	64.8558
4732	64.9856
4728	64.9576
4724	64.9769
4720	64.9658
4716	64.756
4712	64.5961
4708	64.6904
4704	64.6487
4700	64.4909
4696	64.518
4692	64.6207
4688	64.709
4684	64.778
4680	64.8386
4676	64.7597
4672	64.6094
4668	64.6374
4664	64.7099
4660	64.8301
4656	65.0285
4652	65.07
4648	64.8865
4644	64.7131
4640	64.8314
4636	65.0629
4632	65.1169
4628	64.9959
4624	64.9444
4620	65.086
4616	65.1534
4612	65.0042
4608	64.8616
4604	64.8693
4600	64.8817
4596	64.9444
4592	65.1672
4588	65.1804
4584	64.967
4580	64.9506
4576	65.148
4572	65.3244
4568	65.3551
4564	65.3321
4560	65.3061
4556	65.2447
4552	65.296
4548	65.371
4544	65.1131
4540	64.9871
4536	65.333
4532	65.741
4528	66.1809
4524	66.2186
4520	65.7677
4516	65.66
4512	65.7934
4508	65.7896
4504	65.7437
4500	65.7393
4496	65.7378
4492	65.7444
4488	65.7467
4484	65.6012
4480	65.3572
4476	65.2238
4472	65.3601
4468	65.6266
4464	65.8542
4460	65.8846
4456	65.7457
4452	65.8684
4448	65.9639
4444	65.7956
4440	65.6003
4436	65.4585
4432	65.3828
4428	65.4826
4424	65.568
4420	65.4607
4416	65.539
4412	65.677
4408	65.2802
4404	64.888
4400	64.7341
4396	64.1679
4392	61.9563
4388	55.1909
4384	48.3084
4380	47.3489
4376	51.6882
4372	60.7181
4368	66.5251
4364	65.9488
4360	65.1317
4356	64.9912
4352	65.2269
4348	65.8585
4344	66.5914
4340	66.7773
4336	66.3909
4332	66.0916
4328	66.1178
4324	66.1094
4320	66.0768
4316	66.0883
4312	66.0324
4308	65.9941
4304	66.0225
4300	66.0031
4296	65.9792
4292	65.903
4288	65.6463
4284	65.4726
4280	65.6224
4276	65.8153
4272	65.7588
4268	65.6547
4264	65.7463
4260	65.8313
4256	65.6971
4252	65.4954
4248	65.4173
4244	65.527
4240	65.6424
4236	65.6869
4232	65.628
4228	65.3011
4224	65.0577
4220	65.1561
4216	65.3205
4212	65.4318
4208	65.4733
4204	65.3366
4200	65.0562
4196	64.7615
4192	64.7106
4188	65.175
4184	65.7422
4180	65.7355
4176	65.2382
4172	64.9346
4168	64.9762
4164	64.8344
4160	64.672
4156	64.8675
4152	65.1327
4148	65.186
4144	65.0591
4140	64.9405
4136	64.9064
4132	64.9079
4128	64.8543
4124	64.7815
4120	64.6744
4116	64.4633
4112	64.4809
4108	64.7558
4104	64.8417
4100	64.7844
4096	64.8577
4092	64.9026
4088	64.9519
4084	65.1009
4080	65.0611
4076	64.844
4072	64.7953
4068	64.9135
4064	64.9652
4060	64.9648
4056	64.8941
4052	64.7416
4048	64.6782
4044	64.7202
4040	64.7847
4036	64.7969
4032	64.7429
4028	64.809
4024	64.9666
4020	65.0689
4016	65.2106
4012	65.2903
4008	65.1358
4004	64.9123
4000	64.847
3996	64.94
3992	65.0153
3988	65.0276
3984	65.0516
3980	65.045
3976	64.9823
3972	64.9683
3968	65.0105
3964	65.0598
3960	65.1006
3956	65.045
3952	64.9573
3948	64.9187
3944	64.9413
3940	65.0427
3936	65.096
3932	65.1148
3928	65.1385
3924	65.0692
3920	65.0233
3916	65.1137
3912	65.2837
3908	65.4469
3904	65.494
3900	65.4546
3896	65.3435
3892	65.1441
3888	65.0145
3884	65.0679
3880	65.1471
3876	65.1608
3872	65.2453
3868	65.3358
3864	65.2834
3860	65.1725
3856	65.1154
3852	65.1098
3848	65.143
3844	65.1472
3840	64.9947
3836	64.8979
3832	65.0638
3828	65.1321
3824	65.031
3820	65.0862
3816	65.1649
3812	65.1128
3808	65.0723
3804	65.1222
3800	65.2286
3796	65.2263
3792	65.0487
3788	64.923
3784	64.9433
3780	64.975
3776	65.0242
3772	65.0919
3768	65.0951
3764	65.1042
3760	65.194
3756	65.2001
3752	65.0612
3748	65.051
3744	65.229
3740	65.3217
3736	65.2612
3732	65.1878
3728	65.1487
3724	65.1644
3720	65.1883
3716	65.1385
3712	65.1204
3708	65.1404
3704	65.1192
3700	65.0926
3696	65.0952
3692	65.1465
3688	65.1559
3684	65.1021
3680	65.0757
3676	65.0992
3672	65.0996
3668	65.0156
3664	64.9633
3660	65.0563
3656	65.1852
3652	65.1304
3648	64.9537
3644	64.8955
3640	64.9808
3636	65.0588
3632	65.0767
3628	65.1741
3624	65.3039
3620	65.3117
3616	65.2537
3612	65.1856
3608	65.1034
3604	65.069
3600	65.0803
3596	65.1046
3592	65.1748
3588	65.2233
3584	65.1988
3580	65.2347
3576	65.3112
3572	65.2271
3568	65.165
3564	65.209
3560	65.2365
3556	65.3022
3552	65.2707
3548	65.139
3544	65.0581
3540	65.0493
3536	65.1098
3532	65.1541
3528	65.1615
3524	65.1647
3520	65.155
3516	65.1265
3512	65.0552
3508	65.0537
3504	65.1578
3500	65.1817
3496	65.0926
3492	65.0784
3488	65.1578
3484	65.2089
3480	65.2219
3476	65.2231
3472	65.2139
3468	65.2622
3464	65.3873
3460	65.3989
3456	65.3609
3452	65.376
3448	65.3525
3444	65.3901
3440	65.4327
3436	65.3422
3432	65.1069
3428	64.857
3424	64.8673
3420	65.097
3416	65.3325
3412	65.3368
3408	65.0328
3404	64.8093
3400	64.856
3396	65.0181
3392	65.2086
3388	65.2872
3384	65.2014
3380	65.1424
3376	65.1741
3372	65.1639
3368	65.1491
3364	65.2459
3360	65.367
3356	65.325
3352	65.1717
3348	65.0947
3344	65.1457
3340	65.2745
3336	65.2824
3332	65.1349
3328	65.0521
3324	65.0907
3320	65.1087
3316	65.0351
3312	65.0228
3308	65.1099
3304	65.1475
3300	65.1482
3296	65.1309
3292	65.1415
3288	65.2476
3284	65.2648
3280	65.1969
3276	65.1613
3272	65.1611
3268	65.2534
3264	65.2937
3260	65.1952
3256	65.1097
3252	65.0733
3248	65.0294
3244	64.9455
3240	64.9037
3236	64.9968
3232	65.0626
3228	64.9967
3224	64.9288
3220	64.9358
3216	65.0007
3212	65.0594
3208	65.1066
3204	65.0988
3200	64.9981
3196	65.0056
3192	65.1097
3188	65.1327
3184	65.1292
3180	65.0868
3176	65.0094
3172	64.9883
3168	65.0162
3164	65.0573
3160	65.091
3156	65.0853
3152	65.0532
3148	65.1575
3144	65.3961
3140	65.3837
3136	65.1285
3132	65.0256
3128	64.9142
3124	64.7505
3120	64.8422
3116	64.99
3112	64.9426
3108	64.8911
3104	64.9891
3100	65.1416
3096	65.2786
3092	65.3121
3088	65.2228
3084	65.0938
3080	65.0203
3076	65.0684
3072	65.1501
3068	65.2386
3064	65.2429
3060	65.1382
3056	65.1427
3052	65.1939
3048	65.0936
3044	64.9579
3040	64.9231
3036	64.9398
3032	64.9968
3028	65.0678
3024	65.111
3020	65.1184
3016	65.0988
3012	65.0795
3008	65.0366
3004	64.9889
3000	64.9923
2996	65.0368
2992	65.0741
2988	65.0823
2984	65.0625
2980	65.0656
2976	65.0636
2972	64.9887
2968	64.9544
2964	64.9493
2960	64.8819
2956	64.8997
2952	64.9892
2948	65.0184
2944	65.0658
2940	65.0735
2936	64.9507
2932	64.8075
2928	64.7499
2924	64.8002
2920	64.8423
2916	64.8524
2912	64.8752
2908	64.9163
2904	64.968
2900	65.0043
2896	65.0718
2892	65.1525
2888	65.1752
2884	65.1094
2880	64.9934
2876	64.9319
2872	64.9359
2868	65.0137
2864	65.1638
2860	65.1951
2856	65.1221
2852	65.1376
2848	65.1084
2844	65.0232
2840	65.0423
2836	65.0936
2832	65.1158
2828	65.1253
2824	65.1772
2820	65.2886
2816	65.3134
2812	65.2557
2808	65.2143
2804	65.1655
2800	65.1532
2796	65.1888
2792	65.2007
2788	65.1818
2784	65.1911
2780	65.2263
2776	65.2547
2772	65.2897
2768	65.288
2764	65.2933
2760	65.3493
2756	65.3314
2752	65.2256
2748	65.1878
2744	65.196
2740	65.1377
2736	65.1246
2732	65.1479
2728	65.1178
2724	65.1035
2720	65.1379
2716	65.2278
2712	65.2984
2708	65.3101
2704	65.3005
2700	65.2651
2696	65.2481
2692	65.2741
2688	65.2821
2684	65.2121
2680	65.15
2676	65.1724
2672	65.2188
2668	65.2591
2664	65.2561
2660	65.2059
2656	65.177
2652	65.1714
2648	65.1714
2644	65.1646
2640	65.1827
2636	65.2857
2632	65.3738
2628	65.3517
2624	65.2748
2620	65.1937
2616	65.1518
2612	65.1786
2608	65.2178
2604	65.2003
2600	65.1396
2596	65.1258
2592	65.2231
2588	65.3339
2584	65.3924
2580	65.4703
2576	65.4593
2572	65.2956
2568	65.1906
2564	65.228
2560	65.2804
2556	65.2775
2552	65.2396
2548	65.1779
2544	65.0943
2540	65.0785
2536	65.1915
2532	65.2712
2528	65.2241
2524	65.2275
2520	65.2733
2516	65.2398
2512	65.2215
2508	65.1223
2504	64.9309
2500	64.8901
2496	64.9607
2492	65.068
2488	65.2002
2484	65.2845
2480	65.308
2476	65.3051
2472	65.3543
2468	65.3565
2464	65.2422
2460	65.1814
2456	65.1753
2452	65.1682
2448	65.1867
2444	65.197
2440	65.2633
2436	65.4364
2432	65.4628
2428	65.181
2424	64.9243
2420	64.9082
2416	64.9626
2412	65.0279
2408	65.1118
2404	65.1128
2400	65.0644
2396	65.1114
2392	65.2354
2388	65.2802
2384	65.2388
2380	65.2609
2376	65.2943
2372	65.2344
2368	65.1897
2364	65.1885
2360	65.1876
2356	65.1872
2352	65.1439
2348	65.1112
2344	65.1804
2340	65.2783
2336	65.2659
2332	65.1944
2328	65.1863
2324	65.2258
2320	65.2696
2316	65.2939
2312	65.2959
2308	65.3124
2304	65.2923
2300	65.2025
2296	65.1718
2292	65.2143
2288	65.2649
2284	65.3189
2280	65.3452
2276	65.3232
2272	65.283
2268	65.2776
2264	65.3093
2260	65.311
2256	65.2688
2252	65.2628
2248	65.3026
2244	65.312
2240	65.2808
2236	65.2795
2232	65.3226
2228	65.3747
2224	65.372
2220	65.2949
2216	65.2495
2212	65.2736
2208	65.2709
2204	65.1956
2200	65.1763
2196	65.2584
2192	65.3387
2188	65.3507
2184	65.2825
2180	65.2518
2176	65.298
2172	65.3595
2168	65.364
2164	65.2799
2160	65.2068
2156	65.1426
2152	65.1367
2148	65.2689
2144	65.3873
2140	65.4095
2136	65.4112
2132	65.3566
2128	65.2188
2124	65.1781
2120	65.2313
2116	65.2128
2112	65.2374
2108	65.323
2104	65.3561
2100	65.3439
2096	65.2309
2092	65.1573
2088	65.2844
2084	65.4089
2080	65.3976
2076	65.3581
2072	65.3329
2068	65.2377
2064	65.0708
2060	65.0325
2056	65.1412
2052	65.2405
2048	65.3088
2044	65.3248
2040	65.3084
2036	65.283
2032	65.2608
2028	65.2648
2024	65.2613
2020	65.3066
2016	65.4191
2012	65.4638
2008	65.3974
2004	65.2593
2000	65.1555
1996	65.1676
1992	65.2013
1988	65.204
1984	65.189
1980	65.1757
1976	65.1945
1972	65.231
1968	65.2398
1964	65.2424
1960	65.2901
1956	65.3146
1952	65.2904
1948	65.2511
1944	65.2206
1940	65.2099
1936	65.1687
1932	65.1432
1928	65.1816
1924	65.2382
1920	65.292
1916	65.2938
1912	65.257
1908	65.247
1904	65.2237
1900	65.1904
1896	65.2079
1892	65.2294
1888	65.2254
1884	65.2124
1880	65.2217
1876	65.302
1872	65.3584
1868	65.3258
1864	65.2777
1860	65.266
1856	65.2725
1852	65.2277
1848	65.1707
1844	65.1883
1840	65.1889
1836	65.1582
1832	65.2139
1828	65.285
1824	65.3338
1820	65.385
1816	65.3702
1812	65.2782
1808	65.1736
1804	65.1859
1800	65.2995
1796	65.3396
1792	65.2641
1788	65.2039
1784	65.2423
1780	65.2483
1776	65.1901
1772	65.1548
1768	65.1637
1764	65.2432
1760	65.3306
1756	65.3353
1752	65.2228
1748	65.0703
1744	64.9787
1740	64.9512
1736	65.0069
1732	65.0544
1728	65.0388
1724	65.0713
1720	65.1321
1716	65.1783
1712	65.1204
1708	64.991
1704	65.0443
1700	65.1662
1696	65.1767
1692	65.1871
1688	65.1849
1684	65.1197
1680	65.0843
1676	65.0746
1672	65.0594
1668	65.1252
1664	65.1785
1660	65.1168
1656	65.0701
1652	65.0952
1648	65.1275
1644	65.1561
1640	65.1422
1636	65.0565
1632	65.0276
1628	65.0694
1624	65.0282
1620	64.8836
1616	64.782
1612	64.7896
1608	64.8554
1604	64.9481
1600	64.9971
1596	64.9672
1592	64.9539
1588	65.0131
1584	65.0344
1580	64.9728
1576	64.9158
1572	64.8912
1568	64.9122
1564	64.9254
1560	64.9036
1556	64.8922
1552	64.9092
1548	64.9928
1544	65.0265
1540	64.9728
1536	65.0058
1532	65.0729
1528	65.0742
1524	65.042
1520	64.994
1516	64.9209
1512	64.9065
1508	65.018
1504	65.0944
1500	65.092
1496	65.1022
1492	65.093
1488	65.0144
1484	64.9139
1480	64.9408
1476	65.0448
1472	65.0603
1468	65.0404
1464	65.0244
1460	64.9745
1456	64.8859
1452	64.8169
1448	64.836
1444	64.9126
1440	65.0303
1436	65.1198
1432	65.0954
1428	64.9873
1424	64.8703
1420	64.855
1416	64.9436
1412	65.0157
1408	65.0208
1404	65.0142
1400	65.0721
1396	65.1222
1392	65.04
1388	64.9323
1384	64.9417
1380	65.0582
1376	65.2031
1372	65.2169
1368	65.0902
1364	64.9859
1360	64.9774
1356	64.9511
1352	64.8884
1348	64.9199
1344	64.9711
1340	64.9893
1336	64.9933
1332	64.9462
1328	64.9074
1324	64.9094
1320	64.8849
1316	64.8697
1312	64.9037
1308	64.8974
1304	64.8981
1300	64.9621
1296	65.0285
1292	65.0816
1288	65.081
1284	65.0629
1280	65.0716
1276	64.9954
1272	64.8768
1268	64.8578
1264	64.8909
1260	64.896
1256	64.9035
1252	64.8887
1248	64.7876
1244	64.6921
1240	64.7212
1236	64.8454
1232	64.9107
1228	64.8935
1224	64.9301
1220	64.9687
1216	64.892
1212	64.7758
1208	64.7583
1204	64.8179
1200	64.8019
1196	64.7426
1192	64.7517
1188	64.7759
1184	64.7381
1180	64.6968
1176	64.6437
1172	64.5528
1168	64.5102
1164	64.5673
1160	64.6602
1156	64.6994
1152	64.7062
1148	64.731
1144	64.7565
1140	64.7946
1136	64.7923
1132	64.7265
1128	64.7323
1124	64.7638
1120	64.6925
1116	64.5784
1112	64.5617
1108	64.6733
1104	64.6669
1100	64.4832
1096	64.3684
1092	64.3726
1088	64.4025
1084	64.4014
1080	64.3672
1076	64.3515
1072	64.4013
1068	64.5337
1064	64.6602
1060	64.7047
1056	64.7621
1052	64.7696
1048	64.6203
1044	64.51
1040	64.5715
1036	64.5955
1032	64.4844
1028	64.4311
1024	64.2741
1020	64.0975
1016	64.3152
1012	64.5376
1008	64.4941
1004	64.4027
1000	64.2806
996	 64.2647
992	 64.4316
988	 64.6592
984	 64.8059
980	 64.7094
976	 64.4408
972	 64.4008
968	 64.4926
964	 64.3984
960	 64.4898
956	 64.6171
952	 64.6452
948	 64.9255
944	 65.1444
940	 64.9816
936	 64.6144
932	 64.5283
928	 64.7329
924	 64.9514
920	 65.0969
916	 65.0329
912	 64.9509
908	 64.8794
904	 64.8033
900	 64.7946
896	 64.7303
892	 64.6142
888	 64.538
884	 64.5896
880	 64.6461
876	 64.5303
872	 64.3483
868	 64.2999
864	 64.2943
860	 64.2054
856	 64.1605
852	 64.2528
848	 64.348
844	 64.3594
840	 64.3734
836	 64.3988
832	 64.3979
828	 64.3105
824	 64.0804
820	 63.9421
816	 63.9924
812	 64.071
808	 64.1402
804	 64.151
800	 64.1058
796	 63.944
792	 63.7181
788	 63.7279
784	 63.9882
780	 64.1491
776	 64.056
772	 63.8719
768	 63.7285
764	 63.6941
760	 63.6367
756	 63.473
752	 63.4909
748	 63.7547
744	 64.0078
740	 63.9479
736	 63.702
732	 63.6419
728	 63.5483
724	 63.3522
720	 63.2629
716	 63.2308
712	 63.1538
708	 62.8901
704	 62.6792
700	 62.8904
696	 63.1937
692	 63.2035
688	 63.0003
684	 62.8777
680	 63.0069
676	 62.9461
672	 62.5201
668	 62.0858
664	 61.9025
660	 62.0427
656	 62.2117
652	 62.2918
648	 62.3476
644	 62.4345
640	 62.4032
636	 62.1294
632	 62.1035
628	 62.2795
624	 62.1859
620	 61.8561
616	 61.6339
612	 61.7685
608	 61.9752
604	 62.0811
600	 62.1017
596	 61.8365
592	 61.5034
588	 61.5909
584	 61.9371
580	 61.9118
576	 61.3888
572	 60.8912
568	 60.8359
564	 61.0118
560	 61.05
556	 61.0204
552	 61.1404
548	 61.2613
544	 61.1883
540	 61.0082
536	 60.7944
532	 60.4995
528	 60.2395
524	 60.232
520	 60.5082
516	 60.7192
512	 60.6961
508	 60.7502
504	 60.6107
500	 60.1493
496	 59.8341
492	 59.9425
488	 60.2286
484	 59.9252
480	 59.4136
476	 59.3175
472	 58.9515
468	 58.5699
464	 58.8167
460	 59.7011
456	 60.8342
452	 60.8394
448	 59.2868
444	 57.742
440	 57.3657
436	 57.4731
432	 57.1841
428	 57.0522
424	 57.7818
420	 57.6257
416	 54.8209
412	 53.4962
408	 59.7283
404	 66.387
400	 59.6278
396	 46.1854
392	 37.814
388	 35.0542
384	 43.5222
380	 56.7418
376	 64.1546
372	 56.2475
370	 49.2285