File: Bakgrunnsmateriale/MATLAB/FTIR/ftir_data/subBb/Mapping_121/C-4040-8_t34_cm-1.asc
PE IR       SPECTRUM    SPECTRUM    ASCII       PEDS        1.60
  -1
C-1B6F~1.ASC
17/03/27
17:16:13.00
17/03/27
17:16:13.00
tln
$C-4040-8_t0034$<tbV0>[13.0,-5.2,8.0,0.0,27,1,0]
370
64

2002,4.07
MIRTGS : RIGHTBACK : INTERNAL 2
MIR : ON : INTERNAL 2
OPTKBR

0.200000
8
8.000000
FILLER
RATIO
SPECTRUM
UNLOCKED 256

DOUBLE
64
COMBINED
1
0
0

1.000000
RATIO

1
0
TRUE
51149
0
LEFT NOT FITTED RIGHT NOT FITTED 0
NONE
NONE
15600
12
4.427000
51148
TRUE
1 0 8 72 0 0 0 0

15798

#HDR
-1
-1
#GR
CM-1
%T
2.38419e-05
0.0
5000
-1.000000
4631
8
93.9141
47.9278
#DATA
5000	64.4539
4996	64.3345
4992	64.7434
4988	64.9469
4984	64.6493
4980	64.3786
4976	64.3667
4972	64.4582
4968	64.6539
4964	64.812
4960	64.7645
4956	64.675
4952	64.4966
4948	64.2288
4944	64.3739
4940	64.8753
4936	64.9088
4932	64.5883
4928	64.5482
4924	64.6364
4920	64.5947
4916	64.4386
4912	64.3911
4908	64.5964
4904	64.8402
4900	64.9464
4896	64.8556
4892	64.6453
4888	64.3012
4884	63.9014
4880	63.9628
4876	64.4115
4872	64.8401
4868	65.2276
4864	65.2448
4860	64.7854
4856	64.3343
4852	64.3368
4848	64.6481
4844	64.6867
4840	64.5163
4836	64.4745
4832	64.6188
4828	64.8976
4824	65.1287
4820	65.1618
4816	65.0555
4812	64.921
4808	64.8312
4804	64.8242
4800	64.8356
4796	64.935
4792	64.9847
4788	64.8782
4784	64.7905
4780	64.6717
4776	64.57
4772	64.6161
4768	64.785
4764	64.9503
4760	65.0321
4756	65.0499
4752	65.0243
4748	65.0483
4744	65.1583
4740	65.2638
4736	65.2715
4732	65.1616
4728	64.9565
4724	64.7983
4720	64.8566
4716	64.9291
4712	64.8565
4708	64.9257
4704	65.0561
4700	65.0551
4696	65.1504
4692	65.1641
4688	65.0064
4684	65.0683
4680	65.26
4676	65.2664
4672	65.1021
4668	65.0652
4664	65.1783
4660	65.1629
4656	65.109
4652	65.0373
4648	64.9239
4644	64.9702
4640	65.0877
4636	65.1181
4632	65.1194
4628	64.9659
4624	64.789
4620	64.9618
4616	65.1923
4612	65.2479
4608	65.245
4604	65.1057
4600	64.9241
4596	64.8715
4592	64.8814
4588	64.7803
4584	64.5492
4580	64.4913
4576	64.7683
4572	64.9333
4568	64.7861
4564	64.6574
4560	64.6028
4556	64.6679
4552	64.8525
4548	64.7816
4544	64.5537
4540	64.6982
4536	64.9261
4532	64.8744
4528	64.8794
4524	65.0987
4520	65.2507
4516	65.0113
4512	64.6912
4508	64.6124
4504	64.508
4500	64.2803
4496	64.2299
4492	64.4745
4488	64.6932
4484	64.8221
4480	64.9034
4476	64.6874
4472	64.1742
4468	63.725
4464	63.6493
4460	64.0561
4456	64.3972
4452	64.2286
4448	64.1078
4444	64.0917
4440	64.0934
4436	64.2986
4432	64.308
4428	64.1533
4424	64.1663
4420	64.241
4416	64.0361
4412	63.6212
4408	63.6119
4404	63.9821
4400	64.1492
4396	64.2699
4392	64.1409
4388	64.5876
4384	64.2595
4380	62.8502
4376	64.4146
4372	63.6289
4368	60.5653
4364	65.6876
4360	75.7351
4356	79.8631
4352	74.7922
4348	67.8278
4344	65.7176
4340	65.6798
4336	65.1953
4332	64.7989
4328	64.4563
4324	64.4676
4320	64.5414
4316	64.5438
4312	64.5294
4308	64.2745
4304	64.1138
4300	64.264
4296	64.4264
4292	64.4934
4288	64.4535
4284	64.3258
4280	64.4328
4276	64.5843
4272	64.3088
4268	64.0099
4264	64.2572
4260	64.5518
4256	64.5172
4252	64.5729
4248	64.6545
4244	64.4852
4240	64.3524
4236	64.4516
4232	64.6574
4228	64.7539
4224	64.6342
4220	64.5717
4216	64.6662
4212	64.7374
4208	64.8365
4204	65.0144
4200	65.0535
4196	64.9294
4192	64.8852
4188	64.8014
4184	64.5948
4180	64.5691
4176	64.7212
4172	64.5682
4168	64.1941
4164	64.2744
4160	64.5723
4156	64.6465
4152	64.7964
4148	65.1
4144	65.2256
4140	65.0694
4136	64.9392
4132	64.9074
4128	64.8484
4124	64.9042
4120	65.0212
4116	65.0004
4112	64.851
4108	64.7771
4104	64.9026
4100	65.0068
4096	65.0493
4092	65.106
4088	65.0218
4084	64.9579
4080	65.0586
4076	65.0944
4072	65.0141
4068	64.9305
4064	64.8837
4060	64.8616
4056	64.9288
4052	64.9583
4048	64.7958
4044	64.8369
4040	65.1055
4036	65.105
4032	64.9771
4028	65.0085
4024	65.0841
4020	65.215
4016	65.2998
4012	65.1277
4008	64.9015
4004	64.9052
4000	65.0571
3996	65.0568
3992	64.9804
3988	65.0545
3984	65.082
3980	65.0194
3976	65.0169
3972	65.0031
3968	65.0207
3964	65.0745
3960	65.0182
3956	64.882
3952	64.8198
3948	64.9856
3944	65.1919
3940	65.1094
3936	64.9159
3932	64.8216
3928	64.8078
3924	64.9278
3920	65.0395
3916	64.9487
3912	64.8013
3908	64.8375
3904	65.0422
3900	65.121
3896	65.0073
3892	64.9672
3888	64.9817
3884	64.9917
3880	65.1142
3876	65.1718
3872	64.9465
3868	64.7261
3864	64.815
3860	64.9664
3856	64.9665
3852	64.919
3848	64.8971
3844	64.9054
3840	64.8984
3836	64.8347
3832	64.7784
3828	64.9021
3824	65.1512
3820	65.1872
3816	65.0529
3812	64.9832
3808	64.8927
3804	64.7898
3800	64.8115
3796	64.9211
3792	65.0192
3788	65.0114
3784	64.9738
3780	64.9932
3776	64.9865
3772	64.954
3768	65.008
3764	65.1727
3760	65.2668
3756	65.2689
3752	65.2661
3748	65.1671
3744	65.0257
3740	64.9669
3736	64.9353
3732	64.9606
3728	65.0868
3724	65.1304
3720	64.9906
3716	64.9045
3712	64.9607
3708	64.9806
3704	65.0002
3700	65.0651
3696	65.1101
3692	65.1319
3688	65.1079
3684	65.0798
3680	65.1338
3676	65.1692
3672	65.0673
3668	64.9272
3664	64.8414
3660	64.8701
3656	64.9639
3652	64.9944
3648	64.9557
3644	64.9231
3640	64.9823
3636	65.0934
3632	65.1514
3628	65.1314
3624	65.1171
3620	65.1377
3616	65.1522
3612	65.1807
3608	65.1524
3604	65.0121
3600	64.8899
3596	64.8966
3592	64.9869
3588	65.0541
3584	65.0392
3580	65.0015
3576	65.0406
3572	65.1098
3568	65.0829
3564	64.9799
3560	64.9881
3556	65.136
3552	65.1738
3548	65.0629
3544	65.0453
3540	65.1895
3536	65.3135
3532	65.2839
3528	65.1624
3524	65.0754
3520	65.1554
3516	65.2951
3512	65.2328
3508	65.0348
3504	64.9809
3500	65.1236
3496	65.2225
3492	65.1919
3488	65.1785
3484	65.2705
3480	65.3134
3476	65.24
3472	65.2247
3468	65.3191
3464	65.3002
3460	65.074
3456	65.0016
3452	65.1448
3448	65.209
3444	65.2202
3440	65.2256
3436	65.1402
3432	65.0625
3428	65.0163
3424	64.9172
3420	64.8577
3416	64.8844
3412	64.9125
3408	64.9351
3404	65.0456
3400	65.1443
3396	65.0815
3392	64.9339
3388	64.8503
3384	64.9653
3380	65.1262
3376	65.0894
3372	65.0215
3368	65.0534
3364	65.0356
3360	65.0042
3356	65.0265
3352	64.9978
3348	64.9486
3344	64.9741
3340	65.0323
3336	65.0701
3332	65.0933
3328	65.0918
3324	65.0499
3320	65.023
3316	65.1083
3312	65.1809
3308	65.1848
3304	65.2004
3300	65.1563
3296	65.0805
3292	65.0621
3288	65.1487
3284	65.2274
3280	65.094
3276	64.9343
3272	64.9421
3268	65.08
3264	65.2771
3260	65.2972
3256	65.1244
3252	65.0328
3248	65.0507
3244	65.0834
3240	65.1412
3236	65.2082
3232	65.1808
3228	65.038
3224	64.981
3220	65.0386
3216	64.9782
3212	64.8732
3208	64.9702
3204	65.166
3200	65.3078
3196	65.3052
3192	65.1491
3188	65.0824
3184	65.1754
3180	65.2955
3176	65.3323
3172	65.2153
3168	65.0362
3164	64.9835
3160	65.0251
3156	64.9883
3152	64.9594
3148	65.0499
3144	65.1469
3140	65.1953
3136	65.2119
3132	65.0784
3128	64.8507
3124	64.8681
3120	65.1718
3116	65.4139
3112	65.3971
3108	65.3024
3104	65.2937
3100	65.2756
3096	65.2465
3092	65.2321
3088	65.1412
3084	65.0419
3080	65.0892
3076	65.1728
3072	65.1552
3068	65.1212
3064	65.1102
3060	65.1057
3056	65.0994
3052	65.0804
3048	65.071
3044	65.0763
3040	65.1283
3036	65.2285
3032	65.2788
3028	65.2631
3024	65.2035
3020	65.1254
3016	65.1227
3012	65.1706
3008	65.1789
3004	65.1248
3000	65.0177
2996	64.9434
2992	64.9771
2988	65.0662
2984	65.1163
2980	65.1187
2976	65.105
2972	65.128
2968	65.1361
2964	65.0388
2960	64.9995
2956	65.026
2952	64.9896
2948	64.9768
2944	65.0064
2940	65.034
2936	65.0904
2932	65.0808
2928	64.9606
2924	64.8689
2920	64.8115
2916	64.8169
2912	64.9005
2908	64.9196
2904	64.905
2900	65.011
2896	65.1795
2892	65.1908
2888	65.0701
2884	64.9836
2880	64.9418
2876	64.9598
2872	65.0427
2868	65.1291
2864	65.0584
2860	64.9078
2856	64.9027
2852	64.9316
2848	64.9591
2844	65.1163
2840	65.2603
2836	65.1778
2832	65.081
2828	65.1546
2824	65.2129
2820	65.2369
2816	65.282
2812	65.2985
2808	65.3114
2804	65.2825
2800	65.2195
2796	65.2228
2792	65.2313
2788	65.1949
2784	65.2003
2780	65.2473
2776	65.2422
2772	65.2002
2768	65.2084
2764	65.257
2760	65.2888
2756	65.2781
2752	65.2208
2748	65.1673
2744	65.1685
2740	65.1826
2736	65.1894
2732	65.2236
2728	65.2432
2724	65.2513
2720	65.2712
2716	65.2459
2712	65.208
2708	65.1982
2704	65.1937
2700	65.2348
2696	65.3191
2692	65.3032
2688	65.2095
2684	65.2101
2680	65.2604
2676	65.2613
2672	65.2866
2668	65.3429
2664	65.3072
2660	65.2341
2656	65.2289
2652	65.2076
2648	65.1527
2644	65.1865
2640	65.2837
2636	65.3287
2632	65.3071
2628	65.2624
2624	65.2231
2620	65.1843
2616	65.1883
2612	65.2317
2608	65.2874
2604	65.3207
2600	65.2722
2596	65.2285
2592	65.2106
2588	65.1508
2584	65.1069
2580	65.1218
2576	65.1809
2572	65.2557
2568	65.2306
2564	65.1365
2560	65.1363
2556	65.2299
2552	65.2729
2548	65.2789
2544	65.3294
2540	65.347
2536	65.3005
2532	65.2748
2528	65.2555
2524	65.2472
2520	65.2313
2516	65.1535
2512	65.1086
2508	65.151
2504	65.1993
2500	65.133
2496	65.0077
2492	65.036
2488	65.1832
2484	65.2291
2480	65.1802
2476	65.1656
2472	65.161
2468	65.1429
2464	65.1631
2460	65.2229
2456	65.285
2452	65.3015
2448	65.2598
2444	65.2205
2440	65.1923
2436	65.1168
2432	65.1036
2428	65.2346
2424	65.3284
2420	65.3113
2416	65.2322
2412	65.1159
2408	65.0385
2404	65.0915
2400	65.2375
2396	65.3381
2392	65.3797
2388	65.3749
2384	65.3387
2380	65.3354
2376	65.3621
2372	65.3919
2368	65.3736
2364	65.3049
2360	65.2498
2356	65.2318
2352	65.2674
2348	65.3498
2344	65.4161
2340	65.3691
2336	65.2993
2332	65.3156
2328	65.3311
2324	65.3254
2320	65.3078
2316	65.2911
2312	65.309
2308	65.326
2304	65.3163
2300	65.2855
2296	65.2695
2292	65.2904
2288	65.3288
2284	65.3224
2280	65.2448
2276	65.1998
2272	65.2354
2268	65.2728
2264	65.2702
2260	65.2382
2256	65.1806
2252	65.1888
2248	65.2728
2244	65.3372
2240	65.4018
2236	65.4352
2232	65.3603
2228	65.217
2224	65.1234
2220	65.1408
2216	65.188
2212	65.22
2208	65.2698
2204	65.2967
2200	65.2941
2196	65.3328
2192	65.3879
2188	65.3728
2184	65.3588
2180	65.3909
2176	65.3461
2172	65.28
2168	65.3132
2164	65.3343
2160	65.2193
2156	65.1327
2152	65.204
2148	65.2315
2144	65.1771
2140	65.201
2136	65.2915
2132	65.3682
2128	65.3647
2124	65.3036
2120	65.2669
2116	65.2539
2112	65.2504
2108	65.276
2104	65.3129
2100	65.2966
2096	65.2619
2092	65.3136
2088	65.3969
2084	65.406
2080	65.4022
2076	65.3862
2072	65.2813
2068	65.1705
2064	65.2148
2060	65.4029
2056	65.4211
2052	65.2752
2048	65.2595
2044	65.3071
2040	65.2903
2036	65.2644
2032	65.2625
2028	65.2366
2024	65.22
2020	65.2661
2016	65.3055
2012	65.3101
2008	65.3454
2004	65.3978
2000	65.4209
1996	65.4144
1992	65.3335
1988	65.2669
1984	65.3156
1980	65.35
1976	65.3377
1972	65.3041
1968	65.2605
1964	65.3147
1960	65.4069
1956	65.3943
1952	65.3299
1948	65.2998
1944	65.2835
1940	65.2768
1936	65.3229
1932	65.4269
1928	65.4771
1924	65.4025
1920	65.3164
1916	65.2991
1912	65.2993
1908	65.2662
1904	65.2484
1900	65.308
1896	65.379
1892	65.3467
1888	65.2657
1884	65.2463
1880	65.2756
1876	65.3122
1872	65.3232
1868	65.3138
1864	65.3062
1860	65.286
1856	65.2684
1852	65.2681
1848	65.2857
1844	65.3365
1840	65.3407
1836	65.2439
1832	65.1635
1828	65.1923
1824	65.2638
1820	65.3118
1816	65.3267
1812	65.3172
1808	65.27
1804	65.2114
1800	65.2247
1796	65.2308
1792	65.1919
1788	65.1909
1784	65.191
1780	65.1844
1776	65.1973
1772	65.2305
1768	65.2511
1764	65.2061
1760	65.1797
1756	65.2424
1752	65.2855
1748	65.2193
1744	65.1425
1740	65.0882
1736	65.0011
1732	64.9632
1728	64.993
1724	65.0517
1720	65.1304
1716	65.1927
1712	65.2923
1708	65.39
1704	65.3522
1700	65.2935
1696	65.2816
1692	65.2721
1688	65.3164
1684	65.307
1680	65.2092
1676	65.1222
1672	65.0726
1668	65.0748
1664	65.0975
1660	65.132
1656	65.1543
1652	65.1492
1648	65.155
1644	65.1622
1640	65.1713
1636	65.1925
1632	65.198
1628	65.1751
1624	65.1532
1620	65.163
1616	65.1856
1612	65.1716
1608	65.1714
1604	65.2337
1600	65.2541
1596	65.2078
1592	65.1923
1588	65.1993
1584	65.1497
1580	65.0842
1576	65.0579
1572	65.0488
1568	65.0165
1564	64.9964
1560	65.01
1556	64.9915
1552	64.9967
1548	65.0099
1544	64.9579
1540	64.9358
1536	64.9576
1532	64.9614
1528	64.9568
1524	64.9944
1520	65.0801
1516	65.1674
1512	65.2199
1508	65.1963
1504	65.1487
1500	65.1618
1496	65.2229
1492	65.205
1488	65.1278
1484	65.1138
1480	65.098
1476	65.0952
1472	65.0852
1468	65.0137
1464	64.9825
1460	65.0191
1456	65.0324
1452	65.0147
1448	65.1468
1444	65.3221
1440	65.2267
1436	65.0398
1432	65.0072
1428	64.9915
1424	64.9477
1420	64.9713
1416	65.0427
1412	65.0599
1408	65.0097
1404	65.023
1400	65.1172
1396	65.1811
1392	65.1306
1388	65.0093
1384	64.9277
1380	64.9307
1376	64.987
1372	65.0212
1368	65.0343
1364	65.0397
1360	65.0506
1356	65.1128
1352	65.1297
1348	64.9981
1344	64.8952
1340	64.9943
1336	65.0893
1332	65.0095
1328	64.9692
1324	65.0718
1320	65.142
1316	65.1127
1312	65.0618
1308	65.0393
1304	65.0048
1300	64.9501
1296	64.94
1292	64.9343
1288	64.9061
1284	64.9147
1280	64.9982
1276	65.0781
1272	65.0516
1268	65.0126
1264	65.033
1260	65.0249
1256	64.9639
1252	64.9691
1248	65.0198
1244	65.0078
1240	64.9579
1236	64.9049
1232	64.8955
1228	64.9239
1224	64.882
1220	64.8466
1216	64.8608
1212	64.8426
1208	64.8094
1204	64.7475
1200	64.7399
1196	64.8219
1192	64.8932
1188	64.9204
1184	64.9435
1180	64.9847
1176	64.997
1172	64.8895
1168	64.7035
1164	64.565
1160	64.5166
1156	64.6285
1152	64.7395
1148	64.6898
1144	64.724
1140	64.8851
1136	64.9702
1132	64.8719
1128	64.7151
1124	64.7146
1120	64.7026
1116	64.6488
1112	64.7123
1108	64.7223
1104	64.6824
1100	64.6853
1096	64.5328
1092	64.339
1088	64.3534
1084	64.5615
1080	64.896
1076	65.1237
1072	64.9707
1068	64.6092
1064	64.4618
1060	64.5447
1056	64.8072
1052	65.0558
1048	65.0576
1044	64.9285
1040	64.751
1036	64.7105
1032	64.7709
1028	64.7869
1024	64.9279
1020	65.0627
1016	64.8933
1012	64.7657
1008	64.8423
1004	64.7832
1000	64.715
996	 64.6524
992	 64.563
988	 64.7277
984	 64.9511
980	 64.9016
976	 64.7788
972	 64.7683
968	 64.6392
964	 64.3357
960	 64.1736
956	 64.3385
952	 64.5502
948	 64.5725
944	 64.5627
940	 64.5246
936	 64.5305
932	 64.6092
928	 64.523
924	 64.4027
920	 64.5025
916	 64.7132
912	 64.7345
908	 64.5769
904	 64.4861
900	 64.4227
896	 64.33
892	 64.2829
888	 64.3301
884	 64.449
880	 64.4566
876	 64.3628
872	 64.3007
868	 64.3266
864	 64.4876
860	 64.5483
856	 64.4599
852	 64.4431
848	 64.4145
844	 64.2982
840	 64.1894
836	 64.1585
832	 64.2113
828	 64.2071
824	 64.1949
820	 64.1788
816	 64.0955
812	 64.0782
808	 64.1158
804	 64.1139
800	 64.0477
796	 64.1106
792	 64.269
788	 64.3417
784	 64.3199
780	 64.1559
776	 63.9578
772	 63.8538
768	 63.7492
764	 63.6392
760	 63.6029
756	 63.7031
752	 63.8792
748	 63.9791
744	 64.0995
740	 64.1011
736	 63.7838
732	 63.5052
728	 63.5151
724	 63.6048
720	 63.5483
716	 63.3377
712	 63.3317
708	 63.5563
704	 63.5792
700	 63.4478
696	 63.2654
692	 63.0948
688	 63.1101
684	 63.1104
680	 62.951
676	 62.7509
672	 62.7315
668	 62.9647
664	 63.1052
660	 63.1076
656	 63.1261
652	 62.9768
648	 62.7521
644	 62.5835
640	 62.3677
636	 62.2853
632	 62.384
628	 62.4892
624	 62.6934
620	 62.7907
616	 62.4676
612	 62.1427
608	 62.288
604	 62.6415
600	 62.5804
596	 62.1811
592	 61.9325
588	 61.8247
584	 61.7205
580	 61.7262
576	 61.817
572	 61.7289
568	 61.6297
564	 61.7324
560	 61.8553
556	 61.791
552	 61.4847
548	 61.2194
544	 61.2175
540	 61.3917
536	 61.4534
532	 61.1408
528	 60.8925
524	 61.0654
520	 61.1765
516	 60.9962
512	 60.9195
508	 60.8943
504	 60.7426
500	 60.6321
496	 60.3913
492	 60.3295
488	 60.7995
484	 60.8793
480	 60.0103
476	 59.248
472	 59.1309
468	 59.3246
464	 59.6483
460	 59.4274
456	 58.8333
452	 58.808
448	 59.0316
444	 58.7839
440	 57.932
436	 57.7394
432	 58.7981
428	 58.9489
424	 57.7135
420	 56.0407
416	 54.8641
412	 54.8512
408	 55.0592
404	 56.7439
400	 62.6375
396	 74.6258
392	 86.7357
388	 92.305
384	 93.8673
380	 88.6209
376	 73.1343
372	 52.2387
370	 47.9278