File: Bakgrunnsmateriale/MATLAB/FTIR/ftir_data/subBb/Mapping_121/C-4040-8_t102_cm-1.asc
PE IR       SPECTRUM    SPECTRUM    ASCII       PEDS        1.60
  -1
C-478C~1.ASC
17/03/27
22:52:01.00
17/03/27
22:52:01.00
tln
$C-4040-8_t0102$<tbV0>[7.8,10.4,8.0,0.0,27,1,0]
370
64

2002,4.07
MIRTGS : RIGHTBACK : INTERNAL 2
MIR : ON : INTERNAL 2
OPTKBR

0.200000
8
8.000000
FILLER
RATIO
SPECTRUM
UNLOCKED 256

DOUBLE
64
COMBINED
1
0
0

1.000000
RATIO

1
0
TRUE
51149
0
LEFT NOT FITTED RIGHT NOT FITTED 0
NONE
NONE
15600
12
4.427000
51148
TRUE
1 0 8 72 0 0 0 0

15798

#HDR
-1
-1
#GR
CM-1
%T
2.38419e-05
0.0
5000
-1.000000
4631
8
200
47.7644
#DATA
5000	65.0988
4996	64.6827
4992	64.6316
4988	65.0918
4984	65.0942
4980	64.5122
4976	64.3495
4972	64.4752
4968	64.3846
4964	64.4783
4960	64.9289
4956	65.1298
4952	65.1366
4948	65.1546
4944	64.754
4940	64.3977
4936	64.5286
4932	64.6946
4928	64.7807
4924	64.9605
4920	65.0219
4916	64.9509
4912	64.933
4908	64.6933
4904	64.475
4900	64.9269
4896	65.3333
4892	65.1074
4888	65.1662
4884	65.322
4880	64.7736
4876	64.3153
4872	64.7799
4868	65.4922
4864	65.3932
4860	64.9408
4856	64.814
4852	64.8577
4848	65.0327
4844	65.0108
4840	64.7819
4836	64.8075
4832	64.8883
4828	64.8001
4824	64.675
4820	64.7084
4816	64.9411
4812	65.1853
4808	65.2933
4804	65.1485
4800	65.1319
4796	65.424
4792	65.4155
4788	65.2203
4784	65.2493
4780	65.2012
4776	65.047
4772	64.978
4768	64.9327
4764	64.9272
4760	65.1646
4756	65.4363
4752	65.4294
4748	65.1725
4744	64.7223
4740	64.5664
4736	64.953
4732	65.2515
4728	65.1333
4724	65.0671
4720	65.14
4716	65.1694
4712	65.2926
4708	65.3755
4704	65.2881
4700	65.1216
4696	65.016
4692	65.0381
4688	65.1381
4684	65.238
4680	65.1875
4676	65.1712
4672	65.3804
4668	65.5444
4664	65.6018
4660	65.6223
4656	65.5368
4652	65.4565
4648	65.4917
4644	65.6068
4640	65.6431
4636	65.4461
4632	65.2848
4628	65.3822
4624	65.3889
4620	65.1802
4616	64.9738
4612	64.8152
4608	64.7132
4604	64.7693
4600	64.9822
4596	65.2344
4592	65.3867
4588	65.2945
4584	65.1062
4580	64.919
4576	64.6717
4572	64.6233
4568	64.8277
4564	65.0954
4560	65.3494
4556	65.4378
4552	65.2674
4548	65.1405
4544	65.1222
4540	64.8049
4536	64.0622
4532	63.6696
4528	64.1958
4524	64.4575
4520	64.0435
4516	63.9615
4512	64.1987
4508	64.2827
4504	64.2196
4500	64.3466
4496	64.5543
4492	64.4837
4488	64.2763
4484	64.1869
4480	64.1743
4476	64.1147
4472	64.0744
4468	64.2509
4464	64.4154
4460	64.1462
4456	63.7253
4452	63.5058
4448	63.6611
4444	63.8536
4440	63.8255
4436	63.9345
4432	64.1315
4428	64.12
4424	64.1814
4420	64.1551
4416	64.2375
4412	64.1845
4408	63.4
4404	62.8794
4400	62.8354
4396	62.3586
4392	63.7137
4388	96.5726
4384	121.808
4380	90.9672
4376	68.0269
4372	65.7794
4368	65.7419
4364	64.8581
4360	64.2213
4356	63.801
4352	63.6187
4348	64.0978
4344	64.3759
4340	64.2913
4336	64.1093
4332	63.998
4328	64.3473
4324	64.7668
4320	64.7155
4316	64.3743
4312	64.1205
4308	64.051
4304	64.0494
4300	63.9867
4296	63.9272
4292	63.8571
4288	63.8116
4284	64.1105
4280	64.4441
4276	64.516
4272	64.6087
4268	64.7678
4264	64.8569
4260	64.8724
4256	64.76
4252	64.453
4248	64.1846
4244	64.0828
4240	64.2079
4236	64.5834
4232	64.7977
4228	64.7225
4224	64.544
4220	64.493
4216	64.6128
4212	64.6223
4208	64.6503
4204	64.7806
4200	64.5935
4196	64.2977
4192	64.5258
4188	64.9029
4184	64.9149
4180	65.0907
4176	65.464
4172	65.2327
4168	64.7217
4164	64.8347
4160	65.2174
4156	65.2255
4152	65.0036
4148	64.8626
4144	64.8684
4140	64.914
4136	64.8733
4132	64.7444
4128	64.7643
4124	64.9952
4120	65.1463
4116	65.0997
4112	65.0278
4108	65.1308
4104	65.2762
4100	65.3197
4096	65.3372
4092	65.2924
4088	65.2386
4084	65.1957
4080	65.0447
4076	64.8629
4072	64.9085
4068	65.1488
4064	65.234
4060	65.2036
4056	65.1867
4052	65.1182
4048	65.0815
4044	65.1474
4040	65.2503
4036	65.2551
4032	65.1516
4028	65.1596
4024	65.4053
4020	65.5434
4016	65.3171
4012	65.0696
4008	64.9812
4004	64.9569
4000	65.0179
3996	65.0815
3992	65.1009
3988	65.2436
3984	65.4373
3980	65.3579
3976	65.1132
3972	64.9865
3968	65.0233
3964	65.1949
3960	65.2174
3956	64.9341
3952	64.7178
3948	64.7593
3944	64.8381
3940	64.8911
3936	64.9402
3932	64.9111
3928	64.8538
3924	64.858
3920	64.8579
3916	64.9057
3912	65.0871
3908	65.1876
3904	65.102
3900	64.9839
3896	64.9699
3892	65.0655
3888	65.1121
3884	65.0038
3880	64.9133
3876	64.9831
3872	64.9837
3868	64.9621
3864	65.061
3860	65.0452
3856	64.9488
3852	64.9531
3848	65.1017
3844	65.259
3840	65.1823
3836	64.9431
3832	64.7184
3828	64.6717
3824	64.8718
3820	64.9681
3816	64.9083
3812	65.0244
3808	65.1088
3804	65.0104
3800	65.0071
3796	65.0271
3792	64.9323
3788	64.8782
3784	64.846
3780	64.7715
3776	64.8398
3772	64.9938
3768	65.0353
3764	64.9853
3760	64.945
3756	65.0395
3752	65.1794
3748	65.2652
3744	65.2398
3740	65.0784
3736	65.0118
3732	65.1639
3728	65.4102
3724	65.4277
3720	65.2021
3716	65.1015
3712	65.1618
3708	65.2251
3704	65.2255
3700	65.1935
3696	65.2801
3692	65.4083
3688	65.3403
3684	65.1913
3680	65.1071
3676	65.0892
3672	65.1741
3668	65.2728
3664	65.2698
3660	65.1807
3656	65.1057
3652	65.0661
3648	65.0963
3644	65.1128
3640	65.0146
3636	65.017
3632	65.1094
3628	65.1731
3624	65.2713
3620	65.3032
3616	65.268
3612	65.2539
3608	65.2352
3604	65.2232
3600	65.1519
3596	65.0849
3592	65.176
3588	65.2853
3584	65.3764
3580	65.4273
3576	65.2959
3572	65.2866
3568	65.5572
3564	65.5747
3560	65.1898
3556	64.9042
3552	64.8657
3548	64.8342
3544	64.8631
3540	65.0543
3536	65.1934
3532	65.2211
3528	65.2247
3524	65.251
3520	65.2363
3516	65.1126
3512	65.0993
3508	65.258
3504	65.2837
3500	65.1466
3496	65.0491
3492	64.9899
3488	65.0283
3484	65.0111
3480	64.9119
3476	65.0797
3472	65.3455
3468	65.3973
3464	65.361
3460	65.3938
3456	65.3511
3452	65.179
3448	65.0893
3444	65.1563
3440	65.3215
3436	65.3935
3432	65.3058
3428	65.2499
3424	65.2095
3420	65.1185
3416	65.0804
3412	65.0492
3408	65.0823
3404	65.2111
3400	65.1893
3396	65.0621
3392	65.0319
3388	65.0564
3384	65.0869
3380	65.0736
3376	64.9365
3372	64.827
3368	64.8884
3364	65.0359
3360	65.1099
3356	65.0533
3352	65.0044
3348	65.0313
3344	65.0312
3340	65.0458
3336	65.0836
3332	65.0309
3328	64.9776
3324	64.9644
3320	64.936
3316	64.9255
3312	64.9174
3308	64.9152
3304	64.9755
3300	65.0024
3296	64.9637
3292	64.9618
3288	64.9993
3284	65.0918
3280	65.1601
3276	65.1772
3272	65.2231
3268	65.2433
3264	65.2369
3260	65.204
3256	65.1364
3252	65.0855
3248	65.0558
3244	65.0449
3240	65.0217
3236	65.0081
3232	65.0917
3228	65.1904
3224	65.255
3220	65.3682
3216	65.3979
3212	65.2748
3208	65.1653
3204	65.1418
3200	65.0826
3196	64.9484
3192	64.953
3188	65.064
3184	65.11
3180	65.1381
3176	65.1777
3172	65.2372
3168	65.2688
3164	65.2748
3160	65.3057
3156	65.2576
3152	65.1258
3148	65.0764
3144	65.2395
3140	65.4021
3136	65.3007
3132	65.3131
3128	65.4872
3124	65.2772
3120	65.0488
3116	65.1297
3112	65.0926
3108	65.1103
3104	65.2555
3100	65.1961
3096	65.1107
3092	65.1508
3088	65.1653
3084	65.1179
3080	65.1359
3076	65.2583
3072	65.3268
3068	65.2426
3064	65.1365
3060	65.0998
3056	65.0961
3052	65.1335
3048	65.194
3044	65.1871
3040	65.1524
3036	65.1663
3032	65.187
3028	65.2017
3024	65.1919
3020	65.15
3016	65.1384
3012	65.1791
3008	65.2211
3004	65.2341
3000	65.1662
2996	65.116
2992	65.1983
2988	65.1798
2984	65.0532
2980	65.0825
2976	65.1553
2972	65.0902
2968	65.0091
2964	64.9861
2960	65.0063
2956	65.0233
2952	64.96
2948	64.944
2944	65.0707
2940	65.1933
2936	65.2148
2932	65.1258
2928	64.923
2924	64.7218
2920	64.6914
2916	64.8484
2912	64.9865
2908	65.0202
2904	65.0651
2900	65.0776
2896	65.0616
2892	65.1012
2888	65.097
2884	65.022
2880	65.0507
2876	65.1607
2872	65.1383
2868	65.0459
2864	65.1474
2860	65.3075
2856	65.2007
2852	64.9414
2848	64.8306
2844	64.9241
2840	65.0822
2836	65.2226
2832	65.2567
2828	65.1578
2824	65.0852
2820	65.1347
2816	65.2395
2812	65.2707
2808	65.1985
2804	65.1323
2800	65.1614
2796	65.2794
2792	65.3721
2788	65.3454
2784	65.3021
2780	65.2778
2776	65.1696
2772	65.0972
2768	65.1659
2764	65.2123
2760	65.1873
2756	65.1783
2752	65.1592
2748	65.1355
2744	65.1626
2740	65.2205
2736	65.2429
2732	65.1807
2728	65.1047
2724	65.1312
2720	65.2156
2716	65.244
2712	65.2063
2708	65.1606
2704	65.1452
2700	65.1513
2696	65.1953
2692	65.2338
2688	65.2022
2684	65.1879
2680	65.2126
2676	65.2386
2672	65.2868
2668	65.3266
2664	65.3511
2660	65.3216
2656	65.2233
2652	65.1658
2648	65.1576
2644	65.1555
2640	65.1619
2636	65.1782
2632	65.2482
2628	65.2886
2624	65.2169
2620	65.1705
2616	65.2207
2612	65.2145
2608	65.0998
2604	65.0626
2600	65.0864
2596	65.064
2592	65.1307
2588	65.274
2584	65.264
2580	65.1189
2576	65.0377
2572	65.0598
2568	65.1556
2564	65.2472
2560	65.2369
2556	65.2094
2552	65.2065
2548	65.2226
2544	65.2798
2540	65.2923
2536	65.1923
2532	65.045
2528	65.0275
2524	65.1755
2520	65.2104
2516	65.0735
2512	65.0877
2508	65.1397
2504	64.9781
2500	65.0061
2496	65.2536
2492	65.2869
2488	65.2186
2484	65.2162
2480	65.2591
2476	65.3006
2472	65.2898
2468	65.2648
2464	65.2336
2460	65.1289
2456	64.9953
2452	64.9866
2448	65.0222
2444	65.0487
2440	65.2129
2436	65.3249
2432	65.3374
2428	65.4465
2424	65.4468
2420	65.2659
2416	65.0481
2412	64.8869
2408	64.9542
2404	65.1696
2400	65.284
2396	65.2625
2392	65.25
2388	65.2438
2384	65.1793
2380	65.2074
2376	65.2427
2372	65.1715
2368	65.1453
2364	65.1818
2360	65.2467
2356	65.2885
2352	65.2871
2348	65.3456
2344	65.3802
2340	65.2836
2336	65.1731
2332	65.1302
2328	65.1824
2324	65.3016
2320	65.3486
2316	65.2819
2312	65.2124
2308	65.1897
2304	65.1687
2300	65.1701
2296	65.2368
2292	65.3172
2288	65.3285
2284	65.2904
2280	65.2849
2276	65.3097
2272	65.3021
2268	65.2797
2264	65.2798
2260	65.2706
2256	65.2259
2252	65.2099
2248	65.2754
2244	65.2836
2240	65.1789
2236	65.1272
2232	65.1466
2228	65.1639
2224	65.1975
2220	65.1811
2216	65.1409
2212	65.172
2208	65.1861
2204	65.1409
2200	65.098
2196	65.1019
2192	65.1457
2188	65.2024
2184	65.2566
2180	65.2139
2176	65.0752
2172	65.0496
2168	65.1568
2164	65.2331
2160	65.235
2156	65.2171
2152	65.2319
2148	65.224
2144	65.2006
2140	65.1952
2136	65.1378
2132	65.0963
2128	65.1186
2124	65.1218
2120	65.1727
2116	65.2993
2112	65.3982
2108	65.368
2104	65.2105
2100	65.1118
2096	65.1536
2092	65.2168
2088	65.1674
2084	65.1354
2080	65.296
2076	65.6276
2072	66.0943
2068	66.229
2064	65.9056
2060	65.5476
2056	65.1166
2052	64.8739
2048	65.0713
2044	65.2543
2040	65.1976
2036	65.0826
2032	65.0658
2028	65.1299
2024	65.1437
2020	65.1368
2016	65.2396
2012	65.3772
2008	65.4058
2004	65.3371
2000	65.2405
1996	65.1502
1992	65.1062
1988	65.1755
1984	65.3024
1980	65.3314
1976	65.29
1972	65.3229
1968	65.382
1964	65.3203
1960	65.1871
1956	65.1244
1952	65.1201
1948	65.1321
1944	65.1972
1940	65.3496
1936	65.4816
1932	65.4684
1928	65.3717
1924	65.276
1920	65.2504
1916	65.2607
1912	65.1995
1908	65.1111
1904	65.1034
1900	65.175
1896	65.2371
1892	65.23
1888	65.2154
1884	65.2356
1880	65.2102
1876	65.163
1872	65.1327
1868	65.0925
1864	65.0955
1860	65.1286
1856	65.1676
1852	65.2661
1848	65.3419
1844	65.3226
1840	65.2843
1836	65.2783
1832	65.3307
1828	65.3516
1824	65.2613
1820	65.188
1816	65.1568
1812	65.1082
1808	65.0846
1804	65.1066
1800	65.1194
1796	65.1333
1792	65.1852
1788	65.1635
1784	65.1004
1780	65.1476
1776	65.2558
1772	65.2648
1768	65.1445
1764	65.0644
1760	65.0645
1756	65.0741
1752	65.1346
1748	65.1948
1744	65.1835
1740	65.0971
1736	64.9631
1732	64.8977
1728	64.8536
1724	64.7911
1720	64.8374
1716	64.9243
1712	64.9338
1708	64.9608
1704	65.0345
1700	65.038
1696	64.9929
1692	64.9832
1688	64.9926
1684	65.0159
1680	65.0488
1676	65.1043
1672	65.1508
1668	65.1305
1664	65.1306
1660	65.1453
1656	65.0809
1652	65.0275
1648	65.0373
1644	65.0432
1640	65.1224
1636	65.2498
1632	65.2177
1628	65.0897
1624	65.0269
1620	64.9636
1616	64.898
1612	64.9554
1608	65.0954
1604	65.1579
1600	65.0879
1596	65.0131
1592	65.025
1588	65.0507
1584	65.0639
1580	65.0541
1576	64.9896
1572	64.8959
1568	64.8407
1564	64.8097
1560	64.8125
1556	64.9399
1552	65.0788
1548	65.0505
1544	64.9455
1540	64.9326
1536	64.983
1532	65.0179
1528	65.0082
1524	64.9953
1520	65.0236
1516	65.006
1512	64.9728
1508	65.033
1504	65.1313
1500	65.2024
1496	65.2195
1492	65.1793
1488	65.1362
1484	65.117
1480	65.0868
1476	64.9989
1472	64.9294
1468	64.9376
1464	65.0157
1460	65.0728
1456	65.0302
1452	65.0464
1448	65.0539
1444	64.9665
1440	64.8719
1436	64.7691
1432	64.7902
1428	64.9645
1424	65.0936
1420	65.0821
1416	65.0211
1412	65.0217
1408	65.0904
1404	65.0731
1400	64.9791
1396	64.9571
1392	64.9511
1388	64.9656
1384	65.0334
1380	64.9966
1376	64.8648
1372	64.8351
1368	64.9273
1364	64.9984
1360	65.0092
1356	65.0524
1352	65.088
1348	65.0808
1344	65.0575
1340	64.9726
1336	64.8987
1332	64.9343
1328	64.9697
1324	64.9277
1320	64.853
1316	64.7895
1312	64.7646
1308	64.8038
1304	64.9522
1300	65.0958
1296	65.1381
1292	65.1444
1288	65.1261
1284	65.0673
1280	64.9974
1276	64.9771
1272	64.9575
1268	64.8691
1264	64.8291
1260	64.8934
1256	64.9762
1252	65.0087
1248	64.9843
1244	64.9576
1240	64.9674
1236	64.9844
1232	64.9703
1228	64.9384
1224	64.9293
1220	64.9757
1216	65.013
1212	64.9804
1208	64.9402
1204	64.9359
1200	64.932
1196	64.8966
1192	64.8581
1188	64.8219
1184	64.8023
1180	64.8669
1176	64.9066
1172	64.9067
1168	64.9078
1164	64.8027
1160	64.7768
1156	64.8594
1152	64.8365
1148	64.7811
1144	64.8285
1140	64.927
1136	64.8693
1132	64.7382
1128	64.7833
1124	64.8849
1120	64.8858
1116	64.9449
1112	65.1074
1108	65.1652
1104	65.0508
1100	64.783
1096	64.5915
1092	64.6107
1088	64.5332
1084	64.3774
1080	64.4751
1076	64.76
1072	64.8919
1068	64.8365
1064	64.7404
1060	64.7424
1056	64.8636
1052	64.8792
1048	64.8149
1044	64.7865
1040	64.7205
1036	64.7062
1032	64.7418
1028	64.7053
1024	64.7916
1020	64.92
1016	64.6372
1012	64.2211
1008	64.1227
1004	64.2461
1000	64.416
996	 64.5128
992	 64.5882
988	 64.6914
984	 64.7001
980	 64.7151
976	 64.7175
972	 64.6264
968	 64.6713
964	 64.7986
960	 64.8561
956	 64.784
952	 64.5379
948	 64.3358
944	 64.2764
940	 64.2223
936	 64.144
932	 64.3139
928	 64.7403
924	 65.0195
920	 64.9152
916	 64.5795
912	 64.3625
908	 64.3877
904	 64.3407
900	 64.1291
896	 64.2858
892	 64.5911
888	 64.5849
884	 64.4484
880	 64.4542
876	 64.5599
872	 64.3466
868	 64.0388
864	 64.043
860	 64.2436
856	 64.3005
852	 64.1175
848	 63.9278
844	 63.9323
840	 64.0206
836	 64.0312
832	 64.032
828	 63.9491
824	 63.8654
820	 63.9782
816	 64.1301
812	 64.0712
808	 63.8734
804	 63.7641
800	 63.7648
796	 63.834
792	 63.8588
788	 63.8472
784	 63.9396
780	 64.078
776	 64.0698
772	 63.9199
768	 63.8849
764	 63.9075
760	 63.7336
756	 63.4645
752	 63.5526
748	 64.0876
744	 63.9995
740	 63.2241
736	 63.0358
732	 63.4082
728	 63.5235
724	 63.2568
720	 62.9603
716	 62.8253
712	 62.9449
708	 63.2895
704	 63.606
700	 63.5599
696	 63.2366
692	 63.2139
688	 63.4376
684	 63.4462
680	 63.2788
676	 63.0745
672	 62.9139
668	 62.9509
664	 63.0153
660	 62.8278
656	 62.7232
652	 62.9564
648	 63.2516
644	 63.1927
640	 62.8462
636	 62.8116
632	 62.961
628	 62.9963
624	 63.1281
620	 62.9894
616	 62.4095
612	 62.0937
608	 62.2178
604	 62.3049
600	 62.282
596	 62.4374
592	 62.6172
588	 62.5213
584	 62.3177
580	 62.1513
576	 62.1231
572	 62.2675
568	 62.2522
564	 62.0628
560	 62.0693
556	 62.56
552	 62.9841
548	 62.7847
544	 62.3003
540	 62.068
536	 62.1779
532	 61.9949
528	 61.7959
524	 61.995
520	 62.0839
516	 62.0599
512	 62.0288
508	 61.7804
504	 61.3354
500	 60.7674
496	 60.5463
492	 61.1393
488	 61.4408
484	 60.8195
480	 60.3609
476	 60.5166
472	 60.436
468	 59.3421
464	 57.6789
460	 57.1052
456	 58.044
452	 58.6455
448	 58.9645
444	 58.9427
440	 58.449
436	 58.6287
432	 58.0189
428	 56.8612
424	 57.2609
420	 58.483
416	 58.4919
412	 56.6711
408	 55.0642
404	 58.4472
400	 62.9771
396	 54.2198
392	 47.86
388	 52.7586
384	 59.9178
380	 63.3013
376	 148.914
372	 200
370	 194.538