File: Bakgrunnsmateriale/MATLAB/FTIR/ftir_data/subBb/Mapping_121/C-4040-8_t19.asc
PE IR       SPECTRUM    SPECTRUM    ASCII       PEDS        1.60
  -1
C-C92E~1.ASC
17/03/27
15:59:14.00
17/03/27
15:59:40.00
tln
$C-4040-8_t0019$<tbV0>[-5.2,-10.4,8.0,0.0,27,1,0]
27.028
64

2002,4.07
MIRTGS : RIGHTBACK : INTERNAL 2
MIR : ON : INTERNAL 2
OPTKBR

0.200000
8
8.000000
FILLER
RATIO
SPECTRUM
UNLOCKED 256

DOUBLE
64
COMBINED
1
0
0

0.002000
RATIO

1
0
TRUE
51149
0
LEFT NOT FITTED RIGHT NOT FITTED 0
NONE
NONE
15600
12
4.427000
51148
TRUE
1 0 8 72 0 0 0 0

15798

#HDR
-1
-1
#GR
µM
%T
2.38419e-05
0.0
2.000000
0.002000
12515
8
72.2533
31.0119
#DATA
2.000000	 63.67
2.018000	 63.1616
2.036000	 64.5403
2.054000	 63.7405
2.072000	 64.4118
2.090000	 64.4422
2.108000	 63.9951
2.126000	 64.0203
2.144000	 63.9043
2.162000	 64.2549
2.180000	 64.0554
2.198000	 63.3338
2.216000	 64.1083
2.234000	 64.2771
2.252000	 67.3539
2.270000	 62.8961
2.288000	 72.2533
2.306000	 63.1646
2.324000	 63.6091
2.342000	 63.5558
2.360000	 63.5735
2.378000	 63.7617
2.396000	 63.7599
2.414000	 63.5888
2.432000	 63.8178
2.450000	 63.9955
2.468000	 63.9409
2.486000	 64.0211
2.504000	 63.8338
2.522000	 63.652
2.540000	 63.6204
2.558000	 63.8097
2.576000	 63.5149
2.594000	 64.251
2.612000	 63.7661
2.630000	 64.1933
2.648000	 63.6027
2.666000	 64.1813
2.684000	 63.9215
2.702000	 63.6397
2.720000	 63.9288
2.738000	 63.7489
2.756000	 63.6047
2.774000	 63.1937
2.792000	 63.3821
2.810000	 63.2282
2.828000	 63.1908
2.846000	 63.0312
2.864000	 62.9597
2.882000	 63.0376
2.900000	 62.9806
2.918000	 62.9195
2.936000	 62.7117
2.954000	 63.0577
2.972000	 62.8934
2.990000	 62.6483
3.008000	 62.7976
3.026000	 62.5414
3.044000	 62.6594
3.062000	 62.4178
3.080000	 62.3907
3.098000	 62.41
3.116000	 62.6186
3.134000	 62.3986
3.152000	 62.3435
3.170000	 62.2449
3.188000	 62.0623
3.206000	 62.2036
3.224000	 62.2835
3.242000	 62.2522
3.260000	 62.1577
3.278000	 62.1118
3.296000	 61.9695
3.314000	 62.1439
3.332000	 61.9051
3.350000	 61.7863
3.368000	 61.7636
3.386000	 61.6165
3.404000	 61.629
3.422000	 61.31
3.440000	 61.1784
3.458000	 61.4976
3.476000	 61.4418
3.494000	 61.4838
3.512000	 61.1742
3.530000	 61.3122
3.548000	 61.4408
3.566000	 61.2443
3.584000	 61.2004
3.602000	 61.1265
3.620000	 61.075
3.638000	 61.0581
3.656000	 61.0628
3.674000	 60.89
3.692000	 60.9597
3.710000	 60.9862
3.728000	 60.7949
3.746000	 60.7883
3.764000	 60.6071
3.782000	 60.6021
3.800000	 60.5597
3.818000	 60.5341
3.836000	 60.4202
3.854000	 60.4047
3.872000	 60.3002
3.890000	 60.2268
3.908000	 60.2171
3.926000	 60.2688
3.944000	 60.1364
3.962000	 60.2199
3.980000	 60.0451
3.998000	 59.8909
4.016000	 59.8791
4.034000	 59.879
4.052000	 59.8232
4.070000	 59.6717
4.088000	 59.7344
4.106000	 59.7849
4.124000	 59.7717
4.141999	 59.4602
4.160000	 59.1953
4.178000	 59.4774
4.196000	 59.4878
4.214000	 59.5388
4.232000	 59.4699
4.250000	 59.3505
4.268000	 59.3256
4.286000	 59.2831
4.304000	 59.2063
4.322000	 59.1631
4.340000	 59.1679
4.358000	 59.0672
4.375999	 58.9801
4.394000	 58.9434
4.412000	 59.0382
4.430000	 58.9391
4.448000	 58.7491
4.466000	 58.7231
4.484000	 58.7032
4.502000	 58.6451
4.520000	 58.7659
4.538000	 58.7407
4.556000	 58.581
4.574000	 58.3905
4.592000	 58.4501
4.609999	 58.5165
4.628000	 58.5241
4.646000	 58.1267
4.664000	 58.1074
4.682000	 58.3168
4.700000	 58.2115
4.718000	 58.1125
4.736000	 58.1483
4.754000	 58.146
4.772000	 58.097
4.790000	 57.9855
4.808000	 57.8551
4.826000	 57.7498
4.843999	 57.9105
4.862000	 57.7858
4.880000	 57.7947
4.898000	 57.6814
4.916000	 57.6637
4.934000	 57.6791
4.952000	 57.5689
4.970000	 57.5951
4.988000	 57.6354
5.006000	 57.554
5.024000	 57.4566
5.042000	 57.3822
5.060000	 57.3392
5.077999	 57.4038
5.096000	 57.3682
5.114000	 57.248
5.132000	 57.2436
5.150000	 57.201
5.168000	 57.1424
5.186000	 57.0942
5.204000	 57.0964
5.222000	 57.0715
5.240000	 57.0284
5.258000	 56.9383
5.276000	 56.8959
5.294000	 56.8794
5.312000	 56.7459
5.330000	 56.6709
5.348000	 56.7403
5.366000	 56.7208
5.384000	 56.662
5.402000	 56.5909
5.420000	 56.6557
5.438000	 56.5446
5.456000	 56.465
5.474000	 56.5158
5.492000	 56.4306
5.510000	 56.3968
5.528000	 56.3664
5.546000	 56.371
5.564000	 56.362
5.582000	 56.3076
5.600000	 56.2571
5.618000	 56.1849
5.636000	 56.1818
5.654000	 56.1665
5.672000	 56.1789
5.690000	 56.2105
5.708000	 56.1096
5.726000	 55.9885
5.744000	 55.9991
5.762000	 56.043
5.780000	 55.9089
5.798000	 55.8311
5.816000	 55.9828
5.834000	 55.8212
5.852000	 55.6754
5.870000	 55.9575
5.888000	 56.0753
5.906000	 55.8531
5.923999	 55.8721
5.942000	 55.8949
5.960000	 55.6945
5.978000	 55.6177
5.996000	 55.5488
6.014000	 55.5321
6.032000	 55.6721
6.050000	 55.9142
6.068000	 55.7557
6.086000	 55.4721
6.104000	 55.4647
6.122000	 55.3739
6.140000	 55.2077
6.158000	 55.2533
6.176000	 55.3425
6.194000	 55.2742
6.212000	 55.0666
6.230000	 55.0247
6.248000	 55.0022
6.266000	 54.8918
6.284000	 54.8461
6.302000	 54.8392
6.320000	 54.8407
6.338000	 54.8597
6.356000	 54.8621
6.374000	 54.8215
6.392000	 54.9163
6.410000	 55.1521
6.428000	 55.0635
6.446000	 54.8438
6.464000	 54.9016
6.482000	 55.1574
6.500000	 55.1206
6.518000	 54.7533
6.536000	 54.5791
6.554000	 54.6733
6.572000	 54.7694
6.590000	 54.7065
6.608000	 54.7003
6.626000	 54.8161
6.644000	 54.8017
6.662000	 54.6751
6.680000	 54.5663
6.698000	 54.466
6.716000	 54.3951
6.734000	 54.2947
6.752000	 54.2214
6.770000	 54.2669
6.788000	 54.3252
6.806000	 54.3089
6.824000	 54.2463
6.842000	 54.2336
6.860000	 54.2821
6.878000	 54.2472
6.896000	 54.1264
6.914000	 54.0515
6.932000	 54.05
6.950000	 54.0769
6.968000	 54.0316
6.986000	 53.8728
7.004000	 53.7396
7.022000	 53.777
7.040000	 53.8767
7.058000	 53.8572
7.076000	 53.7747
7.094000	 53.703
7.112000	 53.6289
7.130000	 53.6139
7.148000	 53.6461
7.166000	 53.6506
7.184000	 53.6448
7.202000	 53.6183
7.220000	 53.5301
7.238000	 53.4469
7.256000	 53.4844
7.274000	 53.5929
7.292000	 53.592
7.310000	 53.4612
7.328000	 53.339
7.346000	 53.2633
7.364000	 53.1882
7.382000	 53.1397
7.400000	 53.1619
7.418000	 53.2102
7.436000	 53.2107
7.454000	 53.1734
7.472000	 53.1567
7.490000	 53.1579
7.508000	 53.1518
7.526000	 53.1627
7.544000	 53.2014
7.562000	 53.2214
7.580000	 53.1827
7.598000	 53.0851
7.616000	 52.9618
7.634000	 52.8757
7.652000	 52.8688
7.670000	 52.9155
7.688000	 52.9594
7.706000	 52.9586
7.724000	 52.904
7.742000	 52.8327
7.760000	 52.7862
7.778000	 52.7413
7.796000	 52.6529
7.814000	 52.5446
7.832000	 52.4894
7.850000	 52.5212
7.868000	 52.6119
7.886000	 52.7014
7.904000	 52.7248
7.922000	 52.6603
7.940000	 52.5623
7.958000	 52.501
7.976000	 52.4842
7.994000	 52.4832
8.012000	 52.4938
8.030000	 52.5116
8.048000	 52.496
8.065999	 52.4324
8.084000	 52.377
8.102000	 52.3754
8.120000	 52.3897
8.138000	 52.3712
8.155999	 52.3338
8.173999	 52.3043
8.192000	 52.2658
8.210000	 52.2049
8.228000	 52.1484
8.246000	 52.1191
8.263999	 52.1077
8.282000	 52.1116
8.300000	 52.148
8.318000	 52.2085
8.336000	 52.2439
8.353999	 52.217
8.372000	 52.1424
8.390000	 52.0654
8.408000	 52.0171
8.426000	 51.9956
8.443999	 51.9784
8.462000	 51.9502
8.480000	 51.9193
8.498000	 51.9039
8.516000	 51.9064
8.533999	 51.9109
8.552000	 51.9026
8.570000	 51.878
8.588000	 51.8387
8.606000	 51.7925
8.624000	 51.7521
8.641999	 51.7242
8.660000	 51.7097
8.678000	 51.7151
8.696000	 51.7485
8.714000	 51.7986
8.731999	 51.8354
8.750000	 51.8363
8.768000	 51.8061
8.786000	 51.7641
8.804000	 51.7229
8.821999	 51.6876
8.840000	 51.6638
8.858000	 51.6517
8.876000	 51.6352
8.894000	 51.5996
8.911999	 51.556
8.930000	 51.5322
8.948000	 51.5353
8.966000	 51.5365
8.984000	 51.498
9.001999	 51.4149
9.020000	 51.3244
9.038000	 51.2739
9.056000	 51.277
9.074000	 51.3002
9.092000	 51.2916
9.109999	 51.2287
9.128000	 51.1392
9.146000	 51.0779
9.164000	 51.081
9.182000	 51.1387
9.199999	 51.2101
9.218000	 51.2571
9.236000	 51.2692
9.254000	 51.2604
9.272000	 51.2488
9.289999	 51.2404
9.308000	 51.2269
9.326000	 51.1996
9.344000	 51.1665
9.362000	 51.1512
9.379999	 51.1733
9.398000	 51.2262
9.416000	 51.2796
9.434000	 51.3046
9.452000	 51.2991
9.469999	 51.2905
9.488000	 51.3107
9.506000	 51.3672
9.524000	 51.4356
9.542000	 51.4782
9.560000	 51.4711
9.577999	 51.4164
9.596000	 51.331
9.614000	 51.23
9.632000	 51.1217
9.650000	 51.014
9.667999	 50.9219
9.686000	 50.8665
9.704000	 50.8617
9.722000	 50.9009
9.740000	 50.9571
9.757999	 51.0025
9.776000	 51.0255
9.794000	 51.0287
9.812000	 51.0148
9.830000	 50.9801
9.847999	 50.9202
9.866000	 50.8391
9.884000	 50.7489
9.902000	 50.6636
9.920000	 50.5952
9.937999	 50.5557
9.956000	 50.5588
9.974000	 50.6105
9.992000	 50.6987
10.01	50.7957
10.028	50.8775
10.046	50.939
10.064	50.9898
10.082	51.0323
10.1	51.0483
10.118	51.0088
10.136	50.9019
10.154	50.7503
10.172	50.6024
10.19	50.504
10.208	50.4681
10.226	50.4756
10.244	50.4935
10.262	50.498
10.28	50.4824
10.298	50.4511
10.316	50.4091
10.334	50.3585
10.352	50.304
10.37	50.2579
10.388	50.2385
10.406	50.2553
10.424	50.297
10.442	50.3328
10.46	50.332
10.478	50.2818
10.496	50.1969
10.514	50.1042
10.532	50.0272
10.55	49.972
10.568	49.9338
10.586	49.91
10.604	49.9065
10.622	49.9322
10.64	49.9841
10.658	50.0423
10.676	50.0775
10.694	50.0735
10.712	50.0375
10.73	49.9952
10.748	49.9723
10.766	49.9743
10.784	49.9834
10.802	49.9704
10.82	49.9175
10.838	49.8298
10.856	49.7302
10.874	49.6461
10.892	49.5922
10.91	49.5665
10.928	49.5572
10.946	49.5522
10.964	49.5469
10.982	49.5431
11	49.545
11.018	49.5544
11.036	49.5683
11.054	49.5822
11.072	49.5933
11.09	49.6019
11.108	49.6106
11.126	49.6218
11.144	49.6365
11.162	49.654
11.18	49.6725
11.198	49.689
11.216	49.6995
11.234	49.6988
11.252	49.6822
11.27	49.6469
11.288	49.5938
11.306	49.5296
11.324	49.4672
11.342	49.4217
11.36	49.4049
11.378	49.4212
11.396	49.4649
11.414	49.5215
11.432	49.5728
11.45	49.6051
11.468	49.6118
11.486	49.5952
11.504	49.5636
11.522	49.5273
11.54	49.4933
11.558	49.4646
11.576	49.4406
11.594	49.4198
11.612	49.4022
11.63	49.3902
11.648	49.3877
11.666	49.3971
11.684	49.4164
11.702	49.4395
11.72	49.4571
11.738	49.4609
11.756	49.4477
11.774	49.4211
11.792	49.3904
11.81	49.3661
11.828	49.3555
11.846	49.3588
11.864	49.3689
11.882	49.3744
11.9	49.3637
11.918	49.331
11.936	49.2781
11.954	49.2131
11.972	49.1472
11.99	49.0908
12.008	49.0489
12.026	49.0212
12.044	49.0024
12.062	48.9855
12.08	48.9645
12.098	48.9367
12.116	48.9029
12.134	48.8667
12.152	48.8324
12.17	48.8038
12.188	48.7833
12.206	48.7717
12.224	48.7688
12.242	48.7742
12.26	48.7878
12.278	48.8097
12.296	48.8395
12.314	48.8761
12.332	48.9162
12.35	48.9548
12.368	48.9858
12.386	49.0029
12.404	49.0028
12.422	48.9852
12.44	48.9547
12.458	48.9184
12.476	48.8845
12.494	48.8596
12.512	48.8466
12.53	48.8442
12.548	48.8475
12.566	48.8501
12.584	48.8465
12.602	48.8341
12.62	48.8142
12.638	48.7905
12.656	48.7676
12.674	48.7488
12.692	48.735
12.71	48.7249
12.728	48.7153
12.746	48.7031
12.764	48.6863
12.782	48.6655
12.8	48.6428
12.818	48.6212
12.836	48.6039
12.854	48.5922
12.872	48.5854
12.89	48.5806
12.908	48.5741
12.926	48.562
12.944	48.5414
12.962	48.5119
12.98	48.4756
12.998	48.4368
13.016	48.4013
13.034	48.3748
13.052	48.362
13.07	48.3659
13.088	48.3863
13.106	48.4206
13.124	48.4639
13.142	48.5095
13.16	48.5503
13.178	48.5798
13.196	48.593
13.214	48.588
13.232	48.5654
13.25	48.5287
13.268	48.4832
13.286	48.4343
13.304	48.387
13.322	48.3438
13.34	48.3047
13.358	48.2669
13.376	48.226
13.394	48.177
13.412	48.1166
13.43	48.0435
13.448	47.9601
13.466	47.8716
13.484	47.7857
13.502	47.711
13.52	47.6555
13.538	47.6245
13.556	47.6205
13.574	47.6421
13.592	47.6849
13.61	47.7422
13.628	47.8057
13.646	47.8668
13.664	47.918
13.682	47.9533
13.7	47.9687
13.718	47.963
13.736	47.9371
13.754	47.8939
13.772	47.8376
13.79	47.7734
13.808	47.7063
13.826	47.6411
13.844	47.5817
13.862	47.5309
13.88	47.4904
13.898	47.4605
13.916	47.4409
13.934	47.43
13.952	47.4254
13.97	47.4242
13.988	47.4232
14.006	47.4195
14.024	47.4102
14.042	47.3936
14.06	47.3688
14.078	47.3365
14.096	47.2981
14.114	47.2564
14.132	47.215
14.15	47.1775
14.168	47.147
14.186	47.1262
14.204	47.116
14.222	47.1164
14.24	47.1259
14.258	47.1425
14.276	47.1632
14.294	47.1851
14.312	47.2053
14.33	47.2215
14.348	47.2319
14.366	47.2356
14.384	47.2327
14.402	47.2239
14.42	47.2104
14.438	47.194
14.456	47.1764
14.474	47.1586
14.492	47.1413
14.51	47.1243
14.528	47.1066
14.546	47.0875
14.564	47.0659
14.582	47.0413
14.6	47.014
14.618	46.9846
14.636	46.9546
14.654	46.9257
14.672	46.8993
14.69	46.8766
14.708	46.858
14.726	46.8432
14.744	46.831
14.762	46.8197
14.78	46.8077
14.798	46.7937
14.816	46.777
14.834	46.7578
14.852	46.7373
14.87	46.7175
14.888	46.7007
14.906	46.6891
14.924	46.6846
14.942	46.6881
14.96	46.6994
14.978	46.717
14.996	46.7386
15.014	46.7614
15.032	46.7817
15.05	46.7961
15.068	46.802
15.086	46.7976
15.104	46.7817
15.122	46.7548
15.14	46.7187
15.158	46.6761
15.176	46.6305
15.194	46.5859
15.212	46.5468
15.23	46.5169
15.248	46.499
15.266	46.4949
15.284	46.5055
15.302	46.5292
15.32	46.5638
15.338	46.6061
15.356	46.6519
15.374	46.6959
15.392	46.7339
15.41	46.7623
15.428	46.7777
15.446	46.7784
15.464	46.7644
15.482	46.7367
15.5	46.6973
15.518	46.6502
15.536	46.599
15.554	46.5473
15.572	46.4991
15.59	46.4577
15.608	46.4251
15.626	46.4025
15.644	46.3902
15.662	46.3872
15.68	46.392
15.698	46.4027
15.716	46.4168
15.734	46.4316
15.752	46.4453
15.77	46.4559
15.788	46.4618
15.806	46.4623
15.824	46.4571
15.842	46.4461
15.86	46.4296
15.878	46.4076
15.896	46.3805
15.914	46.3482
15.932	46.3107
15.95	46.268
15.968	46.2201
15.986	46.1674
16.004	46.1104
16.022	46.05
16.04	45.9879
16.058	45.926
16.076	45.8658
16.094	45.8098
16.112	45.7599
16.13	45.7172
16.148	45.6828
16.166	45.6569
16.184	45.6391
16.202	45.6288
16.22	45.6242
16.238	45.6238
16.256	45.626
16.274	45.6285
16.292	45.6296
16.31	45.6282
16.328	45.6224
16.346	45.6119
16.364	45.5963
16.382	45.5754
16.4	45.5492
16.418	45.518
16.436	45.4822
16.454	45.4424
16.472	45.3992
16.49	45.3536
16.508	45.3066
16.526	45.2588
16.544	45.2118
16.562	45.1665
16.58	45.1237
16.598	45.0847
16.616	45.0501
16.634	45.0205
16.652	44.996
16.67	44.9765
16.688	44.9619
16.706	44.9514
16.724	44.9444
16.742	44.9404
16.76	44.9383
16.778	44.9379
16.796	44.9386
16.814	44.9402
16.832	44.9424
16.85	44.9457
16.868	44.9502
16.886	44.9562
16.904	44.9645
16.922	44.9754
16.94	44.9892
16.958	45.0064
16.976	45.0271
16.994	45.0513
17.012	45.0791
17.03	45.1104
17.048	45.1451
17.066	45.1831
17.084	45.224
17.102	45.2674
17.12	45.313
17.138	45.3599
17.156	45.4072
17.174	45.4542
17.192	45.499
17.21	45.541
17.228	45.5781
17.246	45.6089
17.264	45.6324
17.282	45.6469
17.3	45.6519
17.318	45.6468
17.336	45.6315
17.354	45.606
17.372	45.571
17.39	45.5271
17.408	45.4751
17.426	45.4164
17.444	45.3517
17.462	45.283
17.48	45.211
17.498	45.1376
17.516	45.0643
17.534	44.992
17.552	44.9231
17.57	44.8584
17.588	44.7999
17.606	44.7486
17.624	44.706
17.642	44.6729
17.66	44.6497
17.678	44.6365
17.696	44.6332
17.714	44.6386
17.732	44.6514
17.75	44.6706
17.768	44.6931
17.786	44.7181
17.804	44.7418
17.822	44.7632
17.84	44.779
17.858	44.7885
17.876	44.7897
17.894	44.782
17.912	44.7651
17.93	44.7394
17.948	44.705
17.966	44.6638
17.984	44.6166
18.002	44.5658
18.02	44.5129
18.038	44.4595
18.056	44.4074
18.074	44.3574
18.092	44.311
18.11	44.2684
18.128	44.2306
18.146	44.1975
18.164	44.1689
18.182	44.1447
18.2	44.1243
18.218	44.1074
18.236	44.0936
18.254	44.0828
18.272	44.0748
18.29	44.0696
18.308	44.0671
18.326	44.0677
18.344	44.0711
18.362	44.0773
18.38	44.0862
18.398	44.0972
18.416	44.1099
18.434	44.1235
18.452	44.137
18.47	44.1498
18.488	44.16
18.506	44.1672
18.524	44.1696
18.542	44.1669
18.56	44.1581
18.578	44.143
18.596	44.1219
18.614	44.0947
18.632	44.0629
18.65	44.0268
18.668	43.9887
18.686	43.949
18.704	43.9108
18.722	43.8741
18.74	43.8415
18.758	43.8129
18.776	43.7899
18.794	43.7718
18.812	43.7587
18.83	43.7496
18.848	43.7436
18.866	43.7393
18.884	43.7342
18.902	43.7269
18.92	43.7146
18.938	43.6961
18.956	43.6685
18.974	43.6314
18.992	43.5829
19.01	43.5233
19.028	43.4519
19.046	43.3699
19.064	43.2779
19.082	43.1779
19.1	43.0719
19.118	42.9618
19.136	42.8513
19.154	42.7419
19.172	42.6378
19.19	42.5398
19.208	42.4523
19.226	42.3756
19.244	42.3131
19.262	42.2647
19.28	42.2322
19.298	42.2152
19.316	42.214
19.334	42.2281
19.352	42.2554
19.37	42.2959
19.388	42.3459
19.406	42.4056
19.424	42.4701
19.442	42.5396
19.46	42.6088
19.478	42.6773
19.496	42.7411
19.514	42.7992
19.532	42.8487
19.55	42.8878
19.568	42.9158
19.586	42.9314
19.604	42.9349
19.622	42.9255
19.64	42.9042
19.658	42.8733
19.676	42.8327
19.694	42.7869
19.712	42.7353
19.73	42.6841
19.748	42.633
19.766	42.5876
19.784	42.5486
19.802	42.5197
19.82	42.5032
19.838	42.4997
19.856	42.5123
19.874	42.5399
19.892	42.5833
19.91	42.6422
19.928	42.714
19.946	42.7994
19.964	42.8928
19.982	42.9948
20	43.1
20.018	43.2061
20.036	43.3107
20.054	43.4086
20.072	43.5001
20.09	43.5797
20.108	43.648
20.126	43.7018
20.144	43.7409
20.162	43.7653
20.18	43.7741
20.198	43.7689
20.216	43.7507
20.234	43.7202
20.252	43.6813
20.27	43.6332
20.288	43.5809
20.306	43.5242
20.324	43.4664
20.342	43.4097
20.36	43.3545
20.378	43.3045
20.396	43.259
20.414	43.2205
20.432	43.1889
20.45	43.1649
20.468	43.1492
20.486	43.1413
20.504	43.1411
20.522	43.1486
20.54	43.1628
20.558	43.1839
20.576	43.2105
20.594	43.2424
20.612	43.2789
20.63	43.3186
20.648	43.3619
20.666	43.4071
20.684	43.4542
20.702	43.5025
20.72	43.5514
20.738	43.6008
20.756	43.6496
20.774	43.6981
20.792	43.7451
20.81	43.7907
20.828	43.8341
20.846	43.8742
20.864	43.9114
20.882	43.9434
20.9	43.9708
20.918	43.9919
20.936	44.0056
20.954	44.012
20.972	44.0092
20.99	43.9976
21.008	43.976
21.026	43.9438
21.044	43.9012
21.062	43.8477
21.08	43.7832
21.098	43.7089
21.116	43.6244
21.134	43.5308
21.152	43.4301
21.17	43.3215
21.188	43.2088
21.206	43.0918
21.224	42.9722
21.242	42.8534
21.26	42.7343
21.278	42.6185
21.296	42.5065
21.314	42.399
21.332	42.2983
21.35	42.2038
21.368	42.1166
21.386	42.0374
21.404	41.9655
21.422	41.901
21.44	41.844
21.458	41.7929
21.476	41.7473
21.494	41.707
21.512	41.6694
21.53	41.6352
21.548	41.6024
21.566	41.5694
21.584	41.5368
21.602	41.5022
21.62	41.4659
21.638	41.4273
21.656	41.3851
21.674	41.3398
21.692	41.2915
21.71	41.2398
21.728	41.1853
21.746	41.1285
21.764	41.0689
21.782	41.008
21.8	40.9469
21.818	40.8851
21.836	40.8245
21.854	40.7646
21.872	40.7065
21.89	40.6521
21.908	40.6006
21.926	40.5535
21.944	40.5114
21.962	40.4741
21.98	40.4435
21.998	40.4194
22.016	40.4022
22.034	40.393
22.052	40.3912
22.07	40.3977
22.088	40.4132
22.106	40.4373
22.124	40.4707
22.142	40.5138
22.16	40.5662
22.178	40.6281
22.196	40.6996
22.214	40.7801
22.232	40.869
22.25	40.9669
22.268	41.0715
22.286	41.1821
22.304	41.2991
22.322	41.4184
22.34	41.5405
22.358	41.6641
22.376	41.7846
22.394	41.9034
22.412	42.0178
22.43	42.1234
22.448	42.2223
22.466	42.311
22.484	42.3863
22.502	42.4499
22.52	42.4992
22.538	42.5326
22.556	42.5512
22.574	42.5543
22.592	42.5412
22.61	42.5129
22.628	42.4714
22.646	42.4154
22.664	42.3472
22.682	42.271
22.7	42.1846
22.718	42.0919
22.736	41.9976
22.754	41.899
22.772	41.801
22.79	41.7077
22.808	41.6166
22.826	41.5319
22.844	41.4566
22.862	41.3889
22.88	41.3313
22.898	41.2854
22.916	41.2501
22.934	41.2256
22.952	41.2124
22.97	41.2099
22.988	41.2165
23.006	41.2324
23.024	41.2571
23.042	41.2873
23.06	41.3231
23.078	41.3641
23.096	41.4063
23.114	41.4499
23.132	41.4945
23.15	41.5364
23.168	41.5758
23.186	41.6126
23.204	41.6441
23.222	41.6704
23.24	41.6916
23.258	41.7066
23.276	41.7152
23.294	41.7178
23.312	41.7147
23.33	41.7056
23.348	41.691
23.366	41.672
23.384	41.6488
23.402	41.6212
23.42	41.5903
23.438	41.5558
23.456	41.5179
23.474	41.478
23.492	41.436
23.51	41.392
23.528	41.3474
23.546	41.3022
23.564	41.2564
23.582	41.2114
23.6	41.1678
23.618	41.1251
23.636	41.0847
23.654	41.0475
23.672	41.0126
23.69	40.9817
23.708	40.9559
23.726	40.9342
23.744	40.9181
23.762	40.909
23.78	40.906
23.798	40.9097
23.816	40.9209
23.834	40.9395
23.852	40.9652
23.87	40.9975
23.888	41.0377
23.906	41.0841
23.924	41.1338
23.942	41.1882
23.96	41.2462
23.978	41.3027
23.996	41.3566
24.014	41.4097
24.032	41.4565
24.05	41.4939
24.068	41.5248
24.086	41.5454
24.104	41.5519
24.122	41.5472
24.14	41.5282
24.158	41.4898
24.176	41.4333
24.194	41.3586
24.212	41.263
24.23	41.1453
24.248	41.0069
24.266	40.8488
24.284	40.6707
24.302	40.4714
24.32	40.2564
24.338	40.03
24.356	39.7867
24.374	39.534
24.392	39.2826
24.41	39.0284
24.428	38.7735
24.446	38.5306
24.464	38.3038
24.482	38.0871
24.5	37.8917
24.518	37.7275
24.536	37.588
24.554	37.4773
24.572	37.4024
24.59	37.3634
24.608	37.3583
24.626	37.3879
24.644	37.4541
24.662	37.5572
24.68	37.69
24.698	37.847
24.716	38.0355
24.734	38.2466
24.752	38.4667
24.77	38.6981
24.788	38.9426
24.806	39.1833
24.824	39.409
24.842	39.6313
24.86	39.8384
24.878	40.0152
24.896	40.1664
24.914	40.2918
24.932	40.3804
24.95	40.426
24.968	40.4347
24.986	40.4029
25.004	40.3265
25.022	40.2045
25.04	40.04
25.058	39.8363
25.076	39.5928
25.094	39.3072
25.112	38.9887
25.13	38.6465
25.148	38.2733
25.166	37.8743
25.184	37.4624
25.202	37.0427
25.22	36.607
25.238	36.1666
25.256	35.7332
25.274	35.3011
25.292	34.8721
25.31	34.4563
25.328	34.0595
25.346	33.675
25.364	33.3084
25.382	32.9663
25.4	32.6471
25.418	32.3498
25.436	32.0793
25.454	31.839
25.472	31.6254
25.49	31.4408
25.508	31.2889
25.526	31.1674
25.544	31.0746
25.562	31.0209
25.58	31.0159
25.598	31.05
25.616	31.129
25.634	31.2678
25.652	31.4736
25.67	31.7331
25.688	32.0613
25.706	32.4763
25.724	32.9782
25.742	33.5595
25.76	34.2325
25.778	35.0087
25.796	35.8874
25.814	36.8627
25.832	37.9303
25.85	39.091
25.868	40.3547
25.886	41.7014
25.904	43.1078
25.922	44.5789
25.94	46.1279
25.958	47.7111
25.976	49.2848
25.994	50.8758
26.012	52.48
26.03	54.0433
26.048	55.5204
26.066	56.9532
26.084	58.3203
26.102	59.5735
26.12	60.6828
26.138	61.6848
26.156	62.5565
26.174	63.2663
26.192	63.7977
26.21	64.1695
26.228	64.3822
26.246	64.4355
26.264	64.32
26.282	64.0398
26.3	63.617
26.318	63.073
26.336	62.3883
26.354	61.5696
26.372	60.6534
26.39	59.6725
26.408	58.5962
26.426	57.4385
26.444	56.2398
26.462	55.0331
26.48	53.7866
26.498	52.5149
26.516	51.2499
26.534	50.0146
26.552	48.7843
26.57	47.5708
26.588	46.3947
26.606	45.2693
26.624	44.1795
26.642	43.1316
26.66	42.1354
26.678	41.1977
26.696	40.3133
26.714	39.48
26.732	38.6966
26.75	37.9622
26.768	37.2777
26.786	36.642
26.804	36.0539
26.822	35.5148
26.84	35.0278
26.858	34.5849
26.876	34.1774
26.894	33.8027
26.912	33.469
26.93	33.1669
26.948	32.8858
26.966	32.6118
26.984	32.3416
27.002	32.1004
27.02	31.915
27.028	31.8635