File: Bakgrunnsmateriale/MATLAB/FTIR/ftir_data/subBb/Mapping_121/C-4040-8_t21.asc
PE IR       SPECTRUM    SPECTRUM    ASCII       PEDS        1.60
  -1
C-AD2E~1.ASC
17/03/27
16:08:27.00
17/03/27
16:08:53.00
tln
$C-4040-8_t0021$<tbV0>[-10.4,-10.4,8.0,0.0,27,1,0]
27.028
64

2002,4.07
MIRTGS : RIGHTBACK : INTERNAL 2
MIR : ON : INTERNAL 2
OPTKBR

0.200000
8
8.000000
FILLER
RATIO
SPECTRUM
UNLOCKED 256

DOUBLE
64
COMBINED
1
0
0

0.002000
RATIO

1
0
TRUE
51149
0
LEFT NOT FITTED RIGHT NOT FITTED 0
NONE
NONE
15600
12
4.427000
51148
TRUE
1 0 8 72 0 0 0 0

15798

#HDR
-1
-1
#GR
µM
%T
2.38419e-05
0.0
2.000000
0.002000
12515
8
75.8881
20.6245
#DATA
2.000000	 63.9439
2.018000	 62.8405
2.036000	 64.122
2.054000	 64.4612
2.072000	 63.986
2.090000	 64.2812
2.108000	 64.3708
2.126000	 64.2742
2.144000	 64.0009
2.162000	 64.3015
2.180000	 63.77
2.198000	 63.475
2.216000	 63.2155
2.234000	 63.5
2.252000	 67.2448
2.270000	 62.8417
2.288000	 74.1287
2.306000	 63.134
2.324000	 62.9251
2.342000	 63.1268
2.360000	 62.8521
2.378000	 63.2135
2.396000	 62.6569
2.414000	 63.3246
2.432000	 63.1064
2.450000	 63.4664
2.468000	 63.2402
2.486000	 63.399
2.504000	 63.0856
2.522000	 63.2327
2.540000	 63.0066
2.558000	 63.1213
2.576000	 62.7255
2.594000	 63.1362
2.612000	 62.4233
2.630000	 63.0254
2.648000	 62.5456
2.666000	 63.0608
2.684000	 62.5581
2.702000	 62.4022
2.720000	 62.6305
2.738000	 62.3855
2.756000	 62.4102
2.774000	 61.8266
2.792000	 62.0845
2.810000	 62.0551
2.828000	 61.5676
2.846000	 61.6769
2.864000	 61.6422
2.882000	 61.4813
2.900000	 61.3861
2.918000	 61.1393
2.936000	 61.2432
2.954000	 61.0814
2.972000	 61.0529
2.990000	 60.8501
3.008000	 60.7505
3.026000	 60.7632
3.044000	 60.495
3.062000	 60.6111
3.080000	 60.5126
3.098000	 60.3144
3.116000	 60.3956
3.134000	 60.1795
3.152000	 59.9275
3.170000	 60.1016
3.188000	 59.7675
3.206000	 60.1453
3.224000	 59.5527
3.242000	 59.5261
3.260000	 59.6533
3.278000	 59.4903
3.296000	 59.3584
3.314000	 59.3159
3.332000	 58.8841
3.350000	 59.0074
3.368000	 58.8334
3.386000	 58.6022
3.404000	 58.6829
3.422000	 58.3732
3.440000	 58.2747
3.458000	 58.2701
3.476000	 58.1549
3.494000	 58.1751
3.512000	 58.0072
3.530000	 58.1185
3.548000	 58.0505
3.566000	 57.855
3.584000	 57.7432
3.602000	 57.6198
3.620000	 57.6842
3.638000	 57.5951
3.656000	 57.4696
3.674000	 57.3494
3.692000	 57.2114
3.710000	 57.2169
3.728000	 57.1177
3.746000	 56.8571
3.764000	 56.8472
3.782000	 56.6649
3.800000	 56.6129
3.818000	 56.5014
3.836000	 56.4279
3.854000	 56.2974
3.872000	 56.0984
3.890000	 56.1247
3.908000	 56.0829
3.926000	 55.8514
3.944000	 55.7684
3.962000	 55.7194
3.980000	 55.7081
3.998000	 55.6246
4.016000	 55.367
4.034000	 55.3121
4.052000	 55.4003
4.070000	 55.2935
4.088000	 55.1884
4.106000	 54.9339
4.124000	 54.8185
4.141999	 54.8126
4.160000	 54.7526
4.178000	 54.6769
4.196000	 54.6661
4.214000	 54.46
4.232000	 54.4664
4.250000	 54.3122
4.268000	 54.1929
4.286000	 54.2126
4.304000	 54.0885
4.322000	 53.7712
4.340000	 53.8482
4.358000	 53.798
4.375999	 53.6276
4.394000	 53.6032
4.412000	 53.5339
4.430000	 53.3985
4.448000	 53.3004
4.466000	 53.1302
4.484000	 53.1249
4.502000	 53.0509
4.520000	 52.9516
4.538000	 52.9212
4.556000	 52.9146
4.574000	 52.7676
4.592000	 52.6628
4.609999	 52.4967
4.628000	 52.3877
4.646000	 52.4655
4.664000	 52.2976
4.682000	 52.1694
4.700000	 52.1302
4.718000	 52.0928
4.736000	 52.0495
4.754000	 51.8878
4.772000	 51.8369
4.790000	 51.9106
4.808000	 51.8532
4.826000	 51.514
4.843999	 51.5222
4.862000	 51.4142
4.880000	 51.4924
4.898000	 51.3939
4.916000	 51.316
4.934000	 51.1777
4.952000	 51.0289
4.970000	 50.9951
4.988000	 51.0295
5.006000	 50.9293
5.024000	 50.9138
5.042000	 50.7435
5.060000	 50.6767
5.077999	 50.6084
5.096000	 50.6115
5.114000	 50.522
5.132000	 50.4615
5.150000	 50.3676
5.168000	 50.2791
5.186000	 50.2376
5.204000	 50.2563
5.222000	 50.1635
5.240000	 49.9541
5.258000	 49.8299
5.276000	 49.9332
5.294000	 49.9085
5.312000	 49.8999
5.330000	 49.8452
5.348000	 49.6506
5.366000	 49.5332
5.384000	 49.5575
5.402000	 49.4972
5.420000	 49.3366
5.438000	 49.2653
5.456000	 49.263
5.474000	 49.2142
5.492000	 49.1477
5.510000	 49.1074
5.528000	 49.0347
5.546000	 49.0206
5.564000	 49.0266
5.582000	 48.9864
5.600000	 48.9288
5.618000	 48.8388
5.636000	 48.792
5.654000	 48.7276
5.672000	 48.6646
5.690000	 48.5776
5.708000	 48.5021
5.726000	 48.4652
5.744000	 48.4356
5.762000	 48.4317
5.780000	 48.3155
5.798000	 48.2042
5.816000	 48.3298
5.834000	 48.3366
5.852000	 48.1614
5.870000	 48.2355
5.888000	 48.1984
5.906000	 47.9032
5.923999	 47.8637
5.942000	 47.8567
5.960000	 47.6926
5.978000	 47.6949
5.996000	 47.6526
6.014000	 47.5709
6.032000	 47.72
6.050000	 47.9078
6.068000	 47.7612
6.086000	 47.5772
6.104000	 47.5113
6.122000	 47.3928
6.140000	 47.2234
6.158000	 47.1632
6.176000	 47.1305
6.194000	 46.9672
6.212000	 46.7706
6.230000	 46.7613
6.248000	 46.7319
6.266000	 46.7033
6.284000	 46.6853
6.302000	 46.6482
6.320000	 46.6566
6.338000	 46.717
6.356000	 46.6678
6.374000	 46.5379
6.392000	 46.5817
6.410000	 46.7154
6.428000	 46.6079
6.446000	 46.3935
6.464000	 46.333
6.482000	 46.4473
6.500000	 46.3864
6.518000	 46.1361
6.536000	 46.0092
6.554000	 46.047
6.572000	 46.1173
6.590000	 46.0891
6.608000	 46.086
6.626000	 46.1685
6.644000	 46.1141
6.662000	 45.9154
6.680000	 45.7776
6.698000	 45.7403
6.716000	 45.7286
6.734000	 45.6306
6.752000	 45.5043
6.770000	 45.495
6.788000	 45.5104
6.806000	 45.4571
6.824000	 45.4408
6.842000	 45.4691
6.860000	 45.48
6.878000	 45.4045
6.896000	 45.2658
6.914000	 45.2424
6.932000	 45.3136
6.950000	 45.3053
6.968000	 45.1703
6.986000	 45.0279
7.004000	 44.9802
7.022000	 45.0074
7.040000	 45.0066
7.058000	 44.8693
7.076000	 44.6568
7.094000	 44.5337
7.112000	 44.5249
7.130000	 44.563
7.148000	 44.5871
7.166000	 44.5615
7.184000	 44.5318
7.202000	 44.5243
7.220000	 44.4903
7.238000	 44.4523
7.256000	 44.466
7.274000	 44.4702
7.292000	 44.3814
7.310000	 44.2462
7.328000	 44.1679
7.346000	 44.1624
7.364000	 44.183
7.382000	 44.2006
7.400000	 44.183
7.418000	 44.1102
7.436000	 44.0178
7.454000	 43.9325
7.472000	 43.8427
7.490000	 43.7621
7.508000	 43.7254
7.526000	 43.7437
7.544000	 43.7988
7.562000	 43.8411
7.580000	 43.8126
7.598000	 43.7093
7.616000	 43.5925
7.634000	 43.5183
7.652000	 43.4887
7.670000	 43.4611
7.688000	 43.4069
7.706000	 43.3541
7.724000	 43.3389
7.742000	 43.3558
7.760000	 43.37
7.778000	 43.3476
7.796000	 43.2857
7.814000	 43.2223
7.832000	 43.1836
7.850000	 43.1503
7.868000	 43.1092
7.886000	 43.0843
7.904000	 43.0859
7.922000	 43.0944
7.940000	 43.0951
7.958000	 43.0717
7.976000	 43.008
7.994000	 42.921
8.012000	 42.8514
8.030000	 42.8169
8.048000	 42.8035
8.065999	 42.7923
8.084000	 42.7723
8.102000	 42.7364
8.120000	 42.6768
8.138000	 42.597
8.155999	 42.5298
8.173999	 42.5082
8.192000	 42.5168
8.210000	 42.5098
8.228000	 42.4753
8.246000	 42.4372
8.263999	 42.4038
8.282000	 42.3666
8.300000	 42.3346
8.318000	 42.3266
8.336000	 42.3396
8.353999	 42.3501
8.372000	 42.3384
8.390000	 42.2961
8.408000	 42.2285
8.426000	 42.1574
8.443999	 42.1007
8.462000	 42.0546
8.480000	 42.0101
8.498000	 41.9766
8.516000	 41.9751
8.533999	 42.0085
8.552000	 42.0538
8.570000	 42.0746
8.588000	 42.0432
8.606000	 41.9631
8.624000	 41.8738
8.641999	 41.8228
8.660000	 41.8274
8.678000	 41.8617
8.696000	 41.8758
8.714000	 41.8343
8.731999	 41.7416
8.750000	 41.6373
8.768000	 41.5624
8.786000	 41.5277
8.804000	 41.5197
8.821999	 41.5244
8.840000	 41.5348
8.858000	 41.5384
8.876000	 41.5195
8.894000	 41.4782
8.911999	 41.4384
8.930000	 41.4272
8.948000	 41.4485
8.966000	 41.4789
8.984000	 41.4869
9.001999	 41.4535
9.020000	 41.3779
9.038000	 41.2763
9.056000	 41.1759
9.074000	 41.1055
9.092000	 41.0812
9.109999	 41.0996
9.128000	 41.1418
9.146000	 41.1862
9.164000	 41.2123
9.182000	 41.1971
9.199999	 41.1236
9.218000	 40.9985
9.236000	 40.857
9.254000	 40.7408
9.272000	 40.6723
9.289999	 40.6477
9.308000	 40.6513
9.326000	 40.6696
9.344000	 40.6914
9.362000	 40.7042
9.379999	 40.6986
9.398000	 40.6729
9.416000	 40.6313
9.434000	 40.5797
9.452000	 40.5252
9.469999	 40.475
9.488000	 40.4316
9.506000	 40.3938
9.524000	 40.3634
9.542000	 40.3476
9.560000	 40.3514
9.577999	 40.3689
9.596000	 40.3837
9.614000	 40.3826
9.632000	 40.3681
9.650000	 40.3549
9.667999	 40.353
9.686000	 40.3578
9.704000	 40.3566
9.722000	 40.3436
9.740000	 40.3287
9.757999	 40.3314
9.776000	 40.3641
9.794000	 40.419
9.812000	 40.4712
9.830000	 40.4955
9.847999	 40.4812
9.866000	 40.4326
9.884000	 40.3586
9.902000	 40.2664
9.920000	 40.1649
9.937999	 40.0711
9.956000	 40.0072
9.974000	 39.987
9.992000	 40.0049
10.01	40.0376
10.028	40.0589
10.046	40.0549
10.064	40.0256
10.082	39.9756
10.1	39.908
10.118	39.8268
10.136	39.7431
10.154	39.6761
10.172	39.6456
10.19	39.6613
10.208	39.7141
10.226	39.7804
10.244	39.835
10.262	39.8629
10.28	39.8648
10.298	39.8491
10.316	39.8223
10.334	39.7813
10.352	39.7172
10.37	39.6241
10.388	39.509
10.406	39.3902
10.424	39.2897
10.442	39.2224
10.46	39.1913
10.478	39.1901
10.496	39.2095
10.514	39.2414
10.532	39.2779
10.55	39.3113
10.568	39.3333
10.586	39.3373
10.604	39.3218
10.622	39.2888
10.64	39.2411
10.658	39.1782
10.676	39.0988
10.694	39.0059
10.712	38.9137
10.73	38.8449
10.748	38.8227
10.766	38.8559
10.784	38.9309
10.802	39.0125
10.82	39.0622
10.838	39.0534
10.856	38.9879
10.874	38.8921
10.892	38.7994
10.91	38.7335
10.928	38.6949
10.946	38.6656
10.964	38.6245
10.982	38.5614
11	38.4839
11.018	38.4112
11.036	38.3605
11.054	38.3378
11.072	38.335
11.09	38.3384
11.108	38.3388
11.126	38.3353
11.144	38.3334
11.162	38.3387
11.18	38.352
11.198	38.3695
11.216	38.3852
11.234	38.3959
11.252	38.4018
11.27	38.4063
11.288	38.4131
11.306	38.4237
11.324	38.4362
11.342	38.446
11.36	38.4481
11.378	38.4372
11.396	38.4095
11.414	38.3634
11.432	38.2995
11.45	38.2215
11.468	38.1367
11.486	38.0541
11.504	37.9829
11.522	37.9309
11.54	37.9018
11.558	37.8943
11.576	37.9014
11.594	37.9131
11.612	37.9176
11.63	37.9057
11.648	37.8745
11.666	37.8274
11.684	37.7736
11.702	37.7234
11.72	37.6862
11.738	37.6665
11.756	37.6626
11.774	37.6682
11.792	37.6742
11.81	37.672
11.828	37.6563
11.846	37.6247
11.864	37.5788
11.882	37.5225
11.9	37.4605
11.918	37.3975
11.936	37.3384
11.954	37.2876
11.972	37.2495
11.99	37.2272
12.008	37.2222
12.026	37.234
12.044	37.259
12.062	37.2909
12.08	37.3231
12.098	37.3492
12.116	37.3648
12.134	37.3686
12.152	37.3615
12.17	37.3446
12.188	37.3189
12.206	37.285
12.224	37.2445
12.242	37.2015
12.26	37.1625
12.278	37.1351
12.296	37.1247
12.314	37.1313
12.332	37.1486
12.35	37.165
12.368	37.1673
12.386	37.1454
12.404	37.0958
12.422	37.0232
12.44	36.9391
12.458	36.8565
12.476	36.787
12.494	36.7357
12.512	36.7014
12.53	36.678
12.548	36.6585
12.566	36.6377
12.584	36.6147
12.602	36.5922
12.62	36.5746
12.638	36.5653
12.656	36.5648
12.674	36.5698
12.692	36.5743
12.71	36.5715
12.728	36.5564
12.746	36.5274
12.764	36.4873
12.782	36.4426
12.8	36.4015
12.818	36.3713
12.836	36.3569
12.854	36.3592
12.872	36.3755
12.89	36.4005
12.908	36.4279
12.926	36.4517
12.944	36.4682
12.962	36.4755
12.98	36.4738
12.998	36.4645
13.016	36.4499
13.034	36.4316
13.052	36.4112
13.07	36.3892
13.088	36.3662
13.106	36.3424
13.124	36.3179
13.142	36.293
13.16	36.2678
13.178	36.242
13.196	36.2148
13.214	36.1857
13.232	36.1544
13.25	36.1212
13.268	36.0873
13.286	36.0549
13.304	36.0269
13.322	36.0067
13.34	35.9969
13.358	35.9993
13.376	36.0138
13.394	36.0384
13.412	36.0688
13.43	36.0993
13.448	36.123
13.466	36.1333
13.484	36.1251
13.502	36.0952
13.52	36.0437
13.538	35.9736
13.556	35.8905
13.574	35.8015
13.592	35.7139
13.61	35.6344
13.628	35.5672
13.646	35.5141
13.664	35.474
13.682	35.4441
13.7	35.42
13.718	35.3977
13.736	35.3737
13.754	35.3458
13.772	35.3134
13.79	35.2768
13.808	35.2369
13.826	35.1945
13.844	35.1501
13.862	35.1041
13.88	35.0567
13.898	35.0088
13.916	34.9616
13.934	34.9173
13.952	34.8787
13.97	34.8488
13.988	34.8299
14.006	34.823
14.024	34.8277
14.042	34.841
14.06	34.8587
14.078	34.8754
14.096	34.8862
14.114	34.8871
14.132	34.8761
14.15	34.8533
14.168	34.8205
14.186	34.7809
14.204	34.7391
14.222	34.6991
14.24	34.6639
14.258	34.6343
14.276	34.6099
14.294	34.5887
14.312	34.5675
14.33	34.5429
14.348	34.5115
14.366	34.4712
14.384	34.4217
14.402	34.3642
14.42	34.3017
14.438	34.2381
14.456	34.1777
14.474	34.1244
14.492	34.0809
14.51	34.0488
14.528	34.0274
14.546	34.015
14.564	34.0089
14.582	34.006
14.6	34.0034
14.618	33.999
14.636	33.9913
14.654	33.9807
14.672	33.9681
14.69	33.9554
14.708	33.9449
14.726	33.939
14.744	33.9403
14.762	33.9502
14.78	33.969
14.798	33.9961
14.816	34.0301
14.834	34.0684
14.852	34.1076
14.87	34.1444
14.888	34.1761
14.906	34.2003
14.924	34.2157
14.942	34.222
14.96	34.2205
14.978	34.2129
14.996	34.2013
15.014	34.1881
15.032	34.1758
15.05	34.1655
15.068	34.1577
15.086	34.1523
15.104	34.1482
15.122	34.1439
15.14	34.138
15.158	34.1293
15.176	34.1171
15.194	34.1014
15.212	34.0831
15.23	34.0633
15.248	34.0431
15.266	34.0236
15.284	34.0053
15.302	33.9881
15.32	33.9715
15.338	33.9547
15.356	33.9366
15.374	33.9162
15.392	33.8927
15.41	33.8656
15.428	33.8349
15.446	33.8011
15.464	33.7649
15.482	33.7271
15.5	33.6887
15.518	33.6507
15.536	33.6139
15.554	33.5785
15.572	33.5448
15.59	33.5125
15.608	33.481
15.626	33.4499
15.644	33.4186
15.662	33.3864
15.68	33.3531
15.698	33.3185
15.716	33.2829
15.734	33.2471
15.752	33.212
15.77	33.1786
15.788	33.1487
15.806	33.1231
15.824	33.1027
15.842	33.0883
15.86	33.0795
15.878	33.0752
15.896	33.0742
15.914	33.0734
15.932	33.0699
15.95	33.0611
15.968	33.0439
15.986	33.0159
16.004	32.976
16.022	32.9237
16.04	32.8601
16.058	32.7876
16.076	32.7084
16.094	32.6266
16.112	32.5462
16.13	32.4699
16.148	32.4007
16.166	32.341
16.184	32.2911
16.202	32.2514
16.22	32.221
16.238	32.1983
16.256	32.1818
16.274	32.1696
16.292	32.1606
16.31	32.1538
16.328	32.1489
16.346	32.1465
16.364	32.147
16.382	32.152
16.4	32.1625
16.418	32.179
16.436	32.2022
16.454	32.2314
16.472	32.266
16.49	32.3041
16.508	32.3438
16.526	32.3834
16.544	32.4201
16.562	32.4523
16.58	32.4788
16.598	32.4986
16.616	32.512
16.634	32.5191
16.652	32.5216
16.67	32.5204
16.688	32.517
16.706	32.513
16.724	32.5089
16.742	32.5054
16.76	32.5022
16.778	32.4988
16.796	32.4938
16.814	32.4856
16.832	32.4732
16.85	32.4545
16.868	32.4289
16.886	32.396
16.904	32.3559
16.922	32.3096
16.94	32.2581
16.958	32.2042
16.976	32.1492
16.994	32.0963
17.012	32.0477
17.03	32.0048
17.048	31.9699
17.066	31.943
17.084	31.9247
17.102	31.9138
17.12	31.9097
17.138	31.9097
17.156	31.912
17.174	31.9145
17.192	31.914
17.21	31.9093
17.228	31.8979
17.246	31.879
17.264	31.8519
17.282	31.8167
17.3	31.7738
17.318	31.7243
17.336	31.6696
17.354	31.6106
17.372	31.5495
17.39	31.4869
17.408	31.4243
17.426	31.362
17.444	31.3005
17.462	31.2399
17.48	31.1801
17.498	31.121
17.516	31.0626
17.534	31.0051
17.552	30.9491
17.57	30.8947
17.588	30.8435
17.606	30.7964
17.624	30.7548
17.642	30.7204
17.66	30.6941
17.678	30.6776
17.696	30.6709
17.714	30.6747
17.732	30.6882
17.75	30.7111
17.768	30.7411
17.786	30.7774
17.804	30.8162
17.822	30.8566
17.84	30.8947
17.858	30.929
17.876	30.9569
17.894	30.9768
17.912	30.9877
17.93	30.989
17.948	30.9808
17.966	30.9641
17.984	30.9399
18.002	30.91
18.02	30.8765
18.038	30.841
18.056	30.8064
18.074	30.7735
18.092	30.745
18.11	30.721
18.128	30.703
18.146	30.6907
18.164	30.6841
18.182	30.6822
18.2	30.6843
18.218	30.6888
18.236	30.695
18.254	30.7006
18.272	30.7052
18.29	30.7069
18.308	30.7056
18.326	30.6999
18.344	30.69
18.362	30.6753
18.38	30.6561
18.398	30.6326
18.416	30.6052
18.434	30.5742
18.452	30.5405
18.47	30.5043
18.488	30.4664
18.506	30.4269
18.524	30.3864
18.542	30.3451
18.56	30.3037
18.578	30.2622
18.596	30.2215
18.614	30.1816
18.632	30.1437
18.65	30.108
18.668	30.0758
18.686	30.0472
18.704	30.0236
18.722	30.005
18.74	29.9924
18.758	29.9857
18.776	29.9852
18.794	29.9905
18.812	30.001
18.83	30.0161
18.848	30.0345
18.866	30.0554
18.884	30.0769
18.902	30.0983
18.92	30.1174
18.938	30.1337
18.956	30.1453
18.974	30.1519
18.992	30.1523
19.01	30.1463
19.028	30.1333
19.046	30.1137
19.064	30.0875
19.082	30.0551
19.1	30.017
19.118	29.9738
19.136	29.9261
19.154	29.8746
19.172	29.8202
19.19	29.7633
19.208	29.7054
19.226	29.6464
19.244	29.5878
19.262	29.5296
19.28	29.4733
19.298	29.4188
19.316	29.3679
19.334	29.3206
19.352	29.2784
19.37	29.2412
19.388	29.2105
19.406	29.1861
19.424	29.1687
19.442	29.1583
19.46	29.1542
19.478	29.1568
19.496	29.1645
19.514	29.1773
19.532	29.1932
19.55	29.2113
19.568	29.2302
19.586	29.2484
19.604	29.2652
19.622	29.2784
19.64	29.2882
19.658	29.2934
19.676	29.2942
19.694	29.2906
19.712	29.2826
19.73	29.2723
19.748	29.2592
19.766	29.2462
19.784	29.2332
19.802	29.2225
19.82	29.2154
19.838	29.2126
19.856	29.216
19.874	29.2253
19.892	29.2416
19.91	29.2646
19.928	29.2939
19.946	29.3295
19.964	29.369
19.982	29.4127
20	29.4575
20.018	29.5022
20.036	29.5453
20.054	29.5837
20.072	29.6174
20.09	29.6427
20.108	29.6602
20.126	29.667
20.144	29.663
20.162	29.6475
20.18	29.6196
20.198	29.5799
20.216	29.5282
20.234	29.465
20.252	29.3918
20.27	29.3082
20.288	29.217
20.306	29.1179
20.324	29.0133
20.342	28.9044
20.36	28.7922
20.378	28.6797
20.396	28.5664
20.414	28.4559
20.432	28.3477
20.45	28.2447
20.468	28.1478
20.486	28.0576
20.504	27.9766
20.522	27.9041
20.54	27.8421
20.558	27.7903
20.576	27.7494
20.594	27.7199
20.612	27.7012
20.63	27.6932
20.648	27.6957
20.666	27.7077
20.684	27.7293
20.702	27.7592
20.72	27.7967
20.738	27.8416
20.756	27.8917
20.774	27.9476
20.792	28.007
20.81	28.0698
20.828	28.1349
20.846	28.2001
20.864	28.2661
20.882	28.3299
20.9	28.392
20.918	28.4502
20.936	28.5031
20.954	28.5506
20.972	28.5896
20.99	28.6209
21.008	28.642
21.026	28.652
21.044	28.6508
21.062	28.6363
21.08	28.609
21.098	28.5682
21.116	28.5135
21.134	28.4457
21.152	28.3652
21.17	28.2718
21.188	28.1681
21.206	28.0539
21.224	27.931
21.242	27.8025
21.26	27.6673
21.278	27.5301
21.296	27.3911
21.314	27.2521
21.332	27.117
21.35	26.9846
21.368	26.8587
21.386	26.7403
21.404	26.6296
21.422	26.5293
21.44	26.4387
21.458	26.3588
21.476	26.2904
21.494	26.2328
21.512	26.1859
21.53	26.15
21.548	26.1235
21.566	26.1057
21.584	26.0967
21.602	26.0938
21.62	26.0975
21.638	26.1063
21.656	26.118
21.674	26.1335
21.692	26.1504
21.71	26.1684
21.728	26.1871
21.746	26.2044
21.764	26.221
21.782	26.2356
21.8	26.2476
21.818	26.2573
21.836	26.2637
21.854	26.2667
21.872	26.2663
21.89	26.2622
21.908	26.2545
21.926	26.2428
21.944	26.2268
21.962	26.2067
21.98	26.1823
21.998	26.1536
22.016	26.1208
22.034	26.0839
22.052	26.0428
22.07	25.9981
22.088	25.9503
22.106	25.8991
22.124	25.8461
22.142	25.7912
22.16	25.7348
22.178	25.679
22.196	25.6232
22.214	25.5687
22.232	25.5176
22.25	25.469
22.268	25.4247
22.286	25.386
22.304	25.3522
22.322	25.3249
22.34	25.3046
22.358	25.291
22.376	25.2843
22.394	25.2849
22.412	25.292
22.43	25.3048
22.448	25.3241
22.466	25.3479
22.484	25.3748
22.502	25.4058
22.52	25.4379
22.538	25.4702
22.556	25.5032
22.574	25.5339
22.592	25.562
22.61	25.5876
22.628	25.6086
22.646	25.625
22.664	25.6369
22.682	25.6438
22.7	25.6454
22.718	25.6427
22.736	25.6365
22.754	25.6261
22.772	25.6134
22.79	25.5996
22.808	25.5839
22.826	25.5688
22.844	25.5558
22.862	25.5439
22.88	25.5359
22.898	25.533
22.916	25.5344
22.934	25.5422
22.952	25.5573
22.97	25.579
22.988	25.608
23.006	25.6445
23.024	25.6882
23.042	25.738
23.06	25.7943
23.078	25.8566
23.096	25.9227
23.114	25.9931
23.132	26.0671
23.15	26.1419
23.168	26.218
23.186	26.2948
23.204	26.3701
23.222	26.4442
23.24	26.5168
23.258	26.5862
23.276	26.6525
23.294	26.7156
23.312	26.774
23.33	26.8277
23.348	26.8769
23.366	26.9213
23.384	26.9604
23.402	26.9948
23.42	27.0256
23.438	27.0527
23.456	27.0761
23.474	27.0972
23.492	27.1161
23.51	27.1327
23.528	27.1473
23.546	27.1601
23.564	27.171
23.582	27.1803
23.6	27.1881
23.618	27.1944
23.636	27.1993
23.654	27.2031
23.672	27.2056
23.69	27.2069
23.708	27.2073
23.726	27.2066
23.744	27.2048
23.762	27.2017
23.78	27.197
23.798	27.1918
23.816	27.1872
23.834	27.1821
23.852	27.1782
23.87	27.1783
23.888	27.182
23.906	27.1892
23.924	27.2008
23.942	27.2177
23.96	27.2391
23.978	27.2634
23.996	27.2906
24.014	27.3209
24.032	27.3528
24.05	27.3857
24.068	27.4204
24.086	27.4549
24.104	27.487
24.122	27.519
24.14	27.5479
24.158	27.5701
24.176	27.5875
24.194	27.5986
24.212	27.5984
24.23	27.5866
24.248	27.5645
24.266	27.5276
24.284	27.4734
24.302	27.4045
24.32	27.3181
24.338	27.2113
24.356	27.0854
24.374	26.9402
24.392	26.7746
24.41	26.5875
24.428	26.3803
24.446	26.1554
24.464	25.9131
24.482	25.6528
24.5	25.3767
24.518	25.0868
24.536	24.7796
24.554	24.4604
24.572	24.1361
24.59	23.803
24.608	23.4632
24.626	23.127
24.644	22.7971
24.662	22.4677
24.68	22.1515
24.698	21.8597
24.716	21.5833
24.734	21.3299
24.752	21.1132
24.77	20.9324
24.788	20.7846
24.806	20.6819
24.824	20.6325
24.842	20.6287
24.86	20.6765
24.878	20.784
24.896	20.9509
24.914	21.1747
24.932	21.4563
24.95	21.7981
24.968	22.2009
24.986	22.6564
25.004	23.1561
25.022	23.7079
25.04	24.3054
25.058	24.9333
25.076	25.5874
25.094	26.2773
25.112	26.9847
25.13	27.6914
25.148	28.4081
25.166	29.1295
25.184	29.8382
25.202	30.5268
25.22	31.2056
25.238	31.8632
25.256	32.4872
25.274	33.0793
25.292	33.6426
25.31	34.175
25.328	34.6737
25.346	35.1375
25.364	35.5744
25.382	35.9927
25.4	36.3847
25.418	36.7539
25.436	37.1187
25.454	37.4918
25.472	37.8568
25.49	38.2296
25.508	38.6324
25.526	39.0656
25.544	39.5191
25.562	40.0169
25.58	40.5817
25.598	41.2003
25.616	41.8763
25.634	42.627
25.652	43.4635
25.67	44.3748
25.688	45.3656
25.706	46.4427
25.724	47.6122
25.742	48.8691
25.76	50.2024
25.778	51.6032
25.796	53.0896
25.814	54.6452
25.832	56.2383
25.85	57.8527
25.868	59.5207
25.886	61.2039
25.904	62.8546
25.922	64.4708
25.94	66.0794
25.958	67.6269
25.976	69.0593
25.994	70.4013
26.012	71.6547
26.03	72.7714
26.048	73.7092
26.066	74.4979
26.084	75.1299
26.102	75.5791
26.12	75.826
26.138	75.8852
26.156	75.7591
26.174	75.4471
26.192	74.9394
26.21	74.2325
26.228	73.3585
26.246	72.3502
26.264	71.1951
26.282	69.8838
26.3	68.4658
26.318	66.9888
26.336	65.4243
26.354	63.7746
26.372	62.0914
26.39	60.4217
26.408	58.7303
26.426	57.0274
26.444	55.3548
26.462	53.7476
26.48	52.1797
26.498	50.6565
26.516	49.1974
26.534	47.8181
26.552	46.5076
26.57	45.2651
26.588	44.0929
26.606	42.994
26.624	41.9696
26.642	41.0132
26.66	40.118
26.678	39.2817
26.696	38.5119
26.714	37.7987
26.732	37.1304
26.75	36.5
26.768	35.9147
26.786	35.373
26.804	34.8725
26.822	34.4121
26.84	33.9935
26.858	33.615
26.876	33.2748
26.894	32.9722
26.912	32.7086
26.93	32.4822
26.948	32.2913
26.966	32.1366
26.984	32.0224
27.002	31.9404
27.02	31.8815
27.028	31.8628