File: Bakgrunnsmateriale/MATLAB/FTIR/ftir_data/subBb/Mapping_121/C-4040-8_t10_cm-1.asc
PE IR       SPECTRUM    SPECTRUM    ASCII       PEDS        1.60
  -1
C-1A61~1.ASC
17/03/27
15:17:06.00
17/03/27
15:17:06.00
tln
$C-4040-8_t0010$<tbV0>[-10.4,-13.0,8.0,0.0,27,1,0]
370
64

2002,4.07
MIRTGS : RIGHTBACK : INTERNAL 2
MIR : ON : INTERNAL 2
OPTKBR

0.200000
8
8.000000
FILLER
RATIO
SPECTRUM
UNLOCKED 256

DOUBLE
64
COMBINED
1
0
0

1.000000
RATIO

1
0
TRUE
51149
0
LEFT NOT FITTED RIGHT NOT FITTED 0
NONE
NONE
15600
12
4.427000
51148
TRUE
1 0 8 72 0 0 0 0

15798

#HDR
-1
-1
#GR
CM-1
%T
2.38419e-05
0.0
5000
-1.000000
4631
8
80.8848
23.4479
#DATA
5000	63.8163
4996	63.9879
4992	64.5178
4988	64.8134
4984	64.5076
4980	64.0652
4976	63.6516
4972	63.4699
4968	63.7141
4964	63.3423
4960	62.5861
4956	62.7519
4952	63.3027
4948	63.205
4944	62.5668
4940	62.711
4936	63.8205
4932	64.357
4928	63.7542
4924	63.1575
4920	63.4305
4916	64.0221
4912	64.4876
4908	64.7131
4904	64.6304
4900	64.3157
4896	63.9252
4892	63.9821
4888	64.294
4884	64.1937
4880	63.6856
4876	63.447
4872	63.6675
4868	63.7342
4864	63.7994
4860	64.1992
4856	64.4221
4852	64.3634
4848	64.4169
4844	64.5089
4840	64.6135
4836	64.6814
4832	64.5348
4828	64.2627
4824	63.9663
4820	63.7748
4816	63.7333
4812	63.6768
4808	63.59
4804	63.5643
4800	63.5945
4796	63.7814
4792	64.1996
4788	64.5054
4784	64.3582
4780	64.1022
4776	64.069
4772	64.1392
4768	64.0477
4764	63.7978
4760	63.8028
4756	64.0693
4752	64.2628
4748	64.343
4744	64.3737
4740	64.3646
4736	64.1736
4732	63.8197
4728	63.6728
4724	63.7463
4720	63.9131
4716	64.1145
4712	64.2332
4708	64.1887
4704	64.0221
4700	63.9803
4696	63.9918
4692	64.0028
4688	64.1513
4684	64.2476
4680	64.1637
4676	64.1183
4672	64.153
4668	64.0927
4664	64.0063
4660	64.1107
4656	64.2714
4652	64.1899
4648	64.162
4644	64.363
4640	64.4595
4636	64.3236
4632	64.1068
4628	64.0429
4624	64.0902
4620	64.136
4616	64.0807
4612	64.0268
4608	64.1901
4604	64.1427
4600	63.8836
4596	63.8448
4592	63.7581
4588	63.6129
4584	63.6698
4580	63.8764
4576	64.0108
4572	63.88
4568	63.7301
4564	63.7876
4560	63.8962
4556	63.8505
4552	63.5843
4548	63.4691
4544	63.5535
4540	63.5635
4536	63.2989
4532	62.8077
4528	62.8479
4524	63.1689
4520	63.2855
4516	63.4481
4512	63.4807
4508	63.544
4504	63.7698
4500	63.6814
4496	63.3052
4492	62.9755
4488	62.9248
4484	62.9771
4480	63.3829
4476	63.7781
4472	63.6276
4468	63.6747
4464	63.8906
4460	63.9915
4456	64.4056
4452	66.6813
4448	69.2996
4444	68.9609
4440	66.0455
4436	62.4417
4432	61.1048
4428	61.6788
4424	61.8433
4420	61.9351
4416	62.0347
4412	61.6893
4408	61.1684
4404	60.314
4400	60.1341
4396	60.2518
4392	64.9195
4388	76.7101
4384	80.2898
4380	72.0832
4376	65.7192
4372	64.4858
4368	64.6571
4364	64.0504
4360	63.5382
4356	63.835
4352	63.9908
4348	63.7754
4344	63.312
4340	63.0171
4336	63.1276
4332	63.1503
4328	63.0969
4324	63.2285
4320	63.2579
4316	63.0886
4312	62.9417
4308	62.8539
4304	62.8312
4300	62.9328
4296	63.1063
4292	63.1374
4288	63.0099
4284	62.8948
4280	62.7462
4276	62.6066
4272	62.818
4268	63.2035
4264	63.186
4260	62.9524
4256	62.8623
4252	62.8919
4248	62.9568
4244	62.9445
4240	62.995
4236	63.1641
4232	63.1107
4228	62.8776
4224	62.9886
4220	63.3118
4216	63.3277
4212	63.2667
4208	63.4384
4204	63.5777
4200	63.5798
4196	63.578
4192	63.4164
4188	63.0943
4184	62.8959
4180	62.8171
4176	62.5693
4172	62.414
4168	62.8294
4164	63.2838
4160	63.4018
4156	63.4763
4152	63.3829
4148	63.1081
4144	62.9632
4140	62.9765
4136	63.1011
4132	63.3161
4128	63.4246
4124	63.411
4120	63.4539
4116	63.6371
4112	63.8721
4108	63.8636
4104	63.5917
4100	63.347
4096	63.185
4092	63.2385
4088	63.4933
4084	63.5543
4080	63.4416
4076	63.3678
4072	63.3419
4068	63.3397
4064	63.3423
4060	63.3155
4056	63.2792
4052	63.2814
4048	63.2963
4044	63.3756
4040	63.4643
4036	63.4639
4032	63.4884
4028	63.4913
4024	63.4152
4020	63.4693
4016	63.6159
4012	63.623
4008	63.6088
4004	63.6247
4000	63.5866
3996	63.6224
3992	63.6186
3988	63.4452
3984	63.215
3980	62.9652
3976	62.857
3972	63.0029
3968	63.2238
3964	63.2774
3960	63.0709
3956	62.8976
3952	63.0126
3948	63.2632
3944	63.4171
3940	63.3499
3936	63.1804
3932	63.1557
3928	63.2627
3924	63.3354
3920	63.2697
3916	63.1581
3912	63.167
3908	63.2354
3904	63.2859
3900	63.2937
3896	63.2398
3892	63.2278
3888	63.2122
3884	63.0743
3880	62.962
3876	63.0138
3872	63.0929
3868	63.0743
3864	62.9911
3860	62.9947
3856	63.1999
3852	63.2537
3848	63.0271
3844	62.9198
3840	63.0448
3836	63.1519
3832	63.0407
3828	62.8902
3824	62.8073
3820	62.7974
3816	62.8252
3812	62.833
3808	62.9742
3804	63.1249
3800	63.0763
3796	62.8574
3792	62.6559
3788	62.5751
3784	62.5351
3780	62.6043
3776	62.7156
3772	62.7462
3768	62.8122
3764	62.8931
3760	62.894
3756	62.9643
3752	63.1268
3748	63.2122
3744	63.1684
3740	63.0575
3736	63.0067
3732	62.9517
3728	62.8066
3724	62.7005
3720	62.7459
3716	62.8778
3712	62.8618
3708	62.6674
3704	62.5458
3700	62.5915
3696	62.7529
3692	62.9668
3688	63.0039
3684	62.8519
3680	62.807
3676	62.8705
3672	62.8226
3668	62.6587
3664	62.5428
3660	62.567
3656	62.7085
3652	62.86
3648	62.8296
3644	62.61
3640	62.3989
3636	62.3294
3632	62.3948
3628	62.406
3624	62.4084
3620	62.4664
3616	62.4088
3612	62.355
3608	62.2643
3604	62.0846
3600	62.0946
3596	62.2018
3592	62.2412
3588	62.3372
3584	62.4111
3580	62.3478
3576	62.2174
3572	62.0873
3568	62.0662
3564	62.1781
3560	62.2632
3556	62.1945
3552	62.0431
3548	61.9865
3544	61.9545
3540	61.8788
3536	61.8906
3532	61.9582
3528	61.9843
3524	61.9934
3520	61.9238
3516	61.8204
3512	61.8053
3508	61.8299
3504	61.8819
3500	61.9326
3496	62.0089
3492	62.079
3488	62.0531
3484	62.1187
3480	62.1156
3476	61.9034
3472	61.8459
3468	61.9323
3464	61.9178
3460	61.9206
3456	62.0042
3452	61.993
3448	61.9114
3444	61.8202
3440	61.7241
3436	61.6543
3432	61.543
3428	61.4507
3424	61.4256
3420	61.4279
3416	61.465
3412	61.4915
3408	61.4398
3404	61.3777
3400	61.4274
3396	61.4657
3392	61.3615
3388	61.2505
3384	61.2737
3380	61.3546
3376	61.3537
3372	61.2942
3368	61.2566
3364	61.1707
3360	61.1046
3356	61.1895
3352	61.3027
3348	61.3821
3344	61.3582
3340	61.2064
3336	61.1468
3332	61.1857
3328	61.1954
3324	61.187
3320	61.1325
3316	61.0563
3312	60.9983
3308	60.9709
3304	60.9698
3300	60.9568
3296	61.0409
3292	61.1842
3288	61.1192
3284	60.9309
3280	60.9363
3276	61.0185
3272	60.9591
3268	60.8955
3264	60.8927
3260	60.8243
3256	60.6327
3252	60.4904
3248	60.5423
3244	60.6009
3240	60.5796
3236	60.6222
3232	60.6606
3228	60.6048
3224	60.6442
3220	60.7722
3216	60.7947
3212	60.7768
3208	60.7715
3204	60.7327
3200	60.7002
3196	60.6386
3192	60.5469
3188	60.5759
3184	60.6385
3180	60.5897
3176	60.4897
3172	60.3703
3168	60.3455
3164	60.4372
3160	60.4642
3156	60.4262
3152	60.3833
3148	60.3464
3144	60.3353
3140	60.3518
3136	60.3614
3132	60.2613
3128	60.1319
3124	60.1688
3120	60.2764
3116	60.251
3112	60.1987
3108	60.2382
3104	60.2092
3100	60.1487
3096	60.1235
3092	59.9933
3088	59.9026
3084	59.9306
3080	59.9885
3076	60.0718
3072	60.0405
3068	59.9314
3064	59.9415
3060	60.0038
3056	59.9537
3052	59.8332
3048	59.767
3044	59.7332
3040	59.6818
3036	59.6924
3032	59.7754
3028	59.8239
3024	59.8469
3020	59.8461
3016	59.7618
3012	59.6582
3008	59.6285
3004	59.6226
3000	59.5894
2996	59.5619
2992	59.5341
2988	59.5139
2984	59.4953
2980	59.4428
2976	59.3663
2972	59.3186
2968	59.2907
2964	59.2521
2960	59.2476
2956	59.1979
2952	59.0855
2948	59.0666
2944	59.1234
2940	59.1209
2936	59.0912
2932	59.1103
2928	59.1038
2924	59.0351
2920	58.963
2916	58.8988
2912	58.84
2908	58.8315
2904	58.8826
2900	58.934
2896	58.9458
2892	58.9119
2888	58.8446
2884	58.7897
2880	58.7375
2876	58.6861
2872	58.6866
2868	58.7188
2864	58.7081
2860	58.571
2856	58.4491
2852	58.5132
2848	58.6064
2844	58.6322
2840	58.6744
2836	58.6842
2832	58.6242
2828	58.5876
2824	58.6062
2820	58.6367
2816	58.5706
2812	58.4313
2808	58.3667
2804	58.3498
2800	58.3412
2796	58.3418
2792	58.3321
2788	58.3052
2784	58.2563
2780	58.2123
2776	58.1758
2772	58.1118
2768	58.0761
2764	58.0904
2760	58.1169
2756	58.124
2752	58.112
2748	58.1192
2744	58.116
2740	58.086
2736	57.9917
2732	57.8692
2728	57.8307
2724	57.7887
2720	57.7341
2716	57.7442
2712	57.7109
2708	57.63
2704	57.6043
2700	57.6581
2696	57.7671
2692	57.7796
2688	57.673
2684	57.6152
2680	57.6047
2676	57.599
2672	57.6
2668	57.5619
2664	57.4823
2660	57.4307
2656	57.419
2652	57.3684
2648	57.2957
2644	57.2861
2640	57.2872
2636	57.2439
2632	57.233
2628	57.2352
2624	57.1847
2620	57.1253
2616	57.0782
2612	57.0319
2608	56.9702
2604	56.9013
2600	56.8639
2596	56.9073
2592	56.9646
2588	56.8879
2584	56.7822
2580	56.7883
2576	56.8251
2572	56.7938
2568	56.7157
2564	56.6425
2560	56.6049
2556	56.6145
2552	56.6448
2548	56.6576
2544	56.6054
2540	56.4973
2536	56.3983
2532	56.3902
2528	56.4474
2524	56.4553
2520	56.4137
2516	56.3716
2512	56.3432
2508	56.2875
2504	56.1642
2500	56.0367
2496	56.0446
2492	56.1924
2488	56.224
2484	56.0529
2480	55.9166
2476	55.9112
2472	55.9503
2468	56.0275
2464	56.0532
2460	55.878
2456	55.627
2452	55.5928
2448	55.7659
2444	55.8865
2440	55.8905
2436	55.8397
2432	55.6561
2428	55.4249
2424	55.4385
2420	55.5287
2416	55.4249
2412	55.3
2408	55.3457
2404	55.4368
2400	55.3654
2396	55.3015
2392	55.3689
2388	55.3812
2384	55.3109
2380	55.2487
2376	55.2049
2372	55.1956
2368	55.2228
2364	55.2263
2360	55.2046
2356	55.1634
2352	55.1222
2348	55.0665
2344	54.9617
2340	54.9707
2336	55.0719
2332	55.0271
2328	54.9033
2324	54.8366
2320	54.7405
2316	54.6175
2312	54.6232
2308	54.7192
2304	54.7425
2300	54.6397
2296	54.4945
2292	54.4628
2288	54.5089
2284	54.5011
2280	54.46
2276	54.4173
2272	54.3565
2268	54.3028
2264	54.3071
2260	54.301
2256	54.2449
2252	54.229
2248	54.2198
2244	54.1655
2240	54.1177
2236	54.1122
2232	54.1122
2228	54.0726
2224	54.0125
2220	53.9687
2216	53.9466
2212	53.9048
2208	53.818
2204	53.734
2200	53.7047
2196	53.7286
2192	53.739
2188	53.6419
2184	53.5016
2180	53.4682
2176	53.5122
2172	53.5228
2168	53.4859
2164	53.4848
2160	53.5172
2156	53.4707
2152	53.3365
2148	53.2737
2144	53.3067
2140	53.2976
2136	53.2609
2132	53.2131
2128	53.1518
2124	53.1229
2120	53.121
2116	53.066
2112	52.9674
2108	52.9618
2104	52.9944
2100	52.9679
2096	52.9324
2092	52.8394
2088	52.6668
2084	52.5736
2080	52.6605
2076	52.723
2072	52.5003
2068	52.3272
2064	52.4518
2060	52.4902
2056	52.3915
2052	52.3451
2048	52.2995
2044	52.2917
2040	52.3375
2036	52.3146
2032	52.2361
2028	52.1488
2024	52.0548
2020	51.9852
2016	51.9406
2012	51.9449
2008	51.9929
2004	52.0013
2000	51.9907
1996	51.9648
1992	51.8868
1988	51.8233
1984	51.7828
1980	51.7302
1976	51.6575
1972	51.5908
1968	51.5652
1964	51.5203
1960	51.4479
1956	51.4497
1952	51.5057
1948	51.4907
1944	51.3977
1940	51.3347
1936	51.3425
1932	51.3497
1928	51.2967
1924	51.2259
1920	51.1728
1916	51.1146
1912	51.0789
1908	51.0384
1904	50.9602
1900	50.938
1896	50.9791
1892	50.9758
1888	50.9051
1884	50.8584
1880	50.8517
1876	50.796
1872	50.6952
1868	50.6341
1864	50.6358
1860	50.6308
1856	50.5847
1852	50.5575
1848	50.5535
1844	50.5098
1840	50.4102
1836	50.3304
1832	50.3531
1828	50.37
1824	50.2776
1820	50.1989
1816	50.2062
1812	50.1986
1808	50.1365
1804	50.0965
1800	50.1122
1796	50.1554
1792	50.1557
1788	50.0623
1784	49.9328
1780	49.8552
1776	49.8848
1772	49.9459
1768	49.8815
1764	49.7744
1760	49.7373
1756	49.6857
1752	49.6021
1748	49.5046
1744	49.4398
1740	49.4456
1736	49.4403
1732	49.3941
1728	49.3114
1724	49.2214
1720	49.2352
1716	49.2749
1712	49.1988
1708	49.1488
1704	49.2529
1700	49.3762
1696	49.3215
1692	49.1262
1688	49.0298
1684	49.0093
1680	48.9106
1676	48.8817
1672	48.9291
1668	48.8644
1664	48.7525
1660	48.7808
1656	48.9425
1652	48.9998
1648	48.8624
1644	48.6565
1640	48.5217
1636	48.4696
1632	48.3892
1628	48.3247
1624	48.3181
1620	48.2918
1616	48.2141
1612	48.12
1608	48.0425
1604	47.9309
1600	47.8124
1596	47.7778
1592	47.7901
1588	47.8024
1584	47.8654
1580	47.9553
1576	47.9422
1572	47.8084
1568	47.7038
1564	47.8265
1560	48.0175
1556	47.9069
1552	47.6355
1548	47.507
1544	47.6242
1540	47.7067
1536	47.4825
1532	47.28
1528	47.3335
1524	47.4752
1520	47.4827
1516	47.3603
1512	47.3123
1508	47.3567
1504	47.309
1500	47.1601
1496	46.9709
1492	46.8599
1488	46.8637
1484	46.8041
1480	46.7449
1476	46.7731
1472	46.757
1468	46.6872
1464	46.7335
1460	46.828
1456	46.753
1452	46.5626
1448	46.4621
1444	46.4169
1440	46.3492
1436	46.2982
1432	46.2461
1428	46.1492
1424	46.0938
1420	46.1121
1416	46.0668
1412	45.9529
1408	45.845
1404	45.8613
1400	45.9922
1396	45.9977
1392	45.8971
1388	45.7905
1384	45.6684
1380	45.5775
1376	45.5472
1372	45.5202
1368	45.4745
1364	45.4734
1360	45.4774
1356	45.4632
1352	45.4472
1348	45.3763
1344	45.2507
1340	45.1474
1336	45.1024
1332	45.0992
1328	45.1479
1324	45.1623
1320	45.1269
1316	45.0418
1312	44.9059
1308	44.8924
1304	44.936
1300	44.9029
1296	44.8917
1292	44.8624
1288	44.7455
1284	44.611
1280	44.5007
1276	44.4248
1272	44.398
1268	44.4308
1264	44.448
1260	44.3756
1256	44.3047
1252	44.3101
1248	44.3571
1244	44.3177
1240	44.2129
1236	44.1962
1232	44.1886
1228	44.1219
1224	44.0912
1220	44.0404
1216	43.9196
1212	43.9044
1208	43.9779
1204	43.9525
1200	43.8188
1196	43.659
1192	43.5751
1188	43.553
1184	43.5025
1180	43.4397
1176	43.4145
1172	43.4035
1168	43.364
1164	43.3561
1160	43.3645
1156	43.3176
1152	43.2557
1148	43.1695
1144	43.0708
1140	42.9934
1136	42.8917
1132	42.857
1128	42.936
1124	42.9549
1120	42.8941
1116	42.8523
1112	42.8768
1108	42.9372
1104	42.8845
1100	42.7871
1096	42.7502
1092	42.7098
1088	42.645
1084	42.5479
1080	42.3922
1076	42.2503
1072	42.2615
1068	42.2912
1064	42.2267
1060	42.1672
1056	42.1058
1052	42.0788
1048	42.1452
1044	42.1863
1040	42.0962
1036	41.899
1032	41.8467
1028	42.0037
1024	42.0596
1020	42.0003
1016	41.9055
1012	41.7583
1008	41.6857
1004	41.667
1000	41.5982
996	 41.5226
992	 41.445
988	 41.3829
984	 41.4208
980	 41.4705
976	 41.3384
972	 41.1382
968	 41.1295
964	 41.1615
960	 41.0218
956	 40.7799
952	 40.6392
948	 40.6661
944	 40.6206
940	 40.4207
936	 40.3346
932	 40.4253
928	 40.3836
924	 40.1233
920	 39.9913
916	 40.0029
912	 39.765
908	 39.5783
904	 39.9096
900	 40.2409
896	 40.1306
892	 39.9217
888	 39.6659
884	 39.4764
880	 39.7277
876	 40.0575
872	 40.132
868	 39.9563
864	 39.7725
860	 39.8189
856	 39.8448
852	 39.7098
848	 39.5255
844	 39.3671
840	 39.2345
836	 39.1611
832	 39.064
828	 38.7865
824	 38.6149
820	 38.6429
816	 38.6323
812	 38.6507
808	 38.6746
804	 38.6915
800	 38.606
796	 38.418
792	 38.4769
788	 38.6178
784	 38.4561
780	 38.2707
776	 38.217
772	 38.0651
768	 38.0046
764	 38.0699
760	 37.917
756	 37.7398
752	 37.7946
748	 37.8128
744	 37.6506
740	 37.3444
736	 37.1681
732	 37.3092
728	 37.347
724	 37.1874
720	 37.0582
716	 36.9571
712	 36.8907
708	 36.8072
704	 36.7764
700	 36.8825
696	 36.8849
692	 36.6748
688	 36.4527
684	 36.266
680	 36.0633
676	 35.9366
672	 35.8159
668	 35.6654
664	 35.7094
660	 35.785
656	 35.6053
652	 35.3816
648	 35.2427
644	 35.1599
640	 35.1917
636	 35.1335
632	 34.9095
628	 34.753
624	 34.6516
620	 34.5164
616	 34.3922
612	 34.2828
608	 34.1927
604	 33.8855
600	 33.4742
596	 33.462
592	 33.7526
588	 33.8771
584	 33.6598
580	 33.4663
576	 33.2713
572	 32.7438
568	 32.3126
564	 32.3799
560	 32.5315
556	 32.453
552	 32.1263
548	 31.6364
544	 31.56
540	 31.8565
536	 31.7999
532	 31.5851
528	 31.7001
524	 31.5884
520	 30.8451
516	 30.3822
512	 30.7492
508	 31.1958
504	 31.0388
500	 30.7304
496	 30.5371
492	 30.0724
488	 29.9029
484	 30.3475
480	 30.8458
476	 30.7493
472	 29.6483
468	 28.5704
464	 28.0167
460	 27.8116
456	 28.0395
452	 28.0139
448	 27.4701
444	 26.797
440	 26.388
436	 26.3412
432	 26.469
428	 26.4886
424	 26.5374
420	 27.0222
416	 25.7928
412	 23.4479
408	 25.3794
404	 28.9505
400	 29.0076
396	 28.3124
392	 28.8101
388	 44.4117
384	 64.1592
380	 53.1574
376	 45.9508
372	 50.3716
370	 50.6879