File: Bakgrunnsmateriale/MATLAB/FTIR/ftir_data/subBb/Mapping_121/C-4040-8_t55.asc
PE IR       SPECTRUM    SPECTRUM    ASCII       PEDS        1.60
  -1
C-B93E~1.ASC
17/03/27
19:00:04.00
17/03/27
19:00:30.00
tln
$C-4040-8_t0055$<tbV0>[-13.0,-2.6,8.0,0.0,27,1,0]
27.028
64

2002,4.07
MIRTGS : RIGHTBACK : INTERNAL 2
MIR : ON : INTERNAL 2
OPTKBR

0.200000
8
8.000000
FILLER
RATIO
SPECTRUM
UNLOCKED 256

DOUBLE
64
COMBINED
1
0
0

0.002000
RATIO

1
0
TRUE
51149
0
LEFT NOT FITTED RIGHT NOT FITTED 0
NONE
NONE
15600
12
4.427000
51148
TRUE
1 0 8 72 0 0 0 0

15798

#HDR
-1
-1
#GR
µM
%T
2.38419e-05
0.0
2.000000
0.002000
12515
8
78.5889
41.6477
#DATA
2.000000	 64.7503
2.018000	 65.1235
2.036000	 64.5412
2.054000	 65.2826
2.072000	 64.826
2.090000	 64.9379
2.108000	 64.5085
2.126000	 65.0685
2.144000	 64.5424
2.162000	 64.849
2.180000	 64.9353
2.198000	 64.3422
2.216000	 65.1557
2.234000	 65.087
2.252000	 65.0415
2.270000	 66.05
2.288000	 66.7884
2.306000	 63.8371
2.324000	 65.4968
2.342000	 65.0578
2.360000	 64.8811
2.378000	 65.3683
2.396000	 64.8722
2.414000	 65.0157
2.432000	 64.9303
2.450000	 65.1491
2.468000	 65.0428
2.486000	 65.065
2.504000	 65.0953
2.522000	 64.8749
2.540000	 65.1654
2.558000	 65.3383
2.576000	 65.2617
2.594000	 65.2375
2.612000	 65.0787
2.630000	 65.1433
2.648000	 65.2104
2.666000	 65.1277
2.684000	 65.2975
2.702000	 65.1112
2.720000	 65.2355
2.738000	 65.1662
2.756000	 65.0913
2.774000	 65.1364
2.792000	 65.133
2.810000	 65.2706
2.828000	 65.0947
2.846000	 65.1582
2.864000	 65.2795
2.882000	 65.1146
2.900000	 65.2894
2.918000	 65.4319
2.936000	 65.3781
2.954000	 65.2143
2.972000	 65.3622
2.990000	 65.1133
3.008000	 65.3792
3.026000	 65.0971
3.044000	 65.0361
3.062000	 65.3184
3.080000	 65.1539
3.098000	 65.2431
3.116000	 65.2463
3.134000	 65.0122
3.152000	 65.1085
3.170000	 65.1022
3.188000	 65.0465
3.206000	 64.902
3.224000	 65.3258
3.242000	 65.2793
3.260000	 65.2141
3.278000	 65.1867
3.296000	 65.3394
3.314000	 65.1877
3.332000	 65.2067
3.350000	 65.0641
3.368000	 65.2212
3.386000	 65.2936
3.404000	 65.1116
3.422000	 64.7564
3.440000	 65.23
3.458000	 65.1514
3.476000	 65.1238
3.494000	 65.168
3.512000	 64.9023
3.530000	 65.1423
3.548000	 65.2522
3.566000	 65.2055
3.584000	 65.28
3.602000	 65.2105
3.620000	 65.3255
3.638000	 65.236
3.656000	 65.3137
3.674000	 65.2787
3.692000	 65.2204
3.710000	 65.2028
3.728000	 65.2715
3.746000	 65.361
3.764000	 65.2596
3.782000	 65.2442
3.800000	 65.4322
3.818000	 65.3697
3.836000	 65.3759
3.854000	 65.3483
3.872000	 65.2622
3.890000	 65.2953
3.908000	 65.3263
3.926000	 65.38
3.944000	 65.2323
3.962000	 65.135
3.980000	 65.3811
3.998000	 65.3322
4.016000	 65.0911
4.034000	 65.293
4.052000	 65.1915
4.070000	 65.2725
4.088000	 65.3379
4.106000	 65.3842
4.124000	 65.4909
4.141999	 65.4399
4.160000	 65.4365
4.178000	 65.4254
4.196000	 65.2871
4.214000	 65.225
4.232000	 65.2751
4.250000	 65.3581
4.268000	 65.2341
4.286000	 65.3032
4.304000	 65.2455
4.322000	 65.1731
4.340000	 65.3633
4.358000	 65.2283
4.375999	 65.2712
4.394000	 65.2638
4.412000	 65.3059
4.430000	 65.4066
4.448000	 65.4023
4.466000	 65.3144
4.484000	 65.3847
4.502000	 65.3515
4.520000	 65.2742
4.538000	 65.2753
4.556000	 65.3367
4.574000	 65.3674
4.592000	 65.3862
4.609999	 65.3694
4.628000	 65.3702
4.646000	 65.3245
4.664000	 65.3571
4.682000	 65.2388
4.700000	 65.3178
4.718000	 65.2965
4.736000	 65.2354
4.754000	 65.379
4.772000	 65.4086
4.790000	 65.376
4.808000	 65.0868
4.826000	 65.0798
4.843999	 65.4165
4.862000	 65.3271
4.880000	 65.3932
4.898000	 65.2793
4.916000	 65.3202
4.934000	 65.4018
4.952000	 65.3117
4.970000	 65.3022
4.988000	 65.3826
5.006000	 65.3168
5.024000	 65.2984
5.042000	 65.4081
5.060000	 65.3497
5.077999	 65.3969
5.096000	 65.3245
5.114000	 65.3345
5.132000	 65.3327
5.150000	 65.2953
5.168000	 65.2638
5.186000	 65.3086
5.204000	 65.2876
5.222000	 65.3269
5.240000	 65.2948
5.258000	 65.3688
5.276000	 65.4465
5.294000	 65.3926
5.312000	 65.2978
5.330000	 65.3379
5.348000	 65.3128
5.366000	 65.3445
5.384000	 65.3054
5.402000	 65.2113
5.420000	 65.3172
5.438000	 65.3248
5.456000	 65.3292
5.474000	 65.317
5.492000	 65.3
5.510000	 65.2901
5.528000	 65.2801
5.546000	 65.3413
5.564000	 65.3195
5.582000	 65.2769
5.600000	 65.2571
5.618000	 65.3131
5.636000	 65.4265
5.654000	 65.4209
5.672000	 65.2666
5.690000	 65.2027
5.708000	 65.2151
5.726000	 65.1819
5.744000	 65.1687
5.762000	 65.1118
5.780000	 65.0099
5.798000	 65.0231
5.816000	 65.1618
5.834000	 65.2143
5.852000	 65.2489
5.870000	 65.3799
5.888000	 65.333
5.906000	 65.2278
5.923999	 65.2387
5.942000	 65.3496
5.960000	 65.3628
5.978000	 65.2816
5.996000	 65.3003
6.014000	 65.3003
6.032000	 65.2125
6.050000	 65.2689
6.068000	 65.2619
6.086000	 65.2054
6.104000	 65.2292
6.122000	 65.2438
6.140000	 65.252
6.158000	 65.2671
6.176000	 65.3029
6.194000	 65.2311
6.212000	 65.1677
6.230000	 65.228
6.248000	 65.2206
6.266000	 65.1818
6.284000	 65.1318
6.302000	 65.1724
6.320000	 65.2425
6.338000	 65.2812
6.356000	 65.3143
6.374000	 65.277
6.392000	 65.1775
6.410000	 65.0805
6.428000	 65.1239
6.446000	 65.2014
6.464000	 65.1378
6.482000	 65.0682
6.500000	 65.0809
6.518000	 65.0912
6.536000	 65.1625
6.554000	 65.2545
6.572000	 65.2915
6.590000	 65.2825
6.608000	 65.2191
6.626000	 65.1829
6.644000	 65.257
6.662000	 65.3386
6.680000	 65.2829
6.698000	 65.1769
6.716000	 65.1901
6.734000	 65.2619
6.752000	 65.2816
6.770000	 65.2178
6.788000	 65.1097
6.806000	 65.0521
6.824000	 65.0353
6.842000	 64.9778
6.860000	 64.8969
6.878000	 64.8968
6.896000	 64.9805
6.914000	 65.0415
6.932000	 65.1526
6.950000	 65.3014
6.968000	 65.2801
6.986000	 65.1395
7.004000	 65.0848
7.022000	 65.1416
7.040000	 65.1919
7.058000	 65.1799
7.076000	 65.148
7.094000	 65.1372
7.112000	 65.1644
7.130000	 65.1558
7.148000	 65.0762
7.166000	 65.0728
7.184000	 65.1878
7.202000	 65.2799
7.220000	 65.2936
7.238000	 65.2583
7.256000	 65.1967
7.274000	 65.1607
7.292000	 65.1848
7.310000	 65.2087
7.328000	 65.1575
7.346000	 65.0843
7.364000	 65.0961
7.382000	 65.1526
7.400000	 65.1472
7.418000	 65.0932
7.436000	 65.0496
7.454000	 65.0251
7.472000	 65.0259
7.490000	 65.0483
7.508000	 65.052
7.526000	 65.031
7.544000	 65.047
7.562000	 65.1229
7.580000	 65.2075
7.598000	 65.2634
7.616000	 65.2709
7.634000	 65.202
7.652000	 65.0951
7.670000	 65.033
7.688000	 65.0262
7.706000	 65.0322
7.724000	 65.041
7.742000	 65.0713
7.760000	 65.121
7.778000	 65.1514
7.796000	 65.1325
7.814000	 65.0973
7.832000	 65.0887
7.850000	 65.0888
7.868000	 65.0717
7.886000	 65.0619
7.904000	 65.0831
7.922000	 65.1099
7.940000	 65.1066
7.958000	 65.0743
7.976000	 65.0542
7.994000	 65.0912
8.012000	 65.1676
8.030000	 65.2043
8.048000	 65.1698
8.065999	 65.1172
8.084000	 65.0756
8.102000	 65.0059
8.120000	 64.918
8.138000	 64.8908
8.155999	 64.926
8.173999	 64.9274
8.192000	 64.8732
8.210000	 64.8492
8.228000	 64.895
8.246000	 64.9507
8.263999	 64.9749
8.282000	 64.9796
8.300000	 64.9631
8.318000	 64.9189
8.336000	 64.9021
8.353999	 64.9723
8.372000	 65.0898
8.390000	 65.1512
8.408000	 65.1228
8.426000	 65.0703
8.443999	 65.0616
8.462000	 65.0789
8.480000	 65.0405
8.498000	 64.899
8.516000	 64.7168
8.533999	 64.6316
8.552000	 64.7323
8.570000	 64.9669
8.588000	 65.1814
8.606000	 65.2532
8.624000	 65.1891
8.641999	 65.1044
8.660000	 65.1211
8.678000	 65.274
8.696000	 65.4834
8.714000	 65.6162
8.731999	 65.5901
8.750000	 65.4353
8.768000	 65.2436
8.786000	 65.0747
8.804000	 64.9414
8.821999	 64.8632
8.840000	 64.8753
8.858000	 64.9697
8.876000	 65.0727
8.894000	 65.1135
8.911999	 65.0959
8.930000	 65.0749
8.948000	 65.0734
8.966000	 65.0572
8.984000	 64.9942
9.001999	 64.9142
9.020000	 64.8878
9.038000	 64.9579
9.056000	 65.0867
9.074000	 65.1679
9.092000	 65.0935
9.109999	 64.8451
9.128000	 64.5361
9.146000	 64.3514
9.164000	 64.4142
9.182000	 64.6963
9.199999	 65.0502
9.218000	 65.3245
9.236000	 65.453
9.254000	 65.4579
9.272000	 65.3893
9.289999	 65.2824
9.308000	 65.1564
9.326000	 65.036
9.344000	 64.9555
9.362000	 64.9408
9.379999	 64.9929
9.398000	 65.0858
9.416000	 65.1798
9.434000	 65.24
9.452000	 65.2499
9.469999	 65.2146
9.488000	 65.1521
9.506000	 65.0827
9.524000	 65.0239
9.542000	 64.988
9.560000	 64.9819
9.577999	 65.0029
9.596000	 65.0368
9.614000	 65.0615
9.632000	 65.0586
9.650000	 65.0255
9.667999	 64.9779
9.686000	 64.9409
9.704000	 64.9324
9.722000	 64.9488
9.740000	 64.9667
9.757999	 64.9579
9.776000	 64.911
9.794000	 64.8422
9.812000	 64.7894
9.830000	 64.7904
9.847999	 64.8593
9.866000	 64.9744
9.884000	 65.0864
9.902000	 65.1438
9.920000	 65.1223
9.937999	 65.043
9.956000	 64.9609
9.974000	 64.9277
9.992000	 64.9574
10.01	65.0189
10.028	65.0616
10.046	65.055
10.064	65.0081
10.082	64.9554
10.1	64.9268
10.118	64.9281
10.136	64.9457
10.154	64.9671
10.172	64.9913
10.19	65.0225
10.208	65.0544
10.226	65.0677
10.244	65.0393
10.262	64.9584
10.28	64.8368
10.298	64.7041
10.316	64.5973
10.334	64.5448
10.352	64.5581
10.37	64.6287
10.388	64.7309
10.406	64.832
10.424	64.9015
10.442	64.9243
10.46	64.9045
10.478	64.8615
10.496	64.8195
10.514	64.7963
10.532	64.7981
10.55	64.8194
10.568	64.8497
10.586	64.8773
10.604	64.894
10.622	64.8951
10.64	64.8798
10.658	64.8528
10.676	64.8236
10.694	64.8032
10.712	64.8024
10.73	64.8263
10.748	64.8718
10.766	64.928
10.784	64.9814
10.802	65.0202
10.82	65.0399
10.838	65.0429
10.856	65.0344
10.874	65.0179
10.892	64.9924
10.91	64.9542
10.928	64.9033
10.946	64.8478
10.964	64.8038
10.982	64.7879
11	64.8061
11.018	64.8481
11.036	64.8907
11.054	64.9073
11.072	64.8829
11.09	64.8197
11.108	64.735
11.126	64.654
11.144	64.5955
11.162	64.5676
11.18	64.5678
11.198	64.5869
11.216	64.6157
11.234	64.6472
11.252	64.6762
11.27	64.6987
11.288	64.7111
11.306	64.7115
11.324	64.7003
11.342	64.68
11.36	64.6554
11.378	64.6322
11.396	64.6158
11.414	64.6111
11.432	64.622
11.45	64.6498
11.468	64.692
11.486	64.7416
11.504	64.7877
11.522	64.8181
11.54	64.8241
11.558	64.8035
11.576	64.7616
11.594	64.7086
11.612	64.6564
11.63	64.6147
11.648	64.589
11.666	64.5808
11.684	64.5892
11.702	64.6125
11.72	64.6486
11.738	64.6938
11.756	64.7421
11.774	64.7848
11.792	64.8127
11.81	64.8197
11.828	64.8046
11.846	64.7727
11.864	64.7343
11.882	64.6994
11.9	64.6761
11.918	64.6656
11.936	64.6635
11.954	64.662
11.972	64.6531
11.99	64.6333
12.008	64.6055
12.026	64.5782
12.044	64.5624
12.062	64.5672
12.08	64.5953
12.098	64.6422
12.116	64.6962
12.134	64.7424
12.152	64.767
12.17	64.7624
12.188	64.729
12.206	64.6746
12.224	64.6118
12.242	64.5537
12.26	64.5096
12.278	64.4836
12.296	64.4743
12.314	64.476
12.332	64.4819
12.35	64.4862
12.368	64.4853
12.386	64.4794
12.404	64.4712
12.422	64.4654
12.44	64.4665
12.458	64.4774
12.476	64.4981
12.494	64.5252
12.512	64.5526
12.53	64.5729
12.548	64.5797
12.566	64.569
12.584	64.5407
12.602	64.4984
12.62	64.4488
12.638	64.3996
12.656	64.3574
12.674	64.326
12.692	64.3061
12.71	64.2954
12.728	64.2909
12.746	64.2896
12.764	64.2901
12.782	64.2936
12.8	64.303
12.818	64.3221
12.836	64.3535
12.854	64.3975
12.872	64.4512
12.89	64.5092
12.908	64.5646
12.926	64.6106
12.944	64.6418
12.962	64.6561
12.98	64.6547
12.998	64.6418
13.016	64.6232
13.034	64.6047
13.052	64.5907
13.07	64.5821
13.088	64.5763
13.106	64.5671
13.124	64.547
13.142	64.5093
13.16	64.4511
13.178	64.375
13.196	64.289
13.214	64.2059
13.232	64.1403
13.25	64.1049
13.268	64.1073
13.286	64.1472
13.304	64.2165
13.322	64.3004
13.34	64.3812
13.358	64.4416
13.376	64.4695
13.394	64.4599
13.412	64.4158
13.43	64.3472
13.448	64.2682
13.466	64.1933
13.484	64.1344
13.502	64.0987
13.52	64.0881
13.538	64.099
13.556	64.1245
13.574	64.1556
13.592	64.1834
13.61	64.2008
13.628	64.2034
13.646	64.1895
13.664	64.1598
13.682	64.1169
13.7	64.0655
13.718	64.0099
13.736	63.956
13.754	63.9087
13.772	63.8736
13.79	63.8555
13.808	63.858
13.826	63.8835
13.844	63.9318
13.862	64.0006
13.88	64.0846
13.898	64.1763
13.916	64.2665
13.934	64.3462
13.952	64.4077
13.97	64.4452
13.988	64.4557
14.006	64.4399
14.024	64.4016
14.042	64.3475
14.06	64.2857
14.078	64.2244
14.096	64.1706
14.114	64.13
14.132	64.1058
14.15	64.0993
14.168	64.1095
14.186	64.1335
14.204	64.1675
14.222	64.2064
14.24	64.2457
14.258	64.281
14.276	64.3088
14.294	64.3264
14.312	64.3322
14.33	64.3256
14.348	64.3069
14.366	64.2773
14.384	64.2383
14.402	64.1912
14.42	64.1371
14.438	64.0768
14.456	64.0109
14.474	63.9399
14.492	63.8647
14.51	63.7866
14.528	63.7079
14.546	63.6313
14.564	63.5604
14.582	63.4989
14.6	63.4501
14.618	63.4169
14.636	63.4006
14.654	63.4011
14.672	63.4166
14.69	63.4439
14.708	63.4788
14.726	63.5164
14.744	63.5512
14.762	63.5787
14.78	63.5958
14.798	63.6007
14.816	63.593
14.834	63.5741
14.852	63.5464
14.87	63.513
14.888	63.4771
14.906	63.4416
14.924	63.4087
14.942	63.3803
14.96	63.3568
14.978	63.3387
14.996	63.3262
15.014	63.3193
15.032	63.3182
15.05	63.3236
15.068	63.336
15.086	63.3559
15.104	63.3838
15.122	63.4198
15.14	63.4632
15.158	63.5123
15.176	63.5653
15.194	63.6198
15.212	63.6726
15.23	63.7212
15.248	63.7627
15.266	63.7948
15.284	63.8155
15.302	63.8237
15.32	63.8189
15.338	63.8007
15.356	63.7693
15.374	63.7256
15.392	63.6706
15.41	63.606
15.428	63.5339
15.446	63.4571
15.464	63.3786
15.482	63.3015
15.5	63.2287
15.518	63.1635
15.536	63.1076
15.554	63.0619
15.572	63.027
15.59	63.0018
15.608	62.9847
15.626	62.9735
15.644	62.9658
15.662	62.9586
15.68	62.9503
15.698	62.9395
15.716	62.9255
15.734	62.909
15.752	62.8911
15.77	62.8733
15.788	62.8588
15.806	62.8499
15.824	62.8489
15.842	62.858
15.86	62.8782
15.878	62.9093
15.896	62.9511
15.914	63.0017
15.932	63.0581
15.95	63.1179
15.968	63.1776
15.986	63.2333
16.004	63.2828
16.022	63.3241
16.04	63.3552
16.058	63.3763
16.076	63.3877
16.094	63.3912
16.112	63.3894
16.13	63.3844
16.148	63.3793
16.166	63.377
16.184	63.3785
16.202	63.3853
16.22	63.3971
16.238	63.413
16.256	63.432
16.274	63.4512
16.292	63.4685
16.31	63.4819
16.328	63.4888
16.346	63.4886
16.364	63.4808
16.382	63.4656
16.4	63.4445
16.418	63.4185
16.436	63.3899
16.454	63.3602
16.472	63.3306
16.49	63.3028
16.508	63.2766
16.526	63.2521
16.544	63.2287
16.562	63.2053
16.58	63.1813
16.598	63.1553
16.616	63.127
16.634	63.0959
16.652	63.0626
16.67	63.0278
16.688	62.9922
16.706	62.9575
16.724	62.9243
16.742	62.8934
16.76	62.865
16.778	62.8388
16.796	62.8142
16.814	62.7901
16.832	62.7657
16.85	62.7397
16.868	62.7114
16.886	62.6802
16.904	62.6463
16.922	62.6107
16.94	62.5743
16.958	62.5399
16.976	62.5085
16.994	62.4833
17.012	62.4657
17.03	62.4572
17.048	62.4585
17.066	62.4692
17.084	62.4888
17.102	62.5146
17.12	62.5452
17.138	62.5768
17.156	62.6071
17.174	62.6337
17.192	62.6537
17.21	62.6665
17.228	62.6708
17.246	62.6676
17.264	62.6572
17.282	62.6423
17.3	62.6244
17.318	62.6067
17.336	62.5919
17.354	62.5816
17.372	62.5791
17.39	62.5848
17.408	62.6
17.426	62.6242
17.444	62.6576
17.462	62.6977
17.48	62.7437
17.498	62.7926
17.516	62.842
17.534	62.8898
17.552	62.9325
17.57	62.9692
17.588	62.9969
17.606	63.0152
17.624	63.0223
17.642	63.0186
17.66	63.0039
17.678	62.9795
17.696	62.946
17.714	62.9059
17.732	62.8611
17.75	62.8136
17.768	62.7668
17.786	62.7217
17.804	62.6822
17.822	62.6489
17.84	62.6242
17.858	62.6083
17.876	62.6022
17.894	62.6049
17.912	62.6164
17.93	62.6345
17.948	62.6587
17.966	62.686
17.984	62.7157
18.002	62.7452
18.02	62.7738
18.038	62.8
18.056	62.8232
18.074	62.8431
18.092	62.8599
18.11	62.8739
18.128	62.8863
18.146	62.8973
18.164	62.9081
18.182	62.9188
18.2	62.9301
18.218	62.9414
18.236	62.953
18.254	62.9637
18.272	62.9734
18.29	62.9803
18.308	62.9842
18.326	62.9834
18.344	62.978
18.362	62.9671
18.38	62.9511
18.398	62.9303
18.416	62.9058
18.434	62.8789
18.452	62.8514
18.47	62.8245
18.488	62.8002
18.506	62.7797
18.524	62.7642
18.542	62.7542
18.56	62.7498
18.578	62.7511
18.596	62.7565
18.614	62.7658
18.632	62.7762
18.65	62.7874
18.668	62.7963
18.686	62.8027
18.704	62.804
18.722	62.8005
18.74	62.791
18.758	62.7758
18.776	62.7554
18.794	62.7307
18.812	62.7031
18.83	62.6736
18.848	62.6445
18.866	62.6165
18.884	62.5914
18.902	62.5695
18.92	62.5517
18.938	62.5374
18.956	62.5264
18.974	62.5174
18.992	62.509
19.01	62.4997
19.028	62.4874
19.046	62.4709
19.064	62.4478
19.082	62.4179
19.1	62.3793
19.118	62.3323
19.136	62.2765
19.154	62.2126
19.172	62.1417
19.19	62.0649
19.208	61.9849
19.226	61.9026
19.244	61.8213
19.262	61.7416
19.28	61.6676
19.298	61.5992
19.316	61.5402
19.334	61.4902
19.352	61.452
19.37	61.4254
19.388	61.4116
19.406	61.4105
19.424	61.4216
19.442	61.445
19.46	61.4789
19.478	61.5234
19.496	61.5759
19.514	61.6363
19.532	61.7016
19.55	61.7706
19.568	61.8416
19.586	61.9123
19.604	61.9819
19.622	62.0478
19.64	62.1099
19.658	62.1661
19.676	62.2166
19.694	62.26
19.712	62.2963
19.73	62.3256
19.748	62.3476
19.766	62.3631
19.784	62.3721
19.802	62.3756
19.82	62.374
19.838	62.3679
19.856	62.3584
19.874	62.3456
19.892	62.3303
19.91	62.3125
19.928	62.2927
19.946	62.2708
19.964	62.2466
19.982	62.2203
20	62.1912
20.018	62.1593
20.036	62.1244
20.054	62.0858
20.072	62.0437
20.09	61.9978
20.108	61.948
20.126	61.8949
20.144	61.8384
20.162	61.7797
20.18	61.7191
20.198	61.6575
20.216	61.5965
20.234	61.536
20.252	61.4786
20.27	61.4236
20.288	61.3734
20.306	61.3282
20.324	61.2887
20.342	61.2559
20.36	61.2292
20.378	61.209
20.396	61.1952
20.414	61.1861
20.432	61.1822
20.45	61.1813
20.468	61.1829
20.486	61.186
20.504	61.188
20.522	61.1893
20.54	61.1867
20.558	61.1804
20.576	61.1686
20.594	61.1504
20.612	61.1258
20.63	61.0934
20.648	61.0535
20.666	61.0066
20.684	60.9523
20.702	60.8923
20.72	60.8272
20.738	60.7577
20.756	60.6868
20.774	60.6138
20.792	60.542
20.81	60.4715
20.828	60.404
20.846	60.3419
20.864	60.2846
20.882	60.2349
20.9	60.1926
20.918	60.1584
20.936	60.1335
20.954	60.1173
20.972	60.1099
20.99	60.1115
21.008	60.1208
21.026	60.1376
21.044	60.1611
21.062	60.1891
21.08	60.2223
21.098	60.2578
21.116	60.295
21.134	60.3332
21.152	60.3695
21.17	60.4049
21.188	60.4369
21.206	60.4651
21.224	60.4894
21.242	60.5086
21.26	60.5231
21.278	60.5328
21.296	60.5372
21.314	60.5371
21.332	60.5333
21.35	60.5254
21.368	60.5152
21.386	60.503
21.404	60.4893
21.422	60.4766
21.44	60.464
21.458	60.4538
21.476	60.4469
21.494	60.4432
21.512	60.4449
21.53	60.4515
21.548	60.4641
21.566	60.4836
21.584	60.5097
21.602	60.5422
21.62	60.5813
21.638	60.6267
21.656	60.6784
21.674	60.7365
21.692	60.7986
21.71	60.865
21.728	60.9344
21.746	61.0032
21.764	61.073
21.782	61.1396
21.8	61.2001
21.818	61.2558
21.836	61.3009
21.854	61.3357
21.872	61.3587
21.89	61.3658
21.908	61.3584
21.926	61.3344
21.944	61.2918
21.962	61.2317
21.98	61.1545
21.998	61.0594
22.016	60.9483
22.034	60.8242
22.052	60.6851
22.07	60.5366
22.088	60.3822
22.106	60.22
22.124	60.0588
22.142	59.8992
22.16	59.7423
22.178	59.5969
22.196	59.4608
22.214	59.3378
22.232	59.234
22.25	59.1469
22.268	59.0795
22.286	59.0343
22.304	59.01
22.322	59.006
22.34	59.0238
22.358	59.0612
22.376	59.1136
22.394	59.1833
22.412	59.2656
22.43	59.3539
22.448	59.4517
22.466	59.5514
22.484	59.6469
22.502	59.7419
22.52	59.8277
22.538	59.901
22.556	59.9638
22.574	60.0093
22.592	60.0361
22.61	60.0453
22.628	60.0342
22.646	60.0022
22.664	59.9508
22.682	59.8809
22.7	59.7908
22.718	59.6848
22.736	59.5671
22.754	59.4348
22.772	59.2945
22.79	59.1517
22.808	59.0025
22.826	58.856
22.844	58.7175
22.862	58.5832
22.88	58.4625
22.898	58.3593
22.916	58.2708
22.934	58.2045
22.952	58.1629
22.97	58.144
22.988	58.1524
23.006	58.1898
23.024	58.2544
23.042	58.3463
23.06	58.4667
23.078	58.6138
23.096	58.7832
23.114	58.9766
23.132	59.1916
23.15	59.4197
23.168	59.6629
23.186	59.9187
23.204	60.1764
23.222	60.4385
23.24	60.7022
23.258	60.9567
23.276	61.2041
23.294	61.4422
23.312	61.661
23.33	61.8612
23.348	62.0425
23.366	62.1985
23.384	62.3283
23.402	62.4334
23.42	62.5125
23.438	62.5643
23.456	62.5904
23.474	62.5935
23.492	62.5728
23.51	62.5291
23.528	62.468
23.546	62.3896
23.564	62.2936
23.582	62.1867
23.6	62.0709
23.618	61.9442
23.636	61.8133
23.654	61.6815
23.672	61.546
23.69	61.4115
23.708	61.2812
23.726	61.1529
23.744	61.0289
23.762	60.9119
23.78	60.8009
23.798	60.6955
23.816	60.5955
23.834	60.5017
23.852	60.4125
23.87	60.3253
23.888	60.241
23.906	60.1591
23.924	60.0774
23.942	59.9956
23.96	59.9142
23.978	59.8332
23.996	59.7516
24.014	59.6697
24.032	59.5905
24.05	59.5152
24.068	59.4417
24.086	59.3749
24.104	59.3191
24.122	59.271
24.14	59.2342
24.158	59.214
24.176	59.2085
24.194	59.2187
24.212	59.2484
24.23	59.299
24.248	59.3688
24.266	59.4581
24.284	59.5677
24.302	59.698
24.32	59.8455
24.338	60.0079
24.356	60.1885
24.374	60.3825
24.392	60.5832
24.41	60.793
24.428	61.0108
24.446	61.2282
24.464	61.4424
24.482	61.6575
24.5	61.8662
24.518	62.0622
24.536	62.2497
24.554	62.4259
24.572	62.5864
24.59	62.7317
24.608	62.8625
24.626	62.976
24.644	63.0699
24.662	63.1452
24.68	63.2053
24.698	63.2533
24.716	63.2868
24.734	63.308
24.752	63.3211
24.77	63.323
24.788	63.3146
24.806	63.3068
24.824	63.3055
24.842	63.301
24.86	63.3078
24.878	63.343
24.896	63.3993
24.914	63.479
24.932	63.5996
24.95	63.769
24.968	63.9759
24.986	64.2347
25.004	64.5607
25.022	64.9515
25.04	65.4034
25.058	65.9185
25.076	66.501
25.094	67.1514
25.112	67.8566
25.13	68.6047
25.148	69.4123
25.166	70.264
25.184	71.1285
25.202	71.9972
25.22	72.892
25.238	73.7722
25.256	74.5964
25.274	75.3877
25.292	76.1373
25.31	76.8033
25.328	77.3624
25.346	77.8425
25.364	78.2196
25.382	78.465
25.4	78.5778
25.418	78.5682
25.436	78.4319
25.454	78.1628
25.472	77.7537
25.49	77.2246
25.508	76.5991
25.526	75.8747
25.544	75.0416
25.562	74.1352
25.58	73.1882
25.598	72.1744
25.616	71.1087
25.634	70.0316
25.652	68.9659
25.67	67.8806
25.688	66.8054
25.706	65.7766
25.724	64.7944
25.742	63.8448
25.76	62.9542
25.778	62.1466
25.796	61.4075
25.814	60.7404
25.832	60.163
25.85	59.6879
25.868	59.3038
25.886	59.0138
25.904	58.8235
25.922	58.7355
25.94	58.7464
25.958	58.8544
25.976	59.0583
25.994	59.3638
26.012	59.7663
26.03	60.2532
26.048	60.8143
26.066	61.463
26.084	62.1885
26.102	62.9719
26.12	63.8035
26.138	64.7028
26.156	65.6478
26.174	66.6111
26.192	67.5893
26.21	68.6028
26.228	69.6173
26.246	70.5965
26.264	71.5473
26.282	72.483
26.3	73.3675
26.318	74.1654
26.336	74.8941
26.354	75.5557
26.372	76.1202
26.39	76.5598
26.408	76.8916
26.426	77.1144
26.444	77.2117
26.462	77.1688
26.48	76.9922
26.498	76.6863
26.516	76.2523
26.534	75.6887
26.552	74.9879
26.57	74.1636
26.588	73.2329
26.606	72.2031
26.624	71.052
26.642	69.8061
26.66	68.4978
26.678	67.1419
26.696	65.7079
26.714	64.2248
26.732	62.7272
26.75	61.2302
26.768	59.704
26.786	58.1741
26.804	56.6709
26.822	55.2084
26.84	53.763
26.858	52.3499
26.876	50.9876
26.894	49.6872
26.912	48.4372
26.93	47.2373
26.948	46.0885
26.966	44.9553
26.984	43.7835
27.002	42.7081
27.02	41.8754
27.028	41.6477