File: Bakgrunnsmateriale/MATLAB/FTIR/ftir_data/subBb/Mapping_121/C-4040-8_t37.asc
PE IR       SPECTRUM    SPECTRUM    ASCII       PEDS        1.60
  -1
C-B136~1.ASC
17/03/27
17:30:04.00
17/03/27
17:30:30.00
tln
$C-4040-8_t0037$<tbV0>[5.2,-5.2,8.0,0.0,27,1,0]
27.028
64

2002,4.07
MIRTGS : RIGHTBACK : INTERNAL 2
MIR : ON : INTERNAL 2
OPTKBR

0.200000
8
8.000000
FILLER
RATIO
SPECTRUM
UNLOCKED 256

DOUBLE
64
COMBINED
1
0
0

0.002000
RATIO

1
0
TRUE
51149
0
LEFT NOT FITTED RIGHT NOT FITTED 0
NONE
NONE
15600
12
4.427000
51148
TRUE
1 0 8 72 0 0 0 0

15798

#HDR
-1
-1
#GR
µM
%T
2.38419e-05
0.0
2.000000
0.002000
12515
8
64.8404
-5.943586
#DATA
2.000000	 63.0311
2.018000	 63.2032
2.036000	 63.1368
2.054000	 63.1075
2.072000	 63.0806
2.090000	 62.3967
2.108000	 62.5942
2.126000	 62.0763
2.144000	 62.2051
2.162000	 62.2475
2.180000	 62.487
2.198000	 62.6698
2.216000	 62.7907
2.234000	 63.2105
2.252000	 63.1637
2.270000	 63.2649
2.288000	 63.6944
2.306000	 63.3118
2.324000	 62.7332
2.342000	 62.6133
2.360000	 62.3932
2.378000	 61.979
2.396000	 61.7226
2.414000	 61.8008
2.432000	 61.0499
2.450000	 60.9747
2.468000	 60.6487
2.486000	 60.6917
2.504000	 60.7238
2.522000	 60.9222
2.540000	 60.7114
2.558000	 60.6628
2.576000	 60.6499
2.594000	 60.6655
2.612000	 60.3406
2.630000	 60.2643
2.648000	 60.0683
2.666000	 60.0294
2.684000	 59.9879
2.702000	 59.7307
2.720000	 59.5036
2.738000	 59.1933
2.756000	 59.0828
2.774000	 59.0412
2.792000	 58.8545
2.810000	 58.3775
2.828000	 58.5896
2.846000	 58.6098
2.864000	 58.4442
2.882000	 58.3299
2.900000	 58.0418
2.918000	 58.1146
2.936000	 57.8521
2.954000	 57.587
2.972000	 57.4015
2.990000	 57.449
3.008000	 57.2578
3.026000	 57.0181
3.044000	 56.6067
3.062000	 56.5689
3.080000	 56.5783
3.098000	 56.4577
3.116000	 56.0829
3.134000	 56.1124
3.152000	 55.8178
3.170000	 55.6836
3.188000	 55.7818
3.206000	 55.5795
3.224000	 55.3866
3.242000	 55.1606
3.260000	 55.0253
3.278000	 54.7802
3.296000	 54.6388
3.314000	 54.55
3.332000	 54.4445
3.350000	 54.1517
3.368000	 54.0249
3.386000	 53.7145
3.404000	 53.6925
3.422000	 53.2893
3.440000	 53.3095
3.458000	 53.1686
3.476000	 52.9633
3.494000	 52.9496
3.512000	 52.668
3.530000	 52.6692
3.548000	 52.3671
3.566000	 52.3063
3.584000	 52.136
3.602000	 51.8507
3.620000	 51.7296
3.638000	 51.6836
3.656000	 51.3823
3.674000	 51.2271
3.692000	 51.0265
3.710000	 50.9922
3.728000	 50.7752
3.746000	 50.7162
3.764000	 50.5254
3.782000	 50.2703
3.800000	 50.2334
3.818000	 49.9675
3.836000	 49.8864
3.854000	 49.7572
3.872000	 49.6433
3.890000	 49.4942
3.908000	 49.3453
3.926000	 49.2146
3.944000	 49.1359
3.962000	 49.0043
3.980000	 48.9031
3.998000	 48.7136
4.016000	 48.3641
4.034000	 48.3198
4.052000	 48.2
4.070000	 48.2758
4.088000	 47.9217
4.106000	 47.6233
4.124000	 47.5286
4.141999	 47.3739
4.160000	 47.2093
4.178000	 47.2488
4.196000	 47.163
4.214000	 46.9759
4.232000	 46.9446
4.250000	 46.5938
4.268000	 46.4963
4.286000	 46.4193
4.304000	 46.2943
4.322000	 46.1674
4.340000	 46.0022
4.358000	 45.818
4.375999	 45.7074
4.394000	 45.5374
4.412000	 45.4637
4.430000	 45.3746
4.448000	 45.2747
4.466000	 45.241
4.484000	 45.0169
4.502000	 44.7878
4.520000	 44.8364
4.538000	 44.7133
4.556000	 44.5704
4.574000	 44.4952
4.592000	 44.4294
4.609999	 44.1546
4.628000	 43.8768
4.646000	 43.7726
4.664000	 43.8234
4.682000	 43.6384
4.700000	 43.5618
4.718000	 43.4071
4.736000	 43.3934
4.754000	 43.3252
4.772000	 43.1846
4.790000	 43.162
4.808000	 42.9391
4.826000	 42.611
4.843999	 42.3584
4.862000	 42.5051
4.880000	 42.5689
4.898000	 42.4581
4.916000	 42.4608
4.934000	 42.343
4.952000	 42.1957
4.970000	 42.0319
4.988000	 42.0255
5.006000	 41.8511
5.024000	 41.685
5.042000	 41.7222
5.060000	 41.6213
5.077999	 41.5011
5.096000	 41.2657
5.114000	 41.197
5.132000	 41.1403
5.150000	 41.0057
5.168000	 40.9454
5.186000	 40.8408
5.204000	 40.7413
5.222000	 40.6408
5.240000	 40.5116
5.258000	 40.4595
5.276000	 40.3384
5.294000	 40.249
5.312000	 40.2221
5.330000	 40.0951
5.348000	 39.946
5.366000	 39.9271
5.384000	 39.8114
5.402000	 39.7605
5.420000	 39.7221
5.438000	 39.629
5.456000	 39.4803
5.474000	 39.3884
5.492000	 39.2688
5.510000	 39.157
5.528000	 38.9991
5.546000	 38.8938
5.564000	 38.8537
5.582000	 38.7621
5.600000	 38.6967
5.618000	 38.6238
5.636000	 38.5745
5.654000	 38.5205
5.672000	 38.4919
5.690000	 38.4415
5.708000	 38.3467
5.726000	 38.1922
5.744000	 38.032
5.762000	 37.898
5.780000	 37.787
5.798000	 37.7508
5.816000	 37.6981
5.834000	 37.7054
5.852000	 37.7024
5.870000	 37.5901
5.888000	 37.5516
5.906000	 37.5656
5.923999	 37.4082
5.942000	 37.2149
5.960000	 37.1975
5.978000	 37.2171
5.996000	 37.1361
6.014000	 37.0149
6.032000	 36.9012
6.050000	 36.8291
6.068000	 36.8169
6.086000	 36.7518
6.104000	 36.639
6.122000	 36.5651
6.140000	 36.5186
6.158000	 36.4711
6.176000	 36.4059
6.194000	 36.3225
6.212000	 36.2708
6.230000	 36.2157
6.248000	 36.1034
6.266000	 35.9791
6.284000	 35.9508
6.302000	 36.0043
6.320000	 35.948
6.338000	 35.8196
6.356000	 35.7365
6.374000	 35.6286
6.392000	 35.5254
6.410000	 35.4489
6.428000	 35.3999
6.446000	 35.4202
6.464000	 35.3871
6.482000	 35.3285
6.500000	 35.309
6.518000	 35.237
6.536000	 35.1652
6.554000	 35.1046
6.572000	 35.0266
6.590000	 34.9409
6.608000	 34.8375
6.626000	 34.7899
6.644000	 34.809
6.662000	 34.772
6.680000	 34.6665
6.698000	 34.6037
6.716000	 34.5743
6.734000	 34.5242
6.752000	 34.4514
6.770000	 34.3864
6.788000	 34.3358
6.806000	 34.2888
6.824000	 34.2889
6.842000	 34.3158
6.860000	 34.3164
6.878000	 34.234
6.896000	 34.0743
6.914000	 33.984
6.932000	 33.922
6.950000	 33.7787
6.968000	 33.6852
6.986000	 33.7266
7.004000	 33.7756
7.022000	 33.7616
7.040000	 33.6946
7.058000	 33.5696
7.076000	 33.4505
7.094000	 33.3902
7.112000	 33.359
7.130000	 33.348
7.148000	 33.3506
7.166000	 33.3285
7.184000	 33.2925
7.202000	 33.2739
7.220000	 33.2139
7.238000	 33.0579
7.256000	 32.9142
7.274000	 32.8885
7.292000	 32.9027
7.310000	 32.8558
7.328000	 32.7959
7.346000	 32.7809
7.364000	 32.7654
7.382000	 32.7212
7.400000	 32.6597
7.418000	 32.564
7.436000	 32.4723
7.454000	 32.4608
7.472000	 32.4867
7.490000	 32.439
7.508000	 32.3139
7.526000	 32.2014
7.544000	 32.1423
7.562000	 32.0967
7.580000	 32.0436
7.598000	 32.0184
7.616000	 32.0303
7.634000	 32.0377
7.652000	 32.0161
7.670000	 31.9731
7.688000	 31.9113
7.706000	 31.8438
7.724000	 31.8081
7.742000	 31.8118
7.760000	 31.8183
7.778000	 31.8122
7.796000	 31.8089
7.814000	 31.7952
7.832000	 31.7316
7.850000	 31.6213
7.868000	 31.5237
7.886000	 31.4905
7.904000	 31.5096
7.922000	 31.515
7.940000	 31.4637
7.958000	 31.3901
7.976000	 31.3527
7.994000	 31.3498
8.012000	 31.3357
8.030000	 31.2949
8.048000	 31.2463
8.065999	 31.1992
8.084000	 31.1506
8.102000	 31.1048
8.120000	 31.0622
8.138000	 31.0099
8.155999	 30.9472
8.173999	 30.8939
8.192000	 30.8616
8.210000	 30.84
8.228000	 30.8164
8.246000	 30.7897
8.263999	 30.7614
8.282000	 30.728
8.300000	 30.6955
8.318000	 30.684
8.336000	 30.7046
8.353999	 30.7332
8.372000	 30.7266
8.390000	 30.6664
8.408000	 30.5695
8.426000	 30.4681
8.443999	 30.3943
8.462000	 30.3638
8.480000	 30.3561
8.498000	 30.3279
8.516000	 30.2582
8.533999	 30.167
8.552000	 30.0784
8.570000	 29.995
8.588000	 29.9166
8.606000	 29.8619
8.624000	 29.8498
8.641999	 29.8684
8.660000	 29.8742
8.678000	 29.8336
8.696000	 29.7625
8.714000	 29.7158
8.731999	 29.7298
8.750000	 29.7713
8.768000	 29.7641
8.786000	 29.6636
8.804000	 29.5015
8.821999	 29.3485
8.840000	 29.2486
8.858000	 29.1956
8.876000	 29.1668
8.894000	 29.1596
8.911999	 29.1935
8.930000	 29.2826
8.948000	 29.4118
8.966000	 29.532
8.984000	 29.5875
9.001999	 29.5531
9.020000	 29.452
9.038000	 29.3343
9.056000	 29.2363
9.074000	 29.1608
9.092000	 29.0974
9.109999	 29.0563
9.128000	 29.0712
9.146000	 29.1624
9.164000	 29.2995
9.182000	 29.4102
9.199999	 29.4295
9.218000	 29.3476
9.236000	 29.2111
9.254000	 29.0812
9.272000	 28.9835
9.289999	 28.8975
9.308000	 28.7927
9.326000	 28.6682
9.344000	 28.5548
9.362000	 28.4801
9.379999	 28.4403
9.398000	 28.4113
9.416000	 28.3819
9.434000	 28.367
9.452000	 28.3865
9.469999	 28.4357
9.488000	 28.4834
9.506000	 28.4923
9.524000	 28.4454
9.542000	 28.3533
9.560000	 28.2455
9.577999	 28.1585
9.596000	 28.1231
9.614000	 28.1494
9.632000	 28.2198
9.650000	 28.2974
9.667999	 28.3468
9.686000	 28.3478
9.704000	 28.2981
9.722000	 28.2107
9.740000	 28.11
9.757999	 28.026
9.776000	 27.9818
9.794000	 27.982
9.812000	 28.0089
9.830000	 28.0371
9.847999	 28.0526
9.866000	 28.0561
9.884000	 28.0534
9.902000	 28.0451
9.920000	 28.0267
9.937999	 27.9959
9.956000	 27.9565
9.974000	 27.9154
9.992000	 27.8786
10.01	27.8453
10.028	27.8081
10.046	27.7588
10.064	27.6944
10.082	27.6199
10.1	27.5445
10.118	27.4766
10.136	27.4185
10.154	27.368
10.172	27.323
10.19	27.2849
10.208	27.2552
10.226	27.231
10.244	27.204
10.262	27.1684
10.28	27.1275
10.298	27.0915
10.316	27.0707
10.334	27.0662
10.352	27.0718
10.37	27.0792
10.388	27.0853
10.406	27.0922
10.424	27.1026
10.442	27.1124
10.46	27.1106
10.478	27.084
10.496	27.0272
10.514	26.9459
10.532	26.8561
10.55	26.7751
10.568	26.715
10.586	26.6784
10.604	26.6605
10.622	26.6559
10.64	26.6625
10.658	26.6814
10.676	26.7104
10.694	26.7395
10.712	26.7512
10.73	26.7307
10.748	26.6718
10.766	26.5831
10.784	26.4817
10.802	26.3863
10.82	26.3085
10.838	26.2528
10.856	26.22
10.874	26.212
10.892	26.2317
10.91	26.2782
10.928	26.3423
10.946	26.4067
10.964	26.4508
10.982	26.4572
11	26.4185
11.018	26.3367
11.036	26.2223
11.054	26.0909
11.072	25.9579
11.09	25.8387
11.108	25.7438
11.126	25.6798
11.144	25.6465
11.162	25.6383
11.18	25.6468
11.198	25.6631
11.216	25.6812
11.234	25.6975
11.252	25.7107
11.27	25.7206
11.288	25.7272
11.306	25.7305
11.324	25.7305
11.342	25.727
11.36	25.7189
11.378	25.7047
11.396	25.683
11.414	25.6537
11.432	25.6183
11.45	25.581
11.468	25.5475
11.486	25.5215
11.504	25.5045
11.522	25.4944
11.54	25.4867
11.558	25.4767
11.576	25.461
11.594	25.4386
11.612	25.4103
11.63	25.3776
11.648	25.3418
11.666	25.3035
11.684	25.2623
11.702	25.218
11.72	25.1707
11.738	25.1222
11.756	25.0748
11.774	25.0313
11.792	24.994
11.81	24.9636
11.828	24.9397
11.846	24.9205
11.864	24.9037
11.882	24.8874
11.9	24.8713
11.918	24.8564
11.936	24.8444
11.954	24.8374
11.972	24.8362
11.99	24.8403
12.008	24.8475
12.026	24.8544
12.044	24.8571
12.062	24.8522
12.08	24.8372
12.098	24.8118
12.116	24.777
12.134	24.7362
12.152	24.6944
12.17	24.6576
12.188	24.6311
12.206	24.6184
12.224	24.619
12.242	24.6279
12.26	24.6365
12.278	24.6348
12.296	24.6143
12.314	24.5713
12.332	24.5087
12.35	24.4346
12.368	24.3601
12.386	24.296
12.404	24.2489
12.422	24.2191
12.44	24.2015
12.458	24.1881
12.476	24.1716
12.494	24.148
12.512	24.1182
12.53	24.0869
12.548	24.0603
12.566	24.0434
12.584	24.0383
12.602	24.0439
12.62	24.0565
12.638	24.0716
12.656	24.0854
12.674	24.0958
12.692	24.102
12.71	24.105
12.728	24.105
12.746	24.1014
12.764	24.092
12.782	24.0739
12.8	24.0444
12.818	24.0018
12.836	23.9463
12.854	23.8801
12.872	23.8077
12.89	23.7342
12.908	23.6644
12.926	23.6022
12.944	23.5503
12.962	23.5098
12.98	23.4806
12.998	23.4623
13.016	23.4541
13.034	23.4553
13.052	23.4649
13.07	23.4809
13.088	23.5
13.106	23.5167
13.124	23.5247
13.142	23.5176
13.16	23.4898
13.178	23.4386
13.196	23.3648
13.214	23.2731
13.232	23.1711
13.25	23.0684
13.268	22.9746
13.286	22.8982
13.304	22.8453
13.322	22.8186
13.34	22.8173
13.358	22.8372
13.376	22.8716
13.394	22.9127
13.412	22.9526
13.43	22.9852
13.448	23.0067
13.466	23.0163
13.484	23.0161
13.502	23.0103
13.52	23.0043
13.538	23.003
13.556	23.0104
13.574	23.0279
13.592	23.0549
13.61	23.0883
13.628	23.123
13.646	23.1542
13.664	23.1763
13.682	23.1851
13.7	23.1774
13.718	23.1517
13.736	23.1081
13.754	23.0482
13.772	22.9751
13.79	22.8935
13.808	22.8087
13.826	22.7266
13.844	22.6527
13.862	22.5909
13.88	22.5429
13.898	22.5082
13.916	22.4845
13.934	22.4679
13.952	22.4538
13.97	22.4383
13.988	22.4185
14.006	22.3929
14.024	22.3622
14.042	22.3277
14.06	22.2912
14.078	22.2538
14.096	22.2158
14.114	22.1758
14.132	22.1318
14.15	22.0815
14.168	22.0234
14.186	21.9571
14.204	21.8837
14.222	21.8064
14.24	21.7293
14.258	21.6569
14.276	21.5928
14.294	21.5396
14.312	21.4984
14.33	21.469
14.348	21.4498
14.366	21.4385
14.384	21.4323
14.402	21.4284
14.42	21.4249
14.438	21.4201
14.456	21.4134
14.474	21.4049
14.492	21.3949
14.51	21.385
14.528	21.3764
14.546	21.3707
14.564	21.369
14.582	21.3722
14.6	21.3803
14.618	21.3925
14.636	21.4066
14.654	21.4193
14.672	21.4268
14.69	21.4249
14.708	21.41
14.726	21.3791
14.744	21.3311
14.762	21.2674
14.78	21.1913
14.798	21.1077
14.816	21.0222
14.834	20.9418
14.852	20.8731
14.87	20.8208
14.888	20.7875
14.906	20.7744
14.924	20.7803
14.942	20.8019
14.96	20.8341
14.978	20.8714
14.996	20.9084
15.014	20.9397
15.032	20.9607
15.05	20.9687
15.068	20.9629
15.086	20.9435
15.104	20.9118
15.122	20.8708
15.14	20.8235
15.158	20.7732
15.176	20.7228
15.194	20.6748
15.212	20.6312
15.23	20.5926
15.248	20.5594
15.266	20.5311
15.284	20.5068
15.302	20.4854
15.32	20.4659
15.338	20.4476
15.356	20.4297
15.374	20.4123
15.392	20.3954
15.41	20.3792
15.428	20.3641
15.446	20.3504
15.464	20.3378
15.482	20.3261
15.5	20.3147
15.518	20.3028
15.536	20.29
15.554	20.2757
15.572	20.2596
15.59	20.242
15.608	20.2231
15.626	20.2035
15.644	20.1838
15.662	20.1652
15.68	20.1479
15.698	20.1324
15.716	20.1188
15.734	20.1063
15.752	20.0942
15.77	20.0815
15.788	20.0663
15.806	20.0469
15.824	20.0219
15.842	19.9899
15.86	19.9503
15.878	19.9032
15.896	19.8495
15.914	19.7911
15.932	19.7309
15.95	19.6715
15.968	19.6161
15.986	19.5682
16.004	19.5298
16.022	19.5026
16.04	19.4874
16.058	19.483
16.076	19.4884
16.094	19.5006
16.112	19.5161
16.13	19.5319
16.148	19.5444
16.166	19.55
16.184	19.5468
16.202	19.533
16.22	19.508
16.238	19.4725
16.256	19.427
16.274	19.3744
16.292	19.3171
16.31	19.2574
16.328	19.1995
16.346	19.1459
16.364	19.0988
16.382	19.0613
16.4	19.0351
16.418	19.0211
16.436	19.0206
16.454	19.033
16.472	19.0578
16.49	19.0934
16.508	19.1372
16.526	19.1871
16.544	19.2386
16.562	19.2881
16.58	19.3327
16.598	19.3674
16.616	19.3899
16.634	19.3981
16.652	19.3899
16.67	19.3658
16.688	19.3257
16.706	19.2723
16.724	19.2077
16.742	19.1349
16.76	19.0589
16.778	18.9821
16.796	18.9091
16.814	18.8433
16.832	18.7866
16.85	18.742
16.868	18.7099
16.886	18.6909
16.904	18.6841
16.922	18.6882
16.94	18.7016
16.958	18.7209
16.976	18.7445
16.994	18.7686
17.012	18.7911
17.03	18.8101
17.048	18.8232
17.066	18.8297
17.084	18.8286
17.102	18.8202
17.12	18.8046
17.138	18.7826
17.156	18.7553
17.174	18.7234
17.192	18.6887
17.21	18.6516
17.228	18.6133
17.246	18.5742
17.264	18.5349
17.282	18.4952
17.3	18.4553
17.318	18.4149
17.336	18.3737
17.354	18.3316
17.372	18.2886
17.39	18.2448
17.408	18.2005
17.426	18.1564
17.444	18.1127
17.462	18.0705
17.48	18.03
17.498	17.9921
17.516	17.9568
17.534	17.9247
17.552	17.8953
17.57	17.8684
17.588	17.8435
17.606	17.8201
17.624	17.7973
17.642	17.7747
17.66	17.7519
17.678	17.7285
17.696	17.7044
17.714	17.6797
17.732	17.6546
17.75	17.6294
17.768	17.6048
17.786	17.5809
17.804	17.5586
17.822	17.5378
17.84	17.519
17.858	17.5021
17.876	17.4871
17.894	17.4736
17.912	17.4614
17.93	17.4497
17.948	17.4384
17.966	17.4265
17.984	17.4139
18.002	17.3998
18.02	17.3842
18.038	17.3665
18.056	17.3467
18.074	17.3247
18.092	17.3004
18.11	17.2739
18.128	17.2455
18.146	17.2152
18.164	17.1833
18.182	17.15
18.2	17.1153
18.218	17.0798
18.236	17.0434
18.254	17.0069
18.272	16.9702
18.29	16.9341
18.308	16.8989
18.326	16.8652
18.344	16.8333
18.362	16.8037
18.38	16.7766
18.398	16.7522
18.416	16.7304
18.434	16.7111
18.452	16.6939
18.47	16.6786
18.488	16.6642
18.506	16.6503
18.524	16.6358
18.542	16.6205
18.56	16.6031
18.578	16.5833
18.596	16.5606
18.614	16.5348
18.632	16.5057
18.65	16.4733
18.668	16.4383
18.686	16.401
18.704	16.3627
18.722	16.3236
18.74	16.2859
18.758	16.25
18.776	16.2179
18.794	16.19
18.812	16.1682
18.83	16.1526
18.848	16.1446
18.866	16.1437
18.884	16.1503
18.902	16.1635
18.92	16.1827
18.938	16.2064
18.956	16.2331
18.974	16.2611
18.992	16.2883
19.01	16.3131
19.028	16.3331
19.046	16.3475
19.064	16.3538
19.082	16.3521
19.1	16.3408
19.118	16.3206
19.136	16.2913
19.154	16.2539
19.172	16.2097
19.19	16.1597
19.208	16.1064
19.226	16.0505
19.244	15.9951
19.262	15.9405
19.28	15.8897
19.298	15.8426
19.316	15.8014
19.334	15.7659
19.352	15.7369
19.37	15.7143
19.388	15.6973
19.406	15.6859
19.424	15.6783
19.442	15.6745
19.46	15.6727
19.478	15.6725
19.496	15.6729
19.514	15.6732
19.532	15.6732
19.55	15.6723
19.568	15.6709
19.586	15.6689
19.604	15.6669
19.622	15.6654
19.64	15.6647
19.658	15.6658
19.676	15.6687
19.694	15.6741
19.712	15.6819
19.73	15.6922
19.748	15.7051
19.766	15.7195
19.784	15.7355
19.802	15.7518
19.82	15.7678
19.838	15.7827
19.856	15.795
19.874	15.8046
19.892	15.8101
19.91	15.8115
19.928	15.8079
19.946	15.7993
19.964	15.7863
19.982	15.7684
20	15.7472
20.018	15.7228
20.036	15.6963
20.054	15.6693
20.072	15.6419
20.09	15.6164
20.108	15.5925
20.126	15.5719
20.144	15.5547
20.162	15.5411
20.18	15.5316
20.198	15.5253
20.216	15.5213
20.234	15.5195
20.252	15.5168
20.27	15.5138
20.288	15.5067
20.306	15.4956
20.324	15.4779
20.342	15.4517
20.36	15.4169
20.378	15.371
20.396	15.3145
20.414	15.2467
20.432	15.1673
20.45	15.0781
20.468	14.9789
20.486	14.8715
20.504	14.759
20.522	14.6409
20.54	14.5226
20.558	14.4032
20.576	14.2872
20.594	14.1765
20.612	14.0717
20.63	13.9772
20.648	13.8919
20.666	13.8186
20.684	13.7575
20.702	13.7086
20.72	13.6724
20.738	13.6481
20.756	13.6342
20.774	13.6312
20.792	13.6357
20.81	13.6478
20.828	13.6655
20.846	13.6859
20.864	13.7098
20.882	13.7333
20.9	13.7568
20.918	13.7787
20.936	13.7975
20.954	13.8137
20.972	13.826
20.99	13.8346
21.008	13.8396
21.026	13.8411
21.044	13.8392
21.062	13.8351
21.08	13.8283
21.098	13.8201
21.116	13.8107
21.134	13.8003
21.152	13.7899
21.17	13.779
21.188	13.7687
21.206	13.759
21.224	13.7501
21.242	13.7427
21.26	13.7365
21.278	13.7322
21.296	13.7297
21.314	13.7292
21.332	13.7309
21.35	13.7348
21.368	13.7411
21.386	13.7499
21.404	13.7612
21.422	13.775
21.44	13.7915
21.458	13.8104
21.476	13.8316
21.494	13.855
21.512	13.88
21.53	13.907
21.548	13.9349
21.566	13.9633
21.584	13.9922
21.602	14.0205
21.62	14.0482
21.638	14.0748
21.656	14.0992
21.674	14.1218
21.692	14.1417
21.71	14.1587
21.728	14.1728
21.746	14.184
21.764	14.192
21.782	14.1973
21.8	14.2001
21.818	14.2003
21.836	14.1988
21.854	14.1955
21.872	14.1907
21.89	14.1855
21.908	14.1796
21.926	14.1738
21.944	14.169
21.962	14.1648
21.98	14.1623
21.998	14.1616
22.016	14.1628
22.034	14.1665
22.052	14.1726
22.07	14.1812
22.088	14.1922
22.106	14.2057
22.124	14.2214
22.142	14.2394
22.16	14.2595
22.178	14.2807
22.196	14.3033
22.214	14.3267
22.232	14.35
22.25	14.3737
22.268	14.3962
22.286	14.4169
22.304	14.4359
22.322	14.4513
22.34	14.4632
22.358	14.4712
22.376	14.4726
22.394	14.4683
22.412	14.4571
22.43	14.437
22.448	14.409
22.466	14.3717
22.484	14.324
22.502	14.2664
22.52	14.1988
22.538	14.1205
22.556	14.0321
22.574	13.9347
22.592	13.8278
22.61	13.7125
22.628	13.5916
22.646	13.4638
22.664	13.3315
22.682	13.1989
22.7	13.0639
22.718	12.93
22.736	12.8016
22.754	12.6762
22.772	12.5579
22.79	12.4506
22.808	12.3521
22.826	12.2655
22.844	12.193
22.862	12.1333
22.88	12.0877
22.898	12.0576
22.916	12.042
22.934	12.0393
22.952	12.0498
22.97	12.0731
22.988	12.1044
23.006	12.1441
23.024	12.1914
23.042	12.2395
23.06	12.2887
23.078	12.3384
23.096	12.3811
23.114	12.4173
23.132	12.4464
23.15	12.4622
23.168	12.4648
23.186	12.4542
23.204	12.4268
23.222	12.3822
23.24	12.3212
23.258	12.2436
23.276	12.1483
23.294	12.0369
23.312	11.9116
23.33	11.7711
23.348	11.6172
23.366	11.4551
23.384	11.2835
23.402	11.1038
23.42	10.9227
23.438	10.7395
23.456	10.5547
23.474	10.3752
23.492	10.2012
23.51	10.0321
23.528	9.873365
23.546	9.726422
23.564	9.589766
23.582	9.466470
23.6	9.358034
23.618	9.263199
23.636	9.182361
23.654	9.116251
23.672	9.064695
23.69	9.025543
23.708	8.997767
23.726	8.982729
23.744	8.976950
23.762	8.977647
23.78	8.987213
23.798	9.002042
23.816	9.018044
23.834	9.037538
23.852	9.058184
23.87	9.075935
23.888	9.091865
23.906	9.105441
23.924	9.113950
23.942	9.117011
23.96	9.115315
23.978	9.108117
23.996	9.094643
24.014	9.075340
24.032	9.051640
24.05	9.024157
24.068	8.991919
24.086	8.957179
24.104	8.921922
24.122	8.884477
24.14	8.846842
24.158	8.811896
24.176	8.778862
24.194	8.747999
24.212	8.721186
24.23	8.699670
24.248	8.682355
24.266	8.667638
24.284	8.655144
24.302	8.646096
24.32	8.637075
24.338	8.625059
24.356	8.612610
24.374	8.597023
24.392	8.574023
24.41	8.544445
24.428	8.508348
24.446	8.462563
24.464	8.405333
24.482	8.338129
24.5	8.260908
24.518	8.173242
24.536	8.074016
24.554	7.965961
24.572	7.852340
24.59	7.731582
24.608	7.604584
24.626	7.475737
24.644	7.346067
24.662	7.212971
24.68	7.082836
24.698	6.961327
24.716	6.843790
24.734	6.734264
24.752	6.639890
24.77	6.560179
24.788	6.493625
24.806	6.446975
24.824	6.424760
24.842	6.422672
24.86	6.444331
24.878	6.494517
24.896	6.572897
24.914	6.678244
24.932	6.811483
24.95	6.973321
24.968	7.163266
24.986	7.380604
25.004	7.624887
25.022	7.899988
25.04	8.201252
25.058	8.520410
25.076	8.856672
25.094	9.216043
25.112	9.582571
25.13	9.940635
25.148	10.3008
25.166	10.657
25.184	10.9914
25.202	11.2966
25.22	11.5835
25.238	11.8396
25.256	12.0515
25.274	12.2235
25.292	12.3564
25.31	12.4435
25.328	12.4801
25.346	12.4695
25.364	12.4128
25.382	12.3108
25.4	12.1561
25.418	11.9544
25.436	11.7221
25.454	11.4695
25.472	11.1792
25.49	10.8716
25.508	10.574
25.526	10.2901
25.544	10.0071
25.562	9.746729
25.58	9.529783
25.598	9.347382
25.616	9.199561
25.634	9.096427
25.652	9.046889
25.67	9.048488
25.688	9.092719
25.706	9.171134
25.724	9.290920
25.742	9.452637
25.76	9.632101
25.778	9.807598
25.796	9.999053
25.814	10.195
25.832	10.3662
25.85	10.4946
25.868	10.6037
25.886	10.6741
25.904	10.6807
25.922	10.6169
25.94	10.497
25.958	10.3079
25.976	10.0362
25.994	9.679706
26.012	9.245574
26.03	8.737959
26.048	8.159312
26.066	7.498495
26.084	6.768468
26.102	5.988941
26.12	5.168899
26.138	4.286072
26.156	3.367898
26.174	2.447778
26.192	1.532577
26.21	0.598398
26.228	-0.320992
26.246	-1.189942
26.264	-2.014147
26.282	-2.807279
26.3	-3.535837
26.318	-4.167071
26.336	-4.714211
26.354	-5.181380
26.372	-5.546307
26.39	-5.788364
26.408	-5.918100
26.426	-5.937097
26.444	-5.836991
26.462	-5.609711
26.48	-5.254617
26.498	-4.779846
26.516	-4.193974
26.534	-3.501570
26.552	-2.690300
26.57	-1.774375
26.588	-0.772623
26.606	0.306380
26.624	1.485139
26.642	2.738462
26.66	4.035244
26.678	5.358994
26.696	6.735346
26.714	8.145762
26.732	9.567079
26.75	10.988
26.768	12.4268
26.786	13.8709
26.804	15.3053
26.822	16.7185
26.84	18.1172
26.858	19.509
26.876	20.901
26.894	22.2921
26.912	23.6709
26.93	25.0573
26.948	26.4733
26.966	28.007
26.984	29.7539
27.002	31.4366
27.02	32.755
27.028	33.1064