File: Bakgrunnsmateriale/MATLAB/FTIR/ftir_data/subBb/Mapping_121/C-4040-8_t12_cm-1.asc
PE IR       SPECTRUM    SPECTRUM    ASCII       PEDS        1.60
  -1
C-1A64~1.ASC
17/03/27
15:26:56.00
17/03/27
15:26:56.00
tln
$C-4040-8_t0012$<tbV0>[13.0,-10.4,8.0,0.0,27,1,0]
370
64

2002,4.07
MIRTGS : RIGHTBACK : INTERNAL 2
MIR : ON : INTERNAL 2
OPTKBR

0.200000
8
8.000000
FILLER
RATIO
SPECTRUM
UNLOCKED 256

DOUBLE
64
COMBINED
1
0
0

1.000000
RATIO

1
0
TRUE
51149
0
LEFT NOT FITTED RIGHT NOT FITTED 0
NONE
NONE
15600
12
4.427000
51148
TRUE
1 0 8 72 0 0 0 0

15798

#HDR
-1
-1
#GR
CM-1
%T
2.38419e-05
0.0
5000
-1.000000
4631
8
125.381
43.5405
#DATA
5000	64.4721
4996	64.164
4992	64.5281
4988	65.2595
4984	65.2446
4980	64.5679
4976	64.132
4972	64.4341
4968	65.0278
4964	64.7084
4960	63.7198
4956	63.4646
4952	63.9293
4948	63.9824
4944	63.2904
4940	63.1913
4936	64.0665
4932	64.6198
4928	64.1826
4924	63.6819
4920	63.9616
4916	64.5118
4912	65.0357
4908	65.4197
4904	65.5231
4900	65.401
4896	65.0016
4892	64.9283
4888	65.1208
4884	64.7332
4880	64.0302
4876	63.7319
4872	63.7468
4868	63.896
4864	64.4813
4860	65.1331
4856	65.1836
4852	64.9261
4848	64.9694
4844	65.3064
4840	65.6622
4836	65.6995
4832	65.293
4828	64.9007
4824	64.6131
4820	64.2981
4816	64.1904
4812	64.3445
4808	64.6492
4804	64.8602
4800	64.9123
4796	65.0367
4792	65.3059
4788	65.5123
4784	65.3092
4780	64.9285
4776	64.8019
4772	64.8155
4768	64.7243
4764	64.5036
4760	64.3814
4756	64.5137
4752	64.7542
4748	64.9552
4744	64.9966
4740	64.8699
4736	64.7913
4732	64.893
4728	65.0778
4724	65.1292
4720	65.1166
4716	65.0654
4712	64.8258
4708	64.7825
4704	65.0327
4700	65.1283
4696	65.0255
4692	65.0164
4688	65.1162
4684	65.0002
4680	64.7719
4676	64.6775
4672	64.6426
4668	64.7641
4664	65.0412
4660	65.3461
4656	65.508
4652	65.3177
4648	65.0173
4644	64.9747
4640	65.17
4636	65.3134
4632	65.2775
4628	65.1503
4624	65.1349
4620	65.2092
4616	65.0172
4612	64.8213
4608	64.9767
4604	65.1699
4600	65.2522
4596	65.2578
4592	65.0569
4588	64.8138
4584	64.7169
4580	64.7173
4576	64.7998
4572	64.766
4568	64.6845
4564	64.7951
4560	64.8989
4556	64.7904
4552	64.527
4548	64.4738
4544	64.5181
4540	64.3818
4536	64.4272
4532	64.5676
4528	64.4792
4524	64.4059
4520	64.5318
4516	64.4332
4512	64.2099
4508	64.5004
4504	64.9296
4500	64.7928
4496	64.4719
4492	64.1933
4488	64.0306
4484	64.103
4480	64.49
4476	64.6429
4472	64.4135
4468	64.4829
4464	64.7099
4460	65.0975
4456	65.9544
4452	68.4315
4448	70.9423
4444	70.3426
4440	67.2001
4436	63.3599
4432	61.7534
4428	62.263
4424	62.6634
4420	63.0228
4416	63.2245
4412	62.7089
4408	62.2859
4404	62.2471
4400	61.7998
4396	61.0839
4392	63.4759
4388	76.0476
4384	86.3955
4380	80.2836
4376	72.2287
4372	69.7559
4368	67.6688
4364	66.2365
4360	65.7161
4356	65.4858
4352	65.4017
4348	65.3233
4344	64.9958
4340	64.8346
4336	64.9706
4332	65.0012
4328	64.7017
4324	64.2272
4320	64.0399
4316	64.0783
4312	64.1733
4308	64.3135
4304	64.2851
4300	64.213
4296	64.2855
4292	64.2712
4288	64.2174
4284	64.4012
4280	64.5963
4276	64.6451
4272	64.7075
4268	64.8061
4264	64.841
4260	64.9109
4256	65.0172
4252	64.9062
4248	64.7112
4244	64.6984
4240	64.6888
4236	64.5221
4232	64.4661
4228	64.6018
4224	64.8539
4220	65.0464
4216	64.8905
4212	64.6849
4208	64.711
4204	64.7143
4200	64.7305
4196	64.9845
4192	65.0712
4188	64.7976
4184	64.3925
4180	63.8509
4176	63.5513
4172	63.8326
4168	64.4071
4164	64.8927
4160	65.1513
4156	65.1625
4152	64.9623
4148	64.8039
4144	64.7199
4140	64.6379
4136	64.7936
4132	65.0774
4128	65.1628
4124	65.1249
4120	65.0362
4116	64.9271
4112	64.9654
4108	65.1826
4104	65.3286
4100	65.2243
4096	65.1007
4092	65.1661
4088	65.2624
4084	65.27
4080	65.2267
4076	65.1432
4072	65.0576
4068	65.0175
4064	65.1122
4060	65.2784
4056	65.3355
4052	65.2165
4048	64.986
4044	64.9483
4040	65.1665
4036	65.2977
4032	65.2637
4028	65.2771
4024	65.4146
4020	65.5182
4016	65.4571
4012	65.4278
4008	65.5089
4004	65.4154
4000	65.2072
3996	65.1712
3992	65.1847
3988	65.1469
3984	65.1376
3980	65.0684
3976	64.9772
3972	65.0451
3968	65.1981
3964	65.2421
3960	65.2288
3956	65.3089
3952	65.365
3948	65.2946
3944	65.2114
3940	65.108
3936	65.0267
3932	65.0709
3928	65.2176
3924	65.3065
3920	65.2332
3916	65.1654
3912	65.1726
3908	65.2908
3904	65.4483
3900	65.3838
3896	65.2213
3892	65.1275
3888	65.0514
3884	65
3880	64.9649
3876	64.9983
3872	65.0795
3868	65.1149
3864	65.1266
3860	65.2099
3856	65.4865
3852	65.6623
3848	65.5241
3844	65.4022
3840	65.5071
3836	65.619
3832	65.3901
3828	65.0287
3824	64.9206
3820	65.0002
3816	65.0434
3812	65.128
3808	65.3529
3804	65.4766
3800	65.3972
3796	65.2155
3792	65.0884
3788	65.1244
3784	65.1664
3780	65.146
3776	65.1806
3772	65.2784
3768	65.3114
3764	65.2571
3760	65.2321
3756	65.3652
3752	65.5812
3748	65.6077
3744	65.4629
3740	65.3643
3736	65.3838
3732	65.3607
3728	65.256
3724	65.2463
3720	65.3488
3716	65.5133
3712	65.5835
3708	65.4269
3704	65.2792
3700	65.2931
3696	65.3442
3692	65.4329
3688	65.4136
3684	65.2776
3680	65.4056
3676	65.6335
3672	65.5715
3668	65.2934
3664	65.1033
3660	65.2135
3656	65.4367
3652	65.5396
3648	65.4819
3644	65.3479
3640	65.2312
3636	65.2058
3632	65.3494
3628	65.3805
3624	65.2393
3620	65.2522
3616	65.3431
3612	65.3223
3608	65.2218
3604	65.1856
3600	65.2406
3596	65.3206
3592	65.4265
3588	65.4449
3584	65.3391
3580	65.2798
3576	65.2699
3572	65.1488
3568	65.0198
3564	65.0497
3560	65.1541
3556	65.2795
3552	65.3807
3548	65.2989
3544	65.1705
3540	65.2212
3536	65.3177
3532	65.3561
3528	65.3299
3524	65.1979
3520	65.1041
3516	65.1406
3512	65.1407
3508	65.1021
3504	65.138
3500	65.1514
3496	65.1698
3492	65.1588
3488	65.0011
3484	65.0844
3480	65.4819
3476	65.6232
3472	65.4746
3468	65.3862
3464	65.3299
3460	65.2286
3456	65.1685
3452	65.1479
3448	65.1248
3444	65.1096
3440	65.035
3436	64.8826
3432	64.7812
3428	64.7913
3424	64.8816
3420	65.0014
3416	65.1399
3412	65.2706
3408	65.2786
3404	65.1841
3400	65.1137
3396	65.082
3392	65.0827
3388	65.1186
3384	65.1685
3380	65.2631
3376	65.3383
3372	65.3094
3368	65.3028
3364	65.3215
3360	65.2346
3356	65.1153
3352	65.0728
3348	65.1238
3344	65.1927
3340	65.2068
3336	65.1901
3332	65.146
3328	65.0919
3324	65.0838
3320	65.0765
3316	65.1202
3312	65.2933
3308	65.4031
3304	65.3037
3300	65.2128
3296	65.284
3292	65.3447
3288	65.3057
3284	65.2515
3280	65.2847
3276	65.3274
3272	65.276
3268	65.2235
3264	65.165
3260	65.1134
3256	65.136
3252	65.2264
3248	65.3124
3244	65.2929
3240	65.1989
3236	65.1169
3232	65.1348
3228	65.2161
3224	65.2909
3220	65.362
3216	65.3816
3212	65.4255
3208	65.4346
3204	65.318
3200	65.2325
3196	65.1154
3192	64.9717
3188	64.9717
3184	65.0287
3180	65.1221
3176	65.1748
3172	65.0854
3168	65.0458
3164	65.06
3160	65.059
3156	65.0963
3152	65.1409
3148	65.2061
3144	65.2363
3140	65.2249
3136	65.2081
3132	65.1509
3128	65.1536
3124	65.2473
3120	65.2887
3116	65.2169
3112	65.1337
3108	65.0823
3104	65.041
3100	65.1223
3096	65.2726
3092	65.225
3088	65.0574
3084	65.0183
3080	65.0995
3076	65.1857
3072	65.2577
3068	65.3221
3064	65.3067
3060	65.2715
3056	65.2819
3052	65.2746
3048	65.298
3044	65.3464
3040	65.3447
3036	65.3219
3032	65.2772
3028	65.3014
3024	65.4026
3020	65.3984
3016	65.2945
3012	65.1626
3008	65.0907
3004	65.1553
3000	65.2579
2996	65.3017
2992	65.2891
2988	65.2707
2984	65.2518
2980	65.1853
2976	65.1012
2972	65.1113
2968	65.1655
2964	65.1299
2960	65.104
2956	65.0878
2952	65.0342
2948	65.0545
2944	65.1016
2940	65.1554
2936	65.2059
2932	65.1686
2928	65.0769
2924	65.013
2920	65.0476
2916	65.1203
2912	65.1147
2908	65.0576
2904	65.0397
2900	65.0636
2896	65.0721
2892	65.0987
2888	65.1655
2884	65.208
2880	65.1527
2876	65.0717
2872	65.1343
2868	65.1895
2864	65.0619
2860	64.8332
2856	64.7233
2852	64.8753
2848	65.1572
2844	65.4334
2840	65.5212
2836	65.3539
2832	65.1952
2828	65.1954
2824	65.2789
2820	65.3304
2816	65.3139
2812	65.2971
2808	65.2839
2804	65.2493
2800	65.2288
2796	65.1974
2792	65.1697
2788	65.148
2784	65.1469
2780	65.1991
2776	65.2002
2772	65.1581
2768	65.2012
2764	65.2932
2760	65.345
2756	65.3921
2752	65.4381
2748	65.4069
2744	65.3746
2740	65.3857
2736	65.3511
2732	65.2892
2728	65.223
2724	65.1603
2720	65.1787
2716	65.2311
2712	65.2281
2708	65.2332
2704	65.2791
2700	65.3477
2696	65.4097
2692	65.3925
2688	65.2965
2684	65.1962
2680	65.1799
2676	65.2805
2672	65.3864
2668	65.375
2664	65.3009
2660	65.2583
2656	65.237
2652	65.1827
2648	65.1506
2644	65.1964
2640	65.2675
2636	65.3613
2632	65.4293
2628	65.4465
2624	65.4356
2620	65.3475
2616	65.2135
2612	65.1459
2608	65.1689
2604	65.229
2600	65.2864
2596	65.3225
2592	65.3481
2588	65.3551
2584	65.3369
2580	65.3056
2576	65.2653
2572	65.2773
2568	65.3191
2564	65.2581
2560	65.1595
2556	65.1685
2552	65.2393
2548	65.3042
2544	65.3352
2540	65.3285
2536	65.3174
2532	65.3077
2528	65.3443
2524	65.3981
2520	65.3429
2516	65.2256
2512	65.1483
2508	65.1574
2504	65.2833
2500	65.4103
2496	65.4326
2492	65.3523
2488	65.2298
2484	65.1561
2480	65.1773
2476	65.2691
2472	65.3169
2468	65.2889
2464	65.2543
2460	65.1914
2456	65.1341
2452	65.1914
2448	65.3338
2444	65.4492
2440	65.4808
2436	65.3876
2432	65.1626
2428	64.9639
2424	64.9194
2420	64.995
2416	65.1209
2412	65.2305
2408	65.2653
2404	65.2512
2400	65.2632
2396	65.276
2392	65.2643
2388	65.2577
2384	65.2611
2380	65.2623
2376	65.2735
2372	65.3269
2368	65.394
2364	65.4434
2360	65.4563
2356	65.4225
2352	65.3997
2348	65.3811
2344	65.3152
2340	65.2818
2336	65.3128
2332	65.3134
2328	65.2975
2324	65.3265
2320	65.35
2316	65.3495
2312	65.3762
2308	65.3991
2304	65.3819
2300	65.3419
2296	65.3111
2292	65.3118
2288	65.3204
2284	65.3484
2280	65.4304
2276	65.4692
2272	65.4498
2268	65.44
2264	65.3805
2260	65.2963
2256	65.253
2252	65.2806
2248	65.339
2244	65.3019
2240	65.2082
2236	65.2119
2232	65.312
2228	65.3596
2224	65.3345
2220	65.3341
2216	65.3327
2212	65.2913
2208	65.2819
2204	65.3037
2200	65.2861
2196	65.2359
2192	65.2013
2188	65.2169
2184	65.2501
2180	65.2424
2176	65.2021
2172	65.2056
2168	65.302
2164	65.3748
2160	65.3408
2156	65.2454
2152	65.1424
2148	65.1739
2144	65.3266
2140	65.4464
2136	65.4521
2132	65.3589
2128	65.2707
2124	65.2078
2120	65.2406
2116	65.3742
2112	65.4587
2108	65.415
2104	65.2962
2100	65.2689
2096	65.3528
2092	65.4643
2088	65.6093
2084	65.6945
2080	65.6478
2076	65.5238
2072	65.2663
2068	65.0241
2064	65.0287
2060	65.1938
2056	65.3884
2052	65.4496
2048	65.3696
2044	65.3275
2040	65.3484
2036	65.3809
2032	65.3961
2028	65.3149
2024	65.1595
2020	65.0931
2016	65.1488
2012	65.2435
2008	65.3188
2004	65.318
2000	65.2999
1996	65.3533
1992	65.3688
1988	65.3304
1984	65.319
1980	65.2906
1976	65.2779
1972	65.3396
1968	65.3987
1964	65.3947
1960	65.3488
1956	65.2741
1952	65.2491
1948	65.3223
1944	65.3949
1940	65.3941
1936	65.3417
1932	65.2901
1928	65.2959
1924	65.3747
1920	65.4483
1916	65.4705
1912	65.4814
1908	65.4499
1904	65.3867
1900	65.407
1896	65.4446
1892	65.4172
1888	65.3494
1884	65.261
1880	65.2506
1876	65.3206
1872	65.3587
1868	65.3506
1864	65.3641
1860	65.4079
1856	65.4212
1852	65.3938
1848	65.3636
1844	65.3225
1840	65.2638
1836	65.262
1832	65.3341
1828	65.3801
1824	65.3459
1820	65.3118
1816	65.3938
1812	65.5057
1808	65.5154
1804	65.5104
1800	65.547
1796	65.5814
1792	65.5845
1788	65.5597
1784	65.51
1780	65.4368
1776	65.4592
1772	65.522
1768	65.4304
1764	65.3552
1760	65.4099
1756	65.4252
1752	65.3779
1748	65.3207
1744	65.2691
1740	65.2855
1736	65.3969
1732	65.4002
1728	65.2422
1724	65.2298
1720	65.4857
1716	65.6716
1712	65.5577
1708	65.4949
1704	65.6908
1700	65.8505
1696	65.7267
1692	65.5466
1688	65.6261
1684	65.7207
1680	65.5802
1676	65.4595
1672	65.426
1668	65.3687
1664	65.3422
1660	65.4185
1656	65.6873
1652	65.8997
1648	65.7621
1644	65.4947
1640	65.4014
1636	65.4408
1632	65.3563
1628	65.261
1624	65.3159
1620	65.3678
1616	65.3595
1612	65.3132
1608	65.2854
1604	65.2655
1600	65.2085
1596	65.199
1592	65.2516
1588	65.3228
1584	65.3677
1580	65.4278
1576	65.476
1572	65.4065
1568	65.3647
1564	65.576
1560	65.8415
1556	65.7058
1552	65.3972
1548	65.4073
1544	65.7334
1540	65.8955
1536	65.6622
1532	65.4521
1528	65.4642
1524	65.5188
1520	65.5122
1516	65.5154
1512	65.6047
1508	65.6692
1504	65.5629
1500	65.4019
1496	65.2876
1492	65.256
1488	65.2851
1484	65.2609
1480	65.2817
1476	65.4079
1472	65.5093
1468	65.4898
1464	65.4769
1460	65.6013
1456	65.6522
1452	65.5349
1448	65.4822
1444	65.3913
1440	65.2063
1436	65.107
1432	65.0594
1428	65.0834
1424	65.2713
1420	65.4366
1416	65.3527
1412	65.1826
1408	65.1573
1404	65.2481
1400	65.3184
1396	65.3103
1392	65.2632
1388	65.2124
1384	65.1278
1380	65.048
1376	65.0658
1372	65.0979
1368	65.0718
1364	65.0555
1360	65.0294
1356	65.0059
1352	65.0484
1348	65.1562
1344	65.2768
1340	65.2612
1336	65.172
1332	65.1777
1328	65.2032
1324	65.2107
1320	65.2251
1316	65.1511
1312	65.0177
1308	64.9766
1304	65.0299
1300	65.1145
1296	65.1612
1292	65.1352
1288	65.1036
1284	65.0865
1280	65.0723
1276	65.0364
1272	64.9839
1268	65.0333
1264	65.0969
1260	65.0556
1256	65.0535
1252	65.0906
1248	65.0731
1244	65.0169
1240	64.9879
1236	65.0554
1232	65.1414
1228	65.1087
1224	65.0507
1220	65.0716
1216	65.0672
1212	65.0261
1208	64.9904
1204	64.9786
1200	64.9981
1196	64.9992
1192	64.9902
1188	64.978
1184	64.9595
1180	64.9427
1176	64.9478
1172	64.9742
1168	64.9811
1164	64.9992
1160	64.9971
1156	64.9108
1152	64.8779
1148	64.9429
1144	64.9791
1140	64.989
1136	64.9653
1132	64.9542
1128	64.9827
1124	64.9345
1120	64.8804
1116	64.9134
1112	64.9859
1108	65.0415
1104	64.984
1100	64.8389
1096	64.8005
1092	64.9469
1088	65.0184
1084	64.8751
1080	64.7236
1076	64.6952
1072	64.7748
1068	64.8204
1064	64.8208
1060	64.9028
1056	64.9433
1052	64.8949
1048	64.9567
1044	65.089
1040	65.0726
1036	64.889
1032	64.8194
1028	64.9439
1024	64.8987
1020	64.598
1016	64.3805
1012	64.4709
1008	64.6228
1004	64.6402
1000	64.6797
996	 64.7306
992	 64.7892
988	 64.9685
984	 65.1438
980	 65.1661
976	 64.9631
972	 64.6702
968	 64.5901
964	 64.61
960	 64.6053
956	 64.5788
952	 64.4878
948	 64.5143
944	 64.5695
940	 64.5421
936	 64.5901
932	 64.6326
928	 64.5748
924	 64.5512
920	 64.7197
916	 64.9073
912	 64.8072
908	 64.6298
904	 64.5271
900	 64.2273
896	 64.0004
892	 64.151
888	 64.4119
884	 64.4736
880	 64.3228
876	 64.3132
872	 64.4067
868	 64.3569
864	 64.3173
860	 64.4154
856	 64.5366
852	 64.5858
848	 64.5176
844	 64.3866
840	 64.298
836	 64.2262
832	 64.2332
828	 64.2478
824	 64.2752
820	 64.4296
816	 64.4993
812	 64.3679
808	 64.2632
804	 64.2861
800	 64.2137
796	 64.0607
792	 64.0344
788	 64.176
784	 64.2759
780	 64.2415
776	 64.1693
772	 64.0426
768	 63.9033
764	 63.8229
760	 63.9558
756	 64.2785
752	 64.4192
748	 64.3758
744	 64.3162
740	 64.0188
736	 63.6236
732	 63.4857
728	 63.4569
724	 63.3495
720	 63.2578
716	 63.2469
712	 63.2011
708	 63.0466
704	 62.8855
700	 63.0075
696	 63.3145
692	 63.3551
688	 63.2582
684	 63.2572
680	 63.1291
676	 62.9198
672	 62.9141
668	 62.9611
664	 62.9166
660	 62.9887
656	 63.1565
652	 63.2617
648	 63.3741
644	 63.4287
640	 63.3031
636	 63.2286
632	 63.2624
628	 63.1531
624	 62.958
620	 62.8529
616	 62.8783
612	 62.8591
608	 62.6729
604	 62.4567
600	 62.2425
596	 62.2625
592	 62.587
588	 62.7381
584	 62.6252
580	 62.6936
576	 62.9862
572	 63.2228
568	 63.1842
564	 62.9248
560	 62.5767
556	 62.1376
552	 61.8787
548	 61.9268
544	 61.9534
540	 61.7699
536	 61.5638
532	 61.6
528	 61.7628
524	 61.4448
520	 60.8376
516	 60.7781
512	 61.0709
508	 61.1005
504	 60.9391
500	 61.3903
496	 61.7992
492	 61.0921
488	 60.5583
484	 60.7853
480	 61.1199
476	 61.2423
472	 60.4505
468	 59.2645
464	 59.1801
460	 59.8691
456	 60.3109
452	 60.0566
448	 60.0162
444	 60.8383
440	 60.6099
436	 58.8799
432	 56.6526
428	 54.7723
424	 56.0102
420	 59.6189
416	 59.684
412	 53.5155
408	 45.3882
404	 44.1992
400	 49.1166
396	 56.889
392	 72.9322
388	 106.228
384	 125.164
380	 93.2107
376	 63.5467
372	 59.6357
370	 62.2865