File: Bakgrunnsmateriale/MATLAB/FTIR/ftir_data/subBb/Mapping_121/C-4040-8_t120.asc
PE IR       SPECTRUM    SPECTRUM    ASCII       PEDS        1.60
  -1
C-8CB2~1.ASC
17/03/28
00:35:47.00
17/03/28
00:36:14.00
tln
$C-4040-8_t0120$<tbV0>[-10.4,13.0,8.0,0.0,27,1,0]
27.028
64

2002,4.07
MIRTGS : RIGHTBACK : INTERNAL 2
MIR : ON : INTERNAL 2
OPTKBR

0.200000
8
8.000000
FILLER
RATIO
SPECTRUM
UNLOCKED 256

DOUBLE
64
COMBINED
1
0
0

0.002000
RATIO

1
0
TRUE
51149
0
LEFT NOT FITTED RIGHT NOT FITTED 0
NONE
NONE
15600
12
4.427000
51148
TRUE
1 0 8 72 0 0 0 0

15798

#HDR
-1
-1
#GR
µM
%T
2.38419e-05
0.0
2.000000
0.002000
12515
8
70.9835
13.135
#DATA
2.000000	 64.4855
2.018000	 63.8308
2.036000	 65.0355
2.054000	 64.2037
2.072000	 64.626
2.090000	 64.6198
2.108000	 64.5706
2.126000	 65.1446
2.144000	 64.8636
2.162000	 64.8809
2.180000	 64.4485
2.198000	 65.1336
2.216000	 64.8291
2.234000	 64.7096
2.252000	 64.6371
2.270000	 65.4789
2.288000	 66.5988
2.306000	 65.0319
2.324000	 64.9387
2.342000	 64.5437
2.360000	 64.5752
2.378000	 64.6657
2.396000	 64.1646
2.414000	 64.5929
2.432000	 64.7631
2.450000	 65.0187
2.468000	 65.0289
2.486000	 64.738
2.504000	 64.9304
2.522000	 64.8825
2.540000	 64.7791
2.558000	 64.7162
2.576000	 65.1594
2.594000	 65.0386
2.612000	 64.6813
2.630000	 65.0339
2.648000	 65.023
2.666000	 64.7552
2.684000	 65.0178
2.702000	 65.0109
2.720000	 64.9821
2.738000	 64.8751
2.756000	 64.993
2.774000	 65.1167
2.792000	 64.9285
2.810000	 64.9662
2.828000	 65.0424
2.846000	 64.9698
2.864000	 64.9808
2.882000	 64.9711
2.900000	 64.8639
2.918000	 64.868
2.936000	 65.075
2.954000	 65.0521
2.972000	 64.9854
2.990000	 65.0347
3.008000	 64.7057
3.026000	 64.8722
3.044000	 65.0579
3.062000	 64.8148
3.080000	 64.9114
3.098000	 64.9828
3.116000	 64.7948
3.134000	 64.7936
3.152000	 65.12
3.170000	 65.0277
3.188000	 64.9091
3.206000	 65.0194
3.224000	 64.9648
3.242000	 65.1353
3.260000	 65.0329
3.278000	 64.9783
3.296000	 65.0977
3.314000	 65.0888
3.332000	 65.2486
3.350000	 65.1196
3.368000	 65.0047
3.386000	 64.8058
3.404000	 64.8329
3.422000	 64.751
3.440000	 64.8484
3.458000	 64.7925
3.476000	 64.8858
3.494000	 64.8339
3.512000	 64.8887
3.530000	 65.0077
3.548000	 65.0037
3.566000	 65.1604
3.584000	 65.0461
3.602000	 64.9917
3.620000	 64.9854
3.638000	 65.0749
3.656000	 65.0613
3.674000	 65.0148
3.692000	 65.1273
3.710000	 64.9557
3.728000	 65.2195
3.746000	 65.0896
3.764000	 65.0468
3.782000	 65.0606
3.800000	 65.0577
3.818000	 64.9985
3.836000	 65.1113
3.854000	 65.1058
3.872000	 65.0941
3.890000	 65.1789
3.908000	 65.1408
3.926000	 65.2808
3.944000	 65.1836
3.962000	 65.1648
3.980000	 65.0393
3.998000	 65.0914
4.016000	 65.0984
4.034000	 65.2388
4.052000	 65.1273
4.070000	 65.2192
4.088000	 65.1768
4.106000	 65.0795
4.124000	 64.9172
4.141999	 65.2803
4.160000	 65.2513
4.178000	 65.1395
4.196000	 65.2552
4.214000	 65.2153
4.232000	 65.1603
4.250000	 65.1666
4.268000	 65.1214
4.286000	 65.0902
4.304000	 65.0508
4.322000	 65.0742
4.340000	 65.0498
4.358000	 65.0768
4.375999	 65.0945
4.394000	 65.0417
4.412000	 65.0927
4.430000	 65.0679
4.448000	 65.1118
4.466000	 65.0834
4.484000	 65.2158
4.502000	 65.1023
4.520000	 65.2068
4.538000	 65.3167
4.556000	 65.2888
4.574000	 65.2658
4.592000	 65.1932
4.609999	 65.2042
4.628000	 65.1221
4.646000	 65.0647
4.664000	 65.0574
4.682000	 64.9385
4.700000	 64.9964
4.718000	 65.0798
4.736000	 65.0851
4.754000	 65.093
4.772000	 65.1907
4.790000	 65.2184
4.808000	 64.8738
4.826000	 65.2256
4.843999	 65.6998
4.862000	 65.0116
4.880000	 65.1194
4.898000	 65.0518
4.916000	 65.2472
4.934000	 65.3086
4.952000	 65.1863
4.970000	 65.2289
4.988000	 65.0757
5.006000	 64.9635
5.024000	 65.0976
5.042000	 65.2162
5.060000	 65.1115
5.077999	 65.0892
5.096000	 65.1773
5.114000	 65.0472
5.132000	 65.0478
5.150000	 65.0721
5.168000	 65.0291
5.186000	 65.0574
5.204000	 65.0974
5.222000	 65.1597
5.240000	 65.0854
5.258000	 64.9569
5.276000	 64.9363
5.294000	 65.0407
5.312000	 65.1561
5.330000	 65.2581
5.348000	 65.1045
5.366000	 65.0433
5.384000	 65.0947
5.402000	 65.1929
5.420000	 65.1531
5.438000	 64.9456
5.456000	 64.9953
5.474000	 65.0658
5.492000	 65.1181
5.510000	 65.0685
5.528000	 64.8912
5.546000	 65.0391
5.564000	 65.0312
5.582000	 64.9456
5.600000	 64.9967
5.618000	 65.1346
5.636000	 65.198
5.654000	 65.1457
5.672000	 65.0344
5.690000	 64.9452
5.708000	 64.8685
5.726000	 64.8679
5.744000	 64.9012
5.762000	 64.763
5.780000	 64.6001
5.798000	 64.6925
5.816000	 64.8764
5.834000	 65.0808
5.852000	 65.2321
5.870000	 65.1611
5.888000	 64.9818
5.906000	 64.9137
5.923999	 64.8333
5.942000	 64.8232
5.960000	 65.0399
5.978000	 65.1422
5.996000	 65.1467
6.014000	 65.0583
6.032000	 64.9193
6.050000	 64.9188
6.068000	 64.8272
6.086000	 64.8186
6.104000	 64.9551
6.122000	 65.0098
6.140000	 64.945
6.158000	 64.92
6.176000	 64.8726
6.194000	 64.9059
6.212000	 64.9114
6.230000	 64.8613
6.248000	 64.9681
6.266000	 65.0043
6.284000	 64.8581
6.302000	 64.8009
6.320000	 64.8553
6.338000	 64.9042
6.356000	 64.8876
6.374000	 64.8454
6.392000	 64.8166
6.410000	 64.817
6.428000	 64.8174
6.446000	 64.8675
6.464000	 64.8999
6.482000	 64.9017
6.500000	 64.9976
6.518000	 65.0496
6.536000	 64.9849
6.554000	 64.9535
6.572000	 64.9923
6.590000	 64.9253
6.608000	 64.8652
6.626000	 64.9781
6.644000	 65.077
6.662000	 65.0642
6.680000	 65.0131
6.698000	 64.9446
6.716000	 64.9195
6.734000	 64.9771
6.752000	 65.0215
6.770000	 64.9645
6.788000	 64.9403
6.806000	 65.0501
6.824000	 65.0944
6.842000	 65.039
6.860000	 65.0543
6.878000	 65.0844
6.896000	 65.0088
6.914000	 64.8792
6.932000	 64.8561
6.950000	 64.9347
6.968000	 64.9764
6.986000	 65.0204
7.004000	 65.0727
7.022000	 65.0222
7.040000	 64.916
7.058000	 64.8561
7.076000	 64.8199
7.094000	 64.7818
7.112000	 64.778
7.130000	 64.7934
7.148000	 64.7963
7.166000	 64.8125
7.184000	 64.8156
7.202000	 64.7611
7.220000	 64.7053
7.238000	 64.6936
7.256000	 64.7008
7.274000	 64.7118
7.292000	 64.7339
7.310000	 64.7615
7.328000	 64.7681
7.346000	 64.7555
7.364000	 64.7776
7.382000	 64.8341
7.400000	 64.8419
7.418000	 64.7711
7.436000	 64.6948
7.454000	 64.6801
7.472000	 64.7192
7.490000	 64.7729
7.508000	 64.8213
7.526000	 64.8527
7.544000	 64.8587
7.562000	 64.8679
7.580000	 64.897
7.598000	 64.8884
7.616000	 64.8025
7.634000	 64.6964
7.652000	 64.637
7.670000	 64.6348
7.688000	 64.6609
7.706000	 64.6601
7.724000	 64.6136
7.742000	 64.5867
7.760000	 64.6453
7.778000	 64.757
7.796000	 64.8336
7.814000	 64.8303
7.832000	 64.7705
7.850000	 64.7029
7.868000	 64.6599
7.886000	 64.649
7.904000	 64.6592
7.922000	 64.6756
7.940000	 64.6966
7.958000	 64.7336
7.976000	 64.7865
7.994000	 64.826
8.012000	 64.8158
8.030000	 64.751
8.048000	 64.67
8.065999	 64.6252
8.084000	 64.6397
8.102000	 64.6862
8.120000	 64.7093
8.138000	 64.6856
8.155999	 64.6522
8.173999	 64.6456
8.192000	 64.6462
8.210000	 64.6251
8.228000	 64.6001
8.246000	 64.6003
8.263999	 64.6109
8.282000	 64.5969
8.300000	 64.5588
8.318000	 64.5293
8.336000	 64.537
8.353999	 64.5769
8.372000	 64.6168
8.390000	 64.6358
8.408000	 64.6485
8.426000	 64.6784
8.443999	 64.7152
8.462000	 64.7192
8.480000	 64.6731
8.498000	 64.6061
8.516000	 64.5618
8.533999	 64.5582
8.552000	 64.5821
8.570000	 64.6093
8.588000	 64.6185
8.606000	 64.5993
8.624000	 64.5573
8.641999	 64.5114
8.660000	 64.4786
8.678000	 64.4617
8.696000	 64.453
8.714000	 64.4493
8.731999	 64.4551
8.750000	 64.4722
8.768000	 64.4949
8.786000	 64.5147
8.804000	 64.5212
8.821999	 64.4973
8.840000	 64.4317
8.858000	 64.3436
8.876000	 64.2866
8.894000	 64.3102
8.911999	 64.4113
8.930000	 64.534
8.948000	 64.6264
8.966000	 64.6914
8.984000	 64.7704
9.001999	 64.8787
9.020000	 64.9743
9.038000	 64.9912
9.056000	 64.8999
9.074000	 64.7336
9.092000	 64.559
9.109999	 64.4267
9.128000	 64.3488
9.146000	 64.3167
9.164000	 64.3258
9.182000	 64.3774
9.199999	 64.4558
9.218000	 64.523
9.236000	 64.5447
9.254000	 64.5262
9.272000	 64.509
9.289999	 64.5341
9.308000	 64.6099
9.326000	 64.7091
9.344000	 64.7857
9.362000	 64.7985
9.379999	 64.7288
9.398000	 64.5971
9.416000	 64.4572
9.434000	 64.3676
9.452000	 64.3557
9.469999	 64.4085
9.488000	 64.4947
9.506000	 64.5885
9.524000	 64.6703
9.542000	 64.7189
9.560000	 64.7179
9.577999	 64.673
9.596000	 64.6184
9.614000	 64.5901
9.632000	 64.593
9.650000	 64.5948
9.667999	 64.5592
9.686000	 64.4788
9.704000	 64.3809
9.722000	 64.2983
9.740000	 64.2407
9.757999	 64.1916
9.776000	 64.1306
9.794000	 64.0556
9.812000	 63.985
9.830000	 63.9429
9.847999	 63.9426
9.866000	 63.9806
9.884000	 64.0441
9.902000	 64.1231
9.920000	 64.2165
9.937999	 64.3237
9.956000	 64.4295
9.974000	 64.5051
9.992000	 64.5226
10.01	64.4756
10.028	64.3877
10.046	64.3004
10.064	64.2448
10.082	64.2283
10.1	64.2382
10.118	64.2571
10.136	64.2755
10.154	64.2919
10.172	64.3085
10.19	64.3288
10.208	64.3549
10.226	64.3853
10.244	64.4117
10.262	64.4206
10.28	64.4021
10.298	64.3591
10.316	64.3111
10.334	64.2819
10.352	64.2828
10.37	64.3041
10.388	64.3214
10.406	64.314
10.424	64.2775
10.442	64.2256
10.46	64.1774
10.478	64.1464
10.496	64.1332
10.514	64.1317
10.532	64.1365
10.55	64.1492
10.568	64.1751
10.586	64.2163
10.604	64.2672
10.622	64.3152
10.64	64.3456
10.658	64.3488
10.676	64.3243
10.694	64.2792
10.712	64.2266
10.73	64.178
10.748	64.1418
10.766	64.1211
10.784	64.1137
10.802	64.1125
10.82	64.1098
10.838	64.1003
10.856	64.0867
10.874	64.0798
10.892	64.0929
10.91	64.1358
10.928	64.2069
10.946	64.293
10.964	64.3772
10.982	64.4456
11	64.4964
11.018	64.5355
11.036	64.569
11.054	64.5944
11.072	64.601
11.09	64.5759
11.108	64.5164
11.126	64.4331
11.144	64.3433
11.162	64.2627
11.18	64.1967
11.198	64.1396
11.216	64.0808
11.234	64.0147
11.252	63.9453
11.27	63.8844
11.288	63.8463
11.306	63.8369
11.324	63.8513
11.342	63.8755
11.36	63.8936
11.378	63.8945
11.396	63.8767
11.414	63.8471
11.432	63.8151
11.45	63.7876
11.468	63.7656
11.486	63.7421
11.504	63.7079
11.522	63.6545
11.54	63.579
11.558	63.4868
11.576	63.3896
11.594	63.3014
11.612	63.2353
11.63	63.1969
11.648	63.1828
11.666	63.1821
11.684	63.1809
11.702	63.1694
11.72	63.1451
11.738	63.1163
11.756	63.099
11.774	63.1125
11.792	63.1718
11.81	63.2814
11.828	63.4333
11.846	63.6074
11.864	63.7768
11.882	63.916
11.9	64.0045
11.918	64.0336
11.936	64.0087
11.954	63.9466
11.972	63.871
11.99	63.804
12.008	63.7569
12.026	63.7268
12.044	63.7007
12.062	63.6621
12.08	63.6028
12.098	63.5283
12.116	63.4598
12.134	63.4265
12.152	63.4532
12.17	63.5504
12.188	63.7077
12.206	63.8943
12.224	64.0695
12.242	64.1961
12.26	64.2516
12.278	64.2319
12.296	64.1518
12.314	64.037
12.332	63.914
12.35	63.8045
12.368	63.7213
12.386	63.6677
12.404	63.6395
12.422	63.6295
12.44	63.6308
12.458	63.6405
12.476	63.6603
12.494	63.6952
12.512	63.7496
12.53	63.8226
12.548	63.9059
12.566	63.9843
12.584	64.0387
12.602	64.0516
12.62	64.012
12.638	63.919
12.656	63.7823
12.674	63.6202
12.692	63.4551
12.71	63.3094
12.728	63.2004
12.746	63.1373
12.764	63.1189
12.782	63.1355
12.8	63.1719
12.818	63.212
12.836	63.2419
12.854	63.2547
12.872	63.2501
12.89	63.2349
12.908	63.2195
12.926	63.2144
12.944	63.2263
12.962	63.2548
12.98	63.2923
12.998	63.3267
13.016	63.3458
13.034	63.3416
13.052	63.3134
13.07	63.268
13.088	63.2173
13.106	63.175
13.124	63.1513
13.142	63.151
13.16	63.1734
13.178	63.2135
13.196	63.2643
13.214	63.3185
13.232	63.3701
13.25	63.4149
13.268	63.4508
13.286	63.4767
13.304	63.4915
13.322	63.4951
13.34	63.4882
13.358	63.4741
13.376	63.4584
13.394	63.4487
13.412	63.4525
13.43	63.4755
13.448	63.5193
13.466	63.5801
13.484	63.6492
13.502	63.7146
13.52	63.7642
13.538	63.7877
13.556	63.7788
13.574	63.736
13.592	63.6626
13.61	63.5656
13.628	63.4541
13.646	63.3383
13.664	63.2283
13.682	63.1334
13.7	63.0608
13.718	63.0151
13.736	62.9977
13.754	63.007
13.772	63.0382
13.79	63.0836
13.808	63.134
13.826	63.1788
13.844	63.2084
13.862	63.215
13.88	63.194
13.898	63.1447
13.916	63.0703
13.934	62.9763
13.952	62.8703
13.97	62.7598
13.988	62.6517
14.006	62.5513
14.024	62.4626
14.042	62.3873
14.06	62.3263
14.078	62.2796
14.096	62.2473
14.114	62.2293
14.132	62.2257
14.15	62.2364
14.168	62.2611
14.186	62.2991
14.204	62.3486
14.222	62.4067
14.24	62.4684
14.258	62.5286
14.276	62.5821
14.294	62.6251
14.312	62.6556
14.33	62.6733
14.348	62.6807
14.366	62.6824
14.384	62.6845
14.402	62.6927
14.42	62.7107
14.438	62.74
14.456	62.7792
14.474	62.8239
14.492	62.8677
14.51	62.9021
14.528	62.9201
14.546	62.9165
14.564	62.8891
14.582	62.8391
14.6	62.7708
14.618	62.6912
14.636	62.6084
14.654	62.53
14.672	62.4612
14.69	62.4056
14.708	62.365
14.726	62.3389
14.744	62.3259
14.762	62.3243
14.78	62.3331
14.798	62.3519
14.816	62.3811
14.834	62.4213
14.852	62.4727
14.87	62.5343
14.888	62.6034
14.906	62.6762
14.924	62.7472
14.942	62.8094
14.96	62.8558
14.978	62.8813
14.996	62.8819
15.014	62.8559
15.032	62.8045
15.05	62.7321
15.068	62.6451
15.086	62.5505
15.104	62.4562
15.122	62.3708
15.14	62.3002
15.158	62.2487
15.176	62.2188
15.194	62.2112
15.212	62.224
15.23	62.254
15.248	62.2971
15.266	62.3488
15.284	62.4035
15.302	62.4562
15.32	62.503
15.338	62.5403
15.356	62.5654
15.374	62.5764
15.392	62.5737
15.41	62.5579
15.428	62.5309
15.446	62.4966
15.464	62.4589
15.482	62.4219
15.5	62.3901
15.518	62.3687
15.536	62.3603
15.554	62.3667
15.572	62.3891
15.59	62.4255
15.608	62.4729
15.626	62.5274
15.644	62.5835
15.662	62.6346
15.68	62.676
15.698	62.7031
15.716	62.712
15.734	62.7017
15.752	62.6725
15.77	62.6259
15.788	62.5664
15.806	62.4988
15.824	62.4279
15.842	62.3595
15.86	62.2988
15.878	62.2487
15.896	62.2118
15.914	62.1887
15.932	62.1782
15.95	62.1784
15.968	62.1864
15.986	62.1976
16.004	62.2092
16.022	62.218
16.04	62.2206
16.058	62.216
16.076	62.2034
16.094	62.1831
16.112	62.1567
16.13	62.1258
16.148	62.0926
16.166	62.0596
16.184	62.0284
16.202	62.0007
16.22	61.9776
16.238	61.9594
16.256	61.9463
16.274	61.9375
16.292	61.9322
16.31	61.9299
16.328	61.929
16.346	61.9289
16.364	61.9289
16.382	61.9279
16.4	61.9251
16.418	61.9199
16.436	61.9111
16.454	61.8979
16.472	61.8794
16.49	61.8549
16.508	61.8241
16.526	61.7868
16.544	61.7434
16.562	61.6947
16.58	61.6414
16.598	61.5855
16.616	61.5287
16.634	61.4725
16.652	61.4198
16.67	61.372
16.688	61.3308
16.706	61.2977
16.724	61.2731
16.742	61.2576
16.76	61.2507
16.778	61.252
16.796	61.2606
16.814	61.2748
16.832	61.2937
16.85	61.3152
16.868	61.338
16.886	61.3607
16.904	61.3816
16.922	61.3997
16.94	61.4136
16.958	61.4224
16.976	61.4257
16.994	61.4229
17.012	61.4145
17.03	61.4008
17.048	61.3831
17.066	61.3625
17.084	61.3404
17.102	61.3192
17.12	61.3
17.138	61.2848
17.156	61.274
17.174	61.2685
17.192	61.2672
17.21	61.2696
17.228	61.2739
17.246	61.2777
17.264	61.2798
17.282	61.2767
17.3	61.2677
17.318	61.2506
17.336	61.2254
17.354	61.1918
17.372	61.1515
17.39	61.1056
17.408	61.0572
17.426	61.0094
17.444	60.9643
17.462	60.9265
17.48	60.8971
17.498	60.8792
17.516	60.8731
17.534	60.8796
17.552	60.8974
17.57	60.926
17.588	60.9625
17.606	61.0053
17.624	61.0518
17.642	61.0994
17.66	61.1469
17.678	61.1918
17.696	61.234
17.714	61.2724
17.732	61.3073
17.75	61.3386
17.768	61.3674
17.786	61.394
17.804	61.4192
17.822	61.4433
17.84	61.4671
17.858	61.4907
17.876	61.5145
17.894	61.5383
17.912	61.5623
17.93	61.5861
17.948	61.6098
17.966	61.6326
17.984	61.6543
18.002	61.6744
18.02	61.692
18.038	61.7068
18.056	61.7178
18.074	61.7247
18.092	61.7266
18.11	61.7233
18.128	61.7144
18.146	61.7
18.164	61.6805
18.182	61.6564
18.2	61.6285
18.218	61.5986
18.236	61.5673
18.254	61.5374
18.272	61.5092
18.29	61.4857
18.308	61.4672
18.326	61.4556
18.344	61.4509
18.362	61.4538
18.38	61.4638
18.398	61.4802
18.416	61.5014
18.434	61.5259
18.452	61.5512
18.47	61.5757
18.488	61.5966
18.506	61.6126
18.524	61.6215
18.542	61.6226
18.56	61.6148
18.578	61.5979
18.596	61.5726
18.614	61.539
18.632	61.4993
18.65	61.4538
18.668	61.4056
18.686	61.3549
18.704	61.3045
18.722	61.2546
18.74	61.2073
18.758	61.1628
18.776	61.1223
18.794	61.0857
18.812	61.0533
18.83	61.025
18.848	61.0003
18.866	60.979
18.884	60.9605
18.902	60.9446
18.92	60.9311
18.938	60.9198
18.956	60.9107
18.974	60.9039
18.992	60.8994
19.01	60.8974
19.028	60.8981
19.046	60.9015
19.064	60.9078
19.082	60.9166
19.1	60.9279
19.118	60.941
19.136	60.9552
19.154	60.9697
19.172	60.9831
19.19	60.9949
19.208	61.0029
19.226	61.007
19.244	61.0049
19.262	60.9966
19.28	60.9802
19.298	60.956
19.316	60.923
19.334	60.8813
19.352	60.8311
19.37	60.7726
19.388	60.7071
19.406	60.6347
19.424	60.5577
19.442	60.4761
19.46	60.3924
19.478	60.3069
19.496	60.2219
19.514	60.1377
19.532	60.056
19.55	59.978
19.568	59.9041
19.586	59.8354
19.604	59.7718
19.622	59.7139
19.64	59.6614
19.658	59.614
19.676	59.5716
19.694	59.533
19.712	59.4984
19.73	59.4662
19.748	59.4364
19.766	59.4075
19.784	59.3792
19.802	59.3506
19.82	59.321
19.838	59.2903
19.856	59.2576
19.874	59.2232
19.892	59.1869
19.91	59.1488
19.928	59.1095
19.946	59.0688
19.964	59.0282
19.982	58.9877
20	58.9485
20.018	58.9112
20.036	58.8766
20.054	58.8462
20.072	58.8198
20.09	58.799
20.108	58.7836
20.126	58.7744
20.144	58.7715
20.162	58.7747
20.18	58.7842
20.198	58.7991
20.216	58.8185
20.234	58.8422
20.252	58.8677
20.27	58.8955
20.288	58.9225
20.306	58.9487
20.324	58.9724
20.342	58.9922
20.36	59.008
20.378	59.018
20.396	59.0223
20.414	59.0209
20.432	59.0135
20.45	59.0012
20.468	58.9841
20.486	58.9635
20.504	58.9415
20.522	58.9178
20.54	58.8961
20.558	58.8759
20.576	58.8599
20.594	58.8496
20.612	58.8452
20.63	58.8491
20.648	58.8609
20.666	58.8814
20.684	58.911
20.702	58.9487
20.72	58.9945
20.738	59.0477
20.756	59.1059
20.774	59.1697
20.792	59.2356
20.81	59.3036
20.828	59.3716
20.846	59.4367
20.864	59.4996
20.882	59.5567
20.9	59.6083
20.918	59.6528
20.936	59.6888
20.954	59.7167
20.972	59.7355
20.99	59.7452
21.008	59.7464
21.026	59.7389
21.044	59.7232
21.062	59.7008
21.08	59.6712
21.098	59.6367
21.116	59.5974
21.134	59.5542
21.152	59.5093
21.17	59.462
21.188	59.4149
21.206	59.3682
21.224	59.3227
21.242	59.2804
21.26	59.2406
21.278	59.2053
21.296	59.1748
21.314	59.1493
21.332	59.1303
21.35	59.1173
21.368	59.1112
21.386	59.1123
21.404	59.1204
21.422	59.1358
21.44	59.1585
21.458	59.188
21.476	59.2245
21.494	59.2676
21.512	59.3161
21.53	59.3706
21.548	59.4292
21.566	59.4911
21.584	59.5565
21.602	59.6224
21.62	59.6896
21.638	59.7563
21.656	59.8203
21.674	59.8824
21.692	59.9401
21.71	59.9926
21.728	60.04
21.746	60.0806
21.764	60.1149
21.782	60.1421
21.8	60.1617
21.818	60.1739
21.836	60.179
21.854	60.1768
21.872	60.1676
21.89	60.152
21.908	60.1296
21.926	60.1016
21.944	60.0685
21.962	60.0301
21.98	59.9875
21.998	59.9407
22.016	59.8899
22.034	59.8362
22.052	59.7791
22.07	59.7194
22.088	59.6574
22.106	59.5929
22.124	59.527
22.142	59.4596
22.16	59.391
22.178	59.3224
22.196	59.2532
22.214	59.1845
22.232	59.1177
22.25	59.0519
22.268	58.9886
22.286	58.9286
22.304	58.8714
22.322	58.8184
22.34	58.7699
22.358	58.7256
22.376	58.686
22.394	58.6513
22.412	58.6208
22.43	58.5942
22.448	58.5719
22.466	58.5526
22.484	58.5355
22.502	58.5212
22.52	58.5079
22.538	58.4952
22.556	58.4833
22.574	58.471
22.592	58.4578
22.61	58.4441
22.628	58.4295
22.646	58.4137
22.664	58.3974
22.682	58.3812
22.7	58.3646
22.718	58.3487
22.736	58.335
22.754	58.3224
22.772	58.3132
22.79	58.3092
22.808	58.3093
22.826	58.3157
22.844	58.3297
22.862	58.3507
22.88	58.3789
22.898	58.4151
22.916	58.4589
22.934	58.5083
22.952	58.5632
22.97	58.6237
22.988	58.6866
23.006	58.7522
23.024	58.8201
23.042	58.8852
23.06	58.9481
23.078	59.0081
23.096	59.059
23.114	59.1012
23.132	59.1341
23.15	59.1525
23.168	59.157
23.186	59.147
23.204	59.1182
23.222	59.0701
23.24	59.0039
23.258	58.9191
23.276	58.8136
23.294	58.6905
23.312	58.5553
23.33	58.4059
23.348	58.2448
23.366	58.0806
23.384	57.9118
23.402	57.7398
23.42	57.5731
23.438	57.4111
23.456	57.2542
23.474	57.11
23.492	56.9792
23.51	56.8609
23.528	56.7603
23.546	56.6795
23.564	56.6165
23.582	56.5726
23.6	56.5493
23.618	56.5457
23.636	56.5591
23.654	56.5893
23.672	56.6373
23.69	56.6974
23.708	56.7663
23.726	56.8476
23.744	56.9343
23.762	57.0207
23.78	57.1112
23.798	57.2003
23.816	57.2817
23.834	57.3583
23.852	57.4278
23.87	57.4855
23.888	57.5319
23.906	57.5673
23.924	57.5905
23.942	57.6002
23.96	57.5978
23.978	57.5857
23.996	57.5639
24.014	57.5319
24.032	57.4941
24.05	57.4527
24.068	57.4049
24.086	57.3562
24.104	57.312
24.122	57.2687
24.14	57.2295
24.158	57.1995
24.176	57.1762
24.194	57.1613
24.212	57.1604
24.23	57.1742
24.248	57.2012
24.266	57.2451
24.284	57.3075
24.302	57.3862
24.32	57.4848
24.338	57.6065
24.356	57.7468
24.374	57.9115
24.392	58.109
24.41	58.3374
24.428	58.5967
24.446	58.8929
24.464	59.2271
24.482	59.5961
24.5	60.008
24.518	60.4706
24.536	60.9826
24.554	61.5393
24.572	62.1365
24.59	62.7815
24.608	63.4676
24.626	64.1767
24.644	64.9064
24.662	65.6678
24.68	66.4281
24.698	67.1593
24.716	67.8899
24.734	68.5907
24.752	69.214
24.77	69.7633
24.788	70.2484
24.806	70.6227
24.824	70.8547
24.842	70.9729
24.86	70.9549
24.878	70.7704
24.896	70.4218
24.914	69.9164
24.932	69.2485
24.95	68.4092
24.968	67.3979
24.986	66.2374
25.004	64.9491
25.022	63.5089
25.04	61.9385
25.058	60.2863
25.076	58.566
25.094	56.747
25.112	54.8881
25.13	53.0474
25.148	51.1871
25.166	49.3284
25.184	47.5345
25.202	45.8325
25.22	44.1837
25.238	42.6322
25.256	41.2251
25.274	39.9452
25.292	38.7922
25.31	37.7938
25.328	36.9686
25.346	36.3024
25.364	35.7944
25.382	35.4464
25.4	35.2666
25.418	35.2469
25.436	35.3684
25.454	35.6189
25.472	36.0183
25.49	36.5421
25.508	37.158
25.526	37.8674
25.544	38.6843
25.562	39.5654
25.58	40.4705
25.598	41.4294
25.616	42.4267
25.634	43.4176
25.652	44.377
25.67	45.3389
25.688	46.2712
25.706	47.1345
25.724	47.9274
25.742	48.6656
25.76	49.3236
25.778	49.8776
25.796	50.3387
25.814	50.7072
25.832	50.9726
25.85	51.1255
25.868	51.1687
25.886	51.1105
25.904	50.9588
25.922	50.7095
25.94	50.3581
25.958	49.9278
25.976	49.4414
25.994	48.8823
26.012	48.2551
26.03	47.5933
26.048	46.9247
26.066	46.219
26.084	45.4958
26.102	44.7936
26.12	44.1361
26.138	43.4924
26.156	42.8852
26.174	42.3449
26.192	41.8811
26.21	41.4735
26.228	41.1411
26.246	40.9041
26.264	40.7683
26.282	40.7231
26.3	40.7658
26.318	40.8941
26.336	41.119
26.354	41.4327
26.372	41.8145
26.39	42.2464
26.408	42.7557
26.426	43.3242
26.444	43.9116
26.462	44.4865
26.48	45.0889
26.498	45.6933
26.516	46.253
26.534	46.7363
26.552	47.1873
26.57	47.5762
26.588	47.8578
26.606	48.0047
26.624	48.0556
26.642	47.9864
26.66	47.7633
26.678	47.3657
26.696	46.8173
26.714	46.1118
26.732	45.2392
26.75	44.1903
26.768	42.9675
26.786	41.5839
26.804	40.053
26.822	38.3725
26.84	36.5225
26.858	34.5413
26.876	32.4709
26.894	30.3224
26.912	28.0523
26.93	25.7136
26.948	23.3657
26.966	20.941
26.984	18.247
27.002	15.6795
27.02	13.6729
27.028	13.135