File: Bakgrunnsmateriale/MATLAB/FTIR/ftir_data/subBb/Mapping_121/C-4040-8_t01.asc
PE IR       SPECTRUM    SPECTRUM    ASCII       PEDS        1.60
  -1
C-4040~4.ASC
17/03/27
14:35:34.00
17/03/27
14:36:00.00
tln
$C-4040-8_t0001$<tbV0>[13.0,-13.0,8.0,0.0,27,1,0]
27.028
64

2002,4.07
MIRTGS : RIGHTBACK : INTERNAL 2
MIR : ON : INTERNAL 2
OPTKBR

0.200000
8
8.000000
FILLER
RATIO
SPECTRUM
UNLOCKED 256

DOUBLE
64
COMBINED
1
0
0

0.002000
RATIO

1
0
TRUE
51149
0
LEFT NOT FITTED RIGHT NOT FITTED 0
NONE
NONE
15600
12
4.427000
51148
TRUE
1 0 8 72 0 0 0 0

15798

#HDR
-1
-1
#GR
µM
%T
2.38419e-05
0.0
2.000000
0.002000
12515
8
70.1284
36.6913
#DATA
2.000000	 62.916
2.018000	 64.364
2.036000	 65.3319
2.054000	 65.1278
2.072000	 64.9223
2.090000	 64.7118
2.108000	 64.5169
2.126000	 64.5003
2.144000	 64.8758
2.162000	 65.25
2.180000	 65.2211
2.198000	 65.2148
2.216000	 64.9871
2.234000	 65.7234
2.252000	 45.7563
2.270000	 66.7451
2.288000	 66.2308
2.306000	 65.6739
2.324000	 65.1539
2.342000	 64.7126
2.360000	 64.9344
2.378000	 65.0794
2.396000	 64.9313
2.414000	 64.4394
2.432000	 65.0258
2.450000	 65.1541
2.468000	 64.9787
2.486000	 65.1702
2.504000	 65.1549
2.522000	 65.2632
2.540000	 65.2549
2.558000	 65.5141
2.576000	 64.7462
2.594000	 65.1015
2.612000	 64.9443
2.630000	 65.4506
2.648000	 64.805
2.666000	 65.4366
2.684000	 65.0895
2.702000	 65.2498
2.720000	 65.2298
2.738000	 65.0574
2.756000	 64.9984
2.774000	 64.9724
2.792000	 65.2653
2.810000	 65.2966
2.828000	 65.1719
2.846000	 64.9404
2.864000	 65.0392
2.882000	 65.0772
2.900000	 65.2313
2.918000	 64.8776
2.936000	 64.8872
2.954000	 65.1306
2.972000	 65.0236
2.990000	 64.9863
3.008000	 65.0997
3.026000	 65.1234
3.044000	 64.9697
3.062000	 65.005
3.080000	 64.9853
3.098000	 65.0669
3.116000	 65.1816
3.134000	 64.8009
3.152000	 64.814
3.170000	 64.966
3.188000	 65.0359
3.206000	 65.2556
3.224000	 65.1103
3.242000	 65.093
3.260000	 65.1512
3.278000	 65.1482
3.296000	 65.102
3.314000	 65.1553
3.332000	 65.12
3.350000	 65.0252
3.368000	 64.9666
3.386000	 64.944
3.404000	 65.076
3.422000	 64.9596
3.440000	 64.7138
3.458000	 65.0581
3.476000	 65.0069
3.494000	 64.9696
3.512000	 65.0141
3.530000	 65.1184
3.548000	 65.1621
3.566000	 65.0844
3.584000	 65.0565
3.602000	 65.0572
3.620000	 65.1986
3.638000	 65.2505
3.656000	 65.1696
3.674000	 65.1737
3.692000	 65.0808
3.710000	 65.3368
3.728000	 65.1988
3.746000	 65.1151
3.764000	 65.1576
3.782000	 65.179
3.800000	 65.3084
3.818000	 65.2975
3.836000	 65.1089
3.854000	 65.2757
3.872000	 65.2015
3.890000	 65.1596
3.908000	 65.2836
3.926000	 65.2468
3.944000	 65.253
3.962000	 65.226
3.980000	 65.2794
3.998000	 65.0076
4.016000	 65.1417
4.034000	 65.0458
4.052000	 65.1542
4.070000	 65.1612
4.088000	 65.291
4.106000	 65.0714
4.124000	 65.1673
4.141999	 64.7309
4.160000	 65.174
4.178000	 65.2211
4.196000	 65.2544
4.214000	 65.2942
4.232000	 65.351
4.250000	 65.2468
4.268000	 65.0289
4.286000	 65.2733
4.304000	 65.1978
4.322000	 65.2531
4.340000	 65.3128
4.358000	 65.1508
4.375999	 65.2207
4.394000	 65.2979
4.412000	 65.3095
4.430000	 65.2281
4.448000	 65.3233
4.466000	 65.2068
4.484000	 65.0633
4.502000	 65.2194
4.520000	 65.3532
4.538000	 65.317
4.556000	 65.2975
4.574000	 65.2163
4.592000	 65.2655
4.609999	 65.2305
4.628000	 65.2916
4.646000	 65.238
4.664000	 65.3303
4.682000	 65.3496
4.700000	 65.2333
4.718000	 65.3634
4.736000	 65.2402
4.754000	 65.1325
4.772000	 65.1667
4.790000	 65.3522
4.808000	 65.1133
4.826000	 64.8716
4.843999	 65.1234
4.862000	 65.0968
4.880000	 65.1798
4.898000	 65.2306
4.916000	 65.3325
4.934000	 65.3062
4.952000	 65.2118
4.970000	 65.2128
4.988000	 65.2064
5.006000	 65.2477
5.024000	 65.1703
5.042000	 65.2508
5.060000	 65.2499
5.077999	 65.3148
5.096000	 65.2747
5.114000	 65.2778
5.132000	 65.3039
5.150000	 65.355
5.168000	 65.2068
5.186000	 65.1677
5.204000	 65.1955
5.222000	 65.2774
5.240000	 65.2812
5.258000	 65.2004
5.276000	 65.2643
5.294000	 65.2428
5.312000	 65.2519
5.330000	 65.2668
5.348000	 65.1134
5.366000	 65.1579
5.384000	 65.2241
5.402000	 65.2583
5.420000	 65.1648
5.438000	 65.0507
5.456000	 65.1741
5.474000	 65.3125
5.492000	 65.3275
5.510000	 65.2922
5.528000	 65.2111
5.546000	 65.2924
5.564000	 65.455
5.582000	 65.4954
5.600000	 65.3739
5.618000	 65.3692
5.636000	 65.3379
5.654000	 65.2623
5.672000	 65.2872
5.690000	 65.3641
5.708000	 65.2902
5.726000	 65.1858
5.744000	 65.1988
5.762000	 65.1662
5.780000	 65.1094
5.798000	 65.234
5.816000	 65.3654
5.834000	 65.208
5.852000	 65.0976
5.870000	 65.3361
5.888000	 65.4237
5.906000	 65.3106
5.923999	 65.2884
5.942000	 65.2361
5.960000	 65.206
5.978000	 65.3005
5.996000	 65.3327
6.014000	 65.3241
6.032000	 65.4158
6.050000	 65.516
6.068000	 65.4458
6.086000	 65.3052
6.104000	 65.2866
6.122000	 65.2581
6.140000	 65.1127
6.158000	 65.1321
6.176000	 65.2203
6.194000	 65.1912
6.212000	 65.1825
6.230000	 65.1493
6.248000	 65.0391
6.266000	 65.0203
6.284000	 65.0713
6.302000	 65.141
6.320000	 65.2316
6.338000	 65.3222
6.356000	 65.2438
6.374000	 65.136
6.392000	 65.2247
6.410000	 65.3662
6.428000	 65.3156
6.446000	 65.2205
6.464000	 65.2407
6.482000	 65.2642
6.500000	 65.1771
6.518000	 65.0893
6.536000	 65.1282
6.554000	 65.1941
6.572000	 65.1612
6.590000	 65.1098
6.608000	 65.1554
6.626000	 65.3061
6.644000	 65.4044
6.662000	 65.3542
6.680000	 65.2553
6.698000	 65.2341
6.716000	 65.2714
6.734000	 65.1912
6.752000	 65.094
6.770000	 65.1087
6.788000	 65.1184
6.806000	 65.0555
6.824000	 65.03
6.842000	 65.1651
6.860000	 65.3393
6.878000	 65.3454
6.896000	 65.2525
6.914000	 65.1852
6.932000	 65.188
6.950000	 65.29
6.968000	 65.3469
6.986000	 65.233
7.004000	 65.0749
7.022000	 65.0644
7.040000	 65.17
7.058000	 65.2148
7.076000	 65.1561
7.094000	 65.0566
7.112000	 64.9984
7.130000	 65.0107
7.148000	 65.0215
7.166000	 65.0353
7.184000	 65.1123
7.202000	 65.1804
7.220000	 65.1595
7.238000	 65.11
7.256000	 65.1109
7.274000	 65.1208
7.292000	 65.0681
7.310000	 64.9849
7.328000	 64.9543
7.346000	 64.9859
7.364000	 65.0292
7.382000	 65.0631
7.400000	 65.0963
7.418000	 65.113
7.436000	 65.0796
7.454000	 65.0066
7.472000	 64.9512
7.490000	 64.9478
7.508000	 64.9814
7.526000	 65.0212
7.544000	 65.0484
7.562000	 65.0718
7.580000	 65.0892
7.598000	 65.0592
7.616000	 64.9833
7.634000	 64.9288
7.652000	 64.9239
7.670000	 64.9385
7.688000	 64.9566
7.706000	 64.9736
7.724000	 64.9855
7.742000	 65.0036
7.760000	 65.0265
7.778000	 65.0155
7.796000	 64.9514
7.814000	 64.8777
7.832000	 64.8428
7.850000	 64.8432
7.868000	 64.8626
7.886000	 64.9085
7.904000	 64.9652
7.922000	 64.9855
7.940000	 64.9634
7.958000	 64.9405
7.976000	 64.9418
7.994000	 64.9559
8.012000	 64.9702
8.030000	 64.9814
8.048000	 64.9823
8.065999	 64.9673
8.084000	 64.9508
8.102000	 64.9633
8.120000	 65.0157
8.138000	 65.0834
8.155999	 65.1333
8.173999	 65.1418
8.192000	 65.0976
8.210000	 65.0173
8.228000	 64.9534
8.246000	 64.9459
8.263999	 64.9805
8.282000	 65.0174
8.300000	 65.0431
8.318000	 65.0625
8.336000	 65.0666
8.353999	 65.0414
8.372000	 64.994
8.390000	 64.9479
8.408000	 64.9215
8.426000	 64.921
8.443999	 64.9389
8.462000	 64.9557
8.480000	 64.956
8.498000	 64.9432
8.516000	 64.932
8.533999	 64.9292
8.552000	 64.9354
8.570000	 64.9522
8.588000	 64.9747
8.606000	 64.9874
8.624000	 64.9753
8.641999	 64.9381
8.660000	 64.8967
8.678000	 64.8784
8.696000	 64.8924
8.714000	 64.9198
8.731999	 64.9346
8.750000	 64.9281
8.768000	 64.9082
8.786000	 64.8809
8.804000	 64.8427
8.821999	 64.7951
8.840000	 64.7529
8.858000	 64.7296
8.876000	 64.7225
8.894000	 64.7259
8.911999	 64.7482
8.930000	 64.7928
8.948000	 64.835
8.966000	 64.8374
8.984000	 64.7941
9.001999	 64.7449
9.020000	 64.7367
9.038000	 64.775
9.056000	 64.8152
9.074000	 64.8063
9.092000	 64.7397
9.109999	 64.6571
9.128000	 64.6131
9.146000	 64.6285
9.164000	 64.6798
9.182000	 64.7294
9.199999	 64.7575
9.218000	 64.7646
9.236000	 64.7531
9.254000	 64.7184
9.272000	 64.6606
9.289999	 64.5988
9.308000	 64.5632
9.326000	 64.5718
9.344000	 64.6166
9.362000	 64.6721
9.379999	 64.7163
9.398000	 64.7452
9.416000	 64.7698
9.434000	 64.7994
9.452000	 64.8302
9.469999	 64.8482
9.488000	 64.8444
9.506000	 64.8252
9.524000	 64.8077
9.542000	 64.8038
9.560000	 64.8097
9.577999	 64.8126
9.596000	 64.804
9.614000	 64.7808
9.632000	 64.7416
9.650000	 64.6899
9.667999	 64.6383
9.686000	 64.6059
9.704000	 64.6042
9.722000	 64.6285
9.740000	 64.6624
9.757999	 64.6918
9.776000	 64.7105
9.794000	 64.715
9.812000	 64.7006
9.830000	 64.671
9.847999	 64.6495
9.866000	 64.669
9.884000	 64.745
9.902000	 64.856
9.920000	 64.9525
9.937999	 64.992
9.956000	 64.9689
9.974000	 64.9119
9.992000	 64.8572
10.01	64.8219
10.028	64.8007
10.046	64.7808
10.064	64.7592
10.082	64.7431
10.1	64.7427
10.118	64.7602
10.136	64.7865
10.154	64.807
10.172	64.8077
10.19	64.7814
10.208	64.7297
10.226	64.6615
10.244	64.5898
10.262	64.5279
10.28	64.4844
10.298	64.4632
10.316	64.4647
10.334	64.4871
10.352	64.526
10.37	64.5727
10.388	64.6142
10.406	64.6375
10.424	64.6345
10.442	64.6075
10.46	64.5664
10.478	64.5248
10.496	64.4935
10.514	64.4783
10.532	64.4805
10.55	64.4984
10.568	64.5285
10.586	64.5648
10.604	64.599
10.622	64.623
10.64	64.6315
10.658	64.6239
10.676	64.6031
10.694	64.5731
10.712	64.5375
10.73	64.501
10.748	64.4699
10.766	64.4504
10.784	64.4457
10.802	64.4536
10.82	64.4673
10.838	64.4792
10.856	64.4854
10.874	64.487
10.892	64.4887
10.91	64.4944
10.928	64.5033
10.946	64.51
10.964	64.508
10.982	64.4926
11	64.4643
11.018	64.4278
11.036	64.3893
11.054	64.3549
11.072	64.3283
11.09	64.312
11.108	64.3076
11.126	64.3166
11.144	64.3393
11.162	64.373
11.18	64.4115
11.198	64.4452
11.216	64.4644
11.234	64.4623
11.252	64.4386
11.27	64.4005
11.288	64.3621
11.306	64.3378
11.324	64.3373
11.342	64.3609
11.36	64.3996
11.378	64.4385
11.396	64.4652
11.414	64.4734
11.432	64.4664
11.45	64.4534
11.468	64.4453
11.486	64.448
11.504	64.4608
11.522	64.4774
11.54	64.4906
11.558	64.4956
11.576	64.4924
11.594	64.4856
11.612	64.4816
11.63	64.4869
11.648	64.5057
11.666	64.5387
11.684	64.5821
11.702	64.6289
11.72	64.6693
11.738	64.6924
11.756	64.69
11.774	64.6587
11.792	64.6009
11.81	64.5249
11.828	64.4422
11.846	64.3645
11.864	64.2993
11.882	64.2478
11.9	64.2067
11.918	64.1693
11.936	64.1296
11.954	64.0855
11.972	64.0388
11.99	63.9946
12.008	63.9586
12.026	63.9352
12.044	63.9254
12.062	63.9277
12.08	63.9398
12.098	63.9603
12.116	63.9898
12.134	64.0309
12.152	64.0855
12.17	64.153
12.188	64.2286
12.206	64.3029
12.224	64.364
12.242	64.4001
12.26	64.4041
12.278	64.3743
12.296	64.3154
12.314	64.2374
12.332	64.1529
12.35	64.0737
12.368	64.0086
12.386	63.9628
12.404	63.9361
12.422	63.9251
12.44	63.9241
12.458	63.9279
12.476	63.9329
12.494	63.9381
12.512	63.9444
12.53	63.9536
12.548	63.9673
12.566	63.9856
12.584	64.0084
12.602	64.0345
12.62	64.063
12.638	64.0928
12.656	64.1225
12.674	64.1503
12.692	64.1738
12.71	64.1908
12.728	64.1996
12.746	64.1996
12.764	64.1919
12.782	64.1786
12.8	64.163
12.818	64.148
12.836	64.1354
12.854	64.1249
12.872	64.1153
12.89	64.1043
12.908	64.0896
12.926	64.0696
12.944	64.0443
12.962	64.0152
12.98	63.985
12.998	63.9564
13.016	63.9319
13.034	63.9137
13.052	63.903
13.07	63.9003
13.088	63.9046
13.106	63.9146
13.124	63.9281
13.142	63.9432
13.16	63.9582
13.178	63.9722
13.196	63.9851
13.214	63.9975
13.232	64.0105
13.25	64.0244
13.268	64.0394
13.286	64.0544
13.304	64.0675
13.322	64.076
13.34	64.0769
13.358	64.0666
13.376	64.042
13.394	64.0002
13.412	63.9398
13.43	63.8608
13.448	63.7649
13.466	63.6561
13.484	63.5402
13.502	63.4252
13.52	63.3198
13.538	63.2324
13.556	63.1704
13.574	63.1386
13.592	63.1385
13.61	63.1674
13.628	63.2199
13.646	63.2878
13.664	63.3623
13.682	63.4345
13.7	63.4973
13.718	63.5455
13.736	63.5773
13.754	63.5929
13.772	63.5948
13.79	63.5869
13.808	63.5732
13.826	63.5575
13.844	63.5427
13.862	63.5301
13.88	63.5199
13.898	63.5113
13.916	63.5031
13.934	63.4944
13.952	63.4846
13.97	63.4738
13.988	63.4625
14.006	63.4512
14.024	63.4399
14.042	63.4279
14.06	63.4137
14.078	63.3949
14.096	63.3693
14.114	63.335
14.132	63.2915
14.15	63.2403
14.168	63.1842
14.186	63.1283
14.204	63.0782
14.222	63.0401
14.24	63.0187
14.258	63.0168
14.276	63.0345
14.294	63.0691
14.312	63.1158
14.33	63.1683
14.348	63.2193
14.366	63.2622
14.384	63.2914
14.402	63.3038
14.42	63.2983
14.438	63.2761
14.456	63.2399
14.474	63.1936
14.492	63.1413
14.51	63.0872
14.528	63.035
14.546	62.9866
14.564	62.9429
14.582	62.9037
14.6	62.8682
14.618	62.8349
14.636	62.8024
14.654	62.7697
14.672	62.7363
14.69	62.7026
14.708	62.6696
14.726	62.6385
14.744	62.6113
14.762	62.5898
14.78	62.5756
14.798	62.5704
14.816	62.5752
14.834	62.5907
14.852	62.6168
14.87	62.6529
14.888	62.6975
14.906	62.7487
14.924	62.8041
14.942	62.8601
14.96	62.9135
14.978	62.9614
14.996	63.0014
15.014	63.0315
15.032	63.0511
15.05	63.0612
15.068	63.0635
15.086	63.061
15.104	63.0566
15.122	63.0544
15.14	63.0568
15.158	63.0655
15.176	63.081
15.194	63.1029
15.212	63.1295
15.23	63.1584
15.248	63.1875
15.266	63.2144
15.284	63.238
15.302	63.2581
15.32	63.2754
15.338	63.2911
15.356	63.3067
15.374	63.3239
15.392	63.3428
15.41	63.3632
15.428	63.3836
15.446	63.4011
15.464	63.4122
15.482	63.4141
15.5	63.4038
15.518	63.3796
15.536	63.3422
15.554	63.2933
15.572	63.2362
15.59	63.1763
15.608	63.1185
15.626	63.0673
15.644	63.027
15.662	62.9998
15.68	62.9856
15.698	62.9834
15.716	62.9903
15.734	63.0018
15.752	63.0144
15.77	63.0243
15.788	63.0283
15.806	63.0258
15.824	63.0172
15.842	63.004
15.86	62.9899
15.878	62.9779
15.896	62.9709
15.914	62.9721
15.932	62.9822
15.95	63.0011
15.968	63.0274
15.986	63.0571
16.004	63.0867
16.022	63.1121
16.04	63.1281
16.058	63.1315
16.076	63.12
16.094	63.092
16.112	63.0482
16.13	62.9899
16.148	62.9195
16.166	62.8416
16.184	62.7596
16.202	62.6775
16.22	62.6003
16.238	62.5307
16.256	62.4712
16.274	62.4242
16.292	62.3903
16.31	62.3701
16.328	62.363
16.346	62.3675
16.364	62.3823
16.382	62.4043
16.4	62.4311
16.418	62.4606
16.436	62.4894
16.454	62.5154
16.472	62.5372
16.49	62.553
16.508	62.5626
16.526	62.5661
16.544	62.5647
16.562	62.5604
16.58	62.5546
16.598	62.5505
16.616	62.5497
16.634	62.5537
16.652	62.5641
16.67	62.5808
16.688	62.6037
16.706	62.6314
16.724	62.6624
16.742	62.6948
16.76	62.726
16.778	62.7549
16.796	62.7789
16.814	62.7972
16.832	62.8091
16.85	62.8135
16.868	62.8112
16.886	62.8024
16.904	62.7873
16.922	62.7661
16.94	62.7387
16.958	62.7042
16.976	62.6619
16.994	62.6105
17.012	62.5487
17.03	62.4759
17.048	62.3913
17.066	62.2955
17.084	62.1891
17.102	62.0756
17.12	61.9567
17.138	61.8381
17.156	61.7241
17.174	61.6187
17.192	61.5296
17.21	61.4589
17.228	61.4126
17.246	61.3924
17.264	61.4005
17.282	61.4368
17.3	61.5
17.318	61.5875
17.336	61.6941
17.354	61.817
17.372	61.9468
17.39	62.08
17.408	62.2084
17.426	62.326
17.444	62.4284
17.462	62.5094
17.48	62.5679
17.498	62.6005
17.516	62.6091
17.534	62.5939
17.552	62.5602
17.57	62.5097
17.588	62.4503
17.606	62.386
17.624	62.3237
17.642	62.2695
17.66	62.2264
17.678	62.201
17.696	62.1938
17.714	62.2072
17.732	62.2395
17.75	62.2907
17.768	62.3551
17.786	62.4312
17.804	62.5106
17.822	62.5914
17.84	62.6651
17.858	62.7287
17.876	62.7771
17.894	62.8074
17.912	62.8177
17.93	62.8073
17.948	62.7767
17.966	62.729
17.984	62.6666
18.002	62.5944
18.02	62.5173
18.038	62.4393
18.056	62.3669
18.074	62.3021
18.092	62.2507
18.11	62.2134
18.128	62.1925
18.146	62.1876
18.164	62.198
18.182	62.2216
18.2	62.2561
18.218	62.2972
18.236	62.343
18.254	62.3874
18.272	62.4292
18.29	62.4631
18.308	62.4886
18.326	62.5023
18.344	62.5041
18.362	62.4927
18.38	62.4687
18.398	62.4329
18.416	62.3863
18.434	62.33
18.452	62.2659
18.47	62.1953
18.488	62.1207
18.506	62.0429
18.524	61.9647
18.542	61.8865
18.56	61.8109
18.578	61.7381
18.596	61.6702
18.614	61.6072
18.632	61.5515
18.65	61.503
18.668	61.4632
18.686	61.4317
18.704	61.4096
18.722	61.3962
18.74	61.3908
18.758	61.3924
18.776	61.3988
18.794	61.4088
18.812	61.4188
18.83	61.4273
18.848	61.4302
18.866	61.4262
18.884	61.4117
18.902	61.3858
18.92	61.3457
18.938	61.2922
18.956	61.2243
18.974	61.1438
18.992	61.052
19.01	60.9516
19.028	60.8457
19.046	60.7374
19.064	60.6314
19.082	60.5301
19.1	60.4386
19.118	60.3585
19.136	60.2946
19.154	60.2471
19.172	60.2193
19.19	60.2104
19.208	60.2213
19.226	60.2511
19.244	60.2982
19.262	60.3616
19.28	60.4372
19.298	60.5246
19.316	60.6184
19.334	60.7187
19.352	60.8191
19.37	60.9199
19.388	61.0153
19.406	61.1058
19.424	61.1862
19.442	61.2567
19.46	61.3131
19.478	61.3553
19.496	61.3808
19.514	61.3888
19.532	61.3786
19.55	61.3489
19.568	61.3006
19.586	61.2334
19.604	61.1485
19.622	61.0472
19.64	60.9305
19.658	60.8027
19.676	60.664
19.694	60.5215
19.712	60.3745
19.73	60.232
19.748	60.0933
19.766	59.9666
19.784	59.853
19.802	59.7574
19.82	59.6832
19.838	59.6314
19.856	59.6057
19.874	59.605
19.892	59.6309
19.91	59.6827
19.928	59.7578
19.946	59.8569
19.964	59.9735
19.982	60.1082
20	60.2543
20.018	60.4089
20.036	60.5688
20.054	60.727
20.072	60.8838
20.09	61.0311
20.108	61.17
20.126	61.2944
20.144	61.404
20.162	61.4965
20.18	61.5704
20.198	61.6262
20.216	61.6629
20.234	61.6812
20.252	61.6831
20.27	61.6681
20.288	61.6399
20.306	61.5984
20.324	61.5469
20.342	61.4874
20.36	61.4211
20.378	61.3524
20.396	61.2806
20.414	61.2107
20.432	61.142
20.45	61.078
20.468	61.0203
20.486	60.9693
20.504	60.9277
20.522	60.895
20.54	60.8733
20.558	60.8627
20.576	60.8634
20.594	60.8758
20.612	60.8993
20.63	60.9336
20.648	60.9786
20.666	61.0319
20.684	61.0939
20.702	61.1624
20.72	61.2364
20.738	61.3153
20.756	61.3951
20.774	61.4768
20.792	61.5562
20.81	61.6332
20.828	61.7054
20.846	61.7692
20.864	61.8255
20.882	61.8692
20.9	61.901
20.918	61.918
20.936	61.9179
20.954	61.9013
20.972	61.8653
20.99	61.8104
21.008	61.7362
21.026	61.642
21.044	61.5287
21.062	61.3977
21.08	61.2482
21.098	61.0846
21.116	60.9067
21.134	60.7171
21.152	60.5211
21.17	60.3168
21.188	60.112
21.206	59.907
21.224	59.7046
21.242	59.5113
21.26	59.325
21.278	59.1517
21.296	58.9925
21.314	58.8479
21.332	58.7213
21.35	58.6118
21.368	58.5197
21.386	58.4459
21.404	58.389
21.422	58.3473
21.44	58.3218
21.458	58.3081
21.476	58.3049
21.494	58.3118
21.512	58.323
21.53	58.3401
21.548	58.3594
21.566	58.3778
21.584	58.3964
21.602	58.4116
21.62	58.4234
21.638	58.4314
21.656	58.434
21.674	58.4318
21.692	58.425
21.71	58.4134
21.728	58.3975
21.746	58.3778
21.764	58.354
21.782	58.3271
21.8	58.2979
21.818	58.266
21.836	58.2318
21.854	58.1955
21.872	58.157
21.89	58.1166
21.908	58.0743
21.926	58.0298
21.944	57.9826
21.962	57.9328
21.98	57.8807
21.998	57.8259
22.016	57.7692
22.034	57.7117
22.052	57.6527
22.07	57.5943
22.088	57.5379
22.106	57.4827
22.124	57.4324
22.142	57.3872
22.16	57.3475
22.178	57.317
22.196	57.2947
22.214	57.2821
22.232	57.2815
22.25	57.2924
22.268	57.3146
22.286	57.349
22.304	57.3952
22.322	57.4505
22.34	57.5156
22.358	57.5891
22.376	57.6658
22.394	57.7477
22.412	57.831
22.43	57.9099
22.448	57.9873
22.466	58.0581
22.484	58.1179
22.502	58.1691
22.52	58.2072
22.538	58.2301
22.556	58.2391
22.574	58.2324
22.592	58.209
22.61	58.1699
22.628	58.1168
22.646	58.0483
22.664	57.9668
22.682	57.8764
22.7	57.7747
22.718	57.6659
22.736	57.5551
22.754	57.4394
22.772	57.3238
22.79	57.2128
22.808	57.1035
22.826	57.0008
22.844	56.908
22.862	56.823
22.88	56.7485
22.898	56.6859
22.916	56.6342
22.934	56.5941
22.952	56.5659
22.97	56.5494
22.988	56.5438
23.006	56.5494
23.024	56.5658
23.042	56.5915
23.06	56.6268
23.078	56.6714
23.096	56.7233
23.114	56.7825
23.132	56.849
23.15	56.9216
23.168	57.0005
23.186	57.0853
23.204	57.174
23.222	57.2666
23.24	57.3631
23.258	57.4629
23.276	57.5656
23.294	57.6717
23.312	57.7819
23.33	57.8961
23.348	58.0144
23.366	58.1378
23.384	58.2669
23.402	58.4008
23.42	58.5387
23.438	58.6807
23.456	58.8266
23.474	58.9752
23.492	59.1268
23.51	59.2811
23.528	59.437
23.546	59.5943
23.564	59.7532
23.582	59.9123
23.6	60.071
23.618	60.2298
23.636	60.3875
23.654	60.5435
23.672	60.6985
23.69	60.8505
23.708	60.9985
23.726	61.1435
23.744	61.2835
23.762	61.4168
23.78	61.5452
23.798	61.6658
23.816	61.7752
23.834	61.8758
23.852	61.9648
23.87	62.0376
23.888	62.0962
23.906	62.139
23.924	62.1613
23.942	62.1631
23.96	62.145
23.978	62.1034
23.996	62.037
24.014	61.9472
24.032	61.8324
24.05	61.6914
24.068	61.5243
24.086	61.3333
24.104	61.1197
24.122	60.8816
24.14	60.6222
24.158	60.3455
24.176	60.0482
24.194	59.7337
24.212	59.4106
24.23	59.0782
24.248	58.7352
24.266	58.3933
24.284	58.0576
24.302	57.7213
24.32	57.3967
24.338	57.0953
24.356	56.8069
24.374	56.5423
24.392	56.3179
24.41	56.1305
24.428	55.9797
24.446	55.8779
24.464	55.8295
24.482	55.8284
24.5	55.8836
24.518	56.0038
24.536	56.1873
24.554	56.4292
24.572	56.7251
24.59	57.0827
24.608	57.4948
24.626	57.9427
24.644	58.4227
24.662	58.9462
24.68	59.4823
24.698	60.0042
24.716	60.5372
24.734	61.0565
24.752	61.5199
24.77	61.9298
24.788	62.2952
24.806	62.5775
24.824	62.7506
24.842	62.8379
24.86	62.8211
24.878	62.6756
24.896	62.402
24.914	62.0076
24.932	61.4892
24.95	60.8402
24.968	60.0586
24.986	59.1659
25.004	58.1827
25.022	57.0883
25.04	55.9003
25.058	54.6592
25.076	53.3773
25.094	52.0292
25.112	50.6608
25.13	49.3176
25.148	47.9722
25.166	46.6384
25.184	45.3606
25.202	44.1593
25.22	43.008
25.238	41.9322
25.256	40.9591
25.274	40.0816
25.292	39.2965
25.31	38.614
25.328	38.0427
25.346	37.579
25.364	37.2152
25.382	36.9438
25.4	36.7734
25.418	36.6991
25.436	36.6994
25.454	36.7599
25.472	36.8993
25.49	37.0982
25.508	37.3298
25.526	37.5918
25.544	37.8965
25.562	38.2179
25.58	38.5315
25.598	38.8508
25.616	39.172
25.634	39.4766
25.652	39.7532
25.67	40.0136
25.688	40.2509
25.706	40.4558
25.724	40.6249
25.742	40.763
25.76	40.872
25.778	40.9535
25.796	41.0012
25.814	41.0216
25.832	41.026
25.85	41.0203
25.868	40.9929
25.886	40.9576
25.904	40.931
25.922	40.915
25.94	40.9004
25.958	40.9026
25.976	40.9373
25.994	40.9994
26.012	41.0868
26.03	41.2098
26.048	41.3775
26.066	41.5854
26.084	41.8326
26.102	42.1215
26.12	42.4552
26.138	42.8349
26.156	43.254
26.174	43.705
26.192	44.1889
26.21	44.7119
26.228	45.2587
26.246	45.8136
26.264	46.3809
26.282	46.966
26.3	47.5493
26.318	48.112
26.336	48.6637
26.354	49.2051
26.372	49.7191
26.39	50.1901
26.408	50.6282
26.426	51.032
26.444	51.3913
26.462	51.6971
26.48	51.9543
26.498	52.1641
26.516	52.3256
26.534	52.437
26.552	52.4953
26.57	52.507
26.588	52.4804
26.606	52.4186
26.624	52.3108
26.642	52.1701
26.66	52.0128
26.678	51.8462
26.696	51.6557
26.714	51.4546
26.732	51.2591
26.75	51.0764
26.768	50.8926
26.786	50.7193
26.804	50.5701
26.822	50.4531
26.84	50.3592
26.858	50.2899
26.876	50.2478
26.894	50.2366
26.912	50.2574
26.93	50.3021
26.948	50.3619
26.966	50.4381
26.984	50.5463
27.002	50.6605
27.02	50.7519
27.028	50.7752