File: Bakgrunnsmateriale/MATLAB/FTIR/ftir_data/subBb/Mapping_121/C-4040-8_t80_cm-1.asc
PE IR       SPECTRUM    SPECTRUM    ASCII       PEDS        1.60
  -1
C-9D61~1.ASC
17/03/27
21:03:25.00
17/03/27
21:03:25.00
tln
$C-4040-8_t0080$<tbV0>[7.8,5.2,8.0,0.0,27,1,0]
370
64

2002,4.07
MIRTGS : RIGHTBACK : INTERNAL 2
MIR : ON : INTERNAL 2
OPTKBR

0.200000
8
8.000000
FILLER
RATIO
SPECTRUM
UNLOCKED 256

DOUBLE
64
COMBINED
1
0
0

1.000000
RATIO

1
0
TRUE
51149
0
LEFT NOT FITTED RIGHT NOT FITTED 0
NONE
NONE
15600
12
4.427000
51148
TRUE
1 0 8 72 0 0 0 0

15798

#HDR
-1
-1
#GR
CM-1
%T
2.38419e-05
0.0
5000
-1.000000
4631
8
109.902
40.2559
#DATA
5000	64.8612
4996	65.0259
4992	64.7109
4988	64.243
4984	64.4536
4980	64.8798
4976	64.8552
4972	64.5753
4968	64.3098
4964	64.1519
4960	64.2717
4956	64.8163
4952	65.2054
4948	64.9124
4944	64.6749
4940	64.7251
4936	64.483
4932	64.3837
4928	64.6858
4924	64.8894
4920	65.065
4916	65.2078
4912	65.2091
4908	65.0862
4904	64.9272
4900	64.9908
4896	64.8874
4892	64.6913
4888	65.0456
4884	65.7154
4880	66.1193
4876	65.9496
4872	65.4035
4868	65.0366
4864	65.0631
4860	65.1382
4856	64.9751
4852	64.8022
4848	64.868
4844	64.885
4840	64.7502
4836	64.9274
4832	65.1904
4828	65.0765
4824	65.0062
4820	65.2385
4816	65.2879
4812	65.0445
4808	65.008
4804	65.1493
4800	65.0779
4796	64.908
4792	64.9097
4788	64.9446
4784	64.8989
4780	64.967
4776	65.0424
4772	65.0132
4768	65.0244
4764	65.0152
4760	64.9661
4756	64.9321
4752	64.9628
4748	65.1665
4744	65.3653
4740	65.2549
4736	64.9985
4732	65.0665
4728	65.3105
4724	65.2406
4720	65.0409
4716	65.0935
4712	65.3327
4708	65.4004
4704	65.0621
4700	64.738
4696	64.9314
4692	65.3067
4688	65.2629
4684	64.9243
4680	64.8873
4676	65.0874
4672	65.1062
4668	64.9981
4664	64.9761
4660	65.1161
4656	65.2173
4652	65.2417
4648	65.1303
4644	64.8413
4640	64.7399
4636	64.8962
4632	65.104
4628	65.0769
4624	64.849
4620	64.7381
4616	64.7986
4612	64.9327
4608	64.8767
4604	64.691
4600	64.6272
4596	64.6709
4592	64.8631
4588	64.9956
4584	64.8616
4580	64.8186
4576	65.023
4572	65.1189
4568	64.9837
4564	64.8346
4560	64.9433
4556	65.2365
4552	65.5483
4548	65.5462
4544	64.9789
4540	64.7644
4536	65.0876
4532	65.389
4528	65.8033
4524	65.7408
4520	65.2143
4516	65.0324
4512	64.9848
4508	64.8408
4504	64.8322
4500	64.9534
4496	65.0009
4492	65.0401
4488	65.0947
4484	65.0211
4480	64.8579
4476	64.8415
4472	65.058
4468	65.2453
4464	65.3152
4460	65.2329
4456	64.988
4452	64.8273
4448	64.9152
4444	65.1342
4440	65.0636
4436	64.7246
4432	64.5823
4428	64.7681
4424	64.8504
4420	64.6141
4416	64.2954
4412	64.2625
4408	64.6767
4404	65.4594
4400	65.7349
4396	65.4432
4392	64.0304
4388	59.5455
4384	60.7888
4380	69.1009
4376	71.9747
4372	70.5513
4368	67.6621
4364	65.612
4360	65.1561
4356	64.7587
4352	64.6838
4348	65.0103
4344	65.6899
4340	66.0517
4336	65.8973
4332	65.6603
4328	65.6278
4324	65.5949
4320	65.3602
4316	65.3566
4312	65.6305
4308	65.6108
4304	65.44
4300	65.5493
4296	65.6437
4292	65.4058
4288	65.0587
4284	64.9411
4280	64.9755
4276	64.781
4272	64.6063
4268	64.8317
4264	65.1932
4260	65.2297
4256	65.0238
4252	64.9135
4248	65.0592
4244	65.3203
4240	65.3481
4236	65.2798
4232	65.2304
4228	65.1743
4224	65.1293
4220	64.9942
4216	64.8886
4212	64.8732
4208	64.9101
4204	64.9974
4200	64.9945
4196	64.8094
4192	64.5477
4188	64.6975
4184	65.2374
4180	65.3746
4176	65.1986
4172	65.0401
4168	64.8859
4164	65.0082
4160	65.1479
4156	64.972
4152	64.9488
4148	65.1458
4144	65.1554
4140	65.0423
4136	64.9453
4132	64.9131
4128	64.9417
4124	64.9676
4120	65.005
4116	65.0143
4112	64.9602
4108	64.9506
4104	64.9778
4100	64.9882
4096	65.0357
4092	65.0359
4088	65.0755
4084	65.1623
4080	65.074
4076	65.0096
4072	65.1087
4068	65.1512
4064	65.0242
4060	64.9155
4056	65.0045
4052	65.0559
4048	64.9805
4044	65.0043
4040	65.1245
4036	65.1685
4032	65.106
4028	65.088
4024	65.1099
4020	65.1166
4016	65.1158
4012	65.0553
4008	65.0001
4004	65.0278
4000	65.0935
3996	65.124
3992	65.1433
3988	65.1528
3984	65.1855
3980	65.2632
3976	65.2788
3972	65.237
3968	65.1603
3964	65.1054
3960	65.1574
3956	65.2204
3952	65.1965
3948	65.1751
3944	65.1884
3940	65.1317
3936	65.0031
3932	64.9613
3928	65.0619
3924	65.108
3920	65.1087
3916	65.2659
3912	65.4457
3908	65.3427
3904	65.1691
3900	65.2652
3896	65.3161
3892	65.2216
3888	65.2688
3884	65.3224
3880	65.2284
3876	65.1305
3872	65.1182
3868	65.1589
3864	65.167
3860	65.0566
3856	64.9095
3852	64.8857
3848	64.9595
3844	65.0323
3840	65.0039
3836	64.9208
3832	64.8865
3828	64.7649
3824	64.6231
3820	64.7661
3816	65.0871
3812	65.2399
3808	65.19
3804	65.0374
3800	64.9148
3796	64.8874
3792	64.958
3788	65.0782
3784	65.0975
3780	65.0389
3776	65.0115
3772	65.0902
3768	65.1993
3764	65.2482
3760	65.3018
3756	65.3389
3752	65.2727
3748	65.162
3744	65.1847
3740	65.2414
3736	65.1577
3732	65.1613
3728	65.2822
3724	65.2716
3720	65.1448
3716	65.0918
3712	65.1736
3708	65.2197
3704	65.1272
3700	65.03
3696	65.0529
3692	65.0764
3688	64.9904
3684	64.9774
3680	65.1163
3676	65.2197
3672	65.2016
3668	65.135
3664	65.1972
3660	65.3514
3656	65.3416
3652	65.2259
3648	65.2045
3644	65.2926
3640	65.3213
3636	65.2469
3632	65.1731
3628	65.1518
3624	65.2106
3620	65.2719
3616	65.2522
3612	65.1797
3608	65.1567
3604	65.2502
3600	65.3503
3596	65.3504
3592	65.3254
3588	65.3324
3584	65.3953
3580	65.4039
3576	65.2656
3572	65.1536
3568	65.1451
3564	65.1808
3560	65.1505
3556	65.0127
3552	65.0202
3548	65.182
3544	65.1757
3540	65.116
3536	65.1943
3532	65.2772
3528	65.3004
3524	65.282
3520	65.2774
3516	65.1933
3512	65.0087
3508	65.0264
3504	65.2401
3500	65.3028
3496	65.2094
3492	65.1993
3488	65.1869
3484	65.2045
3480	65.3249
3476	65.2771
3472	65.1091
3468	65.0944
3464	65.271
3460	65.4079
3456	65.3609
3452	65.2793
3448	65.2018
3444	65.1961
3440	65.3416
3436	65.3667
3432	65.1412
3428	64.9533
3424	64.9673
3420	65.117
3416	65.3134
3412	65.3945
3408	65.2991
3404	65.1947
3400	65.1575
3396	65.172
3392	65.2508
3388	65.2946
3384	65.247
3380	65.2179
3376	65.2735
3372	65.2549
3368	65.1437
3364	65.1668
3360	65.1923
3356	65.0969
3352	65.1579
3348	65.3346
3344	65.3405
3340	65.253
3336	65.2298
3332	65.2058
3328	65.1649
3324	65.2297
3320	65.3734
3316	65.3824
3312	65.2824
3308	65.2328
3304	65.2168
3300	65.1919
3296	65.1637
3292	65.1902
3288	65.252
3284	65.2268
3280	65.1774
3276	65.1911
3272	65.2066
3268	65.2505
3264	65.3143
3260	65.3766
3256	65.3914
3252	65.2617
3248	65.1439
3244	65.1771
3240	65.2455
3236	65.2805
3232	65.3322
3228	65.3687
3224	65.3119
3220	65.1919
3216	65.0992
3212	65.0694
3208	65.0993
3204	65.1641
3200	65.1801
3196	65.1922
3192	65.241
3188	65.2089
3184	65.1769
3180	65.1913
3176	65.1297
3172	65.0579
3168	65.0614
3164	65.126
3160	65.1519
3156	65.1385
3152	65.1777
3148	65.1886
3144	65.18
3140	65.1988
3136	65.313
3132	65.4999
3128	65.4122
3124	65.0831
3120	64.8978
3116	64.967
3112	65.1167
3108	65.1294
3104	65.0135
3100	64.9557
3096	65.1245
3092	65.3495
3088	65.3518
3084	65.23
3080	65.1975
3076	65.2285
3072	65.2141
3068	65.2053
3064	65.1949
3060	65.158
3056	65.1966
3052	65.1841
3048	65.0279
3044	64.9883
3040	65.1052
3036	65.2077
3032	65.3018
3028	65.3333
3024	65.224
3020	65.1308
3016	65.1553
3012	65.175
3008	65.1467
3004	65.1931
3000	65.2943
2996	65.2688
2992	65.1495
2988	65.0792
2984	65.0648
2980	65.0455
2976	64.9794
2972	64.9029
2968	64.8784
2964	64.874
2960	64.8905
2956	64.9657
2952	64.9473
2948	64.8964
2944	65.0418
2940	65.1556
2936	65.1031
2932	65.0595
2928	65.0091
2924	64.9182
2920	64.8415
2916	64.8835
2912	64.9855
2908	65.0361
2904	65.0667
2900	65.0594
2896	65.0528
2892	65.0913
2888	65.0813
2884	65.0145
2880	64.9694
2876	64.9948
2872	65.1034
2868	65.1705
2864	65.1556
2860	65.1509
2856	65.0935
2852	65.0136
2848	65.0493
2844	65.1773
2840	65.2716
2836	65.2801
2832	65.2567
2828	65.2327
2824	65.1893
2820	65.1646
2816	65.2017
2812	65.2449
2808	65.2717
2804	65.2816
2800	65.2379
2796	65.2042
2792	65.2432
2788	65.2585
2784	65.2328
2780	65.2412
2776	65.3062
2772	65.385
2768	65.3527
2764	65.2968
2760	65.354
2756	65.3984
2752	65.368
2748	65.3163
2744	65.2648
2740	65.2411
2736	65.2504
2732	65.2417
2728	65.2384
2724	65.2811
2720	65.2974
2716	65.2892
2712	65.2766
2708	65.2841
2704	65.3514
2700	65.3628
2696	65.2805
2692	65.2176
2688	65.192
2684	65.1458
2680	65.113
2676	65.149
2672	65.1746
2668	65.1636
2664	65.1669
2660	65.22
2656	65.2886
2652	65.2679
2648	65.2188
2644	65.2153
2640	65.2492
2636	65.3093
2632	65.3428
2628	65.3267
2624	65.296
2620	65.2774
2616	65.2648
2612	65.2564
2608	65.2612
2604	65.3039
2600	65.3148
2596	65.262
2592	65.2727
2588	65.3073
2584	65.2789
2580	65.2751
2576	65.2844
2572	65.2517
2568	65.2299
2564	65.2655
2560	65.2804
2556	65.2465
2552	65.2711
2548	65.3197
2544	65.3197
2540	65.3141
2536	65.3317
2532	65.3214
2528	65.2625
2524	65.2061
2520	65.1347
2516	65.1005
2512	65.1922
2508	65.188
2504	65.0401
2500	65.0632
2496	65.2011
2492	65.1994
2488	65.1232
2484	65.1334
2480	65.224
2476	65.3022
2472	65.2922
2468	65.2295
2464	65.247
2460	65.2915
2456	65.2665
2452	65.2753
2448	65.3115
2444	65.3552
2440	65.5164
2436	65.7034
2432	65.6454
2428	65.2282
2424	64.9166
2420	65.1806
2416	65.5942
2412	65.6659
2408	65.4603
2404	65.2572
2400	65.2567
2396	65.333
2392	65.3411
2388	65.288
2384	65.2606
2380	65.3218
2376	65.3532
2372	65.2931
2368	65.2072
2364	65.1639
2360	65.1738
2356	65.1897
2352	65.2153
2348	65.2751
2344	65.3519
2340	65.3804
2336	65.3046
2332	65.2329
2328	65.2341
2324	65.196
2320	65.1652
2316	65.2449
2312	65.3063
2308	65.2726
2304	65.2501
2300	65.2215
2296	65.1876
2292	65.2461
2288	65.3231
2284	65.3566
2280	65.3517
2276	65.3068
2272	65.2935
2268	65.3509
2264	65.4003
2260	65.3796
2256	65.3519
2252	65.3753
2248	65.3994
2244	65.3729
2240	65.3215
2236	65.2552
2232	65.229
2228	65.3231
2224	65.4145
2220	65.4023
2216	65.3702
2212	65.3419
2208	65.3017
2204	65.2532
2200	65.2244
2196	65.2656
2192	65.3408
2188	65.3484
2184	65.2658
2180	65.2079
2176	65.2537
2172	65.32
2168	65.2966
2164	65.3224
2160	65.4387
2156	65.3866
2152	65.239
2148	65.225
2144	65.2494
2140	65.269
2136	65.3551
2132	65.3782
2128	65.2608
2124	65.1713
2120	65.2004
2116	65.2793
2112	65.3823
2108	65.4637
2104	65.4887
2100	65.4797
2096	65.4149
2092	65.4248
2088	65.5235
2084	65.4836
2080	65.4217
2076	65.5719
2072	65.679
2068	65.5039
2064	65.2266
2060	65.0629
2056	65.1545
2052	65.3954
2048	65.5056
2044	65.4657
2040	65.3768
2036	65.2933
2032	65.2909
2028	65.3857
2024	65.4624
2020	65.46
2016	65.4774
2012	65.4715
2008	65.3519
2004	65.2313
2000	65.185
1996	65.1778
1992	65.212
1988	65.2716
1984	65.2672
1980	65.2199
1976	65.2761
1972	65.3875
1968	65.3925
1964	65.3493
1960	65.3749
1956	65.4188
1952	65.3935
1948	65.321
1944	65.2848
1940	65.2539
1936	65.2152
1932	65.2534
1928	65.3071
1924	65.3384
1920	65.4028
1916	65.4276
1912	65.3677
1908	65.3304
1904	65.3411
1900	65.3418
1896	65.3304
1892	65.2917
1888	65.225
1884	65.1941
1880	65.263
1876	65.3771
1872	65.3848
1868	65.3014
1864	65.2893
1860	65.3364
1856	65.3294
1852	65.2849
1848	65.2456
1844	65.221
1840	65.2373
1836	65.2721
1832	65.2844
1828	65.2723
1824	65.2716
1820	65.3286
1816	65.4072
1812	65.4182
1808	65.3491
1804	65.294
1800	65.3312
1796	65.3933
1792	65.3425
1788	65.2718
1784	65.2613
1780	65.2082
1776	65.254
1772	65.388
1768	65.3708
1764	65.2932
1760	65.311
1756	65.3785
1752	65.3596
1748	65.2211
1744	65.1034
1740	65.0887
1736	65.1066
1732	65.0529
1728	65.0225
1724	65.1059
1720	65.1677
1716	65.2042
1712	65.163
1708	65.062
1704	65.1141
1700	65.2004
1696	65.2291
1692	65.2656
1688	65.2649
1684	65.2484
1680	65.2664
1676	65.2946
1672	65.3096
1668	65.3509
1664	65.3896
1660	65.3531
1656	65.2969
1652	65.271
1648	65.253
1644	65.2188
1640	65.1381
1636	65.0442
1632	65.0396
1628	65.0906
1624	65.0805
1620	65.031
1616	65.0047
1612	65.0163
1608	65.0396
1604	65.0873
1600	65.1316
1596	65.1315
1592	65.1459
1588	65.1394
1584	65.0613
1580	65.0236
1576	65.0296
1572	64.9988
1568	64.9875
1564	64.954
1560	64.876
1556	64.8789
1552	64.94
1548	64.9695
1544	64.9992
1540	65.0311
1536	65.0347
1532	65.0575
1528	65.1036
1524	65.0936
1520	65.0475
1516	65.0331
1512	65.0843
1508	65.2131
1504	65.2725
1500	65.1753
1496	65.0143
1492	64.9416
1488	64.9713
1484	65.012
1480	65.0679
1476	65.0711
1472	65.048
1468	65.1055
1464	65.2153
1460	65.3409
1456	65.3712
1452	65.1316
1448	64.8765
1444	64.9579
1440	65.2166
1436	65.2781
1432	65.1239
1428	65.0782
1424	65.1071
1420	65.0409
1416	64.9722
1412	64.973
1408	65.0336
1404	65.0013
1400	64.9086
1396	64.9931
1392	65.1043
1388	65.1099
1384	65.1158
1380	65.1613
1376	65.2564
1372	65.2918
1368	65.2465
1364	65.2737
1360	65.3141
1356	65.1904
1352	64.9896
1348	64.9164
1344	64.9669
1340	65.0432
1336	65.0892
1332	65.099
1328	65.1544
1324	65.1791
1320	65.0537
1316	64.9321
1312	64.9325
1308	64.9552
1304	64.9504
1300	64.9798
1296	65.0289
1292	65.0842
1288	65.1665
1284	65.2124
1280	65.1932
1276	65.1393
1272	65.0878
1268	65.0775
1264	65.0668
1260	65.0352
1256	65.027
1252	65.0005
1248	64.9168
1244	64.8882
1240	64.9673
1236	65.0285
1232	64.9814
1228	64.875
1224	64.8734
1220	64.948
1216	64.967
1212	64.9977
1208	65.0259
1204	65.0104
1200	64.9682
1196	64.9199
1192	64.9044
1188	64.8961
1184	64.9264
1180	65.0183
1176	65.0283
1172	64.9148
1168	64.864
1164	64.9372
1160	64.9302
1156	64.8248
1152	64.7523
1148	64.7272
1144	64.7268
1140	64.7826
1136	64.8834
1132	64.9222
1128	64.9495
1124	64.9713
1120	64.9026
1116	64.7837
1112	64.6682
1108	64.6545
1104	64.8031
1100	64.9098
1096	64.845
1092	64.8061
1088	64.7236
1084	64.572
1080	64.6492
1076	64.8453
1072	64.9
1068	64.8713
1064	64.8459
1060	64.8224
1056	64.799
1052	64.7278
1048	64.7243
1044	64.8254
1040	64.7984
1036	64.671
1032	64.6379
1028	64.6466
1024	64.5574
1020	64.5469
1016	64.6879
1012	64.7592
1008	64.8178
1004	64.9267
1000	64.8618
996	 64.7551
992	 64.8091
988	 64.7535
984	 64.6061
980	 64.6367
976	 64.7017
972	 64.7601
968	 64.8303
964	 64.8016
960	 64.8979
956	 65.0558
952	 64.9687
948	 64.6366
944	 64.4241
940	 64.5303
936	 64.6239
932	 64.5997
928	 64.6095
924	 64.7634
920	 64.7781
916	 64.4375
912	 64.29
908	 64.4338
904	 64.4577
900	 64.4907
896	 64.5516
892	 64.5879
888	 64.7727
884	 64.8732
880	 64.6899
876	 64.5205
872	 64.4981
868	 64.4047
864	 64.3186
860	 64.2758
856	 64.1478
852	 64.1323
848	 64.3699
844	 64.703
840	 64.8011
836	 64.6181
832	 64.459
828	 64.4169
824	 64.3936
820	 64.4693
816	 64.6303
812	 64.6165
808	 64.4222
804	 64.2377
800	 64.1325
796	 64.0471
792	 64.0297
788	 64.0798
784	 64.0588
780	 64.1203
776	 64.2937
772	 64.2235
768	 63.8629
764	 63.7106
760	 63.7837
756	 63.6078
752	 63.4398
748	 63.5471
744	 63.5805
740	 63.4897
736	 63.5074
732	 63.6572
728	 63.863
724	 63.9702
720	 63.904
716	 63.7402
712	 63.4642
708	 63.2425
704	 63.4651
700	 63.8642
696	 63.8645
692	 63.7103
688	 63.5261
684	 63.2529
680	 63.2105
676	 63.265
672	 63.2711
668	 63.0797
664	 62.7373
660	 62.73
656	 62.8891
652	 62.9677
648	 63.0119
644	 62.8584
640	 62.4925
636	 62.28
632	 62.4286
628	 62.4986
624	 62.3653
620	 62.3891
616	 62.5253
612	 62.5995
608	 62.695
604	 62.9603
600	 63.0966
596	 62.7715
592	 62.4754
588	 62.6642
584	 62.8104
580	 62.4627
576	 62.1104
572	 62.229
568	 62.3587
564	 62.0964
560	 61.7241
556	 61.5656
552	 61.624
548	 61.566
544	 61.4848
540	 61.5002
536	 61.4687
532	 61.4054
528	 61.1796
524	 60.8524
520	 60.8113
516	 61.2034
512	 61.5775
508	 61.7594
504	 61.7388
500	 61.2675
496	 60.7465
492	 60.5921
488	 60.4846
484	 60.4236
480	 60.8057
476	 60.9631
472	 60.3101
468	 59.6047
464	 59.6154
460	 60.5254
456	 61.0941
452	 60.5307
448	 60.3623
444	 60.4552
440	 59.5515
436	 58.2891
432	 57.962
428	 57.4785
424	 56.0259
420	 57.0167
416	 59.1485
412	 55.6942
408	 49.9524
404	 53.2475
400	 59.4763
396	 50.0006
392	 40.2559
388	 48.2868
384	 59.1873
380	 67.0132
376	 77.3322
372	 97.879
370	 109.902