File: Bakgrunnsmateriale/MATLAB/FTIR/ftir_data/subBb/Mapping_121/C-4040-8_e127_cm-1.asc
PE IR       SPECTRUM    SPECTRUM    ASCII       PEDS        1.60
  -1
C-3CCF~1.ASC
17/03/27
23:34:24.00
17/03/27
23:34:24.00
tln
$C-4040-8_e0127$<ebV0>[-23.3,12.1,10.0,0.0,27,1,0]
370
64

2002,4.07
MIRTGS : RIGHTBACK : INTERNAL 2
MIR : ON : INTERNAL 2
OPTKBR

0.200000
8
8.000000
FILLER
SINGLE
SPECTRUM
UNLOCKED 256

DOUBLE

COMBINED
1
0
0

1.000000
BACKG

1
0
TRUE
51149
0
LEFT NOT FITTED RIGHT NOT FITTED 0
NONE
NONE
15600
12
4.427000
51148
TRUE
1 0 8 72 0 0 0 0

15798

#HDR
-1
-1
#GR
CM-1
EGY
2.38419e-05
0.0
5000
-1.000000
4631
8
2.459764
0.008606
#DATA
5000	0.766658
4996	0.769186
4992	0.771403
4988	0.771093
4984	0.769519
4980	0.771141
4976	0.775241
4972	0.778079
4968	0.779771
4964	0.781464
4960	0.784039
4956	0.786280
4952	0.787901
4948	0.790429
4944	0.792050
4940	0.791049
4936	0.789499
4932	0.789403
4928	0.791001
4924	0.793623
4920	0.795507
4916	0.796151
4912	0.797796
4908	0.800871
4904	0.802588
4900	0.799989
4896	0.798678
4892	0.803518
4888	0.810098
4884	0.815939
4880	0.819325
4876	0.820875
4872	0.822806
4868	0.823068
4864	0.821876
4860	0.822639
4856	0.825667
4852	0.828599
4848	0.831031
4844	0.833678
4840	0.836920
4836	0.841212
4832	0.846219
4828	0.849008
4824	0.849843
4820	0.852465
4816	0.855183
4812	0.856184
4808	0.857543
4804	0.860047
4800	0.863313
4796	0.866556
4792	0.868701
4788	0.871014
4784	0.874066
4780	0.876259
4776	0.878238
4772	0.881171
4768	0.883984
4764	0.886511
4760	0.889110
4756	0.891399
4752	0.892376
4748	0.891900
4744	0.891256
4740	0.891661
4736	0.893926
4732	0.897741
4728	0.900149
4724	0.900435
4720	0.899934
4716	0.899434
4712	0.900506
4708	0.901985
4704	0.902557
4700	0.902819
4696	0.904560
4692	0.907230
4688	0.908565
4684	0.908589
4680	0.908422
4676	0.909280
4672	0.909852
4668	0.908899
4664	0.907993
4660	0.908350
4656	0.910806
4652	0.913000
4648	0.913023
4644	0.913095
4640	0.915050
4636	0.917768
4632	0.919580
4628	0.921130
4624	0.922441
4620	0.925087
4616	0.928544
4612	0.929427
4608	0.928640
4604	0.929450
4600	0.933289
4596	0.937843
4592	0.940465
4588	0.941801
4584	0.942230
4580	0.942468
4576	0.944232
4572	0.948047
4568	0.952863
4564	0.955271
4560	0.955820
4556	0.957560
4552	0.959968
4548	0.960946
4544	0.962829
4540	0.969386
4536	0.977468
4532	0.982069
4528	0.982022
4524	0.982713
4520	0.985670
4516	0.986409
4512	0.986409
4508	0.987863
4504	0.990462
4500	0.993251
4496	0.992488
4492	0.990152
4488	0.992560
4484	0.996398
4480	0.995445
4476	0.994253
4472	0.996565
4468	0.996375
4464	0.993108
4460	0.990581
4456	0.990200
4452	0.992417
4448	0.994300
4444	0.993847
4440	0.991940
4436	0.986456
4432	0.981211
4428	0.979804
4424	0.980091
4420	0.976395
4416	0.972604
4412	0.969600
4408	0.971674
4404	0.996160
4400	1.066374
4396	1.184415
4392	1.212453
4388	1.136112
4384	1.084709
4380	1.047515
4376	1.022458
4372	1.021027
4368	1.023316
4364	1.030063
4360	1.041078
4356	1.050710
4352	1.054716
4348	1.056146
4344	1.058769
4340	1.063585
4336	1.067757
4332	1.071000
4328	1.076221
4324	1.082015
4320	1.085495
4316	1.088833
4312	1.094198
4308	1.099753
4304	1.104354
4300	1.109075
4296	1.114201
4292	1.119256
4288	1.122474
4284	1.124906
4280	1.129508
4276	1.134800
4272	1.140499
4268	1.146554
4264	1.149058
4260	1.150035
4256	1.154088
4252	1.158070
4248	1.159858
4244	1.162505
4240	1.166939
4236	1.170945
4232	1.172780
4228	1.172614
4224	1.173329
4220	1.175522
4216	1.176857
4212	1.178002
4208	1.181316
4204	1.185631
4200	1.187348
4196	1.187992
4192	1.193809
4188	1.203870
4184	1.205778
4180	1.198840
4176	1.197743
4172	1.205325
4168	1.212906
4164	1.215505
4160	1.214742
4156	1.215267
4152	1.217770
4148	1.220059
4144	1.222610
4140	1.226353
4136	1.229047
4132	1.229906
4128	1.230740
4124	1.233386
4120	1.239371
4116	1.246094
4112	1.250791
4108	1.255393
4104	1.260900
4100	1.265454
4096	1.267838
4092	1.270461
4088	1.275110
4084	1.280069
4080	1.284694
4076	1.290035
4072	1.296138
4068	1.302719
4064	1.308965
4060	1.315093
4056	1.321411
4052	1.326680
4048	1.332235
4044	1.339530
4040	1.345109
4036	1.348805
4032	1.354217
4028	1.360845
4024	1.364827
4020	1.367211
4016	1.371836
4012	1.377439
4008	1.380515
4004	1.381254
4000	1.383328
3996	1.387619
3992	1.391601
3988	1.393842
3984	1.395273
3980	1.396584
3976	1.397895
3972	1.401376
3968	1.404929
3964	1.406550
3960	1.408147
3956	1.408815
3952	1.408791
3948	1.409673
3944	1.412558
3940	1.415944
3936	1.416563
3932	1.417088
3928	1.417636
3924	1.415562
3920	1.415324
3916	1.419734
3912	1.424765
3908	1.425361
3904	1.423096
3900	1.425528
3896	1.430225
3892	1.428365
3888	1.424527
3884	1.427721
3880	1.435351
3876	1.438641
3872	1.437711
3868	1.439476
3864	1.444792
3860	1.446628
3856	1.443099
3852	1.446366
3848	1.457452
3844	1.463150
3840	1.465249
3836	1.471233
3832	1.479554
3828	1.485943
3824	1.487755
3820	1.487469
3816	1.491594
3812	1.499176
3808	1.503729
3804	1.505327
3800	1.510190
3796	1.518607
3792	1.525115
3788	1.528406
3784	1.531314
3780	1.535177
3776	1.539874
3772	1.544237
3768	1.547908
3764	1.551294
3760	1.552557
3756	1.549911
3752	1.544952
3748	1.541757
3744	1.544642
3740	1.550769
3736	1.554608
3732	1.559233
3728	1.564931
3724	1.568746
3720	1.570296
3716	1.568555
3712	1.566815
3708	1.568984
3704	1.572012
3700	1.572728
3696	1.570558
3692	1.566076
3688	1.565098
3684	1.568746
3680	1.568031
3676	1.562905
3672	1.561760
3668	1.566481
3664	1.572036
3660	1.573657
3656	1.571536
3652	1.567935
3648	1.568365
3644	1.574206
3640	1.577782
3636	1.576423
3632	1.572942
3628	1.573085
3624	1.577234
3620	1.579570
3616	1.581811
3612	1.584434
3608	1.584744
3604	1.586270
3600	1.590323
3596	1.593399
3592	1.594686
3588	1.597285
3584	1.602482
3580	1.605415
3576	1.605892
3572	1.607346
3568	1.609277
3564	1.611423
3560	1.612997
3556	1.613283
3552	1.615524
3548	1.620674
3544	1.623344
3540	1.622557
3536	1.622390
3532	1.623058
3528	1.622986
3524	1.622581
3520	1.624011
3516	1.626205
3512	1.626944
3508	1.626324
3504	1.624488
3500	1.622056
3496	1.619768
3492	1.618337
3488	1.617765
3484	1.616597
3480	1.613640
3476	1.610684
3472	1.608610
3468	1.604914
3464	1.601052
3460	1.600813
3456	1.601624
3452	1.599121
3448	1.594161
3444	1.589512
3440	1.586294
3436	1.584315
3432	1.583337
3428	1.582551
3424	1.582717
3420	1.585483
3416	1.588988
3412	1.590132
3408	1.590132
3404	1.592326
3400	1.595997
3396	1.598978
3392	1.601457
3388	1.603770
3384	1.606774
3380	1.610159
3376	1.613116
3372	1.616406
3368	1.620125
3364	1.625490
3360	1.633262
3356	1.640725
3352	1.646280
3348	1.651334
3344	1.657366
3340	1.663613
3336	1.669979
3332	1.676154
3328	1.681590
3324	1.687169
3320	1.692485
3316	1.697206
3312	1.703786
3308	1.712274
3304	1.718759
3300	1.723074
3296	1.727747
3292	1.731824
3288	1.735162
3284	1.740097
3280	1.747083
3276	1.753830
3272	1.757812
3268	1.760005
3264	1.761436
3260	1.762080
3256	1.764869
3252	1.769828
3248	1.775431
3244	1.781487
3240	1.784491
3236	1.783704
3232	1.783657
3228	1.785230
3224	1.786708
3220	1.787805
3216	1.788330
3212	1.788330
3208	1.789045
3204	1.789569
3200	1.789164
3196	1.790165
3192	1.792502
3188	1.793408
3184	1.793766
3180	1.793956
3176	1.794505
3172	1.797389
3168	1.801061
3164	1.802802
3160	1.803398
3156	1.805830
3152	1.809740
3148	1.813435
3144	1.817274
3140	1.822113
3136	1.827526
3132	1.831531
3128	1.833939
3124	1.837515
3120	1.842784
3116	1.847243
3112	1.851177
3108	1.856970
3104	1.864957
3100	1.874756
3096	1.884150
3092	1.891589
3088	1.898670
3084	1.905512
3080	1.912689
3076	1.920866
3072	1.926946
3068	1.930308
3064	1.934623
3060	1.941871
3056	1.950621
3052	1.958036
3048	1.963233
3044	1.966881
3040	1.969408
3036	1.971101
3032	1.972198
3028	1.970148
3024	1.962566
3020	1.956510
3016	1.962327
3012	1.980066
3008	1.999568
3004	2.012991
3000	2.020645
2996	2.023959
2992	2.024173
2988	2.023816
2984	2.022337
2980	2.016639
2976	2.003383
2972	1.982188
2968	1.957750
2964	1.937747
2960	1.927185
2956	1.922726
2952	1.917719
2948	1.906681
2944	1.883435
2940	1.849269
2936	1.813912
2932	1.784062
2928	1.764988
2924	1.768732
2920	1.802110
2916	1.852321
2912	1.896739
2908	1.924991
2904	1.944375
2900	1.960635
2896	1.973295
2892	1.985049
2888	1.996064
2884	2.003026
2880	2.004575
2876	1.999235
2872	1.982712
2868	1.951599
2864	1.917982
2860	1.908254
2856	1.929545
2852	1.965332
2848	2.004694
2844	2.041769
2840	2.070307
2836	2.090501
2832	2.104854
2828	2.116823
2824	2.129268
2820	2.141380
2816	2.150440
2812	2.157282
2808	2.164697
2804	2.172803
2800	2.180719
2796	2.188205
2792	2.194881
2788	2.201175
2784	2.209186
2780	2.219152
2776	2.227210
2772	2.231860
2768	2.235865
2764	2.239608
2760	2.242112
2756	2.244186
2752	2.247762
2748	2.252483
2744	2.255535
2740	2.256822
2736	2.256846
2732	2.256202
2728	2.256345
2724	2.255654
2720	2.253627
2716	2.252221
2712	2.250623
2708	2.247476
2704	2.243828
2700	2.241110
2696	2.240252
2692	2.240180
2688	2.238225
2684	2.235126
2680	2.232360
2676	2.229619
2672	2.227497
2668	2.225494
2664	2.223825
2660	2.222704
2656	2.220129
2652	2.217388
2648	2.216362
2644	2.215313
2640	2.214646
2636	2.216291
2632	2.218246
2628	2.218818
2624	2.219200
2620	2.219629
2616	2.219724
2612	2.219843
2608	2.220368
2604	2.222228
2600	2.224516
2596	2.226042
2592	2.228760
2588	2.234292
2584	2.240324
2580	2.246356
2576	2.253127
2572	2.258872
2568	2.263331
2564	2.268743
2560	2.273750
2556	2.276802
2552	2.279806
2548	2.286148
2544	2.293181
2540	2.296972
2536	2.301025
2532	2.307248
2528	2.310895
2524	2.312111
2520	2.315664
2516	2.320218
2512	2.322506
2508	2.323913
2504	2.325034
2500	2.325487
2496	2.326941
2492	2.327680
2488	2.325010
2484	2.321410
2480	2.319288
2476	2.318286
2472	2.317214
2468	2.313899
2464	2.309393
2460	2.305054
2456	2.302098
2452	2.299690
2448	2.295255
2444	2.291345
2440	2.287387
2436	2.280521
2432	2.275490
2428	2.276277
2424	2.278852
2420	2.275204
2416	2.262854
2412	2.252030
2408	2.250337
2404	2.253484
2400	2.255010
2396	2.252531
2392	2.248644
2388	2.245402
2384	2.243614
2380	2.242851
2376	2.240657
2372	2.236747
2368	2.232789
2364	2.231597
2360	2.236080
2356	2.244853
2352	2.252769
2348	2.257633
2344	2.261161
2340	2.265381
2336	2.269911
2332	2.274847
2328	2.282381
2324	2.292156
2320	2.301549
2316	2.310228
2312	2.318525
2308	2.325034
2304	2.329468
2300	2.335429
2296	2.343010
2292	2.348971
2288	2.354121
2284	2.359366
2280	2.364110
2276	2.367353
2272	2.369379
2268	2.371287
2264	2.373266
2260	2.376794
2256	2.380418
2252	2.380728
2248	2.379798
2244	2.380633
2240	2.382516
2236	2.383470
2232	2.382540
2228	2.380895
2224	2.378892
2220	2.375721
2216	2.371788
2212	2.367687
2208	2.363014
2204	2.358603
2200	2.355718
2196	2.353382
2192	2.350640
2188	2.348232
2184	2.345824
2180	2.342510
2176	2.339363
2172	2.337169
2168	2.334809
2164	2.332878
2160	2.333712
2156	2.334928
2152	2.333688
2148	2.333021
2144	2.334070
2140	2.334713
2136	2.335143
2132	2.335667
2128	2.335357
2124	2.335548
2120	2.336192
2116	2.336740
2112	2.337741
2108	2.338075
2104	2.337479
2100	2.337026
2096	2.337551
2092	2.338242
2088	2.339935
2084	2.345943
2080	2.353286
2076	2.355647
2072	2.354073
2068	2.352571
2064	2.357172
2060	2.373170
2056	2.392411
2052	2.404356
2048	2.411627
2044	2.418899
2040	2.425336
2036	2.429723
2032	2.433061
2028	2.437210
2024	2.441787
2020	2.445507
2016	2.448773
2012	2.451801
2008	2.454137
2004	2.456331
2000	2.458834
1996	2.459764
1992	2.457928
1988	2.454590
1984	2.450704
1980	2.447128
1976	2.444481
1972	2.442526
1968	2.440452
1964	2.436542
1960	2.432417
1956	2.429294
1952	2.426242
1948	2.423071
1944	2.420377
1940	2.418994
1936	2.416634
1932	2.412199
1928	2.406263
1924	2.399563
1920	2.393960
1916	2.389335
1912	2.385020
1908	2.382087
1904	2.379918
1900	2.377247
1896	2.374362
1892	2.372622
1888	2.372789
1884	2.374196
1880	2.375555
1876	2.377319
1872	2.379536
1868	2.382922
1864	2.388215
1860	2.391552
1856	2.392482
1852	2.393388
1848	2.393722
1844	2.396297
1840	2.403759
1836	2.408981
1832	2.408385
1828	2.409482
1824	2.414822
1820	2.421045
1816	2.426981
1812	2.432608
1808	2.435660
1804	2.434611
1800	2.431750
1796	2.430200
1792	2.431488
1788	2.433753
1784	2.433133
1780	2.428984
1776	2.420783
1772	2.413940
1768	2.414822
1764	2.415513
1760	2.411055
1756	2.401757
1752	2.388119
1748	2.376103
1744	2.364850
1740	2.349066
1736	2.333807
1732	2.329659
1728	2.331328
1724	2.324342
1720	2.309441
1716	2.299618
1712	2.298307
1708	2.292561
1704	2.276897
1700	2.259922
1696	2.255177
1692	2.259182
1688	2.252864
1684	2.242803
1680	2.240943
1676	2.236390
1672	2.228045
1668	2.222371
1664	2.217340
1660	2.205944
1656	2.183079
1652	2.165174
1648	2.164363
1644	2.166080
1640	2.156400
1636	2.141618
1632	2.134490
1628	2.126312
1624	2.107119
1620	2.078056
1616	2.040410
1612	2.000164
1608	1.974725
1604	1.977396
1600	1.994442
1596	2.008628
1592	2.016067
1588	2.015662
1584	2.008843
1580	1.997733
1576	1.989078
1572	1.985120
1568	1.977324
1564	1.956796
1560	1.933836
1556	1.934719
1552	1.952552
1548	1.959514
1544	1.959276
1540	1.981306
1536	2.031373
1532	2.079439
1528	2.105641
1524	2.112984
1520	2.111864
1516	2.106738
1512	2.092814
1508	2.064037
1504	1.994490
1500	1.849913
1496	1.701116
1492	1.683712
1488	1.789021
1484	1.899814
1480	1.957273
1476	1.973128
1472	1.972436
1468	1.961994
1464	1.934862
1460	1.880335
1456	1.805400
1452	1.760745
1448	1.783943
1444	1.834487
1440	1.860404
1436	1.866531
1432	1.868438
1428	1.867270
1424	1.862668
1420	1.854681
1416	1.843690
1412	1.816749
1408	1.766729
1404	1.727056
1400	1.731514
1396	1.763916
1392	1.787114
1388	1.787376
1384	1.785492
1380	1.797485
1376	1.809310
1372	1.814532
1368	1.817083
1364	1.816868
1360	1.816415
1356	1.816034
1352	1.814866
1348	1.814246
1344	1.814866
1340	1.818442
1336	1.827192
1332	1.837062
1328	1.844334
1324	1.849150
1320	1.851415
1316	1.853251
1312	1.855063
1308	1.855254
1304	1.855516
1300	1.856493
1296	1.857447
1292	1.858592
1288	1.858353
1284	1.854276
1280	1.845765
1276	1.831340
1272	1.805019
1268	1.763272
1264	1.724338
1260	1.721358
1256	1.757073
1252	1.798081
1248	1.822566
1244	1.832962
1240	1.835298
1236	1.833462
1232	1.828980
1228	1.822328
1224	1.812505
1220	1.797270
1216	1.777505
1212	1.758670
1208	1.747083
1204	1.744103
1200	1.744794
1196	1.743078
1192	1.737499
1188	1.728820
1184	1.717925
1180	1.708078
1176	1.698255
1172	1.684355
1168	1.665687
1164	1.645612
1160	1.628398
1156	1.617574
1152	1.611208
1148	1.604437
1144	1.595091
1140	1.583480
1136	1.570177
1132	1.555180
1128	1.538848
1124	1.520156
1120	1.498365
1116	1.475214
1112	1.453399
1108	1.436281
1104	1.425909
1100	1.422333
1096	1.422929
1092	1.424384
1088	1.426315
1084	1.427817
1080	1.427006
1076	1.426577
1072	1.429963
1068	1.434779
1064	1.436448
1060	1.422500
1056	1.373004
1052	1.312446
1048	1.305818
1044	1.348662
1040	1.379966
1036	1.384353
1032	1.378917
1028	1.371622
1024	1.364159
1020	1.360774
1016	1.365900
1012	1.376461
1008	1.387095
1004	1.395726
1000	1.401352
996	 1.401329
992	 1.394844
988	 1.386833
984	 1.380443
980	 1.374459
976	 1.366233
972	 1.355576
968	 1.343441
964	 1.329326
960	 1.314449
956	 1.300168
952	 1.286458
948	 1.274728
944	 1.266193
940	 1.260137
936	 1.252293
932	 1.241278
928	 1.230859
924	 1.222467
920	 1.213455
916	 1.200437
912	 1.183581
908	 1.167821
904	 1.157426
900	 1.153588
896	 1.150774
892	 1.142621
888	 1.124143
884	 1.091313
880	 1.053905
876	 1.032447
872	 1.038384
868	 1.062440
864	 1.086091
860	 1.099205
856	 1.099705
852	 1.091790
848	 1.083183
844	 1.073455
840	 1.054978
836	 1.020026
832	 0.959277
828	 0.883841
824	 0.844001
820	 0.867772
816	 0.915479
812	 0.943040
808	 0.949001
804	 0.948071
800	 0.948095
796	 0.951242
792	 0.959610
788	 0.970792
784	 0.976991
780	 0.977325
776	 0.977015
772	 0.975441
768	 0.971412
764	 0.968337
760	 0.965118
756	 0.960469
752	 0.954461
748	 0.945019
744	 0.934815
740	 0.926995
736	 0.920295
732	 0.913572
728	 0.904965
724	 0.892281
720	 0.879597
716	 0.870013
712	 0.859951
708	 0.846099
704	 0.829505
700	 0.811958
696	 0.790071
692	 0.759410
688	 0.734257
684	 0.731682
680	 0.737571
676	 0.734376
672	 0.724816
668	 0.714397
664	 0.706505
660	 0.699782
656	 0.689840
652	 0.677394
648	 0.665831
644	 0.656151
640	 0.645518
636	 0.632905
632	 0.621700
628	 0.612473
624	 0.602746
620	 0.591325
616	 0.577211
612	 0.558018
608	 0.536775
604	 0.524806
600	 0.524282
596	 0.523400
592	 0.518298
588	 0.513029
584	 0.509119
580	 0.505900
576	 0.501561
572	 0.496101
568	 0.491166
564	 0.486397
560	 0.479984
556	 0.472092
552	 0.464606
548	 0.458073
544	 0.451040
540	 0.443172
536	 0.436162
532	 0.428938
528	 0.419950
524	 0.408959
520	 0.398325
516	 0.390291
512	 0.383234
508	 0.374722
504	 0.363683
500	 0.351238
496	 0.337219
492	 0.320720
488	 0.305461
484	 0.291919
480	 0.277709
476	 0.264000
472	 0.250720
468	 0.237298
464	 0.223159
460	 0.207829
456	 0.193524
452	 0.181698
448	 0.172233
444	 0.162482
440	 0.150752
436	 0.138211
432	 0.125241
428	 0.111413
424	 0.098252
420	 0.086975
416	 0.075912
412	 0.063061
408	 0.050711
404	 0.041413
400	 0.034832
396	 0.032067
392	 0.030517
388	 0.025033
384	 0.018334
380	 0.014019
376	 0.010800
372	 0.009083
370	 0.008606