File: Bakgrunnsmateriale/MATLAB/FTIR/ftir_data/subBb/Mapping_121/C-4040-8_t40.asc
PE IR       SPECTRUM    SPECTRUM    ASCII       PEDS        1.60
  -1
C-A53A~1.ASC
17/03/27
17:43:54.00
17/03/27
17:44:20.00
tln
$C-4040-8_t0040$<tbV0>[-2.6,-5.2,8.0,0.0,27,1,0]
27.028
64

2002,4.07
MIRTGS : RIGHTBACK : INTERNAL 2
MIR : ON : INTERNAL 2
OPTKBR

0.200000
8
8.000000
FILLER
RATIO
SPECTRUM
UNLOCKED 256

DOUBLE
64
COMBINED
1
0
0

0.002000
RATIO

1
0
TRUE
51149
0
LEFT NOT FITTED RIGHT NOT FITTED 0
NONE
NONE
15600
12
4.427000
51148
TRUE
1 0 8 72 0 0 0 0

15798

#HDR
-1
-1
#GR
µM
%T
2.38419e-05
0.0
2.000000
0.002000
12515
8
66.6639
0.586539
#DATA
2.000000	 63.4793
2.018000	 63.6791
2.036000	 63.4095
2.054000	 63.2059
2.072000	 63.5953
2.090000	 63.8365
2.108000	 63.6746
2.126000	 63.8571
2.144000	 63.8845
2.162000	 63.1417
2.180000	 63.3894
2.198000	 63.4288
2.216000	 63.516
2.234000	 63.3192
2.252000	 63.5387
2.270000	 63.126
2.288000	 66.6639
2.306000	 65.1156
2.324000	 63.2115
2.342000	 63.3331
2.360000	 63.0651
2.378000	 62.6918
2.396000	 63.0445
2.414000	 63.0438
2.432000	 62.5959
2.450000	 62.5528
2.468000	 62.3633
2.486000	 62.483
2.504000	 62.5166
2.522000	 62.4865
2.540000	 62.2546
2.558000	 62.0326
2.576000	 62.3165
2.594000	 62.0464
2.612000	 62.0266
2.630000	 61.9294
2.648000	 61.8467
2.666000	 61.8463
2.684000	 61.6142
2.702000	 61.579
2.720000	 61.5067
2.738000	 61.252
2.756000	 61.2561
2.774000	 61.189
2.792000	 60.9075
2.810000	 60.8635
2.828000	 60.751
2.846000	 60.7397
2.864000	 60.7781
2.882000	 60.6851
2.900000	 60.5098
2.918000	 60.3281
2.936000	 60.2095
2.954000	 59.8459
2.972000	 59.7525
2.990000	 59.9903
3.008000	 59.9266
3.026000	 59.6974
3.044000	 59.3858
3.062000	 59.4782
3.080000	 59.3159
3.098000	 59.1789
3.116000	 58.9916
3.134000	 58.9166
3.152000	 58.7988
3.170000	 58.8937
3.188000	 58.8521
3.206000	 58.6634
3.224000	 58.3009
3.242000	 58.3016
3.260000	 58.2823
3.278000	 58.0658
3.296000	 57.9885
3.314000	 57.8922
3.332000	 57.6671
3.350000	 57.7285
3.368000	 57.6153
3.386000	 57.2992
3.404000	 57.0159
3.422000	 56.9343
3.440000	 56.8975
3.458000	 56.8915
3.476000	 56.5076
3.494000	 56.549
3.512000	 56.5542
3.530000	 56.4559
3.548000	 56.4302
3.566000	 56.2419
3.584000	 56.1729
3.602000	 55.9734
3.620000	 55.8704
3.638000	 55.774
3.656000	 55.6194
3.674000	 55.4405
3.692000	 55.3529
3.710000	 55.3725
3.728000	 55.0989
3.746000	 55.0447
3.764000	 54.9235
3.782000	 54.7565
3.800000	 54.7125
3.818000	 54.4424
3.836000	 54.3336
3.854000	 54.4547
3.872000	 54.2167
3.890000	 54.1593
3.908000	 54.0439
3.926000	 54.0625
3.944000	 53.8983
3.962000	 53.8311
3.980000	 53.5893
3.998000	 53.3837
4.016000	 53.398
4.034000	 53.319
4.052000	 53.1717
4.070000	 53.0205
4.088000	 52.8954
4.106000	 52.647
4.124000	 52.6875
4.141999	 52.644
4.160000	 52.4857
4.178000	 52.312
4.196000	 52.2909
4.214000	 52.1367
4.232000	 52.1095
4.250000	 51.9505
4.268000	 51.8619
4.286000	 51.7925
4.304000	 51.6612
4.322000	 51.5181
4.340000	 51.4778
4.358000	 51.4313
4.375999	 51.3447
4.394000	 51.1751
4.412000	 50.9702
4.430000	 50.9725
4.448000	 50.8055
4.466000	 50.7351
4.484000	 50.6615
4.502000	 50.5081
4.520000	 50.477
4.538000	 50.3834
4.556000	 50.4056
4.574000	 50.2672
4.592000	 50.1349
4.609999	 50.047
4.628000	 49.9367
4.646000	 49.7753
4.664000	 49.7556
4.682000	 49.73
4.700000	 49.6074
4.718000	 49.3847
4.736000	 49.2545
4.754000	 49.2233
4.772000	 49.2246
4.790000	 49.2264
4.808000	 49.1979
4.826000	 48.9962
4.843999	 48.922
4.862000	 48.721
4.880000	 48.5875
4.898000	 48.5082
4.916000	 48.4029
4.934000	 48.3455
4.952000	 48.3188
4.970000	 48.2885
4.988000	 48.2695
5.006000	 48.1969
5.024000	 48.0095
5.042000	 47.9766
5.060000	 47.8311
5.077999	 47.6789
5.096000	 47.5684
5.114000	 47.5813
5.132000	 47.4293
5.150000	 47.3075
5.168000	 47.2872
5.186000	 47.2447
5.204000	 47.1439
5.222000	 47.1481
5.240000	 47.0541
5.258000	 46.9003
5.276000	 46.8351
5.294000	 46.7442
5.312000	 46.6895
5.330000	 46.61
5.348000	 46.5028
5.366000	 46.4759
5.384000	 46.3588
5.402000	 46.2088
5.420000	 46.225
5.438000	 46.274
5.456000	 46.1168
5.474000	 46.0508
5.492000	 46.0244
5.510000	 45.905
5.528000	 45.8406
5.546000	 45.7231
5.564000	 45.6241
5.582000	 45.7235
5.600000	 45.712
5.618000	 45.5561
5.636000	 45.3991
5.654000	 45.2774
5.672000	 45.2607
5.690000	 45.2816
5.708000	 45.2092
5.726000	 45.1111
5.744000	 44.9372
5.762000	 44.8043
5.780000	 44.744
5.798000	 44.7009
5.816000	 44.6854
5.834000	 44.6426
5.852000	 44.6845
5.870000	 44.6299
5.888000	 44.5062
5.906000	 44.4243
5.923999	 44.3745
5.942000	 44.3357
5.960000	 44.277
5.978000	 44.2137
5.996000	 44.1353
6.014000	 44.1222
6.032000	 44.0543
6.050000	 43.9422
6.068000	 43.9224
6.086000	 43.8895
6.104000	 43.7599
6.122000	 43.7263
6.140000	 43.7183
6.158000	 43.588
6.176000	 43.4714
6.194000	 43.4048
6.212000	 43.3547
6.230000	 43.2476
6.248000	 43.1537
6.266000	 43.1752
6.284000	 43.211
6.302000	 43.2056
6.320000	 43.1192
6.338000	 42.9741
6.356000	 42.9553
6.374000	 42.9665
6.392000	 42.8387
6.410000	 42.748
6.428000	 42.6926
6.446000	 42.5918
6.464000	 42.5579
6.482000	 42.5372
6.500000	 42.418
6.518000	 42.3439
6.536000	 42.352
6.554000	 42.3507
6.572000	 42.2872
6.590000	 42.1932
6.608000	 42.1415
6.626000	 42.1418
6.644000	 42.1364
6.662000	 42.0818
6.680000	 42.0074
6.698000	 41.9667
6.716000	 41.9557
6.734000	 41.9251
6.752000	 41.8391
6.770000	 41.7407
6.788000	 41.653
6.806000	 41.5382
6.824000	 41.4532
6.842000	 41.4927
6.860000	 41.6016
6.878000	 41.6018
6.896000	 41.4859
6.914000	 41.378
6.932000	 41.2481
6.950000	 41.1481
6.968000	 41.1751
6.986000	 41.1753
7.004000	 41.0859
7.022000	 41.0656
7.040000	 41.1076
7.058000	 41.0971
7.076000	 41.0447
7.094000	 40.9867
7.112000	 40.9084
7.130000	 40.8046
7.148000	 40.6952
7.166000	 40.6026
7.184000	 40.5672
7.202000	 40.6223
7.220000	 40.688
7.238000	 40.6511
7.256000	 40.554
7.274000	 40.4836
7.292000	 40.4098
7.310000	 40.2999
7.328000	 40.2118
7.346000	 40.2
7.364000	 40.2329
7.382000	 40.2286
7.400000	 40.1519
7.418000	 40.0389
7.436000	 39.9353
7.454000	 39.8826
7.472000	 39.9074
7.490000	 39.963
7.508000	 39.9732
7.526000	 39.9302
7.544000	 39.8657
7.562000	 39.7953
7.580000	 39.7386
7.598000	 39.7249
7.616000	 39.7508
7.634000	 39.7624
7.652000	 39.7207
7.670000	 39.6609
7.688000	 39.6375
7.706000	 39.6419
7.724000	 39.6251
7.742000	 39.5599
7.760000	 39.4629
7.778000	 39.3743
7.796000	 39.3251
7.814000	 39.3078
7.832000	 39.2792
7.850000	 39.2238
7.868000	 39.1947
7.886000	 39.2367
7.904000	 39.2987
7.922000	 39.2954
7.940000	 39.2225
7.958000	 39.1387
7.976000	 39.0781
7.994000	 39.0311
8.012000	 38.9843
8.030000	 38.9412
8.048000	 38.9035
8.065999	 38.8551
8.084000	 38.7869
8.102000	 38.7314
8.120000	 38.7166
8.138000	 38.7028
8.155999	 38.6362
8.173999	 38.5417
8.192000	 38.4909
8.210000	 38.4969
8.228000	 38.5102
8.246000	 38.4955
8.263999	 38.4553
8.282000	 38.4032
8.300000	 38.3537
8.318000	 38.3301
8.336000	 38.3493
8.353999	 38.3984
8.372000	 38.4318
8.390000	 38.3954
8.408000	 38.2719
8.426000	 38.1115
8.443999	 37.9954
8.462000	 37.9665
8.480000	 38.0041
8.498000	 38.0616
8.516000	 38.0986
8.533999	 38.0769
8.552000	 37.9721
8.570000	 37.8096
8.588000	 37.6579
8.606000	 37.5628
8.624000	 37.5063
8.641999	 37.4537
8.660000	 37.4128
8.678000	 37.4189
8.696000	 37.473
8.714000	 37.5221
8.731999	 37.5084
8.750000	 37.4247
8.768000	 37.3098
8.786000	 37.2076
8.804000	 37.1463
8.821999	 37.1407
8.840000	 37.183
8.858000	 37.2349
8.876000	 37.2516
8.894000	 37.2297
8.911999	 37.2173
8.930000	 37.2606
8.948000	 37.3477
8.966000	 37.409
8.984000	 37.377
9.001999	 37.2466
9.020000	 37.0893
9.038000	 37
9.056000	 37.0176
9.074000	 37.0936
9.092000	 37.1454
9.109999	 37.1356
9.128000	 37.0983
9.146000	 37.0921
9.164000	 37.1372
9.182000	 37.2022
9.199999	 37.2383
9.218000	 37.2124
9.236000	 37.1185
9.254000	 36.9718
9.272000	 36.7967
9.289999	 36.619
9.308000	 36.462
9.326000	 36.3433
9.344000	 36.2706
9.362000	 36.2365
9.379999	 36.2256
9.398000	 36.2227
9.416000	 36.2235
9.434000	 36.2343
9.452000	 36.2639
9.469999	 36.3104
9.488000	 36.3586
9.506000	 36.3864
9.524000	 36.3805
9.542000	 36.3447
9.560000	 36.2954
9.577999	 36.2477
9.596000	 36.2057
9.614000	 36.1664
9.632000	 36.1283
9.650000	 36.0939
9.667999	 36.0635
9.686000	 36.035
9.704000	 36.0086
9.722000	 35.9911
9.740000	 35.9911
9.757999	 36.0103
9.776000	 36.037
9.794000	 36.0511
9.812000	 36.0365
9.830000	 35.9892
9.847999	 35.9162
9.866000	 35.8275
9.884000	 35.7304
9.902000	 35.6292
9.920000	 35.529
9.937999	 35.441
9.956000	 35.3798
9.974000	 35.3543
9.992000	 35.3601
10.01	35.3806
10.028	35.3994
10.046	35.4115
10.064	35.4251
10.082	35.4503
10.1	35.4872
10.118	35.5219
10.136	35.5352
10.154	35.5165
10.172	35.4694
10.19	35.4083
10.208	35.3483
10.226	35.2976
10.244	35.2568
10.262	35.2207
10.28	35.1837
10.298	35.1436
10.316	35.1016
10.334	35.0615
10.352	35.0271
10.37	35.001
10.388	34.9849
10.406	34.9802
10.424	34.9886
10.442	35.009
10.46	35.0357
10.478	35.0564
10.496	35.0575
10.514	35.0316
10.532	34.9823
10.55	34.9209
10.568	34.8593
10.586	34.8036
10.604	34.7527
10.622	34.7035
10.64	34.6568
10.658	34.6184
10.676	34.5963
10.694	34.5937
10.712	34.6052
10.73	34.6181
10.748	34.6183
10.766	34.5983
10.784	34.5593
10.802	34.5112
10.82	34.4654
10.838	34.4312
10.856	34.4119
10.874	34.4053
10.892	34.4046
10.91	34.4019
10.928	34.3903
10.946	34.3674
10.964	34.3373
10.982	34.3089
11	34.2917
11.018	34.2915
11.036	34.3059
11.054	34.3254
11.072	34.3386
11.09	34.3378
11.108	34.3227
11.126	34.2984
11.144	34.2702
11.162	34.2386
11.18	34.1996
11.198	34.1474
11.216	34.08
11.234	34.0024
11.252	33.9243
11.27	33.8563
11.288	33.806
11.306	33.7748
11.324	33.7604
11.342	33.759
11.36	33.7677
11.378	33.7826
11.396	33.7979
11.414	33.8052
11.432	33.7955
11.45	33.7638
11.468	33.7113
11.486	33.6454
11.504	33.5776
11.522	33.519
11.54	33.4757
11.558	33.4487
11.576	33.4336
11.594	33.4243
11.612	33.4152
11.63	33.4037
11.648	33.3894
11.666	33.3733
11.684	33.3559
11.702	33.337
11.72	33.3154
11.738	33.2899
11.756	33.2604
11.774	33.2283
11.792	33.1961
11.81	33.1665
11.828	33.1416
11.846	33.122
11.864	33.107
11.882	33.0952
11.9	33.0851
11.918	33.0758
11.936	33.0664
11.954	33.0557
11.972	33.0409
11.99	33.0181
12.008	32.9825
12.026	32.9306
12.044	32.8618
12.062	32.7813
12.08	32.6997
12.098	32.6305
12.116	32.5868
12.134	32.5771
12.152	32.6018
12.17	32.654
12.188	32.7212
12.206	32.789
12.224	32.8442
12.242	32.8786
12.26	32.8887
12.278	32.8766
12.296	32.8475
12.314	32.809
12.332	32.7675
12.35	32.7271
12.368	32.6884
12.386	32.6492
12.404	32.6057
12.422	32.5539
12.44	32.4922
12.458	32.4221
12.476	32.3481
12.494	32.2768
12.512	32.2144
12.53	32.1645
12.548	32.1275
12.566	32.1004
12.584	32.0786
12.602	32.0576
12.62	32.0351
12.638	32.0123
12.656	31.993
12.674	31.982
12.692	31.9829
12.71	31.9967
12.728	32.0212
12.746	32.0513
12.764	32.0798
12.782	32.1003
12.8	32.1083
12.818	32.1019
12.836	32.0813
12.854	32.0484
12.872	32.0058
12.89	31.9557
12.908	31.9005
12.926	31.8425
12.944	31.7844
12.962	31.7293
12.98	31.6803
12.998	31.6405
13.016	31.612
13.034	31.5952
13.052	31.5889
13.07	31.5903
13.088	31.5959
13.106	31.6022
13.124	31.6059
13.142	31.605
13.16	31.5983
13.178	31.5853
13.196	31.5662
13.214	31.541
13.232	31.5105
13.25	31.4752
13.268	31.4364
13.286	31.3949
13.304	31.352
13.322	31.3085
13.34	31.2658
13.358	31.2254
13.376	31.1896
13.394	31.1608
13.412	31.1418
13.43	31.1348
13.448	31.1412
13.466	31.1605
13.484	31.1903
13.502	31.2263
13.52	31.2631
13.538	31.2945
13.556	31.3149
13.574	31.3203
13.592	31.3089
13.61	31.2808
13.628	31.2385
13.646	31.1858
13.664	31.1272
13.682	31.067
13.7	31.009
13.718	30.9565
13.736	30.9118
13.754	30.8769
13.772	30.8525
13.79	30.8392
13.808	30.8359
13.826	30.841
13.844	30.8517
13.862	30.8646
13.88	30.8756
13.898	30.8809
13.916	30.8772
13.934	30.862
13.952	30.8339
13.97	30.7933
13.988	30.7416
14.006	30.6816
14.024	30.616
14.042	30.5483
14.06	30.481
14.078	30.4159
14.096	30.3539
14.114	30.2946
14.132	30.237
14.15	30.1799
14.168	30.1221
14.186	30.0634
14.204	30.0039
14.222	29.9452
14.24	29.8898
14.258	29.8412
14.276	29.8024
14.294	29.7758
14.312	29.7624
14.33	29.7612
14.348	29.7697
14.366	29.7833
14.384	29.7969
14.402	29.8052
14.42	29.8048
14.438	29.7936
14.456	29.7715
14.474	29.7408
14.492	29.7052
14.51	29.6699
14.528	29.6394
14.546	29.6176
14.564	29.6067
14.582	29.607
14.6	29.6172
14.618	29.6342
14.636	29.6532
14.654	29.6689
14.672	29.6766
14.69	29.6725
14.708	29.6539
14.726	29.6192
14.744	29.5692
14.762	29.506
14.78	29.4331
14.798	29.3551
14.816	29.2767
14.834	29.2033
14.852	29.1401
14.87	29.0902
14.888	29.0558
14.906	29.0372
14.924	29.0332
14.942	29.0408
14.96	29.0558
14.978	29.0739
14.996	29.091
15.014	29.1035
15.032	29.1083
15.05	29.1042
15.068	29.0909
15.086	29.0692
15.104	29.0401
15.122	29.0052
15.14	28.9665
15.158	28.9252
15.176	28.8827
15.194	28.8404
15.212	28.7994
15.23	28.7607
15.248	28.7249
15.266	28.6927
15.284	28.6647
15.302	28.6411
15.32	28.622
15.338	28.607
15.356	28.5955
15.374	28.5859
15.392	28.5766
15.41	28.5662
15.428	28.5529
15.446	28.5352
15.464	28.5127
15.482	28.4854
15.5	28.4541
15.518	28.4208
15.536	28.3877
15.554	28.3572
15.572	28.332
15.59	28.3147
15.608	28.3061
15.626	28.3065
15.644	28.3155
15.662	28.3305
15.68	28.3493
15.698	28.3691
15.716	28.3867
15.734	28.3997
15.752	28.4066
15.77	28.4067
15.788	28.4003
15.806	28.3891
15.824	28.3748
15.842	28.36
15.86	28.3472
15.878	28.3378
15.896	28.3331
15.914	28.333
15.932	28.3364
15.95	28.3418
15.968	28.3469
15.986	28.3486
16.004	28.3451
16.022	28.3345
16.04	28.3155
16.058	28.2885
16.076	28.2538
16.094	28.2133
16.112	28.1695
16.13	28.1242
16.148	28.0799
16.166	28.0392
16.184	28.0032
16.202	27.9732
16.22	27.9497
16.238	27.9322
16.256	27.9202
16.274	27.9122
16.292	27.9067
16.31	27.9027
16.328	27.898
16.346	27.8919
16.364	27.8832
16.382	27.8716
16.4	27.857
16.418	27.8397
16.436	27.8204
16.454	27.8001
16.472	27.7792
16.49	27.7587
16.508	27.7389
16.526	27.7198
16.544	27.7012
16.562	27.6824
16.58	27.6629
16.598	27.6413
16.616	27.617
16.634	27.5892
16.652	27.5573
16.67	27.5213
16.688	27.4809
16.706	27.437
16.724	27.3902
16.742	27.3414
16.76	27.2918
16.778	27.2422
16.796	27.1937
16.814	27.1469
16.832	27.1021
16.85	27.0597
16.868	27.0196
16.886	26.9814
16.904	26.9448
16.922	26.9095
16.94	26.8751
16.958	26.8415
16.976	26.8088
16.994	26.777
17.012	26.7465
17.03	26.7175
17.048	26.6903
17.066	26.6653
17.084	26.6428
17.102	26.6228
17.12	26.6054
17.138	26.5909
17.156	26.5793
17.174	26.5707
17.192	26.5653
17.21	26.5633
17.228	26.5652
17.246	26.5709
17.264	26.5805
17.282	26.5936
17.3	26.61
17.318	26.6286
17.336	26.648
17.354	26.6675
17.372	26.6846
17.39	26.6985
17.408	26.707
17.426	26.7087
17.444	26.7028
17.462	26.6881
17.48	26.6646
17.498	26.6323
17.516	26.5923
17.534	26.545
17.552	26.4928
17.57	26.4365
17.588	26.3787
17.606	26.3206
17.624	26.2639
17.642	26.2101
17.66	26.1598
17.678	26.1137
17.696	26.0719
17.714	26.0343
17.732	26.0003
17.75	25.9695
17.768	25.941
17.786	25.9144
17.804	25.8889
17.822	25.8644
17.84	25.8407
17.858	25.818
17.876	25.7963
17.894	25.7766
17.912	25.7593
17.93	25.7453
17.948	25.7351
17.966	25.7298
17.984	25.7295
18.002	25.7348
18.02	25.7456
18.038	25.762
18.056	25.7832
18.074	25.809
18.092	25.8375
18.11	25.8684
18.128	25.8988
18.146	25.9281
18.164	25.9537
18.182	25.9744
18.2	25.9884
18.218	25.9944
18.236	25.9913
18.254	25.9784
18.272	25.9552
18.29	25.9221
18.308	25.8793
18.326	25.8282
18.344	25.7693
18.362	25.7052
18.38	25.6367
18.398	25.5664
18.416	25.4955
18.434	25.426
18.452	25.3593
18.47	25.2965
18.488	25.2384
18.506	25.1856
18.524	25.1381
18.542	25.0958
18.56	25.0579
18.578	25.0241
18.596	24.9931
18.614	24.9646
18.632	24.9371
18.65	24.9107
18.668	24.8843
18.686	24.8581
18.704	24.8317
18.722	24.8054
18.74	24.7796
18.758	24.7547
18.776	24.7314
18.794	24.7102
18.812	24.6922
18.83	24.6774
18.848	24.6663
18.866	24.6591
18.884	24.6561
18.902	24.6574
18.92	24.6628
18.938	24.6722
18.956	24.6856
18.974	24.7025
18.992	24.7226
19.01	24.7456
19.028	24.7714
19.046	24.7995
19.064	24.8298
19.082	24.8621
19.1	24.8958
19.118	24.9307
19.136	24.9661
19.154	25.0016
19.172	25.0363
19.19	25.0698
19.208	25.1006
19.226	25.1284
19.244	25.1515
19.262	25.1697
19.28	25.1813
19.298	25.1863
19.316	25.1835
19.334	25.173
19.352	25.1542
19.37	25.1272
19.388	25.093
19.406	25.0515
19.424	25.0045
19.442	24.9518
19.46	24.8956
19.478	24.8361
19.496	24.7749
19.514	24.7125
19.532	24.6501
19.55	24.5887
19.568	24.5283
19.586	24.4698
19.604	24.413
19.622	24.3582
19.64	24.3053
19.658	24.2537
19.676	24.2035
19.694	24.154
19.712	24.1053
19.73	24.0565
19.748	24.0077
19.766	23.9584
19.784	23.9084
19.802	23.8577
19.82	23.8061
19.838	23.7538
19.856	23.7006
19.874	23.6468
19.892	23.5926
19.91	23.5381
19.928	23.484
19.946	23.4301
19.964	23.3772
19.982	23.3252
20	23.2747
20.018	23.2259
20.036	23.1789
20.054	23.1342
20.072	23.0917
20.09	23.0516
20.108	23.0141
20.126	22.9791
20.144	22.9466
20.162	22.9167
20.18	22.8893
20.198	22.8644
20.216	22.8418
20.234	22.8216
20.252	22.8038
20.27	22.7884
20.288	22.7753
20.306	22.7645
20.324	22.7562
20.342	22.7503
20.36	22.747
20.378	22.7466
20.396	22.7491
20.414	22.7549
20.432	22.7639
20.45	22.7764
20.468	22.7924
20.486	22.8119
20.504	22.8346
20.522	22.8604
20.54	22.8887
20.558	22.9197
20.576	22.9522
20.594	22.9858
20.612	23.0198
20.63	23.0525
20.648	23.0843
20.666	23.1125
20.684	23.1375
20.702	23.1577
20.72	23.1721
20.738	23.1808
20.756	23.1823
20.774	23.1768
20.792	23.164
20.81	23.1435
20.828	23.1159
20.846	23.0815
20.864	23.0402
20.882	22.9938
20.9	22.9419
20.918	22.8862
20.936	22.8276
20.954	22.7663
20.972	22.7047
20.99	22.6424
21.008	22.5812
21.026	22.522
21.044	22.4649
21.062	22.4119
21.08	22.3624
21.098	22.3177
21.116	22.2779
21.134	22.2433
21.152	22.2143
21.17	22.1908
21.188	22.1727
21.206	22.1602
21.224	22.1528
21.242	22.1501
21.26	22.1523
21.278	22.1584
21.296	22.1686
21.314	22.1824
21.332	22.1992
21.35	22.2191
21.368	22.2412
21.386	22.2652
21.404	22.2908
21.422	22.3168
21.44	22.3435
21.458	22.37
21.476	22.3958
21.494	22.421
21.512	22.444
21.53	22.4654
21.548	22.4841
21.566	22.4993
21.584	22.5113
21.602	22.5182
21.62	22.5202
21.638	22.5168
21.656	22.5068
21.674	22.4908
21.692	22.4675
21.71	22.4365
21.728	22.398
21.746	22.3512
21.764	22.2963
21.782	22.2331
21.8	22.1616
21.818	22.0819
21.836	21.9946
21.854	21.8995
21.872	21.7974
21.89	21.6896
21.908	21.5753
21.926	21.4569
21.944	21.3358
21.962	21.2114
21.98	21.0871
21.998	20.9627
22.016	20.8392
22.034	20.7197
22.052	20.6032
22.07	20.4917
22.088	20.3866
22.106	20.2873
22.124	20.1954
22.142	20.1114
22.16	20.0348
22.178	19.9657
22.196	19.9046
22.214	19.8503
22.232	19.8015
22.25	19.7589
22.268	19.7206
22.286	19.6856
22.304	19.6543
22.322	19.6247
22.34	19.5964
22.358	19.5694
22.376	19.5425
22.394	19.5156
22.412	19.4888
22.43	19.4619
22.448	19.4346
22.466	19.4081
22.484	19.3832
22.502	19.3592
22.52	19.3386
22.538	19.3224
22.556	19.3099
22.574	19.3042
22.592	19.3054
22.61	19.3135
22.628	19.331
22.646	19.3576
22.664	19.3935
22.682	19.4403
22.7	19.4976
22.718	19.5653
22.736	19.6433
22.754	19.732
22.772	19.8298
22.79	19.9361
22.808	20.0515
22.826	20.1731
22.844	20.2994
22.862	20.4317
22.88	20.5657
22.898	20.6999
22.916	20.8356
22.934	20.9678
22.952	21.0951
22.97	21.2186
22.988	21.334
23.006	21.4409
23.024	21.5397
23.042	21.6269
23.06	21.7025
23.078	21.7666
23.096	21.8169
23.114	21.8534
23.132	21.8763
23.15	21.8846
23.168	21.8779
23.186	21.8569
23.204	21.823
23.222	21.7757
23.24	21.7157
23.258	21.6452
23.276	21.5635
23.294	21.4714
23.312	21.3713
23.33	21.2626
23.348	21.1459
23.366	21.0236
23.384	20.895
23.402	20.7609
23.42	20.6246
23.438	20.4861
23.456	20.3453
23.474	20.2044
23.492	20.0639
23.51	19.9232
23.528	19.7839
23.546	19.6462
23.564	19.5099
23.582	19.3752
23.6	19.2425
23.618	19.1116
23.636	18.9825
23.654	18.8555
23.672	18.7303
23.69	18.607
23.708	18.4851
23.726	18.3647
23.744	18.2461
23.762	18.1294
23.78	18.015
23.798	17.9018
23.816	17.7892
23.834	17.678
23.852	17.567
23.87	17.4543
23.888	17.3402
23.906	17.2248
23.924	17.107
23.942	16.9865
23.96	16.8638
23.978	16.7393
23.996	16.613
24.014	16.4848
24.032	16.3555
24.05	16.2252
24.068	16.0935
24.086	15.9617
24.104	15.831
24.122	15.7006
24.14	15.5713
24.158	15.4446
24.176	15.3196
24.194	15.1971
24.212	15.0794
24.23	14.9664
24.248	14.8578
24.266	14.7562
24.284	14.663
24.302	14.5761
24.32	14.4993
24.338	14.4356
24.356	14.383
24.374	14.3431
24.392	14.3188
24.41	14.3092
24.428	14.3145
24.446	14.3377
24.464	14.3798
24.482	14.4393
24.5	14.5188
24.518	14.6204
24.536	14.7424
24.554	14.886
24.572	15.0532
24.59	15.245
24.608	15.4597
24.626	15.695
24.644	15.9504
24.662	16.2269
24.68	16.5217
24.698	16.8324
24.716	17.162
24.734	17.5069
24.752	17.8621
24.77	18.2271
24.788	18.6035
24.806	18.9874
24.824	19.3762
24.842	19.7717
24.86	20.1731
24.878	20.5794
24.896	20.9902
24.914	21.4061
24.932	21.8275
24.95	22.2543
24.968	22.6857
24.986	23.1239
25.004	23.5712
25.022	24.0278
25.04	24.4926
25.058	24.9648
25.076	25.445
25.094	25.9339
25.112	26.4278
25.13	26.923
25.148	27.4257
25.166	27.93
25.184	28.4246
25.202	28.9064
25.22	29.3832
25.238	29.8408
25.256	30.2651
25.274	30.6678
25.292	31.042
25.31	31.3656
25.328	31.628
25.346	31.8459
25.364	31.9995
25.382	32.0659
25.4	32.0514
25.418	31.9587
25.436	31.7695
25.454	31.4697
25.472	31.0695
25.49	30.5664
25.508	29.9543
25.526	29.2281
25.544	28.3917
25.562	27.4536
25.58	26.4209
25.598	25.2807
25.616	24.0452
25.634	22.7384
25.652	21.3697
25.67	19.9151
25.688	18.4104
25.706	16.8975
25.724	15.3681
25.742	13.8095
25.76	12.273
25.778	10.8057
25.796	9.375132
25.814	7.993641
25.832	6.703843
25.85	5.533162
25.868	4.449793
25.886	3.475278
25.904	2.639200
25.922	1.951240
25.94	1.394690
25.958	0.977893
25.976	0.709645
25.994	0.592907
26.012	0.621069
26.03	0.787184
26.048	1.085996
26.066	1.527026
26.084	2.100363
26.102	2.790028
26.12	3.587727
26.138	4.509021
26.156	5.535913
26.174	6.646238
26.192	7.832270
26.21	9.107832
26.228	10.4597
26.246	11.8735
26.264	13.3533
26.282	14.9033
26.3	16.5058
26.318	18.1436
26.336	19.8323
26.354	21.5671
26.372	23.3192
26.39	25.063
26.408	26.8238
26.426	28.59
26.444	30.3282
26.462	32.013
26.48	33.6821
26.498	35.3089
26.516	36.8473
26.534	38.2644
26.552	39.5993
26.57	40.8307
26.588	41.9245
26.606	42.8572
26.624	43.6539
26.642	44.3067
26.66	44.8024
26.678	45.1297
26.696	45.2924
26.714	45.3029
26.732	45.1736
26.75	44.9016
26.768	44.4656
26.786	43.907
26.804	43.2712
26.822	42.5737
26.84	41.7724
26.858	40.912
26.876	40.0428
26.894	39.1859
26.912	38.298
26.93	37.4147
26.948	36.5774
26.966	35.7911
26.984	34.9981
27.002	34.2788
27.02	33.7237
27.028	33.5709