File: Bakgrunnsmateriale/MATLAB/FTIR/ftir_data/subBb/Mapping_121/C-4040-8_t83_cm-1.asc
PE IR       SPECTRUM    SPECTRUM    ASCII       PEDS        1.60
  -1
C-9DE1~1.ASC
17/03/27
21:17:15.00
17/03/27
21:17:15.00
tln
$C-4040-8_t0083$<tbV0>[0.0,5.2,8.0,0.0,27,1,0]
370
64

2002,4.07
MIRTGS : RIGHTBACK : INTERNAL 2
MIR : ON : INTERNAL 2
OPTKBR

0.200000
8
8.000000
FILLER
RATIO
SPECTRUM
UNLOCKED 256

DOUBLE
64
COMBINED
1
0
0

1.000000
RATIO

1
0
TRUE
51149
0
LEFT NOT FITTED RIGHT NOT FITTED 0
NONE
NONE
15600
12
4.427000
51148
TRUE
1 0 8 72 0 0 0 0

15798

#HDR
-1
-1
#GR
CM-1
%T
2.38419e-05
0.0
5000
-1.000000
4631
8
99.1874
39.4419
#DATA
5000	65.1747
4996	65.1195
4992	64.6924
4988	64.8043
4984	65.2862
4980	65.3966
4976	65.0982
4972	64.6279
4968	64.1862
4964	64.3938
4960	65.5028
4956	66.2729
4952	65.752
4948	64.8532
4944	64.5889
4940	64.7962
4936	64.852
4932	64.7917
4928	64.751
4924	64.4721
4920	64.4023
4916	64.7746
4912	65.0331
4908	65.1426
4904	65.2305
4900	65.4325
4896	65.8559
4892	65.8355
4888	65.1092
4884	64.4158
4880	64.4738
4876	65.3039
4872	65.7249
4868	65.1373
4864	64.6117
4860	64.6838
4856	64.9838
4852	65.1703
4848	65.244
4844	65.2121
4840	65.2313
4836	65.5174
4832	65.6038
4828	65.4385
4824	65.3964
4820	65.4341
4816	65.4043
4812	65.2203
4808	65.075
4804	65.0423
4800	64.8709
4796	64.663
4792	64.7058
4788	65.0923
4784	65.6244
4780	65.7361
4776	65.3436
4772	65.1978
4768	65.4092
4764	65.3822
4760	65.3097
4756	65.3286
4752	65.2615
4748	65.3542
4744	65.5097
4740	65.3859
4736	65.0659
4732	64.8218
4728	64.7701
4724	64.9483
4720	65.345
4716	65.6787
4712	65.6377
4708	65.439
4704	65.3024
4700	65.2474
4696	65.3685
4692	65.5004
4688	65.4873
4684	65.3915
4680	65.3904
4676	65.455
4672	65.4321
4668	65.3372
4664	65.1975
4660	65.1817
4656	65.2617
4652	65.274
4648	65.2469
4644	65.284
4640	65.5809
4636	65.8176
4632	65.6396
4628	65.4052
4624	65.382
4620	65.3531
4616	65.1108
4612	64.982
4608	65.0687
4604	65.03
4600	64.853
4596	64.6808
4592	64.83
4588	65.3239
4584	65.5681
4580	65.402
4576	65.3045
4572	65.3485
4568	65.1451
4564	64.9156
4560	65.0603
4556	65.1897
4552	65.1795
4548	65.2418
4544	65.2208
4540	65.1202
4536	65.0764
4532	65.4982
4528	66.1509
4524	65.7841
4520	64.965
4516	64.9447
4512	64.9809
4508	64.6416
4504	64.5271
4500	64.7107
4496	64.8584
4492	64.9214
4488	64.9976
4484	64.8703
4480	64.5034
4476	64.3785
4472	64.7092
4468	65.0369
4464	64.8142
4460	64.2877
4456	64.1761
4452	64.3612
4448	64.2506
4444	64.2635
4440	64.6387
4436	64.7391
4432	64.2705
4428	63.9982
4424	64.3634
4420	65.0043
4416	65.4178
4412	65.1262
4408	64.3603
4404	63.9059
4400	63.8384
4396	63.2626
4392	63.649
4388	69.5602
4384	91.313
4380	96.6763
4376	78.4196
4372	72.4642
4368	69.5212
4364	65.8588
4360	63.9618
4356	63.4371
4352	63.5308
4348	64.2092
4344	64.9049
4340	65.2021
4336	65.0918
4332	64.9694
4328	65.0748
4324	65.1543
4320	65.1068
4316	65.0021
4312	64.8608
4308	64.8009
4304	64.8699
4300	64.9724
4296	64.8772
4292	64.6559
4288	64.7631
4284	64.9339
4280	64.8852
4276	64.9355
4272	65.0205
4268	64.9455
4264	65.0289
4260	65.2529
4256	65.1516
4252	64.8635
4248	64.739
4244	64.6785
4240	64.5915
4236	64.6249
4232	64.7123
4228	64.7949
4224	64.8642
4220	64.817
4216	64.8932
4212	65.0285
4208	64.9328
4204	64.8618
4200	64.9239
4196	65.0038
4192	65.0881
4188	65.1892
4184	65.3061
4180	65.1756
4176	65.1363
4172	65.3819
4168	65.3051
4164	65.2349
4160	65.2894
4156	65.057
4152	64.9734
4148	65.1864
4144	65.3763
4140	65.4271
4136	65.2347
4132	65.0363
4128	65.0689
4124	65.1071
4120	65.1258
4116	65.1484
4112	65.1713
4108	65.2209
4104	65.1083
4100	65.064
4096	65.322
4092	65.3983
4088	65.2067
4084	65.1753
4080	65.2523
4076	65.2771
4072	65.1499
4068	65.0028
4064	65.112
4060	65.2764
4056	65.2921
4052	65.1753
4048	65.0358
4044	65.0769
4040	65.3611
4036	65.5638
4032	65.4713
4028	65.3108
4024	65.2562
4020	65.3157
4016	65.4185
4012	65.4053
4008	65.2633
4004	65.2803
4000	65.4282
3996	65.398
3992	65.2452
3988	65.2153
3984	65.3233
3980	65.3733
3976	65.3243
3972	65.3089
3968	65.2576
3964	65.0874
3960	65.0531
3956	65.1408
3952	65.0953
3948	65.107
3944	65.2485
3940	65.2206
3936	65.0442
3932	64.9678
3928	65.0575
3924	65.093
3920	65.0403
3916	65.2146
3912	65.4645
3908	65.4359
3904	65.2727
3900	65.2946
3896	65.4142
3892	65.4524
3888	65.445
3884	65.2693
3880	64.9633
3876	64.8544
3872	65.0407
3868	65.363
3864	65.5555
3860	65.3997
3856	65.154
3852	65.1694
3848	65.2326
3844	65.1651
3840	65.0936
3836	65.0725
3832	65.1173
3828	65.1424
3824	65.1689
3820	65.3246
3816	65.3149
3812	65.1246
3808	65.133
3804	65.2304
3800	65.2467
3796	65.1635
3792	65.0879
3788	65.1413
3784	65.2451
3780	65.263
3776	65.1548
3772	65.1009
3768	65.1207
3764	65.2442
3760	65.4542
3756	65.4497
3752	65.2794
3748	65.2122
3744	65.2355
3740	65.1915
3736	65.0632
3732	64.9737
3728	64.9866
3724	65.0902
3720	65.2365
3716	65.3562
3712	65.3807
3708	65.3086
3704	65.2674
3700	65.2906
3696	65.3342
3692	65.371
3688	65.3231
3684	65.2585
3680	65.2471
3676	65.2247
3672	65.2267
3668	65.3193
3664	65.4742
3660	65.5576
3656	65.4506
3652	65.2636
3648	65.1745
3644	65.2327
3640	65.3714
3636	65.4239
3632	65.3447
3628	65.334
3624	65.409
3620	65.4057
3616	65.3865
3612	65.3148
3608	65.1609
3604	65.1427
3600	65.236
3596	65.333
3592	65.4218
3588	65.4236
3584	65.3302
3580	65.2146
3576	65.1534
3572	65.2101
3568	65.3051
3564	65.2978
3560	65.2896
3556	65.3675
3552	65.3611
3548	65.2109
3544	65.147
3540	65.2652
3536	65.4173
3532	65.4614
3528	65.3426
3524	65.2011
3520	65.237
3516	65.3307
3512	65.2858
3508	65.2255
3504	65.3046
3500	65.3955
3496	65.3144
3492	65.1446
3488	65.0718
3484	65.1635
3480	65.3652
3476	65.4855
3472	65.4304
3468	65.2377
3464	65.0348
3460	65.0635
3456	65.2265
3452	65.3504
3448	65.4499
3444	65.445
3440	65.456
3436	65.5112
3432	65.3309
3428	65.0585
3424	65.1024
3420	65.3672
3416	65.5195
3412	65.4887
3408	65.3959
3404	65.2562
3400	65.1174
3396	65.1612
3392	65.2961
3388	65.3913
3384	65.4574
3380	65.4263
3376	65.2673
3372	65.1102
3368	65.0811
3364	65.1962
3360	65.3154
3356	65.2675
3352	65.2216
3348	65.2745
3344	65.2625
3340	65.2645
3336	65.3452
3332	65.3481
3328	65.2592
3324	65.2018
3320	65.2433
3316	65.3054
3312	65.2948
3308	65.2829
3304	65.3465
3300	65.43
3296	65.4132
3292	65.3332
3288	65.3519
3284	65.3822
3280	65.3131
3276	65.2595
3272	65.2338
3268	65.2239
3264	65.1947
3260	65.1818
3256	65.3586
3252	65.4339
3248	65.2468
3244	65.1641
3240	65.2495
3236	65.3566
3232	65.3974
3228	65.3859
3224	65.3923
3220	65.3457
3216	65.2756
3212	65.3047
3208	65.3962
3204	65.398
3200	65.2942
3196	65.2421
3192	65.2945
3188	65.3307
3184	65.2456
3180	65.1416
3176	65.091
3172	65.0826
3168	65.1709
3164	65.273
3160	65.3065
3156	65.3332
3152	65.3528
3148	65.3688
3144	65.4305
3140	65.4038
3136	65.293
3132	65.3028
3128	65.2989
3124	65.171
3120	65.1111
3116	65.1637
3112	65.2825
3108	65.3113
3104	65.2176
3100	65.2659
3096	65.3786
3092	65.3241
3088	65.2153
3084	65.1527
3080	65.0968
3076	65.1798
3072	65.3341
3068	65.3166
3064	65.232
3060	65.2554
3056	65.359
3052	65.3734
3048	65.2524
3044	65.1755
3040	65.1924
3036	65.2533
3032	65.3307
3028	65.2951
3024	65.2144
3020	65.2428
3016	65.2815
3012	65.2446
3008	65.1748
3004	65.1113
3000	65.1055
2996	65.1442
2992	65.1331
2988	65.1278
2984	65.2122
2980	65.2639
2976	65.174
2972	65.0751
2968	65.1195
2964	65.2251
2960	65.2611
2956	65.2409
2952	65.1777
2948	65.1355
2944	65.1562
2940	65.1111
2936	65.0433
2932	65.087
2928	65.1651
2924	65.104
2920	64.9382
2916	64.9148
2912	65.033
2908	65.1596
2904	65.2112
2900	65.1834
2896	65.1911
2892	65.231
2888	65.2717
2884	65.2663
2880	65.1349
2876	65.0545
2872	65.1664
2868	65.3671
2864	65.4957
2860	65.3722
2856	65.1337
2852	65.0707
2848	65.1596
2844	65.2435
2840	65.2401
2836	65.2152
2832	65.2365
2828	65.2746
2824	65.2987
2820	65.3231
2816	65.3547
2812	65.3299
2808	65.2707
2804	65.2694
2800	65.3054
2796	65.2923
2792	65.2602
2788	65.2847
2784	65.3796
2780	65.4713
2776	65.4486
2772	65.36
2768	65.2752
2764	65.2645
2760	65.3559
2756	65.4114
2752	65.3882
2748	65.3729
2744	65.3528
2740	65.2969
2736	65.3032
2732	65.322
2728	65.2995
2724	65.3533
2720	65.4673
2716	65.4886
2712	65.3904
2708	65.4057
2704	65.4856
2700	65.3929
2696	65.2578
2692	65.2349
2688	65.3072
2684	65.3608
2680	65.3481
2676	65.3563
2672	65.3988
2668	65.4092
2664	65.3505
2660	65.2654
2656	65.2226
2652	65.2693
2648	65.3957
2644	65.4692
2640	65.431
2636	65.3583
2632	65.3164
2628	65.3247
2624	65.335
2620	65.2984
2616	65.2526
2612	65.2574
2608	65.2836
2604	65.3053
2600	65.2917
2596	65.2285
2592	65.2077
2588	65.2395
2584	65.2895
2580	65.3162
2576	65.2825
2572	65.2448
2568	65.2456
2564	65.3221
2560	65.4346
2556	65.4675
2552	65.3873
2548	65.2543
2544	65.2083
2540	65.2643
2536	65.3093
2532	65.3235
2528	65.3003
2524	65.2518
2520	65.3274
2516	65.5426
2512	65.6378
2508	65.4904
2504	65.2489
2500	65.1003
2496	65.1734
2492	65.4225
2488	65.5409
2484	65.4496
2480	65.4221
2476	65.4632
2472	65.4284
2468	65.3974
2464	65.4602
2460	65.5147
2456	65.5081
2452	65.5193
2448	65.51
2444	65.4027
2440	65.2243
2436	65.1823
2432	65.4323
2428	65.6975
2424	65.5903
2420	65.3377
2416	65.3462
2412	65.3699
2408	65.2876
2404	65.3121
2400	65.431
2396	65.5424
2392	65.5287
2388	65.4207
2384	65.3915
2380	65.466
2376	65.4587
2372	65.3506
2368	65.3131
2364	65.3224
2360	65.3484
2356	65.4022
2352	65.421
2348	65.4035
2344	65.3824
2340	65.345
2336	65.2915
2332	65.3116
2328	65.2841
2324	65.1527
2320	65.2177
2316	65.4154
2312	65.4357
2308	65.3607
2304	65.3651
2300	65.4147
2296	65.4474
2292	65.4151
2288	65.3752
2284	65.4192
2280	65.4348
2276	65.3307
2272	65.2144
2268	65.2167
2264	65.3025
2260	65.3527
2256	65.3544
2252	65.363
2248	65.4001
2244	65.4104
2240	65.3937
2236	65.4231
2232	65.461
2228	65.4622
2224	65.466
2220	65.4529
2216	65.4001
2212	65.3549
2208	65.3205
2204	65.3212
2200	65.4239
2196	65.4721
2192	65.3683
2188	65.3161
2184	65.3639
2180	65.404
2176	65.4145
2172	65.3542
2168	65.1975
2164	65.1767
2160	65.4287
2156	65.5915
2152	65.3902
2148	65.115
2144	65.0865
2140	65.1313
2136	65.177
2132	65.3662
2128	65.489
2124	65.4681
2120	65.4627
2116	65.4051
2112	65.2936
2108	65.2624
2104	65.3492
2100	65.4806
2096	65.5426
2092	65.5013
2088	65.4588
2084	65.5167
2080	65.5302
2076	65.3913
2072	65.4939
2068	65.7928
2064	65.6732
2060	65.3318
2056	65.14
2052	65.1494
2048	65.333
2044	65.4319
2040	65.3999
2036	65.3443
2032	65.3747
2028	65.4916
2024	65.5267
2020	65.4949
2016	65.4589
2012	65.382
2008	65.3306
2004	65.291
2000	65.2538
1996	65.3405
1992	65.4203
1988	65.3768
1984	65.3214
1980	65.2706
1976	65.2468
1972	65.3092
1968	65.3449
1964	65.2497
1960	65.2152
1956	65.3076
1952	65.3388
1948	65.3215
1944	65.3197
1940	65.2961
1936	65.2818
1932	65.3517
1928	65.4377
1924	65.4557
1920	65.4073
1916	65.3276
1912	65.3075
1908	65.3544
1904	65.3518
1900	65.2831
1896	65.2789
1892	65.2923
1888	65.2703
1884	65.3148
1880	65.4227
1876	65.4884
1872	65.4616
1868	65.4266
1864	65.4312
1860	65.424
1856	65.3863
1852	65.3455
1848	65.3479
1844	65.3785
1840	65.3686
1836	65.3523
1832	65.3823
1828	65.3865
1824	65.3673
1820	65.4296
1816	65.4833
1812	65.4331
1808	65.3851
1804	65.3948
1800	65.4525
1796	65.4571
1792	65.3545
1788	65.3143
1784	65.3738
1780	65.3784
1776	65.3012
1772	65.2719
1768	65.3044
1764	65.3148
1760	65.3393
1756	65.3603
1752	65.2981
1748	65.2074
1744	65.1611
1740	65.1433
1736	65.1402
1732	65.1674
1728	65.2086
1724	65.1519
1720	65.1132
1716	65.2041
1712	65.0836
1708	64.9224
1704	65.1381
1700	65.395
1696	65.3981
1692	65.3387
1688	65.3322
1684	65.3343
1680	65.3156
1676	65.2965
1672	65.3487
1668	65.4487
1664	65.488
1660	65.4486
1656	65.4032
1652	65.3919
1648	65.366
1644	65.301
1640	65.2392
1636	65.2478
1632	65.3121
1628	65.3108
1624	65.2593
1620	65.2653
1616	65.25
1612	65.1089
1608	65.0144
1604	65.1078
1600	65.2068
1596	65.2007
1592	65.1889
1588	65.2128
1584	65.2096
1580	65.1346
1576	65.0563
1572	65.0451
1568	65.065
1564	65.0689
1560	65.0933
1556	65.142
1552	65.1318
1548	65.1035
1544	65.1051
1540	65.0874
1536	65.1093
1532	65.1825
1528	65.2371
1524	65.2578
1520	65.1839
1516	65.0917
1512	65.1619
1508	65.3028
1504	65.2946
1500	65.1595
1496	65.0651
1492	65.0851
1488	65.1438
1484	65.1598
1480	65.189
1476	65.2123
1472	65.1674
1468	65.1096
1464	65.1392
1460	65.2959
1456	65.3502
1452	65.193
1448	65.0516
1444	65.0426
1440	65.2341
1436	65.4152
1432	65.3055
1428	65.1761
1424	65.2027
1420	65.2528
1416	65.2923
1412	65.2885
1408	65.2331
1404	65.1753
1400	65.1564
1396	65.1821
1392	65.1932
1388	65.1823
1384	65.1845
1380	65.2345
1376	65.2925
1372	65.2569
1368	65.1261
1364	65.0328
1360	65.0624
1356	65.0539
1352	64.9795
1348	65.0157
1344	65.1394
1340	65.2294
1336	65.2112
1332	65.1205
1328	65.041
1324	65.0255
1320	65.0807
1316	65.0959
1312	65.0682
1308	65.0725
1304	65.0908
1300	65.106
1296	65.0999
1292	65.105
1288	65.1649
1284	65.2564
1280	65.2976
1276	65.2144
1272	65.0976
1268	65.062
1264	65.0578
1260	64.994
1256	64.9409
1252	65.0003
1248	65.0769
1244	65.0272
1240	64.94
1236	64.9935
1232	65.0745
1228	65.0006
1224	64.9104
1220	64.9624
1216	65.058
1212	65.1233
1208	65.1727
1204	65.1635
1200	65.0659
1196	65.0379
1192	65.1408
1188	65.1471
1184	65.0284
1180	64.9247
1176	64.8565
1172	64.8585
1168	65.0066
1164	65.1485
1160	65.1199
1156	65.0785
1152	65.0268
1148	64.8556
1144	64.7216
1140	64.7246
1136	64.8256
1132	65.0033
1128	65.1038
1124	65.0163
1120	64.9484
1116	64.9089
1112	64.7057
1108	64.5991
1104	64.8175
1100	65.0052
1096	64.9002
1092	64.8689
1088	64.9961
1084	64.9487
1080	64.8433
1076	64.7617
1072	64.6642
1068	64.6834
1064	64.7171
1060	64.7273
1056	64.7864
1052	64.7136
1048	64.6782
1044	64.9418
1040	65.1339
1036	65.0649
1032	64.9215
1028	64.8759
1024	64.8531
1020	64.714
1016	64.6702
1012	64.6726
1008	64.5583
1004	64.552
1000	64.6855
996	 64.8103
992	 64.895
988	 64.8407
984	 64.7088
980	 64.7445
976	 64.8982
972	 65.0058
968	 64.9076
964	 64.6262
960	 64.5074
956	 64.6768
952	 65.0018
948	 65.3009
944	 65.4548
940	 65.3942
936	 65.1582
932	 64.8182
928	 64.5817
924	 64.7269
920	 65.0206
916	 64.9371
912	 64.5763
908	 64.5351
904	 64.7509
900	 64.8203
896	 64.6382
892	 64.3798
888	 64.3646
884	 64.5618
880	 64.6279
876	 64.5318
872	 64.3868
868	 64.2927
864	 64.4023
860	 64.4632
856	 64.3756
852	 64.4279
848	 64.7088
844	 65.0091
840	 65.0548
836	 64.836
832	 64.6461
828	 64.6576
824	 64.6511
820	 64.5614
816	 64.6219
812	 64.6615
808	 64.3707
804	 64.0853
800	 64.0767
796	 64.0387
792	 64.0725
788	 64.3631
784	 64.6272
780	 64.5934
776	 64.3234
772	 64.1555
768	 64.164
764	 64.1327
760	 64.0205
756	 63.8937
752	 63.8558
748	 64.0195
744	 64.1467
740	 63.9982
736	 63.8789
732	 63.993
728	 64.1405
724	 64.1422
720	 63.9233
716	 63.6693
712	 63.5288
708	 63.4144
704	 63.4487
700	 63.7122
696	 63.9067
692	 63.7113
688	 63.48
684	 63.5275
680	 63.5169
676	 63.4306
672	 63.4522
668	 63.5507
664	 63.6056
660	 63.4641
656	 63.2858
652	 63.3064
648	 63.3696
644	 63.3353
640	 63.2302
636	 63.0919
632	 63.0366
628	 63.0269
624	 63.0543
620	 63.0537
616	 62.9044
612	 62.8981
608	 63.0592
604	 63.3245
600	 63.4358
596	 63.1528
592	 63.0894
588	 63.2847
584	 63.346
580	 63.3038
576	 63.1912
572	 63.1387
568	 63.0922
564	 62.6742
560	 62.067
556	 61.9085
552	 62.0374
548	 62.164
544	 62.3223
540	 62.2358
536	 61.8538
532	 61.4524
528	 61.4533
524	 61.6949
520	 61.7975
516	 61.7178
512	 61.4317
508	 61.3988
504	 61.4692
500	 61.0679
496	 60.5465
492	 60.3547
488	 60.7632
484	 61.828
480	 62.1608
476	 61.0461
472	 59.9048
468	 59.2748
464	 58.3851
460	 57.8142
456	 58.9083
452	 60.0543
448	 59.4936
444	 58.805
440	 58.7255
436	 57.751
432	 56.4376
428	 55.8834
424	 55.1719
420	 55.9321
416	 57.9795
412	 57.7678
408	 58.4869
404	 63.0057
400	 56.978
396	 41.583
392	 42.4829
388	 54.1409
384	 56.944
380	 52.3037
376	 67.4737
372	 91.5367
370	 92.7982