File: Bakgrunnsmateriale/MATLAB/FTIR/ftir_data/subBb/Mapping_121/C-4040-8_t70_cm-1.asc
PE IR       SPECTRUM    SPECTRUM    ASCII       PEDS        1.60
  -1
C-1D61~1.ASC
17/03/27
20:16:39.00
17/03/27
20:16:39.00
tln
$C-4040-8_t0070$<tbV0>[5.2,2.6,8.0,0.0,27,1,0]
370
64

2002,4.07
MIRTGS : RIGHTBACK : INTERNAL 2
MIR : ON : INTERNAL 2
OPTKBR

0.200000
8
8.000000
FILLER
RATIO
SPECTRUM
UNLOCKED 256

DOUBLE
64
COMBINED
1
0
0

1.000000
RATIO

1
0
TRUE
51149
0
LEFT NOT FITTED RIGHT NOT FITTED 0
NONE
NONE
15600
12
4.427000
51148
TRUE
1 0 8 72 0 0 0 0

15798

#HDR
-1
-1
#GR
CM-1
%T
2.38419e-05
0.0
5000
-1.000000
4631
8
88.0222
28.672
#DATA
5000	65.1682
4996	65.3232
4992	65.2539
4988	65.0969
4984	65.1109
4980	65.1377
4976	65.2304
4972	65.1062
4968	64.2761
4964	63.7432
4960	64.2743
4956	65.1291
4952	65.7505
4948	65.8927
4944	65.5029
4940	65.2207
4936	65.0435
4932	64.8702
4928	64.9874
4924	65.0437
4920	64.895
4916	64.721
4912	64.5234
4908	64.4082
4904	64.5993
4900	64.924
4896	64.8407
4892	64.529
4888	64.4169
4884	64.4706
4880	64.8134
4876	65.274
4872	65.2327
4868	64.7967
4864	64.6051
4860	64.8022
4856	64.9156
4852	64.7495
4848	64.8358
4844	65.1516
4840	65.2898
4836	65.2827
4832	65.0816
4828	64.7351
4824	64.6013
4820	64.8865
4816	65.2013
4812	65.0889
4808	64.8667
4804	64.932
4800	65.0334
4796	64.8767
4792	64.6518
4788	64.6967
4784	65.0221
4780	65.2354
4776	65.1368
4772	65.0151
4768	65.0459
4764	65.0479
4760	64.9817
4756	64.9516
4752	64.9074
4748	65.0376
4744	65.3018
4740	65.3199
4736	65.0866
4732	64.788
4728	64.6611
4724	64.8031
4720	65.1163
4716	65.4128
4712	65.5165
4708	65.4801
4704	65.3456
4700	65.2234
4696	65.2201
4692	65.264
4688	65.3013
4684	65.3382
4680	65.3368
4676	65.1395
4672	64.8759
4668	64.7439
4664	64.7712
4660	64.9739
4656	65.1071
4652	65.1079
4648	65.068
4644	65.0278
4640	65.1741
4636	65.3687
4632	65.3804
4628	65.2747
4624	65.2428
4620	65.2174
4616	65.0667
4612	65.0777
4608	65.2215
4604	65.1709
4600	65.0461
4596	65.1035
4592	65.2369
4588	65.1008
4584	64.7546
4580	64.6286
4576	64.7614
4572	64.8861
4568	64.9341
4564	64.9317
4560	64.9199
4556	64.9825
4552	65.232
4548	65.4883
4544	65.4426
4540	65.4574
4536	65.6814
4532	65.5669
4528	65.2611
4524	64.9728
4520	64.5487
4516	64.5263
4512	64.884
4508	64.955
4504	64.9247
4500	64.9436
4496	64.775
4492	64.6177
4488	64.5867
4484	64.5289
4480	64.4671
4476	64.3385
4472	64.1577
4468	64.1768
4464	64.3101
4460	64.4078
4456	64.5146
4452	64.7249
4448	64.795
4444	64.4936
4440	64.3561
4436	64.4939
4432	64.5665
4428	64.5386
4424	64.2934
4420	64.1113
4416	64.0707
4412	63.8448
4408	63.496
4404	63.5385
4400	63.6862
4396	63.3273
4392	62.7916
4388	66.8489
4384	82.0187
4380	87.0812
4376	79.0654
4372	74.2823
4368	67.832
4364	64.9518
4360	64.5164
4356	64.1834
4352	64.0114
4348	63.8571
4344	64.5172
4340	65.2519
4336	65.0973
4332	64.8036
4328	64.8894
4324	65.0196
4320	65.0525
4316	64.9629
4312	64.7828
4308	64.5546
4304	64.4589
4300	64.643
4296	64.9313
4292	64.9656
4288	64.7206
4284	64.566
4280	64.6727
4276	64.7048
4272	64.6077
4268	64.6363
4264	64.879
4260	65.1824
4256	65.2535
4252	65.0906
4248	64.8911
4244	64.8381
4240	64.9069
4236	64.9619
4232	64.9711
4228	64.9716
4224	64.9774
4220	64.8916
4216	64.7088
4212	64.7174
4208	64.8897
4204	65.0118
4200	65.1153
4196	64.8645
4192	64.5494
4188	64.8462
4184	65.0321
4180	64.8535
4176	65.1739
4172	65.6743
4168	65.8483
4164	65.7641
4160	65.4247
4156	65.1334
4152	65.0048
4148	64.9858
4144	65.0239
4140	64.9075
4136	64.7964
4132	65.0075
4128	65.2716
4124	65.2813
4120	65.254
4116	65.2788
4112	65.1743
4108	65.096
4104	65.192
4100	65.2099
4096	65.1841
4092	65.2781
4088	65.388
4084	65.3892
4080	65.2026
4076	64.9331
4072	64.8449
4068	64.9827
4064	65.1974
4060	65.3832
4056	65.4705
4052	65.3666
4048	65.1077
4044	64.996
4040	65.1677
4036	65.4107
4032	65.5241
4028	65.4864
4024	65.3949
4020	65.3577
4016	65.4322
4012	65.5327
4008	65.4677
4004	65.2338
4000	65.1018
3996	65.2682
3992	65.4857
3988	65.4649
3984	65.4276
3980	65.5416
3976	65.5216
3972	65.328
3968	65.2509
3964	65.3277
3960	65.3997
3956	65.3337
3952	65.1788
3948	65.1357
3944	65.1526
3940	65.0857
3936	65.1
3932	65.2059
3928	65.2412
3924	65.2844
3920	65.3867
3916	65.4416
3912	65.3968
3908	65.3787
3904	65.413
3900	65.3574
3896	65.229
3892	65.2781
3888	65.4162
3884	65.2732
3880	65.0724
3876	65.0847
3872	65.1528
3868	65.2621
3864	65.2981
3860	65.0684
3856	64.9057
3852	65.0741
3848	65.3225
3844	65.3945
3840	65.2085
3836	65.04
3832	65.1924
3828	65.4485
3824	65.6366
3820	65.8005
3816	65.7183
3812	65.4468
3808	65.324
3804	65.3064
3800	65.3062
3796	65.2163
3792	65.0359
3788	65.0038
3784	65.1704
3780	65.2942
3776	65.2215
3772	65.2027
3768	65.3077
3764	65.3269
3760	65.2799
3756	65.2737
3752	65.2634
3748	65.2063
3744	65.189
3740	65.1933
3736	65.1383
3732	65.1432
3728	65.2366
3724	65.3116
3720	65.3807
3716	65.4299
3712	65.3988
3708	65.2497
3704	65.1239
3700	65.1469
3696	65.1754
3692	65.2098
3688	65.3213
3684	65.3747
3680	65.3319
3676	65.3385
3672	65.4069
3668	65.4457
3664	65.395
3660	65.2928
3656	65.2719
3652	65.2896
3648	65.2694
3644	65.3147
3640	65.4322
3636	65.3934
3632	65.2069
3628	65.1978
3624	65.3099
3620	65.3314
3616	65.3403
3612	65.3388
3608	65.262
3604	65.1939
3600	65.2382
3596	65.2828
3592	65.2085
3588	65.1813
3584	65.2834
3580	65.3481
3576	65.3055
3572	65.2766
3568	65.326
3564	65.3248
3560	65.2617
3556	65.2398
3552	65.2282
3548	65.2382
3544	65.3061
3540	65.3636
3536	65.4047
3532	65.3956
3528	65.3233
3524	65.3008
3520	65.3365
3516	65.355
3512	65.266
3508	65.1791
3504	65.2472
3500	65.2865
3496	65.2661
3492	65.351
3488	65.369
3484	65.2348
3480	65.1287
3476	65.1577
3472	65.1846
3468	65.0243
3464	64.9119
3460	65.035
3456	65.2538
3452	65.3643
3448	65.2982
3444	65.2808
3440	65.3399
3436	65.3182
3432	65.1196
3428	64.8448
3424	64.8451
3420	65.0958
3416	65.3582
3412	65.4883
3408	65.3803
3404	65.1479
3400	64.9893
3396	64.991
3392	65.1019
3388	65.2526
3384	65.3586
3380	65.3316
3376	65.259
3372	65.2193
3368	65.1966
3364	65.1951
3360	65.2317
3356	65.3113
3352	65.4301
3348	65.5355
3344	65.4929
3340	65.3525
3336	65.2749
3332	65.2291
3328	65.197
3324	65.1938
3320	65.1723
3316	65.1488
3312	65.1949
3308	65.3237
3304	65.4389
3300	65.5188
3296	65.5517
3292	65.5149
3288	65.4602
3284	65.3829
3280	65.3055
3276	65.2504
3272	65.2221
3268	65.2534
3264	65.2557
3260	65.2419
3256	65.32
3252	65.3961
3248	65.3884
3244	65.2552
3240	65.0812
3236	65.1044
3232	65.2326
3228	65.2324
3224	65.1028
3220	65.0159
3216	65.0828
3212	65.1461
3208	65.1579
3204	65.2171
3200	65.3473
3196	65.4723
3192	65.4322
3188	65.2909
3184	65.2408
3180	65.2537
3176	65.297
3172	65.4052
3168	65.4204
3164	65.3254
3160	65.2788
3156	65.3101
3152	65.3486
3148	65.3445
3144	65.3738
3140	65.3682
3136	65.2721
3132	65.2292
3128	65.243
3124	65.2193
3120	65.2356
3116	65.2682
3112	65.1865
3108	65.1452
3104	65.2692
3100	65.4258
3096	65.4519
3092	65.3588
3088	65.2775
3084	65.2428
3080	65.2112
3076	65.2394
3072	65.3141
3068	65.3179
3064	65.2805
3060	65.2954
3056	65.39
3052	65.3869
3048	65.2366
3044	65.1917
3040	65.2284
3036	65.2718
3032	65.3445
3028	65.2975
3024	65.2359
3020	65.2616
3016	65.2609
3012	65.2784
3008	65.2636
3004	65.1391
3000	65.0698
2996	65.1204
2992	65.1997
2988	65.2432
2984	65.2412
2980	65.2455
2976	65.1389
2972	64.9526
2968	64.9947
2964	65.1439
2960	65.1288
2956	65.0298
2952	65.0086
2948	65.1023
2944	65.1819
2940	65.134
2936	65.0303
2932	64.9619
2928	64.9138
2924	64.889
2920	64.9277
2916	65.0134
2912	65.063
2908	65.0768
2904	65.1294
2900	65.2053
2896	65.2416
2892	65.2227
2888	65.227
2884	65.2406
2880	65.2339
2876	65.2647
2872	65.2971
2868	65.3432
2864	65.4008
2860	65.4497
2856	65.4468
2852	65.3385
2848	65.2577
2844	65.2797
2840	65.3466
2836	65.3801
2832	65.3635
2828	65.3658
2824	65.4038
2820	65.5054
2816	65.5801
2812	65.4716
2808	65.3908
2804	65.459
2800	65.427
2796	65.2962
2792	65.2748
2788	65.3401
2784	65.3652
2780	65.3632
2776	65.3886
2772	65.3972
2768	65.3605
2764	65.3568
2760	65.3969
2756	65.4409
2752	65.4664
2748	65.4613
2744	65.4635
2740	65.4518
2736	65.3824
2732	65.2826
2728	65.2477
2724	65.3003
2720	65.392
2716	65.5051
2712	65.5813
2708	65.6105
2704	65.5806
2700	65.4697
2696	65.3719
2692	65.3597
2688	65.4106
2684	65.4398
2680	65.4268
2676	65.42
2672	65.3973
2668	65.351
2664	65.3018
2660	65.3062
2656	65.3802
2652	65.3778
2648	65.2941
2644	65.2747
2640	65.358
2636	65.483
2632	65.5322
2628	65.4841
2624	65.4699
2620	65.5113
2616	65.5033
2612	65.4633
2608	65.4361
2604	65.4074
2600	65.3685
2596	65.3433
2592	65.3311
2588	65.3002
2584	65.3207
2580	65.4085
2576	65.4429
2572	65.3877
2568	65.3304
2564	65.3608
2560	65.3774
2556	65.3093
2552	65.2587
2548	65.266
2544	65.2879
2540	65.2756
2536	65.2824
2532	65.3334
2528	65.332
2524	65.3212
2520	65.383
2516	65.4239
2512	65.4195
2508	65.4096
2504	65.3548
2500	65.3299
2496	65.4028
2492	65.4181
2488	65.3351
2484	65.3093
2480	65.3711
2476	65.4481
2472	65.5154
2468	65.5193
2464	65.5094
2460	65.5282
2456	65.5161
2452	65.5265
2448	65.5261
2444	65.4087
2440	65.2426
2436	65.1807
2432	65.1513
2428	65.07
2424	65.1176
2420	65.1863
2416	65.16
2412	65.2245
2408	65.3523
2404	65.4155
2400	65.3543
2396	65.248
2392	65.2551
2388	65.3239
2384	65.3397
2380	65.31
2376	65.2657
2372	65.2321
2368	65.2737
2364	65.3728
2360	65.4606
2356	65.5232
2352	65.5043
2348	65.443
2344	65.431
2340	65.4197
2336	65.3813
2332	65.3793
2328	65.379
2324	65.3629
2320	65.4675
2316	65.6089
2312	65.609
2308	65.544
2304	65.5013
2300	65.4769
2296	65.4364
2292	65.3891
2288	65.3811
2284	65.4119
2280	65.4445
2276	65.4259
2272	65.3495
2268	65.3063
2264	65.3578
2260	65.4033
2256	65.3994
2252	65.411
2248	65.4062
2244	65.3988
2240	65.4284
2236	65.4241
2232	65.406
2228	65.4348
2224	65.4307
2220	65.3786
2216	65.3683
2212	65.3882
2208	65.3517
2204	65.2795
2200	65.2988
2196	65.3954
2192	65.4378
2188	65.4199
2184	65.4227
2180	65.4189
2176	65.3723
2172	65.3325
2168	65.3369
2164	65.4079
2160	65.4291
2156	65.349
2152	65.3088
2148	65.3324
2144	65.3617
2140	65.3739
2136	65.3913
2132	65.4391
2128	65.4241
2124	65.3463
2120	65.3612
2116	65.4351
2112	65.4329
2108	65.3926
2104	65.4045
2100	65.4618
2096	65.4793
2092	65.4384
2088	65.4073
2084	65.2912
2080	65.1621
2076	65.2319
2072	65.3674
2068	65.4022
2064	65.3432
2060	65.2566
2056	65.1971
2052	65.2422
2048	65.3599
2044	65.4114
2040	65.4116
2036	65.4377
2032	65.4883
2028	65.5363
2024	65.5355
2020	65.4657
2016	65.4382
2012	65.4534
2008	65.405
2004	65.315
2000	65.259
1996	65.2973
1992	65.3479
1988	65.3366
1984	65.303
1980	65.2277
1976	65.1809
1972	65.2498
1968	65.3625
1964	65.4409
1960	65.4905
1956	65.5048
1952	65.4558
1948	65.3667
1944	65.306
1940	65.3313
1936	65.3975
1932	65.4859
1928	65.5735
1924	65.5449
1920	65.4332
1916	65.3643
1912	65.3338
1908	65.3003
1904	65.2514
1900	65.2377
1896	65.3482
1892	65.4337
1888	65.4005
1884	65.3744
1880	65.375
1876	65.4179
1872	65.4743
1868	65.4782
1864	65.462
1860	65.4449
1856	65.4109
1852	65.3687
1848	65.3779
1844	65.4279
1840	65.4322
1836	65.422
1832	65.4621
1828	65.5158
1824	65.5547
1820	65.5775
1816	65.5317
1812	65.4492
1808	65.3811
1804	65.3414
1800	65.3702
1796	65.414
1792	65.4103
1788	65.4072
1784	65.42
1780	65.3965
1776	65.4046
1772	65.4009
1768	65.2761
1764	65.2081
1760	65.3077
1756	65.3973
1752	65.3672
1748	65.2862
1744	65.2526
1740	65.2575
1736	65.2289
1732	65.1895
1728	65.1949
1724	65.2118
1720	65.1948
1716	65.2344
1712	65.2415
1708	65.2207
1704	65.3599
1700	65.4171
1696	65.3302
1692	65.3071
1688	65.3048
1684	65.3054
1680	65.349
1676	65.4104
1672	65.4303
1668	65.4271
1664	65.4598
1660	65.4626
1656	65.3954
1652	65.3572
1648	65.3849
1644	65.4105
1640	65.371
1636	65.2971
1632	65.2568
1628	65.2139
1624	65.1671
1620	65.1304
1616	65.1015
1612	65.111
1608	65.1512
1604	65.2188
1600	65.2527
1596	65.1906
1592	65.1379
1588	65.1526
1584	65.1751
1580	65.1838
1576	65.1504
1572	65.0783
1568	65.0667
1564	65.1
1560	65.0878
1556	65.0663
1552	65.0566
1548	65.0655
1544	65.1071
1540	65.1211
1536	65.1195
1532	65.1312
1528	65.1581
1524	65.1778
1520	65.1562
1516	65.115
1512	65.1136
1508	65.1741
1504	65.2357
1500	65.2797
1496	65.3111
1492	65.3303
1488	65.3514
1484	65.3482
1480	65.3074
1476	65.2481
1472	65.2038
1468	65.1546
1464	65.1195
1460	65.2045
1456	65.3147
1452	65.2017
1448	64.9096
1444	64.7631
1440	64.8953
1436	65.099
1432	65.2068
1428	65.2399
1424	65.2232
1420	65.1855
1416	65.132
1412	65.1315
1408	65.1923
1404	65.2131
1400	65.2378
1396	65.2459
1392	65.1799
1388	65.1351
1384	65.1512
1380	65.1918
1376	65.1998
1372	65.1555
1368	65.1443
1364	65.1432
1360	65.1034
1356	65.084
1352	65.1103
1348	65.1435
1344	65.1231
1340	65.1134
1336	65.1463
1332	65.156
1328	65.1155
1324	65.0377
1320	64.9668
1316	64.9407
1312	65.0128
1308	65.1143
1304	65.1517
1300	65.1507
1296	65.1488
1292	65.1875
1288	65.228
1284	65.2025
1280	65.1395
1276	65.11
1272	65.1081
1268	65.1387
1264	65.1922
1260	65.0926
1256	64.9363
1252	64.976
1248	65.0371
1244	64.9662
1240	64.9212
1236	64.948
1232	64.9187
1228	64.8508
1224	64.8912
1220	64.9537
1216	64.9592
1212	64.9898
1208	64.9873
1204	64.9893
1200	64.9937
1196	64.9811
1192	65.0129
1188	64.9816
1184	64.9421
1180	64.9883
1176	64.9954
1172	64.9271
1168	64.8885
1164	64.9144
1160	64.8879
1156	64.8652
1152	64.8558
1148	64.7898
1144	64.7762
1140	64.8166
1136	64.873
1132	64.8861
1128	64.7633
1124	64.6769
1120	64.7535
1116	64.8884
1112	65.0383
1108	65.1805
1104	65.1982
1100	64.8855
1096	64.4094
1092	64.2607
1088	64.3692
1084	64.5063
1080	64.6718
1076	64.7269
1072	64.7321
1068	64.7596
1064	64.6968
1060	64.6791
1056	64.7967
1052	64.8137
1048	64.8087
1044	64.9068
1040	64.8463
1036	64.687
1032	64.5785
1028	64.5175
1024	64.4506
1020	64.3966
1016	64.4552
1012	64.5283
1008	64.6564
1004	64.8514
1000	64.8806
996	 64.8051
992	 64.7038
988	 64.4603
984	 64.1714
980	 63.992
976	 63.9368
972	 64.0696
968	 64.3487
964	 64.5775
960	 64.7261
956	 64.729
952	 64.6883
948	 64.7288
944	 64.6636
940	 64.539
936	 64.478
932	 64.4451
928	 64.4814
924	 64.5575
920	 64.5161
916	 64.5039
912	 64.6313
908	 64.7217
904	 64.7563
900	 64.8114
896	 64.8514
892	 64.7816
888	 64.6376
884	 64.5585
880	 64.519
876	 64.4031
872	 64.3372
868	 64.4259
864	 64.4958
860	 64.4592
856	 64.4052
852	 64.367
848	 64.3237
844	 64.3049
840	 64.3518
836	 64.3298
832	 64.2527
828	 64.2651
824	 64.2861
820	 64.3844
816	 64.4928
812	 64.4887
808	 64.4329
804	 64.222
800	 63.9673
796	 63.8874
792	 63.9385
788	 64.0432
784	 64.1856
780	 64.2153
776	 64.0324
772	 63.8393
768	 63.8884
764	 64.0641
760	 63.9775
756	 63.789
752	 63.788
748	 63.875
744	 63.9718
740	 63.7645
736	 63.3692
732	 63.2415
728	 63.2023
724	 63.3372
720	 63.7432
716	 63.7933
712	 63.4113
708	 63.0653
704	 63.0095
700	 63.2387
696	 63.386
692	 63.2467
688	 62.9811
684	 62.9126
680	 63.1069
676	 63.1582
672	 62.9138
668	 62.6537
664	 62.6608
660	 62.8243
656	 62.8303
652	 62.7358
648	 62.5902
644	 62.4718
640	 62.5751
636	 62.8143
632	 62.9807
628	 62.8801
624	 62.5607
620	 62.2702
616	 62.2172
612	 62.2839
608	 62.3435
604	 62.5989
600	 62.7966
596	 62.6096
592	 62.3782
588	 62.4042
584	 62.6063
580	 62.8142
576	 62.6194
572	 62.1157
568	 61.9511
564	 62.0605
560	 62.1208
556	 61.9679
552	 61.7208
548	 61.7013
544	 61.7052
540	 61.6049
536	 61.3571
532	 60.989
528	 60.7789
524	 60.5239
520	 60.7327
516	 61.6222
512	 61.7211
508	 61.1078
504	 60.865
500	 60.5525
496	 60.1324
492	 60.3449
488	 61.1609
484	 61.6167
480	 60.8951
476	 59.8739
472	 59.595
468	 59.8852
464	 60.2614
460	 60.6254
456	 61.4556
452	 61.6751
448	 60.7443
444	 60.2475
440	 59.9346
436	 58.1128
432	 55.3636
428	 54.8309
424	 56.3066
420	 57.7887
416	 58.8348
412	 60.4286
408	 63.5259
404	 63.1202
400	 58.0621
396	 50.5118
392	 37.5119
388	 28.672
384	 42.363
380	 63.3331
376	 61.2816
372	 53.1796
370	 52.7415