File: Bakgrunnsmateriale/MATLAB/FTIR/ftir_data/subBb/Mapping_121/C-4040-8_t30_cm-1.asc
PE IR       SPECTRUM    SPECTRUM    ASCII       PEDS        1.60
  -1
C-1B61~1.ASC
17/03/27
16:57:08.00
17/03/27
16:57:08.00
tln
$C-4040-8_t0030$<tbV0>[-5.2,-7.8,8.0,0.0,27,1,0]
370
64

2002,4.07
MIRTGS : RIGHTBACK : INTERNAL 2
MIR : ON : INTERNAL 2
OPTKBR

0.200000
8
8.000000
FILLER
RATIO
SPECTRUM
UNLOCKED 256

DOUBLE
64
COMBINED
1
0
0

1.000000
RATIO

1
0
TRUE
51149
0
LEFT NOT FITTED RIGHT NOT FITTED 0
NONE
NONE
15600
12
4.427000
51148
TRUE
1 0 8 72 0 0 0 0

15798

#HDR
-1
-1
#GR
CM-1
%T
2.38419e-05
0.0
5000
-1.000000
4631
8
66.6715
11.1813
#DATA
5000	63.8222
4996	63.716
4992	63.8728
4988	64.1701
4984	64.188
4980	64.1364
4976	64.1469
4972	64.0805
4968	64.1217
4964	64.2606
4960	64.3377
4956	64.3731
4952	64.3986
4948	64.163
4944	63.9661
4940	64.248
4936	64.4284
4932	64.3114
4928	64.2294
4924	64.2251
4920	64.3484
4916	64.6102
4912	64.6858
4908	64.4328
4904	64.4103
4900	64.84
4896	65.099
4892	64.925
4888	64.5389
4884	64.1819
4880	64.1483
4876	64.0554
4872	63.7206
4868	63.9449
4864	64.5765
4860	64.6316
4856	64.366
4852	64.2991
4848	64.2435
4844	64.1327
4840	64.0043
4836	64.0029
4832	64.0716
4828	64.0709
4824	64.1154
4820	64.2671
4816	64.3698
4812	64.1489
4808	63.8845
4804	63.8281
4800	63.8101
4796	63.9232
4792	64.113
4788	64.1249
4784	63.9693
4780	63.8231
4776	63.7759
4772	63.726
4768	63.8952
4764	64.1711
4760	64.056
4756	63.9015
4752	63.8919
4748	63.8226
4744	63.7638
4740	63.7654
4736	63.9258
4732	64.0887
4728	64.008
4724	63.789
4720	63.7165
4716	63.9361
4712	64.1955
4708	64.3357
4704	64.3633
4700	64.2348
4696	64.1188
4692	64.016
4688	63.809
4684	63.7407
4680	63.8644
4676	63.8368
4672	63.6937
4668	63.7946
4664	64.0151
4660	64.1275
4656	64.1492
4652	63.9338
4648	63.6938
4644	63.6906
4640	63.8207
4636	63.9686
4632	64.0654
4628	64.1865
4624	64.2162
4620	64.0899
4616	64.0587
4612	64.0566
4608	63.916
4604	63.8424
4600	63.9041
4596	64.0186
4592	64.2066
4588	64.3728
4584	64.3395
4580	64.1958
4576	64.0467
4572	63.766
4568	63.6571
4564	63.9625
4560	64.1661
4556	64.0571
4552	63.9823
4548	64.0082
4544	63.8909
4540	63.5551
4536	63.4316
4532	63.8193
4528	64.348
4524	64.6506
4520	64.6857
4516	64.4317
4512	64.111
4508	63.9872
4504	63.9956
4500	64.0719
4496	64.1851
4492	64.3048
4488	64.4442
4484	64.5969
4480	64.6959
4476	64.5867
4472	64.2239
4468	63.9019
4464	63.9221
4460	63.9987
4456	63.8875
4452	63.8023
4448	63.7841
4444	63.6945
4440	63.6709
4436	63.9347
4432	64.1428
4428	64.026
4424	63.9917
4420	64.0764
4416	63.9563
4412	63.5387
4408	63.2492
4404	63.4554
4400	63.9221
4396	64.5234
4392	64.5827
4388	64.94
4384	64.4413
4380	62.898
4376	64.5024
4372	66.3474
4368	66.6715
4364	64.57
4360	57.4727
4356	53.1206
4352	57.1212
4348	63.58
4344	65.8446
4340	64.835
4336	63.9907
4332	63.8904
4328	64.1289
4324	64.2734
4320	64.2448
4316	64.2295
4312	64.0735
4308	63.8072
4304	63.7936
4300	63.9408
4296	64.033
4292	64.2556
4288	64.4481
4284	64.2298
4280	63.9982
4276	64.1317
4272	64.1229
4268	63.8925
4264	63.92
4260	63.9708
4256	63.8311
4252	63.7964
4248	63.7799
4244	63.5817
4240	63.4713
4236	63.5962
4232	63.6901
4228	63.6397
4224	63.6461
4220	63.7644
4216	63.7876
4212	63.7604
4208	63.8844
4204	63.9721
4200	63.7762
4196	63.418
4192	63.2629
4188	63.5142
4184	63.8811
4180	64.0474
4176	64.0216
4172	63.849
4168	63.7867
4164	63.8692
4160	63.6312
4156	63.2748
4152	63.3752
4148	63.6869
4144	63.7228
4140	63.677
4136	63.6948
4132	63.5752
4128	63.4245
4124	63.3899
4120	63.3878
4116	63.3652
4112	63.29
4108	63.237
4104	63.2424
4100	63.2835
4096	63.4107
4092	63.494
4088	63.4181
4084	63.3623
4080	63.3772
4076	63.3521
4072	63.318
4068	63.26
4064	63.18
4060	63.1219
4056	63.1162
4052	63.1729
4048	63.2911
4044	63.4489
4040	63.531
4036	63.543
4032	63.5185
4028	63.3487
4024	63.1598
4020	63.2083
4016	63.3585
4012	63.3862
4008	63.2879
4004	63.15
4000	63.0503
3996	63.0791
3992	63.2007
3988	63.2298
3984	63.1833
3980	63.214
3976	63.3131
3972	63.3846
3968	63.4202
3964	63.3286
3960	63.1296
3956	63.029
3952	63.0257
3948	63.0316
3944	63.111
3940	63.2512
3936	63.2571
3932	63.2198
3928	63.3192
3924	63.3776
3920	63.3333
3916	63.28
3912	63.1628
3908	63.0846
3904	63.1783
3900	63.3011
3896	63.3293
3892	63.3065
3888	63.2383
3884	63.1862
3880	63.3263
3876	63.4253
3872	63.2358
3868	63.0626
3864	63.0331
3860	63.0828
3856	63.2656
3852	63.3732
3848	63.2637
3844	63.1171
3840	63.028
3836	62.9667
3832	62.943
3828	63.0394
3824	63.195
3820	63.236
3816	63.1741
3812	63.1184
3808	63.086
3804	63.0557
3800	62.9983
3796	62.8783
3792	62.824
3788	62.8607
3784	62.8752
3780	62.9417
3776	63.012
3772	62.9879
3768	62.945
3764	62.9144
3760	62.8891
3756	62.8738
3752	62.8386
3748	62.8223
3744	62.9476
3740	63.0798
3736	63.0243
3732	62.9414
3728	62.9596
3724	62.9596
3720	62.8746
3716	62.8562
3712	62.903
3708	62.8373
3704	62.7772
3700	62.8144
3696	62.8303
3692	62.8052
3688	62.7761
3684	62.7479
3680	62.6985
3676	62.675
3672	62.7147
3668	62.7226
3664	62.6694
3660	62.5988
3656	62.5081
3652	62.4974
3648	62.6146
3644	62.7186
3640	62.7273
3636	62.6282
3632	62.5055
3628	62.5058
3624	62.5832
3620	62.5704
3616	62.4769
3612	62.464
3608	62.529
3604	62.5488
3600	62.5594
3596	62.57
3592	62.5156
3588	62.4841
3584	62.5026
3580	62.4211
3576	62.3451
3572	62.4257
3568	62.4171
3564	62.2809
3560	62.2799
3556	62.382
3552	62.386
3548	62.3216
3544	62.2867
3540	62.3321
3536	62.4141
3532	62.3707
3528	62.2636
3524	62.1805
3520	62.1826
3516	62.3516
3512	62.4082
3508	62.2443
3504	62.1852
3500	62.2957
3496	62.2731
3492	62.1106
3488	62.0944
3484	62.1976
3480	62.1526
3476	62.0453
3472	62.045
3468	62.0516
3464	62.077
3460	62.0965
3456	62.0304
3452	62.0287
3448	62.1314
3444	62.1675
3440	62.1203
3436	62.0932
3432	62.0902
3428	62.0095
3424	61.8419
3420	61.7692
3416	61.8027
3412	61.7915
3408	61.711
3404	61.632
3400	61.657
3396	61.7469
3392	61.716
3388	61.6551
3384	61.738
3380	61.7617
3376	61.6822
3372	61.6817
3368	61.7344
3364	61.6918
3360	61.615
3356	61.6985
3352	61.8097
3348	61.814
3344	61.7977
3340	61.7937
3336	61.7888
3332	61.6824
3328	61.533
3324	61.5995
3320	61.7221
3316	61.6762
3312	61.5375
3308	61.4372
3304	61.4762
3300	61.6037
3296	61.6117
3292	61.4712
3288	61.4103
3284	61.4062
3280	61.3886
3276	61.4682
3272	61.513
3268	61.3858
3264	61.2142
3260	61.1383
3256	61.1386
3252	61.148
3248	61.1721
3244	61.2848
3240	61.3944
3236	61.3382
3232	61.2153
3228	61.0923
3224	60.9832
3220	60.9267
3216	60.9033
3212	60.9785
3208	61.0511
3204	61.0134
3200	61.0445
3196	61.0579
3192	60.9729
3188	60.935
3184	60.9292
3180	60.9459
3176	60.9369
3172	60.886
3168	60.8479
3164	60.8353
3160	60.8178
3156	60.7328
3152	60.7117
3148	60.7325
3144	60.5951
3140	60.4763
3136	60.4929
3132	60.541
3128	60.5754
3124	60.5226
3120	60.5026
3116	60.6872
3112	60.8391
3108	60.7344
3104	60.5837
3100	60.5036
3096	60.5041
3092	60.5904
3088	60.5694
3084	60.4286
3080	60.4343
3076	60.5865
3072	60.6177
3068	60.5246
3064	60.4268
3060	60.3664
3056	60.3931
3052	60.3913
3048	60.3222
3044	60.3165
3040	60.3379
3036	60.3184
3032	60.2788
3028	60.244
3024	60.2047
3020	60.1681
3016	60.1725
3012	60.1888
3008	60.1815
3004	60.1426
3000	60.1088
2996	60.1135
2992	60.1167
2988	60.1388
2984	60.1555
2980	60.1126
2976	60.032
2972	59.9551
2968	59.9248
2964	59.8998
2960	59.8352
2956	59.7495
2952	59.7008
2948	59.7332
2944	59.7906
2940	59.795
2936	59.7433
2932	59.6066
2928	59.4933
2924	59.5
2920	59.4495
2916	59.3745
2912	59.3729
2908	59.4014
2904	59.4679
2900	59.5829
2896	59.6698
2892	59.6223
2888	59.5225
2884	59.466
2880	59.4047
2876	59.4013
2872	59.4328
2868	59.3575
2864	59.2267
2860	59.119
2856	59.084
2852	59.1572
2848	59.2742
2844	59.3848
2840	59.4189
2836	59.3412
2832	59.3164
2828	59.3294
2824	59.2414
2820	59.1972
2816	59.2185
2812	59.2198
2808	59.2153
2804	59.1486
2800	59.0287
2796	58.9275
2792	58.9262
2788	59.0096
2784	59.0382
2780	58.9978
2776	58.961
2772	58.9532
2768	58.9226
2764	58.8717
2760	58.8505
2756	58.8641
2752	58.8634
2748	58.8074
2744	58.7691
2740	58.7067
2736	58.5378
2732	58.3856
2728	58.3661
2724	58.4016
2720	58.406
2716	58.388
2712	58.3857
2708	58.3967
2704	58.3506
2700	58.3048
2696	58.3513
2692	58.3926
2688	58.3452
2684	58.2766
2680	58.2235
2676	58.218
2672	58.2468
2668	58.1753
2664	58.0805
2660	58.0926
2656	58.1234
2652	58.1267
2648	58.1206
2644	58.0894
2640	58.0366
2636	57.9792
2632	57.9087
2628	57.8477
2624	57.8226
2620	57.795
2616	57.8018
2612	57.8665
2608	57.9077
2604	57.8968
2600	57.8407
2596	57.7624
2592	57.7047
2588	57.6591
2584	57.6283
2580	57.6156
2576	57.5714
2572	57.5246
2568	57.502
2564	57.4818
2560	57.5272
2556	57.6079
2552	57.5966
2548	57.52
2544	57.4676
2540	57.4364
2536	57.4079
2532	57.3867
2528	57.3426
2524	57.2972
2520	57.2337
2516	57.097
2512	57.0017
2508	56.9781
2504	56.9592
2500	56.9716
2496	56.949
2492	56.8661
2488	56.8474
2484	56.8705
2480	56.8322
2476	56.7481
2472	56.6827
2468	56.6885
2464	56.734
2460	56.7753
2456	56.7898
2452	56.7413
2448	56.707
2444	56.6697
2440	56.5625
2436	56.5286
2432	56.5578
2428	56.4603
2424	56.3402
2420	56.4067
2416	56.5511
2412	56.5811
2408	56.5228
2404	56.4753
2400	56.4388
2396	56.4013
2392	56.3757
2388	56.3243
2384	56.2524
2380	56.2066
2376	56.173
2372	56.164
2368	56.1826
2364	56.1736
2360	56.1187
2356	56.0469
2352	56.0196
2348	56.0101
2344	55.9247
2340	55.8185
2336	55.7872
2332	55.7549
2328	55.7225
2324	55.7718
2320	55.7945
2316	55.743
2312	55.6857
2308	55.6648
2304	55.6735
2300	55.6426
2296	55.5296
2292	55.4027
2288	55.375
2284	55.3983
2280	55.3886
2276	55.35
2272	55.315
2268	55.3214
2264	55.3493
2260	55.347
2256	55.2954
2252	55.2436
2248	55.2248
2244	55.2109
2240	55.2068
2236	55.1689
2232	55.0253
2228	54.856
2224	54.7863
2220	54.7983
2216	54.8031
2212	54.8182
2208	54.89
2204	54.9063
2200	54.7754
2196	54.6717
2192	54.6869
2188	54.7007
2184	54.6959
2180	54.6984
2176	54.7024
2172	54.6959
2168	54.6322
2164	54.5129
2160	54.3814
2156	54.2964
2152	54.2923
2148	54.3339
2144	54.3718
2140	54.3721
2136	54.3264
2132	54.263
2128	54.1976
2124	54.1444
2120	54.0866
2116	53.9823
2112	53.9306
2108	53.9759
2104	54.0134
2100	53.9836
2096	53.9136
2092	53.8821
2088	53.8989
2084	53.9088
2080	53.855
2076	53.8194
2072	53.9251
2068	53.9956
2064	53.8951
2060	53.8176
2056	53.7798
2052	53.7011
2048	53.6164
2044	53.5167
2040	53.4134
2036	53.3408
2032	53.342
2028	53.3708
2024	53.3248
2020	53.2558
2016	53.2418
2012	53.2357
2008	53.2038
2004	53.1534
2000	53.124
1996	53.1163
1992	53.0438
1988	52.9402
1984	52.9125
1980	52.9464
1976	52.9293
1972	52.8271
1968	52.7466
1964	52.7449
1960	52.7627
1956	52.7335
1952	52.6555
1948	52.5611
1944	52.5013
1940	52.4618
1936	52.4263
1932	52.4297
1928	52.4238
1924	52.3897
1920	52.36
1916	52.3515
1912	52.3444
1908	52.2974
1904	52.2106
1900	52.1487
1896	52.1562
1892	52.1411
1888	52.0827
1884	52.0725
1880	52.072
1876	52.0219
1872	51.9843
1868	51.9433
1864	51.8624
1860	51.7937
1856	51.7345
1852	51.7042
1848	51.6875
1844	51.634
1840	51.6495
1836	51.7367
1832	51.731
1828	51.667
1824	51.6025
1820	51.4934
1816	51.4016
1812	51.3643
1808	51.3349
1804	51.3222
1800	51.318
1796	51.2956
1792	51.2656
1788	51.1987
1784	51.113
1780	51.0884
1776	51.1094
1772	51.0827
1768	51.0165
1764	51.0082
1760	51.0256
1756	51.0043
1752	50.9703
1748	50.9009
1744	50.7817
1740	50.6711
1736	50.6348
1732	50.6553
1728	50.6294
1724	50.5716
1720	50.515
1716	50.4242
1712	50.334
1708	50.3031
1704	50.3672
1700	50.4963
1696	50.545
1692	50.451
1688	50.3163
1684	50.222
1680	50.2214
1676	50.221
1672	50.1171
1668	50.0617
1664	50.091
1660	50.0738
1656	50.0142
1652	49.9629
1648	49.9499
1644	49.9578
1640	49.8945
1636	49.7558
1632	49.6495
1628	49.6166
1624	49.608
1620	49.5871
1616	49.567
1612	49.5432
1608	49.4738
1604	49.3845
1600	49.3716
1596	49.4156
1592	49.4021
1588	49.3519
1584	49.2825
1580	49.1287
1576	49.0108
1572	49.024
1568	49.0326
1564	48.9822
1560	48.964
1556	48.9964
1552	48.9913
1548	48.9265
1544	48.8176
1540	48.7276
1536	48.7131
1532	48.73
1528	48.738
1524	48.7066
1520	48.6843
1516	48.7191
1512	48.7573
1508	48.7228
1504	48.6231
1500	48.5481
1496	48.5383
1492	48.4941
1488	48.3637
1484	48.2666
1480	48.2223
1476	48.1309
1472	48.033
1468	48.0184
1464	48.0258
1460	48.0363
1456	47.9759
1452	47.825
1448	47.7737
1444	47.7233
1440	47.5986
1436	47.6053
1432	47.6717
1428	47.6286
1424	47.535
1420	47.5254
1416	47.5812
1412	47.5657
1408	47.4881
1404	47.4319
1400	47.459
1396	47.4805
1392	47.3625
1388	47.2518
1384	47.2386
1380	47.2268
1376	47.2026
1372	47.1335
1368	47.0324
1364	47.0598
1360	47.1721
1356	47.1417
1352	46.9844
1348	46.8338
1344	46.7798
1340	46.8544
1336	46.9175
1332	46.883
1328	46.8325
1324	46.7902
1320	46.6998
1316	46.5516
1312	46.4263
1308	46.4037
1304	46.3896
1300	46.3424
1296	46.3746
1292	46.4374
1288	46.4128
1284	46.3523
1280	46.3456
1276	46.3447
1272	46.2704
1268	46.1972
1264	46.1813
1260	46.1249
1256	46.0345
1252	45.9799
1248	45.9248
1244	45.939
1240	46.0146
1236	45.982
1232	45.8832
1228	45.8298
1224	45.7688
1220	45.7097
1216	45.7063
1212	45.6689
1208	45.5576
1204	45.4606
1200	45.4323
1196	45.4428
1192	45.4504
1188	45.4333
1184	45.398
1180	45.3626
1176	45.2813
1172	45.139
1168	45.0205
1164	44.9678
1160	44.9173
1156	44.9161
1152	44.9871
1148	44.9855
1144	44.885
1140	44.8122
1136	44.8064
1132	44.7361
1128	44.5816
1124	44.4033
1120	44.2631
1116	44.2888
1112	44.4336
1108	44.5884
1104	44.7941
1100	44.8587
1096	44.6153
1092	44.4008
1088	44.3795
1084	44.3524
1080	44.238
1076	44.1711
1072	44.1066
1068	43.801
1064	43.4613
1060	43.3956
1056	43.633
1052	43.892
1048	43.7483
1044	43.5558
1040	43.7087
1036	43.9437
1032	43.9805
1028	43.7851
1024	43.6691
1020	43.6854
1016	43.552
1012	43.3794
1008	43.3341
1004	43.3044
1000	43.2505
996	 43.1664
992	 43.1068
988	 43.2306
984	 43.4034
980	 43.3512
976	 43.1734
972	 43.0298
968	 42.9142
964	 42.82
960	 42.714
956	 42.6734
952	 42.7056
948	 42.6668
944	 42.5869
940	 42.5222
936	 42.527
932	 42.5019
928	 42.3657
924	 42.3081
920	 42.3567
916	 42.3771
912	 42.3384
908	 42.2695
904	 42.1484
900	 42.0322
896	 41.9723
892	 41.8978
888	 41.8256
884	 41.8034
880	 41.7993
876	 41.7718
872	 41.7088
868	 41.6803
864	 41.6126
860	 41.4477
856	 41.366
852	 41.4168
848	 41.4545
844	 41.3456
840	 41.151
836	 41.0763
832	 41.093
828	 41.0164
824	 40.941
820	 40.8423
816	 40.5899
812	 40.3901
808	 40.3422
804	 40.3279
800	 40.3392
796	 40.4061
792	 40.4718
788	 40.5005
784	 40.4028
780	 40.2171
776	 40.0547
772	 39.8441
768	 39.6924
764	 39.7121
760	 39.6352
756	 39.3194
752	 39.0496
748	 39.123
744	 39.3121
740	 39.3481
736	 39.3566
732	 39.3263
728	 39.2087
724	 39.1492
720	 39.2072
716	 39.0962
712	 38.7596
708	 38.6467
704	 38.6913
700	 38.5126
696	 38.2873
692	 38.2165
688	 38.1744
684	 38.1436
680	 38.1526
676	 38.1263
672	 38.0875
668	 38.131
664	 38.1068
660	 37.815
656	 37.4565
652	 37.321
648	 37.3478
644	 37.1175
640	 36.5723
636	 36.3214
632	 36.5421
628	 36.8228
624	 36.9116
620	 36.7237
616	 36.5026
612	 36.5022
608	 36.5216
604	 36.4412
600	 36.2304
596	 35.9954
592	 35.8405
588	 35.715
584	 35.7394
580	 35.669
576	 35.2625
572	 35.0087
568	 35.2075
564	 35.427
560	 35.4273
556	 35.2656
552	 34.9563
548	 34.7575
544	 34.621
540	 34.3154
536	 33.9947
532	 33.6582
528	 33.464
524	 33.4807
520	 33.2382
516	 33.0435
512	 33.2322
508	 33.2514
504	 33.079
500	 32.8493
496	 32.2391
492	 31.5183
488	 31.2629
484	 31.4394
480	 31.6315
476	 31.5984
472	 31.1706
468	 30.5459
464	 30.4645
460	 30.4775
456	 29.9675
452	 29.4952
448	 29.2145
444	 29.4169
440	 29.415
436	 29.4185
432	 29.9197
428	 29.4642
424	 28.8108
420	 28.2767
416	 27.4255
412	 25.8797
408	 22.117
404	 16.4755
400	 14.7755
396	 25.011
392	 49.5927
388	 60.646
384	 43.7546
380	 32.7718
376	 32.0782
372	 17.0945
370	 11.1813